"src_subject_id","start_time","end_time","browser","index","first_half_probabilities","second_half_probabilities","deck_color","deck_position","deck_probabilities","deck_contingencies","response_color","key_press","response_position","response_probability","reward_type","trial_type","rt","reward_tally","exclusion_reason"
"A1T3ROSW2LC4FG","Mon Oct 26 2020 08:56:58 GMT-0700 (Pacific Daylight Time)","Mon Oct 26 2020 09:04:11 GMT-0700 (Pacific Daylight Time)","Mozilla/5.0 (Windows NT 10.0; Win64; x64) AppleWebKit/537.36 (KHTML, like Gecko) Chrome/86.0.4240.75 Safari/537.36",1,"[0.9, 0.5, 0.1]","[0.8, 0.4, 0.2]","[u'black', u'red', u'blue']","[u'left', u'middle', u'right']","[0.9, 0.5, 0.1]","[u'high', u'low', u'medium']","red",50,"middle","low","False","False",1373,-50,NA
"A1T3ROSW2LC4FG","Mon Oct 26 2020 08:56:58 GMT-0700 (Pacific Daylight Time)","Mon Oct 26 2020 09:04:11 GMT-0700 (Pacific Daylight Time)","Mozilla/5.0 (Windows NT 10.0; Win64; x64) AppleWebKit/537.36 (KHTML, like Gecko) Chrome/86.0.4240.75 Safari/537.36",2,"[0.9, 0.5, 0.1]","[0.8, 0.4, 0.2]","[u'black', u'red', u'blue']","[u'left', u'middle', u'right']","[0.9, 0.5, 0.1]","[u'high', u'low', u'medium']","blue",51,"right","medium","True","False",551,50,NA
"A1T3ROSW2LC4FG","Mon Oct 26 2020 08:56:58 GMT-0700 (Pacific Daylight Time)","Mon Oct 26 2020 09:04:11 GMT-0700 (Pacific Daylight Time)","Mozilla/5.0 (Windows NT 10.0; Win64; x64) AppleWebKit/537.36 (KHTML, like Gecko) Chrome/86.0.4240.75 Safari/537.36",3,"[0.9, 0.5, 0.1]","[0.8, 0.4, 0.2]","[u'black', u'red', u'blue']","[u'left', u'middle', u'right']","[0.9, 0.5, 0.1]","[u'high', u'low', u'medium']","blue",51,"right","medium","False","False",517,0,NA
"A1T3ROSW2LC4FG","Mon Oct 26 2020 08:56:58 GMT-0700 (Pacific Daylight Time)","Mon Oct 26 2020 09:04:11 GMT-0700 (Pacific Daylight Time)","Mozilla/5.0 (Windows NT 10.0; Win64; x64) AppleWebKit/537.36 (KHTML, like Gecko) Chrome/86.0.4240.75 Safari/537.36",4,"[0.9, 0.5, 0.1]","[0.8, 0.4, 0.2]","[u'black', u'red', u'blue']","[u'left', u'middle', u'right']","[0.9, 0.5, 0.1]","[u'high', u'low', u'medium']","black",49,"left","high","True","False",322,100,NA
"A1T3ROSW2LC4FG","Mon Oct 26 2020 08:56:58 GMT-0700 (Pacific Daylight Time)","Mon Oct 26 2020 09:04:11 GMT-0700 (Pacific Daylight Time)","Mozilla/5.0 (Windows NT 10.0; Win64; x64) AppleWebKit/537.36 (KHTML, like Gecko) Chrome/86.0.4240.75 Safari/537.36",5,"[0.9, 0.5, 0.1]","[0.8, 0.4, 0.2]","[u'black', u'red', u'blue']","[u'left', u'middle', u'right']","[0.9, 0.5, 0.1]","[u'high', u'low', u'medium']","black",49,"left","high","False","False",497,50,NA
"A1T3ROSW2LC4FG","Mon Oct 26 2020 08:56:58 GMT-0700 (Pacific Daylight Time)","Mon Oct 26 2020 09:04:11 GMT-0700 (Pacific Daylight Time)","Mozilla/5.0 (Windows NT 10.0; Win64; x64) AppleWebKit/537.36 (KHTML, like Gecko) Chrome/86.0.4240.75 Safari/537.36",6,"[0.9, 0.5, 0.1]","[0.8, 0.4, 0.2]","[u'black', u'red', u'blue']","[u'left', u'middle', u'right']","[0.9, 0.5, 0.1]","[u'high', u'low', u'medium']","red",50,"middle","low","False","False",322,0,NA
"A1T3ROSW2LC4FG","Mon Oct 26 2020 08:56:58 GMT-0700 (Pacific Daylight Time)","Mon Oct 26 2020 09:04:11 GMT-0700 (Pacific Daylight Time)","Mozilla/5.0 (Windows NT 10.0; Win64; x64) AppleWebKit/537.36 (KHTML, like Gecko) Chrome/86.0.4240.75 Safari/537.36",7,"[0.9, 0.5, 0.1]","[0.8, 0.4, 0.2]","[u'black', u'red', u'blue']","[u'left', u'middle', u'right']","[0.9, 0.5, 0.1]","[u'high', u'low', u'medium']","red",50,"middle","low","False","False",307,-50,NA
"A1T3ROSW2LC4FG","Mon Oct 26 2020 08:56:58 GMT-0700 (Pacific Daylight Time)","Mon Oct 26 2020 09:04:11 GMT-0700 (Pacific Daylight Time)","Mozilla/5.0 (Windows NT 10.0; Win64; x64) AppleWebKit/537.36 (KHTML, like Gecko) Chrome/86.0.4240.75 Safari/537.36",8,"[0.9, 0.5, 0.1]","[0.8, 0.4, 0.2]","[u'black', u'red', u'blue']","[u'left', u'middle', u'right']","[0.9, 0.5, 0.1]","[u'high', u'low', u'medium']","blue",51,"right","medium","False","False",442,-100,NA
"A1T3ROSW2LC4FG","Mon Oct 26 2020 08:56:58 GMT-0700 (Pacific Daylight Time)","Mon Oct 26 2020 09:04:11 GMT-0700 (Pacific Daylight Time)","Mozilla/5.0 (Windows NT 10.0; Win64; x64) AppleWebKit/537.36 (KHTML, like Gecko) Chrome/86.0.4240.75 Safari/537.36",9,"[0.9, 0.5, 0.1]","[0.8, 0.4, 0.2]","[u'black', u'red', u'blue']","[u'left', u'middle', u'right']","[0.9, 0.5, 0.1]","[u'high', u'low', u'medium']","blue",51,"right","medium","False","False",389,-150,NA
"A1T3ROSW2LC4FG","Mon Oct 26 2020 08:56:58 GMT-0700 (Pacific Daylight Time)","Mon Oct 26 2020 09:04:11 GMT-0700 (Pacific Daylight Time)","Mozilla/5.0 (Windows NT 10.0; Win64; x64) AppleWebKit/537.36 (KHTML, like Gecko) Chrome/86.0.4240.75 Safari/537.36",10,"[0.9, 0.5, 0.1]","[0.8, 0.4, 0.2]","[u'black', u'red', u'blue']","[u'left', u'middle', u'right']","[0.9, 0.5, 0.1]","[u'high', u'low', u'medium']","black",49,"left","high","True","False",442,-50,NA
"A1T3ROSW2LC4FG","Mon Oct 26 2020 08:56:58 GMT-0700 (Pacific Daylight Time)","Mon Oct 26 2020 09:04:11 GMT-0700 (Pacific Daylight Time)","Mozilla/5.0 (Windows NT 10.0; Win64; x64) AppleWebKit/537.36 (KHTML, like Gecko) Chrome/86.0.4240.75 Safari/537.36",11,"[0.9, 0.5, 0.1]","[0.8, 0.4, 0.2]","[u'black', u'red', u'blue']","[u'left', u'middle', u'right']","[0.9, 0.5, 0.1]","[u'high', u'low', u'medium']","black",49,"left","high","True","False",475,50,NA
"A1T3ROSW2LC4FG","Mon Oct 26 2020 08:56:58 GMT-0700 (Pacific Daylight Time)","Mon Oct 26 2020 09:04:11 GMT-0700 (Pacific Daylight Time)","Mozilla/5.0 (Windows NT 10.0; Win64; x64) AppleWebKit/537.36 (KHTML, like Gecko) Chrome/86.0.4240.75 Safari/537.36",12,"[0.9, 0.5, 0.1]","[0.8, 0.4, 0.2]","[u'black', u'red', u'blue']","[u'left', u'middle', u'right']","[0.9, 0.5, 0.1]","[u'high', u'low', u'medium']","black",49,"left","high","True","False",452,150,NA
"A1T3ROSW2LC4FG","Mon Oct 26 2020 08:56:58 GMT-0700 (Pacific Daylight Time)","Mon Oct 26 2020 09:04:11 GMT-0700 (Pacific Daylight Time)","Mozilla/5.0 (Windows NT 10.0; Win64; x64) AppleWebKit/537.36 (KHTML, like Gecko) Chrome/86.0.4240.75 Safari/537.36",13,"[0.9, 0.5, 0.1]","[0.8, 0.4, 0.2]","[u'black', u'red', u'blue']","[u'left', u'middle', u'right']","[0.9, 0.5, 0.1]","[u'high', u'low', u'medium']","black",49,"left","high","True","False",378,250,NA
"A1T3ROSW2LC4FG","Mon Oct 26 2020 08:56:58 GMT-0700 (Pacific Daylight Time)","Mon Oct 26 2020 09:04:11 GMT-0700 (Pacific Daylight Time)","Mozilla/5.0 (Windows NT 10.0; Win64; x64) AppleWebKit/537.36 (KHTML, like Gecko) Chrome/86.0.4240.75 Safari/537.36",14,"[0.9, 0.5, 0.1]","[0.8, 0.4, 0.2]","[u'black', u'red', u'blue']","[u'left', u'middle', u'right']","[0.9, 0.5, 0.1]","[u'high', u'low', u'medium']","black",49,"left","high","True","False",377,350,NA
"A1T3ROSW2LC4FG","Mon Oct 26 2020 08:56:58 GMT-0700 (Pacific Daylight Time)","Mon Oct 26 2020 09:04:11 GMT-0700 (Pacific Daylight Time)","Mozilla/5.0 (Windows NT 10.0; Win64; x64) AppleWebKit/537.36 (KHTML, like Gecko) Chrome/86.0.4240.75 Safari/537.36",15,"[0.9, 0.5, 0.1]","[0.8, 0.4, 0.2]","[u'black', u'red', u'blue']","[u'left', u'middle', u'right']","[0.9, 0.5, 0.1]","[u'high', u'low', u'medium']","black",49,"left","high","True","False",420,450,NA
"A1T3ROSW2LC4FG","Mon Oct 26 2020 08:56:58 GMT-0700 (Pacific Daylight Time)","Mon Oct 26 2020 09:04:11 GMT-0700 (Pacific Daylight Time)","Mozilla/5.0 (Windows NT 10.0; Win64; x64) AppleWebKit/537.36 (KHTML, like Gecko) Chrome/86.0.4240.75 Safari/537.36",16,"[0.9, 0.5, 0.1]","[0.8, 0.4, 0.2]","[u'black', u'red', u'blue']","[u'left', u'middle', u'right']","[0.9, 0.5, 0.1]","[u'high', u'low', u'medium']","black",49,"left","high","True","False",445,550,NA
"A1T3ROSW2LC4FG","Mon Oct 26 2020 08:56:58 GMT-0700 (Pacific Daylight Time)","Mon Oct 26 2020 09:04:11 GMT-0700 (Pacific Daylight Time)","Mozilla/5.0 (Windows NT 10.0; Win64; x64) AppleWebKit/537.36 (KHTML, like Gecko) Chrome/86.0.4240.75 Safari/537.36",17,"[0.9, 0.5, 0.1]","[0.8, 0.4, 0.2]","[u'black', u'red', u'blue']","[u'left', u'middle', u'right']","[0.9, 0.5, 0.1]","[u'high', u'low', u'medium']","black",49,"left","high","True","False",409,650,NA
"A1T3ROSW2LC4FG","Mon Oct 26 2020 08:56:58 GMT-0700 (Pacific Daylight Time)","Mon Oct 26 2020 09:04:11 GMT-0700 (Pacific Daylight Time)","Mozilla/5.0 (Windows NT 10.0; Win64; x64) AppleWebKit/537.36 (KHTML, like Gecko) Chrome/86.0.4240.75 Safari/537.36",18,"[0.9, 0.5, 0.1]","[0.8, 0.4, 0.2]","[u'black', u'red', u'blue']","[u'left', u'middle', u'right']","[0.9, 0.5, 0.1]","[u'high', u'low', u'medium']","black",49,"left","high","True","True",340,750,NA
"A1T3ROSW2LC4FG","Mon Oct 26 2020 08:56:58 GMT-0700 (Pacific Daylight Time)","Mon Oct 26 2020 09:04:11 GMT-0700 (Pacific Daylight Time)","Mozilla/5.0 (Windows NT 10.0; Win64; x64) AppleWebKit/537.36 (KHTML, like Gecko) Chrome/86.0.4240.75 Safari/537.36",19,"[0.9, 0.5, 0.1]","[0.8, 0.4, 0.2]","[u'black', u'red', u'blue']","[u'left', u'middle', u'right']","[0.9, 0.5, 0.1]","[u'low', u'high', u'medium']","black",49,"left","low","False","False",353,700,NA
"A1T3ROSW2LC4FG","Mon Oct 26 2020 08:56:58 GMT-0700 (Pacific Daylight Time)","Mon Oct 26 2020 09:04:11 GMT-0700 (Pacific Daylight Time)","Mozilla/5.0 (Windows NT 10.0; Win64; x64) AppleWebKit/537.36 (KHTML, like Gecko) Chrome/86.0.4240.75 Safari/537.36",20,"[0.9, 0.5, 0.1]","[0.8, 0.4, 0.2]","[u'black', u'red', u'blue']","[u'left', u'middle', u'right']","[0.9, 0.5, 0.1]","[u'low', u'high', u'medium']","black",49,"left","low","False","False",514,650,NA
"A1T3ROSW2LC4FG","Mon Oct 26 2020 08:56:58 GMT-0700 (Pacific Daylight Time)","Mon Oct 26 2020 09:04:11 GMT-0700 (Pacific Daylight Time)","Mozilla/5.0 (Windows NT 10.0; Win64; x64) AppleWebKit/537.36 (KHTML, like Gecko) Chrome/86.0.4240.75 Safari/537.36",21,"[0.9, 0.5, 0.1]","[0.8, 0.4, 0.2]","[u'black', u'red', u'blue']","[u'left', u'middle', u'right']","[0.9, 0.5, 0.1]","[u'low', u'high', u'medium']","red",50,"middle","high","True","False",242,750,NA
"A1T3ROSW2LC4FG","Mon Oct 26 2020 08:56:58 GMT-0700 (Pacific Daylight Time)","Mon Oct 26 2020 09:04:11 GMT-0700 (Pacific Daylight Time)","Mozilla/5.0 (Windows NT 10.0; Win64; x64) AppleWebKit/537.36 (KHTML, like Gecko) Chrome/86.0.4240.75 Safari/537.36",22,"[0.9, 0.5, 0.1]","[0.8, 0.4, 0.2]","[u'black', u'red', u'blue']","[u'left', u'middle', u'right']","[0.9, 0.5, 0.1]","[u'low', u'high', u'medium']","red",50,"middle","high","True","False",443,850,NA
"A1T3ROSW2LC4FG","Mon Oct 26 2020 08:56:58 GMT-0700 (Pacific Daylight Time)","Mon Oct 26 2020 09:04:11 GMT-0700 (Pacific Daylight Time)","Mozilla/5.0 (Windows NT 10.0; Win64; x64) AppleWebKit/537.36 (KHTML, like Gecko) Chrome/86.0.4240.75 Safari/537.36",23,"[0.9, 0.5, 0.1]","[0.8, 0.4, 0.2]","[u'black', u'red', u'blue']","[u'left', u'middle', u'right']","[0.9, 0.5, 0.1]","[u'low', u'high', u'medium']","red",50,"middle","high","True","False",450,950,NA
"A1T3ROSW2LC4FG","Mon Oct 26 2020 08:56:58 GMT-0700 (Pacific Daylight Time)","Mon Oct 26 2020 09:04:11 GMT-0700 (Pacific Daylight Time)","Mozilla/5.0 (Windows NT 10.0; Win64; x64) AppleWebKit/537.36 (KHTML, like Gecko) Chrome/86.0.4240.75 Safari/537.36",24,"[0.9, 0.5, 0.1]","[0.8, 0.4, 0.2]","[u'black', u'red', u'blue']","[u'left', u'middle', u'right']","[0.9, 0.5, 0.1]","[u'low', u'high', u'medium']","red",50,"middle","high","True","False",380,1050,NA
"A1T3ROSW2LC4FG","Mon Oct 26 2020 08:56:58 GMT-0700 (Pacific Daylight Time)","Mon Oct 26 2020 09:04:11 GMT-0700 (Pacific Daylight Time)","Mozilla/5.0 (Windows NT 10.0; Win64; x64) AppleWebKit/537.36 (KHTML, like Gecko) Chrome/86.0.4240.75 Safari/537.36",25,"[0.9, 0.5, 0.1]","[0.8, 0.4, 0.2]","[u'black', u'red', u'blue']","[u'left', u'middle', u'right']","[0.9, 0.5, 0.1]","[u'low', u'high', u'medium']","red",50,"middle","high","True","False",354,1150,NA
"A1T3ROSW2LC4FG","Mon Oct 26 2020 08:56:58 GMT-0700 (Pacific Daylight Time)","Mon Oct 26 2020 09:04:11 GMT-0700 (Pacific Daylight Time)","Mozilla/5.0 (Windows NT 10.0; Win64; x64) AppleWebKit/537.36 (KHTML, like Gecko) Chrome/86.0.4240.75 Safari/537.36",26,"[0.9, 0.5, 0.1]","[0.8, 0.4, 0.2]","[u'black', u'red', u'blue']","[u'left', u'middle', u'right']","[0.9, 0.5, 0.1]","[u'low', u'high', u'medium']","red",50,"middle","high","True","False",561,1250,NA
"A1T3ROSW2LC4FG","Mon Oct 26 2020 08:56:58 GMT-0700 (Pacific Daylight Time)","Mon Oct 26 2020 09:04:11 GMT-0700 (Pacific Daylight Time)","Mozilla/5.0 (Windows NT 10.0; Win64; x64) AppleWebKit/537.36 (KHTML, like Gecko) Chrome/86.0.4240.75 Safari/537.36",27,"[0.9, 0.5, 0.1]","[0.8, 0.4, 0.2]","[u'black', u'red', u'blue']","[u'left', u'middle', u'right']","[0.9, 0.5, 0.1]","[u'low', u'high', u'medium']","red",50,"middle","high","False","False",498,1200,NA
"A1T3ROSW2LC4FG","Mon Oct 26 2020 08:56:58 GMT-0700 (Pacific Daylight Time)","Mon Oct 26 2020 09:04:11 GMT-0700 (Pacific Daylight Time)","Mozilla/5.0 (Windows NT 10.0; Win64; x64) AppleWebKit/537.36 (KHTML, like Gecko) Chrome/86.0.4240.75 Safari/537.36",28,"[0.9, 0.5, 0.1]","[0.8, 0.4, 0.2]","[u'black', u'red', u'blue']","[u'left', u'middle', u'right']","[0.9, 0.5, 0.1]","[u'low', u'high', u'medium']","blue",51,"right","medium","False","False",195,1150,NA
"A1T3ROSW2LC4FG","Mon Oct 26 2020 08:56:58 GMT-0700 (Pacific Daylight Time)","Mon Oct 26 2020 09:04:11 GMT-0700 (Pacific Daylight Time)","Mozilla/5.0 (Windows NT 10.0; Win64; x64) AppleWebKit/537.36 (KHTML, like Gecko) Chrome/86.0.4240.75 Safari/537.36",29,"[0.9, 0.5, 0.1]","[0.8, 0.4, 0.2]","[u'black', u'red', u'blue']","[u'left', u'middle', u'right']","[0.9, 0.5, 0.1]","[u'low', u'high', u'medium']","blue",51,"right","medium","False","False",392,1100,NA
"A1T3ROSW2LC4FG","Mon Oct 26 2020 08:56:58 GMT-0700 (Pacific Daylight Time)","Mon Oct 26 2020 09:04:11 GMT-0700 (Pacific Daylight Time)","Mozilla/5.0 (Windows NT 10.0; Win64; x64) AppleWebKit/537.36 (KHTML, like Gecko) Chrome/86.0.4240.75 Safari/537.36",30,"[0.9, 0.5, 0.1]","[0.8, 0.4, 0.2]","[u'black', u'red', u'blue']","[u'left', u'middle', u'right']","[0.9, 0.5, 0.1]","[u'low', u'high', u'medium']","black",49,"left","low","False","False",77,1050,NA
"A1T3ROSW2LC4FG","Mon Oct 26 2020 08:56:58 GMT-0700 (Pacific Daylight Time)","Mon Oct 26 2020 09:04:11 GMT-0700 (Pacific Daylight Time)","Mozilla/5.0 (Windows NT 10.0; Win64; x64) AppleWebKit/537.36 (KHTML, like Gecko) Chrome/86.0.4240.75 Safari/537.36",31,"[0.9, 0.5, 0.1]","[0.8, 0.4, 0.2]","[u'black', u'red', u'blue']","[u'left', u'middle', u'right']","[0.9, 0.5, 0.1]","[u'low', u'high', u'medium']","red",50,"middle","high","True","False",15,1150,NA
"A1T3ROSW2LC4FG","Mon Oct 26 2020 08:56:58 GMT-0700 (Pacific Daylight Time)","Mon Oct 26 2020 09:04:11 GMT-0700 (Pacific Daylight Time)","Mozilla/5.0 (Windows NT 10.0; Win64; x64) AppleWebKit/537.36 (KHTML, like Gecko) Chrome/86.0.4240.75 Safari/537.36",32,"[0.9, 0.5, 0.1]","[0.8, 0.4, 0.2]","[u'black', u'red', u'blue']","[u'left', u'middle', u'right']","[0.9, 0.5, 0.1]","[u'low', u'high', u'medium']","red",50,"middle","high","False","False",348,1100,NA
"A1T3ROSW2LC4FG","Mon Oct 26 2020 08:56:58 GMT-0700 (Pacific Daylight Time)","Mon Oct 26 2020 09:04:11 GMT-0700 (Pacific Daylight Time)","Mozilla/5.0 (Windows NT 10.0; Win64; x64) AppleWebKit/537.36 (KHTML, like Gecko) Chrome/86.0.4240.75 Safari/537.36",33,"[0.9, 0.5, 0.1]","[0.8, 0.4, 0.2]","[u'black', u'red', u'blue']","[u'left', u'middle', u'right']","[0.9, 0.5, 0.1]","[u'low', u'high', u'medium']","black",49,"left","low","False","False",824,1050,NA
"A1T3ROSW2LC4FG","Mon Oct 26 2020 08:56:58 GMT-0700 (Pacific Daylight Time)","Mon Oct 26 2020 09:04:11 GMT-0700 (Pacific Daylight Time)","Mozilla/5.0 (Windows NT 10.0; Win64; x64) AppleWebKit/537.36 (KHTML, like Gecko) Chrome/86.0.4240.75 Safari/537.36",34,"[0.9, 0.5, 0.1]","[0.8, 0.4, 0.2]","[u'black', u'red', u'blue']","[u'left', u'middle', u'right']","[0.9, 0.5, 0.1]","[u'low', u'high', u'medium']","blue",51,"right","medium","True","False",283,1150,NA
"A1T3ROSW2LC4FG","Mon Oct 26 2020 08:56:58 GMT-0700 (Pacific Daylight Time)","Mon Oct 26 2020 09:04:11 GMT-0700 (Pacific Daylight Time)","Mozilla/5.0 (Windows NT 10.0; Win64; x64) AppleWebKit/537.36 (KHTML, like Gecko) Chrome/86.0.4240.75 Safari/537.36",35,"[0.9, 0.5, 0.1]","[0.8, 0.4, 0.2]","[u'black', u'red', u'blue']","[u'left', u'middle', u'right']","[0.9, 0.5, 0.1]","[u'low', u'high', u'medium']","blue",51,"right","medium","False","False",353,1100,NA
"A1T3ROSW2LC4FG","Mon Oct 26 2020 08:56:58 GMT-0700 (Pacific Daylight Time)","Mon Oct 26 2020 09:04:11 GMT-0700 (Pacific Daylight Time)","Mozilla/5.0 (Windows NT 10.0; Win64; x64) AppleWebKit/537.36 (KHTML, like Gecko) Chrome/86.0.4240.75 Safari/537.36",36,"[0.9, 0.5, 0.1]","[0.8, 0.4, 0.2]","[u'black', u'red', u'blue']","[u'left', u'middle', u'right']","[0.9, 0.5, 0.1]","[u'low', u'high', u'medium']","blue",51,"right","medium","True","False",453,1200,NA
"A1T3ROSW2LC4FG","Mon Oct 26 2020 08:56:58 GMT-0700 (Pacific Daylight Time)","Mon Oct 26 2020 09:04:11 GMT-0700 (Pacific Daylight Time)","Mozilla/5.0 (Windows NT 10.0; Win64; x64) AppleWebKit/537.36 (KHTML, like Gecko) Chrome/86.0.4240.75 Safari/537.36",37,"[0.9, 0.5, 0.1]","[0.8, 0.4, 0.2]","[u'black', u'red', u'blue']","[u'left', u'middle', u'right']","[0.9, 0.5, 0.1]","[u'low', u'high', u'medium']","red",50,"middle","high","True","False",400,1300,NA
"A1T3ROSW2LC4FG","Mon Oct 26 2020 08:56:58 GMT-0700 (Pacific Daylight Time)","Mon Oct 26 2020 09:04:11 GMT-0700 (Pacific Daylight Time)","Mozilla/5.0 (Windows NT 10.0; Win64; x64) AppleWebKit/537.36 (KHTML, like Gecko) Chrome/86.0.4240.75 Safari/537.36",38,"[0.9, 0.5, 0.1]","[0.8, 0.4, 0.2]","[u'black', u'red', u'blue']","[u'left', u'middle', u'right']","[0.9, 0.5, 0.1]","[u'low', u'high', u'medium']","blue",51,"right","medium","True","False",354,1400,NA
"A1T3ROSW2LC4FG","Mon Oct 26 2020 08:56:58 GMT-0700 (Pacific Daylight Time)","Mon Oct 26 2020 09:04:11 GMT-0700 (Pacific Daylight Time)","Mozilla/5.0 (Windows NT 10.0; Win64; x64) AppleWebKit/537.36 (KHTML, like Gecko) Chrome/86.0.4240.75 Safari/537.36",39,"[0.9, 0.5, 0.1]","[0.8, 0.4, 0.2]","[u'black', u'red', u'blue']","[u'left', u'middle', u'right']","[0.9, 0.5, 0.1]","[u'low', u'high', u'medium']","red",50,"middle","high","True","False",298,1500,NA
"A1T3ROSW2LC4FG","Mon Oct 26 2020 08:56:58 GMT-0700 (Pacific Daylight Time)","Mon Oct 26 2020 09:04:11 GMT-0700 (Pacific Daylight Time)","Mozilla/5.0 (Windows NT 10.0; Win64; x64) AppleWebKit/537.36 (KHTML, like Gecko) Chrome/86.0.4240.75 Safari/537.36",40,"[0.9, 0.5, 0.1]","[0.8, 0.4, 0.2]","[u'black', u'red', u'blue']","[u'left', u'middle', u'right']","[0.9, 0.5, 0.1]","[u'low', u'high', u'medium']","blue",51,"right","medium","True","False",210,1600,NA
"A1T3ROSW2LC4FG","Mon Oct 26 2020 08:56:58 GMT-0700 (Pacific Daylight Time)","Mon Oct 26 2020 09:04:11 GMT-0700 (Pacific Daylight Time)","Mozilla/5.0 (Windows NT 10.0; Win64; x64) AppleWebKit/537.36 (KHTML, like Gecko) Chrome/86.0.4240.75 Safari/537.36",41,"[0.9, 0.5, 0.1]","[0.8, 0.4, 0.2]","[u'black', u'red', u'blue']","[u'left', u'middle', u'right']","[0.9, 0.5, 0.1]","[u'low', u'medium', u'high']","red",50,"middle","medium","False","False",962,1550,NA
"A1T3ROSW2LC4FG","Mon Oct 26 2020 08:56:58 GMT-0700 (Pacific Daylight Time)","Mon Oct 26 2020 09:04:11 GMT-0700 (Pacific Daylight Time)","Mozilla/5.0 (Windows NT 10.0; Win64; x64) AppleWebKit/537.36 (KHTML, like Gecko) Chrome/86.0.4240.75 Safari/537.36",42,"[0.9, 0.5, 0.1]","[0.8, 0.4, 0.2]","[u'black', u'red', u'blue']","[u'left', u'middle', u'right']","[0.9, 0.5, 0.1]","[u'low', u'medium', u'high']","blue",51,"right","high","True","False",91,1650,NA
"A1T3ROSW2LC4FG","Mon Oct 26 2020 08:56:58 GMT-0700 (Pacific Daylight Time)","Mon Oct 26 2020 09:04:11 GMT-0700 (Pacific Daylight Time)","Mozilla/5.0 (Windows NT 10.0; Win64; x64) AppleWebKit/537.36 (KHTML, like Gecko) Chrome/86.0.4240.75 Safari/537.36",43,"[0.9, 0.5, 0.1]","[0.8, 0.4, 0.2]","[u'black', u'red', u'blue']","[u'left', u'middle', u'right']","[0.9, 0.5, 0.1]","[u'low', u'medium', u'high']","red",50,"middle","medium","True","False",20,1750,NA
"A1T3ROSW2LC4FG","Mon Oct 26 2020 08:56:58 GMT-0700 (Pacific Daylight Time)","Mon Oct 26 2020 09:04:11 GMT-0700 (Pacific Daylight Time)","Mozilla/5.0 (Windows NT 10.0; Win64; x64) AppleWebKit/537.36 (KHTML, like Gecko) Chrome/86.0.4240.75 Safari/537.36",44,"[0.9, 0.5, 0.1]","[0.8, 0.4, 0.2]","[u'black', u'red', u'blue']","[u'left', u'middle', u'right']","[0.9, 0.5, 0.1]","[u'low', u'medium', u'high']","blue",51,"right","high","True","False",362,1850,NA
"A1T3ROSW2LC4FG","Mon Oct 26 2020 08:56:58 GMT-0700 (Pacific Daylight Time)","Mon Oct 26 2020 09:04:11 GMT-0700 (Pacific Daylight Time)","Mozilla/5.0 (Windows NT 10.0; Win64; x64) AppleWebKit/537.36 (KHTML, like Gecko) Chrome/86.0.4240.75 Safari/537.36",45,"[0.9, 0.5, 0.1]","[0.8, 0.4, 0.2]","[u'black', u'red', u'blue']","[u'left', u'middle', u'right']","[0.9, 0.5, 0.1]","[u'low', u'medium', u'high']","red",50,"middle","medium","False","False",74,1800,NA
"A1T3ROSW2LC4FG","Mon Oct 26 2020 08:56:58 GMT-0700 (Pacific Daylight Time)","Mon Oct 26 2020 09:04:11 GMT-0700 (Pacific Daylight Time)","Mozilla/5.0 (Windows NT 10.0; Win64; x64) AppleWebKit/537.36 (KHTML, like Gecko) Chrome/86.0.4240.75 Safari/537.36",46,"[0.9, 0.5, 0.1]","[0.8, 0.4, 0.2]","[u'black', u'red', u'blue']","[u'left', u'middle', u'right']","[0.9, 0.5, 0.1]","[u'low', u'medium', u'high']","blue",51,"right","high","True","False",124,1900,NA
"A1T3ROSW2LC4FG","Mon Oct 26 2020 08:56:58 GMT-0700 (Pacific Daylight Time)","Mon Oct 26 2020 09:04:11 GMT-0700 (Pacific Daylight Time)","Mozilla/5.0 (Windows NT 10.0; Win64; x64) AppleWebKit/537.36 (KHTML, like Gecko) Chrome/86.0.4240.75 Safari/537.36",47,"[0.9, 0.5, 0.1]","[0.8, 0.4, 0.2]","[u'black', u'red', u'blue']","[u'left', u'middle', u'right']","[0.9, 0.5, 0.1]","[u'low', u'medium', u'high']","black",49,"left","low","False","False",42,1850,NA
"A1T3ROSW2LC4FG","Mon Oct 26 2020 08:56:58 GMT-0700 (Pacific Daylight Time)","Mon Oct 26 2020 09:04:11 GMT-0700 (Pacific Daylight Time)","Mozilla/5.0 (Windows NT 10.0; Win64; x64) AppleWebKit/537.36 (KHTML, like Gecko) Chrome/86.0.4240.75 Safari/537.36",48,"[0.9, 0.5, 0.1]","[0.8, 0.4, 0.2]","[u'black', u'red', u'blue']","[u'left', u'middle', u'right']","[0.9, 0.5, 0.1]","[u'low', u'medium', u'high']","blue",51,"right","high","False","False",168,1800,NA
"A1T3ROSW2LC4FG","Mon Oct 26 2020 08:56:58 GMT-0700 (Pacific Daylight Time)","Mon Oct 26 2020 09:04:11 GMT-0700 (Pacific Daylight Time)","Mozilla/5.0 (Windows NT 10.0; Win64; x64) AppleWebKit/537.36 (KHTML, like Gecko) Chrome/86.0.4240.75 Safari/537.36",49,"[0.9, 0.5, 0.1]","[0.8, 0.4, 0.2]","[u'black', u'red', u'blue']","[u'left', u'middle', u'right']","[0.9, 0.5, 0.1]","[u'low', u'medium', u'high']","red",50,"middle","medium","False","False",60,1750,NA
"A1T3ROSW2LC4FG","Mon Oct 26 2020 08:56:58 GMT-0700 (Pacific Daylight Time)","Mon Oct 26 2020 09:04:11 GMT-0700 (Pacific Daylight Time)","Mozilla/5.0 (Windows NT 10.0; Win64; x64) AppleWebKit/537.36 (KHTML, like Gecko) Chrome/86.0.4240.75 Safari/537.36",50,"[0.9, 0.5, 0.1]","[0.8, 0.4, 0.2]","[u'black', u'red', u'blue']","[u'left', u'middle', u'right']","[0.9, 0.5, 0.1]","[u'low', u'medium', u'high']","black",49,"left","low","False","False",746,1700,NA
"A1T3ROSW2LC4FG","Mon Oct 26 2020 08:56:58 GMT-0700 (Pacific Daylight Time)","Mon Oct 26 2020 09:04:11 GMT-0700 (Pacific Daylight Time)","Mozilla/5.0 (Windows NT 10.0; Win64; x64) AppleWebKit/537.36 (KHTML, like Gecko) Chrome/86.0.4240.75 Safari/537.36",51,"[0.9, 0.5, 0.1]","[0.8, 0.4, 0.2]","[u'black', u'red', u'blue']","[u'left', u'middle', u'right']","[0.9, 0.5, 0.1]","[u'low', u'medium', u'high']","blue",51,"right","high","True","False",155,1800,NA
"A1T3ROSW2LC4FG","Mon Oct 26 2020 08:56:58 GMT-0700 (Pacific Daylight Time)","Mon Oct 26 2020 09:04:11 GMT-0700 (Pacific Daylight Time)","Mozilla/5.0 (Windows NT 10.0; Win64; x64) AppleWebKit/537.36 (KHTML, like Gecko) Chrome/86.0.4240.75 Safari/537.36",52,"[0.9, 0.5, 0.1]","[0.8, 0.4, 0.2]","[u'black', u'red', u'blue']","[u'left', u'middle', u'right']","[0.9, 0.5, 0.1]","[u'low', u'medium', u'high']","blue",51,"right","high","True","False",347,1900,NA
"A1T3ROSW2LC4FG","Mon Oct 26 2020 08:56:58 GMT-0700 (Pacific Daylight Time)","Mon Oct 26 2020 09:04:11 GMT-0700 (Pacific Daylight Time)","Mozilla/5.0 (Windows NT 10.0; Win64; x64) AppleWebKit/537.36 (KHTML, like Gecko) Chrome/86.0.4240.75 Safari/537.36",53,"[0.9, 0.5, 0.1]","[0.8, 0.4, 0.2]","[u'black', u'red', u'blue']","[u'left', u'middle', u'right']","[0.9, 0.5, 0.1]","[u'low', u'medium', u'high']","blue",51,"right","high","True","False",379,2000,NA
"A1T3ROSW2LC4FG","Mon Oct 26 2020 08:56:58 GMT-0700 (Pacific Daylight Time)","Mon Oct 26 2020 09:04:11 GMT-0700 (Pacific Daylight Time)","Mozilla/5.0 (Windows NT 10.0; Win64; x64) AppleWebKit/537.36 (KHTML, like Gecko) Chrome/86.0.4240.75 Safari/537.36",54,"[0.9, 0.5, 0.1]","[0.8, 0.4, 0.2]","[u'black', u'red', u'blue']","[u'left', u'middle', u'right']","[0.9, 0.5, 0.1]","[u'low', u'medium', u'high']","blue",51,"right","high","False","False",176,1950,NA
"A1T3ROSW2LC4FG","Mon Oct 26 2020 08:56:58 GMT-0700 (Pacific Daylight Time)","Mon Oct 26 2020 09:04:11 GMT-0700 (Pacific Daylight Time)","Mozilla/5.0 (Windows NT 10.0; Win64; x64) AppleWebKit/537.36 (KHTML, like Gecko) Chrome/86.0.4240.75 Safari/537.36",55,"[0.9, 0.5, 0.1]","[0.8, 0.4, 0.2]","[u'black', u'red', u'blue']","[u'left', u'middle', u'right']","[0.9, 0.5, 0.1]","[u'low', u'medium', u'high']","red",50,"middle","medium","True","False",235,2050,NA
"A1T3ROSW2LC4FG","Mon Oct 26 2020 08:56:58 GMT-0700 (Pacific Daylight Time)","Mon Oct 26 2020 09:04:11 GMT-0700 (Pacific Daylight Time)","Mozilla/5.0 (Windows NT 10.0; Win64; x64) AppleWebKit/537.36 (KHTML, like Gecko) Chrome/86.0.4240.75 Safari/537.36",56,"[0.9, 0.5, 0.1]","[0.8, 0.4, 0.2]","[u'black', u'red', u'blue']","[u'left', u'middle', u'right']","[0.9, 0.5, 0.1]","[u'low', u'medium', u'high']","blue",51,"right","high","True","False",75,2150,NA
"A1T3ROSW2LC4FG","Mon Oct 26 2020 08:56:58 GMT-0700 (Pacific Daylight Time)","Mon Oct 26 2020 09:04:11 GMT-0700 (Pacific Daylight Time)","Mozilla/5.0 (Windows NT 10.0; Win64; x64) AppleWebKit/537.36 (KHTML, like Gecko) Chrome/86.0.4240.75 Safari/537.36",57,"[0.9, 0.5, 0.1]","[0.8, 0.4, 0.2]","[u'black', u'red', u'blue']","[u'left', u'middle', u'right']","[0.9, 0.5, 0.1]","[u'low', u'medium', u'high']","red",50,"middle","medium","False","False",57,2100,NA
"A1T3ROSW2LC4FG","Mon Oct 26 2020 08:56:58 GMT-0700 (Pacific Daylight Time)","Mon Oct 26 2020 09:04:11 GMT-0700 (Pacific Daylight Time)","Mozilla/5.0 (Windows NT 10.0; Win64; x64) AppleWebKit/537.36 (KHTML, like Gecko) Chrome/86.0.4240.75 Safari/537.36",58,"[0.9, 0.5, 0.1]","[0.8, 0.4, 0.2]","[u'black', u'red', u'blue']","[u'left', u'middle', u'right']","[0.9, 0.5, 0.1]","[u'low', u'medium', u'high']","blue",51,"right","high","True","False",636,2200,NA
"A1T3ROSW2LC4FG","Mon Oct 26 2020 08:56:58 GMT-0700 (Pacific Daylight Time)","Mon Oct 26 2020 09:04:11 GMT-0700 (Pacific Daylight Time)","Mozilla/5.0 (Windows NT 10.0; Win64; x64) AppleWebKit/537.36 (KHTML, like Gecko) Chrome/86.0.4240.75 Safari/537.36",59,"[0.9, 0.5, 0.1]","[0.8, 0.4, 0.2]","[u'black', u'red', u'blue']","[u'left', u'middle', u'right']","[0.9, 0.5, 0.1]","[u'low', u'medium', u'high']","blue",51,"right","high","True","False",499,2300,NA
"A1T3ROSW2LC4FG","Mon Oct 26 2020 08:56:58 GMT-0700 (Pacific Daylight Time)","Mon Oct 26 2020 09:04:11 GMT-0700 (Pacific Daylight Time)","Mozilla/5.0 (Windows NT 10.0; Win64; x64) AppleWebKit/537.36 (KHTML, like Gecko) Chrome/86.0.4240.75 Safari/537.36",60,"[0.9, 0.5, 0.1]","[0.8, 0.4, 0.2]","[u'black', u'red', u'blue']","[u'left', u'middle', u'right']","[0.9, 0.5, 0.1]","[u'low', u'medium', u'high']","blue",51,"right","high","True","False",409,2400,NA
"A1T3ROSW2LC4FG","Mon Oct 26 2020 08:56:58 GMT-0700 (Pacific Daylight Time)","Mon Oct 26 2020 09:04:11 GMT-0700 (Pacific Daylight Time)","Mozilla/5.0 (Windows NT 10.0; Win64; x64) AppleWebKit/537.36 (KHTML, like Gecko) Chrome/86.0.4240.75 Safari/537.36",61,"[0.9, 0.5, 0.1]","[0.8, 0.4, 0.2]","[u'black', u'red', u'blue']","[u'left', u'middle', u'right']","[0.9, 0.5, 0.1]","[u'low', u'medium', u'high']","blue",51,"right","high","True","False",420,2500,NA
"A1T3ROSW2LC4FG","Mon Oct 26 2020 08:56:58 GMT-0700 (Pacific Daylight Time)","Mon Oct 26 2020 09:04:11 GMT-0700 (Pacific Daylight Time)","Mozilla/5.0 (Windows NT 10.0; Win64; x64) AppleWebKit/537.36 (KHTML, like Gecko) Chrome/86.0.4240.75 Safari/537.36",62,"[0.9, 0.5, 0.1]","[0.8, 0.4, 0.2]","[u'black', u'red', u'blue']","[u'left', u'middle', u'right']","[0.9, 0.5, 0.1]","[u'low', u'medium', u'high']","blue",51,"right","high","True","False",317,2600,NA
"A1T3ROSW2LC4FG","Mon Oct 26 2020 08:56:58 GMT-0700 (Pacific Daylight Time)","Mon Oct 26 2020 09:04:11 GMT-0700 (Pacific Daylight Time)","Mozilla/5.0 (Windows NT 10.0; Win64; x64) AppleWebKit/537.36 (KHTML, like Gecko) Chrome/86.0.4240.75 Safari/537.36",63,"[0.9, 0.5, 0.1]","[0.8, 0.4, 0.2]","[u'black', u'red', u'blue']","[u'left', u'middle', u'right']","[0.9, 0.5, 0.1]","[u'low', u'medium', u'high']","blue",51,"right","high","True","False",480,2700,NA
"A1T3ROSW2LC4FG","Mon Oct 26 2020 08:56:58 GMT-0700 (Pacific Daylight Time)","Mon Oct 26 2020 09:04:11 GMT-0700 (Pacific Daylight Time)","Mozilla/5.0 (Windows NT 10.0; Win64; x64) AppleWebKit/537.36 (KHTML, like Gecko) Chrome/86.0.4240.75 Safari/537.36",64,"[0.9, 0.5, 0.1]","[0.8, 0.4, 0.2]","[u'black', u'red', u'blue']","[u'left', u'middle', u'right']","[0.9, 0.5, 0.1]","[u'low', u'medium', u'high']","blue",51,"right","high","True","False",205,2800,NA
"A1T3ROSW2LC4FG","Mon Oct 26 2020 08:56:58 GMT-0700 (Pacific Daylight Time)","Mon Oct 26 2020 09:04:11 GMT-0700 (Pacific Daylight Time)","Mozilla/5.0 (Windows NT 10.0; Win64; x64) AppleWebKit/537.36 (KHTML, like Gecko) Chrome/86.0.4240.75 Safari/537.36",65,"[0.9, 0.5, 0.1]","[0.8, 0.4, 0.2]","[u'black', u'red', u'blue']","[u'left', u'middle', u'right']","[0.9, 0.5, 0.1]","[u'low', u'medium', u'high']","blue",51,"right","high","True","False",514,2900,NA
"A1T3ROSW2LC4FG","Mon Oct 26 2020 08:56:58 GMT-0700 (Pacific Daylight Time)","Mon Oct 26 2020 09:04:11 GMT-0700 (Pacific Daylight Time)","Mozilla/5.0 (Windows NT 10.0; Win64; x64) AppleWebKit/537.36 (KHTML, like Gecko) Chrome/86.0.4240.75 Safari/537.36",66,"[0.9, 0.5, 0.1]","[0.8, 0.4, 0.2]","[u'black', u'red', u'blue']","[u'left', u'middle', u'right']","[0.9, 0.5, 0.1]","[u'low', u'medium', u'high']","blue",51,"right","high","True","True",578,3000,NA
"A1T3ROSW2LC4FG","Mon Oct 26 2020 08:56:58 GMT-0700 (Pacific Daylight Time)","Mon Oct 26 2020 09:04:11 GMT-0700 (Pacific Daylight Time)","Mozilla/5.0 (Windows NT 10.0; Win64; x64) AppleWebKit/537.36 (KHTML, like Gecko) Chrome/86.0.4240.75 Safari/537.36",67,"[0.9, 0.5, 0.1]","[0.8, 0.4, 0.2]","[u'black', u'red', u'blue']","[u'left', u'middle', u'right']","[0.9, 0.5, 0.1]","[u'high', u'low', u'medium']","blue",51,"right","medium","False","False",579,2950,NA
"A1T3ROSW2LC4FG","Mon Oct 26 2020 08:56:58 GMT-0700 (Pacific Daylight Time)","Mon Oct 26 2020 09:04:11 GMT-0700 (Pacific Daylight Time)","Mozilla/5.0 (Windows NT 10.0; Win64; x64) AppleWebKit/537.36 (KHTML, like Gecko) Chrome/86.0.4240.75 Safari/537.36",68,"[0.9, 0.5, 0.1]","[0.8, 0.4, 0.2]","[u'black', u'red', u'blue']","[u'left', u'middle', u'right']","[0.9, 0.5, 0.1]","[u'high', u'low', u'medium']","red",50,"middle","low","False","False",379,2900,NA
"A1T3ROSW2LC4FG","Mon Oct 26 2020 08:56:58 GMT-0700 (Pacific Daylight Time)","Mon Oct 26 2020 09:04:11 GMT-0700 (Pacific Daylight Time)","Mozilla/5.0 (Windows NT 10.0; Win64; x64) AppleWebKit/537.36 (KHTML, like Gecko) Chrome/86.0.4240.75 Safari/537.36",69,"[0.9, 0.5, 0.1]","[0.8, 0.4, 0.2]","[u'black', u'red', u'blue']","[u'left', u'middle', u'right']","[0.9, 0.5, 0.1]","[u'high', u'low', u'medium']","blue",51,"right","medium","False","False",59,2850,NA
"A1T3ROSW2LC4FG","Mon Oct 26 2020 08:56:58 GMT-0700 (Pacific Daylight Time)","Mon Oct 26 2020 09:04:11 GMT-0700 (Pacific Daylight Time)","Mozilla/5.0 (Windows NT 10.0; Win64; x64) AppleWebKit/537.36 (KHTML, like Gecko) Chrome/86.0.4240.75 Safari/537.36",70,"[0.9, 0.5, 0.1]","[0.8, 0.4, 0.2]","[u'black', u'red', u'blue']","[u'left', u'middle', u'right']","[0.9, 0.5, 0.1]","[u'high', u'low', u'medium']","black",49,"left","high","True","False",498,2950,NA
"A1T3ROSW2LC4FG","Mon Oct 26 2020 08:56:58 GMT-0700 (Pacific Daylight Time)","Mon Oct 26 2020 09:04:11 GMT-0700 (Pacific Daylight Time)","Mozilla/5.0 (Windows NT 10.0; Win64; x64) AppleWebKit/537.36 (KHTML, like Gecko) Chrome/86.0.4240.75 Safari/537.36",71,"[0.9, 0.5, 0.1]","[0.8, 0.4, 0.2]","[u'black', u'red', u'blue']","[u'left', u'middle', u'right']","[0.9, 0.5, 0.1]","[u'high', u'low', u'medium']","black",49,"left","high","True","False",476,3050,NA
"A1T3ROSW2LC4FG","Mon Oct 26 2020 08:56:58 GMT-0700 (Pacific Daylight Time)","Mon Oct 26 2020 09:04:11 GMT-0700 (Pacific Daylight Time)","Mozilla/5.0 (Windows NT 10.0; Win64; x64) AppleWebKit/537.36 (KHTML, like Gecko) Chrome/86.0.4240.75 Safari/537.36",72,"[0.9, 0.5, 0.1]","[0.8, 0.4, 0.2]","[u'black', u'red', u'blue']","[u'left', u'middle', u'right']","[0.9, 0.5, 0.1]","[u'high', u'low', u'medium']","black",49,"left","high","False","False",474,3000,NA
"A1T3ROSW2LC4FG","Mon Oct 26 2020 08:56:58 GMT-0700 (Pacific Daylight Time)","Mon Oct 26 2020 09:04:11 GMT-0700 (Pacific Daylight Time)","Mozilla/5.0 (Windows NT 10.0; Win64; x64) AppleWebKit/537.36 (KHTML, like Gecko) Chrome/86.0.4240.75 Safari/537.36",73,"[0.9, 0.5, 0.1]","[0.8, 0.4, 0.2]","[u'black', u'red', u'blue']","[u'left', u'middle', u'right']","[0.9, 0.5, 0.1]","[u'high', u'low', u'medium']","blue",51,"right","medium","False","False",450,2950,NA
"A1T3ROSW2LC4FG","Mon Oct 26 2020 08:56:58 GMT-0700 (Pacific Daylight Time)","Mon Oct 26 2020 09:04:11 GMT-0700 (Pacific Daylight Time)","Mozilla/5.0 (Windows NT 10.0; Win64; x64) AppleWebKit/537.36 (KHTML, like Gecko) Chrome/86.0.4240.75 Safari/537.36",74,"[0.9, 0.5, 0.1]","[0.8, 0.4, 0.2]","[u'black', u'red', u'blue']","[u'left', u'middle', u'right']","[0.9, 0.5, 0.1]","[u'high', u'low', u'medium']","red",50,"middle","low","False","False",435,2900,NA
"A1T3ROSW2LC4FG","Mon Oct 26 2020 08:56:58 GMT-0700 (Pacific Daylight Time)","Mon Oct 26 2020 09:04:11 GMT-0700 (Pacific Daylight Time)","Mozilla/5.0 (Windows NT 10.0; Win64; x64) AppleWebKit/537.36 (KHTML, like Gecko) Chrome/86.0.4240.75 Safari/537.36",75,"[0.9, 0.5, 0.1]","[0.8, 0.4, 0.2]","[u'black', u'red', u'blue']","[u'left', u'middle', u'right']","[0.9, 0.5, 0.1]","[u'high', u'low', u'medium']","black",49,"left","high","True","False",428,3000,NA
"A1T3ROSW2LC4FG","Mon Oct 26 2020 08:56:58 GMT-0700 (Pacific Daylight Time)","Mon Oct 26 2020 09:04:11 GMT-0700 (Pacific Daylight Time)","Mozilla/5.0 (Windows NT 10.0; Win64; x64) AppleWebKit/537.36 (KHTML, like Gecko) Chrome/86.0.4240.75 Safari/537.36",76,"[0.9, 0.5, 0.1]","[0.8, 0.4, 0.2]","[u'black', u'red', u'blue']","[u'left', u'middle', u'right']","[0.9, 0.5, 0.1]","[u'high', u'low', u'medium']","black",49,"left","high","True","False",1011,3100,NA
"A1T3ROSW2LC4FG","Mon Oct 26 2020 08:56:58 GMT-0700 (Pacific Daylight Time)","Mon Oct 26 2020 09:04:11 GMT-0700 (Pacific Daylight Time)","Mozilla/5.0 (Windows NT 10.0; Win64; x64) AppleWebKit/537.36 (KHTML, like Gecko) Chrome/86.0.4240.75 Safari/537.36",77,"[0.9, 0.5, 0.1]","[0.8, 0.4, 0.2]","[u'black', u'red', u'blue']","[u'left', u'middle', u'right']","[0.9, 0.5, 0.1]","[u'high', u'low', u'medium']","black",49,"left","high","True","False",696,3200,NA
"A1T3ROSW2LC4FG","Mon Oct 26 2020 08:56:58 GMT-0700 (Pacific Daylight Time)","Mon Oct 26 2020 09:04:11 GMT-0700 (Pacific Daylight Time)","Mozilla/5.0 (Windows NT 10.0; Win64; x64) AppleWebKit/537.36 (KHTML, like Gecko) Chrome/86.0.4240.75 Safari/537.36",78,"[0.9, 0.5, 0.1]","[0.8, 0.4, 0.2]","[u'black', u'red', u'blue']","[u'left', u'middle', u'right']","[0.9, 0.5, 0.1]","[u'high', u'low', u'medium']","black",49,"left","high","False","False",683,3150,NA
"A1T3ROSW2LC4FG","Mon Oct 26 2020 08:56:58 GMT-0700 (Pacific Daylight Time)","Mon Oct 26 2020 09:04:11 GMT-0700 (Pacific Daylight Time)","Mozilla/5.0 (Windows NT 10.0; Win64; x64) AppleWebKit/537.36 (KHTML, like Gecko) Chrome/86.0.4240.75 Safari/537.36",79,"[0.9, 0.5, 0.1]","[0.8, 0.4, 0.2]","[u'black', u'red', u'blue']","[u'left', u'middle', u'right']","[0.9, 0.5, 0.1]","[u'high', u'low', u'medium']","black",49,"left","high","False","False",291,3100,NA
"A1T3ROSW2LC4FG","Mon Oct 26 2020 08:56:58 GMT-0700 (Pacific Daylight Time)","Mon Oct 26 2020 09:04:11 GMT-0700 (Pacific Daylight Time)","Mozilla/5.0 (Windows NT 10.0; Win64; x64) AppleWebKit/537.36 (KHTML, like Gecko) Chrome/86.0.4240.75 Safari/537.36",80,"[0.9, 0.5, 0.1]","[0.8, 0.4, 0.2]","[u'black', u'red', u'blue']","[u'left', u'middle', u'right']","[0.9, 0.5, 0.1]","[u'high', u'low', u'medium']","blue",51,"right","medium","True","False",172,3200,NA
"A1T3ROSW2LC4FG","Mon Oct 26 2020 08:56:58 GMT-0700 (Pacific Daylight Time)","Mon Oct 26 2020 09:04:11 GMT-0700 (Pacific Daylight Time)","Mozilla/5.0 (Windows NT 10.0; Win64; x64) AppleWebKit/537.36 (KHTML, like Gecko) Chrome/86.0.4240.75 Safari/537.36",81,"[0.9, 0.5, 0.1]","[0.8, 0.4, 0.2]","[u'black', u'red', u'blue']","[u'left', u'middle', u'right']","[0.8, 0.4, 0.2]","[u'low', u'medium', u'high']","blue",51,"right","high","False","False",655,3150,NA
"A1T3ROSW2LC4FG","Mon Oct 26 2020 08:56:58 GMT-0700 (Pacific Daylight Time)","Mon Oct 26 2020 09:04:11 GMT-0700 (Pacific Daylight Time)","Mozilla/5.0 (Windows NT 10.0; Win64; x64) AppleWebKit/537.36 (KHTML, like Gecko) Chrome/86.0.4240.75 Safari/537.36",82,"[0.9, 0.5, 0.1]","[0.8, 0.4, 0.2]","[u'black', u'red', u'blue']","[u'left', u'middle', u'right']","[0.8, 0.4, 0.2]","[u'low', u'medium', u'high']","blue",51,"right","high","True","False",110,3250,NA
"A1T3ROSW2LC4FG","Mon Oct 26 2020 08:56:58 GMT-0700 (Pacific Daylight Time)","Mon Oct 26 2020 09:04:11 GMT-0700 (Pacific Daylight Time)","Mozilla/5.0 (Windows NT 10.0; Win64; x64) AppleWebKit/537.36 (KHTML, like Gecko) Chrome/86.0.4240.75 Safari/537.36",83,"[0.9, 0.5, 0.1]","[0.8, 0.4, 0.2]","[u'black', u'red', u'blue']","[u'left', u'middle', u'right']","[0.8, 0.4, 0.2]","[u'low', u'medium', u'high']","blue",51,"right","high","False","False",353,3200,NA
"A1T3ROSW2LC4FG","Mon Oct 26 2020 08:56:58 GMT-0700 (Pacific Daylight Time)","Mon Oct 26 2020 09:04:11 GMT-0700 (Pacific Daylight Time)","Mozilla/5.0 (Windows NT 10.0; Win64; x64) AppleWebKit/537.36 (KHTML, like Gecko) Chrome/86.0.4240.75 Safari/537.36",84,"[0.9, 0.5, 0.1]","[0.8, 0.4, 0.2]","[u'black', u'red', u'blue']","[u'left', u'middle', u'right']","[0.8, 0.4, 0.2]","[u'low', u'medium', u'high']","blue",51,"right","high","True","False",112,3300,NA
"A1T3ROSW2LC4FG","Mon Oct 26 2020 08:56:58 GMT-0700 (Pacific Daylight Time)","Mon Oct 26 2020 09:04:11 GMT-0700 (Pacific Daylight Time)","Mozilla/5.0 (Windows NT 10.0; Win64; x64) AppleWebKit/537.36 (KHTML, like Gecko) Chrome/86.0.4240.75 Safari/537.36",85,"[0.9, 0.5, 0.1]","[0.8, 0.4, 0.2]","[u'black', u'red', u'blue']","[u'left', u'middle', u'right']","[0.8, 0.4, 0.2]","[u'low', u'medium', u'high']","red",50,"middle","medium","False","False",291,3250,NA
"A1T3ROSW2LC4FG","Mon Oct 26 2020 08:56:58 GMT-0700 (Pacific Daylight Time)","Mon Oct 26 2020 09:04:11 GMT-0700 (Pacific Daylight Time)","Mozilla/5.0 (Windows NT 10.0; Win64; x64) AppleWebKit/537.36 (KHTML, like Gecko) Chrome/86.0.4240.75 Safari/537.36",86,"[0.9, 0.5, 0.1]","[0.8, 0.4, 0.2]","[u'black', u'red', u'blue']","[u'left', u'middle', u'right']","[0.8, 0.4, 0.2]","[u'low', u'medium', u'high']","blue",51,"right","high","True","False",169,3350,NA
"A1T3ROSW2LC4FG","Mon Oct 26 2020 08:56:58 GMT-0700 (Pacific Daylight Time)","Mon Oct 26 2020 09:04:11 GMT-0700 (Pacific Daylight Time)","Mozilla/5.0 (Windows NT 10.0; Win64; x64) AppleWebKit/537.36 (KHTML, like Gecko) Chrome/86.0.4240.75 Safari/537.36",87,"[0.9, 0.5, 0.1]","[0.8, 0.4, 0.2]","[u'black', u'red', u'blue']","[u'left', u'middle', u'right']","[0.8, 0.4, 0.2]","[u'low', u'medium', u'high']","black",49,"left","low","False","False",348,3300,NA
"A1T3ROSW2LC4FG","Mon Oct 26 2020 08:56:58 GMT-0700 (Pacific Daylight Time)","Mon Oct 26 2020 09:04:11 GMT-0700 (Pacific Daylight Time)","Mozilla/5.0 (Windows NT 10.0; Win64; x64) AppleWebKit/537.36 (KHTML, like Gecko) Chrome/86.0.4240.75 Safari/537.36",88,"[0.9, 0.5, 0.1]","[0.8, 0.4, 0.2]","[u'black', u'red', u'blue']","[u'left', u'middle', u'right']","[0.8, 0.4, 0.2]","[u'low', u'medium', u'high']","blue",51,"right","high","True","False",232,3400,NA
"A1T3ROSW2LC4FG","Mon Oct 26 2020 08:56:58 GMT-0700 (Pacific Daylight Time)","Mon Oct 26 2020 09:04:11 GMT-0700 (Pacific Daylight Time)","Mozilla/5.0 (Windows NT 10.0; Win64; x64) AppleWebKit/537.36 (KHTML, like Gecko) Chrome/86.0.4240.75 Safari/537.36",89,"[0.9, 0.5, 0.1]","[0.8, 0.4, 0.2]","[u'black', u'red', u'blue']","[u'left', u'middle', u'right']","[0.8, 0.4, 0.2]","[u'low', u'medium', u'high']","blue",51,"right","high","True","False",235,3500,NA
"A1T3ROSW2LC4FG","Mon Oct 26 2020 08:56:58 GMT-0700 (Pacific Daylight Time)","Mon Oct 26 2020 09:04:11 GMT-0700 (Pacific Daylight Time)","Mozilla/5.0 (Windows NT 10.0; Win64; x64) AppleWebKit/537.36 (KHTML, like Gecko) Chrome/86.0.4240.75 Safari/537.36",90,"[0.9, 0.5, 0.1]","[0.8, 0.4, 0.2]","[u'black', u'red', u'blue']","[u'left', u'middle', u'right']","[0.8, 0.4, 0.2]","[u'low', u'medium', u'high']","blue",51,"right","high","True","False",50,3600,NA
"A1T3ROSW2LC4FG","Mon Oct 26 2020 08:56:58 GMT-0700 (Pacific Daylight Time)","Mon Oct 26 2020 09:04:11 GMT-0700 (Pacific Daylight Time)","Mozilla/5.0 (Windows NT 10.0; Win64; x64) AppleWebKit/537.36 (KHTML, like Gecko) Chrome/86.0.4240.75 Safari/537.36",91,"[0.9, 0.5, 0.1]","[0.8, 0.4, 0.2]","[u'black', u'red', u'blue']","[u'left', u'middle', u'right']","[0.8, 0.4, 0.2]","[u'low', u'medium', u'high']","blue",51,"right","high","True","False",299,3700,NA
"A1T3ROSW2LC4FG","Mon Oct 26 2020 08:56:58 GMT-0700 (Pacific Daylight Time)","Mon Oct 26 2020 09:04:11 GMT-0700 (Pacific Daylight Time)","Mozilla/5.0 (Windows NT 10.0; Win64; x64) AppleWebKit/537.36 (KHTML, like Gecko) Chrome/86.0.4240.75 Safari/537.36",92,"[0.9, 0.5, 0.1]","[0.8, 0.4, 0.2]","[u'black', u'red', u'blue']","[u'left', u'middle', u'right']","[0.8, 0.4, 0.2]","[u'low', u'medium', u'high']","blue",51,"right","high","True","False",170,3800,NA
"A1T3ROSW2LC4FG","Mon Oct 26 2020 08:56:58 GMT-0700 (Pacific Daylight Time)","Mon Oct 26 2020 09:04:11 GMT-0700 (Pacific Daylight Time)","Mozilla/5.0 (Windows NT 10.0; Win64; x64) AppleWebKit/537.36 (KHTML, like Gecko) Chrome/86.0.4240.75 Safari/537.36",93,"[0.9, 0.5, 0.1]","[0.8, 0.4, 0.2]","[u'black', u'red', u'blue']","[u'left', u'middle', u'right']","[0.8, 0.4, 0.2]","[u'low', u'medium', u'high']","blue",51,"right","high","True","False",76,3900,NA
"A1T3ROSW2LC4FG","Mon Oct 26 2020 08:56:58 GMT-0700 (Pacific Daylight Time)","Mon Oct 26 2020 09:04:11 GMT-0700 (Pacific Daylight Time)","Mozilla/5.0 (Windows NT 10.0; Win64; x64) AppleWebKit/537.36 (KHTML, like Gecko) Chrome/86.0.4240.75 Safari/537.36",94,"[0.9, 0.5, 0.1]","[0.8, 0.4, 0.2]","[u'black', u'red', u'blue']","[u'left', u'middle', u'right']","[0.8, 0.4, 0.2]","[u'low', u'medium', u'high']","blue",51,"right","high","True","False",145,4000,NA
"A1T3ROSW2LC4FG","Mon Oct 26 2020 08:56:58 GMT-0700 (Pacific Daylight Time)","Mon Oct 26 2020 09:04:11 GMT-0700 (Pacific Daylight Time)","Mozilla/5.0 (Windows NT 10.0; Win64; x64) AppleWebKit/537.36 (KHTML, like Gecko) Chrome/86.0.4240.75 Safari/537.36",95,"[0.9, 0.5, 0.1]","[0.8, 0.4, 0.2]","[u'black', u'red', u'blue']","[u'left', u'middle', u'right']","[0.8, 0.4, 0.2]","[u'low', u'medium', u'high']","blue",51,"right","high","True","False",113,4100,NA
"A1T3ROSW2LC4FG","Mon Oct 26 2020 08:56:58 GMT-0700 (Pacific Daylight Time)","Mon Oct 26 2020 09:04:11 GMT-0700 (Pacific Daylight Time)","Mozilla/5.0 (Windows NT 10.0; Win64; x64) AppleWebKit/537.36 (KHTML, like Gecko) Chrome/86.0.4240.75 Safari/537.36",96,"[0.9, 0.5, 0.1]","[0.8, 0.4, 0.2]","[u'black', u'red', u'blue']","[u'left', u'middle', u'right']","[0.8, 0.4, 0.2]","[u'low', u'medium', u'high']","blue",51,"right","high","True","True",59,4200,NA
"A1T3ROSW2LC4FG","Mon Oct 26 2020 08:56:58 GMT-0700 (Pacific Daylight Time)","Mon Oct 26 2020 09:04:11 GMT-0700 (Pacific Daylight Time)","Mozilla/5.0 (Windows NT 10.0; Win64; x64) AppleWebKit/537.36 (KHTML, like Gecko) Chrome/86.0.4240.75 Safari/537.36",97,"[0.9, 0.5, 0.1]","[0.8, 0.4, 0.2]","[u'black', u'red', u'blue']","[u'left', u'middle', u'right']","[0.8, 0.4, 0.2]","[u'high', u'medium', u'low']","blue",51,"right","low","True","False",700,4300,NA
"A1T3ROSW2LC4FG","Mon Oct 26 2020 08:56:58 GMT-0700 (Pacific Daylight Time)","Mon Oct 26 2020 09:04:11 GMT-0700 (Pacific Daylight Time)","Mozilla/5.0 (Windows NT 10.0; Win64; x64) AppleWebKit/537.36 (KHTML, like Gecko) Chrome/86.0.4240.75 Safari/537.36",98,"[0.9, 0.5, 0.1]","[0.8, 0.4, 0.2]","[u'black', u'red', u'blue']","[u'left', u'middle', u'right']","[0.8, 0.4, 0.2]","[u'high', u'medium', u'low']","blue",51,"right","low","False","False",644,4250,NA
"A1T3ROSW2LC4FG","Mon Oct 26 2020 08:56:58 GMT-0700 (Pacific Daylight Time)","Mon Oct 26 2020 09:04:11 GMT-0700 (Pacific Daylight Time)","Mozilla/5.0 (Windows NT 10.0; Win64; x64) AppleWebKit/537.36 (KHTML, like Gecko) Chrome/86.0.4240.75 Safari/537.36",99,"[0.9, 0.5, 0.1]","[0.8, 0.4, 0.2]","[u'black', u'red', u'blue']","[u'left', u'middle', u'right']","[0.8, 0.4, 0.2]","[u'high', u'medium', u'low']","blue",51,"right","low","False","False",531,4200,NA
"A1T3ROSW2LC4FG","Mon Oct 26 2020 08:56:58 GMT-0700 (Pacific Daylight Time)","Mon Oct 26 2020 09:04:11 GMT-0700 (Pacific Daylight Time)","Mozilla/5.0 (Windows NT 10.0; Win64; x64) AppleWebKit/537.36 (KHTML, like Gecko) Chrome/86.0.4240.75 Safari/537.36",100,"[0.9, 0.5, 0.1]","[0.8, 0.4, 0.2]","[u'black', u'red', u'blue']","[u'left', u'middle', u'right']","[0.8, 0.4, 0.2]","[u'high', u'medium', u'low']","red",50,"middle","medium","False","False",74,4150,NA
"A1T3ROSW2LC4FG","Mon Oct 26 2020 08:56:58 GMT-0700 (Pacific Daylight Time)","Mon Oct 26 2020 09:04:11 GMT-0700 (Pacific Daylight Time)","Mozilla/5.0 (Windows NT 10.0; Win64; x64) AppleWebKit/537.36 (KHTML, like Gecko) Chrome/86.0.4240.75 Safari/537.36",101,"[0.9, 0.5, 0.1]","[0.8, 0.4, 0.2]","[u'black', u'red', u'blue']","[u'left', u'middle', u'right']","[0.8, 0.4, 0.2]","[u'high', u'medium', u'low']","black",49,"left","high","True","False",402,4250,NA
"A1T3ROSW2LC4FG","Mon Oct 26 2020 08:56:58 GMT-0700 (Pacific Daylight Time)","Mon Oct 26 2020 09:04:11 GMT-0700 (Pacific Daylight Time)","Mozilla/5.0 (Windows NT 10.0; Win64; x64) AppleWebKit/537.36 (KHTML, like Gecko) Chrome/86.0.4240.75 Safari/537.36",102,"[0.9, 0.5, 0.1]","[0.8, 0.4, 0.2]","[u'black', u'red', u'blue']","[u'left', u'middle', u'right']","[0.8, 0.4, 0.2]","[u'high', u'medium', u'low']","black",49,"left","high","True","False",403,4350,NA
"A1T3ROSW2LC4FG","Mon Oct 26 2020 08:56:58 GMT-0700 (Pacific Daylight Time)","Mon Oct 26 2020 09:04:11 GMT-0700 (Pacific Daylight Time)","Mozilla/5.0 (Windows NT 10.0; Win64; x64) AppleWebKit/537.36 (KHTML, like Gecko) Chrome/86.0.4240.75 Safari/537.36",103,"[0.9, 0.5, 0.1]","[0.8, 0.4, 0.2]","[u'black', u'red', u'blue']","[u'left', u'middle', u'right']","[0.8, 0.4, 0.2]","[u'high', u'medium', u'low']","black",49,"left","high","True","False",378,4450,NA
"A1T3ROSW2LC4FG","Mon Oct 26 2020 08:56:58 GMT-0700 (Pacific Daylight Time)","Mon Oct 26 2020 09:04:11 GMT-0700 (Pacific Daylight Time)","Mozilla/5.0 (Windows NT 10.0; Win64; x64) AppleWebKit/537.36 (KHTML, like Gecko) Chrome/86.0.4240.75 Safari/537.36",104,"[0.9, 0.5, 0.1]","[0.8, 0.4, 0.2]","[u'black', u'red', u'blue']","[u'left', u'middle', u'right']","[0.8, 0.4, 0.2]","[u'high', u'medium', u'low']","black",49,"left","high","False","False",452,4400,NA
"A1T3ROSW2LC4FG","Mon Oct 26 2020 08:56:58 GMT-0700 (Pacific Daylight Time)","Mon Oct 26 2020 09:04:11 GMT-0700 (Pacific Daylight Time)","Mozilla/5.0 (Windows NT 10.0; Win64; x64) AppleWebKit/537.36 (KHTML, like Gecko) Chrome/86.0.4240.75 Safari/537.36",105,"[0.9, 0.5, 0.1]","[0.8, 0.4, 0.2]","[u'black', u'red', u'blue']","[u'left', u'middle', u'right']","[0.8, 0.4, 0.2]","[u'high', u'medium', u'low']","black",49,"left","high","True","False",152,4500,NA
"A1T3ROSW2LC4FG","Mon Oct 26 2020 08:56:58 GMT-0700 (Pacific Daylight Time)","Mon Oct 26 2020 09:04:11 GMT-0700 (Pacific Daylight Time)","Mozilla/5.0 (Windows NT 10.0; Win64; x64) AppleWebKit/537.36 (KHTML, like Gecko) Chrome/86.0.4240.75 Safari/537.36",106,"[0.9, 0.5, 0.1]","[0.8, 0.4, 0.2]","[u'black', u'red', u'blue']","[u'left', u'middle', u'right']","[0.8, 0.4, 0.2]","[u'high', u'medium', u'low']","black",49,"left","high","True","False",475,4600,NA
"A1T3ROSW2LC4FG","Mon Oct 26 2020 08:56:58 GMT-0700 (Pacific Daylight Time)","Mon Oct 26 2020 09:04:11 GMT-0700 (Pacific Daylight Time)","Mozilla/5.0 (Windows NT 10.0; Win64; x64) AppleWebKit/537.36 (KHTML, like Gecko) Chrome/86.0.4240.75 Safari/537.36",107,"[0.9, 0.5, 0.1]","[0.8, 0.4, 0.2]","[u'black', u'red', u'blue']","[u'left', u'middle', u'right']","[0.8, 0.4, 0.2]","[u'high', u'medium', u'low']","black",49,"left","high","True","False",563,4700,NA
"A1T3ROSW2LC4FG","Mon Oct 26 2020 08:56:58 GMT-0700 (Pacific Daylight Time)","Mon Oct 26 2020 09:04:11 GMT-0700 (Pacific Daylight Time)","Mozilla/5.0 (Windows NT 10.0; Win64; x64) AppleWebKit/537.36 (KHTML, like Gecko) Chrome/86.0.4240.75 Safari/537.36",108,"[0.9, 0.5, 0.1]","[0.8, 0.4, 0.2]","[u'black', u'red', u'blue']","[u'left', u'middle', u'right']","[0.8, 0.4, 0.2]","[u'high', u'medium', u'low']","black",49,"left","high","True","False",396,4800,NA
"A1T3ROSW2LC4FG","Mon Oct 26 2020 08:56:58 GMT-0700 (Pacific Daylight Time)","Mon Oct 26 2020 09:04:11 GMT-0700 (Pacific Daylight Time)","Mozilla/5.0 (Windows NT 10.0; Win64; x64) AppleWebKit/537.36 (KHTML, like Gecko) Chrome/86.0.4240.75 Safari/537.36",109,"[0.9, 0.5, 0.1]","[0.8, 0.4, 0.2]","[u'black', u'red', u'blue']","[u'left', u'middle', u'right']","[0.8, 0.4, 0.2]","[u'high', u'medium', u'low']","black",49,"left","high","True","True",401,4900,NA
"A1T3ROSW2LC4FG","Mon Oct 26 2020 08:56:58 GMT-0700 (Pacific Daylight Time)","Mon Oct 26 2020 09:04:11 GMT-0700 (Pacific Daylight Time)","Mozilla/5.0 (Windows NT 10.0; Win64; x64) AppleWebKit/537.36 (KHTML, like Gecko) Chrome/86.0.4240.75 Safari/537.36",110,"[0.9, 0.5, 0.1]","[0.8, 0.4, 0.2]","[u'black', u'red', u'blue']","[u'left', u'middle', u'right']","[0.8, 0.4, 0.2]","[u'low', u'high', u'medium']","black",49,"left","low","True","False",148,5000,NA
"A1T3ROSW2LC4FG","Mon Oct 26 2020 08:56:58 GMT-0700 (Pacific Daylight Time)","Mon Oct 26 2020 09:04:11 GMT-0700 (Pacific Daylight Time)","Mozilla/5.0 (Windows NT 10.0; Win64; x64) AppleWebKit/537.36 (KHTML, like Gecko) Chrome/86.0.4240.75 Safari/537.36",111,"[0.9, 0.5, 0.1]","[0.8, 0.4, 0.2]","[u'black', u'red', u'blue']","[u'left', u'middle', u'right']","[0.8, 0.4, 0.2]","[u'low', u'high', u'medium']","black",49,"left","low","False","False",412,4950,NA
"A1T3ROSW2LC4FG","Mon Oct 26 2020 08:56:58 GMT-0700 (Pacific Daylight Time)","Mon Oct 26 2020 09:04:11 GMT-0700 (Pacific Daylight Time)","Mozilla/5.0 (Windows NT 10.0; Win64; x64) AppleWebKit/537.36 (KHTML, like Gecko) Chrome/86.0.4240.75 Safari/537.36",112,"[0.9, 0.5, 0.1]","[0.8, 0.4, 0.2]","[u'black', u'red', u'blue']","[u'left', u'middle', u'right']","[0.8, 0.4, 0.2]","[u'low', u'high', u'medium']","black",49,"left","low","False","False",408,4900,NA
"A1T3ROSW2LC4FG","Mon Oct 26 2020 08:56:58 GMT-0700 (Pacific Daylight Time)","Mon Oct 26 2020 09:04:11 GMT-0700 (Pacific Daylight Time)","Mozilla/5.0 (Windows NT 10.0; Win64; x64) AppleWebKit/537.36 (KHTML, like Gecko) Chrome/86.0.4240.75 Safari/537.36",113,"[0.9, 0.5, 0.1]","[0.8, 0.4, 0.2]","[u'black', u'red', u'blue']","[u'left', u'middle', u'right']","[0.8, 0.4, 0.2]","[u'low', u'high', u'medium']","red",50,"middle","high","True","False",316,5000,NA
"A1T3ROSW2LC4FG","Mon Oct 26 2020 08:56:58 GMT-0700 (Pacific Daylight Time)","Mon Oct 26 2020 09:04:11 GMT-0700 (Pacific Daylight Time)","Mozilla/5.0 (Windows NT 10.0; Win64; x64) AppleWebKit/537.36 (KHTML, like Gecko) Chrome/86.0.4240.75 Safari/537.36",114,"[0.9, 0.5, 0.1]","[0.8, 0.4, 0.2]","[u'black', u'red', u'blue']","[u'left', u'middle', u'right']","[0.8, 0.4, 0.2]","[u'low', u'high', u'medium']","red",50,"middle","high","True","False",490,5100,NA
"A1T3ROSW2LC4FG","Mon Oct 26 2020 08:56:58 GMT-0700 (Pacific Daylight Time)","Mon Oct 26 2020 09:04:11 GMT-0700 (Pacific Daylight Time)","Mozilla/5.0 (Windows NT 10.0; Win64; x64) AppleWebKit/537.36 (KHTML, like Gecko) Chrome/86.0.4240.75 Safari/537.36",115,"[0.9, 0.5, 0.1]","[0.8, 0.4, 0.2]","[u'black', u'red', u'blue']","[u'left', u'middle', u'right']","[0.8, 0.4, 0.2]","[u'low', u'high', u'medium']","red",50,"middle","high","True","False",572,5200,NA
"A1T3ROSW2LC4FG","Mon Oct 26 2020 08:56:58 GMT-0700 (Pacific Daylight Time)","Mon Oct 26 2020 09:04:11 GMT-0700 (Pacific Daylight Time)","Mozilla/5.0 (Windows NT 10.0; Win64; x64) AppleWebKit/537.36 (KHTML, like Gecko) Chrome/86.0.4240.75 Safari/537.36",116,"[0.9, 0.5, 0.1]","[0.8, 0.4, 0.2]","[u'black', u'red', u'blue']","[u'left', u'middle', u'right']","[0.8, 0.4, 0.2]","[u'low', u'high', u'medium']","red",50,"middle","high","True","False",747,5300,NA
"A1T3ROSW2LC4FG","Mon Oct 26 2020 08:56:58 GMT-0700 (Pacific Daylight Time)","Mon Oct 26 2020 09:04:11 GMT-0700 (Pacific Daylight Time)","Mozilla/5.0 (Windows NT 10.0; Win64; x64) AppleWebKit/537.36 (KHTML, like Gecko) Chrome/86.0.4240.75 Safari/537.36",117,"[0.9, 0.5, 0.1]","[0.8, 0.4, 0.2]","[u'black', u'red', u'blue']","[u'left', u'middle', u'right']","[0.8, 0.4, 0.2]","[u'low', u'high', u'medium']","red",50,"middle","high","False","False",443,5250,NA
"A1T3ROSW2LC4FG","Mon Oct 26 2020 08:56:58 GMT-0700 (Pacific Daylight Time)","Mon Oct 26 2020 09:04:11 GMT-0700 (Pacific Daylight Time)","Mozilla/5.0 (Windows NT 10.0; Win64; x64) AppleWebKit/537.36 (KHTML, like Gecko) Chrome/86.0.4240.75 Safari/537.36",118,"[0.9, 0.5, 0.1]","[0.8, 0.4, 0.2]","[u'black', u'red', u'blue']","[u'left', u'middle', u'right']","[0.8, 0.4, 0.2]","[u'low', u'high', u'medium']","red",50,"middle","high","True","False",90,5350,NA
"A1T3ROSW2LC4FG","Mon Oct 26 2020 08:56:58 GMT-0700 (Pacific Daylight Time)","Mon Oct 26 2020 09:04:11 GMT-0700 (Pacific Daylight Time)","Mozilla/5.0 (Windows NT 10.0; Win64; x64) AppleWebKit/537.36 (KHTML, like Gecko) Chrome/86.0.4240.75 Safari/537.36",119,"[0.9, 0.5, 0.1]","[0.8, 0.4, 0.2]","[u'black', u'red', u'blue']","[u'left', u'middle', u'right']","[0.8, 0.4, 0.2]","[u'low', u'high', u'medium']","red",50,"middle","high","True","False",506,5450,NA
"A1T3ROSW2LC4FG","Mon Oct 26 2020 08:56:58 GMT-0700 (Pacific Daylight Time)","Mon Oct 26 2020 09:04:11 GMT-0700 (Pacific Daylight Time)","Mozilla/5.0 (Windows NT 10.0; Win64; x64) AppleWebKit/537.36 (KHTML, like Gecko) Chrome/86.0.4240.75 Safari/537.36",120,"[0.9, 0.5, 0.1]","[0.8, 0.4, 0.2]","[u'black', u'red', u'blue']","[u'left', u'middle', u'right']","[0.8, 0.4, 0.2]","[u'low', u'high', u'medium']","red",50,"middle","high","True","False",490,5550,NA
"A1T3ROSW2LC4FG","Mon Oct 26 2020 08:56:58 GMT-0700 (Pacific Daylight Time)","Mon Oct 26 2020 09:04:11 GMT-0700 (Pacific Daylight Time)","Mozilla/5.0 (Windows NT 10.0; Win64; x64) AppleWebKit/537.36 (KHTML, like Gecko) Chrome/86.0.4240.75 Safari/537.36",121,"[0.9, 0.5, 0.1]","[0.8, 0.4, 0.2]","[u'black', u'red', u'blue']","[u'left', u'middle', u'right']","[0.8, 0.4, 0.2]","[u'low', u'medium', u'high']","red",50,"middle","medium","True","False",600,5650,NA
"A1T3ROSW2LC4FG","Mon Oct 26 2020 08:56:58 GMT-0700 (Pacific Daylight Time)","Mon Oct 26 2020 09:04:11 GMT-0700 (Pacific Daylight Time)","Mozilla/5.0 (Windows NT 10.0; Win64; x64) AppleWebKit/537.36 (KHTML, like Gecko) Chrome/86.0.4240.75 Safari/537.36",122,"[0.9, 0.5, 0.1]","[0.8, 0.4, 0.2]","[u'black', u'red', u'blue']","[u'left', u'middle', u'right']","[0.8, 0.4, 0.2]","[u'low', u'medium', u'high']","red",50,"middle","medium","True","False",273,5750,NA
"A1T3ROSW2LC4FG","Mon Oct 26 2020 08:56:58 GMT-0700 (Pacific Daylight Time)","Mon Oct 26 2020 09:04:11 GMT-0700 (Pacific Daylight Time)","Mozilla/5.0 (Windows NT 10.0; Win64; x64) AppleWebKit/537.36 (KHTML, like Gecko) Chrome/86.0.4240.75 Safari/537.36",123,"[0.9, 0.5, 0.1]","[0.8, 0.4, 0.2]","[u'black', u'red', u'blue']","[u'left', u'middle', u'right']","[0.8, 0.4, 0.2]","[u'low', u'medium', u'high']","red",50,"middle","medium","False","False",218,5700,NA
"A1T3ROSW2LC4FG","Mon Oct 26 2020 08:56:58 GMT-0700 (Pacific Daylight Time)","Mon Oct 26 2020 09:04:11 GMT-0700 (Pacific Daylight Time)","Mozilla/5.0 (Windows NT 10.0; Win64; x64) AppleWebKit/537.36 (KHTML, like Gecko) Chrome/86.0.4240.75 Safari/537.36",124,"[0.9, 0.5, 0.1]","[0.8, 0.4, 0.2]","[u'black', u'red', u'blue']","[u'left', u'middle', u'right']","[0.8, 0.4, 0.2]","[u'low', u'medium', u'high']","red",50,"middle","medium","False","False",139,5650,NA
"A1T3ROSW2LC4FG","Mon Oct 26 2020 08:56:58 GMT-0700 (Pacific Daylight Time)","Mon Oct 26 2020 09:04:11 GMT-0700 (Pacific Daylight Time)","Mozilla/5.0 (Windows NT 10.0; Win64; x64) AppleWebKit/537.36 (KHTML, like Gecko) Chrome/86.0.4240.75 Safari/537.36",125,"[0.9, 0.5, 0.1]","[0.8, 0.4, 0.2]","[u'black', u'red', u'blue']","[u'left', u'middle', u'right']","[0.8, 0.4, 0.2]","[u'low', u'medium', u'high']","blue",51,"right","high","False","False",289,5600,NA
"A1T3ROSW2LC4FG","Mon Oct 26 2020 08:56:58 GMT-0700 (Pacific Daylight Time)","Mon Oct 26 2020 09:04:11 GMT-0700 (Pacific Daylight Time)","Mozilla/5.0 (Windows NT 10.0; Win64; x64) AppleWebKit/537.36 (KHTML, like Gecko) Chrome/86.0.4240.75 Safari/537.36",126,"[0.9, 0.5, 0.1]","[0.8, 0.4, 0.2]","[u'black', u'red', u'blue']","[u'left', u'middle', u'right']","[0.8, 0.4, 0.2]","[u'low', u'medium', u'high']","black",49,"left","low","False","False",338,5550,NA
"A1T3ROSW2LC4FG","Mon Oct 26 2020 08:56:58 GMT-0700 (Pacific Daylight Time)","Mon Oct 26 2020 09:04:11 GMT-0700 (Pacific Daylight Time)","Mozilla/5.0 (Windows NT 10.0; Win64; x64) AppleWebKit/537.36 (KHTML, like Gecko) Chrome/86.0.4240.75 Safari/537.36",127,"[0.9, 0.5, 0.1]","[0.8, 0.4, 0.2]","[u'black', u'red', u'blue']","[u'left', u'middle', u'right']","[0.8, 0.4, 0.2]","[u'low', u'medium', u'high']","blue",51,"right","high","True","False",579,5650,NA
"A1T3ROSW2LC4FG","Mon Oct 26 2020 08:56:58 GMT-0700 (Pacific Daylight Time)","Mon Oct 26 2020 09:04:11 GMT-0700 (Pacific Daylight Time)","Mozilla/5.0 (Windows NT 10.0; Win64; x64) AppleWebKit/537.36 (KHTML, like Gecko) Chrome/86.0.4240.75 Safari/537.36",128,"[0.9, 0.5, 0.1]","[0.8, 0.4, 0.2]","[u'black', u'red', u'blue']","[u'left', u'middle', u'right']","[0.8, 0.4, 0.2]","[u'low', u'medium', u'high']","blue",51,"right","high","True","False",452,5750,NA
"A1T3ROSW2LC4FG","Mon Oct 26 2020 08:56:58 GMT-0700 (Pacific Daylight Time)","Mon Oct 26 2020 09:04:11 GMT-0700 (Pacific Daylight Time)","Mozilla/5.0 (Windows NT 10.0; Win64; x64) AppleWebKit/537.36 (KHTML, like Gecko) Chrome/86.0.4240.75 Safari/537.36",129,"[0.9, 0.5, 0.1]","[0.8, 0.4, 0.2]","[u'black', u'red', u'blue']","[u'left', u'middle', u'right']","[0.8, 0.4, 0.2]","[u'low', u'medium', u'high']","blue",51,"right","high","True","False",394,5850,NA
"A1T3ROSW2LC4FG","Mon Oct 26 2020 08:56:58 GMT-0700 (Pacific Daylight Time)","Mon Oct 26 2020 09:04:11 GMT-0700 (Pacific Daylight Time)","Mozilla/5.0 (Windows NT 10.0; Win64; x64) AppleWebKit/537.36 (KHTML, like Gecko) Chrome/86.0.4240.75 Safari/537.36",130,"[0.9, 0.5, 0.1]","[0.8, 0.4, 0.2]","[u'black', u'red', u'blue']","[u'left', u'middle', u'right']","[0.8, 0.4, 0.2]","[u'low', u'medium', u'high']","blue",51,"right","high","True","False",441,5950,NA
"A1T3ROSW2LC4FG","Mon Oct 26 2020 08:56:58 GMT-0700 (Pacific Daylight Time)","Mon Oct 26 2020 09:04:11 GMT-0700 (Pacific Daylight Time)","Mozilla/5.0 (Windows NT 10.0; Win64; x64) AppleWebKit/537.36 (KHTML, like Gecko) Chrome/86.0.4240.75 Safari/537.36",131,"[0.9, 0.5, 0.1]","[0.8, 0.4, 0.2]","[u'black', u'red', u'blue']","[u'left', u'middle', u'right']","[0.8, 0.4, 0.2]","[u'low', u'medium', u'high']","blue",51,"right","high","True","False",476,6050,NA
"A1T3ROSW2LC4FG","Mon Oct 26 2020 08:56:58 GMT-0700 (Pacific Daylight Time)","Mon Oct 26 2020 09:04:11 GMT-0700 (Pacific Daylight Time)","Mozilla/5.0 (Windows NT 10.0; Win64; x64) AppleWebKit/537.36 (KHTML, like Gecko) Chrome/86.0.4240.75 Safari/537.36",132,"[0.9, 0.5, 0.1]","[0.8, 0.4, 0.2]","[u'black', u'red', u'blue']","[u'left', u'middle', u'right']","[0.8, 0.4, 0.2]","[u'low', u'medium', u'high']","blue",51,"right","high","True","False",507,6150,NA
"A1T3ROSW2LC4FG","Mon Oct 26 2020 08:56:58 GMT-0700 (Pacific Daylight Time)","Mon Oct 26 2020 09:04:11 GMT-0700 (Pacific Daylight Time)","Mozilla/5.0 (Windows NT 10.0; Win64; x64) AppleWebKit/537.36 (KHTML, like Gecko) Chrome/86.0.4240.75 Safari/537.36",133,"[0.9, 0.5, 0.1]","[0.8, 0.4, 0.2]","[u'black', u'red', u'blue']","[u'left', u'middle', u'right']","[0.8, 0.4, 0.2]","[u'low', u'medium', u'high']","blue",51,"right","high","True","False",458,6250,NA
"A1T3ROSW2LC4FG","Mon Oct 26 2020 08:56:58 GMT-0700 (Pacific Daylight Time)","Mon Oct 26 2020 09:04:11 GMT-0700 (Pacific Daylight Time)","Mozilla/5.0 (Windows NT 10.0; Win64; x64) AppleWebKit/537.36 (KHTML, like Gecko) Chrome/86.0.4240.75 Safari/537.36",134,"[0.9, 0.5, 0.1]","[0.8, 0.4, 0.2]","[u'black', u'red', u'blue']","[u'left', u'middle', u'right']","[0.8, 0.4, 0.2]","[u'low', u'medium', u'high']","blue",51,"right","high","False","True",490,6200,NA
"A1T3ROSW2LC4FG","Mon Oct 26 2020 08:56:58 GMT-0700 (Pacific Daylight Time)","Mon Oct 26 2020 09:04:11 GMT-0700 (Pacific Daylight Time)","Mozilla/5.0 (Windows NT 10.0; Win64; x64) AppleWebKit/537.36 (KHTML, like Gecko) Chrome/86.0.4240.75 Safari/537.36",135,"[0.9, 0.5, 0.1]","[0.8, 0.4, 0.2]","[u'black', u'red', u'blue']","[u'left', u'middle', u'right']","[0.8, 0.4, 0.2]","[u'high', u'low', u'medium']","blue",51,"right","medium","False","False",251,6150,NA
"A1T3ROSW2LC4FG","Mon Oct 26 2020 08:56:58 GMT-0700 (Pacific Daylight Time)","Mon Oct 26 2020 09:04:11 GMT-0700 (Pacific Daylight Time)","Mozilla/5.0 (Windows NT 10.0; Win64; x64) AppleWebKit/537.36 (KHTML, like Gecko) Chrome/86.0.4240.75 Safari/537.36",136,"[0.9, 0.5, 0.1]","[0.8, 0.4, 0.2]","[u'black', u'red', u'blue']","[u'left', u'middle', u'right']","[0.8, 0.4, 0.2]","[u'high', u'low', u'medium']","red",50,"middle","low","False","False",35,6100,NA
"A1T3ROSW2LC4FG","Mon Oct 26 2020 08:56:58 GMT-0700 (Pacific Daylight Time)","Mon Oct 26 2020 09:04:11 GMT-0700 (Pacific Daylight Time)","Mozilla/5.0 (Windows NT 10.0; Win64; x64) AppleWebKit/537.36 (KHTML, like Gecko) Chrome/86.0.4240.75 Safari/537.36",137,"[0.9, 0.5, 0.1]","[0.8, 0.4, 0.2]","[u'black', u'red', u'blue']","[u'left', u'middle', u'right']","[0.8, 0.4, 0.2]","[u'high', u'low', u'medium']","black",49,"left","high","False","False",449,6050,NA
"A1T3ROSW2LC4FG","Mon Oct 26 2020 08:56:58 GMT-0700 (Pacific Daylight Time)","Mon Oct 26 2020 09:04:11 GMT-0700 (Pacific Daylight Time)","Mozilla/5.0 (Windows NT 10.0; Win64; x64) AppleWebKit/537.36 (KHTML, like Gecko) Chrome/86.0.4240.75 Safari/537.36",138,"[0.9, 0.5, 0.1]","[0.8, 0.4, 0.2]","[u'black', u'red', u'blue']","[u'left', u'middle', u'right']","[0.8, 0.4, 0.2]","[u'high', u'low', u'medium']","blue",51,"right","medium","True","False",92,6150,NA
"A1T3ROSW2LC4FG","Mon Oct 26 2020 08:56:58 GMT-0700 (Pacific Daylight Time)","Mon Oct 26 2020 09:04:11 GMT-0700 (Pacific Daylight Time)","Mozilla/5.0 (Windows NT 10.0; Win64; x64) AppleWebKit/537.36 (KHTML, like Gecko) Chrome/86.0.4240.75 Safari/537.36",139,"[0.9, 0.5, 0.1]","[0.8, 0.4, 0.2]","[u'black', u'red', u'blue']","[u'left', u'middle', u'right']","[0.8, 0.4, 0.2]","[u'high', u'low', u'medium']","blue",51,"right","medium","False","False",802,6100,NA
"A1T3ROSW2LC4FG","Mon Oct 26 2020 08:56:58 GMT-0700 (Pacific Daylight Time)","Mon Oct 26 2020 09:04:11 GMT-0700 (Pacific Daylight Time)","Mozilla/5.0 (Windows NT 10.0; Win64; x64) AppleWebKit/537.36 (KHTML, like Gecko) Chrome/86.0.4240.75 Safari/537.36",140,"[0.9, 0.5, 0.1]","[0.8, 0.4, 0.2]","[u'black', u'red', u'blue']","[u'left', u'middle', u'right']","[0.8, 0.4, 0.2]","[u'high', u'low', u'medium']","blue",51,"right","medium","True","False",842,6200,NA
"A1T3ROSW2LC4FG","Mon Oct 26 2020 08:56:58 GMT-0700 (Pacific Daylight Time)","Mon Oct 26 2020 09:04:11 GMT-0700 (Pacific Daylight Time)","Mozilla/5.0 (Windows NT 10.0; Win64; x64) AppleWebKit/537.36 (KHTML, like Gecko) Chrome/86.0.4240.75 Safari/537.36",141,"[0.9, 0.5, 0.1]","[0.8, 0.4, 0.2]","[u'black', u'red', u'blue']","[u'left', u'middle', u'right']","[0.8, 0.4, 0.2]","[u'high', u'low', u'medium']","blue",51,"right","medium","True","False",506,6300,NA
"A1T3ROSW2LC4FG","Mon Oct 26 2020 08:56:58 GMT-0700 (Pacific Daylight Time)","Mon Oct 26 2020 09:04:11 GMT-0700 (Pacific Daylight Time)","Mozilla/5.0 (Windows NT 10.0; Win64; x64) AppleWebKit/537.36 (KHTML, like Gecko) Chrome/86.0.4240.75 Safari/537.36",142,"[0.9, 0.5, 0.1]","[0.8, 0.4, 0.2]","[u'black', u'red', u'blue']","[u'left', u'middle', u'right']","[0.8, 0.4, 0.2]","[u'high', u'low', u'medium']","blue",51,"right","medium","False","False",537,6250,NA
"A1T3ROSW2LC4FG","Mon Oct 26 2020 08:56:58 GMT-0700 (Pacific Daylight Time)","Mon Oct 26 2020 09:04:11 GMT-0700 (Pacific Daylight Time)","Mozilla/5.0 (Windows NT 10.0; Win64; x64) AppleWebKit/537.36 (KHTML, like Gecko) Chrome/86.0.4240.75 Safari/537.36",143,"[0.9, 0.5, 0.1]","[0.8, 0.4, 0.2]","[u'black', u'red', u'blue']","[u'left', u'middle', u'right']","[0.8, 0.4, 0.2]","[u'high', u'low', u'medium']","blue",51,"right","medium","False","False",182,6200,NA
"A1T3ROSW2LC4FG","Mon Oct 26 2020 08:56:58 GMT-0700 (Pacific Daylight Time)","Mon Oct 26 2020 09:04:11 GMT-0700 (Pacific Daylight Time)","Mozilla/5.0 (Windows NT 10.0; Win64; x64) AppleWebKit/537.36 (KHTML, like Gecko) Chrome/86.0.4240.75 Safari/537.36",144,"[0.9, 0.5, 0.1]","[0.8, 0.4, 0.2]","[u'black', u'red', u'blue']","[u'left', u'middle', u'right']","[0.8, 0.4, 0.2]","[u'high', u'low', u'medium']","blue",51,"right","medium","False","False",247,6150,NA
"A1T3ROSW2LC4FG","Mon Oct 26 2020 08:56:58 GMT-0700 (Pacific Daylight Time)","Mon Oct 26 2020 09:04:11 GMT-0700 (Pacific Daylight Time)","Mozilla/5.0 (Windows NT 10.0; Win64; x64) AppleWebKit/537.36 (KHTML, like Gecko) Chrome/86.0.4240.75 Safari/537.36",145,"[0.9, 0.5, 0.1]","[0.8, 0.4, 0.2]","[u'black', u'red', u'blue']","[u'left', u'middle', u'right']","[0.8, 0.4, 0.2]","[u'high', u'low', u'medium']","red",50,"middle","low","True","False",58,6250,NA
"A1T3ROSW2LC4FG","Mon Oct 26 2020 08:56:58 GMT-0700 (Pacific Daylight Time)","Mon Oct 26 2020 09:04:11 GMT-0700 (Pacific Daylight Time)","Mozilla/5.0 (Windows NT 10.0; Win64; x64) AppleWebKit/537.36 (KHTML, like Gecko) Chrome/86.0.4240.75 Safari/537.36",146,"[0.9, 0.5, 0.1]","[0.8, 0.4, 0.2]","[u'black', u'red', u'blue']","[u'left', u'middle', u'right']","[0.8, 0.4, 0.2]","[u'high', u'low', u'medium']","red",50,"middle","low","False","False",371,6200,NA
"A1T3ROSW2LC4FG","Mon Oct 26 2020 08:56:58 GMT-0700 (Pacific Daylight Time)","Mon Oct 26 2020 09:04:11 GMT-0700 (Pacific Daylight Time)","Mozilla/5.0 (Windows NT 10.0; Win64; x64) AppleWebKit/537.36 (KHTML, like Gecko) Chrome/86.0.4240.75 Safari/537.36",147,"[0.9, 0.5, 0.1]","[0.8, 0.4, 0.2]","[u'black', u'red', u'blue']","[u'left', u'middle', u'right']","[0.8, 0.4, 0.2]","[u'high', u'low', u'medium']","red",50,"middle","low","False","False",99,6150,NA
"A1T3ROSW2LC4FG","Mon Oct 26 2020 08:56:58 GMT-0700 (Pacific Daylight Time)","Mon Oct 26 2020 09:04:11 GMT-0700 (Pacific Daylight Time)","Mozilla/5.0 (Windows NT 10.0; Win64; x64) AppleWebKit/537.36 (KHTML, like Gecko) Chrome/86.0.4240.75 Safari/537.36",148,"[0.9, 0.5, 0.1]","[0.8, 0.4, 0.2]","[u'black', u'red', u'blue']","[u'left', u'middle', u'right']","[0.8, 0.4, 0.2]","[u'high', u'low', u'medium']","black",49,"left","high","True","False",33,6250,NA
"A1T3ROSW2LC4FG","Mon Oct 26 2020 08:56:58 GMT-0700 (Pacific Daylight Time)","Mon Oct 26 2020 09:04:11 GMT-0700 (Pacific Daylight Time)","Mozilla/5.0 (Windows NT 10.0; Win64; x64) AppleWebKit/537.36 (KHTML, like Gecko) Chrome/86.0.4240.75 Safari/537.36",149,"[0.9, 0.5, 0.1]","[0.8, 0.4, 0.2]","[u'black', u'red', u'blue']","[u'left', u'middle', u'right']","[0.8, 0.4, 0.2]","[u'high', u'low', u'medium']","black",49,"left","high","False","False",413,6200,NA
"A1T3ROSW2LC4FG","Mon Oct 26 2020 08:56:58 GMT-0700 (Pacific Daylight Time)","Mon Oct 26 2020 09:04:11 GMT-0700 (Pacific Daylight Time)","Mozilla/5.0 (Windows NT 10.0; Win64; x64) AppleWebKit/537.36 (KHTML, like Gecko) Chrome/86.0.4240.75 Safari/537.36",150,"[0.9, 0.5, 0.1]","[0.8, 0.4, 0.2]","[u'black', u'red', u'blue']","[u'left', u'middle', u'right']","[0.8, 0.4, 0.2]","[u'high', u'low', u'medium']","blue",51,"right","medium","False","False",426,6150,NA
"A1T3ROSW2LC4FG","Mon Oct 26 2020 08:56:58 GMT-0700 (Pacific Daylight Time)","Mon Oct 26 2020 09:04:11 GMT-0700 (Pacific Daylight Time)","Mozilla/5.0 (Windows NT 10.0; Win64; x64) AppleWebKit/537.36 (KHTML, like Gecko) Chrome/86.0.4240.75 Safari/537.36",151,"[0.9, 0.5, 0.1]","[0.8, 0.4, 0.2]","[u'black', u'red', u'blue']","[u'left', u'middle', u'right']","[0.8, 0.4, 0.2]","[u'high', u'low', u'medium']","black",49,"left","high","True","False",82,6250,NA
"A1T3ROSW2LC4FG","Mon Oct 26 2020 08:56:58 GMT-0700 (Pacific Daylight Time)","Mon Oct 26 2020 09:04:11 GMT-0700 (Pacific Daylight Time)","Mozilla/5.0 (Windows NT 10.0; Win64; x64) AppleWebKit/537.36 (KHTML, like Gecko) Chrome/86.0.4240.75 Safari/537.36",152,"[0.9, 0.5, 0.1]","[0.8, 0.4, 0.2]","[u'black', u'red', u'blue']","[u'left', u'middle', u'right']","[0.8, 0.4, 0.2]","[u'high', u'low', u'medium']","black",49,"left","high","True","False",436,6350,NA
"A1T3ROSW2LC4FG","Mon Oct 26 2020 08:56:58 GMT-0700 (Pacific Daylight Time)","Mon Oct 26 2020 09:04:11 GMT-0700 (Pacific Daylight Time)","Mozilla/5.0 (Windows NT 10.0; Win64; x64) AppleWebKit/537.36 (KHTML, like Gecko) Chrome/86.0.4240.75 Safari/537.36",153,"[0.9, 0.5, 0.1]","[0.8, 0.4, 0.2]","[u'black', u'red', u'blue']","[u'left', u'middle', u'right']","[0.8, 0.4, 0.2]","[u'high', u'low', u'medium']","black",49,"left","high","True","False",464,6450,NA
"A1T3ROSW2LC4FG","Mon Oct 26 2020 08:56:58 GMT-0700 (Pacific Daylight Time)","Mon Oct 26 2020 09:04:11 GMT-0700 (Pacific Daylight Time)","Mozilla/5.0 (Windows NT 10.0; Win64; x64) AppleWebKit/537.36 (KHTML, like Gecko) Chrome/86.0.4240.75 Safari/537.36",154,"[0.9, 0.5, 0.1]","[0.8, 0.4, 0.2]","[u'black', u'red', u'blue']","[u'left', u'middle', u'right']","[0.8, 0.4, 0.2]","[u'high', u'low', u'medium']","black",49,"left","high","True","False",425,6550,NA
"A1T3ROSW2LC4FG","Mon Oct 26 2020 08:56:58 GMT-0700 (Pacific Daylight Time)","Mon Oct 26 2020 09:04:11 GMT-0700 (Pacific Daylight Time)","Mozilla/5.0 (Windows NT 10.0; Win64; x64) AppleWebKit/537.36 (KHTML, like Gecko) Chrome/86.0.4240.75 Safari/537.36",155,"[0.9, 0.5, 0.1]","[0.8, 0.4, 0.2]","[u'black', u'red', u'blue']","[u'left', u'middle', u'right']","[0.8, 0.4, 0.2]","[u'high', u'low', u'medium']","black",49,"left","high","True","False",579,6650,NA
"A1T3ROSW2LC4FG","Mon Oct 26 2020 08:56:58 GMT-0700 (Pacific Daylight Time)","Mon Oct 26 2020 09:04:11 GMT-0700 (Pacific Daylight Time)","Mozilla/5.0 (Windows NT 10.0; Win64; x64) AppleWebKit/537.36 (KHTML, like Gecko) Chrome/86.0.4240.75 Safari/537.36",156,"[0.9, 0.5, 0.1]","[0.8, 0.4, 0.2]","[u'black', u'red', u'blue']","[u'left', u'middle', u'right']","[0.8, 0.4, 0.2]","[u'high', u'low', u'medium']","black",49,"left","high","True","False",539,6750,NA
"A1T3ROSW2LC4FG","Mon Oct 26 2020 08:56:58 GMT-0700 (Pacific Daylight Time)","Mon Oct 26 2020 09:04:11 GMT-0700 (Pacific Daylight Time)","Mozilla/5.0 (Windows NT 10.0; Win64; x64) AppleWebKit/537.36 (KHTML, like Gecko) Chrome/86.0.4240.75 Safari/537.36",157,"[0.9, 0.5, 0.1]","[0.8, 0.4, 0.2]","[u'black', u'red', u'blue']","[u'left', u'middle', u'right']","[0.8, 0.4, 0.2]","[u'high', u'low', u'medium']","black",49,"left","high","True","True",530,6850,NA
"A1T3ROSW2LC4FG","Mon Oct 26 2020 08:56:58 GMT-0700 (Pacific Daylight Time)","Mon Oct 26 2020 09:04:11 GMT-0700 (Pacific Daylight Time)","Mozilla/5.0 (Windows NT 10.0; Win64; x64) AppleWebKit/537.36 (KHTML, like Gecko) Chrome/86.0.4240.75 Safari/537.36",158,"[0.9, 0.5, 0.1]","[0.8, 0.4, 0.2]","[u'black', u'red', u'blue']","[u'left', u'middle', u'right']","[0.8, 0.4, 0.2]","[u'medium', u'low', u'high']","black",49,"left","medium","True","False",628,6950,NA
"A1T3ROSW2LC4FG","Mon Oct 26 2020 08:56:58 GMT-0700 (Pacific Daylight Time)","Mon Oct 26 2020 09:04:11 GMT-0700 (Pacific Daylight Time)","Mozilla/5.0 (Windows NT 10.0; Win64; x64) AppleWebKit/537.36 (KHTML, like Gecko) Chrome/86.0.4240.75 Safari/537.36",159,"[0.9, 0.5, 0.1]","[0.8, 0.4, 0.2]","[u'black', u'red', u'blue']","[u'left', u'middle', u'right']","[0.8, 0.4, 0.2]","[u'medium', u'low', u'high']","black",49,"left","medium","False","False",697,6900,NA
"A1T3ROSW2LC4FG","Mon Oct 26 2020 08:56:58 GMT-0700 (Pacific Daylight Time)","Mon Oct 26 2020 09:04:11 GMT-0700 (Pacific Daylight Time)","Mozilla/5.0 (Windows NT 10.0; Win64; x64) AppleWebKit/537.36 (KHTML, like Gecko) Chrome/86.0.4240.75 Safari/537.36",160,"[0.9, 0.5, 0.1]","[0.8, 0.4, 0.2]","[u'black', u'red', u'blue']","[u'left', u'middle', u'right']","[0.8, 0.4, 0.2]","[u'medium', u'low', u'high']","black",49,"left","medium","False","False",492,6850,NA
