"src_subject_id","start_time","end_time","browser","index","first_half_probabilities","second_half_probabilities","deck_color","deck_position","deck_probabilities","deck_contingencies","response_color","key_press","response_position","response_probability","reward_type","trial_type","rt","reward_tally","exclusion_reason"
"A19UBZFVUWL1ES","Mon Oct 26 2020 15:19:54 GMT-0400 (Eastern Daylight Time)","Mon Oct 26 2020 15:26:41 GMT-0400 (Eastern Daylight Time)","Mozilla/5.0 (Macintosh; Intel Mac OS X 10.14; rv:81.0) Gecko/20100101 Firefox/81.0",1,"[0.9, 0.5, 0.1]","[0.8, 0.4, 0.2]","[u'black', u'blue', u'red']","[u'left', u'middle', u'right']","[0.9, 0.5, 0.1]","[u'high', u'low', u'medium']","black",49,"left","high","True","False",1452,100,NA
"A19UBZFVUWL1ES","Mon Oct 26 2020 15:19:54 GMT-0400 (Eastern Daylight Time)","Mon Oct 26 2020 15:26:41 GMT-0400 (Eastern Daylight Time)","Mozilla/5.0 (Macintosh; Intel Mac OS X 10.14; rv:81.0) Gecko/20100101 Firefox/81.0",2,"[0.9, 0.5, 0.1]","[0.8, 0.4, 0.2]","[u'black', u'blue', u'red']","[u'left', u'middle', u'right']","[0.9, 0.5, 0.1]","[u'high', u'low', u'medium']","black",49,"left","high","True","False",429,200,NA
"A19UBZFVUWL1ES","Mon Oct 26 2020 15:19:54 GMT-0400 (Eastern Daylight Time)","Mon Oct 26 2020 15:26:41 GMT-0400 (Eastern Daylight Time)","Mozilla/5.0 (Macintosh; Intel Mac OS X 10.14; rv:81.0) Gecko/20100101 Firefox/81.0",3,"[0.9, 0.5, 0.1]","[0.8, 0.4, 0.2]","[u'black', u'blue', u'red']","[u'left', u'middle', u'right']","[0.9, 0.5, 0.1]","[u'high', u'low', u'medium']","black",49,"left","high","True","False",470,300,NA
"A19UBZFVUWL1ES","Mon Oct 26 2020 15:19:54 GMT-0400 (Eastern Daylight Time)","Mon Oct 26 2020 15:26:41 GMT-0400 (Eastern Daylight Time)","Mozilla/5.0 (Macintosh; Intel Mac OS X 10.14; rv:81.0) Gecko/20100101 Firefox/81.0",4,"[0.9, 0.5, 0.1]","[0.8, 0.4, 0.2]","[u'black', u'blue', u'red']","[u'left', u'middle', u'right']","[0.9, 0.5, 0.1]","[u'high', u'low', u'medium']","black",49,"left","high","True","False",415,400,NA
"A19UBZFVUWL1ES","Mon Oct 26 2020 15:19:54 GMT-0400 (Eastern Daylight Time)","Mon Oct 26 2020 15:26:41 GMT-0400 (Eastern Daylight Time)","Mozilla/5.0 (Macintosh; Intel Mac OS X 10.14; rv:81.0) Gecko/20100101 Firefox/81.0",5,"[0.9, 0.5, 0.1]","[0.8, 0.4, 0.2]","[u'black', u'blue', u'red']","[u'left', u'middle', u'right']","[0.9, 0.5, 0.1]","[u'high', u'low', u'medium']","black",49,"left","high","False","False",338,350,NA
"A19UBZFVUWL1ES","Mon Oct 26 2020 15:19:54 GMT-0400 (Eastern Daylight Time)","Mon Oct 26 2020 15:26:41 GMT-0400 (Eastern Daylight Time)","Mozilla/5.0 (Macintosh; Intel Mac OS X 10.14; rv:81.0) Gecko/20100101 Firefox/81.0",6,"[0.9, 0.5, 0.1]","[0.8, 0.4, 0.2]","[u'black', u'blue', u'red']","[u'left', u'middle', u'right']","[0.9, 0.5, 0.1]","[u'high', u'low', u'medium']","black",49,"left","high","True","False",315,450,NA
"A19UBZFVUWL1ES","Mon Oct 26 2020 15:19:54 GMT-0400 (Eastern Daylight Time)","Mon Oct 26 2020 15:26:41 GMT-0400 (Eastern Daylight Time)","Mozilla/5.0 (Macintosh; Intel Mac OS X 10.14; rv:81.0) Gecko/20100101 Firefox/81.0",7,"[0.9, 0.5, 0.1]","[0.8, 0.4, 0.2]","[u'black', u'blue', u'red']","[u'left', u'middle', u'right']","[0.9, 0.5, 0.1]","[u'high', u'low', u'medium']","black",49,"left","high","True","False",28,550,NA
"A19UBZFVUWL1ES","Mon Oct 26 2020 15:19:54 GMT-0400 (Eastern Daylight Time)","Mon Oct 26 2020 15:26:41 GMT-0400 (Eastern Daylight Time)","Mozilla/5.0 (Macintosh; Intel Mac OS X 10.14; rv:81.0) Gecko/20100101 Firefox/81.0",8,"[0.9, 0.5, 0.1]","[0.8, 0.4, 0.2]","[u'black', u'blue', u'red']","[u'left', u'middle', u'right']","[0.9, 0.5, 0.1]","[u'high', u'low', u'medium']","black",49,"left","high","True","False",115,650,NA
"A19UBZFVUWL1ES","Mon Oct 26 2020 15:19:54 GMT-0400 (Eastern Daylight Time)","Mon Oct 26 2020 15:26:41 GMT-0400 (Eastern Daylight Time)","Mozilla/5.0 (Macintosh; Intel Mac OS X 10.14; rv:81.0) Gecko/20100101 Firefox/81.0",9,"[0.9, 0.5, 0.1]","[0.8, 0.4, 0.2]","[u'black', u'blue', u'red']","[u'left', u'middle', u'right']","[0.9, 0.5, 0.1]","[u'high', u'low', u'medium']","black",49,"left","high","True","True",30,750,NA
"A19UBZFVUWL1ES","Mon Oct 26 2020 15:19:54 GMT-0400 (Eastern Daylight Time)","Mon Oct 26 2020 15:26:41 GMT-0400 (Eastern Daylight Time)","Mozilla/5.0 (Macintosh; Intel Mac OS X 10.14; rv:81.0) Gecko/20100101 Firefox/81.0",10,"[0.9, 0.5, 0.1]","[0.8, 0.4, 0.2]","[u'black', u'blue', u'red']","[u'left', u'middle', u'right']","[0.9, 0.5, 0.1]","[u'low', u'medium', u'high']","black",49,"left","low","False","False",7,700,NA
"A19UBZFVUWL1ES","Mon Oct 26 2020 15:19:54 GMT-0400 (Eastern Daylight Time)","Mon Oct 26 2020 15:26:41 GMT-0400 (Eastern Daylight Time)","Mozilla/5.0 (Macintosh; Intel Mac OS X 10.14; rv:81.0) Gecko/20100101 Firefox/81.0",11,"[0.9, 0.5, 0.1]","[0.8, 0.4, 0.2]","[u'black', u'blue', u'red']","[u'left', u'middle', u'right']","[0.9, 0.5, 0.1]","[u'low', u'medium', u'high']","black",49,"left","low","False","False",344,650,NA
"A19UBZFVUWL1ES","Mon Oct 26 2020 15:19:54 GMT-0400 (Eastern Daylight Time)","Mon Oct 26 2020 15:26:41 GMT-0400 (Eastern Daylight Time)","Mozilla/5.0 (Macintosh; Intel Mac OS X 10.14; rv:81.0) Gecko/20100101 Firefox/81.0",12,"[0.9, 0.5, 0.1]","[0.8, 0.4, 0.2]","[u'black', u'blue', u'red']","[u'left', u'middle', u'right']","[0.9, 0.5, 0.1]","[u'low', u'medium', u'high']","black",49,"left","low","False","False",675,600,NA
"A19UBZFVUWL1ES","Mon Oct 26 2020 15:19:54 GMT-0400 (Eastern Daylight Time)","Mon Oct 26 2020 15:26:41 GMT-0400 (Eastern Daylight Time)","Mozilla/5.0 (Macintosh; Intel Mac OS X 10.14; rv:81.0) Gecko/20100101 Firefox/81.0",13,"[0.9, 0.5, 0.1]","[0.8, 0.4, 0.2]","[u'black', u'blue', u'red']","[u'left', u'middle', u'right']","[0.9, 0.5, 0.1]","[u'low', u'medium', u'high']","blue",50,"middle","medium","False","False",541,550,NA
"A19UBZFVUWL1ES","Mon Oct 26 2020 15:19:54 GMT-0400 (Eastern Daylight Time)","Mon Oct 26 2020 15:26:41 GMT-0400 (Eastern Daylight Time)","Mozilla/5.0 (Macintosh; Intel Mac OS X 10.14; rv:81.0) Gecko/20100101 Firefox/81.0",14,"[0.9, 0.5, 0.1]","[0.8, 0.4, 0.2]","[u'black', u'blue', u'red']","[u'left', u'middle', u'right']","[0.9, 0.5, 0.1]","[u'low', u'medium', u'high']","blue",50,"middle","medium","False","False",584,500,NA
"A19UBZFVUWL1ES","Mon Oct 26 2020 15:19:54 GMT-0400 (Eastern Daylight Time)","Mon Oct 26 2020 15:26:41 GMT-0400 (Eastern Daylight Time)","Mozilla/5.0 (Macintosh; Intel Mac OS X 10.14; rv:81.0) Gecko/20100101 Firefox/81.0",15,"[0.9, 0.5, 0.1]","[0.8, 0.4, 0.2]","[u'black', u'blue', u'red']","[u'left', u'middle', u'right']","[0.9, 0.5, 0.1]","[u'low', u'medium', u'high']","blue",50,"middle","medium","False","False",390,450,NA
"A19UBZFVUWL1ES","Mon Oct 26 2020 15:19:54 GMT-0400 (Eastern Daylight Time)","Mon Oct 26 2020 15:26:41 GMT-0400 (Eastern Daylight Time)","Mozilla/5.0 (Macintosh; Intel Mac OS X 10.14; rv:81.0) Gecko/20100101 Firefox/81.0",16,"[0.9, 0.5, 0.1]","[0.8, 0.4, 0.2]","[u'black', u'blue', u'red']","[u'left', u'middle', u'right']","[0.9, 0.5, 0.1]","[u'low', u'medium', u'high']","red",51,"right","high","True","False",263,550,NA
"A19UBZFVUWL1ES","Mon Oct 26 2020 15:19:54 GMT-0400 (Eastern Daylight Time)","Mon Oct 26 2020 15:26:41 GMT-0400 (Eastern Daylight Time)","Mozilla/5.0 (Macintosh; Intel Mac OS X 10.14; rv:81.0) Gecko/20100101 Firefox/81.0",17,"[0.9, 0.5, 0.1]","[0.8, 0.4, 0.2]","[u'black', u'blue', u'red']","[u'left', u'middle', u'right']","[0.9, 0.5, 0.1]","[u'low', u'medium', u'high']","red",51,"right","high","True","False",329,650,NA
"A19UBZFVUWL1ES","Mon Oct 26 2020 15:19:54 GMT-0400 (Eastern Daylight Time)","Mon Oct 26 2020 15:26:41 GMT-0400 (Eastern Daylight Time)","Mozilla/5.0 (Macintosh; Intel Mac OS X 10.14; rv:81.0) Gecko/20100101 Firefox/81.0",18,"[0.9, 0.5, 0.1]","[0.8, 0.4, 0.2]","[u'black', u'blue', u'red']","[u'left', u'middle', u'right']","[0.9, 0.5, 0.1]","[u'low', u'medium', u'high']","red",51,"right","high","False","False",375,600,NA
"A19UBZFVUWL1ES","Mon Oct 26 2020 15:19:54 GMT-0400 (Eastern Daylight Time)","Mon Oct 26 2020 15:26:41 GMT-0400 (Eastern Daylight Time)","Mozilla/5.0 (Macintosh; Intel Mac OS X 10.14; rv:81.0) Gecko/20100101 Firefox/81.0",19,"[0.9, 0.5, 0.1]","[0.8, 0.4, 0.2]","[u'black', u'blue', u'red']","[u'left', u'middle', u'right']","[0.9, 0.5, 0.1]","[u'low', u'medium', u'high']","red",51,"right","high","True","False",568,700,NA
"A19UBZFVUWL1ES","Mon Oct 26 2020 15:19:54 GMT-0400 (Eastern Daylight Time)","Mon Oct 26 2020 15:26:41 GMT-0400 (Eastern Daylight Time)","Mozilla/5.0 (Macintosh; Intel Mac OS X 10.14; rv:81.0) Gecko/20100101 Firefox/81.0",20,"[0.9, 0.5, 0.1]","[0.8, 0.4, 0.2]","[u'black', u'blue', u'red']","[u'left', u'middle', u'right']","[0.9, 0.5, 0.1]","[u'low', u'medium', u'high']","red",51,"right","high","True","False",362,800,NA
"A19UBZFVUWL1ES","Mon Oct 26 2020 15:19:54 GMT-0400 (Eastern Daylight Time)","Mon Oct 26 2020 15:26:41 GMT-0400 (Eastern Daylight Time)","Mozilla/5.0 (Macintosh; Intel Mac OS X 10.14; rv:81.0) Gecko/20100101 Firefox/81.0",21,"[0.9, 0.5, 0.1]","[0.8, 0.4, 0.2]","[u'black', u'blue', u'red']","[u'left', u'middle', u'right']","[0.9, 0.5, 0.1]","[u'low', u'medium', u'high']","red",51,"right","high","True","False",300,900,NA
"A19UBZFVUWL1ES","Mon Oct 26 2020 15:19:54 GMT-0400 (Eastern Daylight Time)","Mon Oct 26 2020 15:26:41 GMT-0400 (Eastern Daylight Time)","Mozilla/5.0 (Macintosh; Intel Mac OS X 10.14; rv:81.0) Gecko/20100101 Firefox/81.0",22,"[0.9, 0.5, 0.1]","[0.8, 0.4, 0.2]","[u'black', u'blue', u'red']","[u'left', u'middle', u'right']","[0.9, 0.5, 0.1]","[u'low', u'medium', u'high']","red",51,"right","high","True","False",285,1000,NA
"A19UBZFVUWL1ES","Mon Oct 26 2020 15:19:54 GMT-0400 (Eastern Daylight Time)","Mon Oct 26 2020 15:26:41 GMT-0400 (Eastern Daylight Time)","Mozilla/5.0 (Macintosh; Intel Mac OS X 10.14; rv:81.0) Gecko/20100101 Firefox/81.0",23,"[0.9, 0.5, 0.1]","[0.8, 0.4, 0.2]","[u'black', u'blue', u'red']","[u'left', u'middle', u'right']","[0.9, 0.5, 0.1]","[u'low', u'medium', u'high']","red",51,"right","high","True","False",427,1100,NA
"A19UBZFVUWL1ES","Mon Oct 26 2020 15:19:54 GMT-0400 (Eastern Daylight Time)","Mon Oct 26 2020 15:26:41 GMT-0400 (Eastern Daylight Time)","Mozilla/5.0 (Macintosh; Intel Mac OS X 10.14; rv:81.0) Gecko/20100101 Firefox/81.0",24,"[0.9, 0.5, 0.1]","[0.8, 0.4, 0.2]","[u'black', u'blue', u'red']","[u'left', u'middle', u'right']","[0.9, 0.5, 0.1]","[u'low', u'medium', u'high']","red",51,"right","high","True","True",494,1200,NA
"A19UBZFVUWL1ES","Mon Oct 26 2020 15:19:54 GMT-0400 (Eastern Daylight Time)","Mon Oct 26 2020 15:26:41 GMT-0400 (Eastern Daylight Time)","Mozilla/5.0 (Macintosh; Intel Mac OS X 10.14; rv:81.0) Gecko/20100101 Firefox/81.0",25,"[0.9, 0.5, 0.1]","[0.8, 0.4, 0.2]","[u'black', u'blue', u'red']","[u'left', u'middle', u'right']","[0.9, 0.5, 0.1]","[u'high', u'low', u'medium']","red",51,"right","medium","True","False",347,1300,NA
"A19UBZFVUWL1ES","Mon Oct 26 2020 15:19:54 GMT-0400 (Eastern Daylight Time)","Mon Oct 26 2020 15:26:41 GMT-0400 (Eastern Daylight Time)","Mozilla/5.0 (Macintosh; Intel Mac OS X 10.14; rv:81.0) Gecko/20100101 Firefox/81.0",26,"[0.9, 0.5, 0.1]","[0.8, 0.4, 0.2]","[u'black', u'blue', u'red']","[u'left', u'middle', u'right']","[0.9, 0.5, 0.1]","[u'high', u'low', u'medium']","red",51,"right","medium","True","False",338,1400,NA
"A19UBZFVUWL1ES","Mon Oct 26 2020 15:19:54 GMT-0400 (Eastern Daylight Time)","Mon Oct 26 2020 15:26:41 GMT-0400 (Eastern Daylight Time)","Mozilla/5.0 (Macintosh; Intel Mac OS X 10.14; rv:81.0) Gecko/20100101 Firefox/81.0",27,"[0.9, 0.5, 0.1]","[0.8, 0.4, 0.2]","[u'black', u'blue', u'red']","[u'left', u'middle', u'right']","[0.9, 0.5, 0.1]","[u'high', u'low', u'medium']","red",51,"right","medium","False","False",402,1350,NA
"A19UBZFVUWL1ES","Mon Oct 26 2020 15:19:54 GMT-0400 (Eastern Daylight Time)","Mon Oct 26 2020 15:26:41 GMT-0400 (Eastern Daylight Time)","Mozilla/5.0 (Macintosh; Intel Mac OS X 10.14; rv:81.0) Gecko/20100101 Firefox/81.0",28,"[0.9, 0.5, 0.1]","[0.8, 0.4, 0.2]","[u'black', u'blue', u'red']","[u'left', u'middle', u'right']","[0.9, 0.5, 0.1]","[u'high', u'low', u'medium']","black",49,"left","high","False","False",411,1300,NA
"A19UBZFVUWL1ES","Mon Oct 26 2020 15:19:54 GMT-0400 (Eastern Daylight Time)","Mon Oct 26 2020 15:26:41 GMT-0400 (Eastern Daylight Time)","Mozilla/5.0 (Macintosh; Intel Mac OS X 10.14; rv:81.0) Gecko/20100101 Firefox/81.0",29,"[0.9, 0.5, 0.1]","[0.8, 0.4, 0.2]","[u'black', u'blue', u'red']","[u'left', u'middle', u'right']","[0.9, 0.5, 0.1]","[u'high', u'low', u'medium']","red",51,"right","medium","False","False",300,1250,NA
"A19UBZFVUWL1ES","Mon Oct 26 2020 15:19:54 GMT-0400 (Eastern Daylight Time)","Mon Oct 26 2020 15:26:41 GMT-0400 (Eastern Daylight Time)","Mozilla/5.0 (Macintosh; Intel Mac OS X 10.14; rv:81.0) Gecko/20100101 Firefox/81.0",30,"[0.9, 0.5, 0.1]","[0.8, 0.4, 0.2]","[u'black', u'blue', u'red']","[u'left', u'middle', u'right']","[0.9, 0.5, 0.1]","[u'high', u'low', u'medium']","blue",50,"middle","low","False","False",34,1200,NA
"A19UBZFVUWL1ES","Mon Oct 26 2020 15:19:54 GMT-0400 (Eastern Daylight Time)","Mon Oct 26 2020 15:26:41 GMT-0400 (Eastern Daylight Time)","Mozilla/5.0 (Macintosh; Intel Mac OS X 10.14; rv:81.0) Gecko/20100101 Firefox/81.0",31,"[0.9, 0.5, 0.1]","[0.8, 0.4, 0.2]","[u'black', u'blue', u'red']","[u'left', u'middle', u'right']","[0.9, 0.5, 0.1]","[u'high', u'low', u'medium']","blue",50,"middle","low","True","False",368,1300,NA
"A19UBZFVUWL1ES","Mon Oct 26 2020 15:19:54 GMT-0400 (Eastern Daylight Time)","Mon Oct 26 2020 15:26:41 GMT-0400 (Eastern Daylight Time)","Mozilla/5.0 (Macintosh; Intel Mac OS X 10.14; rv:81.0) Gecko/20100101 Firefox/81.0",32,"[0.9, 0.5, 0.1]","[0.8, 0.4, 0.2]","[u'black', u'blue', u'red']","[u'left', u'middle', u'right']","[0.9, 0.5, 0.1]","[u'high', u'low', u'medium']","blue",50,"middle","low","False","False",1,1250,NA
"A19UBZFVUWL1ES","Mon Oct 26 2020 15:19:54 GMT-0400 (Eastern Daylight Time)","Mon Oct 26 2020 15:26:41 GMT-0400 (Eastern Daylight Time)","Mozilla/5.0 (Macintosh; Intel Mac OS X 10.14; rv:81.0) Gecko/20100101 Firefox/81.0",33,"[0.9, 0.5, 0.1]","[0.8, 0.4, 0.2]","[u'black', u'blue', u'red']","[u'left', u'middle', u'right']","[0.9, 0.5, 0.1]","[u'high', u'low', u'medium']","blue",50,"middle","low","False","False",343,1200,NA
"A19UBZFVUWL1ES","Mon Oct 26 2020 15:19:54 GMT-0400 (Eastern Daylight Time)","Mon Oct 26 2020 15:26:41 GMT-0400 (Eastern Daylight Time)","Mozilla/5.0 (Macintosh; Intel Mac OS X 10.14; rv:81.0) Gecko/20100101 Firefox/81.0",34,"[0.9, 0.5, 0.1]","[0.8, 0.4, 0.2]","[u'black', u'blue', u'red']","[u'left', u'middle', u'right']","[0.9, 0.5, 0.1]","[u'high', u'low', u'medium']","black",49,"left","high","True","False",385,1300,NA
"A19UBZFVUWL1ES","Mon Oct 26 2020 15:19:54 GMT-0400 (Eastern Daylight Time)","Mon Oct 26 2020 15:26:41 GMT-0400 (Eastern Daylight Time)","Mozilla/5.0 (Macintosh; Intel Mac OS X 10.14; rv:81.0) Gecko/20100101 Firefox/81.0",35,"[0.9, 0.5, 0.1]","[0.8, 0.4, 0.2]","[u'black', u'blue', u'red']","[u'left', u'middle', u'right']","[0.9, 0.5, 0.1]","[u'high', u'low', u'medium']","black",49,"left","high","True","False",473,1400,NA
"A19UBZFVUWL1ES","Mon Oct 26 2020 15:19:54 GMT-0400 (Eastern Daylight Time)","Mon Oct 26 2020 15:26:41 GMT-0400 (Eastern Daylight Time)","Mozilla/5.0 (Macintosh; Intel Mac OS X 10.14; rv:81.0) Gecko/20100101 Firefox/81.0",36,"[0.9, 0.5, 0.1]","[0.8, 0.4, 0.2]","[u'black', u'blue', u'red']","[u'left', u'middle', u'right']","[0.9, 0.5, 0.1]","[u'high', u'low', u'medium']","black",49,"left","high","True","False",397,1500,NA
"A19UBZFVUWL1ES","Mon Oct 26 2020 15:19:54 GMT-0400 (Eastern Daylight Time)","Mon Oct 26 2020 15:26:41 GMT-0400 (Eastern Daylight Time)","Mozilla/5.0 (Macintosh; Intel Mac OS X 10.14; rv:81.0) Gecko/20100101 Firefox/81.0",37,"[0.9, 0.5, 0.1]","[0.8, 0.4, 0.2]","[u'black', u'blue', u'red']","[u'left', u'middle', u'right']","[0.9, 0.5, 0.1]","[u'high', u'low', u'medium']","black",49,"left","high","True","False",434,1600,NA
"A19UBZFVUWL1ES","Mon Oct 26 2020 15:19:54 GMT-0400 (Eastern Daylight Time)","Mon Oct 26 2020 15:26:41 GMT-0400 (Eastern Daylight Time)","Mozilla/5.0 (Macintosh; Intel Mac OS X 10.14; rv:81.0) Gecko/20100101 Firefox/81.0",38,"[0.9, 0.5, 0.1]","[0.8, 0.4, 0.2]","[u'black', u'blue', u'red']","[u'left', u'middle', u'right']","[0.9, 0.5, 0.1]","[u'high', u'low', u'medium']","black",49,"left","high","True","False",375,1700,NA
"A19UBZFVUWL1ES","Mon Oct 26 2020 15:19:54 GMT-0400 (Eastern Daylight Time)","Mon Oct 26 2020 15:26:41 GMT-0400 (Eastern Daylight Time)","Mozilla/5.0 (Macintosh; Intel Mac OS X 10.14; rv:81.0) Gecko/20100101 Firefox/81.0",39,"[0.9, 0.5, 0.1]","[0.8, 0.4, 0.2]","[u'black', u'blue', u'red']","[u'left', u'middle', u'right']","[0.9, 0.5, 0.1]","[u'high', u'low', u'medium']","black",49,"left","high","True","False",426,1800,NA
"A19UBZFVUWL1ES","Mon Oct 26 2020 15:19:54 GMT-0400 (Eastern Daylight Time)","Mon Oct 26 2020 15:26:41 GMT-0400 (Eastern Daylight Time)","Mozilla/5.0 (Macintosh; Intel Mac OS X 10.14; rv:81.0) Gecko/20100101 Firefox/81.0",40,"[0.9, 0.5, 0.1]","[0.8, 0.4, 0.2]","[u'black', u'blue', u'red']","[u'left', u'middle', u'right']","[0.9, 0.5, 0.1]","[u'high', u'low', u'medium']","black",49,"left","high","True","False",428,1900,NA
"A19UBZFVUWL1ES","Mon Oct 26 2020 15:19:54 GMT-0400 (Eastern Daylight Time)","Mon Oct 26 2020 15:26:41 GMT-0400 (Eastern Daylight Time)","Mozilla/5.0 (Macintosh; Intel Mac OS X 10.14; rv:81.0) Gecko/20100101 Firefox/81.0",41,"[0.9, 0.5, 0.1]","[0.8, 0.4, 0.2]","[u'black', u'blue', u'red']","[u'left', u'middle', u'right']","[0.9, 0.5, 0.1]","[u'low', u'medium', u'high']","black",49,"left","low","True","False",481,2000,NA
"A19UBZFVUWL1ES","Mon Oct 26 2020 15:19:54 GMT-0400 (Eastern Daylight Time)","Mon Oct 26 2020 15:26:41 GMT-0400 (Eastern Daylight Time)","Mozilla/5.0 (Macintosh; Intel Mac OS X 10.14; rv:81.0) Gecko/20100101 Firefox/81.0",42,"[0.9, 0.5, 0.1]","[0.8, 0.4, 0.2]","[u'black', u'blue', u'red']","[u'left', u'middle', u'right']","[0.9, 0.5, 0.1]","[u'low', u'medium', u'high']","black",49,"left","low","False","False",398,1950,NA
"A19UBZFVUWL1ES","Mon Oct 26 2020 15:19:54 GMT-0400 (Eastern Daylight Time)","Mon Oct 26 2020 15:26:41 GMT-0400 (Eastern Daylight Time)","Mozilla/5.0 (Macintosh; Intel Mac OS X 10.14; rv:81.0) Gecko/20100101 Firefox/81.0",43,"[0.9, 0.5, 0.1]","[0.8, 0.4, 0.2]","[u'black', u'blue', u'red']","[u'left', u'middle', u'right']","[0.9, 0.5, 0.1]","[u'low', u'medium', u'high']","black",49,"left","low","False","False",412,1900,NA
"A19UBZFVUWL1ES","Mon Oct 26 2020 15:19:54 GMT-0400 (Eastern Daylight Time)","Mon Oct 26 2020 15:26:41 GMT-0400 (Eastern Daylight Time)","Mozilla/5.0 (Macintosh; Intel Mac OS X 10.14; rv:81.0) Gecko/20100101 Firefox/81.0",44,"[0.9, 0.5, 0.1]","[0.8, 0.4, 0.2]","[u'black', u'blue', u'red']","[u'left', u'middle', u'right']","[0.9, 0.5, 0.1]","[u'low', u'medium', u'high']","red",51,"right","high","True","False",3,2000,NA
"A19UBZFVUWL1ES","Mon Oct 26 2020 15:19:54 GMT-0400 (Eastern Daylight Time)","Mon Oct 26 2020 15:26:41 GMT-0400 (Eastern Daylight Time)","Mozilla/5.0 (Macintosh; Intel Mac OS X 10.14; rv:81.0) Gecko/20100101 Firefox/81.0",45,"[0.9, 0.5, 0.1]","[0.8, 0.4, 0.2]","[u'black', u'blue', u'red']","[u'left', u'middle', u'right']","[0.9, 0.5, 0.1]","[u'low', u'medium', u'high']","red",51,"right","high","True","False",402,2100,NA
"A19UBZFVUWL1ES","Mon Oct 26 2020 15:19:54 GMT-0400 (Eastern Daylight Time)","Mon Oct 26 2020 15:26:41 GMT-0400 (Eastern Daylight Time)","Mozilla/5.0 (Macintosh; Intel Mac OS X 10.14; rv:81.0) Gecko/20100101 Firefox/81.0",46,"[0.9, 0.5, 0.1]","[0.8, 0.4, 0.2]","[u'black', u'blue', u'red']","[u'left', u'middle', u'right']","[0.9, 0.5, 0.1]","[u'low', u'medium', u'high']","red",51,"right","high","True","False",355,2200,NA
"A19UBZFVUWL1ES","Mon Oct 26 2020 15:19:54 GMT-0400 (Eastern Daylight Time)","Mon Oct 26 2020 15:26:41 GMT-0400 (Eastern Daylight Time)","Mozilla/5.0 (Macintosh; Intel Mac OS X 10.14; rv:81.0) Gecko/20100101 Firefox/81.0",47,"[0.9, 0.5, 0.1]","[0.8, 0.4, 0.2]","[u'black', u'blue', u'red']","[u'left', u'middle', u'right']","[0.9, 0.5, 0.1]","[u'low', u'medium', u'high']","red",51,"right","high","True","False",480,2300,NA
"A19UBZFVUWL1ES","Mon Oct 26 2020 15:19:54 GMT-0400 (Eastern Daylight Time)","Mon Oct 26 2020 15:26:41 GMT-0400 (Eastern Daylight Time)","Mozilla/5.0 (Macintosh; Intel Mac OS X 10.14; rv:81.0) Gecko/20100101 Firefox/81.0",48,"[0.9, 0.5, 0.1]","[0.8, 0.4, 0.2]","[u'black', u'blue', u'red']","[u'left', u'middle', u'right']","[0.9, 0.5, 0.1]","[u'low', u'medium', u'high']","red",51,"right","high","True","False",422,2400,NA
"A19UBZFVUWL1ES","Mon Oct 26 2020 15:19:54 GMT-0400 (Eastern Daylight Time)","Mon Oct 26 2020 15:26:41 GMT-0400 (Eastern Daylight Time)","Mozilla/5.0 (Macintosh; Intel Mac OS X 10.14; rv:81.0) Gecko/20100101 Firefox/81.0",49,"[0.9, 0.5, 0.1]","[0.8, 0.4, 0.2]","[u'black', u'blue', u'red']","[u'left', u'middle', u'right']","[0.9, 0.5, 0.1]","[u'low', u'medium', u'high']","red",51,"right","high","True","False",304,2500,NA
"A19UBZFVUWL1ES","Mon Oct 26 2020 15:19:54 GMT-0400 (Eastern Daylight Time)","Mon Oct 26 2020 15:26:41 GMT-0400 (Eastern Daylight Time)","Mozilla/5.0 (Macintosh; Intel Mac OS X 10.14; rv:81.0) Gecko/20100101 Firefox/81.0",50,"[0.9, 0.5, 0.1]","[0.8, 0.4, 0.2]","[u'black', u'blue', u'red']","[u'left', u'middle', u'right']","[0.9, 0.5, 0.1]","[u'low', u'medium', u'high']","red",51,"right","high","True","False",391,2600,NA
"A19UBZFVUWL1ES","Mon Oct 26 2020 15:19:54 GMT-0400 (Eastern Daylight Time)","Mon Oct 26 2020 15:26:41 GMT-0400 (Eastern Daylight Time)","Mozilla/5.0 (Macintosh; Intel Mac OS X 10.14; rv:81.0) Gecko/20100101 Firefox/81.0",51,"[0.9, 0.5, 0.1]","[0.8, 0.4, 0.2]","[u'black', u'blue', u'red']","[u'left', u'middle', u'right']","[0.9, 0.5, 0.1]","[u'low', u'medium', u'high']","red",51,"right","high","True","False",363,2700,NA
"A19UBZFVUWL1ES","Mon Oct 26 2020 15:19:54 GMT-0400 (Eastern Daylight Time)","Mon Oct 26 2020 15:26:41 GMT-0400 (Eastern Daylight Time)","Mozilla/5.0 (Macintosh; Intel Mac OS X 10.14; rv:81.0) Gecko/20100101 Firefox/81.0",52,"[0.9, 0.5, 0.1]","[0.8, 0.4, 0.2]","[u'black', u'blue', u'red']","[u'left', u'middle', u'right']","[0.9, 0.5, 0.1]","[u'low', u'medium', u'high']","red",51,"right","high","False","True",385,2650,NA
"A19UBZFVUWL1ES","Mon Oct 26 2020 15:19:54 GMT-0400 (Eastern Daylight Time)","Mon Oct 26 2020 15:26:41 GMT-0400 (Eastern Daylight Time)","Mozilla/5.0 (Macintosh; Intel Mac OS X 10.14; rv:81.0) Gecko/20100101 Firefox/81.0",53,"[0.9, 0.5, 0.1]","[0.8, 0.4, 0.2]","[u'black', u'blue', u'red']","[u'left', u'middle', u'right']","[0.9, 0.5, 0.1]","[u'low', u'high', u'medium']","red",51,"right","medium","True","False",281,2750,NA
"A19UBZFVUWL1ES","Mon Oct 26 2020 15:19:54 GMT-0400 (Eastern Daylight Time)","Mon Oct 26 2020 15:26:41 GMT-0400 (Eastern Daylight Time)","Mozilla/5.0 (Macintosh; Intel Mac OS X 10.14; rv:81.0) Gecko/20100101 Firefox/81.0",54,"[0.9, 0.5, 0.1]","[0.8, 0.4, 0.2]","[u'black', u'blue', u'red']","[u'left', u'middle', u'right']","[0.9, 0.5, 0.1]","[u'low', u'high', u'medium']","red",51,"right","medium","True","False",336,2850,NA
"A19UBZFVUWL1ES","Mon Oct 26 2020 15:19:54 GMT-0400 (Eastern Daylight Time)","Mon Oct 26 2020 15:26:41 GMT-0400 (Eastern Daylight Time)","Mozilla/5.0 (Macintosh; Intel Mac OS X 10.14; rv:81.0) Gecko/20100101 Firefox/81.0",55,"[0.9, 0.5, 0.1]","[0.8, 0.4, 0.2]","[u'black', u'blue', u'red']","[u'left', u'middle', u'right']","[0.9, 0.5, 0.1]","[u'low', u'high', u'medium']","red",51,"right","medium","True","False",289,2950,NA
"A19UBZFVUWL1ES","Mon Oct 26 2020 15:19:54 GMT-0400 (Eastern Daylight Time)","Mon Oct 26 2020 15:26:41 GMT-0400 (Eastern Daylight Time)","Mozilla/5.0 (Macintosh; Intel Mac OS X 10.14; rv:81.0) Gecko/20100101 Firefox/81.0",56,"[0.9, 0.5, 0.1]","[0.8, 0.4, 0.2]","[u'black', u'blue', u'red']","[u'left', u'middle', u'right']","[0.9, 0.5, 0.1]","[u'low', u'high', u'medium']","red",51,"right","medium","False","False",315,2900,NA
"A19UBZFVUWL1ES","Mon Oct 26 2020 15:19:54 GMT-0400 (Eastern Daylight Time)","Mon Oct 26 2020 15:26:41 GMT-0400 (Eastern Daylight Time)","Mozilla/5.0 (Macintosh; Intel Mac OS X 10.14; rv:81.0) Gecko/20100101 Firefox/81.0",57,"[0.9, 0.5, 0.1]","[0.8, 0.4, 0.2]","[u'black', u'blue', u'red']","[u'left', u'middle', u'right']","[0.9, 0.5, 0.1]","[u'low', u'high', u'medium']","red",51,"right","medium","False","False",67,2850,NA
"A19UBZFVUWL1ES","Mon Oct 26 2020 15:19:54 GMT-0400 (Eastern Daylight Time)","Mon Oct 26 2020 15:26:41 GMT-0400 (Eastern Daylight Time)","Mozilla/5.0 (Macintosh; Intel Mac OS X 10.14; rv:81.0) Gecko/20100101 Firefox/81.0",58,"[0.9, 0.5, 0.1]","[0.8, 0.4, 0.2]","[u'black', u'blue', u'red']","[u'left', u'middle', u'right']","[0.9, 0.5, 0.1]","[u'low', u'high', u'medium']","black",49,"left","low","False","False",243,2800,NA
"A19UBZFVUWL1ES","Mon Oct 26 2020 15:19:54 GMT-0400 (Eastern Daylight Time)","Mon Oct 26 2020 15:26:41 GMT-0400 (Eastern Daylight Time)","Mozilla/5.0 (Macintosh; Intel Mac OS X 10.14; rv:81.0) Gecko/20100101 Firefox/81.0",59,"[0.9, 0.5, 0.1]","[0.8, 0.4, 0.2]","[u'black', u'blue', u'red']","[u'left', u'middle', u'right']","[0.9, 0.5, 0.1]","[u'low', u'high', u'medium']","blue",50,"middle","high","True","False",243,2900,NA
"A19UBZFVUWL1ES","Mon Oct 26 2020 15:19:54 GMT-0400 (Eastern Daylight Time)","Mon Oct 26 2020 15:26:41 GMT-0400 (Eastern Daylight Time)","Mozilla/5.0 (Macintosh; Intel Mac OS X 10.14; rv:81.0) Gecko/20100101 Firefox/81.0",60,"[0.9, 0.5, 0.1]","[0.8, 0.4, 0.2]","[u'black', u'blue', u'red']","[u'left', u'middle', u'right']","[0.9, 0.5, 0.1]","[u'low', u'high', u'medium']","blue",50,"middle","high","True","False",322,3000,NA
"A19UBZFVUWL1ES","Mon Oct 26 2020 15:19:54 GMT-0400 (Eastern Daylight Time)","Mon Oct 26 2020 15:26:41 GMT-0400 (Eastern Daylight Time)","Mozilla/5.0 (Macintosh; Intel Mac OS X 10.14; rv:81.0) Gecko/20100101 Firefox/81.0",61,"[0.9, 0.5, 0.1]","[0.8, 0.4, 0.2]","[u'black', u'blue', u'red']","[u'left', u'middle', u'right']","[0.9, 0.5, 0.1]","[u'low', u'high', u'medium']","blue",50,"middle","high","True","False",387,3100,NA
"A19UBZFVUWL1ES","Mon Oct 26 2020 15:19:54 GMT-0400 (Eastern Daylight Time)","Mon Oct 26 2020 15:26:41 GMT-0400 (Eastern Daylight Time)","Mozilla/5.0 (Macintosh; Intel Mac OS X 10.14; rv:81.0) Gecko/20100101 Firefox/81.0",62,"[0.9, 0.5, 0.1]","[0.8, 0.4, 0.2]","[u'black', u'blue', u'red']","[u'left', u'middle', u'right']","[0.9, 0.5, 0.1]","[u'low', u'high', u'medium']","blue",50,"middle","high","False","False",474,3050,NA
"A19UBZFVUWL1ES","Mon Oct 26 2020 15:19:54 GMT-0400 (Eastern Daylight Time)","Mon Oct 26 2020 15:26:41 GMT-0400 (Eastern Daylight Time)","Mozilla/5.0 (Macintosh; Intel Mac OS X 10.14; rv:81.0) Gecko/20100101 Firefox/81.0",63,"[0.9, 0.5, 0.1]","[0.8, 0.4, 0.2]","[u'black', u'blue', u'red']","[u'left', u'middle', u'right']","[0.9, 0.5, 0.1]","[u'low', u'high', u'medium']","blue",50,"middle","high","True","False",408,3150,NA
"A19UBZFVUWL1ES","Mon Oct 26 2020 15:19:54 GMT-0400 (Eastern Daylight Time)","Mon Oct 26 2020 15:26:41 GMT-0400 (Eastern Daylight Time)","Mozilla/5.0 (Macintosh; Intel Mac OS X 10.14; rv:81.0) Gecko/20100101 Firefox/81.0",64,"[0.9, 0.5, 0.1]","[0.8, 0.4, 0.2]","[u'black', u'blue', u'red']","[u'left', u'middle', u'right']","[0.9, 0.5, 0.1]","[u'low', u'high', u'medium']","blue",50,"middle","high","True","False",326,3250,NA
"A19UBZFVUWL1ES","Mon Oct 26 2020 15:19:54 GMT-0400 (Eastern Daylight Time)","Mon Oct 26 2020 15:26:41 GMT-0400 (Eastern Daylight Time)","Mozilla/5.0 (Macintosh; Intel Mac OS X 10.14; rv:81.0) Gecko/20100101 Firefox/81.0",65,"[0.9, 0.5, 0.1]","[0.8, 0.4, 0.2]","[u'black', u'blue', u'red']","[u'left', u'middle', u'right']","[0.9, 0.5, 0.1]","[u'low', u'high', u'medium']","blue",50,"middle","high","True","False",460,3350,NA
"A19UBZFVUWL1ES","Mon Oct 26 2020 15:19:54 GMT-0400 (Eastern Daylight Time)","Mon Oct 26 2020 15:26:41 GMT-0400 (Eastern Daylight Time)","Mozilla/5.0 (Macintosh; Intel Mac OS X 10.14; rv:81.0) Gecko/20100101 Firefox/81.0",66,"[0.9, 0.5, 0.1]","[0.8, 0.4, 0.2]","[u'black', u'blue', u'red']","[u'left', u'middle', u'right']","[0.9, 0.5, 0.1]","[u'low', u'high', u'medium']","blue",50,"middle","high","True","False",341,3450,NA
"A19UBZFVUWL1ES","Mon Oct 26 2020 15:19:54 GMT-0400 (Eastern Daylight Time)","Mon Oct 26 2020 15:26:41 GMT-0400 (Eastern Daylight Time)","Mozilla/5.0 (Macintosh; Intel Mac OS X 10.14; rv:81.0) Gecko/20100101 Firefox/81.0",67,"[0.9, 0.5, 0.1]","[0.8, 0.4, 0.2]","[u'black', u'blue', u'red']","[u'left', u'middle', u'right']","[0.9, 0.5, 0.1]","[u'low', u'high', u'medium']","blue",50,"middle","high","False","True",409,3400,NA
"A19UBZFVUWL1ES","Mon Oct 26 2020 15:19:54 GMT-0400 (Eastern Daylight Time)","Mon Oct 26 2020 15:26:41 GMT-0400 (Eastern Daylight Time)","Mozilla/5.0 (Macintosh; Intel Mac OS X 10.14; rv:81.0) Gecko/20100101 Firefox/81.0",68,"[0.9, 0.5, 0.1]","[0.8, 0.4, 0.2]","[u'black', u'blue', u'red']","[u'left', u'middle', u'right']","[0.9, 0.5, 0.1]","[u'high', u'low', u'medium']","red",51,"right","medium","True","False",287,3500,NA
"A19UBZFVUWL1ES","Mon Oct 26 2020 15:19:54 GMT-0400 (Eastern Daylight Time)","Mon Oct 26 2020 15:26:41 GMT-0400 (Eastern Daylight Time)","Mozilla/5.0 (Macintosh; Intel Mac OS X 10.14; rv:81.0) Gecko/20100101 Firefox/81.0",69,"[0.9, 0.5, 0.1]","[0.8, 0.4, 0.2]","[u'black', u'blue', u'red']","[u'left', u'middle', u'right']","[0.9, 0.5, 0.1]","[u'high', u'low', u'medium']","red",51,"right","medium","True","False",346,3600,NA
"A19UBZFVUWL1ES","Mon Oct 26 2020 15:19:54 GMT-0400 (Eastern Daylight Time)","Mon Oct 26 2020 15:26:41 GMT-0400 (Eastern Daylight Time)","Mozilla/5.0 (Macintosh; Intel Mac OS X 10.14; rv:81.0) Gecko/20100101 Firefox/81.0",70,"[0.9, 0.5, 0.1]","[0.8, 0.4, 0.2]","[u'black', u'blue', u'red']","[u'left', u'middle', u'right']","[0.9, 0.5, 0.1]","[u'high', u'low', u'medium']","red",51,"right","medium","True","False",435,3700,NA
"A19UBZFVUWL1ES","Mon Oct 26 2020 15:19:54 GMT-0400 (Eastern Daylight Time)","Mon Oct 26 2020 15:26:41 GMT-0400 (Eastern Daylight Time)","Mozilla/5.0 (Macintosh; Intel Mac OS X 10.14; rv:81.0) Gecko/20100101 Firefox/81.0",71,"[0.9, 0.5, 0.1]","[0.8, 0.4, 0.2]","[u'black', u'blue', u'red']","[u'left', u'middle', u'right']","[0.9, 0.5, 0.1]","[u'high', u'low', u'medium']","red",51,"right","medium","True","False",365,3800,NA
"A19UBZFVUWL1ES","Mon Oct 26 2020 15:19:54 GMT-0400 (Eastern Daylight Time)","Mon Oct 26 2020 15:26:41 GMT-0400 (Eastern Daylight Time)","Mozilla/5.0 (Macintosh; Intel Mac OS X 10.14; rv:81.0) Gecko/20100101 Firefox/81.0",72,"[0.9, 0.5, 0.1]","[0.8, 0.4, 0.2]","[u'black', u'blue', u'red']","[u'left', u'middle', u'right']","[0.9, 0.5, 0.1]","[u'high', u'low', u'medium']","red",51,"right","medium","False","False",486,3750,NA
"A19UBZFVUWL1ES","Mon Oct 26 2020 15:19:54 GMT-0400 (Eastern Daylight Time)","Mon Oct 26 2020 15:26:41 GMT-0400 (Eastern Daylight Time)","Mozilla/5.0 (Macintosh; Intel Mac OS X 10.14; rv:81.0) Gecko/20100101 Firefox/81.0",73,"[0.9, 0.5, 0.1]","[0.8, 0.4, 0.2]","[u'black', u'blue', u'red']","[u'left', u'middle', u'right']","[0.9, 0.5, 0.1]","[u'high', u'low', u'medium']","red",51,"right","medium","True","False",148,3850,NA
"A19UBZFVUWL1ES","Mon Oct 26 2020 15:19:54 GMT-0400 (Eastern Daylight Time)","Mon Oct 26 2020 15:26:41 GMT-0400 (Eastern Daylight Time)","Mozilla/5.0 (Macintosh; Intel Mac OS X 10.14; rv:81.0) Gecko/20100101 Firefox/81.0",74,"[0.9, 0.5, 0.1]","[0.8, 0.4, 0.2]","[u'black', u'blue', u'red']","[u'left', u'middle', u'right']","[0.9, 0.5, 0.1]","[u'high', u'low', u'medium']","red",51,"right","medium","True","False",386,3950,NA
"A19UBZFVUWL1ES","Mon Oct 26 2020 15:19:54 GMT-0400 (Eastern Daylight Time)","Mon Oct 26 2020 15:26:41 GMT-0400 (Eastern Daylight Time)","Mozilla/5.0 (Macintosh; Intel Mac OS X 10.14; rv:81.0) Gecko/20100101 Firefox/81.0",75,"[0.9, 0.5, 0.1]","[0.8, 0.4, 0.2]","[u'black', u'blue', u'red']","[u'left', u'middle', u'right']","[0.9, 0.5, 0.1]","[u'high', u'low', u'medium']","red",51,"right","medium","False","False",392,3900,NA
"A19UBZFVUWL1ES","Mon Oct 26 2020 15:19:54 GMT-0400 (Eastern Daylight Time)","Mon Oct 26 2020 15:26:41 GMT-0400 (Eastern Daylight Time)","Mozilla/5.0 (Macintosh; Intel Mac OS X 10.14; rv:81.0) Gecko/20100101 Firefox/81.0",76,"[0.9, 0.5, 0.1]","[0.8, 0.4, 0.2]","[u'black', u'blue', u'red']","[u'left', u'middle', u'right']","[0.9, 0.5, 0.1]","[u'high', u'low', u'medium']","red",51,"right","medium","False","False",268,3850,NA
"A19UBZFVUWL1ES","Mon Oct 26 2020 15:19:54 GMT-0400 (Eastern Daylight Time)","Mon Oct 26 2020 15:26:41 GMT-0400 (Eastern Daylight Time)","Mozilla/5.0 (Macintosh; Intel Mac OS X 10.14; rv:81.0) Gecko/20100101 Firefox/81.0",77,"[0.9, 0.5, 0.1]","[0.8, 0.4, 0.2]","[u'black', u'blue', u'red']","[u'left', u'middle', u'right']","[0.9, 0.5, 0.1]","[u'high', u'low', u'medium']","black",49,"left","high","True","False",295,3950,NA
"A19UBZFVUWL1ES","Mon Oct 26 2020 15:19:54 GMT-0400 (Eastern Daylight Time)","Mon Oct 26 2020 15:26:41 GMT-0400 (Eastern Daylight Time)","Mozilla/5.0 (Macintosh; Intel Mac OS X 10.14; rv:81.0) Gecko/20100101 Firefox/81.0",78,"[0.9, 0.5, 0.1]","[0.8, 0.4, 0.2]","[u'black', u'blue', u'red']","[u'left', u'middle', u'right']","[0.9, 0.5, 0.1]","[u'high', u'low', u'medium']","black",49,"left","high","False","False",329,3900,NA
"A19UBZFVUWL1ES","Mon Oct 26 2020 15:19:54 GMT-0400 (Eastern Daylight Time)","Mon Oct 26 2020 15:26:41 GMT-0400 (Eastern Daylight Time)","Mozilla/5.0 (Macintosh; Intel Mac OS X 10.14; rv:81.0) Gecko/20100101 Firefox/81.0",79,"[0.9, 0.5, 0.1]","[0.8, 0.4, 0.2]","[u'black', u'blue', u'red']","[u'left', u'middle', u'right']","[0.9, 0.5, 0.1]","[u'high', u'low', u'medium']","black",49,"left","high","True","False",335,4000,NA
"A19UBZFVUWL1ES","Mon Oct 26 2020 15:19:54 GMT-0400 (Eastern Daylight Time)","Mon Oct 26 2020 15:26:41 GMT-0400 (Eastern Daylight Time)","Mozilla/5.0 (Macintosh; Intel Mac OS X 10.14; rv:81.0) Gecko/20100101 Firefox/81.0",80,"[0.9, 0.5, 0.1]","[0.8, 0.4, 0.2]","[u'black', u'blue', u'red']","[u'left', u'middle', u'right']","[0.9, 0.5, 0.1]","[u'high', u'low', u'medium']","black",49,"left","high","True","False",312,4100,NA
"A19UBZFVUWL1ES","Mon Oct 26 2020 15:19:54 GMT-0400 (Eastern Daylight Time)","Mon Oct 26 2020 15:26:41 GMT-0400 (Eastern Daylight Time)","Mozilla/5.0 (Macintosh; Intel Mac OS X 10.14; rv:81.0) Gecko/20100101 Firefox/81.0",81,"[0.9, 0.5, 0.1]","[0.8, 0.4, 0.2]","[u'black', u'blue', u'red']","[u'left', u'middle', u'right']","[0.8, 0.4, 0.2]","[u'medium', u'high', u'low']","black",49,"left","medium","False","False",673,4050,NA
"A19UBZFVUWL1ES","Mon Oct 26 2020 15:19:54 GMT-0400 (Eastern Daylight Time)","Mon Oct 26 2020 15:26:41 GMT-0400 (Eastern Daylight Time)","Mozilla/5.0 (Macintosh; Intel Mac OS X 10.14; rv:81.0) Gecko/20100101 Firefox/81.0",82,"[0.9, 0.5, 0.1]","[0.8, 0.4, 0.2]","[u'black', u'blue', u'red']","[u'left', u'middle', u'right']","[0.8, 0.4, 0.2]","[u'medium', u'high', u'low']","blue",50,"middle","high","False","False",284,4000,NA
"A19UBZFVUWL1ES","Mon Oct 26 2020 15:19:54 GMT-0400 (Eastern Daylight Time)","Mon Oct 26 2020 15:26:41 GMT-0400 (Eastern Daylight Time)","Mozilla/5.0 (Macintosh; Intel Mac OS X 10.14; rv:81.0) Gecko/20100101 Firefox/81.0",83,"[0.9, 0.5, 0.1]","[0.8, 0.4, 0.2]","[u'black', u'blue', u'red']","[u'left', u'middle', u'right']","[0.8, 0.4, 0.2]","[u'medium', u'high', u'low']","black",49,"left","medium","False","False",183,3950,NA
"A19UBZFVUWL1ES","Mon Oct 26 2020 15:19:54 GMT-0400 (Eastern Daylight Time)","Mon Oct 26 2020 15:26:41 GMT-0400 (Eastern Daylight Time)","Mozilla/5.0 (Macintosh; Intel Mac OS X 10.14; rv:81.0) Gecko/20100101 Firefox/81.0",84,"[0.9, 0.5, 0.1]","[0.8, 0.4, 0.2]","[u'black', u'blue', u'red']","[u'left', u'middle', u'right']","[0.8, 0.4, 0.2]","[u'medium', u'high', u'low']","red",51,"right","low","False","False",223,3900,NA
"A19UBZFVUWL1ES","Mon Oct 26 2020 15:19:54 GMT-0400 (Eastern Daylight Time)","Mon Oct 26 2020 15:26:41 GMT-0400 (Eastern Daylight Time)","Mozilla/5.0 (Macintosh; Intel Mac OS X 10.14; rv:81.0) Gecko/20100101 Firefox/81.0",85,"[0.9, 0.5, 0.1]","[0.8, 0.4, 0.2]","[u'black', u'blue', u'red']","[u'left', u'middle', u'right']","[0.8, 0.4, 0.2]","[u'medium', u'high', u'low']","blue",50,"middle","high","True","False",347,4000,NA
"A19UBZFVUWL1ES","Mon Oct 26 2020 15:19:54 GMT-0400 (Eastern Daylight Time)","Mon Oct 26 2020 15:26:41 GMT-0400 (Eastern Daylight Time)","Mozilla/5.0 (Macintosh; Intel Mac OS X 10.14; rv:81.0) Gecko/20100101 Firefox/81.0",86,"[0.9, 0.5, 0.1]","[0.8, 0.4, 0.2]","[u'black', u'blue', u'red']","[u'left', u'middle', u'right']","[0.8, 0.4, 0.2]","[u'medium', u'high', u'low']","blue",50,"middle","high","True","False",331,4100,NA
"A19UBZFVUWL1ES","Mon Oct 26 2020 15:19:54 GMT-0400 (Eastern Daylight Time)","Mon Oct 26 2020 15:26:41 GMT-0400 (Eastern Daylight Time)","Mozilla/5.0 (Macintosh; Intel Mac OS X 10.14; rv:81.0) Gecko/20100101 Firefox/81.0",87,"[0.9, 0.5, 0.1]","[0.8, 0.4, 0.2]","[u'black', u'blue', u'red']","[u'left', u'middle', u'right']","[0.8, 0.4, 0.2]","[u'medium', u'high', u'low']","blue",50,"middle","high","True","False",378,4200,NA
"A19UBZFVUWL1ES","Mon Oct 26 2020 15:19:54 GMT-0400 (Eastern Daylight Time)","Mon Oct 26 2020 15:26:41 GMT-0400 (Eastern Daylight Time)","Mozilla/5.0 (Macintosh; Intel Mac OS X 10.14; rv:81.0) Gecko/20100101 Firefox/81.0",88,"[0.9, 0.5, 0.1]","[0.8, 0.4, 0.2]","[u'black', u'blue', u'red']","[u'left', u'middle', u'right']","[0.8, 0.4, 0.2]","[u'medium', u'high', u'low']","blue",50,"middle","high","True","False",325,4300,NA
"A19UBZFVUWL1ES","Mon Oct 26 2020 15:19:54 GMT-0400 (Eastern Daylight Time)","Mon Oct 26 2020 15:26:41 GMT-0400 (Eastern Daylight Time)","Mozilla/5.0 (Macintosh; Intel Mac OS X 10.14; rv:81.0) Gecko/20100101 Firefox/81.0",89,"[0.9, 0.5, 0.1]","[0.8, 0.4, 0.2]","[u'black', u'blue', u'red']","[u'left', u'middle', u'right']","[0.8, 0.4, 0.2]","[u'medium', u'high', u'low']","blue",50,"middle","high","True","False",320,4400,NA
"A19UBZFVUWL1ES","Mon Oct 26 2020 15:19:54 GMT-0400 (Eastern Daylight Time)","Mon Oct 26 2020 15:26:41 GMT-0400 (Eastern Daylight Time)","Mozilla/5.0 (Macintosh; Intel Mac OS X 10.14; rv:81.0) Gecko/20100101 Firefox/81.0",90,"[0.9, 0.5, 0.1]","[0.8, 0.4, 0.2]","[u'black', u'blue', u'red']","[u'left', u'middle', u'right']","[0.8, 0.4, 0.2]","[u'medium', u'high', u'low']","blue",50,"middle","high","False","False",434,4350,NA
"A19UBZFVUWL1ES","Mon Oct 26 2020 15:19:54 GMT-0400 (Eastern Daylight Time)","Mon Oct 26 2020 15:26:41 GMT-0400 (Eastern Daylight Time)","Mozilla/5.0 (Macintosh; Intel Mac OS X 10.14; rv:81.0) Gecko/20100101 Firefox/81.0",91,"[0.9, 0.5, 0.1]","[0.8, 0.4, 0.2]","[u'black', u'blue', u'red']","[u'left', u'middle', u'right']","[0.8, 0.4, 0.2]","[u'medium', u'high', u'low']","black",49,"left","medium","False","False",355,4300,NA
"A19UBZFVUWL1ES","Mon Oct 26 2020 15:19:54 GMT-0400 (Eastern Daylight Time)","Mon Oct 26 2020 15:26:41 GMT-0400 (Eastern Daylight Time)","Mozilla/5.0 (Macintosh; Intel Mac OS X 10.14; rv:81.0) Gecko/20100101 Firefox/81.0",92,"[0.9, 0.5, 0.1]","[0.8, 0.4, 0.2]","[u'black', u'blue', u'red']","[u'left', u'middle', u'right']","[0.8, 0.4, 0.2]","[u'medium', u'high', u'low']","red",51,"right","low","False","False",2,4250,NA
"A19UBZFVUWL1ES","Mon Oct 26 2020 15:19:54 GMT-0400 (Eastern Daylight Time)","Mon Oct 26 2020 15:26:41 GMT-0400 (Eastern Daylight Time)","Mozilla/5.0 (Macintosh; Intel Mac OS X 10.14; rv:81.0) Gecko/20100101 Firefox/81.0",93,"[0.9, 0.5, 0.1]","[0.8, 0.4, 0.2]","[u'black', u'blue', u'red']","[u'left', u'middle', u'right']","[0.8, 0.4, 0.2]","[u'medium', u'high', u'low']","black",49,"left","medium","False","False",158,4200,NA
"A19UBZFVUWL1ES","Mon Oct 26 2020 15:19:54 GMT-0400 (Eastern Daylight Time)","Mon Oct 26 2020 15:26:41 GMT-0400 (Eastern Daylight Time)","Mozilla/5.0 (Macintosh; Intel Mac OS X 10.14; rv:81.0) Gecko/20100101 Firefox/81.0",94,"[0.9, 0.5, 0.1]","[0.8, 0.4, 0.2]","[u'black', u'blue', u'red']","[u'left', u'middle', u'right']","[0.8, 0.4, 0.2]","[u'medium', u'high', u'low']","blue",50,"middle","high","True","False",36,4300,NA
"A19UBZFVUWL1ES","Mon Oct 26 2020 15:19:54 GMT-0400 (Eastern Daylight Time)","Mon Oct 26 2020 15:26:41 GMT-0400 (Eastern Daylight Time)","Mozilla/5.0 (Macintosh; Intel Mac OS X 10.14; rv:81.0) Gecko/20100101 Firefox/81.0",95,"[0.9, 0.5, 0.1]","[0.8, 0.4, 0.2]","[u'black', u'blue', u'red']","[u'left', u'middle', u'right']","[0.8, 0.4, 0.2]","[u'medium', u'high', u'low']","blue",50,"middle","high","True","False",305,4400,NA
"A19UBZFVUWL1ES","Mon Oct 26 2020 15:19:54 GMT-0400 (Eastern Daylight Time)","Mon Oct 26 2020 15:26:41 GMT-0400 (Eastern Daylight Time)","Mozilla/5.0 (Macintosh; Intel Mac OS X 10.14; rv:81.0) Gecko/20100101 Firefox/81.0",96,"[0.9, 0.5, 0.1]","[0.8, 0.4, 0.2]","[u'black', u'blue', u'red']","[u'left', u'middle', u'right']","[0.8, 0.4, 0.2]","[u'medium', u'high', u'low']","blue",50,"middle","high","False","False",354,4350,NA
"A19UBZFVUWL1ES","Mon Oct 26 2020 15:19:54 GMT-0400 (Eastern Daylight Time)","Mon Oct 26 2020 15:26:41 GMT-0400 (Eastern Daylight Time)","Mozilla/5.0 (Macintosh; Intel Mac OS X 10.14; rv:81.0) Gecko/20100101 Firefox/81.0",97,"[0.9, 0.5, 0.1]","[0.8, 0.4, 0.2]","[u'black', u'blue', u'red']","[u'left', u'middle', u'right']","[0.8, 0.4, 0.2]","[u'medium', u'high', u'low']","red",51,"right","low","False","False",124,4300,NA
"A19UBZFVUWL1ES","Mon Oct 26 2020 15:19:54 GMT-0400 (Eastern Daylight Time)","Mon Oct 26 2020 15:26:41 GMT-0400 (Eastern Daylight Time)","Mozilla/5.0 (Macintosh; Intel Mac OS X 10.14; rv:81.0) Gecko/20100101 Firefox/81.0",98,"[0.9, 0.5, 0.1]","[0.8, 0.4, 0.2]","[u'black', u'blue', u'red']","[u'left', u'middle', u'right']","[0.8, 0.4, 0.2]","[u'medium', u'high', u'low']","blue",50,"middle","high","True","False",545,4400,NA
"A19UBZFVUWL1ES","Mon Oct 26 2020 15:19:54 GMT-0400 (Eastern Daylight Time)","Mon Oct 26 2020 15:26:41 GMT-0400 (Eastern Daylight Time)","Mozilla/5.0 (Macintosh; Intel Mac OS X 10.14; rv:81.0) Gecko/20100101 Firefox/81.0",99,"[0.9, 0.5, 0.1]","[0.8, 0.4, 0.2]","[u'black', u'blue', u'red']","[u'left', u'middle', u'right']","[0.8, 0.4, 0.2]","[u'medium', u'high', u'low']","blue",50,"middle","high","True","False",548,4500,NA
"A19UBZFVUWL1ES","Mon Oct 26 2020 15:19:54 GMT-0400 (Eastern Daylight Time)","Mon Oct 26 2020 15:26:41 GMT-0400 (Eastern Daylight Time)","Mozilla/5.0 (Macintosh; Intel Mac OS X 10.14; rv:81.0) Gecko/20100101 Firefox/81.0",100,"[0.9, 0.5, 0.1]","[0.8, 0.4, 0.2]","[u'black', u'blue', u'red']","[u'left', u'middle', u'right']","[0.8, 0.4, 0.2]","[u'medium', u'high', u'low']","blue",50,"middle","high","True","False",635,4600,NA
"A19UBZFVUWL1ES","Mon Oct 26 2020 15:19:54 GMT-0400 (Eastern Daylight Time)","Mon Oct 26 2020 15:26:41 GMT-0400 (Eastern Daylight Time)","Mozilla/5.0 (Macintosh; Intel Mac OS X 10.14; rv:81.0) Gecko/20100101 Firefox/81.0",101,"[0.9, 0.5, 0.1]","[0.8, 0.4, 0.2]","[u'black', u'blue', u'red']","[u'left', u'middle', u'right']","[0.8, 0.4, 0.2]","[u'medium', u'high', u'low']","blue",50,"middle","high","True","False",370,4700,NA
"A19UBZFVUWL1ES","Mon Oct 26 2020 15:19:54 GMT-0400 (Eastern Daylight Time)","Mon Oct 26 2020 15:26:41 GMT-0400 (Eastern Daylight Time)","Mozilla/5.0 (Macintosh; Intel Mac OS X 10.14; rv:81.0) Gecko/20100101 Firefox/81.0",102,"[0.9, 0.5, 0.1]","[0.8, 0.4, 0.2]","[u'black', u'blue', u'red']","[u'left', u'middle', u'right']","[0.8, 0.4, 0.2]","[u'medium', u'high', u'low']","blue",50,"middle","high","True","False",459,4800,NA
"A19UBZFVUWL1ES","Mon Oct 26 2020 15:19:54 GMT-0400 (Eastern Daylight Time)","Mon Oct 26 2020 15:26:41 GMT-0400 (Eastern Daylight Time)","Mozilla/5.0 (Macintosh; Intel Mac OS X 10.14; rv:81.0) Gecko/20100101 Firefox/81.0",103,"[0.9, 0.5, 0.1]","[0.8, 0.4, 0.2]","[u'black', u'blue', u'red']","[u'left', u'middle', u'right']","[0.8, 0.4, 0.2]","[u'medium', u'high', u'low']","blue",50,"middle","high","False","True",426,4750,NA
"A19UBZFVUWL1ES","Mon Oct 26 2020 15:19:54 GMT-0400 (Eastern Daylight Time)","Mon Oct 26 2020 15:26:41 GMT-0400 (Eastern Daylight Time)","Mozilla/5.0 (Macintosh; Intel Mac OS X 10.14; rv:81.0) Gecko/20100101 Firefox/81.0",104,"[0.9, 0.5, 0.1]","[0.8, 0.4, 0.2]","[u'black', u'blue', u'red']","[u'left', u'middle', u'right']","[0.8, 0.4, 0.2]","[u'medium', u'low', u'high']","black",49,"left","medium","True","False",418,4850,NA
"A19UBZFVUWL1ES","Mon Oct 26 2020 15:19:54 GMT-0400 (Eastern Daylight Time)","Mon Oct 26 2020 15:26:41 GMT-0400 (Eastern Daylight Time)","Mozilla/5.0 (Macintosh; Intel Mac OS X 10.14; rv:81.0) Gecko/20100101 Firefox/81.0",105,"[0.9, 0.5, 0.1]","[0.8, 0.4, 0.2]","[u'black', u'blue', u'red']","[u'left', u'middle', u'right']","[0.8, 0.4, 0.2]","[u'medium', u'low', u'high']","black",49,"left","medium","False","False",451,4800,NA
"A19UBZFVUWL1ES","Mon Oct 26 2020 15:19:54 GMT-0400 (Eastern Daylight Time)","Mon Oct 26 2020 15:26:41 GMT-0400 (Eastern Daylight Time)","Mozilla/5.0 (Macintosh; Intel Mac OS X 10.14; rv:81.0) Gecko/20100101 Firefox/81.0",106,"[0.9, 0.5, 0.1]","[0.8, 0.4, 0.2]","[u'black', u'blue', u'red']","[u'left', u'middle', u'right']","[0.8, 0.4, 0.2]","[u'medium', u'low', u'high']","red",51,"right","high","True","False",281,4900,NA
"A19UBZFVUWL1ES","Mon Oct 26 2020 15:19:54 GMT-0400 (Eastern Daylight Time)","Mon Oct 26 2020 15:26:41 GMT-0400 (Eastern Daylight Time)","Mozilla/5.0 (Macintosh; Intel Mac OS X 10.14; rv:81.0) Gecko/20100101 Firefox/81.0",107,"[0.9, 0.5, 0.1]","[0.8, 0.4, 0.2]","[u'black', u'blue', u'red']","[u'left', u'middle', u'right']","[0.8, 0.4, 0.2]","[u'medium', u'low', u'high']","red",51,"right","high","True","False",483,5000,NA
"A19UBZFVUWL1ES","Mon Oct 26 2020 15:19:54 GMT-0400 (Eastern Daylight Time)","Mon Oct 26 2020 15:26:41 GMT-0400 (Eastern Daylight Time)","Mozilla/5.0 (Macintosh; Intel Mac OS X 10.14; rv:81.0) Gecko/20100101 Firefox/81.0",108,"[0.9, 0.5, 0.1]","[0.8, 0.4, 0.2]","[u'black', u'blue', u'red']","[u'left', u'middle', u'right']","[0.8, 0.4, 0.2]","[u'medium', u'low', u'high']","red",51,"right","high","True","False",572,5100,NA
"A19UBZFVUWL1ES","Mon Oct 26 2020 15:19:54 GMT-0400 (Eastern Daylight Time)","Mon Oct 26 2020 15:26:41 GMT-0400 (Eastern Daylight Time)","Mozilla/5.0 (Macintosh; Intel Mac OS X 10.14; rv:81.0) Gecko/20100101 Firefox/81.0",109,"[0.9, 0.5, 0.1]","[0.8, 0.4, 0.2]","[u'black', u'blue', u'red']","[u'left', u'middle', u'right']","[0.8, 0.4, 0.2]","[u'medium', u'low', u'high']","red",51,"right","high","True","False",548,5200,NA
"A19UBZFVUWL1ES","Mon Oct 26 2020 15:19:54 GMT-0400 (Eastern Daylight Time)","Mon Oct 26 2020 15:26:41 GMT-0400 (Eastern Daylight Time)","Mozilla/5.0 (Macintosh; Intel Mac OS X 10.14; rv:81.0) Gecko/20100101 Firefox/81.0",110,"[0.9, 0.5, 0.1]","[0.8, 0.4, 0.2]","[u'black', u'blue', u'red']","[u'left', u'middle', u'right']","[0.8, 0.4, 0.2]","[u'medium', u'low', u'high']","red",51,"right","high","True","False",557,5300,NA
"A19UBZFVUWL1ES","Mon Oct 26 2020 15:19:54 GMT-0400 (Eastern Daylight Time)","Mon Oct 26 2020 15:26:41 GMT-0400 (Eastern Daylight Time)","Mozilla/5.0 (Macintosh; Intel Mac OS X 10.14; rv:81.0) Gecko/20100101 Firefox/81.0",111,"[0.9, 0.5, 0.1]","[0.8, 0.4, 0.2]","[u'black', u'blue', u'red']","[u'left', u'middle', u'right']","[0.8, 0.4, 0.2]","[u'medium', u'low', u'high']","black",49,"left","medium","True","False",511,5400,NA
"A19UBZFVUWL1ES","Mon Oct 26 2020 15:19:54 GMT-0400 (Eastern Daylight Time)","Mon Oct 26 2020 15:26:41 GMT-0400 (Eastern Daylight Time)","Mozilla/5.0 (Macintosh; Intel Mac OS X 10.14; rv:81.0) Gecko/20100101 Firefox/81.0",112,"[0.9, 0.5, 0.1]","[0.8, 0.4, 0.2]","[u'black', u'blue', u'red']","[u'left', u'middle', u'right']","[0.8, 0.4, 0.2]","[u'medium', u'low', u'high']","black",49,"left","medium","False","False",598,5350,NA
"A19UBZFVUWL1ES","Mon Oct 26 2020 15:19:54 GMT-0400 (Eastern Daylight Time)","Mon Oct 26 2020 15:26:41 GMT-0400 (Eastern Daylight Time)","Mozilla/5.0 (Macintosh; Intel Mac OS X 10.14; rv:81.0) Gecko/20100101 Firefox/81.0",113,"[0.9, 0.5, 0.1]","[0.8, 0.4, 0.2]","[u'black', u'blue', u'red']","[u'left', u'middle', u'right']","[0.8, 0.4, 0.2]","[u'medium', u'low', u'high']","blue",50,"middle","low","False","False",464,5300,NA
"A19UBZFVUWL1ES","Mon Oct 26 2020 15:19:54 GMT-0400 (Eastern Daylight Time)","Mon Oct 26 2020 15:26:41 GMT-0400 (Eastern Daylight Time)","Mozilla/5.0 (Macintosh; Intel Mac OS X 10.14; rv:81.0) Gecko/20100101 Firefox/81.0",114,"[0.9, 0.5, 0.1]","[0.8, 0.4, 0.2]","[u'black', u'blue', u'red']","[u'left', u'middle', u'right']","[0.8, 0.4, 0.2]","[u'medium', u'low', u'high']","red",51,"right","high","True","False",560,5400,NA
"A19UBZFVUWL1ES","Mon Oct 26 2020 15:19:54 GMT-0400 (Eastern Daylight Time)","Mon Oct 26 2020 15:26:41 GMT-0400 (Eastern Daylight Time)","Mozilla/5.0 (Macintosh; Intel Mac OS X 10.14; rv:81.0) Gecko/20100101 Firefox/81.0",115,"[0.9, 0.5, 0.1]","[0.8, 0.4, 0.2]","[u'black', u'blue', u'red']","[u'left', u'middle', u'right']","[0.8, 0.4, 0.2]","[u'medium', u'low', u'high']","red",51,"right","high","True","False",651,5500,NA
"A19UBZFVUWL1ES","Mon Oct 26 2020 15:19:54 GMT-0400 (Eastern Daylight Time)","Mon Oct 26 2020 15:26:41 GMT-0400 (Eastern Daylight Time)","Mozilla/5.0 (Macintosh; Intel Mac OS X 10.14; rv:81.0) Gecko/20100101 Firefox/81.0",116,"[0.9, 0.5, 0.1]","[0.8, 0.4, 0.2]","[u'black', u'blue', u'red']","[u'left', u'middle', u'right']","[0.8, 0.4, 0.2]","[u'medium', u'low', u'high']","red",51,"right","high","True","False",635,5600,NA
"A19UBZFVUWL1ES","Mon Oct 26 2020 15:19:54 GMT-0400 (Eastern Daylight Time)","Mon Oct 26 2020 15:26:41 GMT-0400 (Eastern Daylight Time)","Mozilla/5.0 (Macintosh; Intel Mac OS X 10.14; rv:81.0) Gecko/20100101 Firefox/81.0",117,"[0.9, 0.5, 0.1]","[0.8, 0.4, 0.2]","[u'black', u'blue', u'red']","[u'left', u'middle', u'right']","[0.8, 0.4, 0.2]","[u'medium', u'low', u'high']","red",51,"right","high","True","False",566,5700,NA
"A19UBZFVUWL1ES","Mon Oct 26 2020 15:19:54 GMT-0400 (Eastern Daylight Time)","Mon Oct 26 2020 15:26:41 GMT-0400 (Eastern Daylight Time)","Mozilla/5.0 (Macintosh; Intel Mac OS X 10.14; rv:81.0) Gecko/20100101 Firefox/81.0",118,"[0.9, 0.5, 0.1]","[0.8, 0.4, 0.2]","[u'black', u'blue', u'red']","[u'left', u'middle', u'right']","[0.8, 0.4, 0.2]","[u'medium', u'low', u'high']","red",51,"right","high","True","False",625,5800,NA
"A19UBZFVUWL1ES","Mon Oct 26 2020 15:19:54 GMT-0400 (Eastern Daylight Time)","Mon Oct 26 2020 15:26:41 GMT-0400 (Eastern Daylight Time)","Mozilla/5.0 (Macintosh; Intel Mac OS X 10.14; rv:81.0) Gecko/20100101 Firefox/81.0",119,"[0.9, 0.5, 0.1]","[0.8, 0.4, 0.2]","[u'black', u'blue', u'red']","[u'left', u'middle', u'right']","[0.8, 0.4, 0.2]","[u'medium', u'low', u'high']","red",51,"right","high","True","False",720,5900,NA
"A19UBZFVUWL1ES","Mon Oct 26 2020 15:19:54 GMT-0400 (Eastern Daylight Time)","Mon Oct 26 2020 15:26:41 GMT-0400 (Eastern Daylight Time)","Mozilla/5.0 (Macintosh; Intel Mac OS X 10.14; rv:81.0) Gecko/20100101 Firefox/81.0",120,"[0.9, 0.5, 0.1]","[0.8, 0.4, 0.2]","[u'black', u'blue', u'red']","[u'left', u'middle', u'right']","[0.8, 0.4, 0.2]","[u'medium', u'low', u'high']","red",51,"right","high","False","False",1335,5850,NA
"A19UBZFVUWL1ES","Mon Oct 26 2020 15:19:54 GMT-0400 (Eastern Daylight Time)","Mon Oct 26 2020 15:26:41 GMT-0400 (Eastern Daylight Time)","Mozilla/5.0 (Macintosh; Intel Mac OS X 10.14; rv:81.0) Gecko/20100101 Firefox/81.0",121,"[0.9, 0.5, 0.1]","[0.8, 0.4, 0.2]","[u'black', u'blue', u'red']","[u'left', u'middle', u'right']","[0.8, 0.4, 0.2]","[u'low', u'high', u'medium']","red",51,"right","medium","False","False",503,5800,NA
"A19UBZFVUWL1ES","Mon Oct 26 2020 15:19:54 GMT-0400 (Eastern Daylight Time)","Mon Oct 26 2020 15:26:41 GMT-0400 (Eastern Daylight Time)","Mozilla/5.0 (Macintosh; Intel Mac OS X 10.14; rv:81.0) Gecko/20100101 Firefox/81.0",122,"[0.9, 0.5, 0.1]","[0.8, 0.4, 0.2]","[u'black', u'blue', u'red']","[u'left', u'middle', u'right']","[0.8, 0.4, 0.2]","[u'low', u'high', u'medium']","black",49,"left","low","False","False",372,5750,NA
"A19UBZFVUWL1ES","Mon Oct 26 2020 15:19:54 GMT-0400 (Eastern Daylight Time)","Mon Oct 26 2020 15:26:41 GMT-0400 (Eastern Daylight Time)","Mozilla/5.0 (Macintosh; Intel Mac OS X 10.14; rv:81.0) Gecko/20100101 Firefox/81.0",123,"[0.9, 0.5, 0.1]","[0.8, 0.4, 0.2]","[u'black', u'blue', u'red']","[u'left', u'middle', u'right']","[0.8, 0.4, 0.2]","[u'low', u'high', u'medium']","blue",50,"middle","high","True","False",63,5850,NA
"A19UBZFVUWL1ES","Mon Oct 26 2020 15:19:54 GMT-0400 (Eastern Daylight Time)","Mon Oct 26 2020 15:26:41 GMT-0400 (Eastern Daylight Time)","Mozilla/5.0 (Macintosh; Intel Mac OS X 10.14; rv:81.0) Gecko/20100101 Firefox/81.0",124,"[0.9, 0.5, 0.1]","[0.8, 0.4, 0.2]","[u'black', u'blue', u'red']","[u'left', u'middle', u'right']","[0.8, 0.4, 0.2]","[u'low', u'high', u'medium']","blue",50,"middle","high","True","False",486,5950,NA
"A19UBZFVUWL1ES","Mon Oct 26 2020 15:19:54 GMT-0400 (Eastern Daylight Time)","Mon Oct 26 2020 15:26:41 GMT-0400 (Eastern Daylight Time)","Mozilla/5.0 (Macintosh; Intel Mac OS X 10.14; rv:81.0) Gecko/20100101 Firefox/81.0",125,"[0.9, 0.5, 0.1]","[0.8, 0.4, 0.2]","[u'black', u'blue', u'red']","[u'left', u'middle', u'right']","[0.8, 0.4, 0.2]","[u'low', u'high', u'medium']","blue",50,"middle","high","True","False",361,6050,NA
"A19UBZFVUWL1ES","Mon Oct 26 2020 15:19:54 GMT-0400 (Eastern Daylight Time)","Mon Oct 26 2020 15:26:41 GMT-0400 (Eastern Daylight Time)","Mozilla/5.0 (Macintosh; Intel Mac OS X 10.14; rv:81.0) Gecko/20100101 Firefox/81.0",126,"[0.9, 0.5, 0.1]","[0.8, 0.4, 0.2]","[u'black', u'blue', u'red']","[u'left', u'middle', u'right']","[0.8, 0.4, 0.2]","[u'low', u'high', u'medium']","blue",50,"middle","high","True","False",351,6150,NA
"A19UBZFVUWL1ES","Mon Oct 26 2020 15:19:54 GMT-0400 (Eastern Daylight Time)","Mon Oct 26 2020 15:26:41 GMT-0400 (Eastern Daylight Time)","Mozilla/5.0 (Macintosh; Intel Mac OS X 10.14; rv:81.0) Gecko/20100101 Firefox/81.0",127,"[0.9, 0.5, 0.1]","[0.8, 0.4, 0.2]","[u'black', u'blue', u'red']","[u'left', u'middle', u'right']","[0.8, 0.4, 0.2]","[u'low', u'high', u'medium']","blue",50,"middle","high","True","False",339,6250,NA
"A19UBZFVUWL1ES","Mon Oct 26 2020 15:19:54 GMT-0400 (Eastern Daylight Time)","Mon Oct 26 2020 15:26:41 GMT-0400 (Eastern Daylight Time)","Mozilla/5.0 (Macintosh; Intel Mac OS X 10.14; rv:81.0) Gecko/20100101 Firefox/81.0",128,"[0.9, 0.5, 0.1]","[0.8, 0.4, 0.2]","[u'black', u'blue', u'red']","[u'left', u'middle', u'right']","[0.8, 0.4, 0.2]","[u'low', u'high', u'medium']","blue",50,"middle","high","True","False",417,6350,NA
"A19UBZFVUWL1ES","Mon Oct 26 2020 15:19:54 GMT-0400 (Eastern Daylight Time)","Mon Oct 26 2020 15:26:41 GMT-0400 (Eastern Daylight Time)","Mozilla/5.0 (Macintosh; Intel Mac OS X 10.14; rv:81.0) Gecko/20100101 Firefox/81.0",129,"[0.9, 0.5, 0.1]","[0.8, 0.4, 0.2]","[u'black', u'blue', u'red']","[u'left', u'middle', u'right']","[0.8, 0.4, 0.2]","[u'low', u'high', u'medium']","blue",50,"middle","high","True","False",563,6450,NA
"A19UBZFVUWL1ES","Mon Oct 26 2020 15:19:54 GMT-0400 (Eastern Daylight Time)","Mon Oct 26 2020 15:26:41 GMT-0400 (Eastern Daylight Time)","Mozilla/5.0 (Macintosh; Intel Mac OS X 10.14; rv:81.0) Gecko/20100101 Firefox/81.0",130,"[0.9, 0.5, 0.1]","[0.8, 0.4, 0.2]","[u'black', u'blue', u'red']","[u'left', u'middle', u'right']","[0.8, 0.4, 0.2]","[u'low', u'high', u'medium']","blue",50,"middle","high","True","False",314,6550,NA
"A19UBZFVUWL1ES","Mon Oct 26 2020 15:19:54 GMT-0400 (Eastern Daylight Time)","Mon Oct 26 2020 15:26:41 GMT-0400 (Eastern Daylight Time)","Mozilla/5.0 (Macintosh; Intel Mac OS X 10.14; rv:81.0) Gecko/20100101 Firefox/81.0",131,"[0.9, 0.5, 0.1]","[0.8, 0.4, 0.2]","[u'black', u'blue', u'red']","[u'left', u'middle', u'right']","[0.8, 0.4, 0.2]","[u'low', u'high', u'medium']","blue",50,"middle","high","False","True",380,6500,NA
"A19UBZFVUWL1ES","Mon Oct 26 2020 15:19:54 GMT-0400 (Eastern Daylight Time)","Mon Oct 26 2020 15:26:41 GMT-0400 (Eastern Daylight Time)","Mozilla/5.0 (Macintosh; Intel Mac OS X 10.14; rv:81.0) Gecko/20100101 Firefox/81.0",132,"[0.9, 0.5, 0.1]","[0.8, 0.4, 0.2]","[u'black', u'blue', u'red']","[u'left', u'middle', u'right']","[0.8, 0.4, 0.2]","[u'medium', u'low', u'high']","red",51,"right","high","True","False",322,6600,NA
"A19UBZFVUWL1ES","Mon Oct 26 2020 15:19:54 GMT-0400 (Eastern Daylight Time)","Mon Oct 26 2020 15:26:41 GMT-0400 (Eastern Daylight Time)","Mozilla/5.0 (Macintosh; Intel Mac OS X 10.14; rv:81.0) Gecko/20100101 Firefox/81.0",133,"[0.9, 0.5, 0.1]","[0.8, 0.4, 0.2]","[u'black', u'blue', u'red']","[u'left', u'middle', u'right']","[0.8, 0.4, 0.2]","[u'medium', u'low', u'high']","red",51,"right","high","True","False",443,6700,NA
"A19UBZFVUWL1ES","Mon Oct 26 2020 15:19:54 GMT-0400 (Eastern Daylight Time)","Mon Oct 26 2020 15:26:41 GMT-0400 (Eastern Daylight Time)","Mozilla/5.0 (Macintosh; Intel Mac OS X 10.14; rv:81.0) Gecko/20100101 Firefox/81.0",134,"[0.9, 0.5, 0.1]","[0.8, 0.4, 0.2]","[u'black', u'blue', u'red']","[u'left', u'middle', u'right']","[0.8, 0.4, 0.2]","[u'medium', u'low', u'high']","red",51,"right","high","True","False",388,6800,NA
"A19UBZFVUWL1ES","Mon Oct 26 2020 15:19:54 GMT-0400 (Eastern Daylight Time)","Mon Oct 26 2020 15:26:41 GMT-0400 (Eastern Daylight Time)","Mozilla/5.0 (Macintosh; Intel Mac OS X 10.14; rv:81.0) Gecko/20100101 Firefox/81.0",135,"[0.9, 0.5, 0.1]","[0.8, 0.4, 0.2]","[u'black', u'blue', u'red']","[u'left', u'middle', u'right']","[0.8, 0.4, 0.2]","[u'medium', u'low', u'high']","red",51,"right","high","True","False",401,6900,NA
"A19UBZFVUWL1ES","Mon Oct 26 2020 15:19:54 GMT-0400 (Eastern Daylight Time)","Mon Oct 26 2020 15:26:41 GMT-0400 (Eastern Daylight Time)","Mozilla/5.0 (Macintosh; Intel Mac OS X 10.14; rv:81.0) Gecko/20100101 Firefox/81.0",136,"[0.9, 0.5, 0.1]","[0.8, 0.4, 0.2]","[u'black', u'blue', u'red']","[u'left', u'middle', u'right']","[0.8, 0.4, 0.2]","[u'medium', u'low', u'high']","red",51,"right","high","True","False",535,7000,NA
"A19UBZFVUWL1ES","Mon Oct 26 2020 15:19:54 GMT-0400 (Eastern Daylight Time)","Mon Oct 26 2020 15:26:41 GMT-0400 (Eastern Daylight Time)","Mozilla/5.0 (Macintosh; Intel Mac OS X 10.14; rv:81.0) Gecko/20100101 Firefox/81.0",137,"[0.9, 0.5, 0.1]","[0.8, 0.4, 0.2]","[u'black', u'blue', u'red']","[u'left', u'middle', u'right']","[0.8, 0.4, 0.2]","[u'medium', u'low', u'high']","red",51,"right","high","True","False",355,7100,NA
"A19UBZFVUWL1ES","Mon Oct 26 2020 15:19:54 GMT-0400 (Eastern Daylight Time)","Mon Oct 26 2020 15:26:41 GMT-0400 (Eastern Daylight Time)","Mozilla/5.0 (Macintosh; Intel Mac OS X 10.14; rv:81.0) Gecko/20100101 Firefox/81.0",138,"[0.9, 0.5, 0.1]","[0.8, 0.4, 0.2]","[u'black', u'blue', u'red']","[u'left', u'middle', u'right']","[0.8, 0.4, 0.2]","[u'medium', u'low', u'high']","red",51,"right","high","True","False",391,7200,NA
"A19UBZFVUWL1ES","Mon Oct 26 2020 15:19:54 GMT-0400 (Eastern Daylight Time)","Mon Oct 26 2020 15:26:41 GMT-0400 (Eastern Daylight Time)","Mozilla/5.0 (Macintosh; Intel Mac OS X 10.14; rv:81.0) Gecko/20100101 Firefox/81.0",139,"[0.9, 0.5, 0.1]","[0.8, 0.4, 0.2]","[u'black', u'blue', u'red']","[u'left', u'middle', u'right']","[0.8, 0.4, 0.2]","[u'medium', u'low', u'high']","red",51,"right","high","True","False",481,7300,NA
"A19UBZFVUWL1ES","Mon Oct 26 2020 15:19:54 GMT-0400 (Eastern Daylight Time)","Mon Oct 26 2020 15:26:41 GMT-0400 (Eastern Daylight Time)","Mozilla/5.0 (Macintosh; Intel Mac OS X 10.14; rv:81.0) Gecko/20100101 Firefox/81.0",140,"[0.9, 0.5, 0.1]","[0.8, 0.4, 0.2]","[u'black', u'blue', u'red']","[u'left', u'middle', u'right']","[0.8, 0.4, 0.2]","[u'medium', u'low', u'high']","red",51,"right","high","True","True",473,7400,NA
"A19UBZFVUWL1ES","Mon Oct 26 2020 15:19:54 GMT-0400 (Eastern Daylight Time)","Mon Oct 26 2020 15:26:41 GMT-0400 (Eastern Daylight Time)","Mozilla/5.0 (Macintosh; Intel Mac OS X 10.14; rv:81.0) Gecko/20100101 Firefox/81.0",141,"[0.9, 0.5, 0.1]","[0.8, 0.4, 0.2]","[u'black', u'blue', u'red']","[u'left', u'middle', u'right']","[0.8, 0.4, 0.2]","[u'medium', u'high', u'low']","red",51,"right","low","False","False",550,7350,NA
"A19UBZFVUWL1ES","Mon Oct 26 2020 15:19:54 GMT-0400 (Eastern Daylight Time)","Mon Oct 26 2020 15:26:41 GMT-0400 (Eastern Daylight Time)","Mozilla/5.0 (Macintosh; Intel Mac OS X 10.14; rv:81.0) Gecko/20100101 Firefox/81.0",142,"[0.9, 0.5, 0.1]","[0.8, 0.4, 0.2]","[u'black', u'blue', u'red']","[u'left', u'middle', u'right']","[0.8, 0.4, 0.2]","[u'medium', u'high', u'low']","black",49,"left","medium","False","False",355,7300,NA
"A19UBZFVUWL1ES","Mon Oct 26 2020 15:19:54 GMT-0400 (Eastern Daylight Time)","Mon Oct 26 2020 15:26:41 GMT-0400 (Eastern Daylight Time)","Mozilla/5.0 (Macintosh; Intel Mac OS X 10.14; rv:81.0) Gecko/20100101 Firefox/81.0",143,"[0.9, 0.5, 0.1]","[0.8, 0.4, 0.2]","[u'black', u'blue', u'red']","[u'left', u'middle', u'right']","[0.8, 0.4, 0.2]","[u'medium', u'high', u'low']","blue",50,"middle","high","True","False",15,7400,NA
"A19UBZFVUWL1ES","Mon Oct 26 2020 15:19:54 GMT-0400 (Eastern Daylight Time)","Mon Oct 26 2020 15:26:41 GMT-0400 (Eastern Daylight Time)","Mozilla/5.0 (Macintosh; Intel Mac OS X 10.14; rv:81.0) Gecko/20100101 Firefox/81.0",144,"[0.9, 0.5, 0.1]","[0.8, 0.4, 0.2]","[u'black', u'blue', u'red']","[u'left', u'middle', u'right']","[0.8, 0.4, 0.2]","[u'medium', u'high', u'low']","blue",50,"middle","high","True","False",367,7500,NA
"A19UBZFVUWL1ES","Mon Oct 26 2020 15:19:54 GMT-0400 (Eastern Daylight Time)","Mon Oct 26 2020 15:26:41 GMT-0400 (Eastern Daylight Time)","Mozilla/5.0 (Macintosh; Intel Mac OS X 10.14; rv:81.0) Gecko/20100101 Firefox/81.0",145,"[0.9, 0.5, 0.1]","[0.8, 0.4, 0.2]","[u'black', u'blue', u'red']","[u'left', u'middle', u'right']","[0.8, 0.4, 0.2]","[u'medium', u'high', u'low']","blue",50,"middle","high","True","False",394,7600,NA
"A19UBZFVUWL1ES","Mon Oct 26 2020 15:19:54 GMT-0400 (Eastern Daylight Time)","Mon Oct 26 2020 15:26:41 GMT-0400 (Eastern Daylight Time)","Mozilla/5.0 (Macintosh; Intel Mac OS X 10.14; rv:81.0) Gecko/20100101 Firefox/81.0",146,"[0.9, 0.5, 0.1]","[0.8, 0.4, 0.2]","[u'black', u'blue', u'red']","[u'left', u'middle', u'right']","[0.8, 0.4, 0.2]","[u'medium', u'high', u'low']","blue",50,"middle","high","True","False",524,7700,NA
"A19UBZFVUWL1ES","Mon Oct 26 2020 15:19:54 GMT-0400 (Eastern Daylight Time)","Mon Oct 26 2020 15:26:41 GMT-0400 (Eastern Daylight Time)","Mozilla/5.0 (Macintosh; Intel Mac OS X 10.14; rv:81.0) Gecko/20100101 Firefox/81.0",147,"[0.9, 0.5, 0.1]","[0.8, 0.4, 0.2]","[u'black', u'blue', u'red']","[u'left', u'middle', u'right']","[0.8, 0.4, 0.2]","[u'medium', u'high', u'low']","blue",50,"middle","high","True","False",462,7800,NA
"A19UBZFVUWL1ES","Mon Oct 26 2020 15:19:54 GMT-0400 (Eastern Daylight Time)","Mon Oct 26 2020 15:26:41 GMT-0400 (Eastern Daylight Time)","Mozilla/5.0 (Macintosh; Intel Mac OS X 10.14; rv:81.0) Gecko/20100101 Firefox/81.0",148,"[0.9, 0.5, 0.1]","[0.8, 0.4, 0.2]","[u'black', u'blue', u'red']","[u'left', u'middle', u'right']","[0.8, 0.4, 0.2]","[u'medium', u'high', u'low']","blue",50,"middle","high","False","False",815,7750,NA
"A19UBZFVUWL1ES","Mon Oct 26 2020 15:19:54 GMT-0400 (Eastern Daylight Time)","Mon Oct 26 2020 15:26:41 GMT-0400 (Eastern Daylight Time)","Mozilla/5.0 (Macintosh; Intel Mac OS X 10.14; rv:81.0) Gecko/20100101 Firefox/81.0",149,"[0.9, 0.5, 0.1]","[0.8, 0.4, 0.2]","[u'black', u'blue', u'red']","[u'left', u'middle', u'right']","[0.8, 0.4, 0.2]","[u'medium', u'high', u'low']","black",49,"left","medium","False","False",391,7700,NA
"A19UBZFVUWL1ES","Mon Oct 26 2020 15:19:54 GMT-0400 (Eastern Daylight Time)","Mon Oct 26 2020 15:26:41 GMT-0400 (Eastern Daylight Time)","Mozilla/5.0 (Macintosh; Intel Mac OS X 10.14; rv:81.0) Gecko/20100101 Firefox/81.0",150,"[0.9, 0.5, 0.1]","[0.8, 0.4, 0.2]","[u'black', u'blue', u'red']","[u'left', u'middle', u'right']","[0.8, 0.4, 0.2]","[u'medium', u'high', u'low']","red",51,"right","low","True","False",363,7800,NA
"A19UBZFVUWL1ES","Mon Oct 26 2020 15:19:54 GMT-0400 (Eastern Daylight Time)","Mon Oct 26 2020 15:26:41 GMT-0400 (Eastern Daylight Time)","Mozilla/5.0 (Macintosh; Intel Mac OS X 10.14; rv:81.0) Gecko/20100101 Firefox/81.0",151,"[0.9, 0.5, 0.1]","[0.8, 0.4, 0.2]","[u'black', u'blue', u'red']","[u'left', u'middle', u'right']","[0.8, 0.4, 0.2]","[u'medium', u'high', u'low']","red",51,"right","low","False","False",1067,7750,NA
"A19UBZFVUWL1ES","Mon Oct 26 2020 15:19:54 GMT-0400 (Eastern Daylight Time)","Mon Oct 26 2020 15:26:41 GMT-0400 (Eastern Daylight Time)","Mozilla/5.0 (Macintosh; Intel Mac OS X 10.14; rv:81.0) Gecko/20100101 Firefox/81.0",152,"[0.9, 0.5, 0.1]","[0.8, 0.4, 0.2]","[u'black', u'blue', u'red']","[u'left', u'middle', u'right']","[0.8, 0.4, 0.2]","[u'medium', u'high', u'low']","black",49,"left","medium","False","False",493,7700,NA
"A19UBZFVUWL1ES","Mon Oct 26 2020 15:19:54 GMT-0400 (Eastern Daylight Time)","Mon Oct 26 2020 15:26:41 GMT-0400 (Eastern Daylight Time)","Mozilla/5.0 (Macintosh; Intel Mac OS X 10.14; rv:81.0) Gecko/20100101 Firefox/81.0",153,"[0.9, 0.5, 0.1]","[0.8, 0.4, 0.2]","[u'black', u'blue', u'red']","[u'left', u'middle', u'right']","[0.8, 0.4, 0.2]","[u'medium', u'high', u'low']","blue",50,"middle","high","True","False",416,7800,NA
"A19UBZFVUWL1ES","Mon Oct 26 2020 15:19:54 GMT-0400 (Eastern Daylight Time)","Mon Oct 26 2020 15:26:41 GMT-0400 (Eastern Daylight Time)","Mozilla/5.0 (Macintosh; Intel Mac OS X 10.14; rv:81.0) Gecko/20100101 Firefox/81.0",154,"[0.9, 0.5, 0.1]","[0.8, 0.4, 0.2]","[u'black', u'blue', u'red']","[u'left', u'middle', u'right']","[0.8, 0.4, 0.2]","[u'medium', u'high', u'low']","blue",50,"middle","high","True","False",452,7900,NA
"A19UBZFVUWL1ES","Mon Oct 26 2020 15:19:54 GMT-0400 (Eastern Daylight Time)","Mon Oct 26 2020 15:26:41 GMT-0400 (Eastern Daylight Time)","Mozilla/5.0 (Macintosh; Intel Mac OS X 10.14; rv:81.0) Gecko/20100101 Firefox/81.0",155,"[0.9, 0.5, 0.1]","[0.8, 0.4, 0.2]","[u'black', u'blue', u'red']","[u'left', u'middle', u'right']","[0.8, 0.4, 0.2]","[u'medium', u'high', u'low']","blue",50,"middle","high","True","False",511,8000,NA
"A19UBZFVUWL1ES","Mon Oct 26 2020 15:19:54 GMT-0400 (Eastern Daylight Time)","Mon Oct 26 2020 15:26:41 GMT-0400 (Eastern Daylight Time)","Mozilla/5.0 (Macintosh; Intel Mac OS X 10.14; rv:81.0) Gecko/20100101 Firefox/81.0",156,"[0.9, 0.5, 0.1]","[0.8, 0.4, 0.2]","[u'black', u'blue', u'red']","[u'left', u'middle', u'right']","[0.8, 0.4, 0.2]","[u'medium', u'high', u'low']","blue",50,"middle","high","False","False",803,7950,NA
"A19UBZFVUWL1ES","Mon Oct 26 2020 15:19:54 GMT-0400 (Eastern Daylight Time)","Mon Oct 26 2020 15:26:41 GMT-0400 (Eastern Daylight Time)","Mozilla/5.0 (Macintosh; Intel Mac OS X 10.14; rv:81.0) Gecko/20100101 Firefox/81.0",157,"[0.9, 0.5, 0.1]","[0.8, 0.4, 0.2]","[u'black', u'blue', u'red']","[u'left', u'middle', u'right']","[0.8, 0.4, 0.2]","[u'medium', u'high', u'low']","black",49,"left","medium","False","False",407,7900,NA
"A19UBZFVUWL1ES","Mon Oct 26 2020 15:19:54 GMT-0400 (Eastern Daylight Time)","Mon Oct 26 2020 15:26:41 GMT-0400 (Eastern Daylight Time)","Mozilla/5.0 (Macintosh; Intel Mac OS X 10.14; rv:81.0) Gecko/20100101 Firefox/81.0",158,"[0.9, 0.5, 0.1]","[0.8, 0.4, 0.2]","[u'black', u'blue', u'red']","[u'left', u'middle', u'right']","[0.8, 0.4, 0.2]","[u'medium', u'high', u'low']","black",49,"left","medium","False","False",1180,7850,NA
"A19UBZFVUWL1ES","Mon Oct 26 2020 15:19:54 GMT-0400 (Eastern Daylight Time)","Mon Oct 26 2020 15:26:41 GMT-0400 (Eastern Daylight Time)","Mozilla/5.0 (Macintosh; Intel Mac OS X 10.14; rv:81.0) Gecko/20100101 Firefox/81.0",159,"[0.9, 0.5, 0.1]","[0.8, 0.4, 0.2]","[u'black', u'blue', u'red']","[u'left', u'middle', u'right']","[0.8, 0.4, 0.2]","[u'medium', u'high', u'low']","red",51,"right","low","False","False",649,7800,NA
"A19UBZFVUWL1ES","Mon Oct 26 2020 15:19:54 GMT-0400 (Eastern Daylight Time)","Mon Oct 26 2020 15:26:41 GMT-0400 (Eastern Daylight Time)","Mozilla/5.0 (Macintosh; Intel Mac OS X 10.14; rv:81.0) Gecko/20100101 Firefox/81.0",160,"[0.9, 0.5, 0.1]","[0.8, 0.4, 0.2]","[u'black', u'blue', u'red']","[u'left', u'middle', u'right']","[0.8, 0.4, 0.2]","[u'medium', u'high', u'low']","blue",50,"middle","high","True","False",399,7900,NA
