"src_subject_id","start_time","end_time","browser","index","first_half_probabilities","second_half_probabilities","deck_color","deck_position","deck_probabilities","deck_contingencies","response_color","key_press","response_position","response_probability","reward_type","trial_type","rt","reward_tally","exclusion_reason"
"ACKG8OU1KHKO2","Mon Oct 26 2020 16:32:42 GMT-0400 (Eastern Daylight Time)","Mon Oct 26 2020 16:39:58 GMT-0400 (Eastern Daylight Time)","Mozilla/5.0 (Macintosh; Intel Mac OS X 10_15_7) AppleWebKit/537.36 (KHTML, like Gecko) Chrome/86.0.4240.80 Safari/537.36",1,"[0.9, 0.5, 0.1]","[0.8, 0.4, 0.2]","[u'black', u'blue', u'red']","[u'left', u'middle', u'right']","[0.9, 0.5, 0.1]","[u'low', u'high', u'medium']","black",49,"left","low","False","False",547,-50,NA
"ACKG8OU1KHKO2","Mon Oct 26 2020 16:32:42 GMT-0400 (Eastern Daylight Time)","Mon Oct 26 2020 16:39:58 GMT-0400 (Eastern Daylight Time)","Mozilla/5.0 (Macintosh; Intel Mac OS X 10_15_7) AppleWebKit/537.36 (KHTML, like Gecko) Chrome/86.0.4240.80 Safari/537.36",2,"[0.9, 0.5, 0.1]","[0.8, 0.4, 0.2]","[u'black', u'blue', u'red']","[u'left', u'middle', u'right']","[0.9, 0.5, 0.1]","[u'low', u'high', u'medium']","black",49,"left","low","False","False",709,-100,NA
"ACKG8OU1KHKO2","Mon Oct 26 2020 16:32:42 GMT-0400 (Eastern Daylight Time)","Mon Oct 26 2020 16:39:58 GMT-0400 (Eastern Daylight Time)","Mozilla/5.0 (Macintosh; Intel Mac OS X 10_15_7) AppleWebKit/537.36 (KHTML, like Gecko) Chrome/86.0.4240.80 Safari/537.36",3,"[0.9, 0.5, 0.1]","[0.8, 0.4, 0.2]","[u'black', u'blue', u'red']","[u'left', u'middle', u'right']","[0.9, 0.5, 0.1]","[u'low', u'high', u'medium']","blue",50,"middle","high","True","False",903,0,NA
"ACKG8OU1KHKO2","Mon Oct 26 2020 16:32:42 GMT-0400 (Eastern Daylight Time)","Mon Oct 26 2020 16:39:58 GMT-0400 (Eastern Daylight Time)","Mozilla/5.0 (Macintosh; Intel Mac OS X 10_15_7) AppleWebKit/537.36 (KHTML, like Gecko) Chrome/86.0.4240.80 Safari/537.36",4,"[0.9, 0.5, 0.1]","[0.8, 0.4, 0.2]","[u'black', u'blue', u'red']","[u'left', u'middle', u'right']","[0.9, 0.5, 0.1]","[u'low', u'high', u'medium']","blue",50,"middle","high","True","False",350,100,NA
"ACKG8OU1KHKO2","Mon Oct 26 2020 16:32:42 GMT-0400 (Eastern Daylight Time)","Mon Oct 26 2020 16:39:58 GMT-0400 (Eastern Daylight Time)","Mozilla/5.0 (Macintosh; Intel Mac OS X 10_15_7) AppleWebKit/537.36 (KHTML, like Gecko) Chrome/86.0.4240.80 Safari/537.36",5,"[0.9, 0.5, 0.1]","[0.8, 0.4, 0.2]","[u'black', u'blue', u'red']","[u'left', u'middle', u'right']","[0.9, 0.5, 0.1]","[u'low', u'high', u'medium']","blue",50,"middle","high","True","False",343,200,NA
"ACKG8OU1KHKO2","Mon Oct 26 2020 16:32:42 GMT-0400 (Eastern Daylight Time)","Mon Oct 26 2020 16:39:58 GMT-0400 (Eastern Daylight Time)","Mozilla/5.0 (Macintosh; Intel Mac OS X 10_15_7) AppleWebKit/537.36 (KHTML, like Gecko) Chrome/86.0.4240.80 Safari/537.36",6,"[0.9, 0.5, 0.1]","[0.8, 0.4, 0.2]","[u'black', u'blue', u'red']","[u'left', u'middle', u'right']","[0.9, 0.5, 0.1]","[u'low', u'high', u'medium']","blue",50,"middle","high","True","False",302,300,NA
"ACKG8OU1KHKO2","Mon Oct 26 2020 16:32:42 GMT-0400 (Eastern Daylight Time)","Mon Oct 26 2020 16:39:58 GMT-0400 (Eastern Daylight Time)","Mozilla/5.0 (Macintosh; Intel Mac OS X 10_15_7) AppleWebKit/537.36 (KHTML, like Gecko) Chrome/86.0.4240.80 Safari/537.36",7,"[0.9, 0.5, 0.1]","[0.8, 0.4, 0.2]","[u'black', u'blue', u'red']","[u'left', u'middle', u'right']","[0.9, 0.5, 0.1]","[u'low', u'high', u'medium']","blue",50,"middle","high","True","False",256,400,NA
"ACKG8OU1KHKO2","Mon Oct 26 2020 16:32:42 GMT-0400 (Eastern Daylight Time)","Mon Oct 26 2020 16:39:58 GMT-0400 (Eastern Daylight Time)","Mozilla/5.0 (Macintosh; Intel Mac OS X 10_15_7) AppleWebKit/537.36 (KHTML, like Gecko) Chrome/86.0.4240.80 Safari/537.36",8,"[0.9, 0.5, 0.1]","[0.8, 0.4, 0.2]","[u'black', u'blue', u'red']","[u'left', u'middle', u'right']","[0.9, 0.5, 0.1]","[u'low', u'high', u'medium']","blue",50,"middle","high","True","False",282,500,NA
"ACKG8OU1KHKO2","Mon Oct 26 2020 16:32:42 GMT-0400 (Eastern Daylight Time)","Mon Oct 26 2020 16:39:58 GMT-0400 (Eastern Daylight Time)","Mozilla/5.0 (Macintosh; Intel Mac OS X 10_15_7) AppleWebKit/537.36 (KHTML, like Gecko) Chrome/86.0.4240.80 Safari/537.36",9,"[0.9, 0.5, 0.1]","[0.8, 0.4, 0.2]","[u'black', u'blue', u'red']","[u'left', u'middle', u'right']","[0.9, 0.5, 0.1]","[u'low', u'high', u'medium']","blue",50,"middle","high","True","False",269,600,NA
"ACKG8OU1KHKO2","Mon Oct 26 2020 16:32:42 GMT-0400 (Eastern Daylight Time)","Mon Oct 26 2020 16:39:58 GMT-0400 (Eastern Daylight Time)","Mozilla/5.0 (Macintosh; Intel Mac OS X 10_15_7) AppleWebKit/537.36 (KHTML, like Gecko) Chrome/86.0.4240.80 Safari/537.36",10,"[0.9, 0.5, 0.1]","[0.8, 0.4, 0.2]","[u'black', u'blue', u'red']","[u'left', u'middle', u'right']","[0.9, 0.5, 0.1]","[u'low', u'high', u'medium']","blue",50,"middle","high","True","False",302,700,NA
"ACKG8OU1KHKO2","Mon Oct 26 2020 16:32:42 GMT-0400 (Eastern Daylight Time)","Mon Oct 26 2020 16:39:58 GMT-0400 (Eastern Daylight Time)","Mozilla/5.0 (Macintosh; Intel Mac OS X 10_15_7) AppleWebKit/537.36 (KHTML, like Gecko) Chrome/86.0.4240.80 Safari/537.36",11,"[0.9, 0.5, 0.1]","[0.8, 0.4, 0.2]","[u'black', u'blue', u'red']","[u'left', u'middle', u'right']","[0.9, 0.5, 0.1]","[u'low', u'high', u'medium']","blue",50,"middle","high","True","True",1408,800,NA
"ACKG8OU1KHKO2","Mon Oct 26 2020 16:32:42 GMT-0400 (Eastern Daylight Time)","Mon Oct 26 2020 16:39:58 GMT-0400 (Eastern Daylight Time)","Mozilla/5.0 (Macintosh; Intel Mac OS X 10_15_7) AppleWebKit/537.36 (KHTML, like Gecko) Chrome/86.0.4240.80 Safari/537.36",12,"[0.9, 0.5, 0.1]","[0.8, 0.4, 0.2]","[u'black', u'blue', u'red']","[u'left', u'middle', u'right']","[0.9, 0.5, 0.1]","[u'low', u'medium', u'high']","blue",50,"middle","medium","False","False",380,750,NA
"ACKG8OU1KHKO2","Mon Oct 26 2020 16:32:42 GMT-0400 (Eastern Daylight Time)","Mon Oct 26 2020 16:39:58 GMT-0400 (Eastern Daylight Time)","Mozilla/5.0 (Macintosh; Intel Mac OS X 10_15_7) AppleWebKit/537.36 (KHTML, like Gecko) Chrome/86.0.4240.80 Safari/537.36",13,"[0.9, 0.5, 0.1]","[0.8, 0.4, 0.2]","[u'black', u'blue', u'red']","[u'left', u'middle', u'right']","[0.9, 0.5, 0.1]","[u'low', u'medium', u'high']","red",51,"right","high","True","False",365,850,NA
"ACKG8OU1KHKO2","Mon Oct 26 2020 16:32:42 GMT-0400 (Eastern Daylight Time)","Mon Oct 26 2020 16:39:58 GMT-0400 (Eastern Daylight Time)","Mozilla/5.0 (Macintosh; Intel Mac OS X 10_15_7) AppleWebKit/537.36 (KHTML, like Gecko) Chrome/86.0.4240.80 Safari/537.36",14,"[0.9, 0.5, 0.1]","[0.8, 0.4, 0.2]","[u'black', u'blue', u'red']","[u'left', u'middle', u'right']","[0.9, 0.5, 0.1]","[u'low', u'medium', u'high']","red",51,"right","high","True","False",299,950,NA
"ACKG8OU1KHKO2","Mon Oct 26 2020 16:32:42 GMT-0400 (Eastern Daylight Time)","Mon Oct 26 2020 16:39:58 GMT-0400 (Eastern Daylight Time)","Mozilla/5.0 (Macintosh; Intel Mac OS X 10_15_7) AppleWebKit/537.36 (KHTML, like Gecko) Chrome/86.0.4240.80 Safari/537.36",15,"[0.9, 0.5, 0.1]","[0.8, 0.4, 0.2]","[u'black', u'blue', u'red']","[u'left', u'middle', u'right']","[0.9, 0.5, 0.1]","[u'low', u'medium', u'high']","red",51,"right","high","True","False",475,1050,NA
"ACKG8OU1KHKO2","Mon Oct 26 2020 16:32:42 GMT-0400 (Eastern Daylight Time)","Mon Oct 26 2020 16:39:58 GMT-0400 (Eastern Daylight Time)","Mozilla/5.0 (Macintosh; Intel Mac OS X 10_15_7) AppleWebKit/537.36 (KHTML, like Gecko) Chrome/86.0.4240.80 Safari/537.36",16,"[0.9, 0.5, 0.1]","[0.8, 0.4, 0.2]","[u'black', u'blue', u'red']","[u'left', u'middle', u'right']","[0.9, 0.5, 0.1]","[u'low', u'medium', u'high']","red",51,"right","high","True","False",318,1150,NA
"ACKG8OU1KHKO2","Mon Oct 26 2020 16:32:42 GMT-0400 (Eastern Daylight Time)","Mon Oct 26 2020 16:39:58 GMT-0400 (Eastern Daylight Time)","Mozilla/5.0 (Macintosh; Intel Mac OS X 10_15_7) AppleWebKit/537.36 (KHTML, like Gecko) Chrome/86.0.4240.80 Safari/537.36",17,"[0.9, 0.5, 0.1]","[0.8, 0.4, 0.2]","[u'black', u'blue', u'red']","[u'left', u'middle', u'right']","[0.9, 0.5, 0.1]","[u'low', u'medium', u'high']","red",51,"right","high","True","False",320,1250,NA
"ACKG8OU1KHKO2","Mon Oct 26 2020 16:32:42 GMT-0400 (Eastern Daylight Time)","Mon Oct 26 2020 16:39:58 GMT-0400 (Eastern Daylight Time)","Mozilla/5.0 (Macintosh; Intel Mac OS X 10_15_7) AppleWebKit/537.36 (KHTML, like Gecko) Chrome/86.0.4240.80 Safari/537.36",18,"[0.9, 0.5, 0.1]","[0.8, 0.4, 0.2]","[u'black', u'blue', u'red']","[u'left', u'middle', u'right']","[0.9, 0.5, 0.1]","[u'low', u'medium', u'high']","red",51,"right","high","False","False",71,1200,NA
"ACKG8OU1KHKO2","Mon Oct 26 2020 16:32:42 GMT-0400 (Eastern Daylight Time)","Mon Oct 26 2020 16:39:58 GMT-0400 (Eastern Daylight Time)","Mozilla/5.0 (Macintosh; Intel Mac OS X 10_15_7) AppleWebKit/537.36 (KHTML, like Gecko) Chrome/86.0.4240.80 Safari/537.36",19,"[0.9, 0.5, 0.1]","[0.8, 0.4, 0.2]","[u'black', u'blue', u'red']","[u'left', u'middle', u'right']","[0.9, 0.5, 0.1]","[u'low', u'medium', u'high']","black",49,"left","low","False","False",8,1150,NA
"ACKG8OU1KHKO2","Mon Oct 26 2020 16:32:42 GMT-0400 (Eastern Daylight Time)","Mon Oct 26 2020 16:39:58 GMT-0400 (Eastern Daylight Time)","Mozilla/5.0 (Macintosh; Intel Mac OS X 10_15_7) AppleWebKit/537.36 (KHTML, like Gecko) Chrome/86.0.4240.80 Safari/537.36",20,"[0.9, 0.5, 0.1]","[0.8, 0.4, 0.2]","[u'black', u'blue', u'red']","[u'left', u'middle', u'right']","[0.9, 0.5, 0.1]","[u'low', u'medium', u'high']","blue",50,"middle","medium","True","False",305,1250,NA
"ACKG8OU1KHKO2","Mon Oct 26 2020 16:32:42 GMT-0400 (Eastern Daylight Time)","Mon Oct 26 2020 16:39:58 GMT-0400 (Eastern Daylight Time)","Mozilla/5.0 (Macintosh; Intel Mac OS X 10_15_7) AppleWebKit/537.36 (KHTML, like Gecko) Chrome/86.0.4240.80 Safari/537.36",21,"[0.9, 0.5, 0.1]","[0.8, 0.4, 0.2]","[u'black', u'blue', u'red']","[u'left', u'middle', u'right']","[0.9, 0.5, 0.1]","[u'low', u'medium', u'high']","blue",50,"middle","medium","False","False",125,1200,NA
"ACKG8OU1KHKO2","Mon Oct 26 2020 16:32:42 GMT-0400 (Eastern Daylight Time)","Mon Oct 26 2020 16:39:58 GMT-0400 (Eastern Daylight Time)","Mozilla/5.0 (Macintosh; Intel Mac OS X 10_15_7) AppleWebKit/537.36 (KHTML, like Gecko) Chrome/86.0.4240.80 Safari/537.36",22,"[0.9, 0.5, 0.1]","[0.8, 0.4, 0.2]","[u'black', u'blue', u'red']","[u'left', u'middle', u'right']","[0.9, 0.5, 0.1]","[u'low', u'medium', u'high']","red",51,"right","high","True","False",30,1300,NA
"ACKG8OU1KHKO2","Mon Oct 26 2020 16:32:42 GMT-0400 (Eastern Daylight Time)","Mon Oct 26 2020 16:39:58 GMT-0400 (Eastern Daylight Time)","Mozilla/5.0 (Macintosh; Intel Mac OS X 10_15_7) AppleWebKit/537.36 (KHTML, like Gecko) Chrome/86.0.4240.80 Safari/537.36",23,"[0.9, 0.5, 0.1]","[0.8, 0.4, 0.2]","[u'black', u'blue', u'red']","[u'left', u'middle', u'right']","[0.9, 0.5, 0.1]","[u'low', u'medium', u'high']","red",51,"right","high","True","False",54,1400,NA
"ACKG8OU1KHKO2","Mon Oct 26 2020 16:32:42 GMT-0400 (Eastern Daylight Time)","Mon Oct 26 2020 16:39:58 GMT-0400 (Eastern Daylight Time)","Mozilla/5.0 (Macintosh; Intel Mac OS X 10_15_7) AppleWebKit/537.36 (KHTML, like Gecko) Chrome/86.0.4240.80 Safari/537.36",24,"[0.9, 0.5, 0.1]","[0.8, 0.4, 0.2]","[u'black', u'blue', u'red']","[u'left', u'middle', u'right']","[0.9, 0.5, 0.1]","[u'low', u'medium', u'high']","red",51,"right","high","True","False",169,1500,NA
"ACKG8OU1KHKO2","Mon Oct 26 2020 16:32:42 GMT-0400 (Eastern Daylight Time)","Mon Oct 26 2020 16:39:58 GMT-0400 (Eastern Daylight Time)","Mozilla/5.0 (Macintosh; Intel Mac OS X 10_15_7) AppleWebKit/537.36 (KHTML, like Gecko) Chrome/86.0.4240.80 Safari/537.36",25,"[0.9, 0.5, 0.1]","[0.8, 0.4, 0.2]","[u'black', u'blue', u'red']","[u'left', u'middle', u'right']","[0.9, 0.5, 0.1]","[u'low', u'medium', u'high']","red",51,"right","high","True","False",770,1600,NA
"ACKG8OU1KHKO2","Mon Oct 26 2020 16:32:42 GMT-0400 (Eastern Daylight Time)","Mon Oct 26 2020 16:39:58 GMT-0400 (Eastern Daylight Time)","Mozilla/5.0 (Macintosh; Intel Mac OS X 10_15_7) AppleWebKit/537.36 (KHTML, like Gecko) Chrome/86.0.4240.80 Safari/537.36",26,"[0.9, 0.5, 0.1]","[0.8, 0.4, 0.2]","[u'black', u'blue', u'red']","[u'left', u'middle', u'right']","[0.9, 0.5, 0.1]","[u'low', u'medium', u'high']","red",51,"right","high","True","False",244,1700,NA
"ACKG8OU1KHKO2","Mon Oct 26 2020 16:32:42 GMT-0400 (Eastern Daylight Time)","Mon Oct 26 2020 16:39:58 GMT-0400 (Eastern Daylight Time)","Mozilla/5.0 (Macintosh; Intel Mac OS X 10_15_7) AppleWebKit/537.36 (KHTML, like Gecko) Chrome/86.0.4240.80 Safari/537.36",27,"[0.9, 0.5, 0.1]","[0.8, 0.4, 0.2]","[u'black', u'blue', u'red']","[u'left', u'middle', u'right']","[0.9, 0.5, 0.1]","[u'low', u'medium', u'high']","red",51,"right","high","True","False",123,1800,NA
"ACKG8OU1KHKO2","Mon Oct 26 2020 16:32:42 GMT-0400 (Eastern Daylight Time)","Mon Oct 26 2020 16:39:58 GMT-0400 (Eastern Daylight Time)","Mozilla/5.0 (Macintosh; Intel Mac OS X 10_15_7) AppleWebKit/537.36 (KHTML, like Gecko) Chrome/86.0.4240.80 Safari/537.36",28,"[0.9, 0.5, 0.1]","[0.8, 0.4, 0.2]","[u'black', u'blue', u'red']","[u'left', u'middle', u'right']","[0.9, 0.5, 0.1]","[u'low', u'medium', u'high']","red",51,"right","high","True","False",205,1900,NA
"ACKG8OU1KHKO2","Mon Oct 26 2020 16:32:42 GMT-0400 (Eastern Daylight Time)","Mon Oct 26 2020 16:39:58 GMT-0400 (Eastern Daylight Time)","Mozilla/5.0 (Macintosh; Intel Mac OS X 10_15_7) AppleWebKit/537.36 (KHTML, like Gecko) Chrome/86.0.4240.80 Safari/537.36",29,"[0.9, 0.5, 0.1]","[0.8, 0.4, 0.2]","[u'black', u'blue', u'red']","[u'left', u'middle', u'right']","[0.9, 0.5, 0.1]","[u'low', u'medium', u'high']","red",51,"right","high","True","False",195,2000,NA
"ACKG8OU1KHKO2","Mon Oct 26 2020 16:32:42 GMT-0400 (Eastern Daylight Time)","Mon Oct 26 2020 16:39:58 GMT-0400 (Eastern Daylight Time)","Mozilla/5.0 (Macintosh; Intel Mac OS X 10_15_7) AppleWebKit/537.36 (KHTML, like Gecko) Chrome/86.0.4240.80 Safari/537.36",30,"[0.9, 0.5, 0.1]","[0.8, 0.4, 0.2]","[u'black', u'blue', u'red']","[u'left', u'middle', u'right']","[0.9, 0.5, 0.1]","[u'low', u'medium', u'high']","red",51,"right","high","True","True",3189,2100,NA
"ACKG8OU1KHKO2","Mon Oct 26 2020 16:32:42 GMT-0400 (Eastern Daylight Time)","Mon Oct 26 2020 16:39:58 GMT-0400 (Eastern Daylight Time)","Mozilla/5.0 (Macintosh; Intel Mac OS X 10_15_7) AppleWebKit/537.36 (KHTML, like Gecko) Chrome/86.0.4240.80 Safari/537.36",31,"[0.9, 0.5, 0.1]","[0.8, 0.4, 0.2]","[u'black', u'blue', u'red']","[u'left', u'middle', u'right']","[0.9, 0.5, 0.1]","[u'high', u'medium', u'low']","red",51,"right","low","False","False",296,2050,NA
"ACKG8OU1KHKO2","Mon Oct 26 2020 16:32:42 GMT-0400 (Eastern Daylight Time)","Mon Oct 26 2020 16:39:58 GMT-0400 (Eastern Daylight Time)","Mozilla/5.0 (Macintosh; Intel Mac OS X 10_15_7) AppleWebKit/537.36 (KHTML, like Gecko) Chrome/86.0.4240.80 Safari/537.36",32,"[0.9, 0.5, 0.1]","[0.8, 0.4, 0.2]","[u'black', u'blue', u'red']","[u'left', u'middle', u'right']","[0.9, 0.5, 0.1]","[u'high', u'medium', u'low']","black",49,"left","high","True","False",192,2150,NA
"ACKG8OU1KHKO2","Mon Oct 26 2020 16:32:42 GMT-0400 (Eastern Daylight Time)","Mon Oct 26 2020 16:39:58 GMT-0400 (Eastern Daylight Time)","Mozilla/5.0 (Macintosh; Intel Mac OS X 10_15_7) AppleWebKit/537.36 (KHTML, like Gecko) Chrome/86.0.4240.80 Safari/537.36",33,"[0.9, 0.5, 0.1]","[0.8, 0.4, 0.2]","[u'black', u'blue', u'red']","[u'left', u'middle', u'right']","[0.9, 0.5, 0.1]","[u'high', u'medium', u'low']","black",49,"left","high","True","False",84,2250,NA
"ACKG8OU1KHKO2","Mon Oct 26 2020 16:32:42 GMT-0400 (Eastern Daylight Time)","Mon Oct 26 2020 16:39:58 GMT-0400 (Eastern Daylight Time)","Mozilla/5.0 (Macintosh; Intel Mac OS X 10_15_7) AppleWebKit/537.36 (KHTML, like Gecko) Chrome/86.0.4240.80 Safari/537.36",34,"[0.9, 0.5, 0.1]","[0.8, 0.4, 0.2]","[u'black', u'blue', u'red']","[u'left', u'middle', u'right']","[0.9, 0.5, 0.1]","[u'high', u'medium', u'low']","black",49,"left","high","True","False",438,2350,NA
"ACKG8OU1KHKO2","Mon Oct 26 2020 16:32:42 GMT-0400 (Eastern Daylight Time)","Mon Oct 26 2020 16:39:58 GMT-0400 (Eastern Daylight Time)","Mozilla/5.0 (Macintosh; Intel Mac OS X 10_15_7) AppleWebKit/537.36 (KHTML, like Gecko) Chrome/86.0.4240.80 Safari/537.36",35,"[0.9, 0.5, 0.1]","[0.8, 0.4, 0.2]","[u'black', u'blue', u'red']","[u'left', u'middle', u'right']","[0.9, 0.5, 0.1]","[u'high', u'medium', u'low']","black",49,"left","high","True","False",418,2450,NA
"ACKG8OU1KHKO2","Mon Oct 26 2020 16:32:42 GMT-0400 (Eastern Daylight Time)","Mon Oct 26 2020 16:39:58 GMT-0400 (Eastern Daylight Time)","Mozilla/5.0 (Macintosh; Intel Mac OS X 10_15_7) AppleWebKit/537.36 (KHTML, like Gecko) Chrome/86.0.4240.80 Safari/537.36",36,"[0.9, 0.5, 0.1]","[0.8, 0.4, 0.2]","[u'black', u'blue', u'red']","[u'left', u'middle', u'right']","[0.9, 0.5, 0.1]","[u'high', u'medium', u'low']","black",49,"left","high","True","False",686,2550,NA
"ACKG8OU1KHKO2","Mon Oct 26 2020 16:32:42 GMT-0400 (Eastern Daylight Time)","Mon Oct 26 2020 16:39:58 GMT-0400 (Eastern Daylight Time)","Mozilla/5.0 (Macintosh; Intel Mac OS X 10_15_7) AppleWebKit/537.36 (KHTML, like Gecko) Chrome/86.0.4240.80 Safari/537.36",37,"[0.9, 0.5, 0.1]","[0.8, 0.4, 0.2]","[u'black', u'blue', u'red']","[u'left', u'middle', u'right']","[0.9, 0.5, 0.1]","[u'high', u'medium', u'low']","black",49,"left","high","True","False",334,2650,NA
"ACKG8OU1KHKO2","Mon Oct 26 2020 16:32:42 GMT-0400 (Eastern Daylight Time)","Mon Oct 26 2020 16:39:58 GMT-0400 (Eastern Daylight Time)","Mozilla/5.0 (Macintosh; Intel Mac OS X 10_15_7) AppleWebKit/537.36 (KHTML, like Gecko) Chrome/86.0.4240.80 Safari/537.36",38,"[0.9, 0.5, 0.1]","[0.8, 0.4, 0.2]","[u'black', u'blue', u'red']","[u'left', u'middle', u'right']","[0.9, 0.5, 0.1]","[u'high', u'medium', u'low']","black",49,"left","high","True","False",695,2750,NA
"ACKG8OU1KHKO2","Mon Oct 26 2020 16:32:42 GMT-0400 (Eastern Daylight Time)","Mon Oct 26 2020 16:39:58 GMT-0400 (Eastern Daylight Time)","Mozilla/5.0 (Macintosh; Intel Mac OS X 10_15_7) AppleWebKit/537.36 (KHTML, like Gecko) Chrome/86.0.4240.80 Safari/537.36",39,"[0.9, 0.5, 0.1]","[0.8, 0.4, 0.2]","[u'black', u'blue', u'red']","[u'left', u'middle', u'right']","[0.9, 0.5, 0.1]","[u'high', u'medium', u'low']","black",49,"left","high","True","False",927,2850,NA
"ACKG8OU1KHKO2","Mon Oct 26 2020 16:32:42 GMT-0400 (Eastern Daylight Time)","Mon Oct 26 2020 16:39:58 GMT-0400 (Eastern Daylight Time)","Mozilla/5.0 (Macintosh; Intel Mac OS X 10_15_7) AppleWebKit/537.36 (KHTML, like Gecko) Chrome/86.0.4240.80 Safari/537.36",40,"[0.9, 0.5, 0.1]","[0.8, 0.4, 0.2]","[u'black', u'blue', u'red']","[u'left', u'middle', u'right']","[0.9, 0.5, 0.1]","[u'high', u'medium', u'low']","black",49,"left","high","True","True",69,2950,NA
"ACKG8OU1KHKO2","Mon Oct 26 2020 16:32:42 GMT-0400 (Eastern Daylight Time)","Mon Oct 26 2020 16:39:58 GMT-0400 (Eastern Daylight Time)","Mozilla/5.0 (Macintosh; Intel Mac OS X 10_15_7) AppleWebKit/537.36 (KHTML, like Gecko) Chrome/86.0.4240.80 Safari/537.36",41,"[0.9, 0.5, 0.1]","[0.8, 0.4, 0.2]","[u'black', u'blue', u'red']","[u'left', u'middle', u'right']","[0.9, 0.5, 0.1]","[u'low', u'high', u'medium']","black",49,"left","low","False","False",355,2900,NA
"ACKG8OU1KHKO2","Mon Oct 26 2020 16:32:42 GMT-0400 (Eastern Daylight Time)","Mon Oct 26 2020 16:39:58 GMT-0400 (Eastern Daylight Time)","Mozilla/5.0 (Macintosh; Intel Mac OS X 10_15_7) AppleWebKit/537.36 (KHTML, like Gecko) Chrome/86.0.4240.80 Safari/537.36",42,"[0.9, 0.5, 0.1]","[0.8, 0.4, 0.2]","[u'black', u'blue', u'red']","[u'left', u'middle', u'right']","[0.9, 0.5, 0.1]","[u'low', u'high', u'medium']","blue",50,"middle","high","True","False",62,3000,NA
"ACKG8OU1KHKO2","Mon Oct 26 2020 16:32:42 GMT-0400 (Eastern Daylight Time)","Mon Oct 26 2020 16:39:58 GMT-0400 (Eastern Daylight Time)","Mozilla/5.0 (Macintosh; Intel Mac OS X 10_15_7) AppleWebKit/537.36 (KHTML, like Gecko) Chrome/86.0.4240.80 Safari/537.36",43,"[0.9, 0.5, 0.1]","[0.8, 0.4, 0.2]","[u'black', u'blue', u'red']","[u'left', u'middle', u'right']","[0.9, 0.5, 0.1]","[u'low', u'high', u'medium']","blue",50,"middle","high","True","False",3178,3100,NA
"ACKG8OU1KHKO2","Mon Oct 26 2020 16:32:42 GMT-0400 (Eastern Daylight Time)","Mon Oct 26 2020 16:39:58 GMT-0400 (Eastern Daylight Time)","Mozilla/5.0 (Macintosh; Intel Mac OS X 10_15_7) AppleWebKit/537.36 (KHTML, like Gecko) Chrome/86.0.4240.80 Safari/537.36",44,"[0.9, 0.5, 0.1]","[0.8, 0.4, 0.2]","[u'black', u'blue', u'red']","[u'left', u'middle', u'right']","[0.9, 0.5, 0.1]","[u'low', u'high', u'medium']","blue",50,"middle","high","True","False",655,3200,NA
"ACKG8OU1KHKO2","Mon Oct 26 2020 16:32:42 GMT-0400 (Eastern Daylight Time)","Mon Oct 26 2020 16:39:58 GMT-0400 (Eastern Daylight Time)","Mozilla/5.0 (Macintosh; Intel Mac OS X 10_15_7) AppleWebKit/537.36 (KHTML, like Gecko) Chrome/86.0.4240.80 Safari/537.36",45,"[0.9, 0.5, 0.1]","[0.8, 0.4, 0.2]","[u'black', u'blue', u'red']","[u'left', u'middle', u'right']","[0.9, 0.5, 0.1]","[u'low', u'high', u'medium']","blue",50,"middle","high","False","False",162,3150,NA
"ACKG8OU1KHKO2","Mon Oct 26 2020 16:32:42 GMT-0400 (Eastern Daylight Time)","Mon Oct 26 2020 16:39:58 GMT-0400 (Eastern Daylight Time)","Mozilla/5.0 (Macintosh; Intel Mac OS X 10_15_7) AppleWebKit/537.36 (KHTML, like Gecko) Chrome/86.0.4240.80 Safari/537.36",46,"[0.9, 0.5, 0.1]","[0.8, 0.4, 0.2]","[u'black', u'blue', u'red']","[u'left', u'middle', u'right']","[0.9, 0.5, 0.1]","[u'low', u'high', u'medium']","blue",50,"middle","high","True","False",191,3250,NA
"ACKG8OU1KHKO2","Mon Oct 26 2020 16:32:42 GMT-0400 (Eastern Daylight Time)","Mon Oct 26 2020 16:39:58 GMT-0400 (Eastern Daylight Time)","Mozilla/5.0 (Macintosh; Intel Mac OS X 10_15_7) AppleWebKit/537.36 (KHTML, like Gecko) Chrome/86.0.4240.80 Safari/537.36",47,"[0.9, 0.5, 0.1]","[0.8, 0.4, 0.2]","[u'black', u'blue', u'red']","[u'left', u'middle', u'right']","[0.9, 0.5, 0.1]","[u'low', u'high', u'medium']","blue",50,"middle","high","True","False",1483,3350,NA
"ACKG8OU1KHKO2","Mon Oct 26 2020 16:32:42 GMT-0400 (Eastern Daylight Time)","Mon Oct 26 2020 16:39:58 GMT-0400 (Eastern Daylight Time)","Mozilla/5.0 (Macintosh; Intel Mac OS X 10_15_7) AppleWebKit/537.36 (KHTML, like Gecko) Chrome/86.0.4240.80 Safari/537.36",48,"[0.9, 0.5, 0.1]","[0.8, 0.4, 0.2]","[u'black', u'blue', u'red']","[u'left', u'middle', u'right']","[0.9, 0.5, 0.1]","[u'low', u'high', u'medium']","blue",50,"middle","high","False","False",239,3300,NA
"ACKG8OU1KHKO2","Mon Oct 26 2020 16:32:42 GMT-0400 (Eastern Daylight Time)","Mon Oct 26 2020 16:39:58 GMT-0400 (Eastern Daylight Time)","Mozilla/5.0 (Macintosh; Intel Mac OS X 10_15_7) AppleWebKit/537.36 (KHTML, like Gecko) Chrome/86.0.4240.80 Safari/537.36",49,"[0.9, 0.5, 0.1]","[0.8, 0.4, 0.2]","[u'black', u'blue', u'red']","[u'left', u'middle', u'right']","[0.9, 0.5, 0.1]","[u'low', u'high', u'medium']","blue",50,"middle","high","True","False",2978,3400,NA
"ACKG8OU1KHKO2","Mon Oct 26 2020 16:32:42 GMT-0400 (Eastern Daylight Time)","Mon Oct 26 2020 16:39:58 GMT-0400 (Eastern Daylight Time)","Mozilla/5.0 (Macintosh; Intel Mac OS X 10_15_7) AppleWebKit/537.36 (KHTML, like Gecko) Chrome/86.0.4240.80 Safari/537.36",50,"[0.9, 0.5, 0.1]","[0.8, 0.4, 0.2]","[u'black', u'blue', u'red']","[u'left', u'middle', u'right']","[0.9, 0.5, 0.1]","[u'low', u'high', u'medium']","blue",50,"middle","high","True","True",119,3500,NA
"ACKG8OU1KHKO2","Mon Oct 26 2020 16:32:42 GMT-0400 (Eastern Daylight Time)","Mon Oct 26 2020 16:39:58 GMT-0400 (Eastern Daylight Time)","Mozilla/5.0 (Macintosh; Intel Mac OS X 10_15_7) AppleWebKit/537.36 (KHTML, like Gecko) Chrome/86.0.4240.80 Safari/537.36",51,"[0.9, 0.5, 0.1]","[0.8, 0.4, 0.2]","[u'black', u'blue', u'red']","[u'left', u'middle', u'right']","[0.9, 0.5, 0.1]","[u'medium', u'low', u'high']","blue",50,"middle","low","False","False",101,3450,NA
"ACKG8OU1KHKO2","Mon Oct 26 2020 16:32:42 GMT-0400 (Eastern Daylight Time)","Mon Oct 26 2020 16:39:58 GMT-0400 (Eastern Daylight Time)","Mozilla/5.0 (Macintosh; Intel Mac OS X 10_15_7) AppleWebKit/537.36 (KHTML, like Gecko) Chrome/86.0.4240.80 Safari/537.36",52,"[0.9, 0.5, 0.1]","[0.8, 0.4, 0.2]","[u'black', u'blue', u'red']","[u'left', u'middle', u'right']","[0.9, 0.5, 0.1]","[u'medium', u'low', u'high']","red",51,"right","high","True","False",668,3550,NA
"ACKG8OU1KHKO2","Mon Oct 26 2020 16:32:42 GMT-0400 (Eastern Daylight Time)","Mon Oct 26 2020 16:39:58 GMT-0400 (Eastern Daylight Time)","Mozilla/5.0 (Macintosh; Intel Mac OS X 10_15_7) AppleWebKit/537.36 (KHTML, like Gecko) Chrome/86.0.4240.80 Safari/537.36",53,"[0.9, 0.5, 0.1]","[0.8, 0.4, 0.2]","[u'black', u'blue', u'red']","[u'left', u'middle', u'right']","[0.9, 0.5, 0.1]","[u'medium', u'low', u'high']","red",51,"right","high","False","False",443,3500,NA
"ACKG8OU1KHKO2","Mon Oct 26 2020 16:32:42 GMT-0400 (Eastern Daylight Time)","Mon Oct 26 2020 16:39:58 GMT-0400 (Eastern Daylight Time)","Mozilla/5.0 (Macintosh; Intel Mac OS X 10_15_7) AppleWebKit/537.36 (KHTML, like Gecko) Chrome/86.0.4240.80 Safari/537.36",54,"[0.9, 0.5, 0.1]","[0.8, 0.4, 0.2]","[u'black', u'blue', u'red']","[u'left', u'middle', u'right']","[0.9, 0.5, 0.1]","[u'medium', u'low', u'high']","red",51,"right","high","True","False",99,3600,NA
"ACKG8OU1KHKO2","Mon Oct 26 2020 16:32:42 GMT-0400 (Eastern Daylight Time)","Mon Oct 26 2020 16:39:58 GMT-0400 (Eastern Daylight Time)","Mozilla/5.0 (Macintosh; Intel Mac OS X 10_15_7) AppleWebKit/537.36 (KHTML, like Gecko) Chrome/86.0.4240.80 Safari/537.36",55,"[0.9, 0.5, 0.1]","[0.8, 0.4, 0.2]","[u'black', u'blue', u'red']","[u'left', u'middle', u'right']","[0.9, 0.5, 0.1]","[u'medium', u'low', u'high']","red",51,"right","high","True","False",247,3700,NA
"ACKG8OU1KHKO2","Mon Oct 26 2020 16:32:42 GMT-0400 (Eastern Daylight Time)","Mon Oct 26 2020 16:39:58 GMT-0400 (Eastern Daylight Time)","Mozilla/5.0 (Macintosh; Intel Mac OS X 10_15_7) AppleWebKit/537.36 (KHTML, like Gecko) Chrome/86.0.4240.80 Safari/537.36",56,"[0.9, 0.5, 0.1]","[0.8, 0.4, 0.2]","[u'black', u'blue', u'red']","[u'left', u'middle', u'right']","[0.9, 0.5, 0.1]","[u'medium', u'low', u'high']","red",51,"right","high","False","False",1044,3650,NA
"ACKG8OU1KHKO2","Mon Oct 26 2020 16:32:42 GMT-0400 (Eastern Daylight Time)","Mon Oct 26 2020 16:39:58 GMT-0400 (Eastern Daylight Time)","Mozilla/5.0 (Macintosh; Intel Mac OS X 10_15_7) AppleWebKit/537.36 (KHTML, like Gecko) Chrome/86.0.4240.80 Safari/537.36",57,"[0.9, 0.5, 0.1]","[0.8, 0.4, 0.2]","[u'black', u'blue', u'red']","[u'left', u'middle', u'right']","[0.9, 0.5, 0.1]","[u'medium', u'low', u'high']","red",51,"right","high","True","False",216,3750,NA
"ACKG8OU1KHKO2","Mon Oct 26 2020 16:32:42 GMT-0400 (Eastern Daylight Time)","Mon Oct 26 2020 16:39:58 GMT-0400 (Eastern Daylight Time)","Mozilla/5.0 (Macintosh; Intel Mac OS X 10_15_7) AppleWebKit/537.36 (KHTML, like Gecko) Chrome/86.0.4240.80 Safari/537.36",58,"[0.9, 0.5, 0.1]","[0.8, 0.4, 0.2]","[u'black', u'blue', u'red']","[u'left', u'middle', u'right']","[0.9, 0.5, 0.1]","[u'medium', u'low', u'high']","red",51,"right","high","True","False",4251,3850,NA
"ACKG8OU1KHKO2","Mon Oct 26 2020 16:32:42 GMT-0400 (Eastern Daylight Time)","Mon Oct 26 2020 16:39:58 GMT-0400 (Eastern Daylight Time)","Mozilla/5.0 (Macintosh; Intel Mac OS X 10_15_7) AppleWebKit/537.36 (KHTML, like Gecko) Chrome/86.0.4240.80 Safari/537.36",59,"[0.9, 0.5, 0.1]","[0.8, 0.4, 0.2]","[u'black', u'blue', u'red']","[u'left', u'middle', u'right']","[0.9, 0.5, 0.1]","[u'medium', u'low', u'high']","red",51,"right","high","True","False",321,3950,NA
"ACKG8OU1KHKO2","Mon Oct 26 2020 16:32:42 GMT-0400 (Eastern Daylight Time)","Mon Oct 26 2020 16:39:58 GMT-0400 (Eastern Daylight Time)","Mozilla/5.0 (Macintosh; Intel Mac OS X 10_15_7) AppleWebKit/537.36 (KHTML, like Gecko) Chrome/86.0.4240.80 Safari/537.36",60,"[0.9, 0.5, 0.1]","[0.8, 0.4, 0.2]","[u'black', u'blue', u'red']","[u'left', u'middle', u'right']","[0.9, 0.5, 0.1]","[u'medium', u'low', u'high']","red",51,"right","high","False","True",353,3900,NA
"ACKG8OU1KHKO2","Mon Oct 26 2020 16:32:42 GMT-0400 (Eastern Daylight Time)","Mon Oct 26 2020 16:39:58 GMT-0400 (Eastern Daylight Time)","Mozilla/5.0 (Macintosh; Intel Mac OS X 10_15_7) AppleWebKit/537.36 (KHTML, like Gecko) Chrome/86.0.4240.80 Safari/537.36",61,"[0.9, 0.5, 0.1]","[0.8, 0.4, 0.2]","[u'black', u'blue', u'red']","[u'left', u'middle', u'right']","[0.9, 0.5, 0.1]","[u'low', u'high', u'medium']","red",51,"right","medium","False","False",532,3850,NA
"ACKG8OU1KHKO2","Mon Oct 26 2020 16:32:42 GMT-0400 (Eastern Daylight Time)","Mon Oct 26 2020 16:39:58 GMT-0400 (Eastern Daylight Time)","Mozilla/5.0 (Macintosh; Intel Mac OS X 10_15_7) AppleWebKit/537.36 (KHTML, like Gecko) Chrome/86.0.4240.80 Safari/537.36",62,"[0.9, 0.5, 0.1]","[0.8, 0.4, 0.2]","[u'black', u'blue', u'red']","[u'left', u'middle', u'right']","[0.9, 0.5, 0.1]","[u'low', u'high', u'medium']","red",51,"right","medium","True","False",99,3950,NA
"ACKG8OU1KHKO2","Mon Oct 26 2020 16:32:42 GMT-0400 (Eastern Daylight Time)","Mon Oct 26 2020 16:39:58 GMT-0400 (Eastern Daylight Time)","Mozilla/5.0 (Macintosh; Intel Mac OS X 10_15_7) AppleWebKit/537.36 (KHTML, like Gecko) Chrome/86.0.4240.80 Safari/537.36",63,"[0.9, 0.5, 0.1]","[0.8, 0.4, 0.2]","[u'black', u'blue', u'red']","[u'left', u'middle', u'right']","[0.9, 0.5, 0.1]","[u'low', u'high', u'medium']","red",51,"right","medium","False","False",358,3900,NA
"ACKG8OU1KHKO2","Mon Oct 26 2020 16:32:42 GMT-0400 (Eastern Daylight Time)","Mon Oct 26 2020 16:39:58 GMT-0400 (Eastern Daylight Time)","Mozilla/5.0 (Macintosh; Intel Mac OS X 10_15_7) AppleWebKit/537.36 (KHTML, like Gecko) Chrome/86.0.4240.80 Safari/537.36",64,"[0.9, 0.5, 0.1]","[0.8, 0.4, 0.2]","[u'black', u'blue', u'red']","[u'left', u'middle', u'right']","[0.9, 0.5, 0.1]","[u'low', u'high', u'medium']","black",49,"left","low","False","False",99,3850,NA
"ACKG8OU1KHKO2","Mon Oct 26 2020 16:32:42 GMT-0400 (Eastern Daylight Time)","Mon Oct 26 2020 16:39:58 GMT-0400 (Eastern Daylight Time)","Mozilla/5.0 (Macintosh; Intel Mac OS X 10_15_7) AppleWebKit/537.36 (KHTML, like Gecko) Chrome/86.0.4240.80 Safari/537.36",65,"[0.9, 0.5, 0.1]","[0.8, 0.4, 0.2]","[u'black', u'blue', u'red']","[u'left', u'middle', u'right']","[0.9, 0.5, 0.1]","[u'low', u'high', u'medium']","blue",50,"middle","high","True","False",52,3950,NA
"ACKG8OU1KHKO2","Mon Oct 26 2020 16:32:42 GMT-0400 (Eastern Daylight Time)","Mon Oct 26 2020 16:39:58 GMT-0400 (Eastern Daylight Time)","Mozilla/5.0 (Macintosh; Intel Mac OS X 10_15_7) AppleWebKit/537.36 (KHTML, like Gecko) Chrome/86.0.4240.80 Safari/537.36",66,"[0.9, 0.5, 0.1]","[0.8, 0.4, 0.2]","[u'black', u'blue', u'red']","[u'left', u'middle', u'right']","[0.9, 0.5, 0.1]","[u'low', u'high', u'medium']","blue",50,"middle","high","True","False",114,4050,NA
"ACKG8OU1KHKO2","Mon Oct 26 2020 16:32:42 GMT-0400 (Eastern Daylight Time)","Mon Oct 26 2020 16:39:58 GMT-0400 (Eastern Daylight Time)","Mozilla/5.0 (Macintosh; Intel Mac OS X 10_15_7) AppleWebKit/537.36 (KHTML, like Gecko) Chrome/86.0.4240.80 Safari/537.36",67,"[0.9, 0.5, 0.1]","[0.8, 0.4, 0.2]","[u'black', u'blue', u'red']","[u'left', u'middle', u'right']","[0.9, 0.5, 0.1]","[u'low', u'high', u'medium']","blue",50,"middle","high","False","False",209,4000,NA
"ACKG8OU1KHKO2","Mon Oct 26 2020 16:32:42 GMT-0400 (Eastern Daylight Time)","Mon Oct 26 2020 16:39:58 GMT-0400 (Eastern Daylight Time)","Mozilla/5.0 (Macintosh; Intel Mac OS X 10_15_7) AppleWebKit/537.36 (KHTML, like Gecko) Chrome/86.0.4240.80 Safari/537.36",68,"[0.9, 0.5, 0.1]","[0.8, 0.4, 0.2]","[u'black', u'blue', u'red']","[u'left', u'middle', u'right']","[0.9, 0.5, 0.1]","[u'low', u'high', u'medium']","blue",50,"middle","high","True","False",863,4100,NA
"ACKG8OU1KHKO2","Mon Oct 26 2020 16:32:42 GMT-0400 (Eastern Daylight Time)","Mon Oct 26 2020 16:39:58 GMT-0400 (Eastern Daylight Time)","Mozilla/5.0 (Macintosh; Intel Mac OS X 10_15_7) AppleWebKit/537.36 (KHTML, like Gecko) Chrome/86.0.4240.80 Safari/537.36",69,"[0.9, 0.5, 0.1]","[0.8, 0.4, 0.2]","[u'black', u'blue', u'red']","[u'left', u'middle', u'right']","[0.9, 0.5, 0.1]","[u'low', u'high', u'medium']","blue",50,"middle","high","True","False",482,4200,NA
"ACKG8OU1KHKO2","Mon Oct 26 2020 16:32:42 GMT-0400 (Eastern Daylight Time)","Mon Oct 26 2020 16:39:58 GMT-0400 (Eastern Daylight Time)","Mozilla/5.0 (Macintosh; Intel Mac OS X 10_15_7) AppleWebKit/537.36 (KHTML, like Gecko) Chrome/86.0.4240.80 Safari/537.36",70,"[0.9, 0.5, 0.1]","[0.8, 0.4, 0.2]","[u'black', u'blue', u'red']","[u'left', u'middle', u'right']","[0.9, 0.5, 0.1]","[u'low', u'high', u'medium']","blue",50,"middle","high","True","False",513,4300,NA
"ACKG8OU1KHKO2","Mon Oct 26 2020 16:32:42 GMT-0400 (Eastern Daylight Time)","Mon Oct 26 2020 16:39:58 GMT-0400 (Eastern Daylight Time)","Mozilla/5.0 (Macintosh; Intel Mac OS X 10_15_7) AppleWebKit/537.36 (KHTML, like Gecko) Chrome/86.0.4240.80 Safari/537.36",71,"[0.9, 0.5, 0.1]","[0.8, 0.4, 0.2]","[u'black', u'blue', u'red']","[u'left', u'middle', u'right']","[0.9, 0.5, 0.1]","[u'low', u'high', u'medium']","blue",50,"middle","high","True","False",162,4400,NA
"ACKG8OU1KHKO2","Mon Oct 26 2020 16:32:42 GMT-0400 (Eastern Daylight Time)","Mon Oct 26 2020 16:39:58 GMT-0400 (Eastern Daylight Time)","Mozilla/5.0 (Macintosh; Intel Mac OS X 10_15_7) AppleWebKit/537.36 (KHTML, like Gecko) Chrome/86.0.4240.80 Safari/537.36",72,"[0.9, 0.5, 0.1]","[0.8, 0.4, 0.2]","[u'black', u'blue', u'red']","[u'left', u'middle', u'right']","[0.9, 0.5, 0.1]","[u'low', u'high', u'medium']","blue",50,"middle","high","True","False",359,4500,NA
"ACKG8OU1KHKO2","Mon Oct 26 2020 16:32:42 GMT-0400 (Eastern Daylight Time)","Mon Oct 26 2020 16:39:58 GMT-0400 (Eastern Daylight Time)","Mozilla/5.0 (Macintosh; Intel Mac OS X 10_15_7) AppleWebKit/537.36 (KHTML, like Gecko) Chrome/86.0.4240.80 Safari/537.36",73,"[0.9, 0.5, 0.1]","[0.8, 0.4, 0.2]","[u'black', u'blue', u'red']","[u'left', u'middle', u'right']","[0.9, 0.5, 0.1]","[u'low', u'high', u'medium']","blue",50,"middle","high","True","True",1271,4600,NA
"ACKG8OU1KHKO2","Mon Oct 26 2020 16:32:42 GMT-0400 (Eastern Daylight Time)","Mon Oct 26 2020 16:39:58 GMT-0400 (Eastern Daylight Time)","Mozilla/5.0 (Macintosh; Intel Mac OS X 10_15_7) AppleWebKit/537.36 (KHTML, like Gecko) Chrome/86.0.4240.80 Safari/537.36",74,"[0.9, 0.5, 0.1]","[0.8, 0.4, 0.2]","[u'black', u'blue', u'red']","[u'left', u'middle', u'right']","[0.9, 0.5, 0.1]","[u'high', u'medium', u'low']","blue",50,"middle","medium","True","False",828,4700,NA
"ACKG8OU1KHKO2","Mon Oct 26 2020 16:32:42 GMT-0400 (Eastern Daylight Time)","Mon Oct 26 2020 16:39:58 GMT-0400 (Eastern Daylight Time)","Mozilla/5.0 (Macintosh; Intel Mac OS X 10_15_7) AppleWebKit/537.36 (KHTML, like Gecko) Chrome/86.0.4240.80 Safari/537.36",75,"[0.9, 0.5, 0.1]","[0.8, 0.4, 0.2]","[u'black', u'blue', u'red']","[u'left', u'middle', u'right']","[0.9, 0.5, 0.1]","[u'high', u'medium', u'low']","blue",50,"middle","medium","False","False",1991,4650,NA
"ACKG8OU1KHKO2","Mon Oct 26 2020 16:32:42 GMT-0400 (Eastern Daylight Time)","Mon Oct 26 2020 16:39:58 GMT-0400 (Eastern Daylight Time)","Mozilla/5.0 (Macintosh; Intel Mac OS X 10_15_7) AppleWebKit/537.36 (KHTML, like Gecko) Chrome/86.0.4240.80 Safari/537.36",76,"[0.9, 0.5, 0.1]","[0.8, 0.4, 0.2]","[u'black', u'blue', u'red']","[u'left', u'middle', u'right']","[0.9, 0.5, 0.1]","[u'high', u'medium', u'low']","red",51,"right","low","False","False",269,4600,NA
"ACKG8OU1KHKO2","Mon Oct 26 2020 16:32:42 GMT-0400 (Eastern Daylight Time)","Mon Oct 26 2020 16:39:58 GMT-0400 (Eastern Daylight Time)","Mozilla/5.0 (Macintosh; Intel Mac OS X 10_15_7) AppleWebKit/537.36 (KHTML, like Gecko) Chrome/86.0.4240.80 Safari/537.36",77,"[0.9, 0.5, 0.1]","[0.8, 0.4, 0.2]","[u'black', u'blue', u'red']","[u'left', u'middle', u'right']","[0.9, 0.5, 0.1]","[u'high', u'medium', u'low']","black",49,"left","high","True","False",314,4700,NA
"ACKG8OU1KHKO2","Mon Oct 26 2020 16:32:42 GMT-0400 (Eastern Daylight Time)","Mon Oct 26 2020 16:39:58 GMT-0400 (Eastern Daylight Time)","Mozilla/5.0 (Macintosh; Intel Mac OS X 10_15_7) AppleWebKit/537.36 (KHTML, like Gecko) Chrome/86.0.4240.80 Safari/537.36",78,"[0.9, 0.5, 0.1]","[0.8, 0.4, 0.2]","[u'black', u'blue', u'red']","[u'left', u'middle', u'right']","[0.9, 0.5, 0.1]","[u'high', u'medium', u'low']","black",49,"left","high","True","False",234,4800,NA
"ACKG8OU1KHKO2","Mon Oct 26 2020 16:32:42 GMT-0400 (Eastern Daylight Time)","Mon Oct 26 2020 16:39:58 GMT-0400 (Eastern Daylight Time)","Mozilla/5.0 (Macintosh; Intel Mac OS X 10_15_7) AppleWebKit/537.36 (KHTML, like Gecko) Chrome/86.0.4240.80 Safari/537.36",79,"[0.9, 0.5, 0.1]","[0.8, 0.4, 0.2]","[u'black', u'blue', u'red']","[u'left', u'middle', u'right']","[0.9, 0.5, 0.1]","[u'high', u'medium', u'low']","black",49,"left","high","True","False",56,4900,NA
"ACKG8OU1KHKO2","Mon Oct 26 2020 16:32:42 GMT-0400 (Eastern Daylight Time)","Mon Oct 26 2020 16:39:58 GMT-0400 (Eastern Daylight Time)","Mozilla/5.0 (Macintosh; Intel Mac OS X 10_15_7) AppleWebKit/537.36 (KHTML, like Gecko) Chrome/86.0.4240.80 Safari/537.36",80,"[0.9, 0.5, 0.1]","[0.8, 0.4, 0.2]","[u'black', u'blue', u'red']","[u'left', u'middle', u'right']","[0.9, 0.5, 0.1]","[u'high', u'medium', u'low']","black",49,"left","high","True","False",418,5000,NA
"ACKG8OU1KHKO2","Mon Oct 26 2020 16:32:42 GMT-0400 (Eastern Daylight Time)","Mon Oct 26 2020 16:39:58 GMT-0400 (Eastern Daylight Time)","Mozilla/5.0 (Macintosh; Intel Mac OS X 10_15_7) AppleWebKit/537.36 (KHTML, like Gecko) Chrome/86.0.4240.80 Safari/537.36",81,"[0.9, 0.5, 0.1]","[0.8, 0.4, 0.2]","[u'black', u'blue', u'red']","[u'left', u'middle', u'right']","[0.8, 0.4, 0.2]","[u'medium', u'high', u'low']","black",49,"left","medium","False","False",546,4950,NA
"ACKG8OU1KHKO2","Mon Oct 26 2020 16:32:42 GMT-0400 (Eastern Daylight Time)","Mon Oct 26 2020 16:39:58 GMT-0400 (Eastern Daylight Time)","Mozilla/5.0 (Macintosh; Intel Mac OS X 10_15_7) AppleWebKit/537.36 (KHTML, like Gecko) Chrome/86.0.4240.80 Safari/537.36",82,"[0.9, 0.5, 0.1]","[0.8, 0.4, 0.2]","[u'black', u'blue', u'red']","[u'left', u'middle', u'right']","[0.8, 0.4, 0.2]","[u'medium', u'high', u'low']","blue",50,"middle","high","True","False",66,5050,NA
"ACKG8OU1KHKO2","Mon Oct 26 2020 16:32:42 GMT-0400 (Eastern Daylight Time)","Mon Oct 26 2020 16:39:58 GMT-0400 (Eastern Daylight Time)","Mozilla/5.0 (Macintosh; Intel Mac OS X 10_15_7) AppleWebKit/537.36 (KHTML, like Gecko) Chrome/86.0.4240.80 Safari/537.36",83,"[0.9, 0.5, 0.1]","[0.8, 0.4, 0.2]","[u'black', u'blue', u'red']","[u'left', u'middle', u'right']","[0.8, 0.4, 0.2]","[u'medium', u'high', u'low']","blue",50,"middle","high","True","False",47,5150,NA
"ACKG8OU1KHKO2","Mon Oct 26 2020 16:32:42 GMT-0400 (Eastern Daylight Time)","Mon Oct 26 2020 16:39:58 GMT-0400 (Eastern Daylight Time)","Mozilla/5.0 (Macintosh; Intel Mac OS X 10_15_7) AppleWebKit/537.36 (KHTML, like Gecko) Chrome/86.0.4240.80 Safari/537.36",84,"[0.9, 0.5, 0.1]","[0.8, 0.4, 0.2]","[u'black', u'blue', u'red']","[u'left', u'middle', u'right']","[0.8, 0.4, 0.2]","[u'medium', u'high', u'low']","blue",50,"middle","high","False","False",272,5100,NA
"ACKG8OU1KHKO2","Mon Oct 26 2020 16:32:42 GMT-0400 (Eastern Daylight Time)","Mon Oct 26 2020 16:39:58 GMT-0400 (Eastern Daylight Time)","Mozilla/5.0 (Macintosh; Intel Mac OS X 10_15_7) AppleWebKit/537.36 (KHTML, like Gecko) Chrome/86.0.4240.80 Safari/537.36",85,"[0.9, 0.5, 0.1]","[0.8, 0.4, 0.2]","[u'black', u'blue', u'red']","[u'left', u'middle', u'right']","[0.8, 0.4, 0.2]","[u'medium', u'high', u'low']","blue",50,"middle","high","True","False",820,5200,NA
"ACKG8OU1KHKO2","Mon Oct 26 2020 16:32:42 GMT-0400 (Eastern Daylight Time)","Mon Oct 26 2020 16:39:58 GMT-0400 (Eastern Daylight Time)","Mozilla/5.0 (Macintosh; Intel Mac OS X 10_15_7) AppleWebKit/537.36 (KHTML, like Gecko) Chrome/86.0.4240.80 Safari/537.36",86,"[0.9, 0.5, 0.1]","[0.8, 0.4, 0.2]","[u'black', u'blue', u'red']","[u'left', u'middle', u'right']","[0.8, 0.4, 0.2]","[u'medium', u'high', u'low']","blue",50,"middle","high","True","False",4,5300,NA
"ACKG8OU1KHKO2","Mon Oct 26 2020 16:32:42 GMT-0400 (Eastern Daylight Time)","Mon Oct 26 2020 16:39:58 GMT-0400 (Eastern Daylight Time)","Mozilla/5.0 (Macintosh; Intel Mac OS X 10_15_7) AppleWebKit/537.36 (KHTML, like Gecko) Chrome/86.0.4240.80 Safari/537.36",87,"[0.9, 0.5, 0.1]","[0.8, 0.4, 0.2]","[u'black', u'blue', u'red']","[u'left', u'middle', u'right']","[0.8, 0.4, 0.2]","[u'medium', u'high', u'low']","blue",50,"middle","high","True","False",210,5400,NA
"ACKG8OU1KHKO2","Mon Oct 26 2020 16:32:42 GMT-0400 (Eastern Daylight Time)","Mon Oct 26 2020 16:39:58 GMT-0400 (Eastern Daylight Time)","Mozilla/5.0 (Macintosh; Intel Mac OS X 10_15_7) AppleWebKit/537.36 (KHTML, like Gecko) Chrome/86.0.4240.80 Safari/537.36",88,"[0.9, 0.5, 0.1]","[0.8, 0.4, 0.2]","[u'black', u'blue', u'red']","[u'left', u'middle', u'right']","[0.8, 0.4, 0.2]","[u'medium', u'high', u'low']","blue",50,"middle","high","True","False",441,5500,NA
"ACKG8OU1KHKO2","Mon Oct 26 2020 16:32:42 GMT-0400 (Eastern Daylight Time)","Mon Oct 26 2020 16:39:58 GMT-0400 (Eastern Daylight Time)","Mozilla/5.0 (Macintosh; Intel Mac OS X 10_15_7) AppleWebKit/537.36 (KHTML, like Gecko) Chrome/86.0.4240.80 Safari/537.36",89,"[0.9, 0.5, 0.1]","[0.8, 0.4, 0.2]","[u'black', u'blue', u'red']","[u'left', u'middle', u'right']","[0.8, 0.4, 0.2]","[u'medium', u'high', u'low']","blue",50,"middle","high","True","False",282,5600,NA
"ACKG8OU1KHKO2","Mon Oct 26 2020 16:32:42 GMT-0400 (Eastern Daylight Time)","Mon Oct 26 2020 16:39:58 GMT-0400 (Eastern Daylight Time)","Mozilla/5.0 (Macintosh; Intel Mac OS X 10_15_7) AppleWebKit/537.36 (KHTML, like Gecko) Chrome/86.0.4240.80 Safari/537.36",90,"[0.9, 0.5, 0.1]","[0.8, 0.4, 0.2]","[u'black', u'blue', u'red']","[u'left', u'middle', u'right']","[0.8, 0.4, 0.2]","[u'medium', u'high', u'low']","blue",50,"middle","high","True","True",346,5700,NA
"ACKG8OU1KHKO2","Mon Oct 26 2020 16:32:42 GMT-0400 (Eastern Daylight Time)","Mon Oct 26 2020 16:39:58 GMT-0400 (Eastern Daylight Time)","Mozilla/5.0 (Macintosh; Intel Mac OS X 10_15_7) AppleWebKit/537.36 (KHTML, like Gecko) Chrome/86.0.4240.80 Safari/537.36",91,"[0.9, 0.5, 0.1]","[0.8, 0.4, 0.2]","[u'black', u'blue', u'red']","[u'left', u'middle', u'right']","[0.8, 0.4, 0.2]","[u'medium', u'low', u'high']","blue",50,"middle","low","False","False",539,5650,NA
"ACKG8OU1KHKO2","Mon Oct 26 2020 16:32:42 GMT-0400 (Eastern Daylight Time)","Mon Oct 26 2020 16:39:58 GMT-0400 (Eastern Daylight Time)","Mozilla/5.0 (Macintosh; Intel Mac OS X 10_15_7) AppleWebKit/537.36 (KHTML, like Gecko) Chrome/86.0.4240.80 Safari/537.36",92,"[0.9, 0.5, 0.1]","[0.8, 0.4, 0.2]","[u'black', u'blue', u'red']","[u'left', u'middle', u'right']","[0.8, 0.4, 0.2]","[u'medium', u'low', u'high']","red",51,"right","high","True","False",50,5750,NA
"ACKG8OU1KHKO2","Mon Oct 26 2020 16:32:42 GMT-0400 (Eastern Daylight Time)","Mon Oct 26 2020 16:39:58 GMT-0400 (Eastern Daylight Time)","Mozilla/5.0 (Macintosh; Intel Mac OS X 10_15_7) AppleWebKit/537.36 (KHTML, like Gecko) Chrome/86.0.4240.80 Safari/537.36",93,"[0.9, 0.5, 0.1]","[0.8, 0.4, 0.2]","[u'black', u'blue', u'red']","[u'left', u'middle', u'right']","[0.8, 0.4, 0.2]","[u'medium', u'low', u'high']","red",51,"right","high","True","False",595,5850,NA
"ACKG8OU1KHKO2","Mon Oct 26 2020 16:32:42 GMT-0400 (Eastern Daylight Time)","Mon Oct 26 2020 16:39:58 GMT-0400 (Eastern Daylight Time)","Mozilla/5.0 (Macintosh; Intel Mac OS X 10_15_7) AppleWebKit/537.36 (KHTML, like Gecko) Chrome/86.0.4240.80 Safari/537.36",94,"[0.9, 0.5, 0.1]","[0.8, 0.4, 0.2]","[u'black', u'blue', u'red']","[u'left', u'middle', u'right']","[0.8, 0.4, 0.2]","[u'medium', u'low', u'high']","red",51,"right","high","True","False",116,5950,NA
"ACKG8OU1KHKO2","Mon Oct 26 2020 16:32:42 GMT-0400 (Eastern Daylight Time)","Mon Oct 26 2020 16:39:58 GMT-0400 (Eastern Daylight Time)","Mozilla/5.0 (Macintosh; Intel Mac OS X 10_15_7) AppleWebKit/537.36 (KHTML, like Gecko) Chrome/86.0.4240.80 Safari/537.36",95,"[0.9, 0.5, 0.1]","[0.8, 0.4, 0.2]","[u'black', u'blue', u'red']","[u'left', u'middle', u'right']","[0.8, 0.4, 0.2]","[u'medium', u'low', u'high']","red",51,"right","high","True","False",182,6050,NA
"ACKG8OU1KHKO2","Mon Oct 26 2020 16:32:42 GMT-0400 (Eastern Daylight Time)","Mon Oct 26 2020 16:39:58 GMT-0400 (Eastern Daylight Time)","Mozilla/5.0 (Macintosh; Intel Mac OS X 10_15_7) AppleWebKit/537.36 (KHTML, like Gecko) Chrome/86.0.4240.80 Safari/537.36",96,"[0.9, 0.5, 0.1]","[0.8, 0.4, 0.2]","[u'black', u'blue', u'red']","[u'left', u'middle', u'right']","[0.8, 0.4, 0.2]","[u'medium', u'low', u'high']","red",51,"right","high","True","False",332,6150,NA
"ACKG8OU1KHKO2","Mon Oct 26 2020 16:32:42 GMT-0400 (Eastern Daylight Time)","Mon Oct 26 2020 16:39:58 GMT-0400 (Eastern Daylight Time)","Mozilla/5.0 (Macintosh; Intel Mac OS X 10_15_7) AppleWebKit/537.36 (KHTML, like Gecko) Chrome/86.0.4240.80 Safari/537.36",97,"[0.9, 0.5, 0.1]","[0.8, 0.4, 0.2]","[u'black', u'blue', u'red']","[u'left', u'middle', u'right']","[0.8, 0.4, 0.2]","[u'medium', u'low', u'high']","red",51,"right","high","True","False",193,6250,NA
"ACKG8OU1KHKO2","Mon Oct 26 2020 16:32:42 GMT-0400 (Eastern Daylight Time)","Mon Oct 26 2020 16:39:58 GMT-0400 (Eastern Daylight Time)","Mozilla/5.0 (Macintosh; Intel Mac OS X 10_15_7) AppleWebKit/537.36 (KHTML, like Gecko) Chrome/86.0.4240.80 Safari/537.36",98,"[0.9, 0.5, 0.1]","[0.8, 0.4, 0.2]","[u'black', u'blue', u'red']","[u'left', u'middle', u'right']","[0.8, 0.4, 0.2]","[u'medium', u'low', u'high']","red",51,"right","high","True","False",301,6350,NA
"ACKG8OU1KHKO2","Mon Oct 26 2020 16:32:42 GMT-0400 (Eastern Daylight Time)","Mon Oct 26 2020 16:39:58 GMT-0400 (Eastern Daylight Time)","Mozilla/5.0 (Macintosh; Intel Mac OS X 10_15_7) AppleWebKit/537.36 (KHTML, like Gecko) Chrome/86.0.4240.80 Safari/537.36",99,"[0.9, 0.5, 0.1]","[0.8, 0.4, 0.2]","[u'black', u'blue', u'red']","[u'left', u'middle', u'right']","[0.8, 0.4, 0.2]","[u'medium', u'low', u'high']","red",51,"right","high","True","False",63,6450,NA
"ACKG8OU1KHKO2","Mon Oct 26 2020 16:32:42 GMT-0400 (Eastern Daylight Time)","Mon Oct 26 2020 16:39:58 GMT-0400 (Eastern Daylight Time)","Mozilla/5.0 (Macintosh; Intel Mac OS X 10_15_7) AppleWebKit/537.36 (KHTML, like Gecko) Chrome/86.0.4240.80 Safari/537.36",100,"[0.9, 0.5, 0.1]","[0.8, 0.4, 0.2]","[u'black', u'blue', u'red']","[u'left', u'middle', u'right']","[0.8, 0.4, 0.2]","[u'medium', u'low', u'high']","red",51,"right","high","True","True",2007,6550,NA
"ACKG8OU1KHKO2","Mon Oct 26 2020 16:32:42 GMT-0400 (Eastern Daylight Time)","Mon Oct 26 2020 16:39:58 GMT-0400 (Eastern Daylight Time)","Mozilla/5.0 (Macintosh; Intel Mac OS X 10_15_7) AppleWebKit/537.36 (KHTML, like Gecko) Chrome/86.0.4240.80 Safari/537.36",101,"[0.9, 0.5, 0.1]","[0.8, 0.4, 0.2]","[u'black', u'blue', u'red']","[u'left', u'middle', u'right']","[0.8, 0.4, 0.2]","[u'medium', u'high', u'low']","red",51,"right","low","False","False",377,6500,NA
"ACKG8OU1KHKO2","Mon Oct 26 2020 16:32:42 GMT-0400 (Eastern Daylight Time)","Mon Oct 26 2020 16:39:58 GMT-0400 (Eastern Daylight Time)","Mozilla/5.0 (Macintosh; Intel Mac OS X 10_15_7) AppleWebKit/537.36 (KHTML, like Gecko) Chrome/86.0.4240.80 Safari/537.36",102,"[0.9, 0.5, 0.1]","[0.8, 0.4, 0.2]","[u'black', u'blue', u'red']","[u'left', u'middle', u'right']","[0.8, 0.4, 0.2]","[u'medium', u'high', u'low']","black",49,"left","medium","False","False",244,6450,NA
"ACKG8OU1KHKO2","Mon Oct 26 2020 16:32:42 GMT-0400 (Eastern Daylight Time)","Mon Oct 26 2020 16:39:58 GMT-0400 (Eastern Daylight Time)","Mozilla/5.0 (Macintosh; Intel Mac OS X 10_15_7) AppleWebKit/537.36 (KHTML, like Gecko) Chrome/86.0.4240.80 Safari/537.36",103,"[0.9, 0.5, 0.1]","[0.8, 0.4, 0.2]","[u'black', u'blue', u'red']","[u'left', u'middle', u'right']","[0.8, 0.4, 0.2]","[u'medium', u'high', u'low']","blue",50,"middle","high","True","False",671,6550,NA
"ACKG8OU1KHKO2","Mon Oct 26 2020 16:32:42 GMT-0400 (Eastern Daylight Time)","Mon Oct 26 2020 16:39:58 GMT-0400 (Eastern Daylight Time)","Mozilla/5.0 (Macintosh; Intel Mac OS X 10_15_7) AppleWebKit/537.36 (KHTML, like Gecko) Chrome/86.0.4240.80 Safari/537.36",104,"[0.9, 0.5, 0.1]","[0.8, 0.4, 0.2]","[u'black', u'blue', u'red']","[u'left', u'middle', u'right']","[0.8, 0.4, 0.2]","[u'medium', u'high', u'low']","blue",50,"middle","high","True","False",151,6650,NA
"ACKG8OU1KHKO2","Mon Oct 26 2020 16:32:42 GMT-0400 (Eastern Daylight Time)","Mon Oct 26 2020 16:39:58 GMT-0400 (Eastern Daylight Time)","Mozilla/5.0 (Macintosh; Intel Mac OS X 10_15_7) AppleWebKit/537.36 (KHTML, like Gecko) Chrome/86.0.4240.80 Safari/537.36",105,"[0.9, 0.5, 0.1]","[0.8, 0.4, 0.2]","[u'black', u'blue', u'red']","[u'left', u'middle', u'right']","[0.8, 0.4, 0.2]","[u'medium', u'high', u'low']","blue",50,"middle","high","True","False",69,6750,NA
"ACKG8OU1KHKO2","Mon Oct 26 2020 16:32:42 GMT-0400 (Eastern Daylight Time)","Mon Oct 26 2020 16:39:58 GMT-0400 (Eastern Daylight Time)","Mozilla/5.0 (Macintosh; Intel Mac OS X 10_15_7) AppleWebKit/537.36 (KHTML, like Gecko) Chrome/86.0.4240.80 Safari/537.36",106,"[0.9, 0.5, 0.1]","[0.8, 0.4, 0.2]","[u'black', u'blue', u'red']","[u'left', u'middle', u'right']","[0.8, 0.4, 0.2]","[u'medium', u'high', u'low']","blue",50,"middle","high","True","False",410,6850,NA
"ACKG8OU1KHKO2","Mon Oct 26 2020 16:32:42 GMT-0400 (Eastern Daylight Time)","Mon Oct 26 2020 16:39:58 GMT-0400 (Eastern Daylight Time)","Mozilla/5.0 (Macintosh; Intel Mac OS X 10_15_7) AppleWebKit/537.36 (KHTML, like Gecko) Chrome/86.0.4240.80 Safari/537.36",107,"[0.9, 0.5, 0.1]","[0.8, 0.4, 0.2]","[u'black', u'blue', u'red']","[u'left', u'middle', u'right']","[0.8, 0.4, 0.2]","[u'medium', u'high', u'low']","blue",50,"middle","high","False","False",382,6800,NA
"ACKG8OU1KHKO2","Mon Oct 26 2020 16:32:42 GMT-0400 (Eastern Daylight Time)","Mon Oct 26 2020 16:39:58 GMT-0400 (Eastern Daylight Time)","Mozilla/5.0 (Macintosh; Intel Mac OS X 10_15_7) AppleWebKit/537.36 (KHTML, like Gecko) Chrome/86.0.4240.80 Safari/537.36",108,"[0.9, 0.5, 0.1]","[0.8, 0.4, 0.2]","[u'black', u'blue', u'red']","[u'left', u'middle', u'right']","[0.8, 0.4, 0.2]","[u'medium', u'high', u'low']","red",51,"right","low","False","False",187,6750,NA
"ACKG8OU1KHKO2","Mon Oct 26 2020 16:32:42 GMT-0400 (Eastern Daylight Time)","Mon Oct 26 2020 16:39:58 GMT-0400 (Eastern Daylight Time)","Mozilla/5.0 (Macintosh; Intel Mac OS X 10_15_7) AppleWebKit/537.36 (KHTML, like Gecko) Chrome/86.0.4240.80 Safari/537.36",109,"[0.9, 0.5, 0.1]","[0.8, 0.4, 0.2]","[u'black', u'blue', u'red']","[u'left', u'middle', u'right']","[0.8, 0.4, 0.2]","[u'medium', u'high', u'low']","black",49,"left","medium","True","False",335,6850,NA
"ACKG8OU1KHKO2","Mon Oct 26 2020 16:32:42 GMT-0400 (Eastern Daylight Time)","Mon Oct 26 2020 16:39:58 GMT-0400 (Eastern Daylight Time)","Mozilla/5.0 (Macintosh; Intel Mac OS X 10_15_7) AppleWebKit/537.36 (KHTML, like Gecko) Chrome/86.0.4240.80 Safari/537.36",110,"[0.9, 0.5, 0.1]","[0.8, 0.4, 0.2]","[u'black', u'blue', u'red']","[u'left', u'middle', u'right']","[0.8, 0.4, 0.2]","[u'medium', u'high', u'low']","black",49,"left","medium","True","False",649,6950,NA
"ACKG8OU1KHKO2","Mon Oct 26 2020 16:32:42 GMT-0400 (Eastern Daylight Time)","Mon Oct 26 2020 16:39:58 GMT-0400 (Eastern Daylight Time)","Mozilla/5.0 (Macintosh; Intel Mac OS X 10_15_7) AppleWebKit/537.36 (KHTML, like Gecko) Chrome/86.0.4240.80 Safari/537.36",111,"[0.9, 0.5, 0.1]","[0.8, 0.4, 0.2]","[u'black', u'blue', u'red']","[u'left', u'middle', u'right']","[0.8, 0.4, 0.2]","[u'medium', u'high', u'low']","black",49,"left","medium","False","False",934,6900,NA
"ACKG8OU1KHKO2","Mon Oct 26 2020 16:32:42 GMT-0400 (Eastern Daylight Time)","Mon Oct 26 2020 16:39:58 GMT-0400 (Eastern Daylight Time)","Mozilla/5.0 (Macintosh; Intel Mac OS X 10_15_7) AppleWebKit/537.36 (KHTML, like Gecko) Chrome/86.0.4240.80 Safari/537.36",112,"[0.9, 0.5, 0.1]","[0.8, 0.4, 0.2]","[u'black', u'blue', u'red']","[u'left', u'middle', u'right']","[0.8, 0.4, 0.2]","[u'medium', u'high', u'low']","blue",50,"middle","high","True","False",221,7000,NA
"ACKG8OU1KHKO2","Mon Oct 26 2020 16:32:42 GMT-0400 (Eastern Daylight Time)","Mon Oct 26 2020 16:39:58 GMT-0400 (Eastern Daylight Time)","Mozilla/5.0 (Macintosh; Intel Mac OS X 10_15_7) AppleWebKit/537.36 (KHTML, like Gecko) Chrome/86.0.4240.80 Safari/537.36",113,"[0.9, 0.5, 0.1]","[0.8, 0.4, 0.2]","[u'black', u'blue', u'red']","[u'left', u'middle', u'right']","[0.8, 0.4, 0.2]","[u'medium', u'high', u'low']","blue",50,"middle","high","True","False",445,7100,NA
"ACKG8OU1KHKO2","Mon Oct 26 2020 16:32:42 GMT-0400 (Eastern Daylight Time)","Mon Oct 26 2020 16:39:58 GMT-0400 (Eastern Daylight Time)","Mozilla/5.0 (Macintosh; Intel Mac OS X 10_15_7) AppleWebKit/537.36 (KHTML, like Gecko) Chrome/86.0.4240.80 Safari/537.36",114,"[0.9, 0.5, 0.1]","[0.8, 0.4, 0.2]","[u'black', u'blue', u'red']","[u'left', u'middle', u'right']","[0.8, 0.4, 0.2]","[u'medium', u'high', u'low']","blue",50,"middle","high","True","False",613,7200,NA
"ACKG8OU1KHKO2","Mon Oct 26 2020 16:32:42 GMT-0400 (Eastern Daylight Time)","Mon Oct 26 2020 16:39:58 GMT-0400 (Eastern Daylight Time)","Mozilla/5.0 (Macintosh; Intel Mac OS X 10_15_7) AppleWebKit/537.36 (KHTML, like Gecko) Chrome/86.0.4240.80 Safari/537.36",115,"[0.9, 0.5, 0.1]","[0.8, 0.4, 0.2]","[u'black', u'blue', u'red']","[u'left', u'middle', u'right']","[0.8, 0.4, 0.2]","[u'medium', u'high', u'low']","blue",50,"middle","high","True","False",839,7300,NA
"ACKG8OU1KHKO2","Mon Oct 26 2020 16:32:42 GMT-0400 (Eastern Daylight Time)","Mon Oct 26 2020 16:39:58 GMT-0400 (Eastern Daylight Time)","Mozilla/5.0 (Macintosh; Intel Mac OS X 10_15_7) AppleWebKit/537.36 (KHTML, like Gecko) Chrome/86.0.4240.80 Safari/537.36",116,"[0.9, 0.5, 0.1]","[0.8, 0.4, 0.2]","[u'black', u'blue', u'red']","[u'left', u'middle', u'right']","[0.8, 0.4, 0.2]","[u'medium', u'high', u'low']","blue",50,"middle","high","True","False",34,7400,NA
"ACKG8OU1KHKO2","Mon Oct 26 2020 16:32:42 GMT-0400 (Eastern Daylight Time)","Mon Oct 26 2020 16:39:58 GMT-0400 (Eastern Daylight Time)","Mozilla/5.0 (Macintosh; Intel Mac OS X 10_15_7) AppleWebKit/537.36 (KHTML, like Gecko) Chrome/86.0.4240.80 Safari/537.36",117,"[0.9, 0.5, 0.1]","[0.8, 0.4, 0.2]","[u'black', u'blue', u'red']","[u'left', u'middle', u'right']","[0.8, 0.4, 0.2]","[u'medium', u'high', u'low']","blue",50,"middle","high","True","False",346,7500,NA
"ACKG8OU1KHKO2","Mon Oct 26 2020 16:32:42 GMT-0400 (Eastern Daylight Time)","Mon Oct 26 2020 16:39:58 GMT-0400 (Eastern Daylight Time)","Mozilla/5.0 (Macintosh; Intel Mac OS X 10_15_7) AppleWebKit/537.36 (KHTML, like Gecko) Chrome/86.0.4240.80 Safari/537.36",118,"[0.9, 0.5, 0.1]","[0.8, 0.4, 0.2]","[u'black', u'blue', u'red']","[u'left', u'middle', u'right']","[0.8, 0.4, 0.2]","[u'medium', u'high', u'low']","blue",50,"middle","high","True","False",442,7600,NA
"ACKG8OU1KHKO2","Mon Oct 26 2020 16:32:42 GMT-0400 (Eastern Daylight Time)","Mon Oct 26 2020 16:39:58 GMT-0400 (Eastern Daylight Time)","Mozilla/5.0 (Macintosh; Intel Mac OS X 10_15_7) AppleWebKit/537.36 (KHTML, like Gecko) Chrome/86.0.4240.80 Safari/537.36",119,"[0.9, 0.5, 0.1]","[0.8, 0.4, 0.2]","[u'black', u'blue', u'red']","[u'left', u'middle', u'right']","[0.8, 0.4, 0.2]","[u'medium', u'high', u'low']","blue",50,"middle","high","True","False",432,7700,NA
"ACKG8OU1KHKO2","Mon Oct 26 2020 16:32:42 GMT-0400 (Eastern Daylight Time)","Mon Oct 26 2020 16:39:58 GMT-0400 (Eastern Daylight Time)","Mozilla/5.0 (Macintosh; Intel Mac OS X 10_15_7) AppleWebKit/537.36 (KHTML, like Gecko) Chrome/86.0.4240.80 Safari/537.36",120,"[0.9, 0.5, 0.1]","[0.8, 0.4, 0.2]","[u'black', u'blue', u'red']","[u'left', u'middle', u'right']","[0.8, 0.4, 0.2]","[u'medium', u'high', u'low']","blue",50,"middle","high","False","True",138,7650,NA
"ACKG8OU1KHKO2","Mon Oct 26 2020 16:32:42 GMT-0400 (Eastern Daylight Time)","Mon Oct 26 2020 16:39:58 GMT-0400 (Eastern Daylight Time)","Mozilla/5.0 (Macintosh; Intel Mac OS X 10_15_7) AppleWebKit/537.36 (KHTML, like Gecko) Chrome/86.0.4240.80 Safari/537.36",121,"[0.9, 0.5, 0.1]","[0.8, 0.4, 0.2]","[u'black', u'blue', u'red']","[u'left', u'middle', u'right']","[0.8, 0.4, 0.2]","[u'high', u'medium', u'low']","red",51,"right","low","True","False",394,7750,NA
"ACKG8OU1KHKO2","Mon Oct 26 2020 16:32:42 GMT-0400 (Eastern Daylight Time)","Mon Oct 26 2020 16:39:58 GMT-0400 (Eastern Daylight Time)","Mozilla/5.0 (Macintosh; Intel Mac OS X 10_15_7) AppleWebKit/537.36 (KHTML, like Gecko) Chrome/86.0.4240.80 Safari/537.36",122,"[0.9, 0.5, 0.1]","[0.8, 0.4, 0.2]","[u'black', u'blue', u'red']","[u'left', u'middle', u'right']","[0.8, 0.4, 0.2]","[u'high', u'medium', u'low']","red",51,"right","low","False","False",479,7700,NA
"ACKG8OU1KHKO2","Mon Oct 26 2020 16:32:42 GMT-0400 (Eastern Daylight Time)","Mon Oct 26 2020 16:39:58 GMT-0400 (Eastern Daylight Time)","Mozilla/5.0 (Macintosh; Intel Mac OS X 10_15_7) AppleWebKit/537.36 (KHTML, like Gecko) Chrome/86.0.4240.80 Safari/537.36",123,"[0.9, 0.5, 0.1]","[0.8, 0.4, 0.2]","[u'black', u'blue', u'red']","[u'left', u'middle', u'right']","[0.8, 0.4, 0.2]","[u'high', u'medium', u'low']","black",49,"left","high","True","False",304,7800,NA
"ACKG8OU1KHKO2","Mon Oct 26 2020 16:32:42 GMT-0400 (Eastern Daylight Time)","Mon Oct 26 2020 16:39:58 GMT-0400 (Eastern Daylight Time)","Mozilla/5.0 (Macintosh; Intel Mac OS X 10_15_7) AppleWebKit/537.36 (KHTML, like Gecko) Chrome/86.0.4240.80 Safari/537.36",124,"[0.9, 0.5, 0.1]","[0.8, 0.4, 0.2]","[u'black', u'blue', u'red']","[u'left', u'middle', u'right']","[0.8, 0.4, 0.2]","[u'high', u'medium', u'low']","black",49,"left","high","True","False",481,7900,NA
"ACKG8OU1KHKO2","Mon Oct 26 2020 16:32:42 GMT-0400 (Eastern Daylight Time)","Mon Oct 26 2020 16:39:58 GMT-0400 (Eastern Daylight Time)","Mozilla/5.0 (Macintosh; Intel Mac OS X 10_15_7) AppleWebKit/537.36 (KHTML, like Gecko) Chrome/86.0.4240.80 Safari/537.36",125,"[0.9, 0.5, 0.1]","[0.8, 0.4, 0.2]","[u'black', u'blue', u'red']","[u'left', u'middle', u'right']","[0.8, 0.4, 0.2]","[u'high', u'medium', u'low']","black",49,"left","high","True","False",280,8000,NA
"ACKG8OU1KHKO2","Mon Oct 26 2020 16:32:42 GMT-0400 (Eastern Daylight Time)","Mon Oct 26 2020 16:39:58 GMT-0400 (Eastern Daylight Time)","Mozilla/5.0 (Macintosh; Intel Mac OS X 10_15_7) AppleWebKit/537.36 (KHTML, like Gecko) Chrome/86.0.4240.80 Safari/537.36",126,"[0.9, 0.5, 0.1]","[0.8, 0.4, 0.2]","[u'black', u'blue', u'red']","[u'left', u'middle', u'right']","[0.8, 0.4, 0.2]","[u'high', u'medium', u'low']","black",49,"left","high","True","False",402,8100,NA
"ACKG8OU1KHKO2","Mon Oct 26 2020 16:32:42 GMT-0400 (Eastern Daylight Time)","Mon Oct 26 2020 16:39:58 GMT-0400 (Eastern Daylight Time)","Mozilla/5.0 (Macintosh; Intel Mac OS X 10_15_7) AppleWebKit/537.36 (KHTML, like Gecko) Chrome/86.0.4240.80 Safari/537.36",127,"[0.9, 0.5, 0.1]","[0.8, 0.4, 0.2]","[u'black', u'blue', u'red']","[u'left', u'middle', u'right']","[0.8, 0.4, 0.2]","[u'high', u'medium', u'low']","black",49,"left","high","True","False",219,8200,NA
"ACKG8OU1KHKO2","Mon Oct 26 2020 16:32:42 GMT-0400 (Eastern Daylight Time)","Mon Oct 26 2020 16:39:58 GMT-0400 (Eastern Daylight Time)","Mozilla/5.0 (Macintosh; Intel Mac OS X 10_15_7) AppleWebKit/537.36 (KHTML, like Gecko) Chrome/86.0.4240.80 Safari/537.36",128,"[0.9, 0.5, 0.1]","[0.8, 0.4, 0.2]","[u'black', u'blue', u'red']","[u'left', u'middle', u'right']","[0.8, 0.4, 0.2]","[u'high', u'medium', u'low']","black",49,"left","high","True","False",685,8300,NA
"ACKG8OU1KHKO2","Mon Oct 26 2020 16:32:42 GMT-0400 (Eastern Daylight Time)","Mon Oct 26 2020 16:39:58 GMT-0400 (Eastern Daylight Time)","Mozilla/5.0 (Macintosh; Intel Mac OS X 10_15_7) AppleWebKit/537.36 (KHTML, like Gecko) Chrome/86.0.4240.80 Safari/537.36",129,"[0.9, 0.5, 0.1]","[0.8, 0.4, 0.2]","[u'black', u'blue', u'red']","[u'left', u'middle', u'right']","[0.8, 0.4, 0.2]","[u'high', u'medium', u'low']","black",49,"left","high","True","False",752,8400,NA
"ACKG8OU1KHKO2","Mon Oct 26 2020 16:32:42 GMT-0400 (Eastern Daylight Time)","Mon Oct 26 2020 16:39:58 GMT-0400 (Eastern Daylight Time)","Mozilla/5.0 (Macintosh; Intel Mac OS X 10_15_7) AppleWebKit/537.36 (KHTML, like Gecko) Chrome/86.0.4240.80 Safari/537.36",130,"[0.9, 0.5, 0.1]","[0.8, 0.4, 0.2]","[u'black', u'blue', u'red']","[u'left', u'middle', u'right']","[0.8, 0.4, 0.2]","[u'high', u'medium', u'low']","black",49,"left","high","True","False",82,8500,NA
"ACKG8OU1KHKO2","Mon Oct 26 2020 16:32:42 GMT-0400 (Eastern Daylight Time)","Mon Oct 26 2020 16:39:58 GMT-0400 (Eastern Daylight Time)","Mozilla/5.0 (Macintosh; Intel Mac OS X 10_15_7) AppleWebKit/537.36 (KHTML, like Gecko) Chrome/86.0.4240.80 Safari/537.36",131,"[0.9, 0.5, 0.1]","[0.8, 0.4, 0.2]","[u'black', u'blue', u'red']","[u'left', u'middle', u'right']","[0.8, 0.4, 0.2]","[u'high', u'medium', u'low']","black",49,"left","high","True","True",300,8600,NA
"ACKG8OU1KHKO2","Mon Oct 26 2020 16:32:42 GMT-0400 (Eastern Daylight Time)","Mon Oct 26 2020 16:39:58 GMT-0400 (Eastern Daylight Time)","Mozilla/5.0 (Macintosh; Intel Mac OS X 10_15_7) AppleWebKit/537.36 (KHTML, like Gecko) Chrome/86.0.4240.80 Safari/537.36",132,"[0.9, 0.5, 0.1]","[0.8, 0.4, 0.2]","[u'black', u'blue', u'red']","[u'left', u'middle', u'right']","[0.8, 0.4, 0.2]","[u'medium', u'low', u'high']","black",49,"left","medium","True","False",484,8700,NA
"ACKG8OU1KHKO2","Mon Oct 26 2020 16:32:42 GMT-0400 (Eastern Daylight Time)","Mon Oct 26 2020 16:39:58 GMT-0400 (Eastern Daylight Time)","Mozilla/5.0 (Macintosh; Intel Mac OS X 10_15_7) AppleWebKit/537.36 (KHTML, like Gecko) Chrome/86.0.4240.80 Safari/537.36",133,"[0.9, 0.5, 0.1]","[0.8, 0.4, 0.2]","[u'black', u'blue', u'red']","[u'left', u'middle', u'right']","[0.8, 0.4, 0.2]","[u'medium', u'low', u'high']","black",49,"left","medium","True","False",180,8800,NA
"ACKG8OU1KHKO2","Mon Oct 26 2020 16:32:42 GMT-0400 (Eastern Daylight Time)","Mon Oct 26 2020 16:39:58 GMT-0400 (Eastern Daylight Time)","Mozilla/5.0 (Macintosh; Intel Mac OS X 10_15_7) AppleWebKit/537.36 (KHTML, like Gecko) Chrome/86.0.4240.80 Safari/537.36",134,"[0.9, 0.5, 0.1]","[0.8, 0.4, 0.2]","[u'black', u'blue', u'red']","[u'left', u'middle', u'right']","[0.8, 0.4, 0.2]","[u'medium', u'low', u'high']","black",49,"left","medium","False","False",300,8750,NA
"ACKG8OU1KHKO2","Mon Oct 26 2020 16:32:42 GMT-0400 (Eastern Daylight Time)","Mon Oct 26 2020 16:39:58 GMT-0400 (Eastern Daylight Time)","Mozilla/5.0 (Macintosh; Intel Mac OS X 10_15_7) AppleWebKit/537.36 (KHTML, like Gecko) Chrome/86.0.4240.80 Safari/537.36",135,"[0.9, 0.5, 0.1]","[0.8, 0.4, 0.2]","[u'black', u'blue', u'red']","[u'left', u'middle', u'right']","[0.8, 0.4, 0.2]","[u'medium', u'low', u'high']","black",49,"left","medium","True","False",308,8850,NA
"ACKG8OU1KHKO2","Mon Oct 26 2020 16:32:42 GMT-0400 (Eastern Daylight Time)","Mon Oct 26 2020 16:39:58 GMT-0400 (Eastern Daylight Time)","Mozilla/5.0 (Macintosh; Intel Mac OS X 10_15_7) AppleWebKit/537.36 (KHTML, like Gecko) Chrome/86.0.4240.80 Safari/537.36",136,"[0.9, 0.5, 0.1]","[0.8, 0.4, 0.2]","[u'black', u'blue', u'red']","[u'left', u'middle', u'right']","[0.8, 0.4, 0.2]","[u'medium', u'low', u'high']","blue",50,"middle","low","False","False",457,8800,NA
"ACKG8OU1KHKO2","Mon Oct 26 2020 16:32:42 GMT-0400 (Eastern Daylight Time)","Mon Oct 26 2020 16:39:58 GMT-0400 (Eastern Daylight Time)","Mozilla/5.0 (Macintosh; Intel Mac OS X 10_15_7) AppleWebKit/537.36 (KHTML, like Gecko) Chrome/86.0.4240.80 Safari/537.36",137,"[0.9, 0.5, 0.1]","[0.8, 0.4, 0.2]","[u'black', u'blue', u'red']","[u'left', u'middle', u'right']","[0.8, 0.4, 0.2]","[u'medium', u'low', u'high']","black",49,"left","medium","False","False",1283,8750,NA
"ACKG8OU1KHKO2","Mon Oct 26 2020 16:32:42 GMT-0400 (Eastern Daylight Time)","Mon Oct 26 2020 16:39:58 GMT-0400 (Eastern Daylight Time)","Mozilla/5.0 (Macintosh; Intel Mac OS X 10_15_7) AppleWebKit/537.36 (KHTML, like Gecko) Chrome/86.0.4240.80 Safari/537.36",138,"[0.9, 0.5, 0.1]","[0.8, 0.4, 0.2]","[u'black', u'blue', u'red']","[u'left', u'middle', u'right']","[0.8, 0.4, 0.2]","[u'medium', u'low', u'high']","blue",50,"middle","low","True","False",1537,8850,NA
"ACKG8OU1KHKO2","Mon Oct 26 2020 16:32:42 GMT-0400 (Eastern Daylight Time)","Mon Oct 26 2020 16:39:58 GMT-0400 (Eastern Daylight Time)","Mozilla/5.0 (Macintosh; Intel Mac OS X 10_15_7) AppleWebKit/537.36 (KHTML, like Gecko) Chrome/86.0.4240.80 Safari/537.36",139,"[0.9, 0.5, 0.1]","[0.8, 0.4, 0.2]","[u'black', u'blue', u'red']","[u'left', u'middle', u'right']","[0.8, 0.4, 0.2]","[u'medium', u'low', u'high']","blue",50,"middle","low","False","False",1827,8800,NA
"ACKG8OU1KHKO2","Mon Oct 26 2020 16:32:42 GMT-0400 (Eastern Daylight Time)","Mon Oct 26 2020 16:39:58 GMT-0400 (Eastern Daylight Time)","Mozilla/5.0 (Macintosh; Intel Mac OS X 10_15_7) AppleWebKit/537.36 (KHTML, like Gecko) Chrome/86.0.4240.80 Safari/537.36",140,"[0.9, 0.5, 0.1]","[0.8, 0.4, 0.2]","[u'black', u'blue', u'red']","[u'left', u'middle', u'right']","[0.8, 0.4, 0.2]","[u'medium', u'low', u'high']","red",51,"right","high","True","False",892,8900,NA
"ACKG8OU1KHKO2","Mon Oct 26 2020 16:32:42 GMT-0400 (Eastern Daylight Time)","Mon Oct 26 2020 16:39:58 GMT-0400 (Eastern Daylight Time)","Mozilla/5.0 (Macintosh; Intel Mac OS X 10_15_7) AppleWebKit/537.36 (KHTML, like Gecko) Chrome/86.0.4240.80 Safari/537.36",141,"[0.9, 0.5, 0.1]","[0.8, 0.4, 0.2]","[u'black', u'blue', u'red']","[u'left', u'middle', u'right']","[0.8, 0.4, 0.2]","[u'medium', u'low', u'high']","black",49,"left","medium","False","False",2937,8850,NA
"ACKG8OU1KHKO2","Mon Oct 26 2020 16:32:42 GMT-0400 (Eastern Daylight Time)","Mon Oct 26 2020 16:39:58 GMT-0400 (Eastern Daylight Time)","Mozilla/5.0 (Macintosh; Intel Mac OS X 10_15_7) AppleWebKit/537.36 (KHTML, like Gecko) Chrome/86.0.4240.80 Safari/537.36",142,"[0.9, 0.5, 0.1]","[0.8, 0.4, 0.2]","[u'black', u'blue', u'red']","[u'left', u'middle', u'right']","[0.8, 0.4, 0.2]","[u'medium', u'low', u'high']","blue",50,"middle","low","False","False",52,8800,NA
"ACKG8OU1KHKO2","Mon Oct 26 2020 16:32:42 GMT-0400 (Eastern Daylight Time)","Mon Oct 26 2020 16:39:58 GMT-0400 (Eastern Daylight Time)","Mozilla/5.0 (Macintosh; Intel Mac OS X 10_15_7) AppleWebKit/537.36 (KHTML, like Gecko) Chrome/86.0.4240.80 Safari/537.36",143,"[0.9, 0.5, 0.1]","[0.8, 0.4, 0.2]","[u'black', u'blue', u'red']","[u'left', u'middle', u'right']","[0.8, 0.4, 0.2]","[u'medium', u'low', u'high']","red",51,"right","high","True","False",1407,8900,NA
"ACKG8OU1KHKO2","Mon Oct 26 2020 16:32:42 GMT-0400 (Eastern Daylight Time)","Mon Oct 26 2020 16:39:58 GMT-0400 (Eastern Daylight Time)","Mozilla/5.0 (Macintosh; Intel Mac OS X 10_15_7) AppleWebKit/537.36 (KHTML, like Gecko) Chrome/86.0.4240.80 Safari/537.36",144,"[0.9, 0.5, 0.1]","[0.8, 0.4, 0.2]","[u'black', u'blue', u'red']","[u'left', u'middle', u'right']","[0.8, 0.4, 0.2]","[u'medium', u'low', u'high']","red",51,"right","high","True","False",775,9000,NA
"ACKG8OU1KHKO2","Mon Oct 26 2020 16:32:42 GMT-0400 (Eastern Daylight Time)","Mon Oct 26 2020 16:39:58 GMT-0400 (Eastern Daylight Time)","Mozilla/5.0 (Macintosh; Intel Mac OS X 10_15_7) AppleWebKit/537.36 (KHTML, like Gecko) Chrome/86.0.4240.80 Safari/537.36",145,"[0.9, 0.5, 0.1]","[0.8, 0.4, 0.2]","[u'black', u'blue', u'red']","[u'left', u'middle', u'right']","[0.8, 0.4, 0.2]","[u'medium', u'low', u'high']","red",51,"right","high","False","False",255,8950,NA
"ACKG8OU1KHKO2","Mon Oct 26 2020 16:32:42 GMT-0400 (Eastern Daylight Time)","Mon Oct 26 2020 16:39:58 GMT-0400 (Eastern Daylight Time)","Mozilla/5.0 (Macintosh; Intel Mac OS X 10_15_7) AppleWebKit/537.36 (KHTML, like Gecko) Chrome/86.0.4240.80 Safari/537.36",146,"[0.9, 0.5, 0.1]","[0.8, 0.4, 0.2]","[u'black', u'blue', u'red']","[u'left', u'middle', u'right']","[0.8, 0.4, 0.2]","[u'medium', u'low', u'high']","red",51,"right","high","True","False",84,9050,NA
"ACKG8OU1KHKO2","Mon Oct 26 2020 16:32:42 GMT-0400 (Eastern Daylight Time)","Mon Oct 26 2020 16:39:58 GMT-0400 (Eastern Daylight Time)","Mozilla/5.0 (Macintosh; Intel Mac OS X 10_15_7) AppleWebKit/537.36 (KHTML, like Gecko) Chrome/86.0.4240.80 Safari/537.36",147,"[0.9, 0.5, 0.1]","[0.8, 0.4, 0.2]","[u'black', u'blue', u'red']","[u'left', u'middle', u'right']","[0.8, 0.4, 0.2]","[u'medium', u'low', u'high']","red",51,"right","high","True","False",1646,9150,NA
"ACKG8OU1KHKO2","Mon Oct 26 2020 16:32:42 GMT-0400 (Eastern Daylight Time)","Mon Oct 26 2020 16:39:58 GMT-0400 (Eastern Daylight Time)","Mozilla/5.0 (Macintosh; Intel Mac OS X 10_15_7) AppleWebKit/537.36 (KHTML, like Gecko) Chrome/86.0.4240.80 Safari/537.36",148,"[0.9, 0.5, 0.1]","[0.8, 0.4, 0.2]","[u'black', u'blue', u'red']","[u'left', u'middle', u'right']","[0.8, 0.4, 0.2]","[u'medium', u'low', u'high']","red",51,"right","high","True","False",1557,9250,NA
"ACKG8OU1KHKO2","Mon Oct 26 2020 16:32:42 GMT-0400 (Eastern Daylight Time)","Mon Oct 26 2020 16:39:58 GMT-0400 (Eastern Daylight Time)","Mozilla/5.0 (Macintosh; Intel Mac OS X 10_15_7) AppleWebKit/537.36 (KHTML, like Gecko) Chrome/86.0.4240.80 Safari/537.36",149,"[0.9, 0.5, 0.1]","[0.8, 0.4, 0.2]","[u'black', u'blue', u'red']","[u'left', u'middle', u'right']","[0.8, 0.4, 0.2]","[u'medium', u'low', u'high']","red",51,"right","high","True","False",1058,9350,NA
"ACKG8OU1KHKO2","Mon Oct 26 2020 16:32:42 GMT-0400 (Eastern Daylight Time)","Mon Oct 26 2020 16:39:58 GMT-0400 (Eastern Daylight Time)","Mozilla/5.0 (Macintosh; Intel Mac OS X 10_15_7) AppleWebKit/537.36 (KHTML, like Gecko) Chrome/86.0.4240.80 Safari/537.36",150,"[0.9, 0.5, 0.1]","[0.8, 0.4, 0.2]","[u'black', u'blue', u'red']","[u'left', u'middle', u'right']","[0.8, 0.4, 0.2]","[u'medium', u'low', u'high']","red",51,"right","high","True","False",3283,9450,NA
"ACKG8OU1KHKO2","Mon Oct 26 2020 16:32:42 GMT-0400 (Eastern Daylight Time)","Mon Oct 26 2020 16:39:58 GMT-0400 (Eastern Daylight Time)","Mozilla/5.0 (Macintosh; Intel Mac OS X 10_15_7) AppleWebKit/537.36 (KHTML, like Gecko) Chrome/86.0.4240.80 Safari/537.36",151,"[0.9, 0.5, 0.1]","[0.8, 0.4, 0.2]","[u'black', u'blue', u'red']","[u'left', u'middle', u'right']","[0.8, 0.4, 0.2]","[u'medium', u'low', u'high']","red",51,"right","high","True","True",648,9550,NA
"ACKG8OU1KHKO2","Mon Oct 26 2020 16:32:42 GMT-0400 (Eastern Daylight Time)","Mon Oct 26 2020 16:39:58 GMT-0400 (Eastern Daylight Time)","Mozilla/5.0 (Macintosh; Intel Mac OS X 10_15_7) AppleWebKit/537.36 (KHTML, like Gecko) Chrome/86.0.4240.80 Safari/537.36",152,"[0.9, 0.5, 0.1]","[0.8, 0.4, 0.2]","[u'black', u'blue', u'red']","[u'left', u'middle', u'right']","[0.8, 0.4, 0.2]","[u'high', u'low', u'medium']","red",51,"right","medium","False","False",1550,9500,NA
"ACKG8OU1KHKO2","Mon Oct 26 2020 16:32:42 GMT-0400 (Eastern Daylight Time)","Mon Oct 26 2020 16:39:58 GMT-0400 (Eastern Daylight Time)","Mozilla/5.0 (Macintosh; Intel Mac OS X 10_15_7) AppleWebKit/537.36 (KHTML, like Gecko) Chrome/86.0.4240.80 Safari/537.36",153,"[0.9, 0.5, 0.1]","[0.8, 0.4, 0.2]","[u'black', u'blue', u'red']","[u'left', u'middle', u'right']","[0.8, 0.4, 0.2]","[u'high', u'low', u'medium']","black",49,"left","high","True","False",1222,9600,NA
"ACKG8OU1KHKO2","Mon Oct 26 2020 16:32:42 GMT-0400 (Eastern Daylight Time)","Mon Oct 26 2020 16:39:58 GMT-0400 (Eastern Daylight Time)","Mozilla/5.0 (Macintosh; Intel Mac OS X 10_15_7) AppleWebKit/537.36 (KHTML, like Gecko) Chrome/86.0.4240.80 Safari/537.36",154,"[0.9, 0.5, 0.1]","[0.8, 0.4, 0.2]","[u'black', u'blue', u'red']","[u'left', u'middle', u'right']","[0.8, 0.4, 0.2]","[u'high', u'low', u'medium']","black",49,"left","high","True","False",707,9700,NA
"ACKG8OU1KHKO2","Mon Oct 26 2020 16:32:42 GMT-0400 (Eastern Daylight Time)","Mon Oct 26 2020 16:39:58 GMT-0400 (Eastern Daylight Time)","Mozilla/5.0 (Macintosh; Intel Mac OS X 10_15_7) AppleWebKit/537.36 (KHTML, like Gecko) Chrome/86.0.4240.80 Safari/537.36",155,"[0.9, 0.5, 0.1]","[0.8, 0.4, 0.2]","[u'black', u'blue', u'red']","[u'left', u'middle', u'right']","[0.8, 0.4, 0.2]","[u'high', u'low', u'medium']","black",49,"left","high","True","False",75,9800,NA
"ACKG8OU1KHKO2","Mon Oct 26 2020 16:32:42 GMT-0400 (Eastern Daylight Time)","Mon Oct 26 2020 16:39:58 GMT-0400 (Eastern Daylight Time)","Mozilla/5.0 (Macintosh; Intel Mac OS X 10_15_7) AppleWebKit/537.36 (KHTML, like Gecko) Chrome/86.0.4240.80 Safari/537.36",156,"[0.9, 0.5, 0.1]","[0.8, 0.4, 0.2]","[u'black', u'blue', u'red']","[u'left', u'middle', u'right']","[0.8, 0.4, 0.2]","[u'high', u'low', u'medium']","black",49,"left","high","True","False",828,9900,NA
"ACKG8OU1KHKO2","Mon Oct 26 2020 16:32:42 GMT-0400 (Eastern Daylight Time)","Mon Oct 26 2020 16:39:58 GMT-0400 (Eastern Daylight Time)","Mozilla/5.0 (Macintosh; Intel Mac OS X 10_15_7) AppleWebKit/537.36 (KHTML, like Gecko) Chrome/86.0.4240.80 Safari/537.36",157,"[0.9, 0.5, 0.1]","[0.8, 0.4, 0.2]","[u'black', u'blue', u'red']","[u'left', u'middle', u'right']","[0.8, 0.4, 0.2]","[u'high', u'low', u'medium']","blue",50,"middle","low","True","False",648,10000,NA
"ACKG8OU1KHKO2","Mon Oct 26 2020 16:32:42 GMT-0400 (Eastern Daylight Time)","Mon Oct 26 2020 16:39:58 GMT-0400 (Eastern Daylight Time)","Mozilla/5.0 (Macintosh; Intel Mac OS X 10_15_7) AppleWebKit/537.36 (KHTML, like Gecko) Chrome/86.0.4240.80 Safari/537.36",158,"[0.9, 0.5, 0.1]","[0.8, 0.4, 0.2]","[u'black', u'blue', u'red']","[u'left', u'middle', u'right']","[0.8, 0.4, 0.2]","[u'high', u'low', u'medium']","blue",50,"middle","low","False","False",55,9950,NA
"ACKG8OU1KHKO2","Mon Oct 26 2020 16:32:42 GMT-0400 (Eastern Daylight Time)","Mon Oct 26 2020 16:39:58 GMT-0400 (Eastern Daylight Time)","Mozilla/5.0 (Macintosh; Intel Mac OS X 10_15_7) AppleWebKit/537.36 (KHTML, like Gecko) Chrome/86.0.4240.80 Safari/537.36",159,"[0.9, 0.5, 0.1]","[0.8, 0.4, 0.2]","[u'black', u'blue', u'red']","[u'left', u'middle', u'right']","[0.8, 0.4, 0.2]","[u'high', u'low', u'medium']","black",49,"left","high","True","False",1730,10050,NA
"ACKG8OU1KHKO2","Mon Oct 26 2020 16:32:42 GMT-0400 (Eastern Daylight Time)","Mon Oct 26 2020 16:39:58 GMT-0400 (Eastern Daylight Time)","Mozilla/5.0 (Macintosh; Intel Mac OS X 10_15_7) AppleWebKit/537.36 (KHTML, like Gecko) Chrome/86.0.4240.80 Safari/537.36",160,"[0.9, 0.5, 0.1]","[0.8, 0.4, 0.2]","[u'black', u'blue', u'red']","[u'left', u'middle', u'right']","[0.8, 0.4, 0.2]","[u'high', u'low', u'medium']","black",49,"left","high","True","False",57,10150,NA
