"src_subject_id","start_time","end_time","browser","index","first_half_probabilities","second_half_probabilities","deck_color","deck_position","deck_probabilities","deck_contingencies","response_color","key_press","response_position","response_probability","reward_type","trial_type","rt","reward_tally","exclusion_reason"
"A3CI73EFDLS3OF","Tue Oct 27 2020 12:34:11 GMT-0400 (Eastern Daylight Time)","Tue Oct 27 2020 12:40:24 GMT-0400 (Eastern Daylight Time)","Mozilla/5.0 (Windows NT 10.0; Win64; x64) AppleWebKit/537.36 (KHTML, like Gecko) Chrome/86.0.4240.111 Safari/537.36",1,"[0.9, 0.5, 0.1]","[0.8, 0.4, 0.2]","[u'blue', u'red', u'black']","[u'left', u'middle', u'right']","[0.9, 0.5, 0.1]","[u'high', u'medium', u'low']","blue",49,"left","high","True","False",787,100,NA
"A3CI73EFDLS3OF","Tue Oct 27 2020 12:34:11 GMT-0400 (Eastern Daylight Time)","Tue Oct 27 2020 12:40:24 GMT-0400 (Eastern Daylight Time)","Mozilla/5.0 (Windows NT 10.0; Win64; x64) AppleWebKit/537.36 (KHTML, like Gecko) Chrome/86.0.4240.111 Safari/537.36",2,"[0.9, 0.5, 0.1]","[0.8, 0.4, 0.2]","[u'blue', u'red', u'black']","[u'left', u'middle', u'right']","[0.9, 0.5, 0.1]","[u'high', u'medium', u'low']","blue",49,"left","high","True","False",364,200,NA
"A3CI73EFDLS3OF","Tue Oct 27 2020 12:34:11 GMT-0400 (Eastern Daylight Time)","Tue Oct 27 2020 12:40:24 GMT-0400 (Eastern Daylight Time)","Mozilla/5.0 (Windows NT 10.0; Win64; x64) AppleWebKit/537.36 (KHTML, like Gecko) Chrome/86.0.4240.111 Safari/537.36",3,"[0.9, 0.5, 0.1]","[0.8, 0.4, 0.2]","[u'blue', u'red', u'black']","[u'left', u'middle', u'right']","[0.9, 0.5, 0.1]","[u'high', u'medium', u'low']","blue",49,"left","high","True","False",477,300,NA
"A3CI73EFDLS3OF","Tue Oct 27 2020 12:34:11 GMT-0400 (Eastern Daylight Time)","Tue Oct 27 2020 12:40:24 GMT-0400 (Eastern Daylight Time)","Mozilla/5.0 (Windows NT 10.0; Win64; x64) AppleWebKit/537.36 (KHTML, like Gecko) Chrome/86.0.4240.111 Safari/537.36",4,"[0.9, 0.5, 0.1]","[0.8, 0.4, 0.2]","[u'blue', u'red', u'black']","[u'left', u'middle', u'right']","[0.9, 0.5, 0.1]","[u'high', u'medium', u'low']","blue",49,"left","high","True","False",426,400,NA
"A3CI73EFDLS3OF","Tue Oct 27 2020 12:34:11 GMT-0400 (Eastern Daylight Time)","Tue Oct 27 2020 12:40:24 GMT-0400 (Eastern Daylight Time)","Mozilla/5.0 (Windows NT 10.0; Win64; x64) AppleWebKit/537.36 (KHTML, like Gecko) Chrome/86.0.4240.111 Safari/537.36",5,"[0.9, 0.5, 0.1]","[0.8, 0.4, 0.2]","[u'blue', u'red', u'black']","[u'left', u'middle', u'right']","[0.9, 0.5, 0.1]","[u'high', u'medium', u'low']","blue",49,"left","high","True","False",368,500,NA
"A3CI73EFDLS3OF","Tue Oct 27 2020 12:34:11 GMT-0400 (Eastern Daylight Time)","Tue Oct 27 2020 12:40:24 GMT-0400 (Eastern Daylight Time)","Mozilla/5.0 (Windows NT 10.0; Win64; x64) AppleWebKit/537.36 (KHTML, like Gecko) Chrome/86.0.4240.111 Safari/537.36",6,"[0.9, 0.5, 0.1]","[0.8, 0.4, 0.2]","[u'blue', u'red', u'black']","[u'left', u'middle', u'right']","[0.9, 0.5, 0.1]","[u'high', u'medium', u'low']","blue",49,"left","high","False","False",433,450,NA
"A3CI73EFDLS3OF","Tue Oct 27 2020 12:34:11 GMT-0400 (Eastern Daylight Time)","Tue Oct 27 2020 12:40:24 GMT-0400 (Eastern Daylight Time)","Mozilla/5.0 (Windows NT 10.0; Win64; x64) AppleWebKit/537.36 (KHTML, like Gecko) Chrome/86.0.4240.111 Safari/537.36",7,"[0.9, 0.5, 0.1]","[0.8, 0.4, 0.2]","[u'blue', u'red', u'black']","[u'left', u'middle', u'right']","[0.9, 0.5, 0.1]","[u'high', u'medium', u'low']","blue",49,"left","high","True","False",302,550,NA
"A3CI73EFDLS3OF","Tue Oct 27 2020 12:34:11 GMT-0400 (Eastern Daylight Time)","Tue Oct 27 2020 12:40:24 GMT-0400 (Eastern Daylight Time)","Mozilla/5.0 (Windows NT 10.0; Win64; x64) AppleWebKit/537.36 (KHTML, like Gecko) Chrome/86.0.4240.111 Safari/537.36",8,"[0.9, 0.5, 0.1]","[0.8, 0.4, 0.2]","[u'blue', u'red', u'black']","[u'left', u'middle', u'right']","[0.9, 0.5, 0.1]","[u'high', u'medium', u'low']","blue",49,"left","high","True","False",207,650,NA
"A3CI73EFDLS3OF","Tue Oct 27 2020 12:34:11 GMT-0400 (Eastern Daylight Time)","Tue Oct 27 2020 12:40:24 GMT-0400 (Eastern Daylight Time)","Mozilla/5.0 (Windows NT 10.0; Win64; x64) AppleWebKit/537.36 (KHTML, like Gecko) Chrome/86.0.4240.111 Safari/537.36",9,"[0.9, 0.5, 0.1]","[0.8, 0.4, 0.2]","[u'blue', u'red', u'black']","[u'left', u'middle', u'right']","[0.9, 0.5, 0.1]","[u'high', u'medium', u'low']","blue",49,"left","high","False","True",289,600,NA
"A3CI73EFDLS3OF","Tue Oct 27 2020 12:34:11 GMT-0400 (Eastern Daylight Time)","Tue Oct 27 2020 12:40:24 GMT-0400 (Eastern Daylight Time)","Mozilla/5.0 (Windows NT 10.0; Win64; x64) AppleWebKit/537.36 (KHTML, like Gecko) Chrome/86.0.4240.111 Safari/537.36",10,"[0.9, 0.5, 0.1]","[0.8, 0.4, 0.2]","[u'blue', u'red', u'black']","[u'left', u'middle', u'right']","[0.9, 0.5, 0.1]","[u'low', u'high', u'medium']","blue",49,"left","low","False","False",301,550,NA
"A3CI73EFDLS3OF","Tue Oct 27 2020 12:34:11 GMT-0400 (Eastern Daylight Time)","Tue Oct 27 2020 12:40:24 GMT-0400 (Eastern Daylight Time)","Mozilla/5.0 (Windows NT 10.0; Win64; x64) AppleWebKit/537.36 (KHTML, like Gecko) Chrome/86.0.4240.111 Safari/537.36",11,"[0.9, 0.5, 0.1]","[0.8, 0.4, 0.2]","[u'blue', u'red', u'black']","[u'left', u'middle', u'right']","[0.9, 0.5, 0.1]","[u'low', u'high', u'medium']","red",50,"middle","high","True","False",151,650,NA
"A3CI73EFDLS3OF","Tue Oct 27 2020 12:34:11 GMT-0400 (Eastern Daylight Time)","Tue Oct 27 2020 12:40:24 GMT-0400 (Eastern Daylight Time)","Mozilla/5.0 (Windows NT 10.0; Win64; x64) AppleWebKit/537.36 (KHTML, like Gecko) Chrome/86.0.4240.111 Safari/537.36",12,"[0.9, 0.5, 0.1]","[0.8, 0.4, 0.2]","[u'blue', u'red', u'black']","[u'left', u'middle', u'right']","[0.9, 0.5, 0.1]","[u'low', u'high', u'medium']","red",50,"middle","high","False","False",228,600,NA
"A3CI73EFDLS3OF","Tue Oct 27 2020 12:34:11 GMT-0400 (Eastern Daylight Time)","Tue Oct 27 2020 12:40:24 GMT-0400 (Eastern Daylight Time)","Mozilla/5.0 (Windows NT 10.0; Win64; x64) AppleWebKit/537.36 (KHTML, like Gecko) Chrome/86.0.4240.111 Safari/537.36",13,"[0.9, 0.5, 0.1]","[0.8, 0.4, 0.2]","[u'blue', u'red', u'black']","[u'left', u'middle', u'right']","[0.9, 0.5, 0.1]","[u'low', u'high', u'medium']","black",51,"right","medium","False","False",287,550,NA
"A3CI73EFDLS3OF","Tue Oct 27 2020 12:34:11 GMT-0400 (Eastern Daylight Time)","Tue Oct 27 2020 12:40:24 GMT-0400 (Eastern Daylight Time)","Mozilla/5.0 (Windows NT 10.0; Win64; x64) AppleWebKit/537.36 (KHTML, like Gecko) Chrome/86.0.4240.111 Safari/537.36",14,"[0.9, 0.5, 0.1]","[0.8, 0.4, 0.2]","[u'blue', u'red', u'black']","[u'left', u'middle', u'right']","[0.9, 0.5, 0.1]","[u'low', u'high', u'medium']","blue",49,"left","low","False","False",305,500,NA
"A3CI73EFDLS3OF","Tue Oct 27 2020 12:34:11 GMT-0400 (Eastern Daylight Time)","Tue Oct 27 2020 12:40:24 GMT-0400 (Eastern Daylight Time)","Mozilla/5.0 (Windows NT 10.0; Win64; x64) AppleWebKit/537.36 (KHTML, like Gecko) Chrome/86.0.4240.111 Safari/537.36",15,"[0.9, 0.5, 0.1]","[0.8, 0.4, 0.2]","[u'blue', u'red', u'black']","[u'left', u'middle', u'right']","[0.9, 0.5, 0.1]","[u'low', u'high', u'medium']","blue",49,"left","low","False","False",146,450,NA
"A3CI73EFDLS3OF","Tue Oct 27 2020 12:34:11 GMT-0400 (Eastern Daylight Time)","Tue Oct 27 2020 12:40:24 GMT-0400 (Eastern Daylight Time)","Mozilla/5.0 (Windows NT 10.0; Win64; x64) AppleWebKit/537.36 (KHTML, like Gecko) Chrome/86.0.4240.111 Safari/537.36",16,"[0.9, 0.5, 0.1]","[0.8, 0.4, 0.2]","[u'blue', u'red', u'black']","[u'left', u'middle', u'right']","[0.9, 0.5, 0.1]","[u'low', u'high', u'medium']","red",50,"middle","high","True","False",271,550,NA
"A3CI73EFDLS3OF","Tue Oct 27 2020 12:34:11 GMT-0400 (Eastern Daylight Time)","Tue Oct 27 2020 12:40:24 GMT-0400 (Eastern Daylight Time)","Mozilla/5.0 (Windows NT 10.0; Win64; x64) AppleWebKit/537.36 (KHTML, like Gecko) Chrome/86.0.4240.111 Safari/537.36",17,"[0.9, 0.5, 0.1]","[0.8, 0.4, 0.2]","[u'blue', u'red', u'black']","[u'left', u'middle', u'right']","[0.9, 0.5, 0.1]","[u'low', u'high', u'medium']","red",50,"middle","high","True","False",226,650,NA
"A3CI73EFDLS3OF","Tue Oct 27 2020 12:34:11 GMT-0400 (Eastern Daylight Time)","Tue Oct 27 2020 12:40:24 GMT-0400 (Eastern Daylight Time)","Mozilla/5.0 (Windows NT 10.0; Win64; x64) AppleWebKit/537.36 (KHTML, like Gecko) Chrome/86.0.4240.111 Safari/537.36",18,"[0.9, 0.5, 0.1]","[0.8, 0.4, 0.2]","[u'blue', u'red', u'black']","[u'left', u'middle', u'right']","[0.9, 0.5, 0.1]","[u'low', u'high', u'medium']","red",50,"middle","high","True","False",318,750,NA
"A3CI73EFDLS3OF","Tue Oct 27 2020 12:34:11 GMT-0400 (Eastern Daylight Time)","Tue Oct 27 2020 12:40:24 GMT-0400 (Eastern Daylight Time)","Mozilla/5.0 (Windows NT 10.0; Win64; x64) AppleWebKit/537.36 (KHTML, like Gecko) Chrome/86.0.4240.111 Safari/537.36",19,"[0.9, 0.5, 0.1]","[0.8, 0.4, 0.2]","[u'blue', u'red', u'black']","[u'left', u'middle', u'right']","[0.9, 0.5, 0.1]","[u'low', u'high', u'medium']","red",50,"middle","high","True","False",222,850,NA
"A3CI73EFDLS3OF","Tue Oct 27 2020 12:34:11 GMT-0400 (Eastern Daylight Time)","Tue Oct 27 2020 12:40:24 GMT-0400 (Eastern Daylight Time)","Mozilla/5.0 (Windows NT 10.0; Win64; x64) AppleWebKit/537.36 (KHTML, like Gecko) Chrome/86.0.4240.111 Safari/537.36",20,"[0.9, 0.5, 0.1]","[0.8, 0.4, 0.2]","[u'blue', u'red', u'black']","[u'left', u'middle', u'right']","[0.9, 0.5, 0.1]","[u'low', u'high', u'medium']","red",50,"middle","high","True","False",391,950,NA
"A3CI73EFDLS3OF","Tue Oct 27 2020 12:34:11 GMT-0400 (Eastern Daylight Time)","Tue Oct 27 2020 12:40:24 GMT-0400 (Eastern Daylight Time)","Mozilla/5.0 (Windows NT 10.0; Win64; x64) AppleWebKit/537.36 (KHTML, like Gecko) Chrome/86.0.4240.111 Safari/537.36",21,"[0.9, 0.5, 0.1]","[0.8, 0.4, 0.2]","[u'blue', u'red', u'black']","[u'left', u'middle', u'right']","[0.9, 0.5, 0.1]","[u'low', u'high', u'medium']","red",50,"middle","high","True","False",130,1050,NA
"A3CI73EFDLS3OF","Tue Oct 27 2020 12:34:11 GMT-0400 (Eastern Daylight Time)","Tue Oct 27 2020 12:40:24 GMT-0400 (Eastern Daylight Time)","Mozilla/5.0 (Windows NT 10.0; Win64; x64) AppleWebKit/537.36 (KHTML, like Gecko) Chrome/86.0.4240.111 Safari/537.36",22,"[0.9, 0.5, 0.1]","[0.8, 0.4, 0.2]","[u'blue', u'red', u'black']","[u'left', u'middle', u'right']","[0.9, 0.5, 0.1]","[u'low', u'high', u'medium']","red",50,"middle","high","True","False",254,1150,NA
"A3CI73EFDLS3OF","Tue Oct 27 2020 12:34:11 GMT-0400 (Eastern Daylight Time)","Tue Oct 27 2020 12:40:24 GMT-0400 (Eastern Daylight Time)","Mozilla/5.0 (Windows NT 10.0; Win64; x64) AppleWebKit/537.36 (KHTML, like Gecko) Chrome/86.0.4240.111 Safari/537.36",23,"[0.9, 0.5, 0.1]","[0.8, 0.4, 0.2]","[u'blue', u'red', u'black']","[u'left', u'middle', u'right']","[0.9, 0.5, 0.1]","[u'low', u'high', u'medium']","red",50,"middle","high","True","False",209,1250,NA
"A3CI73EFDLS3OF","Tue Oct 27 2020 12:34:11 GMT-0400 (Eastern Daylight Time)","Tue Oct 27 2020 12:40:24 GMT-0400 (Eastern Daylight Time)","Mozilla/5.0 (Windows NT 10.0; Win64; x64) AppleWebKit/537.36 (KHTML, like Gecko) Chrome/86.0.4240.111 Safari/537.36",24,"[0.9, 0.5, 0.1]","[0.8, 0.4, 0.2]","[u'blue', u'red', u'black']","[u'left', u'middle', u'right']","[0.9, 0.5, 0.1]","[u'low', u'high', u'medium']","red",50,"middle","high","False","True",181,1200,NA
"A3CI73EFDLS3OF","Tue Oct 27 2020 12:34:11 GMT-0400 (Eastern Daylight Time)","Tue Oct 27 2020 12:40:24 GMT-0400 (Eastern Daylight Time)","Mozilla/5.0 (Windows NT 10.0; Win64; x64) AppleWebKit/537.36 (KHTML, like Gecko) Chrome/86.0.4240.111 Safari/537.36",25,"[0.9, 0.5, 0.1]","[0.8, 0.4, 0.2]","[u'blue', u'red', u'black']","[u'left', u'middle', u'right']","[0.9, 0.5, 0.1]","[u'high', u'low', u'medium']","red",50,"middle","low","False","False",225,1150,NA
"A3CI73EFDLS3OF","Tue Oct 27 2020 12:34:11 GMT-0400 (Eastern Daylight Time)","Tue Oct 27 2020 12:40:24 GMT-0400 (Eastern Daylight Time)","Mozilla/5.0 (Windows NT 10.0; Win64; x64) AppleWebKit/537.36 (KHTML, like Gecko) Chrome/86.0.4240.111 Safari/537.36",26,"[0.9, 0.5, 0.1]","[0.8, 0.4, 0.2]","[u'blue', u'red', u'black']","[u'left', u'middle', u'right']","[0.9, 0.5, 0.1]","[u'high', u'low', u'medium']","red",50,"middle","low","False","False",226,1100,NA
"A3CI73EFDLS3OF","Tue Oct 27 2020 12:34:11 GMT-0400 (Eastern Daylight Time)","Tue Oct 27 2020 12:40:24 GMT-0400 (Eastern Daylight Time)","Mozilla/5.0 (Windows NT 10.0; Win64; x64) AppleWebKit/537.36 (KHTML, like Gecko) Chrome/86.0.4240.111 Safari/537.36",27,"[0.9, 0.5, 0.1]","[0.8, 0.4, 0.2]","[u'blue', u'red', u'black']","[u'left', u'middle', u'right']","[0.9, 0.5, 0.1]","[u'high', u'low', u'medium']","black",51,"right","medium","True","False",254,1200,NA
"A3CI73EFDLS3OF","Tue Oct 27 2020 12:34:11 GMT-0400 (Eastern Daylight Time)","Tue Oct 27 2020 12:40:24 GMT-0400 (Eastern Daylight Time)","Mozilla/5.0 (Windows NT 10.0; Win64; x64) AppleWebKit/537.36 (KHTML, like Gecko) Chrome/86.0.4240.111 Safari/537.36",28,"[0.9, 0.5, 0.1]","[0.8, 0.4, 0.2]","[u'blue', u'red', u'black']","[u'left', u'middle', u'right']","[0.9, 0.5, 0.1]","[u'high', u'low', u'medium']","black",51,"right","medium","True","False",221,1300,NA
"A3CI73EFDLS3OF","Tue Oct 27 2020 12:34:11 GMT-0400 (Eastern Daylight Time)","Tue Oct 27 2020 12:40:24 GMT-0400 (Eastern Daylight Time)","Mozilla/5.0 (Windows NT 10.0; Win64; x64) AppleWebKit/537.36 (KHTML, like Gecko) Chrome/86.0.4240.111 Safari/537.36",29,"[0.9, 0.5, 0.1]","[0.8, 0.4, 0.2]","[u'blue', u'red', u'black']","[u'left', u'middle', u'right']","[0.9, 0.5, 0.1]","[u'high', u'low', u'medium']","black",51,"right","medium","True","False",193,1400,NA
"A3CI73EFDLS3OF","Tue Oct 27 2020 12:34:11 GMT-0400 (Eastern Daylight Time)","Tue Oct 27 2020 12:40:24 GMT-0400 (Eastern Daylight Time)","Mozilla/5.0 (Windows NT 10.0; Win64; x64) AppleWebKit/537.36 (KHTML, like Gecko) Chrome/86.0.4240.111 Safari/537.36",30,"[0.9, 0.5, 0.1]","[0.8, 0.4, 0.2]","[u'blue', u'red', u'black']","[u'left', u'middle', u'right']","[0.9, 0.5, 0.1]","[u'high', u'low', u'medium']","black",51,"right","medium","True","False",227,1500,NA
"A3CI73EFDLS3OF","Tue Oct 27 2020 12:34:11 GMT-0400 (Eastern Daylight Time)","Tue Oct 27 2020 12:40:24 GMT-0400 (Eastern Daylight Time)","Mozilla/5.0 (Windows NT 10.0; Win64; x64) AppleWebKit/537.36 (KHTML, like Gecko) Chrome/86.0.4240.111 Safari/537.36",31,"[0.9, 0.5, 0.1]","[0.8, 0.4, 0.2]","[u'blue', u'red', u'black']","[u'left', u'middle', u'right']","[0.9, 0.5, 0.1]","[u'high', u'low', u'medium']","black",51,"right","medium","False","False",225,1450,NA
"A3CI73EFDLS3OF","Tue Oct 27 2020 12:34:11 GMT-0400 (Eastern Daylight Time)","Tue Oct 27 2020 12:40:24 GMT-0400 (Eastern Daylight Time)","Mozilla/5.0 (Windows NT 10.0; Win64; x64) AppleWebKit/537.36 (KHTML, like Gecko) Chrome/86.0.4240.111 Safari/537.36",32,"[0.9, 0.5, 0.1]","[0.8, 0.4, 0.2]","[u'blue', u'red', u'black']","[u'left', u'middle', u'right']","[0.9, 0.5, 0.1]","[u'high', u'low', u'medium']","black",51,"right","medium","True","False",81,1550,NA
"A3CI73EFDLS3OF","Tue Oct 27 2020 12:34:11 GMT-0400 (Eastern Daylight Time)","Tue Oct 27 2020 12:40:24 GMT-0400 (Eastern Daylight Time)","Mozilla/5.0 (Windows NT 10.0; Win64; x64) AppleWebKit/537.36 (KHTML, like Gecko) Chrome/86.0.4240.111 Safari/537.36",33,"[0.9, 0.5, 0.1]","[0.8, 0.4, 0.2]","[u'blue', u'red', u'black']","[u'left', u'middle', u'right']","[0.9, 0.5, 0.1]","[u'high', u'low', u'medium']","black",51,"right","medium","False","False",171,1500,NA
"A3CI73EFDLS3OF","Tue Oct 27 2020 12:34:11 GMT-0400 (Eastern Daylight Time)","Tue Oct 27 2020 12:40:24 GMT-0400 (Eastern Daylight Time)","Mozilla/5.0 (Windows NT 10.0; Win64; x64) AppleWebKit/537.36 (KHTML, like Gecko) Chrome/86.0.4240.111 Safari/537.36",34,"[0.9, 0.5, 0.1]","[0.8, 0.4, 0.2]","[u'blue', u'red', u'black']","[u'left', u'middle', u'right']","[0.9, 0.5, 0.1]","[u'high', u'low', u'medium']","black",51,"right","medium","False","False",225,1450,NA
"A3CI73EFDLS3OF","Tue Oct 27 2020 12:34:11 GMT-0400 (Eastern Daylight Time)","Tue Oct 27 2020 12:40:24 GMT-0400 (Eastern Daylight Time)","Mozilla/5.0 (Windows NT 10.0; Win64; x64) AppleWebKit/537.36 (KHTML, like Gecko) Chrome/86.0.4240.111 Safari/537.36",35,"[0.9, 0.5, 0.1]","[0.8, 0.4, 0.2]","[u'blue', u'red', u'black']","[u'left', u'middle', u'right']","[0.9, 0.5, 0.1]","[u'high', u'low', u'medium']","black",51,"right","medium","True","False",221,1550,NA
"A3CI73EFDLS3OF","Tue Oct 27 2020 12:34:11 GMT-0400 (Eastern Daylight Time)","Tue Oct 27 2020 12:40:24 GMT-0400 (Eastern Daylight Time)","Mozilla/5.0 (Windows NT 10.0; Win64; x64) AppleWebKit/537.36 (KHTML, like Gecko) Chrome/86.0.4240.111 Safari/537.36",36,"[0.9, 0.5, 0.1]","[0.8, 0.4, 0.2]","[u'blue', u'red', u'black']","[u'left', u'middle', u'right']","[0.9, 0.5, 0.1]","[u'high', u'low', u'medium']","black",51,"right","medium","True","False",276,1650,NA
"A3CI73EFDLS3OF","Tue Oct 27 2020 12:34:11 GMT-0400 (Eastern Daylight Time)","Tue Oct 27 2020 12:40:24 GMT-0400 (Eastern Daylight Time)","Mozilla/5.0 (Windows NT 10.0; Win64; x64) AppleWebKit/537.36 (KHTML, like Gecko) Chrome/86.0.4240.111 Safari/537.36",37,"[0.9, 0.5, 0.1]","[0.8, 0.4, 0.2]","[u'blue', u'red', u'black']","[u'left', u'middle', u'right']","[0.9, 0.5, 0.1]","[u'high', u'low', u'medium']","black",51,"right","medium","False","False",192,1600,NA
"A3CI73EFDLS3OF","Tue Oct 27 2020 12:34:11 GMT-0400 (Eastern Daylight Time)","Tue Oct 27 2020 12:40:24 GMT-0400 (Eastern Daylight Time)","Mozilla/5.0 (Windows NT 10.0; Win64; x64) AppleWebKit/537.36 (KHTML, like Gecko) Chrome/86.0.4240.111 Safari/537.36",38,"[0.9, 0.5, 0.1]","[0.8, 0.4, 0.2]","[u'blue', u'red', u'black']","[u'left', u'middle', u'right']","[0.9, 0.5, 0.1]","[u'high', u'low', u'medium']","black",51,"right","medium","True","False",193,1700,NA
"A3CI73EFDLS3OF","Tue Oct 27 2020 12:34:11 GMT-0400 (Eastern Daylight Time)","Tue Oct 27 2020 12:40:24 GMT-0400 (Eastern Daylight Time)","Mozilla/5.0 (Windows NT 10.0; Win64; x64) AppleWebKit/537.36 (KHTML, like Gecko) Chrome/86.0.4240.111 Safari/537.36",39,"[0.9, 0.5, 0.1]","[0.8, 0.4, 0.2]","[u'blue', u'red', u'black']","[u'left', u'middle', u'right']","[0.9, 0.5, 0.1]","[u'high', u'low', u'medium']","black",51,"right","medium","True","False",270,1800,NA
"A3CI73EFDLS3OF","Tue Oct 27 2020 12:34:11 GMT-0400 (Eastern Daylight Time)","Tue Oct 27 2020 12:40:24 GMT-0400 (Eastern Daylight Time)","Mozilla/5.0 (Windows NT 10.0; Win64; x64) AppleWebKit/537.36 (KHTML, like Gecko) Chrome/86.0.4240.111 Safari/537.36",40,"[0.9, 0.5, 0.1]","[0.8, 0.4, 0.2]","[u'blue', u'red', u'black']","[u'left', u'middle', u'right']","[0.9, 0.5, 0.1]","[u'high', u'low', u'medium']","black",51,"right","medium","True","False",161,1900,NA
"A3CI73EFDLS3OF","Tue Oct 27 2020 12:34:11 GMT-0400 (Eastern Daylight Time)","Tue Oct 27 2020 12:40:24 GMT-0400 (Eastern Daylight Time)","Mozilla/5.0 (Windows NT 10.0; Win64; x64) AppleWebKit/537.36 (KHTML, like Gecko) Chrome/86.0.4240.111 Safari/537.36",41,"[0.9, 0.5, 0.1]","[0.8, 0.4, 0.2]","[u'blue', u'red', u'black']","[u'left', u'middle', u'right']","[0.9, 0.5, 0.1]","[u'low', u'medium', u'high']","black",51,"right","high","False","False",1954,1850,NA
"A3CI73EFDLS3OF","Tue Oct 27 2020 12:34:11 GMT-0400 (Eastern Daylight Time)","Tue Oct 27 2020 12:40:24 GMT-0400 (Eastern Daylight Time)","Mozilla/5.0 (Windows NT 10.0; Win64; x64) AppleWebKit/537.36 (KHTML, like Gecko) Chrome/86.0.4240.111 Safari/537.36",42,"[0.9, 0.5, 0.1]","[0.8, 0.4, 0.2]","[u'blue', u'red', u'black']","[u'left', u'middle', u'right']","[0.9, 0.5, 0.1]","[u'low', u'medium', u'high']","black",51,"right","high","True","False",318,1950,NA
"A3CI73EFDLS3OF","Tue Oct 27 2020 12:34:11 GMT-0400 (Eastern Daylight Time)","Tue Oct 27 2020 12:40:24 GMT-0400 (Eastern Daylight Time)","Mozilla/5.0 (Windows NT 10.0; Win64; x64) AppleWebKit/537.36 (KHTML, like Gecko) Chrome/86.0.4240.111 Safari/537.36",43,"[0.9, 0.5, 0.1]","[0.8, 0.4, 0.2]","[u'blue', u'red', u'black']","[u'left', u'middle', u'right']","[0.9, 0.5, 0.1]","[u'low', u'medium', u'high']","black",51,"right","high","True","False",306,2050,NA
"A3CI73EFDLS3OF","Tue Oct 27 2020 12:34:11 GMT-0400 (Eastern Daylight Time)","Tue Oct 27 2020 12:40:24 GMT-0400 (Eastern Daylight Time)","Mozilla/5.0 (Windows NT 10.0; Win64; x64) AppleWebKit/537.36 (KHTML, like Gecko) Chrome/86.0.4240.111 Safari/537.36",44,"[0.9, 0.5, 0.1]","[0.8, 0.4, 0.2]","[u'blue', u'red', u'black']","[u'left', u'middle', u'right']","[0.9, 0.5, 0.1]","[u'low', u'medium', u'high']","black",51,"right","high","True","False",268,2150,NA
"A3CI73EFDLS3OF","Tue Oct 27 2020 12:34:11 GMT-0400 (Eastern Daylight Time)","Tue Oct 27 2020 12:40:24 GMT-0400 (Eastern Daylight Time)","Mozilla/5.0 (Windows NT 10.0; Win64; x64) AppleWebKit/537.36 (KHTML, like Gecko) Chrome/86.0.4240.111 Safari/537.36",45,"[0.9, 0.5, 0.1]","[0.8, 0.4, 0.2]","[u'blue', u'red', u'black']","[u'left', u'middle', u'right']","[0.9, 0.5, 0.1]","[u'low', u'medium', u'high']","black",51,"right","high","True","False",305,2250,NA
"A3CI73EFDLS3OF","Tue Oct 27 2020 12:34:11 GMT-0400 (Eastern Daylight Time)","Tue Oct 27 2020 12:40:24 GMT-0400 (Eastern Daylight Time)","Mozilla/5.0 (Windows NT 10.0; Win64; x64) AppleWebKit/537.36 (KHTML, like Gecko) Chrome/86.0.4240.111 Safari/537.36",46,"[0.9, 0.5, 0.1]","[0.8, 0.4, 0.2]","[u'blue', u'red', u'black']","[u'left', u'middle', u'right']","[0.9, 0.5, 0.1]","[u'low', u'medium', u'high']","black",51,"right","high","True","False",254,2350,NA
"A3CI73EFDLS3OF","Tue Oct 27 2020 12:34:11 GMT-0400 (Eastern Daylight Time)","Tue Oct 27 2020 12:40:24 GMT-0400 (Eastern Daylight Time)","Mozilla/5.0 (Windows NT 10.0; Win64; x64) AppleWebKit/537.36 (KHTML, like Gecko) Chrome/86.0.4240.111 Safari/537.36",47,"[0.9, 0.5, 0.1]","[0.8, 0.4, 0.2]","[u'blue', u'red', u'black']","[u'left', u'middle', u'right']","[0.9, 0.5, 0.1]","[u'low', u'medium', u'high']","black",51,"right","high","True","False",305,2450,NA
"A3CI73EFDLS3OF","Tue Oct 27 2020 12:34:11 GMT-0400 (Eastern Daylight Time)","Tue Oct 27 2020 12:40:24 GMT-0400 (Eastern Daylight Time)","Mozilla/5.0 (Windows NT 10.0; Win64; x64) AppleWebKit/537.36 (KHTML, like Gecko) Chrome/86.0.4240.111 Safari/537.36",48,"[0.9, 0.5, 0.1]","[0.8, 0.4, 0.2]","[u'blue', u'red', u'black']","[u'left', u'middle', u'right']","[0.9, 0.5, 0.1]","[u'low', u'medium', u'high']","black",51,"right","high","True","False",271,2550,NA
"A3CI73EFDLS3OF","Tue Oct 27 2020 12:34:11 GMT-0400 (Eastern Daylight Time)","Tue Oct 27 2020 12:40:24 GMT-0400 (Eastern Daylight Time)","Mozilla/5.0 (Windows NT 10.0; Win64; x64) AppleWebKit/537.36 (KHTML, like Gecko) Chrome/86.0.4240.111 Safari/537.36",49,"[0.9, 0.5, 0.1]","[0.8, 0.4, 0.2]","[u'blue', u'red', u'black']","[u'left', u'middle', u'right']","[0.9, 0.5, 0.1]","[u'low', u'medium', u'high']","black",51,"right","high","True","True",303,2650,NA
"A3CI73EFDLS3OF","Tue Oct 27 2020 12:34:11 GMT-0400 (Eastern Daylight Time)","Tue Oct 27 2020 12:40:24 GMT-0400 (Eastern Daylight Time)","Mozilla/5.0 (Windows NT 10.0; Win64; x64) AppleWebKit/537.36 (KHTML, like Gecko) Chrome/86.0.4240.111 Safari/537.36",50,"[0.9, 0.5, 0.1]","[0.8, 0.4, 0.2]","[u'blue', u'red', u'black']","[u'left', u'middle', u'right']","[0.9, 0.5, 0.1]","[u'medium', u'high', u'low']","black",51,"right","low","False","False",208,2600,NA
"A3CI73EFDLS3OF","Tue Oct 27 2020 12:34:11 GMT-0400 (Eastern Daylight Time)","Tue Oct 27 2020 12:40:24 GMT-0400 (Eastern Daylight Time)","Mozilla/5.0 (Windows NT 10.0; Win64; x64) AppleWebKit/537.36 (KHTML, like Gecko) Chrome/86.0.4240.111 Safari/537.36",51,"[0.9, 0.5, 0.1]","[0.8, 0.4, 0.2]","[u'blue', u'red', u'black']","[u'left', u'middle', u'right']","[0.9, 0.5, 0.1]","[u'medium', u'high', u'low']","black",51,"right","low","False","False",241,2550,NA
"A3CI73EFDLS3OF","Tue Oct 27 2020 12:34:11 GMT-0400 (Eastern Daylight Time)","Tue Oct 27 2020 12:40:24 GMT-0400 (Eastern Daylight Time)","Mozilla/5.0 (Windows NT 10.0; Win64; x64) AppleWebKit/537.36 (KHTML, like Gecko) Chrome/86.0.4240.111 Safari/537.36",52,"[0.9, 0.5, 0.1]","[0.8, 0.4, 0.2]","[u'blue', u'red', u'black']","[u'left', u'middle', u'right']","[0.9, 0.5, 0.1]","[u'medium', u'high', u'low']","black",51,"right","low","False","False",284,2500,NA
"A3CI73EFDLS3OF","Tue Oct 27 2020 12:34:11 GMT-0400 (Eastern Daylight Time)","Tue Oct 27 2020 12:40:24 GMT-0400 (Eastern Daylight Time)","Mozilla/5.0 (Windows NT 10.0; Win64; x64) AppleWebKit/537.36 (KHTML, like Gecko) Chrome/86.0.4240.111 Safari/537.36",53,"[0.9, 0.5, 0.1]","[0.8, 0.4, 0.2]","[u'blue', u'red', u'black']","[u'left', u'middle', u'right']","[0.9, 0.5, 0.1]","[u'medium', u'high', u'low']","blue",49,"left","medium","False","False",95,2450,NA
"A3CI73EFDLS3OF","Tue Oct 27 2020 12:34:11 GMT-0400 (Eastern Daylight Time)","Tue Oct 27 2020 12:40:24 GMT-0400 (Eastern Daylight Time)","Mozilla/5.0 (Windows NT 10.0; Win64; x64) AppleWebKit/537.36 (KHTML, like Gecko) Chrome/86.0.4240.111 Safari/537.36",54,"[0.9, 0.5, 0.1]","[0.8, 0.4, 0.2]","[u'blue', u'red', u'black']","[u'left', u'middle', u'right']","[0.9, 0.5, 0.1]","[u'medium', u'high', u'low']","blue",49,"left","medium","False","False",209,2400,NA
"A3CI73EFDLS3OF","Tue Oct 27 2020 12:34:11 GMT-0400 (Eastern Daylight Time)","Tue Oct 27 2020 12:40:24 GMT-0400 (Eastern Daylight Time)","Mozilla/5.0 (Windows NT 10.0; Win64; x64) AppleWebKit/537.36 (KHTML, like Gecko) Chrome/86.0.4240.111 Safari/537.36",55,"[0.9, 0.5, 0.1]","[0.8, 0.4, 0.2]","[u'blue', u'red', u'black']","[u'left', u'middle', u'right']","[0.9, 0.5, 0.1]","[u'medium', u'high', u'low']","red",50,"middle","high","False","False",144,2350,NA
"A3CI73EFDLS3OF","Tue Oct 27 2020 12:34:11 GMT-0400 (Eastern Daylight Time)","Tue Oct 27 2020 12:40:24 GMT-0400 (Eastern Daylight Time)","Mozilla/5.0 (Windows NT 10.0; Win64; x64) AppleWebKit/537.36 (KHTML, like Gecko) Chrome/86.0.4240.111 Safari/537.36",56,"[0.9, 0.5, 0.1]","[0.8, 0.4, 0.2]","[u'blue', u'red', u'black']","[u'left', u'middle', u'right']","[0.9, 0.5, 0.1]","[u'medium', u'high', u'low']","red",50,"middle","high","False","False",224,2300,NA
"A3CI73EFDLS3OF","Tue Oct 27 2020 12:34:11 GMT-0400 (Eastern Daylight Time)","Tue Oct 27 2020 12:40:24 GMT-0400 (Eastern Daylight Time)","Mozilla/5.0 (Windows NT 10.0; Win64; x64) AppleWebKit/537.36 (KHTML, like Gecko) Chrome/86.0.4240.111 Safari/537.36",57,"[0.9, 0.5, 0.1]","[0.8, 0.4, 0.2]","[u'blue', u'red', u'black']","[u'left', u'middle', u'right']","[0.9, 0.5, 0.1]","[u'medium', u'high', u'low']","red",50,"middle","high","True","False",192,2400,NA
"A3CI73EFDLS3OF","Tue Oct 27 2020 12:34:11 GMT-0400 (Eastern Daylight Time)","Tue Oct 27 2020 12:40:24 GMT-0400 (Eastern Daylight Time)","Mozilla/5.0 (Windows NT 10.0; Win64; x64) AppleWebKit/537.36 (KHTML, like Gecko) Chrome/86.0.4240.111 Safari/537.36",58,"[0.9, 0.5, 0.1]","[0.8, 0.4, 0.2]","[u'blue', u'red', u'black']","[u'left', u'middle', u'right']","[0.9, 0.5, 0.1]","[u'medium', u'high', u'low']","red",50,"middle","high","True","False",272,2500,NA
"A3CI73EFDLS3OF","Tue Oct 27 2020 12:34:11 GMT-0400 (Eastern Daylight Time)","Tue Oct 27 2020 12:40:24 GMT-0400 (Eastern Daylight Time)","Mozilla/5.0 (Windows NT 10.0; Win64; x64) AppleWebKit/537.36 (KHTML, like Gecko) Chrome/86.0.4240.111 Safari/537.36",59,"[0.9, 0.5, 0.1]","[0.8, 0.4, 0.2]","[u'blue', u'red', u'black']","[u'left', u'middle', u'right']","[0.9, 0.5, 0.1]","[u'medium', u'high', u'low']","red",50,"middle","high","False","False",281,2450,NA
"A3CI73EFDLS3OF","Tue Oct 27 2020 12:34:11 GMT-0400 (Eastern Daylight Time)","Tue Oct 27 2020 12:40:24 GMT-0400 (Eastern Daylight Time)","Mozilla/5.0 (Windows NT 10.0; Win64; x64) AppleWebKit/537.36 (KHTML, like Gecko) Chrome/86.0.4240.111 Safari/537.36",60,"[0.9, 0.5, 0.1]","[0.8, 0.4, 0.2]","[u'blue', u'red', u'black']","[u'left', u'middle', u'right']","[0.9, 0.5, 0.1]","[u'medium', u'high', u'low']","red",50,"middle","high","True","False",239,2550,NA
"A3CI73EFDLS3OF","Tue Oct 27 2020 12:34:11 GMT-0400 (Eastern Daylight Time)","Tue Oct 27 2020 12:40:24 GMT-0400 (Eastern Daylight Time)","Mozilla/5.0 (Windows NT 10.0; Win64; x64) AppleWebKit/537.36 (KHTML, like Gecko) Chrome/86.0.4240.111 Safari/537.36",61,"[0.9, 0.5, 0.1]","[0.8, 0.4, 0.2]","[u'blue', u'red', u'black']","[u'left', u'middle', u'right']","[0.9, 0.5, 0.1]","[u'medium', u'high', u'low']","red",50,"middle","high","False","False",272,2500,NA
"A3CI73EFDLS3OF","Tue Oct 27 2020 12:34:11 GMT-0400 (Eastern Daylight Time)","Tue Oct 27 2020 12:40:24 GMT-0400 (Eastern Daylight Time)","Mozilla/5.0 (Windows NT 10.0; Win64; x64) AppleWebKit/537.36 (KHTML, like Gecko) Chrome/86.0.4240.111 Safari/537.36",62,"[0.9, 0.5, 0.1]","[0.8, 0.4, 0.2]","[u'blue', u'red', u'black']","[u'left', u'middle', u'right']","[0.9, 0.5, 0.1]","[u'medium', u'high', u'low']","red",50,"middle","high","False","False",208,2450,NA
"A3CI73EFDLS3OF","Tue Oct 27 2020 12:34:11 GMT-0400 (Eastern Daylight Time)","Tue Oct 27 2020 12:40:24 GMT-0400 (Eastern Daylight Time)","Mozilla/5.0 (Windows NT 10.0; Win64; x64) AppleWebKit/537.36 (KHTML, like Gecko) Chrome/86.0.4240.111 Safari/537.36",63,"[0.9, 0.5, 0.1]","[0.8, 0.4, 0.2]","[u'blue', u'red', u'black']","[u'left', u'middle', u'right']","[0.9, 0.5, 0.1]","[u'medium', u'high', u'low']","red",50,"middle","high","True","True",256,2550,NA
"A3CI73EFDLS3OF","Tue Oct 27 2020 12:34:11 GMT-0400 (Eastern Daylight Time)","Tue Oct 27 2020 12:40:24 GMT-0400 (Eastern Daylight Time)","Mozilla/5.0 (Windows NT 10.0; Win64; x64) AppleWebKit/537.36 (KHTML, like Gecko) Chrome/86.0.4240.111 Safari/537.36",64,"[0.9, 0.5, 0.1]","[0.8, 0.4, 0.2]","[u'blue', u'red', u'black']","[u'left', u'middle', u'right']","[0.9, 0.5, 0.1]","[u'high', u'medium', u'low']","red",50,"middle","medium","True","False",258,2650,NA
"A3CI73EFDLS3OF","Tue Oct 27 2020 12:34:11 GMT-0400 (Eastern Daylight Time)","Tue Oct 27 2020 12:40:24 GMT-0400 (Eastern Daylight Time)","Mozilla/5.0 (Windows NT 10.0; Win64; x64) AppleWebKit/537.36 (KHTML, like Gecko) Chrome/86.0.4240.111 Safari/537.36",65,"[0.9, 0.5, 0.1]","[0.8, 0.4, 0.2]","[u'blue', u'red', u'black']","[u'left', u'middle', u'right']","[0.9, 0.5, 0.1]","[u'high', u'medium', u'low']","red",50,"middle","medium","True","False",191,2750,NA
"A3CI73EFDLS3OF","Tue Oct 27 2020 12:34:11 GMT-0400 (Eastern Daylight Time)","Tue Oct 27 2020 12:40:24 GMT-0400 (Eastern Daylight Time)","Mozilla/5.0 (Windows NT 10.0; Win64; x64) AppleWebKit/537.36 (KHTML, like Gecko) Chrome/86.0.4240.111 Safari/537.36",66,"[0.9, 0.5, 0.1]","[0.8, 0.4, 0.2]","[u'blue', u'red', u'black']","[u'left', u'middle', u'right']","[0.9, 0.5, 0.1]","[u'high', u'medium', u'low']","red",50,"middle","medium","True","False",239,2850,NA
"A3CI73EFDLS3OF","Tue Oct 27 2020 12:34:11 GMT-0400 (Eastern Daylight Time)","Tue Oct 27 2020 12:40:24 GMT-0400 (Eastern Daylight Time)","Mozilla/5.0 (Windows NT 10.0; Win64; x64) AppleWebKit/537.36 (KHTML, like Gecko) Chrome/86.0.4240.111 Safari/537.36",67,"[0.9, 0.5, 0.1]","[0.8, 0.4, 0.2]","[u'blue', u'red', u'black']","[u'left', u'middle', u'right']","[0.9, 0.5, 0.1]","[u'high', u'medium', u'low']","red",50,"middle","medium","True","False",267,2950,NA
"A3CI73EFDLS3OF","Tue Oct 27 2020 12:34:11 GMT-0400 (Eastern Daylight Time)","Tue Oct 27 2020 12:40:24 GMT-0400 (Eastern Daylight Time)","Mozilla/5.0 (Windows NT 10.0; Win64; x64) AppleWebKit/537.36 (KHTML, like Gecko) Chrome/86.0.4240.111 Safari/537.36",68,"[0.9, 0.5, 0.1]","[0.8, 0.4, 0.2]","[u'blue', u'red', u'black']","[u'left', u'middle', u'right']","[0.9, 0.5, 0.1]","[u'high', u'medium', u'low']","red",50,"middle","medium","True","False",219,3050,NA
"A3CI73EFDLS3OF","Tue Oct 27 2020 12:34:11 GMT-0400 (Eastern Daylight Time)","Tue Oct 27 2020 12:40:24 GMT-0400 (Eastern Daylight Time)","Mozilla/5.0 (Windows NT 10.0; Win64; x64) AppleWebKit/537.36 (KHTML, like Gecko) Chrome/86.0.4240.111 Safari/537.36",69,"[0.9, 0.5, 0.1]","[0.8, 0.4, 0.2]","[u'blue', u'red', u'black']","[u'left', u'middle', u'right']","[0.9, 0.5, 0.1]","[u'high', u'medium', u'low']","red",50,"middle","medium","False","False",161,3000,NA
"A3CI73EFDLS3OF","Tue Oct 27 2020 12:34:11 GMT-0400 (Eastern Daylight Time)","Tue Oct 27 2020 12:40:24 GMT-0400 (Eastern Daylight Time)","Mozilla/5.0 (Windows NT 10.0; Win64; x64) AppleWebKit/537.36 (KHTML, like Gecko) Chrome/86.0.4240.111 Safari/537.36",70,"[0.9, 0.5, 0.1]","[0.8, 0.4, 0.2]","[u'blue', u'red', u'black']","[u'left', u'middle', u'right']","[0.9, 0.5, 0.1]","[u'high', u'medium', u'low']","red",50,"middle","medium","True","False",148,3100,NA
"A3CI73EFDLS3OF","Tue Oct 27 2020 12:34:11 GMT-0400 (Eastern Daylight Time)","Tue Oct 27 2020 12:40:24 GMT-0400 (Eastern Daylight Time)","Mozilla/5.0 (Windows NT 10.0; Win64; x64) AppleWebKit/537.36 (KHTML, like Gecko) Chrome/86.0.4240.111 Safari/537.36",71,"[0.9, 0.5, 0.1]","[0.8, 0.4, 0.2]","[u'blue', u'red', u'black']","[u'left', u'middle', u'right']","[0.9, 0.5, 0.1]","[u'high', u'medium', u'low']","red",50,"middle","medium","True","False",114,3200,NA
"A3CI73EFDLS3OF","Tue Oct 27 2020 12:34:11 GMT-0400 (Eastern Daylight Time)","Tue Oct 27 2020 12:40:24 GMT-0400 (Eastern Daylight Time)","Mozilla/5.0 (Windows NT 10.0; Win64; x64) AppleWebKit/537.36 (KHTML, like Gecko) Chrome/86.0.4240.111 Safari/537.36",72,"[0.9, 0.5, 0.1]","[0.8, 0.4, 0.2]","[u'blue', u'red', u'black']","[u'left', u'middle', u'right']","[0.9, 0.5, 0.1]","[u'high', u'medium', u'low']","red",50,"middle","medium","False","False",177,3150,NA
"A3CI73EFDLS3OF","Tue Oct 27 2020 12:34:11 GMT-0400 (Eastern Daylight Time)","Tue Oct 27 2020 12:40:24 GMT-0400 (Eastern Daylight Time)","Mozilla/5.0 (Windows NT 10.0; Win64; x64) AppleWebKit/537.36 (KHTML, like Gecko) Chrome/86.0.4240.111 Safari/537.36",73,"[0.9, 0.5, 0.1]","[0.8, 0.4, 0.2]","[u'blue', u'red', u'black']","[u'left', u'middle', u'right']","[0.9, 0.5, 0.1]","[u'high', u'medium', u'low']","red",50,"middle","medium","False","False",548,3100,NA
"A3CI73EFDLS3OF","Tue Oct 27 2020 12:34:11 GMT-0400 (Eastern Daylight Time)","Tue Oct 27 2020 12:40:24 GMT-0400 (Eastern Daylight Time)","Mozilla/5.0 (Windows NT 10.0; Win64; x64) AppleWebKit/537.36 (KHTML, like Gecko) Chrome/86.0.4240.111 Safari/537.36",74,"[0.9, 0.5, 0.1]","[0.8, 0.4, 0.2]","[u'blue', u'red', u'black']","[u'left', u'middle', u'right']","[0.9, 0.5, 0.1]","[u'high', u'medium', u'low']","red",50,"middle","medium","False","False",304,3050,NA
"A3CI73EFDLS3OF","Tue Oct 27 2020 12:34:11 GMT-0400 (Eastern Daylight Time)","Tue Oct 27 2020 12:40:24 GMT-0400 (Eastern Daylight Time)","Mozilla/5.0 (Windows NT 10.0; Win64; x64) AppleWebKit/537.36 (KHTML, like Gecko) Chrome/86.0.4240.111 Safari/537.36",75,"[0.9, 0.5, 0.1]","[0.8, 0.4, 0.2]","[u'blue', u'red', u'black']","[u'left', u'middle', u'right']","[0.9, 0.5, 0.1]","[u'high', u'medium', u'low']","blue",49,"left","high","True","False",98,3150,NA
"A3CI73EFDLS3OF","Tue Oct 27 2020 12:34:11 GMT-0400 (Eastern Daylight Time)","Tue Oct 27 2020 12:40:24 GMT-0400 (Eastern Daylight Time)","Mozilla/5.0 (Windows NT 10.0; Win64; x64) AppleWebKit/537.36 (KHTML, like Gecko) Chrome/86.0.4240.111 Safari/537.36",76,"[0.9, 0.5, 0.1]","[0.8, 0.4, 0.2]","[u'blue', u'red', u'black']","[u'left', u'middle', u'right']","[0.9, 0.5, 0.1]","[u'high', u'medium', u'low']","blue",49,"left","high","True","False",209,3250,NA
"A3CI73EFDLS3OF","Tue Oct 27 2020 12:34:11 GMT-0400 (Eastern Daylight Time)","Tue Oct 27 2020 12:40:24 GMT-0400 (Eastern Daylight Time)","Mozilla/5.0 (Windows NT 10.0; Win64; x64) AppleWebKit/537.36 (KHTML, like Gecko) Chrome/86.0.4240.111 Safari/537.36",77,"[0.9, 0.5, 0.1]","[0.8, 0.4, 0.2]","[u'blue', u'red', u'black']","[u'left', u'middle', u'right']","[0.9, 0.5, 0.1]","[u'high', u'medium', u'low']","blue",49,"left","high","True","False",272,3350,NA
"A3CI73EFDLS3OF","Tue Oct 27 2020 12:34:11 GMT-0400 (Eastern Daylight Time)","Tue Oct 27 2020 12:40:24 GMT-0400 (Eastern Daylight Time)","Mozilla/5.0 (Windows NT 10.0; Win64; x64) AppleWebKit/537.36 (KHTML, like Gecko) Chrome/86.0.4240.111 Safari/537.36",78,"[0.9, 0.5, 0.1]","[0.8, 0.4, 0.2]","[u'blue', u'red', u'black']","[u'left', u'middle', u'right']","[0.9, 0.5, 0.1]","[u'high', u'medium', u'low']","blue",49,"left","high","True","False",301,3450,NA
"A3CI73EFDLS3OF","Tue Oct 27 2020 12:34:11 GMT-0400 (Eastern Daylight Time)","Tue Oct 27 2020 12:40:24 GMT-0400 (Eastern Daylight Time)","Mozilla/5.0 (Windows NT 10.0; Win64; x64) AppleWebKit/537.36 (KHTML, like Gecko) Chrome/86.0.4240.111 Safari/537.36",79,"[0.9, 0.5, 0.1]","[0.8, 0.4, 0.2]","[u'blue', u'red', u'black']","[u'left', u'middle', u'right']","[0.9, 0.5, 0.1]","[u'high', u'medium', u'low']","blue",49,"left","high","True","False",273,3550,NA
"A3CI73EFDLS3OF","Tue Oct 27 2020 12:34:11 GMT-0400 (Eastern Daylight Time)","Tue Oct 27 2020 12:40:24 GMT-0400 (Eastern Daylight Time)","Mozilla/5.0 (Windows NT 10.0; Win64; x64) AppleWebKit/537.36 (KHTML, like Gecko) Chrome/86.0.4240.111 Safari/537.36",80,"[0.9, 0.5, 0.1]","[0.8, 0.4, 0.2]","[u'blue', u'red', u'black']","[u'left', u'middle', u'right']","[0.9, 0.5, 0.1]","[u'high', u'medium', u'low']","blue",49,"left","high","False","False",464,3500,NA
"A3CI73EFDLS3OF","Tue Oct 27 2020 12:34:11 GMT-0400 (Eastern Daylight Time)","Tue Oct 27 2020 12:40:24 GMT-0400 (Eastern Daylight Time)","Mozilla/5.0 (Windows NT 10.0; Win64; x64) AppleWebKit/537.36 (KHTML, like Gecko) Chrome/86.0.4240.111 Safari/537.36",81,"[0.9, 0.5, 0.1]","[0.8, 0.4, 0.2]","[u'blue', u'red', u'black']","[u'left', u'middle', u'right']","[0.8, 0.4, 0.2]","[u'medium', u'high', u'low']","blue",49,"left","medium","False","False",447,3450,NA
"A3CI73EFDLS3OF","Tue Oct 27 2020 12:34:11 GMT-0400 (Eastern Daylight Time)","Tue Oct 27 2020 12:40:24 GMT-0400 (Eastern Daylight Time)","Mozilla/5.0 (Windows NT 10.0; Win64; x64) AppleWebKit/537.36 (KHTML, like Gecko) Chrome/86.0.4240.111 Safari/537.36",82,"[0.9, 0.5, 0.1]","[0.8, 0.4, 0.2]","[u'blue', u'red', u'black']","[u'left', u'middle', u'right']","[0.8, 0.4, 0.2]","[u'medium', u'high', u'low']","blue",49,"left","medium","True","False",286,3550,NA
"A3CI73EFDLS3OF","Tue Oct 27 2020 12:34:11 GMT-0400 (Eastern Daylight Time)","Tue Oct 27 2020 12:40:24 GMT-0400 (Eastern Daylight Time)","Mozilla/5.0 (Windows NT 10.0; Win64; x64) AppleWebKit/537.36 (KHTML, like Gecko) Chrome/86.0.4240.111 Safari/537.36",83,"[0.9, 0.5, 0.1]","[0.8, 0.4, 0.2]","[u'blue', u'red', u'black']","[u'left', u'middle', u'right']","[0.8, 0.4, 0.2]","[u'medium', u'high', u'low']","blue",49,"left","medium","False","False",324,3500,NA
"A3CI73EFDLS3OF","Tue Oct 27 2020 12:34:11 GMT-0400 (Eastern Daylight Time)","Tue Oct 27 2020 12:40:24 GMT-0400 (Eastern Daylight Time)","Mozilla/5.0 (Windows NT 10.0; Win64; x64) AppleWebKit/537.36 (KHTML, like Gecko) Chrome/86.0.4240.111 Safari/537.36",84,"[0.9, 0.5, 0.1]","[0.8, 0.4, 0.2]","[u'blue', u'red', u'black']","[u'left', u'middle', u'right']","[0.8, 0.4, 0.2]","[u'medium', u'high', u'low']","blue",49,"left","medium","True","False",279,3600,NA
"A3CI73EFDLS3OF","Tue Oct 27 2020 12:34:11 GMT-0400 (Eastern Daylight Time)","Tue Oct 27 2020 12:40:24 GMT-0400 (Eastern Daylight Time)","Mozilla/5.0 (Windows NT 10.0; Win64; x64) AppleWebKit/537.36 (KHTML, like Gecko) Chrome/86.0.4240.111 Safari/537.36",85,"[0.9, 0.5, 0.1]","[0.8, 0.4, 0.2]","[u'blue', u'red', u'black']","[u'left', u'middle', u'right']","[0.8, 0.4, 0.2]","[u'medium', u'high', u'low']","blue",49,"left","medium","False","False",284,3550,NA
"A3CI73EFDLS3OF","Tue Oct 27 2020 12:34:11 GMT-0400 (Eastern Daylight Time)","Tue Oct 27 2020 12:40:24 GMT-0400 (Eastern Daylight Time)","Mozilla/5.0 (Windows NT 10.0; Win64; x64) AppleWebKit/537.36 (KHTML, like Gecko) Chrome/86.0.4240.111 Safari/537.36",86,"[0.9, 0.5, 0.1]","[0.8, 0.4, 0.2]","[u'blue', u'red', u'black']","[u'left', u'middle', u'right']","[0.8, 0.4, 0.2]","[u'medium', u'high', u'low']","blue",49,"left","medium","True","False",225,3650,NA
"A3CI73EFDLS3OF","Tue Oct 27 2020 12:34:11 GMT-0400 (Eastern Daylight Time)","Tue Oct 27 2020 12:40:24 GMT-0400 (Eastern Daylight Time)","Mozilla/5.0 (Windows NT 10.0; Win64; x64) AppleWebKit/537.36 (KHTML, like Gecko) Chrome/86.0.4240.111 Safari/537.36",87,"[0.9, 0.5, 0.1]","[0.8, 0.4, 0.2]","[u'blue', u'red', u'black']","[u'left', u'middle', u'right']","[0.8, 0.4, 0.2]","[u'medium', u'high', u'low']","blue",49,"left","medium","False","False",289,3600,NA
"A3CI73EFDLS3OF","Tue Oct 27 2020 12:34:11 GMT-0400 (Eastern Daylight Time)","Tue Oct 27 2020 12:40:24 GMT-0400 (Eastern Daylight Time)","Mozilla/5.0 (Windows NT 10.0; Win64; x64) AppleWebKit/537.36 (KHTML, like Gecko) Chrome/86.0.4240.111 Safari/537.36",88,"[0.9, 0.5, 0.1]","[0.8, 0.4, 0.2]","[u'blue', u'red', u'black']","[u'left', u'middle', u'right']","[0.8, 0.4, 0.2]","[u'medium', u'high', u'low']","blue",49,"left","medium","False","False",319,3550,NA
"A3CI73EFDLS3OF","Tue Oct 27 2020 12:34:11 GMT-0400 (Eastern Daylight Time)","Tue Oct 27 2020 12:40:24 GMT-0400 (Eastern Daylight Time)","Mozilla/5.0 (Windows NT 10.0; Win64; x64) AppleWebKit/537.36 (KHTML, like Gecko) Chrome/86.0.4240.111 Safari/537.36",89,"[0.9, 0.5, 0.1]","[0.8, 0.4, 0.2]","[u'blue', u'red', u'black']","[u'left', u'middle', u'right']","[0.8, 0.4, 0.2]","[u'medium', u'high', u'low']","blue",49,"left","medium","False","False",517,3500,NA
"A3CI73EFDLS3OF","Tue Oct 27 2020 12:34:11 GMT-0400 (Eastern Daylight Time)","Tue Oct 27 2020 12:40:24 GMT-0400 (Eastern Daylight Time)","Mozilla/5.0 (Windows NT 10.0; Win64; x64) AppleWebKit/537.36 (KHTML, like Gecko) Chrome/86.0.4240.111 Safari/537.36",90,"[0.9, 0.5, 0.1]","[0.8, 0.4, 0.2]","[u'blue', u'red', u'black']","[u'left', u'middle', u'right']","[0.8, 0.4, 0.2]","[u'medium', u'high', u'low']","red",50,"middle","high","True","False",224,3600,NA
"A3CI73EFDLS3OF","Tue Oct 27 2020 12:34:11 GMT-0400 (Eastern Daylight Time)","Tue Oct 27 2020 12:40:24 GMT-0400 (Eastern Daylight Time)","Mozilla/5.0 (Windows NT 10.0; Win64; x64) AppleWebKit/537.36 (KHTML, like Gecko) Chrome/86.0.4240.111 Safari/537.36",91,"[0.9, 0.5, 0.1]","[0.8, 0.4, 0.2]","[u'blue', u'red', u'black']","[u'left', u'middle', u'right']","[0.8, 0.4, 0.2]","[u'medium', u'high', u'low']","red",50,"middle","high","True","False",130,3700,NA
"A3CI73EFDLS3OF","Tue Oct 27 2020 12:34:11 GMT-0400 (Eastern Daylight Time)","Tue Oct 27 2020 12:40:24 GMT-0400 (Eastern Daylight Time)","Mozilla/5.0 (Windows NT 10.0; Win64; x64) AppleWebKit/537.36 (KHTML, like Gecko) Chrome/86.0.4240.111 Safari/537.36",92,"[0.9, 0.5, 0.1]","[0.8, 0.4, 0.2]","[u'blue', u'red', u'black']","[u'left', u'middle', u'right']","[0.8, 0.4, 0.2]","[u'medium', u'high', u'low']","red",50,"middle","high","False","False",192,3650,NA
"A3CI73EFDLS3OF","Tue Oct 27 2020 12:34:11 GMT-0400 (Eastern Daylight Time)","Tue Oct 27 2020 12:40:24 GMT-0400 (Eastern Daylight Time)","Mozilla/5.0 (Windows NT 10.0; Win64; x64) AppleWebKit/537.36 (KHTML, like Gecko) Chrome/86.0.4240.111 Safari/537.36",93,"[0.9, 0.5, 0.1]","[0.8, 0.4, 0.2]","[u'blue', u'red', u'black']","[u'left', u'middle', u'right']","[0.8, 0.4, 0.2]","[u'medium', u'high', u'low']","red",50,"middle","high","True","False",197,3750,NA
"A3CI73EFDLS3OF","Tue Oct 27 2020 12:34:11 GMT-0400 (Eastern Daylight Time)","Tue Oct 27 2020 12:40:24 GMT-0400 (Eastern Daylight Time)","Mozilla/5.0 (Windows NT 10.0; Win64; x64) AppleWebKit/537.36 (KHTML, like Gecko) Chrome/86.0.4240.111 Safari/537.36",94,"[0.9, 0.5, 0.1]","[0.8, 0.4, 0.2]","[u'blue', u'red', u'black']","[u'left', u'middle', u'right']","[0.8, 0.4, 0.2]","[u'medium', u'high', u'low']","red",50,"middle","high","True","False",191,3850,NA
"A3CI73EFDLS3OF","Tue Oct 27 2020 12:34:11 GMT-0400 (Eastern Daylight Time)","Tue Oct 27 2020 12:40:24 GMT-0400 (Eastern Daylight Time)","Mozilla/5.0 (Windows NT 10.0; Win64; x64) AppleWebKit/537.36 (KHTML, like Gecko) Chrome/86.0.4240.111 Safari/537.36",95,"[0.9, 0.5, 0.1]","[0.8, 0.4, 0.2]","[u'blue', u'red', u'black']","[u'left', u'middle', u'right']","[0.8, 0.4, 0.2]","[u'medium', u'high', u'low']","red",50,"middle","high","True","False",293,3950,NA
"A3CI73EFDLS3OF","Tue Oct 27 2020 12:34:11 GMT-0400 (Eastern Daylight Time)","Tue Oct 27 2020 12:40:24 GMT-0400 (Eastern Daylight Time)","Mozilla/5.0 (Windows NT 10.0; Win64; x64) AppleWebKit/537.36 (KHTML, like Gecko) Chrome/86.0.4240.111 Safari/537.36",96,"[0.9, 0.5, 0.1]","[0.8, 0.4, 0.2]","[u'blue', u'red', u'black']","[u'left', u'middle', u'right']","[0.8, 0.4, 0.2]","[u'medium', u'high', u'low']","red",50,"middle","high","False","False",349,3900,NA
"A3CI73EFDLS3OF","Tue Oct 27 2020 12:34:11 GMT-0400 (Eastern Daylight Time)","Tue Oct 27 2020 12:40:24 GMT-0400 (Eastern Daylight Time)","Mozilla/5.0 (Windows NT 10.0; Win64; x64) AppleWebKit/537.36 (KHTML, like Gecko) Chrome/86.0.4240.111 Safari/537.36",97,"[0.9, 0.5, 0.1]","[0.8, 0.4, 0.2]","[u'blue', u'red', u'black']","[u'left', u'middle', u'right']","[0.8, 0.4, 0.2]","[u'medium', u'high', u'low']","red",50,"middle","high","True","False",176,4000,NA
"A3CI73EFDLS3OF","Tue Oct 27 2020 12:34:11 GMT-0400 (Eastern Daylight Time)","Tue Oct 27 2020 12:40:24 GMT-0400 (Eastern Daylight Time)","Mozilla/5.0 (Windows NT 10.0; Win64; x64) AppleWebKit/537.36 (KHTML, like Gecko) Chrome/86.0.4240.111 Safari/537.36",98,"[0.9, 0.5, 0.1]","[0.8, 0.4, 0.2]","[u'blue', u'red', u'black']","[u'left', u'middle', u'right']","[0.8, 0.4, 0.2]","[u'medium', u'high', u'low']","red",50,"middle","high","True","True",205,4100,NA
"A3CI73EFDLS3OF","Tue Oct 27 2020 12:34:11 GMT-0400 (Eastern Daylight Time)","Tue Oct 27 2020 12:40:24 GMT-0400 (Eastern Daylight Time)","Mozilla/5.0 (Windows NT 10.0; Win64; x64) AppleWebKit/537.36 (KHTML, like Gecko) Chrome/86.0.4240.111 Safari/537.36",99,"[0.9, 0.5, 0.1]","[0.8, 0.4, 0.2]","[u'blue', u'red', u'black']","[u'left', u'middle', u'right']","[0.8, 0.4, 0.2]","[u'high', u'low', u'medium']","red",50,"middle","low","False","False",225,4050,NA
"A3CI73EFDLS3OF","Tue Oct 27 2020 12:34:11 GMT-0400 (Eastern Daylight Time)","Tue Oct 27 2020 12:40:24 GMT-0400 (Eastern Daylight Time)","Mozilla/5.0 (Windows NT 10.0; Win64; x64) AppleWebKit/537.36 (KHTML, like Gecko) Chrome/86.0.4240.111 Safari/537.36",100,"[0.9, 0.5, 0.1]","[0.8, 0.4, 0.2]","[u'blue', u'red', u'black']","[u'left', u'middle', u'right']","[0.8, 0.4, 0.2]","[u'high', u'low', u'medium']","red",50,"middle","low","False","False",207,4000,NA
"A3CI73EFDLS3OF","Tue Oct 27 2020 12:34:11 GMT-0400 (Eastern Daylight Time)","Tue Oct 27 2020 12:40:24 GMT-0400 (Eastern Daylight Time)","Mozilla/5.0 (Windows NT 10.0; Win64; x64) AppleWebKit/537.36 (KHTML, like Gecko) Chrome/86.0.4240.111 Safari/537.36",101,"[0.9, 0.5, 0.1]","[0.8, 0.4, 0.2]","[u'blue', u'red', u'black']","[u'left', u'middle', u'right']","[0.8, 0.4, 0.2]","[u'high', u'low', u'medium']","red",50,"middle","low","False","False",206,3950,NA
"A3CI73EFDLS3OF","Tue Oct 27 2020 12:34:11 GMT-0400 (Eastern Daylight Time)","Tue Oct 27 2020 12:40:24 GMT-0400 (Eastern Daylight Time)","Mozilla/5.0 (Windows NT 10.0; Win64; x64) AppleWebKit/537.36 (KHTML, like Gecko) Chrome/86.0.4240.111 Safari/537.36",102,"[0.9, 0.5, 0.1]","[0.8, 0.4, 0.2]","[u'blue', u'red', u'black']","[u'left', u'middle', u'right']","[0.8, 0.4, 0.2]","[u'high', u'low', u'medium']","black",51,"right","medium","True","False",82,4050,NA
"A3CI73EFDLS3OF","Tue Oct 27 2020 12:34:11 GMT-0400 (Eastern Daylight Time)","Tue Oct 27 2020 12:40:24 GMT-0400 (Eastern Daylight Time)","Mozilla/5.0 (Windows NT 10.0; Win64; x64) AppleWebKit/537.36 (KHTML, like Gecko) Chrome/86.0.4240.111 Safari/537.36",103,"[0.9, 0.5, 0.1]","[0.8, 0.4, 0.2]","[u'blue', u'red', u'black']","[u'left', u'middle', u'right']","[0.8, 0.4, 0.2]","[u'high', u'low', u'medium']","black",51,"right","medium","False","False",111,4000,NA
"A3CI73EFDLS3OF","Tue Oct 27 2020 12:34:11 GMT-0400 (Eastern Daylight Time)","Tue Oct 27 2020 12:40:24 GMT-0400 (Eastern Daylight Time)","Mozilla/5.0 (Windows NT 10.0; Win64; x64) AppleWebKit/537.36 (KHTML, like Gecko) Chrome/86.0.4240.111 Safari/537.36",104,"[0.9, 0.5, 0.1]","[0.8, 0.4, 0.2]","[u'blue', u'red', u'black']","[u'left', u'middle', u'right']","[0.8, 0.4, 0.2]","[u'high', u'low', u'medium']","black",51,"right","medium","True","False",129,4100,NA
"A3CI73EFDLS3OF","Tue Oct 27 2020 12:34:11 GMT-0400 (Eastern Daylight Time)","Tue Oct 27 2020 12:40:24 GMT-0400 (Eastern Daylight Time)","Mozilla/5.0 (Windows NT 10.0; Win64; x64) AppleWebKit/537.36 (KHTML, like Gecko) Chrome/86.0.4240.111 Safari/537.36",105,"[0.9, 0.5, 0.1]","[0.8, 0.4, 0.2]","[u'blue', u'red', u'black']","[u'left', u'middle', u'right']","[0.8, 0.4, 0.2]","[u'high', u'low', u'medium']","black",51,"right","medium","True","False",160,4200,NA
"A3CI73EFDLS3OF","Tue Oct 27 2020 12:34:11 GMT-0400 (Eastern Daylight Time)","Tue Oct 27 2020 12:40:24 GMT-0400 (Eastern Daylight Time)","Mozilla/5.0 (Windows NT 10.0; Win64; x64) AppleWebKit/537.36 (KHTML, like Gecko) Chrome/86.0.4240.111 Safari/537.36",106,"[0.9, 0.5, 0.1]","[0.8, 0.4, 0.2]","[u'blue', u'red', u'black']","[u'left', u'middle', u'right']","[0.8, 0.4, 0.2]","[u'high', u'low', u'medium']","black",51,"right","medium","False","False",85,4150,NA
"A3CI73EFDLS3OF","Tue Oct 27 2020 12:34:11 GMT-0400 (Eastern Daylight Time)","Tue Oct 27 2020 12:40:24 GMT-0400 (Eastern Daylight Time)","Mozilla/5.0 (Windows NT 10.0; Win64; x64) AppleWebKit/537.36 (KHTML, like Gecko) Chrome/86.0.4240.111 Safari/537.36",107,"[0.9, 0.5, 0.1]","[0.8, 0.4, 0.2]","[u'blue', u'red', u'black']","[u'left', u'middle', u'right']","[0.8, 0.4, 0.2]","[u'high', u'low', u'medium']","black",51,"right","medium","False","False",102,4100,NA
"A3CI73EFDLS3OF","Tue Oct 27 2020 12:34:11 GMT-0400 (Eastern Daylight Time)","Tue Oct 27 2020 12:40:24 GMT-0400 (Eastern Daylight Time)","Mozilla/5.0 (Windows NT 10.0; Win64; x64) AppleWebKit/537.36 (KHTML, like Gecko) Chrome/86.0.4240.111 Safari/537.36",108,"[0.9, 0.5, 0.1]","[0.8, 0.4, 0.2]","[u'blue', u'red', u'black']","[u'left', u'middle', u'right']","[0.8, 0.4, 0.2]","[u'high', u'low', u'medium']","black",51,"right","medium","False","False",159,4050,NA
"A3CI73EFDLS3OF","Tue Oct 27 2020 12:34:11 GMT-0400 (Eastern Daylight Time)","Tue Oct 27 2020 12:40:24 GMT-0400 (Eastern Daylight Time)","Mozilla/5.0 (Windows NT 10.0; Win64; x64) AppleWebKit/537.36 (KHTML, like Gecko) Chrome/86.0.4240.111 Safari/537.36",109,"[0.9, 0.5, 0.1]","[0.8, 0.4, 0.2]","[u'blue', u'red', u'black']","[u'left', u'middle', u'right']","[0.8, 0.4, 0.2]","[u'high', u'low', u'medium']","blue",49,"left","high","True","False",162,4150,NA
"A3CI73EFDLS3OF","Tue Oct 27 2020 12:34:11 GMT-0400 (Eastern Daylight Time)","Tue Oct 27 2020 12:40:24 GMT-0400 (Eastern Daylight Time)","Mozilla/5.0 (Windows NT 10.0; Win64; x64) AppleWebKit/537.36 (KHTML, like Gecko) Chrome/86.0.4240.111 Safari/537.36",110,"[0.9, 0.5, 0.1]","[0.8, 0.4, 0.2]","[u'blue', u'red', u'black']","[u'left', u'middle', u'right']","[0.8, 0.4, 0.2]","[u'high', u'low', u'medium']","blue",49,"left","high","True","False",255,4250,NA
"A3CI73EFDLS3OF","Tue Oct 27 2020 12:34:11 GMT-0400 (Eastern Daylight Time)","Tue Oct 27 2020 12:40:24 GMT-0400 (Eastern Daylight Time)","Mozilla/5.0 (Windows NT 10.0; Win64; x64) AppleWebKit/537.36 (KHTML, like Gecko) Chrome/86.0.4240.111 Safari/537.36",111,"[0.9, 0.5, 0.1]","[0.8, 0.4, 0.2]","[u'blue', u'red', u'black']","[u'left', u'middle', u'right']","[0.8, 0.4, 0.2]","[u'high', u'low', u'medium']","blue",49,"left","high","False","False",97,4200,NA
"A3CI73EFDLS3OF","Tue Oct 27 2020 12:34:11 GMT-0400 (Eastern Daylight Time)","Tue Oct 27 2020 12:40:24 GMT-0400 (Eastern Daylight Time)","Mozilla/5.0 (Windows NT 10.0; Win64; x64) AppleWebKit/537.36 (KHTML, like Gecko) Chrome/86.0.4240.111 Safari/537.36",112,"[0.9, 0.5, 0.1]","[0.8, 0.4, 0.2]","[u'blue', u'red', u'black']","[u'left', u'middle', u'right']","[0.8, 0.4, 0.2]","[u'high', u'low', u'medium']","blue",49,"left","high","True","False",209,4300,NA
"A3CI73EFDLS3OF","Tue Oct 27 2020 12:34:11 GMT-0400 (Eastern Daylight Time)","Tue Oct 27 2020 12:40:24 GMT-0400 (Eastern Daylight Time)","Mozilla/5.0 (Windows NT 10.0; Win64; x64) AppleWebKit/537.36 (KHTML, like Gecko) Chrome/86.0.4240.111 Safari/537.36",113,"[0.9, 0.5, 0.1]","[0.8, 0.4, 0.2]","[u'blue', u'red', u'black']","[u'left', u'middle', u'right']","[0.8, 0.4, 0.2]","[u'high', u'low', u'medium']","blue",49,"left","high","False","False",894,4250,NA
"A3CI73EFDLS3OF","Tue Oct 27 2020 12:34:11 GMT-0400 (Eastern Daylight Time)","Tue Oct 27 2020 12:40:24 GMT-0400 (Eastern Daylight Time)","Mozilla/5.0 (Windows NT 10.0; Win64; x64) AppleWebKit/537.36 (KHTML, like Gecko) Chrome/86.0.4240.111 Safari/537.36",114,"[0.9, 0.5, 0.1]","[0.8, 0.4, 0.2]","[u'blue', u'red', u'black']","[u'left', u'middle', u'right']","[0.8, 0.4, 0.2]","[u'high', u'low', u'medium']","blue",49,"left","high","True","False",282,4350,NA
"A3CI73EFDLS3OF","Tue Oct 27 2020 12:34:11 GMT-0400 (Eastern Daylight Time)","Tue Oct 27 2020 12:40:24 GMT-0400 (Eastern Daylight Time)","Mozilla/5.0 (Windows NT 10.0; Win64; x64) AppleWebKit/537.36 (KHTML, like Gecko) Chrome/86.0.4240.111 Safari/537.36",115,"[0.9, 0.5, 0.1]","[0.8, 0.4, 0.2]","[u'blue', u'red', u'black']","[u'left', u'middle', u'right']","[0.8, 0.4, 0.2]","[u'high', u'low', u'medium']","blue",49,"left","high","True","False",161,4450,NA
"A3CI73EFDLS3OF","Tue Oct 27 2020 12:34:11 GMT-0400 (Eastern Daylight Time)","Tue Oct 27 2020 12:40:24 GMT-0400 (Eastern Daylight Time)","Mozilla/5.0 (Windows NT 10.0; Win64; x64) AppleWebKit/537.36 (KHTML, like Gecko) Chrome/86.0.4240.111 Safari/537.36",116,"[0.9, 0.5, 0.1]","[0.8, 0.4, 0.2]","[u'blue', u'red', u'black']","[u'left', u'middle', u'right']","[0.8, 0.4, 0.2]","[u'high', u'low', u'medium']","blue",49,"left","high","False","False",174,4400,NA
"A3CI73EFDLS3OF","Tue Oct 27 2020 12:34:11 GMT-0400 (Eastern Daylight Time)","Tue Oct 27 2020 12:40:24 GMT-0400 (Eastern Daylight Time)","Mozilla/5.0 (Windows NT 10.0; Win64; x64) AppleWebKit/537.36 (KHTML, like Gecko) Chrome/86.0.4240.111 Safari/537.36",117,"[0.9, 0.5, 0.1]","[0.8, 0.4, 0.2]","[u'blue', u'red', u'black']","[u'left', u'middle', u'right']","[0.8, 0.4, 0.2]","[u'high', u'low', u'medium']","blue",49,"left","high","True","True",306,4500,NA
"A3CI73EFDLS3OF","Tue Oct 27 2020 12:34:11 GMT-0400 (Eastern Daylight Time)","Tue Oct 27 2020 12:40:24 GMT-0400 (Eastern Daylight Time)","Mozilla/5.0 (Windows NT 10.0; Win64; x64) AppleWebKit/537.36 (KHTML, like Gecko) Chrome/86.0.4240.111 Safari/537.36",118,"[0.9, 0.5, 0.1]","[0.8, 0.4, 0.2]","[u'blue', u'red', u'black']","[u'left', u'middle', u'right']","[0.8, 0.4, 0.2]","[u'medium', u'low', u'high']","blue",49,"left","medium","False","False",229,4450,NA
"A3CI73EFDLS3OF","Tue Oct 27 2020 12:34:11 GMT-0400 (Eastern Daylight Time)","Tue Oct 27 2020 12:40:24 GMT-0400 (Eastern Daylight Time)","Mozilla/5.0 (Windows NT 10.0; Win64; x64) AppleWebKit/537.36 (KHTML, like Gecko) Chrome/86.0.4240.111 Safari/537.36",119,"[0.9, 0.5, 0.1]","[0.8, 0.4, 0.2]","[u'blue', u'red', u'black']","[u'left', u'middle', u'right']","[0.8, 0.4, 0.2]","[u'medium', u'low', u'high']","blue",49,"left","medium","True","False",226,4550,NA
"A3CI73EFDLS3OF","Tue Oct 27 2020 12:34:11 GMT-0400 (Eastern Daylight Time)","Tue Oct 27 2020 12:40:24 GMT-0400 (Eastern Daylight Time)","Mozilla/5.0 (Windows NT 10.0; Win64; x64) AppleWebKit/537.36 (KHTML, like Gecko) Chrome/86.0.4240.111 Safari/537.36",120,"[0.9, 0.5, 0.1]","[0.8, 0.4, 0.2]","[u'blue', u'red', u'black']","[u'left', u'middle', u'right']","[0.8, 0.4, 0.2]","[u'medium', u'low', u'high']","blue",49,"left","medium","False","False",80,4500,NA
"A3CI73EFDLS3OF","Tue Oct 27 2020 12:34:11 GMT-0400 (Eastern Daylight Time)","Tue Oct 27 2020 12:40:24 GMT-0400 (Eastern Daylight Time)","Mozilla/5.0 (Windows NT 10.0; Win64; x64) AppleWebKit/537.36 (KHTML, like Gecko) Chrome/86.0.4240.111 Safari/537.36",121,"[0.9, 0.5, 0.1]","[0.8, 0.4, 0.2]","[u'blue', u'red', u'black']","[u'left', u'middle', u'right']","[0.8, 0.4, 0.2]","[u'high', u'low', u'medium']","blue",49,"left","high","True","False",338,4600,NA
"A3CI73EFDLS3OF","Tue Oct 27 2020 12:34:11 GMT-0400 (Eastern Daylight Time)","Tue Oct 27 2020 12:40:24 GMT-0400 (Eastern Daylight Time)","Mozilla/5.0 (Windows NT 10.0; Win64; x64) AppleWebKit/537.36 (KHTML, like Gecko) Chrome/86.0.4240.111 Safari/537.36",122,"[0.9, 0.5, 0.1]","[0.8, 0.4, 0.2]","[u'blue', u'red', u'black']","[u'left', u'middle', u'right']","[0.8, 0.4, 0.2]","[u'high', u'low', u'medium']","blue",49,"left","high","True","False",305,4700,NA
"A3CI73EFDLS3OF","Tue Oct 27 2020 12:34:11 GMT-0400 (Eastern Daylight Time)","Tue Oct 27 2020 12:40:24 GMT-0400 (Eastern Daylight Time)","Mozilla/5.0 (Windows NT 10.0; Win64; x64) AppleWebKit/537.36 (KHTML, like Gecko) Chrome/86.0.4240.111 Safari/537.36",123,"[0.9, 0.5, 0.1]","[0.8, 0.4, 0.2]","[u'blue', u'red', u'black']","[u'left', u'middle', u'right']","[0.8, 0.4, 0.2]","[u'high', u'low', u'medium']","blue",49,"left","high","True","False",355,4800,NA
"A3CI73EFDLS3OF","Tue Oct 27 2020 12:34:11 GMT-0400 (Eastern Daylight Time)","Tue Oct 27 2020 12:40:24 GMT-0400 (Eastern Daylight Time)","Mozilla/5.0 (Windows NT 10.0; Win64; x64) AppleWebKit/537.36 (KHTML, like Gecko) Chrome/86.0.4240.111 Safari/537.36",124,"[0.9, 0.5, 0.1]","[0.8, 0.4, 0.2]","[u'blue', u'red', u'black']","[u'left', u'middle', u'right']","[0.8, 0.4, 0.2]","[u'high', u'low', u'medium']","blue",49,"left","high","True","False",111,4900,NA
"A3CI73EFDLS3OF","Tue Oct 27 2020 12:34:11 GMT-0400 (Eastern Daylight Time)","Tue Oct 27 2020 12:40:24 GMT-0400 (Eastern Daylight Time)","Mozilla/5.0 (Windows NT 10.0; Win64; x64) AppleWebKit/537.36 (KHTML, like Gecko) Chrome/86.0.4240.111 Safari/537.36",125,"[0.9, 0.5, 0.1]","[0.8, 0.4, 0.2]","[u'blue', u'red', u'black']","[u'left', u'middle', u'right']","[0.8, 0.4, 0.2]","[u'high', u'low', u'medium']","blue",49,"left","high","True","False",80,5000,NA
"A3CI73EFDLS3OF","Tue Oct 27 2020 12:34:11 GMT-0400 (Eastern Daylight Time)","Tue Oct 27 2020 12:40:24 GMT-0400 (Eastern Daylight Time)","Mozilla/5.0 (Windows NT 10.0; Win64; x64) AppleWebKit/537.36 (KHTML, like Gecko) Chrome/86.0.4240.111 Safari/537.36",126,"[0.9, 0.5, 0.1]","[0.8, 0.4, 0.2]","[u'blue', u'red', u'black']","[u'left', u'middle', u'right']","[0.8, 0.4, 0.2]","[u'high', u'low', u'medium']","blue",49,"left","high","True","False",82,5100,NA
"A3CI73EFDLS3OF","Tue Oct 27 2020 12:34:11 GMT-0400 (Eastern Daylight Time)","Tue Oct 27 2020 12:40:24 GMT-0400 (Eastern Daylight Time)","Mozilla/5.0 (Windows NT 10.0; Win64; x64) AppleWebKit/537.36 (KHTML, like Gecko) Chrome/86.0.4240.111 Safari/537.36",127,"[0.9, 0.5, 0.1]","[0.8, 0.4, 0.2]","[u'blue', u'red', u'black']","[u'left', u'middle', u'right']","[0.8, 0.4, 0.2]","[u'high', u'low', u'medium']","blue",49,"left","high","True","False",98,5200,NA
"A3CI73EFDLS3OF","Tue Oct 27 2020 12:34:11 GMT-0400 (Eastern Daylight Time)","Tue Oct 27 2020 12:40:24 GMT-0400 (Eastern Daylight Time)","Mozilla/5.0 (Windows NT 10.0; Win64; x64) AppleWebKit/537.36 (KHTML, like Gecko) Chrome/86.0.4240.111 Safari/537.36",128,"[0.9, 0.5, 0.1]","[0.8, 0.4, 0.2]","[u'blue', u'red', u'black']","[u'left', u'middle', u'right']","[0.8, 0.4, 0.2]","[u'high', u'low', u'medium']","blue",49,"left","high","True","False",96,5300,NA
"A3CI73EFDLS3OF","Tue Oct 27 2020 12:34:11 GMT-0400 (Eastern Daylight Time)","Tue Oct 27 2020 12:40:24 GMT-0400 (Eastern Daylight Time)","Mozilla/5.0 (Windows NT 10.0; Win64; x64) AppleWebKit/537.36 (KHTML, like Gecko) Chrome/86.0.4240.111 Safari/537.36",129,"[0.9, 0.5, 0.1]","[0.8, 0.4, 0.2]","[u'blue', u'red', u'black']","[u'left', u'middle', u'right']","[0.8, 0.4, 0.2]","[u'high', u'low', u'medium']","blue",49,"left","high","True","True",127,5400,NA
"A3CI73EFDLS3OF","Tue Oct 27 2020 12:34:11 GMT-0400 (Eastern Daylight Time)","Tue Oct 27 2020 12:40:24 GMT-0400 (Eastern Daylight Time)","Mozilla/5.0 (Windows NT 10.0; Win64; x64) AppleWebKit/537.36 (KHTML, like Gecko) Chrome/86.0.4240.111 Safari/537.36",130,"[0.9, 0.5, 0.1]","[0.8, 0.4, 0.2]","[u'blue', u'red', u'black']","[u'left', u'middle', u'right']","[0.8, 0.4, 0.2]","[u'medium', u'low', u'high']","blue",49,"left","medium","True","False",243,5500,NA
"A3CI73EFDLS3OF","Tue Oct 27 2020 12:34:11 GMT-0400 (Eastern Daylight Time)","Tue Oct 27 2020 12:40:24 GMT-0400 (Eastern Daylight Time)","Mozilla/5.0 (Windows NT 10.0; Win64; x64) AppleWebKit/537.36 (KHTML, like Gecko) Chrome/86.0.4240.111 Safari/537.36",131,"[0.9, 0.5, 0.1]","[0.8, 0.4, 0.2]","[u'blue', u'red', u'black']","[u'left', u'middle', u'right']","[0.8, 0.4, 0.2]","[u'medium', u'low', u'high']","blue",49,"left","medium","True","False",316,5600,NA
"A3CI73EFDLS3OF","Tue Oct 27 2020 12:34:11 GMT-0400 (Eastern Daylight Time)","Tue Oct 27 2020 12:40:24 GMT-0400 (Eastern Daylight Time)","Mozilla/5.0 (Windows NT 10.0; Win64; x64) AppleWebKit/537.36 (KHTML, like Gecko) Chrome/86.0.4240.111 Safari/537.36",132,"[0.9, 0.5, 0.1]","[0.8, 0.4, 0.2]","[u'blue', u'red', u'black']","[u'left', u'middle', u'right']","[0.8, 0.4, 0.2]","[u'medium', u'low', u'high']","blue",49,"left","medium","False","False",203,5550,NA
"A3CI73EFDLS3OF","Tue Oct 27 2020 12:34:11 GMT-0400 (Eastern Daylight Time)","Tue Oct 27 2020 12:40:24 GMT-0400 (Eastern Daylight Time)","Mozilla/5.0 (Windows NT 10.0; Win64; x64) AppleWebKit/537.36 (KHTML, like Gecko) Chrome/86.0.4240.111 Safari/537.36",133,"[0.9, 0.5, 0.1]","[0.8, 0.4, 0.2]","[u'blue', u'red', u'black']","[u'left', u'middle', u'right']","[0.8, 0.4, 0.2]","[u'medium', u'low', u'high']","blue",49,"left","medium","True","False",107,5650,NA
"A3CI73EFDLS3OF","Tue Oct 27 2020 12:34:11 GMT-0400 (Eastern Daylight Time)","Tue Oct 27 2020 12:40:24 GMT-0400 (Eastern Daylight Time)","Mozilla/5.0 (Windows NT 10.0; Win64; x64) AppleWebKit/537.36 (KHTML, like Gecko) Chrome/86.0.4240.111 Safari/537.36",134,"[0.9, 0.5, 0.1]","[0.8, 0.4, 0.2]","[u'blue', u'red', u'black']","[u'left', u'middle', u'right']","[0.8, 0.4, 0.2]","[u'medium', u'low', u'high']","blue",49,"left","medium","False","False",152,5600,NA
"A3CI73EFDLS3OF","Tue Oct 27 2020 12:34:11 GMT-0400 (Eastern Daylight Time)","Tue Oct 27 2020 12:40:24 GMT-0400 (Eastern Daylight Time)","Mozilla/5.0 (Windows NT 10.0; Win64; x64) AppleWebKit/537.36 (KHTML, like Gecko) Chrome/86.0.4240.111 Safari/537.36",135,"[0.9, 0.5, 0.1]","[0.8, 0.4, 0.2]","[u'blue', u'red', u'black']","[u'left', u'middle', u'right']","[0.8, 0.4, 0.2]","[u'medium', u'low', u'high']","blue",49,"left","medium","True","False",115,5700,NA
"A3CI73EFDLS3OF","Tue Oct 27 2020 12:34:11 GMT-0400 (Eastern Daylight Time)","Tue Oct 27 2020 12:40:24 GMT-0400 (Eastern Daylight Time)","Mozilla/5.0 (Windows NT 10.0; Win64; x64) AppleWebKit/537.36 (KHTML, like Gecko) Chrome/86.0.4240.111 Safari/537.36",136,"[0.9, 0.5, 0.1]","[0.8, 0.4, 0.2]","[u'blue', u'red', u'black']","[u'left', u'middle', u'right']","[0.8, 0.4, 0.2]","[u'medium', u'low', u'high']","blue",49,"left","medium","False","False",146,5650,NA
"A3CI73EFDLS3OF","Tue Oct 27 2020 12:34:11 GMT-0400 (Eastern Daylight Time)","Tue Oct 27 2020 12:40:24 GMT-0400 (Eastern Daylight Time)","Mozilla/5.0 (Windows NT 10.0; Win64; x64) AppleWebKit/537.36 (KHTML, like Gecko) Chrome/86.0.4240.111 Safari/537.36",137,"[0.9, 0.5, 0.1]","[0.8, 0.4, 0.2]","[u'blue', u'red', u'black']","[u'left', u'middle', u'right']","[0.8, 0.4, 0.2]","[u'medium', u'low', u'high']","blue",49,"left","medium","False","False",164,5600,NA
"A3CI73EFDLS3OF","Tue Oct 27 2020 12:34:11 GMT-0400 (Eastern Daylight Time)","Tue Oct 27 2020 12:40:24 GMT-0400 (Eastern Daylight Time)","Mozilla/5.0 (Windows NT 10.0; Win64; x64) AppleWebKit/537.36 (KHTML, like Gecko) Chrome/86.0.4240.111 Safari/537.36",138,"[0.9, 0.5, 0.1]","[0.8, 0.4, 0.2]","[u'blue', u'red', u'black']","[u'left', u'middle', u'right']","[0.8, 0.4, 0.2]","[u'medium', u'low', u'high']","blue",49,"left","medium","False","False",172,5550,NA
"A3CI73EFDLS3OF","Tue Oct 27 2020 12:34:11 GMT-0400 (Eastern Daylight Time)","Tue Oct 27 2020 12:40:24 GMT-0400 (Eastern Daylight Time)","Mozilla/5.0 (Windows NT 10.0; Win64; x64) AppleWebKit/537.36 (KHTML, like Gecko) Chrome/86.0.4240.111 Safari/537.36",139,"[0.9, 0.5, 0.1]","[0.8, 0.4, 0.2]","[u'blue', u'red', u'black']","[u'left', u'middle', u'right']","[0.8, 0.4, 0.2]","[u'medium', u'low', u'high']","red",50,"middle","low","True","False",77,5650,NA
"A3CI73EFDLS3OF","Tue Oct 27 2020 12:34:11 GMT-0400 (Eastern Daylight Time)","Tue Oct 27 2020 12:40:24 GMT-0400 (Eastern Daylight Time)","Mozilla/5.0 (Windows NT 10.0; Win64; x64) AppleWebKit/537.36 (KHTML, like Gecko) Chrome/86.0.4240.111 Safari/537.36",140,"[0.9, 0.5, 0.1]","[0.8, 0.4, 0.2]","[u'blue', u'red', u'black']","[u'left', u'middle', u'right']","[0.8, 0.4, 0.2]","[u'medium', u'low', u'high']","red",50,"middle","low","False","False",202,5600,NA
"A3CI73EFDLS3OF","Tue Oct 27 2020 12:34:11 GMT-0400 (Eastern Daylight Time)","Tue Oct 27 2020 12:40:24 GMT-0400 (Eastern Daylight Time)","Mozilla/5.0 (Windows NT 10.0; Win64; x64) AppleWebKit/537.36 (KHTML, like Gecko) Chrome/86.0.4240.111 Safari/537.36",141,"[0.9, 0.5, 0.1]","[0.8, 0.4, 0.2]","[u'blue', u'red', u'black']","[u'left', u'middle', u'right']","[0.8, 0.4, 0.2]","[u'medium', u'low', u'high']","red",50,"middle","low","False","False",159,5550,NA
"A3CI73EFDLS3OF","Tue Oct 27 2020 12:34:11 GMT-0400 (Eastern Daylight Time)","Tue Oct 27 2020 12:40:24 GMT-0400 (Eastern Daylight Time)","Mozilla/5.0 (Windows NT 10.0; Win64; x64) AppleWebKit/537.36 (KHTML, like Gecko) Chrome/86.0.4240.111 Safari/537.36",142,"[0.9, 0.5, 0.1]","[0.8, 0.4, 0.2]","[u'blue', u'red', u'black']","[u'left', u'middle', u'right']","[0.8, 0.4, 0.2]","[u'medium', u'low', u'high']","black",51,"right","high","False","False",127,5500,NA
"A3CI73EFDLS3OF","Tue Oct 27 2020 12:34:11 GMT-0400 (Eastern Daylight Time)","Tue Oct 27 2020 12:40:24 GMT-0400 (Eastern Daylight Time)","Mozilla/5.0 (Windows NT 10.0; Win64; x64) AppleWebKit/537.36 (KHTML, like Gecko) Chrome/86.0.4240.111 Safari/537.36",143,"[0.9, 0.5, 0.1]","[0.8, 0.4, 0.2]","[u'blue', u'red', u'black']","[u'left', u'middle', u'right']","[0.8, 0.4, 0.2]","[u'medium', u'low', u'high']","black",51,"right","high","False","False",271,5450,NA
"A3CI73EFDLS3OF","Tue Oct 27 2020 12:34:11 GMT-0400 (Eastern Daylight Time)","Tue Oct 27 2020 12:40:24 GMT-0400 (Eastern Daylight Time)","Mozilla/5.0 (Windows NT 10.0; Win64; x64) AppleWebKit/537.36 (KHTML, like Gecko) Chrome/86.0.4240.111 Safari/537.36",144,"[0.9, 0.5, 0.1]","[0.8, 0.4, 0.2]","[u'blue', u'red', u'black']","[u'left', u'middle', u'right']","[0.8, 0.4, 0.2]","[u'medium', u'low', u'high']","black",51,"right","high","True","False",233,5550,NA
"A3CI73EFDLS3OF","Tue Oct 27 2020 12:34:11 GMT-0400 (Eastern Daylight Time)","Tue Oct 27 2020 12:40:24 GMT-0400 (Eastern Daylight Time)","Mozilla/5.0 (Windows NT 10.0; Win64; x64) AppleWebKit/537.36 (KHTML, like Gecko) Chrome/86.0.4240.111 Safari/537.36",145,"[0.9, 0.5, 0.1]","[0.8, 0.4, 0.2]","[u'blue', u'red', u'black']","[u'left', u'middle', u'right']","[0.8, 0.4, 0.2]","[u'medium', u'low', u'high']","black",51,"right","high","True","False",257,5650,NA
"A3CI73EFDLS3OF","Tue Oct 27 2020 12:34:11 GMT-0400 (Eastern Daylight Time)","Tue Oct 27 2020 12:40:24 GMT-0400 (Eastern Daylight Time)","Mozilla/5.0 (Windows NT 10.0; Win64; x64) AppleWebKit/537.36 (KHTML, like Gecko) Chrome/86.0.4240.111 Safari/537.36",146,"[0.9, 0.5, 0.1]","[0.8, 0.4, 0.2]","[u'blue', u'red', u'black']","[u'left', u'middle', u'right']","[0.8, 0.4, 0.2]","[u'medium', u'low', u'high']","black",51,"right","high","True","False",173,5750,NA
"A3CI73EFDLS3OF","Tue Oct 27 2020 12:34:11 GMT-0400 (Eastern Daylight Time)","Tue Oct 27 2020 12:40:24 GMT-0400 (Eastern Daylight Time)","Mozilla/5.0 (Windows NT 10.0; Win64; x64) AppleWebKit/537.36 (KHTML, like Gecko) Chrome/86.0.4240.111 Safari/537.36",147,"[0.9, 0.5, 0.1]","[0.8, 0.4, 0.2]","[u'blue', u'red', u'black']","[u'left', u'middle', u'right']","[0.8, 0.4, 0.2]","[u'medium', u'low', u'high']","black",51,"right","high","False","False",159,5700,NA
"A3CI73EFDLS3OF","Tue Oct 27 2020 12:34:11 GMT-0400 (Eastern Daylight Time)","Tue Oct 27 2020 12:40:24 GMT-0400 (Eastern Daylight Time)","Mozilla/5.0 (Windows NT 10.0; Win64; x64) AppleWebKit/537.36 (KHTML, like Gecko) Chrome/86.0.4240.111 Safari/537.36",148,"[0.9, 0.5, 0.1]","[0.8, 0.4, 0.2]","[u'blue', u'red', u'black']","[u'left', u'middle', u'right']","[0.8, 0.4, 0.2]","[u'medium', u'low', u'high']","black",51,"right","high","True","False",113,5800,NA
"A3CI73EFDLS3OF","Tue Oct 27 2020 12:34:11 GMT-0400 (Eastern Daylight Time)","Tue Oct 27 2020 12:40:24 GMT-0400 (Eastern Daylight Time)","Mozilla/5.0 (Windows NT 10.0; Win64; x64) AppleWebKit/537.36 (KHTML, like Gecko) Chrome/86.0.4240.111 Safari/537.36",149,"[0.9, 0.5, 0.1]","[0.8, 0.4, 0.2]","[u'blue', u'red', u'black']","[u'left', u'middle', u'right']","[0.8, 0.4, 0.2]","[u'medium', u'low', u'high']","black",51,"right","high","True","False",162,5900,NA
"A3CI73EFDLS3OF","Tue Oct 27 2020 12:34:11 GMT-0400 (Eastern Daylight Time)","Tue Oct 27 2020 12:40:24 GMT-0400 (Eastern Daylight Time)","Mozilla/5.0 (Windows NT 10.0; Win64; x64) AppleWebKit/537.36 (KHTML, like Gecko) Chrome/86.0.4240.111 Safari/537.36",150,"[0.9, 0.5, 0.1]","[0.8, 0.4, 0.2]","[u'blue', u'red', u'black']","[u'left', u'middle', u'right']","[0.8, 0.4, 0.2]","[u'medium', u'low', u'high']","black",51,"right","high","True","True",122,6000,NA
"A3CI73EFDLS3OF","Tue Oct 27 2020 12:34:11 GMT-0400 (Eastern Daylight Time)","Tue Oct 27 2020 12:40:24 GMT-0400 (Eastern Daylight Time)","Mozilla/5.0 (Windows NT 10.0; Win64; x64) AppleWebKit/537.36 (KHTML, like Gecko) Chrome/86.0.4240.111 Safari/537.36",151,"[0.9, 0.5, 0.1]","[0.8, 0.4, 0.2]","[u'blue', u'red', u'black']","[u'left', u'middle', u'right']","[0.8, 0.4, 0.2]","[u'medium', u'high', u'low']","black",51,"right","low","False","False",162,5950,NA
"A3CI73EFDLS3OF","Tue Oct 27 2020 12:34:11 GMT-0400 (Eastern Daylight Time)","Tue Oct 27 2020 12:40:24 GMT-0400 (Eastern Daylight Time)","Mozilla/5.0 (Windows NT 10.0; Win64; x64) AppleWebKit/537.36 (KHTML, like Gecko) Chrome/86.0.4240.111 Safari/537.36",152,"[0.9, 0.5, 0.1]","[0.8, 0.4, 0.2]","[u'blue', u'red', u'black']","[u'left', u'middle', u'right']","[0.8, 0.4, 0.2]","[u'medium', u'high', u'low']","black",51,"right","low","False","False",77,5900,NA
"A3CI73EFDLS3OF","Tue Oct 27 2020 12:34:11 GMT-0400 (Eastern Daylight Time)","Tue Oct 27 2020 12:40:24 GMT-0400 (Eastern Daylight Time)","Mozilla/5.0 (Windows NT 10.0; Win64; x64) AppleWebKit/537.36 (KHTML, like Gecko) Chrome/86.0.4240.111 Safari/537.36",153,"[0.9, 0.5, 0.1]","[0.8, 0.4, 0.2]","[u'blue', u'red', u'black']","[u'left', u'middle', u'right']","[0.8, 0.4, 0.2]","[u'medium', u'high', u'low']","black",51,"right","low","False","False",195,5850,NA
"A3CI73EFDLS3OF","Tue Oct 27 2020 12:34:11 GMT-0400 (Eastern Daylight Time)","Tue Oct 27 2020 12:40:24 GMT-0400 (Eastern Daylight Time)","Mozilla/5.0 (Windows NT 10.0; Win64; x64) AppleWebKit/537.36 (KHTML, like Gecko) Chrome/86.0.4240.111 Safari/537.36",154,"[0.9, 0.5, 0.1]","[0.8, 0.4, 0.2]","[u'blue', u'red', u'black']","[u'left', u'middle', u'right']","[0.8, 0.4, 0.2]","[u'medium', u'high', u'low']","red",50,"middle","high","True","False",144,5950,NA
"A3CI73EFDLS3OF","Tue Oct 27 2020 12:34:11 GMT-0400 (Eastern Daylight Time)","Tue Oct 27 2020 12:40:24 GMT-0400 (Eastern Daylight Time)","Mozilla/5.0 (Windows NT 10.0; Win64; x64) AppleWebKit/537.36 (KHTML, like Gecko) Chrome/86.0.4240.111 Safari/537.36",155,"[0.9, 0.5, 0.1]","[0.8, 0.4, 0.2]","[u'blue', u'red', u'black']","[u'left', u'middle', u'right']","[0.8, 0.4, 0.2]","[u'medium', u'high', u'low']","red",50,"middle","high","True","False",129,6050,NA
"A3CI73EFDLS3OF","Tue Oct 27 2020 12:34:11 GMT-0400 (Eastern Daylight Time)","Tue Oct 27 2020 12:40:24 GMT-0400 (Eastern Daylight Time)","Mozilla/5.0 (Windows NT 10.0; Win64; x64) AppleWebKit/537.36 (KHTML, like Gecko) Chrome/86.0.4240.111 Safari/537.36",156,"[0.9, 0.5, 0.1]","[0.8, 0.4, 0.2]","[u'blue', u'red', u'black']","[u'left', u'middle', u'right']","[0.8, 0.4, 0.2]","[u'medium', u'high', u'low']","red",50,"middle","high","True","False",165,6150,NA
"A3CI73EFDLS3OF","Tue Oct 27 2020 12:34:11 GMT-0400 (Eastern Daylight Time)","Tue Oct 27 2020 12:40:24 GMT-0400 (Eastern Daylight Time)","Mozilla/5.0 (Windows NT 10.0; Win64; x64) AppleWebKit/537.36 (KHTML, like Gecko) Chrome/86.0.4240.111 Safari/537.36",157,"[0.9, 0.5, 0.1]","[0.8, 0.4, 0.2]","[u'blue', u'red', u'black']","[u'left', u'middle', u'right']","[0.8, 0.4, 0.2]","[u'medium', u'high', u'low']","red",50,"middle","high","True","False",189,6250,NA
"A3CI73EFDLS3OF","Tue Oct 27 2020 12:34:11 GMT-0400 (Eastern Daylight Time)","Tue Oct 27 2020 12:40:24 GMT-0400 (Eastern Daylight Time)","Mozilla/5.0 (Windows NT 10.0; Win64; x64) AppleWebKit/537.36 (KHTML, like Gecko) Chrome/86.0.4240.111 Safari/537.36",158,"[0.9, 0.5, 0.1]","[0.8, 0.4, 0.2]","[u'blue', u'red', u'black']","[u'left', u'middle', u'right']","[0.8, 0.4, 0.2]","[u'medium', u'high', u'low']","red",50,"middle","high","False","False",142,6200,NA
"A3CI73EFDLS3OF","Tue Oct 27 2020 12:34:11 GMT-0400 (Eastern Daylight Time)","Tue Oct 27 2020 12:40:24 GMT-0400 (Eastern Daylight Time)","Mozilla/5.0 (Windows NT 10.0; Win64; x64) AppleWebKit/537.36 (KHTML, like Gecko) Chrome/86.0.4240.111 Safari/537.36",159,"[0.9, 0.5, 0.1]","[0.8, 0.4, 0.2]","[u'blue', u'red', u'black']","[u'left', u'middle', u'right']","[0.8, 0.4, 0.2]","[u'medium', u'high', u'low']","red",50,"middle","high","True","False",148,6300,NA
"A3CI73EFDLS3OF","Tue Oct 27 2020 12:34:11 GMT-0400 (Eastern Daylight Time)","Tue Oct 27 2020 12:40:24 GMT-0400 (Eastern Daylight Time)","Mozilla/5.0 (Windows NT 10.0; Win64; x64) AppleWebKit/537.36 (KHTML, like Gecko) Chrome/86.0.4240.111 Safari/537.36",160,"[0.9, 0.5, 0.1]","[0.8, 0.4, 0.2]","[u'blue', u'red', u'black']","[u'left', u'middle', u'right']","[0.8, 0.4, 0.2]","[u'medium', u'high', u'low']","red",50,"middle","high","True","False",176,6400,NA
