"src_subject_id","start_time","end_time","browser","index","first_half_probabilities","second_half_probabilities","deck_color","deck_position","deck_probabilities","deck_contingencies","response_color","key_press","response_position","response_probability","reward_type","trial_type","rt","reward_tally","exclusion_reason"
"A7UAEO1A6LMXG","Tue Oct 27 2020 13:17:50 GMT-0400 (Eastern Daylight Time)","Tue Oct 27 2020 13:41:40 GMT-0400 (Eastern Daylight Time)","Mozilla/5.0 (Windows NT 10.0; WOW64) AppleWebKit/537.36 (KHTML, like Gecko) Chrome/86.0.4240.111 Safari/537.36",1,"[0.9, 0.5, 0.1]","[0.8, 0.4, 0.2]","[u'red', u'black', u'blue']","[u'left', u'middle', u'right']","[0.9, 0.5, 0.1]","[u'medium', u'low', u'high']","blue",51,"right","high","True","False",1314,100,NA
"A7UAEO1A6LMXG","Tue Oct 27 2020 13:17:50 GMT-0400 (Eastern Daylight Time)","Tue Oct 27 2020 13:41:40 GMT-0400 (Eastern Daylight Time)","Mozilla/5.0 (Windows NT 10.0; WOW64) AppleWebKit/537.36 (KHTML, like Gecko) Chrome/86.0.4240.111 Safari/537.36",2,"[0.9, 0.5, 0.1]","[0.8, 0.4, 0.2]","[u'red', u'black', u'blue']","[u'left', u'middle', u'right']","[0.9, 0.5, 0.1]","[u'medium', u'low', u'high']","black",50,"middle","low","False","False",421,50,NA
"A7UAEO1A6LMXG","Tue Oct 27 2020 13:17:50 GMT-0400 (Eastern Daylight Time)","Tue Oct 27 2020 13:41:40 GMT-0400 (Eastern Daylight Time)","Mozilla/5.0 (Windows NT 10.0; WOW64) AppleWebKit/537.36 (KHTML, like Gecko) Chrome/86.0.4240.111 Safari/537.36",3,"[0.9, 0.5, 0.1]","[0.8, 0.4, 0.2]","[u'red', u'black', u'blue']","[u'left', u'middle', u'right']","[0.9, 0.5, 0.1]","[u'medium', u'low', u'high']","red",49,"left","medium","False","False",907,0,NA
"A7UAEO1A6LMXG","Tue Oct 27 2020 13:17:50 GMT-0400 (Eastern Daylight Time)","Tue Oct 27 2020 13:41:40 GMT-0400 (Eastern Daylight Time)","Mozilla/5.0 (Windows NT 10.0; WOW64) AppleWebKit/537.36 (KHTML, like Gecko) Chrome/86.0.4240.111 Safari/537.36",4,"[0.9, 0.5, 0.1]","[0.8, 0.4, 0.2]","[u'red', u'black', u'blue']","[u'left', u'middle', u'right']","[0.9, 0.5, 0.1]","[u'medium', u'low', u'high']","red",49,"left","medium","True","False",75,100,NA
"A7UAEO1A6LMXG","Tue Oct 27 2020 13:17:50 GMT-0400 (Eastern Daylight Time)","Tue Oct 27 2020 13:41:40 GMT-0400 (Eastern Daylight Time)","Mozilla/5.0 (Windows NT 10.0; WOW64) AppleWebKit/537.36 (KHTML, like Gecko) Chrome/86.0.4240.111 Safari/537.36",5,"[0.9, 0.5, 0.1]","[0.8, 0.4, 0.2]","[u'red', u'black', u'blue']","[u'left', u'middle', u'right']","[0.9, 0.5, 0.1]","[u'medium', u'low', u'high']","black",50,"middle","low","False","False",209,50,NA
"A7UAEO1A6LMXG","Tue Oct 27 2020 13:17:50 GMT-0400 (Eastern Daylight Time)","Tue Oct 27 2020 13:41:40 GMT-0400 (Eastern Daylight Time)","Mozilla/5.0 (Windows NT 10.0; WOW64) AppleWebKit/537.36 (KHTML, like Gecko) Chrome/86.0.4240.111 Safari/537.36",6,"[0.9, 0.5, 0.1]","[0.8, 0.4, 0.2]","[u'red', u'black', u'blue']","[u'left', u'middle', u'right']","[0.9, 0.5, 0.1]","[u'medium', u'low', u'high']","black",50,"middle","low","False","False",470,0,NA
"A7UAEO1A6LMXG","Tue Oct 27 2020 13:17:50 GMT-0400 (Eastern Daylight Time)","Tue Oct 27 2020 13:41:40 GMT-0400 (Eastern Daylight Time)","Mozilla/5.0 (Windows NT 10.0; WOW64) AppleWebKit/537.36 (KHTML, like Gecko) Chrome/86.0.4240.111 Safari/537.36",7,"[0.9, 0.5, 0.1]","[0.8, 0.4, 0.2]","[u'red', u'black', u'blue']","[u'left', u'middle', u'right']","[0.9, 0.5, 0.1]","[u'medium', u'low', u'high']","blue",51,"right","high","True","False",250,100,NA
"A7UAEO1A6LMXG","Tue Oct 27 2020 13:17:50 GMT-0400 (Eastern Daylight Time)","Tue Oct 27 2020 13:41:40 GMT-0400 (Eastern Daylight Time)","Mozilla/5.0 (Windows NT 10.0; WOW64) AppleWebKit/537.36 (KHTML, like Gecko) Chrome/86.0.4240.111 Safari/537.36",8,"[0.9, 0.5, 0.1]","[0.8, 0.4, 0.2]","[u'red', u'black', u'blue']","[u'left', u'middle', u'right']","[0.9, 0.5, 0.1]","[u'medium', u'low', u'high']","red",49,"left","medium","False","False",218,50,NA
"A7UAEO1A6LMXG","Tue Oct 27 2020 13:17:50 GMT-0400 (Eastern Daylight Time)","Tue Oct 27 2020 13:41:40 GMT-0400 (Eastern Daylight Time)","Mozilla/5.0 (Windows NT 10.0; WOW64) AppleWebKit/537.36 (KHTML, like Gecko) Chrome/86.0.4240.111 Safari/537.36",9,"[0.9, 0.5, 0.1]","[0.8, 0.4, 0.2]","[u'red', u'black', u'blue']","[u'left', u'middle', u'right']","[0.9, 0.5, 0.1]","[u'medium', u'low', u'high']","blue",51,"right","high","True","False",244,150,NA
"A7UAEO1A6LMXG","Tue Oct 27 2020 13:17:50 GMT-0400 (Eastern Daylight Time)","Tue Oct 27 2020 13:41:40 GMT-0400 (Eastern Daylight Time)","Mozilla/5.0 (Windows NT 10.0; WOW64) AppleWebKit/537.36 (KHTML, like Gecko) Chrome/86.0.4240.111 Safari/537.36",10,"[0.9, 0.5, 0.1]","[0.8, 0.4, 0.2]","[u'red', u'black', u'blue']","[u'left', u'middle', u'right']","[0.9, 0.5, 0.1]","[u'medium', u'low', u'high']","blue",51,"right","high","True","False",320,250,NA
"A7UAEO1A6LMXG","Tue Oct 27 2020 13:17:50 GMT-0400 (Eastern Daylight Time)","Tue Oct 27 2020 13:41:40 GMT-0400 (Eastern Daylight Time)","Mozilla/5.0 (Windows NT 10.0; WOW64) AppleWebKit/537.36 (KHTML, like Gecko) Chrome/86.0.4240.111 Safari/537.36",11,"[0.9, 0.5, 0.1]","[0.8, 0.4, 0.2]","[u'red', u'black', u'blue']","[u'left', u'middle', u'right']","[0.9, 0.5, 0.1]","[u'medium', u'low', u'high']","blue",51,"right","high","True","False",842,350,NA
"A7UAEO1A6LMXG","Tue Oct 27 2020 13:17:50 GMT-0400 (Eastern Daylight Time)","Tue Oct 27 2020 13:41:40 GMT-0400 (Eastern Daylight Time)","Mozilla/5.0 (Windows NT 10.0; WOW64) AppleWebKit/537.36 (KHTML, like Gecko) Chrome/86.0.4240.111 Safari/537.36",12,"[0.9, 0.5, 0.1]","[0.8, 0.4, 0.2]","[u'red', u'black', u'blue']","[u'left', u'middle', u'right']","[0.9, 0.5, 0.1]","[u'medium', u'low', u'high']","blue",51,"right","high","True","False",412,450,NA
"A7UAEO1A6LMXG","Tue Oct 27 2020 13:17:50 GMT-0400 (Eastern Daylight Time)","Tue Oct 27 2020 13:41:40 GMT-0400 (Eastern Daylight Time)","Mozilla/5.0 (Windows NT 10.0; WOW64) AppleWebKit/537.36 (KHTML, like Gecko) Chrome/86.0.4240.111 Safari/537.36",13,"[0.9, 0.5, 0.1]","[0.8, 0.4, 0.2]","[u'red', u'black', u'blue']","[u'left', u'middle', u'right']","[0.9, 0.5, 0.1]","[u'medium', u'low', u'high']","blue",51,"right","high","True","False",320,550,NA
"A7UAEO1A6LMXG","Tue Oct 27 2020 13:17:50 GMT-0400 (Eastern Daylight Time)","Tue Oct 27 2020 13:41:40 GMT-0400 (Eastern Daylight Time)","Mozilla/5.0 (Windows NT 10.0; WOW64) AppleWebKit/537.36 (KHTML, like Gecko) Chrome/86.0.4240.111 Safari/537.36",14,"[0.9, 0.5, 0.1]","[0.8, 0.4, 0.2]","[u'red', u'black', u'blue']","[u'left', u'middle', u'right']","[0.9, 0.5, 0.1]","[u'medium', u'low', u'high']","blue",51,"right","high","True","False",327,650,NA
"A7UAEO1A6LMXG","Tue Oct 27 2020 13:17:50 GMT-0400 (Eastern Daylight Time)","Tue Oct 27 2020 13:41:40 GMT-0400 (Eastern Daylight Time)","Mozilla/5.0 (Windows NT 10.0; WOW64) AppleWebKit/537.36 (KHTML, like Gecko) Chrome/86.0.4240.111 Safari/537.36",15,"[0.9, 0.5, 0.1]","[0.8, 0.4, 0.2]","[u'red', u'black', u'blue']","[u'left', u'middle', u'right']","[0.9, 0.5, 0.1]","[u'medium', u'low', u'high']","blue",51,"right","high","True","False",401,750,NA
"A7UAEO1A6LMXG","Tue Oct 27 2020 13:17:50 GMT-0400 (Eastern Daylight Time)","Tue Oct 27 2020 13:41:40 GMT-0400 (Eastern Daylight Time)","Mozilla/5.0 (Windows NT 10.0; WOW64) AppleWebKit/537.36 (KHTML, like Gecko) Chrome/86.0.4240.111 Safari/537.36",16,"[0.9, 0.5, 0.1]","[0.8, 0.4, 0.2]","[u'red', u'black', u'blue']","[u'left', u'middle', u'right']","[0.9, 0.5, 0.1]","[u'medium', u'low', u'high']","black",50,"middle","low","False","False",446,700,NA
"A7UAEO1A6LMXG","Tue Oct 27 2020 13:17:50 GMT-0400 (Eastern Daylight Time)","Tue Oct 27 2020 13:41:40 GMT-0400 (Eastern Daylight Time)","Mozilla/5.0 (Windows NT 10.0; WOW64) AppleWebKit/537.36 (KHTML, like Gecko) Chrome/86.0.4240.111 Safari/537.36",17,"[0.9, 0.5, 0.1]","[0.8, 0.4, 0.2]","[u'red', u'black', u'blue']","[u'left', u'middle', u'right']","[0.9, 0.5, 0.1]","[u'medium', u'low', u'high']","blue",51,"right","high","True","False",203,800,NA
"A7UAEO1A6LMXG","Tue Oct 27 2020 13:17:50 GMT-0400 (Eastern Daylight Time)","Tue Oct 27 2020 13:41:40 GMT-0400 (Eastern Daylight Time)","Mozilla/5.0 (Windows NT 10.0; WOW64) AppleWebKit/537.36 (KHTML, like Gecko) Chrome/86.0.4240.111 Safari/537.36",18,"[0.9, 0.5, 0.1]","[0.8, 0.4, 0.2]","[u'red', u'black', u'blue']","[u'left', u'middle', u'right']","[0.9, 0.5, 0.1]","[u'medium', u'low', u'high']","blue",51,"right","high","True","False",386,900,NA
"A7UAEO1A6LMXG","Tue Oct 27 2020 13:17:50 GMT-0400 (Eastern Daylight Time)","Tue Oct 27 2020 13:41:40 GMT-0400 (Eastern Daylight Time)","Mozilla/5.0 (Windows NT 10.0; WOW64) AppleWebKit/537.36 (KHTML, like Gecko) Chrome/86.0.4240.111 Safari/537.36",19,"[0.9, 0.5, 0.1]","[0.8, 0.4, 0.2]","[u'red', u'black', u'blue']","[u'left', u'middle', u'right']","[0.9, 0.5, 0.1]","[u'medium', u'low', u'high']","blue",51,"right","high","True","False",257,1000,NA
"A7UAEO1A6LMXG","Tue Oct 27 2020 13:17:50 GMT-0400 (Eastern Daylight Time)","Tue Oct 27 2020 13:41:40 GMT-0400 (Eastern Daylight Time)","Mozilla/5.0 (Windows NT 10.0; WOW64) AppleWebKit/537.36 (KHTML, like Gecko) Chrome/86.0.4240.111 Safari/537.36",20,"[0.9, 0.5, 0.1]","[0.8, 0.4, 0.2]","[u'red', u'black', u'blue']","[u'left', u'middle', u'right']","[0.9, 0.5, 0.1]","[u'medium', u'low', u'high']","blue",51,"right","high","True","False",641,1100,NA
"A7UAEO1A6LMXG","Tue Oct 27 2020 13:17:50 GMT-0400 (Eastern Daylight Time)","Tue Oct 27 2020 13:41:40 GMT-0400 (Eastern Daylight Time)","Mozilla/5.0 (Windows NT 10.0; WOW64) AppleWebKit/537.36 (KHTML, like Gecko) Chrome/86.0.4240.111 Safari/537.36",21,"[0.9, 0.5, 0.1]","[0.8, 0.4, 0.2]","[u'red', u'black', u'blue']","[u'left', u'middle', u'right']","[0.9, 0.5, 0.1]","[u'medium', u'low', u'high']","blue",51,"right","high","True","False",916,1200,NA
"A7UAEO1A6LMXG","Tue Oct 27 2020 13:17:50 GMT-0400 (Eastern Daylight Time)","Tue Oct 27 2020 13:41:40 GMT-0400 (Eastern Daylight Time)","Mozilla/5.0 (Windows NT 10.0; WOW64) AppleWebKit/537.36 (KHTML, like Gecko) Chrome/86.0.4240.111 Safari/537.36",22,"[0.9, 0.5, 0.1]","[0.8, 0.4, 0.2]","[u'red', u'black', u'blue']","[u'left', u'middle', u'right']","[0.9, 0.5, 0.1]","[u'medium', u'low', u'high']","red",49,"left","medium","True","False",465,1300,NA
"A7UAEO1A6LMXG","Tue Oct 27 2020 13:17:50 GMT-0400 (Eastern Daylight Time)","Tue Oct 27 2020 13:41:40 GMT-0400 (Eastern Daylight Time)","Mozilla/5.0 (Windows NT 10.0; WOW64) AppleWebKit/537.36 (KHTML, like Gecko) Chrome/86.0.4240.111 Safari/537.36",23,"[0.9, 0.5, 0.1]","[0.8, 0.4, 0.2]","[u'red', u'black', u'blue']","[u'left', u'middle', u'right']","[0.9, 0.5, 0.1]","[u'medium', u'low', u'high']","red",49,"left","medium","False","False",406,1250,NA
"A7UAEO1A6LMXG","Tue Oct 27 2020 13:17:50 GMT-0400 (Eastern Daylight Time)","Tue Oct 27 2020 13:41:40 GMT-0400 (Eastern Daylight Time)","Mozilla/5.0 (Windows NT 10.0; WOW64) AppleWebKit/537.36 (KHTML, like Gecko) Chrome/86.0.4240.111 Safari/537.36",24,"[0.9, 0.5, 0.1]","[0.8, 0.4, 0.2]","[u'red', u'black', u'blue']","[u'left', u'middle', u'right']","[0.9, 0.5, 0.1]","[u'medium', u'low', u'high']","blue",51,"right","high","True","False",238,1350,NA
"A7UAEO1A6LMXG","Tue Oct 27 2020 13:17:50 GMT-0400 (Eastern Daylight Time)","Tue Oct 27 2020 13:41:40 GMT-0400 (Eastern Daylight Time)","Mozilla/5.0 (Windows NT 10.0; WOW64) AppleWebKit/537.36 (KHTML, like Gecko) Chrome/86.0.4240.111 Safari/537.36",25,"[0.9, 0.5, 0.1]","[0.8, 0.4, 0.2]","[u'red', u'black', u'blue']","[u'left', u'middle', u'right']","[0.9, 0.5, 0.1]","[u'medium', u'low', u'high']","blue",51,"right","high","False","False",234,1300,NA
"A7UAEO1A6LMXG","Tue Oct 27 2020 13:17:50 GMT-0400 (Eastern Daylight Time)","Tue Oct 27 2020 13:41:40 GMT-0400 (Eastern Daylight Time)","Mozilla/5.0 (Windows NT 10.0; WOW64) AppleWebKit/537.36 (KHTML, like Gecko) Chrome/86.0.4240.111 Safari/537.36",26,"[0.9, 0.5, 0.1]","[0.8, 0.4, 0.2]","[u'red', u'black', u'blue']","[u'left', u'middle', u'right']","[0.9, 0.5, 0.1]","[u'medium', u'low', u'high']","black",50,"middle","low","False","False",809,1250,NA
"A7UAEO1A6LMXG","Tue Oct 27 2020 13:17:50 GMT-0400 (Eastern Daylight Time)","Tue Oct 27 2020 13:41:40 GMT-0400 (Eastern Daylight Time)","Mozilla/5.0 (Windows NT 10.0; WOW64) AppleWebKit/537.36 (KHTML, like Gecko) Chrome/86.0.4240.111 Safari/537.36",27,"[0.9, 0.5, 0.1]","[0.8, 0.4, 0.2]","[u'red', u'black', u'blue']","[u'left', u'middle', u'right']","[0.9, 0.5, 0.1]","[u'medium', u'low', u'high']","red",49,"left","medium","False","False",385,1200,NA
"A7UAEO1A6LMXG","Tue Oct 27 2020 13:17:50 GMT-0400 (Eastern Daylight Time)","Tue Oct 27 2020 13:41:40 GMT-0400 (Eastern Daylight Time)","Mozilla/5.0 (Windows NT 10.0; WOW64) AppleWebKit/537.36 (KHTML, like Gecko) Chrome/86.0.4240.111 Safari/537.36",28,"[0.9, 0.5, 0.1]","[0.8, 0.4, 0.2]","[u'red', u'black', u'blue']","[u'left', u'middle', u'right']","[0.9, 0.5, 0.1]","[u'medium', u'low', u'high']","blue",51,"right","high","True","False",388,1300,NA
"A7UAEO1A6LMXG","Tue Oct 27 2020 13:17:50 GMT-0400 (Eastern Daylight Time)","Tue Oct 27 2020 13:41:40 GMT-0400 (Eastern Daylight Time)","Mozilla/5.0 (Windows NT 10.0; WOW64) AppleWebKit/537.36 (KHTML, like Gecko) Chrome/86.0.4240.111 Safari/537.36",29,"[0.9, 0.5, 0.1]","[0.8, 0.4, 0.2]","[u'red', u'black', u'blue']","[u'left', u'middle', u'right']","[0.9, 0.5, 0.1]","[u'medium', u'low', u'high']","blue",51,"right","high","True","False",374,1400,NA
"A7UAEO1A6LMXG","Tue Oct 27 2020 13:17:50 GMT-0400 (Eastern Daylight Time)","Tue Oct 27 2020 13:41:40 GMT-0400 (Eastern Daylight Time)","Mozilla/5.0 (Windows NT 10.0; WOW64) AppleWebKit/537.36 (KHTML, like Gecko) Chrome/86.0.4240.111 Safari/537.36",30,"[0.9, 0.5, 0.1]","[0.8, 0.4, 0.2]","[u'red', u'black', u'blue']","[u'left', u'middle', u'right']","[0.9, 0.5, 0.1]","[u'medium', u'low', u'high']","blue",51,"right","high","True","False",293,1500,NA
"A7UAEO1A6LMXG","Tue Oct 27 2020 13:17:50 GMT-0400 (Eastern Daylight Time)","Tue Oct 27 2020 13:41:40 GMT-0400 (Eastern Daylight Time)","Mozilla/5.0 (Windows NT 10.0; WOW64) AppleWebKit/537.36 (KHTML, like Gecko) Chrome/86.0.4240.111 Safari/537.36",31,"[0.9, 0.5, 0.1]","[0.8, 0.4, 0.2]","[u'red', u'black', u'blue']","[u'left', u'middle', u'right']","[0.9, 0.5, 0.1]","[u'medium', u'low', u'high']","blue",51,"right","high","True","False",242,1600,NA
"A7UAEO1A6LMXG","Tue Oct 27 2020 13:17:50 GMT-0400 (Eastern Daylight Time)","Tue Oct 27 2020 13:41:40 GMT-0400 (Eastern Daylight Time)","Mozilla/5.0 (Windows NT 10.0; WOW64) AppleWebKit/537.36 (KHTML, like Gecko) Chrome/86.0.4240.111 Safari/537.36",32,"[0.9, 0.5, 0.1]","[0.8, 0.4, 0.2]","[u'red', u'black', u'blue']","[u'left', u'middle', u'right']","[0.9, 0.5, 0.1]","[u'medium', u'low', u'high']","blue",51,"right","high","True","False",257,1700,NA
"A7UAEO1A6LMXG","Tue Oct 27 2020 13:17:50 GMT-0400 (Eastern Daylight Time)","Tue Oct 27 2020 13:41:40 GMT-0400 (Eastern Daylight Time)","Mozilla/5.0 (Windows NT 10.0; WOW64) AppleWebKit/537.36 (KHTML, like Gecko) Chrome/86.0.4240.111 Safari/537.36",33,"[0.9, 0.5, 0.1]","[0.8, 0.4, 0.2]","[u'red', u'black', u'blue']","[u'left', u'middle', u'right']","[0.9, 0.5, 0.1]","[u'medium', u'low', u'high']","blue",51,"right","high","True","False",240,1800,NA
"A7UAEO1A6LMXG","Tue Oct 27 2020 13:17:50 GMT-0400 (Eastern Daylight Time)","Tue Oct 27 2020 13:41:40 GMT-0400 (Eastern Daylight Time)","Mozilla/5.0 (Windows NT 10.0; WOW64) AppleWebKit/537.36 (KHTML, like Gecko) Chrome/86.0.4240.111 Safari/537.36",34,"[0.9, 0.5, 0.1]","[0.8, 0.4, 0.2]","[u'red', u'black', u'blue']","[u'left', u'middle', u'right']","[0.9, 0.5, 0.1]","[u'medium', u'low', u'high']","blue",51,"right","high","True","False",217,1900,NA
"A7UAEO1A6LMXG","Tue Oct 27 2020 13:17:50 GMT-0400 (Eastern Daylight Time)","Tue Oct 27 2020 13:41:40 GMT-0400 (Eastern Daylight Time)","Mozilla/5.0 (Windows NT 10.0; WOW64) AppleWebKit/537.36 (KHTML, like Gecko) Chrome/86.0.4240.111 Safari/537.36",35,"[0.9, 0.5, 0.1]","[0.8, 0.4, 0.2]","[u'red', u'black', u'blue']","[u'left', u'middle', u'right']","[0.9, 0.5, 0.1]","[u'medium', u'low', u'high']","blue",51,"right","high","True","False",428,2000,NA
"A7UAEO1A6LMXG","Tue Oct 27 2020 13:17:50 GMT-0400 (Eastern Daylight Time)","Tue Oct 27 2020 13:41:40 GMT-0400 (Eastern Daylight Time)","Mozilla/5.0 (Windows NT 10.0; WOW64) AppleWebKit/537.36 (KHTML, like Gecko) Chrome/86.0.4240.111 Safari/537.36",36,"[0.9, 0.5, 0.1]","[0.8, 0.4, 0.2]","[u'red', u'black', u'blue']","[u'left', u'middle', u'right']","[0.9, 0.5, 0.1]","[u'medium', u'low', u'high']","blue",51,"right","high","False","True",219,1950,NA
"A7UAEO1A6LMXG","Tue Oct 27 2020 13:17:50 GMT-0400 (Eastern Daylight Time)","Tue Oct 27 2020 13:41:40 GMT-0400 (Eastern Daylight Time)","Mozilla/5.0 (Windows NT 10.0; WOW64) AppleWebKit/537.36 (KHTML, like Gecko) Chrome/86.0.4240.111 Safari/537.36",37,"[0.9, 0.5, 0.1]","[0.8, 0.4, 0.2]","[u'red', u'black', u'blue']","[u'left', u'middle', u'right']","[0.9, 0.5, 0.1]","[u'low', u'high', u'medium']","blue",51,"right","medium","False","False",374,1900,NA
"A7UAEO1A6LMXG","Tue Oct 27 2020 13:17:50 GMT-0400 (Eastern Daylight Time)","Tue Oct 27 2020 13:41:40 GMT-0400 (Eastern Daylight Time)","Mozilla/5.0 (Windows NT 10.0; WOW64) AppleWebKit/537.36 (KHTML, like Gecko) Chrome/86.0.4240.111 Safari/537.36",38,"[0.9, 0.5, 0.1]","[0.8, 0.4, 0.2]","[u'red', u'black', u'blue']","[u'left', u'middle', u'right']","[0.9, 0.5, 0.1]","[u'low', u'high', u'medium']","black",50,"middle","high","True","False",105,2000,NA
"A7UAEO1A6LMXG","Tue Oct 27 2020 13:17:50 GMT-0400 (Eastern Daylight Time)","Tue Oct 27 2020 13:41:40 GMT-0400 (Eastern Daylight Time)","Mozilla/5.0 (Windows NT 10.0; WOW64) AppleWebKit/537.36 (KHTML, like Gecko) Chrome/86.0.4240.111 Safari/537.36",39,"[0.9, 0.5, 0.1]","[0.8, 0.4, 0.2]","[u'red', u'black', u'blue']","[u'left', u'middle', u'right']","[0.9, 0.5, 0.1]","[u'low', u'high', u'medium']","black",50,"middle","high","True","False",1001,2100,NA
"A7UAEO1A6LMXG","Tue Oct 27 2020 13:17:50 GMT-0400 (Eastern Daylight Time)","Tue Oct 27 2020 13:41:40 GMT-0400 (Eastern Daylight Time)","Mozilla/5.0 (Windows NT 10.0; WOW64) AppleWebKit/537.36 (KHTML, like Gecko) Chrome/86.0.4240.111 Safari/537.36",40,"[0.9, 0.5, 0.1]","[0.8, 0.4, 0.2]","[u'red', u'black', u'blue']","[u'left', u'middle', u'right']","[0.9, 0.5, 0.1]","[u'low', u'high', u'medium']","black",50,"middle","high","True","False",538,2200,NA
"A7UAEO1A6LMXG","Tue Oct 27 2020 13:17:50 GMT-0400 (Eastern Daylight Time)","Tue Oct 27 2020 13:41:40 GMT-0400 (Eastern Daylight Time)","Mozilla/5.0 (Windows NT 10.0; WOW64) AppleWebKit/537.36 (KHTML, like Gecko) Chrome/86.0.4240.111 Safari/537.36",41,"[0.9, 0.5, 0.1]","[0.8, 0.4, 0.2]","[u'red', u'black', u'blue']","[u'left', u'middle', u'right']","[0.9, 0.5, 0.1]","[u'high', u'medium', u'low']","red",49,"left","high","True","False",1209,2300,NA
"A7UAEO1A6LMXG","Tue Oct 27 2020 13:17:50 GMT-0400 (Eastern Daylight Time)","Tue Oct 27 2020 13:41:40 GMT-0400 (Eastern Daylight Time)","Mozilla/5.0 (Windows NT 10.0; WOW64) AppleWebKit/537.36 (KHTML, like Gecko) Chrome/86.0.4240.111 Safari/537.36",42,"[0.9, 0.5, 0.1]","[0.8, 0.4, 0.2]","[u'red', u'black', u'blue']","[u'left', u'middle', u'right']","[0.9, 0.5, 0.1]","[u'high', u'medium', u'low']","red",49,"left","high","True","False",231,2400,NA
"A7UAEO1A6LMXG","Tue Oct 27 2020 13:17:50 GMT-0400 (Eastern Daylight Time)","Tue Oct 27 2020 13:41:40 GMT-0400 (Eastern Daylight Time)","Mozilla/5.0 (Windows NT 10.0; WOW64) AppleWebKit/537.36 (KHTML, like Gecko) Chrome/86.0.4240.111 Safari/537.36",43,"[0.9, 0.5, 0.1]","[0.8, 0.4, 0.2]","[u'red', u'black', u'blue']","[u'left', u'middle', u'right']","[0.9, 0.5, 0.1]","[u'high', u'medium', u'low']","red",49,"left","high","True","False",361,2500,NA
"A7UAEO1A6LMXG","Tue Oct 27 2020 13:17:50 GMT-0400 (Eastern Daylight Time)","Tue Oct 27 2020 13:41:40 GMT-0400 (Eastern Daylight Time)","Mozilla/5.0 (Windows NT 10.0; WOW64) AppleWebKit/537.36 (KHTML, like Gecko) Chrome/86.0.4240.111 Safari/537.36",44,"[0.9, 0.5, 0.1]","[0.8, 0.4, 0.2]","[u'red', u'black', u'blue']","[u'left', u'middle', u'right']","[0.9, 0.5, 0.1]","[u'high', u'medium', u'low']","red",49,"left","high","True","False",622,2600,NA
"A7UAEO1A6LMXG","Tue Oct 27 2020 13:17:50 GMT-0400 (Eastern Daylight Time)","Tue Oct 27 2020 13:41:40 GMT-0400 (Eastern Daylight Time)","Mozilla/5.0 (Windows NT 10.0; WOW64) AppleWebKit/537.36 (KHTML, like Gecko) Chrome/86.0.4240.111 Safari/537.36",45,"[0.9, 0.5, 0.1]","[0.8, 0.4, 0.2]","[u'red', u'black', u'blue']","[u'left', u'middle', u'right']","[0.9, 0.5, 0.1]","[u'high', u'medium', u'low']","red",49,"left","high","True","False",381,2700,NA
"A7UAEO1A6LMXG","Tue Oct 27 2020 13:17:50 GMT-0400 (Eastern Daylight Time)","Tue Oct 27 2020 13:41:40 GMT-0400 (Eastern Daylight Time)","Mozilla/5.0 (Windows NT 10.0; WOW64) AppleWebKit/537.36 (KHTML, like Gecko) Chrome/86.0.4240.111 Safari/537.36",46,"[0.9, 0.5, 0.1]","[0.8, 0.4, 0.2]","[u'red', u'black', u'blue']","[u'left', u'middle', u'right']","[0.9, 0.5, 0.1]","[u'high', u'medium', u'low']","red",49,"left","high","True","False",601,2800,NA
"A7UAEO1A6LMXG","Tue Oct 27 2020 13:17:50 GMT-0400 (Eastern Daylight Time)","Tue Oct 27 2020 13:41:40 GMT-0400 (Eastern Daylight Time)","Mozilla/5.0 (Windows NT 10.0; WOW64) AppleWebKit/537.36 (KHTML, like Gecko) Chrome/86.0.4240.111 Safari/537.36",47,"[0.9, 0.5, 0.1]","[0.8, 0.4, 0.2]","[u'red', u'black', u'blue']","[u'left', u'middle', u'right']","[0.9, 0.5, 0.1]","[u'high', u'medium', u'low']","red",49,"left","high","True","False",236,2900,NA
"A7UAEO1A6LMXG","Tue Oct 27 2020 13:17:50 GMT-0400 (Eastern Daylight Time)","Tue Oct 27 2020 13:41:40 GMT-0400 (Eastern Daylight Time)","Mozilla/5.0 (Windows NT 10.0; WOW64) AppleWebKit/537.36 (KHTML, like Gecko) Chrome/86.0.4240.111 Safari/537.36",48,"[0.9, 0.5, 0.1]","[0.8, 0.4, 0.2]","[u'red', u'black', u'blue']","[u'left', u'middle', u'right']","[0.9, 0.5, 0.1]","[u'high', u'medium', u'low']","black",50,"middle","medium","True","False",251,3000,NA
"A7UAEO1A6LMXG","Tue Oct 27 2020 13:17:50 GMT-0400 (Eastern Daylight Time)","Tue Oct 27 2020 13:41:40 GMT-0400 (Eastern Daylight Time)","Mozilla/5.0 (Windows NT 10.0; WOW64) AppleWebKit/537.36 (KHTML, like Gecko) Chrome/86.0.4240.111 Safari/537.36",49,"[0.9, 0.5, 0.1]","[0.8, 0.4, 0.2]","[u'red', u'black', u'blue']","[u'left', u'middle', u'right']","[0.9, 0.5, 0.1]","[u'high', u'medium', u'low']","blue",51,"right","low","False","False",272,2950,NA
"A7UAEO1A6LMXG","Tue Oct 27 2020 13:17:50 GMT-0400 (Eastern Daylight Time)","Tue Oct 27 2020 13:41:40 GMT-0400 (Eastern Daylight Time)","Mozilla/5.0 (Windows NT 10.0; WOW64) AppleWebKit/537.36 (KHTML, like Gecko) Chrome/86.0.4240.111 Safari/537.36",50,"[0.9, 0.5, 0.1]","[0.8, 0.4, 0.2]","[u'red', u'black', u'blue']","[u'left', u'middle', u'right']","[0.9, 0.5, 0.1]","[u'high', u'medium', u'low']","red",49,"left","high","True","False",118,3050,NA
"A7UAEO1A6LMXG","Tue Oct 27 2020 13:17:50 GMT-0400 (Eastern Daylight Time)","Tue Oct 27 2020 13:41:40 GMT-0400 (Eastern Daylight Time)","Mozilla/5.0 (Windows NT 10.0; WOW64) AppleWebKit/537.36 (KHTML, like Gecko) Chrome/86.0.4240.111 Safari/537.36",51,"[0.9, 0.5, 0.1]","[0.8, 0.4, 0.2]","[u'red', u'black', u'blue']","[u'left', u'middle', u'right']","[0.9, 0.5, 0.1]","[u'high', u'medium', u'low']","red",49,"left","high","True","False",161,3150,NA
"A7UAEO1A6LMXG","Tue Oct 27 2020 13:17:50 GMT-0400 (Eastern Daylight Time)","Tue Oct 27 2020 13:41:40 GMT-0400 (Eastern Daylight Time)","Mozilla/5.0 (Windows NT 10.0; WOW64) AppleWebKit/537.36 (KHTML, like Gecko) Chrome/86.0.4240.111 Safari/537.36",52,"[0.9, 0.5, 0.1]","[0.8, 0.4, 0.2]","[u'red', u'black', u'blue']","[u'left', u'middle', u'right']","[0.9, 0.5, 0.1]","[u'high', u'medium', u'low']","red",49,"left","high","True","False",443,3250,NA
"A7UAEO1A6LMXG","Tue Oct 27 2020 13:17:50 GMT-0400 (Eastern Daylight Time)","Tue Oct 27 2020 13:41:40 GMT-0400 (Eastern Daylight Time)","Mozilla/5.0 (Windows NT 10.0; WOW64) AppleWebKit/537.36 (KHTML, like Gecko) Chrome/86.0.4240.111 Safari/537.36",53,"[0.9, 0.5, 0.1]","[0.8, 0.4, 0.2]","[u'red', u'black', u'blue']","[u'left', u'middle', u'right']","[0.9, 0.5, 0.1]","[u'high', u'medium', u'low']","red",49,"left","high","True","False",290,3350,NA
"A7UAEO1A6LMXG","Tue Oct 27 2020 13:17:50 GMT-0400 (Eastern Daylight Time)","Tue Oct 27 2020 13:41:40 GMT-0400 (Eastern Daylight Time)","Mozilla/5.0 (Windows NT 10.0; WOW64) AppleWebKit/537.36 (KHTML, like Gecko) Chrome/86.0.4240.111 Safari/537.36",54,"[0.9, 0.5, 0.1]","[0.8, 0.4, 0.2]","[u'red', u'black', u'blue']","[u'left', u'middle', u'right']","[0.9, 0.5, 0.1]","[u'high', u'medium', u'low']","black",50,"middle","medium","False","False",279,3300,NA
"A7UAEO1A6LMXG","Tue Oct 27 2020 13:17:50 GMT-0400 (Eastern Daylight Time)","Tue Oct 27 2020 13:41:40 GMT-0400 (Eastern Daylight Time)","Mozilla/5.0 (Windows NT 10.0; WOW64) AppleWebKit/537.36 (KHTML, like Gecko) Chrome/86.0.4240.111 Safari/537.36",55,"[0.9, 0.5, 0.1]","[0.8, 0.4, 0.2]","[u'red', u'black', u'blue']","[u'left', u'middle', u'right']","[0.9, 0.5, 0.1]","[u'high', u'medium', u'low']","red",49,"left","high","True","False",1199,3400,NA
"A7UAEO1A6LMXG","Tue Oct 27 2020 13:17:50 GMT-0400 (Eastern Daylight Time)","Tue Oct 27 2020 13:41:40 GMT-0400 (Eastern Daylight Time)","Mozilla/5.0 (Windows NT 10.0; WOW64) AppleWebKit/537.36 (KHTML, like Gecko) Chrome/86.0.4240.111 Safari/537.36",56,"[0.9, 0.5, 0.1]","[0.8, 0.4, 0.2]","[u'red', u'black', u'blue']","[u'left', u'middle', u'right']","[0.9, 0.5, 0.1]","[u'high', u'medium', u'low']","red",49,"left","high","True","False",1615,3500,NA
"A7UAEO1A6LMXG","Tue Oct 27 2020 13:17:50 GMT-0400 (Eastern Daylight Time)","Tue Oct 27 2020 13:41:40 GMT-0400 (Eastern Daylight Time)","Mozilla/5.0 (Windows NT 10.0; WOW64) AppleWebKit/537.36 (KHTML, like Gecko) Chrome/86.0.4240.111 Safari/537.36",57,"[0.9, 0.5, 0.1]","[0.8, 0.4, 0.2]","[u'red', u'black', u'blue']","[u'left', u'middle', u'right']","[0.9, 0.5, 0.1]","[u'high', u'medium', u'low']","red",49,"left","high","True","False",593,3600,NA
"A7UAEO1A6LMXG","Tue Oct 27 2020 13:17:50 GMT-0400 (Eastern Daylight Time)","Tue Oct 27 2020 13:41:40 GMT-0400 (Eastern Daylight Time)","Mozilla/5.0 (Windows NT 10.0; WOW64) AppleWebKit/537.36 (KHTML, like Gecko) Chrome/86.0.4240.111 Safari/537.36",58,"[0.9, 0.5, 0.1]","[0.8, 0.4, 0.2]","[u'red', u'black', u'blue']","[u'left', u'middle', u'right']","[0.9, 0.5, 0.1]","[u'high', u'medium', u'low']","red",49,"left","high","False","False",494,3550,NA
"A7UAEO1A6LMXG","Tue Oct 27 2020 13:17:50 GMT-0400 (Eastern Daylight Time)","Tue Oct 27 2020 13:41:40 GMT-0400 (Eastern Daylight Time)","Mozilla/5.0 (Windows NT 10.0; WOW64) AppleWebKit/537.36 (KHTML, like Gecko) Chrome/86.0.4240.111 Safari/537.36",59,"[0.9, 0.5, 0.1]","[0.8, 0.4, 0.2]","[u'red', u'black', u'blue']","[u'left', u'middle', u'right']","[0.9, 0.5, 0.1]","[u'high', u'medium', u'low']","red",49,"left","high","True","True",99,3650,NA
"A7UAEO1A6LMXG","Tue Oct 27 2020 13:17:50 GMT-0400 (Eastern Daylight Time)","Tue Oct 27 2020 13:41:40 GMT-0400 (Eastern Daylight Time)","Mozilla/5.0 (Windows NT 10.0; WOW64) AppleWebKit/537.36 (KHTML, like Gecko) Chrome/86.0.4240.111 Safari/537.36",60,"[0.9, 0.5, 0.1]","[0.8, 0.4, 0.2]","[u'red', u'black', u'blue']","[u'left', u'middle', u'right']","[0.9, 0.5, 0.1]","[u'low', u'medium', u'high']","red",49,"left","low","False","False",971,3600,NA
"A7UAEO1A6LMXG","Tue Oct 27 2020 13:17:50 GMT-0400 (Eastern Daylight Time)","Tue Oct 27 2020 13:41:40 GMT-0400 (Eastern Daylight Time)","Mozilla/5.0 (Windows NT 10.0; WOW64) AppleWebKit/537.36 (KHTML, like Gecko) Chrome/86.0.4240.111 Safari/537.36",61,"[0.9, 0.5, 0.1]","[0.8, 0.4, 0.2]","[u'red', u'black', u'blue']","[u'left', u'middle', u'right']","[0.9, 0.5, 0.1]","[u'low', u'medium', u'high']","red",49,"left","low","False","False",1054,3550,NA
"A7UAEO1A6LMXG","Tue Oct 27 2020 13:17:50 GMT-0400 (Eastern Daylight Time)","Tue Oct 27 2020 13:41:40 GMT-0400 (Eastern Daylight Time)","Mozilla/5.0 (Windows NT 10.0; WOW64) AppleWebKit/537.36 (KHTML, like Gecko) Chrome/86.0.4240.111 Safari/537.36",62,"[0.9, 0.5, 0.1]","[0.8, 0.4, 0.2]","[u'red', u'black', u'blue']","[u'left', u'middle', u'right']","[0.9, 0.5, 0.1]","[u'low', u'medium', u'high']","black",50,"middle","medium","True","False",219,3650,NA
"A7UAEO1A6LMXG","Tue Oct 27 2020 13:17:50 GMT-0400 (Eastern Daylight Time)","Tue Oct 27 2020 13:41:40 GMT-0400 (Eastern Daylight Time)","Mozilla/5.0 (Windows NT 10.0; WOW64) AppleWebKit/537.36 (KHTML, like Gecko) Chrome/86.0.4240.111 Safari/537.36",63,"[0.9, 0.5, 0.1]","[0.8, 0.4, 0.2]","[u'red', u'black', u'blue']","[u'left', u'middle', u'right']","[0.9, 0.5, 0.1]","[u'low', u'medium', u'high']","black",50,"middle","medium","False","False",21,3600,NA
"A7UAEO1A6LMXG","Tue Oct 27 2020 13:17:50 GMT-0400 (Eastern Daylight Time)","Tue Oct 27 2020 13:41:40 GMT-0400 (Eastern Daylight Time)","Mozilla/5.0 (Windows NT 10.0; WOW64) AppleWebKit/537.36 (KHTML, like Gecko) Chrome/86.0.4240.111 Safari/537.36",64,"[0.9, 0.5, 0.1]","[0.8, 0.4, 0.2]","[u'red', u'black', u'blue']","[u'left', u'middle', u'right']","[0.9, 0.5, 0.1]","[u'low', u'medium', u'high']","blue",51,"right","high","True","False",357,3700,NA
"A7UAEO1A6LMXG","Tue Oct 27 2020 13:17:50 GMT-0400 (Eastern Daylight Time)","Tue Oct 27 2020 13:41:40 GMT-0400 (Eastern Daylight Time)","Mozilla/5.0 (Windows NT 10.0; WOW64) AppleWebKit/537.36 (KHTML, like Gecko) Chrome/86.0.4240.111 Safari/537.36",65,"[0.9, 0.5, 0.1]","[0.8, 0.4, 0.2]","[u'red', u'black', u'blue']","[u'left', u'middle', u'right']","[0.9, 0.5, 0.1]","[u'low', u'medium', u'high']","blue",51,"right","high","True","False",316,3800,NA
"A7UAEO1A6LMXG","Tue Oct 27 2020 13:17:50 GMT-0400 (Eastern Daylight Time)","Tue Oct 27 2020 13:41:40 GMT-0400 (Eastern Daylight Time)","Mozilla/5.0 (Windows NT 10.0; WOW64) AppleWebKit/537.36 (KHTML, like Gecko) Chrome/86.0.4240.111 Safari/537.36",66,"[0.9, 0.5, 0.1]","[0.8, 0.4, 0.2]","[u'red', u'black', u'blue']","[u'left', u'middle', u'right']","[0.9, 0.5, 0.1]","[u'low', u'medium', u'high']","blue",51,"right","high","True","False",188,3900,NA
"A7UAEO1A6LMXG","Tue Oct 27 2020 13:17:50 GMT-0400 (Eastern Daylight Time)","Tue Oct 27 2020 13:41:40 GMT-0400 (Eastern Daylight Time)","Mozilla/5.0 (Windows NT 10.0; WOW64) AppleWebKit/537.36 (KHTML, like Gecko) Chrome/86.0.4240.111 Safari/537.36",67,"[0.9, 0.5, 0.1]","[0.8, 0.4, 0.2]","[u'red', u'black', u'blue']","[u'left', u'middle', u'right']","[0.9, 0.5, 0.1]","[u'low', u'medium', u'high']","blue",51,"right","high","True","False",671,4000,NA
"A7UAEO1A6LMXG","Tue Oct 27 2020 13:17:50 GMT-0400 (Eastern Daylight Time)","Tue Oct 27 2020 13:41:40 GMT-0400 (Eastern Daylight Time)","Mozilla/5.0 (Windows NT 10.0; WOW64) AppleWebKit/537.36 (KHTML, like Gecko) Chrome/86.0.4240.111 Safari/537.36",68,"[0.9, 0.5, 0.1]","[0.8, 0.4, 0.2]","[u'red', u'black', u'blue']","[u'left', u'middle', u'right']","[0.9, 0.5, 0.1]","[u'low', u'medium', u'high']","red",49,"left","low","False","False",5218,3950,NA
"A7UAEO1A6LMXG","Tue Oct 27 2020 13:17:50 GMT-0400 (Eastern Daylight Time)","Tue Oct 27 2020 13:41:40 GMT-0400 (Eastern Daylight Time)","Mozilla/5.0 (Windows NT 10.0; WOW64) AppleWebKit/537.36 (KHTML, like Gecko) Chrome/86.0.4240.111 Safari/537.36",69,"[0.9, 0.5, 0.1]","[0.8, 0.4, 0.2]","[u'red', u'black', u'blue']","[u'left', u'middle', u'right']","[0.9, 0.5, 0.1]","[u'low', u'medium', u'high']","blue",51,"right","high","True","False",429,4050,NA
"A7UAEO1A6LMXG","Tue Oct 27 2020 13:17:50 GMT-0400 (Eastern Daylight Time)","Tue Oct 27 2020 13:41:40 GMT-0400 (Eastern Daylight Time)","Mozilla/5.0 (Windows NT 10.0; WOW64) AppleWebKit/537.36 (KHTML, like Gecko) Chrome/86.0.4240.111 Safari/537.36",70,"[0.9, 0.5, 0.1]","[0.8, 0.4, 0.2]","[u'red', u'black', u'blue']","[u'left', u'middle', u'right']","[0.9, 0.5, 0.1]","[u'low', u'medium', u'high']","blue",51,"right","high","True","False",486,4150,NA
"A7UAEO1A6LMXG","Tue Oct 27 2020 13:17:50 GMT-0400 (Eastern Daylight Time)","Tue Oct 27 2020 13:41:40 GMT-0400 (Eastern Daylight Time)","Mozilla/5.0 (Windows NT 10.0; WOW64) AppleWebKit/537.36 (KHTML, like Gecko) Chrome/86.0.4240.111 Safari/537.36",71,"[0.9, 0.5, 0.1]","[0.8, 0.4, 0.2]","[u'red', u'black', u'blue']","[u'left', u'middle', u'right']","[0.9, 0.5, 0.1]","[u'low', u'medium', u'high']","blue",51,"right","high","True","False",884,4250,NA
"A7UAEO1A6LMXG","Tue Oct 27 2020 13:17:50 GMT-0400 (Eastern Daylight Time)","Tue Oct 27 2020 13:41:40 GMT-0400 (Eastern Daylight Time)","Mozilla/5.0 (Windows NT 10.0; WOW64) AppleWebKit/537.36 (KHTML, like Gecko) Chrome/86.0.4240.111 Safari/537.36",72,"[0.9, 0.5, 0.1]","[0.8, 0.4, 0.2]","[u'red', u'black', u'blue']","[u'left', u'middle', u'right']","[0.9, 0.5, 0.1]","[u'low', u'medium', u'high']","red",49,"left","low","False","False",418,4200,NA
"A7UAEO1A6LMXG","Tue Oct 27 2020 13:17:50 GMT-0400 (Eastern Daylight Time)","Tue Oct 27 2020 13:41:40 GMT-0400 (Eastern Daylight Time)","Mozilla/5.0 (Windows NT 10.0; WOW64) AppleWebKit/537.36 (KHTML, like Gecko) Chrome/86.0.4240.111 Safari/537.36",73,"[0.9, 0.5, 0.1]","[0.8, 0.4, 0.2]","[u'red', u'black', u'blue']","[u'left', u'middle', u'right']","[0.9, 0.5, 0.1]","[u'low', u'medium', u'high']","red",49,"left","low","False","False",317,4150,NA
"A7UAEO1A6LMXG","Tue Oct 27 2020 13:17:50 GMT-0400 (Eastern Daylight Time)","Tue Oct 27 2020 13:41:40 GMT-0400 (Eastern Daylight Time)","Mozilla/5.0 (Windows NT 10.0; WOW64) AppleWebKit/537.36 (KHTML, like Gecko) Chrome/86.0.4240.111 Safari/537.36",74,"[0.9, 0.5, 0.1]","[0.8, 0.4, 0.2]","[u'red', u'black', u'blue']","[u'left', u'middle', u'right']","[0.9, 0.5, 0.1]","[u'low', u'medium', u'high']","blue",51,"right","high","False","False",326,4100,NA
"A7UAEO1A6LMXG","Tue Oct 27 2020 13:17:50 GMT-0400 (Eastern Daylight Time)","Tue Oct 27 2020 13:41:40 GMT-0400 (Eastern Daylight Time)","Mozilla/5.0 (Windows NT 10.0; WOW64) AppleWebKit/537.36 (KHTML, like Gecko) Chrome/86.0.4240.111 Safari/537.36",75,"[0.9, 0.5, 0.1]","[0.8, 0.4, 0.2]","[u'red', u'black', u'blue']","[u'left', u'middle', u'right']","[0.9, 0.5, 0.1]","[u'low', u'medium', u'high']","black",50,"middle","medium","True","False",389,4200,NA
"A7UAEO1A6LMXG","Tue Oct 27 2020 13:17:50 GMT-0400 (Eastern Daylight Time)","Tue Oct 27 2020 13:41:40 GMT-0400 (Eastern Daylight Time)","Mozilla/5.0 (Windows NT 10.0; WOW64) AppleWebKit/537.36 (KHTML, like Gecko) Chrome/86.0.4240.111 Safari/537.36",76,"[0.9, 0.5, 0.1]","[0.8, 0.4, 0.2]","[u'red', u'black', u'blue']","[u'left', u'middle', u'right']","[0.9, 0.5, 0.1]","[u'low', u'medium', u'high']","black",50,"middle","medium","False","False",2215,4150,NA
"A7UAEO1A6LMXG","Tue Oct 27 2020 13:17:50 GMT-0400 (Eastern Daylight Time)","Tue Oct 27 2020 13:41:40 GMT-0400 (Eastern Daylight Time)","Mozilla/5.0 (Windows NT 10.0; WOW64) AppleWebKit/537.36 (KHTML, like Gecko) Chrome/86.0.4240.111 Safari/537.36",77,"[0.9, 0.5, 0.1]","[0.8, 0.4, 0.2]","[u'red', u'black', u'blue']","[u'left', u'middle', u'right']","[0.9, 0.5, 0.1]","[u'low', u'medium', u'high']","black",50,"middle","medium","False","False",442,4100,NA
"A7UAEO1A6LMXG","Tue Oct 27 2020 13:17:50 GMT-0400 (Eastern Daylight Time)","Tue Oct 27 2020 13:41:40 GMT-0400 (Eastern Daylight Time)","Mozilla/5.0 (Windows NT 10.0; WOW64) AppleWebKit/537.36 (KHTML, like Gecko) Chrome/86.0.4240.111 Safari/537.36",78,"[0.9, 0.5, 0.1]","[0.8, 0.4, 0.2]","[u'red', u'black', u'blue']","[u'left', u'middle', u'right']","[0.9, 0.5, 0.1]","[u'low', u'medium', u'high']","blue",51,"right","high","True","False",371,4200,NA
"A7UAEO1A6LMXG","Tue Oct 27 2020 13:17:50 GMT-0400 (Eastern Daylight Time)","Tue Oct 27 2020 13:41:40 GMT-0400 (Eastern Daylight Time)","Mozilla/5.0 (Windows NT 10.0; WOW64) AppleWebKit/537.36 (KHTML, like Gecko) Chrome/86.0.4240.111 Safari/537.36",79,"[0.9, 0.5, 0.1]","[0.8, 0.4, 0.2]","[u'red', u'black', u'blue']","[u'left', u'middle', u'right']","[0.9, 0.5, 0.1]","[u'low', u'medium', u'high']","blue",51,"right","high","True","False",1040,4300,NA
"A7UAEO1A6LMXG","Tue Oct 27 2020 13:17:50 GMT-0400 (Eastern Daylight Time)","Tue Oct 27 2020 13:41:40 GMT-0400 (Eastern Daylight Time)","Mozilla/5.0 (Windows NT 10.0; WOW64) AppleWebKit/537.36 (KHTML, like Gecko) Chrome/86.0.4240.111 Safari/537.36",80,"[0.9, 0.5, 0.1]","[0.8, 0.4, 0.2]","[u'red', u'black', u'blue']","[u'left', u'middle', u'right']","[0.9, 0.5, 0.1]","[u'low', u'medium', u'high']","blue",51,"right","high","True","False",738,4400,NA
"A7UAEO1A6LMXG","Tue Oct 27 2020 13:17:50 GMT-0400 (Eastern Daylight Time)","Tue Oct 27 2020 13:41:40 GMT-0400 (Eastern Daylight Time)","Mozilla/5.0 (Windows NT 10.0; WOW64) AppleWebKit/537.36 (KHTML, like Gecko) Chrome/86.0.4240.111 Safari/537.36",81,"[0.9, 0.5, 0.1]","[0.8, 0.4, 0.2]","[u'red', u'black', u'blue']","[u'left', u'middle', u'right']","[0.8, 0.4, 0.2]","[u'high', u'medium', u'low']","blue",51,"right","low","False","False",347,4350,NA
"A7UAEO1A6LMXG","Tue Oct 27 2020 13:17:50 GMT-0400 (Eastern Daylight Time)","Tue Oct 27 2020 13:41:40 GMT-0400 (Eastern Daylight Time)","Mozilla/5.0 (Windows NT 10.0; WOW64) AppleWebKit/537.36 (KHTML, like Gecko) Chrome/86.0.4240.111 Safari/537.36",82,"[0.9, 0.5, 0.1]","[0.8, 0.4, 0.2]","[u'red', u'black', u'blue']","[u'left', u'middle', u'right']","[0.8, 0.4, 0.2]","[u'high', u'medium', u'low']","black",50,"middle","medium","True","False",352,4450,NA
"A7UAEO1A6LMXG","Tue Oct 27 2020 13:17:50 GMT-0400 (Eastern Daylight Time)","Tue Oct 27 2020 13:41:40 GMT-0400 (Eastern Daylight Time)","Mozilla/5.0 (Windows NT 10.0; WOW64) AppleWebKit/537.36 (KHTML, like Gecko) Chrome/86.0.4240.111 Safari/537.36",83,"[0.9, 0.5, 0.1]","[0.8, 0.4, 0.2]","[u'red', u'black', u'blue']","[u'left', u'middle', u'right']","[0.8, 0.4, 0.2]","[u'high', u'medium', u'low']","black",50,"middle","medium","True","False",76,4550,NA
"A7UAEO1A6LMXG","Tue Oct 27 2020 13:17:50 GMT-0400 (Eastern Daylight Time)","Tue Oct 27 2020 13:41:40 GMT-0400 (Eastern Daylight Time)","Mozilla/5.0 (Windows NT 10.0; WOW64) AppleWebKit/537.36 (KHTML, like Gecko) Chrome/86.0.4240.111 Safari/537.36",84,"[0.9, 0.5, 0.1]","[0.8, 0.4, 0.2]","[u'red', u'black', u'blue']","[u'left', u'middle', u'right']","[0.8, 0.4, 0.2]","[u'high', u'medium', u'low']","black",50,"middle","medium","True","False",258,4650,NA
"A7UAEO1A6LMXG","Tue Oct 27 2020 13:17:50 GMT-0400 (Eastern Daylight Time)","Tue Oct 27 2020 13:41:40 GMT-0400 (Eastern Daylight Time)","Mozilla/5.0 (Windows NT 10.0; WOW64) AppleWebKit/537.36 (KHTML, like Gecko) Chrome/86.0.4240.111 Safari/537.36",85,"[0.9, 0.5, 0.1]","[0.8, 0.4, 0.2]","[u'red', u'black', u'blue']","[u'left', u'middle', u'right']","[0.8, 0.4, 0.2]","[u'high', u'medium', u'low']","black",50,"middle","medium","False","False",214,4600,NA
"A7UAEO1A6LMXG","Tue Oct 27 2020 13:17:50 GMT-0400 (Eastern Daylight Time)","Tue Oct 27 2020 13:41:40 GMT-0400 (Eastern Daylight Time)","Mozilla/5.0 (Windows NT 10.0; WOW64) AppleWebKit/537.36 (KHTML, like Gecko) Chrome/86.0.4240.111 Safari/537.36",86,"[0.9, 0.5, 0.1]","[0.8, 0.4, 0.2]","[u'red', u'black', u'blue']","[u'left', u'middle', u'right']","[0.8, 0.4, 0.2]","[u'high', u'medium', u'low']","red",49,"left","high","True","False",12,4700,NA
"A7UAEO1A6LMXG","Tue Oct 27 2020 13:17:50 GMT-0400 (Eastern Daylight Time)","Tue Oct 27 2020 13:41:40 GMT-0400 (Eastern Daylight Time)","Mozilla/5.0 (Windows NT 10.0; WOW64) AppleWebKit/537.36 (KHTML, like Gecko) Chrome/86.0.4240.111 Safari/537.36",87,"[0.9, 0.5, 0.1]","[0.8, 0.4, 0.2]","[u'red', u'black', u'blue']","[u'left', u'middle', u'right']","[0.8, 0.4, 0.2]","[u'high', u'medium', u'low']","red",49,"left","high","False","False",248,4650,NA
"A7UAEO1A6LMXG","Tue Oct 27 2020 13:17:50 GMT-0400 (Eastern Daylight Time)","Tue Oct 27 2020 13:41:40 GMT-0400 (Eastern Daylight Time)","Mozilla/5.0 (Windows NT 10.0; WOW64) AppleWebKit/537.36 (KHTML, like Gecko) Chrome/86.0.4240.111 Safari/537.36",88,"[0.9, 0.5, 0.1]","[0.8, 0.4, 0.2]","[u'red', u'black', u'blue']","[u'left', u'middle', u'right']","[0.8, 0.4, 0.2]","[u'high', u'medium', u'low']","black",50,"middle","medium","True","False",378,4750,NA
"A7UAEO1A6LMXG","Tue Oct 27 2020 13:17:50 GMT-0400 (Eastern Daylight Time)","Tue Oct 27 2020 13:41:40 GMT-0400 (Eastern Daylight Time)","Mozilla/5.0 (Windows NT 10.0; WOW64) AppleWebKit/537.36 (KHTML, like Gecko) Chrome/86.0.4240.111 Safari/537.36",89,"[0.9, 0.5, 0.1]","[0.8, 0.4, 0.2]","[u'red', u'black', u'blue']","[u'left', u'middle', u'right']","[0.8, 0.4, 0.2]","[u'high', u'medium', u'low']","black",50,"middle","medium","False","False",24,4700,NA
"A7UAEO1A6LMXG","Tue Oct 27 2020 13:17:50 GMT-0400 (Eastern Daylight Time)","Tue Oct 27 2020 13:41:40 GMT-0400 (Eastern Daylight Time)","Mozilla/5.0 (Windows NT 10.0; WOW64) AppleWebKit/537.36 (KHTML, like Gecko) Chrome/86.0.4240.111 Safari/537.36",90,"[0.9, 0.5, 0.1]","[0.8, 0.4, 0.2]","[u'red', u'black', u'blue']","[u'left', u'middle', u'right']","[0.8, 0.4, 0.2]","[u'high', u'medium', u'low']","blue",51,"right","low","True","False",328,4800,NA
"A7UAEO1A6LMXG","Tue Oct 27 2020 13:17:50 GMT-0400 (Eastern Daylight Time)","Tue Oct 27 2020 13:41:40 GMT-0400 (Eastern Daylight Time)","Mozilla/5.0 (Windows NT 10.0; WOW64) AppleWebKit/537.36 (KHTML, like Gecko) Chrome/86.0.4240.111 Safari/537.36",91,"[0.9, 0.5, 0.1]","[0.8, 0.4, 0.2]","[u'red', u'black', u'blue']","[u'left', u'middle', u'right']","[0.8, 0.4, 0.2]","[u'high', u'medium', u'low']","black",50,"middle","medium","False","False",70,4750,NA
"A7UAEO1A6LMXG","Tue Oct 27 2020 13:17:50 GMT-0400 (Eastern Daylight Time)","Tue Oct 27 2020 13:41:40 GMT-0400 (Eastern Daylight Time)","Mozilla/5.0 (Windows NT 10.0; WOW64) AppleWebKit/537.36 (KHTML, like Gecko) Chrome/86.0.4240.111 Safari/537.36",92,"[0.9, 0.5, 0.1]","[0.8, 0.4, 0.2]","[u'red', u'black', u'blue']","[u'left', u'middle', u'right']","[0.8, 0.4, 0.2]","[u'high', u'medium', u'low']","red",49,"left","high","True","False",168,4850,NA
"A7UAEO1A6LMXG","Tue Oct 27 2020 13:17:50 GMT-0400 (Eastern Daylight Time)","Tue Oct 27 2020 13:41:40 GMT-0400 (Eastern Daylight Time)","Mozilla/5.0 (Windows NT 10.0; WOW64) AppleWebKit/537.36 (KHTML, like Gecko) Chrome/86.0.4240.111 Safari/537.36",93,"[0.9, 0.5, 0.1]","[0.8, 0.4, 0.2]","[u'red', u'black', u'blue']","[u'left', u'middle', u'right']","[0.8, 0.4, 0.2]","[u'high', u'medium', u'low']","blue",51,"right","low","False","False",139,4800,NA
"A7UAEO1A6LMXG","Tue Oct 27 2020 13:17:50 GMT-0400 (Eastern Daylight Time)","Tue Oct 27 2020 13:41:40 GMT-0400 (Eastern Daylight Time)","Mozilla/5.0 (Windows NT 10.0; WOW64) AppleWebKit/537.36 (KHTML, like Gecko) Chrome/86.0.4240.111 Safari/537.36",94,"[0.9, 0.5, 0.1]","[0.8, 0.4, 0.2]","[u'red', u'black', u'blue']","[u'left', u'middle', u'right']","[0.8, 0.4, 0.2]","[u'high', u'medium', u'low']","blue",51,"right","low","True","False",36,4900,NA
"A7UAEO1A6LMXG","Tue Oct 27 2020 13:17:50 GMT-0400 (Eastern Daylight Time)","Tue Oct 27 2020 13:41:40 GMT-0400 (Eastern Daylight Time)","Mozilla/5.0 (Windows NT 10.0; WOW64) AppleWebKit/537.36 (KHTML, like Gecko) Chrome/86.0.4240.111 Safari/537.36",95,"[0.9, 0.5, 0.1]","[0.8, 0.4, 0.2]","[u'red', u'black', u'blue']","[u'left', u'middle', u'right']","[0.8, 0.4, 0.2]","[u'high', u'medium', u'low']","black",50,"middle","medium","False","False",312,4850,NA
"A7UAEO1A6LMXG","Tue Oct 27 2020 13:17:50 GMT-0400 (Eastern Daylight Time)","Tue Oct 27 2020 13:41:40 GMT-0400 (Eastern Daylight Time)","Mozilla/5.0 (Windows NT 10.0; WOW64) AppleWebKit/537.36 (KHTML, like Gecko) Chrome/86.0.4240.111 Safari/537.36",96,"[0.9, 0.5, 0.1]","[0.8, 0.4, 0.2]","[u'red', u'black', u'blue']","[u'left', u'middle', u'right']","[0.8, 0.4, 0.2]","[u'high', u'medium', u'low']","red",49,"left","high","True","False",531,4950,NA
"A7UAEO1A6LMXG","Tue Oct 27 2020 13:17:50 GMT-0400 (Eastern Daylight Time)","Tue Oct 27 2020 13:41:40 GMT-0400 (Eastern Daylight Time)","Mozilla/5.0 (Windows NT 10.0; WOW64) AppleWebKit/537.36 (KHTML, like Gecko) Chrome/86.0.4240.111 Safari/537.36",97,"[0.9, 0.5, 0.1]","[0.8, 0.4, 0.2]","[u'red', u'black', u'blue']","[u'left', u'middle', u'right']","[0.8, 0.4, 0.2]","[u'high', u'medium', u'low']","red",49,"left","high","True","False",211,5050,NA
"A7UAEO1A6LMXG","Tue Oct 27 2020 13:17:50 GMT-0400 (Eastern Daylight Time)","Tue Oct 27 2020 13:41:40 GMT-0400 (Eastern Daylight Time)","Mozilla/5.0 (Windows NT 10.0; WOW64) AppleWebKit/537.36 (KHTML, like Gecko) Chrome/86.0.4240.111 Safari/537.36",98,"[0.9, 0.5, 0.1]","[0.8, 0.4, 0.2]","[u'red', u'black', u'blue']","[u'left', u'middle', u'right']","[0.8, 0.4, 0.2]","[u'high', u'medium', u'low']","black",50,"middle","medium","False","False",101,5000,NA
"A7UAEO1A6LMXG","Tue Oct 27 2020 13:17:50 GMT-0400 (Eastern Daylight Time)","Tue Oct 27 2020 13:41:40 GMT-0400 (Eastern Daylight Time)","Mozilla/5.0 (Windows NT 10.0; WOW64) AppleWebKit/537.36 (KHTML, like Gecko) Chrome/86.0.4240.111 Safari/537.36",99,"[0.9, 0.5, 0.1]","[0.8, 0.4, 0.2]","[u'red', u'black', u'blue']","[u'left', u'middle', u'right']","[0.8, 0.4, 0.2]","[u'high', u'medium', u'low']","blue",51,"right","low","False","False",9,4950,NA
"A7UAEO1A6LMXG","Tue Oct 27 2020 13:17:50 GMT-0400 (Eastern Daylight Time)","Tue Oct 27 2020 13:41:40 GMT-0400 (Eastern Daylight Time)","Mozilla/5.0 (Windows NT 10.0; WOW64) AppleWebKit/537.36 (KHTML, like Gecko) Chrome/86.0.4240.111 Safari/537.36",100,"[0.9, 0.5, 0.1]","[0.8, 0.4, 0.2]","[u'red', u'black', u'blue']","[u'left', u'middle', u'right']","[0.8, 0.4, 0.2]","[u'high', u'medium', u'low']","black",50,"middle","medium","True","False",373,5050,NA
"A7UAEO1A6LMXG","Tue Oct 27 2020 13:17:50 GMT-0400 (Eastern Daylight Time)","Tue Oct 27 2020 13:41:40 GMT-0400 (Eastern Daylight Time)","Mozilla/5.0 (Windows NT 10.0; WOW64) AppleWebKit/537.36 (KHTML, like Gecko) Chrome/86.0.4240.111 Safari/537.36",101,"[0.9, 0.5, 0.1]","[0.8, 0.4, 0.2]","[u'red', u'black', u'blue']","[u'left', u'middle', u'right']","[0.8, 0.4, 0.2]","[u'high', u'medium', u'low']","red",49,"left","high","False","False",347,5000,NA
"A7UAEO1A6LMXG","Tue Oct 27 2020 13:17:50 GMT-0400 (Eastern Daylight Time)","Tue Oct 27 2020 13:41:40 GMT-0400 (Eastern Daylight Time)","Mozilla/5.0 (Windows NT 10.0; WOW64) AppleWebKit/537.36 (KHTML, like Gecko) Chrome/86.0.4240.111 Safari/537.36",102,"[0.9, 0.5, 0.1]","[0.8, 0.4, 0.2]","[u'red', u'black', u'blue']","[u'left', u'middle', u'right']","[0.8, 0.4, 0.2]","[u'high', u'medium', u'low']","black",50,"middle","medium","True","False",75,5100,NA
"A7UAEO1A6LMXG","Tue Oct 27 2020 13:17:50 GMT-0400 (Eastern Daylight Time)","Tue Oct 27 2020 13:41:40 GMT-0400 (Eastern Daylight Time)","Mozilla/5.0 (Windows NT 10.0; WOW64) AppleWebKit/537.36 (KHTML, like Gecko) Chrome/86.0.4240.111 Safari/537.36",103,"[0.9, 0.5, 0.1]","[0.8, 0.4, 0.2]","[u'red', u'black', u'blue']","[u'left', u'middle', u'right']","[0.8, 0.4, 0.2]","[u'high', u'medium', u'low']","black",50,"middle","medium","True","False",327,5200,NA
"A7UAEO1A6LMXG","Tue Oct 27 2020 13:17:50 GMT-0400 (Eastern Daylight Time)","Tue Oct 27 2020 13:41:40 GMT-0400 (Eastern Daylight Time)","Mozilla/5.0 (Windows NT 10.0; WOW64) AppleWebKit/537.36 (KHTML, like Gecko) Chrome/86.0.4240.111 Safari/537.36",104,"[0.9, 0.5, 0.1]","[0.8, 0.4, 0.2]","[u'red', u'black', u'blue']","[u'left', u'middle', u'right']","[0.8, 0.4, 0.2]","[u'high', u'medium', u'low']","blue",51,"right","low","False","False",215,5150,NA
"A7UAEO1A6LMXG","Tue Oct 27 2020 13:17:50 GMT-0400 (Eastern Daylight Time)","Tue Oct 27 2020 13:41:40 GMT-0400 (Eastern Daylight Time)","Mozilla/5.0 (Windows NT 10.0; WOW64) AppleWebKit/537.36 (KHTML, like Gecko) Chrome/86.0.4240.111 Safari/537.36",105,"[0.9, 0.5, 0.1]","[0.8, 0.4, 0.2]","[u'red', u'black', u'blue']","[u'left', u'middle', u'right']","[0.8, 0.4, 0.2]","[u'high', u'medium', u'low']","blue",51,"right","low","False","False",516,5100,NA
"A7UAEO1A6LMXG","Tue Oct 27 2020 13:17:50 GMT-0400 (Eastern Daylight Time)","Tue Oct 27 2020 13:41:40 GMT-0400 (Eastern Daylight Time)","Mozilla/5.0 (Windows NT 10.0; WOW64) AppleWebKit/537.36 (KHTML, like Gecko) Chrome/86.0.4240.111 Safari/537.36",106,"[0.9, 0.5, 0.1]","[0.8, 0.4, 0.2]","[u'red', u'black', u'blue']","[u'left', u'middle', u'right']","[0.8, 0.4, 0.2]","[u'high', u'medium', u'low']","black",50,"middle","medium","False","False",143,5050,NA
"A7UAEO1A6LMXG","Tue Oct 27 2020 13:17:50 GMT-0400 (Eastern Daylight Time)","Tue Oct 27 2020 13:41:40 GMT-0400 (Eastern Daylight Time)","Mozilla/5.0 (Windows NT 10.0; WOW64) AppleWebKit/537.36 (KHTML, like Gecko) Chrome/86.0.4240.111 Safari/537.36",107,"[0.9, 0.5, 0.1]","[0.8, 0.4, 0.2]","[u'red', u'black', u'blue']","[u'left', u'middle', u'right']","[0.8, 0.4, 0.2]","[u'high', u'medium', u'low']","black",50,"middle","medium","False","False",223,5000,NA
"A7UAEO1A6LMXG","Tue Oct 27 2020 13:17:50 GMT-0400 (Eastern Daylight Time)","Tue Oct 27 2020 13:41:40 GMT-0400 (Eastern Daylight Time)","Mozilla/5.0 (Windows NT 10.0; WOW64) AppleWebKit/537.36 (KHTML, like Gecko) Chrome/86.0.4240.111 Safari/537.36",108,"[0.9, 0.5, 0.1]","[0.8, 0.4, 0.2]","[u'red', u'black', u'blue']","[u'left', u'middle', u'right']","[0.8, 0.4, 0.2]","[u'high', u'medium', u'low']","red",49,"left","high","True","False",323,5100,NA
"A7UAEO1A6LMXG","Tue Oct 27 2020 13:17:50 GMT-0400 (Eastern Daylight Time)","Tue Oct 27 2020 13:41:40 GMT-0400 (Eastern Daylight Time)","Mozilla/5.0 (Windows NT 10.0; WOW64) AppleWebKit/537.36 (KHTML, like Gecko) Chrome/86.0.4240.111 Safari/537.36",109,"[0.9, 0.5, 0.1]","[0.8, 0.4, 0.2]","[u'red', u'black', u'blue']","[u'left', u'middle', u'right']","[0.8, 0.4, 0.2]","[u'high', u'medium', u'low']","red",49,"left","high","False","False",125,5050,NA
"A7UAEO1A6LMXG","Tue Oct 27 2020 13:17:50 GMT-0400 (Eastern Daylight Time)","Tue Oct 27 2020 13:41:40 GMT-0400 (Eastern Daylight Time)","Mozilla/5.0 (Windows NT 10.0; WOW64) AppleWebKit/537.36 (KHTML, like Gecko) Chrome/86.0.4240.111 Safari/537.36",110,"[0.9, 0.5, 0.1]","[0.8, 0.4, 0.2]","[u'red', u'black', u'blue']","[u'left', u'middle', u'right']","[0.8, 0.4, 0.2]","[u'high', u'medium', u'low']","red",49,"left","high","True","False",684,5150,NA
"A7UAEO1A6LMXG","Tue Oct 27 2020 13:17:50 GMT-0400 (Eastern Daylight Time)","Tue Oct 27 2020 13:41:40 GMT-0400 (Eastern Daylight Time)","Mozilla/5.0 (Windows NT 10.0; WOW64) AppleWebKit/537.36 (KHTML, like Gecko) Chrome/86.0.4240.111 Safari/537.36",111,"[0.9, 0.5, 0.1]","[0.8, 0.4, 0.2]","[u'red', u'black', u'blue']","[u'left', u'middle', u'right']","[0.8, 0.4, 0.2]","[u'high', u'medium', u'low']","black",50,"middle","medium","False","False",427,5100,NA
"A7UAEO1A6LMXG","Tue Oct 27 2020 13:17:50 GMT-0400 (Eastern Daylight Time)","Tue Oct 27 2020 13:41:40 GMT-0400 (Eastern Daylight Time)","Mozilla/5.0 (Windows NT 10.0; WOW64) AppleWebKit/537.36 (KHTML, like Gecko) Chrome/86.0.4240.111 Safari/537.36",112,"[0.9, 0.5, 0.1]","[0.8, 0.4, 0.2]","[u'red', u'black', u'blue']","[u'left', u'middle', u'right']","[0.8, 0.4, 0.2]","[u'high', u'medium', u'low']","blue",51,"right","low","False","False",193,5050,NA
"A7UAEO1A6LMXG","Tue Oct 27 2020 13:17:50 GMT-0400 (Eastern Daylight Time)","Tue Oct 27 2020 13:41:40 GMT-0400 (Eastern Daylight Time)","Mozilla/5.0 (Windows NT 10.0; WOW64) AppleWebKit/537.36 (KHTML, like Gecko) Chrome/86.0.4240.111 Safari/537.36",113,"[0.9, 0.5, 0.1]","[0.8, 0.4, 0.2]","[u'red', u'black', u'blue']","[u'left', u'middle', u'right']","[0.8, 0.4, 0.2]","[u'high', u'medium', u'low']","blue",51,"right","low","True","False",34,5150,NA
"A7UAEO1A6LMXG","Tue Oct 27 2020 13:17:50 GMT-0400 (Eastern Daylight Time)","Tue Oct 27 2020 13:41:40 GMT-0400 (Eastern Daylight Time)","Mozilla/5.0 (Windows NT 10.0; WOW64) AppleWebKit/537.36 (KHTML, like Gecko) Chrome/86.0.4240.111 Safari/537.36",114,"[0.9, 0.5, 0.1]","[0.8, 0.4, 0.2]","[u'red', u'black', u'blue']","[u'left', u'middle', u'right']","[0.8, 0.4, 0.2]","[u'high', u'medium', u'low']","black",50,"middle","medium","False","False",328,5100,NA
"A7UAEO1A6LMXG","Tue Oct 27 2020 13:17:50 GMT-0400 (Eastern Daylight Time)","Tue Oct 27 2020 13:41:40 GMT-0400 (Eastern Daylight Time)","Mozilla/5.0 (Windows NT 10.0; WOW64) AppleWebKit/537.36 (KHTML, like Gecko) Chrome/86.0.4240.111 Safari/537.36",115,"[0.9, 0.5, 0.1]","[0.8, 0.4, 0.2]","[u'red', u'black', u'blue']","[u'left', u'middle', u'right']","[0.8, 0.4, 0.2]","[u'high', u'medium', u'low']","blue",51,"right","low","False","False",36,5050,NA
"A7UAEO1A6LMXG","Tue Oct 27 2020 13:17:50 GMT-0400 (Eastern Daylight Time)","Tue Oct 27 2020 13:41:40 GMT-0400 (Eastern Daylight Time)","Mozilla/5.0 (Windows NT 10.0; WOW64) AppleWebKit/537.36 (KHTML, like Gecko) Chrome/86.0.4240.111 Safari/537.36",116,"[0.9, 0.5, 0.1]","[0.8, 0.4, 0.2]","[u'red', u'black', u'blue']","[u'left', u'middle', u'right']","[0.8, 0.4, 0.2]","[u'high', u'medium', u'low']","black",50,"middle","medium","True","False",45,5150,NA
"A7UAEO1A6LMXG","Tue Oct 27 2020 13:17:50 GMT-0400 (Eastern Daylight Time)","Tue Oct 27 2020 13:41:40 GMT-0400 (Eastern Daylight Time)","Mozilla/5.0 (Windows NT 10.0; WOW64) AppleWebKit/537.36 (KHTML, like Gecko) Chrome/86.0.4240.111 Safari/537.36",117,"[0.9, 0.5, 0.1]","[0.8, 0.4, 0.2]","[u'red', u'black', u'blue']","[u'left', u'middle', u'right']","[0.8, 0.4, 0.2]","[u'high', u'medium', u'low']","black",50,"middle","medium","False","False",111,5100,NA
"A7UAEO1A6LMXG","Tue Oct 27 2020 13:17:50 GMT-0400 (Eastern Daylight Time)","Tue Oct 27 2020 13:41:40 GMT-0400 (Eastern Daylight Time)","Mozilla/5.0 (Windows NT 10.0; WOW64) AppleWebKit/537.36 (KHTML, like Gecko) Chrome/86.0.4240.111 Safari/537.36",118,"[0.9, 0.5, 0.1]","[0.8, 0.4, 0.2]","[u'red', u'black', u'blue']","[u'left', u'middle', u'right']","[0.8, 0.4, 0.2]","[u'high', u'medium', u'low']","red",49,"left","high","True","False",321,5200,NA
"A7UAEO1A6LMXG","Tue Oct 27 2020 13:17:50 GMT-0400 (Eastern Daylight Time)","Tue Oct 27 2020 13:41:40 GMT-0400 (Eastern Daylight Time)","Mozilla/5.0 (Windows NT 10.0; WOW64) AppleWebKit/537.36 (KHTML, like Gecko) Chrome/86.0.4240.111 Safari/537.36",119,"[0.9, 0.5, 0.1]","[0.8, 0.4, 0.2]","[u'red', u'black', u'blue']","[u'left', u'middle', u'right']","[0.8, 0.4, 0.2]","[u'high', u'medium', u'low']","black",50,"middle","medium","True","False",332,5300,NA
"A7UAEO1A6LMXG","Tue Oct 27 2020 13:17:50 GMT-0400 (Eastern Daylight Time)","Tue Oct 27 2020 13:41:40 GMT-0400 (Eastern Daylight Time)","Mozilla/5.0 (Windows NT 10.0; WOW64) AppleWebKit/537.36 (KHTML, like Gecko) Chrome/86.0.4240.111 Safari/537.36",120,"[0.9, 0.5, 0.1]","[0.8, 0.4, 0.2]","[u'red', u'black', u'blue']","[u'left', u'middle', u'right']","[0.8, 0.4, 0.2]","[u'high', u'medium', u'low']","blue",51,"right","low","True","False",192,5400,NA
"A7UAEO1A6LMXG","Tue Oct 27 2020 13:17:50 GMT-0400 (Eastern Daylight Time)","Tue Oct 27 2020 13:41:40 GMT-0400 (Eastern Daylight Time)","Mozilla/5.0 (Windows NT 10.0; WOW64) AppleWebKit/537.36 (KHTML, like Gecko) Chrome/86.0.4240.111 Safari/537.36",121,"[0.9, 0.5, 0.1]","[0.8, 0.4, 0.2]","[u'red', u'black', u'blue']","[u'left', u'middle', u'right']","[0.8, 0.4, 0.2]","[u'medium', u'low', u'high']","red",49,"left","medium","False","False",540,5350,NA
"A7UAEO1A6LMXG","Tue Oct 27 2020 13:17:50 GMT-0400 (Eastern Daylight Time)","Tue Oct 27 2020 13:41:40 GMT-0400 (Eastern Daylight Time)","Mozilla/5.0 (Windows NT 10.0; WOW64) AppleWebKit/537.36 (KHTML, like Gecko) Chrome/86.0.4240.111 Safari/537.36",122,"[0.9, 0.5, 0.1]","[0.8, 0.4, 0.2]","[u'red', u'black', u'blue']","[u'left', u'middle', u'right']","[0.8, 0.4, 0.2]","[u'medium', u'low', u'high']","black",50,"middle","low","False","False",282,5300,NA
"A7UAEO1A6LMXG","Tue Oct 27 2020 13:17:50 GMT-0400 (Eastern Daylight Time)","Tue Oct 27 2020 13:41:40 GMT-0400 (Eastern Daylight Time)","Mozilla/5.0 (Windows NT 10.0; WOW64) AppleWebKit/537.36 (KHTML, like Gecko) Chrome/86.0.4240.111 Safari/537.36",123,"[0.9, 0.5, 0.1]","[0.8, 0.4, 0.2]","[u'red', u'black', u'blue']","[u'left', u'middle', u'right']","[0.8, 0.4, 0.2]","[u'medium', u'low', u'high']","blue",51,"right","high","False","False",510,5250,NA
"A7UAEO1A6LMXG","Tue Oct 27 2020 13:17:50 GMT-0400 (Eastern Daylight Time)","Tue Oct 27 2020 13:41:40 GMT-0400 (Eastern Daylight Time)","Mozilla/5.0 (Windows NT 10.0; WOW64) AppleWebKit/537.36 (KHTML, like Gecko) Chrome/86.0.4240.111 Safari/537.36",124,"[0.9, 0.5, 0.1]","[0.8, 0.4, 0.2]","[u'red', u'black', u'blue']","[u'left', u'middle', u'right']","[0.8, 0.4, 0.2]","[u'medium', u'low', u'high']","blue",51,"right","high","True","False",439,5350,NA
"A7UAEO1A6LMXG","Tue Oct 27 2020 13:17:50 GMT-0400 (Eastern Daylight Time)","Tue Oct 27 2020 13:41:40 GMT-0400 (Eastern Daylight Time)","Mozilla/5.0 (Windows NT 10.0; WOW64) AppleWebKit/537.36 (KHTML, like Gecko) Chrome/86.0.4240.111 Safari/537.36",125,"[0.9, 0.5, 0.1]","[0.8, 0.4, 0.2]","[u'red', u'black', u'blue']","[u'left', u'middle', u'right']","[0.8, 0.4, 0.2]","[u'medium', u'low', u'high']","blue",51,"right","high","True","False",93,5450,NA
"A7UAEO1A6LMXG","Tue Oct 27 2020 13:17:50 GMT-0400 (Eastern Daylight Time)","Tue Oct 27 2020 13:41:40 GMT-0400 (Eastern Daylight Time)","Mozilla/5.0 (Windows NT 10.0; WOW64) AppleWebKit/537.36 (KHTML, like Gecko) Chrome/86.0.4240.111 Safari/537.36",126,"[0.9, 0.5, 0.1]","[0.8, 0.4, 0.2]","[u'red', u'black', u'blue']","[u'left', u'middle', u'right']","[0.8, 0.4, 0.2]","[u'medium', u'low', u'high']","black",50,"middle","low","False","False",802,5400,NA
"A7UAEO1A6LMXG","Tue Oct 27 2020 13:17:50 GMT-0400 (Eastern Daylight Time)","Tue Oct 27 2020 13:41:40 GMT-0400 (Eastern Daylight Time)","Mozilla/5.0 (Windows NT 10.0; WOW64) AppleWebKit/537.36 (KHTML, like Gecko) Chrome/86.0.4240.111 Safari/537.36",127,"[0.9, 0.5, 0.1]","[0.8, 0.4, 0.2]","[u'red', u'black', u'blue']","[u'left', u'middle', u'right']","[0.8, 0.4, 0.2]","[u'medium', u'low', u'high']","black",50,"middle","low","False","False",1653,5350,NA
"A7UAEO1A6LMXG","Tue Oct 27 2020 13:17:50 GMT-0400 (Eastern Daylight Time)","Tue Oct 27 2020 13:41:40 GMT-0400 (Eastern Daylight Time)","Mozilla/5.0 (Windows NT 10.0; WOW64) AppleWebKit/537.36 (KHTML, like Gecko) Chrome/86.0.4240.111 Safari/537.36",128,"[0.9, 0.5, 0.1]","[0.8, 0.4, 0.2]","[u'red', u'black', u'blue']","[u'left', u'middle', u'right']","[0.8, 0.4, 0.2]","[u'medium', u'low', u'high']","blue",51,"right","high","True","False",359,5450,NA
"A7UAEO1A6LMXG","Tue Oct 27 2020 13:17:50 GMT-0400 (Eastern Daylight Time)","Tue Oct 27 2020 13:41:40 GMT-0400 (Eastern Daylight Time)","Mozilla/5.0 (Windows NT 10.0; WOW64) AppleWebKit/537.36 (KHTML, like Gecko) Chrome/86.0.4240.111 Safari/537.36",129,"[0.9, 0.5, 0.1]","[0.8, 0.4, 0.2]","[u'red', u'black', u'blue']","[u'left', u'middle', u'right']","[0.8, 0.4, 0.2]","[u'medium', u'low', u'high']","blue",51,"right","high","True","False",266,5550,NA
"A7UAEO1A6LMXG","Tue Oct 27 2020 13:17:50 GMT-0400 (Eastern Daylight Time)","Tue Oct 27 2020 13:41:40 GMT-0400 (Eastern Daylight Time)","Mozilla/5.0 (Windows NT 10.0; WOW64) AppleWebKit/537.36 (KHTML, like Gecko) Chrome/86.0.4240.111 Safari/537.36",130,"[0.9, 0.5, 0.1]","[0.8, 0.4, 0.2]","[u'red', u'black', u'blue']","[u'left', u'middle', u'right']","[0.8, 0.4, 0.2]","[u'medium', u'low', u'high']","blue",51,"right","high","True","False",346,5650,NA
"A7UAEO1A6LMXG","Tue Oct 27 2020 13:17:50 GMT-0400 (Eastern Daylight Time)","Tue Oct 27 2020 13:41:40 GMT-0400 (Eastern Daylight Time)","Mozilla/5.0 (Windows NT 10.0; WOW64) AppleWebKit/537.36 (KHTML, like Gecko) Chrome/86.0.4240.111 Safari/537.36",131,"[0.9, 0.5, 0.1]","[0.8, 0.4, 0.2]","[u'red', u'black', u'blue']","[u'left', u'middle', u'right']","[0.8, 0.4, 0.2]","[u'medium', u'low', u'high']","blue",51,"right","high","True","False",61,5750,NA
"A7UAEO1A6LMXG","Tue Oct 27 2020 13:17:50 GMT-0400 (Eastern Daylight Time)","Tue Oct 27 2020 13:41:40 GMT-0400 (Eastern Daylight Time)","Mozilla/5.0 (Windows NT 10.0; WOW64) AppleWebKit/537.36 (KHTML, like Gecko) Chrome/86.0.4240.111 Safari/537.36",132,"[0.9, 0.5, 0.1]","[0.8, 0.4, 0.2]","[u'red', u'black', u'blue']","[u'left', u'middle', u'right']","[0.8, 0.4, 0.2]","[u'medium', u'low', u'high']","blue",51,"right","high","False","False",390,5700,NA
"A7UAEO1A6LMXG","Tue Oct 27 2020 13:17:50 GMT-0400 (Eastern Daylight Time)","Tue Oct 27 2020 13:41:40 GMT-0400 (Eastern Daylight Time)","Mozilla/5.0 (Windows NT 10.0; WOW64) AppleWebKit/537.36 (KHTML, like Gecko) Chrome/86.0.4240.111 Safari/537.36",133,"[0.9, 0.5, 0.1]","[0.8, 0.4, 0.2]","[u'red', u'black', u'blue']","[u'left', u'middle', u'right']","[0.8, 0.4, 0.2]","[u'medium', u'low', u'high']","red",49,"left","medium","False","False",169,5650,NA
"A7UAEO1A6LMXG","Tue Oct 27 2020 13:17:50 GMT-0400 (Eastern Daylight Time)","Tue Oct 27 2020 13:41:40 GMT-0400 (Eastern Daylight Time)","Mozilla/5.0 (Windows NT 10.0; WOW64) AppleWebKit/537.36 (KHTML, like Gecko) Chrome/86.0.4240.111 Safari/537.36",134,"[0.9, 0.5, 0.1]","[0.8, 0.4, 0.2]","[u'red', u'black', u'blue']","[u'left', u'middle', u'right']","[0.8, 0.4, 0.2]","[u'medium', u'low', u'high']","black",50,"middle","low","False","False",179,5600,NA
"A7UAEO1A6LMXG","Tue Oct 27 2020 13:17:50 GMT-0400 (Eastern Daylight Time)","Tue Oct 27 2020 13:41:40 GMT-0400 (Eastern Daylight Time)","Mozilla/5.0 (Windows NT 10.0; WOW64) AppleWebKit/537.36 (KHTML, like Gecko) Chrome/86.0.4240.111 Safari/537.36",135,"[0.9, 0.5, 0.1]","[0.8, 0.4, 0.2]","[u'red', u'black', u'blue']","[u'left', u'middle', u'right']","[0.8, 0.4, 0.2]","[u'medium', u'low', u'high']","black",50,"middle","low","True","False",635,5700,NA
"A7UAEO1A6LMXG","Tue Oct 27 2020 13:17:50 GMT-0400 (Eastern Daylight Time)","Tue Oct 27 2020 13:41:40 GMT-0400 (Eastern Daylight Time)","Mozilla/5.0 (Windows NT 10.0; WOW64) AppleWebKit/537.36 (KHTML, like Gecko) Chrome/86.0.4240.111 Safari/537.36",136,"[0.9, 0.5, 0.1]","[0.8, 0.4, 0.2]","[u'red', u'black', u'blue']","[u'left', u'middle', u'right']","[0.8, 0.4, 0.2]","[u'medium', u'low', u'high']","black",50,"middle","low","False","False",218,5650,NA
"A7UAEO1A6LMXG","Tue Oct 27 2020 13:17:50 GMT-0400 (Eastern Daylight Time)","Tue Oct 27 2020 13:41:40 GMT-0400 (Eastern Daylight Time)","Mozilla/5.0 (Windows NT 10.0; WOW64) AppleWebKit/537.36 (KHTML, like Gecko) Chrome/86.0.4240.111 Safari/537.36",137,"[0.9, 0.5, 0.1]","[0.8, 0.4, 0.2]","[u'red', u'black', u'blue']","[u'left', u'middle', u'right']","[0.8, 0.4, 0.2]","[u'medium', u'low', u'high']","blue",51,"right","high","True","False",271,5750,NA
"A7UAEO1A6LMXG","Tue Oct 27 2020 13:17:50 GMT-0400 (Eastern Daylight Time)","Tue Oct 27 2020 13:41:40 GMT-0400 (Eastern Daylight Time)","Mozilla/5.0 (Windows NT 10.0; WOW64) AppleWebKit/537.36 (KHTML, like Gecko) Chrome/86.0.4240.111 Safari/537.36",138,"[0.9, 0.5, 0.1]","[0.8, 0.4, 0.2]","[u'red', u'black', u'blue']","[u'left', u'middle', u'right']","[0.8, 0.4, 0.2]","[u'medium', u'low', u'high']","blue",51,"right","high","True","False",408,5850,NA
"A7UAEO1A6LMXG","Tue Oct 27 2020 13:17:50 GMT-0400 (Eastern Daylight Time)","Tue Oct 27 2020 13:41:40 GMT-0400 (Eastern Daylight Time)","Mozilla/5.0 (Windows NT 10.0; WOW64) AppleWebKit/537.36 (KHTML, like Gecko) Chrome/86.0.4240.111 Safari/537.36",139,"[0.9, 0.5, 0.1]","[0.8, 0.4, 0.2]","[u'red', u'black', u'blue']","[u'left', u'middle', u'right']","[0.8, 0.4, 0.2]","[u'medium', u'low', u'high']","blue",51,"right","high","True","False",35,5950,NA
"A7UAEO1A6LMXG","Tue Oct 27 2020 13:17:50 GMT-0400 (Eastern Daylight Time)","Tue Oct 27 2020 13:41:40 GMT-0400 (Eastern Daylight Time)","Mozilla/5.0 (Windows NT 10.0; WOW64) AppleWebKit/537.36 (KHTML, like Gecko) Chrome/86.0.4240.111 Safari/537.36",140,"[0.9, 0.5, 0.1]","[0.8, 0.4, 0.2]","[u'red', u'black', u'blue']","[u'left', u'middle', u'right']","[0.8, 0.4, 0.2]","[u'medium', u'low', u'high']","blue",51,"right","high","True","False",120,6050,NA
"A7UAEO1A6LMXG","Tue Oct 27 2020 13:17:50 GMT-0400 (Eastern Daylight Time)","Tue Oct 27 2020 13:41:40 GMT-0400 (Eastern Daylight Time)","Mozilla/5.0 (Windows NT 10.0; WOW64) AppleWebKit/537.36 (KHTML, like Gecko) Chrome/86.0.4240.111 Safari/537.36",141,"[0.9, 0.5, 0.1]","[0.8, 0.4, 0.2]","[u'red', u'black', u'blue']","[u'left', u'middle', u'right']","[0.8, 0.4, 0.2]","[u'medium', u'low', u'high']","blue",51,"right","high","True","False",101,6150,NA
"A7UAEO1A6LMXG","Tue Oct 27 2020 13:17:50 GMT-0400 (Eastern Daylight Time)","Tue Oct 27 2020 13:41:40 GMT-0400 (Eastern Daylight Time)","Mozilla/5.0 (Windows NT 10.0; WOW64) AppleWebKit/537.36 (KHTML, like Gecko) Chrome/86.0.4240.111 Safari/537.36",142,"[0.9, 0.5, 0.1]","[0.8, 0.4, 0.2]","[u'red', u'black', u'blue']","[u'left', u'middle', u'right']","[0.8, 0.4, 0.2]","[u'medium', u'low', u'high']","blue",51,"right","high","True","False",79,6250,NA
"A7UAEO1A6LMXG","Tue Oct 27 2020 13:17:50 GMT-0400 (Eastern Daylight Time)","Tue Oct 27 2020 13:41:40 GMT-0400 (Eastern Daylight Time)","Mozilla/5.0 (Windows NT 10.0; WOW64) AppleWebKit/537.36 (KHTML, like Gecko) Chrome/86.0.4240.111 Safari/537.36",143,"[0.9, 0.5, 0.1]","[0.8, 0.4, 0.2]","[u'red', u'black', u'blue']","[u'left', u'middle', u'right']","[0.8, 0.4, 0.2]","[u'medium', u'low', u'high']","blue",51,"right","high","True","False",82,6350,NA
"A7UAEO1A6LMXG","Tue Oct 27 2020 13:17:50 GMT-0400 (Eastern Daylight Time)","Tue Oct 27 2020 13:41:40 GMT-0400 (Eastern Daylight Time)","Mozilla/5.0 (Windows NT 10.0; WOW64) AppleWebKit/537.36 (KHTML, like Gecko) Chrome/86.0.4240.111 Safari/537.36",144,"[0.9, 0.5, 0.1]","[0.8, 0.4, 0.2]","[u'red', u'black', u'blue']","[u'left', u'middle', u'right']","[0.8, 0.4, 0.2]","[u'medium', u'low', u'high']","blue",51,"right","high","True","False",126,6450,NA
"A7UAEO1A6LMXG","Tue Oct 27 2020 13:17:50 GMT-0400 (Eastern Daylight Time)","Tue Oct 27 2020 13:41:40 GMT-0400 (Eastern Daylight Time)","Mozilla/5.0 (Windows NT 10.0; WOW64) AppleWebKit/537.36 (KHTML, like Gecko) Chrome/86.0.4240.111 Safari/537.36",145,"[0.9, 0.5, 0.1]","[0.8, 0.4, 0.2]","[u'red', u'black', u'blue']","[u'left', u'middle', u'right']","[0.8, 0.4, 0.2]","[u'medium', u'low', u'high']","blue",51,"right","high","True","True",592,6550,NA
"A7UAEO1A6LMXG","Tue Oct 27 2020 13:17:50 GMT-0400 (Eastern Daylight Time)","Tue Oct 27 2020 13:41:40 GMT-0400 (Eastern Daylight Time)","Mozilla/5.0 (Windows NT 10.0; WOW64) AppleWebKit/537.36 (KHTML, like Gecko) Chrome/86.0.4240.111 Safari/537.36",146,"[0.9, 0.5, 0.1]","[0.8, 0.4, 0.2]","[u'red', u'black', u'blue']","[u'left', u'middle', u'right']","[0.8, 0.4, 0.2]","[u'high', u'low', u'medium']","black",50,"middle","low","False","False",960,6500,NA
"A7UAEO1A6LMXG","Tue Oct 27 2020 13:17:50 GMT-0400 (Eastern Daylight Time)","Tue Oct 27 2020 13:41:40 GMT-0400 (Eastern Daylight Time)","Mozilla/5.0 (Windows NT 10.0; WOW64) AppleWebKit/537.36 (KHTML, like Gecko) Chrome/86.0.4240.111 Safari/537.36",147,"[0.9, 0.5, 0.1]","[0.8, 0.4, 0.2]","[u'red', u'black', u'blue']","[u'left', u'middle', u'right']","[0.8, 0.4, 0.2]","[u'high', u'low', u'medium']","black",50,"middle","low","False","False",435,6450,NA
"A7UAEO1A6LMXG","Tue Oct 27 2020 13:17:50 GMT-0400 (Eastern Daylight Time)","Tue Oct 27 2020 13:41:40 GMT-0400 (Eastern Daylight Time)","Mozilla/5.0 (Windows NT 10.0; WOW64) AppleWebKit/537.36 (KHTML, like Gecko) Chrome/86.0.4240.111 Safari/537.36",148,"[0.9, 0.5, 0.1]","[0.8, 0.4, 0.2]","[u'red', u'black', u'blue']","[u'left', u'middle', u'right']","[0.8, 0.4, 0.2]","[u'high', u'low', u'medium']","black",50,"middle","low","False","False",84,6400,NA
"A7UAEO1A6LMXG","Tue Oct 27 2020 13:17:50 GMT-0400 (Eastern Daylight Time)","Tue Oct 27 2020 13:41:40 GMT-0400 (Eastern Daylight Time)","Mozilla/5.0 (Windows NT 10.0; WOW64) AppleWebKit/537.36 (KHTML, like Gecko) Chrome/86.0.4240.111 Safari/537.36",149,"[0.9, 0.5, 0.1]","[0.8, 0.4, 0.2]","[u'red', u'black', u'blue']","[u'left', u'middle', u'right']","[0.8, 0.4, 0.2]","[u'high', u'low', u'medium']","blue",51,"right","medium","False","False",1979,6350,NA
"A7UAEO1A6LMXG","Tue Oct 27 2020 13:17:50 GMT-0400 (Eastern Daylight Time)","Tue Oct 27 2020 13:41:40 GMT-0400 (Eastern Daylight Time)","Mozilla/5.0 (Windows NT 10.0; WOW64) AppleWebKit/537.36 (KHTML, like Gecko) Chrome/86.0.4240.111 Safari/537.36",150,"[0.9, 0.5, 0.1]","[0.8, 0.4, 0.2]","[u'red', u'black', u'blue']","[u'left', u'middle', u'right']","[0.8, 0.4, 0.2]","[u'high', u'low', u'medium']","black",50,"middle","low","False","False",446,6300,NA
"A7UAEO1A6LMXG","Tue Oct 27 2020 13:17:50 GMT-0400 (Eastern Daylight Time)","Tue Oct 27 2020 13:41:40 GMT-0400 (Eastern Daylight Time)","Mozilla/5.0 (Windows NT 10.0; WOW64) AppleWebKit/537.36 (KHTML, like Gecko) Chrome/86.0.4240.111 Safari/537.36",151,"[0.9, 0.5, 0.1]","[0.8, 0.4, 0.2]","[u'red', u'black', u'blue']","[u'left', u'middle', u'right']","[0.8, 0.4, 0.2]","[u'high', u'low', u'medium']","blue",51,"right","medium","False","False",382,6250,NA
"A7UAEO1A6LMXG","Tue Oct 27 2020 13:17:50 GMT-0400 (Eastern Daylight Time)","Tue Oct 27 2020 13:41:40 GMT-0400 (Eastern Daylight Time)","Mozilla/5.0 (Windows NT 10.0; WOW64) AppleWebKit/537.36 (KHTML, like Gecko) Chrome/86.0.4240.111 Safari/537.36",152,"[0.9, 0.5, 0.1]","[0.8, 0.4, 0.2]","[u'red', u'black', u'blue']","[u'left', u'middle', u'right']","[0.8, 0.4, 0.2]","[u'high', u'low', u'medium']","red",49,"left","high","False","False",159,6200,NA
"A7UAEO1A6LMXG","Tue Oct 27 2020 13:17:50 GMT-0400 (Eastern Daylight Time)","Tue Oct 27 2020 13:41:40 GMT-0400 (Eastern Daylight Time)","Mozilla/5.0 (Windows NT 10.0; WOW64) AppleWebKit/537.36 (KHTML, like Gecko) Chrome/86.0.4240.111 Safari/537.36",153,"[0.9, 0.5, 0.1]","[0.8, 0.4, 0.2]","[u'red', u'black', u'blue']","[u'left', u'middle', u'right']","[0.8, 0.4, 0.2]","[u'high', u'low', u'medium']","red",49,"left","high","False","False",297,6150,NA
"A7UAEO1A6LMXG","Tue Oct 27 2020 13:17:50 GMT-0400 (Eastern Daylight Time)","Tue Oct 27 2020 13:41:40 GMT-0400 (Eastern Daylight Time)","Mozilla/5.0 (Windows NT 10.0; WOW64) AppleWebKit/537.36 (KHTML, like Gecko) Chrome/86.0.4240.111 Safari/537.36",154,"[0.9, 0.5, 0.1]","[0.8, 0.4, 0.2]","[u'red', u'black', u'blue']","[u'left', u'middle', u'right']","[0.8, 0.4, 0.2]","[u'high', u'low', u'medium']","black",50,"middle","low","False","False",393,6100,NA
"A7UAEO1A6LMXG","Tue Oct 27 2020 13:17:50 GMT-0400 (Eastern Daylight Time)","Tue Oct 27 2020 13:41:40 GMT-0400 (Eastern Daylight Time)","Mozilla/5.0 (Windows NT 10.0; WOW64) AppleWebKit/537.36 (KHTML, like Gecko) Chrome/86.0.4240.111 Safari/537.36",155,"[0.9, 0.5, 0.1]","[0.8, 0.4, 0.2]","[u'red', u'black', u'blue']","[u'left', u'middle', u'right']","[0.8, 0.4, 0.2]","[u'high', u'low', u'medium']","blue",51,"right","medium","False","False",16,6050,NA
"A7UAEO1A6LMXG","Tue Oct 27 2020 13:17:50 GMT-0400 (Eastern Daylight Time)","Tue Oct 27 2020 13:41:40 GMT-0400 (Eastern Daylight Time)","Mozilla/5.0 (Windows NT 10.0; WOW64) AppleWebKit/537.36 (KHTML, like Gecko) Chrome/86.0.4240.111 Safari/537.36",156,"[0.9, 0.5, 0.1]","[0.8, 0.4, 0.2]","[u'red', u'black', u'blue']","[u'left', u'middle', u'right']","[0.8, 0.4, 0.2]","[u'high', u'low', u'medium']","blue",51,"right","medium","True","False",11,6150,NA
"A7UAEO1A6LMXG","Tue Oct 27 2020 13:17:50 GMT-0400 (Eastern Daylight Time)","Tue Oct 27 2020 13:41:40 GMT-0400 (Eastern Daylight Time)","Mozilla/5.0 (Windows NT 10.0; WOW64) AppleWebKit/537.36 (KHTML, like Gecko) Chrome/86.0.4240.111 Safari/537.36",157,"[0.9, 0.5, 0.1]","[0.8, 0.4, 0.2]","[u'red', u'black', u'blue']","[u'left', u'middle', u'right']","[0.8, 0.4, 0.2]","[u'high', u'low', u'medium']","blue",51,"right","medium","False","False",100,6100,NA
"A7UAEO1A6LMXG","Tue Oct 27 2020 13:17:50 GMT-0400 (Eastern Daylight Time)","Tue Oct 27 2020 13:41:40 GMT-0400 (Eastern Daylight Time)","Mozilla/5.0 (Windows NT 10.0; WOW64) AppleWebKit/537.36 (KHTML, like Gecko) Chrome/86.0.4240.111 Safari/537.36",158,"[0.9, 0.5, 0.1]","[0.8, 0.4, 0.2]","[u'red', u'black', u'blue']","[u'left', u'middle', u'right']","[0.8, 0.4, 0.2]","[u'high', u'low', u'medium']","black",50,"middle","low","True","False",75,6200,NA
"A7UAEO1A6LMXG","Tue Oct 27 2020 13:17:50 GMT-0400 (Eastern Daylight Time)","Tue Oct 27 2020 13:41:40 GMT-0400 (Eastern Daylight Time)","Mozilla/5.0 (Windows NT 10.0; WOW64) AppleWebKit/537.36 (KHTML, like Gecko) Chrome/86.0.4240.111 Safari/537.36",159,"[0.9, 0.5, 0.1]","[0.8, 0.4, 0.2]","[u'red', u'black', u'blue']","[u'left', u'middle', u'right']","[0.8, 0.4, 0.2]","[u'high', u'low', u'medium']","red",49,"left","high","False","False",349,6150,NA
"A7UAEO1A6LMXG","Tue Oct 27 2020 13:17:50 GMT-0400 (Eastern Daylight Time)","Tue Oct 27 2020 13:41:40 GMT-0400 (Eastern Daylight Time)","Mozilla/5.0 (Windows NT 10.0; WOW64) AppleWebKit/537.36 (KHTML, like Gecko) Chrome/86.0.4240.111 Safari/537.36",160,"[0.9, 0.5, 0.1]","[0.8, 0.4, 0.2]","[u'red', u'black', u'blue']","[u'left', u'middle', u'right']","[0.8, 0.4, 0.2]","[u'high', u'low', u'medium']","black",50,"middle","low","False","False",193,6100,NA
