"src_subject_id","start_time","end_time","browser","index","first_half_probabilities","second_half_probabilities","deck_color","deck_position","deck_probabilities","deck_contingencies","response_color","key_press","response_position","response_probability","reward_type","trial_type","rt","reward_tally","exclusion_reason"
"A3KC26Z78FBOJT","Wed Oct 28 2020 09:20:35 GMT-0500 (CDT)","Wed Oct 28 2020 09:28:24 GMT-0500 (CDT)","Mozilla/5.0 (Macintosh; Intel Mac OS X 10_9_5) AppleWebKit/537.36 (KHTML, like Gecko) Chrome/65.0.3325.181 Safari/537.36",1,"[0.9, 0.5, 0.1]","[0.8, 0.4, 0.2]","[u'black', u'blue', u'red']","[u'left', u'middle', u'right']","[0.9, 0.5, 0.1]","[u'low', u'medium', u'high']","black",49,"left","low","False","False",758,-50,NA
"A3KC26Z78FBOJT","Wed Oct 28 2020 09:20:35 GMT-0500 (CDT)","Wed Oct 28 2020 09:28:24 GMT-0500 (CDT)","Mozilla/5.0 (Macintosh; Intel Mac OS X 10_9_5) AppleWebKit/537.36 (KHTML, like Gecko) Chrome/65.0.3325.181 Safari/537.36",2,"[0.9, 0.5, 0.1]","[0.8, 0.4, 0.2]","[u'black', u'blue', u'red']","[u'left', u'middle', u'right']","[0.9, 0.5, 0.1]","[u'low', u'medium', u'high']","blue",50,"middle","medium","True","False",320,50,NA
"A3KC26Z78FBOJT","Wed Oct 28 2020 09:20:35 GMT-0500 (CDT)","Wed Oct 28 2020 09:28:24 GMT-0500 (CDT)","Mozilla/5.0 (Macintosh; Intel Mac OS X 10_9_5) AppleWebKit/537.36 (KHTML, like Gecko) Chrome/65.0.3325.181 Safari/537.36",3,"[0.9, 0.5, 0.1]","[0.8, 0.4, 0.2]","[u'black', u'blue', u'red']","[u'left', u'middle', u'right']","[0.9, 0.5, 0.1]","[u'low', u'medium', u'high']","red",51,"right","high","True","False",434,150,NA
"A3KC26Z78FBOJT","Wed Oct 28 2020 09:20:35 GMT-0500 (CDT)","Wed Oct 28 2020 09:28:24 GMT-0500 (CDT)","Mozilla/5.0 (Macintosh; Intel Mac OS X 10_9_5) AppleWebKit/537.36 (KHTML, like Gecko) Chrome/65.0.3325.181 Safari/537.36",4,"[0.9, 0.5, 0.1]","[0.8, 0.4, 0.2]","[u'black', u'blue', u'red']","[u'left', u'middle', u'right']","[0.9, 0.5, 0.1]","[u'low', u'medium', u'high']","blue",50,"middle","medium","False","False",410,100,NA
"A3KC26Z78FBOJT","Wed Oct 28 2020 09:20:35 GMT-0500 (CDT)","Wed Oct 28 2020 09:28:24 GMT-0500 (CDT)","Mozilla/5.0 (Macintosh; Intel Mac OS X 10_9_5) AppleWebKit/537.36 (KHTML, like Gecko) Chrome/65.0.3325.181 Safari/537.36",5,"[0.9, 0.5, 0.1]","[0.8, 0.4, 0.2]","[u'black', u'blue', u'red']","[u'left', u'middle', u'right']","[0.9, 0.5, 0.1]","[u'low', u'medium', u'high']","red",51,"right","high","True","False",220,200,NA
"A3KC26Z78FBOJT","Wed Oct 28 2020 09:20:35 GMT-0500 (CDT)","Wed Oct 28 2020 09:28:24 GMT-0500 (CDT)","Mozilla/5.0 (Macintosh; Intel Mac OS X 10_9_5) AppleWebKit/537.36 (KHTML, like Gecko) Chrome/65.0.3325.181 Safari/537.36",6,"[0.9, 0.5, 0.1]","[0.8, 0.4, 0.2]","[u'black', u'blue', u'red']","[u'left', u'middle', u'right']","[0.9, 0.5, 0.1]","[u'low', u'medium', u'high']","red",51,"right","high","True","False",267,300,NA
"A3KC26Z78FBOJT","Wed Oct 28 2020 09:20:35 GMT-0500 (CDT)","Wed Oct 28 2020 09:28:24 GMT-0500 (CDT)","Mozilla/5.0 (Macintosh; Intel Mac OS X 10_9_5) AppleWebKit/537.36 (KHTML, like Gecko) Chrome/65.0.3325.181 Safari/537.36",7,"[0.9, 0.5, 0.1]","[0.8, 0.4, 0.2]","[u'black', u'blue', u'red']","[u'left', u'middle', u'right']","[0.9, 0.5, 0.1]","[u'low', u'medium', u'high']","red",51,"right","high","True","False",243,400,NA
"A3KC26Z78FBOJT","Wed Oct 28 2020 09:20:35 GMT-0500 (CDT)","Wed Oct 28 2020 09:28:24 GMT-0500 (CDT)","Mozilla/5.0 (Macintosh; Intel Mac OS X 10_9_5) AppleWebKit/537.36 (KHTML, like Gecko) Chrome/65.0.3325.181 Safari/537.36",8,"[0.9, 0.5, 0.1]","[0.8, 0.4, 0.2]","[u'black', u'blue', u'red']","[u'left', u'middle', u'right']","[0.9, 0.5, 0.1]","[u'low', u'medium', u'high']","red",51,"right","high","True","False",287,500,NA
"A3KC26Z78FBOJT","Wed Oct 28 2020 09:20:35 GMT-0500 (CDT)","Wed Oct 28 2020 09:28:24 GMT-0500 (CDT)","Mozilla/5.0 (Macintosh; Intel Mac OS X 10_9_5) AppleWebKit/537.36 (KHTML, like Gecko) Chrome/65.0.3325.181 Safari/537.36",9,"[0.9, 0.5, 0.1]","[0.8, 0.4, 0.2]","[u'black', u'blue', u'red']","[u'left', u'middle', u'right']","[0.9, 0.5, 0.1]","[u'low', u'medium', u'high']","red",51,"right","high","True","False",232,600,NA
"A3KC26Z78FBOJT","Wed Oct 28 2020 09:20:35 GMT-0500 (CDT)","Wed Oct 28 2020 09:28:24 GMT-0500 (CDT)","Mozilla/5.0 (Macintosh; Intel Mac OS X 10_9_5) AppleWebKit/537.36 (KHTML, like Gecko) Chrome/65.0.3325.181 Safari/537.36",10,"[0.9, 0.5, 0.1]","[0.8, 0.4, 0.2]","[u'black', u'blue', u'red']","[u'left', u'middle', u'right']","[0.9, 0.5, 0.1]","[u'low', u'medium', u'high']","red",51,"right","high","True","False",254,700,NA
"A3KC26Z78FBOJT","Wed Oct 28 2020 09:20:35 GMT-0500 (CDT)","Wed Oct 28 2020 09:28:24 GMT-0500 (CDT)","Mozilla/5.0 (Macintosh; Intel Mac OS X 10_9_5) AppleWebKit/537.36 (KHTML, like Gecko) Chrome/65.0.3325.181 Safari/537.36",11,"[0.9, 0.5, 0.1]","[0.8, 0.4, 0.2]","[u'black', u'blue', u'red']","[u'left', u'middle', u'right']","[0.9, 0.5, 0.1]","[u'low', u'medium', u'high']","red",51,"right","high","True","False",254,800,NA
"A3KC26Z78FBOJT","Wed Oct 28 2020 09:20:35 GMT-0500 (CDT)","Wed Oct 28 2020 09:28:24 GMT-0500 (CDT)","Mozilla/5.0 (Macintosh; Intel Mac OS X 10_9_5) AppleWebKit/537.36 (KHTML, like Gecko) Chrome/65.0.3325.181 Safari/537.36",12,"[0.9, 0.5, 0.1]","[0.8, 0.4, 0.2]","[u'black', u'blue', u'red']","[u'left', u'middle', u'right']","[0.9, 0.5, 0.1]","[u'low', u'medium', u'high']","red",51,"right","high","True","True",244,900,NA
"A3KC26Z78FBOJT","Wed Oct 28 2020 09:20:35 GMT-0500 (CDT)","Wed Oct 28 2020 09:28:24 GMT-0500 (CDT)","Mozilla/5.0 (Macintosh; Intel Mac OS X 10_9_5) AppleWebKit/537.36 (KHTML, like Gecko) Chrome/65.0.3325.181 Safari/537.36",13,"[0.9, 0.5, 0.1]","[0.8, 0.4, 0.2]","[u'black', u'blue', u'red']","[u'left', u'middle', u'right']","[0.9, 0.5, 0.1]","[u'medium', u'high', u'low']","red",51,"right","low","False","False",241,850,NA
"A3KC26Z78FBOJT","Wed Oct 28 2020 09:20:35 GMT-0500 (CDT)","Wed Oct 28 2020 09:28:24 GMT-0500 (CDT)","Mozilla/5.0 (Macintosh; Intel Mac OS X 10_9_5) AppleWebKit/537.36 (KHTML, like Gecko) Chrome/65.0.3325.181 Safari/537.36",14,"[0.9, 0.5, 0.1]","[0.8, 0.4, 0.2]","[u'black', u'blue', u'red']","[u'left', u'middle', u'right']","[0.9, 0.5, 0.1]","[u'medium', u'high', u'low']","red",51,"right","low","False","False",175,800,NA
"A3KC26Z78FBOJT","Wed Oct 28 2020 09:20:35 GMT-0500 (CDT)","Wed Oct 28 2020 09:28:24 GMT-0500 (CDT)","Mozilla/5.0 (Macintosh; Intel Mac OS X 10_9_5) AppleWebKit/537.36 (KHTML, like Gecko) Chrome/65.0.3325.181 Safari/537.36",15,"[0.9, 0.5, 0.1]","[0.8, 0.4, 0.2]","[u'black', u'blue', u'red']","[u'left', u'middle', u'right']","[0.9, 0.5, 0.1]","[u'medium', u'high', u'low']","blue",50,"middle","high","True","False",188,900,NA
"A3KC26Z78FBOJT","Wed Oct 28 2020 09:20:35 GMT-0500 (CDT)","Wed Oct 28 2020 09:28:24 GMT-0500 (CDT)","Mozilla/5.0 (Macintosh; Intel Mac OS X 10_9_5) AppleWebKit/537.36 (KHTML, like Gecko) Chrome/65.0.3325.181 Safari/537.36",16,"[0.9, 0.5, 0.1]","[0.8, 0.4, 0.2]","[u'black', u'blue', u'red']","[u'left', u'middle', u'right']","[0.9, 0.5, 0.1]","[u'medium', u'high', u'low']","blue",50,"middle","high","True","False",231,1000,NA
"A3KC26Z78FBOJT","Wed Oct 28 2020 09:20:35 GMT-0500 (CDT)","Wed Oct 28 2020 09:28:24 GMT-0500 (CDT)","Mozilla/5.0 (Macintosh; Intel Mac OS X 10_9_5) AppleWebKit/537.36 (KHTML, like Gecko) Chrome/65.0.3325.181 Safari/537.36",17,"[0.9, 0.5, 0.1]","[0.8, 0.4, 0.2]","[u'black', u'blue', u'red']","[u'left', u'middle', u'right']","[0.9, 0.5, 0.1]","[u'medium', u'high', u'low']","blue",50,"middle","high","False","False",232,950,NA
"A3KC26Z78FBOJT","Wed Oct 28 2020 09:20:35 GMT-0500 (CDT)","Wed Oct 28 2020 09:28:24 GMT-0500 (CDT)","Mozilla/5.0 (Macintosh; Intel Mac OS X 10_9_5) AppleWebKit/537.36 (KHTML, like Gecko) Chrome/65.0.3325.181 Safari/537.36",18,"[0.9, 0.5, 0.1]","[0.8, 0.4, 0.2]","[u'black', u'blue', u'red']","[u'left', u'middle', u'right']","[0.9, 0.5, 0.1]","[u'medium', u'high', u'low']","blue",50,"middle","high","True","False",288,1050,NA
"A3KC26Z78FBOJT","Wed Oct 28 2020 09:20:35 GMT-0500 (CDT)","Wed Oct 28 2020 09:28:24 GMT-0500 (CDT)","Mozilla/5.0 (Macintosh; Intel Mac OS X 10_9_5) AppleWebKit/537.36 (KHTML, like Gecko) Chrome/65.0.3325.181 Safari/537.36",19,"[0.9, 0.5, 0.1]","[0.8, 0.4, 0.2]","[u'black', u'blue', u'red']","[u'left', u'middle', u'right']","[0.9, 0.5, 0.1]","[u'medium', u'high', u'low']","blue",50,"middle","high","True","False",254,1150,NA
"A3KC26Z78FBOJT","Wed Oct 28 2020 09:20:35 GMT-0500 (CDT)","Wed Oct 28 2020 09:28:24 GMT-0500 (CDT)","Mozilla/5.0 (Macintosh; Intel Mac OS X 10_9_5) AppleWebKit/537.36 (KHTML, like Gecko) Chrome/65.0.3325.181 Safari/537.36",20,"[0.9, 0.5, 0.1]","[0.8, 0.4, 0.2]","[u'black', u'blue', u'red']","[u'left', u'middle', u'right']","[0.9, 0.5, 0.1]","[u'medium', u'high', u'low']","blue",50,"middle","high","False","False",287,1100,NA
"A3KC26Z78FBOJT","Wed Oct 28 2020 09:20:35 GMT-0500 (CDT)","Wed Oct 28 2020 09:28:24 GMT-0500 (CDT)","Mozilla/5.0 (Macintosh; Intel Mac OS X 10_9_5) AppleWebKit/537.36 (KHTML, like Gecko) Chrome/65.0.3325.181 Safari/537.36",21,"[0.9, 0.5, 0.1]","[0.8, 0.4, 0.2]","[u'black', u'blue', u'red']","[u'left', u'middle', u'right']","[0.9, 0.5, 0.1]","[u'medium', u'high', u'low']","black",49,"left","medium","False","False",85,1050,NA
"A3KC26Z78FBOJT","Wed Oct 28 2020 09:20:35 GMT-0500 (CDT)","Wed Oct 28 2020 09:28:24 GMT-0500 (CDT)","Mozilla/5.0 (Macintosh; Intel Mac OS X 10_9_5) AppleWebKit/537.36 (KHTML, like Gecko) Chrome/65.0.3325.181 Safari/537.36",22,"[0.9, 0.5, 0.1]","[0.8, 0.4, 0.2]","[u'black', u'blue', u'red']","[u'left', u'middle', u'right']","[0.9, 0.5, 0.1]","[u'medium', u'high', u'low']","black",49,"left","medium","True","False",164,1150,NA
"A3KC26Z78FBOJT","Wed Oct 28 2020 09:20:35 GMT-0500 (CDT)","Wed Oct 28 2020 09:28:24 GMT-0500 (CDT)","Mozilla/5.0 (Macintosh; Intel Mac OS X 10_9_5) AppleWebKit/537.36 (KHTML, like Gecko) Chrome/65.0.3325.181 Safari/537.36",23,"[0.9, 0.5, 0.1]","[0.8, 0.4, 0.2]","[u'black', u'blue', u'red']","[u'left', u'middle', u'right']","[0.9, 0.5, 0.1]","[u'medium', u'high', u'low']","black",49,"left","medium","True","False",186,1250,NA
"A3KC26Z78FBOJT","Wed Oct 28 2020 09:20:35 GMT-0500 (CDT)","Wed Oct 28 2020 09:28:24 GMT-0500 (CDT)","Mozilla/5.0 (Macintosh; Intel Mac OS X 10_9_5) AppleWebKit/537.36 (KHTML, like Gecko) Chrome/65.0.3325.181 Safari/537.36",24,"[0.9, 0.5, 0.1]","[0.8, 0.4, 0.2]","[u'black', u'blue', u'red']","[u'left', u'middle', u'right']","[0.9, 0.5, 0.1]","[u'medium', u'high', u'low']","black",49,"left","medium","False","False",265,1200,NA
"A3KC26Z78FBOJT","Wed Oct 28 2020 09:20:35 GMT-0500 (CDT)","Wed Oct 28 2020 09:28:24 GMT-0500 (CDT)","Mozilla/5.0 (Macintosh; Intel Mac OS X 10_9_5) AppleWebKit/537.36 (KHTML, like Gecko) Chrome/65.0.3325.181 Safari/537.36",25,"[0.9, 0.5, 0.1]","[0.8, 0.4, 0.2]","[u'black', u'blue', u'red']","[u'left', u'middle', u'right']","[0.9, 0.5, 0.1]","[u'medium', u'high', u'low']","black",49,"left","medium","True","False",175,1300,NA
"A3KC26Z78FBOJT","Wed Oct 28 2020 09:20:35 GMT-0500 (CDT)","Wed Oct 28 2020 09:28:24 GMT-0500 (CDT)","Mozilla/5.0 (Macintosh; Intel Mac OS X 10_9_5) AppleWebKit/537.36 (KHTML, like Gecko) Chrome/65.0.3325.181 Safari/537.36",26,"[0.9, 0.5, 0.1]","[0.8, 0.4, 0.2]","[u'black', u'blue', u'red']","[u'left', u'middle', u'right']","[0.9, 0.5, 0.1]","[u'medium', u'high', u'low']","blue",50,"middle","high","True","False",210,1400,NA
"A3KC26Z78FBOJT","Wed Oct 28 2020 09:20:35 GMT-0500 (CDT)","Wed Oct 28 2020 09:28:24 GMT-0500 (CDT)","Mozilla/5.0 (Macintosh; Intel Mac OS X 10_9_5) AppleWebKit/537.36 (KHTML, like Gecko) Chrome/65.0.3325.181 Safari/537.36",27,"[0.9, 0.5, 0.1]","[0.8, 0.4, 0.2]","[u'black', u'blue', u'red']","[u'left', u'middle', u'right']","[0.9, 0.5, 0.1]","[u'medium', u'high', u'low']","blue",50,"middle","high","True","False",265,1500,NA
"A3KC26Z78FBOJT","Wed Oct 28 2020 09:20:35 GMT-0500 (CDT)","Wed Oct 28 2020 09:28:24 GMT-0500 (CDT)","Mozilla/5.0 (Macintosh; Intel Mac OS X 10_9_5) AppleWebKit/537.36 (KHTML, like Gecko) Chrome/65.0.3325.181 Safari/537.36",28,"[0.9, 0.5, 0.1]","[0.8, 0.4, 0.2]","[u'black', u'blue', u'red']","[u'left', u'middle', u'right']","[0.9, 0.5, 0.1]","[u'medium', u'high', u'low']","blue",50,"middle","high","True","False",220,1600,NA
"A3KC26Z78FBOJT","Wed Oct 28 2020 09:20:35 GMT-0500 (CDT)","Wed Oct 28 2020 09:28:24 GMT-0500 (CDT)","Mozilla/5.0 (Macintosh; Intel Mac OS X 10_9_5) AppleWebKit/537.36 (KHTML, like Gecko) Chrome/65.0.3325.181 Safari/537.36",29,"[0.9, 0.5, 0.1]","[0.8, 0.4, 0.2]","[u'black', u'blue', u'red']","[u'left', u'middle', u'right']","[0.9, 0.5, 0.1]","[u'medium', u'high', u'low']","blue",50,"middle","high","True","False",569,1700,NA
"A3KC26Z78FBOJT","Wed Oct 28 2020 09:20:35 GMT-0500 (CDT)","Wed Oct 28 2020 09:28:24 GMT-0500 (CDT)","Mozilla/5.0 (Macintosh; Intel Mac OS X 10_9_5) AppleWebKit/537.36 (KHTML, like Gecko) Chrome/65.0.3325.181 Safari/537.36",30,"[0.9, 0.5, 0.1]","[0.8, 0.4, 0.2]","[u'black', u'blue', u'red']","[u'left', u'middle', u'right']","[0.9, 0.5, 0.1]","[u'medium', u'high', u'low']","blue",50,"middle","high","True","False",86,1800,NA
"A3KC26Z78FBOJT","Wed Oct 28 2020 09:20:35 GMT-0500 (CDT)","Wed Oct 28 2020 09:28:24 GMT-0500 (CDT)","Mozilla/5.0 (Macintosh; Intel Mac OS X 10_9_5) AppleWebKit/537.36 (KHTML, like Gecko) Chrome/65.0.3325.181 Safari/537.36",31,"[0.9, 0.5, 0.1]","[0.8, 0.4, 0.2]","[u'black', u'blue', u'red']","[u'left', u'middle', u'right']","[0.9, 0.5, 0.1]","[u'medium', u'high', u'low']","blue",50,"middle","high","True","False",197,1900,NA
"A3KC26Z78FBOJT","Wed Oct 28 2020 09:20:35 GMT-0500 (CDT)","Wed Oct 28 2020 09:28:24 GMT-0500 (CDT)","Mozilla/5.0 (Macintosh; Intel Mac OS X 10_9_5) AppleWebKit/537.36 (KHTML, like Gecko) Chrome/65.0.3325.181 Safari/537.36",32,"[0.9, 0.5, 0.1]","[0.8, 0.4, 0.2]","[u'black', u'blue', u'red']","[u'left', u'middle', u'right']","[0.9, 0.5, 0.1]","[u'medium', u'high', u'low']","blue",50,"middle","high","True","False",232,2000,NA
"A3KC26Z78FBOJT","Wed Oct 28 2020 09:20:35 GMT-0500 (CDT)","Wed Oct 28 2020 09:28:24 GMT-0500 (CDT)","Mozilla/5.0 (Macintosh; Intel Mac OS X 10_9_5) AppleWebKit/537.36 (KHTML, like Gecko) Chrome/65.0.3325.181 Safari/537.36",33,"[0.9, 0.5, 0.1]","[0.8, 0.4, 0.2]","[u'black', u'blue', u'red']","[u'left', u'middle', u'right']","[0.9, 0.5, 0.1]","[u'medium', u'high', u'low']","blue",50,"middle","high","True","False",175,2100,NA
"A3KC26Z78FBOJT","Wed Oct 28 2020 09:20:35 GMT-0500 (CDT)","Wed Oct 28 2020 09:28:24 GMT-0500 (CDT)","Mozilla/5.0 (Macintosh; Intel Mac OS X 10_9_5) AppleWebKit/537.36 (KHTML, like Gecko) Chrome/65.0.3325.181 Safari/537.36",34,"[0.9, 0.5, 0.1]","[0.8, 0.4, 0.2]","[u'black', u'blue', u'red']","[u'left', u'middle', u'right']","[0.9, 0.5, 0.1]","[u'medium', u'high', u'low']","blue",50,"middle","high","True","True",230,2200,NA
"A3KC26Z78FBOJT","Wed Oct 28 2020 09:20:35 GMT-0500 (CDT)","Wed Oct 28 2020 09:28:24 GMT-0500 (CDT)","Mozilla/5.0 (Macintosh; Intel Mac OS X 10_9_5) AppleWebKit/537.36 (KHTML, like Gecko) Chrome/65.0.3325.181 Safari/537.36",35,"[0.9, 0.5, 0.1]","[0.8, 0.4, 0.2]","[u'black', u'blue', u'red']","[u'left', u'middle', u'right']","[0.9, 0.5, 0.1]","[u'medium', u'low', u'high']","blue",50,"middle","low","False","False",40,2150,NA
"A3KC26Z78FBOJT","Wed Oct 28 2020 09:20:35 GMT-0500 (CDT)","Wed Oct 28 2020 09:28:24 GMT-0500 (CDT)","Mozilla/5.0 (Macintosh; Intel Mac OS X 10_9_5) AppleWebKit/537.36 (KHTML, like Gecko) Chrome/65.0.3325.181 Safari/537.36",36,"[0.9, 0.5, 0.1]","[0.8, 0.4, 0.2]","[u'black', u'blue', u'red']","[u'left', u'middle', u'right']","[0.9, 0.5, 0.1]","[u'medium', u'low', u'high']","blue",50,"middle","low","False","False",73,2100,NA
"A3KC26Z78FBOJT","Wed Oct 28 2020 09:20:35 GMT-0500 (CDT)","Wed Oct 28 2020 09:28:24 GMT-0500 (CDT)","Mozilla/5.0 (Macintosh; Intel Mac OS X 10_9_5) AppleWebKit/537.36 (KHTML, like Gecko) Chrome/65.0.3325.181 Safari/537.36",37,"[0.9, 0.5, 0.1]","[0.8, 0.4, 0.2]","[u'black', u'blue', u'red']","[u'left', u'middle', u'right']","[0.9, 0.5, 0.1]","[u'medium', u'low', u'high']","red",51,"right","high","True","False",130,2200,NA
"A3KC26Z78FBOJT","Wed Oct 28 2020 09:20:35 GMT-0500 (CDT)","Wed Oct 28 2020 09:28:24 GMT-0500 (CDT)","Mozilla/5.0 (Macintosh; Intel Mac OS X 10_9_5) AppleWebKit/537.36 (KHTML, like Gecko) Chrome/65.0.3325.181 Safari/537.36",38,"[0.9, 0.5, 0.1]","[0.8, 0.4, 0.2]","[u'black', u'blue', u'red']","[u'left', u'middle', u'right']","[0.9, 0.5, 0.1]","[u'medium', u'low', u'high']","red",51,"right","high","False","False",220,2150,NA
"A3KC26Z78FBOJT","Wed Oct 28 2020 09:20:35 GMT-0500 (CDT)","Wed Oct 28 2020 09:28:24 GMT-0500 (CDT)","Mozilla/5.0 (Macintosh; Intel Mac OS X 10_9_5) AppleWebKit/537.36 (KHTML, like Gecko) Chrome/65.0.3325.181 Safari/537.36",39,"[0.9, 0.5, 0.1]","[0.8, 0.4, 0.2]","[u'black', u'blue', u'red']","[u'left', u'middle', u'right']","[0.9, 0.5, 0.1]","[u'medium', u'low', u'high']","red",51,"right","high","True","False",120,2250,NA
"A3KC26Z78FBOJT","Wed Oct 28 2020 09:20:35 GMT-0500 (CDT)","Wed Oct 28 2020 09:28:24 GMT-0500 (CDT)","Mozilla/5.0 (Macintosh; Intel Mac OS X 10_9_5) AppleWebKit/537.36 (KHTML, like Gecko) Chrome/65.0.3325.181 Safari/537.36",40,"[0.9, 0.5, 0.1]","[0.8, 0.4, 0.2]","[u'black', u'blue', u'red']","[u'left', u'middle', u'right']","[0.9, 0.5, 0.1]","[u'medium', u'low', u'high']","red",51,"right","high","True","False",153,2350,NA
"A3KC26Z78FBOJT","Wed Oct 28 2020 09:20:35 GMT-0500 (CDT)","Wed Oct 28 2020 09:28:24 GMT-0500 (CDT)","Mozilla/5.0 (Macintosh; Intel Mac OS X 10_9_5) AppleWebKit/537.36 (KHTML, like Gecko) Chrome/65.0.3325.181 Safari/537.36",41,"[0.9, 0.5, 0.1]","[0.8, 0.4, 0.2]","[u'black', u'blue', u'red']","[u'left', u'middle', u'right']","[0.9, 0.5, 0.1]","[u'low', u'high', u'medium']","black",49,"left","low","False","False",895,2300,NA
"A3KC26Z78FBOJT","Wed Oct 28 2020 09:20:35 GMT-0500 (CDT)","Wed Oct 28 2020 09:28:24 GMT-0500 (CDT)","Mozilla/5.0 (Macintosh; Intel Mac OS X 10_9_5) AppleWebKit/537.36 (KHTML, like Gecko) Chrome/65.0.3325.181 Safari/537.36",42,"[0.9, 0.5, 0.1]","[0.8, 0.4, 0.2]","[u'black', u'blue', u'red']","[u'left', u'middle', u'right']","[0.9, 0.5, 0.1]","[u'low', u'high', u'medium']","blue",50,"middle","high","True","False",165,2400,NA
"A3KC26Z78FBOJT","Wed Oct 28 2020 09:20:35 GMT-0500 (CDT)","Wed Oct 28 2020 09:28:24 GMT-0500 (CDT)","Mozilla/5.0 (Macintosh; Intel Mac OS X 10_9_5) AppleWebKit/537.36 (KHTML, like Gecko) Chrome/65.0.3325.181 Safari/537.36",43,"[0.9, 0.5, 0.1]","[0.8, 0.4, 0.2]","[u'black', u'blue', u'red']","[u'left', u'middle', u'right']","[0.9, 0.5, 0.1]","[u'low', u'high', u'medium']","red",51,"right","medium","False","False",154,2350,NA
"A3KC26Z78FBOJT","Wed Oct 28 2020 09:20:35 GMT-0500 (CDT)","Wed Oct 28 2020 09:28:24 GMT-0500 (CDT)","Mozilla/5.0 (Macintosh; Intel Mac OS X 10_9_5) AppleWebKit/537.36 (KHTML, like Gecko) Chrome/65.0.3325.181 Safari/537.36",44,"[0.9, 0.5, 0.1]","[0.8, 0.4, 0.2]","[u'black', u'blue', u'red']","[u'left', u'middle', u'right']","[0.9, 0.5, 0.1]","[u'low', u'high', u'medium']","blue",50,"middle","high","True","False",243,2450,NA
"A3KC26Z78FBOJT","Wed Oct 28 2020 09:20:35 GMT-0500 (CDT)","Wed Oct 28 2020 09:28:24 GMT-0500 (CDT)","Mozilla/5.0 (Macintosh; Intel Mac OS X 10_9_5) AppleWebKit/537.36 (KHTML, like Gecko) Chrome/65.0.3325.181 Safari/537.36",45,"[0.9, 0.5, 0.1]","[0.8, 0.4, 0.2]","[u'black', u'blue', u'red']","[u'left', u'middle', u'right']","[0.9, 0.5, 0.1]","[u'low', u'high', u'medium']","blue",50,"middle","high","True","False",220,2550,NA
"A3KC26Z78FBOJT","Wed Oct 28 2020 09:20:35 GMT-0500 (CDT)","Wed Oct 28 2020 09:28:24 GMT-0500 (CDT)","Mozilla/5.0 (Macintosh; Intel Mac OS X 10_9_5) AppleWebKit/537.36 (KHTML, like Gecko) Chrome/65.0.3325.181 Safari/537.36",46,"[0.9, 0.5, 0.1]","[0.8, 0.4, 0.2]","[u'black', u'blue', u'red']","[u'left', u'middle', u'right']","[0.9, 0.5, 0.1]","[u'low', u'high', u'medium']","blue",50,"middle","high","True","False",210,2650,NA
"A3KC26Z78FBOJT","Wed Oct 28 2020 09:20:35 GMT-0500 (CDT)","Wed Oct 28 2020 09:28:24 GMT-0500 (CDT)","Mozilla/5.0 (Macintosh; Intel Mac OS X 10_9_5) AppleWebKit/537.36 (KHTML, like Gecko) Chrome/65.0.3325.181 Safari/537.36",47,"[0.9, 0.5, 0.1]","[0.8, 0.4, 0.2]","[u'black', u'blue', u'red']","[u'left', u'middle', u'right']","[0.9, 0.5, 0.1]","[u'low', u'high', u'medium']","blue",50,"middle","high","True","False",198,2750,NA
"A3KC26Z78FBOJT","Wed Oct 28 2020 09:20:35 GMT-0500 (CDT)","Wed Oct 28 2020 09:28:24 GMT-0500 (CDT)","Mozilla/5.0 (Macintosh; Intel Mac OS X 10_9_5) AppleWebKit/537.36 (KHTML, like Gecko) Chrome/65.0.3325.181 Safari/537.36",48,"[0.9, 0.5, 0.1]","[0.8, 0.4, 0.2]","[u'black', u'blue', u'red']","[u'left', u'middle', u'right']","[0.9, 0.5, 0.1]","[u'low', u'high', u'medium']","blue",50,"middle","high","True","False",118,2850,NA
"A3KC26Z78FBOJT","Wed Oct 28 2020 09:20:35 GMT-0500 (CDT)","Wed Oct 28 2020 09:28:24 GMT-0500 (CDT)","Mozilla/5.0 (Macintosh; Intel Mac OS X 10_9_5) AppleWebKit/537.36 (KHTML, like Gecko) Chrome/65.0.3325.181 Safari/537.36",49,"[0.9, 0.5, 0.1]","[0.8, 0.4, 0.2]","[u'black', u'blue', u'red']","[u'left', u'middle', u'right']","[0.9, 0.5, 0.1]","[u'low', u'high', u'medium']","blue",50,"middle","high","False","False",130,2800,NA
"A3KC26Z78FBOJT","Wed Oct 28 2020 09:20:35 GMT-0500 (CDT)","Wed Oct 28 2020 09:28:24 GMT-0500 (CDT)","Mozilla/5.0 (Macintosh; Intel Mac OS X 10_9_5) AppleWebKit/537.36 (KHTML, like Gecko) Chrome/65.0.3325.181 Safari/537.36",50,"[0.9, 0.5, 0.1]","[0.8, 0.4, 0.2]","[u'black', u'blue', u'red']","[u'left', u'middle', u'right']","[0.9, 0.5, 0.1]","[u'low', u'high', u'medium']","blue",50,"middle","high","True","False",108,2900,NA
"A3KC26Z78FBOJT","Wed Oct 28 2020 09:20:35 GMT-0500 (CDT)","Wed Oct 28 2020 09:28:24 GMT-0500 (CDT)","Mozilla/5.0 (Macintosh; Intel Mac OS X 10_9_5) AppleWebKit/537.36 (KHTML, like Gecko) Chrome/65.0.3325.181 Safari/537.36",51,"[0.9, 0.5, 0.1]","[0.8, 0.4, 0.2]","[u'black', u'blue', u'red']","[u'left', u'middle', u'right']","[0.9, 0.5, 0.1]","[u'low', u'high', u'medium']","blue",50,"middle","high","True","True",243,3000,NA
"A3KC26Z78FBOJT","Wed Oct 28 2020 09:20:35 GMT-0500 (CDT)","Wed Oct 28 2020 09:28:24 GMT-0500 (CDT)","Mozilla/5.0 (Macintosh; Intel Mac OS X 10_9_5) AppleWebKit/537.36 (KHTML, like Gecko) Chrome/65.0.3325.181 Safari/537.36",52,"[0.9, 0.5, 0.1]","[0.8, 0.4, 0.2]","[u'black', u'blue', u'red']","[u'left', u'middle', u'right']","[0.9, 0.5, 0.1]","[u'high', u'medium', u'low']","blue",50,"middle","medium","False","False",118,2950,NA
"A3KC26Z78FBOJT","Wed Oct 28 2020 09:20:35 GMT-0500 (CDT)","Wed Oct 28 2020 09:28:24 GMT-0500 (CDT)","Mozilla/5.0 (Macintosh; Intel Mac OS X 10_9_5) AppleWebKit/537.36 (KHTML, like Gecko) Chrome/65.0.3325.181 Safari/537.36",53,"[0.9, 0.5, 0.1]","[0.8, 0.4, 0.2]","[u'black', u'blue', u'red']","[u'left', u'middle', u'right']","[0.9, 0.5, 0.1]","[u'high', u'medium', u'low']","red",51,"right","low","False","False",74,2900,NA
"A3KC26Z78FBOJT","Wed Oct 28 2020 09:20:35 GMT-0500 (CDT)","Wed Oct 28 2020 09:28:24 GMT-0500 (CDT)","Mozilla/5.0 (Macintosh; Intel Mac OS X 10_9_5) AppleWebKit/537.36 (KHTML, like Gecko) Chrome/65.0.3325.181 Safari/537.36",54,"[0.9, 0.5, 0.1]","[0.8, 0.4, 0.2]","[u'black', u'blue', u'red']","[u'left', u'middle', u'right']","[0.9, 0.5, 0.1]","[u'high', u'medium', u'low']","black",49,"left","high","True","False",468,3000,NA
"A3KC26Z78FBOJT","Wed Oct 28 2020 09:20:35 GMT-0500 (CDT)","Wed Oct 28 2020 09:28:24 GMT-0500 (CDT)","Mozilla/5.0 (Macintosh; Intel Mac OS X 10_9_5) AppleWebKit/537.36 (KHTML, like Gecko) Chrome/65.0.3325.181 Safari/537.36",55,"[0.9, 0.5, 0.1]","[0.8, 0.4, 0.2]","[u'black', u'blue', u'red']","[u'left', u'middle', u'right']","[0.9, 0.5, 0.1]","[u'high', u'medium', u'low']","black",49,"left","high","True","False",231,3100,NA
"A3KC26Z78FBOJT","Wed Oct 28 2020 09:20:35 GMT-0500 (CDT)","Wed Oct 28 2020 09:28:24 GMT-0500 (CDT)","Mozilla/5.0 (Macintosh; Intel Mac OS X 10_9_5) AppleWebKit/537.36 (KHTML, like Gecko) Chrome/65.0.3325.181 Safari/537.36",56,"[0.9, 0.5, 0.1]","[0.8, 0.4, 0.2]","[u'black', u'blue', u'red']","[u'left', u'middle', u'right']","[0.9, 0.5, 0.1]","[u'high', u'medium', u'low']","black",49,"left","high","True","False",253,3200,NA
"A3KC26Z78FBOJT","Wed Oct 28 2020 09:20:35 GMT-0500 (CDT)","Wed Oct 28 2020 09:28:24 GMT-0500 (CDT)","Mozilla/5.0 (Macintosh; Intel Mac OS X 10_9_5) AppleWebKit/537.36 (KHTML, like Gecko) Chrome/65.0.3325.181 Safari/537.36",57,"[0.9, 0.5, 0.1]","[0.8, 0.4, 0.2]","[u'black', u'blue', u'red']","[u'left', u'middle', u'right']","[0.9, 0.5, 0.1]","[u'high', u'medium', u'low']","black",49,"left","high","True","False",219,3300,NA
"A3KC26Z78FBOJT","Wed Oct 28 2020 09:20:35 GMT-0500 (CDT)","Wed Oct 28 2020 09:28:24 GMT-0500 (CDT)","Mozilla/5.0 (Macintosh; Intel Mac OS X 10_9_5) AppleWebKit/537.36 (KHTML, like Gecko) Chrome/65.0.3325.181 Safari/537.36",58,"[0.9, 0.5, 0.1]","[0.8, 0.4, 0.2]","[u'black', u'blue', u'red']","[u'left', u'middle', u'right']","[0.9, 0.5, 0.1]","[u'high', u'medium', u'low']","black",49,"left","high","True","False",243,3400,NA
"A3KC26Z78FBOJT","Wed Oct 28 2020 09:20:35 GMT-0500 (CDT)","Wed Oct 28 2020 09:28:24 GMT-0500 (CDT)","Mozilla/5.0 (Macintosh; Intel Mac OS X 10_9_5) AppleWebKit/537.36 (KHTML, like Gecko) Chrome/65.0.3325.181 Safari/537.36",59,"[0.9, 0.5, 0.1]","[0.8, 0.4, 0.2]","[u'black', u'blue', u'red']","[u'left', u'middle', u'right']","[0.9, 0.5, 0.1]","[u'high', u'medium', u'low']","black",49,"left","high","True","False",131,3500,NA
"A3KC26Z78FBOJT","Wed Oct 28 2020 09:20:35 GMT-0500 (CDT)","Wed Oct 28 2020 09:28:24 GMT-0500 (CDT)","Mozilla/5.0 (Macintosh; Intel Mac OS X 10_9_5) AppleWebKit/537.36 (KHTML, like Gecko) Chrome/65.0.3325.181 Safari/537.36",60,"[0.9, 0.5, 0.1]","[0.8, 0.4, 0.2]","[u'black', u'blue', u'red']","[u'left', u'middle', u'right']","[0.9, 0.5, 0.1]","[u'high', u'medium', u'low']","black",49,"left","high","True","False",232,3600,NA
"A3KC26Z78FBOJT","Wed Oct 28 2020 09:20:35 GMT-0500 (CDT)","Wed Oct 28 2020 09:28:24 GMT-0500 (CDT)","Mozilla/5.0 (Macintosh; Intel Mac OS X 10_9_5) AppleWebKit/537.36 (KHTML, like Gecko) Chrome/65.0.3325.181 Safari/537.36",61,"[0.9, 0.5, 0.1]","[0.8, 0.4, 0.2]","[u'black', u'blue', u'red']","[u'left', u'middle', u'right']","[0.9, 0.5, 0.1]","[u'high', u'medium', u'low']","black",49,"left","high","True","False",400,3700,NA
"A3KC26Z78FBOJT","Wed Oct 28 2020 09:20:35 GMT-0500 (CDT)","Wed Oct 28 2020 09:28:24 GMT-0500 (CDT)","Mozilla/5.0 (Macintosh; Intel Mac OS X 10_9_5) AppleWebKit/537.36 (KHTML, like Gecko) Chrome/65.0.3325.181 Safari/537.36",62,"[0.9, 0.5, 0.1]","[0.8, 0.4, 0.2]","[u'black', u'blue', u'red']","[u'left', u'middle', u'right']","[0.9, 0.5, 0.1]","[u'high', u'medium', u'low']","black",49,"left","high","True","True",244,3800,NA
"A3KC26Z78FBOJT","Wed Oct 28 2020 09:20:35 GMT-0500 (CDT)","Wed Oct 28 2020 09:28:24 GMT-0500 (CDT)","Mozilla/5.0 (Macintosh; Intel Mac OS X 10_9_5) AppleWebKit/537.36 (KHTML, like Gecko) Chrome/65.0.3325.181 Safari/537.36",63,"[0.9, 0.5, 0.1]","[0.8, 0.4, 0.2]","[u'black', u'blue', u'red']","[u'left', u'middle', u'right']","[0.9, 0.5, 0.1]","[u'medium', u'low', u'high']","black",49,"left","medium","False","False",232,3750,NA
"A3KC26Z78FBOJT","Wed Oct 28 2020 09:20:35 GMT-0500 (CDT)","Wed Oct 28 2020 09:28:24 GMT-0500 (CDT)","Mozilla/5.0 (Macintosh; Intel Mac OS X 10_9_5) AppleWebKit/537.36 (KHTML, like Gecko) Chrome/65.0.3325.181 Safari/537.36",64,"[0.9, 0.5, 0.1]","[0.8, 0.4, 0.2]","[u'black', u'blue', u'red']","[u'left', u'middle', u'right']","[0.9, 0.5, 0.1]","[u'medium', u'low', u'high']","black",49,"left","medium","True","False",131,3850,NA
"A3KC26Z78FBOJT","Wed Oct 28 2020 09:20:35 GMT-0500 (CDT)","Wed Oct 28 2020 09:28:24 GMT-0500 (CDT)","Mozilla/5.0 (Macintosh; Intel Mac OS X 10_9_5) AppleWebKit/537.36 (KHTML, like Gecko) Chrome/65.0.3325.181 Safari/537.36",65,"[0.9, 0.5, 0.1]","[0.8, 0.4, 0.2]","[u'black', u'blue', u'red']","[u'left', u'middle', u'right']","[0.9, 0.5, 0.1]","[u'medium', u'low', u'high']","black",49,"left","medium","False","False",186,3800,NA
"A3KC26Z78FBOJT","Wed Oct 28 2020 09:20:35 GMT-0500 (CDT)","Wed Oct 28 2020 09:28:24 GMT-0500 (CDT)","Mozilla/5.0 (Macintosh; Intel Mac OS X 10_9_5) AppleWebKit/537.36 (KHTML, like Gecko) Chrome/65.0.3325.181 Safari/537.36",66,"[0.9, 0.5, 0.1]","[0.8, 0.4, 0.2]","[u'black', u'blue', u'red']","[u'left', u'middle', u'right']","[0.9, 0.5, 0.1]","[u'medium', u'low', u'high']","blue",50,"middle","low","False","False",197,3750,NA
"A3KC26Z78FBOJT","Wed Oct 28 2020 09:20:35 GMT-0500 (CDT)","Wed Oct 28 2020 09:28:24 GMT-0500 (CDT)","Mozilla/5.0 (Macintosh; Intel Mac OS X 10_9_5) AppleWebKit/537.36 (KHTML, like Gecko) Chrome/65.0.3325.181 Safari/537.36",67,"[0.9, 0.5, 0.1]","[0.8, 0.4, 0.2]","[u'black', u'blue', u'red']","[u'left', u'middle', u'right']","[0.9, 0.5, 0.1]","[u'medium', u'low', u'high']","red",51,"right","high","True","False",197,3850,NA
"A3KC26Z78FBOJT","Wed Oct 28 2020 09:20:35 GMT-0500 (CDT)","Wed Oct 28 2020 09:28:24 GMT-0500 (CDT)","Mozilla/5.0 (Macintosh; Intel Mac OS X 10_9_5) AppleWebKit/537.36 (KHTML, like Gecko) Chrome/65.0.3325.181 Safari/537.36",68,"[0.9, 0.5, 0.1]","[0.8, 0.4, 0.2]","[u'black', u'blue', u'red']","[u'left', u'middle', u'right']","[0.9, 0.5, 0.1]","[u'medium', u'low', u'high']","red",51,"right","high","True","False",187,3950,NA
"A3KC26Z78FBOJT","Wed Oct 28 2020 09:20:35 GMT-0500 (CDT)","Wed Oct 28 2020 09:28:24 GMT-0500 (CDT)","Mozilla/5.0 (Macintosh; Intel Mac OS X 10_9_5) AppleWebKit/537.36 (KHTML, like Gecko) Chrome/65.0.3325.181 Safari/537.36",69,"[0.9, 0.5, 0.1]","[0.8, 0.4, 0.2]","[u'black', u'blue', u'red']","[u'left', u'middle', u'right']","[0.9, 0.5, 0.1]","[u'medium', u'low', u'high']","red",51,"right","high","True","False",266,4050,NA
"A3KC26Z78FBOJT","Wed Oct 28 2020 09:20:35 GMT-0500 (CDT)","Wed Oct 28 2020 09:28:24 GMT-0500 (CDT)","Mozilla/5.0 (Macintosh; Intel Mac OS X 10_9_5) AppleWebKit/537.36 (KHTML, like Gecko) Chrome/65.0.3325.181 Safari/537.36",70,"[0.9, 0.5, 0.1]","[0.8, 0.4, 0.2]","[u'black', u'blue', u'red']","[u'left', u'middle', u'right']","[0.9, 0.5, 0.1]","[u'medium', u'low', u'high']","red",51,"right","high","True","False",174,4150,NA
"A3KC26Z78FBOJT","Wed Oct 28 2020 09:20:35 GMT-0500 (CDT)","Wed Oct 28 2020 09:28:24 GMT-0500 (CDT)","Mozilla/5.0 (Macintosh; Intel Mac OS X 10_9_5) AppleWebKit/537.36 (KHTML, like Gecko) Chrome/65.0.3325.181 Safari/537.36",71,"[0.9, 0.5, 0.1]","[0.8, 0.4, 0.2]","[u'black', u'blue', u'red']","[u'left', u'middle', u'right']","[0.9, 0.5, 0.1]","[u'medium', u'low', u'high']","red",51,"right","high","True","False",96,4250,NA
"A3KC26Z78FBOJT","Wed Oct 28 2020 09:20:35 GMT-0500 (CDT)","Wed Oct 28 2020 09:28:24 GMT-0500 (CDT)","Mozilla/5.0 (Macintosh; Intel Mac OS X 10_9_5) AppleWebKit/537.36 (KHTML, like Gecko) Chrome/65.0.3325.181 Safari/537.36",72,"[0.9, 0.5, 0.1]","[0.8, 0.4, 0.2]","[u'black', u'blue', u'red']","[u'left', u'middle', u'right']","[0.9, 0.5, 0.1]","[u'medium', u'low', u'high']","red",51,"right","high","True","False",176,4350,NA
"A3KC26Z78FBOJT","Wed Oct 28 2020 09:20:35 GMT-0500 (CDT)","Wed Oct 28 2020 09:28:24 GMT-0500 (CDT)","Mozilla/5.0 (Macintosh; Intel Mac OS X 10_9_5) AppleWebKit/537.36 (KHTML, like Gecko) Chrome/65.0.3325.181 Safari/537.36",73,"[0.9, 0.5, 0.1]","[0.8, 0.4, 0.2]","[u'black', u'blue', u'red']","[u'left', u'middle', u'right']","[0.9, 0.5, 0.1]","[u'medium', u'low', u'high']","red",51,"right","high","True","False",220,4450,NA
"A3KC26Z78FBOJT","Wed Oct 28 2020 09:20:35 GMT-0500 (CDT)","Wed Oct 28 2020 09:28:24 GMT-0500 (CDT)","Mozilla/5.0 (Macintosh; Intel Mac OS X 10_9_5) AppleWebKit/537.36 (KHTML, like Gecko) Chrome/65.0.3325.181 Safari/537.36",74,"[0.9, 0.5, 0.1]","[0.8, 0.4, 0.2]","[u'black', u'blue', u'red']","[u'left', u'middle', u'right']","[0.9, 0.5, 0.1]","[u'medium', u'low', u'high']","red",51,"right","high","False","False",164,4400,NA
"A3KC26Z78FBOJT","Wed Oct 28 2020 09:20:35 GMT-0500 (CDT)","Wed Oct 28 2020 09:28:24 GMT-0500 (CDT)","Mozilla/5.0 (Macintosh; Intel Mac OS X 10_9_5) AppleWebKit/537.36 (KHTML, like Gecko) Chrome/65.0.3325.181 Safari/537.36",75,"[0.9, 0.5, 0.1]","[0.8, 0.4, 0.2]","[u'black', u'blue', u'red']","[u'left', u'middle', u'right']","[0.9, 0.5, 0.1]","[u'medium', u'low', u'high']","red",51,"right","high","True","True",74,4500,NA
"A3KC26Z78FBOJT","Wed Oct 28 2020 09:20:35 GMT-0500 (CDT)","Wed Oct 28 2020 09:28:24 GMT-0500 (CDT)","Mozilla/5.0 (Macintosh; Intel Mac OS X 10_9_5) AppleWebKit/537.36 (KHTML, like Gecko) Chrome/65.0.3325.181 Safari/537.36",76,"[0.9, 0.5, 0.1]","[0.8, 0.4, 0.2]","[u'black', u'blue', u'red']","[u'left', u'middle', u'right']","[0.9, 0.5, 0.1]","[u'low', u'high', u'medium']","red",51,"right","medium","False","False",221,4450,NA
"A3KC26Z78FBOJT","Wed Oct 28 2020 09:20:35 GMT-0500 (CDT)","Wed Oct 28 2020 09:28:24 GMT-0500 (CDT)","Mozilla/5.0 (Macintosh; Intel Mac OS X 10_9_5) AppleWebKit/537.36 (KHTML, like Gecko) Chrome/65.0.3325.181 Safari/537.36",77,"[0.9, 0.5, 0.1]","[0.8, 0.4, 0.2]","[u'black', u'blue', u'red']","[u'left', u'middle', u'right']","[0.9, 0.5, 0.1]","[u'low', u'high', u'medium']","blue",50,"middle","high","True","False",166,4550,NA
"A3KC26Z78FBOJT","Wed Oct 28 2020 09:20:35 GMT-0500 (CDT)","Wed Oct 28 2020 09:28:24 GMT-0500 (CDT)","Mozilla/5.0 (Macintosh; Intel Mac OS X 10_9_5) AppleWebKit/537.36 (KHTML, like Gecko) Chrome/65.0.3325.181 Safari/537.36",78,"[0.9, 0.5, 0.1]","[0.8, 0.4, 0.2]","[u'black', u'blue', u'red']","[u'left', u'middle', u'right']","[0.9, 0.5, 0.1]","[u'low', u'high', u'medium']","blue",50,"middle","high","False","False",209,4500,NA
"A3KC26Z78FBOJT","Wed Oct 28 2020 09:20:35 GMT-0500 (CDT)","Wed Oct 28 2020 09:28:24 GMT-0500 (CDT)","Mozilla/5.0 (Macintosh; Intel Mac OS X 10_9_5) AppleWebKit/537.36 (KHTML, like Gecko) Chrome/65.0.3325.181 Safari/537.36",79,"[0.9, 0.5, 0.1]","[0.8, 0.4, 0.2]","[u'black', u'blue', u'red']","[u'left', u'middle', u'right']","[0.9, 0.5, 0.1]","[u'low', u'high', u'medium']","black",49,"left","low","False","False",129,4450,NA
"A3KC26Z78FBOJT","Wed Oct 28 2020 09:20:35 GMT-0500 (CDT)","Wed Oct 28 2020 09:28:24 GMT-0500 (CDT)","Mozilla/5.0 (Macintosh; Intel Mac OS X 10_9_5) AppleWebKit/537.36 (KHTML, like Gecko) Chrome/65.0.3325.181 Safari/537.36",80,"[0.9, 0.5, 0.1]","[0.8, 0.4, 0.2]","[u'black', u'blue', u'red']","[u'left', u'middle', u'right']","[0.9, 0.5, 0.1]","[u'low', u'high', u'medium']","blue",50,"middle","high","True","False",186,4550,NA
"A3KC26Z78FBOJT","Wed Oct 28 2020 09:20:35 GMT-0500 (CDT)","Wed Oct 28 2020 09:28:24 GMT-0500 (CDT)","Mozilla/5.0 (Macintosh; Intel Mac OS X 10_9_5) AppleWebKit/537.36 (KHTML, like Gecko) Chrome/65.0.3325.181 Safari/537.36",81,"[0.9, 0.5, 0.1]","[0.8, 0.4, 0.2]","[u'black', u'blue', u'red']","[u'left', u'middle', u'right']","[0.8, 0.4, 0.2]","[u'high', u'medium', u'low']","blue",50,"middle","medium","True","False",668,4650,NA
"A3KC26Z78FBOJT","Wed Oct 28 2020 09:20:35 GMT-0500 (CDT)","Wed Oct 28 2020 09:28:24 GMT-0500 (CDT)","Mozilla/5.0 (Macintosh; Intel Mac OS X 10_9_5) AppleWebKit/537.36 (KHTML, like Gecko) Chrome/65.0.3325.181 Safari/537.36",82,"[0.9, 0.5, 0.1]","[0.8, 0.4, 0.2]","[u'black', u'blue', u'red']","[u'left', u'middle', u'right']","[0.8, 0.4, 0.2]","[u'high', u'medium', u'low']","blue",50,"middle","medium","True","False",176,4750,NA
"A3KC26Z78FBOJT","Wed Oct 28 2020 09:20:35 GMT-0500 (CDT)","Wed Oct 28 2020 09:28:24 GMT-0500 (CDT)","Mozilla/5.0 (Macintosh; Intel Mac OS X 10_9_5) AppleWebKit/537.36 (KHTML, like Gecko) Chrome/65.0.3325.181 Safari/537.36",83,"[0.9, 0.5, 0.1]","[0.8, 0.4, 0.2]","[u'black', u'blue', u'red']","[u'left', u'middle', u'right']","[0.8, 0.4, 0.2]","[u'high', u'medium', u'low']","blue",50,"middle","medium","False","False",244,4700,NA
"A3KC26Z78FBOJT","Wed Oct 28 2020 09:20:35 GMT-0500 (CDT)","Wed Oct 28 2020 09:28:24 GMT-0500 (CDT)","Mozilla/5.0 (Macintosh; Intel Mac OS X 10_9_5) AppleWebKit/537.36 (KHTML, like Gecko) Chrome/65.0.3325.181 Safari/537.36",84,"[0.9, 0.5, 0.1]","[0.8, 0.4, 0.2]","[u'black', u'blue', u'red']","[u'left', u'middle', u'right']","[0.8, 0.4, 0.2]","[u'high', u'medium', u'low']","red",51,"right","low","True","False",130,4800,NA
"A3KC26Z78FBOJT","Wed Oct 28 2020 09:20:35 GMT-0500 (CDT)","Wed Oct 28 2020 09:28:24 GMT-0500 (CDT)","Mozilla/5.0 (Macintosh; Intel Mac OS X 10_9_5) AppleWebKit/537.36 (KHTML, like Gecko) Chrome/65.0.3325.181 Safari/537.36",85,"[0.9, 0.5, 0.1]","[0.8, 0.4, 0.2]","[u'black', u'blue', u'red']","[u'left', u'middle', u'right']","[0.8, 0.4, 0.2]","[u'high', u'medium', u'low']","red",51,"right","low","False","False",220,4750,NA
"A3KC26Z78FBOJT","Wed Oct 28 2020 09:20:35 GMT-0500 (CDT)","Wed Oct 28 2020 09:28:24 GMT-0500 (CDT)","Mozilla/5.0 (Macintosh; Intel Mac OS X 10_9_5) AppleWebKit/537.36 (KHTML, like Gecko) Chrome/65.0.3325.181 Safari/537.36",86,"[0.9, 0.5, 0.1]","[0.8, 0.4, 0.2]","[u'black', u'blue', u'red']","[u'left', u'middle', u'right']","[0.8, 0.4, 0.2]","[u'high', u'medium', u'low']","red",51,"right","low","False","False",468,4700,NA
"A3KC26Z78FBOJT","Wed Oct 28 2020 09:20:35 GMT-0500 (CDT)","Wed Oct 28 2020 09:28:24 GMT-0500 (CDT)","Mozilla/5.0 (Macintosh; Intel Mac OS X 10_9_5) AppleWebKit/537.36 (KHTML, like Gecko) Chrome/65.0.3325.181 Safari/537.36",87,"[0.9, 0.5, 0.1]","[0.8, 0.4, 0.2]","[u'black', u'blue', u'red']","[u'left', u'middle', u'right']","[0.8, 0.4, 0.2]","[u'high', u'medium', u'low']","black",49,"left","high","True","False",210,4800,NA
"A3KC26Z78FBOJT","Wed Oct 28 2020 09:20:35 GMT-0500 (CDT)","Wed Oct 28 2020 09:28:24 GMT-0500 (CDT)","Mozilla/5.0 (Macintosh; Intel Mac OS X 10_9_5) AppleWebKit/537.36 (KHTML, like Gecko) Chrome/65.0.3325.181 Safari/537.36",88,"[0.9, 0.5, 0.1]","[0.8, 0.4, 0.2]","[u'black', u'blue', u'red']","[u'left', u'middle', u'right']","[0.8, 0.4, 0.2]","[u'high', u'medium', u'low']","black",49,"left","high","True","False",164,4900,NA
"A3KC26Z78FBOJT","Wed Oct 28 2020 09:20:35 GMT-0500 (CDT)","Wed Oct 28 2020 09:28:24 GMT-0500 (CDT)","Mozilla/5.0 (Macintosh; Intel Mac OS X 10_9_5) AppleWebKit/537.36 (KHTML, like Gecko) Chrome/65.0.3325.181 Safari/537.36",89,"[0.9, 0.5, 0.1]","[0.8, 0.4, 0.2]","[u'black', u'blue', u'red']","[u'left', u'middle', u'right']","[0.8, 0.4, 0.2]","[u'high', u'medium', u'low']","black",49,"left","high","True","False",232,5000,NA
"A3KC26Z78FBOJT","Wed Oct 28 2020 09:20:35 GMT-0500 (CDT)","Wed Oct 28 2020 09:28:24 GMT-0500 (CDT)","Mozilla/5.0 (Macintosh; Intel Mac OS X 10_9_5) AppleWebKit/537.36 (KHTML, like Gecko) Chrome/65.0.3325.181 Safari/537.36",90,"[0.9, 0.5, 0.1]","[0.8, 0.4, 0.2]","[u'black', u'blue', u'red']","[u'left', u'middle', u'right']","[0.8, 0.4, 0.2]","[u'high', u'medium', u'low']","black",49,"left","high","True","False",109,5100,NA
"A3KC26Z78FBOJT","Wed Oct 28 2020 09:20:35 GMT-0500 (CDT)","Wed Oct 28 2020 09:28:24 GMT-0500 (CDT)","Mozilla/5.0 (Macintosh; Intel Mac OS X 10_9_5) AppleWebKit/537.36 (KHTML, like Gecko) Chrome/65.0.3325.181 Safari/537.36",91,"[0.9, 0.5, 0.1]","[0.8, 0.4, 0.2]","[u'black', u'blue', u'red']","[u'left', u'middle', u'right']","[0.8, 0.4, 0.2]","[u'high', u'medium', u'low']","black",49,"left","high","True","False",277,5200,NA
"A3KC26Z78FBOJT","Wed Oct 28 2020 09:20:35 GMT-0500 (CDT)","Wed Oct 28 2020 09:28:24 GMT-0500 (CDT)","Mozilla/5.0 (Macintosh; Intel Mac OS X 10_9_5) AppleWebKit/537.36 (KHTML, like Gecko) Chrome/65.0.3325.181 Safari/537.36",92,"[0.9, 0.5, 0.1]","[0.8, 0.4, 0.2]","[u'black', u'blue', u'red']","[u'left', u'middle', u'right']","[0.8, 0.4, 0.2]","[u'high', u'medium', u'low']","black",49,"left","high","False","False",265,5150,NA
"A3KC26Z78FBOJT","Wed Oct 28 2020 09:20:35 GMT-0500 (CDT)","Wed Oct 28 2020 09:28:24 GMT-0500 (CDT)","Mozilla/5.0 (Macintosh; Intel Mac OS X 10_9_5) AppleWebKit/537.36 (KHTML, like Gecko) Chrome/65.0.3325.181 Safari/537.36",93,"[0.9, 0.5, 0.1]","[0.8, 0.4, 0.2]","[u'black', u'blue', u'red']","[u'left', u'middle', u'right']","[0.8, 0.4, 0.2]","[u'high', u'medium', u'low']","black",49,"left","high","True","False",210,5250,NA
"A3KC26Z78FBOJT","Wed Oct 28 2020 09:20:35 GMT-0500 (CDT)","Wed Oct 28 2020 09:28:24 GMT-0500 (CDT)","Mozilla/5.0 (Macintosh; Intel Mac OS X 10_9_5) AppleWebKit/537.36 (KHTML, like Gecko) Chrome/65.0.3325.181 Safari/537.36",94,"[0.9, 0.5, 0.1]","[0.8, 0.4, 0.2]","[u'black', u'blue', u'red']","[u'left', u'middle', u'right']","[0.8, 0.4, 0.2]","[u'high', u'medium', u'low']","black",49,"left","high","True","False",220,5350,NA
"A3KC26Z78FBOJT","Wed Oct 28 2020 09:20:35 GMT-0500 (CDT)","Wed Oct 28 2020 09:28:24 GMT-0500 (CDT)","Mozilla/5.0 (Macintosh; Intel Mac OS X 10_9_5) AppleWebKit/537.36 (KHTML, like Gecko) Chrome/65.0.3325.181 Safari/537.36",95,"[0.9, 0.5, 0.1]","[0.8, 0.4, 0.2]","[u'black', u'blue', u'red']","[u'left', u'middle', u'right']","[0.8, 0.4, 0.2]","[u'high', u'medium', u'low']","black",49,"left","high","True","True",165,5450,NA
"A3KC26Z78FBOJT","Wed Oct 28 2020 09:20:35 GMT-0500 (CDT)","Wed Oct 28 2020 09:28:24 GMT-0500 (CDT)","Mozilla/5.0 (Macintosh; Intel Mac OS X 10_9_5) AppleWebKit/537.36 (KHTML, like Gecko) Chrome/65.0.3325.181 Safari/537.36",96,"[0.9, 0.5, 0.1]","[0.8, 0.4, 0.2]","[u'black', u'blue', u'red']","[u'left', u'middle', u'right']","[0.8, 0.4, 0.2]","[u'medium', u'high', u'low']","black",49,"left","medium","False","False",289,5400,NA
"A3KC26Z78FBOJT","Wed Oct 28 2020 09:20:35 GMT-0500 (CDT)","Wed Oct 28 2020 09:28:24 GMT-0500 (CDT)","Mozilla/5.0 (Macintosh; Intel Mac OS X 10_9_5) AppleWebKit/537.36 (KHTML, like Gecko) Chrome/65.0.3325.181 Safari/537.36",97,"[0.9, 0.5, 0.1]","[0.8, 0.4, 0.2]","[u'black', u'blue', u'red']","[u'left', u'middle', u'right']","[0.8, 0.4, 0.2]","[u'medium', u'high', u'low']","black",49,"left","medium","True","False",62,5500,NA
"A3KC26Z78FBOJT","Wed Oct 28 2020 09:20:35 GMT-0500 (CDT)","Wed Oct 28 2020 09:28:24 GMT-0500 (CDT)","Mozilla/5.0 (Macintosh; Intel Mac OS X 10_9_5) AppleWebKit/537.36 (KHTML, like Gecko) Chrome/65.0.3325.181 Safari/537.36",98,"[0.9, 0.5, 0.1]","[0.8, 0.4, 0.2]","[u'black', u'blue', u'red']","[u'left', u'middle', u'right']","[0.8, 0.4, 0.2]","[u'medium', u'high', u'low']","black",49,"left","medium","False","False",233,5450,NA
"A3KC26Z78FBOJT","Wed Oct 28 2020 09:20:35 GMT-0500 (CDT)","Wed Oct 28 2020 09:28:24 GMT-0500 (CDT)","Mozilla/5.0 (Macintosh; Intel Mac OS X 10_9_5) AppleWebKit/537.36 (KHTML, like Gecko) Chrome/65.0.3325.181 Safari/537.36",99,"[0.9, 0.5, 0.1]","[0.8, 0.4, 0.2]","[u'black', u'blue', u'red']","[u'left', u'middle', u'right']","[0.8, 0.4, 0.2]","[u'medium', u'high', u'low']","blue",50,"middle","high","True","False",231,5550,NA
"A3KC26Z78FBOJT","Wed Oct 28 2020 09:20:35 GMT-0500 (CDT)","Wed Oct 28 2020 09:28:24 GMT-0500 (CDT)","Mozilla/5.0 (Macintosh; Intel Mac OS X 10_9_5) AppleWebKit/537.36 (KHTML, like Gecko) Chrome/65.0.3325.181 Safari/537.36",100,"[0.9, 0.5, 0.1]","[0.8, 0.4, 0.2]","[u'black', u'blue', u'red']","[u'left', u'middle', u'right']","[0.8, 0.4, 0.2]","[u'medium', u'high', u'low']","blue",50,"middle","high","True","False",151,5650,NA
"A3KC26Z78FBOJT","Wed Oct 28 2020 09:20:35 GMT-0500 (CDT)","Wed Oct 28 2020 09:28:24 GMT-0500 (CDT)","Mozilla/5.0 (Macintosh; Intel Mac OS X 10_9_5) AppleWebKit/537.36 (KHTML, like Gecko) Chrome/65.0.3325.181 Safari/537.36",101,"[0.9, 0.5, 0.1]","[0.8, 0.4, 0.2]","[u'black', u'blue', u'red']","[u'left', u'middle', u'right']","[0.8, 0.4, 0.2]","[u'medium', u'high', u'low']","blue",50,"middle","high","True","False",142,5750,NA
"A3KC26Z78FBOJT","Wed Oct 28 2020 09:20:35 GMT-0500 (CDT)","Wed Oct 28 2020 09:28:24 GMT-0500 (CDT)","Mozilla/5.0 (Macintosh; Intel Mac OS X 10_9_5) AppleWebKit/537.36 (KHTML, like Gecko) Chrome/65.0.3325.181 Safari/537.36",102,"[0.9, 0.5, 0.1]","[0.8, 0.4, 0.2]","[u'black', u'blue', u'red']","[u'left', u'middle', u'right']","[0.8, 0.4, 0.2]","[u'medium', u'high', u'low']","blue",50,"middle","high","True","False",230,5850,NA
"A3KC26Z78FBOJT","Wed Oct 28 2020 09:20:35 GMT-0500 (CDT)","Wed Oct 28 2020 09:28:24 GMT-0500 (CDT)","Mozilla/5.0 (Macintosh; Intel Mac OS X 10_9_5) AppleWebKit/537.36 (KHTML, like Gecko) Chrome/65.0.3325.181 Safari/537.36",103,"[0.9, 0.5, 0.1]","[0.8, 0.4, 0.2]","[u'black', u'blue', u'red']","[u'left', u'middle', u'right']","[0.8, 0.4, 0.2]","[u'medium', u'high', u'low']","blue",50,"middle","high","True","False",265,5950,NA
"A3KC26Z78FBOJT","Wed Oct 28 2020 09:20:35 GMT-0500 (CDT)","Wed Oct 28 2020 09:28:24 GMT-0500 (CDT)","Mozilla/5.0 (Macintosh; Intel Mac OS X 10_9_5) AppleWebKit/537.36 (KHTML, like Gecko) Chrome/65.0.3325.181 Safari/537.36",104,"[0.9, 0.5, 0.1]","[0.8, 0.4, 0.2]","[u'black', u'blue', u'red']","[u'left', u'middle', u'right']","[0.8, 0.4, 0.2]","[u'medium', u'high', u'low']","blue",50,"middle","high","True","False",254,6050,NA
"A3KC26Z78FBOJT","Wed Oct 28 2020 09:20:35 GMT-0500 (CDT)","Wed Oct 28 2020 09:28:24 GMT-0500 (CDT)","Mozilla/5.0 (Macintosh; Intel Mac OS X 10_9_5) AppleWebKit/537.36 (KHTML, like Gecko) Chrome/65.0.3325.181 Safari/537.36",105,"[0.9, 0.5, 0.1]","[0.8, 0.4, 0.2]","[u'black', u'blue', u'red']","[u'left', u'middle', u'right']","[0.8, 0.4, 0.2]","[u'medium', u'high', u'low']","blue",50,"middle","high","False","False",254,6000,NA
"A3KC26Z78FBOJT","Wed Oct 28 2020 09:20:35 GMT-0500 (CDT)","Wed Oct 28 2020 09:28:24 GMT-0500 (CDT)","Mozilla/5.0 (Macintosh; Intel Mac OS X 10_9_5) AppleWebKit/537.36 (KHTML, like Gecko) Chrome/65.0.3325.181 Safari/537.36",106,"[0.9, 0.5, 0.1]","[0.8, 0.4, 0.2]","[u'black', u'blue', u'red']","[u'left', u'middle', u'right']","[0.8, 0.4, 0.2]","[u'medium', u'high', u'low']","blue",50,"middle","high","True","False",107,6100,NA
"A3KC26Z78FBOJT","Wed Oct 28 2020 09:20:35 GMT-0500 (CDT)","Wed Oct 28 2020 09:28:24 GMT-0500 (CDT)","Mozilla/5.0 (Macintosh; Intel Mac OS X 10_9_5) AppleWebKit/537.36 (KHTML, like Gecko) Chrome/65.0.3325.181 Safari/537.36",107,"[0.9, 0.5, 0.1]","[0.8, 0.4, 0.2]","[u'black', u'blue', u'red']","[u'left', u'middle', u'right']","[0.8, 0.4, 0.2]","[u'medium', u'high', u'low']","blue",50,"middle","high","True","True",276,6200,NA
"A3KC26Z78FBOJT","Wed Oct 28 2020 09:20:35 GMT-0500 (CDT)","Wed Oct 28 2020 09:28:24 GMT-0500 (CDT)","Mozilla/5.0 (Macintosh; Intel Mac OS X 10_9_5) AppleWebKit/537.36 (KHTML, like Gecko) Chrome/65.0.3325.181 Safari/537.36",108,"[0.9, 0.5, 0.1]","[0.8, 0.4, 0.2]","[u'black', u'blue', u'red']","[u'left', u'middle', u'right']","[0.8, 0.4, 0.2]","[u'high', u'low', u'medium']","blue",50,"middle","low","True","False",197,6300,NA
"A3KC26Z78FBOJT","Wed Oct 28 2020 09:20:35 GMT-0500 (CDT)","Wed Oct 28 2020 09:28:24 GMT-0500 (CDT)","Mozilla/5.0 (Macintosh; Intel Mac OS X 10_9_5) AppleWebKit/537.36 (KHTML, like Gecko) Chrome/65.0.3325.181 Safari/537.36",109,"[0.9, 0.5, 0.1]","[0.8, 0.4, 0.2]","[u'black', u'blue', u'red']","[u'left', u'middle', u'right']","[0.8, 0.4, 0.2]","[u'high', u'low', u'medium']","blue",50,"middle","low","False","False",176,6250,NA
"A3KC26Z78FBOJT","Wed Oct 28 2020 09:20:35 GMT-0500 (CDT)","Wed Oct 28 2020 09:28:24 GMT-0500 (CDT)","Mozilla/5.0 (Macintosh; Intel Mac OS X 10_9_5) AppleWebKit/537.36 (KHTML, like Gecko) Chrome/65.0.3325.181 Safari/537.36",110,"[0.9, 0.5, 0.1]","[0.8, 0.4, 0.2]","[u'black', u'blue', u'red']","[u'left', u'middle', u'right']","[0.8, 0.4, 0.2]","[u'high', u'low', u'medium']","red",51,"right","medium","False","False",198,6200,NA
"A3KC26Z78FBOJT","Wed Oct 28 2020 09:20:35 GMT-0500 (CDT)","Wed Oct 28 2020 09:28:24 GMT-0500 (CDT)","Mozilla/5.0 (Macintosh; Intel Mac OS X 10_9_5) AppleWebKit/537.36 (KHTML, like Gecko) Chrome/65.0.3325.181 Safari/537.36",111,"[0.9, 0.5, 0.1]","[0.8, 0.4, 0.2]","[u'black', u'blue', u'red']","[u'left', u'middle', u'right']","[0.8, 0.4, 0.2]","[u'high', u'low', u'medium']","red",51,"right","medium","True","False",220,6300,NA
"A3KC26Z78FBOJT","Wed Oct 28 2020 09:20:35 GMT-0500 (CDT)","Wed Oct 28 2020 09:28:24 GMT-0500 (CDT)","Mozilla/5.0 (Macintosh; Intel Mac OS X 10_9_5) AppleWebKit/537.36 (KHTML, like Gecko) Chrome/65.0.3325.181 Safari/537.36",112,"[0.9, 0.5, 0.1]","[0.8, 0.4, 0.2]","[u'black', u'blue', u'red']","[u'left', u'middle', u'right']","[0.8, 0.4, 0.2]","[u'high', u'low', u'medium']","red",51,"right","medium","False","False",198,6250,NA
"A3KC26Z78FBOJT","Wed Oct 28 2020 09:20:35 GMT-0500 (CDT)","Wed Oct 28 2020 09:28:24 GMT-0500 (CDT)","Mozilla/5.0 (Macintosh; Intel Mac OS X 10_9_5) AppleWebKit/537.36 (KHTML, like Gecko) Chrome/65.0.3325.181 Safari/537.36",113,"[0.9, 0.5, 0.1]","[0.8, 0.4, 0.2]","[u'black', u'blue', u'red']","[u'left', u'middle', u'right']","[0.8, 0.4, 0.2]","[u'high', u'low', u'medium']","red",51,"right","medium","True","False",108,6350,NA
"A3KC26Z78FBOJT","Wed Oct 28 2020 09:20:35 GMT-0500 (CDT)","Wed Oct 28 2020 09:28:24 GMT-0500 (CDT)","Mozilla/5.0 (Macintosh; Intel Mac OS X 10_9_5) AppleWebKit/537.36 (KHTML, like Gecko) Chrome/65.0.3325.181 Safari/537.36",114,"[0.9, 0.5, 0.1]","[0.8, 0.4, 0.2]","[u'black', u'blue', u'red']","[u'left', u'middle', u'right']","[0.8, 0.4, 0.2]","[u'high', u'low', u'medium']","red",51,"right","medium","False","False",186,6300,NA
"A3KC26Z78FBOJT","Wed Oct 28 2020 09:20:35 GMT-0500 (CDT)","Wed Oct 28 2020 09:28:24 GMT-0500 (CDT)","Mozilla/5.0 (Macintosh; Intel Mac OS X 10_9_5) AppleWebKit/537.36 (KHTML, like Gecko) Chrome/65.0.3325.181 Safari/537.36",115,"[0.9, 0.5, 0.1]","[0.8, 0.4, 0.2]","[u'black', u'blue', u'red']","[u'left', u'middle', u'right']","[0.8, 0.4, 0.2]","[u'high', u'low', u'medium']","red",51,"right","medium","True","False",154,6400,NA
"A3KC26Z78FBOJT","Wed Oct 28 2020 09:20:35 GMT-0500 (CDT)","Wed Oct 28 2020 09:28:24 GMT-0500 (CDT)","Mozilla/5.0 (Macintosh; Intel Mac OS X 10_9_5) AppleWebKit/537.36 (KHTML, like Gecko) Chrome/65.0.3325.181 Safari/537.36",116,"[0.9, 0.5, 0.1]","[0.8, 0.4, 0.2]","[u'black', u'blue', u'red']","[u'left', u'middle', u'right']","[0.8, 0.4, 0.2]","[u'high', u'low', u'medium']","red",51,"right","medium","True","False",151,6500,NA
"A3KC26Z78FBOJT","Wed Oct 28 2020 09:20:35 GMT-0500 (CDT)","Wed Oct 28 2020 09:28:24 GMT-0500 (CDT)","Mozilla/5.0 (Macintosh; Intel Mac OS X 10_9_5) AppleWebKit/537.36 (KHTML, like Gecko) Chrome/65.0.3325.181 Safari/537.36",117,"[0.9, 0.5, 0.1]","[0.8, 0.4, 0.2]","[u'black', u'blue', u'red']","[u'left', u'middle', u'right']","[0.8, 0.4, 0.2]","[u'high', u'low', u'medium']","red",51,"right","medium","False","False",117,6450,NA
"A3KC26Z78FBOJT","Wed Oct 28 2020 09:20:35 GMT-0500 (CDT)","Wed Oct 28 2020 09:28:24 GMT-0500 (CDT)","Mozilla/5.0 (Macintosh; Intel Mac OS X 10_9_5) AppleWebKit/537.36 (KHTML, like Gecko) Chrome/65.0.3325.181 Safari/537.36",118,"[0.9, 0.5, 0.1]","[0.8, 0.4, 0.2]","[u'black', u'blue', u'red']","[u'left', u'middle', u'right']","[0.8, 0.4, 0.2]","[u'high', u'low', u'medium']","blue",50,"middle","low","False","False",199,6400,NA
"A3KC26Z78FBOJT","Wed Oct 28 2020 09:20:35 GMT-0500 (CDT)","Wed Oct 28 2020 09:28:24 GMT-0500 (CDT)","Mozilla/5.0 (Macintosh; Intel Mac OS X 10_9_5) AppleWebKit/537.36 (KHTML, like Gecko) Chrome/65.0.3325.181 Safari/537.36",119,"[0.9, 0.5, 0.1]","[0.8, 0.4, 0.2]","[u'black', u'blue', u'red']","[u'left', u'middle', u'right']","[0.8, 0.4, 0.2]","[u'high', u'low', u'medium']","black",49,"left","high","True","False",490,6500,NA
"A3KC26Z78FBOJT","Wed Oct 28 2020 09:20:35 GMT-0500 (CDT)","Wed Oct 28 2020 09:28:24 GMT-0500 (CDT)","Mozilla/5.0 (Macintosh; Intel Mac OS X 10_9_5) AppleWebKit/537.36 (KHTML, like Gecko) Chrome/65.0.3325.181 Safari/537.36",120,"[0.9, 0.5, 0.1]","[0.8, 0.4, 0.2]","[u'black', u'blue', u'red']","[u'left', u'middle', u'right']","[0.8, 0.4, 0.2]","[u'high', u'low', u'medium']","black",49,"left","high","True","False",198,6600,NA
"A3KC26Z78FBOJT","Wed Oct 28 2020 09:20:35 GMT-0500 (CDT)","Wed Oct 28 2020 09:28:24 GMT-0500 (CDT)","Mozilla/5.0 (Macintosh; Intel Mac OS X 10_9_5) AppleWebKit/537.36 (KHTML, like Gecko) Chrome/65.0.3325.181 Safari/537.36",121,"[0.9, 0.5, 0.1]","[0.8, 0.4, 0.2]","[u'black', u'blue', u'red']","[u'left', u'middle', u'right']","[0.8, 0.4, 0.2]","[u'medium', u'high', u'low']","black",49,"left","medium","True","False",647,6700,NA
"A3KC26Z78FBOJT","Wed Oct 28 2020 09:20:35 GMT-0500 (CDT)","Wed Oct 28 2020 09:28:24 GMT-0500 (CDT)","Mozilla/5.0 (Macintosh; Intel Mac OS X 10_9_5) AppleWebKit/537.36 (KHTML, like Gecko) Chrome/65.0.3325.181 Safari/537.36",122,"[0.9, 0.5, 0.1]","[0.8, 0.4, 0.2]","[u'black', u'blue', u'red']","[u'left', u'middle', u'right']","[0.8, 0.4, 0.2]","[u'medium', u'high', u'low']","black",49,"left","medium","True","False",210,6800,NA
"A3KC26Z78FBOJT","Wed Oct 28 2020 09:20:35 GMT-0500 (CDT)","Wed Oct 28 2020 09:28:24 GMT-0500 (CDT)","Mozilla/5.0 (Macintosh; Intel Mac OS X 10_9_5) AppleWebKit/537.36 (KHTML, like Gecko) Chrome/65.0.3325.181 Safari/537.36",123,"[0.9, 0.5, 0.1]","[0.8, 0.4, 0.2]","[u'black', u'blue', u'red']","[u'left', u'middle', u'right']","[0.8, 0.4, 0.2]","[u'medium', u'high', u'low']","black",49,"left","medium","True","False",253,6900,NA
"A3KC26Z78FBOJT","Wed Oct 28 2020 09:20:35 GMT-0500 (CDT)","Wed Oct 28 2020 09:28:24 GMT-0500 (CDT)","Mozilla/5.0 (Macintosh; Intel Mac OS X 10_9_5) AppleWebKit/537.36 (KHTML, like Gecko) Chrome/65.0.3325.181 Safari/537.36",124,"[0.9, 0.5, 0.1]","[0.8, 0.4, 0.2]","[u'black', u'blue', u'red']","[u'left', u'middle', u'right']","[0.8, 0.4, 0.2]","[u'medium', u'high', u'low']","black",49,"left","medium","False","False",254,6850,NA
"A3KC26Z78FBOJT","Wed Oct 28 2020 09:20:35 GMT-0500 (CDT)","Wed Oct 28 2020 09:28:24 GMT-0500 (CDT)","Mozilla/5.0 (Macintosh; Intel Mac OS X 10_9_5) AppleWebKit/537.36 (KHTML, like Gecko) Chrome/65.0.3325.181 Safari/537.36",125,"[0.9, 0.5, 0.1]","[0.8, 0.4, 0.2]","[u'black', u'blue', u'red']","[u'left', u'middle', u'right']","[0.8, 0.4, 0.2]","[u'medium', u'high', u'low']","blue",50,"middle","high","True","False",73,6950,NA
"A3KC26Z78FBOJT","Wed Oct 28 2020 09:20:35 GMT-0500 (CDT)","Wed Oct 28 2020 09:28:24 GMT-0500 (CDT)","Mozilla/5.0 (Macintosh; Intel Mac OS X 10_9_5) AppleWebKit/537.36 (KHTML, like Gecko) Chrome/65.0.3325.181 Safari/537.36",126,"[0.9, 0.5, 0.1]","[0.8, 0.4, 0.2]","[u'black', u'blue', u'red']","[u'left', u'middle', u'right']","[0.8, 0.4, 0.2]","[u'medium', u'high', u'low']","blue",50,"middle","high","True","False",220,7050,NA
"A3KC26Z78FBOJT","Wed Oct 28 2020 09:20:35 GMT-0500 (CDT)","Wed Oct 28 2020 09:28:24 GMT-0500 (CDT)","Mozilla/5.0 (Macintosh; Intel Mac OS X 10_9_5) AppleWebKit/537.36 (KHTML, like Gecko) Chrome/65.0.3325.181 Safari/537.36",127,"[0.9, 0.5, 0.1]","[0.8, 0.4, 0.2]","[u'black', u'blue', u'red']","[u'left', u'middle', u'right']","[0.8, 0.4, 0.2]","[u'medium', u'high', u'low']","blue",50,"middle","high","True","False",140,7150,NA
"A3KC26Z78FBOJT","Wed Oct 28 2020 09:20:35 GMT-0500 (CDT)","Wed Oct 28 2020 09:28:24 GMT-0500 (CDT)","Mozilla/5.0 (Macintosh; Intel Mac OS X 10_9_5) AppleWebKit/537.36 (KHTML, like Gecko) Chrome/65.0.3325.181 Safari/537.36",128,"[0.9, 0.5, 0.1]","[0.8, 0.4, 0.2]","[u'black', u'blue', u'red']","[u'left', u'middle', u'right']","[0.8, 0.4, 0.2]","[u'medium', u'high', u'low']","blue",50,"middle","high","False","False",208,7100,NA
"A3KC26Z78FBOJT","Wed Oct 28 2020 09:20:35 GMT-0500 (CDT)","Wed Oct 28 2020 09:28:24 GMT-0500 (CDT)","Mozilla/5.0 (Macintosh; Intel Mac OS X 10_9_5) AppleWebKit/537.36 (KHTML, like Gecko) Chrome/65.0.3325.181 Safari/537.36",129,"[0.9, 0.5, 0.1]","[0.8, 0.4, 0.2]","[u'black', u'blue', u'red']","[u'left', u'middle', u'right']","[0.8, 0.4, 0.2]","[u'medium', u'high', u'low']","blue",50,"middle","high","True","False",119,7200,NA
"A3KC26Z78FBOJT","Wed Oct 28 2020 09:20:35 GMT-0500 (CDT)","Wed Oct 28 2020 09:28:24 GMT-0500 (CDT)","Mozilla/5.0 (Macintosh; Intel Mac OS X 10_9_5) AppleWebKit/537.36 (KHTML, like Gecko) Chrome/65.0.3325.181 Safari/537.36",130,"[0.9, 0.5, 0.1]","[0.8, 0.4, 0.2]","[u'black', u'blue', u'red']","[u'left', u'middle', u'right']","[0.8, 0.4, 0.2]","[u'medium', u'high', u'low']","blue",50,"middle","high","True","False",199,7300,NA
"A3KC26Z78FBOJT","Wed Oct 28 2020 09:20:35 GMT-0500 (CDT)","Wed Oct 28 2020 09:28:24 GMT-0500 (CDT)","Mozilla/5.0 (Macintosh; Intel Mac OS X 10_9_5) AppleWebKit/537.36 (KHTML, like Gecko) Chrome/65.0.3325.181 Safari/537.36",131,"[0.9, 0.5, 0.1]","[0.8, 0.4, 0.2]","[u'black', u'blue', u'red']","[u'left', u'middle', u'right']","[0.8, 0.4, 0.2]","[u'medium', u'high', u'low']","blue",50,"middle","high","True","False",208,7400,NA
"A3KC26Z78FBOJT","Wed Oct 28 2020 09:20:35 GMT-0500 (CDT)","Wed Oct 28 2020 09:28:24 GMT-0500 (CDT)","Mozilla/5.0 (Macintosh; Intel Mac OS X 10_9_5) AppleWebKit/537.36 (KHTML, like Gecko) Chrome/65.0.3325.181 Safari/537.36",132,"[0.9, 0.5, 0.1]","[0.8, 0.4, 0.2]","[u'black', u'blue', u'red']","[u'left', u'middle', u'right']","[0.8, 0.4, 0.2]","[u'medium', u'high', u'low']","blue",50,"middle","high","True","False",208,7500,NA
"A3KC26Z78FBOJT","Wed Oct 28 2020 09:20:35 GMT-0500 (CDT)","Wed Oct 28 2020 09:28:24 GMT-0500 (CDT)","Mozilla/5.0 (Macintosh; Intel Mac OS X 10_9_5) AppleWebKit/537.36 (KHTML, like Gecko) Chrome/65.0.3325.181 Safari/537.36",133,"[0.9, 0.5, 0.1]","[0.8, 0.4, 0.2]","[u'black', u'blue', u'red']","[u'left', u'middle', u'right']","[0.8, 0.4, 0.2]","[u'medium', u'high', u'low']","blue",50,"middle","high","True","True",221,7600,NA
"A3KC26Z78FBOJT","Wed Oct 28 2020 09:20:35 GMT-0500 (CDT)","Wed Oct 28 2020 09:28:24 GMT-0500 (CDT)","Mozilla/5.0 (Macintosh; Intel Mac OS X 10_9_5) AppleWebKit/537.36 (KHTML, like Gecko) Chrome/65.0.3325.181 Safari/537.36",134,"[0.9, 0.5, 0.1]","[0.8, 0.4, 0.2]","[u'black', u'blue', u'red']","[u'left', u'middle', u'right']","[0.8, 0.4, 0.2]","[u'high', u'medium', u'low']","blue",50,"middle","medium","False","False",254,7550,NA
"A3KC26Z78FBOJT","Wed Oct 28 2020 09:20:35 GMT-0500 (CDT)","Wed Oct 28 2020 09:28:24 GMT-0500 (CDT)","Mozilla/5.0 (Macintosh; Intel Mac OS X 10_9_5) AppleWebKit/537.36 (KHTML, like Gecko) Chrome/65.0.3325.181 Safari/537.36",135,"[0.9, 0.5, 0.1]","[0.8, 0.4, 0.2]","[u'black', u'blue', u'red']","[u'left', u'middle', u'right']","[0.8, 0.4, 0.2]","[u'high', u'medium', u'low']","blue",50,"middle","medium","True","False",119,7650,NA
"A3KC26Z78FBOJT","Wed Oct 28 2020 09:20:35 GMT-0500 (CDT)","Wed Oct 28 2020 09:28:24 GMT-0500 (CDT)","Mozilla/5.0 (Macintosh; Intel Mac OS X 10_9_5) AppleWebKit/537.36 (KHTML, like Gecko) Chrome/65.0.3325.181 Safari/537.36",136,"[0.9, 0.5, 0.1]","[0.8, 0.4, 0.2]","[u'black', u'blue', u'red']","[u'left', u'middle', u'right']","[0.8, 0.4, 0.2]","[u'high', u'medium', u'low']","blue",50,"middle","medium","False","False",242,7600,NA
"A3KC26Z78FBOJT","Wed Oct 28 2020 09:20:35 GMT-0500 (CDT)","Wed Oct 28 2020 09:28:24 GMT-0500 (CDT)","Mozilla/5.0 (Macintosh; Intel Mac OS X 10_9_5) AppleWebKit/537.36 (KHTML, like Gecko) Chrome/65.0.3325.181 Safari/537.36",137,"[0.9, 0.5, 0.1]","[0.8, 0.4, 0.2]","[u'black', u'blue', u'red']","[u'left', u'middle', u'right']","[0.8, 0.4, 0.2]","[u'high', u'medium', u'low']","red",51,"right","low","False","False",153,7550,NA
"A3KC26Z78FBOJT","Wed Oct 28 2020 09:20:35 GMT-0500 (CDT)","Wed Oct 28 2020 09:28:24 GMT-0500 (CDT)","Mozilla/5.0 (Macintosh; Intel Mac OS X 10_9_5) AppleWebKit/537.36 (KHTML, like Gecko) Chrome/65.0.3325.181 Safari/537.36",138,"[0.9, 0.5, 0.1]","[0.8, 0.4, 0.2]","[u'black', u'blue', u'red']","[u'left', u'middle', u'right']","[0.8, 0.4, 0.2]","[u'high', u'medium', u'low']","black",49,"left","high","True","False",187,7650,NA
"A3KC26Z78FBOJT","Wed Oct 28 2020 09:20:35 GMT-0500 (CDT)","Wed Oct 28 2020 09:28:24 GMT-0500 (CDT)","Mozilla/5.0 (Macintosh; Intel Mac OS X 10_9_5) AppleWebKit/537.36 (KHTML, like Gecko) Chrome/65.0.3325.181 Safari/537.36",139,"[0.9, 0.5, 0.1]","[0.8, 0.4, 0.2]","[u'black', u'blue', u'red']","[u'left', u'middle', u'right']","[0.8, 0.4, 0.2]","[u'high', u'medium', u'low']","black",49,"left","high","True","False",264,7750,NA
"A3KC26Z78FBOJT","Wed Oct 28 2020 09:20:35 GMT-0500 (CDT)","Wed Oct 28 2020 09:28:24 GMT-0500 (CDT)","Mozilla/5.0 (Macintosh; Intel Mac OS X 10_9_5) AppleWebKit/537.36 (KHTML, like Gecko) Chrome/65.0.3325.181 Safari/537.36",140,"[0.9, 0.5, 0.1]","[0.8, 0.4, 0.2]","[u'black', u'blue', u'red']","[u'left', u'middle', u'right']","[0.8, 0.4, 0.2]","[u'high', u'medium', u'low']","black",49,"left","high","True","False",265,7850,NA
"A3KC26Z78FBOJT","Wed Oct 28 2020 09:20:35 GMT-0500 (CDT)","Wed Oct 28 2020 09:28:24 GMT-0500 (CDT)","Mozilla/5.0 (Macintosh; Intel Mac OS X 10_9_5) AppleWebKit/537.36 (KHTML, like Gecko) Chrome/65.0.3325.181 Safari/537.36",141,"[0.9, 0.5, 0.1]","[0.8, 0.4, 0.2]","[u'black', u'blue', u'red']","[u'left', u'middle', u'right']","[0.8, 0.4, 0.2]","[u'high', u'medium', u'low']","black",49,"left","high","True","False",129,7950,NA
"A3KC26Z78FBOJT","Wed Oct 28 2020 09:20:35 GMT-0500 (CDT)","Wed Oct 28 2020 09:28:24 GMT-0500 (CDT)","Mozilla/5.0 (Macintosh; Intel Mac OS X 10_9_5) AppleWebKit/537.36 (KHTML, like Gecko) Chrome/65.0.3325.181 Safari/537.36",142,"[0.9, 0.5, 0.1]","[0.8, 0.4, 0.2]","[u'black', u'blue', u'red']","[u'left', u'middle', u'right']","[0.8, 0.4, 0.2]","[u'high', u'medium', u'low']","black",49,"left","high","True","False",175,8050,NA
"A3KC26Z78FBOJT","Wed Oct 28 2020 09:20:35 GMT-0500 (CDT)","Wed Oct 28 2020 09:28:24 GMT-0500 (CDT)","Mozilla/5.0 (Macintosh; Intel Mac OS X 10_9_5) AppleWebKit/537.36 (KHTML, like Gecko) Chrome/65.0.3325.181 Safari/537.36",143,"[0.9, 0.5, 0.1]","[0.8, 0.4, 0.2]","[u'black', u'blue', u'red']","[u'left', u'middle', u'right']","[0.8, 0.4, 0.2]","[u'high', u'medium', u'low']","black",49,"left","high","True","False",186,8150,NA
"A3KC26Z78FBOJT","Wed Oct 28 2020 09:20:35 GMT-0500 (CDT)","Wed Oct 28 2020 09:28:24 GMT-0500 (CDT)","Mozilla/5.0 (Macintosh; Intel Mac OS X 10_9_5) AppleWebKit/537.36 (KHTML, like Gecko) Chrome/65.0.3325.181 Safari/537.36",144,"[0.9, 0.5, 0.1]","[0.8, 0.4, 0.2]","[u'black', u'blue', u'red']","[u'left', u'middle', u'right']","[0.8, 0.4, 0.2]","[u'high', u'medium', u'low']","black",49,"left","high","True","False",40,8250,NA
"A3KC26Z78FBOJT","Wed Oct 28 2020 09:20:35 GMT-0500 (CDT)","Wed Oct 28 2020 09:28:24 GMT-0500 (CDT)","Mozilla/5.0 (Macintosh; Intel Mac OS X 10_9_5) AppleWebKit/537.36 (KHTML, like Gecko) Chrome/65.0.3325.181 Safari/537.36",145,"[0.9, 0.5, 0.1]","[0.8, 0.4, 0.2]","[u'black', u'blue', u'red']","[u'left', u'middle', u'right']","[0.8, 0.4, 0.2]","[u'high', u'medium', u'low']","black",49,"left","high","True","False",129,8350,NA
"A3KC26Z78FBOJT","Wed Oct 28 2020 09:20:35 GMT-0500 (CDT)","Wed Oct 28 2020 09:28:24 GMT-0500 (CDT)","Mozilla/5.0 (Macintosh; Intel Mac OS X 10_9_5) AppleWebKit/537.36 (KHTML, like Gecko) Chrome/65.0.3325.181 Safari/537.36",146,"[0.9, 0.5, 0.1]","[0.8, 0.4, 0.2]","[u'black', u'blue', u'red']","[u'left', u'middle', u'right']","[0.8, 0.4, 0.2]","[u'high', u'medium', u'low']","black",49,"left","high","True","True",187,8450,NA
"A3KC26Z78FBOJT","Wed Oct 28 2020 09:20:35 GMT-0500 (CDT)","Wed Oct 28 2020 09:28:24 GMT-0500 (CDT)","Mozilla/5.0 (Macintosh; Intel Mac OS X 10_9_5) AppleWebKit/537.36 (KHTML, like Gecko) Chrome/65.0.3325.181 Safari/537.36",147,"[0.9, 0.5, 0.1]","[0.8, 0.4, 0.2]","[u'black', u'blue', u'red']","[u'left', u'middle', u'right']","[0.8, 0.4, 0.2]","[u'medium', u'low', u'high']","black",49,"left","medium","True","False",129,8550,NA
"A3KC26Z78FBOJT","Wed Oct 28 2020 09:20:35 GMT-0500 (CDT)","Wed Oct 28 2020 09:28:24 GMT-0500 (CDT)","Mozilla/5.0 (Macintosh; Intel Mac OS X 10_9_5) AppleWebKit/537.36 (KHTML, like Gecko) Chrome/65.0.3325.181 Safari/537.36",148,"[0.9, 0.5, 0.1]","[0.8, 0.4, 0.2]","[u'black', u'blue', u'red']","[u'left', u'middle', u'right']","[0.8, 0.4, 0.2]","[u'medium', u'low', u'high']","black",49,"left","medium","False","False",175,8500,NA
"A3KC26Z78FBOJT","Wed Oct 28 2020 09:20:35 GMT-0500 (CDT)","Wed Oct 28 2020 09:28:24 GMT-0500 (CDT)","Mozilla/5.0 (Macintosh; Intel Mac OS X 10_9_5) AppleWebKit/537.36 (KHTML, like Gecko) Chrome/65.0.3325.181 Safari/537.36",149,"[0.9, 0.5, 0.1]","[0.8, 0.4, 0.2]","[u'black', u'blue', u'red']","[u'left', u'middle', u'right']","[0.8, 0.4, 0.2]","[u'medium', u'low', u'high']","black",49,"left","medium","True","False",401,8600,NA
"A3KC26Z78FBOJT","Wed Oct 28 2020 09:20:35 GMT-0500 (CDT)","Wed Oct 28 2020 09:28:24 GMT-0500 (CDT)","Mozilla/5.0 (Macintosh; Intel Mac OS X 10_9_5) AppleWebKit/537.36 (KHTML, like Gecko) Chrome/65.0.3325.181 Safari/537.36",150,"[0.9, 0.5, 0.1]","[0.8, 0.4, 0.2]","[u'black', u'blue', u'red']","[u'left', u'middle', u'right']","[0.8, 0.4, 0.2]","[u'medium', u'low', u'high']","black",49,"left","medium","False","False",107,8550,NA
"A3KC26Z78FBOJT","Wed Oct 28 2020 09:20:35 GMT-0500 (CDT)","Wed Oct 28 2020 09:28:24 GMT-0500 (CDT)","Mozilla/5.0 (Macintosh; Intel Mac OS X 10_9_5) AppleWebKit/537.36 (KHTML, like Gecko) Chrome/65.0.3325.181 Safari/537.36",151,"[0.9, 0.5, 0.1]","[0.8, 0.4, 0.2]","[u'black', u'blue', u'red']","[u'left', u'middle', u'right']","[0.8, 0.4, 0.2]","[u'medium', u'low', u'high']","red",51,"right","high","True","False",152,8650,NA
"A3KC26Z78FBOJT","Wed Oct 28 2020 09:20:35 GMT-0500 (CDT)","Wed Oct 28 2020 09:28:24 GMT-0500 (CDT)","Mozilla/5.0 (Macintosh; Intel Mac OS X 10_9_5) AppleWebKit/537.36 (KHTML, like Gecko) Chrome/65.0.3325.181 Safari/537.36",152,"[0.9, 0.5, 0.1]","[0.8, 0.4, 0.2]","[u'black', u'blue', u'red']","[u'left', u'middle', u'right']","[0.8, 0.4, 0.2]","[u'medium', u'low', u'high']","red",51,"right","high","True","False",277,8750,NA
"A3KC26Z78FBOJT","Wed Oct 28 2020 09:20:35 GMT-0500 (CDT)","Wed Oct 28 2020 09:28:24 GMT-0500 (CDT)","Mozilla/5.0 (Macintosh; Intel Mac OS X 10_9_5) AppleWebKit/537.36 (KHTML, like Gecko) Chrome/65.0.3325.181 Safari/537.36",153,"[0.9, 0.5, 0.1]","[0.8, 0.4, 0.2]","[u'black', u'blue', u'red']","[u'left', u'middle', u'right']","[0.8, 0.4, 0.2]","[u'medium', u'low', u'high']","red",51,"right","high","True","False",97,8850,NA
"A3KC26Z78FBOJT","Wed Oct 28 2020 09:20:35 GMT-0500 (CDT)","Wed Oct 28 2020 09:28:24 GMT-0500 (CDT)","Mozilla/5.0 (Macintosh; Intel Mac OS X 10_9_5) AppleWebKit/537.36 (KHTML, like Gecko) Chrome/65.0.3325.181 Safari/537.36",154,"[0.9, 0.5, 0.1]","[0.8, 0.4, 0.2]","[u'black', u'blue', u'red']","[u'left', u'middle', u'right']","[0.8, 0.4, 0.2]","[u'medium', u'low', u'high']","red",51,"right","high","True","False",199,8950,NA
"A3KC26Z78FBOJT","Wed Oct 28 2020 09:20:35 GMT-0500 (CDT)","Wed Oct 28 2020 09:28:24 GMT-0500 (CDT)","Mozilla/5.0 (Macintosh; Intel Mac OS X 10_9_5) AppleWebKit/537.36 (KHTML, like Gecko) Chrome/65.0.3325.181 Safari/537.36",155,"[0.9, 0.5, 0.1]","[0.8, 0.4, 0.2]","[u'black', u'blue', u'red']","[u'left', u'middle', u'right']","[0.8, 0.4, 0.2]","[u'medium', u'low', u'high']","red",51,"right","high","True","False",119,9050,NA
"A3KC26Z78FBOJT","Wed Oct 28 2020 09:20:35 GMT-0500 (CDT)","Wed Oct 28 2020 09:28:24 GMT-0500 (CDT)","Mozilla/5.0 (Macintosh; Intel Mac OS X 10_9_5) AppleWebKit/537.36 (KHTML, like Gecko) Chrome/65.0.3325.181 Safari/537.36",156,"[0.9, 0.5, 0.1]","[0.8, 0.4, 0.2]","[u'black', u'blue', u'red']","[u'left', u'middle', u'right']","[0.8, 0.4, 0.2]","[u'medium', u'low', u'high']","red",51,"right","high","False","False",231,9000,NA
"A3KC26Z78FBOJT","Wed Oct 28 2020 09:20:35 GMT-0500 (CDT)","Wed Oct 28 2020 09:28:24 GMT-0500 (CDT)","Mozilla/5.0 (Macintosh; Intel Mac OS X 10_9_5) AppleWebKit/537.36 (KHTML, like Gecko) Chrome/65.0.3325.181 Safari/537.36",157,"[0.9, 0.5, 0.1]","[0.8, 0.4, 0.2]","[u'black', u'blue', u'red']","[u'left', u'middle', u'right']","[0.8, 0.4, 0.2]","[u'medium', u'low', u'high']","red",51,"right","high","True","False",120,9100,NA
"A3KC26Z78FBOJT","Wed Oct 28 2020 09:20:35 GMT-0500 (CDT)","Wed Oct 28 2020 09:28:24 GMT-0500 (CDT)","Mozilla/5.0 (Macintosh; Intel Mac OS X 10_9_5) AppleWebKit/537.36 (KHTML, like Gecko) Chrome/65.0.3325.181 Safari/537.36",158,"[0.9, 0.5, 0.1]","[0.8, 0.4, 0.2]","[u'black', u'blue', u'red']","[u'left', u'middle', u'right']","[0.8, 0.4, 0.2]","[u'medium', u'low', u'high']","red",51,"right","high","False","False",253,9050,NA
"A3KC26Z78FBOJT","Wed Oct 28 2020 09:20:35 GMT-0500 (CDT)","Wed Oct 28 2020 09:28:24 GMT-0500 (CDT)","Mozilla/5.0 (Macintosh; Intel Mac OS X 10_9_5) AppleWebKit/537.36 (KHTML, like Gecko) Chrome/65.0.3325.181 Safari/537.36",159,"[0.9, 0.5, 0.1]","[0.8, 0.4, 0.2]","[u'black', u'blue', u'red']","[u'left', u'middle', u'right']","[0.8, 0.4, 0.2]","[u'medium', u'low', u'high']","blue",50,"middle","low","False","False",141,9000,NA
"A3KC26Z78FBOJT","Wed Oct 28 2020 09:20:35 GMT-0500 (CDT)","Wed Oct 28 2020 09:28:24 GMT-0500 (CDT)","Mozilla/5.0 (Macintosh; Intel Mac OS X 10_9_5) AppleWebKit/537.36 (KHTML, like Gecko) Chrome/65.0.3325.181 Safari/537.36",160,"[0.9, 0.5, 0.1]","[0.8, 0.4, 0.2]","[u'black', u'blue', u'red']","[u'left', u'middle', u'right']","[0.8, 0.4, 0.2]","[u'medium', u'low', u'high']","blue",50,"middle","low","False","False",176,8950,NA
