"src_subject_id","start_time","end_time","browser","index","first_half_probabilities","second_half_probabilities","deck_color","deck_position","deck_probabilities","deck_contingencies","response_color","key_press","response_position","response_probability","reward_type","trial_type","rt","reward_tally","exclusion_reason"
"A22KRF782ELLB0","Wed Oct 28 2020 09:32:16 GMT-0500 (Central Daylight Time)","Wed Oct 28 2020 09:39:31 GMT-0500 (Central Daylight Time)","Mozilla/5.0 (X11; Ubuntu; Linux x86_64; rv:82.0) Gecko/20100101 Firefox/82.0",1,"[0.9, 0.5, 0.1]","[0.8, 0.4, 0.2]","[u'black', u'blue', u'red']","[u'left', u'middle', u'right']","[0.9, 0.5, 0.1]","[u'high', u'low', u'medium']","black",49,"left","high","True","False",1130,100,NA
"A22KRF782ELLB0","Wed Oct 28 2020 09:32:16 GMT-0500 (Central Daylight Time)","Wed Oct 28 2020 09:39:31 GMT-0500 (Central Daylight Time)","Mozilla/5.0 (X11; Ubuntu; Linux x86_64; rv:82.0) Gecko/20100101 Firefox/82.0",2,"[0.9, 0.5, 0.1]","[0.8, 0.4, 0.2]","[u'black', u'blue', u'red']","[u'left', u'middle', u'right']","[0.9, 0.5, 0.1]","[u'high', u'low', u'medium']","black",49,"left","high","True","False",602,200,NA
"A22KRF782ELLB0","Wed Oct 28 2020 09:32:16 GMT-0500 (Central Daylight Time)","Wed Oct 28 2020 09:39:31 GMT-0500 (Central Daylight Time)","Mozilla/5.0 (X11; Ubuntu; Linux x86_64; rv:82.0) Gecko/20100101 Firefox/82.0",3,"[0.9, 0.5, 0.1]","[0.8, 0.4, 0.2]","[u'black', u'blue', u'red']","[u'left', u'middle', u'right']","[0.9, 0.5, 0.1]","[u'high', u'low', u'medium']","black",49,"left","high","True","False",568,300,NA
"A22KRF782ELLB0","Wed Oct 28 2020 09:32:16 GMT-0500 (Central Daylight Time)","Wed Oct 28 2020 09:39:31 GMT-0500 (Central Daylight Time)","Mozilla/5.0 (X11; Ubuntu; Linux x86_64; rv:82.0) Gecko/20100101 Firefox/82.0",4,"[0.9, 0.5, 0.1]","[0.8, 0.4, 0.2]","[u'black', u'blue', u'red']","[u'left', u'middle', u'right']","[0.9, 0.5, 0.1]","[u'high', u'low', u'medium']","black",49,"left","high","False","False",475,250,NA
"A22KRF782ELLB0","Wed Oct 28 2020 09:32:16 GMT-0500 (Central Daylight Time)","Wed Oct 28 2020 09:39:31 GMT-0500 (Central Daylight Time)","Mozilla/5.0 (X11; Ubuntu; Linux x86_64; rv:82.0) Gecko/20100101 Firefox/82.0",5,"[0.9, 0.5, 0.1]","[0.8, 0.4, 0.2]","[u'black', u'blue', u'red']","[u'left', u'middle', u'right']","[0.9, 0.5, 0.1]","[u'high', u'low', u'medium']","black",49,"left","high","True","False",450,350,NA
"A22KRF782ELLB0","Wed Oct 28 2020 09:32:16 GMT-0500 (Central Daylight Time)","Wed Oct 28 2020 09:39:31 GMT-0500 (Central Daylight Time)","Mozilla/5.0 (X11; Ubuntu; Linux x86_64; rv:82.0) Gecko/20100101 Firefox/82.0",6,"[0.9, 0.5, 0.1]","[0.8, 0.4, 0.2]","[u'black', u'blue', u'red']","[u'left', u'middle', u'right']","[0.9, 0.5, 0.1]","[u'high', u'low', u'medium']","black",49,"left","high","True","False",268,450,NA
"A22KRF782ELLB0","Wed Oct 28 2020 09:32:16 GMT-0500 (Central Daylight Time)","Wed Oct 28 2020 09:39:31 GMT-0500 (Central Daylight Time)","Mozilla/5.0 (X11; Ubuntu; Linux x86_64; rv:82.0) Gecko/20100101 Firefox/82.0",7,"[0.9, 0.5, 0.1]","[0.8, 0.4, 0.2]","[u'black', u'blue', u'red']","[u'left', u'middle', u'right']","[0.9, 0.5, 0.1]","[u'high', u'low', u'medium']","black",49,"left","high","True","False",525,550,NA
"A22KRF782ELLB0","Wed Oct 28 2020 09:32:16 GMT-0500 (Central Daylight Time)","Wed Oct 28 2020 09:39:31 GMT-0500 (Central Daylight Time)","Mozilla/5.0 (X11; Ubuntu; Linux x86_64; rv:82.0) Gecko/20100101 Firefox/82.0",8,"[0.9, 0.5, 0.1]","[0.8, 0.4, 0.2]","[u'black', u'blue', u'red']","[u'left', u'middle', u'right']","[0.9, 0.5, 0.1]","[u'high', u'low', u'medium']","black",49,"left","high","True","False",457,650,NA
"A22KRF782ELLB0","Wed Oct 28 2020 09:32:16 GMT-0500 (Central Daylight Time)","Wed Oct 28 2020 09:39:31 GMT-0500 (Central Daylight Time)","Mozilla/5.0 (X11; Ubuntu; Linux x86_64; rv:82.0) Gecko/20100101 Firefox/82.0",9,"[0.9, 0.5, 0.1]","[0.8, 0.4, 0.2]","[u'black', u'blue', u'red']","[u'left', u'middle', u'right']","[0.9, 0.5, 0.1]","[u'high', u'low', u'medium']","black",49,"left","high","True","True",433,750,NA
"A22KRF782ELLB0","Wed Oct 28 2020 09:32:16 GMT-0500 (Central Daylight Time)","Wed Oct 28 2020 09:39:31 GMT-0500 (Central Daylight Time)","Mozilla/5.0 (X11; Ubuntu; Linux x86_64; rv:82.0) Gecko/20100101 Firefox/82.0",10,"[0.9, 0.5, 0.1]","[0.8, 0.4, 0.2]","[u'black', u'blue', u'red']","[u'left', u'middle', u'right']","[0.9, 0.5, 0.1]","[u'low', u'high', u'medium']","black",49,"left","low","False","False",539,700,NA
"A22KRF782ELLB0","Wed Oct 28 2020 09:32:16 GMT-0500 (Central Daylight Time)","Wed Oct 28 2020 09:39:31 GMT-0500 (Central Daylight Time)","Mozilla/5.0 (X11; Ubuntu; Linux x86_64; rv:82.0) Gecko/20100101 Firefox/82.0",11,"[0.9, 0.5, 0.1]","[0.8, 0.4, 0.2]","[u'black', u'blue', u'red']","[u'left', u'middle', u'right']","[0.9, 0.5, 0.1]","[u'low', u'high', u'medium']","black",49,"left","low","True","False",346,800,NA
"A22KRF782ELLB0","Wed Oct 28 2020 09:32:16 GMT-0500 (Central Daylight Time)","Wed Oct 28 2020 09:39:31 GMT-0500 (Central Daylight Time)","Mozilla/5.0 (X11; Ubuntu; Linux x86_64; rv:82.0) Gecko/20100101 Firefox/82.0",12,"[0.9, 0.5, 0.1]","[0.8, 0.4, 0.2]","[u'black', u'blue', u'red']","[u'left', u'middle', u'right']","[0.9, 0.5, 0.1]","[u'low', u'high', u'medium']","black",49,"left","low","False","False",458,750,NA
"A22KRF782ELLB0","Wed Oct 28 2020 09:32:16 GMT-0500 (Central Daylight Time)","Wed Oct 28 2020 09:39:31 GMT-0500 (Central Daylight Time)","Mozilla/5.0 (X11; Ubuntu; Linux x86_64; rv:82.0) Gecko/20100101 Firefox/82.0",13,"[0.9, 0.5, 0.1]","[0.8, 0.4, 0.2]","[u'black', u'blue', u'red']","[u'left', u'middle', u'right']","[0.9, 0.5, 0.1]","[u'low', u'high', u'medium']","black",49,"left","low","False","False",380,700,NA
"A22KRF782ELLB0","Wed Oct 28 2020 09:32:16 GMT-0500 (Central Daylight Time)","Wed Oct 28 2020 09:39:31 GMT-0500 (Central Daylight Time)","Mozilla/5.0 (X11; Ubuntu; Linux x86_64; rv:82.0) Gecko/20100101 Firefox/82.0",14,"[0.9, 0.5, 0.1]","[0.8, 0.4, 0.2]","[u'black', u'blue', u'red']","[u'left', u'middle', u'right']","[0.9, 0.5, 0.1]","[u'low', u'high', u'medium']","blue",50,"middle","high","True","False",314,800,NA
"A22KRF782ELLB0","Wed Oct 28 2020 09:32:16 GMT-0500 (Central Daylight Time)","Wed Oct 28 2020 09:39:31 GMT-0500 (Central Daylight Time)","Mozilla/5.0 (X11; Ubuntu; Linux x86_64; rv:82.0) Gecko/20100101 Firefox/82.0",15,"[0.9, 0.5, 0.1]","[0.8, 0.4, 0.2]","[u'black', u'blue', u'red']","[u'left', u'middle', u'right']","[0.9, 0.5, 0.1]","[u'low', u'high', u'medium']","blue",50,"middle","high","True","False",435,900,NA
"A22KRF782ELLB0","Wed Oct 28 2020 09:32:16 GMT-0500 (Central Daylight Time)","Wed Oct 28 2020 09:39:31 GMT-0500 (Central Daylight Time)","Mozilla/5.0 (X11; Ubuntu; Linux x86_64; rv:82.0) Gecko/20100101 Firefox/82.0",16,"[0.9, 0.5, 0.1]","[0.8, 0.4, 0.2]","[u'black', u'blue', u'red']","[u'left', u'middle', u'right']","[0.9, 0.5, 0.1]","[u'low', u'high', u'medium']","blue",50,"middle","high","True","False",419,1000,NA
"A22KRF782ELLB0","Wed Oct 28 2020 09:32:16 GMT-0500 (Central Daylight Time)","Wed Oct 28 2020 09:39:31 GMT-0500 (Central Daylight Time)","Mozilla/5.0 (X11; Ubuntu; Linux x86_64; rv:82.0) Gecko/20100101 Firefox/82.0",17,"[0.9, 0.5, 0.1]","[0.8, 0.4, 0.2]","[u'black', u'blue', u'red']","[u'left', u'middle', u'right']","[0.9, 0.5, 0.1]","[u'low', u'high', u'medium']","blue",50,"middle","high","True","False",468,1100,NA
"A22KRF782ELLB0","Wed Oct 28 2020 09:32:16 GMT-0500 (Central Daylight Time)","Wed Oct 28 2020 09:39:31 GMT-0500 (Central Daylight Time)","Mozilla/5.0 (X11; Ubuntu; Linux x86_64; rv:82.0) Gecko/20100101 Firefox/82.0",18,"[0.9, 0.5, 0.1]","[0.8, 0.4, 0.2]","[u'black', u'blue', u'red']","[u'left', u'middle', u'right']","[0.9, 0.5, 0.1]","[u'low', u'high', u'medium']","blue",50,"middle","high","True","False",387,1200,NA
"A22KRF782ELLB0","Wed Oct 28 2020 09:32:16 GMT-0500 (Central Daylight Time)","Wed Oct 28 2020 09:39:31 GMT-0500 (Central Daylight Time)","Mozilla/5.0 (X11; Ubuntu; Linux x86_64; rv:82.0) Gecko/20100101 Firefox/82.0",19,"[0.9, 0.5, 0.1]","[0.8, 0.4, 0.2]","[u'black', u'blue', u'red']","[u'left', u'middle', u'right']","[0.9, 0.5, 0.1]","[u'low', u'high', u'medium']","blue",50,"middle","high","True","False",546,1300,NA
"A22KRF782ELLB0","Wed Oct 28 2020 09:32:16 GMT-0500 (Central Daylight Time)","Wed Oct 28 2020 09:39:31 GMT-0500 (Central Daylight Time)","Mozilla/5.0 (X11; Ubuntu; Linux x86_64; rv:82.0) Gecko/20100101 Firefox/82.0",20,"[0.9, 0.5, 0.1]","[0.8, 0.4, 0.2]","[u'black', u'blue', u'red']","[u'left', u'middle', u'right']","[0.9, 0.5, 0.1]","[u'low', u'high', u'medium']","blue",50,"middle","high","True","False",427,1400,NA
"A22KRF782ELLB0","Wed Oct 28 2020 09:32:16 GMT-0500 (Central Daylight Time)","Wed Oct 28 2020 09:39:31 GMT-0500 (Central Daylight Time)","Mozilla/5.0 (X11; Ubuntu; Linux x86_64; rv:82.0) Gecko/20100101 Firefox/82.0",21,"[0.9, 0.5, 0.1]","[0.8, 0.4, 0.2]","[u'black', u'blue', u'red']","[u'left', u'middle', u'right']","[0.9, 0.5, 0.1]","[u'low', u'high', u'medium']","blue",50,"middle","high","True","False",403,1500,NA
"A22KRF782ELLB0","Wed Oct 28 2020 09:32:16 GMT-0500 (Central Daylight Time)","Wed Oct 28 2020 09:39:31 GMT-0500 (Central Daylight Time)","Mozilla/5.0 (X11; Ubuntu; Linux x86_64; rv:82.0) Gecko/20100101 Firefox/82.0",22,"[0.9, 0.5, 0.1]","[0.8, 0.4, 0.2]","[u'black', u'blue', u'red']","[u'left', u'middle', u'right']","[0.9, 0.5, 0.1]","[u'low', u'high', u'medium']","blue",50,"middle","high","True","True",459,1600,NA
"A22KRF782ELLB0","Wed Oct 28 2020 09:32:16 GMT-0500 (Central Daylight Time)","Wed Oct 28 2020 09:39:31 GMT-0500 (Central Daylight Time)","Mozilla/5.0 (X11; Ubuntu; Linux x86_64; rv:82.0) Gecko/20100101 Firefox/82.0",23,"[0.9, 0.5, 0.1]","[0.8, 0.4, 0.2]","[u'black', u'blue', u'red']","[u'left', u'middle', u'right']","[0.9, 0.5, 0.1]","[u'high', u'low', u'medium']","blue",50,"middle","low","False","False",450,1550,NA
"A22KRF782ELLB0","Wed Oct 28 2020 09:32:16 GMT-0500 (Central Daylight Time)","Wed Oct 28 2020 09:39:31 GMT-0500 (Central Daylight Time)","Mozilla/5.0 (X11; Ubuntu; Linux x86_64; rv:82.0) Gecko/20100101 Firefox/82.0",24,"[0.9, 0.5, 0.1]","[0.8, 0.4, 0.2]","[u'black', u'blue', u'red']","[u'left', u'middle', u'right']","[0.9, 0.5, 0.1]","[u'high', u'low', u'medium']","blue",50,"middle","low","False","False",387,1500,NA
"A22KRF782ELLB0","Wed Oct 28 2020 09:32:16 GMT-0500 (Central Daylight Time)","Wed Oct 28 2020 09:39:31 GMT-0500 (Central Daylight Time)","Mozilla/5.0 (X11; Ubuntu; Linux x86_64; rv:82.0) Gecko/20100101 Firefox/82.0",25,"[0.9, 0.5, 0.1]","[0.8, 0.4, 0.2]","[u'black', u'blue', u'red']","[u'left', u'middle', u'right']","[0.9, 0.5, 0.1]","[u'high', u'low', u'medium']","red",51,"right","medium","False","False",563,1450,NA
"A22KRF782ELLB0","Wed Oct 28 2020 09:32:16 GMT-0500 (Central Daylight Time)","Wed Oct 28 2020 09:39:31 GMT-0500 (Central Daylight Time)","Mozilla/5.0 (X11; Ubuntu; Linux x86_64; rv:82.0) Gecko/20100101 Firefox/82.0",26,"[0.9, 0.5, 0.1]","[0.8, 0.4, 0.2]","[u'black', u'blue', u'red']","[u'left', u'middle', u'right']","[0.9, 0.5, 0.1]","[u'high', u'low', u'medium']","blue",50,"middle","low","False","False",466,1400,NA
"A22KRF782ELLB0","Wed Oct 28 2020 09:32:16 GMT-0500 (Central Daylight Time)","Wed Oct 28 2020 09:39:31 GMT-0500 (Central Daylight Time)","Mozilla/5.0 (X11; Ubuntu; Linux x86_64; rv:82.0) Gecko/20100101 Firefox/82.0",27,"[0.9, 0.5, 0.1]","[0.8, 0.4, 0.2]","[u'black', u'blue', u'red']","[u'left', u'middle', u'right']","[0.9, 0.5, 0.1]","[u'high', u'low', u'medium']","black",49,"left","high","False","False",402,1350,NA
"A22KRF782ELLB0","Wed Oct 28 2020 09:32:16 GMT-0500 (Central Daylight Time)","Wed Oct 28 2020 09:39:31 GMT-0500 (Central Daylight Time)","Mozilla/5.0 (X11; Ubuntu; Linux x86_64; rv:82.0) Gecko/20100101 Firefox/82.0",28,"[0.9, 0.5, 0.1]","[0.8, 0.4, 0.2]","[u'black', u'blue', u'red']","[u'left', u'middle', u'right']","[0.9, 0.5, 0.1]","[u'high', u'low', u'medium']","black",49,"left","high","True","False",507,1450,NA
"A22KRF782ELLB0","Wed Oct 28 2020 09:32:16 GMT-0500 (Central Daylight Time)","Wed Oct 28 2020 09:39:31 GMT-0500 (Central Daylight Time)","Mozilla/5.0 (X11; Ubuntu; Linux x86_64; rv:82.0) Gecko/20100101 Firefox/82.0",29,"[0.9, 0.5, 0.1]","[0.8, 0.4, 0.2]","[u'black', u'blue', u'red']","[u'left', u'middle', u'right']","[0.9, 0.5, 0.1]","[u'high', u'low', u'medium']","black",49,"left","high","True","False",403,1550,NA
"A22KRF782ELLB0","Wed Oct 28 2020 09:32:16 GMT-0500 (Central Daylight Time)","Wed Oct 28 2020 09:39:31 GMT-0500 (Central Daylight Time)","Mozilla/5.0 (X11; Ubuntu; Linux x86_64; rv:82.0) Gecko/20100101 Firefox/82.0",30,"[0.9, 0.5, 0.1]","[0.8, 0.4, 0.2]","[u'black', u'blue', u'red']","[u'left', u'middle', u'right']","[0.9, 0.5, 0.1]","[u'high', u'low', u'medium']","black",49,"left","high","True","False",444,1650,NA
"A22KRF782ELLB0","Wed Oct 28 2020 09:32:16 GMT-0500 (Central Daylight Time)","Wed Oct 28 2020 09:39:31 GMT-0500 (Central Daylight Time)","Mozilla/5.0 (X11; Ubuntu; Linux x86_64; rv:82.0) Gecko/20100101 Firefox/82.0",31,"[0.9, 0.5, 0.1]","[0.8, 0.4, 0.2]","[u'black', u'blue', u'red']","[u'left', u'middle', u'right']","[0.9, 0.5, 0.1]","[u'high', u'low', u'medium']","black",49,"left","high","True","False",482,1750,NA
"A22KRF782ELLB0","Wed Oct 28 2020 09:32:16 GMT-0500 (Central Daylight Time)","Wed Oct 28 2020 09:39:31 GMT-0500 (Central Daylight Time)","Mozilla/5.0 (X11; Ubuntu; Linux x86_64; rv:82.0) Gecko/20100101 Firefox/82.0",32,"[0.9, 0.5, 0.1]","[0.8, 0.4, 0.2]","[u'black', u'blue', u'red']","[u'left', u'middle', u'right']","[0.9, 0.5, 0.1]","[u'high', u'low', u'medium']","black",49,"left","high","True","False",530,1850,NA
"A22KRF782ELLB0","Wed Oct 28 2020 09:32:16 GMT-0500 (Central Daylight Time)","Wed Oct 28 2020 09:39:31 GMT-0500 (Central Daylight Time)","Mozilla/5.0 (X11; Ubuntu; Linux x86_64; rv:82.0) Gecko/20100101 Firefox/82.0",33,"[0.9, 0.5, 0.1]","[0.8, 0.4, 0.2]","[u'black', u'blue', u'red']","[u'left', u'middle', u'right']","[0.9, 0.5, 0.1]","[u'high', u'low', u'medium']","black",49,"left","high","True","False",484,1950,NA
"A22KRF782ELLB0","Wed Oct 28 2020 09:32:16 GMT-0500 (Central Daylight Time)","Wed Oct 28 2020 09:39:31 GMT-0500 (Central Daylight Time)","Mozilla/5.0 (X11; Ubuntu; Linux x86_64; rv:82.0) Gecko/20100101 Firefox/82.0",34,"[0.9, 0.5, 0.1]","[0.8, 0.4, 0.2]","[u'black', u'blue', u'red']","[u'left', u'middle', u'right']","[0.9, 0.5, 0.1]","[u'high', u'low', u'medium']","black",49,"left","high","True","False",555,2050,NA
"A22KRF782ELLB0","Wed Oct 28 2020 09:32:16 GMT-0500 (Central Daylight Time)","Wed Oct 28 2020 09:39:31 GMT-0500 (Central Daylight Time)","Mozilla/5.0 (X11; Ubuntu; Linux x86_64; rv:82.0) Gecko/20100101 Firefox/82.0",35,"[0.9, 0.5, 0.1]","[0.8, 0.4, 0.2]","[u'black', u'blue', u'red']","[u'left', u'middle', u'right']","[0.9, 0.5, 0.1]","[u'high', u'low', u'medium']","black",49,"left","high","True","True",482,2150,NA
"A22KRF782ELLB0","Wed Oct 28 2020 09:32:16 GMT-0500 (Central Daylight Time)","Wed Oct 28 2020 09:39:31 GMT-0500 (Central Daylight Time)","Mozilla/5.0 (X11; Ubuntu; Linux x86_64; rv:82.0) Gecko/20100101 Firefox/82.0",36,"[0.9, 0.5, 0.1]","[0.8, 0.4, 0.2]","[u'black', u'blue', u'red']","[u'left', u'middle', u'right']","[0.9, 0.5, 0.1]","[u'medium', u'low', u'high']","black",49,"left","medium","True","False",563,2250,NA
"A22KRF782ELLB0","Wed Oct 28 2020 09:32:16 GMT-0500 (Central Daylight Time)","Wed Oct 28 2020 09:39:31 GMT-0500 (Central Daylight Time)","Mozilla/5.0 (X11; Ubuntu; Linux x86_64; rv:82.0) Gecko/20100101 Firefox/82.0",37,"[0.9, 0.5, 0.1]","[0.8, 0.4, 0.2]","[u'black', u'blue', u'red']","[u'left', u'middle', u'right']","[0.9, 0.5, 0.1]","[u'medium', u'low', u'high']","black",49,"left","medium","True","False",418,2350,NA
"A22KRF782ELLB0","Wed Oct 28 2020 09:32:16 GMT-0500 (Central Daylight Time)","Wed Oct 28 2020 09:39:31 GMT-0500 (Central Daylight Time)","Mozilla/5.0 (X11; Ubuntu; Linux x86_64; rv:82.0) Gecko/20100101 Firefox/82.0",38,"[0.9, 0.5, 0.1]","[0.8, 0.4, 0.2]","[u'black', u'blue', u'red']","[u'left', u'middle', u'right']","[0.9, 0.5, 0.1]","[u'medium', u'low', u'high']","black",49,"left","medium","True","False",435,2450,NA
"A22KRF782ELLB0","Wed Oct 28 2020 09:32:16 GMT-0500 (Central Daylight Time)","Wed Oct 28 2020 09:39:31 GMT-0500 (Central Daylight Time)","Mozilla/5.0 (X11; Ubuntu; Linux x86_64; rv:82.0) Gecko/20100101 Firefox/82.0",39,"[0.9, 0.5, 0.1]","[0.8, 0.4, 0.2]","[u'black', u'blue', u'red']","[u'left', u'middle', u'right']","[0.9, 0.5, 0.1]","[u'medium', u'low', u'high']","black",49,"left","medium","False","False",532,2400,NA
"A22KRF782ELLB0","Wed Oct 28 2020 09:32:16 GMT-0500 (Central Daylight Time)","Wed Oct 28 2020 09:39:31 GMT-0500 (Central Daylight Time)","Mozilla/5.0 (X11; Ubuntu; Linux x86_64; rv:82.0) Gecko/20100101 Firefox/82.0",40,"[0.9, 0.5, 0.1]","[0.8, 0.4, 0.2]","[u'black', u'blue', u'red']","[u'left', u'middle', u'right']","[0.9, 0.5, 0.1]","[u'medium', u'low', u'high']","black",49,"left","medium","False","False",371,2350,NA
"A22KRF782ELLB0","Wed Oct 28 2020 09:32:16 GMT-0500 (Central Daylight Time)","Wed Oct 28 2020 09:39:31 GMT-0500 (Central Daylight Time)","Mozilla/5.0 (X11; Ubuntu; Linux x86_64; rv:82.0) Gecko/20100101 Firefox/82.0",41,"[0.9, 0.5, 0.1]","[0.8, 0.4, 0.2]","[u'black', u'blue', u'red']","[u'left', u'middle', u'right']","[0.9, 0.5, 0.1]","[u'high', u'low', u'medium']","blue",50,"middle","low","False","False",538,2300,NA
"A22KRF782ELLB0","Wed Oct 28 2020 09:32:16 GMT-0500 (Central Daylight Time)","Wed Oct 28 2020 09:39:31 GMT-0500 (Central Daylight Time)","Mozilla/5.0 (X11; Ubuntu; Linux x86_64; rv:82.0) Gecko/20100101 Firefox/82.0",42,"[0.9, 0.5, 0.1]","[0.8, 0.4, 0.2]","[u'black', u'blue', u'red']","[u'left', u'middle', u'right']","[0.9, 0.5, 0.1]","[u'high', u'low', u'medium']","red",51,"right","medium","False","False",371,2250,NA
"A22KRF782ELLB0","Wed Oct 28 2020 09:32:16 GMT-0500 (Central Daylight Time)","Wed Oct 28 2020 09:39:31 GMT-0500 (Central Daylight Time)","Mozilla/5.0 (X11; Ubuntu; Linux x86_64; rv:82.0) Gecko/20100101 Firefox/82.0",43,"[0.9, 0.5, 0.1]","[0.8, 0.4, 0.2]","[u'black', u'blue', u'red']","[u'left', u'middle', u'right']","[0.9, 0.5, 0.1]","[u'high', u'low', u'medium']","black",49,"left","high","True","False",410,2350,NA
"A22KRF782ELLB0","Wed Oct 28 2020 09:32:16 GMT-0500 (Central Daylight Time)","Wed Oct 28 2020 09:39:31 GMT-0500 (Central Daylight Time)","Mozilla/5.0 (X11; Ubuntu; Linux x86_64; rv:82.0) Gecko/20100101 Firefox/82.0",44,"[0.9, 0.5, 0.1]","[0.8, 0.4, 0.2]","[u'black', u'blue', u'red']","[u'left', u'middle', u'right']","[0.9, 0.5, 0.1]","[u'high', u'low', u'medium']","black",49,"left","high","False","False",452,2300,NA
"A22KRF782ELLB0","Wed Oct 28 2020 09:32:16 GMT-0500 (Central Daylight Time)","Wed Oct 28 2020 09:39:31 GMT-0500 (Central Daylight Time)","Mozilla/5.0 (X11; Ubuntu; Linux x86_64; rv:82.0) Gecko/20100101 Firefox/82.0",45,"[0.9, 0.5, 0.1]","[0.8, 0.4, 0.2]","[u'black', u'blue', u'red']","[u'left', u'middle', u'right']","[0.9, 0.5, 0.1]","[u'high', u'low', u'medium']","black",49,"left","high","True","False",395,2400,NA
"A22KRF782ELLB0","Wed Oct 28 2020 09:32:16 GMT-0500 (Central Daylight Time)","Wed Oct 28 2020 09:39:31 GMT-0500 (Central Daylight Time)","Mozilla/5.0 (X11; Ubuntu; Linux x86_64; rv:82.0) Gecko/20100101 Firefox/82.0",46,"[0.9, 0.5, 0.1]","[0.8, 0.4, 0.2]","[u'black', u'blue', u'red']","[u'left', u'middle', u'right']","[0.9, 0.5, 0.1]","[u'high', u'low', u'medium']","black",49,"left","high","True","False",651,2500,NA
"A22KRF782ELLB0","Wed Oct 28 2020 09:32:16 GMT-0500 (Central Daylight Time)","Wed Oct 28 2020 09:39:31 GMT-0500 (Central Daylight Time)","Mozilla/5.0 (X11; Ubuntu; Linux x86_64; rv:82.0) Gecko/20100101 Firefox/82.0",47,"[0.9, 0.5, 0.1]","[0.8, 0.4, 0.2]","[u'black', u'blue', u'red']","[u'left', u'middle', u'right']","[0.9, 0.5, 0.1]","[u'high', u'low', u'medium']","black",49,"left","high","True","False",483,2600,NA
"A22KRF782ELLB0","Wed Oct 28 2020 09:32:16 GMT-0500 (Central Daylight Time)","Wed Oct 28 2020 09:39:31 GMT-0500 (Central Daylight Time)","Mozilla/5.0 (X11; Ubuntu; Linux x86_64; rv:82.0) Gecko/20100101 Firefox/82.0",48,"[0.9, 0.5, 0.1]","[0.8, 0.4, 0.2]","[u'black', u'blue', u'red']","[u'left', u'middle', u'right']","[0.9, 0.5, 0.1]","[u'high', u'low', u'medium']","black",49,"left","high","True","False",491,2700,NA
"A22KRF782ELLB0","Wed Oct 28 2020 09:32:16 GMT-0500 (Central Daylight Time)","Wed Oct 28 2020 09:39:31 GMT-0500 (Central Daylight Time)","Mozilla/5.0 (X11; Ubuntu; Linux x86_64; rv:82.0) Gecko/20100101 Firefox/82.0",49,"[0.9, 0.5, 0.1]","[0.8, 0.4, 0.2]","[u'black', u'blue', u'red']","[u'left', u'middle', u'right']","[0.9, 0.5, 0.1]","[u'high', u'low', u'medium']","black",49,"left","high","True","False",427,2800,NA
"A22KRF782ELLB0","Wed Oct 28 2020 09:32:16 GMT-0500 (Central Daylight Time)","Wed Oct 28 2020 09:39:31 GMT-0500 (Central Daylight Time)","Mozilla/5.0 (X11; Ubuntu; Linux x86_64; rv:82.0) Gecko/20100101 Firefox/82.0",50,"[0.9, 0.5, 0.1]","[0.8, 0.4, 0.2]","[u'black', u'blue', u'red']","[u'left', u'middle', u'right']","[0.9, 0.5, 0.1]","[u'high', u'low', u'medium']","black",49,"left","high","False","False",484,2750,NA
"A22KRF782ELLB0","Wed Oct 28 2020 09:32:16 GMT-0500 (Central Daylight Time)","Wed Oct 28 2020 09:39:31 GMT-0500 (Central Daylight Time)","Mozilla/5.0 (X11; Ubuntu; Linux x86_64; rv:82.0) Gecko/20100101 Firefox/82.0",51,"[0.9, 0.5, 0.1]","[0.8, 0.4, 0.2]","[u'black', u'blue', u'red']","[u'left', u'middle', u'right']","[0.9, 0.5, 0.1]","[u'high', u'low', u'medium']","black",49,"left","high","True","True",418,2850,NA
"A22KRF782ELLB0","Wed Oct 28 2020 09:32:16 GMT-0500 (Central Daylight Time)","Wed Oct 28 2020 09:39:31 GMT-0500 (Central Daylight Time)","Mozilla/5.0 (X11; Ubuntu; Linux x86_64; rv:82.0) Gecko/20100101 Firefox/82.0",52,"[0.9, 0.5, 0.1]","[0.8, 0.4, 0.2]","[u'black', u'blue', u'red']","[u'left', u'middle', u'right']","[0.9, 0.5, 0.1]","[u'low', u'medium', u'high']","black",49,"left","low","False","False",378,2800,NA
"A22KRF782ELLB0","Wed Oct 28 2020 09:32:16 GMT-0500 (Central Daylight Time)","Wed Oct 28 2020 09:39:31 GMT-0500 (Central Daylight Time)","Mozilla/5.0 (X11; Ubuntu; Linux x86_64; rv:82.0) Gecko/20100101 Firefox/82.0",53,"[0.9, 0.5, 0.1]","[0.8, 0.4, 0.2]","[u'black', u'blue', u'red']","[u'left', u'middle', u'right']","[0.9, 0.5, 0.1]","[u'low', u'medium', u'high']","black",49,"left","low","False","False",451,2750,NA
"A22KRF782ELLB0","Wed Oct 28 2020 09:32:16 GMT-0500 (Central Daylight Time)","Wed Oct 28 2020 09:39:31 GMT-0500 (Central Daylight Time)","Mozilla/5.0 (X11; Ubuntu; Linux x86_64; rv:82.0) Gecko/20100101 Firefox/82.0",54,"[0.9, 0.5, 0.1]","[0.8, 0.4, 0.2]","[u'black', u'blue', u'red']","[u'left', u'middle', u'right']","[0.9, 0.5, 0.1]","[u'low', u'medium', u'high']","blue",50,"middle","medium","False","False",380,2700,NA
"A22KRF782ELLB0","Wed Oct 28 2020 09:32:16 GMT-0500 (Central Daylight Time)","Wed Oct 28 2020 09:39:31 GMT-0500 (Central Daylight Time)","Mozilla/5.0 (X11; Ubuntu; Linux x86_64; rv:82.0) Gecko/20100101 Firefox/82.0",55,"[0.9, 0.5, 0.1]","[0.8, 0.4, 0.2]","[u'black', u'blue', u'red']","[u'left', u'middle', u'right']","[0.9, 0.5, 0.1]","[u'low', u'medium', u'high']","blue",50,"middle","medium","False","False",355,2650,NA
"A22KRF782ELLB0","Wed Oct 28 2020 09:32:16 GMT-0500 (Central Daylight Time)","Wed Oct 28 2020 09:39:31 GMT-0500 (Central Daylight Time)","Mozilla/5.0 (X11; Ubuntu; Linux x86_64; rv:82.0) Gecko/20100101 Firefox/82.0",56,"[0.9, 0.5, 0.1]","[0.8, 0.4, 0.2]","[u'black', u'blue', u'red']","[u'left', u'middle', u'right']","[0.9, 0.5, 0.1]","[u'low', u'medium', u'high']","red",51,"right","high","True","False",427,2750,NA
"A22KRF782ELLB0","Wed Oct 28 2020 09:32:16 GMT-0500 (Central Daylight Time)","Wed Oct 28 2020 09:39:31 GMT-0500 (Central Daylight Time)","Mozilla/5.0 (X11; Ubuntu; Linux x86_64; rv:82.0) Gecko/20100101 Firefox/82.0",57,"[0.9, 0.5, 0.1]","[0.8, 0.4, 0.2]","[u'black', u'blue', u'red']","[u'left', u'middle', u'right']","[0.9, 0.5, 0.1]","[u'low', u'medium', u'high']","red",51,"right","high","True","False",379,2850,NA
"A22KRF782ELLB0","Wed Oct 28 2020 09:32:16 GMT-0500 (Central Daylight Time)","Wed Oct 28 2020 09:39:31 GMT-0500 (Central Daylight Time)","Mozilla/5.0 (X11; Ubuntu; Linux x86_64; rv:82.0) Gecko/20100101 Firefox/82.0",58,"[0.9, 0.5, 0.1]","[0.8, 0.4, 0.2]","[u'black', u'blue', u'red']","[u'left', u'middle', u'right']","[0.9, 0.5, 0.1]","[u'low', u'medium', u'high']","red",51,"right","high","True","False",377,2950,NA
"A22KRF782ELLB0","Wed Oct 28 2020 09:32:16 GMT-0500 (Central Daylight Time)","Wed Oct 28 2020 09:39:31 GMT-0500 (Central Daylight Time)","Mozilla/5.0 (X11; Ubuntu; Linux x86_64; rv:82.0) Gecko/20100101 Firefox/82.0",59,"[0.9, 0.5, 0.1]","[0.8, 0.4, 0.2]","[u'black', u'blue', u'red']","[u'left', u'middle', u'right']","[0.9, 0.5, 0.1]","[u'low', u'medium', u'high']","red",51,"right","high","True","False",490,3050,NA
"A22KRF782ELLB0","Wed Oct 28 2020 09:32:16 GMT-0500 (Central Daylight Time)","Wed Oct 28 2020 09:39:31 GMT-0500 (Central Daylight Time)","Mozilla/5.0 (X11; Ubuntu; Linux x86_64; rv:82.0) Gecko/20100101 Firefox/82.0",60,"[0.9, 0.5, 0.1]","[0.8, 0.4, 0.2]","[u'black', u'blue', u'red']","[u'left', u'middle', u'right']","[0.9, 0.5, 0.1]","[u'low', u'medium', u'high']","red",51,"right","high","True","False",403,3150,NA
"A22KRF782ELLB0","Wed Oct 28 2020 09:32:16 GMT-0500 (Central Daylight Time)","Wed Oct 28 2020 09:39:31 GMT-0500 (Central Daylight Time)","Mozilla/5.0 (X11; Ubuntu; Linux x86_64; rv:82.0) Gecko/20100101 Firefox/82.0",61,"[0.9, 0.5, 0.1]","[0.8, 0.4, 0.2]","[u'black', u'blue', u'red']","[u'left', u'middle', u'right']","[0.9, 0.5, 0.1]","[u'low', u'medium', u'high']","red",51,"right","high","True","False",451,3250,NA
"A22KRF782ELLB0","Wed Oct 28 2020 09:32:16 GMT-0500 (Central Daylight Time)","Wed Oct 28 2020 09:39:31 GMT-0500 (Central Daylight Time)","Mozilla/5.0 (X11; Ubuntu; Linux x86_64; rv:82.0) Gecko/20100101 Firefox/82.0",62,"[0.9, 0.5, 0.1]","[0.8, 0.4, 0.2]","[u'black', u'blue', u'red']","[u'left', u'middle', u'right']","[0.9, 0.5, 0.1]","[u'low', u'medium', u'high']","red",51,"right","high","True","False",378,3350,NA
"A22KRF782ELLB0","Wed Oct 28 2020 09:32:16 GMT-0500 (Central Daylight Time)","Wed Oct 28 2020 09:39:31 GMT-0500 (Central Daylight Time)","Mozilla/5.0 (X11; Ubuntu; Linux x86_64; rv:82.0) Gecko/20100101 Firefox/82.0",63,"[0.9, 0.5, 0.1]","[0.8, 0.4, 0.2]","[u'black', u'blue', u'red']","[u'left', u'middle', u'right']","[0.9, 0.5, 0.1]","[u'low', u'medium', u'high']","red",51,"right","high","True","False",467,3450,NA
"A22KRF782ELLB0","Wed Oct 28 2020 09:32:16 GMT-0500 (Central Daylight Time)","Wed Oct 28 2020 09:39:31 GMT-0500 (Central Daylight Time)","Mozilla/5.0 (X11; Ubuntu; Linux x86_64; rv:82.0) Gecko/20100101 Firefox/82.0",64,"[0.9, 0.5, 0.1]","[0.8, 0.4, 0.2]","[u'black', u'blue', u'red']","[u'left', u'middle', u'right']","[0.9, 0.5, 0.1]","[u'low', u'medium', u'high']","red",51,"right","high","True","True",492,3550,NA
"A22KRF782ELLB0","Wed Oct 28 2020 09:32:16 GMT-0500 (Central Daylight Time)","Wed Oct 28 2020 09:39:31 GMT-0500 (Central Daylight Time)","Mozilla/5.0 (X11; Ubuntu; Linux x86_64; rv:82.0) Gecko/20100101 Firefox/82.0",65,"[0.9, 0.5, 0.1]","[0.8, 0.4, 0.2]","[u'black', u'blue', u'red']","[u'left', u'middle', u'right']","[0.9, 0.5, 0.1]","[u'medium', u'high', u'low']","red",51,"right","low","False","False",363,3500,NA
"A22KRF782ELLB0","Wed Oct 28 2020 09:32:16 GMT-0500 (Central Daylight Time)","Wed Oct 28 2020 09:39:31 GMT-0500 (Central Daylight Time)","Mozilla/5.0 (X11; Ubuntu; Linux x86_64; rv:82.0) Gecko/20100101 Firefox/82.0",66,"[0.9, 0.5, 0.1]","[0.8, 0.4, 0.2]","[u'black', u'blue', u'red']","[u'left', u'middle', u'right']","[0.9, 0.5, 0.1]","[u'medium', u'high', u'low']","red",51,"right","low","False","False",297,3450,NA
"A22KRF782ELLB0","Wed Oct 28 2020 09:32:16 GMT-0500 (Central Daylight Time)","Wed Oct 28 2020 09:39:31 GMT-0500 (Central Daylight Time)","Mozilla/5.0 (X11; Ubuntu; Linux x86_64; rv:82.0) Gecko/20100101 Firefox/82.0",67,"[0.9, 0.5, 0.1]","[0.8, 0.4, 0.2]","[u'black', u'blue', u'red']","[u'left', u'middle', u'right']","[0.9, 0.5, 0.1]","[u'medium', u'high', u'low']","black",49,"left","medium","True","False",388,3550,NA
"A22KRF782ELLB0","Wed Oct 28 2020 09:32:16 GMT-0500 (Central Daylight Time)","Wed Oct 28 2020 09:39:31 GMT-0500 (Central Daylight Time)","Mozilla/5.0 (X11; Ubuntu; Linux x86_64; rv:82.0) Gecko/20100101 Firefox/82.0",68,"[0.9, 0.5, 0.1]","[0.8, 0.4, 0.2]","[u'black', u'blue', u'red']","[u'left', u'middle', u'right']","[0.9, 0.5, 0.1]","[u'medium', u'high', u'low']","black",49,"left","medium","False","False",332,3500,NA
"A22KRF782ELLB0","Wed Oct 28 2020 09:32:16 GMT-0500 (Central Daylight Time)","Wed Oct 28 2020 09:39:31 GMT-0500 (Central Daylight Time)","Mozilla/5.0 (X11; Ubuntu; Linux x86_64; rv:82.0) Gecko/20100101 Firefox/82.0",69,"[0.9, 0.5, 0.1]","[0.8, 0.4, 0.2]","[u'black', u'blue', u'red']","[u'left', u'middle', u'right']","[0.9, 0.5, 0.1]","[u'medium', u'high', u'low']","black",49,"left","medium","True","False",339,3600,NA
"A22KRF782ELLB0","Wed Oct 28 2020 09:32:16 GMT-0500 (Central Daylight Time)","Wed Oct 28 2020 09:39:31 GMT-0500 (Central Daylight Time)","Mozilla/5.0 (X11; Ubuntu; Linux x86_64; rv:82.0) Gecko/20100101 Firefox/82.0",70,"[0.9, 0.5, 0.1]","[0.8, 0.4, 0.2]","[u'black', u'blue', u'red']","[u'left', u'middle', u'right']","[0.9, 0.5, 0.1]","[u'medium', u'high', u'low']","black",49,"left","medium","True","False",411,3700,NA
"A22KRF782ELLB0","Wed Oct 28 2020 09:32:16 GMT-0500 (Central Daylight Time)","Wed Oct 28 2020 09:39:31 GMT-0500 (Central Daylight Time)","Mozilla/5.0 (X11; Ubuntu; Linux x86_64; rv:82.0) Gecko/20100101 Firefox/82.0",71,"[0.9, 0.5, 0.1]","[0.8, 0.4, 0.2]","[u'black', u'blue', u'red']","[u'left', u'middle', u'right']","[0.9, 0.5, 0.1]","[u'medium', u'high', u'low']","black",49,"left","medium","False","False",531,3650,NA
"A22KRF782ELLB0","Wed Oct 28 2020 09:32:16 GMT-0500 (Central Daylight Time)","Wed Oct 28 2020 09:39:31 GMT-0500 (Central Daylight Time)","Mozilla/5.0 (X11; Ubuntu; Linux x86_64; rv:82.0) Gecko/20100101 Firefox/82.0",72,"[0.9, 0.5, 0.1]","[0.8, 0.4, 0.2]","[u'black', u'blue', u'red']","[u'left', u'middle', u'right']","[0.9, 0.5, 0.1]","[u'medium', u'high', u'low']","black",49,"left","medium","True","False",277,3750,NA
"A22KRF782ELLB0","Wed Oct 28 2020 09:32:16 GMT-0500 (Central Daylight Time)","Wed Oct 28 2020 09:39:31 GMT-0500 (Central Daylight Time)","Mozilla/5.0 (X11; Ubuntu; Linux x86_64; rv:82.0) Gecko/20100101 Firefox/82.0",73,"[0.9, 0.5, 0.1]","[0.8, 0.4, 0.2]","[u'black', u'blue', u'red']","[u'left', u'middle', u'right']","[0.9, 0.5, 0.1]","[u'medium', u'high', u'low']","black",49,"left","medium","True","False",538,3850,NA
"A22KRF782ELLB0","Wed Oct 28 2020 09:32:16 GMT-0500 (Central Daylight Time)","Wed Oct 28 2020 09:39:31 GMT-0500 (Central Daylight Time)","Mozilla/5.0 (X11; Ubuntu; Linux x86_64; rv:82.0) Gecko/20100101 Firefox/82.0",74,"[0.9, 0.5, 0.1]","[0.8, 0.4, 0.2]","[u'black', u'blue', u'red']","[u'left', u'middle', u'right']","[0.9, 0.5, 0.1]","[u'medium', u'high', u'low']","black",49,"left","medium","False","False",531,3800,NA
"A22KRF782ELLB0","Wed Oct 28 2020 09:32:16 GMT-0500 (Central Daylight Time)","Wed Oct 28 2020 09:39:31 GMT-0500 (Central Daylight Time)","Mozilla/5.0 (X11; Ubuntu; Linux x86_64; rv:82.0) Gecko/20100101 Firefox/82.0",75,"[0.9, 0.5, 0.1]","[0.8, 0.4, 0.2]","[u'black', u'blue', u'red']","[u'left', u'middle', u'right']","[0.9, 0.5, 0.1]","[u'medium', u'high', u'low']","black",49,"left","medium","True","False",290,3900,NA
"A22KRF782ELLB0","Wed Oct 28 2020 09:32:16 GMT-0500 (Central Daylight Time)","Wed Oct 28 2020 09:39:31 GMT-0500 (Central Daylight Time)","Mozilla/5.0 (X11; Ubuntu; Linux x86_64; rv:82.0) Gecko/20100101 Firefox/82.0",76,"[0.9, 0.5, 0.1]","[0.8, 0.4, 0.2]","[u'black', u'blue', u'red']","[u'left', u'middle', u'right']","[0.9, 0.5, 0.1]","[u'medium', u'high', u'low']","black",49,"left","medium","False","False",459,3850,NA
"A22KRF782ELLB0","Wed Oct 28 2020 09:32:16 GMT-0500 (Central Daylight Time)","Wed Oct 28 2020 09:39:31 GMT-0500 (Central Daylight Time)","Mozilla/5.0 (X11; Ubuntu; Linux x86_64; rv:82.0) Gecko/20100101 Firefox/82.0",77,"[0.9, 0.5, 0.1]","[0.8, 0.4, 0.2]","[u'black', u'blue', u'red']","[u'left', u'middle', u'right']","[0.9, 0.5, 0.1]","[u'medium', u'high', u'low']","black",49,"left","medium","False","False",452,3800,NA
"A22KRF782ELLB0","Wed Oct 28 2020 09:32:16 GMT-0500 (Central Daylight Time)","Wed Oct 28 2020 09:39:31 GMT-0500 (Central Daylight Time)","Mozilla/5.0 (X11; Ubuntu; Linux x86_64; rv:82.0) Gecko/20100101 Firefox/82.0",78,"[0.9, 0.5, 0.1]","[0.8, 0.4, 0.2]","[u'black', u'blue', u'red']","[u'left', u'middle', u'right']","[0.9, 0.5, 0.1]","[u'medium', u'high', u'low']","blue",50,"middle","high","True","False",371,3900,NA
"A22KRF782ELLB0","Wed Oct 28 2020 09:32:16 GMT-0500 (Central Daylight Time)","Wed Oct 28 2020 09:39:31 GMT-0500 (Central Daylight Time)","Mozilla/5.0 (X11; Ubuntu; Linux x86_64; rv:82.0) Gecko/20100101 Firefox/82.0",79,"[0.9, 0.5, 0.1]","[0.8, 0.4, 0.2]","[u'black', u'blue', u'red']","[u'left', u'middle', u'right']","[0.9, 0.5, 0.1]","[u'medium', u'high', u'low']","blue",50,"middle","high","True","False",306,4000,NA
"A22KRF782ELLB0","Wed Oct 28 2020 09:32:16 GMT-0500 (Central Daylight Time)","Wed Oct 28 2020 09:39:31 GMT-0500 (Central Daylight Time)","Mozilla/5.0 (X11; Ubuntu; Linux x86_64; rv:82.0) Gecko/20100101 Firefox/82.0",80,"[0.9, 0.5, 0.1]","[0.8, 0.4, 0.2]","[u'black', u'blue', u'red']","[u'left', u'middle', u'right']","[0.9, 0.5, 0.1]","[u'medium', u'high', u'low']","blue",50,"middle","high","True","False",476,4100,NA
"A22KRF782ELLB0","Wed Oct 28 2020 09:32:16 GMT-0500 (Central Daylight Time)","Wed Oct 28 2020 09:39:31 GMT-0500 (Central Daylight Time)","Mozilla/5.0 (X11; Ubuntu; Linux x86_64; rv:82.0) Gecko/20100101 Firefox/82.0",81,"[0.9, 0.5, 0.1]","[0.8, 0.4, 0.2]","[u'black', u'blue', u'red']","[u'left', u'middle', u'right']","[0.8, 0.4, 0.2]","[u'high', u'low', u'medium']","blue",50,"middle","low","False","False",531,4050,NA
"A22KRF782ELLB0","Wed Oct 28 2020 09:32:16 GMT-0500 (Central Daylight Time)","Wed Oct 28 2020 09:39:31 GMT-0500 (Central Daylight Time)","Mozilla/5.0 (X11; Ubuntu; Linux x86_64; rv:82.0) Gecko/20100101 Firefox/82.0",82,"[0.9, 0.5, 0.1]","[0.8, 0.4, 0.2]","[u'black', u'blue', u'red']","[u'left', u'middle', u'right']","[0.8, 0.4, 0.2]","[u'high', u'low', u'medium']","black",49,"left","high","False","False",354,4000,NA
"A22KRF782ELLB0","Wed Oct 28 2020 09:32:16 GMT-0500 (Central Daylight Time)","Wed Oct 28 2020 09:39:31 GMT-0500 (Central Daylight Time)","Mozilla/5.0 (X11; Ubuntu; Linux x86_64; rv:82.0) Gecko/20100101 Firefox/82.0",83,"[0.9, 0.5, 0.1]","[0.8, 0.4, 0.2]","[u'black', u'blue', u'red']","[u'left', u'middle', u'right']","[0.8, 0.4, 0.2]","[u'high', u'low', u'medium']","blue",50,"middle","low","False","False",338,3950,NA
"A22KRF782ELLB0","Wed Oct 28 2020 09:32:16 GMT-0500 (Central Daylight Time)","Wed Oct 28 2020 09:39:31 GMT-0500 (Central Daylight Time)","Mozilla/5.0 (X11; Ubuntu; Linux x86_64; rv:82.0) Gecko/20100101 Firefox/82.0",84,"[0.9, 0.5, 0.1]","[0.8, 0.4, 0.2]","[u'black', u'blue', u'red']","[u'left', u'middle', u'right']","[0.8, 0.4, 0.2]","[u'high', u'low', u'medium']","red",51,"right","medium","True","False",340,4050,NA
"A22KRF782ELLB0","Wed Oct 28 2020 09:32:16 GMT-0500 (Central Daylight Time)","Wed Oct 28 2020 09:39:31 GMT-0500 (Central Daylight Time)","Mozilla/5.0 (X11; Ubuntu; Linux x86_64; rv:82.0) Gecko/20100101 Firefox/82.0",85,"[0.9, 0.5, 0.1]","[0.8, 0.4, 0.2]","[u'black', u'blue', u'red']","[u'left', u'middle', u'right']","[0.8, 0.4, 0.2]","[u'high', u'low', u'medium']","red",51,"right","medium","False","False",451,4000,NA
"A22KRF782ELLB0","Wed Oct 28 2020 09:32:16 GMT-0500 (Central Daylight Time)","Wed Oct 28 2020 09:39:31 GMT-0500 (Central Daylight Time)","Mozilla/5.0 (X11; Ubuntu; Linux x86_64; rv:82.0) Gecko/20100101 Firefox/82.0",86,"[0.9, 0.5, 0.1]","[0.8, 0.4, 0.2]","[u'black', u'blue', u'red']","[u'left', u'middle', u'right']","[0.8, 0.4, 0.2]","[u'high', u'low', u'medium']","red",51,"right","medium","True","False",307,4100,NA
"A22KRF782ELLB0","Wed Oct 28 2020 09:32:16 GMT-0500 (Central Daylight Time)","Wed Oct 28 2020 09:39:31 GMT-0500 (Central Daylight Time)","Mozilla/5.0 (X11; Ubuntu; Linux x86_64; rv:82.0) Gecko/20100101 Firefox/82.0",87,"[0.9, 0.5, 0.1]","[0.8, 0.4, 0.2]","[u'black', u'blue', u'red']","[u'left', u'middle', u'right']","[0.8, 0.4, 0.2]","[u'high', u'low', u'medium']","red",51,"right","medium","True","False",387,4200,NA
"A22KRF782ELLB0","Wed Oct 28 2020 09:32:16 GMT-0500 (Central Daylight Time)","Wed Oct 28 2020 09:39:31 GMT-0500 (Central Daylight Time)","Mozilla/5.0 (X11; Ubuntu; Linux x86_64; rv:82.0) Gecko/20100101 Firefox/82.0",88,"[0.9, 0.5, 0.1]","[0.8, 0.4, 0.2]","[u'black', u'blue', u'red']","[u'left', u'middle', u'right']","[0.8, 0.4, 0.2]","[u'high', u'low', u'medium']","red",51,"right","medium","True","False",554,4300,NA
"A22KRF782ELLB0","Wed Oct 28 2020 09:32:16 GMT-0500 (Central Daylight Time)","Wed Oct 28 2020 09:39:31 GMT-0500 (Central Daylight Time)","Mozilla/5.0 (X11; Ubuntu; Linux x86_64; rv:82.0) Gecko/20100101 Firefox/82.0",89,"[0.9, 0.5, 0.1]","[0.8, 0.4, 0.2]","[u'black', u'blue', u'red']","[u'left', u'middle', u'right']","[0.8, 0.4, 0.2]","[u'high', u'low', u'medium']","red",51,"right","medium","True","False",357,4400,NA
"A22KRF782ELLB0","Wed Oct 28 2020 09:32:16 GMT-0500 (Central Daylight Time)","Wed Oct 28 2020 09:39:31 GMT-0500 (Central Daylight Time)","Mozilla/5.0 (X11; Ubuntu; Linux x86_64; rv:82.0) Gecko/20100101 Firefox/82.0",90,"[0.9, 0.5, 0.1]","[0.8, 0.4, 0.2]","[u'black', u'blue', u'red']","[u'left', u'middle', u'right']","[0.8, 0.4, 0.2]","[u'high', u'low', u'medium']","red",51,"right","medium","True","False",449,4500,NA
"A22KRF782ELLB0","Wed Oct 28 2020 09:32:16 GMT-0500 (Central Daylight Time)","Wed Oct 28 2020 09:39:31 GMT-0500 (Central Daylight Time)","Mozilla/5.0 (X11; Ubuntu; Linux x86_64; rv:82.0) Gecko/20100101 Firefox/82.0",91,"[0.9, 0.5, 0.1]","[0.8, 0.4, 0.2]","[u'black', u'blue', u'red']","[u'left', u'middle', u'right']","[0.8, 0.4, 0.2]","[u'high', u'low', u'medium']","red",51,"right","medium","False","False",441,4450,NA
"A22KRF782ELLB0","Wed Oct 28 2020 09:32:16 GMT-0500 (Central Daylight Time)","Wed Oct 28 2020 09:39:31 GMT-0500 (Central Daylight Time)","Mozilla/5.0 (X11; Ubuntu; Linux x86_64; rv:82.0) Gecko/20100101 Firefox/82.0",92,"[0.9, 0.5, 0.1]","[0.8, 0.4, 0.2]","[u'black', u'blue', u'red']","[u'left', u'middle', u'right']","[0.8, 0.4, 0.2]","[u'high', u'low', u'medium']","red",51,"right","medium","True","False",243,4550,NA
"A22KRF782ELLB0","Wed Oct 28 2020 09:32:16 GMT-0500 (Central Daylight Time)","Wed Oct 28 2020 09:39:31 GMT-0500 (Central Daylight Time)","Mozilla/5.0 (X11; Ubuntu; Linux x86_64; rv:82.0) Gecko/20100101 Firefox/82.0",93,"[0.9, 0.5, 0.1]","[0.8, 0.4, 0.2]","[u'black', u'blue', u'red']","[u'left', u'middle', u'right']","[0.8, 0.4, 0.2]","[u'high', u'low', u'medium']","red",51,"right","medium","False","False",442,4500,NA
"A22KRF782ELLB0","Wed Oct 28 2020 09:32:16 GMT-0500 (Central Daylight Time)","Wed Oct 28 2020 09:39:31 GMT-0500 (Central Daylight Time)","Mozilla/5.0 (X11; Ubuntu; Linux x86_64; rv:82.0) Gecko/20100101 Firefox/82.0",94,"[0.9, 0.5, 0.1]","[0.8, 0.4, 0.2]","[u'black', u'blue', u'red']","[u'left', u'middle', u'right']","[0.8, 0.4, 0.2]","[u'high', u'low', u'medium']","red",51,"right","medium","False","False",404,4450,NA
"A22KRF782ELLB0","Wed Oct 28 2020 09:32:16 GMT-0500 (Central Daylight Time)","Wed Oct 28 2020 09:39:31 GMT-0500 (Central Daylight Time)","Mozilla/5.0 (X11; Ubuntu; Linux x86_64; rv:82.0) Gecko/20100101 Firefox/82.0",95,"[0.9, 0.5, 0.1]","[0.8, 0.4, 0.2]","[u'black', u'blue', u'red']","[u'left', u'middle', u'right']","[0.8, 0.4, 0.2]","[u'high', u'low', u'medium']","blue",50,"middle","low","True","False",491,4550,NA
"A22KRF782ELLB0","Wed Oct 28 2020 09:32:16 GMT-0500 (Central Daylight Time)","Wed Oct 28 2020 09:39:31 GMT-0500 (Central Daylight Time)","Mozilla/5.0 (X11; Ubuntu; Linux x86_64; rv:82.0) Gecko/20100101 Firefox/82.0",96,"[0.9, 0.5, 0.1]","[0.8, 0.4, 0.2]","[u'black', u'blue', u'red']","[u'left', u'middle', u'right']","[0.8, 0.4, 0.2]","[u'high', u'low', u'medium']","blue",50,"middle","low","False","False",338,4500,NA
"A22KRF782ELLB0","Wed Oct 28 2020 09:32:16 GMT-0500 (Central Daylight Time)","Wed Oct 28 2020 09:39:31 GMT-0500 (Central Daylight Time)","Mozilla/5.0 (X11; Ubuntu; Linux x86_64; rv:82.0) Gecko/20100101 Firefox/82.0",97,"[0.9, 0.5, 0.1]","[0.8, 0.4, 0.2]","[u'black', u'blue', u'red']","[u'left', u'middle', u'right']","[0.8, 0.4, 0.2]","[u'high', u'low', u'medium']","blue",50,"middle","low","True","False",419,4600,NA
"A22KRF782ELLB0","Wed Oct 28 2020 09:32:16 GMT-0500 (Central Daylight Time)","Wed Oct 28 2020 09:39:31 GMT-0500 (Central Daylight Time)","Mozilla/5.0 (X11; Ubuntu; Linux x86_64; rv:82.0) Gecko/20100101 Firefox/82.0",98,"[0.9, 0.5, 0.1]","[0.8, 0.4, 0.2]","[u'black', u'blue', u'red']","[u'left', u'middle', u'right']","[0.8, 0.4, 0.2]","[u'high', u'low', u'medium']","blue",50,"middle","low","True","False",363,4700,NA
"A22KRF782ELLB0","Wed Oct 28 2020 09:32:16 GMT-0500 (Central Daylight Time)","Wed Oct 28 2020 09:39:31 GMT-0500 (Central Daylight Time)","Mozilla/5.0 (X11; Ubuntu; Linux x86_64; rv:82.0) Gecko/20100101 Firefox/82.0",99,"[0.9, 0.5, 0.1]","[0.8, 0.4, 0.2]","[u'black', u'blue', u'red']","[u'left', u'middle', u'right']","[0.8, 0.4, 0.2]","[u'high', u'low', u'medium']","blue",50,"middle","low","False","False",345,4650,NA
"A22KRF782ELLB0","Wed Oct 28 2020 09:32:16 GMT-0500 (Central Daylight Time)","Wed Oct 28 2020 09:39:31 GMT-0500 (Central Daylight Time)","Mozilla/5.0 (X11; Ubuntu; Linux x86_64; rv:82.0) Gecko/20100101 Firefox/82.0",100,"[0.9, 0.5, 0.1]","[0.8, 0.4, 0.2]","[u'black', u'blue', u'red']","[u'left', u'middle', u'right']","[0.8, 0.4, 0.2]","[u'high', u'low', u'medium']","black",49,"left","high","False","False",356,4600,NA
"A22KRF782ELLB0","Wed Oct 28 2020 09:32:16 GMT-0500 (Central Daylight Time)","Wed Oct 28 2020 09:39:31 GMT-0500 (Central Daylight Time)","Mozilla/5.0 (X11; Ubuntu; Linux x86_64; rv:82.0) Gecko/20100101 Firefox/82.0",101,"[0.9, 0.5, 0.1]","[0.8, 0.4, 0.2]","[u'black', u'blue', u'red']","[u'left', u'middle', u'right']","[0.8, 0.4, 0.2]","[u'high', u'low', u'medium']","blue",50,"middle","low","False","False",332,4550,NA
"A22KRF782ELLB0","Wed Oct 28 2020 09:32:16 GMT-0500 (Central Daylight Time)","Wed Oct 28 2020 09:39:31 GMT-0500 (Central Daylight Time)","Mozilla/5.0 (X11; Ubuntu; Linux x86_64; rv:82.0) Gecko/20100101 Firefox/82.0",102,"[0.9, 0.5, 0.1]","[0.8, 0.4, 0.2]","[u'black', u'blue', u'red']","[u'left', u'middle', u'right']","[0.8, 0.4, 0.2]","[u'high', u'low', u'medium']","blue",50,"middle","low","False","False",298,4500,NA
"A22KRF782ELLB0","Wed Oct 28 2020 09:32:16 GMT-0500 (Central Daylight Time)","Wed Oct 28 2020 09:39:31 GMT-0500 (Central Daylight Time)","Mozilla/5.0 (X11; Ubuntu; Linux x86_64; rv:82.0) Gecko/20100101 Firefox/82.0",103,"[0.9, 0.5, 0.1]","[0.8, 0.4, 0.2]","[u'black', u'blue', u'red']","[u'left', u'middle', u'right']","[0.8, 0.4, 0.2]","[u'high', u'low', u'medium']","black",49,"left","high","False","False",365,4450,NA
"A22KRF782ELLB0","Wed Oct 28 2020 09:32:16 GMT-0500 (Central Daylight Time)","Wed Oct 28 2020 09:39:31 GMT-0500 (Central Daylight Time)","Mozilla/5.0 (X11; Ubuntu; Linux x86_64; rv:82.0) Gecko/20100101 Firefox/82.0",104,"[0.9, 0.5, 0.1]","[0.8, 0.4, 0.2]","[u'black', u'blue', u'red']","[u'left', u'middle', u'right']","[0.8, 0.4, 0.2]","[u'high', u'low', u'medium']","red",51,"right","medium","False","False",289,4400,NA
"A22KRF782ELLB0","Wed Oct 28 2020 09:32:16 GMT-0500 (Central Daylight Time)","Wed Oct 28 2020 09:39:31 GMT-0500 (Central Daylight Time)","Mozilla/5.0 (X11; Ubuntu; Linux x86_64; rv:82.0) Gecko/20100101 Firefox/82.0",105,"[0.9, 0.5, 0.1]","[0.8, 0.4, 0.2]","[u'black', u'blue', u'red']","[u'left', u'middle', u'right']","[0.8, 0.4, 0.2]","[u'high', u'low', u'medium']","red",51,"right","medium","False","False",307,4350,NA
"A22KRF782ELLB0","Wed Oct 28 2020 09:32:16 GMT-0500 (Central Daylight Time)","Wed Oct 28 2020 09:39:31 GMT-0500 (Central Daylight Time)","Mozilla/5.0 (X11; Ubuntu; Linux x86_64; rv:82.0) Gecko/20100101 Firefox/82.0",106,"[0.9, 0.5, 0.1]","[0.8, 0.4, 0.2]","[u'black', u'blue', u'red']","[u'left', u'middle', u'right']","[0.8, 0.4, 0.2]","[u'high', u'low', u'medium']","black",49,"left","high","True","False",338,4450,NA
"A22KRF782ELLB0","Wed Oct 28 2020 09:32:16 GMT-0500 (Central Daylight Time)","Wed Oct 28 2020 09:39:31 GMT-0500 (Central Daylight Time)","Mozilla/5.0 (X11; Ubuntu; Linux x86_64; rv:82.0) Gecko/20100101 Firefox/82.0",107,"[0.9, 0.5, 0.1]","[0.8, 0.4, 0.2]","[u'black', u'blue', u'red']","[u'left', u'middle', u'right']","[0.8, 0.4, 0.2]","[u'high', u'low', u'medium']","black",49,"left","high","True","False",363,4550,NA
"A22KRF782ELLB0","Wed Oct 28 2020 09:32:16 GMT-0500 (Central Daylight Time)","Wed Oct 28 2020 09:39:31 GMT-0500 (Central Daylight Time)","Mozilla/5.0 (X11; Ubuntu; Linux x86_64; rv:82.0) Gecko/20100101 Firefox/82.0",108,"[0.9, 0.5, 0.1]","[0.8, 0.4, 0.2]","[u'black', u'blue', u'red']","[u'left', u'middle', u'right']","[0.8, 0.4, 0.2]","[u'high', u'low', u'medium']","black",49,"left","high","True","False",490,4650,NA
"A22KRF782ELLB0","Wed Oct 28 2020 09:32:16 GMT-0500 (Central Daylight Time)","Wed Oct 28 2020 09:39:31 GMT-0500 (Central Daylight Time)","Mozilla/5.0 (X11; Ubuntu; Linux x86_64; rv:82.0) Gecko/20100101 Firefox/82.0",109,"[0.9, 0.5, 0.1]","[0.8, 0.4, 0.2]","[u'black', u'blue', u'red']","[u'left', u'middle', u'right']","[0.8, 0.4, 0.2]","[u'high', u'low', u'medium']","black",49,"left","high","False","False",491,4600,NA
"A22KRF782ELLB0","Wed Oct 28 2020 09:32:16 GMT-0500 (Central Daylight Time)","Wed Oct 28 2020 09:39:31 GMT-0500 (Central Daylight Time)","Mozilla/5.0 (X11; Ubuntu; Linux x86_64; rv:82.0) Gecko/20100101 Firefox/82.0",110,"[0.9, 0.5, 0.1]","[0.8, 0.4, 0.2]","[u'black', u'blue', u'red']","[u'left', u'middle', u'right']","[0.8, 0.4, 0.2]","[u'high', u'low', u'medium']","black",49,"left","high","True","False",323,4700,NA
"A22KRF782ELLB0","Wed Oct 28 2020 09:32:16 GMT-0500 (Central Daylight Time)","Wed Oct 28 2020 09:39:31 GMT-0500 (Central Daylight Time)","Mozilla/5.0 (X11; Ubuntu; Linux x86_64; rv:82.0) Gecko/20100101 Firefox/82.0",111,"[0.9, 0.5, 0.1]","[0.8, 0.4, 0.2]","[u'black', u'blue', u'red']","[u'left', u'middle', u'right']","[0.8, 0.4, 0.2]","[u'high', u'low', u'medium']","black",49,"left","high","True","False",380,4800,NA
"A22KRF782ELLB0","Wed Oct 28 2020 09:32:16 GMT-0500 (Central Daylight Time)","Wed Oct 28 2020 09:39:31 GMT-0500 (Central Daylight Time)","Mozilla/5.0 (X11; Ubuntu; Linux x86_64; rv:82.0) Gecko/20100101 Firefox/82.0",112,"[0.9, 0.5, 0.1]","[0.8, 0.4, 0.2]","[u'black', u'blue', u'red']","[u'left', u'middle', u'right']","[0.8, 0.4, 0.2]","[u'high', u'low', u'medium']","black",49,"left","high","True","False",387,4900,NA
"A22KRF782ELLB0","Wed Oct 28 2020 09:32:16 GMT-0500 (Central Daylight Time)","Wed Oct 28 2020 09:39:31 GMT-0500 (Central Daylight Time)","Mozilla/5.0 (X11; Ubuntu; Linux x86_64; rv:82.0) Gecko/20100101 Firefox/82.0",113,"[0.9, 0.5, 0.1]","[0.8, 0.4, 0.2]","[u'black', u'blue', u'red']","[u'left', u'middle', u'right']","[0.8, 0.4, 0.2]","[u'high', u'low', u'medium']","black",49,"left","high","True","False",331,5000,NA
"A22KRF782ELLB0","Wed Oct 28 2020 09:32:16 GMT-0500 (Central Daylight Time)","Wed Oct 28 2020 09:39:31 GMT-0500 (Central Daylight Time)","Mozilla/5.0 (X11; Ubuntu; Linux x86_64; rv:82.0) Gecko/20100101 Firefox/82.0",114,"[0.9, 0.5, 0.1]","[0.8, 0.4, 0.2]","[u'black', u'blue', u'red']","[u'left', u'middle', u'right']","[0.8, 0.4, 0.2]","[u'high', u'low', u'medium']","black",49,"left","high","True","True",283,5100,NA
"A22KRF782ELLB0","Wed Oct 28 2020 09:32:16 GMT-0500 (Central Daylight Time)","Wed Oct 28 2020 09:39:31 GMT-0500 (Central Daylight Time)","Mozilla/5.0 (X11; Ubuntu; Linux x86_64; rv:82.0) Gecko/20100101 Firefox/82.0",115,"[0.9, 0.5, 0.1]","[0.8, 0.4, 0.2]","[u'black', u'blue', u'red']","[u'left', u'middle', u'right']","[0.8, 0.4, 0.2]","[u'medium', u'low', u'high']","black",49,"left","medium","False","False",276,5050,NA
"A22KRF782ELLB0","Wed Oct 28 2020 09:32:16 GMT-0500 (Central Daylight Time)","Wed Oct 28 2020 09:39:31 GMT-0500 (Central Daylight Time)","Mozilla/5.0 (X11; Ubuntu; Linux x86_64; rv:82.0) Gecko/20100101 Firefox/82.0",116,"[0.9, 0.5, 0.1]","[0.8, 0.4, 0.2]","[u'black', u'blue', u'red']","[u'left', u'middle', u'right']","[0.8, 0.4, 0.2]","[u'medium', u'low', u'high']","black",49,"left","medium","False","False",213,5000,NA
"A22KRF782ELLB0","Wed Oct 28 2020 09:32:16 GMT-0500 (Central Daylight Time)","Wed Oct 28 2020 09:39:31 GMT-0500 (Central Daylight Time)","Mozilla/5.0 (X11; Ubuntu; Linux x86_64; rv:82.0) Gecko/20100101 Firefox/82.0",117,"[0.9, 0.5, 0.1]","[0.8, 0.4, 0.2]","[u'black', u'blue', u'red']","[u'left', u'middle', u'right']","[0.8, 0.4, 0.2]","[u'medium', u'low', u'high']","blue",50,"middle","low","False","False",395,4950,NA
"A22KRF782ELLB0","Wed Oct 28 2020 09:32:16 GMT-0500 (Central Daylight Time)","Wed Oct 28 2020 09:39:31 GMT-0500 (Central Daylight Time)","Mozilla/5.0 (X11; Ubuntu; Linux x86_64; rv:82.0) Gecko/20100101 Firefox/82.0",118,"[0.9, 0.5, 0.1]","[0.8, 0.4, 0.2]","[u'black', u'blue', u'red']","[u'left', u'middle', u'right']","[0.8, 0.4, 0.2]","[u'medium', u'low', u'high']","blue",50,"middle","low","False","False",444,4900,NA
"A22KRF782ELLB0","Wed Oct 28 2020 09:32:16 GMT-0500 (Central Daylight Time)","Wed Oct 28 2020 09:39:31 GMT-0500 (Central Daylight Time)","Mozilla/5.0 (X11; Ubuntu; Linux x86_64; rv:82.0) Gecko/20100101 Firefox/82.0",119,"[0.9, 0.5, 0.1]","[0.8, 0.4, 0.2]","[u'black', u'blue', u'red']","[u'left', u'middle', u'right']","[0.8, 0.4, 0.2]","[u'medium', u'low', u'high']","red",51,"right","high","False","False",275,4850,NA
"A22KRF782ELLB0","Wed Oct 28 2020 09:32:16 GMT-0500 (Central Daylight Time)","Wed Oct 28 2020 09:39:31 GMT-0500 (Central Daylight Time)","Mozilla/5.0 (X11; Ubuntu; Linux x86_64; rv:82.0) Gecko/20100101 Firefox/82.0",120,"[0.9, 0.5, 0.1]","[0.8, 0.4, 0.2]","[u'black', u'blue', u'red']","[u'left', u'middle', u'right']","[0.8, 0.4, 0.2]","[u'medium', u'low', u'high']","red",51,"right","high","True","False",363,4950,NA
"A22KRF782ELLB0","Wed Oct 28 2020 09:32:16 GMT-0500 (Central Daylight Time)","Wed Oct 28 2020 09:39:31 GMT-0500 (Central Daylight Time)","Mozilla/5.0 (X11; Ubuntu; Linux x86_64; rv:82.0) Gecko/20100101 Firefox/82.0",121,"[0.9, 0.5, 0.1]","[0.8, 0.4, 0.2]","[u'black', u'blue', u'red']","[u'left', u'middle', u'right']","[0.8, 0.4, 0.2]","[u'high', u'medium', u'low']","black",49,"left","high","True","False",666,5050,NA
"A22KRF782ELLB0","Wed Oct 28 2020 09:32:16 GMT-0500 (Central Daylight Time)","Wed Oct 28 2020 09:39:31 GMT-0500 (Central Daylight Time)","Mozilla/5.0 (X11; Ubuntu; Linux x86_64; rv:82.0) Gecko/20100101 Firefox/82.0",122,"[0.9, 0.5, 0.1]","[0.8, 0.4, 0.2]","[u'black', u'blue', u'red']","[u'left', u'middle', u'right']","[0.8, 0.4, 0.2]","[u'high', u'medium', u'low']","black",49,"left","high","True","False",314,5150,NA
"A22KRF782ELLB0","Wed Oct 28 2020 09:32:16 GMT-0500 (Central Daylight Time)","Wed Oct 28 2020 09:39:31 GMT-0500 (Central Daylight Time)","Mozilla/5.0 (X11; Ubuntu; Linux x86_64; rv:82.0) Gecko/20100101 Firefox/82.0",123,"[0.9, 0.5, 0.1]","[0.8, 0.4, 0.2]","[u'black', u'blue', u'red']","[u'left', u'middle', u'right']","[0.8, 0.4, 0.2]","[u'high', u'medium', u'low']","black",49,"left","high","True","False",380,5250,NA
"A22KRF782ELLB0","Wed Oct 28 2020 09:32:16 GMT-0500 (Central Daylight Time)","Wed Oct 28 2020 09:39:31 GMT-0500 (Central Daylight Time)","Mozilla/5.0 (X11; Ubuntu; Linux x86_64; rv:82.0) Gecko/20100101 Firefox/82.0",124,"[0.9, 0.5, 0.1]","[0.8, 0.4, 0.2]","[u'black', u'blue', u'red']","[u'left', u'middle', u'right']","[0.8, 0.4, 0.2]","[u'high', u'medium', u'low']","black",49,"left","high","True","False",474,5350,NA
"A22KRF782ELLB0","Wed Oct 28 2020 09:32:16 GMT-0500 (Central Daylight Time)","Wed Oct 28 2020 09:39:31 GMT-0500 (Central Daylight Time)","Mozilla/5.0 (X11; Ubuntu; Linux x86_64; rv:82.0) Gecko/20100101 Firefox/82.0",125,"[0.9, 0.5, 0.1]","[0.8, 0.4, 0.2]","[u'black', u'blue', u'red']","[u'left', u'middle', u'right']","[0.8, 0.4, 0.2]","[u'high', u'medium', u'low']","black",49,"left","high","True","False",411,5450,NA
"A22KRF782ELLB0","Wed Oct 28 2020 09:32:16 GMT-0500 (Central Daylight Time)","Wed Oct 28 2020 09:39:31 GMT-0500 (Central Daylight Time)","Mozilla/5.0 (X11; Ubuntu; Linux x86_64; rv:82.0) Gecko/20100101 Firefox/82.0",126,"[0.9, 0.5, 0.1]","[0.8, 0.4, 0.2]","[u'black', u'blue', u'red']","[u'left', u'middle', u'right']","[0.8, 0.4, 0.2]","[u'high', u'medium', u'low']","black",49,"left","high","True","False",515,5550,NA
"A22KRF782ELLB0","Wed Oct 28 2020 09:32:16 GMT-0500 (Central Daylight Time)","Wed Oct 28 2020 09:39:31 GMT-0500 (Central Daylight Time)","Mozilla/5.0 (X11; Ubuntu; Linux x86_64; rv:82.0) Gecko/20100101 Firefox/82.0",127,"[0.9, 0.5, 0.1]","[0.8, 0.4, 0.2]","[u'black', u'blue', u'red']","[u'left', u'middle', u'right']","[0.8, 0.4, 0.2]","[u'high', u'medium', u'low']","black",49,"left","high","True","False",499,5650,NA
"A22KRF782ELLB0","Wed Oct 28 2020 09:32:16 GMT-0500 (Central Daylight Time)","Wed Oct 28 2020 09:39:31 GMT-0500 (Central Daylight Time)","Mozilla/5.0 (X11; Ubuntu; Linux x86_64; rv:82.0) Gecko/20100101 Firefox/82.0",128,"[0.9, 0.5, 0.1]","[0.8, 0.4, 0.2]","[u'black', u'blue', u'red']","[u'left', u'middle', u'right']","[0.8, 0.4, 0.2]","[u'high', u'medium', u'low']","black",49,"left","high","True","False",380,5750,NA
"A22KRF782ELLB0","Wed Oct 28 2020 09:32:16 GMT-0500 (Central Daylight Time)","Wed Oct 28 2020 09:39:31 GMT-0500 (Central Daylight Time)","Mozilla/5.0 (X11; Ubuntu; Linux x86_64; rv:82.0) Gecko/20100101 Firefox/82.0",129,"[0.9, 0.5, 0.1]","[0.8, 0.4, 0.2]","[u'black', u'blue', u'red']","[u'left', u'middle', u'right']","[0.8, 0.4, 0.2]","[u'high', u'medium', u'low']","black",49,"left","high","True","True",425,5850,NA
"A22KRF782ELLB0","Wed Oct 28 2020 09:32:16 GMT-0500 (Central Daylight Time)","Wed Oct 28 2020 09:39:31 GMT-0500 (Central Daylight Time)","Mozilla/5.0 (X11; Ubuntu; Linux x86_64; rv:82.0) Gecko/20100101 Firefox/82.0",130,"[0.9, 0.5, 0.1]","[0.8, 0.4, 0.2]","[u'black', u'blue', u'red']","[u'left', u'middle', u'right']","[0.8, 0.4, 0.2]","[u'medium', u'high', u'low']","black",49,"left","medium","True","False",362,5950,NA
"A22KRF782ELLB0","Wed Oct 28 2020 09:32:16 GMT-0500 (Central Daylight Time)","Wed Oct 28 2020 09:39:31 GMT-0500 (Central Daylight Time)","Mozilla/5.0 (X11; Ubuntu; Linux x86_64; rv:82.0) Gecko/20100101 Firefox/82.0",131,"[0.9, 0.5, 0.1]","[0.8, 0.4, 0.2]","[u'black', u'blue', u'red']","[u'left', u'middle', u'right']","[0.8, 0.4, 0.2]","[u'medium', u'high', u'low']","black",49,"left","medium","True","False",507,6050,NA
"A22KRF782ELLB0","Wed Oct 28 2020 09:32:16 GMT-0500 (Central Daylight Time)","Wed Oct 28 2020 09:39:31 GMT-0500 (Central Daylight Time)","Mozilla/5.0 (X11; Ubuntu; Linux x86_64; rv:82.0) Gecko/20100101 Firefox/82.0",132,"[0.9, 0.5, 0.1]","[0.8, 0.4, 0.2]","[u'black', u'blue', u'red']","[u'left', u'middle', u'right']","[0.8, 0.4, 0.2]","[u'medium', u'high', u'low']","black",49,"left","medium","False","False",459,6000,NA
"A22KRF782ELLB0","Wed Oct 28 2020 09:32:16 GMT-0500 (Central Daylight Time)","Wed Oct 28 2020 09:39:31 GMT-0500 (Central Daylight Time)","Mozilla/5.0 (X11; Ubuntu; Linux x86_64; rv:82.0) Gecko/20100101 Firefox/82.0",133,"[0.9, 0.5, 0.1]","[0.8, 0.4, 0.2]","[u'black', u'blue', u'red']","[u'left', u'middle', u'right']","[0.8, 0.4, 0.2]","[u'medium', u'high', u'low']","black",49,"left","medium","True","False",299,6100,NA
"A22KRF782ELLB0","Wed Oct 28 2020 09:32:16 GMT-0500 (Central Daylight Time)","Wed Oct 28 2020 09:39:31 GMT-0500 (Central Daylight Time)","Mozilla/5.0 (X11; Ubuntu; Linux x86_64; rv:82.0) Gecko/20100101 Firefox/82.0",134,"[0.9, 0.5, 0.1]","[0.8, 0.4, 0.2]","[u'black', u'blue', u'red']","[u'left', u'middle', u'right']","[0.8, 0.4, 0.2]","[u'medium', u'high', u'low']","black",49,"left","medium","True","False",331,6200,NA
"A22KRF782ELLB0","Wed Oct 28 2020 09:32:16 GMT-0500 (Central Daylight Time)","Wed Oct 28 2020 09:39:31 GMT-0500 (Central Daylight Time)","Mozilla/5.0 (X11; Ubuntu; Linux x86_64; rv:82.0) Gecko/20100101 Firefox/82.0",135,"[0.9, 0.5, 0.1]","[0.8, 0.4, 0.2]","[u'black', u'blue', u'red']","[u'left', u'middle', u'right']","[0.8, 0.4, 0.2]","[u'medium', u'high', u'low']","black",49,"left","medium","False","False",396,6150,NA
"A22KRF782ELLB0","Wed Oct 28 2020 09:32:16 GMT-0500 (Central Daylight Time)","Wed Oct 28 2020 09:39:31 GMT-0500 (Central Daylight Time)","Mozilla/5.0 (X11; Ubuntu; Linux x86_64; rv:82.0) Gecko/20100101 Firefox/82.0",136,"[0.9, 0.5, 0.1]","[0.8, 0.4, 0.2]","[u'black', u'blue', u'red']","[u'left', u'middle', u'right']","[0.8, 0.4, 0.2]","[u'medium', u'high', u'low']","black",49,"left","medium","True","False",403,6250,NA
"A22KRF782ELLB0","Wed Oct 28 2020 09:32:16 GMT-0500 (Central Daylight Time)","Wed Oct 28 2020 09:39:31 GMT-0500 (Central Daylight Time)","Mozilla/5.0 (X11; Ubuntu; Linux x86_64; rv:82.0) Gecko/20100101 Firefox/82.0",137,"[0.9, 0.5, 0.1]","[0.8, 0.4, 0.2]","[u'black', u'blue', u'red']","[u'left', u'middle', u'right']","[0.8, 0.4, 0.2]","[u'medium', u'high', u'low']","black",49,"left","medium","False","False",332,6200,NA
"A22KRF782ELLB0","Wed Oct 28 2020 09:32:16 GMT-0500 (Central Daylight Time)","Wed Oct 28 2020 09:39:31 GMT-0500 (Central Daylight Time)","Mozilla/5.0 (X11; Ubuntu; Linux x86_64; rv:82.0) Gecko/20100101 Firefox/82.0",138,"[0.9, 0.5, 0.1]","[0.8, 0.4, 0.2]","[u'black', u'blue', u'red']","[u'left', u'middle', u'right']","[0.8, 0.4, 0.2]","[u'medium', u'high', u'low']","black",49,"left","medium","False","False",60,6150,NA
"A22KRF782ELLB0","Wed Oct 28 2020 09:32:16 GMT-0500 (Central Daylight Time)","Wed Oct 28 2020 09:39:31 GMT-0500 (Central Daylight Time)","Mozilla/5.0 (X11; Ubuntu; Linux x86_64; rv:82.0) Gecko/20100101 Firefox/82.0",139,"[0.9, 0.5, 0.1]","[0.8, 0.4, 0.2]","[u'black', u'blue', u'red']","[u'left', u'middle', u'right']","[0.8, 0.4, 0.2]","[u'medium', u'high', u'low']","blue",50,"middle","high","True","False",340,6250,NA
"A22KRF782ELLB0","Wed Oct 28 2020 09:32:16 GMT-0500 (Central Daylight Time)","Wed Oct 28 2020 09:39:31 GMT-0500 (Central Daylight Time)","Mozilla/5.0 (X11; Ubuntu; Linux x86_64; rv:82.0) Gecko/20100101 Firefox/82.0",140,"[0.9, 0.5, 0.1]","[0.8, 0.4, 0.2]","[u'black', u'blue', u'red']","[u'left', u'middle', u'right']","[0.8, 0.4, 0.2]","[u'medium', u'high', u'low']","blue",50,"middle","high","False","False",235,6200,NA
"A22KRF782ELLB0","Wed Oct 28 2020 09:32:16 GMT-0500 (Central Daylight Time)","Wed Oct 28 2020 09:39:31 GMT-0500 (Central Daylight Time)","Mozilla/5.0 (X11; Ubuntu; Linux x86_64; rv:82.0) Gecko/20100101 Firefox/82.0",141,"[0.9, 0.5, 0.1]","[0.8, 0.4, 0.2]","[u'black', u'blue', u'red']","[u'left', u'middle', u'right']","[0.8, 0.4, 0.2]","[u'medium', u'high', u'low']","blue",50,"middle","high","True","False",324,6300,NA
"A22KRF782ELLB0","Wed Oct 28 2020 09:32:16 GMT-0500 (Central Daylight Time)","Wed Oct 28 2020 09:39:31 GMT-0500 (Central Daylight Time)","Mozilla/5.0 (X11; Ubuntu; Linux x86_64; rv:82.0) Gecko/20100101 Firefox/82.0",142,"[0.9, 0.5, 0.1]","[0.8, 0.4, 0.2]","[u'black', u'blue', u'red']","[u'left', u'middle', u'right']","[0.8, 0.4, 0.2]","[u'medium', u'high', u'low']","blue",50,"middle","high","True","False",251,6400,NA
"A22KRF782ELLB0","Wed Oct 28 2020 09:32:16 GMT-0500 (Central Daylight Time)","Wed Oct 28 2020 09:39:31 GMT-0500 (Central Daylight Time)","Mozilla/5.0 (X11; Ubuntu; Linux x86_64; rv:82.0) Gecko/20100101 Firefox/82.0",143,"[0.9, 0.5, 0.1]","[0.8, 0.4, 0.2]","[u'black', u'blue', u'red']","[u'left', u'middle', u'right']","[0.8, 0.4, 0.2]","[u'medium', u'high', u'low']","blue",50,"middle","high","True","False",314,6500,NA
"A22KRF782ELLB0","Wed Oct 28 2020 09:32:16 GMT-0500 (Central Daylight Time)","Wed Oct 28 2020 09:39:31 GMT-0500 (Central Daylight Time)","Mozilla/5.0 (X11; Ubuntu; Linux x86_64; rv:82.0) Gecko/20100101 Firefox/82.0",144,"[0.9, 0.5, 0.1]","[0.8, 0.4, 0.2]","[u'black', u'blue', u'red']","[u'left', u'middle', u'right']","[0.8, 0.4, 0.2]","[u'medium', u'high', u'low']","blue",50,"middle","high","True","False",540,6600,NA
"A22KRF782ELLB0","Wed Oct 28 2020 09:32:16 GMT-0500 (Central Daylight Time)","Wed Oct 28 2020 09:39:31 GMT-0500 (Central Daylight Time)","Mozilla/5.0 (X11; Ubuntu; Linux x86_64; rv:82.0) Gecko/20100101 Firefox/82.0",145,"[0.9, 0.5, 0.1]","[0.8, 0.4, 0.2]","[u'black', u'blue', u'red']","[u'left', u'middle', u'right']","[0.8, 0.4, 0.2]","[u'medium', u'high', u'low']","blue",50,"middle","high","False","False",460,6550,NA
"A22KRF782ELLB0","Wed Oct 28 2020 09:32:16 GMT-0500 (Central Daylight Time)","Wed Oct 28 2020 09:39:31 GMT-0500 (Central Daylight Time)","Mozilla/5.0 (X11; Ubuntu; Linux x86_64; rv:82.0) Gecko/20100101 Firefox/82.0",146,"[0.9, 0.5, 0.1]","[0.8, 0.4, 0.2]","[u'black', u'blue', u'red']","[u'left', u'middle', u'right']","[0.8, 0.4, 0.2]","[u'medium', u'high', u'low']","blue",50,"middle","high","True","False",260,6650,NA
"A22KRF782ELLB0","Wed Oct 28 2020 09:32:16 GMT-0500 (Central Daylight Time)","Wed Oct 28 2020 09:39:31 GMT-0500 (Central Daylight Time)","Mozilla/5.0 (X11; Ubuntu; Linux x86_64; rv:82.0) Gecko/20100101 Firefox/82.0",147,"[0.9, 0.5, 0.1]","[0.8, 0.4, 0.2]","[u'black', u'blue', u'red']","[u'left', u'middle', u'right']","[0.8, 0.4, 0.2]","[u'medium', u'high', u'low']","blue",50,"middle","high","False","True",331,6600,NA
"A22KRF782ELLB0","Wed Oct 28 2020 09:32:16 GMT-0500 (Central Daylight Time)","Wed Oct 28 2020 09:39:31 GMT-0500 (Central Daylight Time)","Mozilla/5.0 (X11; Ubuntu; Linux x86_64; rv:82.0) Gecko/20100101 Firefox/82.0",148,"[0.9, 0.5, 0.1]","[0.8, 0.4, 0.2]","[u'black', u'blue', u'red']","[u'left', u'middle', u'right']","[0.8, 0.4, 0.2]","[u'high', u'medium', u'low']","blue",50,"middle","medium","False","False",251,6550,NA
"A22KRF782ELLB0","Wed Oct 28 2020 09:32:16 GMT-0500 (Central Daylight Time)","Wed Oct 28 2020 09:39:31 GMT-0500 (Central Daylight Time)","Mozilla/5.0 (X11; Ubuntu; Linux x86_64; rv:82.0) Gecko/20100101 Firefox/82.0",149,"[0.9, 0.5, 0.1]","[0.8, 0.4, 0.2]","[u'black', u'blue', u'red']","[u'left', u'middle', u'right']","[0.8, 0.4, 0.2]","[u'high', u'medium', u'low']","red",51,"right","low","False","False",243,6500,NA
"A22KRF782ELLB0","Wed Oct 28 2020 09:32:16 GMT-0500 (Central Daylight Time)","Wed Oct 28 2020 09:39:31 GMT-0500 (Central Daylight Time)","Mozilla/5.0 (X11; Ubuntu; Linux x86_64; rv:82.0) Gecko/20100101 Firefox/82.0",150,"[0.9, 0.5, 0.1]","[0.8, 0.4, 0.2]","[u'black', u'blue', u'red']","[u'left', u'middle', u'right']","[0.8, 0.4, 0.2]","[u'high', u'medium', u'low']","red",51,"right","low","False","False",315,6450,NA
"A22KRF782ELLB0","Wed Oct 28 2020 09:32:16 GMT-0500 (Central Daylight Time)","Wed Oct 28 2020 09:39:31 GMT-0500 (Central Daylight Time)","Mozilla/5.0 (X11; Ubuntu; Linux x86_64; rv:82.0) Gecko/20100101 Firefox/82.0",151,"[0.9, 0.5, 0.1]","[0.8, 0.4, 0.2]","[u'black', u'blue', u'red']","[u'left', u'middle', u'right']","[0.8, 0.4, 0.2]","[u'high', u'medium', u'low']","black",49,"left","high","True","False",355,6550,NA
"A22KRF782ELLB0","Wed Oct 28 2020 09:32:16 GMT-0500 (Central Daylight Time)","Wed Oct 28 2020 09:39:31 GMT-0500 (Central Daylight Time)","Mozilla/5.0 (X11; Ubuntu; Linux x86_64; rv:82.0) Gecko/20100101 Firefox/82.0",152,"[0.9, 0.5, 0.1]","[0.8, 0.4, 0.2]","[u'black', u'blue', u'red']","[u'left', u'middle', u'right']","[0.8, 0.4, 0.2]","[u'high', u'medium', u'low']","black",49,"left","high","True","False",427,6650,NA
"A22KRF782ELLB0","Wed Oct 28 2020 09:32:16 GMT-0500 (Central Daylight Time)","Wed Oct 28 2020 09:39:31 GMT-0500 (Central Daylight Time)","Mozilla/5.0 (X11; Ubuntu; Linux x86_64; rv:82.0) Gecko/20100101 Firefox/82.0",153,"[0.9, 0.5, 0.1]","[0.8, 0.4, 0.2]","[u'black', u'blue', u'red']","[u'left', u'middle', u'right']","[0.8, 0.4, 0.2]","[u'high', u'medium', u'low']","black",49,"left","high","True","False",491,6750,NA
"A22KRF782ELLB0","Wed Oct 28 2020 09:32:16 GMT-0500 (Central Daylight Time)","Wed Oct 28 2020 09:39:31 GMT-0500 (Central Daylight Time)","Mozilla/5.0 (X11; Ubuntu; Linux x86_64; rv:82.0) Gecko/20100101 Firefox/82.0",154,"[0.9, 0.5, 0.1]","[0.8, 0.4, 0.2]","[u'black', u'blue', u'red']","[u'left', u'middle', u'right']","[0.8, 0.4, 0.2]","[u'high', u'medium', u'low']","black",49,"left","high","True","False",547,6850,NA
"A22KRF782ELLB0","Wed Oct 28 2020 09:32:16 GMT-0500 (Central Daylight Time)","Wed Oct 28 2020 09:39:31 GMT-0500 (Central Daylight Time)","Mozilla/5.0 (X11; Ubuntu; Linux x86_64; rv:82.0) Gecko/20100101 Firefox/82.0",155,"[0.9, 0.5, 0.1]","[0.8, 0.4, 0.2]","[u'black', u'blue', u'red']","[u'left', u'middle', u'right']","[0.8, 0.4, 0.2]","[u'high', u'medium', u'low']","black",49,"left","high","True","False",411,6950,NA
"A22KRF782ELLB0","Wed Oct 28 2020 09:32:16 GMT-0500 (Central Daylight Time)","Wed Oct 28 2020 09:39:31 GMT-0500 (Central Daylight Time)","Mozilla/5.0 (X11; Ubuntu; Linux x86_64; rv:82.0) Gecko/20100101 Firefox/82.0",156,"[0.9, 0.5, 0.1]","[0.8, 0.4, 0.2]","[u'black', u'blue', u'red']","[u'left', u'middle', u'right']","[0.8, 0.4, 0.2]","[u'high', u'medium', u'low']","black",49,"left","high","True","False",299,7050,NA
"A22KRF782ELLB0","Wed Oct 28 2020 09:32:16 GMT-0500 (Central Daylight Time)","Wed Oct 28 2020 09:39:31 GMT-0500 (Central Daylight Time)","Mozilla/5.0 (X11; Ubuntu; Linux x86_64; rv:82.0) Gecko/20100101 Firefox/82.0",157,"[0.9, 0.5, 0.1]","[0.8, 0.4, 0.2]","[u'black', u'blue', u'red']","[u'left', u'middle', u'right']","[0.8, 0.4, 0.2]","[u'high', u'medium', u'low']","black",49,"left","high","True","False",347,7150,NA
"A22KRF782ELLB0","Wed Oct 28 2020 09:32:16 GMT-0500 (Central Daylight Time)","Wed Oct 28 2020 09:39:31 GMT-0500 (Central Daylight Time)","Mozilla/5.0 (X11; Ubuntu; Linux x86_64; rv:82.0) Gecko/20100101 Firefox/82.0",158,"[0.9, 0.5, 0.1]","[0.8, 0.4, 0.2]","[u'black', u'blue', u'red']","[u'left', u'middle', u'right']","[0.8, 0.4, 0.2]","[u'high', u'medium', u'low']","black",49,"left","high","False","False",354,7100,NA
"A22KRF782ELLB0","Wed Oct 28 2020 09:32:16 GMT-0500 (Central Daylight Time)","Wed Oct 28 2020 09:39:31 GMT-0500 (Central Daylight Time)","Mozilla/5.0 (X11; Ubuntu; Linux x86_64; rv:82.0) Gecko/20100101 Firefox/82.0",159,"[0.9, 0.5, 0.1]","[0.8, 0.4, 0.2]","[u'black', u'blue', u'red']","[u'left', u'middle', u'right']","[0.8, 0.4, 0.2]","[u'high', u'medium', u'low']","black",49,"left","high","True","True",275,7200,NA
"A22KRF782ELLB0","Wed Oct 28 2020 09:32:16 GMT-0500 (Central Daylight Time)","Wed Oct 28 2020 09:39:31 GMT-0500 (Central Daylight Time)","Mozilla/5.0 (X11; Ubuntu; Linux x86_64; rv:82.0) Gecko/20100101 Firefox/82.0",160,"[0.9, 0.5, 0.1]","[0.8, 0.4, 0.2]","[u'black', u'blue', u'red']","[u'left', u'middle', u'right']","[0.8, 0.4, 0.2]","[u'low', u'medium', u'high']","black",49,"left","low","False","False",381,7150,NA
