"src_subject_id","start_time","end_time","browser","index","first_half_probabilities","second_half_probabilities","deck_color","deck_position","deck_probabilities","deck_contingencies","response_color","key_press","response_position","response_probability","reward_type","trial_type","rt","reward_tally","exclusion_reason"
"A1Q56N80RJLQ7S","Wed Oct 28 2020 15:34:22 GMT-0400 (Eastern Daylight Time)","Wed Oct 28 2020 15:40:34 GMT-0400 (Eastern Daylight Time)","Mozilla/5.0 (X11; Linux x86_64) AppleWebKit/537.36 (KHTML, like Gecko) Chrome/86.0.4240.75 Safari/537.36",1,"[0.9, 0.5, 0.1]","[0.8, 0.4, 0.2]","[u'blue', u'black', u'red']","[u'left', u'middle', u'right']","[0.9, 0.5, 0.1]","[u'high', u'medium', u'low']","black",50,"middle","medium","False","False",923,-50,NA
"A1Q56N80RJLQ7S","Wed Oct 28 2020 15:34:22 GMT-0400 (Eastern Daylight Time)","Wed Oct 28 2020 15:40:34 GMT-0400 (Eastern Daylight Time)","Mozilla/5.0 (X11; Linux x86_64) AppleWebKit/537.36 (KHTML, like Gecko) Chrome/86.0.4240.75 Safari/537.36",2,"[0.9, 0.5, 0.1]","[0.8, 0.4, 0.2]","[u'blue', u'black', u'red']","[u'left', u'middle', u'right']","[0.9, 0.5, 0.1]","[u'high', u'medium', u'low']","red",51,"right","low","False","False",498,-100,NA
"A1Q56N80RJLQ7S","Wed Oct 28 2020 15:34:22 GMT-0400 (Eastern Daylight Time)","Wed Oct 28 2020 15:40:34 GMT-0400 (Eastern Daylight Time)","Mozilla/5.0 (X11; Linux x86_64) AppleWebKit/537.36 (KHTML, like Gecko) Chrome/86.0.4240.75 Safari/537.36",3,"[0.9, 0.5, 0.1]","[0.8, 0.4, 0.2]","[u'blue', u'black', u'red']","[u'left', u'middle', u'right']","[0.9, 0.5, 0.1]","[u'high', u'medium', u'low']","blue",49,"left","high","True","False",398,0,NA
"A1Q56N80RJLQ7S","Wed Oct 28 2020 15:34:22 GMT-0400 (Eastern Daylight Time)","Wed Oct 28 2020 15:40:34 GMT-0400 (Eastern Daylight Time)","Mozilla/5.0 (X11; Linux x86_64) AppleWebKit/537.36 (KHTML, like Gecko) Chrome/86.0.4240.75 Safari/537.36",4,"[0.9, 0.5, 0.1]","[0.8, 0.4, 0.2]","[u'blue', u'black', u'red']","[u'left', u'middle', u'right']","[0.9, 0.5, 0.1]","[u'high', u'medium', u'low']","blue",49,"left","high","True","False",390,100,NA
"A1Q56N80RJLQ7S","Wed Oct 28 2020 15:34:22 GMT-0400 (Eastern Daylight Time)","Wed Oct 28 2020 15:40:34 GMT-0400 (Eastern Daylight Time)","Mozilla/5.0 (X11; Linux x86_64) AppleWebKit/537.36 (KHTML, like Gecko) Chrome/86.0.4240.75 Safari/537.36",5,"[0.9, 0.5, 0.1]","[0.8, 0.4, 0.2]","[u'blue', u'black', u'red']","[u'left', u'middle', u'right']","[0.9, 0.5, 0.1]","[u'high', u'medium', u'low']","blue",49,"left","high","False","False",370,50,NA
"A1Q56N80RJLQ7S","Wed Oct 28 2020 15:34:22 GMT-0400 (Eastern Daylight Time)","Wed Oct 28 2020 15:40:34 GMT-0400 (Eastern Daylight Time)","Mozilla/5.0 (X11; Linux x86_64) AppleWebKit/537.36 (KHTML, like Gecko) Chrome/86.0.4240.75 Safari/537.36",6,"[0.9, 0.5, 0.1]","[0.8, 0.4, 0.2]","[u'blue', u'black', u'red']","[u'left', u'middle', u'right']","[0.9, 0.5, 0.1]","[u'high', u'medium', u'low']","blue",49,"left","high","True","False",316,150,NA
"A1Q56N80RJLQ7S","Wed Oct 28 2020 15:34:22 GMT-0400 (Eastern Daylight Time)","Wed Oct 28 2020 15:40:34 GMT-0400 (Eastern Daylight Time)","Mozilla/5.0 (X11; Linux x86_64) AppleWebKit/537.36 (KHTML, like Gecko) Chrome/86.0.4240.75 Safari/537.36",7,"[0.9, 0.5, 0.1]","[0.8, 0.4, 0.2]","[u'blue', u'black', u'red']","[u'left', u'middle', u'right']","[0.9, 0.5, 0.1]","[u'high', u'medium', u'low']","blue",49,"left","high","True","False",351,250,NA
"A1Q56N80RJLQ7S","Wed Oct 28 2020 15:34:22 GMT-0400 (Eastern Daylight Time)","Wed Oct 28 2020 15:40:34 GMT-0400 (Eastern Daylight Time)","Mozilla/5.0 (X11; Linux x86_64) AppleWebKit/537.36 (KHTML, like Gecko) Chrome/86.0.4240.75 Safari/537.36",8,"[0.9, 0.5, 0.1]","[0.8, 0.4, 0.2]","[u'blue', u'black', u'red']","[u'left', u'middle', u'right']","[0.9, 0.5, 0.1]","[u'high', u'medium', u'low']","blue",49,"left","high","True","False",281,350,NA
"A1Q56N80RJLQ7S","Wed Oct 28 2020 15:34:22 GMT-0400 (Eastern Daylight Time)","Wed Oct 28 2020 15:40:34 GMT-0400 (Eastern Daylight Time)","Mozilla/5.0 (X11; Linux x86_64) AppleWebKit/537.36 (KHTML, like Gecko) Chrome/86.0.4240.75 Safari/537.36",9,"[0.9, 0.5, 0.1]","[0.8, 0.4, 0.2]","[u'blue', u'black', u'red']","[u'left', u'middle', u'right']","[0.9, 0.5, 0.1]","[u'high', u'medium', u'low']","blue",49,"left","high","True","False",308,450,NA
"A1Q56N80RJLQ7S","Wed Oct 28 2020 15:34:22 GMT-0400 (Eastern Daylight Time)","Wed Oct 28 2020 15:40:34 GMT-0400 (Eastern Daylight Time)","Mozilla/5.0 (X11; Linux x86_64) AppleWebKit/537.36 (KHTML, like Gecko) Chrome/86.0.4240.75 Safari/537.36",10,"[0.9, 0.5, 0.1]","[0.8, 0.4, 0.2]","[u'blue', u'black', u'red']","[u'left', u'middle', u'right']","[0.9, 0.5, 0.1]","[u'high', u'medium', u'low']","blue",49,"left","high","True","False",286,550,NA
"A1Q56N80RJLQ7S","Wed Oct 28 2020 15:34:22 GMT-0400 (Eastern Daylight Time)","Wed Oct 28 2020 15:40:34 GMT-0400 (Eastern Daylight Time)","Mozilla/5.0 (X11; Linux x86_64) AppleWebKit/537.36 (KHTML, like Gecko) Chrome/86.0.4240.75 Safari/537.36",11,"[0.9, 0.5, 0.1]","[0.8, 0.4, 0.2]","[u'blue', u'black', u'red']","[u'left', u'middle', u'right']","[0.9, 0.5, 0.1]","[u'high', u'medium', u'low']","blue",49,"left","high","True","True",266,650,NA
"A1Q56N80RJLQ7S","Wed Oct 28 2020 15:34:22 GMT-0400 (Eastern Daylight Time)","Wed Oct 28 2020 15:40:34 GMT-0400 (Eastern Daylight Time)","Mozilla/5.0 (X11; Linux x86_64) AppleWebKit/537.36 (KHTML, like Gecko) Chrome/86.0.4240.75 Safari/537.36",12,"[0.9, 0.5, 0.1]","[0.8, 0.4, 0.2]","[u'blue', u'black', u'red']","[u'left', u'middle', u'right']","[0.9, 0.5, 0.1]","[u'low', u'medium', u'high']","blue",49,"left","low","False","False",254,600,NA
"A1Q56N80RJLQ7S","Wed Oct 28 2020 15:34:22 GMT-0400 (Eastern Daylight Time)","Wed Oct 28 2020 15:40:34 GMT-0400 (Eastern Daylight Time)","Mozilla/5.0 (X11; Linux x86_64) AppleWebKit/537.36 (KHTML, like Gecko) Chrome/86.0.4240.75 Safari/537.36",13,"[0.9, 0.5, 0.1]","[0.8, 0.4, 0.2]","[u'blue', u'black', u'red']","[u'left', u'middle', u'right']","[0.9, 0.5, 0.1]","[u'low', u'medium', u'high']","blue",49,"left","low","False","False",326,550,NA
"A1Q56N80RJLQ7S","Wed Oct 28 2020 15:34:22 GMT-0400 (Eastern Daylight Time)","Wed Oct 28 2020 15:40:34 GMT-0400 (Eastern Daylight Time)","Mozilla/5.0 (X11; Linux x86_64) AppleWebKit/537.36 (KHTML, like Gecko) Chrome/86.0.4240.75 Safari/537.36",14,"[0.9, 0.5, 0.1]","[0.8, 0.4, 0.2]","[u'blue', u'black', u'red']","[u'left', u'middle', u'right']","[0.9, 0.5, 0.1]","[u'low', u'medium', u'high']","red",51,"right","high","True","False",234,650,NA
"A1Q56N80RJLQ7S","Wed Oct 28 2020 15:34:22 GMT-0400 (Eastern Daylight Time)","Wed Oct 28 2020 15:40:34 GMT-0400 (Eastern Daylight Time)","Mozilla/5.0 (X11; Linux x86_64) AppleWebKit/537.36 (KHTML, like Gecko) Chrome/86.0.4240.75 Safari/537.36",15,"[0.9, 0.5, 0.1]","[0.8, 0.4, 0.2]","[u'blue', u'black', u'red']","[u'left', u'middle', u'right']","[0.9, 0.5, 0.1]","[u'low', u'medium', u'high']","red",51,"right","high","True","False",302,750,NA
"A1Q56N80RJLQ7S","Wed Oct 28 2020 15:34:22 GMT-0400 (Eastern Daylight Time)","Wed Oct 28 2020 15:40:34 GMT-0400 (Eastern Daylight Time)","Mozilla/5.0 (X11; Linux x86_64) AppleWebKit/537.36 (KHTML, like Gecko) Chrome/86.0.4240.75 Safari/537.36",16,"[0.9, 0.5, 0.1]","[0.8, 0.4, 0.2]","[u'blue', u'black', u'red']","[u'left', u'middle', u'right']","[0.9, 0.5, 0.1]","[u'low', u'medium', u'high']","red",51,"right","high","True","False",233,850,NA
"A1Q56N80RJLQ7S","Wed Oct 28 2020 15:34:22 GMT-0400 (Eastern Daylight Time)","Wed Oct 28 2020 15:40:34 GMT-0400 (Eastern Daylight Time)","Mozilla/5.0 (X11; Linux x86_64) AppleWebKit/537.36 (KHTML, like Gecko) Chrome/86.0.4240.75 Safari/537.36",17,"[0.9, 0.5, 0.1]","[0.8, 0.4, 0.2]","[u'blue', u'black', u'red']","[u'left', u'middle', u'right']","[0.9, 0.5, 0.1]","[u'low', u'medium', u'high']","red",51,"right","high","True","False",213,950,NA
"A1Q56N80RJLQ7S","Wed Oct 28 2020 15:34:22 GMT-0400 (Eastern Daylight Time)","Wed Oct 28 2020 15:40:34 GMT-0400 (Eastern Daylight Time)","Mozilla/5.0 (X11; Linux x86_64) AppleWebKit/537.36 (KHTML, like Gecko) Chrome/86.0.4240.75 Safari/537.36",18,"[0.9, 0.5, 0.1]","[0.8, 0.4, 0.2]","[u'blue', u'black', u'red']","[u'left', u'middle', u'right']","[0.9, 0.5, 0.1]","[u'low', u'medium', u'high']","red",51,"right","high","True","False",205,1050,NA
"A1Q56N80RJLQ7S","Wed Oct 28 2020 15:34:22 GMT-0400 (Eastern Daylight Time)","Wed Oct 28 2020 15:40:34 GMT-0400 (Eastern Daylight Time)","Mozilla/5.0 (X11; Linux x86_64) AppleWebKit/537.36 (KHTML, like Gecko) Chrome/86.0.4240.75 Safari/537.36",19,"[0.9, 0.5, 0.1]","[0.8, 0.4, 0.2]","[u'blue', u'black', u'red']","[u'left', u'middle', u'right']","[0.9, 0.5, 0.1]","[u'low', u'medium', u'high']","red",51,"right","high","True","False",353,1150,NA
"A1Q56N80RJLQ7S","Wed Oct 28 2020 15:34:22 GMT-0400 (Eastern Daylight Time)","Wed Oct 28 2020 15:40:34 GMT-0400 (Eastern Daylight Time)","Mozilla/5.0 (X11; Linux x86_64) AppleWebKit/537.36 (KHTML, like Gecko) Chrome/86.0.4240.75 Safari/537.36",20,"[0.9, 0.5, 0.1]","[0.8, 0.4, 0.2]","[u'blue', u'black', u'red']","[u'left', u'middle', u'right']","[0.9, 0.5, 0.1]","[u'low', u'medium', u'high']","red",51,"right","high","False","False",162,1100,NA
"A1Q56N80RJLQ7S","Wed Oct 28 2020 15:34:22 GMT-0400 (Eastern Daylight Time)","Wed Oct 28 2020 15:40:34 GMT-0400 (Eastern Daylight Time)","Mozilla/5.0 (X11; Linux x86_64) AppleWebKit/537.36 (KHTML, like Gecko) Chrome/86.0.4240.75 Safari/537.36",21,"[0.9, 0.5, 0.1]","[0.8, 0.4, 0.2]","[u'blue', u'black', u'red']","[u'left', u'middle', u'right']","[0.9, 0.5, 0.1]","[u'low', u'medium', u'high']","black",50,"middle","medium","False","False",172,1050,NA
"A1Q56N80RJLQ7S","Wed Oct 28 2020 15:34:22 GMT-0400 (Eastern Daylight Time)","Wed Oct 28 2020 15:40:34 GMT-0400 (Eastern Daylight Time)","Mozilla/5.0 (X11; Linux x86_64) AppleWebKit/537.36 (KHTML, like Gecko) Chrome/86.0.4240.75 Safari/537.36",22,"[0.9, 0.5, 0.1]","[0.8, 0.4, 0.2]","[u'blue', u'black', u'red']","[u'left', u'middle', u'right']","[0.9, 0.5, 0.1]","[u'low', u'medium', u'high']","black",50,"middle","medium","True","False",4,1150,NA
"A1Q56N80RJLQ7S","Wed Oct 28 2020 15:34:22 GMT-0400 (Eastern Daylight Time)","Wed Oct 28 2020 15:40:34 GMT-0400 (Eastern Daylight Time)","Mozilla/5.0 (X11; Linux x86_64) AppleWebKit/537.36 (KHTML, like Gecko) Chrome/86.0.4240.75 Safari/537.36",23,"[0.9, 0.5, 0.1]","[0.8, 0.4, 0.2]","[u'blue', u'black', u'red']","[u'left', u'middle', u'right']","[0.9, 0.5, 0.1]","[u'low', u'medium', u'high']","black",50,"middle","medium","True","False",211,1250,NA
"A1Q56N80RJLQ7S","Wed Oct 28 2020 15:34:22 GMT-0400 (Eastern Daylight Time)","Wed Oct 28 2020 15:40:34 GMT-0400 (Eastern Daylight Time)","Mozilla/5.0 (X11; Linux x86_64) AppleWebKit/537.36 (KHTML, like Gecko) Chrome/86.0.4240.75 Safari/537.36",24,"[0.9, 0.5, 0.1]","[0.8, 0.4, 0.2]","[u'blue', u'black', u'red']","[u'left', u'middle', u'right']","[0.9, 0.5, 0.1]","[u'low', u'medium', u'high']","black",50,"middle","medium","False","False",194,1200,NA
"A1Q56N80RJLQ7S","Wed Oct 28 2020 15:34:22 GMT-0400 (Eastern Daylight Time)","Wed Oct 28 2020 15:40:34 GMT-0400 (Eastern Daylight Time)","Mozilla/5.0 (X11; Linux x86_64) AppleWebKit/537.36 (KHTML, like Gecko) Chrome/86.0.4240.75 Safari/537.36",25,"[0.9, 0.5, 0.1]","[0.8, 0.4, 0.2]","[u'blue', u'black', u'red']","[u'left', u'middle', u'right']","[0.9, 0.5, 0.1]","[u'low', u'medium', u'high']","red",51,"right","high","True","False",165,1300,NA
"A1Q56N80RJLQ7S","Wed Oct 28 2020 15:34:22 GMT-0400 (Eastern Daylight Time)","Wed Oct 28 2020 15:40:34 GMT-0400 (Eastern Daylight Time)","Mozilla/5.0 (X11; Linux x86_64) AppleWebKit/537.36 (KHTML, like Gecko) Chrome/86.0.4240.75 Safari/537.36",26,"[0.9, 0.5, 0.1]","[0.8, 0.4, 0.2]","[u'blue', u'black', u'red']","[u'left', u'middle', u'right']","[0.9, 0.5, 0.1]","[u'low', u'medium', u'high']","red",51,"right","high","True","False",206,1400,NA
"A1Q56N80RJLQ7S","Wed Oct 28 2020 15:34:22 GMT-0400 (Eastern Daylight Time)","Wed Oct 28 2020 15:40:34 GMT-0400 (Eastern Daylight Time)","Mozilla/5.0 (X11; Linux x86_64) AppleWebKit/537.36 (KHTML, like Gecko) Chrome/86.0.4240.75 Safari/537.36",27,"[0.9, 0.5, 0.1]","[0.8, 0.4, 0.2]","[u'blue', u'black', u'red']","[u'left', u'middle', u'right']","[0.9, 0.5, 0.1]","[u'low', u'medium', u'high']","red",51,"right","high","True","False",74,1500,NA
"A1Q56N80RJLQ7S","Wed Oct 28 2020 15:34:22 GMT-0400 (Eastern Daylight Time)","Wed Oct 28 2020 15:40:34 GMT-0400 (Eastern Daylight Time)","Mozilla/5.0 (X11; Linux x86_64) AppleWebKit/537.36 (KHTML, like Gecko) Chrome/86.0.4240.75 Safari/537.36",28,"[0.9, 0.5, 0.1]","[0.8, 0.4, 0.2]","[u'blue', u'black', u'red']","[u'left', u'middle', u'right']","[0.9, 0.5, 0.1]","[u'low', u'medium', u'high']","red",51,"right","high","True","False",335,1600,NA
"A1Q56N80RJLQ7S","Wed Oct 28 2020 15:34:22 GMT-0400 (Eastern Daylight Time)","Wed Oct 28 2020 15:40:34 GMT-0400 (Eastern Daylight Time)","Mozilla/5.0 (X11; Linux x86_64) AppleWebKit/537.36 (KHTML, like Gecko) Chrome/86.0.4240.75 Safari/537.36",29,"[0.9, 0.5, 0.1]","[0.8, 0.4, 0.2]","[u'blue', u'black', u'red']","[u'left', u'middle', u'right']","[0.9, 0.5, 0.1]","[u'low', u'medium', u'high']","red",51,"right","high","True","False",207,1700,NA
"A1Q56N80RJLQ7S","Wed Oct 28 2020 15:34:22 GMT-0400 (Eastern Daylight Time)","Wed Oct 28 2020 15:40:34 GMT-0400 (Eastern Daylight Time)","Mozilla/5.0 (X11; Linux x86_64) AppleWebKit/537.36 (KHTML, like Gecko) Chrome/86.0.4240.75 Safari/537.36",30,"[0.9, 0.5, 0.1]","[0.8, 0.4, 0.2]","[u'blue', u'black', u'red']","[u'left', u'middle', u'right']","[0.9, 0.5, 0.1]","[u'low', u'medium', u'high']","red",51,"right","high","True","False",176,1800,NA
"A1Q56N80RJLQ7S","Wed Oct 28 2020 15:34:22 GMT-0400 (Eastern Daylight Time)","Wed Oct 28 2020 15:40:34 GMT-0400 (Eastern Daylight Time)","Mozilla/5.0 (X11; Linux x86_64) AppleWebKit/537.36 (KHTML, like Gecko) Chrome/86.0.4240.75 Safari/537.36",31,"[0.9, 0.5, 0.1]","[0.8, 0.4, 0.2]","[u'blue', u'black', u'red']","[u'left', u'middle', u'right']","[0.9, 0.5, 0.1]","[u'low', u'medium', u'high']","red",51,"right","high","True","False",170,1900,NA
"A1Q56N80RJLQ7S","Wed Oct 28 2020 15:34:22 GMT-0400 (Eastern Daylight Time)","Wed Oct 28 2020 15:40:34 GMT-0400 (Eastern Daylight Time)","Mozilla/5.0 (X11; Linux x86_64) AppleWebKit/537.36 (KHTML, like Gecko) Chrome/86.0.4240.75 Safari/537.36",32,"[0.9, 0.5, 0.1]","[0.8, 0.4, 0.2]","[u'blue', u'black', u'red']","[u'left', u'middle', u'right']","[0.9, 0.5, 0.1]","[u'low', u'medium', u'high']","red",51,"right","high","True","False",74,2000,NA
"A1Q56N80RJLQ7S","Wed Oct 28 2020 15:34:22 GMT-0400 (Eastern Daylight Time)","Wed Oct 28 2020 15:40:34 GMT-0400 (Eastern Daylight Time)","Mozilla/5.0 (X11; Linux x86_64) AppleWebKit/537.36 (KHTML, like Gecko) Chrome/86.0.4240.75 Safari/537.36",33,"[0.9, 0.5, 0.1]","[0.8, 0.4, 0.2]","[u'blue', u'black', u'red']","[u'left', u'middle', u'right']","[0.9, 0.5, 0.1]","[u'low', u'medium', u'high']","black",50,"middle","medium","True","False",163,2100,NA
"A1Q56N80RJLQ7S","Wed Oct 28 2020 15:34:22 GMT-0400 (Eastern Daylight Time)","Wed Oct 28 2020 15:40:34 GMT-0400 (Eastern Daylight Time)","Mozilla/5.0 (X11; Linux x86_64) AppleWebKit/537.36 (KHTML, like Gecko) Chrome/86.0.4240.75 Safari/537.36",34,"[0.9, 0.5, 0.1]","[0.8, 0.4, 0.2]","[u'blue', u'black', u'red']","[u'left', u'middle', u'right']","[0.9, 0.5, 0.1]","[u'low', u'medium', u'high']","blue",49,"left","low","True","False",232,2200,NA
"A1Q56N80RJLQ7S","Wed Oct 28 2020 15:34:22 GMT-0400 (Eastern Daylight Time)","Wed Oct 28 2020 15:40:34 GMT-0400 (Eastern Daylight Time)","Mozilla/5.0 (X11; Linux x86_64) AppleWebKit/537.36 (KHTML, like Gecko) Chrome/86.0.4240.75 Safari/537.36",35,"[0.9, 0.5, 0.1]","[0.8, 0.4, 0.2]","[u'blue', u'black', u'red']","[u'left', u'middle', u'right']","[0.9, 0.5, 0.1]","[u'low', u'medium', u'high']","black",50,"middle","medium","False","False",135,2150,NA
"A1Q56N80RJLQ7S","Wed Oct 28 2020 15:34:22 GMT-0400 (Eastern Daylight Time)","Wed Oct 28 2020 15:40:34 GMT-0400 (Eastern Daylight Time)","Mozilla/5.0 (X11; Linux x86_64) AppleWebKit/537.36 (KHTML, like Gecko) Chrome/86.0.4240.75 Safari/537.36",36,"[0.9, 0.5, 0.1]","[0.8, 0.4, 0.2]","[u'blue', u'black', u'red']","[u'left', u'middle', u'right']","[0.9, 0.5, 0.1]","[u'low', u'medium', u'high']","blue",49,"left","low","False","False",368,2100,NA
"A1Q56N80RJLQ7S","Wed Oct 28 2020 15:34:22 GMT-0400 (Eastern Daylight Time)","Wed Oct 28 2020 15:40:34 GMT-0400 (Eastern Daylight Time)","Mozilla/5.0 (X11; Linux x86_64) AppleWebKit/537.36 (KHTML, like Gecko) Chrome/86.0.4240.75 Safari/537.36",37,"[0.9, 0.5, 0.1]","[0.8, 0.4, 0.2]","[u'blue', u'black', u'red']","[u'left', u'middle', u'right']","[0.9, 0.5, 0.1]","[u'low', u'medium', u'high']","red",51,"right","high","False","False",82,2050,NA
"A1Q56N80RJLQ7S","Wed Oct 28 2020 15:34:22 GMT-0400 (Eastern Daylight Time)","Wed Oct 28 2020 15:40:34 GMT-0400 (Eastern Daylight Time)","Mozilla/5.0 (X11; Linux x86_64) AppleWebKit/537.36 (KHTML, like Gecko) Chrome/86.0.4240.75 Safari/537.36",38,"[0.9, 0.5, 0.1]","[0.8, 0.4, 0.2]","[u'blue', u'black', u'red']","[u'left', u'middle', u'right']","[0.9, 0.5, 0.1]","[u'low', u'medium', u'high']","red",51,"right","high","False","False",84,2000,NA
"A1Q56N80RJLQ7S","Wed Oct 28 2020 15:34:22 GMT-0400 (Eastern Daylight Time)","Wed Oct 28 2020 15:40:34 GMT-0400 (Eastern Daylight Time)","Mozilla/5.0 (X11; Linux x86_64) AppleWebKit/537.36 (KHTML, like Gecko) Chrome/86.0.4240.75 Safari/537.36",39,"[0.9, 0.5, 0.1]","[0.8, 0.4, 0.2]","[u'blue', u'black', u'red']","[u'left', u'middle', u'right']","[0.9, 0.5, 0.1]","[u'low', u'medium', u'high']","blue",49,"left","low","False","False",92,1950,NA
"A1Q56N80RJLQ7S","Wed Oct 28 2020 15:34:22 GMT-0400 (Eastern Daylight Time)","Wed Oct 28 2020 15:40:34 GMT-0400 (Eastern Daylight Time)","Mozilla/5.0 (X11; Linux x86_64) AppleWebKit/537.36 (KHTML, like Gecko) Chrome/86.0.4240.75 Safari/537.36",40,"[0.9, 0.5, 0.1]","[0.8, 0.4, 0.2]","[u'blue', u'black', u'red']","[u'left', u'middle', u'right']","[0.9, 0.5, 0.1]","[u'low', u'medium', u'high']","red",51,"right","high","True","False",44,2050,NA
"A1Q56N80RJLQ7S","Wed Oct 28 2020 15:34:22 GMT-0400 (Eastern Daylight Time)","Wed Oct 28 2020 15:40:34 GMT-0400 (Eastern Daylight Time)","Mozilla/5.0 (X11; Linux x86_64) AppleWebKit/537.36 (KHTML, like Gecko) Chrome/86.0.4240.75 Safari/537.36",41,"[0.9, 0.5, 0.1]","[0.8, 0.4, 0.2]","[u'blue', u'black', u'red']","[u'left', u'middle', u'right']","[0.9, 0.5, 0.1]","[u'medium', u'high', u'low']","red",51,"right","low","False","False",304,2000,NA
"A1Q56N80RJLQ7S","Wed Oct 28 2020 15:34:22 GMT-0400 (Eastern Daylight Time)","Wed Oct 28 2020 15:40:34 GMT-0400 (Eastern Daylight Time)","Mozilla/5.0 (X11; Linux x86_64) AppleWebKit/537.36 (KHTML, like Gecko) Chrome/86.0.4240.75 Safari/537.36",42,"[0.9, 0.5, 0.1]","[0.8, 0.4, 0.2]","[u'blue', u'black', u'red']","[u'left', u'middle', u'right']","[0.9, 0.5, 0.1]","[u'medium', u'high', u'low']","black",50,"middle","high","True","False",23,2100,NA
"A1Q56N80RJLQ7S","Wed Oct 28 2020 15:34:22 GMT-0400 (Eastern Daylight Time)","Wed Oct 28 2020 15:40:34 GMT-0400 (Eastern Daylight Time)","Mozilla/5.0 (X11; Linux x86_64) AppleWebKit/537.36 (KHTML, like Gecko) Chrome/86.0.4240.75 Safari/537.36",43,"[0.9, 0.5, 0.1]","[0.8, 0.4, 0.2]","[u'blue', u'black', u'red']","[u'left', u'middle', u'right']","[0.9, 0.5, 0.1]","[u'medium', u'high', u'low']","black",50,"middle","high","True","False",44,2200,NA
"A1Q56N80RJLQ7S","Wed Oct 28 2020 15:34:22 GMT-0400 (Eastern Daylight Time)","Wed Oct 28 2020 15:40:34 GMT-0400 (Eastern Daylight Time)","Mozilla/5.0 (X11; Linux x86_64) AppleWebKit/537.36 (KHTML, like Gecko) Chrome/86.0.4240.75 Safari/537.36",44,"[0.9, 0.5, 0.1]","[0.8, 0.4, 0.2]","[u'blue', u'black', u'red']","[u'left', u'middle', u'right']","[0.9, 0.5, 0.1]","[u'medium', u'high', u'low']","black",50,"middle","high","False","False",194,2150,NA
"A1Q56N80RJLQ7S","Wed Oct 28 2020 15:34:22 GMT-0400 (Eastern Daylight Time)","Wed Oct 28 2020 15:40:34 GMT-0400 (Eastern Daylight Time)","Mozilla/5.0 (X11; Linux x86_64) AppleWebKit/537.36 (KHTML, like Gecko) Chrome/86.0.4240.75 Safari/537.36",45,"[0.9, 0.5, 0.1]","[0.8, 0.4, 0.2]","[u'blue', u'black', u'red']","[u'left', u'middle', u'right']","[0.9, 0.5, 0.1]","[u'medium', u'high', u'low']","blue",49,"left","medium","True","False",16,2250,NA
"A1Q56N80RJLQ7S","Wed Oct 28 2020 15:34:22 GMT-0400 (Eastern Daylight Time)","Wed Oct 28 2020 15:40:34 GMT-0400 (Eastern Daylight Time)","Mozilla/5.0 (X11; Linux x86_64) AppleWebKit/537.36 (KHTML, like Gecko) Chrome/86.0.4240.75 Safari/537.36",46,"[0.9, 0.5, 0.1]","[0.8, 0.4, 0.2]","[u'blue', u'black', u'red']","[u'left', u'middle', u'right']","[0.9, 0.5, 0.1]","[u'medium', u'high', u'low']","blue",49,"left","medium","True","False",140,2350,NA
"A1Q56N80RJLQ7S","Wed Oct 28 2020 15:34:22 GMT-0400 (Eastern Daylight Time)","Wed Oct 28 2020 15:40:34 GMT-0400 (Eastern Daylight Time)","Mozilla/5.0 (X11; Linux x86_64) AppleWebKit/537.36 (KHTML, like Gecko) Chrome/86.0.4240.75 Safari/537.36",47,"[0.9, 0.5, 0.1]","[0.8, 0.4, 0.2]","[u'blue', u'black', u'red']","[u'left', u'middle', u'right']","[0.9, 0.5, 0.1]","[u'medium', u'high', u'low']","blue",49,"left","medium","True","False",85,2450,NA
"A1Q56N80RJLQ7S","Wed Oct 28 2020 15:34:22 GMT-0400 (Eastern Daylight Time)","Wed Oct 28 2020 15:40:34 GMT-0400 (Eastern Daylight Time)","Mozilla/5.0 (X11; Linux x86_64) AppleWebKit/537.36 (KHTML, like Gecko) Chrome/86.0.4240.75 Safari/537.36",48,"[0.9, 0.5, 0.1]","[0.8, 0.4, 0.2]","[u'blue', u'black', u'red']","[u'left', u'middle', u'right']","[0.9, 0.5, 0.1]","[u'medium', u'high', u'low']","blue",49,"left","medium","False","False",172,2400,NA
"A1Q56N80RJLQ7S","Wed Oct 28 2020 15:34:22 GMT-0400 (Eastern Daylight Time)","Wed Oct 28 2020 15:40:34 GMT-0400 (Eastern Daylight Time)","Mozilla/5.0 (X11; Linux x86_64) AppleWebKit/537.36 (KHTML, like Gecko) Chrome/86.0.4240.75 Safari/537.36",49,"[0.9, 0.5, 0.1]","[0.8, 0.4, 0.2]","[u'blue', u'black', u'red']","[u'left', u'middle', u'right']","[0.9, 0.5, 0.1]","[u'medium', u'high', u'low']","red",51,"right","low","False","False",77,2350,NA
"A1Q56N80RJLQ7S","Wed Oct 28 2020 15:34:22 GMT-0400 (Eastern Daylight Time)","Wed Oct 28 2020 15:40:34 GMT-0400 (Eastern Daylight Time)","Mozilla/5.0 (X11; Linux x86_64) AppleWebKit/537.36 (KHTML, like Gecko) Chrome/86.0.4240.75 Safari/537.36",50,"[0.9, 0.5, 0.1]","[0.8, 0.4, 0.2]","[u'blue', u'black', u'red']","[u'left', u'middle', u'right']","[0.9, 0.5, 0.1]","[u'medium', u'high', u'low']","blue",49,"left","medium","False","False",338,2300,NA
"A1Q56N80RJLQ7S","Wed Oct 28 2020 15:34:22 GMT-0400 (Eastern Daylight Time)","Wed Oct 28 2020 15:40:34 GMT-0400 (Eastern Daylight Time)","Mozilla/5.0 (X11; Linux x86_64) AppleWebKit/537.36 (KHTML, like Gecko) Chrome/86.0.4240.75 Safari/537.36",51,"[0.9, 0.5, 0.1]","[0.8, 0.4, 0.2]","[u'blue', u'black', u'red']","[u'left', u'middle', u'right']","[0.9, 0.5, 0.1]","[u'medium', u'high', u'low']","black",50,"middle","high","True","False",134,2400,NA
"A1Q56N80RJLQ7S","Wed Oct 28 2020 15:34:22 GMT-0400 (Eastern Daylight Time)","Wed Oct 28 2020 15:40:34 GMT-0400 (Eastern Daylight Time)","Mozilla/5.0 (X11; Linux x86_64) AppleWebKit/537.36 (KHTML, like Gecko) Chrome/86.0.4240.75 Safari/537.36",52,"[0.9, 0.5, 0.1]","[0.8, 0.4, 0.2]","[u'blue', u'black', u'red']","[u'left', u'middle', u'right']","[0.9, 0.5, 0.1]","[u'medium', u'high', u'low']","black",50,"middle","high","True","False",56,2500,NA
"A1Q56N80RJLQ7S","Wed Oct 28 2020 15:34:22 GMT-0400 (Eastern Daylight Time)","Wed Oct 28 2020 15:40:34 GMT-0400 (Eastern Daylight Time)","Mozilla/5.0 (X11; Linux x86_64) AppleWebKit/537.36 (KHTML, like Gecko) Chrome/86.0.4240.75 Safari/537.36",53,"[0.9, 0.5, 0.1]","[0.8, 0.4, 0.2]","[u'blue', u'black', u'red']","[u'left', u'middle', u'right']","[0.9, 0.5, 0.1]","[u'medium', u'high', u'low']","black",50,"middle","high","True","False",180,2600,NA
"A1Q56N80RJLQ7S","Wed Oct 28 2020 15:34:22 GMT-0400 (Eastern Daylight Time)","Wed Oct 28 2020 15:40:34 GMT-0400 (Eastern Daylight Time)","Mozilla/5.0 (X11; Linux x86_64) AppleWebKit/537.36 (KHTML, like Gecko) Chrome/86.0.4240.75 Safari/537.36",54,"[0.9, 0.5, 0.1]","[0.8, 0.4, 0.2]","[u'blue', u'black', u'red']","[u'left', u'middle', u'right']","[0.9, 0.5, 0.1]","[u'medium', u'high', u'low']","black",50,"middle","high","True","False",58,2700,NA
"A1Q56N80RJLQ7S","Wed Oct 28 2020 15:34:22 GMT-0400 (Eastern Daylight Time)","Wed Oct 28 2020 15:40:34 GMT-0400 (Eastern Daylight Time)","Mozilla/5.0 (X11; Linux x86_64) AppleWebKit/537.36 (KHTML, like Gecko) Chrome/86.0.4240.75 Safari/537.36",55,"[0.9, 0.5, 0.1]","[0.8, 0.4, 0.2]","[u'blue', u'black', u'red']","[u'left', u'middle', u'right']","[0.9, 0.5, 0.1]","[u'medium', u'high', u'low']","black",50,"middle","high","False","False",156,2650,NA
"A1Q56N80RJLQ7S","Wed Oct 28 2020 15:34:22 GMT-0400 (Eastern Daylight Time)","Wed Oct 28 2020 15:40:34 GMT-0400 (Eastern Daylight Time)","Mozilla/5.0 (X11; Linux x86_64) AppleWebKit/537.36 (KHTML, like Gecko) Chrome/86.0.4240.75 Safari/537.36",56,"[0.9, 0.5, 0.1]","[0.8, 0.4, 0.2]","[u'blue', u'black', u'red']","[u'left', u'middle', u'right']","[0.9, 0.5, 0.1]","[u'medium', u'high', u'low']","blue",49,"left","medium","False","False",313,2600,NA
"A1Q56N80RJLQ7S","Wed Oct 28 2020 15:34:22 GMT-0400 (Eastern Daylight Time)","Wed Oct 28 2020 15:40:34 GMT-0400 (Eastern Daylight Time)","Mozilla/5.0 (X11; Linux x86_64) AppleWebKit/537.36 (KHTML, like Gecko) Chrome/86.0.4240.75 Safari/537.36",57,"[0.9, 0.5, 0.1]","[0.8, 0.4, 0.2]","[u'blue', u'black', u'red']","[u'left', u'middle', u'right']","[0.9, 0.5, 0.1]","[u'medium', u'high', u'low']","red",51,"right","low","False","False",168,2550,NA
"A1Q56N80RJLQ7S","Wed Oct 28 2020 15:34:22 GMT-0400 (Eastern Daylight Time)","Wed Oct 28 2020 15:40:34 GMT-0400 (Eastern Daylight Time)","Mozilla/5.0 (X11; Linux x86_64) AppleWebKit/537.36 (KHTML, like Gecko) Chrome/86.0.4240.75 Safari/537.36",58,"[0.9, 0.5, 0.1]","[0.8, 0.4, 0.2]","[u'blue', u'black', u'red']","[u'left', u'middle', u'right']","[0.9, 0.5, 0.1]","[u'medium', u'high', u'low']","black",50,"middle","high","False","False",321,2500,NA
"A1Q56N80RJLQ7S","Wed Oct 28 2020 15:34:22 GMT-0400 (Eastern Daylight Time)","Wed Oct 28 2020 15:40:34 GMT-0400 (Eastern Daylight Time)","Mozilla/5.0 (X11; Linux x86_64) AppleWebKit/537.36 (KHTML, like Gecko) Chrome/86.0.4240.75 Safari/537.36",59,"[0.9, 0.5, 0.1]","[0.8, 0.4, 0.2]","[u'blue', u'black', u'red']","[u'left', u'middle', u'right']","[0.9, 0.5, 0.1]","[u'medium', u'high', u'low']","blue",49,"left","medium","False","False",119,2450,NA
"A1Q56N80RJLQ7S","Wed Oct 28 2020 15:34:22 GMT-0400 (Eastern Daylight Time)","Wed Oct 28 2020 15:40:34 GMT-0400 (Eastern Daylight Time)","Mozilla/5.0 (X11; Linux x86_64) AppleWebKit/537.36 (KHTML, like Gecko) Chrome/86.0.4240.75 Safari/537.36",60,"[0.9, 0.5, 0.1]","[0.8, 0.4, 0.2]","[u'blue', u'black', u'red']","[u'left', u'middle', u'right']","[0.9, 0.5, 0.1]","[u'medium', u'high', u'low']","black",50,"middle","high","True","False",188,2550,NA
"A1Q56N80RJLQ7S","Wed Oct 28 2020 15:34:22 GMT-0400 (Eastern Daylight Time)","Wed Oct 28 2020 15:40:34 GMT-0400 (Eastern Daylight Time)","Mozilla/5.0 (X11; Linux x86_64) AppleWebKit/537.36 (KHTML, like Gecko) Chrome/86.0.4240.75 Safari/537.36",61,"[0.9, 0.5, 0.1]","[0.8, 0.4, 0.2]","[u'blue', u'black', u'red']","[u'left', u'middle', u'right']","[0.9, 0.5, 0.1]","[u'medium', u'high', u'low']","black",50,"middle","high","True","False",238,2650,NA
"A1Q56N80RJLQ7S","Wed Oct 28 2020 15:34:22 GMT-0400 (Eastern Daylight Time)","Wed Oct 28 2020 15:40:34 GMT-0400 (Eastern Daylight Time)","Mozilla/5.0 (X11; Linux x86_64) AppleWebKit/537.36 (KHTML, like Gecko) Chrome/86.0.4240.75 Safari/537.36",62,"[0.9, 0.5, 0.1]","[0.8, 0.4, 0.2]","[u'blue', u'black', u'red']","[u'left', u'middle', u'right']","[0.9, 0.5, 0.1]","[u'medium', u'high', u'low']","black",50,"middle","high","True","False",191,2750,NA
"A1Q56N80RJLQ7S","Wed Oct 28 2020 15:34:22 GMT-0400 (Eastern Daylight Time)","Wed Oct 28 2020 15:40:34 GMT-0400 (Eastern Daylight Time)","Mozilla/5.0 (X11; Linux x86_64) AppleWebKit/537.36 (KHTML, like Gecko) Chrome/86.0.4240.75 Safari/537.36",63,"[0.9, 0.5, 0.1]","[0.8, 0.4, 0.2]","[u'blue', u'black', u'red']","[u'left', u'middle', u'right']","[0.9, 0.5, 0.1]","[u'medium', u'high', u'low']","black",50,"middle","high","True","False",8,2850,NA
"A1Q56N80RJLQ7S","Wed Oct 28 2020 15:34:22 GMT-0400 (Eastern Daylight Time)","Wed Oct 28 2020 15:40:34 GMT-0400 (Eastern Daylight Time)","Mozilla/5.0 (X11; Linux x86_64) AppleWebKit/537.36 (KHTML, like Gecko) Chrome/86.0.4240.75 Safari/537.36",64,"[0.9, 0.5, 0.1]","[0.8, 0.4, 0.2]","[u'blue', u'black', u'red']","[u'left', u'middle', u'right']","[0.9, 0.5, 0.1]","[u'medium', u'high', u'low']","black",50,"middle","high","True","False",42,2950,NA
"A1Q56N80RJLQ7S","Wed Oct 28 2020 15:34:22 GMT-0400 (Eastern Daylight Time)","Wed Oct 28 2020 15:40:34 GMT-0400 (Eastern Daylight Time)","Mozilla/5.0 (X11; Linux x86_64) AppleWebKit/537.36 (KHTML, like Gecko) Chrome/86.0.4240.75 Safari/537.36",65,"[0.9, 0.5, 0.1]","[0.8, 0.4, 0.2]","[u'blue', u'black', u'red']","[u'left', u'middle', u'right']","[0.9, 0.5, 0.1]","[u'medium', u'high', u'low']","black",50,"middle","high","True","False",73,3050,NA
"A1Q56N80RJLQ7S","Wed Oct 28 2020 15:34:22 GMT-0400 (Eastern Daylight Time)","Wed Oct 28 2020 15:40:34 GMT-0400 (Eastern Daylight Time)","Mozilla/5.0 (X11; Linux x86_64) AppleWebKit/537.36 (KHTML, like Gecko) Chrome/86.0.4240.75 Safari/537.36",66,"[0.9, 0.5, 0.1]","[0.8, 0.4, 0.2]","[u'blue', u'black', u'red']","[u'left', u'middle', u'right']","[0.9, 0.5, 0.1]","[u'medium', u'high', u'low']","black",50,"middle","high","False","False",194,3000,NA
"A1Q56N80RJLQ7S","Wed Oct 28 2020 15:34:22 GMT-0400 (Eastern Daylight Time)","Wed Oct 28 2020 15:40:34 GMT-0400 (Eastern Daylight Time)","Mozilla/5.0 (X11; Linux x86_64) AppleWebKit/537.36 (KHTML, like Gecko) Chrome/86.0.4240.75 Safari/537.36",67,"[0.9, 0.5, 0.1]","[0.8, 0.4, 0.2]","[u'blue', u'black', u'red']","[u'left', u'middle', u'right']","[0.9, 0.5, 0.1]","[u'medium', u'high', u'low']","red",51,"right","low","False","False",120,2950,NA
"A1Q56N80RJLQ7S","Wed Oct 28 2020 15:34:22 GMT-0400 (Eastern Daylight Time)","Wed Oct 28 2020 15:40:34 GMT-0400 (Eastern Daylight Time)","Mozilla/5.0 (X11; Linux x86_64) AppleWebKit/537.36 (KHTML, like Gecko) Chrome/86.0.4240.75 Safari/537.36",68,"[0.9, 0.5, 0.1]","[0.8, 0.4, 0.2]","[u'blue', u'black', u'red']","[u'left', u'middle', u'right']","[0.9, 0.5, 0.1]","[u'medium', u'high', u'low']","blue",49,"left","medium","True","False",158,3050,NA
"A1Q56N80RJLQ7S","Wed Oct 28 2020 15:34:22 GMT-0400 (Eastern Daylight Time)","Wed Oct 28 2020 15:40:34 GMT-0400 (Eastern Daylight Time)","Mozilla/5.0 (X11; Linux x86_64) AppleWebKit/537.36 (KHTML, like Gecko) Chrome/86.0.4240.75 Safari/537.36",69,"[0.9, 0.5, 0.1]","[0.8, 0.4, 0.2]","[u'blue', u'black', u'red']","[u'left', u'middle', u'right']","[0.9, 0.5, 0.1]","[u'medium', u'high', u'low']","blue",49,"left","medium","True","False",94,3150,NA
"A1Q56N80RJLQ7S","Wed Oct 28 2020 15:34:22 GMT-0400 (Eastern Daylight Time)","Wed Oct 28 2020 15:40:34 GMT-0400 (Eastern Daylight Time)","Mozilla/5.0 (X11; Linux x86_64) AppleWebKit/537.36 (KHTML, like Gecko) Chrome/86.0.4240.75 Safari/537.36",70,"[0.9, 0.5, 0.1]","[0.8, 0.4, 0.2]","[u'blue', u'black', u'red']","[u'left', u'middle', u'right']","[0.9, 0.5, 0.1]","[u'medium', u'high', u'low']","black",50,"middle","high","True","False",200,3250,NA
"A1Q56N80RJLQ7S","Wed Oct 28 2020 15:34:22 GMT-0400 (Eastern Daylight Time)","Wed Oct 28 2020 15:40:34 GMT-0400 (Eastern Daylight Time)","Mozilla/5.0 (X11; Linux x86_64) AppleWebKit/537.36 (KHTML, like Gecko) Chrome/86.0.4240.75 Safari/537.36",71,"[0.9, 0.5, 0.1]","[0.8, 0.4, 0.2]","[u'blue', u'black', u'red']","[u'left', u'middle', u'right']","[0.9, 0.5, 0.1]","[u'medium', u'high', u'low']","black",50,"middle","high","True","False",51,3350,NA
"A1Q56N80RJLQ7S","Wed Oct 28 2020 15:34:22 GMT-0400 (Eastern Daylight Time)","Wed Oct 28 2020 15:40:34 GMT-0400 (Eastern Daylight Time)","Mozilla/5.0 (X11; Linux x86_64) AppleWebKit/537.36 (KHTML, like Gecko) Chrome/86.0.4240.75 Safari/537.36",72,"[0.9, 0.5, 0.1]","[0.8, 0.4, 0.2]","[u'blue', u'black', u'red']","[u'left', u'middle', u'right']","[0.9, 0.5, 0.1]","[u'medium', u'high', u'low']","red",51,"right","low","False","False",122,3300,NA
"A1Q56N80RJLQ7S","Wed Oct 28 2020 15:34:22 GMT-0400 (Eastern Daylight Time)","Wed Oct 28 2020 15:40:34 GMT-0400 (Eastern Daylight Time)","Mozilla/5.0 (X11; Linux x86_64) AppleWebKit/537.36 (KHTML, like Gecko) Chrome/86.0.4240.75 Safari/537.36",73,"[0.9, 0.5, 0.1]","[0.8, 0.4, 0.2]","[u'blue', u'black', u'red']","[u'left', u'middle', u'right']","[0.9, 0.5, 0.1]","[u'medium', u'high', u'low']","blue",49,"left","medium","False","False",35,3250,NA
"A1Q56N80RJLQ7S","Wed Oct 28 2020 15:34:22 GMT-0400 (Eastern Daylight Time)","Wed Oct 28 2020 15:40:34 GMT-0400 (Eastern Daylight Time)","Mozilla/5.0 (X11; Linux x86_64) AppleWebKit/537.36 (KHTML, like Gecko) Chrome/86.0.4240.75 Safari/537.36",74,"[0.9, 0.5, 0.1]","[0.8, 0.4, 0.2]","[u'blue', u'black', u'red']","[u'left', u'middle', u'right']","[0.9, 0.5, 0.1]","[u'medium', u'high', u'low']","black",50,"middle","high","True","False",165,3350,NA
"A1Q56N80RJLQ7S","Wed Oct 28 2020 15:34:22 GMT-0400 (Eastern Daylight Time)","Wed Oct 28 2020 15:40:34 GMT-0400 (Eastern Daylight Time)","Mozilla/5.0 (X11; Linux x86_64) AppleWebKit/537.36 (KHTML, like Gecko) Chrome/86.0.4240.75 Safari/537.36",75,"[0.9, 0.5, 0.1]","[0.8, 0.4, 0.2]","[u'blue', u'black', u'red']","[u'left', u'middle', u'right']","[0.9, 0.5, 0.1]","[u'medium', u'high', u'low']","black",50,"middle","high","True","False",214,3450,NA
"A1Q56N80RJLQ7S","Wed Oct 28 2020 15:34:22 GMT-0400 (Eastern Daylight Time)","Wed Oct 28 2020 15:40:34 GMT-0400 (Eastern Daylight Time)","Mozilla/5.0 (X11; Linux x86_64) AppleWebKit/537.36 (KHTML, like Gecko) Chrome/86.0.4240.75 Safari/537.36",76,"[0.9, 0.5, 0.1]","[0.8, 0.4, 0.2]","[u'blue', u'black', u'red']","[u'left', u'middle', u'right']","[0.9, 0.5, 0.1]","[u'medium', u'high', u'low']","black",50,"middle","high","True","False",242,3550,NA
"A1Q56N80RJLQ7S","Wed Oct 28 2020 15:34:22 GMT-0400 (Eastern Daylight Time)","Wed Oct 28 2020 15:40:34 GMT-0400 (Eastern Daylight Time)","Mozilla/5.0 (X11; Linux x86_64) AppleWebKit/537.36 (KHTML, like Gecko) Chrome/86.0.4240.75 Safari/537.36",77,"[0.9, 0.5, 0.1]","[0.8, 0.4, 0.2]","[u'blue', u'black', u'red']","[u'left', u'middle', u'right']","[0.9, 0.5, 0.1]","[u'medium', u'high', u'low']","red",51,"right","low","False","False",5699,3500,NA
"A1Q56N80RJLQ7S","Wed Oct 28 2020 15:34:22 GMT-0400 (Eastern Daylight Time)","Wed Oct 28 2020 15:40:34 GMT-0400 (Eastern Daylight Time)","Mozilla/5.0 (X11; Linux x86_64) AppleWebKit/537.36 (KHTML, like Gecko) Chrome/86.0.4240.75 Safari/537.36",78,"[0.9, 0.5, 0.1]","[0.8, 0.4, 0.2]","[u'blue', u'black', u'red']","[u'left', u'middle', u'right']","[0.9, 0.5, 0.1]","[u'medium', u'high', u'low']","black",50,"middle","high","True","False",217,3600,NA
"A1Q56N80RJLQ7S","Wed Oct 28 2020 15:34:22 GMT-0400 (Eastern Daylight Time)","Wed Oct 28 2020 15:40:34 GMT-0400 (Eastern Daylight Time)","Mozilla/5.0 (X11; Linux x86_64) AppleWebKit/537.36 (KHTML, like Gecko) Chrome/86.0.4240.75 Safari/537.36",79,"[0.9, 0.5, 0.1]","[0.8, 0.4, 0.2]","[u'blue', u'black', u'red']","[u'left', u'middle', u'right']","[0.9, 0.5, 0.1]","[u'medium', u'high', u'low']","black",50,"middle","high","True","False",165,3700,NA
"A1Q56N80RJLQ7S","Wed Oct 28 2020 15:34:22 GMT-0400 (Eastern Daylight Time)","Wed Oct 28 2020 15:40:34 GMT-0400 (Eastern Daylight Time)","Mozilla/5.0 (X11; Linux x86_64) AppleWebKit/537.36 (KHTML, like Gecko) Chrome/86.0.4240.75 Safari/537.36",80,"[0.9, 0.5, 0.1]","[0.8, 0.4, 0.2]","[u'blue', u'black', u'red']","[u'left', u'middle', u'right']","[0.9, 0.5, 0.1]","[u'medium', u'high', u'low']","blue",49,"left","medium","True","False",282,3800,NA
"A1Q56N80RJLQ7S","Wed Oct 28 2020 15:34:22 GMT-0400 (Eastern Daylight Time)","Wed Oct 28 2020 15:40:34 GMT-0400 (Eastern Daylight Time)","Mozilla/5.0 (X11; Linux x86_64) AppleWebKit/537.36 (KHTML, like Gecko) Chrome/86.0.4240.75 Safari/537.36",81,"[0.9, 0.5, 0.1]","[0.8, 0.4, 0.2]","[u'blue', u'black', u'red']","[u'left', u'middle', u'right']","[0.8, 0.4, 0.2]","[u'high', u'low', u'medium']","black",50,"middle","low","False","False",232,3750,NA
"A1Q56N80RJLQ7S","Wed Oct 28 2020 15:34:22 GMT-0400 (Eastern Daylight Time)","Wed Oct 28 2020 15:40:34 GMT-0400 (Eastern Daylight Time)","Mozilla/5.0 (X11; Linux x86_64) AppleWebKit/537.36 (KHTML, like Gecko) Chrome/86.0.4240.75 Safari/537.36",82,"[0.9, 0.5, 0.1]","[0.8, 0.4, 0.2]","[u'blue', u'black', u'red']","[u'left', u'middle', u'right']","[0.8, 0.4, 0.2]","[u'high', u'low', u'medium']","blue",49,"left","high","True","False",86,3850,NA
"A1Q56N80RJLQ7S","Wed Oct 28 2020 15:34:22 GMT-0400 (Eastern Daylight Time)","Wed Oct 28 2020 15:40:34 GMT-0400 (Eastern Daylight Time)","Mozilla/5.0 (X11; Linux x86_64) AppleWebKit/537.36 (KHTML, like Gecko) Chrome/86.0.4240.75 Safari/537.36",83,"[0.9, 0.5, 0.1]","[0.8, 0.4, 0.2]","[u'blue', u'black', u'red']","[u'left', u'middle', u'right']","[0.8, 0.4, 0.2]","[u'high', u'low', u'medium']","blue",49,"left","high","False","False",57,3800,NA
"A1Q56N80RJLQ7S","Wed Oct 28 2020 15:34:22 GMT-0400 (Eastern Daylight Time)","Wed Oct 28 2020 15:40:34 GMT-0400 (Eastern Daylight Time)","Mozilla/5.0 (X11; Linux x86_64) AppleWebKit/537.36 (KHTML, like Gecko) Chrome/86.0.4240.75 Safari/537.36",84,"[0.9, 0.5, 0.1]","[0.8, 0.4, 0.2]","[u'blue', u'black', u'red']","[u'left', u'middle', u'right']","[0.8, 0.4, 0.2]","[u'high', u'low', u'medium']","red",51,"right","medium","False","False",312,3750,NA
"A1Q56N80RJLQ7S","Wed Oct 28 2020 15:34:22 GMT-0400 (Eastern Daylight Time)","Wed Oct 28 2020 15:40:34 GMT-0400 (Eastern Daylight Time)","Mozilla/5.0 (X11; Linux x86_64) AppleWebKit/537.36 (KHTML, like Gecko) Chrome/86.0.4240.75 Safari/537.36",85,"[0.9, 0.5, 0.1]","[0.8, 0.4, 0.2]","[u'blue', u'black', u'red']","[u'left', u'middle', u'right']","[0.8, 0.4, 0.2]","[u'high', u'low', u'medium']","blue",49,"left","high","True","False",55,3850,NA
"A1Q56N80RJLQ7S","Wed Oct 28 2020 15:34:22 GMT-0400 (Eastern Daylight Time)","Wed Oct 28 2020 15:40:34 GMT-0400 (Eastern Daylight Time)","Mozilla/5.0 (X11; Linux x86_64) AppleWebKit/537.36 (KHTML, like Gecko) Chrome/86.0.4240.75 Safari/537.36",86,"[0.9, 0.5, 0.1]","[0.8, 0.4, 0.2]","[u'blue', u'black', u'red']","[u'left', u'middle', u'right']","[0.8, 0.4, 0.2]","[u'high', u'low', u'medium']","blue",49,"left","high","True","False",119,3950,NA
"A1Q56N80RJLQ7S","Wed Oct 28 2020 15:34:22 GMT-0400 (Eastern Daylight Time)","Wed Oct 28 2020 15:40:34 GMT-0400 (Eastern Daylight Time)","Mozilla/5.0 (X11; Linux x86_64) AppleWebKit/537.36 (KHTML, like Gecko) Chrome/86.0.4240.75 Safari/537.36",87,"[0.9, 0.5, 0.1]","[0.8, 0.4, 0.2]","[u'blue', u'black', u'red']","[u'left', u'middle', u'right']","[0.8, 0.4, 0.2]","[u'high', u'low', u'medium']","blue",49,"left","high","True","False",20,4050,NA
"A1Q56N80RJLQ7S","Wed Oct 28 2020 15:34:22 GMT-0400 (Eastern Daylight Time)","Wed Oct 28 2020 15:40:34 GMT-0400 (Eastern Daylight Time)","Mozilla/5.0 (X11; Linux x86_64) AppleWebKit/537.36 (KHTML, like Gecko) Chrome/86.0.4240.75 Safari/537.36",88,"[0.9, 0.5, 0.1]","[0.8, 0.4, 0.2]","[u'blue', u'black', u'red']","[u'left', u'middle', u'right']","[0.8, 0.4, 0.2]","[u'high', u'low', u'medium']","blue",49,"left","high","True","False",186,4150,NA
"A1Q56N80RJLQ7S","Wed Oct 28 2020 15:34:22 GMT-0400 (Eastern Daylight Time)","Wed Oct 28 2020 15:40:34 GMT-0400 (Eastern Daylight Time)","Mozilla/5.0 (X11; Linux x86_64) AppleWebKit/537.36 (KHTML, like Gecko) Chrome/86.0.4240.75 Safari/537.36",89,"[0.9, 0.5, 0.1]","[0.8, 0.4, 0.2]","[u'blue', u'black', u'red']","[u'left', u'middle', u'right']","[0.8, 0.4, 0.2]","[u'high', u'low', u'medium']","blue",49,"left","high","False","False",46,4100,NA
"A1Q56N80RJLQ7S","Wed Oct 28 2020 15:34:22 GMT-0400 (Eastern Daylight Time)","Wed Oct 28 2020 15:40:34 GMT-0400 (Eastern Daylight Time)","Mozilla/5.0 (X11; Linux x86_64) AppleWebKit/537.36 (KHTML, like Gecko) Chrome/86.0.4240.75 Safari/537.36",90,"[0.9, 0.5, 0.1]","[0.8, 0.4, 0.2]","[u'blue', u'black', u'red']","[u'left', u'middle', u'right']","[0.8, 0.4, 0.2]","[u'high', u'low', u'medium']","red",51,"right","medium","False","False",17,4050,NA
"A1Q56N80RJLQ7S","Wed Oct 28 2020 15:34:22 GMT-0400 (Eastern Daylight Time)","Wed Oct 28 2020 15:40:34 GMT-0400 (Eastern Daylight Time)","Mozilla/5.0 (X11; Linux x86_64) AppleWebKit/537.36 (KHTML, like Gecko) Chrome/86.0.4240.75 Safari/537.36",91,"[0.9, 0.5, 0.1]","[0.8, 0.4, 0.2]","[u'blue', u'black', u'red']","[u'left', u'middle', u'right']","[0.8, 0.4, 0.2]","[u'high', u'low', u'medium']","blue",49,"left","high","True","False",308,4150,NA
"A1Q56N80RJLQ7S","Wed Oct 28 2020 15:34:22 GMT-0400 (Eastern Daylight Time)","Wed Oct 28 2020 15:40:34 GMT-0400 (Eastern Daylight Time)","Mozilla/5.0 (X11; Linux x86_64) AppleWebKit/537.36 (KHTML, like Gecko) Chrome/86.0.4240.75 Safari/537.36",92,"[0.9, 0.5, 0.1]","[0.8, 0.4, 0.2]","[u'blue', u'black', u'red']","[u'left', u'middle', u'right']","[0.8, 0.4, 0.2]","[u'high', u'low', u'medium']","blue",49,"left","high","True","False",77,4250,NA
"A1Q56N80RJLQ7S","Wed Oct 28 2020 15:34:22 GMT-0400 (Eastern Daylight Time)","Wed Oct 28 2020 15:40:34 GMT-0400 (Eastern Daylight Time)","Mozilla/5.0 (X11; Linux x86_64) AppleWebKit/537.36 (KHTML, like Gecko) Chrome/86.0.4240.75 Safari/537.36",93,"[0.9, 0.5, 0.1]","[0.8, 0.4, 0.2]","[u'blue', u'black', u'red']","[u'left', u'middle', u'right']","[0.8, 0.4, 0.2]","[u'high', u'low', u'medium']","blue",49,"left","high","True","False",56,4350,NA
"A1Q56N80RJLQ7S","Wed Oct 28 2020 15:34:22 GMT-0400 (Eastern Daylight Time)","Wed Oct 28 2020 15:40:34 GMT-0400 (Eastern Daylight Time)","Mozilla/5.0 (X11; Linux x86_64) AppleWebKit/537.36 (KHTML, like Gecko) Chrome/86.0.4240.75 Safari/537.36",94,"[0.9, 0.5, 0.1]","[0.8, 0.4, 0.2]","[u'blue', u'black', u'red']","[u'left', u'middle', u'right']","[0.8, 0.4, 0.2]","[u'high', u'low', u'medium']","blue",49,"left","high","True","False",46,4450,NA
"A1Q56N80RJLQ7S","Wed Oct 28 2020 15:34:22 GMT-0400 (Eastern Daylight Time)","Wed Oct 28 2020 15:40:34 GMT-0400 (Eastern Daylight Time)","Mozilla/5.0 (X11; Linux x86_64) AppleWebKit/537.36 (KHTML, like Gecko) Chrome/86.0.4240.75 Safari/537.36",95,"[0.9, 0.5, 0.1]","[0.8, 0.4, 0.2]","[u'blue', u'black', u'red']","[u'left', u'middle', u'right']","[0.8, 0.4, 0.2]","[u'high', u'low', u'medium']","blue",49,"left","high","True","False",1372,4550,NA
"A1Q56N80RJLQ7S","Wed Oct 28 2020 15:34:22 GMT-0400 (Eastern Daylight Time)","Wed Oct 28 2020 15:40:34 GMT-0400 (Eastern Daylight Time)","Mozilla/5.0 (X11; Linux x86_64) AppleWebKit/537.36 (KHTML, like Gecko) Chrome/86.0.4240.75 Safari/537.36",96,"[0.9, 0.5, 0.1]","[0.8, 0.4, 0.2]","[u'blue', u'black', u'red']","[u'left', u'middle', u'right']","[0.8, 0.4, 0.2]","[u'high', u'low', u'medium']","blue",49,"left","high","True","False",234,4650,NA
"A1Q56N80RJLQ7S","Wed Oct 28 2020 15:34:22 GMT-0400 (Eastern Daylight Time)","Wed Oct 28 2020 15:40:34 GMT-0400 (Eastern Daylight Time)","Mozilla/5.0 (X11; Linux x86_64) AppleWebKit/537.36 (KHTML, like Gecko) Chrome/86.0.4240.75 Safari/537.36",97,"[0.9, 0.5, 0.1]","[0.8, 0.4, 0.2]","[u'blue', u'black', u'red']","[u'left', u'middle', u'right']","[0.8, 0.4, 0.2]","[u'high', u'low', u'medium']","blue",49,"left","high","False","False",165,4600,NA
"A1Q56N80RJLQ7S","Wed Oct 28 2020 15:34:22 GMT-0400 (Eastern Daylight Time)","Wed Oct 28 2020 15:40:34 GMT-0400 (Eastern Daylight Time)","Mozilla/5.0 (X11; Linux x86_64) AppleWebKit/537.36 (KHTML, like Gecko) Chrome/86.0.4240.75 Safari/537.36",98,"[0.9, 0.5, 0.1]","[0.8, 0.4, 0.2]","[u'blue', u'black', u'red']","[u'left', u'middle', u'right']","[0.8, 0.4, 0.2]","[u'high', u'low', u'medium']","black",50,"middle","low","True","False",82,4700,NA
"A1Q56N80RJLQ7S","Wed Oct 28 2020 15:34:22 GMT-0400 (Eastern Daylight Time)","Wed Oct 28 2020 15:40:34 GMT-0400 (Eastern Daylight Time)","Mozilla/5.0 (X11; Linux x86_64) AppleWebKit/537.36 (KHTML, like Gecko) Chrome/86.0.4240.75 Safari/537.36",99,"[0.9, 0.5, 0.1]","[0.8, 0.4, 0.2]","[u'blue', u'black', u'red']","[u'left', u'middle', u'right']","[0.8, 0.4, 0.2]","[u'high', u'low', u'medium']","black",50,"middle","low","False","False",176,4650,NA
"A1Q56N80RJLQ7S","Wed Oct 28 2020 15:34:22 GMT-0400 (Eastern Daylight Time)","Wed Oct 28 2020 15:40:34 GMT-0400 (Eastern Daylight Time)","Mozilla/5.0 (X11; Linux x86_64) AppleWebKit/537.36 (KHTML, like Gecko) Chrome/86.0.4240.75 Safari/537.36",100,"[0.9, 0.5, 0.1]","[0.8, 0.4, 0.2]","[u'blue', u'black', u'red']","[u'left', u'middle', u'right']","[0.8, 0.4, 0.2]","[u'high', u'low', u'medium']","blue",49,"left","high","True","False",1224,4750,NA
"A1Q56N80RJLQ7S","Wed Oct 28 2020 15:34:22 GMT-0400 (Eastern Daylight Time)","Wed Oct 28 2020 15:40:34 GMT-0400 (Eastern Daylight Time)","Mozilla/5.0 (X11; Linux x86_64) AppleWebKit/537.36 (KHTML, like Gecko) Chrome/86.0.4240.75 Safari/537.36",101,"[0.9, 0.5, 0.1]","[0.8, 0.4, 0.2]","[u'blue', u'black', u'red']","[u'left', u'middle', u'right']","[0.8, 0.4, 0.2]","[u'high', u'low', u'medium']","red",51,"right","medium","True","False",249,4850,NA
"A1Q56N80RJLQ7S","Wed Oct 28 2020 15:34:22 GMT-0400 (Eastern Daylight Time)","Wed Oct 28 2020 15:40:34 GMT-0400 (Eastern Daylight Time)","Mozilla/5.0 (X11; Linux x86_64) AppleWebKit/537.36 (KHTML, like Gecko) Chrome/86.0.4240.75 Safari/537.36",102,"[0.9, 0.5, 0.1]","[0.8, 0.4, 0.2]","[u'blue', u'black', u'red']","[u'left', u'middle', u'right']","[0.8, 0.4, 0.2]","[u'high', u'low', u'medium']","red",51,"right","medium","False","False",178,4800,NA
"A1Q56N80RJLQ7S","Wed Oct 28 2020 15:34:22 GMT-0400 (Eastern Daylight Time)","Wed Oct 28 2020 15:40:34 GMT-0400 (Eastern Daylight Time)","Mozilla/5.0 (X11; Linux x86_64) AppleWebKit/537.36 (KHTML, like Gecko) Chrome/86.0.4240.75 Safari/537.36",103,"[0.9, 0.5, 0.1]","[0.8, 0.4, 0.2]","[u'blue', u'black', u'red']","[u'left', u'middle', u'right']","[0.8, 0.4, 0.2]","[u'high', u'low', u'medium']","red",51,"right","medium","True","False",55,4900,NA
"A1Q56N80RJLQ7S","Wed Oct 28 2020 15:34:22 GMT-0400 (Eastern Daylight Time)","Wed Oct 28 2020 15:40:34 GMT-0400 (Eastern Daylight Time)","Mozilla/5.0 (X11; Linux x86_64) AppleWebKit/537.36 (KHTML, like Gecko) Chrome/86.0.4240.75 Safari/537.36",104,"[0.9, 0.5, 0.1]","[0.8, 0.4, 0.2]","[u'blue', u'black', u'red']","[u'left', u'middle', u'right']","[0.8, 0.4, 0.2]","[u'high', u'low', u'medium']","red",51,"right","medium","True","False",166,5000,NA
"A1Q56N80RJLQ7S","Wed Oct 28 2020 15:34:22 GMT-0400 (Eastern Daylight Time)","Wed Oct 28 2020 15:40:34 GMT-0400 (Eastern Daylight Time)","Mozilla/5.0 (X11; Linux x86_64) AppleWebKit/537.36 (KHTML, like Gecko) Chrome/86.0.4240.75 Safari/537.36",105,"[0.9, 0.5, 0.1]","[0.8, 0.4, 0.2]","[u'blue', u'black', u'red']","[u'left', u'middle', u'right']","[0.8, 0.4, 0.2]","[u'high', u'low', u'medium']","red",51,"right","medium","False","False",217,4950,NA
"A1Q56N80RJLQ7S","Wed Oct 28 2020 15:34:22 GMT-0400 (Eastern Daylight Time)","Wed Oct 28 2020 15:40:34 GMT-0400 (Eastern Daylight Time)","Mozilla/5.0 (X11; Linux x86_64) AppleWebKit/537.36 (KHTML, like Gecko) Chrome/86.0.4240.75 Safari/537.36",106,"[0.9, 0.5, 0.1]","[0.8, 0.4, 0.2]","[u'blue', u'black', u'red']","[u'left', u'middle', u'right']","[0.8, 0.4, 0.2]","[u'high', u'low', u'medium']","black",50,"middle","low","False","False",77,4900,NA
"A1Q56N80RJLQ7S","Wed Oct 28 2020 15:34:22 GMT-0400 (Eastern Daylight Time)","Wed Oct 28 2020 15:40:34 GMT-0400 (Eastern Daylight Time)","Mozilla/5.0 (X11; Linux x86_64) AppleWebKit/537.36 (KHTML, like Gecko) Chrome/86.0.4240.75 Safari/537.36",107,"[0.9, 0.5, 0.1]","[0.8, 0.4, 0.2]","[u'blue', u'black', u'red']","[u'left', u'middle', u'right']","[0.8, 0.4, 0.2]","[u'high', u'low', u'medium']","blue",49,"left","high","True","False",22,5000,NA
"A1Q56N80RJLQ7S","Wed Oct 28 2020 15:34:22 GMT-0400 (Eastern Daylight Time)","Wed Oct 28 2020 15:40:34 GMT-0400 (Eastern Daylight Time)","Mozilla/5.0 (X11; Linux x86_64) AppleWebKit/537.36 (KHTML, like Gecko) Chrome/86.0.4240.75 Safari/537.36",108,"[0.9, 0.5, 0.1]","[0.8, 0.4, 0.2]","[u'blue', u'black', u'red']","[u'left', u'middle', u'right']","[0.8, 0.4, 0.2]","[u'high', u'low', u'medium']","blue",49,"left","high","True","False",227,5100,NA
"A1Q56N80RJLQ7S","Wed Oct 28 2020 15:34:22 GMT-0400 (Eastern Daylight Time)","Wed Oct 28 2020 15:40:34 GMT-0400 (Eastern Daylight Time)","Mozilla/5.0 (X11; Linux x86_64) AppleWebKit/537.36 (KHTML, like Gecko) Chrome/86.0.4240.75 Safari/537.36",109,"[0.9, 0.5, 0.1]","[0.8, 0.4, 0.2]","[u'blue', u'black', u'red']","[u'left', u'middle', u'right']","[0.8, 0.4, 0.2]","[u'high', u'low', u'medium']","blue",49,"left","high","True","False",389,5200,NA
"A1Q56N80RJLQ7S","Wed Oct 28 2020 15:34:22 GMT-0400 (Eastern Daylight Time)","Wed Oct 28 2020 15:40:34 GMT-0400 (Eastern Daylight Time)","Mozilla/5.0 (X11; Linux x86_64) AppleWebKit/537.36 (KHTML, like Gecko) Chrome/86.0.4240.75 Safari/537.36",110,"[0.9, 0.5, 0.1]","[0.8, 0.4, 0.2]","[u'blue', u'black', u'red']","[u'left', u'middle', u'right']","[0.8, 0.4, 0.2]","[u'high', u'low', u'medium']","blue",49,"left","high","False","False",222,5150,NA
"A1Q56N80RJLQ7S","Wed Oct 28 2020 15:34:22 GMT-0400 (Eastern Daylight Time)","Wed Oct 28 2020 15:40:34 GMT-0400 (Eastern Daylight Time)","Mozilla/5.0 (X11; Linux x86_64) AppleWebKit/537.36 (KHTML, like Gecko) Chrome/86.0.4240.75 Safari/537.36",111,"[0.9, 0.5, 0.1]","[0.8, 0.4, 0.2]","[u'blue', u'black', u'red']","[u'left', u'middle', u'right']","[0.8, 0.4, 0.2]","[u'high', u'low', u'medium']","black",50,"middle","low","False","False",198,5100,NA
"A1Q56N80RJLQ7S","Wed Oct 28 2020 15:34:22 GMT-0400 (Eastern Daylight Time)","Wed Oct 28 2020 15:40:34 GMT-0400 (Eastern Daylight Time)","Mozilla/5.0 (X11; Linux x86_64) AppleWebKit/537.36 (KHTML, like Gecko) Chrome/86.0.4240.75 Safari/537.36",112,"[0.9, 0.5, 0.1]","[0.8, 0.4, 0.2]","[u'blue', u'black', u'red']","[u'left', u'middle', u'right']","[0.8, 0.4, 0.2]","[u'high', u'low', u'medium']","red",51,"right","medium","False","False",244,5050,NA
"A1Q56N80RJLQ7S","Wed Oct 28 2020 15:34:22 GMT-0400 (Eastern Daylight Time)","Wed Oct 28 2020 15:40:34 GMT-0400 (Eastern Daylight Time)","Mozilla/5.0 (X11; Linux x86_64) AppleWebKit/537.36 (KHTML, like Gecko) Chrome/86.0.4240.75 Safari/537.36",113,"[0.9, 0.5, 0.1]","[0.8, 0.4, 0.2]","[u'blue', u'black', u'red']","[u'left', u'middle', u'right']","[0.8, 0.4, 0.2]","[u'high', u'low', u'medium']","blue",49,"left","high","True","False",78,5150,NA
"A1Q56N80RJLQ7S","Wed Oct 28 2020 15:34:22 GMT-0400 (Eastern Daylight Time)","Wed Oct 28 2020 15:40:34 GMT-0400 (Eastern Daylight Time)","Mozilla/5.0 (X11; Linux x86_64) AppleWebKit/537.36 (KHTML, like Gecko) Chrome/86.0.4240.75 Safari/537.36",114,"[0.9, 0.5, 0.1]","[0.8, 0.4, 0.2]","[u'blue', u'black', u'red']","[u'left', u'middle', u'right']","[0.8, 0.4, 0.2]","[u'high', u'low', u'medium']","blue",49,"left","high","True","False",175,5250,NA
"A1Q56N80RJLQ7S","Wed Oct 28 2020 15:34:22 GMT-0400 (Eastern Daylight Time)","Wed Oct 28 2020 15:40:34 GMT-0400 (Eastern Daylight Time)","Mozilla/5.0 (X11; Linux x86_64) AppleWebKit/537.36 (KHTML, like Gecko) Chrome/86.0.4240.75 Safari/537.36",115,"[0.9, 0.5, 0.1]","[0.8, 0.4, 0.2]","[u'blue', u'black', u'red']","[u'left', u'middle', u'right']","[0.8, 0.4, 0.2]","[u'high', u'low', u'medium']","blue",49,"left","high","True","False",231,5350,NA
"A1Q56N80RJLQ7S","Wed Oct 28 2020 15:34:22 GMT-0400 (Eastern Daylight Time)","Wed Oct 28 2020 15:40:34 GMT-0400 (Eastern Daylight Time)","Mozilla/5.0 (X11; Linux x86_64) AppleWebKit/537.36 (KHTML, like Gecko) Chrome/86.0.4240.75 Safari/537.36",116,"[0.9, 0.5, 0.1]","[0.8, 0.4, 0.2]","[u'blue', u'black', u'red']","[u'left', u'middle', u'right']","[0.8, 0.4, 0.2]","[u'high', u'low', u'medium']","black",50,"middle","low","False","False",40,5300,NA
"A1Q56N80RJLQ7S","Wed Oct 28 2020 15:34:22 GMT-0400 (Eastern Daylight Time)","Wed Oct 28 2020 15:40:34 GMT-0400 (Eastern Daylight Time)","Mozilla/5.0 (X11; Linux x86_64) AppleWebKit/537.36 (KHTML, like Gecko) Chrome/86.0.4240.75 Safari/537.36",117,"[0.9, 0.5, 0.1]","[0.8, 0.4, 0.2]","[u'blue', u'black', u'red']","[u'left', u'middle', u'right']","[0.8, 0.4, 0.2]","[u'high', u'low', u'medium']","red",51,"right","medium","False","False",268,5250,NA
"A1Q56N80RJLQ7S","Wed Oct 28 2020 15:34:22 GMT-0400 (Eastern Daylight Time)","Wed Oct 28 2020 15:40:34 GMT-0400 (Eastern Daylight Time)","Mozilla/5.0 (X11; Linux x86_64) AppleWebKit/537.36 (KHTML, like Gecko) Chrome/86.0.4240.75 Safari/537.36",118,"[0.9, 0.5, 0.1]","[0.8, 0.4, 0.2]","[u'blue', u'black', u'red']","[u'left', u'middle', u'right']","[0.8, 0.4, 0.2]","[u'high', u'low', u'medium']","blue",49,"left","high","True","False",254,5350,NA
"A1Q56N80RJLQ7S","Wed Oct 28 2020 15:34:22 GMT-0400 (Eastern Daylight Time)","Wed Oct 28 2020 15:40:34 GMT-0400 (Eastern Daylight Time)","Mozilla/5.0 (X11; Linux x86_64) AppleWebKit/537.36 (KHTML, like Gecko) Chrome/86.0.4240.75 Safari/537.36",119,"[0.9, 0.5, 0.1]","[0.8, 0.4, 0.2]","[u'blue', u'black', u'red']","[u'left', u'middle', u'right']","[0.8, 0.4, 0.2]","[u'high', u'low', u'medium']","blue",49,"left","high","True","False",246,5450,NA
"A1Q56N80RJLQ7S","Wed Oct 28 2020 15:34:22 GMT-0400 (Eastern Daylight Time)","Wed Oct 28 2020 15:40:34 GMT-0400 (Eastern Daylight Time)","Mozilla/5.0 (X11; Linux x86_64) AppleWebKit/537.36 (KHTML, like Gecko) Chrome/86.0.4240.75 Safari/537.36",120,"[0.9, 0.5, 0.1]","[0.8, 0.4, 0.2]","[u'blue', u'black', u'red']","[u'left', u'middle', u'right']","[0.8, 0.4, 0.2]","[u'high', u'low', u'medium']","blue",49,"left","high","True","False",246,5550,NA
"A1Q56N80RJLQ7S","Wed Oct 28 2020 15:34:22 GMT-0400 (Eastern Daylight Time)","Wed Oct 28 2020 15:40:34 GMT-0400 (Eastern Daylight Time)","Mozilla/5.0 (X11; Linux x86_64) AppleWebKit/537.36 (KHTML, like Gecko) Chrome/86.0.4240.75 Safari/537.36",121,"[0.9, 0.5, 0.1]","[0.8, 0.4, 0.2]","[u'blue', u'black', u'red']","[u'left', u'middle', u'right']","[0.8, 0.4, 0.2]","[u'medium', u'low', u'high']","red",51,"right","high","True","False",244,5650,NA
"A1Q56N80RJLQ7S","Wed Oct 28 2020 15:34:22 GMT-0400 (Eastern Daylight Time)","Wed Oct 28 2020 15:40:34 GMT-0400 (Eastern Daylight Time)","Mozilla/5.0 (X11; Linux x86_64) AppleWebKit/537.36 (KHTML, like Gecko) Chrome/86.0.4240.75 Safari/537.36",122,"[0.9, 0.5, 0.1]","[0.8, 0.4, 0.2]","[u'blue', u'black', u'red']","[u'left', u'middle', u'right']","[0.8, 0.4, 0.2]","[u'medium', u'low', u'high']","red",51,"right","high","False","False",57,5600,NA
"A1Q56N80RJLQ7S","Wed Oct 28 2020 15:34:22 GMT-0400 (Eastern Daylight Time)","Wed Oct 28 2020 15:40:34 GMT-0400 (Eastern Daylight Time)","Mozilla/5.0 (X11; Linux x86_64) AppleWebKit/537.36 (KHTML, like Gecko) Chrome/86.0.4240.75 Safari/537.36",123,"[0.9, 0.5, 0.1]","[0.8, 0.4, 0.2]","[u'blue', u'black', u'red']","[u'left', u'middle', u'right']","[0.8, 0.4, 0.2]","[u'medium', u'low', u'high']","blue",49,"left","medium","True","False",60,5700,NA
"A1Q56N80RJLQ7S","Wed Oct 28 2020 15:34:22 GMT-0400 (Eastern Daylight Time)","Wed Oct 28 2020 15:40:34 GMT-0400 (Eastern Daylight Time)","Mozilla/5.0 (X11; Linux x86_64) AppleWebKit/537.36 (KHTML, like Gecko) Chrome/86.0.4240.75 Safari/537.36",124,"[0.9, 0.5, 0.1]","[0.8, 0.4, 0.2]","[u'blue', u'black', u'red']","[u'left', u'middle', u'right']","[0.8, 0.4, 0.2]","[u'medium', u'low', u'high']","blue",49,"left","medium","False","False",336,5650,NA
"A1Q56N80RJLQ7S","Wed Oct 28 2020 15:34:22 GMT-0400 (Eastern Daylight Time)","Wed Oct 28 2020 15:40:34 GMT-0400 (Eastern Daylight Time)","Mozilla/5.0 (X11; Linux x86_64) AppleWebKit/537.36 (KHTML, like Gecko) Chrome/86.0.4240.75 Safari/537.36",125,"[0.9, 0.5, 0.1]","[0.8, 0.4, 0.2]","[u'blue', u'black', u'red']","[u'left', u'middle', u'right']","[0.8, 0.4, 0.2]","[u'medium', u'low', u'high']","red",51,"right","high","True","False",58,5750,NA
"A1Q56N80RJLQ7S","Wed Oct 28 2020 15:34:22 GMT-0400 (Eastern Daylight Time)","Wed Oct 28 2020 15:40:34 GMT-0400 (Eastern Daylight Time)","Mozilla/5.0 (X11; Linux x86_64) AppleWebKit/537.36 (KHTML, like Gecko) Chrome/86.0.4240.75 Safari/537.36",126,"[0.9, 0.5, 0.1]","[0.8, 0.4, 0.2]","[u'blue', u'black', u'red']","[u'left', u'middle', u'right']","[0.8, 0.4, 0.2]","[u'medium', u'low', u'high']","red",51,"right","high","False","False",309,5700,NA
"A1Q56N80RJLQ7S","Wed Oct 28 2020 15:34:22 GMT-0400 (Eastern Daylight Time)","Wed Oct 28 2020 15:40:34 GMT-0400 (Eastern Daylight Time)","Mozilla/5.0 (X11; Linux x86_64) AppleWebKit/537.36 (KHTML, like Gecko) Chrome/86.0.4240.75 Safari/537.36",127,"[0.9, 0.5, 0.1]","[0.8, 0.4, 0.2]","[u'blue', u'black', u'red']","[u'left', u'middle', u'right']","[0.8, 0.4, 0.2]","[u'medium', u'low', u'high']","blue",49,"left","medium","False","False",13,5650,NA
"A1Q56N80RJLQ7S","Wed Oct 28 2020 15:34:22 GMT-0400 (Eastern Daylight Time)","Wed Oct 28 2020 15:40:34 GMT-0400 (Eastern Daylight Time)","Mozilla/5.0 (X11; Linux x86_64) AppleWebKit/537.36 (KHTML, like Gecko) Chrome/86.0.4240.75 Safari/537.36",128,"[0.9, 0.5, 0.1]","[0.8, 0.4, 0.2]","[u'blue', u'black', u'red']","[u'left', u'middle', u'right']","[0.8, 0.4, 0.2]","[u'medium', u'low', u'high']","black",50,"middle","low","False","False",116,5600,NA
"A1Q56N80RJLQ7S","Wed Oct 28 2020 15:34:22 GMT-0400 (Eastern Daylight Time)","Wed Oct 28 2020 15:40:34 GMT-0400 (Eastern Daylight Time)","Mozilla/5.0 (X11; Linux x86_64) AppleWebKit/537.36 (KHTML, like Gecko) Chrome/86.0.4240.75 Safari/537.36",129,"[0.9, 0.5, 0.1]","[0.8, 0.4, 0.2]","[u'blue', u'black', u'red']","[u'left', u'middle', u'right']","[0.8, 0.4, 0.2]","[u'medium', u'low', u'high']","blue",49,"left","medium","False","False",142,5550,NA
"A1Q56N80RJLQ7S","Wed Oct 28 2020 15:34:22 GMT-0400 (Eastern Daylight Time)","Wed Oct 28 2020 15:40:34 GMT-0400 (Eastern Daylight Time)","Mozilla/5.0 (X11; Linux x86_64) AppleWebKit/537.36 (KHTML, like Gecko) Chrome/86.0.4240.75 Safari/537.36",130,"[0.9, 0.5, 0.1]","[0.8, 0.4, 0.2]","[u'blue', u'black', u'red']","[u'left', u'middle', u'right']","[0.8, 0.4, 0.2]","[u'medium', u'low', u'high']","black",50,"middle","low","True","False",44,5650,NA
"A1Q56N80RJLQ7S","Wed Oct 28 2020 15:34:22 GMT-0400 (Eastern Daylight Time)","Wed Oct 28 2020 15:40:34 GMT-0400 (Eastern Daylight Time)","Mozilla/5.0 (X11; Linux x86_64) AppleWebKit/537.36 (KHTML, like Gecko) Chrome/86.0.4240.75 Safari/537.36",131,"[0.9, 0.5, 0.1]","[0.8, 0.4, 0.2]","[u'blue', u'black', u'red']","[u'left', u'middle', u'right']","[0.8, 0.4, 0.2]","[u'medium', u'low', u'high']","blue",49,"left","medium","False","False",181,5600,NA
"A1Q56N80RJLQ7S","Wed Oct 28 2020 15:34:22 GMT-0400 (Eastern Daylight Time)","Wed Oct 28 2020 15:40:34 GMT-0400 (Eastern Daylight Time)","Mozilla/5.0 (X11; Linux x86_64) AppleWebKit/537.36 (KHTML, like Gecko) Chrome/86.0.4240.75 Safari/537.36",132,"[0.9, 0.5, 0.1]","[0.8, 0.4, 0.2]","[u'blue', u'black', u'red']","[u'left', u'middle', u'right']","[0.8, 0.4, 0.2]","[u'medium', u'low', u'high']","black",50,"middle","low","False","False",144,5550,NA
"A1Q56N80RJLQ7S","Wed Oct 28 2020 15:34:22 GMT-0400 (Eastern Daylight Time)","Wed Oct 28 2020 15:40:34 GMT-0400 (Eastern Daylight Time)","Mozilla/5.0 (X11; Linux x86_64) AppleWebKit/537.36 (KHTML, like Gecko) Chrome/86.0.4240.75 Safari/537.36",133,"[0.9, 0.5, 0.1]","[0.8, 0.4, 0.2]","[u'blue', u'black', u'red']","[u'left', u'middle', u'right']","[0.8, 0.4, 0.2]","[u'medium', u'low', u'high']","blue",49,"left","medium","False","False",137,5500,NA
"A1Q56N80RJLQ7S","Wed Oct 28 2020 15:34:22 GMT-0400 (Eastern Daylight Time)","Wed Oct 28 2020 15:40:34 GMT-0400 (Eastern Daylight Time)","Mozilla/5.0 (X11; Linux x86_64) AppleWebKit/537.36 (KHTML, like Gecko) Chrome/86.0.4240.75 Safari/537.36",134,"[0.9, 0.5, 0.1]","[0.8, 0.4, 0.2]","[u'blue', u'black', u'red']","[u'left', u'middle', u'right']","[0.8, 0.4, 0.2]","[u'medium', u'low', u'high']","black",50,"middle","low","False","False",298,5450,NA
"A1Q56N80RJLQ7S","Wed Oct 28 2020 15:34:22 GMT-0400 (Eastern Daylight Time)","Wed Oct 28 2020 15:40:34 GMT-0400 (Eastern Daylight Time)","Mozilla/5.0 (X11; Linux x86_64) AppleWebKit/537.36 (KHTML, like Gecko) Chrome/86.0.4240.75 Safari/537.36",135,"[0.9, 0.5, 0.1]","[0.8, 0.4, 0.2]","[u'blue', u'black', u'red']","[u'left', u'middle', u'right']","[0.8, 0.4, 0.2]","[u'medium', u'low', u'high']","blue",49,"left","medium","False","False",14,5400,NA
"A1Q56N80RJLQ7S","Wed Oct 28 2020 15:34:22 GMT-0400 (Eastern Daylight Time)","Wed Oct 28 2020 15:40:34 GMT-0400 (Eastern Daylight Time)","Mozilla/5.0 (X11; Linux x86_64) AppleWebKit/537.36 (KHTML, like Gecko) Chrome/86.0.4240.75 Safari/537.36",136,"[0.9, 0.5, 0.1]","[0.8, 0.4, 0.2]","[u'blue', u'black', u'red']","[u'left', u'middle', u'right']","[0.8, 0.4, 0.2]","[u'medium', u'low', u'high']","red",51,"right","high","True","False",8,5500,NA
"A1Q56N80RJLQ7S","Wed Oct 28 2020 15:34:22 GMT-0400 (Eastern Daylight Time)","Wed Oct 28 2020 15:40:34 GMT-0400 (Eastern Daylight Time)","Mozilla/5.0 (X11; Linux x86_64) AppleWebKit/537.36 (KHTML, like Gecko) Chrome/86.0.4240.75 Safari/537.36",137,"[0.9, 0.5, 0.1]","[0.8, 0.4, 0.2]","[u'blue', u'black', u'red']","[u'left', u'middle', u'right']","[0.8, 0.4, 0.2]","[u'medium', u'low', u'high']","red",51,"right","high","True","False",112,5600,NA
"A1Q56N80RJLQ7S","Wed Oct 28 2020 15:34:22 GMT-0400 (Eastern Daylight Time)","Wed Oct 28 2020 15:40:34 GMT-0400 (Eastern Daylight Time)","Mozilla/5.0 (X11; Linux x86_64) AppleWebKit/537.36 (KHTML, like Gecko) Chrome/86.0.4240.75 Safari/537.36",138,"[0.9, 0.5, 0.1]","[0.8, 0.4, 0.2]","[u'blue', u'black', u'red']","[u'left', u'middle', u'right']","[0.8, 0.4, 0.2]","[u'medium', u'low', u'high']","red",51,"right","high","False","False",149,5550,NA
"A1Q56N80RJLQ7S","Wed Oct 28 2020 15:34:22 GMT-0400 (Eastern Daylight Time)","Wed Oct 28 2020 15:40:34 GMT-0400 (Eastern Daylight Time)","Mozilla/5.0 (X11; Linux x86_64) AppleWebKit/537.36 (KHTML, like Gecko) Chrome/86.0.4240.75 Safari/537.36",139,"[0.9, 0.5, 0.1]","[0.8, 0.4, 0.2]","[u'blue', u'black', u'red']","[u'left', u'middle', u'right']","[0.8, 0.4, 0.2]","[u'medium', u'low', u'high']","black",50,"middle","low","True","False",156,5650,NA
"A1Q56N80RJLQ7S","Wed Oct 28 2020 15:34:22 GMT-0400 (Eastern Daylight Time)","Wed Oct 28 2020 15:40:34 GMT-0400 (Eastern Daylight Time)","Mozilla/5.0 (X11; Linux x86_64) AppleWebKit/537.36 (KHTML, like Gecko) Chrome/86.0.4240.75 Safari/537.36",140,"[0.9, 0.5, 0.1]","[0.8, 0.4, 0.2]","[u'blue', u'black', u'red']","[u'left', u'middle', u'right']","[0.8, 0.4, 0.2]","[u'medium', u'low', u'high']","black",50,"middle","low","False","False",129,5600,NA
"A1Q56N80RJLQ7S","Wed Oct 28 2020 15:34:22 GMT-0400 (Eastern Daylight Time)","Wed Oct 28 2020 15:40:34 GMT-0400 (Eastern Daylight Time)","Mozilla/5.0 (X11; Linux x86_64) AppleWebKit/537.36 (KHTML, like Gecko) Chrome/86.0.4240.75 Safari/537.36",141,"[0.9, 0.5, 0.1]","[0.8, 0.4, 0.2]","[u'blue', u'black', u'red']","[u'left', u'middle', u'right']","[0.8, 0.4, 0.2]","[u'medium', u'low', u'high']","blue",49,"left","medium","False","False",270,5550,NA
"A1Q56N80RJLQ7S","Wed Oct 28 2020 15:34:22 GMT-0400 (Eastern Daylight Time)","Wed Oct 28 2020 15:40:34 GMT-0400 (Eastern Daylight Time)","Mozilla/5.0 (X11; Linux x86_64) AppleWebKit/537.36 (KHTML, like Gecko) Chrome/86.0.4240.75 Safari/537.36",142,"[0.9, 0.5, 0.1]","[0.8, 0.4, 0.2]","[u'blue', u'black', u'red']","[u'left', u'middle', u'right']","[0.8, 0.4, 0.2]","[u'medium', u'low', u'high']","black",50,"middle","low","True","False",48,5650,NA
"A1Q56N80RJLQ7S","Wed Oct 28 2020 15:34:22 GMT-0400 (Eastern Daylight Time)","Wed Oct 28 2020 15:40:34 GMT-0400 (Eastern Daylight Time)","Mozilla/5.0 (X11; Linux x86_64) AppleWebKit/537.36 (KHTML, like Gecko) Chrome/86.0.4240.75 Safari/537.36",143,"[0.9, 0.5, 0.1]","[0.8, 0.4, 0.2]","[u'blue', u'black', u'red']","[u'left', u'middle', u'right']","[0.8, 0.4, 0.2]","[u'medium', u'low', u'high']","black",50,"middle","low","False","False",62,5600,NA
"A1Q56N80RJLQ7S","Wed Oct 28 2020 15:34:22 GMT-0400 (Eastern Daylight Time)","Wed Oct 28 2020 15:40:34 GMT-0400 (Eastern Daylight Time)","Mozilla/5.0 (X11; Linux x86_64) AppleWebKit/537.36 (KHTML, like Gecko) Chrome/86.0.4240.75 Safari/537.36",144,"[0.9, 0.5, 0.1]","[0.8, 0.4, 0.2]","[u'blue', u'black', u'red']","[u'left', u'middle', u'right']","[0.8, 0.4, 0.2]","[u'medium', u'low', u'high']","red",51,"right","high","True","False",97,5700,NA
"A1Q56N80RJLQ7S","Wed Oct 28 2020 15:34:22 GMT-0400 (Eastern Daylight Time)","Wed Oct 28 2020 15:40:34 GMT-0400 (Eastern Daylight Time)","Mozilla/5.0 (X11; Linux x86_64) AppleWebKit/537.36 (KHTML, like Gecko) Chrome/86.0.4240.75 Safari/537.36",145,"[0.9, 0.5, 0.1]","[0.8, 0.4, 0.2]","[u'blue', u'black', u'red']","[u'left', u'middle', u'right']","[0.8, 0.4, 0.2]","[u'medium', u'low', u'high']","red",51,"right","high","True","False",212,5800,NA
"A1Q56N80RJLQ7S","Wed Oct 28 2020 15:34:22 GMT-0400 (Eastern Daylight Time)","Wed Oct 28 2020 15:40:34 GMT-0400 (Eastern Daylight Time)","Mozilla/5.0 (X11; Linux x86_64) AppleWebKit/537.36 (KHTML, like Gecko) Chrome/86.0.4240.75 Safari/537.36",146,"[0.9, 0.5, 0.1]","[0.8, 0.4, 0.2]","[u'blue', u'black', u'red']","[u'left', u'middle', u'right']","[0.8, 0.4, 0.2]","[u'medium', u'low', u'high']","black",50,"middle","low","True","False",146,5900,NA
"A1Q56N80RJLQ7S","Wed Oct 28 2020 15:34:22 GMT-0400 (Eastern Daylight Time)","Wed Oct 28 2020 15:40:34 GMT-0400 (Eastern Daylight Time)","Mozilla/5.0 (X11; Linux x86_64) AppleWebKit/537.36 (KHTML, like Gecko) Chrome/86.0.4240.75 Safari/537.36",147,"[0.9, 0.5, 0.1]","[0.8, 0.4, 0.2]","[u'blue', u'black', u'red']","[u'left', u'middle', u'right']","[0.8, 0.4, 0.2]","[u'medium', u'low', u'high']","black",50,"middle","low","False","False",18,5850,NA
"A1Q56N80RJLQ7S","Wed Oct 28 2020 15:34:22 GMT-0400 (Eastern Daylight Time)","Wed Oct 28 2020 15:40:34 GMT-0400 (Eastern Daylight Time)","Mozilla/5.0 (X11; Linux x86_64) AppleWebKit/537.36 (KHTML, like Gecko) Chrome/86.0.4240.75 Safari/537.36",148,"[0.9, 0.5, 0.1]","[0.8, 0.4, 0.2]","[u'blue', u'black', u'red']","[u'left', u'middle', u'right']","[0.8, 0.4, 0.2]","[u'medium', u'low', u'high']","red",51,"right","high","True","False",50,5950,NA
"A1Q56N80RJLQ7S","Wed Oct 28 2020 15:34:22 GMT-0400 (Eastern Daylight Time)","Wed Oct 28 2020 15:40:34 GMT-0400 (Eastern Daylight Time)","Mozilla/5.0 (X11; Linux x86_64) AppleWebKit/537.36 (KHTML, like Gecko) Chrome/86.0.4240.75 Safari/537.36",149,"[0.9, 0.5, 0.1]","[0.8, 0.4, 0.2]","[u'blue', u'black', u'red']","[u'left', u'middle', u'right']","[0.8, 0.4, 0.2]","[u'medium', u'low', u'high']","red",51,"right","high","True","False",122,6050,NA
"A1Q56N80RJLQ7S","Wed Oct 28 2020 15:34:22 GMT-0400 (Eastern Daylight Time)","Wed Oct 28 2020 15:40:34 GMT-0400 (Eastern Daylight Time)","Mozilla/5.0 (X11; Linux x86_64) AppleWebKit/537.36 (KHTML, like Gecko) Chrome/86.0.4240.75 Safari/537.36",150,"[0.9, 0.5, 0.1]","[0.8, 0.4, 0.2]","[u'blue', u'black', u'red']","[u'left', u'middle', u'right']","[0.8, 0.4, 0.2]","[u'medium', u'low', u'high']","red",51,"right","high","True","False",234,6150,NA
"A1Q56N80RJLQ7S","Wed Oct 28 2020 15:34:22 GMT-0400 (Eastern Daylight Time)","Wed Oct 28 2020 15:40:34 GMT-0400 (Eastern Daylight Time)","Mozilla/5.0 (X11; Linux x86_64) AppleWebKit/537.36 (KHTML, like Gecko) Chrome/86.0.4240.75 Safari/537.36",151,"[0.9, 0.5, 0.1]","[0.8, 0.4, 0.2]","[u'blue', u'black', u'red']","[u'left', u'middle', u'right']","[0.8, 0.4, 0.2]","[u'medium', u'low', u'high']","blue",49,"left","medium","False","False",97,6100,NA
"A1Q56N80RJLQ7S","Wed Oct 28 2020 15:34:22 GMT-0400 (Eastern Daylight Time)","Wed Oct 28 2020 15:40:34 GMT-0400 (Eastern Daylight Time)","Mozilla/5.0 (X11; Linux x86_64) AppleWebKit/537.36 (KHTML, like Gecko) Chrome/86.0.4240.75 Safari/537.36",152,"[0.9, 0.5, 0.1]","[0.8, 0.4, 0.2]","[u'blue', u'black', u'red']","[u'left', u'middle', u'right']","[0.8, 0.4, 0.2]","[u'medium', u'low', u'high']","red",51,"right","high","True","False",80,6200,NA
"A1Q56N80RJLQ7S","Wed Oct 28 2020 15:34:22 GMT-0400 (Eastern Daylight Time)","Wed Oct 28 2020 15:40:34 GMT-0400 (Eastern Daylight Time)","Mozilla/5.0 (X11; Linux x86_64) AppleWebKit/537.36 (KHTML, like Gecko) Chrome/86.0.4240.75 Safari/537.36",153,"[0.9, 0.5, 0.1]","[0.8, 0.4, 0.2]","[u'blue', u'black', u'red']","[u'left', u'middle', u'right']","[0.8, 0.4, 0.2]","[u'medium', u'low', u'high']","black",50,"middle","low","False","False",572,6150,NA
"A1Q56N80RJLQ7S","Wed Oct 28 2020 15:34:22 GMT-0400 (Eastern Daylight Time)","Wed Oct 28 2020 15:40:34 GMT-0400 (Eastern Daylight Time)","Mozilla/5.0 (X11; Linux x86_64) AppleWebKit/537.36 (KHTML, like Gecko) Chrome/86.0.4240.75 Safari/537.36",154,"[0.9, 0.5, 0.1]","[0.8, 0.4, 0.2]","[u'blue', u'black', u'red']","[u'left', u'middle', u'right']","[0.8, 0.4, 0.2]","[u'medium', u'low', u'high']","red",51,"right","high","True","False",323,6250,NA
"A1Q56N80RJLQ7S","Wed Oct 28 2020 15:34:22 GMT-0400 (Eastern Daylight Time)","Wed Oct 28 2020 15:40:34 GMT-0400 (Eastern Daylight Time)","Mozilla/5.0 (X11; Linux x86_64) AppleWebKit/537.36 (KHTML, like Gecko) Chrome/86.0.4240.75 Safari/537.36",155,"[0.9, 0.5, 0.1]","[0.8, 0.4, 0.2]","[u'blue', u'black', u'red']","[u'left', u'middle', u'right']","[0.8, 0.4, 0.2]","[u'medium', u'low', u'high']","red",51,"right","high","True","False",160,6350,NA
"A1Q56N80RJLQ7S","Wed Oct 28 2020 15:34:22 GMT-0400 (Eastern Daylight Time)","Wed Oct 28 2020 15:40:34 GMT-0400 (Eastern Daylight Time)","Mozilla/5.0 (X11; Linux x86_64) AppleWebKit/537.36 (KHTML, like Gecko) Chrome/86.0.4240.75 Safari/537.36",156,"[0.9, 0.5, 0.1]","[0.8, 0.4, 0.2]","[u'blue', u'black', u'red']","[u'left', u'middle', u'right']","[0.8, 0.4, 0.2]","[u'medium', u'low', u'high']","red",51,"right","high","False","False",465,6300,NA
"A1Q56N80RJLQ7S","Wed Oct 28 2020 15:34:22 GMT-0400 (Eastern Daylight Time)","Wed Oct 28 2020 15:40:34 GMT-0400 (Eastern Daylight Time)","Mozilla/5.0 (X11; Linux x86_64) AppleWebKit/537.36 (KHTML, like Gecko) Chrome/86.0.4240.75 Safari/537.36",157,"[0.9, 0.5, 0.1]","[0.8, 0.4, 0.2]","[u'blue', u'black', u'red']","[u'left', u'middle', u'right']","[0.8, 0.4, 0.2]","[u'medium', u'low', u'high']","black",50,"middle","low","True","False",40,6400,NA
"A1Q56N80RJLQ7S","Wed Oct 28 2020 15:34:22 GMT-0400 (Eastern Daylight Time)","Wed Oct 28 2020 15:40:34 GMT-0400 (Eastern Daylight Time)","Mozilla/5.0 (X11; Linux x86_64) AppleWebKit/537.36 (KHTML, like Gecko) Chrome/86.0.4240.75 Safari/537.36",158,"[0.9, 0.5, 0.1]","[0.8, 0.4, 0.2]","[u'blue', u'black', u'red']","[u'left', u'middle', u'right']","[0.8, 0.4, 0.2]","[u'medium', u'low', u'high']","blue",49,"left","medium","True","False",358,6500,NA
"A1Q56N80RJLQ7S","Wed Oct 28 2020 15:34:22 GMT-0400 (Eastern Daylight Time)","Wed Oct 28 2020 15:40:34 GMT-0400 (Eastern Daylight Time)","Mozilla/5.0 (X11; Linux x86_64) AppleWebKit/537.36 (KHTML, like Gecko) Chrome/86.0.4240.75 Safari/537.36",159,"[0.9, 0.5, 0.1]","[0.8, 0.4, 0.2]","[u'blue', u'black', u'red']","[u'left', u'middle', u'right']","[0.8, 0.4, 0.2]","[u'medium', u'low', u'high']","black",50,"middle","low","False","False",195,6450,NA
"A1Q56N80RJLQ7S","Wed Oct 28 2020 15:34:22 GMT-0400 (Eastern Daylight Time)","Wed Oct 28 2020 15:40:34 GMT-0400 (Eastern Daylight Time)","Mozilla/5.0 (X11; Linux x86_64) AppleWebKit/537.36 (KHTML, like Gecko) Chrome/86.0.4240.75 Safari/537.36",160,"[0.9, 0.5, 0.1]","[0.8, 0.4, 0.2]","[u'blue', u'black', u'red']","[u'left', u'middle', u'right']","[0.8, 0.4, 0.2]","[u'medium', u'low', u'high']","blue",49,"left","medium","False","False",201,6400,NA
