"src_subject_id","start_time","end_time","browser","index","first_half_probabilities","second_half_probabilities","deck_color","deck_position","deck_probabilities","deck_contingencies","response_color","key_press","response_position","response_probability","reward_type","trial_type","rt","reward_tally","exclusion_reason"
"A3QJNTSPNMMA31","Thu Oct 29 2020 16:22:26 GMT-0400 (Eastern Daylight Time)","Thu Oct 29 2020 16:30:36 GMT-0400 (Eastern Daylight Time)","Mozilla/5.0 (Windows NT 10.0; Win64; x64) AppleWebKit/537.36 (KHTML, like Gecko) Chrome/86.0.4240.111 Safari/537.36",1,"[0.9, 0.5, 0.1]","[0.8, 0.4, 0.2]","[u'blue', u'red', u'black']","[u'left', u'middle', u'right']","[0.9, 0.5, 0.1]","[u'medium', u'low', u'high']","blue",49,"left","medium","False","False",1593,-50,NA
"A3QJNTSPNMMA31","Thu Oct 29 2020 16:22:26 GMT-0400 (Eastern Daylight Time)","Thu Oct 29 2020 16:30:36 GMT-0400 (Eastern Daylight Time)","Mozilla/5.0 (Windows NT 10.0; Win64; x64) AppleWebKit/537.36 (KHTML, like Gecko) Chrome/86.0.4240.111 Safari/537.36",2,"[0.9, 0.5, 0.1]","[0.8, 0.4, 0.2]","[u'blue', u'red', u'black']","[u'left', u'middle', u'right']","[0.9, 0.5, 0.1]","[u'medium', u'low', u'high']","red",50,"middle","low","False","False",326,-100,NA
"A3QJNTSPNMMA31","Thu Oct 29 2020 16:22:26 GMT-0400 (Eastern Daylight Time)","Thu Oct 29 2020 16:30:36 GMT-0400 (Eastern Daylight Time)","Mozilla/5.0 (Windows NT 10.0; Win64; x64) AppleWebKit/537.36 (KHTML, like Gecko) Chrome/86.0.4240.111 Safari/537.36",3,"[0.9, 0.5, 0.1]","[0.8, 0.4, 0.2]","[u'blue', u'red', u'black']","[u'left', u'middle', u'right']","[0.9, 0.5, 0.1]","[u'medium', u'low', u'high']","black",51,"right","high","True","False",246,0,NA
"A3QJNTSPNMMA31","Thu Oct 29 2020 16:22:26 GMT-0400 (Eastern Daylight Time)","Thu Oct 29 2020 16:30:36 GMT-0400 (Eastern Daylight Time)","Mozilla/5.0 (Windows NT 10.0; Win64; x64) AppleWebKit/537.36 (KHTML, like Gecko) Chrome/86.0.4240.111 Safari/537.36",4,"[0.9, 0.5, 0.1]","[0.8, 0.4, 0.2]","[u'blue', u'red', u'black']","[u'left', u'middle', u'right']","[0.9, 0.5, 0.1]","[u'medium', u'low', u'high']","black",51,"right","high","False","False",240,-50,NA
"A3QJNTSPNMMA31","Thu Oct 29 2020 16:22:26 GMT-0400 (Eastern Daylight Time)","Thu Oct 29 2020 16:30:36 GMT-0400 (Eastern Daylight Time)","Mozilla/5.0 (Windows NT 10.0; Win64; x64) AppleWebKit/537.36 (KHTML, like Gecko) Chrome/86.0.4240.111 Safari/537.36",5,"[0.9, 0.5, 0.1]","[0.8, 0.4, 0.2]","[u'blue', u'red', u'black']","[u'left', u'middle', u'right']","[0.9, 0.5, 0.1]","[u'medium', u'low', u'high']","black",51,"right","high","True","False",281,50,NA
"A3QJNTSPNMMA31","Thu Oct 29 2020 16:22:26 GMT-0400 (Eastern Daylight Time)","Thu Oct 29 2020 16:30:36 GMT-0400 (Eastern Daylight Time)","Mozilla/5.0 (Windows NT 10.0; Win64; x64) AppleWebKit/537.36 (KHTML, like Gecko) Chrome/86.0.4240.111 Safari/537.36",6,"[0.9, 0.5, 0.1]","[0.8, 0.4, 0.2]","[u'blue', u'red', u'black']","[u'left', u'middle', u'right']","[0.9, 0.5, 0.1]","[u'medium', u'low', u'high']","blue",49,"left","medium","True","False",393,150,NA
"A3QJNTSPNMMA31","Thu Oct 29 2020 16:22:26 GMT-0400 (Eastern Daylight Time)","Thu Oct 29 2020 16:30:36 GMT-0400 (Eastern Daylight Time)","Mozilla/5.0 (Windows NT 10.0; Win64; x64) AppleWebKit/537.36 (KHTML, like Gecko) Chrome/86.0.4240.111 Safari/537.36",7,"[0.9, 0.5, 0.1]","[0.8, 0.4, 0.2]","[u'blue', u'red', u'black']","[u'left', u'middle', u'right']","[0.9, 0.5, 0.1]","[u'medium', u'low', u'high']","black",51,"right","high","True","False",314,250,NA
"A3QJNTSPNMMA31","Thu Oct 29 2020 16:22:26 GMT-0400 (Eastern Daylight Time)","Thu Oct 29 2020 16:30:36 GMT-0400 (Eastern Daylight Time)","Mozilla/5.0 (Windows NT 10.0; Win64; x64) AppleWebKit/537.36 (KHTML, like Gecko) Chrome/86.0.4240.111 Safari/537.36",8,"[0.9, 0.5, 0.1]","[0.8, 0.4, 0.2]","[u'blue', u'red', u'black']","[u'left', u'middle', u'right']","[0.9, 0.5, 0.1]","[u'medium', u'low', u'high']","blue",49,"left","medium","False","False",259,200,NA
"A3QJNTSPNMMA31","Thu Oct 29 2020 16:22:26 GMT-0400 (Eastern Daylight Time)","Thu Oct 29 2020 16:30:36 GMT-0400 (Eastern Daylight Time)","Mozilla/5.0 (Windows NT 10.0; Win64; x64) AppleWebKit/537.36 (KHTML, like Gecko) Chrome/86.0.4240.111 Safari/537.36",9,"[0.9, 0.5, 0.1]","[0.8, 0.4, 0.2]","[u'blue', u'red', u'black']","[u'left', u'middle', u'right']","[0.9, 0.5, 0.1]","[u'medium', u'low', u'high']","black",51,"right","high","True","False",267,300,NA
"A3QJNTSPNMMA31","Thu Oct 29 2020 16:22:26 GMT-0400 (Eastern Daylight Time)","Thu Oct 29 2020 16:30:36 GMT-0400 (Eastern Daylight Time)","Mozilla/5.0 (Windows NT 10.0; Win64; x64) AppleWebKit/537.36 (KHTML, like Gecko) Chrome/86.0.4240.111 Safari/537.36",10,"[0.9, 0.5, 0.1]","[0.8, 0.4, 0.2]","[u'blue', u'red', u'black']","[u'left', u'middle', u'right']","[0.9, 0.5, 0.1]","[u'medium', u'low', u'high']","black",51,"right","high","True","False",334,400,NA
"A3QJNTSPNMMA31","Thu Oct 29 2020 16:22:26 GMT-0400 (Eastern Daylight Time)","Thu Oct 29 2020 16:30:36 GMT-0400 (Eastern Daylight Time)","Mozilla/5.0 (Windows NT 10.0; Win64; x64) AppleWebKit/537.36 (KHTML, like Gecko) Chrome/86.0.4240.111 Safari/537.36",11,"[0.9, 0.5, 0.1]","[0.8, 0.4, 0.2]","[u'blue', u'red', u'black']","[u'left', u'middle', u'right']","[0.9, 0.5, 0.1]","[u'medium', u'low', u'high']","black",51,"right","high","True","False",496,500,NA
"A3QJNTSPNMMA31","Thu Oct 29 2020 16:22:26 GMT-0400 (Eastern Daylight Time)","Thu Oct 29 2020 16:30:36 GMT-0400 (Eastern Daylight Time)","Mozilla/5.0 (Windows NT 10.0; Win64; x64) AppleWebKit/537.36 (KHTML, like Gecko) Chrome/86.0.4240.111 Safari/537.36",12,"[0.9, 0.5, 0.1]","[0.8, 0.4, 0.2]","[u'blue', u'red', u'black']","[u'left', u'middle', u'right']","[0.9, 0.5, 0.1]","[u'medium', u'low', u'high']","black",51,"right","high","True","False",286,600,NA
"A3QJNTSPNMMA31","Thu Oct 29 2020 16:22:26 GMT-0400 (Eastern Daylight Time)","Thu Oct 29 2020 16:30:36 GMT-0400 (Eastern Daylight Time)","Mozilla/5.0 (Windows NT 10.0; Win64; x64) AppleWebKit/537.36 (KHTML, like Gecko) Chrome/86.0.4240.111 Safari/537.36",13,"[0.9, 0.5, 0.1]","[0.8, 0.4, 0.2]","[u'blue', u'red', u'black']","[u'left', u'middle', u'right']","[0.9, 0.5, 0.1]","[u'medium', u'low', u'high']","black",51,"right","high","True","False",247,700,NA
"A3QJNTSPNMMA31","Thu Oct 29 2020 16:22:26 GMT-0400 (Eastern Daylight Time)","Thu Oct 29 2020 16:30:36 GMT-0400 (Eastern Daylight Time)","Mozilla/5.0 (Windows NT 10.0; Win64; x64) AppleWebKit/537.36 (KHTML, like Gecko) Chrome/86.0.4240.111 Safari/537.36",14,"[0.9, 0.5, 0.1]","[0.8, 0.4, 0.2]","[u'blue', u'red', u'black']","[u'left', u'middle', u'right']","[0.9, 0.5, 0.1]","[u'medium', u'low', u'high']","black",51,"right","high","True","False",368,800,NA
"A3QJNTSPNMMA31","Thu Oct 29 2020 16:22:26 GMT-0400 (Eastern Daylight Time)","Thu Oct 29 2020 16:30:36 GMT-0400 (Eastern Daylight Time)","Mozilla/5.0 (Windows NT 10.0; Win64; x64) AppleWebKit/537.36 (KHTML, like Gecko) Chrome/86.0.4240.111 Safari/537.36",15,"[0.9, 0.5, 0.1]","[0.8, 0.4, 0.2]","[u'blue', u'red', u'black']","[u'left', u'middle', u'right']","[0.9, 0.5, 0.1]","[u'medium', u'low', u'high']","black",51,"right","high","True","False",299,900,NA
"A3QJNTSPNMMA31","Thu Oct 29 2020 16:22:26 GMT-0400 (Eastern Daylight Time)","Thu Oct 29 2020 16:30:36 GMT-0400 (Eastern Daylight Time)","Mozilla/5.0 (Windows NT 10.0; Win64; x64) AppleWebKit/537.36 (KHTML, like Gecko) Chrome/86.0.4240.111 Safari/537.36",16,"[0.9, 0.5, 0.1]","[0.8, 0.4, 0.2]","[u'blue', u'red', u'black']","[u'left', u'middle', u'right']","[0.9, 0.5, 0.1]","[u'medium', u'low', u'high']","black",51,"right","high","True","False",258,1000,NA
"A3QJNTSPNMMA31","Thu Oct 29 2020 16:22:26 GMT-0400 (Eastern Daylight Time)","Thu Oct 29 2020 16:30:36 GMT-0400 (Eastern Daylight Time)","Mozilla/5.0 (Windows NT 10.0; Win64; x64) AppleWebKit/537.36 (KHTML, like Gecko) Chrome/86.0.4240.111 Safari/537.36",17,"[0.9, 0.5, 0.1]","[0.8, 0.4, 0.2]","[u'blue', u'red', u'black']","[u'left', u'middle', u'right']","[0.9, 0.5, 0.1]","[u'medium', u'low', u'high']","black",51,"right","high","True","True",473,1100,NA
"A3QJNTSPNMMA31","Thu Oct 29 2020 16:22:26 GMT-0400 (Eastern Daylight Time)","Thu Oct 29 2020 16:30:36 GMT-0400 (Eastern Daylight Time)","Mozilla/5.0 (Windows NT 10.0; Win64; x64) AppleWebKit/537.36 (KHTML, like Gecko) Chrome/86.0.4240.111 Safari/537.36",18,"[0.9, 0.5, 0.1]","[0.8, 0.4, 0.2]","[u'blue', u'red', u'black']","[u'left', u'middle', u'right']","[0.9, 0.5, 0.1]","[u'low', u'high', u'medium']","black",51,"right","medium","True","False",286,1200,NA
"A3QJNTSPNMMA31","Thu Oct 29 2020 16:22:26 GMT-0400 (Eastern Daylight Time)","Thu Oct 29 2020 16:30:36 GMT-0400 (Eastern Daylight Time)","Mozilla/5.0 (Windows NT 10.0; Win64; x64) AppleWebKit/537.36 (KHTML, like Gecko) Chrome/86.0.4240.111 Safari/537.36",19,"[0.9, 0.5, 0.1]","[0.8, 0.4, 0.2]","[u'blue', u'red', u'black']","[u'left', u'middle', u'right']","[0.9, 0.5, 0.1]","[u'low', u'high', u'medium']","black",51,"right","medium","False","False",268,1150,NA
"A3QJNTSPNMMA31","Thu Oct 29 2020 16:22:26 GMT-0400 (Eastern Daylight Time)","Thu Oct 29 2020 16:30:36 GMT-0400 (Eastern Daylight Time)","Mozilla/5.0 (Windows NT 10.0; Win64; x64) AppleWebKit/537.36 (KHTML, like Gecko) Chrome/86.0.4240.111 Safari/537.36",20,"[0.9, 0.5, 0.1]","[0.8, 0.4, 0.2]","[u'blue', u'red', u'black']","[u'left', u'middle', u'right']","[0.9, 0.5, 0.1]","[u'low', u'high', u'medium']","black",51,"right","medium","False","False",393,1100,NA
"A3QJNTSPNMMA31","Thu Oct 29 2020 16:22:26 GMT-0400 (Eastern Daylight Time)","Thu Oct 29 2020 16:30:36 GMT-0400 (Eastern Daylight Time)","Mozilla/5.0 (Windows NT 10.0; Win64; x64) AppleWebKit/537.36 (KHTML, like Gecko) Chrome/86.0.4240.111 Safari/537.36",21,"[0.9, 0.5, 0.1]","[0.8, 0.4, 0.2]","[u'blue', u'red', u'black']","[u'left', u'middle', u'right']","[0.9, 0.5, 0.1]","[u'low', u'high', u'medium']","red",50,"middle","high","True","False",21,1200,NA
"A3QJNTSPNMMA31","Thu Oct 29 2020 16:22:26 GMT-0400 (Eastern Daylight Time)","Thu Oct 29 2020 16:30:36 GMT-0400 (Eastern Daylight Time)","Mozilla/5.0 (Windows NT 10.0; Win64; x64) AppleWebKit/537.36 (KHTML, like Gecko) Chrome/86.0.4240.111 Safari/537.36",22,"[0.9, 0.5, 0.1]","[0.8, 0.4, 0.2]","[u'blue', u'red', u'black']","[u'left', u'middle', u'right']","[0.9, 0.5, 0.1]","[u'low', u'high', u'medium']","red",50,"middle","high","True","False",200,1300,NA
"A3QJNTSPNMMA31","Thu Oct 29 2020 16:22:26 GMT-0400 (Eastern Daylight Time)","Thu Oct 29 2020 16:30:36 GMT-0400 (Eastern Daylight Time)","Mozilla/5.0 (Windows NT 10.0; Win64; x64) AppleWebKit/537.36 (KHTML, like Gecko) Chrome/86.0.4240.111 Safari/537.36",23,"[0.9, 0.5, 0.1]","[0.8, 0.4, 0.2]","[u'blue', u'red', u'black']","[u'left', u'middle', u'right']","[0.9, 0.5, 0.1]","[u'low', u'high', u'medium']","red",50,"middle","high","True","False",206,1400,NA
"A3QJNTSPNMMA31","Thu Oct 29 2020 16:22:26 GMT-0400 (Eastern Daylight Time)","Thu Oct 29 2020 16:30:36 GMT-0400 (Eastern Daylight Time)","Mozilla/5.0 (Windows NT 10.0; Win64; x64) AppleWebKit/537.36 (KHTML, like Gecko) Chrome/86.0.4240.111 Safari/537.36",24,"[0.9, 0.5, 0.1]","[0.8, 0.4, 0.2]","[u'blue', u'red', u'black']","[u'left', u'middle', u'right']","[0.9, 0.5, 0.1]","[u'low', u'high', u'medium']","red",50,"middle","high","True","False",385,1500,NA
"A3QJNTSPNMMA31","Thu Oct 29 2020 16:22:26 GMT-0400 (Eastern Daylight Time)","Thu Oct 29 2020 16:30:36 GMT-0400 (Eastern Daylight Time)","Mozilla/5.0 (Windows NT 10.0; Win64; x64) AppleWebKit/537.36 (KHTML, like Gecko) Chrome/86.0.4240.111 Safari/537.36",25,"[0.9, 0.5, 0.1]","[0.8, 0.4, 0.2]","[u'blue', u'red', u'black']","[u'left', u'middle', u'right']","[0.9, 0.5, 0.1]","[u'low', u'high', u'medium']","red",50,"middle","high","True","False",213,1600,NA
"A3QJNTSPNMMA31","Thu Oct 29 2020 16:22:26 GMT-0400 (Eastern Daylight Time)","Thu Oct 29 2020 16:30:36 GMT-0400 (Eastern Daylight Time)","Mozilla/5.0 (Windows NT 10.0; Win64; x64) AppleWebKit/537.36 (KHTML, like Gecko) Chrome/86.0.4240.111 Safari/537.36",26,"[0.9, 0.5, 0.1]","[0.8, 0.4, 0.2]","[u'blue', u'red', u'black']","[u'left', u'middle', u'right']","[0.9, 0.5, 0.1]","[u'low', u'high', u'medium']","red",50,"middle","high","True","False",232,1700,NA
"A3QJNTSPNMMA31","Thu Oct 29 2020 16:22:26 GMT-0400 (Eastern Daylight Time)","Thu Oct 29 2020 16:30:36 GMT-0400 (Eastern Daylight Time)","Mozilla/5.0 (Windows NT 10.0; Win64; x64) AppleWebKit/537.36 (KHTML, like Gecko) Chrome/86.0.4240.111 Safari/537.36",27,"[0.9, 0.5, 0.1]","[0.8, 0.4, 0.2]","[u'blue', u'red', u'black']","[u'left', u'middle', u'right']","[0.9, 0.5, 0.1]","[u'low', u'high', u'medium']","red",50,"middle","high","True","False",215,1800,NA
"A3QJNTSPNMMA31","Thu Oct 29 2020 16:22:26 GMT-0400 (Eastern Daylight Time)","Thu Oct 29 2020 16:30:36 GMT-0400 (Eastern Daylight Time)","Mozilla/5.0 (Windows NT 10.0; Win64; x64) AppleWebKit/537.36 (KHTML, like Gecko) Chrome/86.0.4240.111 Safari/537.36",28,"[0.9, 0.5, 0.1]","[0.8, 0.4, 0.2]","[u'blue', u'red', u'black']","[u'left', u'middle', u'right']","[0.9, 0.5, 0.1]","[u'low', u'high', u'medium']","red",50,"middle","high","True","False",205,1900,NA
"A3QJNTSPNMMA31","Thu Oct 29 2020 16:22:26 GMT-0400 (Eastern Daylight Time)","Thu Oct 29 2020 16:30:36 GMT-0400 (Eastern Daylight Time)","Mozilla/5.0 (Windows NT 10.0; Win64; x64) AppleWebKit/537.36 (KHTML, like Gecko) Chrome/86.0.4240.111 Safari/537.36",29,"[0.9, 0.5, 0.1]","[0.8, 0.4, 0.2]","[u'blue', u'red', u'black']","[u'left', u'middle', u'right']","[0.9, 0.5, 0.1]","[u'low', u'high', u'medium']","red",50,"middle","high","True","True",227,2000,NA
"A3QJNTSPNMMA31","Thu Oct 29 2020 16:22:26 GMT-0400 (Eastern Daylight Time)","Thu Oct 29 2020 16:30:36 GMT-0400 (Eastern Daylight Time)","Mozilla/5.0 (Windows NT 10.0; Win64; x64) AppleWebKit/537.36 (KHTML, like Gecko) Chrome/86.0.4240.111 Safari/537.36",30,"[0.9, 0.5, 0.1]","[0.8, 0.4, 0.2]","[u'blue', u'red', u'black']","[u'left', u'middle', u'right']","[0.9, 0.5, 0.1]","[u'high', u'low', u'medium']","red",50,"middle","low","False","False",209,1950,NA
"A3QJNTSPNMMA31","Thu Oct 29 2020 16:22:26 GMT-0400 (Eastern Daylight Time)","Thu Oct 29 2020 16:30:36 GMT-0400 (Eastern Daylight Time)","Mozilla/5.0 (Windows NT 10.0; Win64; x64) AppleWebKit/537.36 (KHTML, like Gecko) Chrome/86.0.4240.111 Safari/537.36",31,"[0.9, 0.5, 0.1]","[0.8, 0.4, 0.2]","[u'blue', u'red', u'black']","[u'left', u'middle', u'right']","[0.9, 0.5, 0.1]","[u'high', u'low', u'medium']","blue",49,"left","high","True","False",45,2050,NA
"A3QJNTSPNMMA31","Thu Oct 29 2020 16:22:26 GMT-0400 (Eastern Daylight Time)","Thu Oct 29 2020 16:30:36 GMT-0400 (Eastern Daylight Time)","Mozilla/5.0 (Windows NT 10.0; Win64; x64) AppleWebKit/537.36 (KHTML, like Gecko) Chrome/86.0.4240.111 Safari/537.36",32,"[0.9, 0.5, 0.1]","[0.8, 0.4, 0.2]","[u'blue', u'red', u'black']","[u'left', u'middle', u'right']","[0.9, 0.5, 0.1]","[u'high', u'low', u'medium']","blue",49,"left","high","True","False",174,2150,NA
"A3QJNTSPNMMA31","Thu Oct 29 2020 16:22:26 GMT-0400 (Eastern Daylight Time)","Thu Oct 29 2020 16:30:36 GMT-0400 (Eastern Daylight Time)","Mozilla/5.0 (Windows NT 10.0; Win64; x64) AppleWebKit/537.36 (KHTML, like Gecko) Chrome/86.0.4240.111 Safari/537.36",33,"[0.9, 0.5, 0.1]","[0.8, 0.4, 0.2]","[u'blue', u'red', u'black']","[u'left', u'middle', u'right']","[0.9, 0.5, 0.1]","[u'high', u'low', u'medium']","blue",49,"left","high","True","False",187,2250,NA
"A3QJNTSPNMMA31","Thu Oct 29 2020 16:22:26 GMT-0400 (Eastern Daylight Time)","Thu Oct 29 2020 16:30:36 GMT-0400 (Eastern Daylight Time)","Mozilla/5.0 (Windows NT 10.0; Win64; x64) AppleWebKit/537.36 (KHTML, like Gecko) Chrome/86.0.4240.111 Safari/537.36",34,"[0.9, 0.5, 0.1]","[0.8, 0.4, 0.2]","[u'blue', u'red', u'black']","[u'left', u'middle', u'right']","[0.9, 0.5, 0.1]","[u'high', u'low', u'medium']","blue",49,"left","high","True","False",237,2350,NA
"A3QJNTSPNMMA31","Thu Oct 29 2020 16:22:26 GMT-0400 (Eastern Daylight Time)","Thu Oct 29 2020 16:30:36 GMT-0400 (Eastern Daylight Time)","Mozilla/5.0 (Windows NT 10.0; Win64; x64) AppleWebKit/537.36 (KHTML, like Gecko) Chrome/86.0.4240.111 Safari/537.36",35,"[0.9, 0.5, 0.1]","[0.8, 0.4, 0.2]","[u'blue', u'red', u'black']","[u'left', u'middle', u'right']","[0.9, 0.5, 0.1]","[u'high', u'low', u'medium']","blue",49,"left","high","False","False",174,2300,NA
"A3QJNTSPNMMA31","Thu Oct 29 2020 16:22:26 GMT-0400 (Eastern Daylight Time)","Thu Oct 29 2020 16:30:36 GMT-0400 (Eastern Daylight Time)","Mozilla/5.0 (Windows NT 10.0; Win64; x64) AppleWebKit/537.36 (KHTML, like Gecko) Chrome/86.0.4240.111 Safari/537.36",36,"[0.9, 0.5, 0.1]","[0.8, 0.4, 0.2]","[u'blue', u'red', u'black']","[u'left', u'middle', u'right']","[0.9, 0.5, 0.1]","[u'high', u'low', u'medium']","red",50,"middle","low","False","False",64,2250,NA
"A3QJNTSPNMMA31","Thu Oct 29 2020 16:22:26 GMT-0400 (Eastern Daylight Time)","Thu Oct 29 2020 16:30:36 GMT-0400 (Eastern Daylight Time)","Mozilla/5.0 (Windows NT 10.0; Win64; x64) AppleWebKit/537.36 (KHTML, like Gecko) Chrome/86.0.4240.111 Safari/537.36",37,"[0.9, 0.5, 0.1]","[0.8, 0.4, 0.2]","[u'blue', u'red', u'black']","[u'left', u'middle', u'right']","[0.9, 0.5, 0.1]","[u'high', u'low', u'medium']","blue",49,"left","high","True","False",25,2350,NA
"A3QJNTSPNMMA31","Thu Oct 29 2020 16:22:26 GMT-0400 (Eastern Daylight Time)","Thu Oct 29 2020 16:30:36 GMT-0400 (Eastern Daylight Time)","Mozilla/5.0 (Windows NT 10.0; Win64; x64) AppleWebKit/537.36 (KHTML, like Gecko) Chrome/86.0.4240.111 Safari/537.36",38,"[0.9, 0.5, 0.1]","[0.8, 0.4, 0.2]","[u'blue', u'red', u'black']","[u'left', u'middle', u'right']","[0.9, 0.5, 0.1]","[u'high', u'low', u'medium']","blue",49,"left","high","True","False",113,2450,NA
"A3QJNTSPNMMA31","Thu Oct 29 2020 16:22:26 GMT-0400 (Eastern Daylight Time)","Thu Oct 29 2020 16:30:36 GMT-0400 (Eastern Daylight Time)","Mozilla/5.0 (Windows NT 10.0; Win64; x64) AppleWebKit/537.36 (KHTML, like Gecko) Chrome/86.0.4240.111 Safari/537.36",39,"[0.9, 0.5, 0.1]","[0.8, 0.4, 0.2]","[u'blue', u'red', u'black']","[u'left', u'middle', u'right']","[0.9, 0.5, 0.1]","[u'high', u'low', u'medium']","blue",49,"left","high","True","False",223,2550,NA
"A3QJNTSPNMMA31","Thu Oct 29 2020 16:22:26 GMT-0400 (Eastern Daylight Time)","Thu Oct 29 2020 16:30:36 GMT-0400 (Eastern Daylight Time)","Mozilla/5.0 (Windows NT 10.0; Win64; x64) AppleWebKit/537.36 (KHTML, like Gecko) Chrome/86.0.4240.111 Safari/537.36",40,"[0.9, 0.5, 0.1]","[0.8, 0.4, 0.2]","[u'blue', u'red', u'black']","[u'left', u'middle', u'right']","[0.9, 0.5, 0.1]","[u'high', u'low', u'medium']","blue",49,"left","high","True","True",104,2650,NA
"A3QJNTSPNMMA31","Thu Oct 29 2020 16:22:26 GMT-0400 (Eastern Daylight Time)","Thu Oct 29 2020 16:30:36 GMT-0400 (Eastern Daylight Time)","Mozilla/5.0 (Windows NT 10.0; Win64; x64) AppleWebKit/537.36 (KHTML, like Gecko) Chrome/86.0.4240.111 Safari/537.36",41,"[0.9, 0.5, 0.1]","[0.8, 0.4, 0.2]","[u'blue', u'red', u'black']","[u'left', u'middle', u'right']","[0.9, 0.5, 0.1]","[u'low', u'medium', u'high']","blue",49,"left","low","False","False",797,2600,NA
"A3QJNTSPNMMA31","Thu Oct 29 2020 16:22:26 GMT-0400 (Eastern Daylight Time)","Thu Oct 29 2020 16:30:36 GMT-0400 (Eastern Daylight Time)","Mozilla/5.0 (Windows NT 10.0; Win64; x64) AppleWebKit/537.36 (KHTML, like Gecko) Chrome/86.0.4240.111 Safari/537.36",42,"[0.9, 0.5, 0.1]","[0.8, 0.4, 0.2]","[u'blue', u'red', u'black']","[u'left', u'middle', u'right']","[0.9, 0.5, 0.1]","[u'low', u'medium', u'high']","red",50,"middle","medium","True","False",563,2700,NA
"A3QJNTSPNMMA31","Thu Oct 29 2020 16:22:26 GMT-0400 (Eastern Daylight Time)","Thu Oct 29 2020 16:30:36 GMT-0400 (Eastern Daylight Time)","Mozilla/5.0 (Windows NT 10.0; Win64; x64) AppleWebKit/537.36 (KHTML, like Gecko) Chrome/86.0.4240.111 Safari/537.36",43,"[0.9, 0.5, 0.1]","[0.8, 0.4, 0.2]","[u'blue', u'red', u'black']","[u'left', u'middle', u'right']","[0.9, 0.5, 0.1]","[u'low', u'medium', u'high']","red",50,"middle","medium","True","False",183,2800,NA
"A3QJNTSPNMMA31","Thu Oct 29 2020 16:22:26 GMT-0400 (Eastern Daylight Time)","Thu Oct 29 2020 16:30:36 GMT-0400 (Eastern Daylight Time)","Mozilla/5.0 (Windows NT 10.0; Win64; x64) AppleWebKit/537.36 (KHTML, like Gecko) Chrome/86.0.4240.111 Safari/537.36",44,"[0.9, 0.5, 0.1]","[0.8, 0.4, 0.2]","[u'blue', u'red', u'black']","[u'left', u'middle', u'right']","[0.9, 0.5, 0.1]","[u'low', u'medium', u'high']","red",50,"middle","medium","False","False",509,2750,NA
"A3QJNTSPNMMA31","Thu Oct 29 2020 16:22:26 GMT-0400 (Eastern Daylight Time)","Thu Oct 29 2020 16:30:36 GMT-0400 (Eastern Daylight Time)","Mozilla/5.0 (Windows NT 10.0; Win64; x64) AppleWebKit/537.36 (KHTML, like Gecko) Chrome/86.0.4240.111 Safari/537.36",45,"[0.9, 0.5, 0.1]","[0.8, 0.4, 0.2]","[u'blue', u'red', u'black']","[u'left', u'middle', u'right']","[0.9, 0.5, 0.1]","[u'low', u'medium', u'high']","black",51,"right","high","True","False",206,2850,NA
"A3QJNTSPNMMA31","Thu Oct 29 2020 16:22:26 GMT-0400 (Eastern Daylight Time)","Thu Oct 29 2020 16:30:36 GMT-0400 (Eastern Daylight Time)","Mozilla/5.0 (Windows NT 10.0; Win64; x64) AppleWebKit/537.36 (KHTML, like Gecko) Chrome/86.0.4240.111 Safari/537.36",46,"[0.9, 0.5, 0.1]","[0.8, 0.4, 0.2]","[u'blue', u'red', u'black']","[u'left', u'middle', u'right']","[0.9, 0.5, 0.1]","[u'low', u'medium', u'high']","black",51,"right","high","True","False",215,2950,NA
"A3QJNTSPNMMA31","Thu Oct 29 2020 16:22:26 GMT-0400 (Eastern Daylight Time)","Thu Oct 29 2020 16:30:36 GMT-0400 (Eastern Daylight Time)","Mozilla/5.0 (Windows NT 10.0; Win64; x64) AppleWebKit/537.36 (KHTML, like Gecko) Chrome/86.0.4240.111 Safari/537.36",47,"[0.9, 0.5, 0.1]","[0.8, 0.4, 0.2]","[u'blue', u'red', u'black']","[u'left', u'middle', u'right']","[0.9, 0.5, 0.1]","[u'low', u'medium', u'high']","black",51,"right","high","True","False",247,3050,NA
"A3QJNTSPNMMA31","Thu Oct 29 2020 16:22:26 GMT-0400 (Eastern Daylight Time)","Thu Oct 29 2020 16:30:36 GMT-0400 (Eastern Daylight Time)","Mozilla/5.0 (Windows NT 10.0; Win64; x64) AppleWebKit/537.36 (KHTML, like Gecko) Chrome/86.0.4240.111 Safari/537.36",48,"[0.9, 0.5, 0.1]","[0.8, 0.4, 0.2]","[u'blue', u'red', u'black']","[u'left', u'middle', u'right']","[0.9, 0.5, 0.1]","[u'low', u'medium', u'high']","black",51,"right","high","True","False",227,3150,NA
"A3QJNTSPNMMA31","Thu Oct 29 2020 16:22:26 GMT-0400 (Eastern Daylight Time)","Thu Oct 29 2020 16:30:36 GMT-0400 (Eastern Daylight Time)","Mozilla/5.0 (Windows NT 10.0; Win64; x64) AppleWebKit/537.36 (KHTML, like Gecko) Chrome/86.0.4240.111 Safari/537.36",49,"[0.9, 0.5, 0.1]","[0.8, 0.4, 0.2]","[u'blue', u'red', u'black']","[u'left', u'middle', u'right']","[0.9, 0.5, 0.1]","[u'low', u'medium', u'high']","black",51,"right","high","True","False",239,3250,NA
"A3QJNTSPNMMA31","Thu Oct 29 2020 16:22:26 GMT-0400 (Eastern Daylight Time)","Thu Oct 29 2020 16:30:36 GMT-0400 (Eastern Daylight Time)","Mozilla/5.0 (Windows NT 10.0; Win64; x64) AppleWebKit/537.36 (KHTML, like Gecko) Chrome/86.0.4240.111 Safari/537.36",50,"[0.9, 0.5, 0.1]","[0.8, 0.4, 0.2]","[u'blue', u'red', u'black']","[u'left', u'middle', u'right']","[0.9, 0.5, 0.1]","[u'low', u'medium', u'high']","black",51,"right","high","False","False",266,3200,NA
"A3QJNTSPNMMA31","Thu Oct 29 2020 16:22:26 GMT-0400 (Eastern Daylight Time)","Thu Oct 29 2020 16:30:36 GMT-0400 (Eastern Daylight Time)","Mozilla/5.0 (Windows NT 10.0; Win64; x64) AppleWebKit/537.36 (KHTML, like Gecko) Chrome/86.0.4240.111 Safari/537.36",51,"[0.9, 0.5, 0.1]","[0.8, 0.4, 0.2]","[u'blue', u'red', u'black']","[u'left', u'middle', u'right']","[0.9, 0.5, 0.1]","[u'low', u'medium', u'high']","blue",49,"left","low","False","False",240,3150,NA
"A3QJNTSPNMMA31","Thu Oct 29 2020 16:22:26 GMT-0400 (Eastern Daylight Time)","Thu Oct 29 2020 16:30:36 GMT-0400 (Eastern Daylight Time)","Mozilla/5.0 (Windows NT 10.0; Win64; x64) AppleWebKit/537.36 (KHTML, like Gecko) Chrome/86.0.4240.111 Safari/537.36",52,"[0.9, 0.5, 0.1]","[0.8, 0.4, 0.2]","[u'blue', u'red', u'black']","[u'left', u'middle', u'right']","[0.9, 0.5, 0.1]","[u'low', u'medium', u'high']","red",50,"middle","medium","True","False",169,3250,NA
"A3QJNTSPNMMA31","Thu Oct 29 2020 16:22:26 GMT-0400 (Eastern Daylight Time)","Thu Oct 29 2020 16:30:36 GMT-0400 (Eastern Daylight Time)","Mozilla/5.0 (Windows NT 10.0; Win64; x64) AppleWebKit/537.36 (KHTML, like Gecko) Chrome/86.0.4240.111 Safari/537.36",53,"[0.9, 0.5, 0.1]","[0.8, 0.4, 0.2]","[u'blue', u'red', u'black']","[u'left', u'middle', u'right']","[0.9, 0.5, 0.1]","[u'low', u'medium', u'high']","red",50,"middle","medium","False","False",251,3200,NA
"A3QJNTSPNMMA31","Thu Oct 29 2020 16:22:26 GMT-0400 (Eastern Daylight Time)","Thu Oct 29 2020 16:30:36 GMT-0400 (Eastern Daylight Time)","Mozilla/5.0 (Windows NT 10.0; Win64; x64) AppleWebKit/537.36 (KHTML, like Gecko) Chrome/86.0.4240.111 Safari/537.36",54,"[0.9, 0.5, 0.1]","[0.8, 0.4, 0.2]","[u'blue', u'red', u'black']","[u'left', u'middle', u'right']","[0.9, 0.5, 0.1]","[u'low', u'medium', u'high']","black",51,"right","high","True","False",183,3300,NA
"A3QJNTSPNMMA31","Thu Oct 29 2020 16:22:26 GMT-0400 (Eastern Daylight Time)","Thu Oct 29 2020 16:30:36 GMT-0400 (Eastern Daylight Time)","Mozilla/5.0 (Windows NT 10.0; Win64; x64) AppleWebKit/537.36 (KHTML, like Gecko) Chrome/86.0.4240.111 Safari/537.36",55,"[0.9, 0.5, 0.1]","[0.8, 0.4, 0.2]","[u'blue', u'red', u'black']","[u'left', u'middle', u'right']","[0.9, 0.5, 0.1]","[u'low', u'medium', u'high']","black",51,"right","high","True","False",237,3400,NA
"A3QJNTSPNMMA31","Thu Oct 29 2020 16:22:26 GMT-0400 (Eastern Daylight Time)","Thu Oct 29 2020 16:30:36 GMT-0400 (Eastern Daylight Time)","Mozilla/5.0 (Windows NT 10.0; Win64; x64) AppleWebKit/537.36 (KHTML, like Gecko) Chrome/86.0.4240.111 Safari/537.36",56,"[0.9, 0.5, 0.1]","[0.8, 0.4, 0.2]","[u'blue', u'red', u'black']","[u'left', u'middle', u'right']","[0.9, 0.5, 0.1]","[u'low', u'medium', u'high']","black",51,"right","high","True","False",263,3500,NA
"A3QJNTSPNMMA31","Thu Oct 29 2020 16:22:26 GMT-0400 (Eastern Daylight Time)","Thu Oct 29 2020 16:30:36 GMT-0400 (Eastern Daylight Time)","Mozilla/5.0 (Windows NT 10.0; Win64; x64) AppleWebKit/537.36 (KHTML, like Gecko) Chrome/86.0.4240.111 Safari/537.36",57,"[0.9, 0.5, 0.1]","[0.8, 0.4, 0.2]","[u'blue', u'red', u'black']","[u'left', u'middle', u'right']","[0.9, 0.5, 0.1]","[u'low', u'medium', u'high']","black",51,"right","high","True","False",261,3600,NA
"A3QJNTSPNMMA31","Thu Oct 29 2020 16:22:26 GMT-0400 (Eastern Daylight Time)","Thu Oct 29 2020 16:30:36 GMT-0400 (Eastern Daylight Time)","Mozilla/5.0 (Windows NT 10.0; Win64; x64) AppleWebKit/537.36 (KHTML, like Gecko) Chrome/86.0.4240.111 Safari/537.36",58,"[0.9, 0.5, 0.1]","[0.8, 0.4, 0.2]","[u'blue', u'red', u'black']","[u'left', u'middle', u'right']","[0.9, 0.5, 0.1]","[u'low', u'medium', u'high']","black",51,"right","high","True","False",235,3700,NA
"A3QJNTSPNMMA31","Thu Oct 29 2020 16:22:26 GMT-0400 (Eastern Daylight Time)","Thu Oct 29 2020 16:30:36 GMT-0400 (Eastern Daylight Time)","Mozilla/5.0 (Windows NT 10.0; Win64; x64) AppleWebKit/537.36 (KHTML, like Gecko) Chrome/86.0.4240.111 Safari/537.36",59,"[0.9, 0.5, 0.1]","[0.8, 0.4, 0.2]","[u'blue', u'red', u'black']","[u'left', u'middle', u'right']","[0.9, 0.5, 0.1]","[u'low', u'medium', u'high']","black",51,"right","high","True","False",274,3800,NA
"A3QJNTSPNMMA31","Thu Oct 29 2020 16:22:26 GMT-0400 (Eastern Daylight Time)","Thu Oct 29 2020 16:30:36 GMT-0400 (Eastern Daylight Time)","Mozilla/5.0 (Windows NT 10.0; Win64; x64) AppleWebKit/537.36 (KHTML, like Gecko) Chrome/86.0.4240.111 Safari/537.36",60,"[0.9, 0.5, 0.1]","[0.8, 0.4, 0.2]","[u'blue', u'red', u'black']","[u'left', u'middle', u'right']","[0.9, 0.5, 0.1]","[u'low', u'medium', u'high']","black",51,"right","high","True","False",275,3900,NA
"A3QJNTSPNMMA31","Thu Oct 29 2020 16:22:26 GMT-0400 (Eastern Daylight Time)","Thu Oct 29 2020 16:30:36 GMT-0400 (Eastern Daylight Time)","Mozilla/5.0 (Windows NT 10.0; Win64; x64) AppleWebKit/537.36 (KHTML, like Gecko) Chrome/86.0.4240.111 Safari/537.36",61,"[0.9, 0.5, 0.1]","[0.8, 0.4, 0.2]","[u'blue', u'red', u'black']","[u'left', u'middle', u'right']","[0.9, 0.5, 0.1]","[u'low', u'medium', u'high']","black",51,"right","high","False","False",371,3850,NA
"A3QJNTSPNMMA31","Thu Oct 29 2020 16:22:26 GMT-0400 (Eastern Daylight Time)","Thu Oct 29 2020 16:30:36 GMT-0400 (Eastern Daylight Time)","Mozilla/5.0 (Windows NT 10.0; Win64; x64) AppleWebKit/537.36 (KHTML, like Gecko) Chrome/86.0.4240.111 Safari/537.36",62,"[0.9, 0.5, 0.1]","[0.8, 0.4, 0.2]","[u'blue', u'red', u'black']","[u'left', u'middle', u'right']","[0.9, 0.5, 0.1]","[u'low', u'medium', u'high']","red",50,"middle","medium","False","False",234,3800,NA
"A3QJNTSPNMMA31","Thu Oct 29 2020 16:22:26 GMT-0400 (Eastern Daylight Time)","Thu Oct 29 2020 16:30:36 GMT-0400 (Eastern Daylight Time)","Mozilla/5.0 (Windows NT 10.0; Win64; x64) AppleWebKit/537.36 (KHTML, like Gecko) Chrome/86.0.4240.111 Safari/537.36",63,"[0.9, 0.5, 0.1]","[0.8, 0.4, 0.2]","[u'blue', u'red', u'black']","[u'left', u'middle', u'right']","[0.9, 0.5, 0.1]","[u'low', u'medium', u'high']","blue",49,"left","low","False","False",123,3750,NA
"A3QJNTSPNMMA31","Thu Oct 29 2020 16:22:26 GMT-0400 (Eastern Daylight Time)","Thu Oct 29 2020 16:30:36 GMT-0400 (Eastern Daylight Time)","Mozilla/5.0 (Windows NT 10.0; Win64; x64) AppleWebKit/537.36 (KHTML, like Gecko) Chrome/86.0.4240.111 Safari/537.36",64,"[0.9, 0.5, 0.1]","[0.8, 0.4, 0.2]","[u'blue', u'red', u'black']","[u'left', u'middle', u'right']","[0.9, 0.5, 0.1]","[u'low', u'medium', u'high']","red",50,"middle","medium","False","False",54,3700,NA
"A3QJNTSPNMMA31","Thu Oct 29 2020 16:22:26 GMT-0400 (Eastern Daylight Time)","Thu Oct 29 2020 16:30:36 GMT-0400 (Eastern Daylight Time)","Mozilla/5.0 (Windows NT 10.0; Win64; x64) AppleWebKit/537.36 (KHTML, like Gecko) Chrome/86.0.4240.111 Safari/537.36",65,"[0.9, 0.5, 0.1]","[0.8, 0.4, 0.2]","[u'blue', u'red', u'black']","[u'left', u'middle', u'right']","[0.9, 0.5, 0.1]","[u'low', u'medium', u'high']","black",51,"right","high","True","False",119,3800,NA
"A3QJNTSPNMMA31","Thu Oct 29 2020 16:22:26 GMT-0400 (Eastern Daylight Time)","Thu Oct 29 2020 16:30:36 GMT-0400 (Eastern Daylight Time)","Mozilla/5.0 (Windows NT 10.0; Win64; x64) AppleWebKit/537.36 (KHTML, like Gecko) Chrome/86.0.4240.111 Safari/537.36",66,"[0.9, 0.5, 0.1]","[0.8, 0.4, 0.2]","[u'blue', u'red', u'black']","[u'left', u'middle', u'right']","[0.9, 0.5, 0.1]","[u'low', u'medium', u'high']","black",51,"right","high","True","False",237,3900,NA
"A3QJNTSPNMMA31","Thu Oct 29 2020 16:22:26 GMT-0400 (Eastern Daylight Time)","Thu Oct 29 2020 16:30:36 GMT-0400 (Eastern Daylight Time)","Mozilla/5.0 (Windows NT 10.0; Win64; x64) AppleWebKit/537.36 (KHTML, like Gecko) Chrome/86.0.4240.111 Safari/537.36",67,"[0.9, 0.5, 0.1]","[0.8, 0.4, 0.2]","[u'blue', u'red', u'black']","[u'left', u'middle', u'right']","[0.9, 0.5, 0.1]","[u'low', u'medium', u'high']","black",51,"right","high","True","False",281,4000,NA
"A3QJNTSPNMMA31","Thu Oct 29 2020 16:22:26 GMT-0400 (Eastern Daylight Time)","Thu Oct 29 2020 16:30:36 GMT-0400 (Eastern Daylight Time)","Mozilla/5.0 (Windows NT 10.0; Win64; x64) AppleWebKit/537.36 (KHTML, like Gecko) Chrome/86.0.4240.111 Safari/537.36",68,"[0.9, 0.5, 0.1]","[0.8, 0.4, 0.2]","[u'blue', u'red', u'black']","[u'left', u'middle', u'right']","[0.9, 0.5, 0.1]","[u'low', u'medium', u'high']","black",51,"right","high","True","False",278,4100,NA
"A3QJNTSPNMMA31","Thu Oct 29 2020 16:22:26 GMT-0400 (Eastern Daylight Time)","Thu Oct 29 2020 16:30:36 GMT-0400 (Eastern Daylight Time)","Mozilla/5.0 (Windows NT 10.0; Win64; x64) AppleWebKit/537.36 (KHTML, like Gecko) Chrome/86.0.4240.111 Safari/537.36",69,"[0.9, 0.5, 0.1]","[0.8, 0.4, 0.2]","[u'blue', u'red', u'black']","[u'left', u'middle', u'right']","[0.9, 0.5, 0.1]","[u'low', u'medium', u'high']","black",51,"right","high","True","False",284,4200,NA
"A3QJNTSPNMMA31","Thu Oct 29 2020 16:22:26 GMT-0400 (Eastern Daylight Time)","Thu Oct 29 2020 16:30:36 GMT-0400 (Eastern Daylight Time)","Mozilla/5.0 (Windows NT 10.0; Win64; x64) AppleWebKit/537.36 (KHTML, like Gecko) Chrome/86.0.4240.111 Safari/537.36",70,"[0.9, 0.5, 0.1]","[0.8, 0.4, 0.2]","[u'blue', u'red', u'black']","[u'left', u'middle', u'right']","[0.9, 0.5, 0.1]","[u'low', u'medium', u'high']","black",51,"right","high","True","False",247,4300,NA
"A3QJNTSPNMMA31","Thu Oct 29 2020 16:22:26 GMT-0400 (Eastern Daylight Time)","Thu Oct 29 2020 16:30:36 GMT-0400 (Eastern Daylight Time)","Mozilla/5.0 (Windows NT 10.0; Win64; x64) AppleWebKit/537.36 (KHTML, like Gecko) Chrome/86.0.4240.111 Safari/537.36",71,"[0.9, 0.5, 0.1]","[0.8, 0.4, 0.2]","[u'blue', u'red', u'black']","[u'left', u'middle', u'right']","[0.9, 0.5, 0.1]","[u'low', u'medium', u'high']","black",51,"right","high","True","False",235,4400,NA
"A3QJNTSPNMMA31","Thu Oct 29 2020 16:22:26 GMT-0400 (Eastern Daylight Time)","Thu Oct 29 2020 16:30:36 GMT-0400 (Eastern Daylight Time)","Mozilla/5.0 (Windows NT 10.0; Win64; x64) AppleWebKit/537.36 (KHTML, like Gecko) Chrome/86.0.4240.111 Safari/537.36",72,"[0.9, 0.5, 0.1]","[0.8, 0.4, 0.2]","[u'blue', u'red', u'black']","[u'left', u'middle', u'right']","[0.9, 0.5, 0.1]","[u'low', u'medium', u'high']","black",51,"right","high","True","False",265,4500,NA
"A3QJNTSPNMMA31","Thu Oct 29 2020 16:22:26 GMT-0400 (Eastern Daylight Time)","Thu Oct 29 2020 16:30:36 GMT-0400 (Eastern Daylight Time)","Mozilla/5.0 (Windows NT 10.0; Win64; x64) AppleWebKit/537.36 (KHTML, like Gecko) Chrome/86.0.4240.111 Safari/537.36",73,"[0.9, 0.5, 0.1]","[0.8, 0.4, 0.2]","[u'blue', u'red', u'black']","[u'left', u'middle', u'right']","[0.9, 0.5, 0.1]","[u'low', u'medium', u'high']","black",51,"right","high","True","True",294,4600,NA
"A3QJNTSPNMMA31","Thu Oct 29 2020 16:22:26 GMT-0400 (Eastern Daylight Time)","Thu Oct 29 2020 16:30:36 GMT-0400 (Eastern Daylight Time)","Mozilla/5.0 (Windows NT 10.0; Win64; x64) AppleWebKit/537.36 (KHTML, like Gecko) Chrome/86.0.4240.111 Safari/537.36",74,"[0.9, 0.5, 0.1]","[0.8, 0.4, 0.2]","[u'blue', u'red', u'black']","[u'left', u'middle', u'right']","[0.9, 0.5, 0.1]","[u'high', u'low', u'medium']","black",51,"right","medium","True","False",252,4700,NA
"A3QJNTSPNMMA31","Thu Oct 29 2020 16:22:26 GMT-0400 (Eastern Daylight Time)","Thu Oct 29 2020 16:30:36 GMT-0400 (Eastern Daylight Time)","Mozilla/5.0 (Windows NT 10.0; Win64; x64) AppleWebKit/537.36 (KHTML, like Gecko) Chrome/86.0.4240.111 Safari/537.36",75,"[0.9, 0.5, 0.1]","[0.8, 0.4, 0.2]","[u'blue', u'red', u'black']","[u'left', u'middle', u'right']","[0.9, 0.5, 0.1]","[u'high', u'low', u'medium']","black",51,"right","medium","True","False",354,4800,NA
"A3QJNTSPNMMA31","Thu Oct 29 2020 16:22:26 GMT-0400 (Eastern Daylight Time)","Thu Oct 29 2020 16:30:36 GMT-0400 (Eastern Daylight Time)","Mozilla/5.0 (Windows NT 10.0; Win64; x64) AppleWebKit/537.36 (KHTML, like Gecko) Chrome/86.0.4240.111 Safari/537.36",76,"[0.9, 0.5, 0.1]","[0.8, 0.4, 0.2]","[u'blue', u'red', u'black']","[u'left', u'middle', u'right']","[0.9, 0.5, 0.1]","[u'high', u'low', u'medium']","black",51,"right","medium","True","False",337,4900,NA
"A3QJNTSPNMMA31","Thu Oct 29 2020 16:22:26 GMT-0400 (Eastern Daylight Time)","Thu Oct 29 2020 16:30:36 GMT-0400 (Eastern Daylight Time)","Mozilla/5.0 (Windows NT 10.0; Win64; x64) AppleWebKit/537.36 (KHTML, like Gecko) Chrome/86.0.4240.111 Safari/537.36",77,"[0.9, 0.5, 0.1]","[0.8, 0.4, 0.2]","[u'blue', u'red', u'black']","[u'left', u'middle', u'right']","[0.9, 0.5, 0.1]","[u'high', u'low', u'medium']","black",51,"right","medium","False","False",241,4850,NA
"A3QJNTSPNMMA31","Thu Oct 29 2020 16:22:26 GMT-0400 (Eastern Daylight Time)","Thu Oct 29 2020 16:30:36 GMT-0400 (Eastern Daylight Time)","Mozilla/5.0 (Windows NT 10.0; Win64; x64) AppleWebKit/537.36 (KHTML, like Gecko) Chrome/86.0.4240.111 Safari/537.36",78,"[0.9, 0.5, 0.1]","[0.8, 0.4, 0.2]","[u'blue', u'red', u'black']","[u'left', u'middle', u'right']","[0.9, 0.5, 0.1]","[u'high', u'low', u'medium']","red",50,"middle","low","False","False",248,4800,NA
"A3QJNTSPNMMA31","Thu Oct 29 2020 16:22:26 GMT-0400 (Eastern Daylight Time)","Thu Oct 29 2020 16:30:36 GMT-0400 (Eastern Daylight Time)","Mozilla/5.0 (Windows NT 10.0; Win64; x64) AppleWebKit/537.36 (KHTML, like Gecko) Chrome/86.0.4240.111 Safari/537.36",79,"[0.9, 0.5, 0.1]","[0.8, 0.4, 0.2]","[u'blue', u'red', u'black']","[u'left', u'middle', u'right']","[0.9, 0.5, 0.1]","[u'high', u'low', u'medium']","black",51,"right","medium","False","False",60,4750,NA
"A3QJNTSPNMMA31","Thu Oct 29 2020 16:22:26 GMT-0400 (Eastern Daylight Time)","Thu Oct 29 2020 16:30:36 GMT-0400 (Eastern Daylight Time)","Mozilla/5.0 (Windows NT 10.0; Win64; x64) AppleWebKit/537.36 (KHTML, like Gecko) Chrome/86.0.4240.111 Safari/537.36",80,"[0.9, 0.5, 0.1]","[0.8, 0.4, 0.2]","[u'blue', u'red', u'black']","[u'left', u'middle', u'right']","[0.9, 0.5, 0.1]","[u'high', u'low', u'medium']","blue",49,"left","high","True","False",21,4850,NA
"A3QJNTSPNMMA31","Thu Oct 29 2020 16:22:26 GMT-0400 (Eastern Daylight Time)","Thu Oct 29 2020 16:30:36 GMT-0400 (Eastern Daylight Time)","Mozilla/5.0 (Windows NT 10.0; Win64; x64) AppleWebKit/537.36 (KHTML, like Gecko) Chrome/86.0.4240.111 Safari/537.36",81,"[0.9, 0.5, 0.1]","[0.8, 0.4, 0.2]","[u'blue', u'red', u'black']","[u'left', u'middle', u'right']","[0.8, 0.4, 0.2]","[u'low', u'medium', u'high']","blue",49,"left","low","False","False",356,4800,NA
"A3QJNTSPNMMA31","Thu Oct 29 2020 16:22:26 GMT-0400 (Eastern Daylight Time)","Thu Oct 29 2020 16:30:36 GMT-0400 (Eastern Daylight Time)","Mozilla/5.0 (Windows NT 10.0; Win64; x64) AppleWebKit/537.36 (KHTML, like Gecko) Chrome/86.0.4240.111 Safari/537.36",82,"[0.9, 0.5, 0.1]","[0.8, 0.4, 0.2]","[u'blue', u'red', u'black']","[u'left', u'middle', u'right']","[0.8, 0.4, 0.2]","[u'low', u'medium', u'high']","red",50,"middle","medium","False","False",253,4750,NA
"A3QJNTSPNMMA31","Thu Oct 29 2020 16:22:26 GMT-0400 (Eastern Daylight Time)","Thu Oct 29 2020 16:30:36 GMT-0400 (Eastern Daylight Time)","Mozilla/5.0 (Windows NT 10.0; Win64; x64) AppleWebKit/537.36 (KHTML, like Gecko) Chrome/86.0.4240.111 Safari/537.36",83,"[0.9, 0.5, 0.1]","[0.8, 0.4, 0.2]","[u'blue', u'red', u'black']","[u'left', u'middle', u'right']","[0.8, 0.4, 0.2]","[u'low', u'medium', u'high']","black",51,"right","high","False","False",371,4700,NA
"A3QJNTSPNMMA31","Thu Oct 29 2020 16:22:26 GMT-0400 (Eastern Daylight Time)","Thu Oct 29 2020 16:30:36 GMT-0400 (Eastern Daylight Time)","Mozilla/5.0 (Windows NT 10.0; Win64; x64) AppleWebKit/537.36 (KHTML, like Gecko) Chrome/86.0.4240.111 Safari/537.36",84,"[0.9, 0.5, 0.1]","[0.8, 0.4, 0.2]","[u'blue', u'red', u'black']","[u'left', u'middle', u'right']","[0.8, 0.4, 0.2]","[u'low', u'medium', u'high']","blue",49,"left","low","False","False",330,4650,NA
"A3QJNTSPNMMA31","Thu Oct 29 2020 16:22:26 GMT-0400 (Eastern Daylight Time)","Thu Oct 29 2020 16:30:36 GMT-0400 (Eastern Daylight Time)","Mozilla/5.0 (Windows NT 10.0; Win64; x64) AppleWebKit/537.36 (KHTML, like Gecko) Chrome/86.0.4240.111 Safari/537.36",85,"[0.9, 0.5, 0.1]","[0.8, 0.4, 0.2]","[u'blue', u'red', u'black']","[u'left', u'middle', u'right']","[0.8, 0.4, 0.2]","[u'low', u'medium', u'high']","red",50,"middle","medium","False","False",211,4600,NA
"A3QJNTSPNMMA31","Thu Oct 29 2020 16:22:26 GMT-0400 (Eastern Daylight Time)","Thu Oct 29 2020 16:30:36 GMT-0400 (Eastern Daylight Time)","Mozilla/5.0 (Windows NT 10.0; Win64; x64) AppleWebKit/537.36 (KHTML, like Gecko) Chrome/86.0.4240.111 Safari/537.36",86,"[0.9, 0.5, 0.1]","[0.8, 0.4, 0.2]","[u'blue', u'red', u'black']","[u'left', u'middle', u'right']","[0.8, 0.4, 0.2]","[u'low', u'medium', u'high']","black",51,"right","high","True","False",231,4700,NA
"A3QJNTSPNMMA31","Thu Oct 29 2020 16:22:26 GMT-0400 (Eastern Daylight Time)","Thu Oct 29 2020 16:30:36 GMT-0400 (Eastern Daylight Time)","Mozilla/5.0 (Windows NT 10.0; Win64; x64) AppleWebKit/537.36 (KHTML, like Gecko) Chrome/86.0.4240.111 Safari/537.36",87,"[0.9, 0.5, 0.1]","[0.8, 0.4, 0.2]","[u'blue', u'red', u'black']","[u'left', u'middle', u'right']","[0.8, 0.4, 0.2]","[u'low', u'medium', u'high']","black",51,"right","high","True","False",319,4800,NA
"A3QJNTSPNMMA31","Thu Oct 29 2020 16:22:26 GMT-0400 (Eastern Daylight Time)","Thu Oct 29 2020 16:30:36 GMT-0400 (Eastern Daylight Time)","Mozilla/5.0 (Windows NT 10.0; Win64; x64) AppleWebKit/537.36 (KHTML, like Gecko) Chrome/86.0.4240.111 Safari/537.36",88,"[0.9, 0.5, 0.1]","[0.8, 0.4, 0.2]","[u'blue', u'red', u'black']","[u'left', u'middle', u'right']","[0.8, 0.4, 0.2]","[u'low', u'medium', u'high']","black",51,"right","high","True","False",752,4900,NA
"A3QJNTSPNMMA31","Thu Oct 29 2020 16:22:26 GMT-0400 (Eastern Daylight Time)","Thu Oct 29 2020 16:30:36 GMT-0400 (Eastern Daylight Time)","Mozilla/5.0 (Windows NT 10.0; Win64; x64) AppleWebKit/537.36 (KHTML, like Gecko) Chrome/86.0.4240.111 Safari/537.36",89,"[0.9, 0.5, 0.1]","[0.8, 0.4, 0.2]","[u'blue', u'red', u'black']","[u'left', u'middle', u'right']","[0.8, 0.4, 0.2]","[u'low', u'medium', u'high']","black",51,"right","high","True","False",529,5000,NA
"A3QJNTSPNMMA31","Thu Oct 29 2020 16:22:26 GMT-0400 (Eastern Daylight Time)","Thu Oct 29 2020 16:30:36 GMT-0400 (Eastern Daylight Time)","Mozilla/5.0 (Windows NT 10.0; Win64; x64) AppleWebKit/537.36 (KHTML, like Gecko) Chrome/86.0.4240.111 Safari/537.36",90,"[0.9, 0.5, 0.1]","[0.8, 0.4, 0.2]","[u'blue', u'red', u'black']","[u'left', u'middle', u'right']","[0.8, 0.4, 0.2]","[u'low', u'medium', u'high']","black",51,"right","high","True","False",366,5100,NA
"A3QJNTSPNMMA31","Thu Oct 29 2020 16:22:26 GMT-0400 (Eastern Daylight Time)","Thu Oct 29 2020 16:30:36 GMT-0400 (Eastern Daylight Time)","Mozilla/5.0 (Windows NT 10.0; Win64; x64) AppleWebKit/537.36 (KHTML, like Gecko) Chrome/86.0.4240.111 Safari/537.36",91,"[0.9, 0.5, 0.1]","[0.8, 0.4, 0.2]","[u'blue', u'red', u'black']","[u'left', u'middle', u'right']","[0.8, 0.4, 0.2]","[u'low', u'medium', u'high']","black",51,"right","high","True","False",348,5200,NA
"A3QJNTSPNMMA31","Thu Oct 29 2020 16:22:26 GMT-0400 (Eastern Daylight Time)","Thu Oct 29 2020 16:30:36 GMT-0400 (Eastern Daylight Time)","Mozilla/5.0 (Windows NT 10.0; Win64; x64) AppleWebKit/537.36 (KHTML, like Gecko) Chrome/86.0.4240.111 Safari/537.36",92,"[0.9, 0.5, 0.1]","[0.8, 0.4, 0.2]","[u'blue', u'red', u'black']","[u'left', u'middle', u'right']","[0.8, 0.4, 0.2]","[u'low', u'medium', u'high']","black",51,"right","high","True","False",320,5300,NA
"A3QJNTSPNMMA31","Thu Oct 29 2020 16:22:26 GMT-0400 (Eastern Daylight Time)","Thu Oct 29 2020 16:30:36 GMT-0400 (Eastern Daylight Time)","Mozilla/5.0 (Windows NT 10.0; Win64; x64) AppleWebKit/537.36 (KHTML, like Gecko) Chrome/86.0.4240.111 Safari/537.36",93,"[0.9, 0.5, 0.1]","[0.8, 0.4, 0.2]","[u'blue', u'red', u'black']","[u'left', u'middle', u'right']","[0.8, 0.4, 0.2]","[u'low', u'medium', u'high']","black",51,"right","high","True","False",264,5400,NA
"A3QJNTSPNMMA31","Thu Oct 29 2020 16:22:26 GMT-0400 (Eastern Daylight Time)","Thu Oct 29 2020 16:30:36 GMT-0400 (Eastern Daylight Time)","Mozilla/5.0 (Windows NT 10.0; Win64; x64) AppleWebKit/537.36 (KHTML, like Gecko) Chrome/86.0.4240.111 Safari/537.36",94,"[0.9, 0.5, 0.1]","[0.8, 0.4, 0.2]","[u'blue', u'red', u'black']","[u'left', u'middle', u'right']","[0.8, 0.4, 0.2]","[u'low', u'medium', u'high']","black",51,"right","high","True","True",277,5500,NA
"A3QJNTSPNMMA31","Thu Oct 29 2020 16:22:26 GMT-0400 (Eastern Daylight Time)","Thu Oct 29 2020 16:30:36 GMT-0400 (Eastern Daylight Time)","Mozilla/5.0 (Windows NT 10.0; Win64; x64) AppleWebKit/537.36 (KHTML, like Gecko) Chrome/86.0.4240.111 Safari/537.36",95,"[0.9, 0.5, 0.1]","[0.8, 0.4, 0.2]","[u'blue', u'red', u'black']","[u'left', u'middle', u'right']","[0.8, 0.4, 0.2]","[u'low', u'high', u'medium']","black",51,"right","medium","False","False",270,5450,NA
"A3QJNTSPNMMA31","Thu Oct 29 2020 16:22:26 GMT-0400 (Eastern Daylight Time)","Thu Oct 29 2020 16:30:36 GMT-0400 (Eastern Daylight Time)","Mozilla/5.0 (Windows NT 10.0; Win64; x64) AppleWebKit/537.36 (KHTML, like Gecko) Chrome/86.0.4240.111 Safari/537.36",96,"[0.9, 0.5, 0.1]","[0.8, 0.4, 0.2]","[u'blue', u'red', u'black']","[u'left', u'middle', u'right']","[0.8, 0.4, 0.2]","[u'low', u'high', u'medium']","red",50,"middle","high","True","False",273,5550,NA
"A3QJNTSPNMMA31","Thu Oct 29 2020 16:22:26 GMT-0400 (Eastern Daylight Time)","Thu Oct 29 2020 16:30:36 GMT-0400 (Eastern Daylight Time)","Mozilla/5.0 (Windows NT 10.0; Win64; x64) AppleWebKit/537.36 (KHTML, like Gecko) Chrome/86.0.4240.111 Safari/537.36",97,"[0.9, 0.5, 0.1]","[0.8, 0.4, 0.2]","[u'blue', u'red', u'black']","[u'left', u'middle', u'right']","[0.8, 0.4, 0.2]","[u'low', u'high', u'medium']","red",50,"middle","high","True","False",287,5650,NA
"A3QJNTSPNMMA31","Thu Oct 29 2020 16:22:26 GMT-0400 (Eastern Daylight Time)","Thu Oct 29 2020 16:30:36 GMT-0400 (Eastern Daylight Time)","Mozilla/5.0 (Windows NT 10.0; Win64; x64) AppleWebKit/537.36 (KHTML, like Gecko) Chrome/86.0.4240.111 Safari/537.36",98,"[0.9, 0.5, 0.1]","[0.8, 0.4, 0.2]","[u'blue', u'red', u'black']","[u'left', u'middle', u'right']","[0.8, 0.4, 0.2]","[u'low', u'high', u'medium']","red",50,"middle","high","True","False",290,5750,NA
"A3QJNTSPNMMA31","Thu Oct 29 2020 16:22:26 GMT-0400 (Eastern Daylight Time)","Thu Oct 29 2020 16:30:36 GMT-0400 (Eastern Daylight Time)","Mozilla/5.0 (Windows NT 10.0; Win64; x64) AppleWebKit/537.36 (KHTML, like Gecko) Chrome/86.0.4240.111 Safari/537.36",99,"[0.9, 0.5, 0.1]","[0.8, 0.4, 0.2]","[u'blue', u'red', u'black']","[u'left', u'middle', u'right']","[0.8, 0.4, 0.2]","[u'low', u'high', u'medium']","black",51,"right","medium","True","False",476,5850,NA
"A3QJNTSPNMMA31","Thu Oct 29 2020 16:22:26 GMT-0400 (Eastern Daylight Time)","Thu Oct 29 2020 16:30:36 GMT-0400 (Eastern Daylight Time)","Mozilla/5.0 (Windows NT 10.0; Win64; x64) AppleWebKit/537.36 (KHTML, like Gecko) Chrome/86.0.4240.111 Safari/537.36",100,"[0.9, 0.5, 0.1]","[0.8, 0.4, 0.2]","[u'blue', u'red', u'black']","[u'left', u'middle', u'right']","[0.8, 0.4, 0.2]","[u'low', u'high', u'medium']","black",51,"right","medium","True","False",248,5950,NA
"A3QJNTSPNMMA31","Thu Oct 29 2020 16:22:26 GMT-0400 (Eastern Daylight Time)","Thu Oct 29 2020 16:30:36 GMT-0400 (Eastern Daylight Time)","Mozilla/5.0 (Windows NT 10.0; Win64; x64) AppleWebKit/537.36 (KHTML, like Gecko) Chrome/86.0.4240.111 Safari/537.36",101,"[0.9, 0.5, 0.1]","[0.8, 0.4, 0.2]","[u'blue', u'red', u'black']","[u'left', u'middle', u'right']","[0.8, 0.4, 0.2]","[u'low', u'high', u'medium']","black",51,"right","medium","True","False",469,6050,NA
"A3QJNTSPNMMA31","Thu Oct 29 2020 16:22:26 GMT-0400 (Eastern Daylight Time)","Thu Oct 29 2020 16:30:36 GMT-0400 (Eastern Daylight Time)","Mozilla/5.0 (Windows NT 10.0; Win64; x64) AppleWebKit/537.36 (KHTML, like Gecko) Chrome/86.0.4240.111 Safari/537.36",102,"[0.9, 0.5, 0.1]","[0.8, 0.4, 0.2]","[u'blue', u'red', u'black']","[u'left', u'middle', u'right']","[0.8, 0.4, 0.2]","[u'low', u'high', u'medium']","black",51,"right","medium","True","False",287,6150,NA
"A3QJNTSPNMMA31","Thu Oct 29 2020 16:22:26 GMT-0400 (Eastern Daylight Time)","Thu Oct 29 2020 16:30:36 GMT-0400 (Eastern Daylight Time)","Mozilla/5.0 (Windows NT 10.0; Win64; x64) AppleWebKit/537.36 (KHTML, like Gecko) Chrome/86.0.4240.111 Safari/537.36",103,"[0.9, 0.5, 0.1]","[0.8, 0.4, 0.2]","[u'blue', u'red', u'black']","[u'left', u'middle', u'right']","[0.8, 0.4, 0.2]","[u'low', u'high', u'medium']","black",51,"right","medium","False","False",275,6100,NA
"A3QJNTSPNMMA31","Thu Oct 29 2020 16:22:26 GMT-0400 (Eastern Daylight Time)","Thu Oct 29 2020 16:30:36 GMT-0400 (Eastern Daylight Time)","Mozilla/5.0 (Windows NT 10.0; Win64; x64) AppleWebKit/537.36 (KHTML, like Gecko) Chrome/86.0.4240.111 Safari/537.36",104,"[0.9, 0.5, 0.1]","[0.8, 0.4, 0.2]","[u'blue', u'red', u'black']","[u'left', u'middle', u'right']","[0.8, 0.4, 0.2]","[u'low', u'high', u'medium']","red",50,"middle","high","True","False",396,6200,NA
"A3QJNTSPNMMA31","Thu Oct 29 2020 16:22:26 GMT-0400 (Eastern Daylight Time)","Thu Oct 29 2020 16:30:36 GMT-0400 (Eastern Daylight Time)","Mozilla/5.0 (Windows NT 10.0; Win64; x64) AppleWebKit/537.36 (KHTML, like Gecko) Chrome/86.0.4240.111 Safari/537.36",105,"[0.9, 0.5, 0.1]","[0.8, 0.4, 0.2]","[u'blue', u'red', u'black']","[u'left', u'middle', u'right']","[0.8, 0.4, 0.2]","[u'low', u'high', u'medium']","red",50,"middle","high","True","False",204,6300,NA
"A3QJNTSPNMMA31","Thu Oct 29 2020 16:22:26 GMT-0400 (Eastern Daylight Time)","Thu Oct 29 2020 16:30:36 GMT-0400 (Eastern Daylight Time)","Mozilla/5.0 (Windows NT 10.0; Win64; x64) AppleWebKit/537.36 (KHTML, like Gecko) Chrome/86.0.4240.111 Safari/537.36",106,"[0.9, 0.5, 0.1]","[0.8, 0.4, 0.2]","[u'blue', u'red', u'black']","[u'left', u'middle', u'right']","[0.8, 0.4, 0.2]","[u'low', u'high', u'medium']","red",50,"middle","high","False","False",49,6250,NA
"A3QJNTSPNMMA31","Thu Oct 29 2020 16:22:26 GMT-0400 (Eastern Daylight Time)","Thu Oct 29 2020 16:30:36 GMT-0400 (Eastern Daylight Time)","Mozilla/5.0 (Windows NT 10.0; Win64; x64) AppleWebKit/537.36 (KHTML, like Gecko) Chrome/86.0.4240.111 Safari/537.36",107,"[0.9, 0.5, 0.1]","[0.8, 0.4, 0.2]","[u'blue', u'red', u'black']","[u'left', u'middle', u'right']","[0.8, 0.4, 0.2]","[u'low', u'high', u'medium']","blue",49,"left","low","False","False",305,6200,NA
"A3QJNTSPNMMA31","Thu Oct 29 2020 16:22:26 GMT-0400 (Eastern Daylight Time)","Thu Oct 29 2020 16:30:36 GMT-0400 (Eastern Daylight Time)","Mozilla/5.0 (Windows NT 10.0; Win64; x64) AppleWebKit/537.36 (KHTML, like Gecko) Chrome/86.0.4240.111 Safari/537.36",108,"[0.9, 0.5, 0.1]","[0.8, 0.4, 0.2]","[u'blue', u'red', u'black']","[u'left', u'middle', u'right']","[0.8, 0.4, 0.2]","[u'low', u'high', u'medium']","black",51,"right","medium","False","False",151,6150,NA
"A3QJNTSPNMMA31","Thu Oct 29 2020 16:22:26 GMT-0400 (Eastern Daylight Time)","Thu Oct 29 2020 16:30:36 GMT-0400 (Eastern Daylight Time)","Mozilla/5.0 (Windows NT 10.0; Win64; x64) AppleWebKit/537.36 (KHTML, like Gecko) Chrome/86.0.4240.111 Safari/537.36",109,"[0.9, 0.5, 0.1]","[0.8, 0.4, 0.2]","[u'blue', u'red', u'black']","[u'left', u'middle', u'right']","[0.8, 0.4, 0.2]","[u'low', u'high', u'medium']","red",50,"middle","high","True","False",26,6250,NA
"A3QJNTSPNMMA31","Thu Oct 29 2020 16:22:26 GMT-0400 (Eastern Daylight Time)","Thu Oct 29 2020 16:30:36 GMT-0400 (Eastern Daylight Time)","Mozilla/5.0 (Windows NT 10.0; Win64; x64) AppleWebKit/537.36 (KHTML, like Gecko) Chrome/86.0.4240.111 Safari/537.36",110,"[0.9, 0.5, 0.1]","[0.8, 0.4, 0.2]","[u'blue', u'red', u'black']","[u'left', u'middle', u'right']","[0.8, 0.4, 0.2]","[u'low', u'high', u'medium']","red",50,"middle","high","True","False",54,6350,NA
"A3QJNTSPNMMA31","Thu Oct 29 2020 16:22:26 GMT-0400 (Eastern Daylight Time)","Thu Oct 29 2020 16:30:36 GMT-0400 (Eastern Daylight Time)","Mozilla/5.0 (Windows NT 10.0; Win64; x64) AppleWebKit/537.36 (KHTML, like Gecko) Chrome/86.0.4240.111 Safari/537.36",111,"[0.9, 0.5, 0.1]","[0.8, 0.4, 0.2]","[u'blue', u'red', u'black']","[u'left', u'middle', u'right']","[0.8, 0.4, 0.2]","[u'low', u'high', u'medium']","red",50,"middle","high","False","False",41,6300,NA
"A3QJNTSPNMMA31","Thu Oct 29 2020 16:22:26 GMT-0400 (Eastern Daylight Time)","Thu Oct 29 2020 16:30:36 GMT-0400 (Eastern Daylight Time)","Mozilla/5.0 (Windows NT 10.0; Win64; x64) AppleWebKit/537.36 (KHTML, like Gecko) Chrome/86.0.4240.111 Safari/537.36",112,"[0.9, 0.5, 0.1]","[0.8, 0.4, 0.2]","[u'blue', u'red', u'black']","[u'left', u'middle', u'right']","[0.8, 0.4, 0.2]","[u'low', u'high', u'medium']","blue",49,"left","low","False","False",223,6250,NA
"A3QJNTSPNMMA31","Thu Oct 29 2020 16:22:26 GMT-0400 (Eastern Daylight Time)","Thu Oct 29 2020 16:30:36 GMT-0400 (Eastern Daylight Time)","Mozilla/5.0 (Windows NT 10.0; Win64; x64) AppleWebKit/537.36 (KHTML, like Gecko) Chrome/86.0.4240.111 Safari/537.36",113,"[0.9, 0.5, 0.1]","[0.8, 0.4, 0.2]","[u'blue', u'red', u'black']","[u'left', u'middle', u'right']","[0.8, 0.4, 0.2]","[u'low', u'high', u'medium']","black",51,"right","medium","False","False",390,6200,NA
"A3QJNTSPNMMA31","Thu Oct 29 2020 16:22:26 GMT-0400 (Eastern Daylight Time)","Thu Oct 29 2020 16:30:36 GMT-0400 (Eastern Daylight Time)","Mozilla/5.0 (Windows NT 10.0; Win64; x64) AppleWebKit/537.36 (KHTML, like Gecko) Chrome/86.0.4240.111 Safari/537.36",114,"[0.9, 0.5, 0.1]","[0.8, 0.4, 0.2]","[u'blue', u'red', u'black']","[u'left', u'middle', u'right']","[0.8, 0.4, 0.2]","[u'low', u'high', u'medium']","red",50,"middle","high","False","False",113,6150,NA
"A3QJNTSPNMMA31","Thu Oct 29 2020 16:22:26 GMT-0400 (Eastern Daylight Time)","Thu Oct 29 2020 16:30:36 GMT-0400 (Eastern Daylight Time)","Mozilla/5.0 (Windows NT 10.0; Win64; x64) AppleWebKit/537.36 (KHTML, like Gecko) Chrome/86.0.4240.111 Safari/537.36",115,"[0.9, 0.5, 0.1]","[0.8, 0.4, 0.2]","[u'blue', u'red', u'black']","[u'left', u'middle', u'right']","[0.8, 0.4, 0.2]","[u'low', u'high', u'medium']","blue",49,"left","low","False","False",228,6100,NA
"A3QJNTSPNMMA31","Thu Oct 29 2020 16:22:26 GMT-0400 (Eastern Daylight Time)","Thu Oct 29 2020 16:30:36 GMT-0400 (Eastern Daylight Time)","Mozilla/5.0 (Windows NT 10.0; Win64; x64) AppleWebKit/537.36 (KHTML, like Gecko) Chrome/86.0.4240.111 Safari/537.36",116,"[0.9, 0.5, 0.1]","[0.8, 0.4, 0.2]","[u'blue', u'red', u'black']","[u'left', u'middle', u'right']","[0.8, 0.4, 0.2]","[u'low', u'high', u'medium']","red",50,"middle","high","True","False",127,6200,NA
"A3QJNTSPNMMA31","Thu Oct 29 2020 16:22:26 GMT-0400 (Eastern Daylight Time)","Thu Oct 29 2020 16:30:36 GMT-0400 (Eastern Daylight Time)","Mozilla/5.0 (Windows NT 10.0; Win64; x64) AppleWebKit/537.36 (KHTML, like Gecko) Chrome/86.0.4240.111 Safari/537.36",117,"[0.9, 0.5, 0.1]","[0.8, 0.4, 0.2]","[u'blue', u'red', u'black']","[u'left', u'middle', u'right']","[0.8, 0.4, 0.2]","[u'low', u'high', u'medium']","red",50,"middle","high","True","False",222,6300,NA
"A3QJNTSPNMMA31","Thu Oct 29 2020 16:22:26 GMT-0400 (Eastern Daylight Time)","Thu Oct 29 2020 16:30:36 GMT-0400 (Eastern Daylight Time)","Mozilla/5.0 (Windows NT 10.0; Win64; x64) AppleWebKit/537.36 (KHTML, like Gecko) Chrome/86.0.4240.111 Safari/537.36",118,"[0.9, 0.5, 0.1]","[0.8, 0.4, 0.2]","[u'blue', u'red', u'black']","[u'left', u'middle', u'right']","[0.8, 0.4, 0.2]","[u'low', u'high', u'medium']","red",50,"middle","high","True","False",266,6400,NA
"A3QJNTSPNMMA31","Thu Oct 29 2020 16:22:26 GMT-0400 (Eastern Daylight Time)","Thu Oct 29 2020 16:30:36 GMT-0400 (Eastern Daylight Time)","Mozilla/5.0 (Windows NT 10.0; Win64; x64) AppleWebKit/537.36 (KHTML, like Gecko) Chrome/86.0.4240.111 Safari/537.36",119,"[0.9, 0.5, 0.1]","[0.8, 0.4, 0.2]","[u'blue', u'red', u'black']","[u'left', u'middle', u'right']","[0.8, 0.4, 0.2]","[u'low', u'high', u'medium']","red",50,"middle","high","True","False",199,6500,NA
"A3QJNTSPNMMA31","Thu Oct 29 2020 16:22:26 GMT-0400 (Eastern Daylight Time)","Thu Oct 29 2020 16:30:36 GMT-0400 (Eastern Daylight Time)","Mozilla/5.0 (Windows NT 10.0; Win64; x64) AppleWebKit/537.36 (KHTML, like Gecko) Chrome/86.0.4240.111 Safari/537.36",120,"[0.9, 0.5, 0.1]","[0.8, 0.4, 0.2]","[u'blue', u'red', u'black']","[u'left', u'middle', u'right']","[0.8, 0.4, 0.2]","[u'low', u'high', u'medium']","red",50,"middle","high","True","False",236,6600,NA
"A3QJNTSPNMMA31","Thu Oct 29 2020 16:22:26 GMT-0400 (Eastern Daylight Time)","Thu Oct 29 2020 16:30:36 GMT-0400 (Eastern Daylight Time)","Mozilla/5.0 (Windows NT 10.0; Win64; x64) AppleWebKit/537.36 (KHTML, like Gecko) Chrome/86.0.4240.111 Safari/537.36",121,"[0.9, 0.5, 0.1]","[0.8, 0.4, 0.2]","[u'blue', u'red', u'black']","[u'left', u'middle', u'right']","[0.8, 0.4, 0.2]","[u'low', u'medium', u'high']","red",50,"middle","medium","True","False",595,6700,NA
"A3QJNTSPNMMA31","Thu Oct 29 2020 16:22:26 GMT-0400 (Eastern Daylight Time)","Thu Oct 29 2020 16:30:36 GMT-0400 (Eastern Daylight Time)","Mozilla/5.0 (Windows NT 10.0; Win64; x64) AppleWebKit/537.36 (KHTML, like Gecko) Chrome/86.0.4240.111 Safari/537.36",122,"[0.9, 0.5, 0.1]","[0.8, 0.4, 0.2]","[u'blue', u'red', u'black']","[u'left', u'middle', u'right']","[0.8, 0.4, 0.2]","[u'low', u'medium', u'high']","red",50,"middle","medium","False","False",216,6650,NA
"A3QJNTSPNMMA31","Thu Oct 29 2020 16:22:26 GMT-0400 (Eastern Daylight Time)","Thu Oct 29 2020 16:30:36 GMT-0400 (Eastern Daylight Time)","Mozilla/5.0 (Windows NT 10.0; Win64; x64) AppleWebKit/537.36 (KHTML, like Gecko) Chrome/86.0.4240.111 Safari/537.36",123,"[0.9, 0.5, 0.1]","[0.8, 0.4, 0.2]","[u'blue', u'red', u'black']","[u'left', u'middle', u'right']","[0.8, 0.4, 0.2]","[u'low', u'medium', u'high']","black",51,"right","high","True","False",201,6750,NA
"A3QJNTSPNMMA31","Thu Oct 29 2020 16:22:26 GMT-0400 (Eastern Daylight Time)","Thu Oct 29 2020 16:30:36 GMT-0400 (Eastern Daylight Time)","Mozilla/5.0 (Windows NT 10.0; Win64; x64) AppleWebKit/537.36 (KHTML, like Gecko) Chrome/86.0.4240.111 Safari/537.36",124,"[0.9, 0.5, 0.1]","[0.8, 0.4, 0.2]","[u'blue', u'red', u'black']","[u'left', u'middle', u'right']","[0.8, 0.4, 0.2]","[u'low', u'medium', u'high']","black",51,"right","high","True","False",184,6850,NA
"A3QJNTSPNMMA31","Thu Oct 29 2020 16:22:26 GMT-0400 (Eastern Daylight Time)","Thu Oct 29 2020 16:30:36 GMT-0400 (Eastern Daylight Time)","Mozilla/5.0 (Windows NT 10.0; Win64; x64) AppleWebKit/537.36 (KHTML, like Gecko) Chrome/86.0.4240.111 Safari/537.36",125,"[0.9, 0.5, 0.1]","[0.8, 0.4, 0.2]","[u'blue', u'red', u'black']","[u'left', u'middle', u'right']","[0.8, 0.4, 0.2]","[u'low', u'medium', u'high']","black",51,"right","high","True","False",209,6950,NA
"A3QJNTSPNMMA31","Thu Oct 29 2020 16:22:26 GMT-0400 (Eastern Daylight Time)","Thu Oct 29 2020 16:30:36 GMT-0400 (Eastern Daylight Time)","Mozilla/5.0 (Windows NT 10.0; Win64; x64) AppleWebKit/537.36 (KHTML, like Gecko) Chrome/86.0.4240.111 Safari/537.36",126,"[0.9, 0.5, 0.1]","[0.8, 0.4, 0.2]","[u'blue', u'red', u'black']","[u'left', u'middle', u'right']","[0.8, 0.4, 0.2]","[u'low', u'medium', u'high']","black",51,"right","high","True","False",193,7050,NA
"A3QJNTSPNMMA31","Thu Oct 29 2020 16:22:26 GMT-0400 (Eastern Daylight Time)","Thu Oct 29 2020 16:30:36 GMT-0400 (Eastern Daylight Time)","Mozilla/5.0 (Windows NT 10.0; Win64; x64) AppleWebKit/537.36 (KHTML, like Gecko) Chrome/86.0.4240.111 Safari/537.36",127,"[0.9, 0.5, 0.1]","[0.8, 0.4, 0.2]","[u'blue', u'red', u'black']","[u'left', u'middle', u'right']","[0.8, 0.4, 0.2]","[u'low', u'medium', u'high']","black",51,"right","high","False","False",275,7000,NA
"A3QJNTSPNMMA31","Thu Oct 29 2020 16:22:26 GMT-0400 (Eastern Daylight Time)","Thu Oct 29 2020 16:30:36 GMT-0400 (Eastern Daylight Time)","Mozilla/5.0 (Windows NT 10.0; Win64; x64) AppleWebKit/537.36 (KHTML, like Gecko) Chrome/86.0.4240.111 Safari/537.36",128,"[0.9, 0.5, 0.1]","[0.8, 0.4, 0.2]","[u'blue', u'red', u'black']","[u'left', u'middle', u'right']","[0.8, 0.4, 0.2]","[u'low', u'medium', u'high']","red",50,"middle","medium","True","False",299,7100,NA
"A3QJNTSPNMMA31","Thu Oct 29 2020 16:22:26 GMT-0400 (Eastern Daylight Time)","Thu Oct 29 2020 16:30:36 GMT-0400 (Eastern Daylight Time)","Mozilla/5.0 (Windows NT 10.0; Win64; x64) AppleWebKit/537.36 (KHTML, like Gecko) Chrome/86.0.4240.111 Safari/537.36",129,"[0.9, 0.5, 0.1]","[0.8, 0.4, 0.2]","[u'blue', u'red', u'black']","[u'left', u'middle', u'right']","[0.8, 0.4, 0.2]","[u'low', u'medium', u'high']","red",50,"middle","medium","True","False",234,7200,NA
"A3QJNTSPNMMA31","Thu Oct 29 2020 16:22:26 GMT-0400 (Eastern Daylight Time)","Thu Oct 29 2020 16:30:36 GMT-0400 (Eastern Daylight Time)","Mozilla/5.0 (Windows NT 10.0; Win64; x64) AppleWebKit/537.36 (KHTML, like Gecko) Chrome/86.0.4240.111 Safari/537.36",130,"[0.9, 0.5, 0.1]","[0.8, 0.4, 0.2]","[u'blue', u'red', u'black']","[u'left', u'middle', u'right']","[0.8, 0.4, 0.2]","[u'low', u'medium', u'high']","red",50,"middle","medium","False","False",196,7150,NA
"A3QJNTSPNMMA31","Thu Oct 29 2020 16:22:26 GMT-0400 (Eastern Daylight Time)","Thu Oct 29 2020 16:30:36 GMT-0400 (Eastern Daylight Time)","Mozilla/5.0 (Windows NT 10.0; Win64; x64) AppleWebKit/537.36 (KHTML, like Gecko) Chrome/86.0.4240.111 Safari/537.36",131,"[0.9, 0.5, 0.1]","[0.8, 0.4, 0.2]","[u'blue', u'red', u'black']","[u'left', u'middle', u'right']","[0.8, 0.4, 0.2]","[u'low', u'medium', u'high']","black",51,"right","high","False","False",427,7100,NA
"A3QJNTSPNMMA31","Thu Oct 29 2020 16:22:26 GMT-0400 (Eastern Daylight Time)","Thu Oct 29 2020 16:30:36 GMT-0400 (Eastern Daylight Time)","Mozilla/5.0 (Windows NT 10.0; Win64; x64) AppleWebKit/537.36 (KHTML, like Gecko) Chrome/86.0.4240.111 Safari/537.36",132,"[0.9, 0.5, 0.1]","[0.8, 0.4, 0.2]","[u'blue', u'red', u'black']","[u'left', u'middle', u'right']","[0.8, 0.4, 0.2]","[u'low', u'medium', u'high']","blue",49,"left","low","False","False",196,7050,NA
"A3QJNTSPNMMA31","Thu Oct 29 2020 16:22:26 GMT-0400 (Eastern Daylight Time)","Thu Oct 29 2020 16:30:36 GMT-0400 (Eastern Daylight Time)","Mozilla/5.0 (Windows NT 10.0; Win64; x64) AppleWebKit/537.36 (KHTML, like Gecko) Chrome/86.0.4240.111 Safari/537.36",133,"[0.9, 0.5, 0.1]","[0.8, 0.4, 0.2]","[u'blue', u'red', u'black']","[u'left', u'middle', u'right']","[0.8, 0.4, 0.2]","[u'low', u'medium', u'high']","red",50,"middle","medium","False","False",218,7000,NA
"A3QJNTSPNMMA31","Thu Oct 29 2020 16:22:26 GMT-0400 (Eastern Daylight Time)","Thu Oct 29 2020 16:30:36 GMT-0400 (Eastern Daylight Time)","Mozilla/5.0 (Windows NT 10.0; Win64; x64) AppleWebKit/537.36 (KHTML, like Gecko) Chrome/86.0.4240.111 Safari/537.36",134,"[0.9, 0.5, 0.1]","[0.8, 0.4, 0.2]","[u'blue', u'red', u'black']","[u'left', u'middle', u'right']","[0.8, 0.4, 0.2]","[u'low', u'medium', u'high']","black",51,"right","high","False","False",165,6950,NA
"A3QJNTSPNMMA31","Thu Oct 29 2020 16:22:26 GMT-0400 (Eastern Daylight Time)","Thu Oct 29 2020 16:30:36 GMT-0400 (Eastern Daylight Time)","Mozilla/5.0 (Windows NT 10.0; Win64; x64) AppleWebKit/537.36 (KHTML, like Gecko) Chrome/86.0.4240.111 Safari/537.36",135,"[0.9, 0.5, 0.1]","[0.8, 0.4, 0.2]","[u'blue', u'red', u'black']","[u'left', u'middle', u'right']","[0.8, 0.4, 0.2]","[u'low', u'medium', u'high']","blue",49,"left","low","False","False",50,6900,NA
"A3QJNTSPNMMA31","Thu Oct 29 2020 16:22:26 GMT-0400 (Eastern Daylight Time)","Thu Oct 29 2020 16:30:36 GMT-0400 (Eastern Daylight Time)","Mozilla/5.0 (Windows NT 10.0; Win64; x64) AppleWebKit/537.36 (KHTML, like Gecko) Chrome/86.0.4240.111 Safari/537.36",136,"[0.9, 0.5, 0.1]","[0.8, 0.4, 0.2]","[u'blue', u'red', u'black']","[u'left', u'middle', u'right']","[0.8, 0.4, 0.2]","[u'low', u'medium', u'high']","red",50,"middle","medium","False","False",22,6850,NA
"A3QJNTSPNMMA31","Thu Oct 29 2020 16:22:26 GMT-0400 (Eastern Daylight Time)","Thu Oct 29 2020 16:30:36 GMT-0400 (Eastern Daylight Time)","Mozilla/5.0 (Windows NT 10.0; Win64; x64) AppleWebKit/537.36 (KHTML, like Gecko) Chrome/86.0.4240.111 Safari/537.36",137,"[0.9, 0.5, 0.1]","[0.8, 0.4, 0.2]","[u'blue', u'red', u'black']","[u'left', u'middle', u'right']","[0.8, 0.4, 0.2]","[u'low', u'medium', u'high']","blue",49,"left","low","False","False",354,6800,NA
"A3QJNTSPNMMA31","Thu Oct 29 2020 16:22:26 GMT-0400 (Eastern Daylight Time)","Thu Oct 29 2020 16:30:36 GMT-0400 (Eastern Daylight Time)","Mozilla/5.0 (Windows NT 10.0; Win64; x64) AppleWebKit/537.36 (KHTML, like Gecko) Chrome/86.0.4240.111 Safari/537.36",138,"[0.9, 0.5, 0.1]","[0.8, 0.4, 0.2]","[u'blue', u'red', u'black']","[u'left', u'middle', u'right']","[0.8, 0.4, 0.2]","[u'low', u'medium', u'high']","black",51,"right","high","True","False",71,6900,NA
"A3QJNTSPNMMA31","Thu Oct 29 2020 16:22:26 GMT-0400 (Eastern Daylight Time)","Thu Oct 29 2020 16:30:36 GMT-0400 (Eastern Daylight Time)","Mozilla/5.0 (Windows NT 10.0; Win64; x64) AppleWebKit/537.36 (KHTML, like Gecko) Chrome/86.0.4240.111 Safari/537.36",139,"[0.9, 0.5, 0.1]","[0.8, 0.4, 0.2]","[u'blue', u'red', u'black']","[u'left', u'middle', u'right']","[0.8, 0.4, 0.2]","[u'low', u'medium', u'high']","black",51,"right","high","False","False",228,6850,NA
"A3QJNTSPNMMA31","Thu Oct 29 2020 16:22:26 GMT-0400 (Eastern Daylight Time)","Thu Oct 29 2020 16:30:36 GMT-0400 (Eastern Daylight Time)","Mozilla/5.0 (Windows NT 10.0; Win64; x64) AppleWebKit/537.36 (KHTML, like Gecko) Chrome/86.0.4240.111 Safari/537.36",140,"[0.9, 0.5, 0.1]","[0.8, 0.4, 0.2]","[u'blue', u'red', u'black']","[u'left', u'middle', u'right']","[0.8, 0.4, 0.2]","[u'low', u'medium', u'high']","red",50,"middle","medium","True","False",109,6950,NA
"A3QJNTSPNMMA31","Thu Oct 29 2020 16:22:26 GMT-0400 (Eastern Daylight Time)","Thu Oct 29 2020 16:30:36 GMT-0400 (Eastern Daylight Time)","Mozilla/5.0 (Windows NT 10.0; Win64; x64) AppleWebKit/537.36 (KHTML, like Gecko) Chrome/86.0.4240.111 Safari/537.36",141,"[0.9, 0.5, 0.1]","[0.8, 0.4, 0.2]","[u'blue', u'red', u'black']","[u'left', u'middle', u'right']","[0.8, 0.4, 0.2]","[u'low', u'medium', u'high']","red",50,"middle","medium","False","False",184,6900,NA
"A3QJNTSPNMMA31","Thu Oct 29 2020 16:22:26 GMT-0400 (Eastern Daylight Time)","Thu Oct 29 2020 16:30:36 GMT-0400 (Eastern Daylight Time)","Mozilla/5.0 (Windows NT 10.0; Win64; x64) AppleWebKit/537.36 (KHTML, like Gecko) Chrome/86.0.4240.111 Safari/537.36",142,"[0.9, 0.5, 0.1]","[0.8, 0.4, 0.2]","[u'blue', u'red', u'black']","[u'left', u'middle', u'right']","[0.8, 0.4, 0.2]","[u'low', u'medium', u'high']","black",51,"right","high","False","False",346,6850,NA
"A3QJNTSPNMMA31","Thu Oct 29 2020 16:22:26 GMT-0400 (Eastern Daylight Time)","Thu Oct 29 2020 16:30:36 GMT-0400 (Eastern Daylight Time)","Mozilla/5.0 (Windows NT 10.0; Win64; x64) AppleWebKit/537.36 (KHTML, like Gecko) Chrome/86.0.4240.111 Safari/537.36",143,"[0.9, 0.5, 0.1]","[0.8, 0.4, 0.2]","[u'blue', u'red', u'black']","[u'left', u'middle', u'right']","[0.8, 0.4, 0.2]","[u'low', u'medium', u'high']","red",50,"middle","medium","True","False",221,6950,NA
"A3QJNTSPNMMA31","Thu Oct 29 2020 16:22:26 GMT-0400 (Eastern Daylight Time)","Thu Oct 29 2020 16:30:36 GMT-0400 (Eastern Daylight Time)","Mozilla/5.0 (Windows NT 10.0; Win64; x64) AppleWebKit/537.36 (KHTML, like Gecko) Chrome/86.0.4240.111 Safari/537.36",144,"[0.9, 0.5, 0.1]","[0.8, 0.4, 0.2]","[u'blue', u'red', u'black']","[u'left', u'middle', u'right']","[0.8, 0.4, 0.2]","[u'low', u'medium', u'high']","red",50,"middle","medium","False","False",210,6900,NA
"A3QJNTSPNMMA31","Thu Oct 29 2020 16:22:26 GMT-0400 (Eastern Daylight Time)","Thu Oct 29 2020 16:30:36 GMT-0400 (Eastern Daylight Time)","Mozilla/5.0 (Windows NT 10.0; Win64; x64) AppleWebKit/537.36 (KHTML, like Gecko) Chrome/86.0.4240.111 Safari/537.36",145,"[0.9, 0.5, 0.1]","[0.8, 0.4, 0.2]","[u'blue', u'red', u'black']","[u'left', u'middle', u'right']","[0.8, 0.4, 0.2]","[u'low', u'medium', u'high']","blue",49,"left","low","False","False",197,6850,NA
"A3QJNTSPNMMA31","Thu Oct 29 2020 16:22:26 GMT-0400 (Eastern Daylight Time)","Thu Oct 29 2020 16:30:36 GMT-0400 (Eastern Daylight Time)","Mozilla/5.0 (Windows NT 10.0; Win64; x64) AppleWebKit/537.36 (KHTML, like Gecko) Chrome/86.0.4240.111 Safari/537.36",146,"[0.9, 0.5, 0.1]","[0.8, 0.4, 0.2]","[u'blue', u'red', u'black']","[u'left', u'middle', u'right']","[0.8, 0.4, 0.2]","[u'low', u'medium', u'high']","black",51,"right","high","True","False",136,6950,NA
"A3QJNTSPNMMA31","Thu Oct 29 2020 16:22:26 GMT-0400 (Eastern Daylight Time)","Thu Oct 29 2020 16:30:36 GMT-0400 (Eastern Daylight Time)","Mozilla/5.0 (Windows NT 10.0; Win64; x64) AppleWebKit/537.36 (KHTML, like Gecko) Chrome/86.0.4240.111 Safari/537.36",147,"[0.9, 0.5, 0.1]","[0.8, 0.4, 0.2]","[u'blue', u'red', u'black']","[u'left', u'middle', u'right']","[0.8, 0.4, 0.2]","[u'low', u'medium', u'high']","black",51,"right","high","True","False",208,7050,NA
"A3QJNTSPNMMA31","Thu Oct 29 2020 16:22:26 GMT-0400 (Eastern Daylight Time)","Thu Oct 29 2020 16:30:36 GMT-0400 (Eastern Daylight Time)","Mozilla/5.0 (Windows NT 10.0; Win64; x64) AppleWebKit/537.36 (KHTML, like Gecko) Chrome/86.0.4240.111 Safari/537.36",148,"[0.9, 0.5, 0.1]","[0.8, 0.4, 0.2]","[u'blue', u'red', u'black']","[u'left', u'middle', u'right']","[0.8, 0.4, 0.2]","[u'low', u'medium', u'high']","black",51,"right","high","False","False",429,7000,NA
"A3QJNTSPNMMA31","Thu Oct 29 2020 16:22:26 GMT-0400 (Eastern Daylight Time)","Thu Oct 29 2020 16:30:36 GMT-0400 (Eastern Daylight Time)","Mozilla/5.0 (Windows NT 10.0; Win64; x64) AppleWebKit/537.36 (KHTML, like Gecko) Chrome/86.0.4240.111 Safari/537.36",149,"[0.9, 0.5, 0.1]","[0.8, 0.4, 0.2]","[u'blue', u'red', u'black']","[u'left', u'middle', u'right']","[0.8, 0.4, 0.2]","[u'low', u'medium', u'high']","red",50,"middle","medium","False","False",203,6950,NA
"A3QJNTSPNMMA31","Thu Oct 29 2020 16:22:26 GMT-0400 (Eastern Daylight Time)","Thu Oct 29 2020 16:30:36 GMT-0400 (Eastern Daylight Time)","Mozilla/5.0 (Windows NT 10.0; Win64; x64) AppleWebKit/537.36 (KHTML, like Gecko) Chrome/86.0.4240.111 Safari/537.36",150,"[0.9, 0.5, 0.1]","[0.8, 0.4, 0.2]","[u'blue', u'red', u'black']","[u'left', u'middle', u'right']","[0.8, 0.4, 0.2]","[u'low', u'medium', u'high']","black",51,"right","high","True","False",428,7050,NA
"A3QJNTSPNMMA31","Thu Oct 29 2020 16:22:26 GMT-0400 (Eastern Daylight Time)","Thu Oct 29 2020 16:30:36 GMT-0400 (Eastern Daylight Time)","Mozilla/5.0 (Windows NT 10.0; Win64; x64) AppleWebKit/537.36 (KHTML, like Gecko) Chrome/86.0.4240.111 Safari/537.36",151,"[0.9, 0.5, 0.1]","[0.8, 0.4, 0.2]","[u'blue', u'red', u'black']","[u'left', u'middle', u'right']","[0.8, 0.4, 0.2]","[u'low', u'medium', u'high']","black",51,"right","high","True","False",242,7150,NA
"A3QJNTSPNMMA31","Thu Oct 29 2020 16:22:26 GMT-0400 (Eastern Daylight Time)","Thu Oct 29 2020 16:30:36 GMT-0400 (Eastern Daylight Time)","Mozilla/5.0 (Windows NT 10.0; Win64; x64) AppleWebKit/537.36 (KHTML, like Gecko) Chrome/86.0.4240.111 Safari/537.36",152,"[0.9, 0.5, 0.1]","[0.8, 0.4, 0.2]","[u'blue', u'red', u'black']","[u'left', u'middle', u'right']","[0.8, 0.4, 0.2]","[u'low', u'medium', u'high']","black",51,"right","high","True","False",244,7250,NA
"A3QJNTSPNMMA31","Thu Oct 29 2020 16:22:26 GMT-0400 (Eastern Daylight Time)","Thu Oct 29 2020 16:30:36 GMT-0400 (Eastern Daylight Time)","Mozilla/5.0 (Windows NT 10.0; Win64; x64) AppleWebKit/537.36 (KHTML, like Gecko) Chrome/86.0.4240.111 Safari/537.36",153,"[0.9, 0.5, 0.1]","[0.8, 0.4, 0.2]","[u'blue', u'red', u'black']","[u'left', u'middle', u'right']","[0.8, 0.4, 0.2]","[u'low', u'medium', u'high']","black",51,"right","high","True","False",251,7350,NA
"A3QJNTSPNMMA31","Thu Oct 29 2020 16:22:26 GMT-0400 (Eastern Daylight Time)","Thu Oct 29 2020 16:30:36 GMT-0400 (Eastern Daylight Time)","Mozilla/5.0 (Windows NT 10.0; Win64; x64) AppleWebKit/537.36 (KHTML, like Gecko) Chrome/86.0.4240.111 Safari/537.36",154,"[0.9, 0.5, 0.1]","[0.8, 0.4, 0.2]","[u'blue', u'red', u'black']","[u'left', u'middle', u'right']","[0.8, 0.4, 0.2]","[u'low', u'medium', u'high']","black",51,"right","high","True","False",261,7450,NA
"A3QJNTSPNMMA31","Thu Oct 29 2020 16:22:26 GMT-0400 (Eastern Daylight Time)","Thu Oct 29 2020 16:30:36 GMT-0400 (Eastern Daylight Time)","Mozilla/5.0 (Windows NT 10.0; Win64; x64) AppleWebKit/537.36 (KHTML, like Gecko) Chrome/86.0.4240.111 Safari/537.36",155,"[0.9, 0.5, 0.1]","[0.8, 0.4, 0.2]","[u'blue', u'red', u'black']","[u'left', u'middle', u'right']","[0.8, 0.4, 0.2]","[u'low', u'medium', u'high']","black",51,"right","high","True","True",203,7550,NA
"A3QJNTSPNMMA31","Thu Oct 29 2020 16:22:26 GMT-0400 (Eastern Daylight Time)","Thu Oct 29 2020 16:30:36 GMT-0400 (Eastern Daylight Time)","Mozilla/5.0 (Windows NT 10.0; Win64; x64) AppleWebKit/537.36 (KHTML, like Gecko) Chrome/86.0.4240.111 Safari/537.36",156,"[0.9, 0.5, 0.1]","[0.8, 0.4, 0.2]","[u'blue', u'red', u'black']","[u'left', u'middle', u'right']","[0.8, 0.4, 0.2]","[u'high', u'medium', u'low']","black",51,"right","low","False","False",257,7500,NA
"A3QJNTSPNMMA31","Thu Oct 29 2020 16:22:26 GMT-0400 (Eastern Daylight Time)","Thu Oct 29 2020 16:30:36 GMT-0400 (Eastern Daylight Time)","Mozilla/5.0 (Windows NT 10.0; Win64; x64) AppleWebKit/537.36 (KHTML, like Gecko) Chrome/86.0.4240.111 Safari/537.36",157,"[0.9, 0.5, 0.1]","[0.8, 0.4, 0.2]","[u'blue', u'red', u'black']","[u'left', u'middle', u'right']","[0.8, 0.4, 0.2]","[u'high', u'medium', u'low']","red",50,"middle","medium","True","False",193,7600,NA
"A3QJNTSPNMMA31","Thu Oct 29 2020 16:22:26 GMT-0400 (Eastern Daylight Time)","Thu Oct 29 2020 16:30:36 GMT-0400 (Eastern Daylight Time)","Mozilla/5.0 (Windows NT 10.0; Win64; x64) AppleWebKit/537.36 (KHTML, like Gecko) Chrome/86.0.4240.111 Safari/537.36",158,"[0.9, 0.5, 0.1]","[0.8, 0.4, 0.2]","[u'blue', u'red', u'black']","[u'left', u'middle', u'right']","[0.8, 0.4, 0.2]","[u'high', u'medium', u'low']","red",50,"middle","medium","False","False",161,7550,NA
"A3QJNTSPNMMA31","Thu Oct 29 2020 16:22:26 GMT-0400 (Eastern Daylight Time)","Thu Oct 29 2020 16:30:36 GMT-0400 (Eastern Daylight Time)","Mozilla/5.0 (Windows NT 10.0; Win64; x64) AppleWebKit/537.36 (KHTML, like Gecko) Chrome/86.0.4240.111 Safari/537.36",159,"[0.9, 0.5, 0.1]","[0.8, 0.4, 0.2]","[u'blue', u'red', u'black']","[u'left', u'middle', u'right']","[0.8, 0.4, 0.2]","[u'high', u'medium', u'low']","black",51,"right","low","False","False",48,7500,NA
"A3QJNTSPNMMA31","Thu Oct 29 2020 16:22:26 GMT-0400 (Eastern Daylight Time)","Thu Oct 29 2020 16:30:36 GMT-0400 (Eastern Daylight Time)","Mozilla/5.0 (Windows NT 10.0; Win64; x64) AppleWebKit/537.36 (KHTML, like Gecko) Chrome/86.0.4240.111 Safari/537.36",160,"[0.9, 0.5, 0.1]","[0.8, 0.4, 0.2]","[u'blue', u'red', u'black']","[u'left', u'middle', u'right']","[0.8, 0.4, 0.2]","[u'high', u'medium', u'low']","blue",49,"left","high","True","False",169,7600,NA
