"src_subject_id","start_time","end_time","browser","index","first_half_probabilities","second_half_probabilities","deck_color","deck_position","deck_probabilities","deck_contingencies","response_color","key_press","response_position","response_probability","reward_type","trial_type","rt","reward_tally","exclusion_reason"
"A3CSE6A6KPZAXR","Fri Oct 30 2020 14:12:39 GMT-0400 (Eastern Daylight Time)","Fri Oct 30 2020 14:26:58 GMT-0400 (Eastern Daylight Time)","Mozilla/5.0 (Windows NT 10.0; WOW64) AppleWebKit/537.36 (KHTML, like Gecko) Chrome/86.0.4240.111 Safari/537.36",1,"[0.9, 0.5, 0.1]","[0.8, 0.4, 0.2]","[u'blue', u'black', u'red']","[u'left', u'middle', u'right']","[0.9, 0.5, 0.1]","[u'high', u'low', u'medium']","red",51,"right","medium","True","False",757,100,NA
"A3CSE6A6KPZAXR","Fri Oct 30 2020 14:12:39 GMT-0400 (Eastern Daylight Time)","Fri Oct 30 2020 14:26:58 GMT-0400 (Eastern Daylight Time)","Mozilla/5.0 (Windows NT 10.0; WOW64) AppleWebKit/537.36 (KHTML, like Gecko) Chrome/86.0.4240.111 Safari/537.36",2,"[0.9, 0.5, 0.1]","[0.8, 0.4, 0.2]","[u'blue', u'black', u'red']","[u'left', u'middle', u'right']","[0.9, 0.5, 0.1]","[u'high', u'low', u'medium']","black",50,"middle","low","True","False",1471,200,NA
"A3CSE6A6KPZAXR","Fri Oct 30 2020 14:12:39 GMT-0400 (Eastern Daylight Time)","Fri Oct 30 2020 14:26:58 GMT-0400 (Eastern Daylight Time)","Mozilla/5.0 (Windows NT 10.0; WOW64) AppleWebKit/537.36 (KHTML, like Gecko) Chrome/86.0.4240.111 Safari/537.36",3,"[0.9, 0.5, 0.1]","[0.8, 0.4, 0.2]","[u'blue', u'black', u'red']","[u'left', u'middle', u'right']","[0.9, 0.5, 0.1]","[u'high', u'low', u'medium']","blue",49,"left","high","True","False",587,300,NA
"A3CSE6A6KPZAXR","Fri Oct 30 2020 14:12:39 GMT-0400 (Eastern Daylight Time)","Fri Oct 30 2020 14:26:58 GMT-0400 (Eastern Daylight Time)","Mozilla/5.0 (Windows NT 10.0; WOW64) AppleWebKit/537.36 (KHTML, like Gecko) Chrome/86.0.4240.111 Safari/537.36",4,"[0.9, 0.5, 0.1]","[0.8, 0.4, 0.2]","[u'blue', u'black', u'red']","[u'left', u'middle', u'right']","[0.9, 0.5, 0.1]","[u'high', u'low', u'medium']","black",50,"middle","low","False","False",461,250,NA
"A3CSE6A6KPZAXR","Fri Oct 30 2020 14:12:39 GMT-0400 (Eastern Daylight Time)","Fri Oct 30 2020 14:26:58 GMT-0400 (Eastern Daylight Time)","Mozilla/5.0 (Windows NT 10.0; WOW64) AppleWebKit/537.36 (KHTML, like Gecko) Chrome/86.0.4240.111 Safari/537.36",5,"[0.9, 0.5, 0.1]","[0.8, 0.4, 0.2]","[u'blue', u'black', u'red']","[u'left', u'middle', u'right']","[0.9, 0.5, 0.1]","[u'high', u'low', u'medium']","red",51,"right","medium","False","False",696,200,NA
"A3CSE6A6KPZAXR","Fri Oct 30 2020 14:12:39 GMT-0400 (Eastern Daylight Time)","Fri Oct 30 2020 14:26:58 GMT-0400 (Eastern Daylight Time)","Mozilla/5.0 (Windows NT 10.0; WOW64) AppleWebKit/537.36 (KHTML, like Gecko) Chrome/86.0.4240.111 Safari/537.36",6,"[0.9, 0.5, 0.1]","[0.8, 0.4, 0.2]","[u'blue', u'black', u'red']","[u'left', u'middle', u'right']","[0.9, 0.5, 0.1]","[u'high', u'low', u'medium']","blue",49,"left","high","True","False",548,300,NA
"A3CSE6A6KPZAXR","Fri Oct 30 2020 14:12:39 GMT-0400 (Eastern Daylight Time)","Fri Oct 30 2020 14:26:58 GMT-0400 (Eastern Daylight Time)","Mozilla/5.0 (Windows NT 10.0; WOW64) AppleWebKit/537.36 (KHTML, like Gecko) Chrome/86.0.4240.111 Safari/537.36",7,"[0.9, 0.5, 0.1]","[0.8, 0.4, 0.2]","[u'blue', u'black', u'red']","[u'left', u'middle', u'right']","[0.9, 0.5, 0.1]","[u'high', u'low', u'medium']","black",50,"middle","low","False","False",327,250,NA
"A3CSE6A6KPZAXR","Fri Oct 30 2020 14:12:39 GMT-0400 (Eastern Daylight Time)","Fri Oct 30 2020 14:26:58 GMT-0400 (Eastern Daylight Time)","Mozilla/5.0 (Windows NT 10.0; WOW64) AppleWebKit/537.36 (KHTML, like Gecko) Chrome/86.0.4240.111 Safari/537.36",8,"[0.9, 0.5, 0.1]","[0.8, 0.4, 0.2]","[u'blue', u'black', u'red']","[u'left', u'middle', u'right']","[0.9, 0.5, 0.1]","[u'high', u'low', u'medium']","blue",49,"left","high","True","False",204,350,NA
"A3CSE6A6KPZAXR","Fri Oct 30 2020 14:12:39 GMT-0400 (Eastern Daylight Time)","Fri Oct 30 2020 14:26:58 GMT-0400 (Eastern Daylight Time)","Mozilla/5.0 (Windows NT 10.0; WOW64) AppleWebKit/537.36 (KHTML, like Gecko) Chrome/86.0.4240.111 Safari/537.36",9,"[0.9, 0.5, 0.1]","[0.8, 0.4, 0.2]","[u'blue', u'black', u'red']","[u'left', u'middle', u'right']","[0.9, 0.5, 0.1]","[u'high', u'low', u'medium']","blue",49,"left","high","True","False",303,450,NA
"A3CSE6A6KPZAXR","Fri Oct 30 2020 14:12:39 GMT-0400 (Eastern Daylight Time)","Fri Oct 30 2020 14:26:58 GMT-0400 (Eastern Daylight Time)","Mozilla/5.0 (Windows NT 10.0; WOW64) AppleWebKit/537.36 (KHTML, like Gecko) Chrome/86.0.4240.111 Safari/537.36",10,"[0.9, 0.5, 0.1]","[0.8, 0.4, 0.2]","[u'blue', u'black', u'red']","[u'left', u'middle', u'right']","[0.9, 0.5, 0.1]","[u'high', u'low', u'medium']","blue",49,"left","high","True","False",632,550,NA
"A3CSE6A6KPZAXR","Fri Oct 30 2020 14:12:39 GMT-0400 (Eastern Daylight Time)","Fri Oct 30 2020 14:26:58 GMT-0400 (Eastern Daylight Time)","Mozilla/5.0 (Windows NT 10.0; WOW64) AppleWebKit/537.36 (KHTML, like Gecko) Chrome/86.0.4240.111 Safari/537.36",11,"[0.9, 0.5, 0.1]","[0.8, 0.4, 0.2]","[u'blue', u'black', u'red']","[u'left', u'middle', u'right']","[0.9, 0.5, 0.1]","[u'high', u'low', u'medium']","blue",49,"left","high","True","False",564,650,NA
"A3CSE6A6KPZAXR","Fri Oct 30 2020 14:12:39 GMT-0400 (Eastern Daylight Time)","Fri Oct 30 2020 14:26:58 GMT-0400 (Eastern Daylight Time)","Mozilla/5.0 (Windows NT 10.0; WOW64) AppleWebKit/537.36 (KHTML, like Gecko) Chrome/86.0.4240.111 Safari/537.36",12,"[0.9, 0.5, 0.1]","[0.8, 0.4, 0.2]","[u'blue', u'black', u'red']","[u'left', u'middle', u'right']","[0.9, 0.5, 0.1]","[u'high', u'low', u'medium']","blue",49,"left","high","True","False",687,750,NA
"A3CSE6A6KPZAXR","Fri Oct 30 2020 14:12:39 GMT-0400 (Eastern Daylight Time)","Fri Oct 30 2020 14:26:58 GMT-0400 (Eastern Daylight Time)","Mozilla/5.0 (Windows NT 10.0; WOW64) AppleWebKit/537.36 (KHTML, like Gecko) Chrome/86.0.4240.111 Safari/537.36",13,"[0.9, 0.5, 0.1]","[0.8, 0.4, 0.2]","[u'blue', u'black', u'red']","[u'left', u'middle', u'right']","[0.9, 0.5, 0.1]","[u'high', u'low', u'medium']","blue",49,"left","high","True","False",727,850,NA
"A3CSE6A6KPZAXR","Fri Oct 30 2020 14:12:39 GMT-0400 (Eastern Daylight Time)","Fri Oct 30 2020 14:26:58 GMT-0400 (Eastern Daylight Time)","Mozilla/5.0 (Windows NT 10.0; WOW64) AppleWebKit/537.36 (KHTML, like Gecko) Chrome/86.0.4240.111 Safari/537.36",14,"[0.9, 0.5, 0.1]","[0.8, 0.4, 0.2]","[u'blue', u'black', u'red']","[u'left', u'middle', u'right']","[0.9, 0.5, 0.1]","[u'high', u'low', u'medium']","blue",49,"left","high","True","False",616,950,NA
"A3CSE6A6KPZAXR","Fri Oct 30 2020 14:12:39 GMT-0400 (Eastern Daylight Time)","Fri Oct 30 2020 14:26:58 GMT-0400 (Eastern Daylight Time)","Mozilla/5.0 (Windows NT 10.0; WOW64) AppleWebKit/537.36 (KHTML, like Gecko) Chrome/86.0.4240.111 Safari/537.36",15,"[0.9, 0.5, 0.1]","[0.8, 0.4, 0.2]","[u'blue', u'black', u'red']","[u'left', u'middle', u'right']","[0.9, 0.5, 0.1]","[u'high', u'low', u'medium']","blue",49,"left","high","True","True",67412,1050,NA
"A3CSE6A6KPZAXR","Fri Oct 30 2020 14:12:39 GMT-0400 (Eastern Daylight Time)","Fri Oct 30 2020 14:26:58 GMT-0400 (Eastern Daylight Time)","Mozilla/5.0 (Windows NT 10.0; WOW64) AppleWebKit/537.36 (KHTML, like Gecko) Chrome/86.0.4240.111 Safari/537.36",16,"[0.9, 0.5, 0.1]","[0.8, 0.4, 0.2]","[u'blue', u'black', u'red']","[u'left', u'middle', u'right']","[0.9, 0.5, 0.1]","[u'low', u'medium', u'high']","blue",49,"left","low","False","False",703,1000,NA
"A3CSE6A6KPZAXR","Fri Oct 30 2020 14:12:39 GMT-0400 (Eastern Daylight Time)","Fri Oct 30 2020 14:26:58 GMT-0400 (Eastern Daylight Time)","Mozilla/5.0 (Windows NT 10.0; WOW64) AppleWebKit/537.36 (KHTML, like Gecko) Chrome/86.0.4240.111 Safari/537.36",17,"[0.9, 0.5, 0.1]","[0.8, 0.4, 0.2]","[u'blue', u'black', u'red']","[u'left', u'middle', u'right']","[0.9, 0.5, 0.1]","[u'low', u'medium', u'high']","black",50,"middle","medium","True","False",553,1100,NA
"A3CSE6A6KPZAXR","Fri Oct 30 2020 14:12:39 GMT-0400 (Eastern Daylight Time)","Fri Oct 30 2020 14:26:58 GMT-0400 (Eastern Daylight Time)","Mozilla/5.0 (Windows NT 10.0; WOW64) AppleWebKit/537.36 (KHTML, like Gecko) Chrome/86.0.4240.111 Safari/537.36",18,"[0.9, 0.5, 0.1]","[0.8, 0.4, 0.2]","[u'blue', u'black', u'red']","[u'left', u'middle', u'right']","[0.9, 0.5, 0.1]","[u'low', u'medium', u'high']","black",50,"middle","medium","False","False",521,1050,NA
"A3CSE6A6KPZAXR","Fri Oct 30 2020 14:12:39 GMT-0400 (Eastern Daylight Time)","Fri Oct 30 2020 14:26:58 GMT-0400 (Eastern Daylight Time)","Mozilla/5.0 (Windows NT 10.0; WOW64) AppleWebKit/537.36 (KHTML, like Gecko) Chrome/86.0.4240.111 Safari/537.36",19,"[0.9, 0.5, 0.1]","[0.8, 0.4, 0.2]","[u'blue', u'black', u'red']","[u'left', u'middle', u'right']","[0.9, 0.5, 0.1]","[u'low', u'medium', u'high']","black",50,"middle","medium","True","False",310,1150,NA
"A3CSE6A6KPZAXR","Fri Oct 30 2020 14:12:39 GMT-0400 (Eastern Daylight Time)","Fri Oct 30 2020 14:26:58 GMT-0400 (Eastern Daylight Time)","Mozilla/5.0 (Windows NT 10.0; WOW64) AppleWebKit/537.36 (KHTML, like Gecko) Chrome/86.0.4240.111 Safari/537.36",20,"[0.9, 0.5, 0.1]","[0.8, 0.4, 0.2]","[u'blue', u'black', u'red']","[u'left', u'middle', u'right']","[0.9, 0.5, 0.1]","[u'low', u'medium', u'high']","black",50,"middle","medium","False","False",516,1100,NA
"A3CSE6A6KPZAXR","Fri Oct 30 2020 14:12:39 GMT-0400 (Eastern Daylight Time)","Fri Oct 30 2020 14:26:58 GMT-0400 (Eastern Daylight Time)","Mozilla/5.0 (Windows NT 10.0; WOW64) AppleWebKit/537.36 (KHTML, like Gecko) Chrome/86.0.4240.111 Safari/537.36",21,"[0.9, 0.5, 0.1]","[0.8, 0.4, 0.2]","[u'blue', u'black', u'red']","[u'left', u'middle', u'right']","[0.9, 0.5, 0.1]","[u'low', u'medium', u'high']","red",51,"right","high","True","False",530,1200,NA
"A3CSE6A6KPZAXR","Fri Oct 30 2020 14:12:39 GMT-0400 (Eastern Daylight Time)","Fri Oct 30 2020 14:26:58 GMT-0400 (Eastern Daylight Time)","Mozilla/5.0 (Windows NT 10.0; WOW64) AppleWebKit/537.36 (KHTML, like Gecko) Chrome/86.0.4240.111 Safari/537.36",22,"[0.9, 0.5, 0.1]","[0.8, 0.4, 0.2]","[u'blue', u'black', u'red']","[u'left', u'middle', u'right']","[0.9, 0.5, 0.1]","[u'low', u'medium', u'high']","black",50,"middle","medium","False","False",1175,1150,NA
"A3CSE6A6KPZAXR","Fri Oct 30 2020 14:12:39 GMT-0400 (Eastern Daylight Time)","Fri Oct 30 2020 14:26:58 GMT-0400 (Eastern Daylight Time)","Mozilla/5.0 (Windows NT 10.0; WOW64) AppleWebKit/537.36 (KHTML, like Gecko) Chrome/86.0.4240.111 Safari/537.36",23,"[0.9, 0.5, 0.1]","[0.8, 0.4, 0.2]","[u'blue', u'black', u'red']","[u'left', u'middle', u'right']","[0.9, 0.5, 0.1]","[u'low', u'medium', u'high']","red",51,"right","high","True","False",1757,1250,NA
"A3CSE6A6KPZAXR","Fri Oct 30 2020 14:12:39 GMT-0400 (Eastern Daylight Time)","Fri Oct 30 2020 14:26:58 GMT-0400 (Eastern Daylight Time)","Mozilla/5.0 (Windows NT 10.0; WOW64) AppleWebKit/537.36 (KHTML, like Gecko) Chrome/86.0.4240.111 Safari/537.36",24,"[0.9, 0.5, 0.1]","[0.8, 0.4, 0.2]","[u'blue', u'black', u'red']","[u'left', u'middle', u'right']","[0.9, 0.5, 0.1]","[u'low', u'medium', u'high']","black",50,"middle","medium","True","False",697,1350,NA
"A3CSE6A6KPZAXR","Fri Oct 30 2020 14:12:39 GMT-0400 (Eastern Daylight Time)","Fri Oct 30 2020 14:26:58 GMT-0400 (Eastern Daylight Time)","Mozilla/5.0 (Windows NT 10.0; WOW64) AppleWebKit/537.36 (KHTML, like Gecko) Chrome/86.0.4240.111 Safari/537.36",25,"[0.9, 0.5, 0.1]","[0.8, 0.4, 0.2]","[u'blue', u'black', u'red']","[u'left', u'middle', u'right']","[0.9, 0.5, 0.1]","[u'low', u'medium', u'high']","blue",49,"left","low","True","False",2935,1450,NA
"A3CSE6A6KPZAXR","Fri Oct 30 2020 14:12:39 GMT-0400 (Eastern Daylight Time)","Fri Oct 30 2020 14:26:58 GMT-0400 (Eastern Daylight Time)","Mozilla/5.0 (Windows NT 10.0; WOW64) AppleWebKit/537.36 (KHTML, like Gecko) Chrome/86.0.4240.111 Safari/537.36",26,"[0.9, 0.5, 0.1]","[0.8, 0.4, 0.2]","[u'blue', u'black', u'red']","[u'left', u'middle', u'right']","[0.9, 0.5, 0.1]","[u'low', u'medium', u'high']","black",50,"middle","medium","False","False",707,1400,NA
"A3CSE6A6KPZAXR","Fri Oct 30 2020 14:12:39 GMT-0400 (Eastern Daylight Time)","Fri Oct 30 2020 14:26:58 GMT-0400 (Eastern Daylight Time)","Mozilla/5.0 (Windows NT 10.0; WOW64) AppleWebKit/537.36 (KHTML, like Gecko) Chrome/86.0.4240.111 Safari/537.36",27,"[0.9, 0.5, 0.1]","[0.8, 0.4, 0.2]","[u'blue', u'black', u'red']","[u'left', u'middle', u'right']","[0.9, 0.5, 0.1]","[u'low', u'medium', u'high']","red",51,"right","high","True","False",960,1500,NA
"A3CSE6A6KPZAXR","Fri Oct 30 2020 14:12:39 GMT-0400 (Eastern Daylight Time)","Fri Oct 30 2020 14:26:58 GMT-0400 (Eastern Daylight Time)","Mozilla/5.0 (Windows NT 10.0; WOW64) AppleWebKit/537.36 (KHTML, like Gecko) Chrome/86.0.4240.111 Safari/537.36",28,"[0.9, 0.5, 0.1]","[0.8, 0.4, 0.2]","[u'blue', u'black', u'red']","[u'left', u'middle', u'right']","[0.9, 0.5, 0.1]","[u'low', u'medium', u'high']","blue",49,"left","low","False","False",2090,1450,NA
"A3CSE6A6KPZAXR","Fri Oct 30 2020 14:12:39 GMT-0400 (Eastern Daylight Time)","Fri Oct 30 2020 14:26:58 GMT-0400 (Eastern Daylight Time)","Mozilla/5.0 (Windows NT 10.0; WOW64) AppleWebKit/537.36 (KHTML, like Gecko) Chrome/86.0.4240.111 Safari/537.36",29,"[0.9, 0.5, 0.1]","[0.8, 0.4, 0.2]","[u'blue', u'black', u'red']","[u'left', u'middle', u'right']","[0.9, 0.5, 0.1]","[u'low', u'medium', u'high']","black",50,"middle","medium","True","False",431,1550,NA
"A3CSE6A6KPZAXR","Fri Oct 30 2020 14:12:39 GMT-0400 (Eastern Daylight Time)","Fri Oct 30 2020 14:26:58 GMT-0400 (Eastern Daylight Time)","Mozilla/5.0 (Windows NT 10.0; WOW64) AppleWebKit/537.36 (KHTML, like Gecko) Chrome/86.0.4240.111 Safari/537.36",30,"[0.9, 0.5, 0.1]","[0.8, 0.4, 0.2]","[u'blue', u'black', u'red']","[u'left', u'middle', u'right']","[0.9, 0.5, 0.1]","[u'low', u'medium', u'high']","black",50,"middle","medium","False","False",1318,1500,NA
"A3CSE6A6KPZAXR","Fri Oct 30 2020 14:12:39 GMT-0400 (Eastern Daylight Time)","Fri Oct 30 2020 14:26:58 GMT-0400 (Eastern Daylight Time)","Mozilla/5.0 (Windows NT 10.0; WOW64) AppleWebKit/537.36 (KHTML, like Gecko) Chrome/86.0.4240.111 Safari/537.36",31,"[0.9, 0.5, 0.1]","[0.8, 0.4, 0.2]","[u'blue', u'black', u'red']","[u'left', u'middle', u'right']","[0.9, 0.5, 0.1]","[u'low', u'medium', u'high']","red",51,"right","high","True","False",2322,1600,NA
"A3CSE6A6KPZAXR","Fri Oct 30 2020 14:12:39 GMT-0400 (Eastern Daylight Time)","Fri Oct 30 2020 14:26:58 GMT-0400 (Eastern Daylight Time)","Mozilla/5.0 (Windows NT 10.0; WOW64) AppleWebKit/537.36 (KHTML, like Gecko) Chrome/86.0.4240.111 Safari/537.36",32,"[0.9, 0.5, 0.1]","[0.8, 0.4, 0.2]","[u'blue', u'black', u'red']","[u'left', u'middle', u'right']","[0.9, 0.5, 0.1]","[u'low', u'medium', u'high']","black",50,"middle","medium","True","False",1331,1700,NA
"A3CSE6A6KPZAXR","Fri Oct 30 2020 14:12:39 GMT-0400 (Eastern Daylight Time)","Fri Oct 30 2020 14:26:58 GMT-0400 (Eastern Daylight Time)","Mozilla/5.0 (Windows NT 10.0; WOW64) AppleWebKit/537.36 (KHTML, like Gecko) Chrome/86.0.4240.111 Safari/537.36",33,"[0.9, 0.5, 0.1]","[0.8, 0.4, 0.2]","[u'blue', u'black', u'red']","[u'left', u'middle', u'right']","[0.9, 0.5, 0.1]","[u'low', u'medium', u'high']","blue",49,"left","low","False","False",586,1650,NA
"A3CSE6A6KPZAXR","Fri Oct 30 2020 14:12:39 GMT-0400 (Eastern Daylight Time)","Fri Oct 30 2020 14:26:58 GMT-0400 (Eastern Daylight Time)","Mozilla/5.0 (Windows NT 10.0; WOW64) AppleWebKit/537.36 (KHTML, like Gecko) Chrome/86.0.4240.111 Safari/537.36",34,"[0.9, 0.5, 0.1]","[0.8, 0.4, 0.2]","[u'blue', u'black', u'red']","[u'left', u'middle', u'right']","[0.9, 0.5, 0.1]","[u'low', u'medium', u'high']","black",50,"middle","medium","True","False",787,1750,NA
"A3CSE6A6KPZAXR","Fri Oct 30 2020 14:12:39 GMT-0400 (Eastern Daylight Time)","Fri Oct 30 2020 14:26:58 GMT-0400 (Eastern Daylight Time)","Mozilla/5.0 (Windows NT 10.0; WOW64) AppleWebKit/537.36 (KHTML, like Gecko) Chrome/86.0.4240.111 Safari/537.36",35,"[0.9, 0.5, 0.1]","[0.8, 0.4, 0.2]","[u'blue', u'black', u'red']","[u'left', u'middle', u'right']","[0.9, 0.5, 0.1]","[u'low', u'medium', u'high']","red",51,"right","high","True","False",598,1850,NA
"A3CSE6A6KPZAXR","Fri Oct 30 2020 14:12:39 GMT-0400 (Eastern Daylight Time)","Fri Oct 30 2020 14:26:58 GMT-0400 (Eastern Daylight Time)","Mozilla/5.0 (Windows NT 10.0; WOW64) AppleWebKit/537.36 (KHTML, like Gecko) Chrome/86.0.4240.111 Safari/537.36",36,"[0.9, 0.5, 0.1]","[0.8, 0.4, 0.2]","[u'blue', u'black', u'red']","[u'left', u'middle', u'right']","[0.9, 0.5, 0.1]","[u'low', u'medium', u'high']","black",50,"middle","medium","False","False",8744,1800,NA
"A3CSE6A6KPZAXR","Fri Oct 30 2020 14:12:39 GMT-0400 (Eastern Daylight Time)","Fri Oct 30 2020 14:26:58 GMT-0400 (Eastern Daylight Time)","Mozilla/5.0 (Windows NT 10.0; WOW64) AppleWebKit/537.36 (KHTML, like Gecko) Chrome/86.0.4240.111 Safari/537.36",37,"[0.9, 0.5, 0.1]","[0.8, 0.4, 0.2]","[u'blue', u'black', u'red']","[u'left', u'middle', u'right']","[0.9, 0.5, 0.1]","[u'low', u'medium', u'high']","red",51,"right","high","False","False",820,1750,NA
"A3CSE6A6KPZAXR","Fri Oct 30 2020 14:12:39 GMT-0400 (Eastern Daylight Time)","Fri Oct 30 2020 14:26:58 GMT-0400 (Eastern Daylight Time)","Mozilla/5.0 (Windows NT 10.0; WOW64) AppleWebKit/537.36 (KHTML, like Gecko) Chrome/86.0.4240.111 Safari/537.36",38,"[0.9, 0.5, 0.1]","[0.8, 0.4, 0.2]","[u'blue', u'black', u'red']","[u'left', u'middle', u'right']","[0.9, 0.5, 0.1]","[u'low', u'medium', u'high']","blue",49,"left","low","True","False",827,1850,NA
"A3CSE6A6KPZAXR","Fri Oct 30 2020 14:12:39 GMT-0400 (Eastern Daylight Time)","Fri Oct 30 2020 14:26:58 GMT-0400 (Eastern Daylight Time)","Mozilla/5.0 (Windows NT 10.0; WOW64) AppleWebKit/537.36 (KHTML, like Gecko) Chrome/86.0.4240.111 Safari/537.36",39,"[0.9, 0.5, 0.1]","[0.8, 0.4, 0.2]","[u'blue', u'black', u'red']","[u'left', u'middle', u'right']","[0.9, 0.5, 0.1]","[u'low', u'medium', u'high']","black",50,"middle","medium","True","False",1306,1950,NA
"A3CSE6A6KPZAXR","Fri Oct 30 2020 14:12:39 GMT-0400 (Eastern Daylight Time)","Fri Oct 30 2020 14:26:58 GMT-0400 (Eastern Daylight Time)","Mozilla/5.0 (Windows NT 10.0; WOW64) AppleWebKit/537.36 (KHTML, like Gecko) Chrome/86.0.4240.111 Safari/537.36",40,"[0.9, 0.5, 0.1]","[0.8, 0.4, 0.2]","[u'blue', u'black', u'red']","[u'left', u'middle', u'right']","[0.9, 0.5, 0.1]","[u'low', u'medium', u'high']","blue",49,"left","low","False","False",1395,1900,NA
"A3CSE6A6KPZAXR","Fri Oct 30 2020 14:12:39 GMT-0400 (Eastern Daylight Time)","Fri Oct 30 2020 14:26:58 GMT-0400 (Eastern Daylight Time)","Mozilla/5.0 (Windows NT 10.0; WOW64) AppleWebKit/537.36 (KHTML, like Gecko) Chrome/86.0.4240.111 Safari/537.36",41,"[0.9, 0.5, 0.1]","[0.8, 0.4, 0.2]","[u'blue', u'black', u'red']","[u'left', u'middle', u'right']","[0.9, 0.5, 0.1]","[u'high', u'medium', u'low']","black",50,"middle","medium","False","False",1198,1850,NA
"A3CSE6A6KPZAXR","Fri Oct 30 2020 14:12:39 GMT-0400 (Eastern Daylight Time)","Fri Oct 30 2020 14:26:58 GMT-0400 (Eastern Daylight Time)","Mozilla/5.0 (Windows NT 10.0; WOW64) AppleWebKit/537.36 (KHTML, like Gecko) Chrome/86.0.4240.111 Safari/537.36",42,"[0.9, 0.5, 0.1]","[0.8, 0.4, 0.2]","[u'blue', u'black', u'red']","[u'left', u'middle', u'right']","[0.9, 0.5, 0.1]","[u'high', u'medium', u'low']","blue",49,"left","high","True","False",566,1950,NA
"A3CSE6A6KPZAXR","Fri Oct 30 2020 14:12:39 GMT-0400 (Eastern Daylight Time)","Fri Oct 30 2020 14:26:58 GMT-0400 (Eastern Daylight Time)","Mozilla/5.0 (Windows NT 10.0; WOW64) AppleWebKit/537.36 (KHTML, like Gecko) Chrome/86.0.4240.111 Safari/537.36",43,"[0.9, 0.5, 0.1]","[0.8, 0.4, 0.2]","[u'blue', u'black', u'red']","[u'left', u'middle', u'right']","[0.9, 0.5, 0.1]","[u'high', u'medium', u'low']","red",51,"right","low","False","False",788,1900,NA
"A3CSE6A6KPZAXR","Fri Oct 30 2020 14:12:39 GMT-0400 (Eastern Daylight Time)","Fri Oct 30 2020 14:26:58 GMT-0400 (Eastern Daylight Time)","Mozilla/5.0 (Windows NT 10.0; WOW64) AppleWebKit/537.36 (KHTML, like Gecko) Chrome/86.0.4240.111 Safari/537.36",44,"[0.9, 0.5, 0.1]","[0.8, 0.4, 0.2]","[u'blue', u'black', u'red']","[u'left', u'middle', u'right']","[0.9, 0.5, 0.1]","[u'high', u'medium', u'low']","black",50,"middle","medium","False","False",360,1850,NA
"A3CSE6A6KPZAXR","Fri Oct 30 2020 14:12:39 GMT-0400 (Eastern Daylight Time)","Fri Oct 30 2020 14:26:58 GMT-0400 (Eastern Daylight Time)","Mozilla/5.0 (Windows NT 10.0; WOW64) AppleWebKit/537.36 (KHTML, like Gecko) Chrome/86.0.4240.111 Safari/537.36",45,"[0.9, 0.5, 0.1]","[0.8, 0.4, 0.2]","[u'blue', u'black', u'red']","[u'left', u'middle', u'right']","[0.9, 0.5, 0.1]","[u'high', u'medium', u'low']","black",50,"middle","medium","False","False",573,1800,NA
"A3CSE6A6KPZAXR","Fri Oct 30 2020 14:12:39 GMT-0400 (Eastern Daylight Time)","Fri Oct 30 2020 14:26:58 GMT-0400 (Eastern Daylight Time)","Mozilla/5.0 (Windows NT 10.0; WOW64) AppleWebKit/537.36 (KHTML, like Gecko) Chrome/86.0.4240.111 Safari/537.36",46,"[0.9, 0.5, 0.1]","[0.8, 0.4, 0.2]","[u'blue', u'black', u'red']","[u'left', u'middle', u'right']","[0.9, 0.5, 0.1]","[u'high', u'medium', u'low']","red",51,"right","low","False","False",601,1750,NA
"A3CSE6A6KPZAXR","Fri Oct 30 2020 14:12:39 GMT-0400 (Eastern Daylight Time)","Fri Oct 30 2020 14:26:58 GMT-0400 (Eastern Daylight Time)","Mozilla/5.0 (Windows NT 10.0; WOW64) AppleWebKit/537.36 (KHTML, like Gecko) Chrome/86.0.4240.111 Safari/537.36",47,"[0.9, 0.5, 0.1]","[0.8, 0.4, 0.2]","[u'blue', u'black', u'red']","[u'left', u'middle', u'right']","[0.9, 0.5, 0.1]","[u'high', u'medium', u'low']","blue",49,"left","high","True","False",224,1850,NA
"A3CSE6A6KPZAXR","Fri Oct 30 2020 14:12:39 GMT-0400 (Eastern Daylight Time)","Fri Oct 30 2020 14:26:58 GMT-0400 (Eastern Daylight Time)","Mozilla/5.0 (Windows NT 10.0; WOW64) AppleWebKit/537.36 (KHTML, like Gecko) Chrome/86.0.4240.111 Safari/537.36",48,"[0.9, 0.5, 0.1]","[0.8, 0.4, 0.2]","[u'blue', u'black', u'red']","[u'left', u'middle', u'right']","[0.9, 0.5, 0.1]","[u'high', u'medium', u'low']","blue",49,"left","high","True","False",358,1950,NA
"A3CSE6A6KPZAXR","Fri Oct 30 2020 14:12:39 GMT-0400 (Eastern Daylight Time)","Fri Oct 30 2020 14:26:58 GMT-0400 (Eastern Daylight Time)","Mozilla/5.0 (Windows NT 10.0; WOW64) AppleWebKit/537.36 (KHTML, like Gecko) Chrome/86.0.4240.111 Safari/537.36",49,"[0.9, 0.5, 0.1]","[0.8, 0.4, 0.2]","[u'blue', u'black', u'red']","[u'left', u'middle', u'right']","[0.9, 0.5, 0.1]","[u'high', u'medium', u'low']","blue",49,"left","high","True","False",306,2050,NA
"A3CSE6A6KPZAXR","Fri Oct 30 2020 14:12:39 GMT-0400 (Eastern Daylight Time)","Fri Oct 30 2020 14:26:58 GMT-0400 (Eastern Daylight Time)","Mozilla/5.0 (Windows NT 10.0; WOW64) AppleWebKit/537.36 (KHTML, like Gecko) Chrome/86.0.4240.111 Safari/537.36",50,"[0.9, 0.5, 0.1]","[0.8, 0.4, 0.2]","[u'blue', u'black', u'red']","[u'left', u'middle', u'right']","[0.9, 0.5, 0.1]","[u'high', u'medium', u'low']","blue",49,"left","high","True","False",1044,2150,NA
"A3CSE6A6KPZAXR","Fri Oct 30 2020 14:12:39 GMT-0400 (Eastern Daylight Time)","Fri Oct 30 2020 14:26:58 GMT-0400 (Eastern Daylight Time)","Mozilla/5.0 (Windows NT 10.0; WOW64) AppleWebKit/537.36 (KHTML, like Gecko) Chrome/86.0.4240.111 Safari/537.36",51,"[0.9, 0.5, 0.1]","[0.8, 0.4, 0.2]","[u'blue', u'black', u'red']","[u'left', u'middle', u'right']","[0.9, 0.5, 0.1]","[u'high', u'medium', u'low']","blue",49,"left","high","True","False",623,2250,NA
"A3CSE6A6KPZAXR","Fri Oct 30 2020 14:12:39 GMT-0400 (Eastern Daylight Time)","Fri Oct 30 2020 14:26:58 GMT-0400 (Eastern Daylight Time)","Mozilla/5.0 (Windows NT 10.0; WOW64) AppleWebKit/537.36 (KHTML, like Gecko) Chrome/86.0.4240.111 Safari/537.36",52,"[0.9, 0.5, 0.1]","[0.8, 0.4, 0.2]","[u'blue', u'black', u'red']","[u'left', u'middle', u'right']","[0.9, 0.5, 0.1]","[u'high', u'medium', u'low']","black",50,"middle","medium","True","False",690,2350,NA
"A3CSE6A6KPZAXR","Fri Oct 30 2020 14:12:39 GMT-0400 (Eastern Daylight Time)","Fri Oct 30 2020 14:26:58 GMT-0400 (Eastern Daylight Time)","Mozilla/5.0 (Windows NT 10.0; WOW64) AppleWebKit/537.36 (KHTML, like Gecko) Chrome/86.0.4240.111 Safari/537.36",53,"[0.9, 0.5, 0.1]","[0.8, 0.4, 0.2]","[u'blue', u'black', u'red']","[u'left', u'middle', u'right']","[0.9, 0.5, 0.1]","[u'high', u'medium', u'low']","blue",49,"left","high","True","False",553,2450,NA
"A3CSE6A6KPZAXR","Fri Oct 30 2020 14:12:39 GMT-0400 (Eastern Daylight Time)","Fri Oct 30 2020 14:26:58 GMT-0400 (Eastern Daylight Time)","Mozilla/5.0 (Windows NT 10.0; WOW64) AppleWebKit/537.36 (KHTML, like Gecko) Chrome/86.0.4240.111 Safari/537.36",54,"[0.9, 0.5, 0.1]","[0.8, 0.4, 0.2]","[u'blue', u'black', u'red']","[u'left', u'middle', u'right']","[0.9, 0.5, 0.1]","[u'high', u'medium', u'low']","black",50,"middle","medium","True","False",670,2550,NA
"A3CSE6A6KPZAXR","Fri Oct 30 2020 14:12:39 GMT-0400 (Eastern Daylight Time)","Fri Oct 30 2020 14:26:58 GMT-0400 (Eastern Daylight Time)","Mozilla/5.0 (Windows NT 10.0; WOW64) AppleWebKit/537.36 (KHTML, like Gecko) Chrome/86.0.4240.111 Safari/537.36",55,"[0.9, 0.5, 0.1]","[0.8, 0.4, 0.2]","[u'blue', u'black', u'red']","[u'left', u'middle', u'right']","[0.9, 0.5, 0.1]","[u'high', u'medium', u'low']","blue",49,"left","high","False","False",1072,2500,NA
"A3CSE6A6KPZAXR","Fri Oct 30 2020 14:12:39 GMT-0400 (Eastern Daylight Time)","Fri Oct 30 2020 14:26:58 GMT-0400 (Eastern Daylight Time)","Mozilla/5.0 (Windows NT 10.0; WOW64) AppleWebKit/537.36 (KHTML, like Gecko) Chrome/86.0.4240.111 Safari/537.36",56,"[0.9, 0.5, 0.1]","[0.8, 0.4, 0.2]","[u'blue', u'black', u'red']","[u'left', u'middle', u'right']","[0.9, 0.5, 0.1]","[u'high', u'medium', u'low']","black",50,"middle","medium","False","False",717,2450,NA
"A3CSE6A6KPZAXR","Fri Oct 30 2020 14:12:39 GMT-0400 (Eastern Daylight Time)","Fri Oct 30 2020 14:26:58 GMT-0400 (Eastern Daylight Time)","Mozilla/5.0 (Windows NT 10.0; WOW64) AppleWebKit/537.36 (KHTML, like Gecko) Chrome/86.0.4240.111 Safari/537.36",57,"[0.9, 0.5, 0.1]","[0.8, 0.4, 0.2]","[u'blue', u'black', u'red']","[u'left', u'middle', u'right']","[0.9, 0.5, 0.1]","[u'high', u'medium', u'low']","blue",49,"left","high","True","False",997,2550,NA
"A3CSE6A6KPZAXR","Fri Oct 30 2020 14:12:39 GMT-0400 (Eastern Daylight Time)","Fri Oct 30 2020 14:26:58 GMT-0400 (Eastern Daylight Time)","Mozilla/5.0 (Windows NT 10.0; WOW64) AppleWebKit/537.36 (KHTML, like Gecko) Chrome/86.0.4240.111 Safari/537.36",58,"[0.9, 0.5, 0.1]","[0.8, 0.4, 0.2]","[u'blue', u'black', u'red']","[u'left', u'middle', u'right']","[0.9, 0.5, 0.1]","[u'high', u'medium', u'low']","black",50,"middle","medium","True","False",1057,2650,NA
"A3CSE6A6KPZAXR","Fri Oct 30 2020 14:12:39 GMT-0400 (Eastern Daylight Time)","Fri Oct 30 2020 14:26:58 GMT-0400 (Eastern Daylight Time)","Mozilla/5.0 (Windows NT 10.0; WOW64) AppleWebKit/537.36 (KHTML, like Gecko) Chrome/86.0.4240.111 Safari/537.36",59,"[0.9, 0.5, 0.1]","[0.8, 0.4, 0.2]","[u'blue', u'black', u'red']","[u'left', u'middle', u'right']","[0.9, 0.5, 0.1]","[u'high', u'medium', u'low']","black",50,"middle","medium","True","False",672,2750,NA
"A3CSE6A6KPZAXR","Fri Oct 30 2020 14:12:39 GMT-0400 (Eastern Daylight Time)","Fri Oct 30 2020 14:26:58 GMT-0400 (Eastern Daylight Time)","Mozilla/5.0 (Windows NT 10.0; WOW64) AppleWebKit/537.36 (KHTML, like Gecko) Chrome/86.0.4240.111 Safari/537.36",60,"[0.9, 0.5, 0.1]","[0.8, 0.4, 0.2]","[u'blue', u'black', u'red']","[u'left', u'middle', u'right']","[0.9, 0.5, 0.1]","[u'high', u'medium', u'low']","blue",49,"left","high","True","False",575,2850,NA
"A3CSE6A6KPZAXR","Fri Oct 30 2020 14:12:39 GMT-0400 (Eastern Daylight Time)","Fri Oct 30 2020 14:26:58 GMT-0400 (Eastern Daylight Time)","Mozilla/5.0 (Windows NT 10.0; WOW64) AppleWebKit/537.36 (KHTML, like Gecko) Chrome/86.0.4240.111 Safari/537.36",61,"[0.9, 0.5, 0.1]","[0.8, 0.4, 0.2]","[u'blue', u'black', u'red']","[u'left', u'middle', u'right']","[0.9, 0.5, 0.1]","[u'high', u'medium', u'low']","black",50,"middle","medium","True","False",679,2950,NA
"A3CSE6A6KPZAXR","Fri Oct 30 2020 14:12:39 GMT-0400 (Eastern Daylight Time)","Fri Oct 30 2020 14:26:58 GMT-0400 (Eastern Daylight Time)","Mozilla/5.0 (Windows NT 10.0; WOW64) AppleWebKit/537.36 (KHTML, like Gecko) Chrome/86.0.4240.111 Safari/537.36",62,"[0.9, 0.5, 0.1]","[0.8, 0.4, 0.2]","[u'blue', u'black', u'red']","[u'left', u'middle', u'right']","[0.9, 0.5, 0.1]","[u'high', u'medium', u'low']","blue",49,"left","high","True","False",659,3050,NA
"A3CSE6A6KPZAXR","Fri Oct 30 2020 14:12:39 GMT-0400 (Eastern Daylight Time)","Fri Oct 30 2020 14:26:58 GMT-0400 (Eastern Daylight Time)","Mozilla/5.0 (Windows NT 10.0; WOW64) AppleWebKit/537.36 (KHTML, like Gecko) Chrome/86.0.4240.111 Safari/537.36",63,"[0.9, 0.5, 0.1]","[0.8, 0.4, 0.2]","[u'blue', u'black', u'red']","[u'left', u'middle', u'right']","[0.9, 0.5, 0.1]","[u'high', u'medium', u'low']","black",50,"middle","medium","False","False",961,3000,NA
"A3CSE6A6KPZAXR","Fri Oct 30 2020 14:12:39 GMT-0400 (Eastern Daylight Time)","Fri Oct 30 2020 14:26:58 GMT-0400 (Eastern Daylight Time)","Mozilla/5.0 (Windows NT 10.0; WOW64) AppleWebKit/537.36 (KHTML, like Gecko) Chrome/86.0.4240.111 Safari/537.36",64,"[0.9, 0.5, 0.1]","[0.8, 0.4, 0.2]","[u'blue', u'black', u'red']","[u'left', u'middle', u'right']","[0.9, 0.5, 0.1]","[u'high', u'medium', u'low']","blue",49,"left","high","True","False",579,3100,NA
"A3CSE6A6KPZAXR","Fri Oct 30 2020 14:12:39 GMT-0400 (Eastern Daylight Time)","Fri Oct 30 2020 14:26:58 GMT-0400 (Eastern Daylight Time)","Mozilla/5.0 (Windows NT 10.0; WOW64) AppleWebKit/537.36 (KHTML, like Gecko) Chrome/86.0.4240.111 Safari/537.36",65,"[0.9, 0.5, 0.1]","[0.8, 0.4, 0.2]","[u'blue', u'black', u'red']","[u'left', u'middle', u'right']","[0.9, 0.5, 0.1]","[u'high', u'medium', u'low']","red",51,"right","low","False","False",1185,3050,NA
"A3CSE6A6KPZAXR","Fri Oct 30 2020 14:12:39 GMT-0400 (Eastern Daylight Time)","Fri Oct 30 2020 14:26:58 GMT-0400 (Eastern Daylight Time)","Mozilla/5.0 (Windows NT 10.0; WOW64) AppleWebKit/537.36 (KHTML, like Gecko) Chrome/86.0.4240.111 Safari/537.36",66,"[0.9, 0.5, 0.1]","[0.8, 0.4, 0.2]","[u'blue', u'black', u'red']","[u'left', u'middle', u'right']","[0.9, 0.5, 0.1]","[u'high', u'medium', u'low']","black",50,"middle","medium","True","False",650,3150,NA
"A3CSE6A6KPZAXR","Fri Oct 30 2020 14:12:39 GMT-0400 (Eastern Daylight Time)","Fri Oct 30 2020 14:26:58 GMT-0400 (Eastern Daylight Time)","Mozilla/5.0 (Windows NT 10.0; WOW64) AppleWebKit/537.36 (KHTML, like Gecko) Chrome/86.0.4240.111 Safari/537.36",67,"[0.9, 0.5, 0.1]","[0.8, 0.4, 0.2]","[u'blue', u'black', u'red']","[u'left', u'middle', u'right']","[0.9, 0.5, 0.1]","[u'high', u'medium', u'low']","blue",49,"left","high","True","False",780,3250,NA
"A3CSE6A6KPZAXR","Fri Oct 30 2020 14:12:39 GMT-0400 (Eastern Daylight Time)","Fri Oct 30 2020 14:26:58 GMT-0400 (Eastern Daylight Time)","Mozilla/5.0 (Windows NT 10.0; WOW64) AppleWebKit/537.36 (KHTML, like Gecko) Chrome/86.0.4240.111 Safari/537.36",68,"[0.9, 0.5, 0.1]","[0.8, 0.4, 0.2]","[u'blue', u'black', u'red']","[u'left', u'middle', u'right']","[0.9, 0.5, 0.1]","[u'high', u'medium', u'low']","red",51,"right","low","False","False",621,3200,NA
"A3CSE6A6KPZAXR","Fri Oct 30 2020 14:12:39 GMT-0400 (Eastern Daylight Time)","Fri Oct 30 2020 14:26:58 GMT-0400 (Eastern Daylight Time)","Mozilla/5.0 (Windows NT 10.0; WOW64) AppleWebKit/537.36 (KHTML, like Gecko) Chrome/86.0.4240.111 Safari/537.36",69,"[0.9, 0.5, 0.1]","[0.8, 0.4, 0.2]","[u'blue', u'black', u'red']","[u'left', u'middle', u'right']","[0.9, 0.5, 0.1]","[u'high', u'medium', u'low']","blue",49,"left","high","True","False",300,3300,NA
"A3CSE6A6KPZAXR","Fri Oct 30 2020 14:12:39 GMT-0400 (Eastern Daylight Time)","Fri Oct 30 2020 14:26:58 GMT-0400 (Eastern Daylight Time)","Mozilla/5.0 (Windows NT 10.0; WOW64) AppleWebKit/537.36 (KHTML, like Gecko) Chrome/86.0.4240.111 Safari/537.36",70,"[0.9, 0.5, 0.1]","[0.8, 0.4, 0.2]","[u'blue', u'black', u'red']","[u'left', u'middle', u'right']","[0.9, 0.5, 0.1]","[u'high', u'medium', u'low']","blue",49,"left","high","True","False",2134,3400,NA
"A3CSE6A6KPZAXR","Fri Oct 30 2020 14:12:39 GMT-0400 (Eastern Daylight Time)","Fri Oct 30 2020 14:26:58 GMT-0400 (Eastern Daylight Time)","Mozilla/5.0 (Windows NT 10.0; WOW64) AppleWebKit/537.36 (KHTML, like Gecko) Chrome/86.0.4240.111 Safari/537.36",71,"[0.9, 0.5, 0.1]","[0.8, 0.4, 0.2]","[u'blue', u'black', u'red']","[u'left', u'middle', u'right']","[0.9, 0.5, 0.1]","[u'high', u'medium', u'low']","blue",49,"left","high","True","False",112433,3500,NA
"A3CSE6A6KPZAXR","Fri Oct 30 2020 14:12:39 GMT-0400 (Eastern Daylight Time)","Fri Oct 30 2020 14:26:58 GMT-0400 (Eastern Daylight Time)","Mozilla/5.0 (Windows NT 10.0; WOW64) AppleWebKit/537.36 (KHTML, like Gecko) Chrome/86.0.4240.111 Safari/537.36",72,"[0.9, 0.5, 0.1]","[0.8, 0.4, 0.2]","[u'blue', u'black', u'red']","[u'left', u'middle', u'right']","[0.9, 0.5, 0.1]","[u'high', u'medium', u'low']","black",50,"middle","medium","False","False",86,3450,NA
"A3CSE6A6KPZAXR","Fri Oct 30 2020 14:12:39 GMT-0400 (Eastern Daylight Time)","Fri Oct 30 2020 14:26:58 GMT-0400 (Eastern Daylight Time)","Mozilla/5.0 (Windows NT 10.0; WOW64) AppleWebKit/537.36 (KHTML, like Gecko) Chrome/86.0.4240.111 Safari/537.36",73,"[0.9, 0.5, 0.1]","[0.8, 0.4, 0.2]","[u'blue', u'black', u'red']","[u'left', u'middle', u'right']","[0.9, 0.5, 0.1]","[u'high', u'medium', u'low']","red",51,"right","low","False","False",558,3400,NA
"A3CSE6A6KPZAXR","Fri Oct 30 2020 14:12:39 GMT-0400 (Eastern Daylight Time)","Fri Oct 30 2020 14:26:58 GMT-0400 (Eastern Daylight Time)","Mozilla/5.0 (Windows NT 10.0; WOW64) AppleWebKit/537.36 (KHTML, like Gecko) Chrome/86.0.4240.111 Safari/537.36",74,"[0.9, 0.5, 0.1]","[0.8, 0.4, 0.2]","[u'blue', u'black', u'red']","[u'left', u'middle', u'right']","[0.9, 0.5, 0.1]","[u'high', u'medium', u'low']","blue",49,"left","high","True","False",554,3500,NA
"A3CSE6A6KPZAXR","Fri Oct 30 2020 14:12:39 GMT-0400 (Eastern Daylight Time)","Fri Oct 30 2020 14:26:58 GMT-0400 (Eastern Daylight Time)","Mozilla/5.0 (Windows NT 10.0; WOW64) AppleWebKit/537.36 (KHTML, like Gecko) Chrome/86.0.4240.111 Safari/537.36",75,"[0.9, 0.5, 0.1]","[0.8, 0.4, 0.2]","[u'blue', u'black', u'red']","[u'left', u'middle', u'right']","[0.9, 0.5, 0.1]","[u'high', u'medium', u'low']","black",50,"middle","medium","True","False",1353,3600,NA
"A3CSE6A6KPZAXR","Fri Oct 30 2020 14:12:39 GMT-0400 (Eastern Daylight Time)","Fri Oct 30 2020 14:26:58 GMT-0400 (Eastern Daylight Time)","Mozilla/5.0 (Windows NT 10.0; WOW64) AppleWebKit/537.36 (KHTML, like Gecko) Chrome/86.0.4240.111 Safari/537.36",76,"[0.9, 0.5, 0.1]","[0.8, 0.4, 0.2]","[u'blue', u'black', u'red']","[u'left', u'middle', u'right']","[0.9, 0.5, 0.1]","[u'high', u'medium', u'low']","black",50,"middle","medium","False","False",307,3550,NA
"A3CSE6A6KPZAXR","Fri Oct 30 2020 14:12:39 GMT-0400 (Eastern Daylight Time)","Fri Oct 30 2020 14:26:58 GMT-0400 (Eastern Daylight Time)","Mozilla/5.0 (Windows NT 10.0; WOW64) AppleWebKit/537.36 (KHTML, like Gecko) Chrome/86.0.4240.111 Safari/537.36",77,"[0.9, 0.5, 0.1]","[0.8, 0.4, 0.2]","[u'blue', u'black', u'red']","[u'left', u'middle', u'right']","[0.9, 0.5, 0.1]","[u'high', u'medium', u'low']","blue",49,"left","high","True","False",28,3650,NA
"A3CSE6A6KPZAXR","Fri Oct 30 2020 14:12:39 GMT-0400 (Eastern Daylight Time)","Fri Oct 30 2020 14:26:58 GMT-0400 (Eastern Daylight Time)","Mozilla/5.0 (Windows NT 10.0; WOW64) AppleWebKit/537.36 (KHTML, like Gecko) Chrome/86.0.4240.111 Safari/537.36",78,"[0.9, 0.5, 0.1]","[0.8, 0.4, 0.2]","[u'blue', u'black', u'red']","[u'left', u'middle', u'right']","[0.9, 0.5, 0.1]","[u'high', u'medium', u'low']","black",50,"middle","medium","False","False",938,3600,NA
"A3CSE6A6KPZAXR","Fri Oct 30 2020 14:12:39 GMT-0400 (Eastern Daylight Time)","Fri Oct 30 2020 14:26:58 GMT-0400 (Eastern Daylight Time)","Mozilla/5.0 (Windows NT 10.0; WOW64) AppleWebKit/537.36 (KHTML, like Gecko) Chrome/86.0.4240.111 Safari/537.36",79,"[0.9, 0.5, 0.1]","[0.8, 0.4, 0.2]","[u'blue', u'black', u'red']","[u'left', u'middle', u'right']","[0.9, 0.5, 0.1]","[u'high', u'medium', u'low']","blue",49,"left","high","True","False",603,3700,NA
"A3CSE6A6KPZAXR","Fri Oct 30 2020 14:12:39 GMT-0400 (Eastern Daylight Time)","Fri Oct 30 2020 14:26:58 GMT-0400 (Eastern Daylight Time)","Mozilla/5.0 (Windows NT 10.0; WOW64) AppleWebKit/537.36 (KHTML, like Gecko) Chrome/86.0.4240.111 Safari/537.36",80,"[0.9, 0.5, 0.1]","[0.8, 0.4, 0.2]","[u'blue', u'black', u'red']","[u'left', u'middle', u'right']","[0.9, 0.5, 0.1]","[u'high', u'medium', u'low']","blue",49,"left","high","True","False",792,3800,NA
"A3CSE6A6KPZAXR","Fri Oct 30 2020 14:12:39 GMT-0400 (Eastern Daylight Time)","Fri Oct 30 2020 14:26:58 GMT-0400 (Eastern Daylight Time)","Mozilla/5.0 (Windows NT 10.0; WOW64) AppleWebKit/537.36 (KHTML, like Gecko) Chrome/86.0.4240.111 Safari/537.36",81,"[0.9, 0.5, 0.1]","[0.8, 0.4, 0.2]","[u'blue', u'black', u'red']","[u'left', u'middle', u'right']","[0.8, 0.4, 0.2]","[u'low', u'medium', u'high']","blue",49,"left","low","False","False",1377,3750,NA
"A3CSE6A6KPZAXR","Fri Oct 30 2020 14:12:39 GMT-0400 (Eastern Daylight Time)","Fri Oct 30 2020 14:26:58 GMT-0400 (Eastern Daylight Time)","Mozilla/5.0 (Windows NT 10.0; WOW64) AppleWebKit/537.36 (KHTML, like Gecko) Chrome/86.0.4240.111 Safari/537.36",82,"[0.9, 0.5, 0.1]","[0.8, 0.4, 0.2]","[u'blue', u'black', u'red']","[u'left', u'middle', u'right']","[0.8, 0.4, 0.2]","[u'low', u'medium', u'high']","black",50,"middle","medium","False","False",649,3700,NA
"A3CSE6A6KPZAXR","Fri Oct 30 2020 14:12:39 GMT-0400 (Eastern Daylight Time)","Fri Oct 30 2020 14:26:58 GMT-0400 (Eastern Daylight Time)","Mozilla/5.0 (Windows NT 10.0; WOW64) AppleWebKit/537.36 (KHTML, like Gecko) Chrome/86.0.4240.111 Safari/537.36",83,"[0.9, 0.5, 0.1]","[0.8, 0.4, 0.2]","[u'blue', u'black', u'red']","[u'left', u'middle', u'right']","[0.8, 0.4, 0.2]","[u'low', u'medium', u'high']","blue",49,"left","low","False","False",41,3650,NA
"A3CSE6A6KPZAXR","Fri Oct 30 2020 14:12:39 GMT-0400 (Eastern Daylight Time)","Fri Oct 30 2020 14:26:58 GMT-0400 (Eastern Daylight Time)","Mozilla/5.0 (Windows NT 10.0; WOW64) AppleWebKit/537.36 (KHTML, like Gecko) Chrome/86.0.4240.111 Safari/537.36",84,"[0.9, 0.5, 0.1]","[0.8, 0.4, 0.2]","[u'blue', u'black', u'red']","[u'left', u'middle', u'right']","[0.8, 0.4, 0.2]","[u'low', u'medium', u'high']","red",51,"right","high","True","False",153,3750,NA
"A3CSE6A6KPZAXR","Fri Oct 30 2020 14:12:39 GMT-0400 (Eastern Daylight Time)","Fri Oct 30 2020 14:26:58 GMT-0400 (Eastern Daylight Time)","Mozilla/5.0 (Windows NT 10.0; WOW64) AppleWebKit/537.36 (KHTML, like Gecko) Chrome/86.0.4240.111 Safari/537.36",85,"[0.9, 0.5, 0.1]","[0.8, 0.4, 0.2]","[u'blue', u'black', u'red']","[u'left', u'middle', u'right']","[0.8, 0.4, 0.2]","[u'low', u'medium', u'high']","red",51,"right","high","False","False",1859,3700,NA
"A3CSE6A6KPZAXR","Fri Oct 30 2020 14:12:39 GMT-0400 (Eastern Daylight Time)","Fri Oct 30 2020 14:26:58 GMT-0400 (Eastern Daylight Time)","Mozilla/5.0 (Windows NT 10.0; WOW64) AppleWebKit/537.36 (KHTML, like Gecko) Chrome/86.0.4240.111 Safari/537.36",86,"[0.9, 0.5, 0.1]","[0.8, 0.4, 0.2]","[u'blue', u'black', u'red']","[u'left', u'middle', u'right']","[0.8, 0.4, 0.2]","[u'low', u'medium', u'high']","black",50,"middle","medium","True","False",1266,3800,NA
"A3CSE6A6KPZAXR","Fri Oct 30 2020 14:12:39 GMT-0400 (Eastern Daylight Time)","Fri Oct 30 2020 14:26:58 GMT-0400 (Eastern Daylight Time)","Mozilla/5.0 (Windows NT 10.0; WOW64) AppleWebKit/537.36 (KHTML, like Gecko) Chrome/86.0.4240.111 Safari/537.36",87,"[0.9, 0.5, 0.1]","[0.8, 0.4, 0.2]","[u'blue', u'black', u'red']","[u'left', u'middle', u'right']","[0.8, 0.4, 0.2]","[u'low', u'medium', u'high']","black",50,"middle","medium","False","False",844,3750,NA
"A3CSE6A6KPZAXR","Fri Oct 30 2020 14:12:39 GMT-0400 (Eastern Daylight Time)","Fri Oct 30 2020 14:26:58 GMT-0400 (Eastern Daylight Time)","Mozilla/5.0 (Windows NT 10.0; WOW64) AppleWebKit/537.36 (KHTML, like Gecko) Chrome/86.0.4240.111 Safari/537.36",88,"[0.9, 0.5, 0.1]","[0.8, 0.4, 0.2]","[u'blue', u'black', u'red']","[u'left', u'middle', u'right']","[0.8, 0.4, 0.2]","[u'low', u'medium', u'high']","blue",49,"left","low","True","False",1156,3850,NA
"A3CSE6A6KPZAXR","Fri Oct 30 2020 14:12:39 GMT-0400 (Eastern Daylight Time)","Fri Oct 30 2020 14:26:58 GMT-0400 (Eastern Daylight Time)","Mozilla/5.0 (Windows NT 10.0; WOW64) AppleWebKit/537.36 (KHTML, like Gecko) Chrome/86.0.4240.111 Safari/537.36",89,"[0.9, 0.5, 0.1]","[0.8, 0.4, 0.2]","[u'blue', u'black', u'red']","[u'left', u'middle', u'right']","[0.8, 0.4, 0.2]","[u'low', u'medium', u'high']","black",50,"middle","medium","True","False",780,3950,NA
"A3CSE6A6KPZAXR","Fri Oct 30 2020 14:12:39 GMT-0400 (Eastern Daylight Time)","Fri Oct 30 2020 14:26:58 GMT-0400 (Eastern Daylight Time)","Mozilla/5.0 (Windows NT 10.0; WOW64) AppleWebKit/537.36 (KHTML, like Gecko) Chrome/86.0.4240.111 Safari/537.36",90,"[0.9, 0.5, 0.1]","[0.8, 0.4, 0.2]","[u'blue', u'black', u'red']","[u'left', u'middle', u'right']","[0.8, 0.4, 0.2]","[u'low', u'medium', u'high']","red",51,"right","high","True","False",921,4050,NA
"A3CSE6A6KPZAXR","Fri Oct 30 2020 14:12:39 GMT-0400 (Eastern Daylight Time)","Fri Oct 30 2020 14:26:58 GMT-0400 (Eastern Daylight Time)","Mozilla/5.0 (Windows NT 10.0; WOW64) AppleWebKit/537.36 (KHTML, like Gecko) Chrome/86.0.4240.111 Safari/537.36",91,"[0.9, 0.5, 0.1]","[0.8, 0.4, 0.2]","[u'blue', u'black', u'red']","[u'left', u'middle', u'right']","[0.8, 0.4, 0.2]","[u'low', u'medium', u'high']","blue",49,"left","low","False","False",1841,4000,NA
"A3CSE6A6KPZAXR","Fri Oct 30 2020 14:12:39 GMT-0400 (Eastern Daylight Time)","Fri Oct 30 2020 14:26:58 GMT-0400 (Eastern Daylight Time)","Mozilla/5.0 (Windows NT 10.0; WOW64) AppleWebKit/537.36 (KHTML, like Gecko) Chrome/86.0.4240.111 Safari/537.36",92,"[0.9, 0.5, 0.1]","[0.8, 0.4, 0.2]","[u'blue', u'black', u'red']","[u'left', u'middle', u'right']","[0.8, 0.4, 0.2]","[u'low', u'medium', u'high']","black",50,"middle","medium","True","False",194,4100,NA
"A3CSE6A6KPZAXR","Fri Oct 30 2020 14:12:39 GMT-0400 (Eastern Daylight Time)","Fri Oct 30 2020 14:26:58 GMT-0400 (Eastern Daylight Time)","Mozilla/5.0 (Windows NT 10.0; WOW64) AppleWebKit/537.36 (KHTML, like Gecko) Chrome/86.0.4240.111 Safari/537.36",93,"[0.9, 0.5, 0.1]","[0.8, 0.4, 0.2]","[u'blue', u'black', u'red']","[u'left', u'middle', u'right']","[0.8, 0.4, 0.2]","[u'low', u'medium', u'high']","red",51,"right","high","True","False",804,4200,NA
"A3CSE6A6KPZAXR","Fri Oct 30 2020 14:12:39 GMT-0400 (Eastern Daylight Time)","Fri Oct 30 2020 14:26:58 GMT-0400 (Eastern Daylight Time)","Mozilla/5.0 (Windows NT 10.0; WOW64) AppleWebKit/537.36 (KHTML, like Gecko) Chrome/86.0.4240.111 Safari/537.36",94,"[0.9, 0.5, 0.1]","[0.8, 0.4, 0.2]","[u'blue', u'black', u'red']","[u'left', u'middle', u'right']","[0.8, 0.4, 0.2]","[u'low', u'medium', u'high']","blue",49,"left","low","False","False",662,4150,NA
"A3CSE6A6KPZAXR","Fri Oct 30 2020 14:12:39 GMT-0400 (Eastern Daylight Time)","Fri Oct 30 2020 14:26:58 GMT-0400 (Eastern Daylight Time)","Mozilla/5.0 (Windows NT 10.0; WOW64) AppleWebKit/537.36 (KHTML, like Gecko) Chrome/86.0.4240.111 Safari/537.36",95,"[0.9, 0.5, 0.1]","[0.8, 0.4, 0.2]","[u'blue', u'black', u'red']","[u'left', u'middle', u'right']","[0.8, 0.4, 0.2]","[u'low', u'medium', u'high']","black",50,"middle","medium","False","False",1019,4100,NA
"A3CSE6A6KPZAXR","Fri Oct 30 2020 14:12:39 GMT-0400 (Eastern Daylight Time)","Fri Oct 30 2020 14:26:58 GMT-0400 (Eastern Daylight Time)","Mozilla/5.0 (Windows NT 10.0; WOW64) AppleWebKit/537.36 (KHTML, like Gecko) Chrome/86.0.4240.111 Safari/537.36",96,"[0.9, 0.5, 0.1]","[0.8, 0.4, 0.2]","[u'blue', u'black', u'red']","[u'left', u'middle', u'right']","[0.8, 0.4, 0.2]","[u'low', u'medium', u'high']","black",50,"middle","medium","False","False",1469,4050,NA
"A3CSE6A6KPZAXR","Fri Oct 30 2020 14:12:39 GMT-0400 (Eastern Daylight Time)","Fri Oct 30 2020 14:26:58 GMT-0400 (Eastern Daylight Time)","Mozilla/5.0 (Windows NT 10.0; WOW64) AppleWebKit/537.36 (KHTML, like Gecko) Chrome/86.0.4240.111 Safari/537.36",97,"[0.9, 0.5, 0.1]","[0.8, 0.4, 0.2]","[u'blue', u'black', u'red']","[u'left', u'middle', u'right']","[0.8, 0.4, 0.2]","[u'low', u'medium', u'high']","blue",49,"left","low","False","False",698,4000,NA
"A3CSE6A6KPZAXR","Fri Oct 30 2020 14:12:39 GMT-0400 (Eastern Daylight Time)","Fri Oct 30 2020 14:26:58 GMT-0400 (Eastern Daylight Time)","Mozilla/5.0 (Windows NT 10.0; WOW64) AppleWebKit/537.36 (KHTML, like Gecko) Chrome/86.0.4240.111 Safari/537.36",98,"[0.9, 0.5, 0.1]","[0.8, 0.4, 0.2]","[u'blue', u'black', u'red']","[u'left', u'middle', u'right']","[0.8, 0.4, 0.2]","[u'low', u'medium', u'high']","red",51,"right","high","True","False",668,4100,NA
"A3CSE6A6KPZAXR","Fri Oct 30 2020 14:12:39 GMT-0400 (Eastern Daylight Time)","Fri Oct 30 2020 14:26:58 GMT-0400 (Eastern Daylight Time)","Mozilla/5.0 (Windows NT 10.0; WOW64) AppleWebKit/537.36 (KHTML, like Gecko) Chrome/86.0.4240.111 Safari/537.36",99,"[0.9, 0.5, 0.1]","[0.8, 0.4, 0.2]","[u'blue', u'black', u'red']","[u'left', u'middle', u'right']","[0.8, 0.4, 0.2]","[u'low', u'medium', u'high']","black",50,"middle","medium","False","False",1088,4050,NA
"A3CSE6A6KPZAXR","Fri Oct 30 2020 14:12:39 GMT-0400 (Eastern Daylight Time)","Fri Oct 30 2020 14:26:58 GMT-0400 (Eastern Daylight Time)","Mozilla/5.0 (Windows NT 10.0; WOW64) AppleWebKit/537.36 (KHTML, like Gecko) Chrome/86.0.4240.111 Safari/537.36",100,"[0.9, 0.5, 0.1]","[0.8, 0.4, 0.2]","[u'blue', u'black', u'red']","[u'left', u'middle', u'right']","[0.8, 0.4, 0.2]","[u'low', u'medium', u'high']","red",51,"right","high","True","False",552,4150,NA
"A3CSE6A6KPZAXR","Fri Oct 30 2020 14:12:39 GMT-0400 (Eastern Daylight Time)","Fri Oct 30 2020 14:26:58 GMT-0400 (Eastern Daylight Time)","Mozilla/5.0 (Windows NT 10.0; WOW64) AppleWebKit/537.36 (KHTML, like Gecko) Chrome/86.0.4240.111 Safari/537.36",101,"[0.9, 0.5, 0.1]","[0.8, 0.4, 0.2]","[u'blue', u'black', u'red']","[u'left', u'middle', u'right']","[0.8, 0.4, 0.2]","[u'low', u'medium', u'high']","blue",49,"left","low","False","False",691,4100,NA
"A3CSE6A6KPZAXR","Fri Oct 30 2020 14:12:39 GMT-0400 (Eastern Daylight Time)","Fri Oct 30 2020 14:26:58 GMT-0400 (Eastern Daylight Time)","Mozilla/5.0 (Windows NT 10.0; WOW64) AppleWebKit/537.36 (KHTML, like Gecko) Chrome/86.0.4240.111 Safari/537.36",102,"[0.9, 0.5, 0.1]","[0.8, 0.4, 0.2]","[u'blue', u'black', u'red']","[u'left', u'middle', u'right']","[0.8, 0.4, 0.2]","[u'low', u'medium', u'high']","red",51,"right","high","True","False",669,4200,NA
"A3CSE6A6KPZAXR","Fri Oct 30 2020 14:12:39 GMT-0400 (Eastern Daylight Time)","Fri Oct 30 2020 14:26:58 GMT-0400 (Eastern Daylight Time)","Mozilla/5.0 (Windows NT 10.0; WOW64) AppleWebKit/537.36 (KHTML, like Gecko) Chrome/86.0.4240.111 Safari/537.36",103,"[0.9, 0.5, 0.1]","[0.8, 0.4, 0.2]","[u'blue', u'black', u'red']","[u'left', u'middle', u'right']","[0.8, 0.4, 0.2]","[u'low', u'medium', u'high']","black",50,"middle","medium","False","False",294,4150,NA
"A3CSE6A6KPZAXR","Fri Oct 30 2020 14:12:39 GMT-0400 (Eastern Daylight Time)","Fri Oct 30 2020 14:26:58 GMT-0400 (Eastern Daylight Time)","Mozilla/5.0 (Windows NT 10.0; WOW64) AppleWebKit/537.36 (KHTML, like Gecko) Chrome/86.0.4240.111 Safari/537.36",104,"[0.9, 0.5, 0.1]","[0.8, 0.4, 0.2]","[u'blue', u'black', u'red']","[u'left', u'middle', u'right']","[0.8, 0.4, 0.2]","[u'low', u'medium', u'high']","blue",49,"left","low","False","False",304,4100,NA
"A3CSE6A6KPZAXR","Fri Oct 30 2020 14:12:39 GMT-0400 (Eastern Daylight Time)","Fri Oct 30 2020 14:26:58 GMT-0400 (Eastern Daylight Time)","Mozilla/5.0 (Windows NT 10.0; WOW64) AppleWebKit/537.36 (KHTML, like Gecko) Chrome/86.0.4240.111 Safari/537.36",105,"[0.9, 0.5, 0.1]","[0.8, 0.4, 0.2]","[u'blue', u'black', u'red']","[u'left', u'middle', u'right']","[0.8, 0.4, 0.2]","[u'low', u'medium', u'high']","red",51,"right","high","False","False",401,4050,NA
"A3CSE6A6KPZAXR","Fri Oct 30 2020 14:12:39 GMT-0400 (Eastern Daylight Time)","Fri Oct 30 2020 14:26:58 GMT-0400 (Eastern Daylight Time)","Mozilla/5.0 (Windows NT 10.0; WOW64) AppleWebKit/537.36 (KHTML, like Gecko) Chrome/86.0.4240.111 Safari/537.36",106,"[0.9, 0.5, 0.1]","[0.8, 0.4, 0.2]","[u'blue', u'black', u'red']","[u'left', u'middle', u'right']","[0.8, 0.4, 0.2]","[u'low', u'medium', u'high']","black",50,"middle","medium","False","False",261,4000,NA
"A3CSE6A6KPZAXR","Fri Oct 30 2020 14:12:39 GMT-0400 (Eastern Daylight Time)","Fri Oct 30 2020 14:26:58 GMT-0400 (Eastern Daylight Time)","Mozilla/5.0 (Windows NT 10.0; WOW64) AppleWebKit/537.36 (KHTML, like Gecko) Chrome/86.0.4240.111 Safari/537.36",107,"[0.9, 0.5, 0.1]","[0.8, 0.4, 0.2]","[u'blue', u'black', u'red']","[u'left', u'middle', u'right']","[0.8, 0.4, 0.2]","[u'low', u'medium', u'high']","blue",49,"left","low","False","False",67,3950,NA
"A3CSE6A6KPZAXR","Fri Oct 30 2020 14:12:39 GMT-0400 (Eastern Daylight Time)","Fri Oct 30 2020 14:26:58 GMT-0400 (Eastern Daylight Time)","Mozilla/5.0 (Windows NT 10.0; WOW64) AppleWebKit/537.36 (KHTML, like Gecko) Chrome/86.0.4240.111 Safari/537.36",108,"[0.9, 0.5, 0.1]","[0.8, 0.4, 0.2]","[u'blue', u'black', u'red']","[u'left', u'middle', u'right']","[0.8, 0.4, 0.2]","[u'low', u'medium', u'high']","red",51,"right","high","True","False",648,4050,NA
"A3CSE6A6KPZAXR","Fri Oct 30 2020 14:12:39 GMT-0400 (Eastern Daylight Time)","Fri Oct 30 2020 14:26:58 GMT-0400 (Eastern Daylight Time)","Mozilla/5.0 (Windows NT 10.0; WOW64) AppleWebKit/537.36 (KHTML, like Gecko) Chrome/86.0.4240.111 Safari/537.36",109,"[0.9, 0.5, 0.1]","[0.8, 0.4, 0.2]","[u'blue', u'black', u'red']","[u'left', u'middle', u'right']","[0.8, 0.4, 0.2]","[u'low', u'medium', u'high']","black",50,"middle","medium","False","False",548,4000,NA
"A3CSE6A6KPZAXR","Fri Oct 30 2020 14:12:39 GMT-0400 (Eastern Daylight Time)","Fri Oct 30 2020 14:26:58 GMT-0400 (Eastern Daylight Time)","Mozilla/5.0 (Windows NT 10.0; WOW64) AppleWebKit/537.36 (KHTML, like Gecko) Chrome/86.0.4240.111 Safari/537.36",110,"[0.9, 0.5, 0.1]","[0.8, 0.4, 0.2]","[u'blue', u'black', u'red']","[u'left', u'middle', u'right']","[0.8, 0.4, 0.2]","[u'low', u'medium', u'high']","blue",49,"left","low","False","False",577,3950,NA
"A3CSE6A6KPZAXR","Fri Oct 30 2020 14:12:39 GMT-0400 (Eastern Daylight Time)","Fri Oct 30 2020 14:26:58 GMT-0400 (Eastern Daylight Time)","Mozilla/5.0 (Windows NT 10.0; WOW64) AppleWebKit/537.36 (KHTML, like Gecko) Chrome/86.0.4240.111 Safari/537.36",111,"[0.9, 0.5, 0.1]","[0.8, 0.4, 0.2]","[u'blue', u'black', u'red']","[u'left', u'middle', u'right']","[0.8, 0.4, 0.2]","[u'low', u'medium', u'high']","red",51,"right","high","True","False",573,4050,NA
"A3CSE6A6KPZAXR","Fri Oct 30 2020 14:12:39 GMT-0400 (Eastern Daylight Time)","Fri Oct 30 2020 14:26:58 GMT-0400 (Eastern Daylight Time)","Mozilla/5.0 (Windows NT 10.0; WOW64) AppleWebKit/537.36 (KHTML, like Gecko) Chrome/86.0.4240.111 Safari/537.36",112,"[0.9, 0.5, 0.1]","[0.8, 0.4, 0.2]","[u'blue', u'black', u'red']","[u'left', u'middle', u'right']","[0.8, 0.4, 0.2]","[u'low', u'medium', u'high']","blue",49,"left","low","False","False",536,4000,NA
"A3CSE6A6KPZAXR","Fri Oct 30 2020 14:12:39 GMT-0400 (Eastern Daylight Time)","Fri Oct 30 2020 14:26:58 GMT-0400 (Eastern Daylight Time)","Mozilla/5.0 (Windows NT 10.0; WOW64) AppleWebKit/537.36 (KHTML, like Gecko) Chrome/86.0.4240.111 Safari/537.36",113,"[0.9, 0.5, 0.1]","[0.8, 0.4, 0.2]","[u'blue', u'black', u'red']","[u'left', u'middle', u'right']","[0.8, 0.4, 0.2]","[u'low', u'medium', u'high']","black",50,"middle","medium","True","False",841,4100,NA
"A3CSE6A6KPZAXR","Fri Oct 30 2020 14:12:39 GMT-0400 (Eastern Daylight Time)","Fri Oct 30 2020 14:26:58 GMT-0400 (Eastern Daylight Time)","Mozilla/5.0 (Windows NT 10.0; WOW64) AppleWebKit/537.36 (KHTML, like Gecko) Chrome/86.0.4240.111 Safari/537.36",114,"[0.9, 0.5, 0.1]","[0.8, 0.4, 0.2]","[u'blue', u'black', u'red']","[u'left', u'middle', u'right']","[0.8, 0.4, 0.2]","[u'low', u'medium', u'high']","blue",49,"left","low","False","False",561,4050,NA
"A3CSE6A6KPZAXR","Fri Oct 30 2020 14:12:39 GMT-0400 (Eastern Daylight Time)","Fri Oct 30 2020 14:26:58 GMT-0400 (Eastern Daylight Time)","Mozilla/5.0 (Windows NT 10.0; WOW64) AppleWebKit/537.36 (KHTML, like Gecko) Chrome/86.0.4240.111 Safari/537.36",115,"[0.9, 0.5, 0.1]","[0.8, 0.4, 0.2]","[u'blue', u'black', u'red']","[u'left', u'middle', u'right']","[0.8, 0.4, 0.2]","[u'low', u'medium', u'high']","red",51,"right","high","True","False",170,4150,NA
"A3CSE6A6KPZAXR","Fri Oct 30 2020 14:12:39 GMT-0400 (Eastern Daylight Time)","Fri Oct 30 2020 14:26:58 GMT-0400 (Eastern Daylight Time)","Mozilla/5.0 (Windows NT 10.0; WOW64) AppleWebKit/537.36 (KHTML, like Gecko) Chrome/86.0.4240.111 Safari/537.36",116,"[0.9, 0.5, 0.1]","[0.8, 0.4, 0.2]","[u'blue', u'black', u'red']","[u'left', u'middle', u'right']","[0.8, 0.4, 0.2]","[u'low', u'medium', u'high']","black",50,"middle","medium","False","False",1754,4100,NA
"A3CSE6A6KPZAXR","Fri Oct 30 2020 14:12:39 GMT-0400 (Eastern Daylight Time)","Fri Oct 30 2020 14:26:58 GMT-0400 (Eastern Daylight Time)","Mozilla/5.0 (Windows NT 10.0; WOW64) AppleWebKit/537.36 (KHTML, like Gecko) Chrome/86.0.4240.111 Safari/537.36",117,"[0.9, 0.5, 0.1]","[0.8, 0.4, 0.2]","[u'blue', u'black', u'red']","[u'left', u'middle', u'right']","[0.8, 0.4, 0.2]","[u'low', u'medium', u'high']","blue",49,"left","low","False","False",522,4050,NA
"A3CSE6A6KPZAXR","Fri Oct 30 2020 14:12:39 GMT-0400 (Eastern Daylight Time)","Fri Oct 30 2020 14:26:58 GMT-0400 (Eastern Daylight Time)","Mozilla/5.0 (Windows NT 10.0; WOW64) AppleWebKit/537.36 (KHTML, like Gecko) Chrome/86.0.4240.111 Safari/537.36",118,"[0.9, 0.5, 0.1]","[0.8, 0.4, 0.2]","[u'blue', u'black', u'red']","[u'left', u'middle', u'right']","[0.8, 0.4, 0.2]","[u'low', u'medium', u'high']","red",51,"right","high","True","False",1563,4150,NA
"A3CSE6A6KPZAXR","Fri Oct 30 2020 14:12:39 GMT-0400 (Eastern Daylight Time)","Fri Oct 30 2020 14:26:58 GMT-0400 (Eastern Daylight Time)","Mozilla/5.0 (Windows NT 10.0; WOW64) AppleWebKit/537.36 (KHTML, like Gecko) Chrome/86.0.4240.111 Safari/537.36",119,"[0.9, 0.5, 0.1]","[0.8, 0.4, 0.2]","[u'blue', u'black', u'red']","[u'left', u'middle', u'right']","[0.8, 0.4, 0.2]","[u'low', u'medium', u'high']","red",51,"right","high","True","False",10903,4250,NA
"A3CSE6A6KPZAXR","Fri Oct 30 2020 14:12:39 GMT-0400 (Eastern Daylight Time)","Fri Oct 30 2020 14:26:58 GMT-0400 (Eastern Daylight Time)","Mozilla/5.0 (Windows NT 10.0; WOW64) AppleWebKit/537.36 (KHTML, like Gecko) Chrome/86.0.4240.111 Safari/537.36",120,"[0.9, 0.5, 0.1]","[0.8, 0.4, 0.2]","[u'blue', u'black', u'red']","[u'left', u'middle', u'right']","[0.8, 0.4, 0.2]","[u'low', u'medium', u'high']","black",50,"middle","medium","False","False",688,4200,NA
"A3CSE6A6KPZAXR","Fri Oct 30 2020 14:12:39 GMT-0400 (Eastern Daylight Time)","Fri Oct 30 2020 14:26:58 GMT-0400 (Eastern Daylight Time)","Mozilla/5.0 (Windows NT 10.0; WOW64) AppleWebKit/537.36 (KHTML, like Gecko) Chrome/86.0.4240.111 Safari/537.36",121,"[0.9, 0.5, 0.1]","[0.8, 0.4, 0.2]","[u'blue', u'black', u'red']","[u'left', u'middle', u'right']","[0.8, 0.4, 0.2]","[u'high', u'medium', u'low']","black",50,"middle","medium","False","False",1286,4150,NA
"A3CSE6A6KPZAXR","Fri Oct 30 2020 14:12:39 GMT-0400 (Eastern Daylight Time)","Fri Oct 30 2020 14:26:58 GMT-0400 (Eastern Daylight Time)","Mozilla/5.0 (Windows NT 10.0; WOW64) AppleWebKit/537.36 (KHTML, like Gecko) Chrome/86.0.4240.111 Safari/537.36",122,"[0.9, 0.5, 0.1]","[0.8, 0.4, 0.2]","[u'blue', u'black', u'red']","[u'left', u'middle', u'right']","[0.8, 0.4, 0.2]","[u'high', u'medium', u'low']","blue",49,"left","high","True","False",571,4250,NA
"A3CSE6A6KPZAXR","Fri Oct 30 2020 14:12:39 GMT-0400 (Eastern Daylight Time)","Fri Oct 30 2020 14:26:58 GMT-0400 (Eastern Daylight Time)","Mozilla/5.0 (Windows NT 10.0; WOW64) AppleWebKit/537.36 (KHTML, like Gecko) Chrome/86.0.4240.111 Safari/537.36",123,"[0.9, 0.5, 0.1]","[0.8, 0.4, 0.2]","[u'blue', u'black', u'red']","[u'left', u'middle', u'right']","[0.8, 0.4, 0.2]","[u'high', u'medium', u'low']","red",51,"right","low","False","False",1869,4200,NA
"A3CSE6A6KPZAXR","Fri Oct 30 2020 14:12:39 GMT-0400 (Eastern Daylight Time)","Fri Oct 30 2020 14:26:58 GMT-0400 (Eastern Daylight Time)","Mozilla/5.0 (Windows NT 10.0; WOW64) AppleWebKit/537.36 (KHTML, like Gecko) Chrome/86.0.4240.111 Safari/537.36",124,"[0.9, 0.5, 0.1]","[0.8, 0.4, 0.2]","[u'blue', u'black', u'red']","[u'left', u'middle', u'right']","[0.8, 0.4, 0.2]","[u'high', u'medium', u'low']","black",50,"middle","medium","False","False",264,4150,NA
"A3CSE6A6KPZAXR","Fri Oct 30 2020 14:12:39 GMT-0400 (Eastern Daylight Time)","Fri Oct 30 2020 14:26:58 GMT-0400 (Eastern Daylight Time)","Mozilla/5.0 (Windows NT 10.0; WOW64) AppleWebKit/537.36 (KHTML, like Gecko) Chrome/86.0.4240.111 Safari/537.36",125,"[0.9, 0.5, 0.1]","[0.8, 0.4, 0.2]","[u'blue', u'black', u'red']","[u'left', u'middle', u'right']","[0.8, 0.4, 0.2]","[u'high', u'medium', u'low']","blue",49,"left","high","True","False",260,4250,NA
"A3CSE6A6KPZAXR","Fri Oct 30 2020 14:12:39 GMT-0400 (Eastern Daylight Time)","Fri Oct 30 2020 14:26:58 GMT-0400 (Eastern Daylight Time)","Mozilla/5.0 (Windows NT 10.0; WOW64) AppleWebKit/537.36 (KHTML, like Gecko) Chrome/86.0.4240.111 Safari/537.36",126,"[0.9, 0.5, 0.1]","[0.8, 0.4, 0.2]","[u'blue', u'black', u'red']","[u'left', u'middle', u'right']","[0.8, 0.4, 0.2]","[u'high', u'medium', u'low']","black",50,"middle","medium","True","False",662,4350,NA
"A3CSE6A6KPZAXR","Fri Oct 30 2020 14:12:39 GMT-0400 (Eastern Daylight Time)","Fri Oct 30 2020 14:26:58 GMT-0400 (Eastern Daylight Time)","Mozilla/5.0 (Windows NT 10.0; WOW64) AppleWebKit/537.36 (KHTML, like Gecko) Chrome/86.0.4240.111 Safari/537.36",127,"[0.9, 0.5, 0.1]","[0.8, 0.4, 0.2]","[u'blue', u'black', u'red']","[u'left', u'middle', u'right']","[0.8, 0.4, 0.2]","[u'high', u'medium', u'low']","red",51,"right","low","True","False",1784,4450,NA
"A3CSE6A6KPZAXR","Fri Oct 30 2020 14:12:39 GMT-0400 (Eastern Daylight Time)","Fri Oct 30 2020 14:26:58 GMT-0400 (Eastern Daylight Time)","Mozilla/5.0 (Windows NT 10.0; WOW64) AppleWebKit/537.36 (KHTML, like Gecko) Chrome/86.0.4240.111 Safari/537.36",128,"[0.9, 0.5, 0.1]","[0.8, 0.4, 0.2]","[u'blue', u'black', u'red']","[u'left', u'middle', u'right']","[0.8, 0.4, 0.2]","[u'high', u'medium', u'low']","blue",49,"left","high","False","False",294,4400,NA
"A3CSE6A6KPZAXR","Fri Oct 30 2020 14:12:39 GMT-0400 (Eastern Daylight Time)","Fri Oct 30 2020 14:26:58 GMT-0400 (Eastern Daylight Time)","Mozilla/5.0 (Windows NT 10.0; WOW64) AppleWebKit/537.36 (KHTML, like Gecko) Chrome/86.0.4240.111 Safari/537.36",129,"[0.9, 0.5, 0.1]","[0.8, 0.4, 0.2]","[u'blue', u'black', u'red']","[u'left', u'middle', u'right']","[0.8, 0.4, 0.2]","[u'high', u'medium', u'low']","black",50,"middle","medium","True","False",326,4500,NA
"A3CSE6A6KPZAXR","Fri Oct 30 2020 14:12:39 GMT-0400 (Eastern Daylight Time)","Fri Oct 30 2020 14:26:58 GMT-0400 (Eastern Daylight Time)","Mozilla/5.0 (Windows NT 10.0; WOW64) AppleWebKit/537.36 (KHTML, like Gecko) Chrome/86.0.4240.111 Safari/537.36",130,"[0.9, 0.5, 0.1]","[0.8, 0.4, 0.2]","[u'blue', u'black', u'red']","[u'left', u'middle', u'right']","[0.8, 0.4, 0.2]","[u'high', u'medium', u'low']","blue",49,"left","high","False","False",680,4450,NA
"A3CSE6A6KPZAXR","Fri Oct 30 2020 14:12:39 GMT-0400 (Eastern Daylight Time)","Fri Oct 30 2020 14:26:58 GMT-0400 (Eastern Daylight Time)","Mozilla/5.0 (Windows NT 10.0; WOW64) AppleWebKit/537.36 (KHTML, like Gecko) Chrome/86.0.4240.111 Safari/537.36",131,"[0.9, 0.5, 0.1]","[0.8, 0.4, 0.2]","[u'blue', u'black', u'red']","[u'left', u'middle', u'right']","[0.8, 0.4, 0.2]","[u'high', u'medium', u'low']","red",51,"right","low","False","False",652,4400,NA
"A3CSE6A6KPZAXR","Fri Oct 30 2020 14:12:39 GMT-0400 (Eastern Daylight Time)","Fri Oct 30 2020 14:26:58 GMT-0400 (Eastern Daylight Time)","Mozilla/5.0 (Windows NT 10.0; WOW64) AppleWebKit/537.36 (KHTML, like Gecko) Chrome/86.0.4240.111 Safari/537.36",132,"[0.9, 0.5, 0.1]","[0.8, 0.4, 0.2]","[u'blue', u'black', u'red']","[u'left', u'middle', u'right']","[0.8, 0.4, 0.2]","[u'high', u'medium', u'low']","black",50,"middle","medium","True","False",1245,4500,NA
"A3CSE6A6KPZAXR","Fri Oct 30 2020 14:12:39 GMT-0400 (Eastern Daylight Time)","Fri Oct 30 2020 14:26:58 GMT-0400 (Eastern Daylight Time)","Mozilla/5.0 (Windows NT 10.0; WOW64) AppleWebKit/537.36 (KHTML, like Gecko) Chrome/86.0.4240.111 Safari/537.36",133,"[0.9, 0.5, 0.1]","[0.8, 0.4, 0.2]","[u'blue', u'black', u'red']","[u'left', u'middle', u'right']","[0.8, 0.4, 0.2]","[u'high', u'medium', u'low']","blue",49,"left","high","False","False",633,4450,NA
"A3CSE6A6KPZAXR","Fri Oct 30 2020 14:12:39 GMT-0400 (Eastern Daylight Time)","Fri Oct 30 2020 14:26:58 GMT-0400 (Eastern Daylight Time)","Mozilla/5.0 (Windows NT 10.0; WOW64) AppleWebKit/537.36 (KHTML, like Gecko) Chrome/86.0.4240.111 Safari/537.36",134,"[0.9, 0.5, 0.1]","[0.8, 0.4, 0.2]","[u'blue', u'black', u'red']","[u'left', u'middle', u'right']","[0.8, 0.4, 0.2]","[u'high', u'medium', u'low']","red",51,"right","low","False","False",2252,4400,NA
"A3CSE6A6KPZAXR","Fri Oct 30 2020 14:12:39 GMT-0400 (Eastern Daylight Time)","Fri Oct 30 2020 14:26:58 GMT-0400 (Eastern Daylight Time)","Mozilla/5.0 (Windows NT 10.0; WOW64) AppleWebKit/537.36 (KHTML, like Gecko) Chrome/86.0.4240.111 Safari/537.36",135,"[0.9, 0.5, 0.1]","[0.8, 0.4, 0.2]","[u'blue', u'black', u'red']","[u'left', u'middle', u'right']","[0.8, 0.4, 0.2]","[u'high', u'medium', u'low']","black",50,"middle","medium","False","False",660,4350,NA
"A3CSE6A6KPZAXR","Fri Oct 30 2020 14:12:39 GMT-0400 (Eastern Daylight Time)","Fri Oct 30 2020 14:26:58 GMT-0400 (Eastern Daylight Time)","Mozilla/5.0 (Windows NT 10.0; WOW64) AppleWebKit/537.36 (KHTML, like Gecko) Chrome/86.0.4240.111 Safari/537.36",136,"[0.9, 0.5, 0.1]","[0.8, 0.4, 0.2]","[u'blue', u'black', u'red']","[u'left', u'middle', u'right']","[0.8, 0.4, 0.2]","[u'high', u'medium', u'low']","blue",49,"left","high","True","False",235,4450,NA
"A3CSE6A6KPZAXR","Fri Oct 30 2020 14:12:39 GMT-0400 (Eastern Daylight Time)","Fri Oct 30 2020 14:26:58 GMT-0400 (Eastern Daylight Time)","Mozilla/5.0 (Windows NT 10.0; WOW64) AppleWebKit/537.36 (KHTML, like Gecko) Chrome/86.0.4240.111 Safari/537.36",137,"[0.9, 0.5, 0.1]","[0.8, 0.4, 0.2]","[u'blue', u'black', u'red']","[u'left', u'middle', u'right']","[0.8, 0.4, 0.2]","[u'high', u'medium', u'low']","red",51,"right","low","False","False",2419,4400,NA
"A3CSE6A6KPZAXR","Fri Oct 30 2020 14:12:39 GMT-0400 (Eastern Daylight Time)","Fri Oct 30 2020 14:26:58 GMT-0400 (Eastern Daylight Time)","Mozilla/5.0 (Windows NT 10.0; WOW64) AppleWebKit/537.36 (KHTML, like Gecko) Chrome/86.0.4240.111 Safari/537.36",138,"[0.9, 0.5, 0.1]","[0.8, 0.4, 0.2]","[u'blue', u'black', u'red']","[u'left', u'middle', u'right']","[0.8, 0.4, 0.2]","[u'high', u'medium', u'low']","black",50,"middle","medium","True","False",1108,4500,NA
"A3CSE6A6KPZAXR","Fri Oct 30 2020 14:12:39 GMT-0400 (Eastern Daylight Time)","Fri Oct 30 2020 14:26:58 GMT-0400 (Eastern Daylight Time)","Mozilla/5.0 (Windows NT 10.0; WOW64) AppleWebKit/537.36 (KHTML, like Gecko) Chrome/86.0.4240.111 Safari/537.36",139,"[0.9, 0.5, 0.1]","[0.8, 0.4, 0.2]","[u'blue', u'black', u'red']","[u'left', u'middle', u'right']","[0.8, 0.4, 0.2]","[u'high', u'medium', u'low']","blue",49,"left","high","True","False",852,4600,NA
"A3CSE6A6KPZAXR","Fri Oct 30 2020 14:12:39 GMT-0400 (Eastern Daylight Time)","Fri Oct 30 2020 14:26:58 GMT-0400 (Eastern Daylight Time)","Mozilla/5.0 (Windows NT 10.0; WOW64) AppleWebKit/537.36 (KHTML, like Gecko) Chrome/86.0.4240.111 Safari/537.36",140,"[0.9, 0.5, 0.1]","[0.8, 0.4, 0.2]","[u'blue', u'black', u'red']","[u'left', u'middle', u'right']","[0.8, 0.4, 0.2]","[u'high', u'medium', u'low']","red",51,"right","low","True","False",326,4700,NA
"A3CSE6A6KPZAXR","Fri Oct 30 2020 14:12:39 GMT-0400 (Eastern Daylight Time)","Fri Oct 30 2020 14:26:58 GMT-0400 (Eastern Daylight Time)","Mozilla/5.0 (Windows NT 10.0; WOW64) AppleWebKit/537.36 (KHTML, like Gecko) Chrome/86.0.4240.111 Safari/537.36",141,"[0.9, 0.5, 0.1]","[0.8, 0.4, 0.2]","[u'blue', u'black', u'red']","[u'left', u'middle', u'right']","[0.8, 0.4, 0.2]","[u'high', u'medium', u'low']","black",50,"middle","medium","False","False",1419,4650,NA
"A3CSE6A6KPZAXR","Fri Oct 30 2020 14:12:39 GMT-0400 (Eastern Daylight Time)","Fri Oct 30 2020 14:26:58 GMT-0400 (Eastern Daylight Time)","Mozilla/5.0 (Windows NT 10.0; WOW64) AppleWebKit/537.36 (KHTML, like Gecko) Chrome/86.0.4240.111 Safari/537.36",142,"[0.9, 0.5, 0.1]","[0.8, 0.4, 0.2]","[u'blue', u'black', u'red']","[u'left', u'middle', u'right']","[0.8, 0.4, 0.2]","[u'high', u'medium', u'low']","blue",49,"left","high","True","False",974,4750,NA
"A3CSE6A6KPZAXR","Fri Oct 30 2020 14:12:39 GMT-0400 (Eastern Daylight Time)","Fri Oct 30 2020 14:26:58 GMT-0400 (Eastern Daylight Time)","Mozilla/5.0 (Windows NT 10.0; WOW64) AppleWebKit/537.36 (KHTML, like Gecko) Chrome/86.0.4240.111 Safari/537.36",143,"[0.9, 0.5, 0.1]","[0.8, 0.4, 0.2]","[u'blue', u'black', u'red']","[u'left', u'middle', u'right']","[0.8, 0.4, 0.2]","[u'high', u'medium', u'low']","red",51,"right","low","False","False",909,4700,NA
"A3CSE6A6KPZAXR","Fri Oct 30 2020 14:12:39 GMT-0400 (Eastern Daylight Time)","Fri Oct 30 2020 14:26:58 GMT-0400 (Eastern Daylight Time)","Mozilla/5.0 (Windows NT 10.0; WOW64) AppleWebKit/537.36 (KHTML, like Gecko) Chrome/86.0.4240.111 Safari/537.36",144,"[0.9, 0.5, 0.1]","[0.8, 0.4, 0.2]","[u'blue', u'black', u'red']","[u'left', u'middle', u'right']","[0.8, 0.4, 0.2]","[u'high', u'medium', u'low']","black",50,"middle","medium","False","False",1008,4650,NA
"A3CSE6A6KPZAXR","Fri Oct 30 2020 14:12:39 GMT-0400 (Eastern Daylight Time)","Fri Oct 30 2020 14:26:58 GMT-0400 (Eastern Daylight Time)","Mozilla/5.0 (Windows NT 10.0; WOW64) AppleWebKit/537.36 (KHTML, like Gecko) Chrome/86.0.4240.111 Safari/537.36",145,"[0.9, 0.5, 0.1]","[0.8, 0.4, 0.2]","[u'blue', u'black', u'red']","[u'left', u'middle', u'right']","[0.8, 0.4, 0.2]","[u'high', u'medium', u'low']","blue",49,"left","high","True","False",1577,4750,NA
"A3CSE6A6KPZAXR","Fri Oct 30 2020 14:12:39 GMT-0400 (Eastern Daylight Time)","Fri Oct 30 2020 14:26:58 GMT-0400 (Eastern Daylight Time)","Mozilla/5.0 (Windows NT 10.0; WOW64) AppleWebKit/537.36 (KHTML, like Gecko) Chrome/86.0.4240.111 Safari/537.36",146,"[0.9, 0.5, 0.1]","[0.8, 0.4, 0.2]","[u'blue', u'black', u'red']","[u'left', u'middle', u'right']","[0.8, 0.4, 0.2]","[u'high', u'medium', u'low']","red",51,"right","low","False","False",910,4700,NA
"A3CSE6A6KPZAXR","Fri Oct 30 2020 14:12:39 GMT-0400 (Eastern Daylight Time)","Fri Oct 30 2020 14:26:58 GMT-0400 (Eastern Daylight Time)","Mozilla/5.0 (Windows NT 10.0; WOW64) AppleWebKit/537.36 (KHTML, like Gecko) Chrome/86.0.4240.111 Safari/537.36",147,"[0.9, 0.5, 0.1]","[0.8, 0.4, 0.2]","[u'blue', u'black', u'red']","[u'left', u'middle', u'right']","[0.8, 0.4, 0.2]","[u'high', u'medium', u'low']","black",50,"middle","medium","True","False",1727,4800,NA
"A3CSE6A6KPZAXR","Fri Oct 30 2020 14:12:39 GMT-0400 (Eastern Daylight Time)","Fri Oct 30 2020 14:26:58 GMT-0400 (Eastern Daylight Time)","Mozilla/5.0 (Windows NT 10.0; WOW64) AppleWebKit/537.36 (KHTML, like Gecko) Chrome/86.0.4240.111 Safari/537.36",148,"[0.9, 0.5, 0.1]","[0.8, 0.4, 0.2]","[u'blue', u'black', u'red']","[u'left', u'middle', u'right']","[0.8, 0.4, 0.2]","[u'high', u'medium', u'low']","black",50,"middle","medium","False","False",7263,4750,NA
"A3CSE6A6KPZAXR","Fri Oct 30 2020 14:12:39 GMT-0400 (Eastern Daylight Time)","Fri Oct 30 2020 14:26:58 GMT-0400 (Eastern Daylight Time)","Mozilla/5.0 (Windows NT 10.0; WOW64) AppleWebKit/537.36 (KHTML, like Gecko) Chrome/86.0.4240.111 Safari/537.36",149,"[0.9, 0.5, 0.1]","[0.8, 0.4, 0.2]","[u'blue', u'black', u'red']","[u'left', u'middle', u'right']","[0.8, 0.4, 0.2]","[u'high', u'medium', u'low']","black",50,"middle","medium","False","False",854,4700,NA
"A3CSE6A6KPZAXR","Fri Oct 30 2020 14:12:39 GMT-0400 (Eastern Daylight Time)","Fri Oct 30 2020 14:26:58 GMT-0400 (Eastern Daylight Time)","Mozilla/5.0 (Windows NT 10.0; WOW64) AppleWebKit/537.36 (KHTML, like Gecko) Chrome/86.0.4240.111 Safari/537.36",150,"[0.9, 0.5, 0.1]","[0.8, 0.4, 0.2]","[u'blue', u'black', u'red']","[u'left', u'middle', u'right']","[0.8, 0.4, 0.2]","[u'high', u'medium', u'low']","blue",49,"left","high","True","False",23,4800,NA
"A3CSE6A6KPZAXR","Fri Oct 30 2020 14:12:39 GMT-0400 (Eastern Daylight Time)","Fri Oct 30 2020 14:26:58 GMT-0400 (Eastern Daylight Time)","Mozilla/5.0 (Windows NT 10.0; WOW64) AppleWebKit/537.36 (KHTML, like Gecko) Chrome/86.0.4240.111 Safari/537.36",151,"[0.9, 0.5, 0.1]","[0.8, 0.4, 0.2]","[u'blue', u'black', u'red']","[u'left', u'middle', u'right']","[0.8, 0.4, 0.2]","[u'high', u'medium', u'low']","black",50,"middle","medium","False","False",18535,4750,NA
"A3CSE6A6KPZAXR","Fri Oct 30 2020 14:12:39 GMT-0400 (Eastern Daylight Time)","Fri Oct 30 2020 14:26:58 GMT-0400 (Eastern Daylight Time)","Mozilla/5.0 (Windows NT 10.0; WOW64) AppleWebKit/537.36 (KHTML, like Gecko) Chrome/86.0.4240.111 Safari/537.36",152,"[0.9, 0.5, 0.1]","[0.8, 0.4, 0.2]","[u'blue', u'black', u'red']","[u'left', u'middle', u'right']","[0.8, 0.4, 0.2]","[u'high', u'medium', u'low']","blue",49,"left","high","False","False",5552,4700,NA
"A3CSE6A6KPZAXR","Fri Oct 30 2020 14:12:39 GMT-0400 (Eastern Daylight Time)","Fri Oct 30 2020 14:26:58 GMT-0400 (Eastern Daylight Time)","Mozilla/5.0 (Windows NT 10.0; WOW64) AppleWebKit/537.36 (KHTML, like Gecko) Chrome/86.0.4240.111 Safari/537.36",153,"[0.9, 0.5, 0.1]","[0.8, 0.4, 0.2]","[u'blue', u'black', u'red']","[u'left', u'middle', u'right']","[0.8, 0.4, 0.2]","[u'high', u'medium', u'low']","black",50,"middle","medium","False","False",2623,4650,NA
"A3CSE6A6KPZAXR","Fri Oct 30 2020 14:12:39 GMT-0400 (Eastern Daylight Time)","Fri Oct 30 2020 14:26:58 GMT-0400 (Eastern Daylight Time)","Mozilla/5.0 (Windows NT 10.0; WOW64) AppleWebKit/537.36 (KHTML, like Gecko) Chrome/86.0.4240.111 Safari/537.36",154,"[0.9, 0.5, 0.1]","[0.8, 0.4, 0.2]","[u'blue', u'black', u'red']","[u'left', u'middle', u'right']","[0.8, 0.4, 0.2]","[u'high', u'medium', u'low']","blue",49,"left","high","True","False",1333,4750,NA
"A3CSE6A6KPZAXR","Fri Oct 30 2020 14:12:39 GMT-0400 (Eastern Daylight Time)","Fri Oct 30 2020 14:26:58 GMT-0400 (Eastern Daylight Time)","Mozilla/5.0 (Windows NT 10.0; WOW64) AppleWebKit/537.36 (KHTML, like Gecko) Chrome/86.0.4240.111 Safari/537.36",155,"[0.9, 0.5, 0.1]","[0.8, 0.4, 0.2]","[u'blue', u'black', u'red']","[u'left', u'middle', u'right']","[0.8, 0.4, 0.2]","[u'high', u'medium', u'low']","black",50,"middle","medium","False","False",2199,4700,NA
"A3CSE6A6KPZAXR","Fri Oct 30 2020 14:12:39 GMT-0400 (Eastern Daylight Time)","Fri Oct 30 2020 14:26:58 GMT-0400 (Eastern Daylight Time)","Mozilla/5.0 (Windows NT 10.0; WOW64) AppleWebKit/537.36 (KHTML, like Gecko) Chrome/86.0.4240.111 Safari/537.36",156,"[0.9, 0.5, 0.1]","[0.8, 0.4, 0.2]","[u'blue', u'black', u'red']","[u'left', u'middle', u'right']","[0.8, 0.4, 0.2]","[u'high', u'medium', u'low']","red",51,"right","low","False","False",2039,4650,NA
"A3CSE6A6KPZAXR","Fri Oct 30 2020 14:12:39 GMT-0400 (Eastern Daylight Time)","Fri Oct 30 2020 14:26:58 GMT-0400 (Eastern Daylight Time)","Mozilla/5.0 (Windows NT 10.0; WOW64) AppleWebKit/537.36 (KHTML, like Gecko) Chrome/86.0.4240.111 Safari/537.36",157,"[0.9, 0.5, 0.1]","[0.8, 0.4, 0.2]","[u'blue', u'black', u'red']","[u'left', u'middle', u'right']","[0.8, 0.4, 0.2]","[u'high', u'medium', u'low']","blue",49,"left","high","True","False",754,4750,NA
"A3CSE6A6KPZAXR","Fri Oct 30 2020 14:12:39 GMT-0400 (Eastern Daylight Time)","Fri Oct 30 2020 14:26:58 GMT-0400 (Eastern Daylight Time)","Mozilla/5.0 (Windows NT 10.0; WOW64) AppleWebKit/537.36 (KHTML, like Gecko) Chrome/86.0.4240.111 Safari/537.36",158,"[0.9, 0.5, 0.1]","[0.8, 0.4, 0.2]","[u'blue', u'black', u'red']","[u'left', u'middle', u'right']","[0.8, 0.4, 0.2]","[u'high', u'medium', u'low']","black",50,"middle","medium","False","False",906,4700,NA
"A3CSE6A6KPZAXR","Fri Oct 30 2020 14:12:39 GMT-0400 (Eastern Daylight Time)","Fri Oct 30 2020 14:26:58 GMT-0400 (Eastern Daylight Time)","Mozilla/5.0 (Windows NT 10.0; WOW64) AppleWebKit/537.36 (KHTML, like Gecko) Chrome/86.0.4240.111 Safari/537.36",159,"[0.9, 0.5, 0.1]","[0.8, 0.4, 0.2]","[u'blue', u'black', u'red']","[u'left', u'middle', u'right']","[0.8, 0.4, 0.2]","[u'high', u'medium', u'low']","red",51,"right","low","False","False",642,4650,NA
"A3CSE6A6KPZAXR","Fri Oct 30 2020 14:12:39 GMT-0400 (Eastern Daylight Time)","Fri Oct 30 2020 14:26:58 GMT-0400 (Eastern Daylight Time)","Mozilla/5.0 (Windows NT 10.0; WOW64) AppleWebKit/537.36 (KHTML, like Gecko) Chrome/86.0.4240.111 Safari/537.36",160,"[0.9, 0.5, 0.1]","[0.8, 0.4, 0.2]","[u'blue', u'black', u'red']","[u'left', u'middle', u'right']","[0.8, 0.4, 0.2]","[u'high', u'medium', u'low']","black",50,"middle","medium","False","False",678,4600,NA
