"src_subject_id","start_time","end_time","browser","index","first_half_probabilities","second_half_probabilities","deck_color","deck_position","deck_probabilities","deck_contingencies","response_color","key_press","response_position","response_probability","reward_type","trial_type","rt","reward_tally","exclusion_reason"
"A3HFS6Q0TONAB9","Fri Oct 30 2020 14:35:51 GMT-0400 (Cuba Daylight Time)","Fri Oct 30 2020 14:44:14 GMT-0400 (Cuba Daylight Time)","Mozilla/5.0 (Windows NT 10.0; Win64; x64) AppleWebKit/537.36 (KHTML, like Gecko) Chrome/86.0.4240.111 Safari/537.36",1,"[0.9, 0.5, 0.1]","[0.8, 0.4, 0.2]","[u'red', u'black', u'blue']","[u'left', u'middle', u'right']","[0.9, 0.5, 0.1]","[u'medium', u'high', u'low']","red",49,"left","medium","False","False",1433,-50,NA
"A3HFS6Q0TONAB9","Fri Oct 30 2020 14:35:51 GMT-0400 (Cuba Daylight Time)","Fri Oct 30 2020 14:44:14 GMT-0400 (Cuba Daylight Time)","Mozilla/5.0 (Windows NT 10.0; Win64; x64) AppleWebKit/537.36 (KHTML, like Gecko) Chrome/86.0.4240.111 Safari/537.36",2,"[0.9, 0.5, 0.1]","[0.8, 0.4, 0.2]","[u'red', u'black', u'blue']","[u'left', u'middle', u'right']","[0.9, 0.5, 0.1]","[u'medium', u'high', u'low']","blue",51,"right","low","False","False",326,-100,NA
"A3HFS6Q0TONAB9","Fri Oct 30 2020 14:35:51 GMT-0400 (Cuba Daylight Time)","Fri Oct 30 2020 14:44:14 GMT-0400 (Cuba Daylight Time)","Mozilla/5.0 (Windows NT 10.0; Win64; x64) AppleWebKit/537.36 (KHTML, like Gecko) Chrome/86.0.4240.111 Safari/537.36",3,"[0.9, 0.5, 0.1]","[0.8, 0.4, 0.2]","[u'red', u'black', u'blue']","[u'left', u'middle', u'right']","[0.9, 0.5, 0.1]","[u'medium', u'high', u'low']","black",50,"middle","high","True","False",391,0,NA
"A3HFS6Q0TONAB9","Fri Oct 30 2020 14:35:51 GMT-0400 (Cuba Daylight Time)","Fri Oct 30 2020 14:44:14 GMT-0400 (Cuba Daylight Time)","Mozilla/5.0 (Windows NT 10.0; Win64; x64) AppleWebKit/537.36 (KHTML, like Gecko) Chrome/86.0.4240.111 Safari/537.36",4,"[0.9, 0.5, 0.1]","[0.8, 0.4, 0.2]","[u'red', u'black', u'blue']","[u'left', u'middle', u'right']","[0.9, 0.5, 0.1]","[u'medium', u'high', u'low']","black",50,"middle","high","True","False",275,100,NA
"A3HFS6Q0TONAB9","Fri Oct 30 2020 14:35:51 GMT-0400 (Cuba Daylight Time)","Fri Oct 30 2020 14:44:14 GMT-0400 (Cuba Daylight Time)","Mozilla/5.0 (Windows NT 10.0; Win64; x64) AppleWebKit/537.36 (KHTML, like Gecko) Chrome/86.0.4240.111 Safari/537.36",5,"[0.9, 0.5, 0.1]","[0.8, 0.4, 0.2]","[u'red', u'black', u'blue']","[u'left', u'middle', u'right']","[0.9, 0.5, 0.1]","[u'medium', u'high', u'low']","black",50,"middle","high","True","False",661,200,NA
"A3HFS6Q0TONAB9","Fri Oct 30 2020 14:35:51 GMT-0400 (Cuba Daylight Time)","Fri Oct 30 2020 14:44:14 GMT-0400 (Cuba Daylight Time)","Mozilla/5.0 (Windows NT 10.0; Win64; x64) AppleWebKit/537.36 (KHTML, like Gecko) Chrome/86.0.4240.111 Safari/537.36",6,"[0.9, 0.5, 0.1]","[0.8, 0.4, 0.2]","[u'red', u'black', u'blue']","[u'left', u'middle', u'right']","[0.9, 0.5, 0.1]","[u'medium', u'high', u'low']","black",50,"middle","high","False","False",700,150,NA
"A3HFS6Q0TONAB9","Fri Oct 30 2020 14:35:51 GMT-0400 (Cuba Daylight Time)","Fri Oct 30 2020 14:44:14 GMT-0400 (Cuba Daylight Time)","Mozilla/5.0 (Windows NT 10.0; Win64; x64) AppleWebKit/537.36 (KHTML, like Gecko) Chrome/86.0.4240.111 Safari/537.36",7,"[0.9, 0.5, 0.1]","[0.8, 0.4, 0.2]","[u'red', u'black', u'blue']","[u'left', u'middle', u'right']","[0.9, 0.5, 0.1]","[u'medium', u'high', u'low']","black",50,"middle","high","True","False",328,250,NA
"A3HFS6Q0TONAB9","Fri Oct 30 2020 14:35:51 GMT-0400 (Cuba Daylight Time)","Fri Oct 30 2020 14:44:14 GMT-0400 (Cuba Daylight Time)","Mozilla/5.0 (Windows NT 10.0; Win64; x64) AppleWebKit/537.36 (KHTML, like Gecko) Chrome/86.0.4240.111 Safari/537.36",8,"[0.9, 0.5, 0.1]","[0.8, 0.4, 0.2]","[u'red', u'black', u'blue']","[u'left', u'middle', u'right']","[0.9, 0.5, 0.1]","[u'medium', u'high', u'low']","black",50,"middle","high","True","False",813,350,NA
"A3HFS6Q0TONAB9","Fri Oct 30 2020 14:35:51 GMT-0400 (Cuba Daylight Time)","Fri Oct 30 2020 14:44:14 GMT-0400 (Cuba Daylight Time)","Mozilla/5.0 (Windows NT 10.0; Win64; x64) AppleWebKit/537.36 (KHTML, like Gecko) Chrome/86.0.4240.111 Safari/537.36",9,"[0.9, 0.5, 0.1]","[0.8, 0.4, 0.2]","[u'red', u'black', u'blue']","[u'left', u'middle', u'right']","[0.9, 0.5, 0.1]","[u'medium', u'high', u'low']","blue",51,"right","low","False","False",1219,300,NA
"A3HFS6Q0TONAB9","Fri Oct 30 2020 14:35:51 GMT-0400 (Cuba Daylight Time)","Fri Oct 30 2020 14:44:14 GMT-0400 (Cuba Daylight Time)","Mozilla/5.0 (Windows NT 10.0; Win64; x64) AppleWebKit/537.36 (KHTML, like Gecko) Chrome/86.0.4240.111 Safari/537.36",10,"[0.9, 0.5, 0.1]","[0.8, 0.4, 0.2]","[u'red', u'black', u'blue']","[u'left', u'middle', u'right']","[0.9, 0.5, 0.1]","[u'medium', u'high', u'low']","black",50,"middle","high","False","False",309,250,NA
"A3HFS6Q0TONAB9","Fri Oct 30 2020 14:35:51 GMT-0400 (Cuba Daylight Time)","Fri Oct 30 2020 14:44:14 GMT-0400 (Cuba Daylight Time)","Mozilla/5.0 (Windows NT 10.0; Win64; x64) AppleWebKit/537.36 (KHTML, like Gecko) Chrome/86.0.4240.111 Safari/537.36",11,"[0.9, 0.5, 0.1]","[0.8, 0.4, 0.2]","[u'red', u'black', u'blue']","[u'left', u'middle', u'right']","[0.9, 0.5, 0.1]","[u'medium', u'high', u'low']","red",49,"left","medium","True","False",448,350,NA
"A3HFS6Q0TONAB9","Fri Oct 30 2020 14:35:51 GMT-0400 (Cuba Daylight Time)","Fri Oct 30 2020 14:44:14 GMT-0400 (Cuba Daylight Time)","Mozilla/5.0 (Windows NT 10.0; Win64; x64) AppleWebKit/537.36 (KHTML, like Gecko) Chrome/86.0.4240.111 Safari/537.36",12,"[0.9, 0.5, 0.1]","[0.8, 0.4, 0.2]","[u'red', u'black', u'blue']","[u'left', u'middle', u'right']","[0.9, 0.5, 0.1]","[u'medium', u'high', u'low']","black",50,"middle","high","True","False",356,450,NA
"A3HFS6Q0TONAB9","Fri Oct 30 2020 14:35:51 GMT-0400 (Cuba Daylight Time)","Fri Oct 30 2020 14:44:14 GMT-0400 (Cuba Daylight Time)","Mozilla/5.0 (Windows NT 10.0; Win64; x64) AppleWebKit/537.36 (KHTML, like Gecko) Chrome/86.0.4240.111 Safari/537.36",13,"[0.9, 0.5, 0.1]","[0.8, 0.4, 0.2]","[u'red', u'black', u'blue']","[u'left', u'middle', u'right']","[0.9, 0.5, 0.1]","[u'medium', u'high', u'low']","black",50,"middle","high","True","False",433,550,NA
"A3HFS6Q0TONAB9","Fri Oct 30 2020 14:35:51 GMT-0400 (Cuba Daylight Time)","Fri Oct 30 2020 14:44:14 GMT-0400 (Cuba Daylight Time)","Mozilla/5.0 (Windows NT 10.0; Win64; x64) AppleWebKit/537.36 (KHTML, like Gecko) Chrome/86.0.4240.111 Safari/537.36",14,"[0.9, 0.5, 0.1]","[0.8, 0.4, 0.2]","[u'red', u'black', u'blue']","[u'left', u'middle', u'right']","[0.9, 0.5, 0.1]","[u'medium', u'high', u'low']","black",50,"middle","high","True","False",592,650,NA
"A3HFS6Q0TONAB9","Fri Oct 30 2020 14:35:51 GMT-0400 (Cuba Daylight Time)","Fri Oct 30 2020 14:44:14 GMT-0400 (Cuba Daylight Time)","Mozilla/5.0 (Windows NT 10.0; Win64; x64) AppleWebKit/537.36 (KHTML, like Gecko) Chrome/86.0.4240.111 Safari/537.36",15,"[0.9, 0.5, 0.1]","[0.8, 0.4, 0.2]","[u'red', u'black', u'blue']","[u'left', u'middle', u'right']","[0.9, 0.5, 0.1]","[u'medium', u'high', u'low']","black",50,"middle","high","True","False",378,750,NA
"A3HFS6Q0TONAB9","Fri Oct 30 2020 14:35:51 GMT-0400 (Cuba Daylight Time)","Fri Oct 30 2020 14:44:14 GMT-0400 (Cuba Daylight Time)","Mozilla/5.0 (Windows NT 10.0; Win64; x64) AppleWebKit/537.36 (KHTML, like Gecko) Chrome/86.0.4240.111 Safari/537.36",16,"[0.9, 0.5, 0.1]","[0.8, 0.4, 0.2]","[u'red', u'black', u'blue']","[u'left', u'middle', u'right']","[0.9, 0.5, 0.1]","[u'medium', u'high', u'low']","black",50,"middle","high","True","False",344,850,NA
"A3HFS6Q0TONAB9","Fri Oct 30 2020 14:35:51 GMT-0400 (Cuba Daylight Time)","Fri Oct 30 2020 14:44:14 GMT-0400 (Cuba Daylight Time)","Mozilla/5.0 (Windows NT 10.0; Win64; x64) AppleWebKit/537.36 (KHTML, like Gecko) Chrome/86.0.4240.111 Safari/537.36",17,"[0.9, 0.5, 0.1]","[0.8, 0.4, 0.2]","[u'red', u'black', u'blue']","[u'left', u'middle', u'right']","[0.9, 0.5, 0.1]","[u'medium', u'high', u'low']","black",50,"middle","high","True","False",337,950,NA
"A3HFS6Q0TONAB9","Fri Oct 30 2020 14:35:51 GMT-0400 (Cuba Daylight Time)","Fri Oct 30 2020 14:44:14 GMT-0400 (Cuba Daylight Time)","Mozilla/5.0 (Windows NT 10.0; Win64; x64) AppleWebKit/537.36 (KHTML, like Gecko) Chrome/86.0.4240.111 Safari/537.36",18,"[0.9, 0.5, 0.1]","[0.8, 0.4, 0.2]","[u'red', u'black', u'blue']","[u'left', u'middle', u'right']","[0.9, 0.5, 0.1]","[u'medium', u'high', u'low']","black",50,"middle","high","True","False",301,1050,NA
"A3HFS6Q0TONAB9","Fri Oct 30 2020 14:35:51 GMT-0400 (Cuba Daylight Time)","Fri Oct 30 2020 14:44:14 GMT-0400 (Cuba Daylight Time)","Mozilla/5.0 (Windows NT 10.0; Win64; x64) AppleWebKit/537.36 (KHTML, like Gecko) Chrome/86.0.4240.111 Safari/537.36",19,"[0.9, 0.5, 0.1]","[0.8, 0.4, 0.2]","[u'red', u'black', u'blue']","[u'left', u'middle', u'right']","[0.9, 0.5, 0.1]","[u'medium', u'high', u'low']","black",50,"middle","high","True","False",296,1150,NA
"A3HFS6Q0TONAB9","Fri Oct 30 2020 14:35:51 GMT-0400 (Cuba Daylight Time)","Fri Oct 30 2020 14:44:14 GMT-0400 (Cuba Daylight Time)","Mozilla/5.0 (Windows NT 10.0; Win64; x64) AppleWebKit/537.36 (KHTML, like Gecko) Chrome/86.0.4240.111 Safari/537.36",20,"[0.9, 0.5, 0.1]","[0.8, 0.4, 0.2]","[u'red', u'black', u'blue']","[u'left', u'middle', u'right']","[0.9, 0.5, 0.1]","[u'medium', u'high', u'low']","black",50,"middle","high","True","True",294,1250,NA
"A3HFS6Q0TONAB9","Fri Oct 30 2020 14:35:51 GMT-0400 (Cuba Daylight Time)","Fri Oct 30 2020 14:44:14 GMT-0400 (Cuba Daylight Time)","Mozilla/5.0 (Windows NT 10.0; Win64; x64) AppleWebKit/537.36 (KHTML, like Gecko) Chrome/86.0.4240.111 Safari/537.36",21,"[0.9, 0.5, 0.1]","[0.8, 0.4, 0.2]","[u'red', u'black', u'blue']","[u'left', u'middle', u'right']","[0.9, 0.5, 0.1]","[u'medium', u'low', u'high']","black",50,"middle","low","True","False",291,1350,NA
"A3HFS6Q0TONAB9","Fri Oct 30 2020 14:35:51 GMT-0400 (Cuba Daylight Time)","Fri Oct 30 2020 14:44:14 GMT-0400 (Cuba Daylight Time)","Mozilla/5.0 (Windows NT 10.0; Win64; x64) AppleWebKit/537.36 (KHTML, like Gecko) Chrome/86.0.4240.111 Safari/537.36",22,"[0.9, 0.5, 0.1]","[0.8, 0.4, 0.2]","[u'red', u'black', u'blue']","[u'left', u'middle', u'right']","[0.9, 0.5, 0.1]","[u'medium', u'low', u'high']","black",50,"middle","low","False","False",62,1300,NA
"A3HFS6Q0TONAB9","Fri Oct 30 2020 14:35:51 GMT-0400 (Cuba Daylight Time)","Fri Oct 30 2020 14:44:14 GMT-0400 (Cuba Daylight Time)","Mozilla/5.0 (Windows NT 10.0; Win64; x64) AppleWebKit/537.36 (KHTML, like Gecko) Chrome/86.0.4240.111 Safari/537.36",23,"[0.9, 0.5, 0.1]","[0.8, 0.4, 0.2]","[u'red', u'black', u'blue']","[u'left', u'middle', u'right']","[0.9, 0.5, 0.1]","[u'medium', u'low', u'high']","black",50,"middle","low","False","False",348,1250,NA
"A3HFS6Q0TONAB9","Fri Oct 30 2020 14:35:51 GMT-0400 (Cuba Daylight Time)","Fri Oct 30 2020 14:44:14 GMT-0400 (Cuba Daylight Time)","Mozilla/5.0 (Windows NT 10.0; Win64; x64) AppleWebKit/537.36 (KHTML, like Gecko) Chrome/86.0.4240.111 Safari/537.36",24,"[0.9, 0.5, 0.1]","[0.8, 0.4, 0.2]","[u'red', u'black', u'blue']","[u'left', u'middle', u'right']","[0.9, 0.5, 0.1]","[u'medium', u'low', u'high']","red",49,"left","medium","False","False",415,1200,NA
"A3HFS6Q0TONAB9","Fri Oct 30 2020 14:35:51 GMT-0400 (Cuba Daylight Time)","Fri Oct 30 2020 14:44:14 GMT-0400 (Cuba Daylight Time)","Mozilla/5.0 (Windows NT 10.0; Win64; x64) AppleWebKit/537.36 (KHTML, like Gecko) Chrome/86.0.4240.111 Safari/537.36",25,"[0.9, 0.5, 0.1]","[0.8, 0.4, 0.2]","[u'red', u'black', u'blue']","[u'left', u'middle', u'right']","[0.9, 0.5, 0.1]","[u'medium', u'low', u'high']","black",50,"middle","low","False","False",577,1150,NA
"A3HFS6Q0TONAB9","Fri Oct 30 2020 14:35:51 GMT-0400 (Cuba Daylight Time)","Fri Oct 30 2020 14:44:14 GMT-0400 (Cuba Daylight Time)","Mozilla/5.0 (Windows NT 10.0; Win64; x64) AppleWebKit/537.36 (KHTML, like Gecko) Chrome/86.0.4240.111 Safari/537.36",26,"[0.9, 0.5, 0.1]","[0.8, 0.4, 0.2]","[u'red', u'black', u'blue']","[u'left', u'middle', u'right']","[0.9, 0.5, 0.1]","[u'medium', u'low', u'high']","blue",51,"right","high","True","False",460,1250,NA
"A3HFS6Q0TONAB9","Fri Oct 30 2020 14:35:51 GMT-0400 (Cuba Daylight Time)","Fri Oct 30 2020 14:44:14 GMT-0400 (Cuba Daylight Time)","Mozilla/5.0 (Windows NT 10.0; Win64; x64) AppleWebKit/537.36 (KHTML, like Gecko) Chrome/86.0.4240.111 Safari/537.36",27,"[0.9, 0.5, 0.1]","[0.8, 0.4, 0.2]","[u'red', u'black', u'blue']","[u'left', u'middle', u'right']","[0.9, 0.5, 0.1]","[u'medium', u'low', u'high']","blue",51,"right","high","True","False",362,1350,NA
"A3HFS6Q0TONAB9","Fri Oct 30 2020 14:35:51 GMT-0400 (Cuba Daylight Time)","Fri Oct 30 2020 14:44:14 GMT-0400 (Cuba Daylight Time)","Mozilla/5.0 (Windows NT 10.0; Win64; x64) AppleWebKit/537.36 (KHTML, like Gecko) Chrome/86.0.4240.111 Safari/537.36",28,"[0.9, 0.5, 0.1]","[0.8, 0.4, 0.2]","[u'red', u'black', u'blue']","[u'left', u'middle', u'right']","[0.9, 0.5, 0.1]","[u'medium', u'low', u'high']","blue",51,"right","high","True","False",350,1450,NA
"A3HFS6Q0TONAB9","Fri Oct 30 2020 14:35:51 GMT-0400 (Cuba Daylight Time)","Fri Oct 30 2020 14:44:14 GMT-0400 (Cuba Daylight Time)","Mozilla/5.0 (Windows NT 10.0; Win64; x64) AppleWebKit/537.36 (KHTML, like Gecko) Chrome/86.0.4240.111 Safari/537.36",29,"[0.9, 0.5, 0.1]","[0.8, 0.4, 0.2]","[u'red', u'black', u'blue']","[u'left', u'middle', u'right']","[0.9, 0.5, 0.1]","[u'medium', u'low', u'high']","blue",51,"right","high","True","False",302,1550,NA
"A3HFS6Q0TONAB9","Fri Oct 30 2020 14:35:51 GMT-0400 (Cuba Daylight Time)","Fri Oct 30 2020 14:44:14 GMT-0400 (Cuba Daylight Time)","Mozilla/5.0 (Windows NT 10.0; Win64; x64) AppleWebKit/537.36 (KHTML, like Gecko) Chrome/86.0.4240.111 Safari/537.36",30,"[0.9, 0.5, 0.1]","[0.8, 0.4, 0.2]","[u'red', u'black', u'blue']","[u'left', u'middle', u'right']","[0.9, 0.5, 0.1]","[u'medium', u'low', u'high']","blue",51,"right","high","True","False",38,1650,NA
"A3HFS6Q0TONAB9","Fri Oct 30 2020 14:35:51 GMT-0400 (Cuba Daylight Time)","Fri Oct 30 2020 14:44:14 GMT-0400 (Cuba Daylight Time)","Mozilla/5.0 (Windows NT 10.0; Win64; x64) AppleWebKit/537.36 (KHTML, like Gecko) Chrome/86.0.4240.111 Safari/537.36",31,"[0.9, 0.5, 0.1]","[0.8, 0.4, 0.2]","[u'red', u'black', u'blue']","[u'left', u'middle', u'right']","[0.9, 0.5, 0.1]","[u'medium', u'low', u'high']","blue",51,"right","high","True","False",361,1750,NA
"A3HFS6Q0TONAB9","Fri Oct 30 2020 14:35:51 GMT-0400 (Cuba Daylight Time)","Fri Oct 30 2020 14:44:14 GMT-0400 (Cuba Daylight Time)","Mozilla/5.0 (Windows NT 10.0; Win64; x64) AppleWebKit/537.36 (KHTML, like Gecko) Chrome/86.0.4240.111 Safari/537.36",32,"[0.9, 0.5, 0.1]","[0.8, 0.4, 0.2]","[u'red', u'black', u'blue']","[u'left', u'middle', u'right']","[0.9, 0.5, 0.1]","[u'medium', u'low', u'high']","blue",51,"right","high","True","False",284,1850,NA
"A3HFS6Q0TONAB9","Fri Oct 30 2020 14:35:51 GMT-0400 (Cuba Daylight Time)","Fri Oct 30 2020 14:44:14 GMT-0400 (Cuba Daylight Time)","Mozilla/5.0 (Windows NT 10.0; Win64; x64) AppleWebKit/537.36 (KHTML, like Gecko) Chrome/86.0.4240.111 Safari/537.36",33,"[0.9, 0.5, 0.1]","[0.8, 0.4, 0.2]","[u'red', u'black', u'blue']","[u'left', u'middle', u'right']","[0.9, 0.5, 0.1]","[u'medium', u'low', u'high']","blue",51,"right","high","True","False",268,1950,NA
"A3HFS6Q0TONAB9","Fri Oct 30 2020 14:35:51 GMT-0400 (Cuba Daylight Time)","Fri Oct 30 2020 14:44:14 GMT-0400 (Cuba Daylight Time)","Mozilla/5.0 (Windows NT 10.0; Win64; x64) AppleWebKit/537.36 (KHTML, like Gecko) Chrome/86.0.4240.111 Safari/537.36",34,"[0.9, 0.5, 0.1]","[0.8, 0.4, 0.2]","[u'red', u'black', u'blue']","[u'left', u'middle', u'right']","[0.9, 0.5, 0.1]","[u'medium', u'low', u'high']","blue",51,"right","high","True","True",322,2050,NA
"A3HFS6Q0TONAB9","Fri Oct 30 2020 14:35:51 GMT-0400 (Cuba Daylight Time)","Fri Oct 30 2020 14:44:14 GMT-0400 (Cuba Daylight Time)","Mozilla/5.0 (Windows NT 10.0; Win64; x64) AppleWebKit/537.36 (KHTML, like Gecko) Chrome/86.0.4240.111 Safari/537.36",35,"[0.9, 0.5, 0.1]","[0.8, 0.4, 0.2]","[u'red', u'black', u'blue']","[u'left', u'middle', u'right']","[0.9, 0.5, 0.1]","[u'medium', u'high', u'low']","blue",51,"right","low","False","False",282,2000,NA
"A3HFS6Q0TONAB9","Fri Oct 30 2020 14:35:51 GMT-0400 (Cuba Daylight Time)","Fri Oct 30 2020 14:44:14 GMT-0400 (Cuba Daylight Time)","Mozilla/5.0 (Windows NT 10.0; Win64; x64) AppleWebKit/537.36 (KHTML, like Gecko) Chrome/86.0.4240.111 Safari/537.36",36,"[0.9, 0.5, 0.1]","[0.8, 0.4, 0.2]","[u'red', u'black', u'blue']","[u'left', u'middle', u'right']","[0.9, 0.5, 0.1]","[u'medium', u'high', u'low']","black",50,"middle","high","True","False",461,2100,NA
"A3HFS6Q0TONAB9","Fri Oct 30 2020 14:35:51 GMT-0400 (Cuba Daylight Time)","Fri Oct 30 2020 14:44:14 GMT-0400 (Cuba Daylight Time)","Mozilla/5.0 (Windows NT 10.0; Win64; x64) AppleWebKit/537.36 (KHTML, like Gecko) Chrome/86.0.4240.111 Safari/537.36",37,"[0.9, 0.5, 0.1]","[0.8, 0.4, 0.2]","[u'red', u'black', u'blue']","[u'left', u'middle', u'right']","[0.9, 0.5, 0.1]","[u'medium', u'high', u'low']","black",50,"middle","high","True","False",202,2200,NA
"A3HFS6Q0TONAB9","Fri Oct 30 2020 14:35:51 GMT-0400 (Cuba Daylight Time)","Fri Oct 30 2020 14:44:14 GMT-0400 (Cuba Daylight Time)","Mozilla/5.0 (Windows NT 10.0; Win64; x64) AppleWebKit/537.36 (KHTML, like Gecko) Chrome/86.0.4240.111 Safari/537.36",38,"[0.9, 0.5, 0.1]","[0.8, 0.4, 0.2]","[u'red', u'black', u'blue']","[u'left', u'middle', u'right']","[0.9, 0.5, 0.1]","[u'medium', u'high', u'low']","black",50,"middle","high","True","False",38,2300,NA
"A3HFS6Q0TONAB9","Fri Oct 30 2020 14:35:51 GMT-0400 (Cuba Daylight Time)","Fri Oct 30 2020 14:44:14 GMT-0400 (Cuba Daylight Time)","Mozilla/5.0 (Windows NT 10.0; Win64; x64) AppleWebKit/537.36 (KHTML, like Gecko) Chrome/86.0.4240.111 Safari/537.36",39,"[0.9, 0.5, 0.1]","[0.8, 0.4, 0.2]","[u'red', u'black', u'blue']","[u'left', u'middle', u'right']","[0.9, 0.5, 0.1]","[u'medium', u'high', u'low']","black",50,"middle","high","True","False",417,2400,NA
"A3HFS6Q0TONAB9","Fri Oct 30 2020 14:35:51 GMT-0400 (Cuba Daylight Time)","Fri Oct 30 2020 14:44:14 GMT-0400 (Cuba Daylight Time)","Mozilla/5.0 (Windows NT 10.0; Win64; x64) AppleWebKit/537.36 (KHTML, like Gecko) Chrome/86.0.4240.111 Safari/537.36",40,"[0.9, 0.5, 0.1]","[0.8, 0.4, 0.2]","[u'red', u'black', u'blue']","[u'left', u'middle', u'right']","[0.9, 0.5, 0.1]","[u'medium', u'high', u'low']","black",50,"middle","high","True","False",501,2500,NA
"A3HFS6Q0TONAB9","Fri Oct 30 2020 14:35:51 GMT-0400 (Cuba Daylight Time)","Fri Oct 30 2020 14:44:14 GMT-0400 (Cuba Daylight Time)","Mozilla/5.0 (Windows NT 10.0; Win64; x64) AppleWebKit/537.36 (KHTML, like Gecko) Chrome/86.0.4240.111 Safari/537.36",41,"[0.9, 0.5, 0.1]","[0.8, 0.4, 0.2]","[u'red', u'black', u'blue']","[u'left', u'middle', u'right']","[0.9, 0.5, 0.1]","[u'high', u'medium', u'low']","black",50,"middle","medium","True","False",1302,2600,NA
"A3HFS6Q0TONAB9","Fri Oct 30 2020 14:35:51 GMT-0400 (Cuba Daylight Time)","Fri Oct 30 2020 14:44:14 GMT-0400 (Cuba Daylight Time)","Mozilla/5.0 (Windows NT 10.0; Win64; x64) AppleWebKit/537.36 (KHTML, like Gecko) Chrome/86.0.4240.111 Safari/537.36",42,"[0.9, 0.5, 0.1]","[0.8, 0.4, 0.2]","[u'red', u'black', u'blue']","[u'left', u'middle', u'right']","[0.9, 0.5, 0.1]","[u'high', u'medium', u'low']","black",50,"middle","medium","False","False",430,2550,NA
"A3HFS6Q0TONAB9","Fri Oct 30 2020 14:35:51 GMT-0400 (Cuba Daylight Time)","Fri Oct 30 2020 14:44:14 GMT-0400 (Cuba Daylight Time)","Mozilla/5.0 (Windows NT 10.0; Win64; x64) AppleWebKit/537.36 (KHTML, like Gecko) Chrome/86.0.4240.111 Safari/537.36",43,"[0.9, 0.5, 0.1]","[0.8, 0.4, 0.2]","[u'red', u'black', u'blue']","[u'left', u'middle', u'right']","[0.9, 0.5, 0.1]","[u'high', u'medium', u'low']","black",50,"middle","medium","False","False",513,2500,NA
"A3HFS6Q0TONAB9","Fri Oct 30 2020 14:35:51 GMT-0400 (Cuba Daylight Time)","Fri Oct 30 2020 14:44:14 GMT-0400 (Cuba Daylight Time)","Mozilla/5.0 (Windows NT 10.0; Win64; x64) AppleWebKit/537.36 (KHTML, like Gecko) Chrome/86.0.4240.111 Safari/537.36",44,"[0.9, 0.5, 0.1]","[0.8, 0.4, 0.2]","[u'red', u'black', u'blue']","[u'left', u'middle', u'right']","[0.9, 0.5, 0.1]","[u'high', u'medium', u'low']","red",49,"left","high","True","False",391,2600,NA
"A3HFS6Q0TONAB9","Fri Oct 30 2020 14:35:51 GMT-0400 (Cuba Daylight Time)","Fri Oct 30 2020 14:44:14 GMT-0400 (Cuba Daylight Time)","Mozilla/5.0 (Windows NT 10.0; Win64; x64) AppleWebKit/537.36 (KHTML, like Gecko) Chrome/86.0.4240.111 Safari/537.36",45,"[0.9, 0.5, 0.1]","[0.8, 0.4, 0.2]","[u'red', u'black', u'blue']","[u'left', u'middle', u'right']","[0.9, 0.5, 0.1]","[u'high', u'medium', u'low']","red",49,"left","high","True","False",48,2700,NA
"A3HFS6Q0TONAB9","Fri Oct 30 2020 14:35:51 GMT-0400 (Cuba Daylight Time)","Fri Oct 30 2020 14:44:14 GMT-0400 (Cuba Daylight Time)","Mozilla/5.0 (Windows NT 10.0; Win64; x64) AppleWebKit/537.36 (KHTML, like Gecko) Chrome/86.0.4240.111 Safari/537.36",46,"[0.9, 0.5, 0.1]","[0.8, 0.4, 0.2]","[u'red', u'black', u'blue']","[u'left', u'middle', u'right']","[0.9, 0.5, 0.1]","[u'high', u'medium', u'low']","red",49,"left","high","True","False",535,2800,NA
"A3HFS6Q0TONAB9","Fri Oct 30 2020 14:35:51 GMT-0400 (Cuba Daylight Time)","Fri Oct 30 2020 14:44:14 GMT-0400 (Cuba Daylight Time)","Mozilla/5.0 (Windows NT 10.0; Win64; x64) AppleWebKit/537.36 (KHTML, like Gecko) Chrome/86.0.4240.111 Safari/537.36",47,"[0.9, 0.5, 0.1]","[0.8, 0.4, 0.2]","[u'red', u'black', u'blue']","[u'left', u'middle', u'right']","[0.9, 0.5, 0.1]","[u'high', u'medium', u'low']","red",49,"left","high","True","False",306,2900,NA
"A3HFS6Q0TONAB9","Fri Oct 30 2020 14:35:51 GMT-0400 (Cuba Daylight Time)","Fri Oct 30 2020 14:44:14 GMT-0400 (Cuba Daylight Time)","Mozilla/5.0 (Windows NT 10.0; Win64; x64) AppleWebKit/537.36 (KHTML, like Gecko) Chrome/86.0.4240.111 Safari/537.36",48,"[0.9, 0.5, 0.1]","[0.8, 0.4, 0.2]","[u'red', u'black', u'blue']","[u'left', u'middle', u'right']","[0.9, 0.5, 0.1]","[u'high', u'medium', u'low']","red",49,"left","high","True","False",331,3000,NA
"A3HFS6Q0TONAB9","Fri Oct 30 2020 14:35:51 GMT-0400 (Cuba Daylight Time)","Fri Oct 30 2020 14:44:14 GMT-0400 (Cuba Daylight Time)","Mozilla/5.0 (Windows NT 10.0; Win64; x64) AppleWebKit/537.36 (KHTML, like Gecko) Chrome/86.0.4240.111 Safari/537.36",49,"[0.9, 0.5, 0.1]","[0.8, 0.4, 0.2]","[u'red', u'black', u'blue']","[u'left', u'middle', u'right']","[0.9, 0.5, 0.1]","[u'high', u'medium', u'low']","red",49,"left","high","True","False",369,3100,NA
"A3HFS6Q0TONAB9","Fri Oct 30 2020 14:35:51 GMT-0400 (Cuba Daylight Time)","Fri Oct 30 2020 14:44:14 GMT-0400 (Cuba Daylight Time)","Mozilla/5.0 (Windows NT 10.0; Win64; x64) AppleWebKit/537.36 (KHTML, like Gecko) Chrome/86.0.4240.111 Safari/537.36",50,"[0.9, 0.5, 0.1]","[0.8, 0.4, 0.2]","[u'red', u'black', u'blue']","[u'left', u'middle', u'right']","[0.9, 0.5, 0.1]","[u'high', u'medium', u'low']","red",49,"left","high","True","False",289,3200,NA
"A3HFS6Q0TONAB9","Fri Oct 30 2020 14:35:51 GMT-0400 (Cuba Daylight Time)","Fri Oct 30 2020 14:44:14 GMT-0400 (Cuba Daylight Time)","Mozilla/5.0 (Windows NT 10.0; Win64; x64) AppleWebKit/537.36 (KHTML, like Gecko) Chrome/86.0.4240.111 Safari/537.36",51,"[0.9, 0.5, 0.1]","[0.8, 0.4, 0.2]","[u'red', u'black', u'blue']","[u'left', u'middle', u'right']","[0.9, 0.5, 0.1]","[u'high', u'medium', u'low']","red",49,"left","high","True","False",334,3300,NA
"A3HFS6Q0TONAB9","Fri Oct 30 2020 14:35:51 GMT-0400 (Cuba Daylight Time)","Fri Oct 30 2020 14:44:14 GMT-0400 (Cuba Daylight Time)","Mozilla/5.0 (Windows NT 10.0; Win64; x64) AppleWebKit/537.36 (KHTML, like Gecko) Chrome/86.0.4240.111 Safari/537.36",52,"[0.9, 0.5, 0.1]","[0.8, 0.4, 0.2]","[u'red', u'black', u'blue']","[u'left', u'middle', u'right']","[0.9, 0.5, 0.1]","[u'high', u'medium', u'low']","red",49,"left","high","True","True",316,3400,NA
"A3HFS6Q0TONAB9","Fri Oct 30 2020 14:35:51 GMT-0400 (Cuba Daylight Time)","Fri Oct 30 2020 14:44:14 GMT-0400 (Cuba Daylight Time)","Mozilla/5.0 (Windows NT 10.0; Win64; x64) AppleWebKit/537.36 (KHTML, like Gecko) Chrome/86.0.4240.111 Safari/537.36",53,"[0.9, 0.5, 0.1]","[0.8, 0.4, 0.2]","[u'red', u'black', u'blue']","[u'left', u'middle', u'right']","[0.9, 0.5, 0.1]","[u'medium', u'low', u'high']","red",49,"left","medium","True","False",9,3500,NA
"A3HFS6Q0TONAB9","Fri Oct 30 2020 14:35:51 GMT-0400 (Cuba Daylight Time)","Fri Oct 30 2020 14:44:14 GMT-0400 (Cuba Daylight Time)","Mozilla/5.0 (Windows NT 10.0; Win64; x64) AppleWebKit/537.36 (KHTML, like Gecko) Chrome/86.0.4240.111 Safari/537.36",54,"[0.9, 0.5, 0.1]","[0.8, 0.4, 0.2]","[u'red', u'black', u'blue']","[u'left', u'middle', u'right']","[0.9, 0.5, 0.1]","[u'medium', u'low', u'high']","red",49,"left","medium","False","False",1,3450,NA
"A3HFS6Q0TONAB9","Fri Oct 30 2020 14:35:51 GMT-0400 (Cuba Daylight Time)","Fri Oct 30 2020 14:44:14 GMT-0400 (Cuba Daylight Time)","Mozilla/5.0 (Windows NT 10.0; Win64; x64) AppleWebKit/537.36 (KHTML, like Gecko) Chrome/86.0.4240.111 Safari/537.36",55,"[0.9, 0.5, 0.1]","[0.8, 0.4, 0.2]","[u'red', u'black', u'blue']","[u'left', u'middle', u'right']","[0.9, 0.5, 0.1]","[u'medium', u'low', u'high']","black",50,"middle","low","False","False",288,3400,NA
"A3HFS6Q0TONAB9","Fri Oct 30 2020 14:35:51 GMT-0400 (Cuba Daylight Time)","Fri Oct 30 2020 14:44:14 GMT-0400 (Cuba Daylight Time)","Mozilla/5.0 (Windows NT 10.0; Win64; x64) AppleWebKit/537.36 (KHTML, like Gecko) Chrome/86.0.4240.111 Safari/537.36",56,"[0.9, 0.5, 0.1]","[0.8, 0.4, 0.2]","[u'red', u'black', u'blue']","[u'left', u'middle', u'right']","[0.9, 0.5, 0.1]","[u'medium', u'low', u'high']","blue",51,"right","high","True","False",564,3500,NA
"A3HFS6Q0TONAB9","Fri Oct 30 2020 14:35:51 GMT-0400 (Cuba Daylight Time)","Fri Oct 30 2020 14:44:14 GMT-0400 (Cuba Daylight Time)","Mozilla/5.0 (Windows NT 10.0; Win64; x64) AppleWebKit/537.36 (KHTML, like Gecko) Chrome/86.0.4240.111 Safari/537.36",57,"[0.9, 0.5, 0.1]","[0.8, 0.4, 0.2]","[u'red', u'black', u'blue']","[u'left', u'middle', u'right']","[0.9, 0.5, 0.1]","[u'medium', u'low', u'high']","blue",51,"right","high","True","False",343,3600,NA
"A3HFS6Q0TONAB9","Fri Oct 30 2020 14:35:51 GMT-0400 (Cuba Daylight Time)","Fri Oct 30 2020 14:44:14 GMT-0400 (Cuba Daylight Time)","Mozilla/5.0 (Windows NT 10.0; Win64; x64) AppleWebKit/537.36 (KHTML, like Gecko) Chrome/86.0.4240.111 Safari/537.36",58,"[0.9, 0.5, 0.1]","[0.8, 0.4, 0.2]","[u'red', u'black', u'blue']","[u'left', u'middle', u'right']","[0.9, 0.5, 0.1]","[u'medium', u'low', u'high']","blue",51,"right","high","True","False",535,3700,NA
"A3HFS6Q0TONAB9","Fri Oct 30 2020 14:35:51 GMT-0400 (Cuba Daylight Time)","Fri Oct 30 2020 14:44:14 GMT-0400 (Cuba Daylight Time)","Mozilla/5.0 (Windows NT 10.0; Win64; x64) AppleWebKit/537.36 (KHTML, like Gecko) Chrome/86.0.4240.111 Safari/537.36",59,"[0.9, 0.5, 0.1]","[0.8, 0.4, 0.2]","[u'red', u'black', u'blue']","[u'left', u'middle', u'right']","[0.9, 0.5, 0.1]","[u'medium', u'low', u'high']","blue",51,"right","high","True","False",263,3800,NA
"A3HFS6Q0TONAB9","Fri Oct 30 2020 14:35:51 GMT-0400 (Cuba Daylight Time)","Fri Oct 30 2020 14:44:14 GMT-0400 (Cuba Daylight Time)","Mozilla/5.0 (Windows NT 10.0; Win64; x64) AppleWebKit/537.36 (KHTML, like Gecko) Chrome/86.0.4240.111 Safari/537.36",60,"[0.9, 0.5, 0.1]","[0.8, 0.4, 0.2]","[u'red', u'black', u'blue']","[u'left', u'middle', u'right']","[0.9, 0.5, 0.1]","[u'medium', u'low', u'high']","blue",51,"right","high","True","False",85,3900,NA
"A3HFS6Q0TONAB9","Fri Oct 30 2020 14:35:51 GMT-0400 (Cuba Daylight Time)","Fri Oct 30 2020 14:44:14 GMT-0400 (Cuba Daylight Time)","Mozilla/5.0 (Windows NT 10.0; Win64; x64) AppleWebKit/537.36 (KHTML, like Gecko) Chrome/86.0.4240.111 Safari/537.36",61,"[0.9, 0.5, 0.1]","[0.8, 0.4, 0.2]","[u'red', u'black', u'blue']","[u'left', u'middle', u'right']","[0.9, 0.5, 0.1]","[u'medium', u'low', u'high']","blue",51,"right","high","True","False",320,4000,NA
"A3HFS6Q0TONAB9","Fri Oct 30 2020 14:35:51 GMT-0400 (Cuba Daylight Time)","Fri Oct 30 2020 14:44:14 GMT-0400 (Cuba Daylight Time)","Mozilla/5.0 (Windows NT 10.0; Win64; x64) AppleWebKit/537.36 (KHTML, like Gecko) Chrome/86.0.4240.111 Safari/537.36",62,"[0.9, 0.5, 0.1]","[0.8, 0.4, 0.2]","[u'red', u'black', u'blue']","[u'left', u'middle', u'right']","[0.9, 0.5, 0.1]","[u'medium', u'low', u'high']","blue",51,"right","high","True","False",364,4100,NA
"A3HFS6Q0TONAB9","Fri Oct 30 2020 14:35:51 GMT-0400 (Cuba Daylight Time)","Fri Oct 30 2020 14:44:14 GMT-0400 (Cuba Daylight Time)","Mozilla/5.0 (Windows NT 10.0; Win64; x64) AppleWebKit/537.36 (KHTML, like Gecko) Chrome/86.0.4240.111 Safari/537.36",63,"[0.9, 0.5, 0.1]","[0.8, 0.4, 0.2]","[u'red', u'black', u'blue']","[u'left', u'middle', u'right']","[0.9, 0.5, 0.1]","[u'medium', u'low', u'high']","blue",51,"right","high","True","False",361,4200,NA
"A3HFS6Q0TONAB9","Fri Oct 30 2020 14:35:51 GMT-0400 (Cuba Daylight Time)","Fri Oct 30 2020 14:44:14 GMT-0400 (Cuba Daylight Time)","Mozilla/5.0 (Windows NT 10.0; Win64; x64) AppleWebKit/537.36 (KHTML, like Gecko) Chrome/86.0.4240.111 Safari/537.36",64,"[0.9, 0.5, 0.1]","[0.8, 0.4, 0.2]","[u'red', u'black', u'blue']","[u'left', u'middle', u'right']","[0.9, 0.5, 0.1]","[u'medium', u'low', u'high']","blue",51,"right","high","True","True",606,4300,NA
"A3HFS6Q0TONAB9","Fri Oct 30 2020 14:35:51 GMT-0400 (Cuba Daylight Time)","Fri Oct 30 2020 14:44:14 GMT-0400 (Cuba Daylight Time)","Mozilla/5.0 (Windows NT 10.0; Win64; x64) AppleWebKit/537.36 (KHTML, like Gecko) Chrome/86.0.4240.111 Safari/537.36",65,"[0.9, 0.5, 0.1]","[0.8, 0.4, 0.2]","[u'red', u'black', u'blue']","[u'left', u'middle', u'right']","[0.9, 0.5, 0.1]","[u'high', u'medium', u'low']","blue",51,"right","low","False","False",341,4250,NA
"A3HFS6Q0TONAB9","Fri Oct 30 2020 14:35:51 GMT-0400 (Cuba Daylight Time)","Fri Oct 30 2020 14:44:14 GMT-0400 (Cuba Daylight Time)","Mozilla/5.0 (Windows NT 10.0; Win64; x64) AppleWebKit/537.36 (KHTML, like Gecko) Chrome/86.0.4240.111 Safari/537.36",66,"[0.9, 0.5, 0.1]","[0.8, 0.4, 0.2]","[u'red', u'black', u'blue']","[u'left', u'middle', u'right']","[0.9, 0.5, 0.1]","[u'high', u'medium', u'low']","black",50,"middle","medium","True","False",98,4350,NA
"A3HFS6Q0TONAB9","Fri Oct 30 2020 14:35:51 GMT-0400 (Cuba Daylight Time)","Fri Oct 30 2020 14:44:14 GMT-0400 (Cuba Daylight Time)","Mozilla/5.0 (Windows NT 10.0; Win64; x64) AppleWebKit/537.36 (KHTML, like Gecko) Chrome/86.0.4240.111 Safari/537.36",67,"[0.9, 0.5, 0.1]","[0.8, 0.4, 0.2]","[u'red', u'black', u'blue']","[u'left', u'middle', u'right']","[0.9, 0.5, 0.1]","[u'high', u'medium', u'low']","black",50,"middle","medium","True","False",610,4450,NA
"A3HFS6Q0TONAB9","Fri Oct 30 2020 14:35:51 GMT-0400 (Cuba Daylight Time)","Fri Oct 30 2020 14:44:14 GMT-0400 (Cuba Daylight Time)","Mozilla/5.0 (Windows NT 10.0; Win64; x64) AppleWebKit/537.36 (KHTML, like Gecko) Chrome/86.0.4240.111 Safari/537.36",68,"[0.9, 0.5, 0.1]","[0.8, 0.4, 0.2]","[u'red', u'black', u'blue']","[u'left', u'middle', u'right']","[0.9, 0.5, 0.1]","[u'high', u'medium', u'low']","black",50,"middle","medium","False","False",766,4400,NA
"A3HFS6Q0TONAB9","Fri Oct 30 2020 14:35:51 GMT-0400 (Cuba Daylight Time)","Fri Oct 30 2020 14:44:14 GMT-0400 (Cuba Daylight Time)","Mozilla/5.0 (Windows NT 10.0; Win64; x64) AppleWebKit/537.36 (KHTML, like Gecko) Chrome/86.0.4240.111 Safari/537.36",69,"[0.9, 0.5, 0.1]","[0.8, 0.4, 0.2]","[u'red', u'black', u'blue']","[u'left', u'middle', u'right']","[0.9, 0.5, 0.1]","[u'high', u'medium', u'low']","red",49,"left","high","True","False",733,4500,NA
"A3HFS6Q0TONAB9","Fri Oct 30 2020 14:35:51 GMT-0400 (Cuba Daylight Time)","Fri Oct 30 2020 14:44:14 GMT-0400 (Cuba Daylight Time)","Mozilla/5.0 (Windows NT 10.0; Win64; x64) AppleWebKit/537.36 (KHTML, like Gecko) Chrome/86.0.4240.111 Safari/537.36",70,"[0.9, 0.5, 0.1]","[0.8, 0.4, 0.2]","[u'red', u'black', u'blue']","[u'left', u'middle', u'right']","[0.9, 0.5, 0.1]","[u'high', u'medium', u'low']","red",49,"left","high","True","False",233,4600,NA
"A3HFS6Q0TONAB9","Fri Oct 30 2020 14:35:51 GMT-0400 (Cuba Daylight Time)","Fri Oct 30 2020 14:44:14 GMT-0400 (Cuba Daylight Time)","Mozilla/5.0 (Windows NT 10.0; Win64; x64) AppleWebKit/537.36 (KHTML, like Gecko) Chrome/86.0.4240.111 Safari/537.36",71,"[0.9, 0.5, 0.1]","[0.8, 0.4, 0.2]","[u'red', u'black', u'blue']","[u'left', u'middle', u'right']","[0.9, 0.5, 0.1]","[u'high', u'medium', u'low']","red",49,"left","high","True","False",363,4700,NA
"A3HFS6Q0TONAB9","Fri Oct 30 2020 14:35:51 GMT-0400 (Cuba Daylight Time)","Fri Oct 30 2020 14:44:14 GMT-0400 (Cuba Daylight Time)","Mozilla/5.0 (Windows NT 10.0; Win64; x64) AppleWebKit/537.36 (KHTML, like Gecko) Chrome/86.0.4240.111 Safari/537.36",72,"[0.9, 0.5, 0.1]","[0.8, 0.4, 0.2]","[u'red', u'black', u'blue']","[u'left', u'middle', u'right']","[0.9, 0.5, 0.1]","[u'high', u'medium', u'low']","red",49,"left","high","True","False",301,4800,NA
"A3HFS6Q0TONAB9","Fri Oct 30 2020 14:35:51 GMT-0400 (Cuba Daylight Time)","Fri Oct 30 2020 14:44:14 GMT-0400 (Cuba Daylight Time)","Mozilla/5.0 (Windows NT 10.0; Win64; x64) AppleWebKit/537.36 (KHTML, like Gecko) Chrome/86.0.4240.111 Safari/537.36",73,"[0.9, 0.5, 0.1]","[0.8, 0.4, 0.2]","[u'red', u'black', u'blue']","[u'left', u'middle', u'right']","[0.9, 0.5, 0.1]","[u'high', u'medium', u'low']","red",49,"left","high","False","False",103,4750,NA
"A3HFS6Q0TONAB9","Fri Oct 30 2020 14:35:51 GMT-0400 (Cuba Daylight Time)","Fri Oct 30 2020 14:44:14 GMT-0400 (Cuba Daylight Time)","Mozilla/5.0 (Windows NT 10.0; Win64; x64) AppleWebKit/537.36 (KHTML, like Gecko) Chrome/86.0.4240.111 Safari/537.36",74,"[0.9, 0.5, 0.1]","[0.8, 0.4, 0.2]","[u'red', u'black', u'blue']","[u'left', u'middle', u'right']","[0.9, 0.5, 0.1]","[u'high', u'medium', u'low']","black",50,"middle","medium","False","False",515,4700,NA
"A3HFS6Q0TONAB9","Fri Oct 30 2020 14:35:51 GMT-0400 (Cuba Daylight Time)","Fri Oct 30 2020 14:44:14 GMT-0400 (Cuba Daylight Time)","Mozilla/5.0 (Windows NT 10.0; Win64; x64) AppleWebKit/537.36 (KHTML, like Gecko) Chrome/86.0.4240.111 Safari/537.36",75,"[0.9, 0.5, 0.1]","[0.8, 0.4, 0.2]","[u'red', u'black', u'blue']","[u'left', u'middle', u'right']","[0.9, 0.5, 0.1]","[u'high', u'medium', u'low']","blue",51,"right","low","False","False",54,4650,NA
"A3HFS6Q0TONAB9","Fri Oct 30 2020 14:35:51 GMT-0400 (Cuba Daylight Time)","Fri Oct 30 2020 14:44:14 GMT-0400 (Cuba Daylight Time)","Mozilla/5.0 (Windows NT 10.0; Win64; x64) AppleWebKit/537.36 (KHTML, like Gecko) Chrome/86.0.4240.111 Safari/537.36",76,"[0.9, 0.5, 0.1]","[0.8, 0.4, 0.2]","[u'red', u'black', u'blue']","[u'left', u'middle', u'right']","[0.9, 0.5, 0.1]","[u'high', u'medium', u'low']","red",49,"left","high","True","False",46,4750,NA
"A3HFS6Q0TONAB9","Fri Oct 30 2020 14:35:51 GMT-0400 (Cuba Daylight Time)","Fri Oct 30 2020 14:44:14 GMT-0400 (Cuba Daylight Time)","Mozilla/5.0 (Windows NT 10.0; Win64; x64) AppleWebKit/537.36 (KHTML, like Gecko) Chrome/86.0.4240.111 Safari/537.36",77,"[0.9, 0.5, 0.1]","[0.8, 0.4, 0.2]","[u'red', u'black', u'blue']","[u'left', u'middle', u'right']","[0.9, 0.5, 0.1]","[u'high', u'medium', u'low']","red",49,"left","high","True","False",427,4850,NA
"A3HFS6Q0TONAB9","Fri Oct 30 2020 14:35:51 GMT-0400 (Cuba Daylight Time)","Fri Oct 30 2020 14:44:14 GMT-0400 (Cuba Daylight Time)","Mozilla/5.0 (Windows NT 10.0; Win64; x64) AppleWebKit/537.36 (KHTML, like Gecko) Chrome/86.0.4240.111 Safari/537.36",78,"[0.9, 0.5, 0.1]","[0.8, 0.4, 0.2]","[u'red', u'black', u'blue']","[u'left', u'middle', u'right']","[0.9, 0.5, 0.1]","[u'high', u'medium', u'low']","red",49,"left","high","True","False",311,4950,NA
"A3HFS6Q0TONAB9","Fri Oct 30 2020 14:35:51 GMT-0400 (Cuba Daylight Time)","Fri Oct 30 2020 14:44:14 GMT-0400 (Cuba Daylight Time)","Mozilla/5.0 (Windows NT 10.0; Win64; x64) AppleWebKit/537.36 (KHTML, like Gecko) Chrome/86.0.4240.111 Safari/537.36",79,"[0.9, 0.5, 0.1]","[0.8, 0.4, 0.2]","[u'red', u'black', u'blue']","[u'left', u'middle', u'right']","[0.9, 0.5, 0.1]","[u'high', u'medium', u'low']","red",49,"left","high","True","False",294,5050,NA
"A3HFS6Q0TONAB9","Fri Oct 30 2020 14:35:51 GMT-0400 (Cuba Daylight Time)","Fri Oct 30 2020 14:44:14 GMT-0400 (Cuba Daylight Time)","Mozilla/5.0 (Windows NT 10.0; Win64; x64) AppleWebKit/537.36 (KHTML, like Gecko) Chrome/86.0.4240.111 Safari/537.36",80,"[0.9, 0.5, 0.1]","[0.8, 0.4, 0.2]","[u'red', u'black', u'blue']","[u'left', u'middle', u'right']","[0.9, 0.5, 0.1]","[u'high', u'medium', u'low']","red",49,"left","high","True","False",294,5150,NA
"A3HFS6Q0TONAB9","Fri Oct 30 2020 14:35:51 GMT-0400 (Cuba Daylight Time)","Fri Oct 30 2020 14:44:14 GMT-0400 (Cuba Daylight Time)","Mozilla/5.0 (Windows NT 10.0; Win64; x64) AppleWebKit/537.36 (KHTML, like Gecko) Chrome/86.0.4240.111 Safari/537.36",81,"[0.9, 0.5, 0.1]","[0.8, 0.4, 0.2]","[u'red', u'black', u'blue']","[u'left', u'middle', u'right']","[0.8, 0.4, 0.2]","[u'medium', u'high', u'low']","red",49,"left","medium","True","False",1091,5250,NA
"A3HFS6Q0TONAB9","Fri Oct 30 2020 14:35:51 GMT-0400 (Cuba Daylight Time)","Fri Oct 30 2020 14:44:14 GMT-0400 (Cuba Daylight Time)","Mozilla/5.0 (Windows NT 10.0; Win64; x64) AppleWebKit/537.36 (KHTML, like Gecko) Chrome/86.0.4240.111 Safari/537.36",82,"[0.9, 0.5, 0.1]","[0.8, 0.4, 0.2]","[u'red', u'black', u'blue']","[u'left', u'middle', u'right']","[0.8, 0.4, 0.2]","[u'medium', u'high', u'low']","red",49,"left","medium","True","False",1337,5350,NA
"A3HFS6Q0TONAB9","Fri Oct 30 2020 14:35:51 GMT-0400 (Cuba Daylight Time)","Fri Oct 30 2020 14:44:14 GMT-0400 (Cuba Daylight Time)","Mozilla/5.0 (Windows NT 10.0; Win64; x64) AppleWebKit/537.36 (KHTML, like Gecko) Chrome/86.0.4240.111 Safari/537.36",83,"[0.9, 0.5, 0.1]","[0.8, 0.4, 0.2]","[u'red', u'black', u'blue']","[u'left', u'middle', u'right']","[0.8, 0.4, 0.2]","[u'medium', u'high', u'low']","red",49,"left","medium","False","False",13169,5300,NA
"A3HFS6Q0TONAB9","Fri Oct 30 2020 14:35:51 GMT-0400 (Cuba Daylight Time)","Fri Oct 30 2020 14:44:14 GMT-0400 (Cuba Daylight Time)","Mozilla/5.0 (Windows NT 10.0; Win64; x64) AppleWebKit/537.36 (KHTML, like Gecko) Chrome/86.0.4240.111 Safari/537.36",84,"[0.9, 0.5, 0.1]","[0.8, 0.4, 0.2]","[u'red', u'black', u'blue']","[u'left', u'middle', u'right']","[0.8, 0.4, 0.2]","[u'medium', u'high', u'low']","black",50,"middle","high","True","False",10609,5400,NA
"A3HFS6Q0TONAB9","Fri Oct 30 2020 14:35:51 GMT-0400 (Cuba Daylight Time)","Fri Oct 30 2020 14:44:14 GMT-0400 (Cuba Daylight Time)","Mozilla/5.0 (Windows NT 10.0; Win64; x64) AppleWebKit/537.36 (KHTML, like Gecko) Chrome/86.0.4240.111 Safari/537.36",85,"[0.9, 0.5, 0.1]","[0.8, 0.4, 0.2]","[u'red', u'black', u'blue']","[u'left', u'middle', u'right']","[0.8, 0.4, 0.2]","[u'medium', u'high', u'low']","black",50,"middle","high","True","False",599,5500,NA
"A3HFS6Q0TONAB9","Fri Oct 30 2020 14:35:51 GMT-0400 (Cuba Daylight Time)","Fri Oct 30 2020 14:44:14 GMT-0400 (Cuba Daylight Time)","Mozilla/5.0 (Windows NT 10.0; Win64; x64) AppleWebKit/537.36 (KHTML, like Gecko) Chrome/86.0.4240.111 Safari/537.36",86,"[0.9, 0.5, 0.1]","[0.8, 0.4, 0.2]","[u'red', u'black', u'blue']","[u'left', u'middle', u'right']","[0.8, 0.4, 0.2]","[u'medium', u'high', u'low']","black",50,"middle","high","True","False",739,5600,NA
"A3HFS6Q0TONAB9","Fri Oct 30 2020 14:35:51 GMT-0400 (Cuba Daylight Time)","Fri Oct 30 2020 14:44:14 GMT-0400 (Cuba Daylight Time)","Mozilla/5.0 (Windows NT 10.0; Win64; x64) AppleWebKit/537.36 (KHTML, like Gecko) Chrome/86.0.4240.111 Safari/537.36",87,"[0.9, 0.5, 0.1]","[0.8, 0.4, 0.2]","[u'red', u'black', u'blue']","[u'left', u'middle', u'right']","[0.8, 0.4, 0.2]","[u'medium', u'high', u'low']","black",50,"middle","high","True","False",928,5700,NA
"A3HFS6Q0TONAB9","Fri Oct 30 2020 14:35:51 GMT-0400 (Cuba Daylight Time)","Fri Oct 30 2020 14:44:14 GMT-0400 (Cuba Daylight Time)","Mozilla/5.0 (Windows NT 10.0; Win64; x64) AppleWebKit/537.36 (KHTML, like Gecko) Chrome/86.0.4240.111 Safari/537.36",88,"[0.9, 0.5, 0.1]","[0.8, 0.4, 0.2]","[u'red', u'black', u'blue']","[u'left', u'middle', u'right']","[0.8, 0.4, 0.2]","[u'medium', u'high', u'low']","black",50,"middle","high","True","False",903,5800,NA
"A3HFS6Q0TONAB9","Fri Oct 30 2020 14:35:51 GMT-0400 (Cuba Daylight Time)","Fri Oct 30 2020 14:44:14 GMT-0400 (Cuba Daylight Time)","Mozilla/5.0 (Windows NT 10.0; Win64; x64) AppleWebKit/537.36 (KHTML, like Gecko) Chrome/86.0.4240.111 Safari/537.36",89,"[0.9, 0.5, 0.1]","[0.8, 0.4, 0.2]","[u'red', u'black', u'blue']","[u'left', u'middle', u'right']","[0.8, 0.4, 0.2]","[u'medium', u'high', u'low']","black",50,"middle","high","True","False",799,5900,NA
"A3HFS6Q0TONAB9","Fri Oct 30 2020 14:35:51 GMT-0400 (Cuba Daylight Time)","Fri Oct 30 2020 14:44:14 GMT-0400 (Cuba Daylight Time)","Mozilla/5.0 (Windows NT 10.0; Win64; x64) AppleWebKit/537.36 (KHTML, like Gecko) Chrome/86.0.4240.111 Safari/537.36",90,"[0.9, 0.5, 0.1]","[0.8, 0.4, 0.2]","[u'red', u'black', u'blue']","[u'left', u'middle', u'right']","[0.8, 0.4, 0.2]","[u'medium', u'high', u'low']","black",50,"middle","high","False","False",323,5850,NA
"A3HFS6Q0TONAB9","Fri Oct 30 2020 14:35:51 GMT-0400 (Cuba Daylight Time)","Fri Oct 30 2020 14:44:14 GMT-0400 (Cuba Daylight Time)","Mozilla/5.0 (Windows NT 10.0; Win64; x64) AppleWebKit/537.36 (KHTML, like Gecko) Chrome/86.0.4240.111 Safari/537.36",91,"[0.9, 0.5, 0.1]","[0.8, 0.4, 0.2]","[u'red', u'black', u'blue']","[u'left', u'middle', u'right']","[0.8, 0.4, 0.2]","[u'medium', u'high', u'low']","blue",51,"right","low","False","False",70,5800,NA
"A3HFS6Q0TONAB9","Fri Oct 30 2020 14:35:51 GMT-0400 (Cuba Daylight Time)","Fri Oct 30 2020 14:44:14 GMT-0400 (Cuba Daylight Time)","Mozilla/5.0 (Windows NT 10.0; Win64; x64) AppleWebKit/537.36 (KHTML, like Gecko) Chrome/86.0.4240.111 Safari/537.36",92,"[0.9, 0.5, 0.1]","[0.8, 0.4, 0.2]","[u'red', u'black', u'blue']","[u'left', u'middle', u'right']","[0.8, 0.4, 0.2]","[u'medium', u'high', u'low']","red",49,"left","medium","True","False",349,5900,NA
"A3HFS6Q0TONAB9","Fri Oct 30 2020 14:35:51 GMT-0400 (Cuba Daylight Time)","Fri Oct 30 2020 14:44:14 GMT-0400 (Cuba Daylight Time)","Mozilla/5.0 (Windows NT 10.0; Win64; x64) AppleWebKit/537.36 (KHTML, like Gecko) Chrome/86.0.4240.111 Safari/537.36",93,"[0.9, 0.5, 0.1]","[0.8, 0.4, 0.2]","[u'red', u'black', u'blue']","[u'left', u'middle', u'right']","[0.8, 0.4, 0.2]","[u'medium', u'high', u'low']","red",49,"left","medium","True","False",65,6000,NA
"A3HFS6Q0TONAB9","Fri Oct 30 2020 14:35:51 GMT-0400 (Cuba Daylight Time)","Fri Oct 30 2020 14:44:14 GMT-0400 (Cuba Daylight Time)","Mozilla/5.0 (Windows NT 10.0; Win64; x64) AppleWebKit/537.36 (KHTML, like Gecko) Chrome/86.0.4240.111 Safari/537.36",94,"[0.9, 0.5, 0.1]","[0.8, 0.4, 0.2]","[u'red', u'black', u'blue']","[u'left', u'middle', u'right']","[0.8, 0.4, 0.2]","[u'medium', u'high', u'low']","red",49,"left","medium","False","False",584,5950,NA
"A3HFS6Q0TONAB9","Fri Oct 30 2020 14:35:51 GMT-0400 (Cuba Daylight Time)","Fri Oct 30 2020 14:44:14 GMT-0400 (Cuba Daylight Time)","Mozilla/5.0 (Windows NT 10.0; Win64; x64) AppleWebKit/537.36 (KHTML, like Gecko) Chrome/86.0.4240.111 Safari/537.36",95,"[0.9, 0.5, 0.1]","[0.8, 0.4, 0.2]","[u'red', u'black', u'blue']","[u'left', u'middle', u'right']","[0.8, 0.4, 0.2]","[u'medium', u'high', u'low']","black",50,"middle","high","True","False",401,6050,NA
"A3HFS6Q0TONAB9","Fri Oct 30 2020 14:35:51 GMT-0400 (Cuba Daylight Time)","Fri Oct 30 2020 14:44:14 GMT-0400 (Cuba Daylight Time)","Mozilla/5.0 (Windows NT 10.0; Win64; x64) AppleWebKit/537.36 (KHTML, like Gecko) Chrome/86.0.4240.111 Safari/537.36",96,"[0.9, 0.5, 0.1]","[0.8, 0.4, 0.2]","[u'red', u'black', u'blue']","[u'left', u'middle', u'right']","[0.8, 0.4, 0.2]","[u'medium', u'high', u'low']","black",50,"middle","high","True","False",350,6150,NA
"A3HFS6Q0TONAB9","Fri Oct 30 2020 14:35:51 GMT-0400 (Cuba Daylight Time)","Fri Oct 30 2020 14:44:14 GMT-0400 (Cuba Daylight Time)","Mozilla/5.0 (Windows NT 10.0; Win64; x64) AppleWebKit/537.36 (KHTML, like Gecko) Chrome/86.0.4240.111 Safari/537.36",97,"[0.9, 0.5, 0.1]","[0.8, 0.4, 0.2]","[u'red', u'black', u'blue']","[u'left', u'middle', u'right']","[0.8, 0.4, 0.2]","[u'medium', u'high', u'low']","black",50,"middle","high","True","False",2011,6250,NA
"A3HFS6Q0TONAB9","Fri Oct 30 2020 14:35:51 GMT-0400 (Cuba Daylight Time)","Fri Oct 30 2020 14:44:14 GMT-0400 (Cuba Daylight Time)","Mozilla/5.0 (Windows NT 10.0; Win64; x64) AppleWebKit/537.36 (KHTML, like Gecko) Chrome/86.0.4240.111 Safari/537.36",98,"[0.9, 0.5, 0.1]","[0.8, 0.4, 0.2]","[u'red', u'black', u'blue']","[u'left', u'middle', u'right']","[0.8, 0.4, 0.2]","[u'medium', u'high', u'low']","black",50,"middle","high","True","False",706,6350,NA
"A3HFS6Q0TONAB9","Fri Oct 30 2020 14:35:51 GMT-0400 (Cuba Daylight Time)","Fri Oct 30 2020 14:44:14 GMT-0400 (Cuba Daylight Time)","Mozilla/5.0 (Windows NT 10.0; Win64; x64) AppleWebKit/537.36 (KHTML, like Gecko) Chrome/86.0.4240.111 Safari/537.36",99,"[0.9, 0.5, 0.1]","[0.8, 0.4, 0.2]","[u'red', u'black', u'blue']","[u'left', u'middle', u'right']","[0.8, 0.4, 0.2]","[u'medium', u'high', u'low']","black",50,"middle","high","True","False",362,6450,NA
"A3HFS6Q0TONAB9","Fri Oct 30 2020 14:35:51 GMT-0400 (Cuba Daylight Time)","Fri Oct 30 2020 14:44:14 GMT-0400 (Cuba Daylight Time)","Mozilla/5.0 (Windows NT 10.0; Win64; x64) AppleWebKit/537.36 (KHTML, like Gecko) Chrome/86.0.4240.111 Safari/537.36",100,"[0.9, 0.5, 0.1]","[0.8, 0.4, 0.2]","[u'red', u'black', u'blue']","[u'left', u'middle', u'right']","[0.8, 0.4, 0.2]","[u'medium', u'high', u'low']","black",50,"middle","high","True","False",575,6550,NA
"A3HFS6Q0TONAB9","Fri Oct 30 2020 14:35:51 GMT-0400 (Cuba Daylight Time)","Fri Oct 30 2020 14:44:14 GMT-0400 (Cuba Daylight Time)","Mozilla/5.0 (Windows NT 10.0; Win64; x64) AppleWebKit/537.36 (KHTML, like Gecko) Chrome/86.0.4240.111 Safari/537.36",101,"[0.9, 0.5, 0.1]","[0.8, 0.4, 0.2]","[u'red', u'black', u'blue']","[u'left', u'middle', u'right']","[0.8, 0.4, 0.2]","[u'medium', u'high', u'low']","black",50,"middle","high","True","False",308,6650,NA
"A3HFS6Q0TONAB9","Fri Oct 30 2020 14:35:51 GMT-0400 (Cuba Daylight Time)","Fri Oct 30 2020 14:44:14 GMT-0400 (Cuba Daylight Time)","Mozilla/5.0 (Windows NT 10.0; Win64; x64) AppleWebKit/537.36 (KHTML, like Gecko) Chrome/86.0.4240.111 Safari/537.36",102,"[0.9, 0.5, 0.1]","[0.8, 0.4, 0.2]","[u'red', u'black', u'blue']","[u'left', u'middle', u'right']","[0.8, 0.4, 0.2]","[u'medium', u'high', u'low']","black",50,"middle","high","False","False",340,6600,NA
"A3HFS6Q0TONAB9","Fri Oct 30 2020 14:35:51 GMT-0400 (Cuba Daylight Time)","Fri Oct 30 2020 14:44:14 GMT-0400 (Cuba Daylight Time)","Mozilla/5.0 (Windows NT 10.0; Win64; x64) AppleWebKit/537.36 (KHTML, like Gecko) Chrome/86.0.4240.111 Safari/537.36",103,"[0.9, 0.5, 0.1]","[0.8, 0.4, 0.2]","[u'red', u'black', u'blue']","[u'left', u'middle', u'right']","[0.8, 0.4, 0.2]","[u'medium', u'high', u'low']","blue",51,"right","low","False","False",17,6550,NA
"A3HFS6Q0TONAB9","Fri Oct 30 2020 14:35:51 GMT-0400 (Cuba Daylight Time)","Fri Oct 30 2020 14:44:14 GMT-0400 (Cuba Daylight Time)","Mozilla/5.0 (Windows NT 10.0; Win64; x64) AppleWebKit/537.36 (KHTML, like Gecko) Chrome/86.0.4240.111 Safari/537.36",104,"[0.9, 0.5, 0.1]","[0.8, 0.4, 0.2]","[u'red', u'black', u'blue']","[u'left', u'middle', u'right']","[0.8, 0.4, 0.2]","[u'medium', u'high', u'low']","red",49,"left","medium","False","False",1222,6500,NA
"A3HFS6Q0TONAB9","Fri Oct 30 2020 14:35:51 GMT-0400 (Cuba Daylight Time)","Fri Oct 30 2020 14:44:14 GMT-0400 (Cuba Daylight Time)","Mozilla/5.0 (Windows NT 10.0; Win64; x64) AppleWebKit/537.36 (KHTML, like Gecko) Chrome/86.0.4240.111 Safari/537.36",105,"[0.9, 0.5, 0.1]","[0.8, 0.4, 0.2]","[u'red', u'black', u'blue']","[u'left', u'middle', u'right']","[0.8, 0.4, 0.2]","[u'medium', u'high', u'low']","black",50,"middle","high","True","False",605,6600,NA
"A3HFS6Q0TONAB9","Fri Oct 30 2020 14:35:51 GMT-0400 (Cuba Daylight Time)","Fri Oct 30 2020 14:44:14 GMT-0400 (Cuba Daylight Time)","Mozilla/5.0 (Windows NT 10.0; Win64; x64) AppleWebKit/537.36 (KHTML, like Gecko) Chrome/86.0.4240.111 Safari/537.36",106,"[0.9, 0.5, 0.1]","[0.8, 0.4, 0.2]","[u'red', u'black', u'blue']","[u'left', u'middle', u'right']","[0.8, 0.4, 0.2]","[u'medium', u'high', u'low']","black",50,"middle","high","True","False",413,6700,NA
"A3HFS6Q0TONAB9","Fri Oct 30 2020 14:35:51 GMT-0400 (Cuba Daylight Time)","Fri Oct 30 2020 14:44:14 GMT-0400 (Cuba Daylight Time)","Mozilla/5.0 (Windows NT 10.0; Win64; x64) AppleWebKit/537.36 (KHTML, like Gecko) Chrome/86.0.4240.111 Safari/537.36",107,"[0.9, 0.5, 0.1]","[0.8, 0.4, 0.2]","[u'red', u'black', u'blue']","[u'left', u'middle', u'right']","[0.8, 0.4, 0.2]","[u'medium', u'high', u'low']","black",50,"middle","high","True","False",406,6800,NA
"A3HFS6Q0TONAB9","Fri Oct 30 2020 14:35:51 GMT-0400 (Cuba Daylight Time)","Fri Oct 30 2020 14:44:14 GMT-0400 (Cuba Daylight Time)","Mozilla/5.0 (Windows NT 10.0; Win64; x64) AppleWebKit/537.36 (KHTML, like Gecko) Chrome/86.0.4240.111 Safari/537.36",108,"[0.9, 0.5, 0.1]","[0.8, 0.4, 0.2]","[u'red', u'black', u'blue']","[u'left', u'middle', u'right']","[0.8, 0.4, 0.2]","[u'medium', u'high', u'low']","black",50,"middle","high","True","False",3740,6900,NA
"A3HFS6Q0TONAB9","Fri Oct 30 2020 14:35:51 GMT-0400 (Cuba Daylight Time)","Fri Oct 30 2020 14:44:14 GMT-0400 (Cuba Daylight Time)","Mozilla/5.0 (Windows NT 10.0; Win64; x64) AppleWebKit/537.36 (KHTML, like Gecko) Chrome/86.0.4240.111 Safari/537.36",109,"[0.9, 0.5, 0.1]","[0.8, 0.4, 0.2]","[u'red', u'black', u'blue']","[u'left', u'middle', u'right']","[0.8, 0.4, 0.2]","[u'medium', u'high', u'low']","black",50,"middle","high","True","False",763,7000,NA
"A3HFS6Q0TONAB9","Fri Oct 30 2020 14:35:51 GMT-0400 (Cuba Daylight Time)","Fri Oct 30 2020 14:44:14 GMT-0400 (Cuba Daylight Time)","Mozilla/5.0 (Windows NT 10.0; Win64; x64) AppleWebKit/537.36 (KHTML, like Gecko) Chrome/86.0.4240.111 Safari/537.36",110,"[0.9, 0.5, 0.1]","[0.8, 0.4, 0.2]","[u'red', u'black', u'blue']","[u'left', u'middle', u'right']","[0.8, 0.4, 0.2]","[u'medium', u'high', u'low']","black",50,"middle","high","True","False",1169,7100,NA
"A3HFS6Q0TONAB9","Fri Oct 30 2020 14:35:51 GMT-0400 (Cuba Daylight Time)","Fri Oct 30 2020 14:44:14 GMT-0400 (Cuba Daylight Time)","Mozilla/5.0 (Windows NT 10.0; Win64; x64) AppleWebKit/537.36 (KHTML, like Gecko) Chrome/86.0.4240.111 Safari/537.36",111,"[0.9, 0.5, 0.1]","[0.8, 0.4, 0.2]","[u'red', u'black', u'blue']","[u'left', u'middle', u'right']","[0.8, 0.4, 0.2]","[u'medium', u'high', u'low']","black",50,"middle","high","True","False",47,7200,NA
"A3HFS6Q0TONAB9","Fri Oct 30 2020 14:35:51 GMT-0400 (Cuba Daylight Time)","Fri Oct 30 2020 14:44:14 GMT-0400 (Cuba Daylight Time)","Mozilla/5.0 (Windows NT 10.0; Win64; x64) AppleWebKit/537.36 (KHTML, like Gecko) Chrome/86.0.4240.111 Safari/537.36",112,"[0.9, 0.5, 0.1]","[0.8, 0.4, 0.2]","[u'red', u'black', u'blue']","[u'left', u'middle', u'right']","[0.8, 0.4, 0.2]","[u'medium', u'high', u'low']","black",50,"middle","high","True","False",653,7300,NA
"A3HFS6Q0TONAB9","Fri Oct 30 2020 14:35:51 GMT-0400 (Cuba Daylight Time)","Fri Oct 30 2020 14:44:14 GMT-0400 (Cuba Daylight Time)","Mozilla/5.0 (Windows NT 10.0; Win64; x64) AppleWebKit/537.36 (KHTML, like Gecko) Chrome/86.0.4240.111 Safari/537.36",113,"[0.9, 0.5, 0.1]","[0.8, 0.4, 0.2]","[u'red', u'black', u'blue']","[u'left', u'middle', u'right']","[0.8, 0.4, 0.2]","[u'medium', u'high', u'low']","black",50,"middle","high","True","True",4485,7400,NA
"A3HFS6Q0TONAB9","Fri Oct 30 2020 14:35:51 GMT-0400 (Cuba Daylight Time)","Fri Oct 30 2020 14:44:14 GMT-0400 (Cuba Daylight Time)","Mozilla/5.0 (Windows NT 10.0; Win64; x64) AppleWebKit/537.36 (KHTML, like Gecko) Chrome/86.0.4240.111 Safari/537.36",114,"[0.9, 0.5, 0.1]","[0.8, 0.4, 0.2]","[u'red', u'black', u'blue']","[u'left', u'middle', u'right']","[0.8, 0.4, 0.2]","[u'low', u'medium', u'high']","black",50,"middle","medium","True","False",478,7500,NA
"A3HFS6Q0TONAB9","Fri Oct 30 2020 14:35:51 GMT-0400 (Cuba Daylight Time)","Fri Oct 30 2020 14:44:14 GMT-0400 (Cuba Daylight Time)","Mozilla/5.0 (Windows NT 10.0; Win64; x64) AppleWebKit/537.36 (KHTML, like Gecko) Chrome/86.0.4240.111 Safari/537.36",115,"[0.9, 0.5, 0.1]","[0.8, 0.4, 0.2]","[u'red', u'black', u'blue']","[u'left', u'middle', u'right']","[0.8, 0.4, 0.2]","[u'low', u'medium', u'high']","black",50,"middle","medium","False","False",644,7450,NA
"A3HFS6Q0TONAB9","Fri Oct 30 2020 14:35:51 GMT-0400 (Cuba Daylight Time)","Fri Oct 30 2020 14:44:14 GMT-0400 (Cuba Daylight Time)","Mozilla/5.0 (Windows NT 10.0; Win64; x64) AppleWebKit/537.36 (KHTML, like Gecko) Chrome/86.0.4240.111 Safari/537.36",116,"[0.9, 0.5, 0.1]","[0.8, 0.4, 0.2]","[u'red', u'black', u'blue']","[u'left', u'middle', u'right']","[0.8, 0.4, 0.2]","[u'low', u'medium', u'high']","black",50,"middle","medium","True","False",1309,7550,NA
"A3HFS6Q0TONAB9","Fri Oct 30 2020 14:35:51 GMT-0400 (Cuba Daylight Time)","Fri Oct 30 2020 14:44:14 GMT-0400 (Cuba Daylight Time)","Mozilla/5.0 (Windows NT 10.0; Win64; x64) AppleWebKit/537.36 (KHTML, like Gecko) Chrome/86.0.4240.111 Safari/537.36",117,"[0.9, 0.5, 0.1]","[0.8, 0.4, 0.2]","[u'red', u'black', u'blue']","[u'left', u'middle', u'right']","[0.8, 0.4, 0.2]","[u'low', u'medium', u'high']","black",50,"middle","medium","True","False",5498,7650,NA
"A3HFS6Q0TONAB9","Fri Oct 30 2020 14:35:51 GMT-0400 (Cuba Daylight Time)","Fri Oct 30 2020 14:44:14 GMT-0400 (Cuba Daylight Time)","Mozilla/5.0 (Windows NT 10.0; Win64; x64) AppleWebKit/537.36 (KHTML, like Gecko) Chrome/86.0.4240.111 Safari/537.36",118,"[0.9, 0.5, 0.1]","[0.8, 0.4, 0.2]","[u'red', u'black', u'blue']","[u'left', u'middle', u'right']","[0.8, 0.4, 0.2]","[u'low', u'medium', u'high']","black",50,"middle","medium","False","False",472,7600,NA
"A3HFS6Q0TONAB9","Fri Oct 30 2020 14:35:51 GMT-0400 (Cuba Daylight Time)","Fri Oct 30 2020 14:44:14 GMT-0400 (Cuba Daylight Time)","Mozilla/5.0 (Windows NT 10.0; Win64; x64) AppleWebKit/537.36 (KHTML, like Gecko) Chrome/86.0.4240.111 Safari/537.36",119,"[0.9, 0.5, 0.1]","[0.8, 0.4, 0.2]","[u'red', u'black', u'blue']","[u'left', u'middle', u'right']","[0.8, 0.4, 0.2]","[u'low', u'medium', u'high']","red",49,"left","low","False","False",4006,7550,NA
"A3HFS6Q0TONAB9","Fri Oct 30 2020 14:35:51 GMT-0400 (Cuba Daylight Time)","Fri Oct 30 2020 14:44:14 GMT-0400 (Cuba Daylight Time)","Mozilla/5.0 (Windows NT 10.0; Win64; x64) AppleWebKit/537.36 (KHTML, like Gecko) Chrome/86.0.4240.111 Safari/537.36",120,"[0.9, 0.5, 0.1]","[0.8, 0.4, 0.2]","[u'red', u'black', u'blue']","[u'left', u'middle', u'right']","[0.8, 0.4, 0.2]","[u'low', u'medium', u'high']","blue",51,"right","high","False","False",367,7500,NA
"A3HFS6Q0TONAB9","Fri Oct 30 2020 14:35:51 GMT-0400 (Cuba Daylight Time)","Fri Oct 30 2020 14:44:14 GMT-0400 (Cuba Daylight Time)","Mozilla/5.0 (Windows NT 10.0; Win64; x64) AppleWebKit/537.36 (KHTML, like Gecko) Chrome/86.0.4240.111 Safari/537.36",121,"[0.9, 0.5, 0.1]","[0.8, 0.4, 0.2]","[u'red', u'black', u'blue']","[u'left', u'middle', u'right']","[0.8, 0.4, 0.2]","[u'medium', u'high', u'low']","red",49,"left","medium","True","False",1809,7600,NA
"A3HFS6Q0TONAB9","Fri Oct 30 2020 14:35:51 GMT-0400 (Cuba Daylight Time)","Fri Oct 30 2020 14:44:14 GMT-0400 (Cuba Daylight Time)","Mozilla/5.0 (Windows NT 10.0; Win64; x64) AppleWebKit/537.36 (KHTML, like Gecko) Chrome/86.0.4240.111 Safari/537.36",122,"[0.9, 0.5, 0.1]","[0.8, 0.4, 0.2]","[u'red', u'black', u'blue']","[u'left', u'middle', u'right']","[0.8, 0.4, 0.2]","[u'medium', u'high', u'low']","red",49,"left","medium","True","False",399,7700,NA
"A3HFS6Q0TONAB9","Fri Oct 30 2020 14:35:51 GMT-0400 (Cuba Daylight Time)","Fri Oct 30 2020 14:44:14 GMT-0400 (Cuba Daylight Time)","Mozilla/5.0 (Windows NT 10.0; Win64; x64) AppleWebKit/537.36 (KHTML, like Gecko) Chrome/86.0.4240.111 Safari/537.36",123,"[0.9, 0.5, 0.1]","[0.8, 0.4, 0.2]","[u'red', u'black', u'blue']","[u'left', u'middle', u'right']","[0.8, 0.4, 0.2]","[u'medium', u'high', u'low']","red",49,"left","medium","True","False",2673,7800,NA
"A3HFS6Q0TONAB9","Fri Oct 30 2020 14:35:51 GMT-0400 (Cuba Daylight Time)","Fri Oct 30 2020 14:44:14 GMT-0400 (Cuba Daylight Time)","Mozilla/5.0 (Windows NT 10.0; Win64; x64) AppleWebKit/537.36 (KHTML, like Gecko) Chrome/86.0.4240.111 Safari/537.36",124,"[0.9, 0.5, 0.1]","[0.8, 0.4, 0.2]","[u'red', u'black', u'blue']","[u'left', u'middle', u'right']","[0.8, 0.4, 0.2]","[u'medium', u'high', u'low']","red",49,"left","medium","False","False",672,7750,NA
"A3HFS6Q0TONAB9","Fri Oct 30 2020 14:35:51 GMT-0400 (Cuba Daylight Time)","Fri Oct 30 2020 14:44:14 GMT-0400 (Cuba Daylight Time)","Mozilla/5.0 (Windows NT 10.0; Win64; x64) AppleWebKit/537.36 (KHTML, like Gecko) Chrome/86.0.4240.111 Safari/537.36",125,"[0.9, 0.5, 0.1]","[0.8, 0.4, 0.2]","[u'red', u'black', u'blue']","[u'left', u'middle', u'right']","[0.8, 0.4, 0.2]","[u'medium', u'high', u'low']","black",50,"middle","high","True","False",374,7850,NA
"A3HFS6Q0TONAB9","Fri Oct 30 2020 14:35:51 GMT-0400 (Cuba Daylight Time)","Fri Oct 30 2020 14:44:14 GMT-0400 (Cuba Daylight Time)","Mozilla/5.0 (Windows NT 10.0; Win64; x64) AppleWebKit/537.36 (KHTML, like Gecko) Chrome/86.0.4240.111 Safari/537.36",126,"[0.9, 0.5, 0.1]","[0.8, 0.4, 0.2]","[u'red', u'black', u'blue']","[u'left', u'middle', u'right']","[0.8, 0.4, 0.2]","[u'medium', u'high', u'low']","black",50,"middle","high","True","False",583,7950,NA
"A3HFS6Q0TONAB9","Fri Oct 30 2020 14:35:51 GMT-0400 (Cuba Daylight Time)","Fri Oct 30 2020 14:44:14 GMT-0400 (Cuba Daylight Time)","Mozilla/5.0 (Windows NT 10.0; Win64; x64) AppleWebKit/537.36 (KHTML, like Gecko) Chrome/86.0.4240.111 Safari/537.36",127,"[0.9, 0.5, 0.1]","[0.8, 0.4, 0.2]","[u'red', u'black', u'blue']","[u'left', u'middle', u'right']","[0.8, 0.4, 0.2]","[u'medium', u'high', u'low']","black",50,"middle","high","True","False",414,8050,NA
"A3HFS6Q0TONAB9","Fri Oct 30 2020 14:35:51 GMT-0400 (Cuba Daylight Time)","Fri Oct 30 2020 14:44:14 GMT-0400 (Cuba Daylight Time)","Mozilla/5.0 (Windows NT 10.0; Win64; x64) AppleWebKit/537.36 (KHTML, like Gecko) Chrome/86.0.4240.111 Safari/537.36",128,"[0.9, 0.5, 0.1]","[0.8, 0.4, 0.2]","[u'red', u'black', u'blue']","[u'left', u'middle', u'right']","[0.8, 0.4, 0.2]","[u'medium', u'high', u'low']","black",50,"middle","high","True","False",215,8150,NA
"A3HFS6Q0TONAB9","Fri Oct 30 2020 14:35:51 GMT-0400 (Cuba Daylight Time)","Fri Oct 30 2020 14:44:14 GMT-0400 (Cuba Daylight Time)","Mozilla/5.0 (Windows NT 10.0; Win64; x64) AppleWebKit/537.36 (KHTML, like Gecko) Chrome/86.0.4240.111 Safari/537.36",129,"[0.9, 0.5, 0.1]","[0.8, 0.4, 0.2]","[u'red', u'black', u'blue']","[u'left', u'middle', u'right']","[0.8, 0.4, 0.2]","[u'medium', u'high', u'low']","black",50,"middle","high","True","False",302,8250,NA
"A3HFS6Q0TONAB9","Fri Oct 30 2020 14:35:51 GMT-0400 (Cuba Daylight Time)","Fri Oct 30 2020 14:44:14 GMT-0400 (Cuba Daylight Time)","Mozilla/5.0 (Windows NT 10.0; Win64; x64) AppleWebKit/537.36 (KHTML, like Gecko) Chrome/86.0.4240.111 Safari/537.36",130,"[0.9, 0.5, 0.1]","[0.8, 0.4, 0.2]","[u'red', u'black', u'blue']","[u'left', u'middle', u'right']","[0.8, 0.4, 0.2]","[u'medium', u'high', u'low']","black",50,"middle","high","True","False",271,8350,NA
"A3HFS6Q0TONAB9","Fri Oct 30 2020 14:35:51 GMT-0400 (Cuba Daylight Time)","Fri Oct 30 2020 14:44:14 GMT-0400 (Cuba Daylight Time)","Mozilla/5.0 (Windows NT 10.0; Win64; x64) AppleWebKit/537.36 (KHTML, like Gecko) Chrome/86.0.4240.111 Safari/537.36",131,"[0.9, 0.5, 0.1]","[0.8, 0.4, 0.2]","[u'red', u'black', u'blue']","[u'left', u'middle', u'right']","[0.8, 0.4, 0.2]","[u'medium', u'high', u'low']","black",50,"middle","high","False","False",240,8300,NA
"A3HFS6Q0TONAB9","Fri Oct 30 2020 14:35:51 GMT-0400 (Cuba Daylight Time)","Fri Oct 30 2020 14:44:14 GMT-0400 (Cuba Daylight Time)","Mozilla/5.0 (Windows NT 10.0; Win64; x64) AppleWebKit/537.36 (KHTML, like Gecko) Chrome/86.0.4240.111 Safari/537.36",132,"[0.9, 0.5, 0.1]","[0.8, 0.4, 0.2]","[u'red', u'black', u'blue']","[u'left', u'middle', u'right']","[0.8, 0.4, 0.2]","[u'medium', u'high', u'low']","blue",51,"right","low","False","False",688,8250,NA
"A3HFS6Q0TONAB9","Fri Oct 30 2020 14:35:51 GMT-0400 (Cuba Daylight Time)","Fri Oct 30 2020 14:44:14 GMT-0400 (Cuba Daylight Time)","Mozilla/5.0 (Windows NT 10.0; Win64; x64) AppleWebKit/537.36 (KHTML, like Gecko) Chrome/86.0.4240.111 Safari/537.36",133,"[0.9, 0.5, 0.1]","[0.8, 0.4, 0.2]","[u'red', u'black', u'blue']","[u'left', u'middle', u'right']","[0.8, 0.4, 0.2]","[u'medium', u'high', u'low']","red",49,"left","medium","False","False",415,8200,NA
"A3HFS6Q0TONAB9","Fri Oct 30 2020 14:35:51 GMT-0400 (Cuba Daylight Time)","Fri Oct 30 2020 14:44:14 GMT-0400 (Cuba Daylight Time)","Mozilla/5.0 (Windows NT 10.0; Win64; x64) AppleWebKit/537.36 (KHTML, like Gecko) Chrome/86.0.4240.111 Safari/537.36",134,"[0.9, 0.5, 0.1]","[0.8, 0.4, 0.2]","[u'red', u'black', u'blue']","[u'left', u'middle', u'right']","[0.8, 0.4, 0.2]","[u'medium', u'high', u'low']","black",50,"middle","high","True","False",496,8300,NA
"A3HFS6Q0TONAB9","Fri Oct 30 2020 14:35:51 GMT-0400 (Cuba Daylight Time)","Fri Oct 30 2020 14:44:14 GMT-0400 (Cuba Daylight Time)","Mozilla/5.0 (Windows NT 10.0; Win64; x64) AppleWebKit/537.36 (KHTML, like Gecko) Chrome/86.0.4240.111 Safari/537.36",135,"[0.9, 0.5, 0.1]","[0.8, 0.4, 0.2]","[u'red', u'black', u'blue']","[u'left', u'middle', u'right']","[0.8, 0.4, 0.2]","[u'medium', u'high', u'low']","black",50,"middle","high","True","False",468,8400,NA
"A3HFS6Q0TONAB9","Fri Oct 30 2020 14:35:51 GMT-0400 (Cuba Daylight Time)","Fri Oct 30 2020 14:44:14 GMT-0400 (Cuba Daylight Time)","Mozilla/5.0 (Windows NT 10.0; Win64; x64) AppleWebKit/537.36 (KHTML, like Gecko) Chrome/86.0.4240.111 Safari/537.36",136,"[0.9, 0.5, 0.1]","[0.8, 0.4, 0.2]","[u'red', u'black', u'blue']","[u'left', u'middle', u'right']","[0.8, 0.4, 0.2]","[u'medium', u'high', u'low']","black",50,"middle","high","True","False",216,8500,NA
"A3HFS6Q0TONAB9","Fri Oct 30 2020 14:35:51 GMT-0400 (Cuba Daylight Time)","Fri Oct 30 2020 14:44:14 GMT-0400 (Cuba Daylight Time)","Mozilla/5.0 (Windows NT 10.0; Win64; x64) AppleWebKit/537.36 (KHTML, like Gecko) Chrome/86.0.4240.111 Safari/537.36",137,"[0.9, 0.5, 0.1]","[0.8, 0.4, 0.2]","[u'red', u'black', u'blue']","[u'left', u'middle', u'right']","[0.8, 0.4, 0.2]","[u'medium', u'high', u'low']","black",50,"middle","high","True","False",1374,8600,NA
"A3HFS6Q0TONAB9","Fri Oct 30 2020 14:35:51 GMT-0400 (Cuba Daylight Time)","Fri Oct 30 2020 14:44:14 GMT-0400 (Cuba Daylight Time)","Mozilla/5.0 (Windows NT 10.0; Win64; x64) AppleWebKit/537.36 (KHTML, like Gecko) Chrome/86.0.4240.111 Safari/537.36",138,"[0.9, 0.5, 0.1]","[0.8, 0.4, 0.2]","[u'red', u'black', u'blue']","[u'left', u'middle', u'right']","[0.8, 0.4, 0.2]","[u'medium', u'high', u'low']","black",50,"middle","high","True","False",1494,8700,NA
"A3HFS6Q0TONAB9","Fri Oct 30 2020 14:35:51 GMT-0400 (Cuba Daylight Time)","Fri Oct 30 2020 14:44:14 GMT-0400 (Cuba Daylight Time)","Mozilla/5.0 (Windows NT 10.0; Win64; x64) AppleWebKit/537.36 (KHTML, like Gecko) Chrome/86.0.4240.111 Safari/537.36",139,"[0.9, 0.5, 0.1]","[0.8, 0.4, 0.2]","[u'red', u'black', u'blue']","[u'left', u'middle', u'right']","[0.8, 0.4, 0.2]","[u'medium', u'high', u'low']","black",50,"middle","high","False","False",942,8650,NA
"A3HFS6Q0TONAB9","Fri Oct 30 2020 14:35:51 GMT-0400 (Cuba Daylight Time)","Fri Oct 30 2020 14:44:14 GMT-0400 (Cuba Daylight Time)","Mozilla/5.0 (Windows NT 10.0; Win64; x64) AppleWebKit/537.36 (KHTML, like Gecko) Chrome/86.0.4240.111 Safari/537.36",140,"[0.9, 0.5, 0.1]","[0.8, 0.4, 0.2]","[u'red', u'black', u'blue']","[u'left', u'middle', u'right']","[0.8, 0.4, 0.2]","[u'medium', u'high', u'low']","blue",51,"right","low","False","False",538,8600,NA
"A3HFS6Q0TONAB9","Fri Oct 30 2020 14:35:51 GMT-0400 (Cuba Daylight Time)","Fri Oct 30 2020 14:44:14 GMT-0400 (Cuba Daylight Time)","Mozilla/5.0 (Windows NT 10.0; Win64; x64) AppleWebKit/537.36 (KHTML, like Gecko) Chrome/86.0.4240.111 Safari/537.36",141,"[0.9, 0.5, 0.1]","[0.8, 0.4, 0.2]","[u'red', u'black', u'blue']","[u'left', u'middle', u'right']","[0.8, 0.4, 0.2]","[u'medium', u'high', u'low']","red",49,"left","medium","False","False",364,8550,NA
"A3HFS6Q0TONAB9","Fri Oct 30 2020 14:35:51 GMT-0400 (Cuba Daylight Time)","Fri Oct 30 2020 14:44:14 GMT-0400 (Cuba Daylight Time)","Mozilla/5.0 (Windows NT 10.0; Win64; x64) AppleWebKit/537.36 (KHTML, like Gecko) Chrome/86.0.4240.111 Safari/537.36",142,"[0.9, 0.5, 0.1]","[0.8, 0.4, 0.2]","[u'red', u'black', u'blue']","[u'left', u'middle', u'right']","[0.8, 0.4, 0.2]","[u'medium', u'high', u'low']","black",50,"middle","high","False","False",309,8500,NA
"A3HFS6Q0TONAB9","Fri Oct 30 2020 14:35:51 GMT-0400 (Cuba Daylight Time)","Fri Oct 30 2020 14:44:14 GMT-0400 (Cuba Daylight Time)","Mozilla/5.0 (Windows NT 10.0; Win64; x64) AppleWebKit/537.36 (KHTML, like Gecko) Chrome/86.0.4240.111 Safari/537.36",143,"[0.9, 0.5, 0.1]","[0.8, 0.4, 0.2]","[u'red', u'black', u'blue']","[u'left', u'middle', u'right']","[0.8, 0.4, 0.2]","[u'medium', u'high', u'low']","blue",51,"right","low","False","False",345,8450,NA
"A3HFS6Q0TONAB9","Fri Oct 30 2020 14:35:51 GMT-0400 (Cuba Daylight Time)","Fri Oct 30 2020 14:44:14 GMT-0400 (Cuba Daylight Time)","Mozilla/5.0 (Windows NT 10.0; Win64; x64) AppleWebKit/537.36 (KHTML, like Gecko) Chrome/86.0.4240.111 Safari/537.36",144,"[0.9, 0.5, 0.1]","[0.8, 0.4, 0.2]","[u'red', u'black', u'blue']","[u'left', u'middle', u'right']","[0.8, 0.4, 0.2]","[u'medium', u'high', u'low']","red",49,"left","medium","True","False",748,8550,NA
"A3HFS6Q0TONAB9","Fri Oct 30 2020 14:35:51 GMT-0400 (Cuba Daylight Time)","Fri Oct 30 2020 14:44:14 GMT-0400 (Cuba Daylight Time)","Mozilla/5.0 (Windows NT 10.0; Win64; x64) AppleWebKit/537.36 (KHTML, like Gecko) Chrome/86.0.4240.111 Safari/537.36",145,"[0.9, 0.5, 0.1]","[0.8, 0.4, 0.2]","[u'red', u'black', u'blue']","[u'left', u'middle', u'right']","[0.8, 0.4, 0.2]","[u'medium', u'high', u'low']","red",49,"left","medium","True","False",987,8650,NA
"A3HFS6Q0TONAB9","Fri Oct 30 2020 14:35:51 GMT-0400 (Cuba Daylight Time)","Fri Oct 30 2020 14:44:14 GMT-0400 (Cuba Daylight Time)","Mozilla/5.0 (Windows NT 10.0; Win64; x64) AppleWebKit/537.36 (KHTML, like Gecko) Chrome/86.0.4240.111 Safari/537.36",146,"[0.9, 0.5, 0.1]","[0.8, 0.4, 0.2]","[u'red', u'black', u'blue']","[u'left', u'middle', u'right']","[0.8, 0.4, 0.2]","[u'medium', u'high', u'low']","red",49,"left","medium","False","False",1825,8600,NA
"A3HFS6Q0TONAB9","Fri Oct 30 2020 14:35:51 GMT-0400 (Cuba Daylight Time)","Fri Oct 30 2020 14:44:14 GMT-0400 (Cuba Daylight Time)","Mozilla/5.0 (Windows NT 10.0; Win64; x64) AppleWebKit/537.36 (KHTML, like Gecko) Chrome/86.0.4240.111 Safari/537.36",147,"[0.9, 0.5, 0.1]","[0.8, 0.4, 0.2]","[u'red', u'black', u'blue']","[u'left', u'middle', u'right']","[0.8, 0.4, 0.2]","[u'medium', u'high', u'low']","black",50,"middle","high","False","False",370,8550,NA
"A3HFS6Q0TONAB9","Fri Oct 30 2020 14:35:51 GMT-0400 (Cuba Daylight Time)","Fri Oct 30 2020 14:44:14 GMT-0400 (Cuba Daylight Time)","Mozilla/5.0 (Windows NT 10.0; Win64; x64) AppleWebKit/537.36 (KHTML, like Gecko) Chrome/86.0.4240.111 Safari/537.36",148,"[0.9, 0.5, 0.1]","[0.8, 0.4, 0.2]","[u'red', u'black', u'blue']","[u'left', u'middle', u'right']","[0.8, 0.4, 0.2]","[u'medium', u'high', u'low']","blue",51,"right","low","False","False",260,8500,NA
"A3HFS6Q0TONAB9","Fri Oct 30 2020 14:35:51 GMT-0400 (Cuba Daylight Time)","Fri Oct 30 2020 14:44:14 GMT-0400 (Cuba Daylight Time)","Mozilla/5.0 (Windows NT 10.0; Win64; x64) AppleWebKit/537.36 (KHTML, like Gecko) Chrome/86.0.4240.111 Safari/537.36",149,"[0.9, 0.5, 0.1]","[0.8, 0.4, 0.2]","[u'red', u'black', u'blue']","[u'left', u'middle', u'right']","[0.8, 0.4, 0.2]","[u'medium', u'high', u'low']","red",49,"left","medium","False","False",346,8450,NA
"A3HFS6Q0TONAB9","Fri Oct 30 2020 14:35:51 GMT-0400 (Cuba Daylight Time)","Fri Oct 30 2020 14:44:14 GMT-0400 (Cuba Daylight Time)","Mozilla/5.0 (Windows NT 10.0; Win64; x64) AppleWebKit/537.36 (KHTML, like Gecko) Chrome/86.0.4240.111 Safari/537.36",150,"[0.9, 0.5, 0.1]","[0.8, 0.4, 0.2]","[u'red', u'black', u'blue']","[u'left', u'middle', u'right']","[0.8, 0.4, 0.2]","[u'medium', u'high', u'low']","black",50,"middle","high","False","False",169,8400,NA
"A3HFS6Q0TONAB9","Fri Oct 30 2020 14:35:51 GMT-0400 (Cuba Daylight Time)","Fri Oct 30 2020 14:44:14 GMT-0400 (Cuba Daylight Time)","Mozilla/5.0 (Windows NT 10.0; Win64; x64) AppleWebKit/537.36 (KHTML, like Gecko) Chrome/86.0.4240.111 Safari/537.36",151,"[0.9, 0.5, 0.1]","[0.8, 0.4, 0.2]","[u'red', u'black', u'blue']","[u'left', u'middle', u'right']","[0.8, 0.4, 0.2]","[u'medium', u'high', u'low']","blue",51,"right","low","False","False",386,8350,NA
"A3HFS6Q0TONAB9","Fri Oct 30 2020 14:35:51 GMT-0400 (Cuba Daylight Time)","Fri Oct 30 2020 14:44:14 GMT-0400 (Cuba Daylight Time)","Mozilla/5.0 (Windows NT 10.0; Win64; x64) AppleWebKit/537.36 (KHTML, like Gecko) Chrome/86.0.4240.111 Safari/537.36",152,"[0.9, 0.5, 0.1]","[0.8, 0.4, 0.2]","[u'red', u'black', u'blue']","[u'left', u'middle', u'right']","[0.8, 0.4, 0.2]","[u'medium', u'high', u'low']","red",49,"left","medium","False","False",1445,8300,NA
"A3HFS6Q0TONAB9","Fri Oct 30 2020 14:35:51 GMT-0400 (Cuba Daylight Time)","Fri Oct 30 2020 14:44:14 GMT-0400 (Cuba Daylight Time)","Mozilla/5.0 (Windows NT 10.0; Win64; x64) AppleWebKit/537.36 (KHTML, like Gecko) Chrome/86.0.4240.111 Safari/537.36",153,"[0.9, 0.5, 0.1]","[0.8, 0.4, 0.2]","[u'red', u'black', u'blue']","[u'left', u'middle', u'right']","[0.8, 0.4, 0.2]","[u'medium', u'high', u'low']","black",50,"middle","high","False","False",1741,8250,NA
"A3HFS6Q0TONAB9","Fri Oct 30 2020 14:35:51 GMT-0400 (Cuba Daylight Time)","Fri Oct 30 2020 14:44:14 GMT-0400 (Cuba Daylight Time)","Mozilla/5.0 (Windows NT 10.0; Win64; x64) AppleWebKit/537.36 (KHTML, like Gecko) Chrome/86.0.4240.111 Safari/537.36",154,"[0.9, 0.5, 0.1]","[0.8, 0.4, 0.2]","[u'red', u'black', u'blue']","[u'left', u'middle', u'right']","[0.8, 0.4, 0.2]","[u'medium', u'high', u'low']","black",50,"middle","high","True","False",636,8350,NA
"A3HFS6Q0TONAB9","Fri Oct 30 2020 14:35:51 GMT-0400 (Cuba Daylight Time)","Fri Oct 30 2020 14:44:14 GMT-0400 (Cuba Daylight Time)","Mozilla/5.0 (Windows NT 10.0; Win64; x64) AppleWebKit/537.36 (KHTML, like Gecko) Chrome/86.0.4240.111 Safari/537.36",155,"[0.9, 0.5, 0.1]","[0.8, 0.4, 0.2]","[u'red', u'black', u'blue']","[u'left', u'middle', u'right']","[0.8, 0.4, 0.2]","[u'medium', u'high', u'low']","black",50,"middle","high","True","False",345,8450,NA
"A3HFS6Q0TONAB9","Fri Oct 30 2020 14:35:51 GMT-0400 (Cuba Daylight Time)","Fri Oct 30 2020 14:44:14 GMT-0400 (Cuba Daylight Time)","Mozilla/5.0 (Windows NT 10.0; Win64; x64) AppleWebKit/537.36 (KHTML, like Gecko) Chrome/86.0.4240.111 Safari/537.36",156,"[0.9, 0.5, 0.1]","[0.8, 0.4, 0.2]","[u'red', u'black', u'blue']","[u'left', u'middle', u'right']","[0.8, 0.4, 0.2]","[u'medium', u'high', u'low']","black",50,"middle","high","True","False",722,8550,NA
"A3HFS6Q0TONAB9","Fri Oct 30 2020 14:35:51 GMT-0400 (Cuba Daylight Time)","Fri Oct 30 2020 14:44:14 GMT-0400 (Cuba Daylight Time)","Mozilla/5.0 (Windows NT 10.0; Win64; x64) AppleWebKit/537.36 (KHTML, like Gecko) Chrome/86.0.4240.111 Safari/537.36",157,"[0.9, 0.5, 0.1]","[0.8, 0.4, 0.2]","[u'red', u'black', u'blue']","[u'left', u'middle', u'right']","[0.8, 0.4, 0.2]","[u'medium', u'high', u'low']","black",50,"middle","high","False","False",728,8500,NA
"A3HFS6Q0TONAB9","Fri Oct 30 2020 14:35:51 GMT-0400 (Cuba Daylight Time)","Fri Oct 30 2020 14:44:14 GMT-0400 (Cuba Daylight Time)","Mozilla/5.0 (Windows NT 10.0; Win64; x64) AppleWebKit/537.36 (KHTML, like Gecko) Chrome/86.0.4240.111 Safari/537.36",158,"[0.9, 0.5, 0.1]","[0.8, 0.4, 0.2]","[u'red', u'black', u'blue']","[u'left', u'middle', u'right']","[0.8, 0.4, 0.2]","[u'medium', u'high', u'low']","red",49,"left","medium","False","False",1271,8450,NA
"A3HFS6Q0TONAB9","Fri Oct 30 2020 14:35:51 GMT-0400 (Cuba Daylight Time)","Fri Oct 30 2020 14:44:14 GMT-0400 (Cuba Daylight Time)","Mozilla/5.0 (Windows NT 10.0; Win64; x64) AppleWebKit/537.36 (KHTML, like Gecko) Chrome/86.0.4240.111 Safari/537.36",159,"[0.9, 0.5, 0.1]","[0.8, 0.4, 0.2]","[u'red', u'black', u'blue']","[u'left', u'middle', u'right']","[0.8, 0.4, 0.2]","[u'medium', u'high', u'low']","black",50,"middle","high","False","False",423,8400,NA
"A3HFS6Q0TONAB9","Fri Oct 30 2020 14:35:51 GMT-0400 (Cuba Daylight Time)","Fri Oct 30 2020 14:44:14 GMT-0400 (Cuba Daylight Time)","Mozilla/5.0 (Windows NT 10.0; Win64; x64) AppleWebKit/537.36 (KHTML, like Gecko) Chrome/86.0.4240.111 Safari/537.36",160,"[0.9, 0.5, 0.1]","[0.8, 0.4, 0.2]","[u'red', u'black', u'blue']","[u'left', u'middle', u'right']","[0.8, 0.4, 0.2]","[u'medium', u'high', u'low']","black",50,"middle","high","True","False",220,8500,NA
