"src_subject_id","start_time","end_time","browser","index","first_half_probabilities","second_half_probabilities","deck_color","deck_position","deck_probabilities","deck_contingencies","response_color","key_press","response_position","response_probability","reward_type","trial_type","rt","reward_tally","exclusion_reason"
"A1U43WUOJQBK5T","Fri Oct 30 2020 13:46:34 GMT-0500 (Central Daylight Time)","Fri Oct 30 2020 13:52:36 GMT-0500 (Central Daylight Time)","Mozilla/5.0 (Windows NT 6.3; Win64; x64) AppleWebKit/537.36 (KHTML, like Gecko) Chrome/86.0.4240.111 Safari/537.36",1,"[0.9, 0.5, 0.1]","[0.8, 0.4, 0.2]","[u'red', u'blue', u'black']","[u'left', u'middle', u'right']","[0.9, 0.5, 0.1]","[u'low', u'high', u'medium']","blue",50,"middle","high","True","False",684,100,NA
"A1U43WUOJQBK5T","Fri Oct 30 2020 13:46:34 GMT-0500 (Central Daylight Time)","Fri Oct 30 2020 13:52:36 GMT-0500 (Central Daylight Time)","Mozilla/5.0 (Windows NT 6.3; Win64; x64) AppleWebKit/537.36 (KHTML, like Gecko) Chrome/86.0.4240.111 Safari/537.36",2,"[0.9, 0.5, 0.1]","[0.8, 0.4, 0.2]","[u'red', u'blue', u'black']","[u'left', u'middle', u'right']","[0.9, 0.5, 0.1]","[u'low', u'high', u'medium']","blue",50,"middle","high","False","False",409,50,NA
"A1U43WUOJQBK5T","Fri Oct 30 2020 13:46:34 GMT-0500 (Central Daylight Time)","Fri Oct 30 2020 13:52:36 GMT-0500 (Central Daylight Time)","Mozilla/5.0 (Windows NT 6.3; Win64; x64) AppleWebKit/537.36 (KHTML, like Gecko) Chrome/86.0.4240.111 Safari/537.36",3,"[0.9, 0.5, 0.1]","[0.8, 0.4, 0.2]","[u'red', u'blue', u'black']","[u'left', u'middle', u'right']","[0.9, 0.5, 0.1]","[u'low', u'high', u'medium']","red",49,"left","low","False","False",334,0,NA
"A1U43WUOJQBK5T","Fri Oct 30 2020 13:46:34 GMT-0500 (Central Daylight Time)","Fri Oct 30 2020 13:52:36 GMT-0500 (Central Daylight Time)","Mozilla/5.0 (Windows NT 6.3; Win64; x64) AppleWebKit/537.36 (KHTML, like Gecko) Chrome/86.0.4240.111 Safari/537.36",4,"[0.9, 0.5, 0.1]","[0.8, 0.4, 0.2]","[u'red', u'blue', u'black']","[u'left', u'middle', u'right']","[0.9, 0.5, 0.1]","[u'low', u'high', u'medium']","black",51,"right","medium","True","False",310,100,NA
"A1U43WUOJQBK5T","Fri Oct 30 2020 13:46:34 GMT-0500 (Central Daylight Time)","Fri Oct 30 2020 13:52:36 GMT-0500 (Central Daylight Time)","Mozilla/5.0 (Windows NT 6.3; Win64; x64) AppleWebKit/537.36 (KHTML, like Gecko) Chrome/86.0.4240.111 Safari/537.36",5,"[0.9, 0.5, 0.1]","[0.8, 0.4, 0.2]","[u'red', u'blue', u'black']","[u'left', u'middle', u'right']","[0.9, 0.5, 0.1]","[u'low', u'high', u'medium']","black",51,"right","medium","True","False",504,200,NA
"A1U43WUOJQBK5T","Fri Oct 30 2020 13:46:34 GMT-0500 (Central Daylight Time)","Fri Oct 30 2020 13:52:36 GMT-0500 (Central Daylight Time)","Mozilla/5.0 (Windows NT 6.3; Win64; x64) AppleWebKit/537.36 (KHTML, like Gecko) Chrome/86.0.4240.111 Safari/537.36",6,"[0.9, 0.5, 0.1]","[0.8, 0.4, 0.2]","[u'red', u'blue', u'black']","[u'left', u'middle', u'right']","[0.9, 0.5, 0.1]","[u'low', u'high', u'medium']","black",51,"right","medium","False","False",344,150,NA
"A1U43WUOJQBK5T","Fri Oct 30 2020 13:46:34 GMT-0500 (Central Daylight Time)","Fri Oct 30 2020 13:52:36 GMT-0500 (Central Daylight Time)","Mozilla/5.0 (Windows NT 6.3; Win64; x64) AppleWebKit/537.36 (KHTML, like Gecko) Chrome/86.0.4240.111 Safari/537.36",7,"[0.9, 0.5, 0.1]","[0.8, 0.4, 0.2]","[u'red', u'blue', u'black']","[u'left', u'middle', u'right']","[0.9, 0.5, 0.1]","[u'low', u'high', u'medium']","blue",50,"middle","high","True","False",316,250,NA
"A1U43WUOJQBK5T","Fri Oct 30 2020 13:46:34 GMT-0500 (Central Daylight Time)","Fri Oct 30 2020 13:52:36 GMT-0500 (Central Daylight Time)","Mozilla/5.0 (Windows NT 6.3; Win64; x64) AppleWebKit/537.36 (KHTML, like Gecko) Chrome/86.0.4240.111 Safari/537.36",8,"[0.9, 0.5, 0.1]","[0.8, 0.4, 0.2]","[u'red', u'blue', u'black']","[u'left', u'middle', u'right']","[0.9, 0.5, 0.1]","[u'low', u'high', u'medium']","blue",50,"middle","high","True","False",300,350,NA
"A1U43WUOJQBK5T","Fri Oct 30 2020 13:46:34 GMT-0500 (Central Daylight Time)","Fri Oct 30 2020 13:52:36 GMT-0500 (Central Daylight Time)","Mozilla/5.0 (Windows NT 6.3; Win64; x64) AppleWebKit/537.36 (KHTML, like Gecko) Chrome/86.0.4240.111 Safari/537.36",9,"[0.9, 0.5, 0.1]","[0.8, 0.4, 0.2]","[u'red', u'blue', u'black']","[u'left', u'middle', u'right']","[0.9, 0.5, 0.1]","[u'low', u'high', u'medium']","red",49,"left","low","False","False",708,300,NA
"A1U43WUOJQBK5T","Fri Oct 30 2020 13:46:34 GMT-0500 (Central Daylight Time)","Fri Oct 30 2020 13:52:36 GMT-0500 (Central Daylight Time)","Mozilla/5.0 (Windows NT 6.3; Win64; x64) AppleWebKit/537.36 (KHTML, like Gecko) Chrome/86.0.4240.111 Safari/537.36",10,"[0.9, 0.5, 0.1]","[0.8, 0.4, 0.2]","[u'red', u'blue', u'black']","[u'left', u'middle', u'right']","[0.9, 0.5, 0.1]","[u'low', u'high', u'medium']","blue",50,"middle","high","True","False",558,400,NA
"A1U43WUOJQBK5T","Fri Oct 30 2020 13:46:34 GMT-0500 (Central Daylight Time)","Fri Oct 30 2020 13:52:36 GMT-0500 (Central Daylight Time)","Mozilla/5.0 (Windows NT 6.3; Win64; x64) AppleWebKit/537.36 (KHTML, like Gecko) Chrome/86.0.4240.111 Safari/537.36",11,"[0.9, 0.5, 0.1]","[0.8, 0.4, 0.2]","[u'red', u'blue', u'black']","[u'left', u'middle', u'right']","[0.9, 0.5, 0.1]","[u'low', u'high', u'medium']","blue",50,"middle","high","True","False",282,500,NA
"A1U43WUOJQBK5T","Fri Oct 30 2020 13:46:34 GMT-0500 (Central Daylight Time)","Fri Oct 30 2020 13:52:36 GMT-0500 (Central Daylight Time)","Mozilla/5.0 (Windows NT 6.3; Win64; x64) AppleWebKit/537.36 (KHTML, like Gecko) Chrome/86.0.4240.111 Safari/537.36",12,"[0.9, 0.5, 0.1]","[0.8, 0.4, 0.2]","[u'red', u'blue', u'black']","[u'left', u'middle', u'right']","[0.9, 0.5, 0.1]","[u'low', u'high', u'medium']","blue",50,"middle","high","True","False",302,600,NA
"A1U43WUOJQBK5T","Fri Oct 30 2020 13:46:34 GMT-0500 (Central Daylight Time)","Fri Oct 30 2020 13:52:36 GMT-0500 (Central Daylight Time)","Mozilla/5.0 (Windows NT 6.3; Win64; x64) AppleWebKit/537.36 (KHTML, like Gecko) Chrome/86.0.4240.111 Safari/537.36",13,"[0.9, 0.5, 0.1]","[0.8, 0.4, 0.2]","[u'red', u'blue', u'black']","[u'left', u'middle', u'right']","[0.9, 0.5, 0.1]","[u'low', u'high', u'medium']","blue",50,"middle","high","True","False",287,700,NA
"A1U43WUOJQBK5T","Fri Oct 30 2020 13:46:34 GMT-0500 (Central Daylight Time)","Fri Oct 30 2020 13:52:36 GMT-0500 (Central Daylight Time)","Mozilla/5.0 (Windows NT 6.3; Win64; x64) AppleWebKit/537.36 (KHTML, like Gecko) Chrome/86.0.4240.111 Safari/537.36",14,"[0.9, 0.5, 0.1]","[0.8, 0.4, 0.2]","[u'red', u'blue', u'black']","[u'left', u'middle', u'right']","[0.9, 0.5, 0.1]","[u'low', u'high', u'medium']","blue",50,"middle","high","True","False",359,800,NA
"A1U43WUOJQBK5T","Fri Oct 30 2020 13:46:34 GMT-0500 (Central Daylight Time)","Fri Oct 30 2020 13:52:36 GMT-0500 (Central Daylight Time)","Mozilla/5.0 (Windows NT 6.3; Win64; x64) AppleWebKit/537.36 (KHTML, like Gecko) Chrome/86.0.4240.111 Safari/537.36",15,"[0.9, 0.5, 0.1]","[0.8, 0.4, 0.2]","[u'red', u'blue', u'black']","[u'left', u'middle', u'right']","[0.9, 0.5, 0.1]","[u'low', u'high', u'medium']","blue",50,"middle","high","True","False",291,900,NA
"A1U43WUOJQBK5T","Fri Oct 30 2020 13:46:34 GMT-0500 (Central Daylight Time)","Fri Oct 30 2020 13:52:36 GMT-0500 (Central Daylight Time)","Mozilla/5.0 (Windows NT 6.3; Win64; x64) AppleWebKit/537.36 (KHTML, like Gecko) Chrome/86.0.4240.111 Safari/537.36",16,"[0.9, 0.5, 0.1]","[0.8, 0.4, 0.2]","[u'red', u'blue', u'black']","[u'left', u'middle', u'right']","[0.9, 0.5, 0.1]","[u'low', u'high', u'medium']","blue",50,"middle","high","True","True",429,1000,NA
"A1U43WUOJQBK5T","Fri Oct 30 2020 13:46:34 GMT-0500 (Central Daylight Time)","Fri Oct 30 2020 13:52:36 GMT-0500 (Central Daylight Time)","Mozilla/5.0 (Windows NT 6.3; Win64; x64) AppleWebKit/537.36 (KHTML, like Gecko) Chrome/86.0.4240.111 Safari/537.36",17,"[0.9, 0.5, 0.1]","[0.8, 0.4, 0.2]","[u'red', u'blue', u'black']","[u'left', u'middle', u'right']","[0.9, 0.5, 0.1]","[u'medium', u'low', u'high']","blue",50,"middle","low","False","False",315,950,NA
"A1U43WUOJQBK5T","Fri Oct 30 2020 13:46:34 GMT-0500 (Central Daylight Time)","Fri Oct 30 2020 13:52:36 GMT-0500 (Central Daylight Time)","Mozilla/5.0 (Windows NT 6.3; Win64; x64) AppleWebKit/537.36 (KHTML, like Gecko) Chrome/86.0.4240.111 Safari/537.36",18,"[0.9, 0.5, 0.1]","[0.8, 0.4, 0.2]","[u'red', u'blue', u'black']","[u'left', u'middle', u'right']","[0.9, 0.5, 0.1]","[u'medium', u'low', u'high']","red",49,"left","medium","False","False",381,900,NA
"A1U43WUOJQBK5T","Fri Oct 30 2020 13:46:34 GMT-0500 (Central Daylight Time)","Fri Oct 30 2020 13:52:36 GMT-0500 (Central Daylight Time)","Mozilla/5.0 (Windows NT 6.3; Win64; x64) AppleWebKit/537.36 (KHTML, like Gecko) Chrome/86.0.4240.111 Safari/537.36",19,"[0.9, 0.5, 0.1]","[0.8, 0.4, 0.2]","[u'red', u'blue', u'black']","[u'left', u'middle', u'right']","[0.9, 0.5, 0.1]","[u'medium', u'low', u'high']","black",51,"right","high","True","False",317,1000,NA
"A1U43WUOJQBK5T","Fri Oct 30 2020 13:46:34 GMT-0500 (Central Daylight Time)","Fri Oct 30 2020 13:52:36 GMT-0500 (Central Daylight Time)","Mozilla/5.0 (Windows NT 6.3; Win64; x64) AppleWebKit/537.36 (KHTML, like Gecko) Chrome/86.0.4240.111 Safari/537.36",20,"[0.9, 0.5, 0.1]","[0.8, 0.4, 0.2]","[u'red', u'blue', u'black']","[u'left', u'middle', u'right']","[0.9, 0.5, 0.1]","[u'medium', u'low', u'high']","black",51,"right","high","True","False",325,1100,NA
"A1U43WUOJQBK5T","Fri Oct 30 2020 13:46:34 GMT-0500 (Central Daylight Time)","Fri Oct 30 2020 13:52:36 GMT-0500 (Central Daylight Time)","Mozilla/5.0 (Windows NT 6.3; Win64; x64) AppleWebKit/537.36 (KHTML, like Gecko) Chrome/86.0.4240.111 Safari/537.36",21,"[0.9, 0.5, 0.1]","[0.8, 0.4, 0.2]","[u'red', u'blue', u'black']","[u'left', u'middle', u'right']","[0.9, 0.5, 0.1]","[u'medium', u'low', u'high']","black",51,"right","high","True","False",448,1200,NA
"A1U43WUOJQBK5T","Fri Oct 30 2020 13:46:34 GMT-0500 (Central Daylight Time)","Fri Oct 30 2020 13:52:36 GMT-0500 (Central Daylight Time)","Mozilla/5.0 (Windows NT 6.3; Win64; x64) AppleWebKit/537.36 (KHTML, like Gecko) Chrome/86.0.4240.111 Safari/537.36",22,"[0.9, 0.5, 0.1]","[0.8, 0.4, 0.2]","[u'red', u'blue', u'black']","[u'left', u'middle', u'right']","[0.9, 0.5, 0.1]","[u'medium', u'low', u'high']","black",51,"right","high","True","False",390,1300,NA
"A1U43WUOJQBK5T","Fri Oct 30 2020 13:46:34 GMT-0500 (Central Daylight Time)","Fri Oct 30 2020 13:52:36 GMT-0500 (Central Daylight Time)","Mozilla/5.0 (Windows NT 6.3; Win64; x64) AppleWebKit/537.36 (KHTML, like Gecko) Chrome/86.0.4240.111 Safari/537.36",23,"[0.9, 0.5, 0.1]","[0.8, 0.4, 0.2]","[u'red', u'blue', u'black']","[u'left', u'middle', u'right']","[0.9, 0.5, 0.1]","[u'medium', u'low', u'high']","black",51,"right","high","True","False",290,1400,NA
"A1U43WUOJQBK5T","Fri Oct 30 2020 13:46:34 GMT-0500 (Central Daylight Time)","Fri Oct 30 2020 13:52:36 GMT-0500 (Central Daylight Time)","Mozilla/5.0 (Windows NT 6.3; Win64; x64) AppleWebKit/537.36 (KHTML, like Gecko) Chrome/86.0.4240.111 Safari/537.36",24,"[0.9, 0.5, 0.1]","[0.8, 0.4, 0.2]","[u'red', u'blue', u'black']","[u'left', u'middle', u'right']","[0.9, 0.5, 0.1]","[u'medium', u'low', u'high']","black",51,"right","high","True","False",296,1500,NA
"A1U43WUOJQBK5T","Fri Oct 30 2020 13:46:34 GMT-0500 (Central Daylight Time)","Fri Oct 30 2020 13:52:36 GMT-0500 (Central Daylight Time)","Mozilla/5.0 (Windows NT 6.3; Win64; x64) AppleWebKit/537.36 (KHTML, like Gecko) Chrome/86.0.4240.111 Safari/537.36",25,"[0.9, 0.5, 0.1]","[0.8, 0.4, 0.2]","[u'red', u'blue', u'black']","[u'left', u'middle', u'right']","[0.9, 0.5, 0.1]","[u'medium', u'low', u'high']","black",51,"right","high","True","False",424,1600,NA
"A1U43WUOJQBK5T","Fri Oct 30 2020 13:46:34 GMT-0500 (Central Daylight Time)","Fri Oct 30 2020 13:52:36 GMT-0500 (Central Daylight Time)","Mozilla/5.0 (Windows NT 6.3; Win64; x64) AppleWebKit/537.36 (KHTML, like Gecko) Chrome/86.0.4240.111 Safari/537.36",26,"[0.9, 0.5, 0.1]","[0.8, 0.4, 0.2]","[u'red', u'blue', u'black']","[u'left', u'middle', u'right']","[0.9, 0.5, 0.1]","[u'medium', u'low', u'high']","black",51,"right","high","True","False",288,1700,NA
"A1U43WUOJQBK5T","Fri Oct 30 2020 13:46:34 GMT-0500 (Central Daylight Time)","Fri Oct 30 2020 13:52:36 GMT-0500 (Central Daylight Time)","Mozilla/5.0 (Windows NT 6.3; Win64; x64) AppleWebKit/537.36 (KHTML, like Gecko) Chrome/86.0.4240.111 Safari/537.36",27,"[0.9, 0.5, 0.1]","[0.8, 0.4, 0.2]","[u'red', u'blue', u'black']","[u'left', u'middle', u'right']","[0.9, 0.5, 0.1]","[u'medium', u'low', u'high']","black",51,"right","high","True","True",332,1800,NA
"A1U43WUOJQBK5T","Fri Oct 30 2020 13:46:34 GMT-0500 (Central Daylight Time)","Fri Oct 30 2020 13:52:36 GMT-0500 (Central Daylight Time)","Mozilla/5.0 (Windows NT 6.3; Win64; x64) AppleWebKit/537.36 (KHTML, like Gecko) Chrome/86.0.4240.111 Safari/537.36",28,"[0.9, 0.5, 0.1]","[0.8, 0.4, 0.2]","[u'red', u'blue', u'black']","[u'left', u'middle', u'right']","[0.9, 0.5, 0.1]","[u'medium', u'high', u'low']","black",51,"right","low","False","False",266,1750,NA
"A1U43WUOJQBK5T","Fri Oct 30 2020 13:46:34 GMT-0500 (Central Daylight Time)","Fri Oct 30 2020 13:52:36 GMT-0500 (Central Daylight Time)","Mozilla/5.0 (Windows NT 6.3; Win64; x64) AppleWebKit/537.36 (KHTML, like Gecko) Chrome/86.0.4240.111 Safari/537.36",29,"[0.9, 0.5, 0.1]","[0.8, 0.4, 0.2]","[u'red', u'blue', u'black']","[u'left', u'middle', u'right']","[0.9, 0.5, 0.1]","[u'medium', u'high', u'low']","blue",50,"middle","high","True","False",268,1850,NA
"A1U43WUOJQBK5T","Fri Oct 30 2020 13:46:34 GMT-0500 (Central Daylight Time)","Fri Oct 30 2020 13:52:36 GMT-0500 (Central Daylight Time)","Mozilla/5.0 (Windows NT 6.3; Win64; x64) AppleWebKit/537.36 (KHTML, like Gecko) Chrome/86.0.4240.111 Safari/537.36",30,"[0.9, 0.5, 0.1]","[0.8, 0.4, 0.2]","[u'red', u'blue', u'black']","[u'left', u'middle', u'right']","[0.9, 0.5, 0.1]","[u'medium', u'high', u'low']","blue",50,"middle","high","True","False",24,1950,NA
"A1U43WUOJQBK5T","Fri Oct 30 2020 13:46:34 GMT-0500 (Central Daylight Time)","Fri Oct 30 2020 13:52:36 GMT-0500 (Central Daylight Time)","Mozilla/5.0 (Windows NT 6.3; Win64; x64) AppleWebKit/537.36 (KHTML, like Gecko) Chrome/86.0.4240.111 Safari/537.36",31,"[0.9, 0.5, 0.1]","[0.8, 0.4, 0.2]","[u'red', u'blue', u'black']","[u'left', u'middle', u'right']","[0.9, 0.5, 0.1]","[u'medium', u'high', u'low']","blue",50,"middle","high","True","False",275,2050,NA
"A1U43WUOJQBK5T","Fri Oct 30 2020 13:46:34 GMT-0500 (Central Daylight Time)","Fri Oct 30 2020 13:52:36 GMT-0500 (Central Daylight Time)","Mozilla/5.0 (Windows NT 6.3; Win64; x64) AppleWebKit/537.36 (KHTML, like Gecko) Chrome/86.0.4240.111 Safari/537.36",32,"[0.9, 0.5, 0.1]","[0.8, 0.4, 0.2]","[u'red', u'blue', u'black']","[u'left', u'middle', u'right']","[0.9, 0.5, 0.1]","[u'medium', u'high', u'low']","blue",50,"middle","high","False","False",312,2000,NA
"A1U43WUOJQBK5T","Fri Oct 30 2020 13:46:34 GMT-0500 (Central Daylight Time)","Fri Oct 30 2020 13:52:36 GMT-0500 (Central Daylight Time)","Mozilla/5.0 (Windows NT 6.3; Win64; x64) AppleWebKit/537.36 (KHTML, like Gecko) Chrome/86.0.4240.111 Safari/537.36",33,"[0.9, 0.5, 0.1]","[0.8, 0.4, 0.2]","[u'red', u'blue', u'black']","[u'left', u'middle', u'right']","[0.9, 0.5, 0.1]","[u'medium', u'high', u'low']","black",51,"right","low","False","False",260,1950,NA
"A1U43WUOJQBK5T","Fri Oct 30 2020 13:46:34 GMT-0500 (Central Daylight Time)","Fri Oct 30 2020 13:52:36 GMT-0500 (Central Daylight Time)","Mozilla/5.0 (Windows NT 6.3; Win64; x64) AppleWebKit/537.36 (KHTML, like Gecko) Chrome/86.0.4240.111 Safari/537.36",34,"[0.9, 0.5, 0.1]","[0.8, 0.4, 0.2]","[u'red', u'blue', u'black']","[u'left', u'middle', u'right']","[0.9, 0.5, 0.1]","[u'medium', u'high', u'low']","blue",50,"middle","high","False","False",273,1900,NA
"A1U43WUOJQBK5T","Fri Oct 30 2020 13:46:34 GMT-0500 (Central Daylight Time)","Fri Oct 30 2020 13:52:36 GMT-0500 (Central Daylight Time)","Mozilla/5.0 (Windows NT 6.3; Win64; x64) AppleWebKit/537.36 (KHTML, like Gecko) Chrome/86.0.4240.111 Safari/537.36",35,"[0.9, 0.5, 0.1]","[0.8, 0.4, 0.2]","[u'red', u'blue', u'black']","[u'left', u'middle', u'right']","[0.9, 0.5, 0.1]","[u'medium', u'high', u'low']","red",49,"left","medium","False","False",354,1850,NA
"A1U43WUOJQBK5T","Fri Oct 30 2020 13:46:34 GMT-0500 (Central Daylight Time)","Fri Oct 30 2020 13:52:36 GMT-0500 (Central Daylight Time)","Mozilla/5.0 (Windows NT 6.3; Win64; x64) AppleWebKit/537.36 (KHTML, like Gecko) Chrome/86.0.4240.111 Safari/537.36",36,"[0.9, 0.5, 0.1]","[0.8, 0.4, 0.2]","[u'red', u'blue', u'black']","[u'left', u'middle', u'right']","[0.9, 0.5, 0.1]","[u'medium', u'high', u'low']","blue",50,"middle","high","True","False",541,1950,NA
"A1U43WUOJQBK5T","Fri Oct 30 2020 13:46:34 GMT-0500 (Central Daylight Time)","Fri Oct 30 2020 13:52:36 GMT-0500 (Central Daylight Time)","Mozilla/5.0 (Windows NT 6.3; Win64; x64) AppleWebKit/537.36 (KHTML, like Gecko) Chrome/86.0.4240.111 Safari/537.36",37,"[0.9, 0.5, 0.1]","[0.8, 0.4, 0.2]","[u'red', u'blue', u'black']","[u'left', u'middle', u'right']","[0.9, 0.5, 0.1]","[u'medium', u'high', u'low']","blue",50,"middle","high","True","False",249,2050,NA
"A1U43WUOJQBK5T","Fri Oct 30 2020 13:46:34 GMT-0500 (Central Daylight Time)","Fri Oct 30 2020 13:52:36 GMT-0500 (Central Daylight Time)","Mozilla/5.0 (Windows NT 6.3; Win64; x64) AppleWebKit/537.36 (KHTML, like Gecko) Chrome/86.0.4240.111 Safari/537.36",38,"[0.9, 0.5, 0.1]","[0.8, 0.4, 0.2]","[u'red', u'blue', u'black']","[u'left', u'middle', u'right']","[0.9, 0.5, 0.1]","[u'medium', u'high', u'low']","blue",50,"middle","high","True","False",313,2150,NA
"A1U43WUOJQBK5T","Fri Oct 30 2020 13:46:34 GMT-0500 (Central Daylight Time)","Fri Oct 30 2020 13:52:36 GMT-0500 (Central Daylight Time)","Mozilla/5.0 (Windows NT 6.3; Win64; x64) AppleWebKit/537.36 (KHTML, like Gecko) Chrome/86.0.4240.111 Safari/537.36",39,"[0.9, 0.5, 0.1]","[0.8, 0.4, 0.2]","[u'red', u'blue', u'black']","[u'left', u'middle', u'right']","[0.9, 0.5, 0.1]","[u'medium', u'high', u'low']","blue",50,"middle","high","True","False",293,2250,NA
"A1U43WUOJQBK5T","Fri Oct 30 2020 13:46:34 GMT-0500 (Central Daylight Time)","Fri Oct 30 2020 13:52:36 GMT-0500 (Central Daylight Time)","Mozilla/5.0 (Windows NT 6.3; Win64; x64) AppleWebKit/537.36 (KHTML, like Gecko) Chrome/86.0.4240.111 Safari/537.36",40,"[0.9, 0.5, 0.1]","[0.8, 0.4, 0.2]","[u'red', u'blue', u'black']","[u'left', u'middle', u'right']","[0.9, 0.5, 0.1]","[u'medium', u'high', u'low']","blue",50,"middle","high","True","False",285,2350,NA
"A1U43WUOJQBK5T","Fri Oct 30 2020 13:46:34 GMT-0500 (Central Daylight Time)","Fri Oct 30 2020 13:52:36 GMT-0500 (Central Daylight Time)","Mozilla/5.0 (Windows NT 6.3; Win64; x64) AppleWebKit/537.36 (KHTML, like Gecko) Chrome/86.0.4240.111 Safari/537.36",41,"[0.9, 0.5, 0.1]","[0.8, 0.4, 0.2]","[u'red', u'blue', u'black']","[u'left', u'middle', u'right']","[0.9, 0.5, 0.1]","[u'medium', u'low', u'high']","blue",50,"middle","low","False","False",870,2300,NA
"A1U43WUOJQBK5T","Fri Oct 30 2020 13:46:34 GMT-0500 (Central Daylight Time)","Fri Oct 30 2020 13:52:36 GMT-0500 (Central Daylight Time)","Mozilla/5.0 (Windows NT 6.3; Win64; x64) AppleWebKit/537.36 (KHTML, like Gecko) Chrome/86.0.4240.111 Safari/537.36",42,"[0.9, 0.5, 0.1]","[0.8, 0.4, 0.2]","[u'red', u'blue', u'black']","[u'left', u'middle', u'right']","[0.9, 0.5, 0.1]","[u'medium', u'low', u'high']","black",51,"right","high","False","False",285,2250,NA
"A1U43WUOJQBK5T","Fri Oct 30 2020 13:46:34 GMT-0500 (Central Daylight Time)","Fri Oct 30 2020 13:52:36 GMT-0500 (Central Daylight Time)","Mozilla/5.0 (Windows NT 6.3; Win64; x64) AppleWebKit/537.36 (KHTML, like Gecko) Chrome/86.0.4240.111 Safari/537.36",43,"[0.9, 0.5, 0.1]","[0.8, 0.4, 0.2]","[u'red', u'blue', u'black']","[u'left', u'middle', u'right']","[0.9, 0.5, 0.1]","[u'medium', u'low', u'high']","red",49,"left","medium","True","False",276,2350,NA
"A1U43WUOJQBK5T","Fri Oct 30 2020 13:46:34 GMT-0500 (Central Daylight Time)","Fri Oct 30 2020 13:52:36 GMT-0500 (Central Daylight Time)","Mozilla/5.0 (Windows NT 6.3; Win64; x64) AppleWebKit/537.36 (KHTML, like Gecko) Chrome/86.0.4240.111 Safari/537.36",44,"[0.9, 0.5, 0.1]","[0.8, 0.4, 0.2]","[u'red', u'blue', u'black']","[u'left', u'middle', u'right']","[0.9, 0.5, 0.1]","[u'medium', u'low', u'high']","red",49,"left","medium","True","False",273,2450,NA
"A1U43WUOJQBK5T","Fri Oct 30 2020 13:46:34 GMT-0500 (Central Daylight Time)","Fri Oct 30 2020 13:52:36 GMT-0500 (Central Daylight Time)","Mozilla/5.0 (Windows NT 6.3; Win64; x64) AppleWebKit/537.36 (KHTML, like Gecko) Chrome/86.0.4240.111 Safari/537.36",45,"[0.9, 0.5, 0.1]","[0.8, 0.4, 0.2]","[u'red', u'blue', u'black']","[u'left', u'middle', u'right']","[0.9, 0.5, 0.1]","[u'medium', u'low', u'high']","red",49,"left","medium","False","False",211,2400,NA
"A1U43WUOJQBK5T","Fri Oct 30 2020 13:46:34 GMT-0500 (Central Daylight Time)","Fri Oct 30 2020 13:52:36 GMT-0500 (Central Daylight Time)","Mozilla/5.0 (Windows NT 6.3; Win64; x64) AppleWebKit/537.36 (KHTML, like Gecko) Chrome/86.0.4240.111 Safari/537.36",46,"[0.9, 0.5, 0.1]","[0.8, 0.4, 0.2]","[u'red', u'blue', u'black']","[u'left', u'middle', u'right']","[0.9, 0.5, 0.1]","[u'medium', u'low', u'high']","black",51,"right","high","True","False",320,2500,NA
"A1U43WUOJQBK5T","Fri Oct 30 2020 13:46:34 GMT-0500 (Central Daylight Time)","Fri Oct 30 2020 13:52:36 GMT-0500 (Central Daylight Time)","Mozilla/5.0 (Windows NT 6.3; Win64; x64) AppleWebKit/537.36 (KHTML, like Gecko) Chrome/86.0.4240.111 Safari/537.36",47,"[0.9, 0.5, 0.1]","[0.8, 0.4, 0.2]","[u'red', u'blue', u'black']","[u'left', u'middle', u'right']","[0.9, 0.5, 0.1]","[u'medium', u'low', u'high']","black",51,"right","high","True","False",306,2600,NA
"A1U43WUOJQBK5T","Fri Oct 30 2020 13:46:34 GMT-0500 (Central Daylight Time)","Fri Oct 30 2020 13:52:36 GMT-0500 (Central Daylight Time)","Mozilla/5.0 (Windows NT 6.3; Win64; x64) AppleWebKit/537.36 (KHTML, like Gecko) Chrome/86.0.4240.111 Safari/537.36",48,"[0.9, 0.5, 0.1]","[0.8, 0.4, 0.2]","[u'red', u'blue', u'black']","[u'left', u'middle', u'right']","[0.9, 0.5, 0.1]","[u'medium', u'low', u'high']","black",51,"right","high","True","False",186,2700,NA
"A1U43WUOJQBK5T","Fri Oct 30 2020 13:46:34 GMT-0500 (Central Daylight Time)","Fri Oct 30 2020 13:52:36 GMT-0500 (Central Daylight Time)","Mozilla/5.0 (Windows NT 6.3; Win64; x64) AppleWebKit/537.36 (KHTML, like Gecko) Chrome/86.0.4240.111 Safari/537.36",49,"[0.9, 0.5, 0.1]","[0.8, 0.4, 0.2]","[u'red', u'blue', u'black']","[u'left', u'middle', u'right']","[0.9, 0.5, 0.1]","[u'medium', u'low', u'high']","black",51,"right","high","True","False",360,2800,NA
"A1U43WUOJQBK5T","Fri Oct 30 2020 13:46:34 GMT-0500 (Central Daylight Time)","Fri Oct 30 2020 13:52:36 GMT-0500 (Central Daylight Time)","Mozilla/5.0 (Windows NT 6.3; Win64; x64) AppleWebKit/537.36 (KHTML, like Gecko) Chrome/86.0.4240.111 Safari/537.36",50,"[0.9, 0.5, 0.1]","[0.8, 0.4, 0.2]","[u'red', u'blue', u'black']","[u'left', u'middle', u'right']","[0.9, 0.5, 0.1]","[u'medium', u'low', u'high']","black",51,"right","high","True","False",297,2900,NA
"A1U43WUOJQBK5T","Fri Oct 30 2020 13:46:34 GMT-0500 (Central Daylight Time)","Fri Oct 30 2020 13:52:36 GMT-0500 (Central Daylight Time)","Mozilla/5.0 (Windows NT 6.3; Win64; x64) AppleWebKit/537.36 (KHTML, like Gecko) Chrome/86.0.4240.111 Safari/537.36",51,"[0.9, 0.5, 0.1]","[0.8, 0.4, 0.2]","[u'red', u'blue', u'black']","[u'left', u'middle', u'right']","[0.9, 0.5, 0.1]","[u'medium', u'low', u'high']","black",51,"right","high","True","False",293,3000,NA
"A1U43WUOJQBK5T","Fri Oct 30 2020 13:46:34 GMT-0500 (Central Daylight Time)","Fri Oct 30 2020 13:52:36 GMT-0500 (Central Daylight Time)","Mozilla/5.0 (Windows NT 6.3; Win64; x64) AppleWebKit/537.36 (KHTML, like Gecko) Chrome/86.0.4240.111 Safari/537.36",52,"[0.9, 0.5, 0.1]","[0.8, 0.4, 0.2]","[u'red', u'blue', u'black']","[u'left', u'middle', u'right']","[0.9, 0.5, 0.1]","[u'medium', u'low', u'high']","black",51,"right","high","True","False",296,3100,NA
"A1U43WUOJQBK5T","Fri Oct 30 2020 13:46:34 GMT-0500 (Central Daylight Time)","Fri Oct 30 2020 13:52:36 GMT-0500 (Central Daylight Time)","Mozilla/5.0 (Windows NT 6.3; Win64; x64) AppleWebKit/537.36 (KHTML, like Gecko) Chrome/86.0.4240.111 Safari/537.36",53,"[0.9, 0.5, 0.1]","[0.8, 0.4, 0.2]","[u'red', u'blue', u'black']","[u'left', u'middle', u'right']","[0.9, 0.5, 0.1]","[u'medium', u'low', u'high']","black",51,"right","high","True","False",259,3200,NA
"A1U43WUOJQBK5T","Fri Oct 30 2020 13:46:34 GMT-0500 (Central Daylight Time)","Fri Oct 30 2020 13:52:36 GMT-0500 (Central Daylight Time)","Mozilla/5.0 (Windows NT 6.3; Win64; x64) AppleWebKit/537.36 (KHTML, like Gecko) Chrome/86.0.4240.111 Safari/537.36",54,"[0.9, 0.5, 0.1]","[0.8, 0.4, 0.2]","[u'red', u'blue', u'black']","[u'left', u'middle', u'right']","[0.9, 0.5, 0.1]","[u'medium', u'low', u'high']","black",51,"right","high","True","True",365,3300,NA
"A1U43WUOJQBK5T","Fri Oct 30 2020 13:46:34 GMT-0500 (Central Daylight Time)","Fri Oct 30 2020 13:52:36 GMT-0500 (Central Daylight Time)","Mozilla/5.0 (Windows NT 6.3; Win64; x64) AppleWebKit/537.36 (KHTML, like Gecko) Chrome/86.0.4240.111 Safari/537.36",55,"[0.9, 0.5, 0.1]","[0.8, 0.4, 0.2]","[u'red', u'blue', u'black']","[u'left', u'middle', u'right']","[0.9, 0.5, 0.1]","[u'low', u'high', u'medium']","black",51,"right","medium","True","False",266,3400,NA
"A1U43WUOJQBK5T","Fri Oct 30 2020 13:46:34 GMT-0500 (Central Daylight Time)","Fri Oct 30 2020 13:52:36 GMT-0500 (Central Daylight Time)","Mozilla/5.0 (Windows NT 6.3; Win64; x64) AppleWebKit/537.36 (KHTML, like Gecko) Chrome/86.0.4240.111 Safari/537.36",56,"[0.9, 0.5, 0.1]","[0.8, 0.4, 0.2]","[u'red', u'blue', u'black']","[u'left', u'middle', u'right']","[0.9, 0.5, 0.1]","[u'low', u'high', u'medium']","black",51,"right","medium","False","False",82,3350,NA
"A1U43WUOJQBK5T","Fri Oct 30 2020 13:46:34 GMT-0500 (Central Daylight Time)","Fri Oct 30 2020 13:52:36 GMT-0500 (Central Daylight Time)","Mozilla/5.0 (Windows NT 6.3; Win64; x64) AppleWebKit/537.36 (KHTML, like Gecko) Chrome/86.0.4240.111 Safari/537.36",57,"[0.9, 0.5, 0.1]","[0.8, 0.4, 0.2]","[u'red', u'blue', u'black']","[u'left', u'middle', u'right']","[0.9, 0.5, 0.1]","[u'low', u'high', u'medium']","red",49,"left","low","True","False",333,3450,NA
"A1U43WUOJQBK5T","Fri Oct 30 2020 13:46:34 GMT-0500 (Central Daylight Time)","Fri Oct 30 2020 13:52:36 GMT-0500 (Central Daylight Time)","Mozilla/5.0 (Windows NT 6.3; Win64; x64) AppleWebKit/537.36 (KHTML, like Gecko) Chrome/86.0.4240.111 Safari/537.36",58,"[0.9, 0.5, 0.1]","[0.8, 0.4, 0.2]","[u'red', u'blue', u'black']","[u'left', u'middle', u'right']","[0.9, 0.5, 0.1]","[u'low', u'high', u'medium']","red",49,"left","low","False","False",203,3400,NA
"A1U43WUOJQBK5T","Fri Oct 30 2020 13:46:34 GMT-0500 (Central Daylight Time)","Fri Oct 30 2020 13:52:36 GMT-0500 (Central Daylight Time)","Mozilla/5.0 (Windows NT 6.3; Win64; x64) AppleWebKit/537.36 (KHTML, like Gecko) Chrome/86.0.4240.111 Safari/537.36",59,"[0.9, 0.5, 0.1]","[0.8, 0.4, 0.2]","[u'red', u'blue', u'black']","[u'left', u'middle', u'right']","[0.9, 0.5, 0.1]","[u'low', u'high', u'medium']","black",51,"right","medium","True","False",315,3500,NA
"A1U43WUOJQBK5T","Fri Oct 30 2020 13:46:34 GMT-0500 (Central Daylight Time)","Fri Oct 30 2020 13:52:36 GMT-0500 (Central Daylight Time)","Mozilla/5.0 (Windows NT 6.3; Win64; x64) AppleWebKit/537.36 (KHTML, like Gecko) Chrome/86.0.4240.111 Safari/537.36",60,"[0.9, 0.5, 0.1]","[0.8, 0.4, 0.2]","[u'red', u'blue', u'black']","[u'left', u'middle', u'right']","[0.9, 0.5, 0.1]","[u'low', u'high', u'medium']","black",51,"right","medium","False","False",213,3450,NA
"A1U43WUOJQBK5T","Fri Oct 30 2020 13:46:34 GMT-0500 (Central Daylight Time)","Fri Oct 30 2020 13:52:36 GMT-0500 (Central Daylight Time)","Mozilla/5.0 (Windows NT 6.3; Win64; x64) AppleWebKit/537.36 (KHTML, like Gecko) Chrome/86.0.4240.111 Safari/537.36",61,"[0.9, 0.5, 0.1]","[0.8, 0.4, 0.2]","[u'red', u'blue', u'black']","[u'left', u'middle', u'right']","[0.9, 0.5, 0.1]","[u'low', u'high', u'medium']","red",49,"left","low","False","False",282,3400,NA
"A1U43WUOJQBK5T","Fri Oct 30 2020 13:46:34 GMT-0500 (Central Daylight Time)","Fri Oct 30 2020 13:52:36 GMT-0500 (Central Daylight Time)","Mozilla/5.0 (Windows NT 6.3; Win64; x64) AppleWebKit/537.36 (KHTML, like Gecko) Chrome/86.0.4240.111 Safari/537.36",62,"[0.9, 0.5, 0.1]","[0.8, 0.4, 0.2]","[u'red', u'blue', u'black']","[u'left', u'middle', u'right']","[0.9, 0.5, 0.1]","[u'low', u'high', u'medium']","blue",50,"middle","high","True","False",271,3500,NA
"A1U43WUOJQBK5T","Fri Oct 30 2020 13:46:34 GMT-0500 (Central Daylight Time)","Fri Oct 30 2020 13:52:36 GMT-0500 (Central Daylight Time)","Mozilla/5.0 (Windows NT 6.3; Win64; x64) AppleWebKit/537.36 (KHTML, like Gecko) Chrome/86.0.4240.111 Safari/537.36",63,"[0.9, 0.5, 0.1]","[0.8, 0.4, 0.2]","[u'red', u'blue', u'black']","[u'left', u'middle', u'right']","[0.9, 0.5, 0.1]","[u'low', u'high', u'medium']","blue",50,"middle","high","True","False",274,3600,NA
"A1U43WUOJQBK5T","Fri Oct 30 2020 13:46:34 GMT-0500 (Central Daylight Time)","Fri Oct 30 2020 13:52:36 GMT-0500 (Central Daylight Time)","Mozilla/5.0 (Windows NT 6.3; Win64; x64) AppleWebKit/537.36 (KHTML, like Gecko) Chrome/86.0.4240.111 Safari/537.36",64,"[0.9, 0.5, 0.1]","[0.8, 0.4, 0.2]","[u'red', u'blue', u'black']","[u'left', u'middle', u'right']","[0.9, 0.5, 0.1]","[u'low', u'high', u'medium']","blue",50,"middle","high","True","False",91,3700,NA
"A1U43WUOJQBK5T","Fri Oct 30 2020 13:46:34 GMT-0500 (Central Daylight Time)","Fri Oct 30 2020 13:52:36 GMT-0500 (Central Daylight Time)","Mozilla/5.0 (Windows NT 6.3; Win64; x64) AppleWebKit/537.36 (KHTML, like Gecko) Chrome/86.0.4240.111 Safari/537.36",65,"[0.9, 0.5, 0.1]","[0.8, 0.4, 0.2]","[u'red', u'blue', u'black']","[u'left', u'middle', u'right']","[0.9, 0.5, 0.1]","[u'low', u'high', u'medium']","blue",50,"middle","high","True","False",274,3800,NA
"A1U43WUOJQBK5T","Fri Oct 30 2020 13:46:34 GMT-0500 (Central Daylight Time)","Fri Oct 30 2020 13:52:36 GMT-0500 (Central Daylight Time)","Mozilla/5.0 (Windows NT 6.3; Win64; x64) AppleWebKit/537.36 (KHTML, like Gecko) Chrome/86.0.4240.111 Safari/537.36",66,"[0.9, 0.5, 0.1]","[0.8, 0.4, 0.2]","[u'red', u'blue', u'black']","[u'left', u'middle', u'right']","[0.9, 0.5, 0.1]","[u'low', u'high', u'medium']","blue",50,"middle","high","True","False",288,3900,NA
"A1U43WUOJQBK5T","Fri Oct 30 2020 13:46:34 GMT-0500 (Central Daylight Time)","Fri Oct 30 2020 13:52:36 GMT-0500 (Central Daylight Time)","Mozilla/5.0 (Windows NT 6.3; Win64; x64) AppleWebKit/537.36 (KHTML, like Gecko) Chrome/86.0.4240.111 Safari/537.36",67,"[0.9, 0.5, 0.1]","[0.8, 0.4, 0.2]","[u'red', u'blue', u'black']","[u'left', u'middle', u'right']","[0.9, 0.5, 0.1]","[u'low', u'high', u'medium']","blue",50,"middle","high","True","False",286,4000,NA
"A1U43WUOJQBK5T","Fri Oct 30 2020 13:46:34 GMT-0500 (Central Daylight Time)","Fri Oct 30 2020 13:52:36 GMT-0500 (Central Daylight Time)","Mozilla/5.0 (Windows NT 6.3; Win64; x64) AppleWebKit/537.36 (KHTML, like Gecko) Chrome/86.0.4240.111 Safari/537.36",68,"[0.9, 0.5, 0.1]","[0.8, 0.4, 0.2]","[u'red', u'blue', u'black']","[u'left', u'middle', u'right']","[0.9, 0.5, 0.1]","[u'low', u'high', u'medium']","blue",50,"middle","high","True","False",313,4100,NA
"A1U43WUOJQBK5T","Fri Oct 30 2020 13:46:34 GMT-0500 (Central Daylight Time)","Fri Oct 30 2020 13:52:36 GMT-0500 (Central Daylight Time)","Mozilla/5.0 (Windows NT 6.3; Win64; x64) AppleWebKit/537.36 (KHTML, like Gecko) Chrome/86.0.4240.111 Safari/537.36",69,"[0.9, 0.5, 0.1]","[0.8, 0.4, 0.2]","[u'red', u'blue', u'black']","[u'left', u'middle', u'right']","[0.9, 0.5, 0.1]","[u'low', u'high', u'medium']","blue",50,"middle","high","True","False",299,4200,NA
"A1U43WUOJQBK5T","Fri Oct 30 2020 13:46:34 GMT-0500 (Central Daylight Time)","Fri Oct 30 2020 13:52:36 GMT-0500 (Central Daylight Time)","Mozilla/5.0 (Windows NT 6.3; Win64; x64) AppleWebKit/537.36 (KHTML, like Gecko) Chrome/86.0.4240.111 Safari/537.36",70,"[0.9, 0.5, 0.1]","[0.8, 0.4, 0.2]","[u'red', u'blue', u'black']","[u'left', u'middle', u'right']","[0.9, 0.5, 0.1]","[u'low', u'high', u'medium']","blue",50,"middle","high","True","True",302,4300,NA
"A1U43WUOJQBK5T","Fri Oct 30 2020 13:46:34 GMT-0500 (Central Daylight Time)","Fri Oct 30 2020 13:52:36 GMT-0500 (Central Daylight Time)","Mozilla/5.0 (Windows NT 6.3; Win64; x64) AppleWebKit/537.36 (KHTML, like Gecko) Chrome/86.0.4240.111 Safari/537.36",71,"[0.9, 0.5, 0.1]","[0.8, 0.4, 0.2]","[u'red', u'blue', u'black']","[u'left', u'middle', u'right']","[0.9, 0.5, 0.1]","[u'medium', u'low', u'high']","blue",50,"middle","low","False","False",270,4250,NA
"A1U43WUOJQBK5T","Fri Oct 30 2020 13:46:34 GMT-0500 (Central Daylight Time)","Fri Oct 30 2020 13:52:36 GMT-0500 (Central Daylight Time)","Mozilla/5.0 (Windows NT 6.3; Win64; x64) AppleWebKit/537.36 (KHTML, like Gecko) Chrome/86.0.4240.111 Safari/537.36",72,"[0.9, 0.5, 0.1]","[0.8, 0.4, 0.2]","[u'red', u'blue', u'black']","[u'left', u'middle', u'right']","[0.9, 0.5, 0.1]","[u'medium', u'low', u'high']","red",49,"left","medium","True","False",398,4350,NA
"A1U43WUOJQBK5T","Fri Oct 30 2020 13:46:34 GMT-0500 (Central Daylight Time)","Fri Oct 30 2020 13:52:36 GMT-0500 (Central Daylight Time)","Mozilla/5.0 (Windows NT 6.3; Win64; x64) AppleWebKit/537.36 (KHTML, like Gecko) Chrome/86.0.4240.111 Safari/537.36",73,"[0.9, 0.5, 0.1]","[0.8, 0.4, 0.2]","[u'red', u'blue', u'black']","[u'left', u'middle', u'right']","[0.9, 0.5, 0.1]","[u'medium', u'low', u'high']","red",49,"left","medium","False","False",278,4300,NA
"A1U43WUOJQBK5T","Fri Oct 30 2020 13:46:34 GMT-0500 (Central Daylight Time)","Fri Oct 30 2020 13:52:36 GMT-0500 (Central Daylight Time)","Mozilla/5.0 (Windows NT 6.3; Win64; x64) AppleWebKit/537.36 (KHTML, like Gecko) Chrome/86.0.4240.111 Safari/537.36",74,"[0.9, 0.5, 0.1]","[0.8, 0.4, 0.2]","[u'red', u'blue', u'black']","[u'left', u'middle', u'right']","[0.9, 0.5, 0.1]","[u'medium', u'low', u'high']","black",51,"right","high","True","False",795,4400,NA
"A1U43WUOJQBK5T","Fri Oct 30 2020 13:46:34 GMT-0500 (Central Daylight Time)","Fri Oct 30 2020 13:52:36 GMT-0500 (Central Daylight Time)","Mozilla/5.0 (Windows NT 6.3; Win64; x64) AppleWebKit/537.36 (KHTML, like Gecko) Chrome/86.0.4240.111 Safari/537.36",75,"[0.9, 0.5, 0.1]","[0.8, 0.4, 0.2]","[u'red', u'blue', u'black']","[u'left', u'middle', u'right']","[0.9, 0.5, 0.1]","[u'medium', u'low', u'high']","black",51,"right","high","True","False",196,4500,NA
"A1U43WUOJQBK5T","Fri Oct 30 2020 13:46:34 GMT-0500 (Central Daylight Time)","Fri Oct 30 2020 13:52:36 GMT-0500 (Central Daylight Time)","Mozilla/5.0 (Windows NT 6.3; Win64; x64) AppleWebKit/537.36 (KHTML, like Gecko) Chrome/86.0.4240.111 Safari/537.36",76,"[0.9, 0.5, 0.1]","[0.8, 0.4, 0.2]","[u'red', u'blue', u'black']","[u'left', u'middle', u'right']","[0.9, 0.5, 0.1]","[u'medium', u'low', u'high']","black",51,"right","high","True","False",318,4600,NA
"A1U43WUOJQBK5T","Fri Oct 30 2020 13:46:34 GMT-0500 (Central Daylight Time)","Fri Oct 30 2020 13:52:36 GMT-0500 (Central Daylight Time)","Mozilla/5.0 (Windows NT 6.3; Win64; x64) AppleWebKit/537.36 (KHTML, like Gecko) Chrome/86.0.4240.111 Safari/537.36",77,"[0.9, 0.5, 0.1]","[0.8, 0.4, 0.2]","[u'red', u'blue', u'black']","[u'left', u'middle', u'right']","[0.9, 0.5, 0.1]","[u'medium', u'low', u'high']","black",51,"right","high","True","False",244,4700,NA
"A1U43WUOJQBK5T","Fri Oct 30 2020 13:46:34 GMT-0500 (Central Daylight Time)","Fri Oct 30 2020 13:52:36 GMT-0500 (Central Daylight Time)","Mozilla/5.0 (Windows NT 6.3; Win64; x64) AppleWebKit/537.36 (KHTML, like Gecko) Chrome/86.0.4240.111 Safari/537.36",78,"[0.9, 0.5, 0.1]","[0.8, 0.4, 0.2]","[u'red', u'blue', u'black']","[u'left', u'middle', u'right']","[0.9, 0.5, 0.1]","[u'medium', u'low', u'high']","black",51,"right","high","True","False",253,4800,NA
"A1U43WUOJQBK5T","Fri Oct 30 2020 13:46:34 GMT-0500 (Central Daylight Time)","Fri Oct 30 2020 13:52:36 GMT-0500 (Central Daylight Time)","Mozilla/5.0 (Windows NT 6.3; Win64; x64) AppleWebKit/537.36 (KHTML, like Gecko) Chrome/86.0.4240.111 Safari/537.36",79,"[0.9, 0.5, 0.1]","[0.8, 0.4, 0.2]","[u'red', u'blue', u'black']","[u'left', u'middle', u'right']","[0.9, 0.5, 0.1]","[u'medium', u'low', u'high']","black",51,"right","high","False","False",319,4750,NA
"A1U43WUOJQBK5T","Fri Oct 30 2020 13:46:34 GMT-0500 (Central Daylight Time)","Fri Oct 30 2020 13:52:36 GMT-0500 (Central Daylight Time)","Mozilla/5.0 (Windows NT 6.3; Win64; x64) AppleWebKit/537.36 (KHTML, like Gecko) Chrome/86.0.4240.111 Safari/537.36",80,"[0.9, 0.5, 0.1]","[0.8, 0.4, 0.2]","[u'red', u'blue', u'black']","[u'left', u'middle', u'right']","[0.9, 0.5, 0.1]","[u'medium', u'low', u'high']","blue",50,"middle","low","False","False",217,4700,NA
"A1U43WUOJQBK5T","Fri Oct 30 2020 13:46:34 GMT-0500 (Central Daylight Time)","Fri Oct 30 2020 13:52:36 GMT-0500 (Central Daylight Time)","Mozilla/5.0 (Windows NT 6.3; Win64; x64) AppleWebKit/537.36 (KHTML, like Gecko) Chrome/86.0.4240.111 Safari/537.36",81,"[0.9, 0.5, 0.1]","[0.8, 0.4, 0.2]","[u'red', u'blue', u'black']","[u'left', u'middle', u'right']","[0.8, 0.4, 0.2]","[u'high', u'low', u'medium']","blue",50,"middle","low","True","False",426,4800,NA
"A1U43WUOJQBK5T","Fri Oct 30 2020 13:46:34 GMT-0500 (Central Daylight Time)","Fri Oct 30 2020 13:52:36 GMT-0500 (Central Daylight Time)","Mozilla/5.0 (Windows NT 6.3; Win64; x64) AppleWebKit/537.36 (KHTML, like Gecko) Chrome/86.0.4240.111 Safari/537.36",82,"[0.9, 0.5, 0.1]","[0.8, 0.4, 0.2]","[u'red', u'blue', u'black']","[u'left', u'middle', u'right']","[0.8, 0.4, 0.2]","[u'high', u'low', u'medium']","blue",50,"middle","low","False","False",286,4750,NA
"A1U43WUOJQBK5T","Fri Oct 30 2020 13:46:34 GMT-0500 (Central Daylight Time)","Fri Oct 30 2020 13:52:36 GMT-0500 (Central Daylight Time)","Mozilla/5.0 (Windows NT 6.3; Win64; x64) AppleWebKit/537.36 (KHTML, like Gecko) Chrome/86.0.4240.111 Safari/537.36",83,"[0.9, 0.5, 0.1]","[0.8, 0.4, 0.2]","[u'red', u'blue', u'black']","[u'left', u'middle', u'right']","[0.8, 0.4, 0.2]","[u'high', u'low', u'medium']","red",49,"left","high","True","False",271,4850,NA
"A1U43WUOJQBK5T","Fri Oct 30 2020 13:46:34 GMT-0500 (Central Daylight Time)","Fri Oct 30 2020 13:52:36 GMT-0500 (Central Daylight Time)","Mozilla/5.0 (Windows NT 6.3; Win64; x64) AppleWebKit/537.36 (KHTML, like Gecko) Chrome/86.0.4240.111 Safari/537.36",84,"[0.9, 0.5, 0.1]","[0.8, 0.4, 0.2]","[u'red', u'blue', u'black']","[u'left', u'middle', u'right']","[0.8, 0.4, 0.2]","[u'high', u'low', u'medium']","red",49,"left","high","True","False",361,4950,NA
"A1U43WUOJQBK5T","Fri Oct 30 2020 13:46:34 GMT-0500 (Central Daylight Time)","Fri Oct 30 2020 13:52:36 GMT-0500 (Central Daylight Time)","Mozilla/5.0 (Windows NT 6.3; Win64; x64) AppleWebKit/537.36 (KHTML, like Gecko) Chrome/86.0.4240.111 Safari/537.36",85,"[0.9, 0.5, 0.1]","[0.8, 0.4, 0.2]","[u'red', u'blue', u'black']","[u'left', u'middle', u'right']","[0.8, 0.4, 0.2]","[u'high', u'low', u'medium']","red",49,"left","high","True","False",156,5050,NA
"A1U43WUOJQBK5T","Fri Oct 30 2020 13:46:34 GMT-0500 (Central Daylight Time)","Fri Oct 30 2020 13:52:36 GMT-0500 (Central Daylight Time)","Mozilla/5.0 (Windows NT 6.3; Win64; x64) AppleWebKit/537.36 (KHTML, like Gecko) Chrome/86.0.4240.111 Safari/537.36",86,"[0.9, 0.5, 0.1]","[0.8, 0.4, 0.2]","[u'red', u'blue', u'black']","[u'left', u'middle', u'right']","[0.8, 0.4, 0.2]","[u'high', u'low', u'medium']","red",49,"left","high","True","False",286,5150,NA
"A1U43WUOJQBK5T","Fri Oct 30 2020 13:46:34 GMT-0500 (Central Daylight Time)","Fri Oct 30 2020 13:52:36 GMT-0500 (Central Daylight Time)","Mozilla/5.0 (Windows NT 6.3; Win64; x64) AppleWebKit/537.36 (KHTML, like Gecko) Chrome/86.0.4240.111 Safari/537.36",87,"[0.9, 0.5, 0.1]","[0.8, 0.4, 0.2]","[u'red', u'blue', u'black']","[u'left', u'middle', u'right']","[0.8, 0.4, 0.2]","[u'high', u'low', u'medium']","red",49,"left","high","True","False",317,5250,NA
"A1U43WUOJQBK5T","Fri Oct 30 2020 13:46:34 GMT-0500 (Central Daylight Time)","Fri Oct 30 2020 13:52:36 GMT-0500 (Central Daylight Time)","Mozilla/5.0 (Windows NT 6.3; Win64; x64) AppleWebKit/537.36 (KHTML, like Gecko) Chrome/86.0.4240.111 Safari/537.36",88,"[0.9, 0.5, 0.1]","[0.8, 0.4, 0.2]","[u'red', u'blue', u'black']","[u'left', u'middle', u'right']","[0.8, 0.4, 0.2]","[u'high', u'low', u'medium']","red",49,"left","high","True","False",74,5350,NA
"A1U43WUOJQBK5T","Fri Oct 30 2020 13:46:34 GMT-0500 (Central Daylight Time)","Fri Oct 30 2020 13:52:36 GMT-0500 (Central Daylight Time)","Mozilla/5.0 (Windows NT 6.3; Win64; x64) AppleWebKit/537.36 (KHTML, like Gecko) Chrome/86.0.4240.111 Safari/537.36",89,"[0.9, 0.5, 0.1]","[0.8, 0.4, 0.2]","[u'red', u'blue', u'black']","[u'left', u'middle', u'right']","[0.8, 0.4, 0.2]","[u'high', u'low', u'medium']","red",49,"left","high","True","False",146,5450,NA
"A1U43WUOJQBK5T","Fri Oct 30 2020 13:46:34 GMT-0500 (Central Daylight Time)","Fri Oct 30 2020 13:52:36 GMT-0500 (Central Daylight Time)","Mozilla/5.0 (Windows NT 6.3; Win64; x64) AppleWebKit/537.36 (KHTML, like Gecko) Chrome/86.0.4240.111 Safari/537.36",90,"[0.9, 0.5, 0.1]","[0.8, 0.4, 0.2]","[u'red', u'blue', u'black']","[u'left', u'middle', u'right']","[0.8, 0.4, 0.2]","[u'high', u'low', u'medium']","red",49,"left","high","True","False",192,5550,NA
"A1U43WUOJQBK5T","Fri Oct 30 2020 13:46:34 GMT-0500 (Central Daylight Time)","Fri Oct 30 2020 13:52:36 GMT-0500 (Central Daylight Time)","Mozilla/5.0 (Windows NT 6.3; Win64; x64) AppleWebKit/537.36 (KHTML, like Gecko) Chrome/86.0.4240.111 Safari/537.36",91,"[0.9, 0.5, 0.1]","[0.8, 0.4, 0.2]","[u'red', u'blue', u'black']","[u'left', u'middle', u'right']","[0.8, 0.4, 0.2]","[u'high', u'low', u'medium']","red",49,"left","high","True","True",268,5650,NA
"A1U43WUOJQBK5T","Fri Oct 30 2020 13:46:34 GMT-0500 (Central Daylight Time)","Fri Oct 30 2020 13:52:36 GMT-0500 (Central Daylight Time)","Mozilla/5.0 (Windows NT 6.3; Win64; x64) AppleWebKit/537.36 (KHTML, like Gecko) Chrome/86.0.4240.111 Safari/537.36",92,"[0.9, 0.5, 0.1]","[0.8, 0.4, 0.2]","[u'red', u'blue', u'black']","[u'left', u'middle', u'right']","[0.8, 0.4, 0.2]","[u'medium', u'low', u'high']","red",49,"left","medium","False","False",231,5600,NA
"A1U43WUOJQBK5T","Fri Oct 30 2020 13:46:34 GMT-0500 (Central Daylight Time)","Fri Oct 30 2020 13:52:36 GMT-0500 (Central Daylight Time)","Mozilla/5.0 (Windows NT 6.3; Win64; x64) AppleWebKit/537.36 (KHTML, like Gecko) Chrome/86.0.4240.111 Safari/537.36",93,"[0.9, 0.5, 0.1]","[0.8, 0.4, 0.2]","[u'red', u'blue', u'black']","[u'left', u'middle', u'right']","[0.8, 0.4, 0.2]","[u'medium', u'low', u'high']","blue",50,"middle","low","False","False",490,5550,NA
"A1U43WUOJQBK5T","Fri Oct 30 2020 13:46:34 GMT-0500 (Central Daylight Time)","Fri Oct 30 2020 13:52:36 GMT-0500 (Central Daylight Time)","Mozilla/5.0 (Windows NT 6.3; Win64; x64) AppleWebKit/537.36 (KHTML, like Gecko) Chrome/86.0.4240.111 Safari/537.36",94,"[0.9, 0.5, 0.1]","[0.8, 0.4, 0.2]","[u'red', u'blue', u'black']","[u'left', u'middle', u'right']","[0.8, 0.4, 0.2]","[u'medium', u'low', u'high']","black",51,"right","high","False","False",419,5500,NA
"A1U43WUOJQBK5T","Fri Oct 30 2020 13:46:34 GMT-0500 (Central Daylight Time)","Fri Oct 30 2020 13:52:36 GMT-0500 (Central Daylight Time)","Mozilla/5.0 (Windows NT 6.3; Win64; x64) AppleWebKit/537.36 (KHTML, like Gecko) Chrome/86.0.4240.111 Safari/537.36",95,"[0.9, 0.5, 0.1]","[0.8, 0.4, 0.2]","[u'red', u'blue', u'black']","[u'left', u'middle', u'right']","[0.8, 0.4, 0.2]","[u'medium', u'low', u'high']","red",49,"left","medium","False","False",277,5450,NA
"A1U43WUOJQBK5T","Fri Oct 30 2020 13:46:34 GMT-0500 (Central Daylight Time)","Fri Oct 30 2020 13:52:36 GMT-0500 (Central Daylight Time)","Mozilla/5.0 (Windows NT 6.3; Win64; x64) AppleWebKit/537.36 (KHTML, like Gecko) Chrome/86.0.4240.111 Safari/537.36",96,"[0.9, 0.5, 0.1]","[0.8, 0.4, 0.2]","[u'red', u'blue', u'black']","[u'left', u'middle', u'right']","[0.8, 0.4, 0.2]","[u'medium', u'low', u'high']","blue",50,"middle","low","False","False",339,5400,NA
"A1U43WUOJQBK5T","Fri Oct 30 2020 13:46:34 GMT-0500 (Central Daylight Time)","Fri Oct 30 2020 13:52:36 GMT-0500 (Central Daylight Time)","Mozilla/5.0 (Windows NT 6.3; Win64; x64) AppleWebKit/537.36 (KHTML, like Gecko) Chrome/86.0.4240.111 Safari/537.36",97,"[0.9, 0.5, 0.1]","[0.8, 0.4, 0.2]","[u'red', u'blue', u'black']","[u'left', u'middle', u'right']","[0.8, 0.4, 0.2]","[u'medium', u'low', u'high']","black",51,"right","high","True","False",575,5500,NA
"A1U43WUOJQBK5T","Fri Oct 30 2020 13:46:34 GMT-0500 (Central Daylight Time)","Fri Oct 30 2020 13:52:36 GMT-0500 (Central Daylight Time)","Mozilla/5.0 (Windows NT 6.3; Win64; x64) AppleWebKit/537.36 (KHTML, like Gecko) Chrome/86.0.4240.111 Safari/537.36",98,"[0.9, 0.5, 0.1]","[0.8, 0.4, 0.2]","[u'red', u'blue', u'black']","[u'left', u'middle', u'right']","[0.8, 0.4, 0.2]","[u'medium', u'low', u'high']","black",51,"right","high","True","False",298,5600,NA
"A1U43WUOJQBK5T","Fri Oct 30 2020 13:46:34 GMT-0500 (Central Daylight Time)","Fri Oct 30 2020 13:52:36 GMT-0500 (Central Daylight Time)","Mozilla/5.0 (Windows NT 6.3; Win64; x64) AppleWebKit/537.36 (KHTML, like Gecko) Chrome/86.0.4240.111 Safari/537.36",99,"[0.9, 0.5, 0.1]","[0.8, 0.4, 0.2]","[u'red', u'blue', u'black']","[u'left', u'middle', u'right']","[0.8, 0.4, 0.2]","[u'medium', u'low', u'high']","black",51,"right","high","True","False",309,5700,NA
"A1U43WUOJQBK5T","Fri Oct 30 2020 13:46:34 GMT-0500 (Central Daylight Time)","Fri Oct 30 2020 13:52:36 GMT-0500 (Central Daylight Time)","Mozilla/5.0 (Windows NT 6.3; Win64; x64) AppleWebKit/537.36 (KHTML, like Gecko) Chrome/86.0.4240.111 Safari/537.36",100,"[0.9, 0.5, 0.1]","[0.8, 0.4, 0.2]","[u'red', u'blue', u'black']","[u'left', u'middle', u'right']","[0.8, 0.4, 0.2]","[u'medium', u'low', u'high']","black",51,"right","high","False","False",295,5650,NA
"A1U43WUOJQBK5T","Fri Oct 30 2020 13:46:34 GMT-0500 (Central Daylight Time)","Fri Oct 30 2020 13:52:36 GMT-0500 (Central Daylight Time)","Mozilla/5.0 (Windows NT 6.3; Win64; x64) AppleWebKit/537.36 (KHTML, like Gecko) Chrome/86.0.4240.111 Safari/537.36",101,"[0.9, 0.5, 0.1]","[0.8, 0.4, 0.2]","[u'red', u'blue', u'black']","[u'left', u'middle', u'right']","[0.8, 0.4, 0.2]","[u'medium', u'low', u'high']","red",49,"left","medium","False","False",266,5600,NA
"A1U43WUOJQBK5T","Fri Oct 30 2020 13:46:34 GMT-0500 (Central Daylight Time)","Fri Oct 30 2020 13:52:36 GMT-0500 (Central Daylight Time)","Mozilla/5.0 (Windows NT 6.3; Win64; x64) AppleWebKit/537.36 (KHTML, like Gecko) Chrome/86.0.4240.111 Safari/537.36",102,"[0.9, 0.5, 0.1]","[0.8, 0.4, 0.2]","[u'red', u'blue', u'black']","[u'left', u'middle', u'right']","[0.8, 0.4, 0.2]","[u'medium', u'low', u'high']","blue",50,"middle","low","True","False",292,5700,NA
"A1U43WUOJQBK5T","Fri Oct 30 2020 13:46:34 GMT-0500 (Central Daylight Time)","Fri Oct 30 2020 13:52:36 GMT-0500 (Central Daylight Time)","Mozilla/5.0 (Windows NT 6.3; Win64; x64) AppleWebKit/537.36 (KHTML, like Gecko) Chrome/86.0.4240.111 Safari/537.36",103,"[0.9, 0.5, 0.1]","[0.8, 0.4, 0.2]","[u'red', u'blue', u'black']","[u'left', u'middle', u'right']","[0.8, 0.4, 0.2]","[u'medium', u'low', u'high']","blue",50,"middle","low","False","False",515,5650,NA
"A1U43WUOJQBK5T","Fri Oct 30 2020 13:46:34 GMT-0500 (Central Daylight Time)","Fri Oct 30 2020 13:52:36 GMT-0500 (Central Daylight Time)","Mozilla/5.0 (Windows NT 6.3; Win64; x64) AppleWebKit/537.36 (KHTML, like Gecko) Chrome/86.0.4240.111 Safari/537.36",104,"[0.9, 0.5, 0.1]","[0.8, 0.4, 0.2]","[u'red', u'blue', u'black']","[u'left', u'middle', u'right']","[0.8, 0.4, 0.2]","[u'medium', u'low', u'high']","red",49,"left","medium","False","False",140,5600,NA
"A1U43WUOJQBK5T","Fri Oct 30 2020 13:46:34 GMT-0500 (Central Daylight Time)","Fri Oct 30 2020 13:52:36 GMT-0500 (Central Daylight Time)","Mozilla/5.0 (Windows NT 6.3; Win64; x64) AppleWebKit/537.36 (KHTML, like Gecko) Chrome/86.0.4240.111 Safari/537.36",105,"[0.9, 0.5, 0.1]","[0.8, 0.4, 0.2]","[u'red', u'blue', u'black']","[u'left', u'middle', u'right']","[0.8, 0.4, 0.2]","[u'medium', u'low', u'high']","black",51,"right","high","True","False",336,5700,NA
"A1U43WUOJQBK5T","Fri Oct 30 2020 13:46:34 GMT-0500 (Central Daylight Time)","Fri Oct 30 2020 13:52:36 GMT-0500 (Central Daylight Time)","Mozilla/5.0 (Windows NT 6.3; Win64; x64) AppleWebKit/537.36 (KHTML, like Gecko) Chrome/86.0.4240.111 Safari/537.36",106,"[0.9, 0.5, 0.1]","[0.8, 0.4, 0.2]","[u'red', u'blue', u'black']","[u'left', u'middle', u'right']","[0.8, 0.4, 0.2]","[u'medium', u'low', u'high']","black",51,"right","high","True","False",1391,5800,NA
"A1U43WUOJQBK5T","Fri Oct 30 2020 13:46:34 GMT-0500 (Central Daylight Time)","Fri Oct 30 2020 13:52:36 GMT-0500 (Central Daylight Time)","Mozilla/5.0 (Windows NT 6.3; Win64; x64) AppleWebKit/537.36 (KHTML, like Gecko) Chrome/86.0.4240.111 Safari/537.36",107,"[0.9, 0.5, 0.1]","[0.8, 0.4, 0.2]","[u'red', u'blue', u'black']","[u'left', u'middle', u'right']","[0.8, 0.4, 0.2]","[u'medium', u'low', u'high']","black",51,"right","high","True","False",291,5900,NA
"A1U43WUOJQBK5T","Fri Oct 30 2020 13:46:34 GMT-0500 (Central Daylight Time)","Fri Oct 30 2020 13:52:36 GMT-0500 (Central Daylight Time)","Mozilla/5.0 (Windows NT 6.3; Win64; x64) AppleWebKit/537.36 (KHTML, like Gecko) Chrome/86.0.4240.111 Safari/537.36",108,"[0.9, 0.5, 0.1]","[0.8, 0.4, 0.2]","[u'red', u'blue', u'black']","[u'left', u'middle', u'right']","[0.8, 0.4, 0.2]","[u'medium', u'low', u'high']","black",51,"right","high","True","False",253,6000,NA
"A1U43WUOJQBK5T","Fri Oct 30 2020 13:46:34 GMT-0500 (Central Daylight Time)","Fri Oct 30 2020 13:52:36 GMT-0500 (Central Daylight Time)","Mozilla/5.0 (Windows NT 6.3; Win64; x64) AppleWebKit/537.36 (KHTML, like Gecko) Chrome/86.0.4240.111 Safari/537.36",109,"[0.9, 0.5, 0.1]","[0.8, 0.4, 0.2]","[u'red', u'blue', u'black']","[u'left', u'middle', u'right']","[0.8, 0.4, 0.2]","[u'medium', u'low', u'high']","black",51,"right","high","True","False",297,6100,NA
"A1U43WUOJQBK5T","Fri Oct 30 2020 13:46:34 GMT-0500 (Central Daylight Time)","Fri Oct 30 2020 13:52:36 GMT-0500 (Central Daylight Time)","Mozilla/5.0 (Windows NT 6.3; Win64; x64) AppleWebKit/537.36 (KHTML, like Gecko) Chrome/86.0.4240.111 Safari/537.36",110,"[0.9, 0.5, 0.1]","[0.8, 0.4, 0.2]","[u'red', u'blue', u'black']","[u'left', u'middle', u'right']","[0.8, 0.4, 0.2]","[u'medium', u'low', u'high']","black",51,"right","high","True","False",229,6200,NA
"A1U43WUOJQBK5T","Fri Oct 30 2020 13:46:34 GMT-0500 (Central Daylight Time)","Fri Oct 30 2020 13:52:36 GMT-0500 (Central Daylight Time)","Mozilla/5.0 (Windows NT 6.3; Win64; x64) AppleWebKit/537.36 (KHTML, like Gecko) Chrome/86.0.4240.111 Safari/537.36",111,"[0.9, 0.5, 0.1]","[0.8, 0.4, 0.2]","[u'red', u'blue', u'black']","[u'left', u'middle', u'right']","[0.8, 0.4, 0.2]","[u'medium', u'low', u'high']","black",51,"right","high","True","False",285,6300,NA
"A1U43WUOJQBK5T","Fri Oct 30 2020 13:46:34 GMT-0500 (Central Daylight Time)","Fri Oct 30 2020 13:52:36 GMT-0500 (Central Daylight Time)","Mozilla/5.0 (Windows NT 6.3; Win64; x64) AppleWebKit/537.36 (KHTML, like Gecko) Chrome/86.0.4240.111 Safari/537.36",112,"[0.9, 0.5, 0.1]","[0.8, 0.4, 0.2]","[u'red', u'blue', u'black']","[u'left', u'middle', u'right']","[0.8, 0.4, 0.2]","[u'medium', u'low', u'high']","black",51,"right","high","False","False",278,6250,NA
"A1U43WUOJQBK5T","Fri Oct 30 2020 13:46:34 GMT-0500 (Central Daylight Time)","Fri Oct 30 2020 13:52:36 GMT-0500 (Central Daylight Time)","Mozilla/5.0 (Windows NT 6.3; Win64; x64) AppleWebKit/537.36 (KHTML, like Gecko) Chrome/86.0.4240.111 Safari/537.36",113,"[0.9, 0.5, 0.1]","[0.8, 0.4, 0.2]","[u'red', u'blue', u'black']","[u'left', u'middle', u'right']","[0.8, 0.4, 0.2]","[u'medium', u'low', u'high']","blue",50,"middle","low","False","False",574,6200,NA
"A1U43WUOJQBK5T","Fri Oct 30 2020 13:46:34 GMT-0500 (Central Daylight Time)","Fri Oct 30 2020 13:52:36 GMT-0500 (Central Daylight Time)","Mozilla/5.0 (Windows NT 6.3; Win64; x64) AppleWebKit/537.36 (KHTML, like Gecko) Chrome/86.0.4240.111 Safari/537.36",114,"[0.9, 0.5, 0.1]","[0.8, 0.4, 0.2]","[u'red', u'blue', u'black']","[u'left', u'middle', u'right']","[0.8, 0.4, 0.2]","[u'medium', u'low', u'high']","red",49,"left","medium","True","False",323,6300,NA
"A1U43WUOJQBK5T","Fri Oct 30 2020 13:46:34 GMT-0500 (Central Daylight Time)","Fri Oct 30 2020 13:52:36 GMT-0500 (Central Daylight Time)","Mozilla/5.0 (Windows NT 6.3; Win64; x64) AppleWebKit/537.36 (KHTML, like Gecko) Chrome/86.0.4240.111 Safari/537.36",115,"[0.9, 0.5, 0.1]","[0.8, 0.4, 0.2]","[u'red', u'blue', u'black']","[u'left', u'middle', u'right']","[0.8, 0.4, 0.2]","[u'medium', u'low', u'high']","red",49,"left","medium","True","False",335,6400,NA
"A1U43WUOJQBK5T","Fri Oct 30 2020 13:46:34 GMT-0500 (Central Daylight Time)","Fri Oct 30 2020 13:52:36 GMT-0500 (Central Daylight Time)","Mozilla/5.0 (Windows NT 6.3; Win64; x64) AppleWebKit/537.36 (KHTML, like Gecko) Chrome/86.0.4240.111 Safari/537.36",116,"[0.9, 0.5, 0.1]","[0.8, 0.4, 0.2]","[u'red', u'blue', u'black']","[u'left', u'middle', u'right']","[0.8, 0.4, 0.2]","[u'medium', u'low', u'high']","red",49,"left","medium","True","False",49,6500,NA
"A1U43WUOJQBK5T","Fri Oct 30 2020 13:46:34 GMT-0500 (Central Daylight Time)","Fri Oct 30 2020 13:52:36 GMT-0500 (Central Daylight Time)","Mozilla/5.0 (Windows NT 6.3; Win64; x64) AppleWebKit/537.36 (KHTML, like Gecko) Chrome/86.0.4240.111 Safari/537.36",117,"[0.9, 0.5, 0.1]","[0.8, 0.4, 0.2]","[u'red', u'blue', u'black']","[u'left', u'middle', u'right']","[0.8, 0.4, 0.2]","[u'medium', u'low', u'high']","red",49,"left","medium","True","False",281,6600,NA
"A1U43WUOJQBK5T","Fri Oct 30 2020 13:46:34 GMT-0500 (Central Daylight Time)","Fri Oct 30 2020 13:52:36 GMT-0500 (Central Daylight Time)","Mozilla/5.0 (Windows NT 6.3; Win64; x64) AppleWebKit/537.36 (KHTML, like Gecko) Chrome/86.0.4240.111 Safari/537.36",118,"[0.9, 0.5, 0.1]","[0.8, 0.4, 0.2]","[u'red', u'blue', u'black']","[u'left', u'middle', u'right']","[0.8, 0.4, 0.2]","[u'medium', u'low', u'high']","red",49,"left","medium","True","False",266,6700,NA
"A1U43WUOJQBK5T","Fri Oct 30 2020 13:46:34 GMT-0500 (Central Daylight Time)","Fri Oct 30 2020 13:52:36 GMT-0500 (Central Daylight Time)","Mozilla/5.0 (Windows NT 6.3; Win64; x64) AppleWebKit/537.36 (KHTML, like Gecko) Chrome/86.0.4240.111 Safari/537.36",119,"[0.9, 0.5, 0.1]","[0.8, 0.4, 0.2]","[u'red', u'blue', u'black']","[u'left', u'middle', u'right']","[0.8, 0.4, 0.2]","[u'medium', u'low', u'high']","red",49,"left","medium","False","False",270,6650,NA
"A1U43WUOJQBK5T","Fri Oct 30 2020 13:46:34 GMT-0500 (Central Daylight Time)","Fri Oct 30 2020 13:52:36 GMT-0500 (Central Daylight Time)","Mozilla/5.0 (Windows NT 6.3; Win64; x64) AppleWebKit/537.36 (KHTML, like Gecko) Chrome/86.0.4240.111 Safari/537.36",120,"[0.9, 0.5, 0.1]","[0.8, 0.4, 0.2]","[u'red', u'blue', u'black']","[u'left', u'middle', u'right']","[0.8, 0.4, 0.2]","[u'medium', u'low', u'high']","black",51,"right","high","True","False",317,6750,NA
"A1U43WUOJQBK5T","Fri Oct 30 2020 13:46:34 GMT-0500 (Central Daylight Time)","Fri Oct 30 2020 13:52:36 GMT-0500 (Central Daylight Time)","Mozilla/5.0 (Windows NT 6.3; Win64; x64) AppleWebKit/537.36 (KHTML, like Gecko) Chrome/86.0.4240.111 Safari/537.36",121,"[0.9, 0.5, 0.1]","[0.8, 0.4, 0.2]","[u'red', u'blue', u'black']","[u'left', u'middle', u'right']","[0.8, 0.4, 0.2]","[u'medium', u'high', u'low']","blue",50,"middle","high","True","False",354,6850,NA
"A1U43WUOJQBK5T","Fri Oct 30 2020 13:46:34 GMT-0500 (Central Daylight Time)","Fri Oct 30 2020 13:52:36 GMT-0500 (Central Daylight Time)","Mozilla/5.0 (Windows NT 6.3; Win64; x64) AppleWebKit/537.36 (KHTML, like Gecko) Chrome/86.0.4240.111 Safari/537.36",122,"[0.9, 0.5, 0.1]","[0.8, 0.4, 0.2]","[u'red', u'blue', u'black']","[u'left', u'middle', u'right']","[0.8, 0.4, 0.2]","[u'medium', u'high', u'low']","blue",50,"middle","high","True","False",362,6950,NA
"A1U43WUOJQBK5T","Fri Oct 30 2020 13:46:34 GMT-0500 (Central Daylight Time)","Fri Oct 30 2020 13:52:36 GMT-0500 (Central Daylight Time)","Mozilla/5.0 (Windows NT 6.3; Win64; x64) AppleWebKit/537.36 (KHTML, like Gecko) Chrome/86.0.4240.111 Safari/537.36",123,"[0.9, 0.5, 0.1]","[0.8, 0.4, 0.2]","[u'red', u'blue', u'black']","[u'left', u'middle', u'right']","[0.8, 0.4, 0.2]","[u'medium', u'high', u'low']","blue",50,"middle","high","True","False",144,7050,NA
"A1U43WUOJQBK5T","Fri Oct 30 2020 13:46:34 GMT-0500 (Central Daylight Time)","Fri Oct 30 2020 13:52:36 GMT-0500 (Central Daylight Time)","Mozilla/5.0 (Windows NT 6.3; Win64; x64) AppleWebKit/537.36 (KHTML, like Gecko) Chrome/86.0.4240.111 Safari/537.36",124,"[0.9, 0.5, 0.1]","[0.8, 0.4, 0.2]","[u'red', u'blue', u'black']","[u'left', u'middle', u'right']","[0.8, 0.4, 0.2]","[u'medium', u'high', u'low']","blue",50,"middle","high","True","False",232,7150,NA
"A1U43WUOJQBK5T","Fri Oct 30 2020 13:46:34 GMT-0500 (Central Daylight Time)","Fri Oct 30 2020 13:52:36 GMT-0500 (Central Daylight Time)","Mozilla/5.0 (Windows NT 6.3; Win64; x64) AppleWebKit/537.36 (KHTML, like Gecko) Chrome/86.0.4240.111 Safari/537.36",125,"[0.9, 0.5, 0.1]","[0.8, 0.4, 0.2]","[u'red', u'blue', u'black']","[u'left', u'middle', u'right']","[0.8, 0.4, 0.2]","[u'medium', u'high', u'low']","blue",50,"middle","high","False","False",270,7100,NA
"A1U43WUOJQBK5T","Fri Oct 30 2020 13:46:34 GMT-0500 (Central Daylight Time)","Fri Oct 30 2020 13:52:36 GMT-0500 (Central Daylight Time)","Mozilla/5.0 (Windows NT 6.3; Win64; x64) AppleWebKit/537.36 (KHTML, like Gecko) Chrome/86.0.4240.111 Safari/537.36",126,"[0.9, 0.5, 0.1]","[0.8, 0.4, 0.2]","[u'red', u'blue', u'black']","[u'left', u'middle', u'right']","[0.8, 0.4, 0.2]","[u'medium', u'high', u'low']","red",49,"left","medium","False","False",326,7050,NA
"A1U43WUOJQBK5T","Fri Oct 30 2020 13:46:34 GMT-0500 (Central Daylight Time)","Fri Oct 30 2020 13:52:36 GMT-0500 (Central Daylight Time)","Mozilla/5.0 (Windows NT 6.3; Win64; x64) AppleWebKit/537.36 (KHTML, like Gecko) Chrome/86.0.4240.111 Safari/537.36",127,"[0.9, 0.5, 0.1]","[0.8, 0.4, 0.2]","[u'red', u'blue', u'black']","[u'left', u'middle', u'right']","[0.8, 0.4, 0.2]","[u'medium', u'high', u'low']","black",51,"right","low","False","False",308,7000,NA
"A1U43WUOJQBK5T","Fri Oct 30 2020 13:46:34 GMT-0500 (Central Daylight Time)","Fri Oct 30 2020 13:52:36 GMT-0500 (Central Daylight Time)","Mozilla/5.0 (Windows NT 6.3; Win64; x64) AppleWebKit/537.36 (KHTML, like Gecko) Chrome/86.0.4240.111 Safari/537.36",128,"[0.9, 0.5, 0.1]","[0.8, 0.4, 0.2]","[u'red', u'blue', u'black']","[u'left', u'middle', u'right']","[0.8, 0.4, 0.2]","[u'medium', u'high', u'low']","blue",50,"middle","high","False","False",322,6950,NA
"A1U43WUOJQBK5T","Fri Oct 30 2020 13:46:34 GMT-0500 (Central Daylight Time)","Fri Oct 30 2020 13:52:36 GMT-0500 (Central Daylight Time)","Mozilla/5.0 (Windows NT 6.3; Win64; x64) AppleWebKit/537.36 (KHTML, like Gecko) Chrome/86.0.4240.111 Safari/537.36",129,"[0.9, 0.5, 0.1]","[0.8, 0.4, 0.2]","[u'red', u'blue', u'black']","[u'left', u'middle', u'right']","[0.8, 0.4, 0.2]","[u'medium', u'high', u'low']","black",51,"right","low","True","False",301,7050,NA
"A1U43WUOJQBK5T","Fri Oct 30 2020 13:46:34 GMT-0500 (Central Daylight Time)","Fri Oct 30 2020 13:52:36 GMT-0500 (Central Daylight Time)","Mozilla/5.0 (Windows NT 6.3; Win64; x64) AppleWebKit/537.36 (KHTML, like Gecko) Chrome/86.0.4240.111 Safari/537.36",130,"[0.9, 0.5, 0.1]","[0.8, 0.4, 0.2]","[u'red', u'blue', u'black']","[u'left', u'middle', u'right']","[0.8, 0.4, 0.2]","[u'medium', u'high', u'low']","black",51,"right","low","False","False",230,7000,NA
"A1U43WUOJQBK5T","Fri Oct 30 2020 13:46:34 GMT-0500 (Central Daylight Time)","Fri Oct 30 2020 13:52:36 GMT-0500 (Central Daylight Time)","Mozilla/5.0 (Windows NT 6.3; Win64; x64) AppleWebKit/537.36 (KHTML, like Gecko) Chrome/86.0.4240.111 Safari/537.36",131,"[0.9, 0.5, 0.1]","[0.8, 0.4, 0.2]","[u'red', u'blue', u'black']","[u'left', u'middle', u'right']","[0.8, 0.4, 0.2]","[u'medium', u'high', u'low']","red",49,"left","medium","True","False",208,7100,NA
"A1U43WUOJQBK5T","Fri Oct 30 2020 13:46:34 GMT-0500 (Central Daylight Time)","Fri Oct 30 2020 13:52:36 GMT-0500 (Central Daylight Time)","Mozilla/5.0 (Windows NT 6.3; Win64; x64) AppleWebKit/537.36 (KHTML, like Gecko) Chrome/86.0.4240.111 Safari/537.36",132,"[0.9, 0.5, 0.1]","[0.8, 0.4, 0.2]","[u'red', u'blue', u'black']","[u'left', u'middle', u'right']","[0.8, 0.4, 0.2]","[u'medium', u'high', u'low']","red",49,"left","medium","False","False",136,7050,NA
"A1U43WUOJQBK5T","Fri Oct 30 2020 13:46:34 GMT-0500 (Central Daylight Time)","Fri Oct 30 2020 13:52:36 GMT-0500 (Central Daylight Time)","Mozilla/5.0 (Windows NT 6.3; Win64; x64) AppleWebKit/537.36 (KHTML, like Gecko) Chrome/86.0.4240.111 Safari/537.36",133,"[0.9, 0.5, 0.1]","[0.8, 0.4, 0.2]","[u'red', u'blue', u'black']","[u'left', u'middle', u'right']","[0.8, 0.4, 0.2]","[u'medium', u'high', u'low']","blue",50,"middle","high","True","False",532,7150,NA
"A1U43WUOJQBK5T","Fri Oct 30 2020 13:46:34 GMT-0500 (Central Daylight Time)","Fri Oct 30 2020 13:52:36 GMT-0500 (Central Daylight Time)","Mozilla/5.0 (Windows NT 6.3; Win64; x64) AppleWebKit/537.36 (KHTML, like Gecko) Chrome/86.0.4240.111 Safari/537.36",134,"[0.9, 0.5, 0.1]","[0.8, 0.4, 0.2]","[u'red', u'blue', u'black']","[u'left', u'middle', u'right']","[0.8, 0.4, 0.2]","[u'medium', u'high', u'low']","blue",50,"middle","high","False","False",246,7100,NA
"A1U43WUOJQBK5T","Fri Oct 30 2020 13:46:34 GMT-0500 (Central Daylight Time)","Fri Oct 30 2020 13:52:36 GMT-0500 (Central Daylight Time)","Mozilla/5.0 (Windows NT 6.3; Win64; x64) AppleWebKit/537.36 (KHTML, like Gecko) Chrome/86.0.4240.111 Safari/537.36",135,"[0.9, 0.5, 0.1]","[0.8, 0.4, 0.2]","[u'red', u'blue', u'black']","[u'left', u'middle', u'right']","[0.8, 0.4, 0.2]","[u'medium', u'high', u'low']","red",49,"left","medium","True","False",324,7200,NA
"A1U43WUOJQBK5T","Fri Oct 30 2020 13:46:34 GMT-0500 (Central Daylight Time)","Fri Oct 30 2020 13:52:36 GMT-0500 (Central Daylight Time)","Mozilla/5.0 (Windows NT 6.3; Win64; x64) AppleWebKit/537.36 (KHTML, like Gecko) Chrome/86.0.4240.111 Safari/537.36",136,"[0.9, 0.5, 0.1]","[0.8, 0.4, 0.2]","[u'red', u'blue', u'black']","[u'left', u'middle', u'right']","[0.8, 0.4, 0.2]","[u'medium', u'high', u'low']","red",49,"left","medium","False","False",330,7150,NA
"A1U43WUOJQBK5T","Fri Oct 30 2020 13:46:34 GMT-0500 (Central Daylight Time)","Fri Oct 30 2020 13:52:36 GMT-0500 (Central Daylight Time)","Mozilla/5.0 (Windows NT 6.3; Win64; x64) AppleWebKit/537.36 (KHTML, like Gecko) Chrome/86.0.4240.111 Safari/537.36",137,"[0.9, 0.5, 0.1]","[0.8, 0.4, 0.2]","[u'red', u'blue', u'black']","[u'left', u'middle', u'right']","[0.8, 0.4, 0.2]","[u'medium', u'high', u'low']","blue",50,"middle","high","True","False",330,7250,NA
"A1U43WUOJQBK5T","Fri Oct 30 2020 13:46:34 GMT-0500 (Central Daylight Time)","Fri Oct 30 2020 13:52:36 GMT-0500 (Central Daylight Time)","Mozilla/5.0 (Windows NT 6.3; Win64; x64) AppleWebKit/537.36 (KHTML, like Gecko) Chrome/86.0.4240.111 Safari/537.36",138,"[0.9, 0.5, 0.1]","[0.8, 0.4, 0.2]","[u'red', u'blue', u'black']","[u'left', u'middle', u'right']","[0.8, 0.4, 0.2]","[u'medium', u'high', u'low']","blue",50,"middle","high","False","False",338,7200,NA
"A1U43WUOJQBK5T","Fri Oct 30 2020 13:46:34 GMT-0500 (Central Daylight Time)","Fri Oct 30 2020 13:52:36 GMT-0500 (Central Daylight Time)","Mozilla/5.0 (Windows NT 6.3; Win64; x64) AppleWebKit/537.36 (KHTML, like Gecko) Chrome/86.0.4240.111 Safari/537.36",139,"[0.9, 0.5, 0.1]","[0.8, 0.4, 0.2]","[u'red', u'blue', u'black']","[u'left', u'middle', u'right']","[0.8, 0.4, 0.2]","[u'medium', u'high', u'low']","red",49,"left","medium","True","False",264,7300,NA
"A1U43WUOJQBK5T","Fri Oct 30 2020 13:46:34 GMT-0500 (Central Daylight Time)","Fri Oct 30 2020 13:52:36 GMT-0500 (Central Daylight Time)","Mozilla/5.0 (Windows NT 6.3; Win64; x64) AppleWebKit/537.36 (KHTML, like Gecko) Chrome/86.0.4240.111 Safari/537.36",140,"[0.9, 0.5, 0.1]","[0.8, 0.4, 0.2]","[u'red', u'blue', u'black']","[u'left', u'middle', u'right']","[0.8, 0.4, 0.2]","[u'medium', u'high', u'low']","blue",50,"middle","high","True","False",344,7400,NA
"A1U43WUOJQBK5T","Fri Oct 30 2020 13:46:34 GMT-0500 (Central Daylight Time)","Fri Oct 30 2020 13:52:36 GMT-0500 (Central Daylight Time)","Mozilla/5.0 (Windows NT 6.3; Win64; x64) AppleWebKit/537.36 (KHTML, like Gecko) Chrome/86.0.4240.111 Safari/537.36",141,"[0.9, 0.5, 0.1]","[0.8, 0.4, 0.2]","[u'red', u'blue', u'black']","[u'left', u'middle', u'right']","[0.8, 0.4, 0.2]","[u'medium', u'high', u'low']","red",49,"left","medium","False","False",235,7350,NA
"A1U43WUOJQBK5T","Fri Oct 30 2020 13:46:34 GMT-0500 (Central Daylight Time)","Fri Oct 30 2020 13:52:36 GMT-0500 (Central Daylight Time)","Mozilla/5.0 (Windows NT 6.3; Win64; x64) AppleWebKit/537.36 (KHTML, like Gecko) Chrome/86.0.4240.111 Safari/537.36",142,"[0.9, 0.5, 0.1]","[0.8, 0.4, 0.2]","[u'red', u'blue', u'black']","[u'left', u'middle', u'right']","[0.8, 0.4, 0.2]","[u'medium', u'high', u'low']","black",51,"right","low","True","False",299,7450,NA
"A1U43WUOJQBK5T","Fri Oct 30 2020 13:46:34 GMT-0500 (Central Daylight Time)","Fri Oct 30 2020 13:52:36 GMT-0500 (Central Daylight Time)","Mozilla/5.0 (Windows NT 6.3; Win64; x64) AppleWebKit/537.36 (KHTML, like Gecko) Chrome/86.0.4240.111 Safari/537.36",143,"[0.9, 0.5, 0.1]","[0.8, 0.4, 0.2]","[u'red', u'blue', u'black']","[u'left', u'middle', u'right']","[0.8, 0.4, 0.2]","[u'medium', u'high', u'low']","black",51,"right","low","False","False",281,7400,NA
"A1U43WUOJQBK5T","Fri Oct 30 2020 13:46:34 GMT-0500 (Central Daylight Time)","Fri Oct 30 2020 13:52:36 GMT-0500 (Central Daylight Time)","Mozilla/5.0 (Windows NT 6.3; Win64; x64) AppleWebKit/537.36 (KHTML, like Gecko) Chrome/86.0.4240.111 Safari/537.36",144,"[0.9, 0.5, 0.1]","[0.8, 0.4, 0.2]","[u'red', u'blue', u'black']","[u'left', u'middle', u'right']","[0.8, 0.4, 0.2]","[u'medium', u'high', u'low']","blue",50,"middle","high","True","False",815,7500,NA
"A1U43WUOJQBK5T","Fri Oct 30 2020 13:46:34 GMT-0500 (Central Daylight Time)","Fri Oct 30 2020 13:52:36 GMT-0500 (Central Daylight Time)","Mozilla/5.0 (Windows NT 6.3; Win64; x64) AppleWebKit/537.36 (KHTML, like Gecko) Chrome/86.0.4240.111 Safari/537.36",145,"[0.9, 0.5, 0.1]","[0.8, 0.4, 0.2]","[u'red', u'blue', u'black']","[u'left', u'middle', u'right']","[0.8, 0.4, 0.2]","[u'medium', u'high', u'low']","red",49,"left","medium","False","False",303,7450,NA
"A1U43WUOJQBK5T","Fri Oct 30 2020 13:46:34 GMT-0500 (Central Daylight Time)","Fri Oct 30 2020 13:52:36 GMT-0500 (Central Daylight Time)","Mozilla/5.0 (Windows NT 6.3; Win64; x64) AppleWebKit/537.36 (KHTML, like Gecko) Chrome/86.0.4240.111 Safari/537.36",146,"[0.9, 0.5, 0.1]","[0.8, 0.4, 0.2]","[u'red', u'blue', u'black']","[u'left', u'middle', u'right']","[0.8, 0.4, 0.2]","[u'medium', u'high', u'low']","blue",50,"middle","high","False","False",318,7400,NA
"A1U43WUOJQBK5T","Fri Oct 30 2020 13:46:34 GMT-0500 (Central Daylight Time)","Fri Oct 30 2020 13:52:36 GMT-0500 (Central Daylight Time)","Mozilla/5.0 (Windows NT 6.3; Win64; x64) AppleWebKit/537.36 (KHTML, like Gecko) Chrome/86.0.4240.111 Safari/537.36",147,"[0.9, 0.5, 0.1]","[0.8, 0.4, 0.2]","[u'red', u'blue', u'black']","[u'left', u'middle', u'right']","[0.8, 0.4, 0.2]","[u'medium', u'high', u'low']","black",51,"right","low","True","False",169,7500,NA
"A1U43WUOJQBK5T","Fri Oct 30 2020 13:46:34 GMT-0500 (Central Daylight Time)","Fri Oct 30 2020 13:52:36 GMT-0500 (Central Daylight Time)","Mozilla/5.0 (Windows NT 6.3; Win64; x64) AppleWebKit/537.36 (KHTML, like Gecko) Chrome/86.0.4240.111 Safari/537.36",148,"[0.9, 0.5, 0.1]","[0.8, 0.4, 0.2]","[u'red', u'blue', u'black']","[u'left', u'middle', u'right']","[0.8, 0.4, 0.2]","[u'medium', u'high', u'low']","black",51,"right","low","True","False",296,7600,NA
"A1U43WUOJQBK5T","Fri Oct 30 2020 13:46:34 GMT-0500 (Central Daylight Time)","Fri Oct 30 2020 13:52:36 GMT-0500 (Central Daylight Time)","Mozilla/5.0 (Windows NT 6.3; Win64; x64) AppleWebKit/537.36 (KHTML, like Gecko) Chrome/86.0.4240.111 Safari/537.36",149,"[0.9, 0.5, 0.1]","[0.8, 0.4, 0.2]","[u'red', u'blue', u'black']","[u'left', u'middle', u'right']","[0.8, 0.4, 0.2]","[u'medium', u'high', u'low']","black",51,"right","low","True","False",302,7700,NA
"A1U43WUOJQBK5T","Fri Oct 30 2020 13:46:34 GMT-0500 (Central Daylight Time)","Fri Oct 30 2020 13:52:36 GMT-0500 (Central Daylight Time)","Mozilla/5.0 (Windows NT 6.3; Win64; x64) AppleWebKit/537.36 (KHTML, like Gecko) Chrome/86.0.4240.111 Safari/537.36",150,"[0.9, 0.5, 0.1]","[0.8, 0.4, 0.2]","[u'red', u'blue', u'black']","[u'left', u'middle', u'right']","[0.8, 0.4, 0.2]","[u'medium', u'high', u'low']","black",51,"right","low","False","False",169,7650,NA
"A1U43WUOJQBK5T","Fri Oct 30 2020 13:46:34 GMT-0500 (Central Daylight Time)","Fri Oct 30 2020 13:52:36 GMT-0500 (Central Daylight Time)","Mozilla/5.0 (Windows NT 6.3; Win64; x64) AppleWebKit/537.36 (KHTML, like Gecko) Chrome/86.0.4240.111 Safari/537.36",151,"[0.9, 0.5, 0.1]","[0.8, 0.4, 0.2]","[u'red', u'blue', u'black']","[u'left', u'middle', u'right']","[0.8, 0.4, 0.2]","[u'medium', u'high', u'low']","blue",50,"middle","high","True","False",254,7750,NA
"A1U43WUOJQBK5T","Fri Oct 30 2020 13:46:34 GMT-0500 (Central Daylight Time)","Fri Oct 30 2020 13:52:36 GMT-0500 (Central Daylight Time)","Mozilla/5.0 (Windows NT 6.3; Win64; x64) AppleWebKit/537.36 (KHTML, like Gecko) Chrome/86.0.4240.111 Safari/537.36",152,"[0.9, 0.5, 0.1]","[0.8, 0.4, 0.2]","[u'red', u'blue', u'black']","[u'left', u'middle', u'right']","[0.8, 0.4, 0.2]","[u'medium', u'high', u'low']","blue",50,"middle","high","True","False",328,7850,NA
"A1U43WUOJQBK5T","Fri Oct 30 2020 13:46:34 GMT-0500 (Central Daylight Time)","Fri Oct 30 2020 13:52:36 GMT-0500 (Central Daylight Time)","Mozilla/5.0 (Windows NT 6.3; Win64; x64) AppleWebKit/537.36 (KHTML, like Gecko) Chrome/86.0.4240.111 Safari/537.36",153,"[0.9, 0.5, 0.1]","[0.8, 0.4, 0.2]","[u'red', u'blue', u'black']","[u'left', u'middle', u'right']","[0.8, 0.4, 0.2]","[u'medium', u'high', u'low']","blue",50,"middle","high","True","False",309,7950,NA
"A1U43WUOJQBK5T","Fri Oct 30 2020 13:46:34 GMT-0500 (Central Daylight Time)","Fri Oct 30 2020 13:52:36 GMT-0500 (Central Daylight Time)","Mozilla/5.0 (Windows NT 6.3; Win64; x64) AppleWebKit/537.36 (KHTML, like Gecko) Chrome/86.0.4240.111 Safari/537.36",154,"[0.9, 0.5, 0.1]","[0.8, 0.4, 0.2]","[u'red', u'blue', u'black']","[u'left', u'middle', u'right']","[0.8, 0.4, 0.2]","[u'medium', u'high', u'low']","blue",50,"middle","high","False","False",322,7900,NA
"A1U43WUOJQBK5T","Fri Oct 30 2020 13:46:34 GMT-0500 (Central Daylight Time)","Fri Oct 30 2020 13:52:36 GMT-0500 (Central Daylight Time)","Mozilla/5.0 (Windows NT 6.3; Win64; x64) AppleWebKit/537.36 (KHTML, like Gecko) Chrome/86.0.4240.111 Safari/537.36",155,"[0.9, 0.5, 0.1]","[0.8, 0.4, 0.2]","[u'red', u'blue', u'black']","[u'left', u'middle', u'right']","[0.8, 0.4, 0.2]","[u'medium', u'high', u'low']","black",51,"right","low","False","False",345,7850,NA
"A1U43WUOJQBK5T","Fri Oct 30 2020 13:46:34 GMT-0500 (Central Daylight Time)","Fri Oct 30 2020 13:52:36 GMT-0500 (Central Daylight Time)","Mozilla/5.0 (Windows NT 6.3; Win64; x64) AppleWebKit/537.36 (KHTML, like Gecko) Chrome/86.0.4240.111 Safari/537.36",156,"[0.9, 0.5, 0.1]","[0.8, 0.4, 0.2]","[u'red', u'blue', u'black']","[u'left', u'middle', u'right']","[0.8, 0.4, 0.2]","[u'medium', u'high', u'low']","blue",50,"middle","high","True","False",305,7950,NA
"A1U43WUOJQBK5T","Fri Oct 30 2020 13:46:34 GMT-0500 (Central Daylight Time)","Fri Oct 30 2020 13:52:36 GMT-0500 (Central Daylight Time)","Mozilla/5.0 (Windows NT 6.3; Win64; x64) AppleWebKit/537.36 (KHTML, like Gecko) Chrome/86.0.4240.111 Safari/537.36",157,"[0.9, 0.5, 0.1]","[0.8, 0.4, 0.2]","[u'red', u'blue', u'black']","[u'left', u'middle', u'right']","[0.8, 0.4, 0.2]","[u'medium', u'high', u'low']","blue",50,"middle","high","True","False",314,8050,NA
"A1U43WUOJQBK5T","Fri Oct 30 2020 13:46:34 GMT-0500 (Central Daylight Time)","Fri Oct 30 2020 13:52:36 GMT-0500 (Central Daylight Time)","Mozilla/5.0 (Windows NT 6.3; Win64; x64) AppleWebKit/537.36 (KHTML, like Gecko) Chrome/86.0.4240.111 Safari/537.36",158,"[0.9, 0.5, 0.1]","[0.8, 0.4, 0.2]","[u'red', u'blue', u'black']","[u'left', u'middle', u'right']","[0.8, 0.4, 0.2]","[u'medium', u'high', u'low']","blue",50,"middle","high","True","False",274,8150,NA
"A1U43WUOJQBK5T","Fri Oct 30 2020 13:46:34 GMT-0500 (Central Daylight Time)","Fri Oct 30 2020 13:52:36 GMT-0500 (Central Daylight Time)","Mozilla/5.0 (Windows NT 6.3; Win64; x64) AppleWebKit/537.36 (KHTML, like Gecko) Chrome/86.0.4240.111 Safari/537.36",159,"[0.9, 0.5, 0.1]","[0.8, 0.4, 0.2]","[u'red', u'blue', u'black']","[u'left', u'middle', u'right']","[0.8, 0.4, 0.2]","[u'medium', u'high', u'low']","blue",50,"middle","high","True","False",300,8250,NA
"A1U43WUOJQBK5T","Fri Oct 30 2020 13:46:34 GMT-0500 (Central Daylight Time)","Fri Oct 30 2020 13:52:36 GMT-0500 (Central Daylight Time)","Mozilla/5.0 (Windows NT 6.3; Win64; x64) AppleWebKit/537.36 (KHTML, like Gecko) Chrome/86.0.4240.111 Safari/537.36",160,"[0.9, 0.5, 0.1]","[0.8, 0.4, 0.2]","[u'red', u'blue', u'black']","[u'left', u'middle', u'right']","[0.8, 0.4, 0.2]","[u'medium', u'high', u'low']","blue",50,"middle","high","True","True",245,8350,NA
