"src_subject_id","start_time","end_time","browser","index","first_half_probabilities","second_half_probabilities","deck_color","deck_position","deck_probabilities","deck_contingencies","response_color","key_press","response_position","response_probability","reward_type","trial_type","rt","reward_tally","exclusion_reason"
"A36A780ODXBDEH","Fri Oct 30 2020 12:20:29 GMT-0700 (Pacific Daylight Time)","Fri Oct 30 2020 12:27:41 GMT-0700 (Pacific Daylight Time)","Mozilla/5.0 (Windows NT 6.3; Win64; x64) AppleWebKit/537.36 (KHTML, like Gecko) Chrome/86.0.4240.111 Safari/537.36",1,"[0.9, 0.5, 0.1]","[0.8, 0.4, 0.2]","[u'blue', u'black', u'red']","[u'left', u'middle', u'right']","[0.9, 0.5, 0.1]","[u'low', u'medium', u'high']","black",50,"middle","medium","True","False",378,100,NA
"A36A780ODXBDEH","Fri Oct 30 2020 12:20:29 GMT-0700 (Pacific Daylight Time)","Fri Oct 30 2020 12:27:41 GMT-0700 (Pacific Daylight Time)","Mozilla/5.0 (Windows NT 6.3; Win64; x64) AppleWebKit/537.36 (KHTML, like Gecko) Chrome/86.0.4240.111 Safari/537.36",2,"[0.9, 0.5, 0.1]","[0.8, 0.4, 0.2]","[u'blue', u'black', u'red']","[u'left', u'middle', u'right']","[0.9, 0.5, 0.1]","[u'low', u'medium', u'high']","black",50,"middle","medium","False","False",259,50,NA
"A36A780ODXBDEH","Fri Oct 30 2020 12:20:29 GMT-0700 (Pacific Daylight Time)","Fri Oct 30 2020 12:27:41 GMT-0700 (Pacific Daylight Time)","Mozilla/5.0 (Windows NT 6.3; Win64; x64) AppleWebKit/537.36 (KHTML, like Gecko) Chrome/86.0.4240.111 Safari/537.36",3,"[0.9, 0.5, 0.1]","[0.8, 0.4, 0.2]","[u'blue', u'black', u'red']","[u'left', u'middle', u'right']","[0.9, 0.5, 0.1]","[u'low', u'medium', u'high']","black",50,"middle","medium","True","False",203,150,NA
"A36A780ODXBDEH","Fri Oct 30 2020 12:20:29 GMT-0700 (Pacific Daylight Time)","Fri Oct 30 2020 12:27:41 GMT-0700 (Pacific Daylight Time)","Mozilla/5.0 (Windows NT 6.3; Win64; x64) AppleWebKit/537.36 (KHTML, like Gecko) Chrome/86.0.4240.111 Safari/537.36",4,"[0.9, 0.5, 0.1]","[0.8, 0.4, 0.2]","[u'blue', u'black', u'red']","[u'left', u'middle', u'right']","[0.9, 0.5, 0.1]","[u'low', u'medium', u'high']","black",50,"middle","medium","False","False",299,100,NA
"A36A780ODXBDEH","Fri Oct 30 2020 12:20:29 GMT-0700 (Pacific Daylight Time)","Fri Oct 30 2020 12:27:41 GMT-0700 (Pacific Daylight Time)","Mozilla/5.0 (Windows NT 6.3; Win64; x64) AppleWebKit/537.36 (KHTML, like Gecko) Chrome/86.0.4240.111 Safari/537.36",5,"[0.9, 0.5, 0.1]","[0.8, 0.4, 0.2]","[u'blue', u'black', u'red']","[u'left', u'middle', u'right']","[0.9, 0.5, 0.1]","[u'low', u'medium', u'high']","black",50,"middle","medium","False","False",58,50,NA
"A36A780ODXBDEH","Fri Oct 30 2020 12:20:29 GMT-0700 (Pacific Daylight Time)","Fri Oct 30 2020 12:27:41 GMT-0700 (Pacific Daylight Time)","Mozilla/5.0 (Windows NT 6.3; Win64; x64) AppleWebKit/537.36 (KHTML, like Gecko) Chrome/86.0.4240.111 Safari/537.36",6,"[0.9, 0.5, 0.1]","[0.8, 0.4, 0.2]","[u'blue', u'black', u'red']","[u'left', u'middle', u'right']","[0.9, 0.5, 0.1]","[u'low', u'medium', u'high']","red",51,"right","high","True","False",4,150,NA
"A36A780ODXBDEH","Fri Oct 30 2020 12:20:29 GMT-0700 (Pacific Daylight Time)","Fri Oct 30 2020 12:27:41 GMT-0700 (Pacific Daylight Time)","Mozilla/5.0 (Windows NT 6.3; Win64; x64) AppleWebKit/537.36 (KHTML, like Gecko) Chrome/86.0.4240.111 Safari/537.36",7,"[0.9, 0.5, 0.1]","[0.8, 0.4, 0.2]","[u'blue', u'black', u'red']","[u'left', u'middle', u'right']","[0.9, 0.5, 0.1]","[u'low', u'medium', u'high']","red",51,"right","high","False","False",118,100,NA
"A36A780ODXBDEH","Fri Oct 30 2020 12:20:29 GMT-0700 (Pacific Daylight Time)","Fri Oct 30 2020 12:27:41 GMT-0700 (Pacific Daylight Time)","Mozilla/5.0 (Windows NT 6.3; Win64; x64) AppleWebKit/537.36 (KHTML, like Gecko) Chrome/86.0.4240.111 Safari/537.36",8,"[0.9, 0.5, 0.1]","[0.8, 0.4, 0.2]","[u'blue', u'black', u'red']","[u'left', u'middle', u'right']","[0.9, 0.5, 0.1]","[u'low', u'medium', u'high']","red",51,"right","high","True","False",67,200,NA
"A36A780ODXBDEH","Fri Oct 30 2020 12:20:29 GMT-0700 (Pacific Daylight Time)","Fri Oct 30 2020 12:27:41 GMT-0700 (Pacific Daylight Time)","Mozilla/5.0 (Windows NT 6.3; Win64; x64) AppleWebKit/537.36 (KHTML, like Gecko) Chrome/86.0.4240.111 Safari/537.36",9,"[0.9, 0.5, 0.1]","[0.8, 0.4, 0.2]","[u'blue', u'black', u'red']","[u'left', u'middle', u'right']","[0.9, 0.5, 0.1]","[u'low', u'medium', u'high']","red",51,"right","high","True","False",24,300,NA
"A36A780ODXBDEH","Fri Oct 30 2020 12:20:29 GMT-0700 (Pacific Daylight Time)","Fri Oct 30 2020 12:27:41 GMT-0700 (Pacific Daylight Time)","Mozilla/5.0 (Windows NT 6.3; Win64; x64) AppleWebKit/537.36 (KHTML, like Gecko) Chrome/86.0.4240.111 Safari/537.36",10,"[0.9, 0.5, 0.1]","[0.8, 0.4, 0.2]","[u'blue', u'black', u'red']","[u'left', u'middle', u'right']","[0.9, 0.5, 0.1]","[u'low', u'medium', u'high']","red",51,"right","high","True","False",139,400,NA
"A36A780ODXBDEH","Fri Oct 30 2020 12:20:29 GMT-0700 (Pacific Daylight Time)","Fri Oct 30 2020 12:27:41 GMT-0700 (Pacific Daylight Time)","Mozilla/5.0 (Windows NT 6.3; Win64; x64) AppleWebKit/537.36 (KHTML, like Gecko) Chrome/86.0.4240.111 Safari/537.36",11,"[0.9, 0.5, 0.1]","[0.8, 0.4, 0.2]","[u'blue', u'black', u'red']","[u'left', u'middle', u'right']","[0.9, 0.5, 0.1]","[u'low', u'medium', u'high']","red",51,"right","high","False","False",379,350,NA
"A36A780ODXBDEH","Fri Oct 30 2020 12:20:29 GMT-0700 (Pacific Daylight Time)","Fri Oct 30 2020 12:27:41 GMT-0700 (Pacific Daylight Time)","Mozilla/5.0 (Windows NT 6.3; Win64; x64) AppleWebKit/537.36 (KHTML, like Gecko) Chrome/86.0.4240.111 Safari/537.36",12,"[0.9, 0.5, 0.1]","[0.8, 0.4, 0.2]","[u'blue', u'black', u'red']","[u'left', u'middle', u'right']","[0.9, 0.5, 0.1]","[u'low', u'medium', u'high']","red",51,"right","high","False","False",139,300,NA
"A36A780ODXBDEH","Fri Oct 30 2020 12:20:29 GMT-0700 (Pacific Daylight Time)","Fri Oct 30 2020 12:27:41 GMT-0700 (Pacific Daylight Time)","Mozilla/5.0 (Windows NT 6.3; Win64; x64) AppleWebKit/537.36 (KHTML, like Gecko) Chrome/86.0.4240.111 Safari/537.36",13,"[0.9, 0.5, 0.1]","[0.8, 0.4, 0.2]","[u'blue', u'black', u'red']","[u'left', u'middle', u'right']","[0.9, 0.5, 0.1]","[u'low', u'medium', u'high']","blue",49,"left","low","False","False",171,250,NA
"A36A780ODXBDEH","Fri Oct 30 2020 12:20:29 GMT-0700 (Pacific Daylight Time)","Fri Oct 30 2020 12:27:41 GMT-0700 (Pacific Daylight Time)","Mozilla/5.0 (Windows NT 6.3; Win64; x64) AppleWebKit/537.36 (KHTML, like Gecko) Chrome/86.0.4240.111 Safari/537.36",14,"[0.9, 0.5, 0.1]","[0.8, 0.4, 0.2]","[u'blue', u'black', u'red']","[u'left', u'middle', u'right']","[0.9, 0.5, 0.1]","[u'low', u'medium', u'high']","blue",49,"left","low","False","False",86,200,NA
"A36A780ODXBDEH","Fri Oct 30 2020 12:20:29 GMT-0700 (Pacific Daylight Time)","Fri Oct 30 2020 12:27:41 GMT-0700 (Pacific Daylight Time)","Mozilla/5.0 (Windows NT 6.3; Win64; x64) AppleWebKit/537.36 (KHTML, like Gecko) Chrome/86.0.4240.111 Safari/537.36",15,"[0.9, 0.5, 0.1]","[0.8, 0.4, 0.2]","[u'blue', u'black', u'red']","[u'left', u'middle', u'right']","[0.9, 0.5, 0.1]","[u'low', u'medium', u'high']","blue",49,"left","low","False","False",104,150,NA
"A36A780ODXBDEH","Fri Oct 30 2020 12:20:29 GMT-0700 (Pacific Daylight Time)","Fri Oct 30 2020 12:27:41 GMT-0700 (Pacific Daylight Time)","Mozilla/5.0 (Windows NT 6.3; Win64; x64) AppleWebKit/537.36 (KHTML, like Gecko) Chrome/86.0.4240.111 Safari/537.36",16,"[0.9, 0.5, 0.1]","[0.8, 0.4, 0.2]","[u'blue', u'black', u'red']","[u'left', u'middle', u'right']","[0.9, 0.5, 0.1]","[u'low', u'medium', u'high']","blue",49,"left","low","False","False",77,100,NA
"A36A780ODXBDEH","Fri Oct 30 2020 12:20:29 GMT-0700 (Pacific Daylight Time)","Fri Oct 30 2020 12:27:41 GMT-0700 (Pacific Daylight Time)","Mozilla/5.0 (Windows NT 6.3; Win64; x64) AppleWebKit/537.36 (KHTML, like Gecko) Chrome/86.0.4240.111 Safari/537.36",17,"[0.9, 0.5, 0.1]","[0.8, 0.4, 0.2]","[u'blue', u'black', u'red']","[u'left', u'middle', u'right']","[0.9, 0.5, 0.1]","[u'low', u'medium', u'high']","red",51,"right","high","False","False",25,50,NA
"A36A780ODXBDEH","Fri Oct 30 2020 12:20:29 GMT-0700 (Pacific Daylight Time)","Fri Oct 30 2020 12:27:41 GMT-0700 (Pacific Daylight Time)","Mozilla/5.0 (Windows NT 6.3; Win64; x64) AppleWebKit/537.36 (KHTML, like Gecko) Chrome/86.0.4240.111 Safari/537.36",18,"[0.9, 0.5, 0.1]","[0.8, 0.4, 0.2]","[u'blue', u'black', u'red']","[u'left', u'middle', u'right']","[0.9, 0.5, 0.1]","[u'low', u'medium', u'high']","black",50,"middle","medium","False","False",138,0,NA
"A36A780ODXBDEH","Fri Oct 30 2020 12:20:29 GMT-0700 (Pacific Daylight Time)","Fri Oct 30 2020 12:27:41 GMT-0700 (Pacific Daylight Time)","Mozilla/5.0 (Windows NT 6.3; Win64; x64) AppleWebKit/537.36 (KHTML, like Gecko) Chrome/86.0.4240.111 Safari/537.36",19,"[0.9, 0.5, 0.1]","[0.8, 0.4, 0.2]","[u'blue', u'black', u'red']","[u'left', u'middle', u'right']","[0.9, 0.5, 0.1]","[u'low', u'medium', u'high']","black",50,"middle","medium","True","False",51,100,NA
"A36A780ODXBDEH","Fri Oct 30 2020 12:20:29 GMT-0700 (Pacific Daylight Time)","Fri Oct 30 2020 12:27:41 GMT-0700 (Pacific Daylight Time)","Mozilla/5.0 (Windows NT 6.3; Win64; x64) AppleWebKit/537.36 (KHTML, like Gecko) Chrome/86.0.4240.111 Safari/537.36",20,"[0.9, 0.5, 0.1]","[0.8, 0.4, 0.2]","[u'blue', u'black', u'red']","[u'left', u'middle', u'right']","[0.9, 0.5, 0.1]","[u'low', u'medium', u'high']","black",50,"middle","medium","False","False",11,50,NA
"A36A780ODXBDEH","Fri Oct 30 2020 12:20:29 GMT-0700 (Pacific Daylight Time)","Fri Oct 30 2020 12:27:41 GMT-0700 (Pacific Daylight Time)","Mozilla/5.0 (Windows NT 6.3; Win64; x64) AppleWebKit/537.36 (KHTML, like Gecko) Chrome/86.0.4240.111 Safari/537.36",21,"[0.9, 0.5, 0.1]","[0.8, 0.4, 0.2]","[u'blue', u'black', u'red']","[u'left', u'middle', u'right']","[0.9, 0.5, 0.1]","[u'low', u'medium', u'high']","black",50,"middle","medium","True","False",175,150,NA
"A36A780ODXBDEH","Fri Oct 30 2020 12:20:29 GMT-0700 (Pacific Daylight Time)","Fri Oct 30 2020 12:27:41 GMT-0700 (Pacific Daylight Time)","Mozilla/5.0 (Windows NT 6.3; Win64; x64) AppleWebKit/537.36 (KHTML, like Gecko) Chrome/86.0.4240.111 Safari/537.36",22,"[0.9, 0.5, 0.1]","[0.8, 0.4, 0.2]","[u'blue', u'black', u'red']","[u'left', u'middle', u'right']","[0.9, 0.5, 0.1]","[u'low', u'medium', u'high']","black",50,"middle","medium","True","False",216,250,NA
"A36A780ODXBDEH","Fri Oct 30 2020 12:20:29 GMT-0700 (Pacific Daylight Time)","Fri Oct 30 2020 12:27:41 GMT-0700 (Pacific Daylight Time)","Mozilla/5.0 (Windows NT 6.3; Win64; x64) AppleWebKit/537.36 (KHTML, like Gecko) Chrome/86.0.4240.111 Safari/537.36",23,"[0.9, 0.5, 0.1]","[0.8, 0.4, 0.2]","[u'blue', u'black', u'red']","[u'left', u'middle', u'right']","[0.9, 0.5, 0.1]","[u'low', u'medium', u'high']","black",50,"middle","medium","True","False",347,350,NA
"A36A780ODXBDEH","Fri Oct 30 2020 12:20:29 GMT-0700 (Pacific Daylight Time)","Fri Oct 30 2020 12:27:41 GMT-0700 (Pacific Daylight Time)","Mozilla/5.0 (Windows NT 6.3; Win64; x64) AppleWebKit/537.36 (KHTML, like Gecko) Chrome/86.0.4240.111 Safari/537.36",24,"[0.9, 0.5, 0.1]","[0.8, 0.4, 0.2]","[u'blue', u'black', u'red']","[u'left', u'middle', u'right']","[0.9, 0.5, 0.1]","[u'low', u'medium', u'high']","black",50,"middle","medium","False","False",179,300,NA
"A36A780ODXBDEH","Fri Oct 30 2020 12:20:29 GMT-0700 (Pacific Daylight Time)","Fri Oct 30 2020 12:27:41 GMT-0700 (Pacific Daylight Time)","Mozilla/5.0 (Windows NT 6.3; Win64; x64) AppleWebKit/537.36 (KHTML, like Gecko) Chrome/86.0.4240.111 Safari/537.36",25,"[0.9, 0.5, 0.1]","[0.8, 0.4, 0.2]","[u'blue', u'black', u'red']","[u'left', u'middle', u'right']","[0.9, 0.5, 0.1]","[u'low', u'medium', u'high']","black",50,"middle","medium","False","False",131,250,NA
"A36A780ODXBDEH","Fri Oct 30 2020 12:20:29 GMT-0700 (Pacific Daylight Time)","Fri Oct 30 2020 12:27:41 GMT-0700 (Pacific Daylight Time)","Mozilla/5.0 (Windows NT 6.3; Win64; x64) AppleWebKit/537.36 (KHTML, like Gecko) Chrome/86.0.4240.111 Safari/537.36",26,"[0.9, 0.5, 0.1]","[0.8, 0.4, 0.2]","[u'blue', u'black', u'red']","[u'left', u'middle', u'right']","[0.9, 0.5, 0.1]","[u'low', u'medium', u'high']","black",50,"middle","medium","True","False",195,350,NA
"A36A780ODXBDEH","Fri Oct 30 2020 12:20:29 GMT-0700 (Pacific Daylight Time)","Fri Oct 30 2020 12:27:41 GMT-0700 (Pacific Daylight Time)","Mozilla/5.0 (Windows NT 6.3; Win64; x64) AppleWebKit/537.36 (KHTML, like Gecko) Chrome/86.0.4240.111 Safari/537.36",27,"[0.9, 0.5, 0.1]","[0.8, 0.4, 0.2]","[u'blue', u'black', u'red']","[u'left', u'middle', u'right']","[0.9, 0.5, 0.1]","[u'low', u'medium', u'high']","black",50,"middle","medium","True","False",182,450,NA
"A36A780ODXBDEH","Fri Oct 30 2020 12:20:29 GMT-0700 (Pacific Daylight Time)","Fri Oct 30 2020 12:27:41 GMT-0700 (Pacific Daylight Time)","Mozilla/5.0 (Windows NT 6.3; Win64; x64) AppleWebKit/537.36 (KHTML, like Gecko) Chrome/86.0.4240.111 Safari/537.36",28,"[0.9, 0.5, 0.1]","[0.8, 0.4, 0.2]","[u'blue', u'black', u'red']","[u'left', u'middle', u'right']","[0.9, 0.5, 0.1]","[u'low', u'medium', u'high']","black",50,"middle","medium","True","False",120,550,NA
"A36A780ODXBDEH","Fri Oct 30 2020 12:20:29 GMT-0700 (Pacific Daylight Time)","Fri Oct 30 2020 12:27:41 GMT-0700 (Pacific Daylight Time)","Mozilla/5.0 (Windows NT 6.3; Win64; x64) AppleWebKit/537.36 (KHTML, like Gecko) Chrome/86.0.4240.111 Safari/537.36",29,"[0.9, 0.5, 0.1]","[0.8, 0.4, 0.2]","[u'blue', u'black', u'red']","[u'left', u'middle', u'right']","[0.9, 0.5, 0.1]","[u'low', u'medium', u'high']","black",50,"middle","medium","False","False",83,500,NA
"A36A780ODXBDEH","Fri Oct 30 2020 12:20:29 GMT-0700 (Pacific Daylight Time)","Fri Oct 30 2020 12:27:41 GMT-0700 (Pacific Daylight Time)","Mozilla/5.0 (Windows NT 6.3; Win64; x64) AppleWebKit/537.36 (KHTML, like Gecko) Chrome/86.0.4240.111 Safari/537.36",30,"[0.9, 0.5, 0.1]","[0.8, 0.4, 0.2]","[u'blue', u'black', u'red']","[u'left', u'middle', u'right']","[0.9, 0.5, 0.1]","[u'low', u'medium', u'high']","black",50,"middle","medium","True","False",60,600,NA
"A36A780ODXBDEH","Fri Oct 30 2020 12:20:29 GMT-0700 (Pacific Daylight Time)","Fri Oct 30 2020 12:27:41 GMT-0700 (Pacific Daylight Time)","Mozilla/5.0 (Windows NT 6.3; Win64; x64) AppleWebKit/537.36 (KHTML, like Gecko) Chrome/86.0.4240.111 Safari/537.36",31,"[0.9, 0.5, 0.1]","[0.8, 0.4, 0.2]","[u'blue', u'black', u'red']","[u'left', u'middle', u'right']","[0.9, 0.5, 0.1]","[u'low', u'medium', u'high']","black",50,"middle","medium","False","False",156,550,NA
"A36A780ODXBDEH","Fri Oct 30 2020 12:20:29 GMT-0700 (Pacific Daylight Time)","Fri Oct 30 2020 12:27:41 GMT-0700 (Pacific Daylight Time)","Mozilla/5.0 (Windows NT 6.3; Win64; x64) AppleWebKit/537.36 (KHTML, like Gecko) Chrome/86.0.4240.111 Safari/537.36",32,"[0.9, 0.5, 0.1]","[0.8, 0.4, 0.2]","[u'blue', u'black', u'red']","[u'left', u'middle', u'right']","[0.9, 0.5, 0.1]","[u'low', u'medium', u'high']","black",50,"middle","medium","True","False",587,650,NA
"A36A780ODXBDEH","Fri Oct 30 2020 12:20:29 GMT-0700 (Pacific Daylight Time)","Fri Oct 30 2020 12:27:41 GMT-0700 (Pacific Daylight Time)","Mozilla/5.0 (Windows NT 6.3; Win64; x64) AppleWebKit/537.36 (KHTML, like Gecko) Chrome/86.0.4240.111 Safari/537.36",33,"[0.9, 0.5, 0.1]","[0.8, 0.4, 0.2]","[u'blue', u'black', u'red']","[u'left', u'middle', u'right']","[0.9, 0.5, 0.1]","[u'low', u'medium', u'high']","black",50,"middle","medium","False","False",158,600,NA
"A36A780ODXBDEH","Fri Oct 30 2020 12:20:29 GMT-0700 (Pacific Daylight Time)","Fri Oct 30 2020 12:27:41 GMT-0700 (Pacific Daylight Time)","Mozilla/5.0 (Windows NT 6.3; Win64; x64) AppleWebKit/537.36 (KHTML, like Gecko) Chrome/86.0.4240.111 Safari/537.36",34,"[0.9, 0.5, 0.1]","[0.8, 0.4, 0.2]","[u'blue', u'black', u'red']","[u'left', u'middle', u'right']","[0.9, 0.5, 0.1]","[u'low', u'medium', u'high']","black",50,"middle","medium","False","False",1704,550,NA
"A36A780ODXBDEH","Fri Oct 30 2020 12:20:29 GMT-0700 (Pacific Daylight Time)","Fri Oct 30 2020 12:27:41 GMT-0700 (Pacific Daylight Time)","Mozilla/5.0 (Windows NT 6.3; Win64; x64) AppleWebKit/537.36 (KHTML, like Gecko) Chrome/86.0.4240.111 Safari/537.36",35,"[0.9, 0.5, 0.1]","[0.8, 0.4, 0.2]","[u'blue', u'black', u'red']","[u'left', u'middle', u'right']","[0.9, 0.5, 0.1]","[u'low', u'medium', u'high']","black",50,"middle","medium","False","False",443,500,NA
"A36A780ODXBDEH","Fri Oct 30 2020 12:20:29 GMT-0700 (Pacific Daylight Time)","Fri Oct 30 2020 12:27:41 GMT-0700 (Pacific Daylight Time)","Mozilla/5.0 (Windows NT 6.3; Win64; x64) AppleWebKit/537.36 (KHTML, like Gecko) Chrome/86.0.4240.111 Safari/537.36",36,"[0.9, 0.5, 0.1]","[0.8, 0.4, 0.2]","[u'blue', u'black', u'red']","[u'left', u'middle', u'right']","[0.9, 0.5, 0.1]","[u'low', u'medium', u'high']","red",51,"right","high","True","False",339,600,NA
"A36A780ODXBDEH","Fri Oct 30 2020 12:20:29 GMT-0700 (Pacific Daylight Time)","Fri Oct 30 2020 12:27:41 GMT-0700 (Pacific Daylight Time)","Mozilla/5.0 (Windows NT 6.3; Win64; x64) AppleWebKit/537.36 (KHTML, like Gecko) Chrome/86.0.4240.111 Safari/537.36",37,"[0.9, 0.5, 0.1]","[0.8, 0.4, 0.2]","[u'blue', u'black', u'red']","[u'left', u'middle', u'right']","[0.9, 0.5, 0.1]","[u'low', u'medium', u'high']","red",51,"right","high","True","False",139,700,NA
"A36A780ODXBDEH","Fri Oct 30 2020 12:20:29 GMT-0700 (Pacific Daylight Time)","Fri Oct 30 2020 12:27:41 GMT-0700 (Pacific Daylight Time)","Mozilla/5.0 (Windows NT 6.3; Win64; x64) AppleWebKit/537.36 (KHTML, like Gecko) Chrome/86.0.4240.111 Safari/537.36",38,"[0.9, 0.5, 0.1]","[0.8, 0.4, 0.2]","[u'blue', u'black', u'red']","[u'left', u'middle', u'right']","[0.9, 0.5, 0.1]","[u'low', u'medium', u'high']","red",51,"right","high","True","False",231,800,NA
"A36A780ODXBDEH","Fri Oct 30 2020 12:20:29 GMT-0700 (Pacific Daylight Time)","Fri Oct 30 2020 12:27:41 GMT-0700 (Pacific Daylight Time)","Mozilla/5.0 (Windows NT 6.3; Win64; x64) AppleWebKit/537.36 (KHTML, like Gecko) Chrome/86.0.4240.111 Safari/537.36",39,"[0.9, 0.5, 0.1]","[0.8, 0.4, 0.2]","[u'blue', u'black', u'red']","[u'left', u'middle', u'right']","[0.9, 0.5, 0.1]","[u'low', u'medium', u'high']","red",51,"right","high","True","False",208,900,NA
"A36A780ODXBDEH","Fri Oct 30 2020 12:20:29 GMT-0700 (Pacific Daylight Time)","Fri Oct 30 2020 12:27:41 GMT-0700 (Pacific Daylight Time)","Mozilla/5.0 (Windows NT 6.3; Win64; x64) AppleWebKit/537.36 (KHTML, like Gecko) Chrome/86.0.4240.111 Safari/537.36",40,"[0.9, 0.5, 0.1]","[0.8, 0.4, 0.2]","[u'blue', u'black', u'red']","[u'left', u'middle', u'right']","[0.9, 0.5, 0.1]","[u'low', u'medium', u'high']","red",51,"right","high","True","False",203,1000,NA
"A36A780ODXBDEH","Fri Oct 30 2020 12:20:29 GMT-0700 (Pacific Daylight Time)","Fri Oct 30 2020 12:27:41 GMT-0700 (Pacific Daylight Time)","Mozilla/5.0 (Windows NT 6.3; Win64; x64) AppleWebKit/537.36 (KHTML, like Gecko) Chrome/86.0.4240.111 Safari/537.36",41,"[0.9, 0.5, 0.1]","[0.8, 0.4, 0.2]","[u'blue', u'black', u'red']","[u'left', u'middle', u'right']","[0.9, 0.5, 0.1]","[u'medium', u'high', u'low']","red",51,"right","low","False","False",395,950,NA
"A36A780ODXBDEH","Fri Oct 30 2020 12:20:29 GMT-0700 (Pacific Daylight Time)","Fri Oct 30 2020 12:27:41 GMT-0700 (Pacific Daylight Time)","Mozilla/5.0 (Windows NT 6.3; Win64; x64) AppleWebKit/537.36 (KHTML, like Gecko) Chrome/86.0.4240.111 Safari/537.36",42,"[0.9, 0.5, 0.1]","[0.8, 0.4, 0.2]","[u'blue', u'black', u'red']","[u'left', u'middle', u'right']","[0.9, 0.5, 0.1]","[u'medium', u'high', u'low']","black",50,"middle","high","True","False",11,1050,NA
"A36A780ODXBDEH","Fri Oct 30 2020 12:20:29 GMT-0700 (Pacific Daylight Time)","Fri Oct 30 2020 12:27:41 GMT-0700 (Pacific Daylight Time)","Mozilla/5.0 (Windows NT 6.3; Win64; x64) AppleWebKit/537.36 (KHTML, like Gecko) Chrome/86.0.4240.111 Safari/537.36",43,"[0.9, 0.5, 0.1]","[0.8, 0.4, 0.2]","[u'blue', u'black', u'red']","[u'left', u'middle', u'right']","[0.9, 0.5, 0.1]","[u'medium', u'high', u'low']","black",50,"middle","high","True","False",126,1150,NA
"A36A780ODXBDEH","Fri Oct 30 2020 12:20:29 GMT-0700 (Pacific Daylight Time)","Fri Oct 30 2020 12:27:41 GMT-0700 (Pacific Daylight Time)","Mozilla/5.0 (Windows NT 6.3; Win64; x64) AppleWebKit/537.36 (KHTML, like Gecko) Chrome/86.0.4240.111 Safari/537.36",44,"[0.9, 0.5, 0.1]","[0.8, 0.4, 0.2]","[u'blue', u'black', u'red']","[u'left', u'middle', u'right']","[0.9, 0.5, 0.1]","[u'medium', u'high', u'low']","black",50,"middle","high","True","False",88,1250,NA
"A36A780ODXBDEH","Fri Oct 30 2020 12:20:29 GMT-0700 (Pacific Daylight Time)","Fri Oct 30 2020 12:27:41 GMT-0700 (Pacific Daylight Time)","Mozilla/5.0 (Windows NT 6.3; Win64; x64) AppleWebKit/537.36 (KHTML, like Gecko) Chrome/86.0.4240.111 Safari/537.36",45,"[0.9, 0.5, 0.1]","[0.8, 0.4, 0.2]","[u'blue', u'black', u'red']","[u'left', u'middle', u'right']","[0.9, 0.5, 0.1]","[u'medium', u'high', u'low']","black",50,"middle","high","True","False",107,1350,NA
"A36A780ODXBDEH","Fri Oct 30 2020 12:20:29 GMT-0700 (Pacific Daylight Time)","Fri Oct 30 2020 12:27:41 GMT-0700 (Pacific Daylight Time)","Mozilla/5.0 (Windows NT 6.3; Win64; x64) AppleWebKit/537.36 (KHTML, like Gecko) Chrome/86.0.4240.111 Safari/537.36",46,"[0.9, 0.5, 0.1]","[0.8, 0.4, 0.2]","[u'blue', u'black', u'red']","[u'left', u'middle', u'right']","[0.9, 0.5, 0.1]","[u'medium', u'high', u'low']","black",50,"middle","high","True","False",44,1450,NA
"A36A780ODXBDEH","Fri Oct 30 2020 12:20:29 GMT-0700 (Pacific Daylight Time)","Fri Oct 30 2020 12:27:41 GMT-0700 (Pacific Daylight Time)","Mozilla/5.0 (Windows NT 6.3; Win64; x64) AppleWebKit/537.36 (KHTML, like Gecko) Chrome/86.0.4240.111 Safari/537.36",47,"[0.9, 0.5, 0.1]","[0.8, 0.4, 0.2]","[u'blue', u'black', u'red']","[u'left', u'middle', u'right']","[0.9, 0.5, 0.1]","[u'medium', u'high', u'low']","black",50,"middle","high","True","False",164,1550,NA
"A36A780ODXBDEH","Fri Oct 30 2020 12:20:29 GMT-0700 (Pacific Daylight Time)","Fri Oct 30 2020 12:27:41 GMT-0700 (Pacific Daylight Time)","Mozilla/5.0 (Windows NT 6.3; Win64; x64) AppleWebKit/537.36 (KHTML, like Gecko) Chrome/86.0.4240.111 Safari/537.36",48,"[0.9, 0.5, 0.1]","[0.8, 0.4, 0.2]","[u'blue', u'black', u'red']","[u'left', u'middle', u'right']","[0.9, 0.5, 0.1]","[u'medium', u'high', u'low']","black",50,"middle","high","True","False",68,1650,NA
"A36A780ODXBDEH","Fri Oct 30 2020 12:20:29 GMT-0700 (Pacific Daylight Time)","Fri Oct 30 2020 12:27:41 GMT-0700 (Pacific Daylight Time)","Mozilla/5.0 (Windows NT 6.3; Win64; x64) AppleWebKit/537.36 (KHTML, like Gecko) Chrome/86.0.4240.111 Safari/537.36",49,"[0.9, 0.5, 0.1]","[0.8, 0.4, 0.2]","[u'blue', u'black', u'red']","[u'left', u'middle', u'right']","[0.9, 0.5, 0.1]","[u'medium', u'high', u'low']","black",50,"middle","high","True","False",91,1750,NA
"A36A780ODXBDEH","Fri Oct 30 2020 12:20:29 GMT-0700 (Pacific Daylight Time)","Fri Oct 30 2020 12:27:41 GMT-0700 (Pacific Daylight Time)","Mozilla/5.0 (Windows NT 6.3; Win64; x64) AppleWebKit/537.36 (KHTML, like Gecko) Chrome/86.0.4240.111 Safari/537.36",50,"[0.9, 0.5, 0.1]","[0.8, 0.4, 0.2]","[u'blue', u'black', u'red']","[u'left', u'middle', u'right']","[0.9, 0.5, 0.1]","[u'medium', u'high', u'low']","black",50,"middle","high","True","True",141,1850,NA
"A36A780ODXBDEH","Fri Oct 30 2020 12:20:29 GMT-0700 (Pacific Daylight Time)","Fri Oct 30 2020 12:27:41 GMT-0700 (Pacific Daylight Time)","Mozilla/5.0 (Windows NT 6.3; Win64; x64) AppleWebKit/537.36 (KHTML, like Gecko) Chrome/86.0.4240.111 Safari/537.36",51,"[0.9, 0.5, 0.1]","[0.8, 0.4, 0.2]","[u'blue', u'black', u'red']","[u'left', u'middle', u'right']","[0.9, 0.5, 0.1]","[u'medium', u'low', u'high']","black",50,"middle","low","False","False",65,1800,NA
"A36A780ODXBDEH","Fri Oct 30 2020 12:20:29 GMT-0700 (Pacific Daylight Time)","Fri Oct 30 2020 12:27:41 GMT-0700 (Pacific Daylight Time)","Mozilla/5.0 (Windows NT 6.3; Win64; x64) AppleWebKit/537.36 (KHTML, like Gecko) Chrome/86.0.4240.111 Safari/537.36",52,"[0.9, 0.5, 0.1]","[0.8, 0.4, 0.2]","[u'blue', u'black', u'red']","[u'left', u'middle', u'right']","[0.9, 0.5, 0.1]","[u'medium', u'low', u'high']","black",50,"middle","low","False","False",379,1750,NA
"A36A780ODXBDEH","Fri Oct 30 2020 12:20:29 GMT-0700 (Pacific Daylight Time)","Fri Oct 30 2020 12:27:41 GMT-0700 (Pacific Daylight Time)","Mozilla/5.0 (Windows NT 6.3; Win64; x64) AppleWebKit/537.36 (KHTML, like Gecko) Chrome/86.0.4240.111 Safari/537.36",53,"[0.9, 0.5, 0.1]","[0.8, 0.4, 0.2]","[u'blue', u'black', u'red']","[u'left', u'middle', u'right']","[0.9, 0.5, 0.1]","[u'medium', u'low', u'high']","red",51,"right","high","False","False",156,1700,NA
"A36A780ODXBDEH","Fri Oct 30 2020 12:20:29 GMT-0700 (Pacific Daylight Time)","Fri Oct 30 2020 12:27:41 GMT-0700 (Pacific Daylight Time)","Mozilla/5.0 (Windows NT 6.3; Win64; x64) AppleWebKit/537.36 (KHTML, like Gecko) Chrome/86.0.4240.111 Safari/537.36",54,"[0.9, 0.5, 0.1]","[0.8, 0.4, 0.2]","[u'blue', u'black', u'red']","[u'left', u'middle', u'right']","[0.9, 0.5, 0.1]","[u'medium', u'low', u'high']","red",51,"right","high","True","False",220,1800,NA
"A36A780ODXBDEH","Fri Oct 30 2020 12:20:29 GMT-0700 (Pacific Daylight Time)","Fri Oct 30 2020 12:27:41 GMT-0700 (Pacific Daylight Time)","Mozilla/5.0 (Windows NT 6.3; Win64; x64) AppleWebKit/537.36 (KHTML, like Gecko) Chrome/86.0.4240.111 Safari/537.36",55,"[0.9, 0.5, 0.1]","[0.8, 0.4, 0.2]","[u'blue', u'black', u'red']","[u'left', u'middle', u'right']","[0.9, 0.5, 0.1]","[u'medium', u'low', u'high']","red",51,"right","high","True","False",123,1900,NA
"A36A780ODXBDEH","Fri Oct 30 2020 12:20:29 GMT-0700 (Pacific Daylight Time)","Fri Oct 30 2020 12:27:41 GMT-0700 (Pacific Daylight Time)","Mozilla/5.0 (Windows NT 6.3; Win64; x64) AppleWebKit/537.36 (KHTML, like Gecko) Chrome/86.0.4240.111 Safari/537.36",56,"[0.9, 0.5, 0.1]","[0.8, 0.4, 0.2]","[u'blue', u'black', u'red']","[u'left', u'middle', u'right']","[0.9, 0.5, 0.1]","[u'medium', u'low', u'high']","red",51,"right","high","True","False",134,2000,NA
"A36A780ODXBDEH","Fri Oct 30 2020 12:20:29 GMT-0700 (Pacific Daylight Time)","Fri Oct 30 2020 12:27:41 GMT-0700 (Pacific Daylight Time)","Mozilla/5.0 (Windows NT 6.3; Win64; x64) AppleWebKit/537.36 (KHTML, like Gecko) Chrome/86.0.4240.111 Safari/537.36",57,"[0.9, 0.5, 0.1]","[0.8, 0.4, 0.2]","[u'blue', u'black', u'red']","[u'left', u'middle', u'right']","[0.9, 0.5, 0.1]","[u'medium', u'low', u'high']","red",51,"right","high","True","False",56,2100,NA
"A36A780ODXBDEH","Fri Oct 30 2020 12:20:29 GMT-0700 (Pacific Daylight Time)","Fri Oct 30 2020 12:27:41 GMT-0700 (Pacific Daylight Time)","Mozilla/5.0 (Windows NT 6.3; Win64; x64) AppleWebKit/537.36 (KHTML, like Gecko) Chrome/86.0.4240.111 Safari/537.36",58,"[0.9, 0.5, 0.1]","[0.8, 0.4, 0.2]","[u'blue', u'black', u'red']","[u'left', u'middle', u'right']","[0.9, 0.5, 0.1]","[u'medium', u'low', u'high']","red",51,"right","high","True","False",60,2200,NA
"A36A780ODXBDEH","Fri Oct 30 2020 12:20:29 GMT-0700 (Pacific Daylight Time)","Fri Oct 30 2020 12:27:41 GMT-0700 (Pacific Daylight Time)","Mozilla/5.0 (Windows NT 6.3; Win64; x64) AppleWebKit/537.36 (KHTML, like Gecko) Chrome/86.0.4240.111 Safari/537.36",59,"[0.9, 0.5, 0.1]","[0.8, 0.4, 0.2]","[u'blue', u'black', u'red']","[u'left', u'middle', u'right']","[0.9, 0.5, 0.1]","[u'medium', u'low', u'high']","red",51,"right","high","True","False",236,2300,NA
"A36A780ODXBDEH","Fri Oct 30 2020 12:20:29 GMT-0700 (Pacific Daylight Time)","Fri Oct 30 2020 12:27:41 GMT-0700 (Pacific Daylight Time)","Mozilla/5.0 (Windows NT 6.3; Win64; x64) AppleWebKit/537.36 (KHTML, like Gecko) Chrome/86.0.4240.111 Safari/537.36",60,"[0.9, 0.5, 0.1]","[0.8, 0.4, 0.2]","[u'blue', u'black', u'red']","[u'left', u'middle', u'right']","[0.9, 0.5, 0.1]","[u'medium', u'low', u'high']","red",51,"right","high","True","False",132,2400,NA
"A36A780ODXBDEH","Fri Oct 30 2020 12:20:29 GMT-0700 (Pacific Daylight Time)","Fri Oct 30 2020 12:27:41 GMT-0700 (Pacific Daylight Time)","Mozilla/5.0 (Windows NT 6.3; Win64; x64) AppleWebKit/537.36 (KHTML, like Gecko) Chrome/86.0.4240.111 Safari/537.36",61,"[0.9, 0.5, 0.1]","[0.8, 0.4, 0.2]","[u'blue', u'black', u'red']","[u'left', u'middle', u'right']","[0.9, 0.5, 0.1]","[u'medium', u'low', u'high']","red",51,"right","high","True","True",67,2500,NA
"A36A780ODXBDEH","Fri Oct 30 2020 12:20:29 GMT-0700 (Pacific Daylight Time)","Fri Oct 30 2020 12:27:41 GMT-0700 (Pacific Daylight Time)","Mozilla/5.0 (Windows NT 6.3; Win64; x64) AppleWebKit/537.36 (KHTML, like Gecko) Chrome/86.0.4240.111 Safari/537.36",62,"[0.9, 0.5, 0.1]","[0.8, 0.4, 0.2]","[u'blue', u'black', u'red']","[u'left', u'middle', u'right']","[0.9, 0.5, 0.1]","[u'high', u'low', u'medium']","red",51,"right","medium","True","False",27,2600,NA
"A36A780ODXBDEH","Fri Oct 30 2020 12:20:29 GMT-0700 (Pacific Daylight Time)","Fri Oct 30 2020 12:27:41 GMT-0700 (Pacific Daylight Time)","Mozilla/5.0 (Windows NT 6.3; Win64; x64) AppleWebKit/537.36 (KHTML, like Gecko) Chrome/86.0.4240.111 Safari/537.36",63,"[0.9, 0.5, 0.1]","[0.8, 0.4, 0.2]","[u'blue', u'black', u'red']","[u'left', u'middle', u'right']","[0.9, 0.5, 0.1]","[u'high', u'low', u'medium']","red",51,"right","medium","True","False",86,2700,NA
"A36A780ODXBDEH","Fri Oct 30 2020 12:20:29 GMT-0700 (Pacific Daylight Time)","Fri Oct 30 2020 12:27:41 GMT-0700 (Pacific Daylight Time)","Mozilla/5.0 (Windows NT 6.3; Win64; x64) AppleWebKit/537.36 (KHTML, like Gecko) Chrome/86.0.4240.111 Safari/537.36",64,"[0.9, 0.5, 0.1]","[0.8, 0.4, 0.2]","[u'blue', u'black', u'red']","[u'left', u'middle', u'right']","[0.9, 0.5, 0.1]","[u'high', u'low', u'medium']","red",51,"right","medium","True","False",304,2800,NA
"A36A780ODXBDEH","Fri Oct 30 2020 12:20:29 GMT-0700 (Pacific Daylight Time)","Fri Oct 30 2020 12:27:41 GMT-0700 (Pacific Daylight Time)","Mozilla/5.0 (Windows NT 6.3; Win64; x64) AppleWebKit/537.36 (KHTML, like Gecko) Chrome/86.0.4240.111 Safari/537.36",65,"[0.9, 0.5, 0.1]","[0.8, 0.4, 0.2]","[u'blue', u'black', u'red']","[u'left', u'middle', u'right']","[0.9, 0.5, 0.1]","[u'high', u'low', u'medium']","red",51,"right","medium","False","False",148,2750,NA
"A36A780ODXBDEH","Fri Oct 30 2020 12:20:29 GMT-0700 (Pacific Daylight Time)","Fri Oct 30 2020 12:27:41 GMT-0700 (Pacific Daylight Time)","Mozilla/5.0 (Windows NT 6.3; Win64; x64) AppleWebKit/537.36 (KHTML, like Gecko) Chrome/86.0.4240.111 Safari/537.36",66,"[0.9, 0.5, 0.1]","[0.8, 0.4, 0.2]","[u'blue', u'black', u'red']","[u'left', u'middle', u'right']","[0.9, 0.5, 0.1]","[u'high', u'low', u'medium']","black",50,"middle","low","True","False",92,2850,NA
"A36A780ODXBDEH","Fri Oct 30 2020 12:20:29 GMT-0700 (Pacific Daylight Time)","Fri Oct 30 2020 12:27:41 GMT-0700 (Pacific Daylight Time)","Mozilla/5.0 (Windows NT 6.3; Win64; x64) AppleWebKit/537.36 (KHTML, like Gecko) Chrome/86.0.4240.111 Safari/537.36",67,"[0.9, 0.5, 0.1]","[0.8, 0.4, 0.2]","[u'blue', u'black', u'red']","[u'left', u'middle', u'right']","[0.9, 0.5, 0.1]","[u'high', u'low', u'medium']","black",50,"middle","low","False","False",99,2800,NA
"A36A780ODXBDEH","Fri Oct 30 2020 12:20:29 GMT-0700 (Pacific Daylight Time)","Fri Oct 30 2020 12:27:41 GMT-0700 (Pacific Daylight Time)","Mozilla/5.0 (Windows NT 6.3; Win64; x64) AppleWebKit/537.36 (KHTML, like Gecko) Chrome/86.0.4240.111 Safari/537.36",68,"[0.9, 0.5, 0.1]","[0.8, 0.4, 0.2]","[u'blue', u'black', u'red']","[u'left', u'middle', u'right']","[0.9, 0.5, 0.1]","[u'high', u'low', u'medium']","black",50,"middle","low","False","False",115,2750,NA
"A36A780ODXBDEH","Fri Oct 30 2020 12:20:29 GMT-0700 (Pacific Daylight Time)","Fri Oct 30 2020 12:27:41 GMT-0700 (Pacific Daylight Time)","Mozilla/5.0 (Windows NT 6.3; Win64; x64) AppleWebKit/537.36 (KHTML, like Gecko) Chrome/86.0.4240.111 Safari/537.36",69,"[0.9, 0.5, 0.1]","[0.8, 0.4, 0.2]","[u'blue', u'black', u'red']","[u'left', u'middle', u'right']","[0.9, 0.5, 0.1]","[u'high', u'low', u'medium']","red",51,"right","medium","False","False",115,2700,NA
"A36A780ODXBDEH","Fri Oct 30 2020 12:20:29 GMT-0700 (Pacific Daylight Time)","Fri Oct 30 2020 12:27:41 GMT-0700 (Pacific Daylight Time)","Mozilla/5.0 (Windows NT 6.3; Win64; x64) AppleWebKit/537.36 (KHTML, like Gecko) Chrome/86.0.4240.111 Safari/537.36",70,"[0.9, 0.5, 0.1]","[0.8, 0.4, 0.2]","[u'blue', u'black', u'red']","[u'left', u'middle', u'right']","[0.9, 0.5, 0.1]","[u'high', u'low', u'medium']","red",51,"right","medium","False","False",110,2650,NA
"A36A780ODXBDEH","Fri Oct 30 2020 12:20:29 GMT-0700 (Pacific Daylight Time)","Fri Oct 30 2020 12:27:41 GMT-0700 (Pacific Daylight Time)","Mozilla/5.0 (Windows NT 6.3; Win64; x64) AppleWebKit/537.36 (KHTML, like Gecko) Chrome/86.0.4240.111 Safari/537.36",71,"[0.9, 0.5, 0.1]","[0.8, 0.4, 0.2]","[u'blue', u'black', u'red']","[u'left', u'middle', u'right']","[0.9, 0.5, 0.1]","[u'high', u'low', u'medium']","red",51,"right","medium","False","False",112,2600,NA
"A36A780ODXBDEH","Fri Oct 30 2020 12:20:29 GMT-0700 (Pacific Daylight Time)","Fri Oct 30 2020 12:27:41 GMT-0700 (Pacific Daylight Time)","Mozilla/5.0 (Windows NT 6.3; Win64; x64) AppleWebKit/537.36 (KHTML, like Gecko) Chrome/86.0.4240.111 Safari/537.36",72,"[0.9, 0.5, 0.1]","[0.8, 0.4, 0.2]","[u'blue', u'black', u'red']","[u'left', u'middle', u'right']","[0.9, 0.5, 0.1]","[u'high', u'low', u'medium']","blue",49,"left","high","True","False",108,2700,NA
"A36A780ODXBDEH","Fri Oct 30 2020 12:20:29 GMT-0700 (Pacific Daylight Time)","Fri Oct 30 2020 12:27:41 GMT-0700 (Pacific Daylight Time)","Mozilla/5.0 (Windows NT 6.3; Win64; x64) AppleWebKit/537.36 (KHTML, like Gecko) Chrome/86.0.4240.111 Safari/537.36",73,"[0.9, 0.5, 0.1]","[0.8, 0.4, 0.2]","[u'blue', u'black', u'red']","[u'left', u'middle', u'right']","[0.9, 0.5, 0.1]","[u'high', u'low', u'medium']","blue",49,"left","high","True","False",108,2800,NA
"A36A780ODXBDEH","Fri Oct 30 2020 12:20:29 GMT-0700 (Pacific Daylight Time)","Fri Oct 30 2020 12:27:41 GMT-0700 (Pacific Daylight Time)","Mozilla/5.0 (Windows NT 6.3; Win64; x64) AppleWebKit/537.36 (KHTML, like Gecko) Chrome/86.0.4240.111 Safari/537.36",74,"[0.9, 0.5, 0.1]","[0.8, 0.4, 0.2]","[u'blue', u'black', u'red']","[u'left', u'middle', u'right']","[0.9, 0.5, 0.1]","[u'high', u'low', u'medium']","blue",49,"left","high","False","False",123,2750,NA
"A36A780ODXBDEH","Fri Oct 30 2020 12:20:29 GMT-0700 (Pacific Daylight Time)","Fri Oct 30 2020 12:27:41 GMT-0700 (Pacific Daylight Time)","Mozilla/5.0 (Windows NT 6.3; Win64; x64) AppleWebKit/537.36 (KHTML, like Gecko) Chrome/86.0.4240.111 Safari/537.36",75,"[0.9, 0.5, 0.1]","[0.8, 0.4, 0.2]","[u'blue', u'black', u'red']","[u'left', u'middle', u'right']","[0.9, 0.5, 0.1]","[u'high', u'low', u'medium']","blue",49,"left","high","True","False",75,2850,NA
"A36A780ODXBDEH","Fri Oct 30 2020 12:20:29 GMT-0700 (Pacific Daylight Time)","Fri Oct 30 2020 12:27:41 GMT-0700 (Pacific Daylight Time)","Mozilla/5.0 (Windows NT 6.3; Win64; x64) AppleWebKit/537.36 (KHTML, like Gecko) Chrome/86.0.4240.111 Safari/537.36",76,"[0.9, 0.5, 0.1]","[0.8, 0.4, 0.2]","[u'blue', u'black', u'red']","[u'left', u'middle', u'right']","[0.9, 0.5, 0.1]","[u'high', u'low', u'medium']","blue",49,"left","high","True","False",75,2950,NA
"A36A780ODXBDEH","Fri Oct 30 2020 12:20:29 GMT-0700 (Pacific Daylight Time)","Fri Oct 30 2020 12:27:41 GMT-0700 (Pacific Daylight Time)","Mozilla/5.0 (Windows NT 6.3; Win64; x64) AppleWebKit/537.36 (KHTML, like Gecko) Chrome/86.0.4240.111 Safari/537.36",77,"[0.9, 0.5, 0.1]","[0.8, 0.4, 0.2]","[u'blue', u'black', u'red']","[u'left', u'middle', u'right']","[0.9, 0.5, 0.1]","[u'high', u'low', u'medium']","blue",49,"left","high","False","False",110,2900,NA
"A36A780ODXBDEH","Fri Oct 30 2020 12:20:29 GMT-0700 (Pacific Daylight Time)","Fri Oct 30 2020 12:27:41 GMT-0700 (Pacific Daylight Time)","Mozilla/5.0 (Windows NT 6.3; Win64; x64) AppleWebKit/537.36 (KHTML, like Gecko) Chrome/86.0.4240.111 Safari/537.36",78,"[0.9, 0.5, 0.1]","[0.8, 0.4, 0.2]","[u'blue', u'black', u'red']","[u'left', u'middle', u'right']","[0.9, 0.5, 0.1]","[u'high', u'low', u'medium']","blue",49,"left","high","True","False",49,3000,NA
"A36A780ODXBDEH","Fri Oct 30 2020 12:20:29 GMT-0700 (Pacific Daylight Time)","Fri Oct 30 2020 12:27:41 GMT-0700 (Pacific Daylight Time)","Mozilla/5.0 (Windows NT 6.3; Win64; x64) AppleWebKit/537.36 (KHTML, like Gecko) Chrome/86.0.4240.111 Safari/537.36",79,"[0.9, 0.5, 0.1]","[0.8, 0.4, 0.2]","[u'blue', u'black', u'red']","[u'left', u'middle', u'right']","[0.9, 0.5, 0.1]","[u'high', u'low', u'medium']","blue",49,"left","high","True","False",140,3100,NA
"A36A780ODXBDEH","Fri Oct 30 2020 12:20:29 GMT-0700 (Pacific Daylight Time)","Fri Oct 30 2020 12:27:41 GMT-0700 (Pacific Daylight Time)","Mozilla/5.0 (Windows NT 6.3; Win64; x64) AppleWebKit/537.36 (KHTML, like Gecko) Chrome/86.0.4240.111 Safari/537.36",80,"[0.9, 0.5, 0.1]","[0.8, 0.4, 0.2]","[u'blue', u'black', u'red']","[u'left', u'middle', u'right']","[0.9, 0.5, 0.1]","[u'high', u'low', u'medium']","blue",49,"left","high","True","True",36,3200,NA
"A36A780ODXBDEH","Fri Oct 30 2020 12:20:29 GMT-0700 (Pacific Daylight Time)","Fri Oct 30 2020 12:27:41 GMT-0700 (Pacific Daylight Time)","Mozilla/5.0 (Windows NT 6.3; Win64; x64) AppleWebKit/537.36 (KHTML, like Gecko) Chrome/86.0.4240.111 Safari/537.36",81,"[0.9, 0.5, 0.1]","[0.8, 0.4, 0.2]","[u'blue', u'black', u'red']","[u'left', u'middle', u'right']","[0.8, 0.4, 0.2]","[u'low', u'medium', u'high']","blue",49,"left","low","True","False",355,3300,NA
"A36A780ODXBDEH","Fri Oct 30 2020 12:20:29 GMT-0700 (Pacific Daylight Time)","Fri Oct 30 2020 12:27:41 GMT-0700 (Pacific Daylight Time)","Mozilla/5.0 (Windows NT 6.3; Win64; x64) AppleWebKit/537.36 (KHTML, like Gecko) Chrome/86.0.4240.111 Safari/537.36",82,"[0.9, 0.5, 0.1]","[0.8, 0.4, 0.2]","[u'blue', u'black', u'red']","[u'left', u'middle', u'right']","[0.8, 0.4, 0.2]","[u'low', u'medium', u'high']","blue",49,"left","low","False","False",86,3250,NA
"A36A780ODXBDEH","Fri Oct 30 2020 12:20:29 GMT-0700 (Pacific Daylight Time)","Fri Oct 30 2020 12:27:41 GMT-0700 (Pacific Daylight Time)","Mozilla/5.0 (Windows NT 6.3; Win64; x64) AppleWebKit/537.36 (KHTML, like Gecko) Chrome/86.0.4240.111 Safari/537.36",83,"[0.9, 0.5, 0.1]","[0.8, 0.4, 0.2]","[u'blue', u'black', u'red']","[u'left', u'middle', u'right']","[0.8, 0.4, 0.2]","[u'low', u'medium', u'high']","blue",49,"left","low","False","False",57,3200,NA
"A36A780ODXBDEH","Fri Oct 30 2020 12:20:29 GMT-0700 (Pacific Daylight Time)","Fri Oct 30 2020 12:27:41 GMT-0700 (Pacific Daylight Time)","Mozilla/5.0 (Windows NT 6.3; Win64; x64) AppleWebKit/537.36 (KHTML, like Gecko) Chrome/86.0.4240.111 Safari/537.36",84,"[0.9, 0.5, 0.1]","[0.8, 0.4, 0.2]","[u'blue', u'black', u'red']","[u'left', u'middle', u'right']","[0.8, 0.4, 0.2]","[u'low', u'medium', u'high']","black",50,"middle","medium","True","False",60,3300,NA
"A36A780ODXBDEH","Fri Oct 30 2020 12:20:29 GMT-0700 (Pacific Daylight Time)","Fri Oct 30 2020 12:27:41 GMT-0700 (Pacific Daylight Time)","Mozilla/5.0 (Windows NT 6.3; Win64; x64) AppleWebKit/537.36 (KHTML, like Gecko) Chrome/86.0.4240.111 Safari/537.36",85,"[0.9, 0.5, 0.1]","[0.8, 0.4, 0.2]","[u'blue', u'black', u'red']","[u'left', u'middle', u'right']","[0.8, 0.4, 0.2]","[u'low', u'medium', u'high']","black",50,"middle","medium","False","False",76,3250,NA
"A36A780ODXBDEH","Fri Oct 30 2020 12:20:29 GMT-0700 (Pacific Daylight Time)","Fri Oct 30 2020 12:27:41 GMT-0700 (Pacific Daylight Time)","Mozilla/5.0 (Windows NT 6.3; Win64; x64) AppleWebKit/537.36 (KHTML, like Gecko) Chrome/86.0.4240.111 Safari/537.36",86,"[0.9, 0.5, 0.1]","[0.8, 0.4, 0.2]","[u'blue', u'black', u'red']","[u'left', u'middle', u'right']","[0.8, 0.4, 0.2]","[u'low', u'medium', u'high']","black",50,"middle","medium","True","False",27,3350,NA
"A36A780ODXBDEH","Fri Oct 30 2020 12:20:29 GMT-0700 (Pacific Daylight Time)","Fri Oct 30 2020 12:27:41 GMT-0700 (Pacific Daylight Time)","Mozilla/5.0 (Windows NT 6.3; Win64; x64) AppleWebKit/537.36 (KHTML, like Gecko) Chrome/86.0.4240.111 Safari/537.36",87,"[0.9, 0.5, 0.1]","[0.8, 0.4, 0.2]","[u'blue', u'black', u'red']","[u'left', u'middle', u'right']","[0.8, 0.4, 0.2]","[u'low', u'medium', u'high']","black",50,"middle","medium","True","False",179,3450,NA
"A36A780ODXBDEH","Fri Oct 30 2020 12:20:29 GMT-0700 (Pacific Daylight Time)","Fri Oct 30 2020 12:27:41 GMT-0700 (Pacific Daylight Time)","Mozilla/5.0 (Windows NT 6.3; Win64; x64) AppleWebKit/537.36 (KHTML, like Gecko) Chrome/86.0.4240.111 Safari/537.36",88,"[0.9, 0.5, 0.1]","[0.8, 0.4, 0.2]","[u'blue', u'black', u'red']","[u'left', u'middle', u'right']","[0.8, 0.4, 0.2]","[u'low', u'medium', u'high']","black",50,"middle","medium","False","False",91,3400,NA
"A36A780ODXBDEH","Fri Oct 30 2020 12:20:29 GMT-0700 (Pacific Daylight Time)","Fri Oct 30 2020 12:27:41 GMT-0700 (Pacific Daylight Time)","Mozilla/5.0 (Windows NT 6.3; Win64; x64) AppleWebKit/537.36 (KHTML, like Gecko) Chrome/86.0.4240.111 Safari/537.36",89,"[0.9, 0.5, 0.1]","[0.8, 0.4, 0.2]","[u'blue', u'black', u'red']","[u'left', u'middle', u'right']","[0.8, 0.4, 0.2]","[u'low', u'medium', u'high']","black",50,"middle","medium","False","False",22,3350,NA
"A36A780ODXBDEH","Fri Oct 30 2020 12:20:29 GMT-0700 (Pacific Daylight Time)","Fri Oct 30 2020 12:27:41 GMT-0700 (Pacific Daylight Time)","Mozilla/5.0 (Windows NT 6.3; Win64; x64) AppleWebKit/537.36 (KHTML, like Gecko) Chrome/86.0.4240.111 Safari/537.36",90,"[0.9, 0.5, 0.1]","[0.8, 0.4, 0.2]","[u'blue', u'black', u'red']","[u'left', u'middle', u'right']","[0.8, 0.4, 0.2]","[u'low', u'medium', u'high']","black",50,"middle","medium","False","False",48,3300,NA
"A36A780ODXBDEH","Fri Oct 30 2020 12:20:29 GMT-0700 (Pacific Daylight Time)","Fri Oct 30 2020 12:27:41 GMT-0700 (Pacific Daylight Time)","Mozilla/5.0 (Windows NT 6.3; Win64; x64) AppleWebKit/537.36 (KHTML, like Gecko) Chrome/86.0.4240.111 Safari/537.36",91,"[0.9, 0.5, 0.1]","[0.8, 0.4, 0.2]","[u'blue', u'black', u'red']","[u'left', u'middle', u'right']","[0.8, 0.4, 0.2]","[u'low', u'medium', u'high']","red",51,"right","high","False","False",44,3250,NA
"A36A780ODXBDEH","Fri Oct 30 2020 12:20:29 GMT-0700 (Pacific Daylight Time)","Fri Oct 30 2020 12:27:41 GMT-0700 (Pacific Daylight Time)","Mozilla/5.0 (Windows NT 6.3; Win64; x64) AppleWebKit/537.36 (KHTML, like Gecko) Chrome/86.0.4240.111 Safari/537.36",92,"[0.9, 0.5, 0.1]","[0.8, 0.4, 0.2]","[u'blue', u'black', u'red']","[u'left', u'middle', u'right']","[0.8, 0.4, 0.2]","[u'low', u'medium', u'high']","red",51,"right","high","True","False",44,3350,NA
"A36A780ODXBDEH","Fri Oct 30 2020 12:20:29 GMT-0700 (Pacific Daylight Time)","Fri Oct 30 2020 12:27:41 GMT-0700 (Pacific Daylight Time)","Mozilla/5.0 (Windows NT 6.3; Win64; x64) AppleWebKit/537.36 (KHTML, like Gecko) Chrome/86.0.4240.111 Safari/537.36",93,"[0.9, 0.5, 0.1]","[0.8, 0.4, 0.2]","[u'blue', u'black', u'red']","[u'left', u'middle', u'right']","[0.8, 0.4, 0.2]","[u'low', u'medium', u'high']","red",51,"right","high","True","False",324,3450,NA
"A36A780ODXBDEH","Fri Oct 30 2020 12:20:29 GMT-0700 (Pacific Daylight Time)","Fri Oct 30 2020 12:27:41 GMT-0700 (Pacific Daylight Time)","Mozilla/5.0 (Windows NT 6.3; Win64; x64) AppleWebKit/537.36 (KHTML, like Gecko) Chrome/86.0.4240.111 Safari/537.36",94,"[0.9, 0.5, 0.1]","[0.8, 0.4, 0.2]","[u'blue', u'black', u'red']","[u'left', u'middle', u'right']","[0.8, 0.4, 0.2]","[u'low', u'medium', u'high']","red",51,"right","high","False","False",163,3400,NA
"A36A780ODXBDEH","Fri Oct 30 2020 12:20:29 GMT-0700 (Pacific Daylight Time)","Fri Oct 30 2020 12:27:41 GMT-0700 (Pacific Daylight Time)","Mozilla/5.0 (Windows NT 6.3; Win64; x64) AppleWebKit/537.36 (KHTML, like Gecko) Chrome/86.0.4240.111 Safari/537.36",95,"[0.9, 0.5, 0.1]","[0.8, 0.4, 0.2]","[u'blue', u'black', u'red']","[u'left', u'middle', u'right']","[0.8, 0.4, 0.2]","[u'low', u'medium', u'high']","red",51,"right","high","True","False",123,3500,NA
"A36A780ODXBDEH","Fri Oct 30 2020 12:20:29 GMT-0700 (Pacific Daylight Time)","Fri Oct 30 2020 12:27:41 GMT-0700 (Pacific Daylight Time)","Mozilla/5.0 (Windows NT 6.3; Win64; x64) AppleWebKit/537.36 (KHTML, like Gecko) Chrome/86.0.4240.111 Safari/537.36",96,"[0.9, 0.5, 0.1]","[0.8, 0.4, 0.2]","[u'blue', u'black', u'red']","[u'left', u'middle', u'right']","[0.8, 0.4, 0.2]","[u'low', u'medium', u'high']","red",51,"right","high","True","False",30,3600,NA
"A36A780ODXBDEH","Fri Oct 30 2020 12:20:29 GMT-0700 (Pacific Daylight Time)","Fri Oct 30 2020 12:27:41 GMT-0700 (Pacific Daylight Time)","Mozilla/5.0 (Windows NT 6.3; Win64; x64) AppleWebKit/537.36 (KHTML, like Gecko) Chrome/86.0.4240.111 Safari/537.36",97,"[0.9, 0.5, 0.1]","[0.8, 0.4, 0.2]","[u'blue', u'black', u'red']","[u'left', u'middle', u'right']","[0.8, 0.4, 0.2]","[u'low', u'medium', u'high']","red",51,"right","high","True","False",112,3700,NA
"A36A780ODXBDEH","Fri Oct 30 2020 12:20:29 GMT-0700 (Pacific Daylight Time)","Fri Oct 30 2020 12:27:41 GMT-0700 (Pacific Daylight Time)","Mozilla/5.0 (Windows NT 6.3; Win64; x64) AppleWebKit/537.36 (KHTML, like Gecko) Chrome/86.0.4240.111 Safari/537.36",98,"[0.9, 0.5, 0.1]","[0.8, 0.4, 0.2]","[u'blue', u'black', u'red']","[u'left', u'middle', u'right']","[0.8, 0.4, 0.2]","[u'low', u'medium', u'high']","red",51,"right","high","True","False",84,3800,NA
"A36A780ODXBDEH","Fri Oct 30 2020 12:20:29 GMT-0700 (Pacific Daylight Time)","Fri Oct 30 2020 12:27:41 GMT-0700 (Pacific Daylight Time)","Mozilla/5.0 (Windows NT 6.3; Win64; x64) AppleWebKit/537.36 (KHTML, like Gecko) Chrome/86.0.4240.111 Safari/537.36",99,"[0.9, 0.5, 0.1]","[0.8, 0.4, 0.2]","[u'blue', u'black', u'red']","[u'left', u'middle', u'right']","[0.8, 0.4, 0.2]","[u'low', u'medium', u'high']","red",51,"right","high","True","True",60,3900,NA
"A36A780ODXBDEH","Fri Oct 30 2020 12:20:29 GMT-0700 (Pacific Daylight Time)","Fri Oct 30 2020 12:27:41 GMT-0700 (Pacific Daylight Time)","Mozilla/5.0 (Windows NT 6.3; Win64; x64) AppleWebKit/537.36 (KHTML, like Gecko) Chrome/86.0.4240.111 Safari/537.36",100,"[0.9, 0.5, 0.1]","[0.8, 0.4, 0.2]","[u'blue', u'black', u'red']","[u'left', u'middle', u'right']","[0.8, 0.4, 0.2]","[u'high', u'medium', u'low']","red",51,"right","low","True","False",92,4000,NA
"A36A780ODXBDEH","Fri Oct 30 2020 12:20:29 GMT-0700 (Pacific Daylight Time)","Fri Oct 30 2020 12:27:41 GMT-0700 (Pacific Daylight Time)","Mozilla/5.0 (Windows NT 6.3; Win64; x64) AppleWebKit/537.36 (KHTML, like Gecko) Chrome/86.0.4240.111 Safari/537.36",101,"[0.9, 0.5, 0.1]","[0.8, 0.4, 0.2]","[u'blue', u'black', u'red']","[u'left', u'middle', u'right']","[0.8, 0.4, 0.2]","[u'high', u'medium', u'low']","red",51,"right","low","False","False",67,3950,NA
"A36A780ODXBDEH","Fri Oct 30 2020 12:20:29 GMT-0700 (Pacific Daylight Time)","Fri Oct 30 2020 12:27:41 GMT-0700 (Pacific Daylight Time)","Mozilla/5.0 (Windows NT 6.3; Win64; x64) AppleWebKit/537.36 (KHTML, like Gecko) Chrome/86.0.4240.111 Safari/537.36",102,"[0.9, 0.5, 0.1]","[0.8, 0.4, 0.2]","[u'blue', u'black', u'red']","[u'left', u'middle', u'right']","[0.8, 0.4, 0.2]","[u'high', u'medium', u'low']","red",51,"right","low","False","False",11,3900,NA
"A36A780ODXBDEH","Fri Oct 30 2020 12:20:29 GMT-0700 (Pacific Daylight Time)","Fri Oct 30 2020 12:27:41 GMT-0700 (Pacific Daylight Time)","Mozilla/5.0 (Windows NT 6.3; Win64; x64) AppleWebKit/537.36 (KHTML, like Gecko) Chrome/86.0.4240.111 Safari/537.36",103,"[0.9, 0.5, 0.1]","[0.8, 0.4, 0.2]","[u'blue', u'black', u'red']","[u'left', u'middle', u'right']","[0.8, 0.4, 0.2]","[u'high', u'medium', u'low']","red",51,"right","low","False","False",86,3850,NA
"A36A780ODXBDEH","Fri Oct 30 2020 12:20:29 GMT-0700 (Pacific Daylight Time)","Fri Oct 30 2020 12:27:41 GMT-0700 (Pacific Daylight Time)","Mozilla/5.0 (Windows NT 6.3; Win64; x64) AppleWebKit/537.36 (KHTML, like Gecko) Chrome/86.0.4240.111 Safari/537.36",104,"[0.9, 0.5, 0.1]","[0.8, 0.4, 0.2]","[u'blue', u'black', u'red']","[u'left', u'middle', u'right']","[0.8, 0.4, 0.2]","[u'high', u'medium', u'low']","black",50,"middle","medium","False","False",168,3800,NA
"A36A780ODXBDEH","Fri Oct 30 2020 12:20:29 GMT-0700 (Pacific Daylight Time)","Fri Oct 30 2020 12:27:41 GMT-0700 (Pacific Daylight Time)","Mozilla/5.0 (Windows NT 6.3; Win64; x64) AppleWebKit/537.36 (KHTML, like Gecko) Chrome/86.0.4240.111 Safari/537.36",105,"[0.9, 0.5, 0.1]","[0.8, 0.4, 0.2]","[u'blue', u'black', u'red']","[u'left', u'middle', u'right']","[0.8, 0.4, 0.2]","[u'high', u'medium', u'low']","blue",49,"left","high","True","False",3,3900,NA
"A36A780ODXBDEH","Fri Oct 30 2020 12:20:29 GMT-0700 (Pacific Daylight Time)","Fri Oct 30 2020 12:27:41 GMT-0700 (Pacific Daylight Time)","Mozilla/5.0 (Windows NT 6.3; Win64; x64) AppleWebKit/537.36 (KHTML, like Gecko) Chrome/86.0.4240.111 Safari/537.36",106,"[0.9, 0.5, 0.1]","[0.8, 0.4, 0.2]","[u'blue', u'black', u'red']","[u'left', u'middle', u'right']","[0.8, 0.4, 0.2]","[u'high', u'medium', u'low']","blue",49,"left","high","True","False",163,4000,NA
"A36A780ODXBDEH","Fri Oct 30 2020 12:20:29 GMT-0700 (Pacific Daylight Time)","Fri Oct 30 2020 12:27:41 GMT-0700 (Pacific Daylight Time)","Mozilla/5.0 (Windows NT 6.3; Win64; x64) AppleWebKit/537.36 (KHTML, like Gecko) Chrome/86.0.4240.111 Safari/537.36",107,"[0.9, 0.5, 0.1]","[0.8, 0.4, 0.2]","[u'blue', u'black', u'red']","[u'left', u'middle', u'right']","[0.8, 0.4, 0.2]","[u'high', u'medium', u'low']","blue",49,"left","high","True","False",132,4100,NA
"A36A780ODXBDEH","Fri Oct 30 2020 12:20:29 GMT-0700 (Pacific Daylight Time)","Fri Oct 30 2020 12:27:41 GMT-0700 (Pacific Daylight Time)","Mozilla/5.0 (Windows NT 6.3; Win64; x64) AppleWebKit/537.36 (KHTML, like Gecko) Chrome/86.0.4240.111 Safari/537.36",108,"[0.9, 0.5, 0.1]","[0.8, 0.4, 0.2]","[u'blue', u'black', u'red']","[u'left', u'middle', u'right']","[0.8, 0.4, 0.2]","[u'high', u'medium', u'low']","blue",49,"left","high","True","False",68,4200,NA
"A36A780ODXBDEH","Fri Oct 30 2020 12:20:29 GMT-0700 (Pacific Daylight Time)","Fri Oct 30 2020 12:27:41 GMT-0700 (Pacific Daylight Time)","Mozilla/5.0 (Windows NT 6.3; Win64; x64) AppleWebKit/537.36 (KHTML, like Gecko) Chrome/86.0.4240.111 Safari/537.36",109,"[0.9, 0.5, 0.1]","[0.8, 0.4, 0.2]","[u'blue', u'black', u'red']","[u'left', u'middle', u'right']","[0.8, 0.4, 0.2]","[u'high', u'medium', u'low']","blue",49,"left","high","True","False",58,4300,NA
"A36A780ODXBDEH","Fri Oct 30 2020 12:20:29 GMT-0700 (Pacific Daylight Time)","Fri Oct 30 2020 12:27:41 GMT-0700 (Pacific Daylight Time)","Mozilla/5.0 (Windows NT 6.3; Win64; x64) AppleWebKit/537.36 (KHTML, like Gecko) Chrome/86.0.4240.111 Safari/537.36",110,"[0.9, 0.5, 0.1]","[0.8, 0.4, 0.2]","[u'blue', u'black', u'red']","[u'left', u'middle', u'right']","[0.8, 0.4, 0.2]","[u'high', u'medium', u'low']","blue",49,"left","high","True","False",109,4400,NA
"A36A780ODXBDEH","Fri Oct 30 2020 12:20:29 GMT-0700 (Pacific Daylight Time)","Fri Oct 30 2020 12:27:41 GMT-0700 (Pacific Daylight Time)","Mozilla/5.0 (Windows NT 6.3; Win64; x64) AppleWebKit/537.36 (KHTML, like Gecko) Chrome/86.0.4240.111 Safari/537.36",111,"[0.9, 0.5, 0.1]","[0.8, 0.4, 0.2]","[u'blue', u'black', u'red']","[u'left', u'middle', u'right']","[0.8, 0.4, 0.2]","[u'high', u'medium', u'low']","blue",49,"left","high","True","False",64,4500,NA
"A36A780ODXBDEH","Fri Oct 30 2020 12:20:29 GMT-0700 (Pacific Daylight Time)","Fri Oct 30 2020 12:27:41 GMT-0700 (Pacific Daylight Time)","Mozilla/5.0 (Windows NT 6.3; Win64; x64) AppleWebKit/537.36 (KHTML, like Gecko) Chrome/86.0.4240.111 Safari/537.36",112,"[0.9, 0.5, 0.1]","[0.8, 0.4, 0.2]","[u'blue', u'black', u'red']","[u'left', u'middle', u'right']","[0.8, 0.4, 0.2]","[u'high', u'medium', u'low']","blue",49,"left","high","True","False",115,4600,NA
"A36A780ODXBDEH","Fri Oct 30 2020 12:20:29 GMT-0700 (Pacific Daylight Time)","Fri Oct 30 2020 12:27:41 GMT-0700 (Pacific Daylight Time)","Mozilla/5.0 (Windows NT 6.3; Win64; x64) AppleWebKit/537.36 (KHTML, like Gecko) Chrome/86.0.4240.111 Safari/537.36",113,"[0.9, 0.5, 0.1]","[0.8, 0.4, 0.2]","[u'blue', u'black', u'red']","[u'left', u'middle', u'right']","[0.8, 0.4, 0.2]","[u'high', u'medium', u'low']","blue",49,"left","high","True","True",131,4700,NA
"A36A780ODXBDEH","Fri Oct 30 2020 12:20:29 GMT-0700 (Pacific Daylight Time)","Fri Oct 30 2020 12:27:41 GMT-0700 (Pacific Daylight Time)","Mozilla/5.0 (Windows NT 6.3; Win64; x64) AppleWebKit/537.36 (KHTML, like Gecko) Chrome/86.0.4240.111 Safari/537.36",114,"[0.9, 0.5, 0.1]","[0.8, 0.4, 0.2]","[u'blue', u'black', u'red']","[u'left', u'middle', u'right']","[0.8, 0.4, 0.2]","[u'medium', u'high', u'low']","blue",49,"left","medium","True","False",60,4800,NA
"A36A780ODXBDEH","Fri Oct 30 2020 12:20:29 GMT-0700 (Pacific Daylight Time)","Fri Oct 30 2020 12:27:41 GMT-0700 (Pacific Daylight Time)","Mozilla/5.0 (Windows NT 6.3; Win64; x64) AppleWebKit/537.36 (KHTML, like Gecko) Chrome/86.0.4240.111 Safari/537.36",115,"[0.9, 0.5, 0.1]","[0.8, 0.4, 0.2]","[u'blue', u'black', u'red']","[u'left', u'middle', u'right']","[0.8, 0.4, 0.2]","[u'medium', u'high', u'low']","blue",49,"left","medium","False","False",84,4750,NA
"A36A780ODXBDEH","Fri Oct 30 2020 12:20:29 GMT-0700 (Pacific Daylight Time)","Fri Oct 30 2020 12:27:41 GMT-0700 (Pacific Daylight Time)","Mozilla/5.0 (Windows NT 6.3; Win64; x64) AppleWebKit/537.36 (KHTML, like Gecko) Chrome/86.0.4240.111 Safari/537.36",116,"[0.9, 0.5, 0.1]","[0.8, 0.4, 0.2]","[u'blue', u'black', u'red']","[u'left', u'middle', u'right']","[0.8, 0.4, 0.2]","[u'medium', u'high', u'low']","black",50,"middle","high","True","False",66,4850,NA
"A36A780ODXBDEH","Fri Oct 30 2020 12:20:29 GMT-0700 (Pacific Daylight Time)","Fri Oct 30 2020 12:27:41 GMT-0700 (Pacific Daylight Time)","Mozilla/5.0 (Windows NT 6.3; Win64; x64) AppleWebKit/537.36 (KHTML, like Gecko) Chrome/86.0.4240.111 Safari/537.36",117,"[0.9, 0.5, 0.1]","[0.8, 0.4, 0.2]","[u'blue', u'black', u'red']","[u'left', u'middle', u'right']","[0.8, 0.4, 0.2]","[u'medium', u'high', u'low']","black",50,"middle","high","True","False",126,4950,NA
"A36A780ODXBDEH","Fri Oct 30 2020 12:20:29 GMT-0700 (Pacific Daylight Time)","Fri Oct 30 2020 12:27:41 GMT-0700 (Pacific Daylight Time)","Mozilla/5.0 (Windows NT 6.3; Win64; x64) AppleWebKit/537.36 (KHTML, like Gecko) Chrome/86.0.4240.111 Safari/537.36",118,"[0.9, 0.5, 0.1]","[0.8, 0.4, 0.2]","[u'blue', u'black', u'red']","[u'left', u'middle', u'right']","[0.8, 0.4, 0.2]","[u'medium', u'high', u'low']","black",50,"middle","high","True","False",31,5050,NA
"A36A780ODXBDEH","Fri Oct 30 2020 12:20:29 GMT-0700 (Pacific Daylight Time)","Fri Oct 30 2020 12:27:41 GMT-0700 (Pacific Daylight Time)","Mozilla/5.0 (Windows NT 6.3; Win64; x64) AppleWebKit/537.36 (KHTML, like Gecko) Chrome/86.0.4240.111 Safari/537.36",119,"[0.9, 0.5, 0.1]","[0.8, 0.4, 0.2]","[u'blue', u'black', u'red']","[u'left', u'middle', u'right']","[0.8, 0.4, 0.2]","[u'medium', u'high', u'low']","black",50,"middle","high","True","False",75,5150,NA
"A36A780ODXBDEH","Fri Oct 30 2020 12:20:29 GMT-0700 (Pacific Daylight Time)","Fri Oct 30 2020 12:27:41 GMT-0700 (Pacific Daylight Time)","Mozilla/5.0 (Windows NT 6.3; Win64; x64) AppleWebKit/537.36 (KHTML, like Gecko) Chrome/86.0.4240.111 Safari/537.36",120,"[0.9, 0.5, 0.1]","[0.8, 0.4, 0.2]","[u'blue', u'black', u'red']","[u'left', u'middle', u'right']","[0.8, 0.4, 0.2]","[u'medium', u'high', u'low']","black",50,"middle","high","True","False",58,5250,NA
"A36A780ODXBDEH","Fri Oct 30 2020 12:20:29 GMT-0700 (Pacific Daylight Time)","Fri Oct 30 2020 12:27:41 GMT-0700 (Pacific Daylight Time)","Mozilla/5.0 (Windows NT 6.3; Win64; x64) AppleWebKit/537.36 (KHTML, like Gecko) Chrome/86.0.4240.111 Safari/537.36",121,"[0.9, 0.5, 0.1]","[0.8, 0.4, 0.2]","[u'blue', u'black', u'red']","[u'left', u'middle', u'right']","[0.8, 0.4, 0.2]","[u'low', u'medium', u'high']","black",50,"middle","medium","False","False",236,5200,NA
"A36A780ODXBDEH","Fri Oct 30 2020 12:20:29 GMT-0700 (Pacific Daylight Time)","Fri Oct 30 2020 12:27:41 GMT-0700 (Pacific Daylight Time)","Mozilla/5.0 (Windows NT 6.3; Win64; x64) AppleWebKit/537.36 (KHTML, like Gecko) Chrome/86.0.4240.111 Safari/537.36",122,"[0.9, 0.5, 0.1]","[0.8, 0.4, 0.2]","[u'blue', u'black', u'red']","[u'left', u'middle', u'right']","[0.8, 0.4, 0.2]","[u'low', u'medium', u'high']","red",51,"right","high","True","False",74,5300,NA
"A36A780ODXBDEH","Fri Oct 30 2020 12:20:29 GMT-0700 (Pacific Daylight Time)","Fri Oct 30 2020 12:27:41 GMT-0700 (Pacific Daylight Time)","Mozilla/5.0 (Windows NT 6.3; Win64; x64) AppleWebKit/537.36 (KHTML, like Gecko) Chrome/86.0.4240.111 Safari/537.36",123,"[0.9, 0.5, 0.1]","[0.8, 0.4, 0.2]","[u'blue', u'black', u'red']","[u'left', u'middle', u'right']","[0.8, 0.4, 0.2]","[u'low', u'medium', u'high']","red",51,"right","high","True","False",29,5400,NA
"A36A780ODXBDEH","Fri Oct 30 2020 12:20:29 GMT-0700 (Pacific Daylight Time)","Fri Oct 30 2020 12:27:41 GMT-0700 (Pacific Daylight Time)","Mozilla/5.0 (Windows NT 6.3; Win64; x64) AppleWebKit/537.36 (KHTML, like Gecko) Chrome/86.0.4240.111 Safari/537.36",124,"[0.9, 0.5, 0.1]","[0.8, 0.4, 0.2]","[u'blue', u'black', u'red']","[u'left', u'middle', u'right']","[0.8, 0.4, 0.2]","[u'low', u'medium', u'high']","red",51,"right","high","True","False",103,5500,NA
"A36A780ODXBDEH","Fri Oct 30 2020 12:20:29 GMT-0700 (Pacific Daylight Time)","Fri Oct 30 2020 12:27:41 GMT-0700 (Pacific Daylight Time)","Mozilla/5.0 (Windows NT 6.3; Win64; x64) AppleWebKit/537.36 (KHTML, like Gecko) Chrome/86.0.4240.111 Safari/537.36",125,"[0.9, 0.5, 0.1]","[0.8, 0.4, 0.2]","[u'blue', u'black', u'red']","[u'left', u'middle', u'right']","[0.8, 0.4, 0.2]","[u'low', u'medium', u'high']","red",51,"right","high","True","False",20,5600,NA
"A36A780ODXBDEH","Fri Oct 30 2020 12:20:29 GMT-0700 (Pacific Daylight Time)","Fri Oct 30 2020 12:27:41 GMT-0700 (Pacific Daylight Time)","Mozilla/5.0 (Windows NT 6.3; Win64; x64) AppleWebKit/537.36 (KHTML, like Gecko) Chrome/86.0.4240.111 Safari/537.36",126,"[0.9, 0.5, 0.1]","[0.8, 0.4, 0.2]","[u'blue', u'black', u'red']","[u'left', u'middle', u'right']","[0.8, 0.4, 0.2]","[u'low', u'medium', u'high']","red",51,"right","high","True","False",83,5700,NA
"A36A780ODXBDEH","Fri Oct 30 2020 12:20:29 GMT-0700 (Pacific Daylight Time)","Fri Oct 30 2020 12:27:41 GMT-0700 (Pacific Daylight Time)","Mozilla/5.0 (Windows NT 6.3; Win64; x64) AppleWebKit/537.36 (KHTML, like Gecko) Chrome/86.0.4240.111 Safari/537.36",127,"[0.9, 0.5, 0.1]","[0.8, 0.4, 0.2]","[u'blue', u'black', u'red']","[u'left', u'middle', u'right']","[0.8, 0.4, 0.2]","[u'low', u'medium', u'high']","red",51,"right","high","False","False",171,5650,NA
"A36A780ODXBDEH","Fri Oct 30 2020 12:20:29 GMT-0700 (Pacific Daylight Time)","Fri Oct 30 2020 12:27:41 GMT-0700 (Pacific Daylight Time)","Mozilla/5.0 (Windows NT 6.3; Win64; x64) AppleWebKit/537.36 (KHTML, like Gecko) Chrome/86.0.4240.111 Safari/537.36",128,"[0.9, 0.5, 0.1]","[0.8, 0.4, 0.2]","[u'blue', u'black', u'red']","[u'left', u'middle', u'right']","[0.8, 0.4, 0.2]","[u'low', u'medium', u'high']","blue",49,"left","low","True","False",67,5750,NA
"A36A780ODXBDEH","Fri Oct 30 2020 12:20:29 GMT-0700 (Pacific Daylight Time)","Fri Oct 30 2020 12:27:41 GMT-0700 (Pacific Daylight Time)","Mozilla/5.0 (Windows NT 6.3; Win64; x64) AppleWebKit/537.36 (KHTML, like Gecko) Chrome/86.0.4240.111 Safari/537.36",129,"[0.9, 0.5, 0.1]","[0.8, 0.4, 0.2]","[u'blue', u'black', u'red']","[u'left', u'middle', u'right']","[0.8, 0.4, 0.2]","[u'low', u'medium', u'high']","blue",49,"left","low","True","False",35,5850,NA
"A36A780ODXBDEH","Fri Oct 30 2020 12:20:29 GMT-0700 (Pacific Daylight Time)","Fri Oct 30 2020 12:27:41 GMT-0700 (Pacific Daylight Time)","Mozilla/5.0 (Windows NT 6.3; Win64; x64) AppleWebKit/537.36 (KHTML, like Gecko) Chrome/86.0.4240.111 Safari/537.36",130,"[0.9, 0.5, 0.1]","[0.8, 0.4, 0.2]","[u'blue', u'black', u'red']","[u'left', u'middle', u'right']","[0.8, 0.4, 0.2]","[u'low', u'medium', u'high']","blue",49,"left","low","True","False",85,5950,NA
"A36A780ODXBDEH","Fri Oct 30 2020 12:20:29 GMT-0700 (Pacific Daylight Time)","Fri Oct 30 2020 12:27:41 GMT-0700 (Pacific Daylight Time)","Mozilla/5.0 (Windows NT 6.3; Win64; x64) AppleWebKit/537.36 (KHTML, like Gecko) Chrome/86.0.4240.111 Safari/537.36",131,"[0.9, 0.5, 0.1]","[0.8, 0.4, 0.2]","[u'blue', u'black', u'red']","[u'left', u'middle', u'right']","[0.8, 0.4, 0.2]","[u'low', u'medium', u'high']","blue",49,"left","low","False","False",88,5900,NA
"A36A780ODXBDEH","Fri Oct 30 2020 12:20:29 GMT-0700 (Pacific Daylight Time)","Fri Oct 30 2020 12:27:41 GMT-0700 (Pacific Daylight Time)","Mozilla/5.0 (Windows NT 6.3; Win64; x64) AppleWebKit/537.36 (KHTML, like Gecko) Chrome/86.0.4240.111 Safari/537.36",132,"[0.9, 0.5, 0.1]","[0.8, 0.4, 0.2]","[u'blue', u'black', u'red']","[u'left', u'middle', u'right']","[0.8, 0.4, 0.2]","[u'low', u'medium', u'high']","black",50,"middle","medium","False","False",74,5850,NA
"A36A780ODXBDEH","Fri Oct 30 2020 12:20:29 GMT-0700 (Pacific Daylight Time)","Fri Oct 30 2020 12:27:41 GMT-0700 (Pacific Daylight Time)","Mozilla/5.0 (Windows NT 6.3; Win64; x64) AppleWebKit/537.36 (KHTML, like Gecko) Chrome/86.0.4240.111 Safari/537.36",133,"[0.9, 0.5, 0.1]","[0.8, 0.4, 0.2]","[u'blue', u'black', u'red']","[u'left', u'middle', u'right']","[0.8, 0.4, 0.2]","[u'low', u'medium', u'high']","blue",49,"left","low","False","False",59,5800,NA
"A36A780ODXBDEH","Fri Oct 30 2020 12:20:29 GMT-0700 (Pacific Daylight Time)","Fri Oct 30 2020 12:27:41 GMT-0700 (Pacific Daylight Time)","Mozilla/5.0 (Windows NT 6.3; Win64; x64) AppleWebKit/537.36 (KHTML, like Gecko) Chrome/86.0.4240.111 Safari/537.36",134,"[0.9, 0.5, 0.1]","[0.8, 0.4, 0.2]","[u'blue', u'black', u'red']","[u'left', u'middle', u'right']","[0.8, 0.4, 0.2]","[u'low', u'medium', u'high']","red",51,"right","high","True","False",28,5900,NA
"A36A780ODXBDEH","Fri Oct 30 2020 12:20:29 GMT-0700 (Pacific Daylight Time)","Fri Oct 30 2020 12:27:41 GMT-0700 (Pacific Daylight Time)","Mozilla/5.0 (Windows NT 6.3; Win64; x64) AppleWebKit/537.36 (KHTML, like Gecko) Chrome/86.0.4240.111 Safari/537.36",135,"[0.9, 0.5, 0.1]","[0.8, 0.4, 0.2]","[u'blue', u'black', u'red']","[u'left', u'middle', u'right']","[0.8, 0.4, 0.2]","[u'low', u'medium', u'high']","red",51,"right","high","True","False",91,6000,NA
"A36A780ODXBDEH","Fri Oct 30 2020 12:20:29 GMT-0700 (Pacific Daylight Time)","Fri Oct 30 2020 12:27:41 GMT-0700 (Pacific Daylight Time)","Mozilla/5.0 (Windows NT 6.3; Win64; x64) AppleWebKit/537.36 (KHTML, like Gecko) Chrome/86.0.4240.111 Safari/537.36",136,"[0.9, 0.5, 0.1]","[0.8, 0.4, 0.2]","[u'blue', u'black', u'red']","[u'left', u'middle', u'right']","[0.8, 0.4, 0.2]","[u'low', u'medium', u'high']","red",51,"right","high","True","False",107,6100,NA
"A36A780ODXBDEH","Fri Oct 30 2020 12:20:29 GMT-0700 (Pacific Daylight Time)","Fri Oct 30 2020 12:27:41 GMT-0700 (Pacific Daylight Time)","Mozilla/5.0 (Windows NT 6.3; Win64; x64) AppleWebKit/537.36 (KHTML, like Gecko) Chrome/86.0.4240.111 Safari/537.36",137,"[0.9, 0.5, 0.1]","[0.8, 0.4, 0.2]","[u'blue', u'black', u'red']","[u'left', u'middle', u'right']","[0.8, 0.4, 0.2]","[u'low', u'medium', u'high']","red",51,"right","high","True","False",110,6200,NA
"A36A780ODXBDEH","Fri Oct 30 2020 12:20:29 GMT-0700 (Pacific Daylight Time)","Fri Oct 30 2020 12:27:41 GMT-0700 (Pacific Daylight Time)","Mozilla/5.0 (Windows NT 6.3; Win64; x64) AppleWebKit/537.36 (KHTML, like Gecko) Chrome/86.0.4240.111 Safari/537.36",138,"[0.9, 0.5, 0.1]","[0.8, 0.4, 0.2]","[u'blue', u'black', u'red']","[u'left', u'middle', u'right']","[0.8, 0.4, 0.2]","[u'low', u'medium', u'high']","red",51,"right","high","False","False",32,6150,NA
"A36A780ODXBDEH","Fri Oct 30 2020 12:20:29 GMT-0700 (Pacific Daylight Time)","Fri Oct 30 2020 12:27:41 GMT-0700 (Pacific Daylight Time)","Mozilla/5.0 (Windows NT 6.3; Win64; x64) AppleWebKit/537.36 (KHTML, like Gecko) Chrome/86.0.4240.111 Safari/537.36",139,"[0.9, 0.5, 0.1]","[0.8, 0.4, 0.2]","[u'blue', u'black', u'red']","[u'left', u'middle', u'right']","[0.8, 0.4, 0.2]","[u'low', u'medium', u'high']","red",51,"right","high","True","False",387,6250,NA
"A36A780ODXBDEH","Fri Oct 30 2020 12:20:29 GMT-0700 (Pacific Daylight Time)","Fri Oct 30 2020 12:27:41 GMT-0700 (Pacific Daylight Time)","Mozilla/5.0 (Windows NT 6.3; Win64; x64) AppleWebKit/537.36 (KHTML, like Gecko) Chrome/86.0.4240.111 Safari/537.36",140,"[0.9, 0.5, 0.1]","[0.8, 0.4, 0.2]","[u'blue', u'black', u'red']","[u'left', u'middle', u'right']","[0.8, 0.4, 0.2]","[u'low', u'medium', u'high']","red",51,"right","high","True","False",115,6350,NA
"A36A780ODXBDEH","Fri Oct 30 2020 12:20:29 GMT-0700 (Pacific Daylight Time)","Fri Oct 30 2020 12:27:41 GMT-0700 (Pacific Daylight Time)","Mozilla/5.0 (Windows NT 6.3; Win64; x64) AppleWebKit/537.36 (KHTML, like Gecko) Chrome/86.0.4240.111 Safari/537.36",141,"[0.9, 0.5, 0.1]","[0.8, 0.4, 0.2]","[u'blue', u'black', u'red']","[u'left', u'middle', u'right']","[0.8, 0.4, 0.2]","[u'low', u'medium', u'high']","red",51,"right","high","True","False",67,6450,NA
"A36A780ODXBDEH","Fri Oct 30 2020 12:20:29 GMT-0700 (Pacific Daylight Time)","Fri Oct 30 2020 12:27:41 GMT-0700 (Pacific Daylight Time)","Mozilla/5.0 (Windows NT 6.3; Win64; x64) AppleWebKit/537.36 (KHTML, like Gecko) Chrome/86.0.4240.111 Safari/537.36",142,"[0.9, 0.5, 0.1]","[0.8, 0.4, 0.2]","[u'blue', u'black', u'red']","[u'left', u'middle', u'right']","[0.8, 0.4, 0.2]","[u'low', u'medium', u'high']","red",51,"right","high","False","True",91,6400,NA
"A36A780ODXBDEH","Fri Oct 30 2020 12:20:29 GMT-0700 (Pacific Daylight Time)","Fri Oct 30 2020 12:27:41 GMT-0700 (Pacific Daylight Time)","Mozilla/5.0 (Windows NT 6.3; Win64; x64) AppleWebKit/537.36 (KHTML, like Gecko) Chrome/86.0.4240.111 Safari/537.36",143,"[0.9, 0.5, 0.1]","[0.8, 0.4, 0.2]","[u'blue', u'black', u'red']","[u'left', u'middle', u'right']","[0.8, 0.4, 0.2]","[u'high', u'low', u'medium']","black",50,"middle","low","False","False",235,6350,NA
"A36A780ODXBDEH","Fri Oct 30 2020 12:20:29 GMT-0700 (Pacific Daylight Time)","Fri Oct 30 2020 12:27:41 GMT-0700 (Pacific Daylight Time)","Mozilla/5.0 (Windows NT 6.3; Win64; x64) AppleWebKit/537.36 (KHTML, like Gecko) Chrome/86.0.4240.111 Safari/537.36",144,"[0.9, 0.5, 0.1]","[0.8, 0.4, 0.2]","[u'blue', u'black', u'red']","[u'left', u'middle', u'right']","[0.8, 0.4, 0.2]","[u'high', u'low', u'medium']","red",51,"right","medium","True","False",14,6450,NA
"A36A780ODXBDEH","Fri Oct 30 2020 12:20:29 GMT-0700 (Pacific Daylight Time)","Fri Oct 30 2020 12:27:41 GMT-0700 (Pacific Daylight Time)","Mozilla/5.0 (Windows NT 6.3; Win64; x64) AppleWebKit/537.36 (KHTML, like Gecko) Chrome/86.0.4240.111 Safari/537.36",145,"[0.9, 0.5, 0.1]","[0.8, 0.4, 0.2]","[u'blue', u'black', u'red']","[u'left', u'middle', u'right']","[0.8, 0.4, 0.2]","[u'high', u'low', u'medium']","red",51,"right","medium","False","False",48,6400,NA
"A36A780ODXBDEH","Fri Oct 30 2020 12:20:29 GMT-0700 (Pacific Daylight Time)","Fri Oct 30 2020 12:27:41 GMT-0700 (Pacific Daylight Time)","Mozilla/5.0 (Windows NT 6.3; Win64; x64) AppleWebKit/537.36 (KHTML, like Gecko) Chrome/86.0.4240.111 Safari/537.36",146,"[0.9, 0.5, 0.1]","[0.8, 0.4, 0.2]","[u'blue', u'black', u'red']","[u'left', u'middle', u'right']","[0.8, 0.4, 0.2]","[u'high', u'low', u'medium']","black",50,"middle","low","True","False",35,6500,NA
"A36A780ODXBDEH","Fri Oct 30 2020 12:20:29 GMT-0700 (Pacific Daylight Time)","Fri Oct 30 2020 12:27:41 GMT-0700 (Pacific Daylight Time)","Mozilla/5.0 (Windows NT 6.3; Win64; x64) AppleWebKit/537.36 (KHTML, like Gecko) Chrome/86.0.4240.111 Safari/537.36",147,"[0.9, 0.5, 0.1]","[0.8, 0.4, 0.2]","[u'blue', u'black', u'red']","[u'left', u'middle', u'right']","[0.8, 0.4, 0.2]","[u'high', u'low', u'medium']","black",50,"middle","low","False","False",60,6450,NA
"A36A780ODXBDEH","Fri Oct 30 2020 12:20:29 GMT-0700 (Pacific Daylight Time)","Fri Oct 30 2020 12:27:41 GMT-0700 (Pacific Daylight Time)","Mozilla/5.0 (Windows NT 6.3; Win64; x64) AppleWebKit/537.36 (KHTML, like Gecko) Chrome/86.0.4240.111 Safari/537.36",148,"[0.9, 0.5, 0.1]","[0.8, 0.4, 0.2]","[u'blue', u'black', u'red']","[u'left', u'middle', u'right']","[0.8, 0.4, 0.2]","[u'high', u'low', u'medium']","black",50,"middle","low","True","False",114,6550,NA
"A36A780ODXBDEH","Fri Oct 30 2020 12:20:29 GMT-0700 (Pacific Daylight Time)","Fri Oct 30 2020 12:27:41 GMT-0700 (Pacific Daylight Time)","Mozilla/5.0 (Windows NT 6.3; Win64; x64) AppleWebKit/537.36 (KHTML, like Gecko) Chrome/86.0.4240.111 Safari/537.36",149,"[0.9, 0.5, 0.1]","[0.8, 0.4, 0.2]","[u'blue', u'black', u'red']","[u'left', u'middle', u'right']","[0.8, 0.4, 0.2]","[u'high', u'low', u'medium']","black",50,"middle","low","False","False",51,6500,NA
"A36A780ODXBDEH","Fri Oct 30 2020 12:20:29 GMT-0700 (Pacific Daylight Time)","Fri Oct 30 2020 12:27:41 GMT-0700 (Pacific Daylight Time)","Mozilla/5.0 (Windows NT 6.3; Win64; x64) AppleWebKit/537.36 (KHTML, like Gecko) Chrome/86.0.4240.111 Safari/537.36",150,"[0.9, 0.5, 0.1]","[0.8, 0.4, 0.2]","[u'blue', u'black', u'red']","[u'left', u'middle', u'right']","[0.8, 0.4, 0.2]","[u'high', u'low', u'medium']","black",50,"middle","low","False","False",43,6450,NA
"A36A780ODXBDEH","Fri Oct 30 2020 12:20:29 GMT-0700 (Pacific Daylight Time)","Fri Oct 30 2020 12:27:41 GMT-0700 (Pacific Daylight Time)","Mozilla/5.0 (Windows NT 6.3; Win64; x64) AppleWebKit/537.36 (KHTML, like Gecko) Chrome/86.0.4240.111 Safari/537.36",151,"[0.9, 0.5, 0.1]","[0.8, 0.4, 0.2]","[u'blue', u'black', u'red']","[u'left', u'middle', u'right']","[0.8, 0.4, 0.2]","[u'high', u'low', u'medium']","blue",49,"left","high","True","False",94,6550,NA
"A36A780ODXBDEH","Fri Oct 30 2020 12:20:29 GMT-0700 (Pacific Daylight Time)","Fri Oct 30 2020 12:27:41 GMT-0700 (Pacific Daylight Time)","Mozilla/5.0 (Windows NT 6.3; Win64; x64) AppleWebKit/537.36 (KHTML, like Gecko) Chrome/86.0.4240.111 Safari/537.36",152,"[0.9, 0.5, 0.1]","[0.8, 0.4, 0.2]","[u'blue', u'black', u'red']","[u'left', u'middle', u'right']","[0.8, 0.4, 0.2]","[u'high', u'low', u'medium']","blue",49,"left","high","True","False",48,6650,NA
"A36A780ODXBDEH","Fri Oct 30 2020 12:20:29 GMT-0700 (Pacific Daylight Time)","Fri Oct 30 2020 12:27:41 GMT-0700 (Pacific Daylight Time)","Mozilla/5.0 (Windows NT 6.3; Win64; x64) AppleWebKit/537.36 (KHTML, like Gecko) Chrome/86.0.4240.111 Safari/537.36",153,"[0.9, 0.5, 0.1]","[0.8, 0.4, 0.2]","[u'blue', u'black', u'red']","[u'left', u'middle', u'right']","[0.8, 0.4, 0.2]","[u'high', u'low', u'medium']","blue",49,"left","high","True","False",107,6750,NA
"A36A780ODXBDEH","Fri Oct 30 2020 12:20:29 GMT-0700 (Pacific Daylight Time)","Fri Oct 30 2020 12:27:41 GMT-0700 (Pacific Daylight Time)","Mozilla/5.0 (Windows NT 6.3; Win64; x64) AppleWebKit/537.36 (KHTML, like Gecko) Chrome/86.0.4240.111 Safari/537.36",154,"[0.9, 0.5, 0.1]","[0.8, 0.4, 0.2]","[u'blue', u'black', u'red']","[u'left', u'middle', u'right']","[0.8, 0.4, 0.2]","[u'high', u'low', u'medium']","blue",49,"left","high","True","False",75,6850,NA
"A36A780ODXBDEH","Fri Oct 30 2020 12:20:29 GMT-0700 (Pacific Daylight Time)","Fri Oct 30 2020 12:27:41 GMT-0700 (Pacific Daylight Time)","Mozilla/5.0 (Windows NT 6.3; Win64; x64) AppleWebKit/537.36 (KHTML, like Gecko) Chrome/86.0.4240.111 Safari/537.36",155,"[0.9, 0.5, 0.1]","[0.8, 0.4, 0.2]","[u'blue', u'black', u'red']","[u'left', u'middle', u'right']","[0.8, 0.4, 0.2]","[u'high', u'low', u'medium']","blue",49,"left","high","True","False",27,6950,NA
"A36A780ODXBDEH","Fri Oct 30 2020 12:20:29 GMT-0700 (Pacific Daylight Time)","Fri Oct 30 2020 12:27:41 GMT-0700 (Pacific Daylight Time)","Mozilla/5.0 (Windows NT 6.3; Win64; x64) AppleWebKit/537.36 (KHTML, like Gecko) Chrome/86.0.4240.111 Safari/537.36",156,"[0.9, 0.5, 0.1]","[0.8, 0.4, 0.2]","[u'blue', u'black', u'red']","[u'left', u'middle', u'right']","[0.8, 0.4, 0.2]","[u'high', u'low', u'medium']","blue",49,"left","high","True","False",67,7050,NA
"A36A780ODXBDEH","Fri Oct 30 2020 12:20:29 GMT-0700 (Pacific Daylight Time)","Fri Oct 30 2020 12:27:41 GMT-0700 (Pacific Daylight Time)","Mozilla/5.0 (Windows NT 6.3; Win64; x64) AppleWebKit/537.36 (KHTML, like Gecko) Chrome/86.0.4240.111 Safari/537.36",157,"[0.9, 0.5, 0.1]","[0.8, 0.4, 0.2]","[u'blue', u'black', u'red']","[u'left', u'middle', u'right']","[0.8, 0.4, 0.2]","[u'high', u'low', u'medium']","blue",49,"left","high","True","False",67,7150,NA
"A36A780ODXBDEH","Fri Oct 30 2020 12:20:29 GMT-0700 (Pacific Daylight Time)","Fri Oct 30 2020 12:27:41 GMT-0700 (Pacific Daylight Time)","Mozilla/5.0 (Windows NT 6.3; Win64; x64) AppleWebKit/537.36 (KHTML, like Gecko) Chrome/86.0.4240.111 Safari/537.36",158,"[0.9, 0.5, 0.1]","[0.8, 0.4, 0.2]","[u'blue', u'black', u'red']","[u'left', u'middle', u'right']","[0.8, 0.4, 0.2]","[u'high', u'low', u'medium']","blue",49,"left","high","True","False",46,7250,NA
"A36A780ODXBDEH","Fri Oct 30 2020 12:20:29 GMT-0700 (Pacific Daylight Time)","Fri Oct 30 2020 12:27:41 GMT-0700 (Pacific Daylight Time)","Mozilla/5.0 (Windows NT 6.3; Win64; x64) AppleWebKit/537.36 (KHTML, like Gecko) Chrome/86.0.4240.111 Safari/537.36",159,"[0.9, 0.5, 0.1]","[0.8, 0.4, 0.2]","[u'blue', u'black', u'red']","[u'left', u'middle', u'right']","[0.8, 0.4, 0.2]","[u'high', u'low', u'medium']","blue",49,"left","high","True","True",70,7350,NA
"A36A780ODXBDEH","Fri Oct 30 2020 12:20:29 GMT-0700 (Pacific Daylight Time)","Fri Oct 30 2020 12:27:41 GMT-0700 (Pacific Daylight Time)","Mozilla/5.0 (Windows NT 6.3; Win64; x64) AppleWebKit/537.36 (KHTML, like Gecko) Chrome/86.0.4240.111 Safari/537.36",160,"[0.9, 0.5, 0.1]","[0.8, 0.4, 0.2]","[u'blue', u'black', u'red']","[u'left', u'middle', u'right']","[0.8, 0.4, 0.2]","[u'medium', u'high', u'low']","blue",49,"left","medium","True","False",11,7450,NA
