"src_subject_id","start_time","end_time","browser","index","first_half_probabilities","second_half_probabilities","deck_color","deck_position","deck_probabilities","deck_contingencies","response_color","key_press","response_position","response_probability","reward_type","trial_type","rt","reward_tally","exclusion_reason"
"A1YBJN6WT3X8B5","Sat Oct 31 2020 23:12:14 GMT-0400 (Eastern Daylight Time)","Sat Oct 31 2020 23:18:53 GMT-0400 (Eastern Daylight Time)","Mozilla/5.0 (X11; CrOS x86_64 13421.53.0) AppleWebKit/537.36 (KHTML, like Gecko) Chrome/86.0.4240.77 Safari/537.36",1,"[0.9, 0.5, 0.1]","[0.8, 0.4, 0.2]","[u'blue', u'red', u'black']","[u'left', u'middle', u'right']","[0.9, 0.5, 0.1]","[u'medium', u'low', u'high']","black",51,"right","high","True","False",1404,100,NA
"A1YBJN6WT3X8B5","Sat Oct 31 2020 23:12:14 GMT-0400 (Eastern Daylight Time)","Sat Oct 31 2020 23:18:53 GMT-0400 (Eastern Daylight Time)","Mozilla/5.0 (X11; CrOS x86_64 13421.53.0) AppleWebKit/537.36 (KHTML, like Gecko) Chrome/86.0.4240.77 Safari/537.36",2,"[0.9, 0.5, 0.1]","[0.8, 0.4, 0.2]","[u'blue', u'red', u'black']","[u'left', u'middle', u'right']","[0.9, 0.5, 0.1]","[u'medium', u'low', u'high']","black",51,"right","high","True","False",397,200,NA
"A1YBJN6WT3X8B5","Sat Oct 31 2020 23:12:14 GMT-0400 (Eastern Daylight Time)","Sat Oct 31 2020 23:18:53 GMT-0400 (Eastern Daylight Time)","Mozilla/5.0 (X11; CrOS x86_64 13421.53.0) AppleWebKit/537.36 (KHTML, like Gecko) Chrome/86.0.4240.77 Safari/537.36",3,"[0.9, 0.5, 0.1]","[0.8, 0.4, 0.2]","[u'blue', u'red', u'black']","[u'left', u'middle', u'right']","[0.9, 0.5, 0.1]","[u'medium', u'low', u'high']","black",51,"right","high","False","False",421,150,NA
"A1YBJN6WT3X8B5","Sat Oct 31 2020 23:12:14 GMT-0400 (Eastern Daylight Time)","Sat Oct 31 2020 23:18:53 GMT-0400 (Eastern Daylight Time)","Mozilla/5.0 (X11; CrOS x86_64 13421.53.0) AppleWebKit/537.36 (KHTML, like Gecko) Chrome/86.0.4240.77 Safari/537.36",4,"[0.9, 0.5, 0.1]","[0.8, 0.4, 0.2]","[u'blue', u'red', u'black']","[u'left', u'middle', u'right']","[0.9, 0.5, 0.1]","[u'medium', u'low', u'high']","blue",49,"left","medium","True","False",283,250,NA
"A1YBJN6WT3X8B5","Sat Oct 31 2020 23:12:14 GMT-0400 (Eastern Daylight Time)","Sat Oct 31 2020 23:18:53 GMT-0400 (Eastern Daylight Time)","Mozilla/5.0 (X11; CrOS x86_64 13421.53.0) AppleWebKit/537.36 (KHTML, like Gecko) Chrome/86.0.4240.77 Safari/537.36",5,"[0.9, 0.5, 0.1]","[0.8, 0.4, 0.2]","[u'blue', u'red', u'black']","[u'left', u'middle', u'right']","[0.9, 0.5, 0.1]","[u'medium', u'low', u'high']","blue",49,"left","medium","True","False",418,350,NA
"A1YBJN6WT3X8B5","Sat Oct 31 2020 23:12:14 GMT-0400 (Eastern Daylight Time)","Sat Oct 31 2020 23:18:53 GMT-0400 (Eastern Daylight Time)","Mozilla/5.0 (X11; CrOS x86_64 13421.53.0) AppleWebKit/537.36 (KHTML, like Gecko) Chrome/86.0.4240.77 Safari/537.36",6,"[0.9, 0.5, 0.1]","[0.8, 0.4, 0.2]","[u'blue', u'red', u'black']","[u'left', u'middle', u'right']","[0.9, 0.5, 0.1]","[u'medium', u'low', u'high']","red",50,"middle","low","False","False",489,300,NA
"A1YBJN6WT3X8B5","Sat Oct 31 2020 23:12:14 GMT-0400 (Eastern Daylight Time)","Sat Oct 31 2020 23:18:53 GMT-0400 (Eastern Daylight Time)","Mozilla/5.0 (X11; CrOS x86_64 13421.53.0) AppleWebKit/537.36 (KHTML, like Gecko) Chrome/86.0.4240.77 Safari/537.36",7,"[0.9, 0.5, 0.1]","[0.8, 0.4, 0.2]","[u'blue', u'red', u'black']","[u'left', u'middle', u'right']","[0.9, 0.5, 0.1]","[u'medium', u'low', u'high']","blue",49,"left","medium","False","False",347,250,NA
"A1YBJN6WT3X8B5","Sat Oct 31 2020 23:12:14 GMT-0400 (Eastern Daylight Time)","Sat Oct 31 2020 23:18:53 GMT-0400 (Eastern Daylight Time)","Mozilla/5.0 (X11; CrOS x86_64 13421.53.0) AppleWebKit/537.36 (KHTML, like Gecko) Chrome/86.0.4240.77 Safari/537.36",8,"[0.9, 0.5, 0.1]","[0.8, 0.4, 0.2]","[u'blue', u'red', u'black']","[u'left', u'middle', u'right']","[0.9, 0.5, 0.1]","[u'medium', u'low', u'high']","black",51,"right","high","True","False",222,350,NA
"A1YBJN6WT3X8B5","Sat Oct 31 2020 23:12:14 GMT-0400 (Eastern Daylight Time)","Sat Oct 31 2020 23:18:53 GMT-0400 (Eastern Daylight Time)","Mozilla/5.0 (X11; CrOS x86_64 13421.53.0) AppleWebKit/537.36 (KHTML, like Gecko) Chrome/86.0.4240.77 Safari/537.36",9,"[0.9, 0.5, 0.1]","[0.8, 0.4, 0.2]","[u'blue', u'red', u'black']","[u'left', u'middle', u'right']","[0.9, 0.5, 0.1]","[u'medium', u'low', u'high']","black",51,"right","high","True","False",375,450,NA
"A1YBJN6WT3X8B5","Sat Oct 31 2020 23:12:14 GMT-0400 (Eastern Daylight Time)","Sat Oct 31 2020 23:18:53 GMT-0400 (Eastern Daylight Time)","Mozilla/5.0 (X11; CrOS x86_64 13421.53.0) AppleWebKit/537.36 (KHTML, like Gecko) Chrome/86.0.4240.77 Safari/537.36",10,"[0.9, 0.5, 0.1]","[0.8, 0.4, 0.2]","[u'blue', u'red', u'black']","[u'left', u'middle', u'right']","[0.9, 0.5, 0.1]","[u'medium', u'low', u'high']","black",51,"right","high","True","False",445,550,NA
"A1YBJN6WT3X8B5","Sat Oct 31 2020 23:12:14 GMT-0400 (Eastern Daylight Time)","Sat Oct 31 2020 23:18:53 GMT-0400 (Eastern Daylight Time)","Mozilla/5.0 (X11; CrOS x86_64 13421.53.0) AppleWebKit/537.36 (KHTML, like Gecko) Chrome/86.0.4240.77 Safari/537.36",11,"[0.9, 0.5, 0.1]","[0.8, 0.4, 0.2]","[u'blue', u'red', u'black']","[u'left', u'middle', u'right']","[0.9, 0.5, 0.1]","[u'medium', u'low', u'high']","black",51,"right","high","True","False",437,650,NA
"A1YBJN6WT3X8B5","Sat Oct 31 2020 23:12:14 GMT-0400 (Eastern Daylight Time)","Sat Oct 31 2020 23:18:53 GMT-0400 (Eastern Daylight Time)","Mozilla/5.0 (X11; CrOS x86_64 13421.53.0) AppleWebKit/537.36 (KHTML, like Gecko) Chrome/86.0.4240.77 Safari/537.36",12,"[0.9, 0.5, 0.1]","[0.8, 0.4, 0.2]","[u'blue', u'red', u'black']","[u'left', u'middle', u'right']","[0.9, 0.5, 0.1]","[u'medium', u'low', u'high']","blue",49,"left","medium","True","False",323,750,NA
"A1YBJN6WT3X8B5","Sat Oct 31 2020 23:12:14 GMT-0400 (Eastern Daylight Time)","Sat Oct 31 2020 23:18:53 GMT-0400 (Eastern Daylight Time)","Mozilla/5.0 (X11; CrOS x86_64 13421.53.0) AppleWebKit/537.36 (KHTML, like Gecko) Chrome/86.0.4240.77 Safari/537.36",13,"[0.9, 0.5, 0.1]","[0.8, 0.4, 0.2]","[u'blue', u'red', u'black']","[u'left', u'middle', u'right']","[0.9, 0.5, 0.1]","[u'medium', u'low', u'high']","black",51,"right","high","True","False",417,850,NA
"A1YBJN6WT3X8B5","Sat Oct 31 2020 23:12:14 GMT-0400 (Eastern Daylight Time)","Sat Oct 31 2020 23:18:53 GMT-0400 (Eastern Daylight Time)","Mozilla/5.0 (X11; CrOS x86_64 13421.53.0) AppleWebKit/537.36 (KHTML, like Gecko) Chrome/86.0.4240.77 Safari/537.36",14,"[0.9, 0.5, 0.1]","[0.8, 0.4, 0.2]","[u'blue', u'red', u'black']","[u'left', u'middle', u'right']","[0.9, 0.5, 0.1]","[u'medium', u'low', u'high']","black",51,"right","high","False","False",357,800,NA
"A1YBJN6WT3X8B5","Sat Oct 31 2020 23:12:14 GMT-0400 (Eastern Daylight Time)","Sat Oct 31 2020 23:18:53 GMT-0400 (Eastern Daylight Time)","Mozilla/5.0 (X11; CrOS x86_64 13421.53.0) AppleWebKit/537.36 (KHTML, like Gecko) Chrome/86.0.4240.77 Safari/537.36",15,"[0.9, 0.5, 0.1]","[0.8, 0.4, 0.2]","[u'blue', u'red', u'black']","[u'left', u'middle', u'right']","[0.9, 0.5, 0.1]","[u'medium', u'low', u'high']","blue",49,"left","medium","False","False",327,750,NA
"A1YBJN6WT3X8B5","Sat Oct 31 2020 23:12:14 GMT-0400 (Eastern Daylight Time)","Sat Oct 31 2020 23:18:53 GMT-0400 (Eastern Daylight Time)","Mozilla/5.0 (X11; CrOS x86_64 13421.53.0) AppleWebKit/537.36 (KHTML, like Gecko) Chrome/86.0.4240.77 Safari/537.36",16,"[0.9, 0.5, 0.1]","[0.8, 0.4, 0.2]","[u'blue', u'red', u'black']","[u'left', u'middle', u'right']","[0.9, 0.5, 0.1]","[u'medium', u'low', u'high']","black",51,"right","high","False","False",344,700,NA
"A1YBJN6WT3X8B5","Sat Oct 31 2020 23:12:14 GMT-0400 (Eastern Daylight Time)","Sat Oct 31 2020 23:18:53 GMT-0400 (Eastern Daylight Time)","Mozilla/5.0 (X11; CrOS x86_64 13421.53.0) AppleWebKit/537.36 (KHTML, like Gecko) Chrome/86.0.4240.77 Safari/537.36",17,"[0.9, 0.5, 0.1]","[0.8, 0.4, 0.2]","[u'blue', u'red', u'black']","[u'left', u'middle', u'right']","[0.9, 0.5, 0.1]","[u'medium', u'low', u'high']","red",50,"middle","low","False","False",310,650,NA
"A1YBJN6WT3X8B5","Sat Oct 31 2020 23:12:14 GMT-0400 (Eastern Daylight Time)","Sat Oct 31 2020 23:18:53 GMT-0400 (Eastern Daylight Time)","Mozilla/5.0 (X11; CrOS x86_64 13421.53.0) AppleWebKit/537.36 (KHTML, like Gecko) Chrome/86.0.4240.77 Safari/537.36",18,"[0.9, 0.5, 0.1]","[0.8, 0.4, 0.2]","[u'blue', u'red', u'black']","[u'left', u'middle', u'right']","[0.9, 0.5, 0.1]","[u'medium', u'low', u'high']","blue",49,"left","medium","False","False",260,600,NA
"A1YBJN6WT3X8B5","Sat Oct 31 2020 23:12:14 GMT-0400 (Eastern Daylight Time)","Sat Oct 31 2020 23:18:53 GMT-0400 (Eastern Daylight Time)","Mozilla/5.0 (X11; CrOS x86_64 13421.53.0) AppleWebKit/537.36 (KHTML, like Gecko) Chrome/86.0.4240.77 Safari/537.36",19,"[0.9, 0.5, 0.1]","[0.8, 0.4, 0.2]","[u'blue', u'red', u'black']","[u'left', u'middle', u'right']","[0.9, 0.5, 0.1]","[u'medium', u'low', u'high']","black",51,"right","high","True","False",250,700,NA
"A1YBJN6WT3X8B5","Sat Oct 31 2020 23:12:14 GMT-0400 (Eastern Daylight Time)","Sat Oct 31 2020 23:18:53 GMT-0400 (Eastern Daylight Time)","Mozilla/5.0 (X11; CrOS x86_64 13421.53.0) AppleWebKit/537.36 (KHTML, like Gecko) Chrome/86.0.4240.77 Safari/537.36",20,"[0.9, 0.5, 0.1]","[0.8, 0.4, 0.2]","[u'blue', u'red', u'black']","[u'left', u'middle', u'right']","[0.9, 0.5, 0.1]","[u'medium', u'low', u'high']","black",51,"right","high","False","False",279,650,NA
"A1YBJN6WT3X8B5","Sat Oct 31 2020 23:12:14 GMT-0400 (Eastern Daylight Time)","Sat Oct 31 2020 23:18:53 GMT-0400 (Eastern Daylight Time)","Mozilla/5.0 (X11; CrOS x86_64 13421.53.0) AppleWebKit/537.36 (KHTML, like Gecko) Chrome/86.0.4240.77 Safari/537.36",21,"[0.9, 0.5, 0.1]","[0.8, 0.4, 0.2]","[u'blue', u'red', u'black']","[u'left', u'middle', u'right']","[0.9, 0.5, 0.1]","[u'medium', u'low', u'high']","black",51,"right","high","True","False",264,750,NA
"A1YBJN6WT3X8B5","Sat Oct 31 2020 23:12:14 GMT-0400 (Eastern Daylight Time)","Sat Oct 31 2020 23:18:53 GMT-0400 (Eastern Daylight Time)","Mozilla/5.0 (X11; CrOS x86_64 13421.53.0) AppleWebKit/537.36 (KHTML, like Gecko) Chrome/86.0.4240.77 Safari/537.36",22,"[0.9, 0.5, 0.1]","[0.8, 0.4, 0.2]","[u'blue', u'red', u'black']","[u'left', u'middle', u'right']","[0.9, 0.5, 0.1]","[u'medium', u'low', u'high']","black",51,"right","high","True","False",392,850,NA
"A1YBJN6WT3X8B5","Sat Oct 31 2020 23:12:14 GMT-0400 (Eastern Daylight Time)","Sat Oct 31 2020 23:18:53 GMT-0400 (Eastern Daylight Time)","Mozilla/5.0 (X11; CrOS x86_64 13421.53.0) AppleWebKit/537.36 (KHTML, like Gecko) Chrome/86.0.4240.77 Safari/537.36",23,"[0.9, 0.5, 0.1]","[0.8, 0.4, 0.2]","[u'blue', u'red', u'black']","[u'left', u'middle', u'right']","[0.9, 0.5, 0.1]","[u'medium', u'low', u'high']","black",51,"right","high","True","False",392,950,NA
"A1YBJN6WT3X8B5","Sat Oct 31 2020 23:12:14 GMT-0400 (Eastern Daylight Time)","Sat Oct 31 2020 23:18:53 GMT-0400 (Eastern Daylight Time)","Mozilla/5.0 (X11; CrOS x86_64 13421.53.0) AppleWebKit/537.36 (KHTML, like Gecko) Chrome/86.0.4240.77 Safari/537.36",24,"[0.9, 0.5, 0.1]","[0.8, 0.4, 0.2]","[u'blue', u'red', u'black']","[u'left', u'middle', u'right']","[0.9, 0.5, 0.1]","[u'medium', u'low', u'high']","black",51,"right","high","True","False",426,1050,NA
"A1YBJN6WT3X8B5","Sat Oct 31 2020 23:12:14 GMT-0400 (Eastern Daylight Time)","Sat Oct 31 2020 23:18:53 GMT-0400 (Eastern Daylight Time)","Mozilla/5.0 (X11; CrOS x86_64 13421.53.0) AppleWebKit/537.36 (KHTML, like Gecko) Chrome/86.0.4240.77 Safari/537.36",25,"[0.9, 0.5, 0.1]","[0.8, 0.4, 0.2]","[u'blue', u'red', u'black']","[u'left', u'middle', u'right']","[0.9, 0.5, 0.1]","[u'medium', u'low', u'high']","blue",49,"left","medium","False","False",294,1000,NA
"A1YBJN6WT3X8B5","Sat Oct 31 2020 23:12:14 GMT-0400 (Eastern Daylight Time)","Sat Oct 31 2020 23:18:53 GMT-0400 (Eastern Daylight Time)","Mozilla/5.0 (X11; CrOS x86_64 13421.53.0) AppleWebKit/537.36 (KHTML, like Gecko) Chrome/86.0.4240.77 Safari/537.36",26,"[0.9, 0.5, 0.1]","[0.8, 0.4, 0.2]","[u'blue', u'red', u'black']","[u'left', u'middle', u'right']","[0.9, 0.5, 0.1]","[u'medium', u'low', u'high']","black",51,"right","high","True","False",245,1100,NA
"A1YBJN6WT3X8B5","Sat Oct 31 2020 23:12:14 GMT-0400 (Eastern Daylight Time)","Sat Oct 31 2020 23:18:53 GMT-0400 (Eastern Daylight Time)","Mozilla/5.0 (X11; CrOS x86_64 13421.53.0) AppleWebKit/537.36 (KHTML, like Gecko) Chrome/86.0.4240.77 Safari/537.36",27,"[0.9, 0.5, 0.1]","[0.8, 0.4, 0.2]","[u'blue', u'red', u'black']","[u'left', u'middle', u'right']","[0.9, 0.5, 0.1]","[u'medium', u'low', u'high']","black",51,"right","high","True","False",288,1200,NA
"A1YBJN6WT3X8B5","Sat Oct 31 2020 23:12:14 GMT-0400 (Eastern Daylight Time)","Sat Oct 31 2020 23:18:53 GMT-0400 (Eastern Daylight Time)","Mozilla/5.0 (X11; CrOS x86_64 13421.53.0) AppleWebKit/537.36 (KHTML, like Gecko) Chrome/86.0.4240.77 Safari/537.36",28,"[0.9, 0.5, 0.1]","[0.8, 0.4, 0.2]","[u'blue', u'red', u'black']","[u'left', u'middle', u'right']","[0.9, 0.5, 0.1]","[u'medium', u'low', u'high']","black",51,"right","high","True","True",322,1300,NA
"A1YBJN6WT3X8B5","Sat Oct 31 2020 23:12:14 GMT-0400 (Eastern Daylight Time)","Sat Oct 31 2020 23:18:53 GMT-0400 (Eastern Daylight Time)","Mozilla/5.0 (X11; CrOS x86_64 13421.53.0) AppleWebKit/537.36 (KHTML, like Gecko) Chrome/86.0.4240.77 Safari/537.36",29,"[0.9, 0.5, 0.1]","[0.8, 0.4, 0.2]","[u'blue', u'red', u'black']","[u'left', u'middle', u'right']","[0.9, 0.5, 0.1]","[u'high', u'low', u'medium']","black",51,"right","medium","True","False",340,1400,NA
"A1YBJN6WT3X8B5","Sat Oct 31 2020 23:12:14 GMT-0400 (Eastern Daylight Time)","Sat Oct 31 2020 23:18:53 GMT-0400 (Eastern Daylight Time)","Mozilla/5.0 (X11; CrOS x86_64 13421.53.0) AppleWebKit/537.36 (KHTML, like Gecko) Chrome/86.0.4240.77 Safari/537.36",30,"[0.9, 0.5, 0.1]","[0.8, 0.4, 0.2]","[u'blue', u'red', u'black']","[u'left', u'middle', u'right']","[0.9, 0.5, 0.1]","[u'high', u'low', u'medium']","black",51,"right","medium","True","False",422,1500,NA
"A1YBJN6WT3X8B5","Sat Oct 31 2020 23:12:14 GMT-0400 (Eastern Daylight Time)","Sat Oct 31 2020 23:18:53 GMT-0400 (Eastern Daylight Time)","Mozilla/5.0 (X11; CrOS x86_64 13421.53.0) AppleWebKit/537.36 (KHTML, like Gecko) Chrome/86.0.4240.77 Safari/537.36",31,"[0.9, 0.5, 0.1]","[0.8, 0.4, 0.2]","[u'blue', u'red', u'black']","[u'left', u'middle', u'right']","[0.9, 0.5, 0.1]","[u'high', u'low', u'medium']","black",51,"right","medium","False","False",569,1450,NA
"A1YBJN6WT3X8B5","Sat Oct 31 2020 23:12:14 GMT-0400 (Eastern Daylight Time)","Sat Oct 31 2020 23:18:53 GMT-0400 (Eastern Daylight Time)","Mozilla/5.0 (X11; CrOS x86_64 13421.53.0) AppleWebKit/537.36 (KHTML, like Gecko) Chrome/86.0.4240.77 Safari/537.36",32,"[0.9, 0.5, 0.1]","[0.8, 0.4, 0.2]","[u'blue', u'red', u'black']","[u'left', u'middle', u'right']","[0.9, 0.5, 0.1]","[u'high', u'low', u'medium']","blue",49,"left","high","True","False",145,1550,NA
"A1YBJN6WT3X8B5","Sat Oct 31 2020 23:12:14 GMT-0400 (Eastern Daylight Time)","Sat Oct 31 2020 23:18:53 GMT-0400 (Eastern Daylight Time)","Mozilla/5.0 (X11; CrOS x86_64 13421.53.0) AppleWebKit/537.36 (KHTML, like Gecko) Chrome/86.0.4240.77 Safari/537.36",33,"[0.9, 0.5, 0.1]","[0.8, 0.4, 0.2]","[u'blue', u'red', u'black']","[u'left', u'middle', u'right']","[0.9, 0.5, 0.1]","[u'high', u'low', u'medium']","blue",49,"left","high","True","False",242,1650,NA
"A1YBJN6WT3X8B5","Sat Oct 31 2020 23:12:14 GMT-0400 (Eastern Daylight Time)","Sat Oct 31 2020 23:18:53 GMT-0400 (Eastern Daylight Time)","Mozilla/5.0 (X11; CrOS x86_64 13421.53.0) AppleWebKit/537.36 (KHTML, like Gecko) Chrome/86.0.4240.77 Safari/537.36",34,"[0.9, 0.5, 0.1]","[0.8, 0.4, 0.2]","[u'blue', u'red', u'black']","[u'left', u'middle', u'right']","[0.9, 0.5, 0.1]","[u'high', u'low', u'medium']","blue",49,"left","high","True","False",319,1750,NA
"A1YBJN6WT3X8B5","Sat Oct 31 2020 23:12:14 GMT-0400 (Eastern Daylight Time)","Sat Oct 31 2020 23:18:53 GMT-0400 (Eastern Daylight Time)","Mozilla/5.0 (X11; CrOS x86_64 13421.53.0) AppleWebKit/537.36 (KHTML, like Gecko) Chrome/86.0.4240.77 Safari/537.36",35,"[0.9, 0.5, 0.1]","[0.8, 0.4, 0.2]","[u'blue', u'red', u'black']","[u'left', u'middle', u'right']","[0.9, 0.5, 0.1]","[u'high', u'low', u'medium']","blue",49,"left","high","False","False",312,1700,NA
"A1YBJN6WT3X8B5","Sat Oct 31 2020 23:12:14 GMT-0400 (Eastern Daylight Time)","Sat Oct 31 2020 23:18:53 GMT-0400 (Eastern Daylight Time)","Mozilla/5.0 (X11; CrOS x86_64 13421.53.0) AppleWebKit/537.36 (KHTML, like Gecko) Chrome/86.0.4240.77 Safari/537.36",36,"[0.9, 0.5, 0.1]","[0.8, 0.4, 0.2]","[u'blue', u'red', u'black']","[u'left', u'middle', u'right']","[0.9, 0.5, 0.1]","[u'high', u'low', u'medium']","blue",49,"left","high","False","False",118,1650,NA
"A1YBJN6WT3X8B5","Sat Oct 31 2020 23:12:14 GMT-0400 (Eastern Daylight Time)","Sat Oct 31 2020 23:18:53 GMT-0400 (Eastern Daylight Time)","Mozilla/5.0 (X11; CrOS x86_64 13421.53.0) AppleWebKit/537.36 (KHTML, like Gecko) Chrome/86.0.4240.77 Safari/537.36",37,"[0.9, 0.5, 0.1]","[0.8, 0.4, 0.2]","[u'blue', u'red', u'black']","[u'left', u'middle', u'right']","[0.9, 0.5, 0.1]","[u'high', u'low', u'medium']","black",51,"right","medium","True","False",16,1750,NA
"A1YBJN6WT3X8B5","Sat Oct 31 2020 23:12:14 GMT-0400 (Eastern Daylight Time)","Sat Oct 31 2020 23:18:53 GMT-0400 (Eastern Daylight Time)","Mozilla/5.0 (X11; CrOS x86_64 13421.53.0) AppleWebKit/537.36 (KHTML, like Gecko) Chrome/86.0.4240.77 Safari/537.36",38,"[0.9, 0.5, 0.1]","[0.8, 0.4, 0.2]","[u'blue', u'red', u'black']","[u'left', u'middle', u'right']","[0.9, 0.5, 0.1]","[u'high', u'low', u'medium']","black",51,"right","medium","False","False",252,1700,NA
"A1YBJN6WT3X8B5","Sat Oct 31 2020 23:12:14 GMT-0400 (Eastern Daylight Time)","Sat Oct 31 2020 23:18:53 GMT-0400 (Eastern Daylight Time)","Mozilla/5.0 (X11; CrOS x86_64 13421.53.0) AppleWebKit/537.36 (KHTML, like Gecko) Chrome/86.0.4240.77 Safari/537.36",39,"[0.9, 0.5, 0.1]","[0.8, 0.4, 0.2]","[u'blue', u'red', u'black']","[u'left', u'middle', u'right']","[0.9, 0.5, 0.1]","[u'high', u'low', u'medium']","red",50,"middle","low","True","False",330,1800,NA
"A1YBJN6WT3X8B5","Sat Oct 31 2020 23:12:14 GMT-0400 (Eastern Daylight Time)","Sat Oct 31 2020 23:18:53 GMT-0400 (Eastern Daylight Time)","Mozilla/5.0 (X11; CrOS x86_64 13421.53.0) AppleWebKit/537.36 (KHTML, like Gecko) Chrome/86.0.4240.77 Safari/537.36",40,"[0.9, 0.5, 0.1]","[0.8, 0.4, 0.2]","[u'blue', u'red', u'black']","[u'left', u'middle', u'right']","[0.9, 0.5, 0.1]","[u'high', u'low', u'medium']","red",50,"middle","low","False","False",111,1750,NA
"A1YBJN6WT3X8B5","Sat Oct 31 2020 23:12:14 GMT-0400 (Eastern Daylight Time)","Sat Oct 31 2020 23:18:53 GMT-0400 (Eastern Daylight Time)","Mozilla/5.0 (X11; CrOS x86_64 13421.53.0) AppleWebKit/537.36 (KHTML, like Gecko) Chrome/86.0.4240.77 Safari/537.36",41,"[0.9, 0.5, 0.1]","[0.8, 0.4, 0.2]","[u'blue', u'red', u'black']","[u'left', u'middle', u'right']","[0.9, 0.5, 0.1]","[u'medium', u'low', u'high']","blue",49,"left","medium","False","False",2007,1700,NA
"A1YBJN6WT3X8B5","Sat Oct 31 2020 23:12:14 GMT-0400 (Eastern Daylight Time)","Sat Oct 31 2020 23:18:53 GMT-0400 (Eastern Daylight Time)","Mozilla/5.0 (X11; CrOS x86_64 13421.53.0) AppleWebKit/537.36 (KHTML, like Gecko) Chrome/86.0.4240.77 Safari/537.36",42,"[0.9, 0.5, 0.1]","[0.8, 0.4, 0.2]","[u'blue', u'red', u'black']","[u'left', u'middle', u'right']","[0.9, 0.5, 0.1]","[u'medium', u'low', u'high']","red",50,"middle","low","False","False",232,1650,NA
"A1YBJN6WT3X8B5","Sat Oct 31 2020 23:12:14 GMT-0400 (Eastern Daylight Time)","Sat Oct 31 2020 23:18:53 GMT-0400 (Eastern Daylight Time)","Mozilla/5.0 (X11; CrOS x86_64 13421.53.0) AppleWebKit/537.36 (KHTML, like Gecko) Chrome/86.0.4240.77 Safari/537.36",43,"[0.9, 0.5, 0.1]","[0.8, 0.4, 0.2]","[u'blue', u'red', u'black']","[u'left', u'middle', u'right']","[0.9, 0.5, 0.1]","[u'medium', u'low', u'high']","blue",49,"left","medium","True","False",31,1750,NA
"A1YBJN6WT3X8B5","Sat Oct 31 2020 23:12:14 GMT-0400 (Eastern Daylight Time)","Sat Oct 31 2020 23:18:53 GMT-0400 (Eastern Daylight Time)","Mozilla/5.0 (X11; CrOS x86_64 13421.53.0) AppleWebKit/537.36 (KHTML, like Gecko) Chrome/86.0.4240.77 Safari/537.36",44,"[0.9, 0.5, 0.1]","[0.8, 0.4, 0.2]","[u'blue', u'red', u'black']","[u'left', u'middle', u'right']","[0.9, 0.5, 0.1]","[u'medium', u'low', u'high']","blue",49,"left","medium","False","False",183,1700,NA
"A1YBJN6WT3X8B5","Sat Oct 31 2020 23:12:14 GMT-0400 (Eastern Daylight Time)","Sat Oct 31 2020 23:18:53 GMT-0400 (Eastern Daylight Time)","Mozilla/5.0 (X11; CrOS x86_64 13421.53.0) AppleWebKit/537.36 (KHTML, like Gecko) Chrome/86.0.4240.77 Safari/537.36",45,"[0.9, 0.5, 0.1]","[0.8, 0.4, 0.2]","[u'blue', u'red', u'black']","[u'left', u'middle', u'right']","[0.9, 0.5, 0.1]","[u'medium', u'low', u'high']","black",51,"right","high","True","False",62,1800,NA
"A1YBJN6WT3X8B5","Sat Oct 31 2020 23:12:14 GMT-0400 (Eastern Daylight Time)","Sat Oct 31 2020 23:18:53 GMT-0400 (Eastern Daylight Time)","Mozilla/5.0 (X11; CrOS x86_64 13421.53.0) AppleWebKit/537.36 (KHTML, like Gecko) Chrome/86.0.4240.77 Safari/537.36",46,"[0.9, 0.5, 0.1]","[0.8, 0.4, 0.2]","[u'blue', u'red', u'black']","[u'left', u'middle', u'right']","[0.9, 0.5, 0.1]","[u'medium', u'low', u'high']","black",51,"right","high","True","False",174,1900,NA
"A1YBJN6WT3X8B5","Sat Oct 31 2020 23:12:14 GMT-0400 (Eastern Daylight Time)","Sat Oct 31 2020 23:18:53 GMT-0400 (Eastern Daylight Time)","Mozilla/5.0 (X11; CrOS x86_64 13421.53.0) AppleWebKit/537.36 (KHTML, like Gecko) Chrome/86.0.4240.77 Safari/537.36",47,"[0.9, 0.5, 0.1]","[0.8, 0.4, 0.2]","[u'blue', u'red', u'black']","[u'left', u'middle', u'right']","[0.9, 0.5, 0.1]","[u'medium', u'low', u'high']","black",51,"right","high","True","False",191,2000,NA
"A1YBJN6WT3X8B5","Sat Oct 31 2020 23:12:14 GMT-0400 (Eastern Daylight Time)","Sat Oct 31 2020 23:18:53 GMT-0400 (Eastern Daylight Time)","Mozilla/5.0 (X11; CrOS x86_64 13421.53.0) AppleWebKit/537.36 (KHTML, like Gecko) Chrome/86.0.4240.77 Safari/537.36",48,"[0.9, 0.5, 0.1]","[0.8, 0.4, 0.2]","[u'blue', u'red', u'black']","[u'left', u'middle', u'right']","[0.9, 0.5, 0.1]","[u'medium', u'low', u'high']","black",51,"right","high","True","False",261,2100,NA
"A1YBJN6WT3X8B5","Sat Oct 31 2020 23:12:14 GMT-0400 (Eastern Daylight Time)","Sat Oct 31 2020 23:18:53 GMT-0400 (Eastern Daylight Time)","Mozilla/5.0 (X11; CrOS x86_64 13421.53.0) AppleWebKit/537.36 (KHTML, like Gecko) Chrome/86.0.4240.77 Safari/537.36",49,"[0.9, 0.5, 0.1]","[0.8, 0.4, 0.2]","[u'blue', u'red', u'black']","[u'left', u'middle', u'right']","[0.9, 0.5, 0.1]","[u'medium', u'low', u'high']","black",51,"right","high","True","False",287,2200,NA
"A1YBJN6WT3X8B5","Sat Oct 31 2020 23:12:14 GMT-0400 (Eastern Daylight Time)","Sat Oct 31 2020 23:18:53 GMT-0400 (Eastern Daylight Time)","Mozilla/5.0 (X11; CrOS x86_64 13421.53.0) AppleWebKit/537.36 (KHTML, like Gecko) Chrome/86.0.4240.77 Safari/537.36",50,"[0.9, 0.5, 0.1]","[0.8, 0.4, 0.2]","[u'blue', u'red', u'black']","[u'left', u'middle', u'right']","[0.9, 0.5, 0.1]","[u'medium', u'low', u'high']","black",51,"right","high","False","False",388,2150,NA
"A1YBJN6WT3X8B5","Sat Oct 31 2020 23:12:14 GMT-0400 (Eastern Daylight Time)","Sat Oct 31 2020 23:18:53 GMT-0400 (Eastern Daylight Time)","Mozilla/5.0 (X11; CrOS x86_64 13421.53.0) AppleWebKit/537.36 (KHTML, like Gecko) Chrome/86.0.4240.77 Safari/537.36",51,"[0.9, 0.5, 0.1]","[0.8, 0.4, 0.2]","[u'blue', u'red', u'black']","[u'left', u'middle', u'right']","[0.9, 0.5, 0.1]","[u'medium', u'low', u'high']","blue",49,"left","medium","True","False",81,2250,NA
"A1YBJN6WT3X8B5","Sat Oct 31 2020 23:12:14 GMT-0400 (Eastern Daylight Time)","Sat Oct 31 2020 23:18:53 GMT-0400 (Eastern Daylight Time)","Mozilla/5.0 (X11; CrOS x86_64 13421.53.0) AppleWebKit/537.36 (KHTML, like Gecko) Chrome/86.0.4240.77 Safari/537.36",52,"[0.9, 0.5, 0.1]","[0.8, 0.4, 0.2]","[u'blue', u'red', u'black']","[u'left', u'middle', u'right']","[0.9, 0.5, 0.1]","[u'medium', u'low', u'high']","blue",49,"left","medium","True","False",111,2350,NA
"A1YBJN6WT3X8B5","Sat Oct 31 2020 23:12:14 GMT-0400 (Eastern Daylight Time)","Sat Oct 31 2020 23:18:53 GMT-0400 (Eastern Daylight Time)","Mozilla/5.0 (X11; CrOS x86_64 13421.53.0) AppleWebKit/537.36 (KHTML, like Gecko) Chrome/86.0.4240.77 Safari/537.36",53,"[0.9, 0.5, 0.1]","[0.8, 0.4, 0.2]","[u'blue', u'red', u'black']","[u'left', u'middle', u'right']","[0.9, 0.5, 0.1]","[u'medium', u'low', u'high']","black",51,"right","high","True","False",263,2450,NA
"A1YBJN6WT3X8B5","Sat Oct 31 2020 23:12:14 GMT-0400 (Eastern Daylight Time)","Sat Oct 31 2020 23:18:53 GMT-0400 (Eastern Daylight Time)","Mozilla/5.0 (X11; CrOS x86_64 13421.53.0) AppleWebKit/537.36 (KHTML, like Gecko) Chrome/86.0.4240.77 Safari/537.36",54,"[0.9, 0.5, 0.1]","[0.8, 0.4, 0.2]","[u'blue', u'red', u'black']","[u'left', u'middle', u'right']","[0.9, 0.5, 0.1]","[u'medium', u'low', u'high']","black",51,"right","high","True","False",228,2550,NA
"A1YBJN6WT3X8B5","Sat Oct 31 2020 23:12:14 GMT-0400 (Eastern Daylight Time)","Sat Oct 31 2020 23:18:53 GMT-0400 (Eastern Daylight Time)","Mozilla/5.0 (X11; CrOS x86_64 13421.53.0) AppleWebKit/537.36 (KHTML, like Gecko) Chrome/86.0.4240.77 Safari/537.36",55,"[0.9, 0.5, 0.1]","[0.8, 0.4, 0.2]","[u'blue', u'red', u'black']","[u'left', u'middle', u'right']","[0.9, 0.5, 0.1]","[u'medium', u'low', u'high']","black",51,"right","high","True","False",305,2650,NA
"A1YBJN6WT3X8B5","Sat Oct 31 2020 23:12:14 GMT-0400 (Eastern Daylight Time)","Sat Oct 31 2020 23:18:53 GMT-0400 (Eastern Daylight Time)","Mozilla/5.0 (X11; CrOS x86_64 13421.53.0) AppleWebKit/537.36 (KHTML, like Gecko) Chrome/86.0.4240.77 Safari/537.36",56,"[0.9, 0.5, 0.1]","[0.8, 0.4, 0.2]","[u'blue', u'red', u'black']","[u'left', u'middle', u'right']","[0.9, 0.5, 0.1]","[u'medium', u'low', u'high']","black",51,"right","high","True","False",266,2750,NA
"A1YBJN6WT3X8B5","Sat Oct 31 2020 23:12:14 GMT-0400 (Eastern Daylight Time)","Sat Oct 31 2020 23:18:53 GMT-0400 (Eastern Daylight Time)","Mozilla/5.0 (X11; CrOS x86_64 13421.53.0) AppleWebKit/537.36 (KHTML, like Gecko) Chrome/86.0.4240.77 Safari/537.36",57,"[0.9, 0.5, 0.1]","[0.8, 0.4, 0.2]","[u'blue', u'red', u'black']","[u'left', u'middle', u'right']","[0.9, 0.5, 0.1]","[u'medium', u'low', u'high']","black",51,"right","high","True","False",269,2850,NA
"A1YBJN6WT3X8B5","Sat Oct 31 2020 23:12:14 GMT-0400 (Eastern Daylight Time)","Sat Oct 31 2020 23:18:53 GMT-0400 (Eastern Daylight Time)","Mozilla/5.0 (X11; CrOS x86_64 13421.53.0) AppleWebKit/537.36 (KHTML, like Gecko) Chrome/86.0.4240.77 Safari/537.36",58,"[0.9, 0.5, 0.1]","[0.8, 0.4, 0.2]","[u'blue', u'red', u'black']","[u'left', u'middle', u'right']","[0.9, 0.5, 0.1]","[u'medium', u'low', u'high']","black",51,"right","high","True","False",318,2950,NA
"A1YBJN6WT3X8B5","Sat Oct 31 2020 23:12:14 GMT-0400 (Eastern Daylight Time)","Sat Oct 31 2020 23:18:53 GMT-0400 (Eastern Daylight Time)","Mozilla/5.0 (X11; CrOS x86_64 13421.53.0) AppleWebKit/537.36 (KHTML, like Gecko) Chrome/86.0.4240.77 Safari/537.36",59,"[0.9, 0.5, 0.1]","[0.8, 0.4, 0.2]","[u'blue', u'red', u'black']","[u'left', u'middle', u'right']","[0.9, 0.5, 0.1]","[u'medium', u'low', u'high']","black",51,"right","high","False","False",298,2900,NA
"A1YBJN6WT3X8B5","Sat Oct 31 2020 23:12:14 GMT-0400 (Eastern Daylight Time)","Sat Oct 31 2020 23:18:53 GMT-0400 (Eastern Daylight Time)","Mozilla/5.0 (X11; CrOS x86_64 13421.53.0) AppleWebKit/537.36 (KHTML, like Gecko) Chrome/86.0.4240.77 Safari/537.36",60,"[0.9, 0.5, 0.1]","[0.8, 0.4, 0.2]","[u'blue', u'red', u'black']","[u'left', u'middle', u'right']","[0.9, 0.5, 0.1]","[u'medium', u'low', u'high']","blue",49,"left","medium","True","False",427,3000,NA
"A1YBJN6WT3X8B5","Sat Oct 31 2020 23:12:14 GMT-0400 (Eastern Daylight Time)","Sat Oct 31 2020 23:18:53 GMT-0400 (Eastern Daylight Time)","Mozilla/5.0 (X11; CrOS x86_64 13421.53.0) AppleWebKit/537.36 (KHTML, like Gecko) Chrome/86.0.4240.77 Safari/537.36",61,"[0.9, 0.5, 0.1]","[0.8, 0.4, 0.2]","[u'blue', u'red', u'black']","[u'left', u'middle', u'right']","[0.9, 0.5, 0.1]","[u'medium', u'low', u'high']","blue",49,"left","medium","False","False",289,2950,NA
"A1YBJN6WT3X8B5","Sat Oct 31 2020 23:12:14 GMT-0400 (Eastern Daylight Time)","Sat Oct 31 2020 23:18:53 GMT-0400 (Eastern Daylight Time)","Mozilla/5.0 (X11; CrOS x86_64 13421.53.0) AppleWebKit/537.36 (KHTML, like Gecko) Chrome/86.0.4240.77 Safari/537.36",62,"[0.9, 0.5, 0.1]","[0.8, 0.4, 0.2]","[u'blue', u'red', u'black']","[u'left', u'middle', u'right']","[0.9, 0.5, 0.1]","[u'medium', u'low', u'high']","red",50,"middle","low","True","False",254,3050,NA
"A1YBJN6WT3X8B5","Sat Oct 31 2020 23:12:14 GMT-0400 (Eastern Daylight Time)","Sat Oct 31 2020 23:18:53 GMT-0400 (Eastern Daylight Time)","Mozilla/5.0 (X11; CrOS x86_64 13421.53.0) AppleWebKit/537.36 (KHTML, like Gecko) Chrome/86.0.4240.77 Safari/537.36",63,"[0.9, 0.5, 0.1]","[0.8, 0.4, 0.2]","[u'blue', u'red', u'black']","[u'left', u'middle', u'right']","[0.9, 0.5, 0.1]","[u'medium', u'low', u'high']","red",50,"middle","low","False","False",186,3000,NA
"A1YBJN6WT3X8B5","Sat Oct 31 2020 23:12:14 GMT-0400 (Eastern Daylight Time)","Sat Oct 31 2020 23:18:53 GMT-0400 (Eastern Daylight Time)","Mozilla/5.0 (X11; CrOS x86_64 13421.53.0) AppleWebKit/537.36 (KHTML, like Gecko) Chrome/86.0.4240.77 Safari/537.36",64,"[0.9, 0.5, 0.1]","[0.8, 0.4, 0.2]","[u'blue', u'red', u'black']","[u'left', u'middle', u'right']","[0.9, 0.5, 0.1]","[u'medium', u'low', u'high']","black",51,"right","high","True","False",284,3100,NA
"A1YBJN6WT3X8B5","Sat Oct 31 2020 23:12:14 GMT-0400 (Eastern Daylight Time)","Sat Oct 31 2020 23:18:53 GMT-0400 (Eastern Daylight Time)","Mozilla/5.0 (X11; CrOS x86_64 13421.53.0) AppleWebKit/537.36 (KHTML, like Gecko) Chrome/86.0.4240.77 Safari/537.36",65,"[0.9, 0.5, 0.1]","[0.8, 0.4, 0.2]","[u'blue', u'red', u'black']","[u'left', u'middle', u'right']","[0.9, 0.5, 0.1]","[u'medium', u'low', u'high']","black",51,"right","high","True","False",246,3200,NA
"A1YBJN6WT3X8B5","Sat Oct 31 2020 23:12:14 GMT-0400 (Eastern Daylight Time)","Sat Oct 31 2020 23:18:53 GMT-0400 (Eastern Daylight Time)","Mozilla/5.0 (X11; CrOS x86_64 13421.53.0) AppleWebKit/537.36 (KHTML, like Gecko) Chrome/86.0.4240.77 Safari/537.36",66,"[0.9, 0.5, 0.1]","[0.8, 0.4, 0.2]","[u'blue', u'red', u'black']","[u'left', u'middle', u'right']","[0.9, 0.5, 0.1]","[u'medium', u'low', u'high']","black",51,"right","high","True","False",264,3300,NA
"A1YBJN6WT3X8B5","Sat Oct 31 2020 23:12:14 GMT-0400 (Eastern Daylight Time)","Sat Oct 31 2020 23:18:53 GMT-0400 (Eastern Daylight Time)","Mozilla/5.0 (X11; CrOS x86_64 13421.53.0) AppleWebKit/537.36 (KHTML, like Gecko) Chrome/86.0.4240.77 Safari/537.36",67,"[0.9, 0.5, 0.1]","[0.8, 0.4, 0.2]","[u'blue', u'red', u'black']","[u'left', u'middle', u'right']","[0.9, 0.5, 0.1]","[u'medium', u'low', u'high']","black",51,"right","high","True","False",391,3400,NA
"A1YBJN6WT3X8B5","Sat Oct 31 2020 23:12:14 GMT-0400 (Eastern Daylight Time)","Sat Oct 31 2020 23:18:53 GMT-0400 (Eastern Daylight Time)","Mozilla/5.0 (X11; CrOS x86_64 13421.53.0) AppleWebKit/537.36 (KHTML, like Gecko) Chrome/86.0.4240.77 Safari/537.36",68,"[0.9, 0.5, 0.1]","[0.8, 0.4, 0.2]","[u'blue', u'red', u'black']","[u'left', u'middle', u'right']","[0.9, 0.5, 0.1]","[u'medium', u'low', u'high']","black",51,"right","high","True","False",364,3500,NA
"A1YBJN6WT3X8B5","Sat Oct 31 2020 23:12:14 GMT-0400 (Eastern Daylight Time)","Sat Oct 31 2020 23:18:53 GMT-0400 (Eastern Daylight Time)","Mozilla/5.0 (X11; CrOS x86_64 13421.53.0) AppleWebKit/537.36 (KHTML, like Gecko) Chrome/86.0.4240.77 Safari/537.36",69,"[0.9, 0.5, 0.1]","[0.8, 0.4, 0.2]","[u'blue', u'red', u'black']","[u'left', u'middle', u'right']","[0.9, 0.5, 0.1]","[u'medium', u'low', u'high']","black",51,"right","high","True","False",310,3600,NA
"A1YBJN6WT3X8B5","Sat Oct 31 2020 23:12:14 GMT-0400 (Eastern Daylight Time)","Sat Oct 31 2020 23:18:53 GMT-0400 (Eastern Daylight Time)","Mozilla/5.0 (X11; CrOS x86_64 13421.53.0) AppleWebKit/537.36 (KHTML, like Gecko) Chrome/86.0.4240.77 Safari/537.36",70,"[0.9, 0.5, 0.1]","[0.8, 0.4, 0.2]","[u'blue', u'red', u'black']","[u'left', u'middle', u'right']","[0.9, 0.5, 0.1]","[u'medium', u'low', u'high']","black",51,"right","high","True","False",636,3700,NA
"A1YBJN6WT3X8B5","Sat Oct 31 2020 23:12:14 GMT-0400 (Eastern Daylight Time)","Sat Oct 31 2020 23:18:53 GMT-0400 (Eastern Daylight Time)","Mozilla/5.0 (X11; CrOS x86_64 13421.53.0) AppleWebKit/537.36 (KHTML, like Gecko) Chrome/86.0.4240.77 Safari/537.36",71,"[0.9, 0.5, 0.1]","[0.8, 0.4, 0.2]","[u'blue', u'red', u'black']","[u'left', u'middle', u'right']","[0.9, 0.5, 0.1]","[u'medium', u'low', u'high']","black",51,"right","high","True","False",331,3800,NA
"A1YBJN6WT3X8B5","Sat Oct 31 2020 23:12:14 GMT-0400 (Eastern Daylight Time)","Sat Oct 31 2020 23:18:53 GMT-0400 (Eastern Daylight Time)","Mozilla/5.0 (X11; CrOS x86_64 13421.53.0) AppleWebKit/537.36 (KHTML, like Gecko) Chrome/86.0.4240.77 Safari/537.36",72,"[0.9, 0.5, 0.1]","[0.8, 0.4, 0.2]","[u'blue', u'red', u'black']","[u'left', u'middle', u'right']","[0.9, 0.5, 0.1]","[u'medium', u'low', u'high']","black",51,"right","high","True","True",277,3900,NA
"A1YBJN6WT3X8B5","Sat Oct 31 2020 23:12:14 GMT-0400 (Eastern Daylight Time)","Sat Oct 31 2020 23:18:53 GMT-0400 (Eastern Daylight Time)","Mozilla/5.0 (X11; CrOS x86_64 13421.53.0) AppleWebKit/537.36 (KHTML, like Gecko) Chrome/86.0.4240.77 Safari/537.36",73,"[0.9, 0.5, 0.1]","[0.8, 0.4, 0.2]","[u'blue', u'red', u'black']","[u'left', u'middle', u'right']","[0.9, 0.5, 0.1]","[u'low', u'high', u'medium']","black",51,"right","medium","True","False",278,4000,NA
"A1YBJN6WT3X8B5","Sat Oct 31 2020 23:12:14 GMT-0400 (Eastern Daylight Time)","Sat Oct 31 2020 23:18:53 GMT-0400 (Eastern Daylight Time)","Mozilla/5.0 (X11; CrOS x86_64 13421.53.0) AppleWebKit/537.36 (KHTML, like Gecko) Chrome/86.0.4240.77 Safari/537.36",74,"[0.9, 0.5, 0.1]","[0.8, 0.4, 0.2]","[u'blue', u'red', u'black']","[u'left', u'middle', u'right']","[0.9, 0.5, 0.1]","[u'low', u'high', u'medium']","black",51,"right","medium","False","False",345,3950,NA
"A1YBJN6WT3X8B5","Sat Oct 31 2020 23:12:14 GMT-0400 (Eastern Daylight Time)","Sat Oct 31 2020 23:18:53 GMT-0400 (Eastern Daylight Time)","Mozilla/5.0 (X11; CrOS x86_64 13421.53.0) AppleWebKit/537.36 (KHTML, like Gecko) Chrome/86.0.4240.77 Safari/537.36",75,"[0.9, 0.5, 0.1]","[0.8, 0.4, 0.2]","[u'blue', u'red', u'black']","[u'left', u'middle', u'right']","[0.9, 0.5, 0.1]","[u'low', u'high', u'medium']","blue",49,"left","low","False","False",227,3900,NA
"A1YBJN6WT3X8B5","Sat Oct 31 2020 23:12:14 GMT-0400 (Eastern Daylight Time)","Sat Oct 31 2020 23:18:53 GMT-0400 (Eastern Daylight Time)","Mozilla/5.0 (X11; CrOS x86_64 13421.53.0) AppleWebKit/537.36 (KHTML, like Gecko) Chrome/86.0.4240.77 Safari/537.36",76,"[0.9, 0.5, 0.1]","[0.8, 0.4, 0.2]","[u'blue', u'red', u'black']","[u'left', u'middle', u'right']","[0.9, 0.5, 0.1]","[u'low', u'high', u'medium']","red",50,"middle","high","True","False",194,4000,NA
"A1YBJN6WT3X8B5","Sat Oct 31 2020 23:12:14 GMT-0400 (Eastern Daylight Time)","Sat Oct 31 2020 23:18:53 GMT-0400 (Eastern Daylight Time)","Mozilla/5.0 (X11; CrOS x86_64 13421.53.0) AppleWebKit/537.36 (KHTML, like Gecko) Chrome/86.0.4240.77 Safari/537.36",77,"[0.9, 0.5, 0.1]","[0.8, 0.4, 0.2]","[u'blue', u'red', u'black']","[u'left', u'middle', u'right']","[0.9, 0.5, 0.1]","[u'low', u'high', u'medium']","red",50,"middle","high","True","False",251,4100,NA
"A1YBJN6WT3X8B5","Sat Oct 31 2020 23:12:14 GMT-0400 (Eastern Daylight Time)","Sat Oct 31 2020 23:18:53 GMT-0400 (Eastern Daylight Time)","Mozilla/5.0 (X11; CrOS x86_64 13421.53.0) AppleWebKit/537.36 (KHTML, like Gecko) Chrome/86.0.4240.77 Safari/537.36",78,"[0.9, 0.5, 0.1]","[0.8, 0.4, 0.2]","[u'blue', u'red', u'black']","[u'left', u'middle', u'right']","[0.9, 0.5, 0.1]","[u'low', u'high', u'medium']","red",50,"middle","high","True","False",330,4200,NA
"A1YBJN6WT3X8B5","Sat Oct 31 2020 23:12:14 GMT-0400 (Eastern Daylight Time)","Sat Oct 31 2020 23:18:53 GMT-0400 (Eastern Daylight Time)","Mozilla/5.0 (X11; CrOS x86_64 13421.53.0) AppleWebKit/537.36 (KHTML, like Gecko) Chrome/86.0.4240.77 Safari/537.36",79,"[0.9, 0.5, 0.1]","[0.8, 0.4, 0.2]","[u'blue', u'red', u'black']","[u'left', u'middle', u'right']","[0.9, 0.5, 0.1]","[u'low', u'high', u'medium']","red",50,"middle","high","True","False",313,4300,NA
"A1YBJN6WT3X8B5","Sat Oct 31 2020 23:12:14 GMT-0400 (Eastern Daylight Time)","Sat Oct 31 2020 23:18:53 GMT-0400 (Eastern Daylight Time)","Mozilla/5.0 (X11; CrOS x86_64 13421.53.0) AppleWebKit/537.36 (KHTML, like Gecko) Chrome/86.0.4240.77 Safari/537.36",80,"[0.9, 0.5, 0.1]","[0.8, 0.4, 0.2]","[u'blue', u'red', u'black']","[u'left', u'middle', u'right']","[0.9, 0.5, 0.1]","[u'low', u'high', u'medium']","red",50,"middle","high","True","False",283,4400,NA
"A1YBJN6WT3X8B5","Sat Oct 31 2020 23:12:14 GMT-0400 (Eastern Daylight Time)","Sat Oct 31 2020 23:18:53 GMT-0400 (Eastern Daylight Time)","Mozilla/5.0 (X11; CrOS x86_64 13421.53.0) AppleWebKit/537.36 (KHTML, like Gecko) Chrome/86.0.4240.77 Safari/537.36",81,"[0.9, 0.5, 0.1]","[0.8, 0.4, 0.2]","[u'blue', u'red', u'black']","[u'left', u'middle', u'right']","[0.8, 0.4, 0.2]","[u'high', u'medium', u'low']","blue",49,"left","high","False","False",754,4350,NA
"A1YBJN6WT3X8B5","Sat Oct 31 2020 23:12:14 GMT-0400 (Eastern Daylight Time)","Sat Oct 31 2020 23:18:53 GMT-0400 (Eastern Daylight Time)","Mozilla/5.0 (X11; CrOS x86_64 13421.53.0) AppleWebKit/537.36 (KHTML, like Gecko) Chrome/86.0.4240.77 Safari/537.36",82,"[0.9, 0.5, 0.1]","[0.8, 0.4, 0.2]","[u'blue', u'red', u'black']","[u'left', u'middle', u'right']","[0.8, 0.4, 0.2]","[u'high', u'medium', u'low']","red",50,"middle","medium","False","False",173,4300,NA
"A1YBJN6WT3X8B5","Sat Oct 31 2020 23:12:14 GMT-0400 (Eastern Daylight Time)","Sat Oct 31 2020 23:18:53 GMT-0400 (Eastern Daylight Time)","Mozilla/5.0 (X11; CrOS x86_64 13421.53.0) AppleWebKit/537.36 (KHTML, like Gecko) Chrome/86.0.4240.77 Safari/537.36",83,"[0.9, 0.5, 0.1]","[0.8, 0.4, 0.2]","[u'blue', u'red', u'black']","[u'left', u'middle', u'right']","[0.8, 0.4, 0.2]","[u'high', u'medium', u'low']","black",51,"right","low","False","False",741,4250,NA
"A1YBJN6WT3X8B5","Sat Oct 31 2020 23:12:14 GMT-0400 (Eastern Daylight Time)","Sat Oct 31 2020 23:18:53 GMT-0400 (Eastern Daylight Time)","Mozilla/5.0 (X11; CrOS x86_64 13421.53.0) AppleWebKit/537.36 (KHTML, like Gecko) Chrome/86.0.4240.77 Safari/537.36",84,"[0.9, 0.5, 0.1]","[0.8, 0.4, 0.2]","[u'blue', u'red', u'black']","[u'left', u'middle', u'right']","[0.8, 0.4, 0.2]","[u'high', u'medium', u'low']","red",50,"middle","medium","True","False",453,4350,NA
"A1YBJN6WT3X8B5","Sat Oct 31 2020 23:12:14 GMT-0400 (Eastern Daylight Time)","Sat Oct 31 2020 23:18:53 GMT-0400 (Eastern Daylight Time)","Mozilla/5.0 (X11; CrOS x86_64 13421.53.0) AppleWebKit/537.36 (KHTML, like Gecko) Chrome/86.0.4240.77 Safari/537.36",85,"[0.9, 0.5, 0.1]","[0.8, 0.4, 0.2]","[u'blue', u'red', u'black']","[u'left', u'middle', u'right']","[0.8, 0.4, 0.2]","[u'high', u'medium', u'low']","red",50,"middle","medium","True","False",254,4450,NA
"A1YBJN6WT3X8B5","Sat Oct 31 2020 23:12:14 GMT-0400 (Eastern Daylight Time)","Sat Oct 31 2020 23:18:53 GMT-0400 (Eastern Daylight Time)","Mozilla/5.0 (X11; CrOS x86_64 13421.53.0) AppleWebKit/537.36 (KHTML, like Gecko) Chrome/86.0.4240.77 Safari/537.36",86,"[0.9, 0.5, 0.1]","[0.8, 0.4, 0.2]","[u'blue', u'red', u'black']","[u'left', u'middle', u'right']","[0.8, 0.4, 0.2]","[u'high', u'medium', u'low']","red",50,"middle","medium","False","False",257,4400,NA
"A1YBJN6WT3X8B5","Sat Oct 31 2020 23:12:14 GMT-0400 (Eastern Daylight Time)","Sat Oct 31 2020 23:18:53 GMT-0400 (Eastern Daylight Time)","Mozilla/5.0 (X11; CrOS x86_64 13421.53.0) AppleWebKit/537.36 (KHTML, like Gecko) Chrome/86.0.4240.77 Safari/537.36",87,"[0.9, 0.5, 0.1]","[0.8, 0.4, 0.2]","[u'blue', u'red', u'black']","[u'left', u'middle', u'right']","[0.8, 0.4, 0.2]","[u'high', u'medium', u'low']","black",51,"right","low","False","False",92,4350,NA
"A1YBJN6WT3X8B5","Sat Oct 31 2020 23:12:14 GMT-0400 (Eastern Daylight Time)","Sat Oct 31 2020 23:18:53 GMT-0400 (Eastern Daylight Time)","Mozilla/5.0 (X11; CrOS x86_64 13421.53.0) AppleWebKit/537.36 (KHTML, like Gecko) Chrome/86.0.4240.77 Safari/537.36",88,"[0.9, 0.5, 0.1]","[0.8, 0.4, 0.2]","[u'blue', u'red', u'black']","[u'left', u'middle', u'right']","[0.8, 0.4, 0.2]","[u'high', u'medium', u'low']","red",50,"middle","medium","False","False",69,4300,NA
"A1YBJN6WT3X8B5","Sat Oct 31 2020 23:12:14 GMT-0400 (Eastern Daylight Time)","Sat Oct 31 2020 23:18:53 GMT-0400 (Eastern Daylight Time)","Mozilla/5.0 (X11; CrOS x86_64 13421.53.0) AppleWebKit/537.36 (KHTML, like Gecko) Chrome/86.0.4240.77 Safari/537.36",89,"[0.9, 0.5, 0.1]","[0.8, 0.4, 0.2]","[u'blue', u'red', u'black']","[u'left', u'middle', u'right']","[0.8, 0.4, 0.2]","[u'high', u'medium', u'low']","blue",49,"left","high","True","False",101,4400,NA
"A1YBJN6WT3X8B5","Sat Oct 31 2020 23:12:14 GMT-0400 (Eastern Daylight Time)","Sat Oct 31 2020 23:18:53 GMT-0400 (Eastern Daylight Time)","Mozilla/5.0 (X11; CrOS x86_64 13421.53.0) AppleWebKit/537.36 (KHTML, like Gecko) Chrome/86.0.4240.77 Safari/537.36",90,"[0.9, 0.5, 0.1]","[0.8, 0.4, 0.2]","[u'blue', u'red', u'black']","[u'left', u'middle', u'right']","[0.8, 0.4, 0.2]","[u'high', u'medium', u'low']","blue",49,"left","high","True","False",35,4500,NA
"A1YBJN6WT3X8B5","Sat Oct 31 2020 23:12:14 GMT-0400 (Eastern Daylight Time)","Sat Oct 31 2020 23:18:53 GMT-0400 (Eastern Daylight Time)","Mozilla/5.0 (X11; CrOS x86_64 13421.53.0) AppleWebKit/537.36 (KHTML, like Gecko) Chrome/86.0.4240.77 Safari/537.36",91,"[0.9, 0.5, 0.1]","[0.8, 0.4, 0.2]","[u'blue', u'red', u'black']","[u'left', u'middle', u'right']","[0.8, 0.4, 0.2]","[u'high', u'medium', u'low']","blue",49,"left","high","False","False",301,4450,NA
"A1YBJN6WT3X8B5","Sat Oct 31 2020 23:12:14 GMT-0400 (Eastern Daylight Time)","Sat Oct 31 2020 23:18:53 GMT-0400 (Eastern Daylight Time)","Mozilla/5.0 (X11; CrOS x86_64 13421.53.0) AppleWebKit/537.36 (KHTML, like Gecko) Chrome/86.0.4240.77 Safari/537.36",92,"[0.9, 0.5, 0.1]","[0.8, 0.4, 0.2]","[u'blue', u'red', u'black']","[u'left', u'middle', u'right']","[0.8, 0.4, 0.2]","[u'high', u'medium', u'low']","red",50,"middle","medium","False","False",88,4400,NA
"A1YBJN6WT3X8B5","Sat Oct 31 2020 23:12:14 GMT-0400 (Eastern Daylight Time)","Sat Oct 31 2020 23:18:53 GMT-0400 (Eastern Daylight Time)","Mozilla/5.0 (X11; CrOS x86_64 13421.53.0) AppleWebKit/537.36 (KHTML, like Gecko) Chrome/86.0.4240.77 Safari/537.36",93,"[0.9, 0.5, 0.1]","[0.8, 0.4, 0.2]","[u'blue', u'red', u'black']","[u'left', u'middle', u'right']","[0.8, 0.4, 0.2]","[u'high', u'medium', u'low']","blue",49,"left","high","True","False",132,4500,NA
"A1YBJN6WT3X8B5","Sat Oct 31 2020 23:12:14 GMT-0400 (Eastern Daylight Time)","Sat Oct 31 2020 23:18:53 GMT-0400 (Eastern Daylight Time)","Mozilla/5.0 (X11; CrOS x86_64 13421.53.0) AppleWebKit/537.36 (KHTML, like Gecko) Chrome/86.0.4240.77 Safari/537.36",94,"[0.9, 0.5, 0.1]","[0.8, 0.4, 0.2]","[u'blue', u'red', u'black']","[u'left', u'middle', u'right']","[0.8, 0.4, 0.2]","[u'high', u'medium', u'low']","blue",49,"left","high","True","False",237,4600,NA
"A1YBJN6WT3X8B5","Sat Oct 31 2020 23:12:14 GMT-0400 (Eastern Daylight Time)","Sat Oct 31 2020 23:18:53 GMT-0400 (Eastern Daylight Time)","Mozilla/5.0 (X11; CrOS x86_64 13421.53.0) AppleWebKit/537.36 (KHTML, like Gecko) Chrome/86.0.4240.77 Safari/537.36",95,"[0.9, 0.5, 0.1]","[0.8, 0.4, 0.2]","[u'blue', u'red', u'black']","[u'left', u'middle', u'right']","[0.8, 0.4, 0.2]","[u'high', u'medium', u'low']","blue",49,"left","high","True","False",269,4700,NA
"A1YBJN6WT3X8B5","Sat Oct 31 2020 23:12:14 GMT-0400 (Eastern Daylight Time)","Sat Oct 31 2020 23:18:53 GMT-0400 (Eastern Daylight Time)","Mozilla/5.0 (X11; CrOS x86_64 13421.53.0) AppleWebKit/537.36 (KHTML, like Gecko) Chrome/86.0.4240.77 Safari/537.36",96,"[0.9, 0.5, 0.1]","[0.8, 0.4, 0.2]","[u'blue', u'red', u'black']","[u'left', u'middle', u'right']","[0.8, 0.4, 0.2]","[u'high', u'medium', u'low']","blue",49,"left","high","True","False",254,4800,NA
"A1YBJN6WT3X8B5","Sat Oct 31 2020 23:12:14 GMT-0400 (Eastern Daylight Time)","Sat Oct 31 2020 23:18:53 GMT-0400 (Eastern Daylight Time)","Mozilla/5.0 (X11; CrOS x86_64 13421.53.0) AppleWebKit/537.36 (KHTML, like Gecko) Chrome/86.0.4240.77 Safari/537.36",97,"[0.9, 0.5, 0.1]","[0.8, 0.4, 0.2]","[u'blue', u'red', u'black']","[u'left', u'middle', u'right']","[0.8, 0.4, 0.2]","[u'high', u'medium', u'low']","blue",49,"left","high","True","False",293,4900,NA
"A1YBJN6WT3X8B5","Sat Oct 31 2020 23:12:14 GMT-0400 (Eastern Daylight Time)","Sat Oct 31 2020 23:18:53 GMT-0400 (Eastern Daylight Time)","Mozilla/5.0 (X11; CrOS x86_64 13421.53.0) AppleWebKit/537.36 (KHTML, like Gecko) Chrome/86.0.4240.77 Safari/537.36",98,"[0.9, 0.5, 0.1]","[0.8, 0.4, 0.2]","[u'blue', u'red', u'black']","[u'left', u'middle', u'right']","[0.8, 0.4, 0.2]","[u'high', u'medium', u'low']","blue",49,"left","high","True","True",233,5000,NA
"A1YBJN6WT3X8B5","Sat Oct 31 2020 23:12:14 GMT-0400 (Eastern Daylight Time)","Sat Oct 31 2020 23:18:53 GMT-0400 (Eastern Daylight Time)","Mozilla/5.0 (X11; CrOS x86_64 13421.53.0) AppleWebKit/537.36 (KHTML, like Gecko) Chrome/86.0.4240.77 Safari/537.36",99,"[0.9, 0.5, 0.1]","[0.8, 0.4, 0.2]","[u'blue', u'red', u'black']","[u'left', u'middle', u'right']","[0.8, 0.4, 0.2]","[u'medium', u'high', u'low']","blue",49,"left","medium","False","False",258,4950,NA
"A1YBJN6WT3X8B5","Sat Oct 31 2020 23:12:14 GMT-0400 (Eastern Daylight Time)","Sat Oct 31 2020 23:18:53 GMT-0400 (Eastern Daylight Time)","Mozilla/5.0 (X11; CrOS x86_64 13421.53.0) AppleWebKit/537.36 (KHTML, like Gecko) Chrome/86.0.4240.77 Safari/537.36",100,"[0.9, 0.5, 0.1]","[0.8, 0.4, 0.2]","[u'blue', u'red', u'black']","[u'left', u'middle', u'right']","[0.8, 0.4, 0.2]","[u'medium', u'high', u'low']","red",50,"middle","high","True","False",146,5050,NA
"A1YBJN6WT3X8B5","Sat Oct 31 2020 23:12:14 GMT-0400 (Eastern Daylight Time)","Sat Oct 31 2020 23:18:53 GMT-0400 (Eastern Daylight Time)","Mozilla/5.0 (X11; CrOS x86_64 13421.53.0) AppleWebKit/537.36 (KHTML, like Gecko) Chrome/86.0.4240.77 Safari/537.36",101,"[0.9, 0.5, 0.1]","[0.8, 0.4, 0.2]","[u'blue', u'red', u'black']","[u'left', u'middle', u'right']","[0.8, 0.4, 0.2]","[u'medium', u'high', u'low']","red",50,"middle","high","True","False",372,5150,NA
"A1YBJN6WT3X8B5","Sat Oct 31 2020 23:12:14 GMT-0400 (Eastern Daylight Time)","Sat Oct 31 2020 23:18:53 GMT-0400 (Eastern Daylight Time)","Mozilla/5.0 (X11; CrOS x86_64 13421.53.0) AppleWebKit/537.36 (KHTML, like Gecko) Chrome/86.0.4240.77 Safari/537.36",102,"[0.9, 0.5, 0.1]","[0.8, 0.4, 0.2]","[u'blue', u'red', u'black']","[u'left', u'middle', u'right']","[0.8, 0.4, 0.2]","[u'medium', u'high', u'low']","red",50,"middle","high","False","False",248,5100,NA
"A1YBJN6WT3X8B5","Sat Oct 31 2020 23:12:14 GMT-0400 (Eastern Daylight Time)","Sat Oct 31 2020 23:18:53 GMT-0400 (Eastern Daylight Time)","Mozilla/5.0 (X11; CrOS x86_64 13421.53.0) AppleWebKit/537.36 (KHTML, like Gecko) Chrome/86.0.4240.77 Safari/537.36",103,"[0.9, 0.5, 0.1]","[0.8, 0.4, 0.2]","[u'blue', u'red', u'black']","[u'left', u'middle', u'right']","[0.8, 0.4, 0.2]","[u'medium', u'high', u'low']","blue",49,"left","medium","True","False",118,5200,NA
"A1YBJN6WT3X8B5","Sat Oct 31 2020 23:12:14 GMT-0400 (Eastern Daylight Time)","Sat Oct 31 2020 23:18:53 GMT-0400 (Eastern Daylight Time)","Mozilla/5.0 (X11; CrOS x86_64 13421.53.0) AppleWebKit/537.36 (KHTML, like Gecko) Chrome/86.0.4240.77 Safari/537.36",104,"[0.9, 0.5, 0.1]","[0.8, 0.4, 0.2]","[u'blue', u'red', u'black']","[u'left', u'middle', u'right']","[0.8, 0.4, 0.2]","[u'medium', u'high', u'low']","blue",49,"left","medium","True","False",224,5300,NA
"A1YBJN6WT3X8B5","Sat Oct 31 2020 23:12:14 GMT-0400 (Eastern Daylight Time)","Sat Oct 31 2020 23:18:53 GMT-0400 (Eastern Daylight Time)","Mozilla/5.0 (X11; CrOS x86_64 13421.53.0) AppleWebKit/537.36 (KHTML, like Gecko) Chrome/86.0.4240.77 Safari/537.36",105,"[0.9, 0.5, 0.1]","[0.8, 0.4, 0.2]","[u'blue', u'red', u'black']","[u'left', u'middle', u'right']","[0.8, 0.4, 0.2]","[u'medium', u'high', u'low']","blue",49,"left","medium","False","False",238,5250,NA
"A1YBJN6WT3X8B5","Sat Oct 31 2020 23:12:14 GMT-0400 (Eastern Daylight Time)","Sat Oct 31 2020 23:18:53 GMT-0400 (Eastern Daylight Time)","Mozilla/5.0 (X11; CrOS x86_64 13421.53.0) AppleWebKit/537.36 (KHTML, like Gecko) Chrome/86.0.4240.77 Safari/537.36",106,"[0.9, 0.5, 0.1]","[0.8, 0.4, 0.2]","[u'blue', u'red', u'black']","[u'left', u'middle', u'right']","[0.8, 0.4, 0.2]","[u'medium', u'high', u'low']","red",50,"middle","high","True","False",229,5350,NA
"A1YBJN6WT3X8B5","Sat Oct 31 2020 23:12:14 GMT-0400 (Eastern Daylight Time)","Sat Oct 31 2020 23:18:53 GMT-0400 (Eastern Daylight Time)","Mozilla/5.0 (X11; CrOS x86_64 13421.53.0) AppleWebKit/537.36 (KHTML, like Gecko) Chrome/86.0.4240.77 Safari/537.36",107,"[0.9, 0.5, 0.1]","[0.8, 0.4, 0.2]","[u'blue', u'red', u'black']","[u'left', u'middle', u'right']","[0.8, 0.4, 0.2]","[u'medium', u'high', u'low']","red",50,"middle","high","True","False",242,5450,NA
"A1YBJN6WT3X8B5","Sat Oct 31 2020 23:12:14 GMT-0400 (Eastern Daylight Time)","Sat Oct 31 2020 23:18:53 GMT-0400 (Eastern Daylight Time)","Mozilla/5.0 (X11; CrOS x86_64 13421.53.0) AppleWebKit/537.36 (KHTML, like Gecko) Chrome/86.0.4240.77 Safari/537.36",108,"[0.9, 0.5, 0.1]","[0.8, 0.4, 0.2]","[u'blue', u'red', u'black']","[u'left', u'middle', u'right']","[0.8, 0.4, 0.2]","[u'medium', u'high', u'low']","red",50,"middle","high","True","False",621,5550,NA
"A1YBJN6WT3X8B5","Sat Oct 31 2020 23:12:14 GMT-0400 (Eastern Daylight Time)","Sat Oct 31 2020 23:18:53 GMT-0400 (Eastern Daylight Time)","Mozilla/5.0 (X11; CrOS x86_64 13421.53.0) AppleWebKit/537.36 (KHTML, like Gecko) Chrome/86.0.4240.77 Safari/537.36",109,"[0.9, 0.5, 0.1]","[0.8, 0.4, 0.2]","[u'blue', u'red', u'black']","[u'left', u'middle', u'right']","[0.8, 0.4, 0.2]","[u'medium', u'high', u'low']","red",50,"middle","high","False","False",284,5500,NA
"A1YBJN6WT3X8B5","Sat Oct 31 2020 23:12:14 GMT-0400 (Eastern Daylight Time)","Sat Oct 31 2020 23:18:53 GMT-0400 (Eastern Daylight Time)","Mozilla/5.0 (X11; CrOS x86_64 13421.53.0) AppleWebKit/537.36 (KHTML, like Gecko) Chrome/86.0.4240.77 Safari/537.36",110,"[0.9, 0.5, 0.1]","[0.8, 0.4, 0.2]","[u'blue', u'red', u'black']","[u'left', u'middle', u'right']","[0.8, 0.4, 0.2]","[u'medium', u'high', u'low']","blue",49,"left","medium","False","False",129,5450,NA
"A1YBJN6WT3X8B5","Sat Oct 31 2020 23:12:14 GMT-0400 (Eastern Daylight Time)","Sat Oct 31 2020 23:18:53 GMT-0400 (Eastern Daylight Time)","Mozilla/5.0 (X11; CrOS x86_64 13421.53.0) AppleWebKit/537.36 (KHTML, like Gecko) Chrome/86.0.4240.77 Safari/537.36",111,"[0.9, 0.5, 0.1]","[0.8, 0.4, 0.2]","[u'blue', u'red', u'black']","[u'left', u'middle', u'right']","[0.8, 0.4, 0.2]","[u'medium', u'high', u'low']","red",50,"middle","high","True","False",106,5550,NA
"A1YBJN6WT3X8B5","Sat Oct 31 2020 23:12:14 GMT-0400 (Eastern Daylight Time)","Sat Oct 31 2020 23:18:53 GMT-0400 (Eastern Daylight Time)","Mozilla/5.0 (X11; CrOS x86_64 13421.53.0) AppleWebKit/537.36 (KHTML, like Gecko) Chrome/86.0.4240.77 Safari/537.36",112,"[0.9, 0.5, 0.1]","[0.8, 0.4, 0.2]","[u'blue', u'red', u'black']","[u'left', u'middle', u'right']","[0.8, 0.4, 0.2]","[u'medium', u'high', u'low']","red",50,"middle","high","True","False",195,5650,NA
"A1YBJN6WT3X8B5","Sat Oct 31 2020 23:12:14 GMT-0400 (Eastern Daylight Time)","Sat Oct 31 2020 23:18:53 GMT-0400 (Eastern Daylight Time)","Mozilla/5.0 (X11; CrOS x86_64 13421.53.0) AppleWebKit/537.36 (KHTML, like Gecko) Chrome/86.0.4240.77 Safari/537.36",113,"[0.9, 0.5, 0.1]","[0.8, 0.4, 0.2]","[u'blue', u'red', u'black']","[u'left', u'middle', u'right']","[0.8, 0.4, 0.2]","[u'medium', u'high', u'low']","red",50,"middle","high","True","False",433,5750,NA
"A1YBJN6WT3X8B5","Sat Oct 31 2020 23:12:14 GMT-0400 (Eastern Daylight Time)","Sat Oct 31 2020 23:18:53 GMT-0400 (Eastern Daylight Time)","Mozilla/5.0 (X11; CrOS x86_64 13421.53.0) AppleWebKit/537.36 (KHTML, like Gecko) Chrome/86.0.4240.77 Safari/537.36",114,"[0.9, 0.5, 0.1]","[0.8, 0.4, 0.2]","[u'blue', u'red', u'black']","[u'left', u'middle', u'right']","[0.8, 0.4, 0.2]","[u'medium', u'high', u'low']","red",50,"middle","high","False","False",256,5700,NA
"A1YBJN6WT3X8B5","Sat Oct 31 2020 23:12:14 GMT-0400 (Eastern Daylight Time)","Sat Oct 31 2020 23:18:53 GMT-0400 (Eastern Daylight Time)","Mozilla/5.0 (X11; CrOS x86_64 13421.53.0) AppleWebKit/537.36 (KHTML, like Gecko) Chrome/86.0.4240.77 Safari/537.36",115,"[0.9, 0.5, 0.1]","[0.8, 0.4, 0.2]","[u'blue', u'red', u'black']","[u'left', u'middle', u'right']","[0.8, 0.4, 0.2]","[u'medium', u'high', u'low']","blue",49,"left","medium","False","False",208,5650,NA
"A1YBJN6WT3X8B5","Sat Oct 31 2020 23:12:14 GMT-0400 (Eastern Daylight Time)","Sat Oct 31 2020 23:18:53 GMT-0400 (Eastern Daylight Time)","Mozilla/5.0 (X11; CrOS x86_64 13421.53.0) AppleWebKit/537.36 (KHTML, like Gecko) Chrome/86.0.4240.77 Safari/537.36",116,"[0.9, 0.5, 0.1]","[0.8, 0.4, 0.2]","[u'blue', u'red', u'black']","[u'left', u'middle', u'right']","[0.8, 0.4, 0.2]","[u'medium', u'high', u'low']","red",50,"middle","high","True","False",76,5750,NA
"A1YBJN6WT3X8B5","Sat Oct 31 2020 23:12:14 GMT-0400 (Eastern Daylight Time)","Sat Oct 31 2020 23:18:53 GMT-0400 (Eastern Daylight Time)","Mozilla/5.0 (X11; CrOS x86_64 13421.53.0) AppleWebKit/537.36 (KHTML, like Gecko) Chrome/86.0.4240.77 Safari/537.36",117,"[0.9, 0.5, 0.1]","[0.8, 0.4, 0.2]","[u'blue', u'red', u'black']","[u'left', u'middle', u'right']","[0.8, 0.4, 0.2]","[u'medium', u'high', u'low']","red",50,"middle","high","True","False",196,5850,NA
"A1YBJN6WT3X8B5","Sat Oct 31 2020 23:12:14 GMT-0400 (Eastern Daylight Time)","Sat Oct 31 2020 23:18:53 GMT-0400 (Eastern Daylight Time)","Mozilla/5.0 (X11; CrOS x86_64 13421.53.0) AppleWebKit/537.36 (KHTML, like Gecko) Chrome/86.0.4240.77 Safari/537.36",118,"[0.9, 0.5, 0.1]","[0.8, 0.4, 0.2]","[u'blue', u'red', u'black']","[u'left', u'middle', u'right']","[0.8, 0.4, 0.2]","[u'medium', u'high', u'low']","red",50,"middle","high","True","False",191,5950,NA
"A1YBJN6WT3X8B5","Sat Oct 31 2020 23:12:14 GMT-0400 (Eastern Daylight Time)","Sat Oct 31 2020 23:18:53 GMT-0400 (Eastern Daylight Time)","Mozilla/5.0 (X11; CrOS x86_64 13421.53.0) AppleWebKit/537.36 (KHTML, like Gecko) Chrome/86.0.4240.77 Safari/537.36",119,"[0.9, 0.5, 0.1]","[0.8, 0.4, 0.2]","[u'blue', u'red', u'black']","[u'left', u'middle', u'right']","[0.8, 0.4, 0.2]","[u'medium', u'high', u'low']","red",50,"middle","high","True","False",227,6050,NA
"A1YBJN6WT3X8B5","Sat Oct 31 2020 23:12:14 GMT-0400 (Eastern Daylight Time)","Sat Oct 31 2020 23:18:53 GMT-0400 (Eastern Daylight Time)","Mozilla/5.0 (X11; CrOS x86_64 13421.53.0) AppleWebKit/537.36 (KHTML, like Gecko) Chrome/86.0.4240.77 Safari/537.36",120,"[0.9, 0.5, 0.1]","[0.8, 0.4, 0.2]","[u'blue', u'red', u'black']","[u'left', u'middle', u'right']","[0.8, 0.4, 0.2]","[u'medium', u'high', u'low']","red",50,"middle","high","True","False",392,6150,NA
"A1YBJN6WT3X8B5","Sat Oct 31 2020 23:12:14 GMT-0400 (Eastern Daylight Time)","Sat Oct 31 2020 23:18:53 GMT-0400 (Eastern Daylight Time)","Mozilla/5.0 (X11; CrOS x86_64 13421.53.0) AppleWebKit/537.36 (KHTML, like Gecko) Chrome/86.0.4240.77 Safari/537.36",121,"[0.9, 0.5, 0.1]","[0.8, 0.4, 0.2]","[u'blue', u'red', u'black']","[u'left', u'middle', u'right']","[0.8, 0.4, 0.2]","[u'high', u'medium', u'low']","blue",49,"left","high","True","False",686,6250,NA
"A1YBJN6WT3X8B5","Sat Oct 31 2020 23:12:14 GMT-0400 (Eastern Daylight Time)","Sat Oct 31 2020 23:18:53 GMT-0400 (Eastern Daylight Time)","Mozilla/5.0 (X11; CrOS x86_64 13421.53.0) AppleWebKit/537.36 (KHTML, like Gecko) Chrome/86.0.4240.77 Safari/537.36",122,"[0.9, 0.5, 0.1]","[0.8, 0.4, 0.2]","[u'blue', u'red', u'black']","[u'left', u'middle', u'right']","[0.8, 0.4, 0.2]","[u'high', u'medium', u'low']","blue",49,"left","high","True","False",208,6350,NA
"A1YBJN6WT3X8B5","Sat Oct 31 2020 23:12:14 GMT-0400 (Eastern Daylight Time)","Sat Oct 31 2020 23:18:53 GMT-0400 (Eastern Daylight Time)","Mozilla/5.0 (X11; CrOS x86_64 13421.53.0) AppleWebKit/537.36 (KHTML, like Gecko) Chrome/86.0.4240.77 Safari/537.36",123,"[0.9, 0.5, 0.1]","[0.8, 0.4, 0.2]","[u'blue', u'red', u'black']","[u'left', u'middle', u'right']","[0.8, 0.4, 0.2]","[u'high', u'medium', u'low']","blue",49,"left","high","True","False",238,6450,NA
"A1YBJN6WT3X8B5","Sat Oct 31 2020 23:12:14 GMT-0400 (Eastern Daylight Time)","Sat Oct 31 2020 23:18:53 GMT-0400 (Eastern Daylight Time)","Mozilla/5.0 (X11; CrOS x86_64 13421.53.0) AppleWebKit/537.36 (KHTML, like Gecko) Chrome/86.0.4240.77 Safari/537.36",124,"[0.9, 0.5, 0.1]","[0.8, 0.4, 0.2]","[u'blue', u'red', u'black']","[u'left', u'middle', u'right']","[0.8, 0.4, 0.2]","[u'high', u'medium', u'low']","blue",49,"left","high","True","False",194,6550,NA
"A1YBJN6WT3X8B5","Sat Oct 31 2020 23:12:14 GMT-0400 (Eastern Daylight Time)","Sat Oct 31 2020 23:18:53 GMT-0400 (Eastern Daylight Time)","Mozilla/5.0 (X11; CrOS x86_64 13421.53.0) AppleWebKit/537.36 (KHTML, like Gecko) Chrome/86.0.4240.77 Safari/537.36",125,"[0.9, 0.5, 0.1]","[0.8, 0.4, 0.2]","[u'blue', u'red', u'black']","[u'left', u'middle', u'right']","[0.8, 0.4, 0.2]","[u'high', u'medium', u'low']","blue",49,"left","high","True","False",199,6650,NA
"A1YBJN6WT3X8B5","Sat Oct 31 2020 23:12:14 GMT-0400 (Eastern Daylight Time)","Sat Oct 31 2020 23:18:53 GMT-0400 (Eastern Daylight Time)","Mozilla/5.0 (X11; CrOS x86_64 13421.53.0) AppleWebKit/537.36 (KHTML, like Gecko) Chrome/86.0.4240.77 Safari/537.36",126,"[0.9, 0.5, 0.1]","[0.8, 0.4, 0.2]","[u'blue', u'red', u'black']","[u'left', u'middle', u'right']","[0.8, 0.4, 0.2]","[u'high', u'medium', u'low']","blue",49,"left","high","True","False",258,6750,NA
"A1YBJN6WT3X8B5","Sat Oct 31 2020 23:12:14 GMT-0400 (Eastern Daylight Time)","Sat Oct 31 2020 23:18:53 GMT-0400 (Eastern Daylight Time)","Mozilla/5.0 (X11; CrOS x86_64 13421.53.0) AppleWebKit/537.36 (KHTML, like Gecko) Chrome/86.0.4240.77 Safari/537.36",127,"[0.9, 0.5, 0.1]","[0.8, 0.4, 0.2]","[u'blue', u'red', u'black']","[u'left', u'middle', u'right']","[0.8, 0.4, 0.2]","[u'high', u'medium', u'low']","blue",49,"left","high","True","False",162,6850,NA
"A1YBJN6WT3X8B5","Sat Oct 31 2020 23:12:14 GMT-0400 (Eastern Daylight Time)","Sat Oct 31 2020 23:18:53 GMT-0400 (Eastern Daylight Time)","Mozilla/5.0 (X11; CrOS x86_64 13421.53.0) AppleWebKit/537.36 (KHTML, like Gecko) Chrome/86.0.4240.77 Safari/537.36",128,"[0.9, 0.5, 0.1]","[0.8, 0.4, 0.2]","[u'blue', u'red', u'black']","[u'left', u'middle', u'right']","[0.8, 0.4, 0.2]","[u'high', u'medium', u'low']","blue",49,"left","high","True","False",231,6950,NA
"A1YBJN6WT3X8B5","Sat Oct 31 2020 23:12:14 GMT-0400 (Eastern Daylight Time)","Sat Oct 31 2020 23:18:53 GMT-0400 (Eastern Daylight Time)","Mozilla/5.0 (X11; CrOS x86_64 13421.53.0) AppleWebKit/537.36 (KHTML, like Gecko) Chrome/86.0.4240.77 Safari/537.36",129,"[0.9, 0.5, 0.1]","[0.8, 0.4, 0.2]","[u'blue', u'red', u'black']","[u'left', u'middle', u'right']","[0.8, 0.4, 0.2]","[u'high', u'medium', u'low']","blue",49,"left","high","True","True",240,7050,NA
"A1YBJN6WT3X8B5","Sat Oct 31 2020 23:12:14 GMT-0400 (Eastern Daylight Time)","Sat Oct 31 2020 23:18:53 GMT-0400 (Eastern Daylight Time)","Mozilla/5.0 (X11; CrOS x86_64 13421.53.0) AppleWebKit/537.36 (KHTML, like Gecko) Chrome/86.0.4240.77 Safari/537.36",130,"[0.9, 0.5, 0.1]","[0.8, 0.4, 0.2]","[u'blue', u'red', u'black']","[u'left', u'middle', u'right']","[0.8, 0.4, 0.2]","[u'low', u'high', u'medium']","blue",49,"left","low","False","False",262,7000,NA
"A1YBJN6WT3X8B5","Sat Oct 31 2020 23:12:14 GMT-0400 (Eastern Daylight Time)","Sat Oct 31 2020 23:18:53 GMT-0400 (Eastern Daylight Time)","Mozilla/5.0 (X11; CrOS x86_64 13421.53.0) AppleWebKit/537.36 (KHTML, like Gecko) Chrome/86.0.4240.77 Safari/537.36",131,"[0.9, 0.5, 0.1]","[0.8, 0.4, 0.2]","[u'blue', u'red', u'black']","[u'left', u'middle', u'right']","[0.8, 0.4, 0.2]","[u'low', u'high', u'medium']","blue",49,"left","low","False","False",192,6950,NA
"A1YBJN6WT3X8B5","Sat Oct 31 2020 23:12:14 GMT-0400 (Eastern Daylight Time)","Sat Oct 31 2020 23:18:53 GMT-0400 (Eastern Daylight Time)","Mozilla/5.0 (X11; CrOS x86_64 13421.53.0) AppleWebKit/537.36 (KHTML, like Gecko) Chrome/86.0.4240.77 Safari/537.36",132,"[0.9, 0.5, 0.1]","[0.8, 0.4, 0.2]","[u'blue', u'red', u'black']","[u'left', u'middle', u'right']","[0.8, 0.4, 0.2]","[u'low', u'high', u'medium']","blue",49,"left","low","False","False",212,6900,NA
"A1YBJN6WT3X8B5","Sat Oct 31 2020 23:12:14 GMT-0400 (Eastern Daylight Time)","Sat Oct 31 2020 23:18:53 GMT-0400 (Eastern Daylight Time)","Mozilla/5.0 (X11; CrOS x86_64 13421.53.0) AppleWebKit/537.36 (KHTML, like Gecko) Chrome/86.0.4240.77 Safari/537.36",133,"[0.9, 0.5, 0.1]","[0.8, 0.4, 0.2]","[u'blue', u'red', u'black']","[u'left', u'middle', u'right']","[0.8, 0.4, 0.2]","[u'low', u'high', u'medium']","red",50,"middle","high","True","False",134,7000,NA
"A1YBJN6WT3X8B5","Sat Oct 31 2020 23:12:14 GMT-0400 (Eastern Daylight Time)","Sat Oct 31 2020 23:18:53 GMT-0400 (Eastern Daylight Time)","Mozilla/5.0 (X11; CrOS x86_64 13421.53.0) AppleWebKit/537.36 (KHTML, like Gecko) Chrome/86.0.4240.77 Safari/537.36",134,"[0.9, 0.5, 0.1]","[0.8, 0.4, 0.2]","[u'blue', u'red', u'black']","[u'left', u'middle', u'right']","[0.8, 0.4, 0.2]","[u'low', u'high', u'medium']","red",50,"middle","high","True","False",436,7100,NA
"A1YBJN6WT3X8B5","Sat Oct 31 2020 23:12:14 GMT-0400 (Eastern Daylight Time)","Sat Oct 31 2020 23:18:53 GMT-0400 (Eastern Daylight Time)","Mozilla/5.0 (X11; CrOS x86_64 13421.53.0) AppleWebKit/537.36 (KHTML, like Gecko) Chrome/86.0.4240.77 Safari/537.36",135,"[0.9, 0.5, 0.1]","[0.8, 0.4, 0.2]","[u'blue', u'red', u'black']","[u'left', u'middle', u'right']","[0.8, 0.4, 0.2]","[u'low', u'high', u'medium']","red",50,"middle","high","True","False",166,7200,NA
"A1YBJN6WT3X8B5","Sat Oct 31 2020 23:12:14 GMT-0400 (Eastern Daylight Time)","Sat Oct 31 2020 23:18:53 GMT-0400 (Eastern Daylight Time)","Mozilla/5.0 (X11; CrOS x86_64 13421.53.0) AppleWebKit/537.36 (KHTML, like Gecko) Chrome/86.0.4240.77 Safari/537.36",136,"[0.9, 0.5, 0.1]","[0.8, 0.4, 0.2]","[u'blue', u'red', u'black']","[u'left', u'middle', u'right']","[0.8, 0.4, 0.2]","[u'low', u'high', u'medium']","red",50,"middle","high","True","False",142,7300,NA
"A1YBJN6WT3X8B5","Sat Oct 31 2020 23:12:14 GMT-0400 (Eastern Daylight Time)","Sat Oct 31 2020 23:18:53 GMT-0400 (Eastern Daylight Time)","Mozilla/5.0 (X11; CrOS x86_64 13421.53.0) AppleWebKit/537.36 (KHTML, like Gecko) Chrome/86.0.4240.77 Safari/537.36",137,"[0.9, 0.5, 0.1]","[0.8, 0.4, 0.2]","[u'blue', u'red', u'black']","[u'left', u'middle', u'right']","[0.8, 0.4, 0.2]","[u'low', u'high', u'medium']","red",50,"middle","high","False","False",127,7250,NA
"A1YBJN6WT3X8B5","Sat Oct 31 2020 23:12:14 GMT-0400 (Eastern Daylight Time)","Sat Oct 31 2020 23:18:53 GMT-0400 (Eastern Daylight Time)","Mozilla/5.0 (X11; CrOS x86_64 13421.53.0) AppleWebKit/537.36 (KHTML, like Gecko) Chrome/86.0.4240.77 Safari/537.36",138,"[0.9, 0.5, 0.1]","[0.8, 0.4, 0.2]","[u'blue', u'red', u'black']","[u'left', u'middle', u'right']","[0.8, 0.4, 0.2]","[u'low', u'high', u'medium']","blue",49,"left","low","False","False",63,7200,NA
"A1YBJN6WT3X8B5","Sat Oct 31 2020 23:12:14 GMT-0400 (Eastern Daylight Time)","Sat Oct 31 2020 23:18:53 GMT-0400 (Eastern Daylight Time)","Mozilla/5.0 (X11; CrOS x86_64 13421.53.0) AppleWebKit/537.36 (KHTML, like Gecko) Chrome/86.0.4240.77 Safari/537.36",139,"[0.9, 0.5, 0.1]","[0.8, 0.4, 0.2]","[u'blue', u'red', u'black']","[u'left', u'middle', u'right']","[0.8, 0.4, 0.2]","[u'low', u'high', u'medium']","red",50,"middle","high","True","False",121,7300,NA
"A1YBJN6WT3X8B5","Sat Oct 31 2020 23:12:14 GMT-0400 (Eastern Daylight Time)","Sat Oct 31 2020 23:18:53 GMT-0400 (Eastern Daylight Time)","Mozilla/5.0 (X11; CrOS x86_64 13421.53.0) AppleWebKit/537.36 (KHTML, like Gecko) Chrome/86.0.4240.77 Safari/537.36",140,"[0.9, 0.5, 0.1]","[0.8, 0.4, 0.2]","[u'blue', u'red', u'black']","[u'left', u'middle', u'right']","[0.8, 0.4, 0.2]","[u'low', u'high', u'medium']","red",50,"middle","high","False","False",193,7250,NA
"A1YBJN6WT3X8B5","Sat Oct 31 2020 23:12:14 GMT-0400 (Eastern Daylight Time)","Sat Oct 31 2020 23:18:53 GMT-0400 (Eastern Daylight Time)","Mozilla/5.0 (X11; CrOS x86_64 13421.53.0) AppleWebKit/537.36 (KHTML, like Gecko) Chrome/86.0.4240.77 Safari/537.36",141,"[0.9, 0.5, 0.1]","[0.8, 0.4, 0.2]","[u'blue', u'red', u'black']","[u'left', u'middle', u'right']","[0.8, 0.4, 0.2]","[u'low', u'high', u'medium']","black",51,"right","medium","False","False",150,7200,NA
"A1YBJN6WT3X8B5","Sat Oct 31 2020 23:12:14 GMT-0400 (Eastern Daylight Time)","Sat Oct 31 2020 23:18:53 GMT-0400 (Eastern Daylight Time)","Mozilla/5.0 (X11; CrOS x86_64 13421.53.0) AppleWebKit/537.36 (KHTML, like Gecko) Chrome/86.0.4240.77 Safari/537.36",142,"[0.9, 0.5, 0.1]","[0.8, 0.4, 0.2]","[u'blue', u'red', u'black']","[u'left', u'middle', u'right']","[0.8, 0.4, 0.2]","[u'low', u'high', u'medium']","red",50,"middle","high","True","False",133,7300,NA
"A1YBJN6WT3X8B5","Sat Oct 31 2020 23:12:14 GMT-0400 (Eastern Daylight Time)","Sat Oct 31 2020 23:18:53 GMT-0400 (Eastern Daylight Time)","Mozilla/5.0 (X11; CrOS x86_64 13421.53.0) AppleWebKit/537.36 (KHTML, like Gecko) Chrome/86.0.4240.77 Safari/537.36",143,"[0.9, 0.5, 0.1]","[0.8, 0.4, 0.2]","[u'blue', u'red', u'black']","[u'left', u'middle', u'right']","[0.8, 0.4, 0.2]","[u'low', u'high', u'medium']","red",50,"middle","high","True","False",222,7400,NA
"A1YBJN6WT3X8B5","Sat Oct 31 2020 23:12:14 GMT-0400 (Eastern Daylight Time)","Sat Oct 31 2020 23:18:53 GMT-0400 (Eastern Daylight Time)","Mozilla/5.0 (X11; CrOS x86_64 13421.53.0) AppleWebKit/537.36 (KHTML, like Gecko) Chrome/86.0.4240.77 Safari/537.36",144,"[0.9, 0.5, 0.1]","[0.8, 0.4, 0.2]","[u'blue', u'red', u'black']","[u'left', u'middle', u'right']","[0.8, 0.4, 0.2]","[u'low', u'high', u'medium']","red",50,"middle","high","True","False",201,7500,NA
"A1YBJN6WT3X8B5","Sat Oct 31 2020 23:12:14 GMT-0400 (Eastern Daylight Time)","Sat Oct 31 2020 23:18:53 GMT-0400 (Eastern Daylight Time)","Mozilla/5.0 (X11; CrOS x86_64 13421.53.0) AppleWebKit/537.36 (KHTML, like Gecko) Chrome/86.0.4240.77 Safari/537.36",145,"[0.9, 0.5, 0.1]","[0.8, 0.4, 0.2]","[u'blue', u'red', u'black']","[u'left', u'middle', u'right']","[0.8, 0.4, 0.2]","[u'low', u'high', u'medium']","red",50,"middle","high","True","False",230,7600,NA
"A1YBJN6WT3X8B5","Sat Oct 31 2020 23:12:14 GMT-0400 (Eastern Daylight Time)","Sat Oct 31 2020 23:18:53 GMT-0400 (Eastern Daylight Time)","Mozilla/5.0 (X11; CrOS x86_64 13421.53.0) AppleWebKit/537.36 (KHTML, like Gecko) Chrome/86.0.4240.77 Safari/537.36",146,"[0.9, 0.5, 0.1]","[0.8, 0.4, 0.2]","[u'blue', u'red', u'black']","[u'left', u'middle', u'right']","[0.8, 0.4, 0.2]","[u'low', u'high', u'medium']","red",50,"middle","high","True","False",231,7700,NA
"A1YBJN6WT3X8B5","Sat Oct 31 2020 23:12:14 GMT-0400 (Eastern Daylight Time)","Sat Oct 31 2020 23:18:53 GMT-0400 (Eastern Daylight Time)","Mozilla/5.0 (X11; CrOS x86_64 13421.53.0) AppleWebKit/537.36 (KHTML, like Gecko) Chrome/86.0.4240.77 Safari/537.36",147,"[0.9, 0.5, 0.1]","[0.8, 0.4, 0.2]","[u'blue', u'red', u'black']","[u'left', u'middle', u'right']","[0.8, 0.4, 0.2]","[u'low', u'high', u'medium']","red",50,"middle","high","False","False",181,7650,NA
"A1YBJN6WT3X8B5","Sat Oct 31 2020 23:12:14 GMT-0400 (Eastern Daylight Time)","Sat Oct 31 2020 23:18:53 GMT-0400 (Eastern Daylight Time)","Mozilla/5.0 (X11; CrOS x86_64 13421.53.0) AppleWebKit/537.36 (KHTML, like Gecko) Chrome/86.0.4240.77 Safari/537.36",148,"[0.9, 0.5, 0.1]","[0.8, 0.4, 0.2]","[u'blue', u'red', u'black']","[u'left', u'middle', u'right']","[0.8, 0.4, 0.2]","[u'low', u'high', u'medium']","blue",49,"left","low","True","False",45,7750,NA
"A1YBJN6WT3X8B5","Sat Oct 31 2020 23:12:14 GMT-0400 (Eastern Daylight Time)","Sat Oct 31 2020 23:18:53 GMT-0400 (Eastern Daylight Time)","Mozilla/5.0 (X11; CrOS x86_64 13421.53.0) AppleWebKit/537.36 (KHTML, like Gecko) Chrome/86.0.4240.77 Safari/537.36",149,"[0.9, 0.5, 0.1]","[0.8, 0.4, 0.2]","[u'blue', u'red', u'black']","[u'left', u'middle', u'right']","[0.8, 0.4, 0.2]","[u'low', u'high', u'medium']","blue",49,"left","low","False","False",164,7700,NA
"A1YBJN6WT3X8B5","Sat Oct 31 2020 23:12:14 GMT-0400 (Eastern Daylight Time)","Sat Oct 31 2020 23:18:53 GMT-0400 (Eastern Daylight Time)","Mozilla/5.0 (X11; CrOS x86_64 13421.53.0) AppleWebKit/537.36 (KHTML, like Gecko) Chrome/86.0.4240.77 Safari/537.36",150,"[0.9, 0.5, 0.1]","[0.8, 0.4, 0.2]","[u'blue', u'red', u'black']","[u'left', u'middle', u'right']","[0.8, 0.4, 0.2]","[u'low', u'high', u'medium']","red",50,"middle","high","True","False",143,7800,NA
"A1YBJN6WT3X8B5","Sat Oct 31 2020 23:12:14 GMT-0400 (Eastern Daylight Time)","Sat Oct 31 2020 23:18:53 GMT-0400 (Eastern Daylight Time)","Mozilla/5.0 (X11; CrOS x86_64 13421.53.0) AppleWebKit/537.36 (KHTML, like Gecko) Chrome/86.0.4240.77 Safari/537.36",151,"[0.9, 0.5, 0.1]","[0.8, 0.4, 0.2]","[u'blue', u'red', u'black']","[u'left', u'middle', u'right']","[0.8, 0.4, 0.2]","[u'low', u'high', u'medium']","red",50,"middle","high","True","False",394,7900,NA
"A1YBJN6WT3X8B5","Sat Oct 31 2020 23:12:14 GMT-0400 (Eastern Daylight Time)","Sat Oct 31 2020 23:18:53 GMT-0400 (Eastern Daylight Time)","Mozilla/5.0 (X11; CrOS x86_64 13421.53.0) AppleWebKit/537.36 (KHTML, like Gecko) Chrome/86.0.4240.77 Safari/537.36",152,"[0.9, 0.5, 0.1]","[0.8, 0.4, 0.2]","[u'blue', u'red', u'black']","[u'left', u'middle', u'right']","[0.8, 0.4, 0.2]","[u'low', u'high', u'medium']","red",50,"middle","high","True","False",76,8000,NA
"A1YBJN6WT3X8B5","Sat Oct 31 2020 23:12:14 GMT-0400 (Eastern Daylight Time)","Sat Oct 31 2020 23:18:53 GMT-0400 (Eastern Daylight Time)","Mozilla/5.0 (X11; CrOS x86_64 13421.53.0) AppleWebKit/537.36 (KHTML, like Gecko) Chrome/86.0.4240.77 Safari/537.36",153,"[0.9, 0.5, 0.1]","[0.8, 0.4, 0.2]","[u'blue', u'red', u'black']","[u'left', u'middle', u'right']","[0.8, 0.4, 0.2]","[u'low', u'high', u'medium']","red",50,"middle","high","True","False",191,8100,NA
"A1YBJN6WT3X8B5","Sat Oct 31 2020 23:12:14 GMT-0400 (Eastern Daylight Time)","Sat Oct 31 2020 23:18:53 GMT-0400 (Eastern Daylight Time)","Mozilla/5.0 (X11; CrOS x86_64 13421.53.0) AppleWebKit/537.36 (KHTML, like Gecko) Chrome/86.0.4240.77 Safari/537.36",154,"[0.9, 0.5, 0.1]","[0.8, 0.4, 0.2]","[u'blue', u'red', u'black']","[u'left', u'middle', u'right']","[0.8, 0.4, 0.2]","[u'low', u'high', u'medium']","red",50,"middle","high","False","False",265,8050,NA
"A1YBJN6WT3X8B5","Sat Oct 31 2020 23:12:14 GMT-0400 (Eastern Daylight Time)","Sat Oct 31 2020 23:18:53 GMT-0400 (Eastern Daylight Time)","Mozilla/5.0 (X11; CrOS x86_64 13421.53.0) AppleWebKit/537.36 (KHTML, like Gecko) Chrome/86.0.4240.77 Safari/537.36",155,"[0.9, 0.5, 0.1]","[0.8, 0.4, 0.2]","[u'blue', u'red', u'black']","[u'left', u'middle', u'right']","[0.8, 0.4, 0.2]","[u'low', u'high', u'medium']","blue",49,"left","low","False","False",71,8000,NA
"A1YBJN6WT3X8B5","Sat Oct 31 2020 23:12:14 GMT-0400 (Eastern Daylight Time)","Sat Oct 31 2020 23:18:53 GMT-0400 (Eastern Daylight Time)","Mozilla/5.0 (X11; CrOS x86_64 13421.53.0) AppleWebKit/537.36 (KHTML, like Gecko) Chrome/86.0.4240.77 Safari/537.36",156,"[0.9, 0.5, 0.1]","[0.8, 0.4, 0.2]","[u'blue', u'red', u'black']","[u'left', u'middle', u'right']","[0.8, 0.4, 0.2]","[u'low', u'high', u'medium']","red",50,"middle","high","True","False",60,8100,NA
"A1YBJN6WT3X8B5","Sat Oct 31 2020 23:12:14 GMT-0400 (Eastern Daylight Time)","Sat Oct 31 2020 23:18:53 GMT-0400 (Eastern Daylight Time)","Mozilla/5.0 (X11; CrOS x86_64 13421.53.0) AppleWebKit/537.36 (KHTML, like Gecko) Chrome/86.0.4240.77 Safari/537.36",157,"[0.9, 0.5, 0.1]","[0.8, 0.4, 0.2]","[u'blue', u'red', u'black']","[u'left', u'middle', u'right']","[0.8, 0.4, 0.2]","[u'low', u'high', u'medium']","red",50,"middle","high","True","False",193,8200,NA
"A1YBJN6WT3X8B5","Sat Oct 31 2020 23:12:14 GMT-0400 (Eastern Daylight Time)","Sat Oct 31 2020 23:18:53 GMT-0400 (Eastern Daylight Time)","Mozilla/5.0 (X11; CrOS x86_64 13421.53.0) AppleWebKit/537.36 (KHTML, like Gecko) Chrome/86.0.4240.77 Safari/537.36",158,"[0.9, 0.5, 0.1]","[0.8, 0.4, 0.2]","[u'blue', u'red', u'black']","[u'left', u'middle', u'right']","[0.8, 0.4, 0.2]","[u'low', u'high', u'medium']","red",50,"middle","high","False","False",114,8150,NA
"A1YBJN6WT3X8B5","Sat Oct 31 2020 23:12:14 GMT-0400 (Eastern Daylight Time)","Sat Oct 31 2020 23:18:53 GMT-0400 (Eastern Daylight Time)","Mozilla/5.0 (X11; CrOS x86_64 13421.53.0) AppleWebKit/537.36 (KHTML, like Gecko) Chrome/86.0.4240.77 Safari/537.36",159,"[0.9, 0.5, 0.1]","[0.8, 0.4, 0.2]","[u'blue', u'red', u'black']","[u'left', u'middle', u'right']","[0.8, 0.4, 0.2]","[u'low', u'high', u'medium']","black",51,"right","medium","False","False",243,8100,NA
"A1YBJN6WT3X8B5","Sat Oct 31 2020 23:12:14 GMT-0400 (Eastern Daylight Time)","Sat Oct 31 2020 23:18:53 GMT-0400 (Eastern Daylight Time)","Mozilla/5.0 (X11; CrOS x86_64 13421.53.0) AppleWebKit/537.36 (KHTML, like Gecko) Chrome/86.0.4240.77 Safari/537.36",160,"[0.9, 0.5, 0.1]","[0.8, 0.4, 0.2]","[u'blue', u'red', u'black']","[u'left', u'middle', u'right']","[0.8, 0.4, 0.2]","[u'low', u'high', u'medium']","blue",49,"left","low","False","False",353,8050,NA
