"src_subject_id","start_time","end_time","browser","index","first_half_probabilities","second_half_probabilities","deck_color","deck_position","deck_probabilities","deck_contingencies","response_color","key_press","response_position","response_probability","reward_type","trial_type","rt","reward_tally","exclusion_reason"
"A3UKRC3LBM1LEW","Sun Nov 01 2020 11:04:10 GMT-0500 (Eastern Standard Time)","Sun Nov 01 2020 11:11:09 GMT-0500 (Eastern Standard Time)","Mozilla/5.0 (Windows NT 10.0; Win64; x64) AppleWebKit/537.36 (KHTML, like Gecko) Chrome/86.0.4240.111 Safari/537.36",1,"[0.9, 0.5, 0.1]","[0.8, 0.4, 0.2]","[u'red', u'black', u'blue']","[u'left', u'middle', u'right']","[0.9, 0.5, 0.1]","[u'high', u'low', u'medium']","blue",51,"right","medium","True","False",816,100,NA
"A3UKRC3LBM1LEW","Sun Nov 01 2020 11:04:10 GMT-0500 (Eastern Standard Time)","Sun Nov 01 2020 11:11:09 GMT-0500 (Eastern Standard Time)","Mozilla/5.0 (Windows NT 10.0; Win64; x64) AppleWebKit/537.36 (KHTML, like Gecko) Chrome/86.0.4240.111 Safari/537.36",2,"[0.9, 0.5, 0.1]","[0.8, 0.4, 0.2]","[u'red', u'black', u'blue']","[u'left', u'middle', u'right']","[0.9, 0.5, 0.1]","[u'high', u'low', u'medium']","blue",51,"right","medium","True","False",511,200,NA
"A3UKRC3LBM1LEW","Sun Nov 01 2020 11:04:10 GMT-0500 (Eastern Standard Time)","Sun Nov 01 2020 11:11:09 GMT-0500 (Eastern Standard Time)","Mozilla/5.0 (Windows NT 10.0; Win64; x64) AppleWebKit/537.36 (KHTML, like Gecko) Chrome/86.0.4240.111 Safari/537.36",3,"[0.9, 0.5, 0.1]","[0.8, 0.4, 0.2]","[u'red', u'black', u'blue']","[u'left', u'middle', u'right']","[0.9, 0.5, 0.1]","[u'high', u'low', u'medium']","blue",51,"right","medium","False","False",510,150,NA
"A3UKRC3LBM1LEW","Sun Nov 01 2020 11:04:10 GMT-0500 (Eastern Standard Time)","Sun Nov 01 2020 11:11:09 GMT-0500 (Eastern Standard Time)","Mozilla/5.0 (Windows NT 10.0; Win64; x64) AppleWebKit/537.36 (KHTML, like Gecko) Chrome/86.0.4240.111 Safari/537.36",4,"[0.9, 0.5, 0.1]","[0.8, 0.4, 0.2]","[u'red', u'black', u'blue']","[u'left', u'middle', u'right']","[0.9, 0.5, 0.1]","[u'high', u'low', u'medium']","black",50,"middle","low","False","False",328,100,NA
"A3UKRC3LBM1LEW","Sun Nov 01 2020 11:04:10 GMT-0500 (Eastern Standard Time)","Sun Nov 01 2020 11:11:09 GMT-0500 (Eastern Standard Time)","Mozilla/5.0 (Windows NT 10.0; Win64; x64) AppleWebKit/537.36 (KHTML, like Gecko) Chrome/86.0.4240.111 Safari/537.36",5,"[0.9, 0.5, 0.1]","[0.8, 0.4, 0.2]","[u'red', u'black', u'blue']","[u'left', u'middle', u'right']","[0.9, 0.5, 0.1]","[u'high', u'low', u'medium']","blue",51,"right","medium","False","False",477,50,NA
"A3UKRC3LBM1LEW","Sun Nov 01 2020 11:04:10 GMT-0500 (Eastern Standard Time)","Sun Nov 01 2020 11:11:09 GMT-0500 (Eastern Standard Time)","Mozilla/5.0 (Windows NT 10.0; Win64; x64) AppleWebKit/537.36 (KHTML, like Gecko) Chrome/86.0.4240.111 Safari/537.36",6,"[0.9, 0.5, 0.1]","[0.8, 0.4, 0.2]","[u'red', u'black', u'blue']","[u'left', u'middle', u'right']","[0.9, 0.5, 0.1]","[u'high', u'low', u'medium']","red",49,"left","high","True","False",304,150,NA
"A3UKRC3LBM1LEW","Sun Nov 01 2020 11:04:10 GMT-0500 (Eastern Standard Time)","Sun Nov 01 2020 11:11:09 GMT-0500 (Eastern Standard Time)","Mozilla/5.0 (Windows NT 10.0; Win64; x64) AppleWebKit/537.36 (KHTML, like Gecko) Chrome/86.0.4240.111 Safari/537.36",7,"[0.9, 0.5, 0.1]","[0.8, 0.4, 0.2]","[u'red', u'black', u'blue']","[u'left', u'middle', u'right']","[0.9, 0.5, 0.1]","[u'high', u'low', u'medium']","red",49,"left","high","True","False",320,250,NA
"A3UKRC3LBM1LEW","Sun Nov 01 2020 11:04:10 GMT-0500 (Eastern Standard Time)","Sun Nov 01 2020 11:11:09 GMT-0500 (Eastern Standard Time)","Mozilla/5.0 (Windows NT 10.0; Win64; x64) AppleWebKit/537.36 (KHTML, like Gecko) Chrome/86.0.4240.111 Safari/537.36",8,"[0.9, 0.5, 0.1]","[0.8, 0.4, 0.2]","[u'red', u'black', u'blue']","[u'left', u'middle', u'right']","[0.9, 0.5, 0.1]","[u'high', u'low', u'medium']","red",49,"left","high","True","False",490,350,NA
"A3UKRC3LBM1LEW","Sun Nov 01 2020 11:04:10 GMT-0500 (Eastern Standard Time)","Sun Nov 01 2020 11:11:09 GMT-0500 (Eastern Standard Time)","Mozilla/5.0 (Windows NT 10.0; Win64; x64) AppleWebKit/537.36 (KHTML, like Gecko) Chrome/86.0.4240.111 Safari/537.36",9,"[0.9, 0.5, 0.1]","[0.8, 0.4, 0.2]","[u'red', u'black', u'blue']","[u'left', u'middle', u'right']","[0.9, 0.5, 0.1]","[u'high', u'low', u'medium']","red",49,"left","high","True","False",1251,450,NA
"A3UKRC3LBM1LEW","Sun Nov 01 2020 11:04:10 GMT-0500 (Eastern Standard Time)","Sun Nov 01 2020 11:11:09 GMT-0500 (Eastern Standard Time)","Mozilla/5.0 (Windows NT 10.0; Win64; x64) AppleWebKit/537.36 (KHTML, like Gecko) Chrome/86.0.4240.111 Safari/537.36",10,"[0.9, 0.5, 0.1]","[0.8, 0.4, 0.2]","[u'red', u'black', u'blue']","[u'left', u'middle', u'right']","[0.9, 0.5, 0.1]","[u'high', u'low', u'medium']","red",49,"left","high","False","False",436,400,NA
"A3UKRC3LBM1LEW","Sun Nov 01 2020 11:04:10 GMT-0500 (Eastern Standard Time)","Sun Nov 01 2020 11:11:09 GMT-0500 (Eastern Standard Time)","Mozilla/5.0 (Windows NT 10.0; Win64; x64) AppleWebKit/537.36 (KHTML, like Gecko) Chrome/86.0.4240.111 Safari/537.36",11,"[0.9, 0.5, 0.1]","[0.8, 0.4, 0.2]","[u'red', u'black', u'blue']","[u'left', u'middle', u'right']","[0.9, 0.5, 0.1]","[u'high', u'low', u'medium']","black",50,"middle","low","False","False",332,350,NA
"A3UKRC3LBM1LEW","Sun Nov 01 2020 11:04:10 GMT-0500 (Eastern Standard Time)","Sun Nov 01 2020 11:11:09 GMT-0500 (Eastern Standard Time)","Mozilla/5.0 (Windows NT 10.0; Win64; x64) AppleWebKit/537.36 (KHTML, like Gecko) Chrome/86.0.4240.111 Safari/537.36",12,"[0.9, 0.5, 0.1]","[0.8, 0.4, 0.2]","[u'red', u'black', u'blue']","[u'left', u'middle', u'right']","[0.9, 0.5, 0.1]","[u'high', u'low', u'medium']","blue",51,"right","medium","True","False",318,450,NA
"A3UKRC3LBM1LEW","Sun Nov 01 2020 11:04:10 GMT-0500 (Eastern Standard Time)","Sun Nov 01 2020 11:11:09 GMT-0500 (Eastern Standard Time)","Mozilla/5.0 (Windows NT 10.0; Win64; x64) AppleWebKit/537.36 (KHTML, like Gecko) Chrome/86.0.4240.111 Safari/537.36",13,"[0.9, 0.5, 0.1]","[0.8, 0.4, 0.2]","[u'red', u'black', u'blue']","[u'left', u'middle', u'right']","[0.9, 0.5, 0.1]","[u'high', u'low', u'medium']","blue",51,"right","medium","False","False",476,400,NA
"A3UKRC3LBM1LEW","Sun Nov 01 2020 11:04:10 GMT-0500 (Eastern Standard Time)","Sun Nov 01 2020 11:11:09 GMT-0500 (Eastern Standard Time)","Mozilla/5.0 (Windows NT 10.0; Win64; x64) AppleWebKit/537.36 (KHTML, like Gecko) Chrome/86.0.4240.111 Safari/537.36",14,"[0.9, 0.5, 0.1]","[0.8, 0.4, 0.2]","[u'red', u'black', u'blue']","[u'left', u'middle', u'right']","[0.9, 0.5, 0.1]","[u'high', u'low', u'medium']","black",50,"middle","low","False","False",307,350,NA
"A3UKRC3LBM1LEW","Sun Nov 01 2020 11:04:10 GMT-0500 (Eastern Standard Time)","Sun Nov 01 2020 11:11:09 GMT-0500 (Eastern Standard Time)","Mozilla/5.0 (Windows NT 10.0; Win64; x64) AppleWebKit/537.36 (KHTML, like Gecko) Chrome/86.0.4240.111 Safari/537.36",15,"[0.9, 0.5, 0.1]","[0.8, 0.4, 0.2]","[u'red', u'black', u'blue']","[u'left', u'middle', u'right']","[0.9, 0.5, 0.1]","[u'high', u'low', u'medium']","red",49,"left","high","True","False",43,450,NA
"A3UKRC3LBM1LEW","Sun Nov 01 2020 11:04:10 GMT-0500 (Eastern Standard Time)","Sun Nov 01 2020 11:11:09 GMT-0500 (Eastern Standard Time)","Mozilla/5.0 (Windows NT 10.0; Win64; x64) AppleWebKit/537.36 (KHTML, like Gecko) Chrome/86.0.4240.111 Safari/537.36",16,"[0.9, 0.5, 0.1]","[0.8, 0.4, 0.2]","[u'red', u'black', u'blue']","[u'left', u'middle', u'right']","[0.9, 0.5, 0.1]","[u'high', u'low', u'medium']","red",49,"left","high","True","False",463,550,NA
"A3UKRC3LBM1LEW","Sun Nov 01 2020 11:04:10 GMT-0500 (Eastern Standard Time)","Sun Nov 01 2020 11:11:09 GMT-0500 (Eastern Standard Time)","Mozilla/5.0 (Windows NT 10.0; Win64; x64) AppleWebKit/537.36 (KHTML, like Gecko) Chrome/86.0.4240.111 Safari/537.36",17,"[0.9, 0.5, 0.1]","[0.8, 0.4, 0.2]","[u'red', u'black', u'blue']","[u'left', u'middle', u'right']","[0.9, 0.5, 0.1]","[u'high', u'low', u'medium']","red",49,"left","high","True","False",330,650,NA
"A3UKRC3LBM1LEW","Sun Nov 01 2020 11:04:10 GMT-0500 (Eastern Standard Time)","Sun Nov 01 2020 11:11:09 GMT-0500 (Eastern Standard Time)","Mozilla/5.0 (Windows NT 10.0; Win64; x64) AppleWebKit/537.36 (KHTML, like Gecko) Chrome/86.0.4240.111 Safari/537.36",18,"[0.9, 0.5, 0.1]","[0.8, 0.4, 0.2]","[u'red', u'black', u'blue']","[u'left', u'middle', u'right']","[0.9, 0.5, 0.1]","[u'high', u'low', u'medium']","red",49,"left","high","False","False",393,600,NA
"A3UKRC3LBM1LEW","Sun Nov 01 2020 11:04:10 GMT-0500 (Eastern Standard Time)","Sun Nov 01 2020 11:11:09 GMT-0500 (Eastern Standard Time)","Mozilla/5.0 (Windows NT 10.0; Win64; x64) AppleWebKit/537.36 (KHTML, like Gecko) Chrome/86.0.4240.111 Safari/537.36",19,"[0.9, 0.5, 0.1]","[0.8, 0.4, 0.2]","[u'red', u'black', u'blue']","[u'left', u'middle', u'right']","[0.9, 0.5, 0.1]","[u'high', u'low', u'medium']","blue",51,"right","medium","True","False",312,700,NA
"A3UKRC3LBM1LEW","Sun Nov 01 2020 11:04:10 GMT-0500 (Eastern Standard Time)","Sun Nov 01 2020 11:11:09 GMT-0500 (Eastern Standard Time)","Mozilla/5.0 (Windows NT 10.0; Win64; x64) AppleWebKit/537.36 (KHTML, like Gecko) Chrome/86.0.4240.111 Safari/537.36",20,"[0.9, 0.5, 0.1]","[0.8, 0.4, 0.2]","[u'red', u'black', u'blue']","[u'left', u'middle', u'right']","[0.9, 0.5, 0.1]","[u'high', u'low', u'medium']","blue",51,"right","medium","True","False",408,800,NA
"A3UKRC3LBM1LEW","Sun Nov 01 2020 11:04:10 GMT-0500 (Eastern Standard Time)","Sun Nov 01 2020 11:11:09 GMT-0500 (Eastern Standard Time)","Mozilla/5.0 (Windows NT 10.0; Win64; x64) AppleWebKit/537.36 (KHTML, like Gecko) Chrome/86.0.4240.111 Safari/537.36",21,"[0.9, 0.5, 0.1]","[0.8, 0.4, 0.2]","[u'red', u'black', u'blue']","[u'left', u'middle', u'right']","[0.9, 0.5, 0.1]","[u'high', u'low', u'medium']","blue",51,"right","medium","True","False",432,900,NA
"A3UKRC3LBM1LEW","Sun Nov 01 2020 11:04:10 GMT-0500 (Eastern Standard Time)","Sun Nov 01 2020 11:11:09 GMT-0500 (Eastern Standard Time)","Mozilla/5.0 (Windows NT 10.0; Win64; x64) AppleWebKit/537.36 (KHTML, like Gecko) Chrome/86.0.4240.111 Safari/537.36",22,"[0.9, 0.5, 0.1]","[0.8, 0.4, 0.2]","[u'red', u'black', u'blue']","[u'left', u'middle', u'right']","[0.9, 0.5, 0.1]","[u'high', u'low', u'medium']","blue",51,"right","medium","True","False",494,1000,NA
"A3UKRC3LBM1LEW","Sun Nov 01 2020 11:04:10 GMT-0500 (Eastern Standard Time)","Sun Nov 01 2020 11:11:09 GMT-0500 (Eastern Standard Time)","Mozilla/5.0 (Windows NT 10.0; Win64; x64) AppleWebKit/537.36 (KHTML, like Gecko) Chrome/86.0.4240.111 Safari/537.36",23,"[0.9, 0.5, 0.1]","[0.8, 0.4, 0.2]","[u'red', u'black', u'blue']","[u'left', u'middle', u'right']","[0.9, 0.5, 0.1]","[u'high', u'low', u'medium']","blue",51,"right","medium","False","False",286,950,NA
"A3UKRC3LBM1LEW","Sun Nov 01 2020 11:04:10 GMT-0500 (Eastern Standard Time)","Sun Nov 01 2020 11:11:09 GMT-0500 (Eastern Standard Time)","Mozilla/5.0 (Windows NT 10.0; Win64; x64) AppleWebKit/537.36 (KHTML, like Gecko) Chrome/86.0.4240.111 Safari/537.36",24,"[0.9, 0.5, 0.1]","[0.8, 0.4, 0.2]","[u'red', u'black', u'blue']","[u'left', u'middle', u'right']","[0.9, 0.5, 0.1]","[u'high', u'low', u'medium']","red",49,"left","high","True","False",312,1050,NA
"A3UKRC3LBM1LEW","Sun Nov 01 2020 11:04:10 GMT-0500 (Eastern Standard Time)","Sun Nov 01 2020 11:11:09 GMT-0500 (Eastern Standard Time)","Mozilla/5.0 (Windows NT 10.0; Win64; x64) AppleWebKit/537.36 (KHTML, like Gecko) Chrome/86.0.4240.111 Safari/537.36",25,"[0.9, 0.5, 0.1]","[0.8, 0.4, 0.2]","[u'red', u'black', u'blue']","[u'left', u'middle', u'right']","[0.9, 0.5, 0.1]","[u'high', u'low', u'medium']","red",49,"left","high","False","False",287,1000,NA
"A3UKRC3LBM1LEW","Sun Nov 01 2020 11:04:10 GMT-0500 (Eastern Standard Time)","Sun Nov 01 2020 11:11:09 GMT-0500 (Eastern Standard Time)","Mozilla/5.0 (Windows NT 10.0; Win64; x64) AppleWebKit/537.36 (KHTML, like Gecko) Chrome/86.0.4240.111 Safari/537.36",26,"[0.9, 0.5, 0.1]","[0.8, 0.4, 0.2]","[u'red', u'black', u'blue']","[u'left', u'middle', u'right']","[0.9, 0.5, 0.1]","[u'high', u'low', u'medium']","black",50,"middle","low","False","False",296,950,NA
"A3UKRC3LBM1LEW","Sun Nov 01 2020 11:04:10 GMT-0500 (Eastern Standard Time)","Sun Nov 01 2020 11:11:09 GMT-0500 (Eastern Standard Time)","Mozilla/5.0 (Windows NT 10.0; Win64; x64) AppleWebKit/537.36 (KHTML, like Gecko) Chrome/86.0.4240.111 Safari/537.36",27,"[0.9, 0.5, 0.1]","[0.8, 0.4, 0.2]","[u'red', u'black', u'blue']","[u'left', u'middle', u'right']","[0.9, 0.5, 0.1]","[u'high', u'low', u'medium']","blue",51,"right","medium","False","False",292,900,NA
"A3UKRC3LBM1LEW","Sun Nov 01 2020 11:04:10 GMT-0500 (Eastern Standard Time)","Sun Nov 01 2020 11:11:09 GMT-0500 (Eastern Standard Time)","Mozilla/5.0 (Windows NT 10.0; Win64; x64) AppleWebKit/537.36 (KHTML, like Gecko) Chrome/86.0.4240.111 Safari/537.36",28,"[0.9, 0.5, 0.1]","[0.8, 0.4, 0.2]","[u'red', u'black', u'blue']","[u'left', u'middle', u'right']","[0.9, 0.5, 0.1]","[u'high', u'low', u'medium']","red",49,"left","high","True","False",540,1000,NA
"A3UKRC3LBM1LEW","Sun Nov 01 2020 11:04:10 GMT-0500 (Eastern Standard Time)","Sun Nov 01 2020 11:11:09 GMT-0500 (Eastern Standard Time)","Mozilla/5.0 (Windows NT 10.0; Win64; x64) AppleWebKit/537.36 (KHTML, like Gecko) Chrome/86.0.4240.111 Safari/537.36",29,"[0.9, 0.5, 0.1]","[0.8, 0.4, 0.2]","[u'red', u'black', u'blue']","[u'left', u'middle', u'right']","[0.9, 0.5, 0.1]","[u'high', u'low', u'medium']","red",49,"left","high","True","False",329,1100,NA
"A3UKRC3LBM1LEW","Sun Nov 01 2020 11:04:10 GMT-0500 (Eastern Standard Time)","Sun Nov 01 2020 11:11:09 GMT-0500 (Eastern Standard Time)","Mozilla/5.0 (Windows NT 10.0; Win64; x64) AppleWebKit/537.36 (KHTML, like Gecko) Chrome/86.0.4240.111 Safari/537.36",30,"[0.9, 0.5, 0.1]","[0.8, 0.4, 0.2]","[u'red', u'black', u'blue']","[u'left', u'middle', u'right']","[0.9, 0.5, 0.1]","[u'high', u'low', u'medium']","red",49,"left","high","True","False",353,1200,NA
"A3UKRC3LBM1LEW","Sun Nov 01 2020 11:04:10 GMT-0500 (Eastern Standard Time)","Sun Nov 01 2020 11:11:09 GMT-0500 (Eastern Standard Time)","Mozilla/5.0 (Windows NT 10.0; Win64; x64) AppleWebKit/537.36 (KHTML, like Gecko) Chrome/86.0.4240.111 Safari/537.36",31,"[0.9, 0.5, 0.1]","[0.8, 0.4, 0.2]","[u'red', u'black', u'blue']","[u'left', u'middle', u'right']","[0.9, 0.5, 0.1]","[u'high', u'low', u'medium']","red",49,"left","high","True","False",333,1300,NA
"A3UKRC3LBM1LEW","Sun Nov 01 2020 11:04:10 GMT-0500 (Eastern Standard Time)","Sun Nov 01 2020 11:11:09 GMT-0500 (Eastern Standard Time)","Mozilla/5.0 (Windows NT 10.0; Win64; x64) AppleWebKit/537.36 (KHTML, like Gecko) Chrome/86.0.4240.111 Safari/537.36",32,"[0.9, 0.5, 0.1]","[0.8, 0.4, 0.2]","[u'red', u'black', u'blue']","[u'left', u'middle', u'right']","[0.9, 0.5, 0.1]","[u'high', u'low', u'medium']","red",49,"left","high","True","False",279,1400,NA
"A3UKRC3LBM1LEW","Sun Nov 01 2020 11:04:10 GMT-0500 (Eastern Standard Time)","Sun Nov 01 2020 11:11:09 GMT-0500 (Eastern Standard Time)","Mozilla/5.0 (Windows NT 10.0; Win64; x64) AppleWebKit/537.36 (KHTML, like Gecko) Chrome/86.0.4240.111 Safari/537.36",33,"[0.9, 0.5, 0.1]","[0.8, 0.4, 0.2]","[u'red', u'black', u'blue']","[u'left', u'middle', u'right']","[0.9, 0.5, 0.1]","[u'high', u'low', u'medium']","red",49,"left","high","True","False",393,1500,NA
"A3UKRC3LBM1LEW","Sun Nov 01 2020 11:04:10 GMT-0500 (Eastern Standard Time)","Sun Nov 01 2020 11:11:09 GMT-0500 (Eastern Standard Time)","Mozilla/5.0 (Windows NT 10.0; Win64; x64) AppleWebKit/537.36 (KHTML, like Gecko) Chrome/86.0.4240.111 Safari/537.36",34,"[0.9, 0.5, 0.1]","[0.8, 0.4, 0.2]","[u'red', u'black', u'blue']","[u'left', u'middle', u'right']","[0.9, 0.5, 0.1]","[u'high', u'low', u'medium']","red",49,"left","high","True","False",434,1600,NA
"A3UKRC3LBM1LEW","Sun Nov 01 2020 11:04:10 GMT-0500 (Eastern Standard Time)","Sun Nov 01 2020 11:11:09 GMT-0500 (Eastern Standard Time)","Mozilla/5.0 (Windows NT 10.0; Win64; x64) AppleWebKit/537.36 (KHTML, like Gecko) Chrome/86.0.4240.111 Safari/537.36",35,"[0.9, 0.5, 0.1]","[0.8, 0.4, 0.2]","[u'red', u'black', u'blue']","[u'left', u'middle', u'right']","[0.9, 0.5, 0.1]","[u'high', u'low', u'medium']","red",49,"left","high","True","False",326,1700,NA
"A3UKRC3LBM1LEW","Sun Nov 01 2020 11:04:10 GMT-0500 (Eastern Standard Time)","Sun Nov 01 2020 11:11:09 GMT-0500 (Eastern Standard Time)","Mozilla/5.0 (Windows NT 10.0; Win64; x64) AppleWebKit/537.36 (KHTML, like Gecko) Chrome/86.0.4240.111 Safari/537.36",36,"[0.9, 0.5, 0.1]","[0.8, 0.4, 0.2]","[u'red', u'black', u'blue']","[u'left', u'middle', u'right']","[0.9, 0.5, 0.1]","[u'high', u'low', u'medium']","red",49,"left","high","True","True",338,1800,NA
"A3UKRC3LBM1LEW","Sun Nov 01 2020 11:04:10 GMT-0500 (Eastern Standard Time)","Sun Nov 01 2020 11:11:09 GMT-0500 (Eastern Standard Time)","Mozilla/5.0 (Windows NT 10.0; Win64; x64) AppleWebKit/537.36 (KHTML, like Gecko) Chrome/86.0.4240.111 Safari/537.36",37,"[0.9, 0.5, 0.1]","[0.8, 0.4, 0.2]","[u'red', u'black', u'blue']","[u'left', u'middle', u'right']","[0.9, 0.5, 0.1]","[u'low', u'high', u'medium']","red",49,"left","low","True","False",272,1900,NA
"A3UKRC3LBM1LEW","Sun Nov 01 2020 11:04:10 GMT-0500 (Eastern Standard Time)","Sun Nov 01 2020 11:11:09 GMT-0500 (Eastern Standard Time)","Mozilla/5.0 (Windows NT 10.0; Win64; x64) AppleWebKit/537.36 (KHTML, like Gecko) Chrome/86.0.4240.111 Safari/537.36",38,"[0.9, 0.5, 0.1]","[0.8, 0.4, 0.2]","[u'red', u'black', u'blue']","[u'left', u'middle', u'right']","[0.9, 0.5, 0.1]","[u'low', u'high', u'medium']","red",49,"left","low","False","False",275,1850,NA
"A3UKRC3LBM1LEW","Sun Nov 01 2020 11:04:10 GMT-0500 (Eastern Standard Time)","Sun Nov 01 2020 11:11:09 GMT-0500 (Eastern Standard Time)","Mozilla/5.0 (Windows NT 10.0; Win64; x64) AppleWebKit/537.36 (KHTML, like Gecko) Chrome/86.0.4240.111 Safari/537.36",39,"[0.9, 0.5, 0.1]","[0.8, 0.4, 0.2]","[u'red', u'black', u'blue']","[u'left', u'middle', u'right']","[0.9, 0.5, 0.1]","[u'low', u'high', u'medium']","blue",51,"right","medium","False","False",323,1800,NA
"A3UKRC3LBM1LEW","Sun Nov 01 2020 11:04:10 GMT-0500 (Eastern Standard Time)","Sun Nov 01 2020 11:11:09 GMT-0500 (Eastern Standard Time)","Mozilla/5.0 (Windows NT 10.0; Win64; x64) AppleWebKit/537.36 (KHTML, like Gecko) Chrome/86.0.4240.111 Safari/537.36",40,"[0.9, 0.5, 0.1]","[0.8, 0.4, 0.2]","[u'red', u'black', u'blue']","[u'left', u'middle', u'right']","[0.9, 0.5, 0.1]","[u'low', u'high', u'medium']","red",49,"left","low","True","False",294,1900,NA
"A3UKRC3LBM1LEW","Sun Nov 01 2020 11:04:10 GMT-0500 (Eastern Standard Time)","Sun Nov 01 2020 11:11:09 GMT-0500 (Eastern Standard Time)","Mozilla/5.0 (Windows NT 10.0; Win64; x64) AppleWebKit/537.36 (KHTML, like Gecko) Chrome/86.0.4240.111 Safari/537.36",41,"[0.9, 0.5, 0.1]","[0.8, 0.4, 0.2]","[u'red', u'black', u'blue']","[u'left', u'middle', u'right']","[0.9, 0.5, 0.1]","[u'medium', u'low', u'high']","red",49,"left","medium","False","False",359,1850,NA
"A3UKRC3LBM1LEW","Sun Nov 01 2020 11:04:10 GMT-0500 (Eastern Standard Time)","Sun Nov 01 2020 11:11:09 GMT-0500 (Eastern Standard Time)","Mozilla/5.0 (Windows NT 10.0; Win64; x64) AppleWebKit/537.36 (KHTML, like Gecko) Chrome/86.0.4240.111 Safari/537.36",42,"[0.9, 0.5, 0.1]","[0.8, 0.4, 0.2]","[u'red', u'black', u'blue']","[u'left', u'middle', u'right']","[0.9, 0.5, 0.1]","[u'medium', u'low', u'high']","red",49,"left","medium","True","False",288,1950,NA
"A3UKRC3LBM1LEW","Sun Nov 01 2020 11:04:10 GMT-0500 (Eastern Standard Time)","Sun Nov 01 2020 11:11:09 GMT-0500 (Eastern Standard Time)","Mozilla/5.0 (Windows NT 10.0; Win64; x64) AppleWebKit/537.36 (KHTML, like Gecko) Chrome/86.0.4240.111 Safari/537.36",43,"[0.9, 0.5, 0.1]","[0.8, 0.4, 0.2]","[u'red', u'black', u'blue']","[u'left', u'middle', u'right']","[0.9, 0.5, 0.1]","[u'medium', u'low', u'high']","red",49,"left","medium","True","False",263,2050,NA
"A3UKRC3LBM1LEW","Sun Nov 01 2020 11:04:10 GMT-0500 (Eastern Standard Time)","Sun Nov 01 2020 11:11:09 GMT-0500 (Eastern Standard Time)","Mozilla/5.0 (Windows NT 10.0; Win64; x64) AppleWebKit/537.36 (KHTML, like Gecko) Chrome/86.0.4240.111 Safari/537.36",44,"[0.9, 0.5, 0.1]","[0.8, 0.4, 0.2]","[u'red', u'black', u'blue']","[u'left', u'middle', u'right']","[0.9, 0.5, 0.1]","[u'medium', u'low', u'high']","red",49,"left","medium","False","False",253,2000,NA
"A3UKRC3LBM1LEW","Sun Nov 01 2020 11:04:10 GMT-0500 (Eastern Standard Time)","Sun Nov 01 2020 11:11:09 GMT-0500 (Eastern Standard Time)","Mozilla/5.0 (Windows NT 10.0; Win64; x64) AppleWebKit/537.36 (KHTML, like Gecko) Chrome/86.0.4240.111 Safari/537.36",45,"[0.9, 0.5, 0.1]","[0.8, 0.4, 0.2]","[u'red', u'black', u'blue']","[u'left', u'middle', u'right']","[0.9, 0.5, 0.1]","[u'medium', u'low', u'high']","red",49,"left","medium","True","False",281,2100,NA
"A3UKRC3LBM1LEW","Sun Nov 01 2020 11:04:10 GMT-0500 (Eastern Standard Time)","Sun Nov 01 2020 11:11:09 GMT-0500 (Eastern Standard Time)","Mozilla/5.0 (Windows NT 10.0; Win64; x64) AppleWebKit/537.36 (KHTML, like Gecko) Chrome/86.0.4240.111 Safari/537.36",46,"[0.9, 0.5, 0.1]","[0.8, 0.4, 0.2]","[u'red', u'black', u'blue']","[u'left', u'middle', u'right']","[0.9, 0.5, 0.1]","[u'medium', u'low', u'high']","red",49,"left","medium","True","False",255,2200,NA
"A3UKRC3LBM1LEW","Sun Nov 01 2020 11:04:10 GMT-0500 (Eastern Standard Time)","Sun Nov 01 2020 11:11:09 GMT-0500 (Eastern Standard Time)","Mozilla/5.0 (Windows NT 10.0; Win64; x64) AppleWebKit/537.36 (KHTML, like Gecko) Chrome/86.0.4240.111 Safari/537.36",47,"[0.9, 0.5, 0.1]","[0.8, 0.4, 0.2]","[u'red', u'black', u'blue']","[u'left', u'middle', u'right']","[0.9, 0.5, 0.1]","[u'medium', u'low', u'high']","red",49,"left","medium","False","False",443,2150,NA
"A3UKRC3LBM1LEW","Sun Nov 01 2020 11:04:10 GMT-0500 (Eastern Standard Time)","Sun Nov 01 2020 11:11:09 GMT-0500 (Eastern Standard Time)","Mozilla/5.0 (Windows NT 10.0; Win64; x64) AppleWebKit/537.36 (KHTML, like Gecko) Chrome/86.0.4240.111 Safari/537.36",48,"[0.9, 0.5, 0.1]","[0.8, 0.4, 0.2]","[u'red', u'black', u'blue']","[u'left', u'middle', u'right']","[0.9, 0.5, 0.1]","[u'medium', u'low', u'high']","red",49,"left","medium","True","False",348,2250,NA
"A3UKRC3LBM1LEW","Sun Nov 01 2020 11:04:10 GMT-0500 (Eastern Standard Time)","Sun Nov 01 2020 11:11:09 GMT-0500 (Eastern Standard Time)","Mozilla/5.0 (Windows NT 10.0; Win64; x64) AppleWebKit/537.36 (KHTML, like Gecko) Chrome/86.0.4240.111 Safari/537.36",49,"[0.9, 0.5, 0.1]","[0.8, 0.4, 0.2]","[u'red', u'black', u'blue']","[u'left', u'middle', u'right']","[0.9, 0.5, 0.1]","[u'medium', u'low', u'high']","red",49,"left","medium","True","False",285,2350,NA
"A3UKRC3LBM1LEW","Sun Nov 01 2020 11:04:10 GMT-0500 (Eastern Standard Time)","Sun Nov 01 2020 11:11:09 GMT-0500 (Eastern Standard Time)","Mozilla/5.0 (Windows NT 10.0; Win64; x64) AppleWebKit/537.36 (KHTML, like Gecko) Chrome/86.0.4240.111 Safari/537.36",50,"[0.9, 0.5, 0.1]","[0.8, 0.4, 0.2]","[u'red', u'black', u'blue']","[u'left', u'middle', u'right']","[0.9, 0.5, 0.1]","[u'medium', u'low', u'high']","red",49,"left","medium","True","False",356,2450,NA
"A3UKRC3LBM1LEW","Sun Nov 01 2020 11:04:10 GMT-0500 (Eastern Standard Time)","Sun Nov 01 2020 11:11:09 GMT-0500 (Eastern Standard Time)","Mozilla/5.0 (Windows NT 10.0; Win64; x64) AppleWebKit/537.36 (KHTML, like Gecko) Chrome/86.0.4240.111 Safari/537.36",51,"[0.9, 0.5, 0.1]","[0.8, 0.4, 0.2]","[u'red', u'black', u'blue']","[u'left', u'middle', u'right']","[0.9, 0.5, 0.1]","[u'medium', u'low', u'high']","red",49,"left","medium","True","False",351,2550,NA
"A3UKRC3LBM1LEW","Sun Nov 01 2020 11:04:10 GMT-0500 (Eastern Standard Time)","Sun Nov 01 2020 11:11:09 GMT-0500 (Eastern Standard Time)","Mozilla/5.0 (Windows NT 10.0; Win64; x64) AppleWebKit/537.36 (KHTML, like Gecko) Chrome/86.0.4240.111 Safari/537.36",52,"[0.9, 0.5, 0.1]","[0.8, 0.4, 0.2]","[u'red', u'black', u'blue']","[u'left', u'middle', u'right']","[0.9, 0.5, 0.1]","[u'medium', u'low', u'high']","red",49,"left","medium","False","False",260,2500,NA
"A3UKRC3LBM1LEW","Sun Nov 01 2020 11:04:10 GMT-0500 (Eastern Standard Time)","Sun Nov 01 2020 11:11:09 GMT-0500 (Eastern Standard Time)","Mozilla/5.0 (Windows NT 10.0; Win64; x64) AppleWebKit/537.36 (KHTML, like Gecko) Chrome/86.0.4240.111 Safari/537.36",53,"[0.9, 0.5, 0.1]","[0.8, 0.4, 0.2]","[u'red', u'black', u'blue']","[u'left', u'middle', u'right']","[0.9, 0.5, 0.1]","[u'medium', u'low', u'high']","red",49,"left","medium","False","False",277,2450,NA
"A3UKRC3LBM1LEW","Sun Nov 01 2020 11:04:10 GMT-0500 (Eastern Standard Time)","Sun Nov 01 2020 11:11:09 GMT-0500 (Eastern Standard Time)","Mozilla/5.0 (Windows NT 10.0; Win64; x64) AppleWebKit/537.36 (KHTML, like Gecko) Chrome/86.0.4240.111 Safari/537.36",54,"[0.9, 0.5, 0.1]","[0.8, 0.4, 0.2]","[u'red', u'black', u'blue']","[u'left', u'middle', u'right']","[0.9, 0.5, 0.1]","[u'medium', u'low', u'high']","red",49,"left","medium","False","False",270,2400,NA
"A3UKRC3LBM1LEW","Sun Nov 01 2020 11:04:10 GMT-0500 (Eastern Standard Time)","Sun Nov 01 2020 11:11:09 GMT-0500 (Eastern Standard Time)","Mozilla/5.0 (Windows NT 10.0; Win64; x64) AppleWebKit/537.36 (KHTML, like Gecko) Chrome/86.0.4240.111 Safari/537.36",55,"[0.9, 0.5, 0.1]","[0.8, 0.4, 0.2]","[u'red', u'black', u'blue']","[u'left', u'middle', u'right']","[0.9, 0.5, 0.1]","[u'medium', u'low', u'high']","black",50,"middle","low","False","False",284,2350,NA
"A3UKRC3LBM1LEW","Sun Nov 01 2020 11:04:10 GMT-0500 (Eastern Standard Time)","Sun Nov 01 2020 11:11:09 GMT-0500 (Eastern Standard Time)","Mozilla/5.0 (Windows NT 10.0; Win64; x64) AppleWebKit/537.36 (KHTML, like Gecko) Chrome/86.0.4240.111 Safari/537.36",56,"[0.9, 0.5, 0.1]","[0.8, 0.4, 0.2]","[u'red', u'black', u'blue']","[u'left', u'middle', u'right']","[0.9, 0.5, 0.1]","[u'medium', u'low', u'high']","blue",51,"right","high","True","False",318,2450,NA
"A3UKRC3LBM1LEW","Sun Nov 01 2020 11:04:10 GMT-0500 (Eastern Standard Time)","Sun Nov 01 2020 11:11:09 GMT-0500 (Eastern Standard Time)","Mozilla/5.0 (Windows NT 10.0; Win64; x64) AppleWebKit/537.36 (KHTML, like Gecko) Chrome/86.0.4240.111 Safari/537.36",57,"[0.9, 0.5, 0.1]","[0.8, 0.4, 0.2]","[u'red', u'black', u'blue']","[u'left', u'middle', u'right']","[0.9, 0.5, 0.1]","[u'medium', u'low', u'high']","blue",51,"right","high","True","False",227,2550,NA
"A3UKRC3LBM1LEW","Sun Nov 01 2020 11:04:10 GMT-0500 (Eastern Standard Time)","Sun Nov 01 2020 11:11:09 GMT-0500 (Eastern Standard Time)","Mozilla/5.0 (Windows NT 10.0; Win64; x64) AppleWebKit/537.36 (KHTML, like Gecko) Chrome/86.0.4240.111 Safari/537.36",58,"[0.9, 0.5, 0.1]","[0.8, 0.4, 0.2]","[u'red', u'black', u'blue']","[u'left', u'middle', u'right']","[0.9, 0.5, 0.1]","[u'medium', u'low', u'high']","blue",51,"right","high","True","False",263,2650,NA
"A3UKRC3LBM1LEW","Sun Nov 01 2020 11:04:10 GMT-0500 (Eastern Standard Time)","Sun Nov 01 2020 11:11:09 GMT-0500 (Eastern Standard Time)","Mozilla/5.0 (Windows NT 10.0; Win64; x64) AppleWebKit/537.36 (KHTML, like Gecko) Chrome/86.0.4240.111 Safari/537.36",59,"[0.9, 0.5, 0.1]","[0.8, 0.4, 0.2]","[u'red', u'black', u'blue']","[u'left', u'middle', u'right']","[0.9, 0.5, 0.1]","[u'medium', u'low', u'high']","blue",51,"right","high","True","False",299,2750,NA
"A3UKRC3LBM1LEW","Sun Nov 01 2020 11:04:10 GMT-0500 (Eastern Standard Time)","Sun Nov 01 2020 11:11:09 GMT-0500 (Eastern Standard Time)","Mozilla/5.0 (Windows NT 10.0; Win64; x64) AppleWebKit/537.36 (KHTML, like Gecko) Chrome/86.0.4240.111 Safari/537.36",60,"[0.9, 0.5, 0.1]","[0.8, 0.4, 0.2]","[u'red', u'black', u'blue']","[u'left', u'middle', u'right']","[0.9, 0.5, 0.1]","[u'medium', u'low', u'high']","blue",51,"right","high","True","False",270,2850,NA
"A3UKRC3LBM1LEW","Sun Nov 01 2020 11:04:10 GMT-0500 (Eastern Standard Time)","Sun Nov 01 2020 11:11:09 GMT-0500 (Eastern Standard Time)","Mozilla/5.0 (Windows NT 10.0; Win64; x64) AppleWebKit/537.36 (KHTML, like Gecko) Chrome/86.0.4240.111 Safari/537.36",61,"[0.9, 0.5, 0.1]","[0.8, 0.4, 0.2]","[u'red', u'black', u'blue']","[u'left', u'middle', u'right']","[0.9, 0.5, 0.1]","[u'medium', u'low', u'high']","blue",51,"right","high","True","False",272,2950,NA
"A3UKRC3LBM1LEW","Sun Nov 01 2020 11:04:10 GMT-0500 (Eastern Standard Time)","Sun Nov 01 2020 11:11:09 GMT-0500 (Eastern Standard Time)","Mozilla/5.0 (Windows NT 10.0; Win64; x64) AppleWebKit/537.36 (KHTML, like Gecko) Chrome/86.0.4240.111 Safari/537.36",62,"[0.9, 0.5, 0.1]","[0.8, 0.4, 0.2]","[u'red', u'black', u'blue']","[u'left', u'middle', u'right']","[0.9, 0.5, 0.1]","[u'medium', u'low', u'high']","blue",51,"right","high","True","False",285,3050,NA
"A3UKRC3LBM1LEW","Sun Nov 01 2020 11:04:10 GMT-0500 (Eastern Standard Time)","Sun Nov 01 2020 11:11:09 GMT-0500 (Eastern Standard Time)","Mozilla/5.0 (Windows NT 10.0; Win64; x64) AppleWebKit/537.36 (KHTML, like Gecko) Chrome/86.0.4240.111 Safari/537.36",63,"[0.9, 0.5, 0.1]","[0.8, 0.4, 0.2]","[u'red', u'black', u'blue']","[u'left', u'middle', u'right']","[0.9, 0.5, 0.1]","[u'medium', u'low', u'high']","blue",51,"right","high","True","False",339,3150,NA
"A3UKRC3LBM1LEW","Sun Nov 01 2020 11:04:10 GMT-0500 (Eastern Standard Time)","Sun Nov 01 2020 11:11:09 GMT-0500 (Eastern Standard Time)","Mozilla/5.0 (Windows NT 10.0; Win64; x64) AppleWebKit/537.36 (KHTML, like Gecko) Chrome/86.0.4240.111 Safari/537.36",64,"[0.9, 0.5, 0.1]","[0.8, 0.4, 0.2]","[u'red', u'black', u'blue']","[u'left', u'middle', u'right']","[0.9, 0.5, 0.1]","[u'medium', u'low', u'high']","blue",51,"right","high","True","True",256,3250,NA
"A3UKRC3LBM1LEW","Sun Nov 01 2020 11:04:10 GMT-0500 (Eastern Standard Time)","Sun Nov 01 2020 11:11:09 GMT-0500 (Eastern Standard Time)","Mozilla/5.0 (Windows NT 10.0; Win64; x64) AppleWebKit/537.36 (KHTML, like Gecko) Chrome/86.0.4240.111 Safari/537.36",65,"[0.9, 0.5, 0.1]","[0.8, 0.4, 0.2]","[u'red', u'black', u'blue']","[u'left', u'middle', u'right']","[0.9, 0.5, 0.1]","[u'medium', u'high', u'low']","blue",51,"right","low","False","False",284,3200,NA
"A3UKRC3LBM1LEW","Sun Nov 01 2020 11:04:10 GMT-0500 (Eastern Standard Time)","Sun Nov 01 2020 11:11:09 GMT-0500 (Eastern Standard Time)","Mozilla/5.0 (Windows NT 10.0; Win64; x64) AppleWebKit/537.36 (KHTML, like Gecko) Chrome/86.0.4240.111 Safari/537.36",66,"[0.9, 0.5, 0.1]","[0.8, 0.4, 0.2]","[u'red', u'black', u'blue']","[u'left', u'middle', u'right']","[0.9, 0.5, 0.1]","[u'medium', u'high', u'low']","red",49,"left","medium","True","False",311,3300,NA
"A3UKRC3LBM1LEW","Sun Nov 01 2020 11:04:10 GMT-0500 (Eastern Standard Time)","Sun Nov 01 2020 11:11:09 GMT-0500 (Eastern Standard Time)","Mozilla/5.0 (Windows NT 10.0; Win64; x64) AppleWebKit/537.36 (KHTML, like Gecko) Chrome/86.0.4240.111 Safari/537.36",67,"[0.9, 0.5, 0.1]","[0.8, 0.4, 0.2]","[u'red', u'black', u'blue']","[u'left', u'middle', u'right']","[0.9, 0.5, 0.1]","[u'medium', u'high', u'low']","red",49,"left","medium","False","False",295,3250,NA
"A3UKRC3LBM1LEW","Sun Nov 01 2020 11:04:10 GMT-0500 (Eastern Standard Time)","Sun Nov 01 2020 11:11:09 GMT-0500 (Eastern Standard Time)","Mozilla/5.0 (Windows NT 10.0; Win64; x64) AppleWebKit/537.36 (KHTML, like Gecko) Chrome/86.0.4240.111 Safari/537.36",68,"[0.9, 0.5, 0.1]","[0.8, 0.4, 0.2]","[u'red', u'black', u'blue']","[u'left', u'middle', u'right']","[0.9, 0.5, 0.1]","[u'medium', u'high', u'low']","red",49,"left","medium","True","False",287,3350,NA
"A3UKRC3LBM1LEW","Sun Nov 01 2020 11:04:10 GMT-0500 (Eastern Standard Time)","Sun Nov 01 2020 11:11:09 GMT-0500 (Eastern Standard Time)","Mozilla/5.0 (Windows NT 10.0; Win64; x64) AppleWebKit/537.36 (KHTML, like Gecko) Chrome/86.0.4240.111 Safari/537.36",69,"[0.9, 0.5, 0.1]","[0.8, 0.4, 0.2]","[u'red', u'black', u'blue']","[u'left', u'middle', u'right']","[0.9, 0.5, 0.1]","[u'medium', u'high', u'low']","red",49,"left","medium","True","False",317,3450,NA
"A3UKRC3LBM1LEW","Sun Nov 01 2020 11:04:10 GMT-0500 (Eastern Standard Time)","Sun Nov 01 2020 11:11:09 GMT-0500 (Eastern Standard Time)","Mozilla/5.0 (Windows NT 10.0; Win64; x64) AppleWebKit/537.36 (KHTML, like Gecko) Chrome/86.0.4240.111 Safari/537.36",70,"[0.9, 0.5, 0.1]","[0.8, 0.4, 0.2]","[u'red', u'black', u'blue']","[u'left', u'middle', u'right']","[0.9, 0.5, 0.1]","[u'medium', u'high', u'low']","red",49,"left","medium","True","False",290,3550,NA
"A3UKRC3LBM1LEW","Sun Nov 01 2020 11:04:10 GMT-0500 (Eastern Standard Time)","Sun Nov 01 2020 11:11:09 GMT-0500 (Eastern Standard Time)","Mozilla/5.0 (Windows NT 10.0; Win64; x64) AppleWebKit/537.36 (KHTML, like Gecko) Chrome/86.0.4240.111 Safari/537.36",71,"[0.9, 0.5, 0.1]","[0.8, 0.4, 0.2]","[u'red', u'black', u'blue']","[u'left', u'middle', u'right']","[0.9, 0.5, 0.1]","[u'medium', u'high', u'low']","red",49,"left","medium","True","False",620,3650,NA
"A3UKRC3LBM1LEW","Sun Nov 01 2020 11:04:10 GMT-0500 (Eastern Standard Time)","Sun Nov 01 2020 11:11:09 GMT-0500 (Eastern Standard Time)","Mozilla/5.0 (Windows NT 10.0; Win64; x64) AppleWebKit/537.36 (KHTML, like Gecko) Chrome/86.0.4240.111 Safari/537.36",72,"[0.9, 0.5, 0.1]","[0.8, 0.4, 0.2]","[u'red', u'black', u'blue']","[u'left', u'middle', u'right']","[0.9, 0.5, 0.1]","[u'medium', u'high', u'low']","red",49,"left","medium","False","False",390,3600,NA
"A3UKRC3LBM1LEW","Sun Nov 01 2020 11:04:10 GMT-0500 (Eastern Standard Time)","Sun Nov 01 2020 11:11:09 GMT-0500 (Eastern Standard Time)","Mozilla/5.0 (Windows NT 10.0; Win64; x64) AppleWebKit/537.36 (KHTML, like Gecko) Chrome/86.0.4240.111 Safari/537.36",73,"[0.9, 0.5, 0.1]","[0.8, 0.4, 0.2]","[u'red', u'black', u'blue']","[u'left', u'middle', u'right']","[0.9, 0.5, 0.1]","[u'medium', u'high', u'low']","red",49,"left","medium","False","False",347,3550,NA
"A3UKRC3LBM1LEW","Sun Nov 01 2020 11:04:10 GMT-0500 (Eastern Standard Time)","Sun Nov 01 2020 11:11:09 GMT-0500 (Eastern Standard Time)","Mozilla/5.0 (Windows NT 10.0; Win64; x64) AppleWebKit/537.36 (KHTML, like Gecko) Chrome/86.0.4240.111 Safari/537.36",74,"[0.9, 0.5, 0.1]","[0.8, 0.4, 0.2]","[u'red', u'black', u'blue']","[u'left', u'middle', u'right']","[0.9, 0.5, 0.1]","[u'medium', u'high', u'low']","red",49,"left","medium","True","False",410,3650,NA
"A3UKRC3LBM1LEW","Sun Nov 01 2020 11:04:10 GMT-0500 (Eastern Standard Time)","Sun Nov 01 2020 11:11:09 GMT-0500 (Eastern Standard Time)","Mozilla/5.0 (Windows NT 10.0; Win64; x64) AppleWebKit/537.36 (KHTML, like Gecko) Chrome/86.0.4240.111 Safari/537.36",75,"[0.9, 0.5, 0.1]","[0.8, 0.4, 0.2]","[u'red', u'black', u'blue']","[u'left', u'middle', u'right']","[0.9, 0.5, 0.1]","[u'medium', u'high', u'low']","red",49,"left","medium","True","False",301,3750,NA
"A3UKRC3LBM1LEW","Sun Nov 01 2020 11:04:10 GMT-0500 (Eastern Standard Time)","Sun Nov 01 2020 11:11:09 GMT-0500 (Eastern Standard Time)","Mozilla/5.0 (Windows NT 10.0; Win64; x64) AppleWebKit/537.36 (KHTML, like Gecko) Chrome/86.0.4240.111 Safari/537.36",76,"[0.9, 0.5, 0.1]","[0.8, 0.4, 0.2]","[u'red', u'black', u'blue']","[u'left', u'middle', u'right']","[0.9, 0.5, 0.1]","[u'medium', u'high', u'low']","red",49,"left","medium","True","False",479,3850,NA
"A3UKRC3LBM1LEW","Sun Nov 01 2020 11:04:10 GMT-0500 (Eastern Standard Time)","Sun Nov 01 2020 11:11:09 GMT-0500 (Eastern Standard Time)","Mozilla/5.0 (Windows NT 10.0; Win64; x64) AppleWebKit/537.36 (KHTML, like Gecko) Chrome/86.0.4240.111 Safari/537.36",77,"[0.9, 0.5, 0.1]","[0.8, 0.4, 0.2]","[u'red', u'black', u'blue']","[u'left', u'middle', u'right']","[0.9, 0.5, 0.1]","[u'medium', u'high', u'low']","red",49,"left","medium","True","False",530,3950,NA
"A3UKRC3LBM1LEW","Sun Nov 01 2020 11:04:10 GMT-0500 (Eastern Standard Time)","Sun Nov 01 2020 11:11:09 GMT-0500 (Eastern Standard Time)","Mozilla/5.0 (Windows NT 10.0; Win64; x64) AppleWebKit/537.36 (KHTML, like Gecko) Chrome/86.0.4240.111 Safari/537.36",78,"[0.9, 0.5, 0.1]","[0.8, 0.4, 0.2]","[u'red', u'black', u'blue']","[u'left', u'middle', u'right']","[0.9, 0.5, 0.1]","[u'medium', u'high', u'low']","red",49,"left","medium","False","False",405,3900,NA
"A3UKRC3LBM1LEW","Sun Nov 01 2020 11:04:10 GMT-0500 (Eastern Standard Time)","Sun Nov 01 2020 11:11:09 GMT-0500 (Eastern Standard Time)","Mozilla/5.0 (Windows NT 10.0; Win64; x64) AppleWebKit/537.36 (KHTML, like Gecko) Chrome/86.0.4240.111 Safari/537.36",79,"[0.9, 0.5, 0.1]","[0.8, 0.4, 0.2]","[u'red', u'black', u'blue']","[u'left', u'middle', u'right']","[0.9, 0.5, 0.1]","[u'medium', u'high', u'low']","red",49,"left","medium","False","False",356,3850,NA
"A3UKRC3LBM1LEW","Sun Nov 01 2020 11:04:10 GMT-0500 (Eastern Standard Time)","Sun Nov 01 2020 11:11:09 GMT-0500 (Eastern Standard Time)","Mozilla/5.0 (Windows NT 10.0; Win64; x64) AppleWebKit/537.36 (KHTML, like Gecko) Chrome/86.0.4240.111 Safari/537.36",80,"[0.9, 0.5, 0.1]","[0.8, 0.4, 0.2]","[u'red', u'black', u'blue']","[u'left', u'middle', u'right']","[0.9, 0.5, 0.1]","[u'medium', u'high', u'low']","red",49,"left","medium","False","False",517,3800,NA
"A3UKRC3LBM1LEW","Sun Nov 01 2020 11:04:10 GMT-0500 (Eastern Standard Time)","Sun Nov 01 2020 11:11:09 GMT-0500 (Eastern Standard Time)","Mozilla/5.0 (Windows NT 10.0; Win64; x64) AppleWebKit/537.36 (KHTML, like Gecko) Chrome/86.0.4240.111 Safari/537.36",81,"[0.9, 0.5, 0.1]","[0.8, 0.4, 0.2]","[u'red', u'black', u'blue']","[u'left', u'middle', u'right']","[0.8, 0.4, 0.2]","[u'low', u'medium', u'high']","blue",51,"right","high","True","False",537,3900,NA
"A3UKRC3LBM1LEW","Sun Nov 01 2020 11:04:10 GMT-0500 (Eastern Standard Time)","Sun Nov 01 2020 11:11:09 GMT-0500 (Eastern Standard Time)","Mozilla/5.0 (Windows NT 10.0; Win64; x64) AppleWebKit/537.36 (KHTML, like Gecko) Chrome/86.0.4240.111 Safari/537.36",82,"[0.9, 0.5, 0.1]","[0.8, 0.4, 0.2]","[u'red', u'black', u'blue']","[u'left', u'middle', u'right']","[0.8, 0.4, 0.2]","[u'low', u'medium', u'high']","blue",51,"right","high","True","False",398,4000,NA
"A3UKRC3LBM1LEW","Sun Nov 01 2020 11:04:10 GMT-0500 (Eastern Standard Time)","Sun Nov 01 2020 11:11:09 GMT-0500 (Eastern Standard Time)","Mozilla/5.0 (Windows NT 10.0; Win64; x64) AppleWebKit/537.36 (KHTML, like Gecko) Chrome/86.0.4240.111 Safari/537.36",83,"[0.9, 0.5, 0.1]","[0.8, 0.4, 0.2]","[u'red', u'black', u'blue']","[u'left', u'middle', u'right']","[0.8, 0.4, 0.2]","[u'low', u'medium', u'high']","blue",51,"right","high","False","False",370,3950,NA
"A3UKRC3LBM1LEW","Sun Nov 01 2020 11:04:10 GMT-0500 (Eastern Standard Time)","Sun Nov 01 2020 11:11:09 GMT-0500 (Eastern Standard Time)","Mozilla/5.0 (Windows NT 10.0; Win64; x64) AppleWebKit/537.36 (KHTML, like Gecko) Chrome/86.0.4240.111 Safari/537.36",84,"[0.9, 0.5, 0.1]","[0.8, 0.4, 0.2]","[u'red', u'black', u'blue']","[u'left', u'middle', u'right']","[0.8, 0.4, 0.2]","[u'low', u'medium', u'high']","blue",51,"right","high","True","False",374,4050,NA
"A3UKRC3LBM1LEW","Sun Nov 01 2020 11:04:10 GMT-0500 (Eastern Standard Time)","Sun Nov 01 2020 11:11:09 GMT-0500 (Eastern Standard Time)","Mozilla/5.0 (Windows NT 10.0; Win64; x64) AppleWebKit/537.36 (KHTML, like Gecko) Chrome/86.0.4240.111 Safari/537.36",85,"[0.9, 0.5, 0.1]","[0.8, 0.4, 0.2]","[u'red', u'black', u'blue']","[u'left', u'middle', u'right']","[0.8, 0.4, 0.2]","[u'low', u'medium', u'high']","blue",51,"right","high","True","False",289,4150,NA
"A3UKRC3LBM1LEW","Sun Nov 01 2020 11:04:10 GMT-0500 (Eastern Standard Time)","Sun Nov 01 2020 11:11:09 GMT-0500 (Eastern Standard Time)","Mozilla/5.0 (Windows NT 10.0; Win64; x64) AppleWebKit/537.36 (KHTML, like Gecko) Chrome/86.0.4240.111 Safari/537.36",86,"[0.9, 0.5, 0.1]","[0.8, 0.4, 0.2]","[u'red', u'black', u'blue']","[u'left', u'middle', u'right']","[0.8, 0.4, 0.2]","[u'low', u'medium', u'high']","blue",51,"right","high","True","False",354,4250,NA
"A3UKRC3LBM1LEW","Sun Nov 01 2020 11:04:10 GMT-0500 (Eastern Standard Time)","Sun Nov 01 2020 11:11:09 GMT-0500 (Eastern Standard Time)","Mozilla/5.0 (Windows NT 10.0; Win64; x64) AppleWebKit/537.36 (KHTML, like Gecko) Chrome/86.0.4240.111 Safari/537.36",87,"[0.9, 0.5, 0.1]","[0.8, 0.4, 0.2]","[u'red', u'black', u'blue']","[u'left', u'middle', u'right']","[0.8, 0.4, 0.2]","[u'low', u'medium', u'high']","blue",51,"right","high","True","False",420,4350,NA
"A3UKRC3LBM1LEW","Sun Nov 01 2020 11:04:10 GMT-0500 (Eastern Standard Time)","Sun Nov 01 2020 11:11:09 GMT-0500 (Eastern Standard Time)","Mozilla/5.0 (Windows NT 10.0; Win64; x64) AppleWebKit/537.36 (KHTML, like Gecko) Chrome/86.0.4240.111 Safari/537.36",88,"[0.9, 0.5, 0.1]","[0.8, 0.4, 0.2]","[u'red', u'black', u'blue']","[u'left', u'middle', u'right']","[0.8, 0.4, 0.2]","[u'low', u'medium', u'high']","blue",51,"right","high","False","False",347,4300,NA
"A3UKRC3LBM1LEW","Sun Nov 01 2020 11:04:10 GMT-0500 (Eastern Standard Time)","Sun Nov 01 2020 11:11:09 GMT-0500 (Eastern Standard Time)","Mozilla/5.0 (Windows NT 10.0; Win64; x64) AppleWebKit/537.36 (KHTML, like Gecko) Chrome/86.0.4240.111 Safari/537.36",89,"[0.9, 0.5, 0.1]","[0.8, 0.4, 0.2]","[u'red', u'black', u'blue']","[u'left', u'middle', u'right']","[0.8, 0.4, 0.2]","[u'low', u'medium', u'high']","blue",51,"right","high","True","True",375,4400,NA
"A3UKRC3LBM1LEW","Sun Nov 01 2020 11:04:10 GMT-0500 (Eastern Standard Time)","Sun Nov 01 2020 11:11:09 GMT-0500 (Eastern Standard Time)","Mozilla/5.0 (Windows NT 10.0; Win64; x64) AppleWebKit/537.36 (KHTML, like Gecko) Chrome/86.0.4240.111 Safari/537.36",90,"[0.9, 0.5, 0.1]","[0.8, 0.4, 0.2]","[u'red', u'black', u'blue']","[u'left', u'middle', u'right']","[0.8, 0.4, 0.2]","[u'high', u'low', u'medium']","blue",51,"right","medium","False","False",309,4350,NA
"A3UKRC3LBM1LEW","Sun Nov 01 2020 11:04:10 GMT-0500 (Eastern Standard Time)","Sun Nov 01 2020 11:11:09 GMT-0500 (Eastern Standard Time)","Mozilla/5.0 (Windows NT 10.0; Win64; x64) AppleWebKit/537.36 (KHTML, like Gecko) Chrome/86.0.4240.111 Safari/537.36",91,"[0.9, 0.5, 0.1]","[0.8, 0.4, 0.2]","[u'red', u'black', u'blue']","[u'left', u'middle', u'right']","[0.8, 0.4, 0.2]","[u'high', u'low', u'medium']","blue",51,"right","medium","True","False",304,4450,NA
"A3UKRC3LBM1LEW","Sun Nov 01 2020 11:04:10 GMT-0500 (Eastern Standard Time)","Sun Nov 01 2020 11:11:09 GMT-0500 (Eastern Standard Time)","Mozilla/5.0 (Windows NT 10.0; Win64; x64) AppleWebKit/537.36 (KHTML, like Gecko) Chrome/86.0.4240.111 Safari/537.36",92,"[0.9, 0.5, 0.1]","[0.8, 0.4, 0.2]","[u'red', u'black', u'blue']","[u'left', u'middle', u'right']","[0.8, 0.4, 0.2]","[u'high', u'low', u'medium']","blue",51,"right","medium","False","False",370,4400,NA
"A3UKRC3LBM1LEW","Sun Nov 01 2020 11:04:10 GMT-0500 (Eastern Standard Time)","Sun Nov 01 2020 11:11:09 GMT-0500 (Eastern Standard Time)","Mozilla/5.0 (Windows NT 10.0; Win64; x64) AppleWebKit/537.36 (KHTML, like Gecko) Chrome/86.0.4240.111 Safari/537.36",93,"[0.9, 0.5, 0.1]","[0.8, 0.4, 0.2]","[u'red', u'black', u'blue']","[u'left', u'middle', u'right']","[0.8, 0.4, 0.2]","[u'high', u'low', u'medium']","blue",51,"right","medium","True","False",334,4500,NA
"A3UKRC3LBM1LEW","Sun Nov 01 2020 11:04:10 GMT-0500 (Eastern Standard Time)","Sun Nov 01 2020 11:11:09 GMT-0500 (Eastern Standard Time)","Mozilla/5.0 (Windows NT 10.0; Win64; x64) AppleWebKit/537.36 (KHTML, like Gecko) Chrome/86.0.4240.111 Safari/537.36",94,"[0.9, 0.5, 0.1]","[0.8, 0.4, 0.2]","[u'red', u'black', u'blue']","[u'left', u'middle', u'right']","[0.8, 0.4, 0.2]","[u'high', u'low', u'medium']","blue",51,"right","medium","False","False",309,4450,NA
"A3UKRC3LBM1LEW","Sun Nov 01 2020 11:04:10 GMT-0500 (Eastern Standard Time)","Sun Nov 01 2020 11:11:09 GMT-0500 (Eastern Standard Time)","Mozilla/5.0 (Windows NT 10.0; Win64; x64) AppleWebKit/537.36 (KHTML, like Gecko) Chrome/86.0.4240.111 Safari/537.36",95,"[0.9, 0.5, 0.1]","[0.8, 0.4, 0.2]","[u'red', u'black', u'blue']","[u'left', u'middle', u'right']","[0.8, 0.4, 0.2]","[u'high', u'low', u'medium']","blue",51,"right","medium","True","False",426,4550,NA
"A3UKRC3LBM1LEW","Sun Nov 01 2020 11:04:10 GMT-0500 (Eastern Standard Time)","Sun Nov 01 2020 11:11:09 GMT-0500 (Eastern Standard Time)","Mozilla/5.0 (Windows NT 10.0; Win64; x64) AppleWebKit/537.36 (KHTML, like Gecko) Chrome/86.0.4240.111 Safari/537.36",96,"[0.9, 0.5, 0.1]","[0.8, 0.4, 0.2]","[u'red', u'black', u'blue']","[u'left', u'middle', u'right']","[0.8, 0.4, 0.2]","[u'high', u'low', u'medium']","blue",51,"right","medium","False","False",397,4500,NA
"A3UKRC3LBM1LEW","Sun Nov 01 2020 11:04:10 GMT-0500 (Eastern Standard Time)","Sun Nov 01 2020 11:11:09 GMT-0500 (Eastern Standard Time)","Mozilla/5.0 (Windows NT 10.0; Win64; x64) AppleWebKit/537.36 (KHTML, like Gecko) Chrome/86.0.4240.111 Safari/537.36",97,"[0.9, 0.5, 0.1]","[0.8, 0.4, 0.2]","[u'red', u'black', u'blue']","[u'left', u'middle', u'right']","[0.8, 0.4, 0.2]","[u'high', u'low', u'medium']","blue",51,"right","medium","False","False",313,4450,NA
"A3UKRC3LBM1LEW","Sun Nov 01 2020 11:04:10 GMT-0500 (Eastern Standard Time)","Sun Nov 01 2020 11:11:09 GMT-0500 (Eastern Standard Time)","Mozilla/5.0 (Windows NT 10.0; Win64; x64) AppleWebKit/537.36 (KHTML, like Gecko) Chrome/86.0.4240.111 Safari/537.36",98,"[0.9, 0.5, 0.1]","[0.8, 0.4, 0.2]","[u'red', u'black', u'blue']","[u'left', u'middle', u'right']","[0.8, 0.4, 0.2]","[u'high', u'low', u'medium']","red",49,"left","high","True","False",409,4550,NA
"A3UKRC3LBM1LEW","Sun Nov 01 2020 11:04:10 GMT-0500 (Eastern Standard Time)","Sun Nov 01 2020 11:11:09 GMT-0500 (Eastern Standard Time)","Mozilla/5.0 (Windows NT 10.0; Win64; x64) AppleWebKit/537.36 (KHTML, like Gecko) Chrome/86.0.4240.111 Safari/537.36",99,"[0.9, 0.5, 0.1]","[0.8, 0.4, 0.2]","[u'red', u'black', u'blue']","[u'left', u'middle', u'right']","[0.8, 0.4, 0.2]","[u'high', u'low', u'medium']","red",49,"left","high","True","False",381,4650,NA
"A3UKRC3LBM1LEW","Sun Nov 01 2020 11:04:10 GMT-0500 (Eastern Standard Time)","Sun Nov 01 2020 11:11:09 GMT-0500 (Eastern Standard Time)","Mozilla/5.0 (Windows NT 10.0; Win64; x64) AppleWebKit/537.36 (KHTML, like Gecko) Chrome/86.0.4240.111 Safari/537.36",100,"[0.9, 0.5, 0.1]","[0.8, 0.4, 0.2]","[u'red', u'black', u'blue']","[u'left', u'middle', u'right']","[0.8, 0.4, 0.2]","[u'high', u'low', u'medium']","red",49,"left","high","True","False",405,4750,NA
"A3UKRC3LBM1LEW","Sun Nov 01 2020 11:04:10 GMT-0500 (Eastern Standard Time)","Sun Nov 01 2020 11:11:09 GMT-0500 (Eastern Standard Time)","Mozilla/5.0 (Windows NT 10.0; Win64; x64) AppleWebKit/537.36 (KHTML, like Gecko) Chrome/86.0.4240.111 Safari/537.36",101,"[0.9, 0.5, 0.1]","[0.8, 0.4, 0.2]","[u'red', u'black', u'blue']","[u'left', u'middle', u'right']","[0.8, 0.4, 0.2]","[u'high', u'low', u'medium']","red",49,"left","high","True","False",398,4850,NA
"A3UKRC3LBM1LEW","Sun Nov 01 2020 11:04:10 GMT-0500 (Eastern Standard Time)","Sun Nov 01 2020 11:11:09 GMT-0500 (Eastern Standard Time)","Mozilla/5.0 (Windows NT 10.0; Win64; x64) AppleWebKit/537.36 (KHTML, like Gecko) Chrome/86.0.4240.111 Safari/537.36",102,"[0.9, 0.5, 0.1]","[0.8, 0.4, 0.2]","[u'red', u'black', u'blue']","[u'left', u'middle', u'right']","[0.8, 0.4, 0.2]","[u'high', u'low', u'medium']","red",49,"left","high","True","False",369,4950,NA
"A3UKRC3LBM1LEW","Sun Nov 01 2020 11:04:10 GMT-0500 (Eastern Standard Time)","Sun Nov 01 2020 11:11:09 GMT-0500 (Eastern Standard Time)","Mozilla/5.0 (Windows NT 10.0; Win64; x64) AppleWebKit/537.36 (KHTML, like Gecko) Chrome/86.0.4240.111 Safari/537.36",103,"[0.9, 0.5, 0.1]","[0.8, 0.4, 0.2]","[u'red', u'black', u'blue']","[u'left', u'middle', u'right']","[0.8, 0.4, 0.2]","[u'high', u'low', u'medium']","red",49,"left","high","True","False",365,5050,NA
"A3UKRC3LBM1LEW","Sun Nov 01 2020 11:04:10 GMT-0500 (Eastern Standard Time)","Sun Nov 01 2020 11:11:09 GMT-0500 (Eastern Standard Time)","Mozilla/5.0 (Windows NT 10.0; Win64; x64) AppleWebKit/537.36 (KHTML, like Gecko) Chrome/86.0.4240.111 Safari/537.36",104,"[0.9, 0.5, 0.1]","[0.8, 0.4, 0.2]","[u'red', u'black', u'blue']","[u'left', u'middle', u'right']","[0.8, 0.4, 0.2]","[u'high', u'low', u'medium']","red",49,"left","high","True","False",427,5150,NA
"A3UKRC3LBM1LEW","Sun Nov 01 2020 11:04:10 GMT-0500 (Eastern Standard Time)","Sun Nov 01 2020 11:11:09 GMT-0500 (Eastern Standard Time)","Mozilla/5.0 (Windows NT 10.0; Win64; x64) AppleWebKit/537.36 (KHTML, like Gecko) Chrome/86.0.4240.111 Safari/537.36",105,"[0.9, 0.5, 0.1]","[0.8, 0.4, 0.2]","[u'red', u'black', u'blue']","[u'left', u'middle', u'right']","[0.8, 0.4, 0.2]","[u'high', u'low', u'medium']","red",49,"left","high","True","False",439,5250,NA
"A3UKRC3LBM1LEW","Sun Nov 01 2020 11:04:10 GMT-0500 (Eastern Standard Time)","Sun Nov 01 2020 11:11:09 GMT-0500 (Eastern Standard Time)","Mozilla/5.0 (Windows NT 10.0; Win64; x64) AppleWebKit/537.36 (KHTML, like Gecko) Chrome/86.0.4240.111 Safari/537.36",106,"[0.9, 0.5, 0.1]","[0.8, 0.4, 0.2]","[u'red', u'black', u'blue']","[u'left', u'middle', u'right']","[0.8, 0.4, 0.2]","[u'high', u'low', u'medium']","red",49,"left","high","True","True",287,5350,NA
"A3UKRC3LBM1LEW","Sun Nov 01 2020 11:04:10 GMT-0500 (Eastern Standard Time)","Sun Nov 01 2020 11:11:09 GMT-0500 (Eastern Standard Time)","Mozilla/5.0 (Windows NT 10.0; Win64; x64) AppleWebKit/537.36 (KHTML, like Gecko) Chrome/86.0.4240.111 Safari/537.36",107,"[0.9, 0.5, 0.1]","[0.8, 0.4, 0.2]","[u'red', u'black', u'blue']","[u'left', u'middle', u'right']","[0.8, 0.4, 0.2]","[u'low', u'medium', u'high']","red",49,"left","low","False","False",373,5300,NA
"A3UKRC3LBM1LEW","Sun Nov 01 2020 11:04:10 GMT-0500 (Eastern Standard Time)","Sun Nov 01 2020 11:11:09 GMT-0500 (Eastern Standard Time)","Mozilla/5.0 (Windows NT 10.0; Win64; x64) AppleWebKit/537.36 (KHTML, like Gecko) Chrome/86.0.4240.111 Safari/537.36",108,"[0.9, 0.5, 0.1]","[0.8, 0.4, 0.2]","[u'red', u'black', u'blue']","[u'left', u'middle', u'right']","[0.8, 0.4, 0.2]","[u'low', u'medium', u'high']","red",49,"left","low","True","False",319,5400,NA
"A3UKRC3LBM1LEW","Sun Nov 01 2020 11:04:10 GMT-0500 (Eastern Standard Time)","Sun Nov 01 2020 11:11:09 GMT-0500 (Eastern Standard Time)","Mozilla/5.0 (Windows NT 10.0; Win64; x64) AppleWebKit/537.36 (KHTML, like Gecko) Chrome/86.0.4240.111 Safari/537.36",109,"[0.9, 0.5, 0.1]","[0.8, 0.4, 0.2]","[u'red', u'black', u'blue']","[u'left', u'middle', u'right']","[0.8, 0.4, 0.2]","[u'low', u'medium', u'high']","red",49,"left","low","False","False",346,5350,NA
"A3UKRC3LBM1LEW","Sun Nov 01 2020 11:04:10 GMT-0500 (Eastern Standard Time)","Sun Nov 01 2020 11:11:09 GMT-0500 (Eastern Standard Time)","Mozilla/5.0 (Windows NT 10.0; Win64; x64) AppleWebKit/537.36 (KHTML, like Gecko) Chrome/86.0.4240.111 Safari/537.36",110,"[0.9, 0.5, 0.1]","[0.8, 0.4, 0.2]","[u'red', u'black', u'blue']","[u'left', u'middle', u'right']","[0.8, 0.4, 0.2]","[u'low', u'medium', u'high']","red",49,"left","low","False","False",342,5300,NA
"A3UKRC3LBM1LEW","Sun Nov 01 2020 11:04:10 GMT-0500 (Eastern Standard Time)","Sun Nov 01 2020 11:11:09 GMT-0500 (Eastern Standard Time)","Mozilla/5.0 (Windows NT 10.0; Win64; x64) AppleWebKit/537.36 (KHTML, like Gecko) Chrome/86.0.4240.111 Safari/537.36",111,"[0.9, 0.5, 0.1]","[0.8, 0.4, 0.2]","[u'red', u'black', u'blue']","[u'left', u'middle', u'right']","[0.8, 0.4, 0.2]","[u'low', u'medium', u'high']","blue",51,"right","high","True","False",577,5400,NA
"A3UKRC3LBM1LEW","Sun Nov 01 2020 11:04:10 GMT-0500 (Eastern Standard Time)","Sun Nov 01 2020 11:11:09 GMT-0500 (Eastern Standard Time)","Mozilla/5.0 (Windows NT 10.0; Win64; x64) AppleWebKit/537.36 (KHTML, like Gecko) Chrome/86.0.4240.111 Safari/537.36",112,"[0.9, 0.5, 0.1]","[0.8, 0.4, 0.2]","[u'red', u'black', u'blue']","[u'left', u'middle', u'right']","[0.8, 0.4, 0.2]","[u'low', u'medium', u'high']","blue",51,"right","high","True","False",333,5500,NA
"A3UKRC3LBM1LEW","Sun Nov 01 2020 11:04:10 GMT-0500 (Eastern Standard Time)","Sun Nov 01 2020 11:11:09 GMT-0500 (Eastern Standard Time)","Mozilla/5.0 (Windows NT 10.0; Win64; x64) AppleWebKit/537.36 (KHTML, like Gecko) Chrome/86.0.4240.111 Safari/537.36",113,"[0.9, 0.5, 0.1]","[0.8, 0.4, 0.2]","[u'red', u'black', u'blue']","[u'left', u'middle', u'right']","[0.8, 0.4, 0.2]","[u'low', u'medium', u'high']","blue",51,"right","high","True","False",364,5600,NA
"A3UKRC3LBM1LEW","Sun Nov 01 2020 11:04:10 GMT-0500 (Eastern Standard Time)","Sun Nov 01 2020 11:11:09 GMT-0500 (Eastern Standard Time)","Mozilla/5.0 (Windows NT 10.0; Win64; x64) AppleWebKit/537.36 (KHTML, like Gecko) Chrome/86.0.4240.111 Safari/537.36",114,"[0.9, 0.5, 0.1]","[0.8, 0.4, 0.2]","[u'red', u'black', u'blue']","[u'left', u'middle', u'right']","[0.8, 0.4, 0.2]","[u'low', u'medium', u'high']","blue",51,"right","high","True","False",353,5700,NA
"A3UKRC3LBM1LEW","Sun Nov 01 2020 11:04:10 GMT-0500 (Eastern Standard Time)","Sun Nov 01 2020 11:11:09 GMT-0500 (Eastern Standard Time)","Mozilla/5.0 (Windows NT 10.0; Win64; x64) AppleWebKit/537.36 (KHTML, like Gecko) Chrome/86.0.4240.111 Safari/537.36",115,"[0.9, 0.5, 0.1]","[0.8, 0.4, 0.2]","[u'red', u'black', u'blue']","[u'left', u'middle', u'right']","[0.8, 0.4, 0.2]","[u'low', u'medium', u'high']","blue",51,"right","high","False","False",433,5650,NA
"A3UKRC3LBM1LEW","Sun Nov 01 2020 11:04:10 GMT-0500 (Eastern Standard Time)","Sun Nov 01 2020 11:11:09 GMT-0500 (Eastern Standard Time)","Mozilla/5.0 (Windows NT 10.0; Win64; x64) AppleWebKit/537.36 (KHTML, like Gecko) Chrome/86.0.4240.111 Safari/537.36",116,"[0.9, 0.5, 0.1]","[0.8, 0.4, 0.2]","[u'red', u'black', u'blue']","[u'left', u'middle', u'right']","[0.8, 0.4, 0.2]","[u'low', u'medium', u'high']","blue",51,"right","high","False","False",337,5600,NA
"A3UKRC3LBM1LEW","Sun Nov 01 2020 11:04:10 GMT-0500 (Eastern Standard Time)","Sun Nov 01 2020 11:11:09 GMT-0500 (Eastern Standard Time)","Mozilla/5.0 (Windows NT 10.0; Win64; x64) AppleWebKit/537.36 (KHTML, like Gecko) Chrome/86.0.4240.111 Safari/537.36",117,"[0.9, 0.5, 0.1]","[0.8, 0.4, 0.2]","[u'red', u'black', u'blue']","[u'left', u'middle', u'right']","[0.8, 0.4, 0.2]","[u'low', u'medium', u'high']","red",49,"left","low","True","False",375,5700,NA
"A3UKRC3LBM1LEW","Sun Nov 01 2020 11:04:10 GMT-0500 (Eastern Standard Time)","Sun Nov 01 2020 11:11:09 GMT-0500 (Eastern Standard Time)","Mozilla/5.0 (Windows NT 10.0; Win64; x64) AppleWebKit/537.36 (KHTML, like Gecko) Chrome/86.0.4240.111 Safari/537.36",118,"[0.9, 0.5, 0.1]","[0.8, 0.4, 0.2]","[u'red', u'black', u'blue']","[u'left', u'middle', u'right']","[0.8, 0.4, 0.2]","[u'low', u'medium', u'high']","red",49,"left","low","False","False",381,5650,NA
"A3UKRC3LBM1LEW","Sun Nov 01 2020 11:04:10 GMT-0500 (Eastern Standard Time)","Sun Nov 01 2020 11:11:09 GMT-0500 (Eastern Standard Time)","Mozilla/5.0 (Windows NT 10.0; Win64; x64) AppleWebKit/537.36 (KHTML, like Gecko) Chrome/86.0.4240.111 Safari/537.36",119,"[0.9, 0.5, 0.1]","[0.8, 0.4, 0.2]","[u'red', u'black', u'blue']","[u'left', u'middle', u'right']","[0.8, 0.4, 0.2]","[u'low', u'medium', u'high']","red",49,"left","low","False","False",318,5600,NA
"A3UKRC3LBM1LEW","Sun Nov 01 2020 11:04:10 GMT-0500 (Eastern Standard Time)","Sun Nov 01 2020 11:11:09 GMT-0500 (Eastern Standard Time)","Mozilla/5.0 (Windows NT 10.0; Win64; x64) AppleWebKit/537.36 (KHTML, like Gecko) Chrome/86.0.4240.111 Safari/537.36",120,"[0.9, 0.5, 0.1]","[0.8, 0.4, 0.2]","[u'red', u'black', u'blue']","[u'left', u'middle', u'right']","[0.8, 0.4, 0.2]","[u'low', u'medium', u'high']","blue",51,"right","high","False","False",312,5550,NA
"A3UKRC3LBM1LEW","Sun Nov 01 2020 11:04:10 GMT-0500 (Eastern Standard Time)","Sun Nov 01 2020 11:11:09 GMT-0500 (Eastern Standard Time)","Mozilla/5.0 (Windows NT 10.0; Win64; x64) AppleWebKit/537.36 (KHTML, like Gecko) Chrome/86.0.4240.111 Safari/537.36",121,"[0.9, 0.5, 0.1]","[0.8, 0.4, 0.2]","[u'red', u'black', u'blue']","[u'left', u'middle', u'right']","[0.8, 0.4, 0.2]","[u'high', u'low', u'medium']","black",50,"middle","low","False","False",448,5500,NA
"A3UKRC3LBM1LEW","Sun Nov 01 2020 11:04:10 GMT-0500 (Eastern Standard Time)","Sun Nov 01 2020 11:11:09 GMT-0500 (Eastern Standard Time)","Mozilla/5.0 (Windows NT 10.0; Win64; x64) AppleWebKit/537.36 (KHTML, like Gecko) Chrome/86.0.4240.111 Safari/537.36",122,"[0.9, 0.5, 0.1]","[0.8, 0.4, 0.2]","[u'red', u'black', u'blue']","[u'left', u'middle', u'right']","[0.8, 0.4, 0.2]","[u'high', u'low', u'medium']","blue",51,"right","medium","False","False",418,5450,NA
"A3UKRC3LBM1LEW","Sun Nov 01 2020 11:04:10 GMT-0500 (Eastern Standard Time)","Sun Nov 01 2020 11:11:09 GMT-0500 (Eastern Standard Time)","Mozilla/5.0 (Windows NT 10.0; Win64; x64) AppleWebKit/537.36 (KHTML, like Gecko) Chrome/86.0.4240.111 Safari/537.36",123,"[0.9, 0.5, 0.1]","[0.8, 0.4, 0.2]","[u'red', u'black', u'blue']","[u'left', u'middle', u'right']","[0.8, 0.4, 0.2]","[u'high', u'low', u'medium']","red",49,"left","high","True","False",304,5550,NA
"A3UKRC3LBM1LEW","Sun Nov 01 2020 11:04:10 GMT-0500 (Eastern Standard Time)","Sun Nov 01 2020 11:11:09 GMT-0500 (Eastern Standard Time)","Mozilla/5.0 (Windows NT 10.0; Win64; x64) AppleWebKit/537.36 (KHTML, like Gecko) Chrome/86.0.4240.111 Safari/537.36",124,"[0.9, 0.5, 0.1]","[0.8, 0.4, 0.2]","[u'red', u'black', u'blue']","[u'left', u'middle', u'right']","[0.8, 0.4, 0.2]","[u'high', u'low', u'medium']","red",49,"left","high","True","False",298,5650,NA
"A3UKRC3LBM1LEW","Sun Nov 01 2020 11:04:10 GMT-0500 (Eastern Standard Time)","Sun Nov 01 2020 11:11:09 GMT-0500 (Eastern Standard Time)","Mozilla/5.0 (Windows NT 10.0; Win64; x64) AppleWebKit/537.36 (KHTML, like Gecko) Chrome/86.0.4240.111 Safari/537.36",125,"[0.9, 0.5, 0.1]","[0.8, 0.4, 0.2]","[u'red', u'black', u'blue']","[u'left', u'middle', u'right']","[0.8, 0.4, 0.2]","[u'high', u'low', u'medium']","red",49,"left","high","True","False",342,5750,NA
"A3UKRC3LBM1LEW","Sun Nov 01 2020 11:04:10 GMT-0500 (Eastern Standard Time)","Sun Nov 01 2020 11:11:09 GMT-0500 (Eastern Standard Time)","Mozilla/5.0 (Windows NT 10.0; Win64; x64) AppleWebKit/537.36 (KHTML, like Gecko) Chrome/86.0.4240.111 Safari/537.36",126,"[0.9, 0.5, 0.1]","[0.8, 0.4, 0.2]","[u'red', u'black', u'blue']","[u'left', u'middle', u'right']","[0.8, 0.4, 0.2]","[u'high', u'low', u'medium']","red",49,"left","high","True","False",271,5850,NA
"A3UKRC3LBM1LEW","Sun Nov 01 2020 11:04:10 GMT-0500 (Eastern Standard Time)","Sun Nov 01 2020 11:11:09 GMT-0500 (Eastern Standard Time)","Mozilla/5.0 (Windows NT 10.0; Win64; x64) AppleWebKit/537.36 (KHTML, like Gecko) Chrome/86.0.4240.111 Safari/537.36",127,"[0.9, 0.5, 0.1]","[0.8, 0.4, 0.2]","[u'red', u'black', u'blue']","[u'left', u'middle', u'right']","[0.8, 0.4, 0.2]","[u'high', u'low', u'medium']","red",49,"left","high","True","False",298,5950,NA
"A3UKRC3LBM1LEW","Sun Nov 01 2020 11:04:10 GMT-0500 (Eastern Standard Time)","Sun Nov 01 2020 11:11:09 GMT-0500 (Eastern Standard Time)","Mozilla/5.0 (Windows NT 10.0; Win64; x64) AppleWebKit/537.36 (KHTML, like Gecko) Chrome/86.0.4240.111 Safari/537.36",128,"[0.9, 0.5, 0.1]","[0.8, 0.4, 0.2]","[u'red', u'black', u'blue']","[u'left', u'middle', u'right']","[0.8, 0.4, 0.2]","[u'high', u'low', u'medium']","red",49,"left","high","True","False",326,6050,NA
"A3UKRC3LBM1LEW","Sun Nov 01 2020 11:04:10 GMT-0500 (Eastern Standard Time)","Sun Nov 01 2020 11:11:09 GMT-0500 (Eastern Standard Time)","Mozilla/5.0 (Windows NT 10.0; Win64; x64) AppleWebKit/537.36 (KHTML, like Gecko) Chrome/86.0.4240.111 Safari/537.36",129,"[0.9, 0.5, 0.1]","[0.8, 0.4, 0.2]","[u'red', u'black', u'blue']","[u'left', u'middle', u'right']","[0.8, 0.4, 0.2]","[u'high', u'low', u'medium']","red",49,"left","high","True","False",315,6150,NA
"A3UKRC3LBM1LEW","Sun Nov 01 2020 11:04:10 GMT-0500 (Eastern Standard Time)","Sun Nov 01 2020 11:11:09 GMT-0500 (Eastern Standard Time)","Mozilla/5.0 (Windows NT 10.0; Win64; x64) AppleWebKit/537.36 (KHTML, like Gecko) Chrome/86.0.4240.111 Safari/537.36",130,"[0.9, 0.5, 0.1]","[0.8, 0.4, 0.2]","[u'red', u'black', u'blue']","[u'left', u'middle', u'right']","[0.8, 0.4, 0.2]","[u'high', u'low', u'medium']","red",49,"left","high","True","False",309,6250,NA
"A3UKRC3LBM1LEW","Sun Nov 01 2020 11:04:10 GMT-0500 (Eastern Standard Time)","Sun Nov 01 2020 11:11:09 GMT-0500 (Eastern Standard Time)","Mozilla/5.0 (Windows NT 10.0; Win64; x64) AppleWebKit/537.36 (KHTML, like Gecko) Chrome/86.0.4240.111 Safari/537.36",131,"[0.9, 0.5, 0.1]","[0.8, 0.4, 0.2]","[u'red', u'black', u'blue']","[u'left', u'middle', u'right']","[0.8, 0.4, 0.2]","[u'high', u'low', u'medium']","red",49,"left","high","True","True",352,6350,NA
"A3UKRC3LBM1LEW","Sun Nov 01 2020 11:04:10 GMT-0500 (Eastern Standard Time)","Sun Nov 01 2020 11:11:09 GMT-0500 (Eastern Standard Time)","Mozilla/5.0 (Windows NT 10.0; Win64; x64) AppleWebKit/537.36 (KHTML, like Gecko) Chrome/86.0.4240.111 Safari/537.36",132,"[0.9, 0.5, 0.1]","[0.8, 0.4, 0.2]","[u'red', u'black', u'blue']","[u'left', u'middle', u'right']","[0.8, 0.4, 0.2]","[u'medium', u'low', u'high']","red",49,"left","medium","False","False",309,6300,NA
"A3UKRC3LBM1LEW","Sun Nov 01 2020 11:04:10 GMT-0500 (Eastern Standard Time)","Sun Nov 01 2020 11:11:09 GMT-0500 (Eastern Standard Time)","Mozilla/5.0 (Windows NT 10.0; Win64; x64) AppleWebKit/537.36 (KHTML, like Gecko) Chrome/86.0.4240.111 Safari/537.36",133,"[0.9, 0.5, 0.1]","[0.8, 0.4, 0.2]","[u'red', u'black', u'blue']","[u'left', u'middle', u'right']","[0.8, 0.4, 0.2]","[u'medium', u'low', u'high']","red",49,"left","medium","False","False",305,6250,NA
"A3UKRC3LBM1LEW","Sun Nov 01 2020 11:04:10 GMT-0500 (Eastern Standard Time)","Sun Nov 01 2020 11:11:09 GMT-0500 (Eastern Standard Time)","Mozilla/5.0 (Windows NT 10.0; Win64; x64) AppleWebKit/537.36 (KHTML, like Gecko) Chrome/86.0.4240.111 Safari/537.36",134,"[0.9, 0.5, 0.1]","[0.8, 0.4, 0.2]","[u'red', u'black', u'blue']","[u'left', u'middle', u'right']","[0.8, 0.4, 0.2]","[u'medium', u'low', u'high']","blue",51,"right","high","True","False",295,6350,NA
"A3UKRC3LBM1LEW","Sun Nov 01 2020 11:04:10 GMT-0500 (Eastern Standard Time)","Sun Nov 01 2020 11:11:09 GMT-0500 (Eastern Standard Time)","Mozilla/5.0 (Windows NT 10.0; Win64; x64) AppleWebKit/537.36 (KHTML, like Gecko) Chrome/86.0.4240.111 Safari/537.36",135,"[0.9, 0.5, 0.1]","[0.8, 0.4, 0.2]","[u'red', u'black', u'blue']","[u'left', u'middle', u'right']","[0.8, 0.4, 0.2]","[u'medium', u'low', u'high']","blue",51,"right","high","True","False",419,6450,NA
"A3UKRC3LBM1LEW","Sun Nov 01 2020 11:04:10 GMT-0500 (Eastern Standard Time)","Sun Nov 01 2020 11:11:09 GMT-0500 (Eastern Standard Time)","Mozilla/5.0 (Windows NT 10.0; Win64; x64) AppleWebKit/537.36 (KHTML, like Gecko) Chrome/86.0.4240.111 Safari/537.36",136,"[0.9, 0.5, 0.1]","[0.8, 0.4, 0.2]","[u'red', u'black', u'blue']","[u'left', u'middle', u'right']","[0.8, 0.4, 0.2]","[u'medium', u'low', u'high']","blue",51,"right","high","True","False",371,6550,NA
"A3UKRC3LBM1LEW","Sun Nov 01 2020 11:04:10 GMT-0500 (Eastern Standard Time)","Sun Nov 01 2020 11:11:09 GMT-0500 (Eastern Standard Time)","Mozilla/5.0 (Windows NT 10.0; Win64; x64) AppleWebKit/537.36 (KHTML, like Gecko) Chrome/86.0.4240.111 Safari/537.36",137,"[0.9, 0.5, 0.1]","[0.8, 0.4, 0.2]","[u'red', u'black', u'blue']","[u'left', u'middle', u'right']","[0.8, 0.4, 0.2]","[u'medium', u'low', u'high']","blue",51,"right","high","False","False",320,6500,NA
"A3UKRC3LBM1LEW","Sun Nov 01 2020 11:04:10 GMT-0500 (Eastern Standard Time)","Sun Nov 01 2020 11:11:09 GMT-0500 (Eastern Standard Time)","Mozilla/5.0 (Windows NT 10.0; Win64; x64) AppleWebKit/537.36 (KHTML, like Gecko) Chrome/86.0.4240.111 Safari/537.36",138,"[0.9, 0.5, 0.1]","[0.8, 0.4, 0.2]","[u'red', u'black', u'blue']","[u'left', u'middle', u'right']","[0.8, 0.4, 0.2]","[u'medium', u'low', u'high']","blue",51,"right","high","True","False",294,6600,NA
"A3UKRC3LBM1LEW","Sun Nov 01 2020 11:04:10 GMT-0500 (Eastern Standard Time)","Sun Nov 01 2020 11:11:09 GMT-0500 (Eastern Standard Time)","Mozilla/5.0 (Windows NT 10.0; Win64; x64) AppleWebKit/537.36 (KHTML, like Gecko) Chrome/86.0.4240.111 Safari/537.36",139,"[0.9, 0.5, 0.1]","[0.8, 0.4, 0.2]","[u'red', u'black', u'blue']","[u'left', u'middle', u'right']","[0.8, 0.4, 0.2]","[u'medium', u'low', u'high']","blue",51,"right","high","True","False",399,6700,NA
"A3UKRC3LBM1LEW","Sun Nov 01 2020 11:04:10 GMT-0500 (Eastern Standard Time)","Sun Nov 01 2020 11:11:09 GMT-0500 (Eastern Standard Time)","Mozilla/5.0 (Windows NT 10.0; Win64; x64) AppleWebKit/537.36 (KHTML, like Gecko) Chrome/86.0.4240.111 Safari/537.36",140,"[0.9, 0.5, 0.1]","[0.8, 0.4, 0.2]","[u'red', u'black', u'blue']","[u'left', u'middle', u'right']","[0.8, 0.4, 0.2]","[u'medium', u'low', u'high']","blue",51,"right","high","True","False",351,6800,NA
"A3UKRC3LBM1LEW","Sun Nov 01 2020 11:04:10 GMT-0500 (Eastern Standard Time)","Sun Nov 01 2020 11:11:09 GMT-0500 (Eastern Standard Time)","Mozilla/5.0 (Windows NT 10.0; Win64; x64) AppleWebKit/537.36 (KHTML, like Gecko) Chrome/86.0.4240.111 Safari/537.36",141,"[0.9, 0.5, 0.1]","[0.8, 0.4, 0.2]","[u'red', u'black', u'blue']","[u'left', u'middle', u'right']","[0.8, 0.4, 0.2]","[u'medium', u'low', u'high']","blue",51,"right","high","True","False",439,6900,NA
"A3UKRC3LBM1LEW","Sun Nov 01 2020 11:04:10 GMT-0500 (Eastern Standard Time)","Sun Nov 01 2020 11:11:09 GMT-0500 (Eastern Standard Time)","Mozilla/5.0 (Windows NT 10.0; Win64; x64) AppleWebKit/537.36 (KHTML, like Gecko) Chrome/86.0.4240.111 Safari/537.36",142,"[0.9, 0.5, 0.1]","[0.8, 0.4, 0.2]","[u'red', u'black', u'blue']","[u'left', u'middle', u'right']","[0.8, 0.4, 0.2]","[u'medium', u'low', u'high']","blue",51,"right","high","True","True",444,7000,NA
"A3UKRC3LBM1LEW","Sun Nov 01 2020 11:04:10 GMT-0500 (Eastern Standard Time)","Sun Nov 01 2020 11:11:09 GMT-0500 (Eastern Standard Time)","Mozilla/5.0 (Windows NT 10.0; Win64; x64) AppleWebKit/537.36 (KHTML, like Gecko) Chrome/86.0.4240.111 Safari/537.36",143,"[0.9, 0.5, 0.1]","[0.8, 0.4, 0.2]","[u'red', u'black', u'blue']","[u'left', u'middle', u'right']","[0.8, 0.4, 0.2]","[u'high', u'medium', u'low']","blue",51,"right","low","False","False",413,6950,NA
"A3UKRC3LBM1LEW","Sun Nov 01 2020 11:04:10 GMT-0500 (Eastern Standard Time)","Sun Nov 01 2020 11:11:09 GMT-0500 (Eastern Standard Time)","Mozilla/5.0 (Windows NT 10.0; Win64; x64) AppleWebKit/537.36 (KHTML, like Gecko) Chrome/86.0.4240.111 Safari/537.36",144,"[0.9, 0.5, 0.1]","[0.8, 0.4, 0.2]","[u'red', u'black', u'blue']","[u'left', u'middle', u'right']","[0.8, 0.4, 0.2]","[u'high', u'medium', u'low']","blue",51,"right","low","False","False",301,6900,NA
"A3UKRC3LBM1LEW","Sun Nov 01 2020 11:04:10 GMT-0500 (Eastern Standard Time)","Sun Nov 01 2020 11:11:09 GMT-0500 (Eastern Standard Time)","Mozilla/5.0 (Windows NT 10.0; Win64; x64) AppleWebKit/537.36 (KHTML, like Gecko) Chrome/86.0.4240.111 Safari/537.36",145,"[0.9, 0.5, 0.1]","[0.8, 0.4, 0.2]","[u'red', u'black', u'blue']","[u'left', u'middle', u'right']","[0.8, 0.4, 0.2]","[u'high', u'medium', u'low']","red",49,"left","high","True","False",347,7000,NA
"A3UKRC3LBM1LEW","Sun Nov 01 2020 11:04:10 GMT-0500 (Eastern Standard Time)","Sun Nov 01 2020 11:11:09 GMT-0500 (Eastern Standard Time)","Mozilla/5.0 (Windows NT 10.0; Win64; x64) AppleWebKit/537.36 (KHTML, like Gecko) Chrome/86.0.4240.111 Safari/537.36",146,"[0.9, 0.5, 0.1]","[0.8, 0.4, 0.2]","[u'red', u'black', u'blue']","[u'left', u'middle', u'right']","[0.8, 0.4, 0.2]","[u'high', u'medium', u'low']","red",49,"left","high","True","False",304,7100,NA
"A3UKRC3LBM1LEW","Sun Nov 01 2020 11:04:10 GMT-0500 (Eastern Standard Time)","Sun Nov 01 2020 11:11:09 GMT-0500 (Eastern Standard Time)","Mozilla/5.0 (Windows NT 10.0; Win64; x64) AppleWebKit/537.36 (KHTML, like Gecko) Chrome/86.0.4240.111 Safari/537.36",147,"[0.9, 0.5, 0.1]","[0.8, 0.4, 0.2]","[u'red', u'black', u'blue']","[u'left', u'middle', u'right']","[0.8, 0.4, 0.2]","[u'high', u'medium', u'low']","red",49,"left","high","True","False",390,7200,NA
"A3UKRC3LBM1LEW","Sun Nov 01 2020 11:04:10 GMT-0500 (Eastern Standard Time)","Sun Nov 01 2020 11:11:09 GMT-0500 (Eastern Standard Time)","Mozilla/5.0 (Windows NT 10.0; Win64; x64) AppleWebKit/537.36 (KHTML, like Gecko) Chrome/86.0.4240.111 Safari/537.36",148,"[0.9, 0.5, 0.1]","[0.8, 0.4, 0.2]","[u'red', u'black', u'blue']","[u'left', u'middle', u'right']","[0.8, 0.4, 0.2]","[u'high', u'medium', u'low']","red",49,"left","high","True","False",320,7300,NA
"A3UKRC3LBM1LEW","Sun Nov 01 2020 11:04:10 GMT-0500 (Eastern Standard Time)","Sun Nov 01 2020 11:11:09 GMT-0500 (Eastern Standard Time)","Mozilla/5.0 (Windows NT 10.0; Win64; x64) AppleWebKit/537.36 (KHTML, like Gecko) Chrome/86.0.4240.111 Safari/537.36",149,"[0.9, 0.5, 0.1]","[0.8, 0.4, 0.2]","[u'red', u'black', u'blue']","[u'left', u'middle', u'right']","[0.8, 0.4, 0.2]","[u'high', u'medium', u'low']","red",49,"left","high","True","False",283,7400,NA
"A3UKRC3LBM1LEW","Sun Nov 01 2020 11:04:10 GMT-0500 (Eastern Standard Time)","Sun Nov 01 2020 11:11:09 GMT-0500 (Eastern Standard Time)","Mozilla/5.0 (Windows NT 10.0; Win64; x64) AppleWebKit/537.36 (KHTML, like Gecko) Chrome/86.0.4240.111 Safari/537.36",150,"[0.9, 0.5, 0.1]","[0.8, 0.4, 0.2]","[u'red', u'black', u'blue']","[u'left', u'middle', u'right']","[0.8, 0.4, 0.2]","[u'high', u'medium', u'low']","red",49,"left","high","True","False",334,7500,NA
"A3UKRC3LBM1LEW","Sun Nov 01 2020 11:04:10 GMT-0500 (Eastern Standard Time)","Sun Nov 01 2020 11:11:09 GMT-0500 (Eastern Standard Time)","Mozilla/5.0 (Windows NT 10.0; Win64; x64) AppleWebKit/537.36 (KHTML, like Gecko) Chrome/86.0.4240.111 Safari/537.36",151,"[0.9, 0.5, 0.1]","[0.8, 0.4, 0.2]","[u'red', u'black', u'blue']","[u'left', u'middle', u'right']","[0.8, 0.4, 0.2]","[u'high', u'medium', u'low']","red",49,"left","high","True","False",314,7600,NA
"A3UKRC3LBM1LEW","Sun Nov 01 2020 11:04:10 GMT-0500 (Eastern Standard Time)","Sun Nov 01 2020 11:11:09 GMT-0500 (Eastern Standard Time)","Mozilla/5.0 (Windows NT 10.0; Win64; x64) AppleWebKit/537.36 (KHTML, like Gecko) Chrome/86.0.4240.111 Safari/537.36",152,"[0.9, 0.5, 0.1]","[0.8, 0.4, 0.2]","[u'red', u'black', u'blue']","[u'left', u'middle', u'right']","[0.8, 0.4, 0.2]","[u'high', u'medium', u'low']","red",49,"left","high","True","False",293,7700,NA
"A3UKRC3LBM1LEW","Sun Nov 01 2020 11:04:10 GMT-0500 (Eastern Standard Time)","Sun Nov 01 2020 11:11:09 GMT-0500 (Eastern Standard Time)","Mozilla/5.0 (Windows NT 10.0; Win64; x64) AppleWebKit/537.36 (KHTML, like Gecko) Chrome/86.0.4240.111 Safari/537.36",153,"[0.9, 0.5, 0.1]","[0.8, 0.4, 0.2]","[u'red', u'black', u'blue']","[u'left', u'middle', u'right']","[0.8, 0.4, 0.2]","[u'high', u'medium', u'low']","red",49,"left","high","True","True",332,7800,NA
"A3UKRC3LBM1LEW","Sun Nov 01 2020 11:04:10 GMT-0500 (Eastern Standard Time)","Sun Nov 01 2020 11:11:09 GMT-0500 (Eastern Standard Time)","Mozilla/5.0 (Windows NT 10.0; Win64; x64) AppleWebKit/537.36 (KHTML, like Gecko) Chrome/86.0.4240.111 Safari/537.36",154,"[0.9, 0.5, 0.1]","[0.8, 0.4, 0.2]","[u'red', u'black', u'blue']","[u'left', u'middle', u'right']","[0.8, 0.4, 0.2]","[u'low', u'medium', u'high']","red",49,"left","low","True","False",316,7900,NA
"A3UKRC3LBM1LEW","Sun Nov 01 2020 11:04:10 GMT-0500 (Eastern Standard Time)","Sun Nov 01 2020 11:11:09 GMT-0500 (Eastern Standard Time)","Mozilla/5.0 (Windows NT 10.0; Win64; x64) AppleWebKit/537.36 (KHTML, like Gecko) Chrome/86.0.4240.111 Safari/537.36",155,"[0.9, 0.5, 0.1]","[0.8, 0.4, 0.2]","[u'red', u'black', u'blue']","[u'left', u'middle', u'right']","[0.8, 0.4, 0.2]","[u'low', u'medium', u'high']","red",49,"left","low","False","False",389,7850,NA
"A3UKRC3LBM1LEW","Sun Nov 01 2020 11:04:10 GMT-0500 (Eastern Standard Time)","Sun Nov 01 2020 11:11:09 GMT-0500 (Eastern Standard Time)","Mozilla/5.0 (Windows NT 10.0; Win64; x64) AppleWebKit/537.36 (KHTML, like Gecko) Chrome/86.0.4240.111 Safari/537.36",156,"[0.9, 0.5, 0.1]","[0.8, 0.4, 0.2]","[u'red', u'black', u'blue']","[u'left', u'middle', u'right']","[0.8, 0.4, 0.2]","[u'low', u'medium', u'high']","red",49,"left","low","False","False",302,7800,NA
"A3UKRC3LBM1LEW","Sun Nov 01 2020 11:04:10 GMT-0500 (Eastern Standard Time)","Sun Nov 01 2020 11:11:09 GMT-0500 (Eastern Standard Time)","Mozilla/5.0 (Windows NT 10.0; Win64; x64) AppleWebKit/537.36 (KHTML, like Gecko) Chrome/86.0.4240.111 Safari/537.36",157,"[0.9, 0.5, 0.1]","[0.8, 0.4, 0.2]","[u'red', u'black', u'blue']","[u'left', u'middle', u'right']","[0.8, 0.4, 0.2]","[u'low', u'medium', u'high']","blue",51,"right","high","True","False",322,7900,NA
"A3UKRC3LBM1LEW","Sun Nov 01 2020 11:04:10 GMT-0500 (Eastern Standard Time)","Sun Nov 01 2020 11:11:09 GMT-0500 (Eastern Standard Time)","Mozilla/5.0 (Windows NT 10.0; Win64; x64) AppleWebKit/537.36 (KHTML, like Gecko) Chrome/86.0.4240.111 Safari/537.36",158,"[0.9, 0.5, 0.1]","[0.8, 0.4, 0.2]","[u'red', u'black', u'blue']","[u'left', u'middle', u'right']","[0.8, 0.4, 0.2]","[u'low', u'medium', u'high']","blue",51,"right","high","True","False",315,8000,NA
"A3UKRC3LBM1LEW","Sun Nov 01 2020 11:04:10 GMT-0500 (Eastern Standard Time)","Sun Nov 01 2020 11:11:09 GMT-0500 (Eastern Standard Time)","Mozilla/5.0 (Windows NT 10.0; Win64; x64) AppleWebKit/537.36 (KHTML, like Gecko) Chrome/86.0.4240.111 Safari/537.36",159,"[0.9, 0.5, 0.1]","[0.8, 0.4, 0.2]","[u'red', u'black', u'blue']","[u'left', u'middle', u'right']","[0.8, 0.4, 0.2]","[u'low', u'medium', u'high']","blue",51,"right","high","True","False",369,8100,NA
"A3UKRC3LBM1LEW","Sun Nov 01 2020 11:04:10 GMT-0500 (Eastern Standard Time)","Sun Nov 01 2020 11:11:09 GMT-0500 (Eastern Standard Time)","Mozilla/5.0 (Windows NT 10.0; Win64; x64) AppleWebKit/537.36 (KHTML, like Gecko) Chrome/86.0.4240.111 Safari/537.36",160,"[0.9, 0.5, 0.1]","[0.8, 0.4, 0.2]","[u'red', u'black', u'blue']","[u'left', u'middle', u'right']","[0.8, 0.4, 0.2]","[u'low', u'medium', u'high']","blue",51,"right","high","True","False",286,8200,NA
