"src_subject_id","start_time","end_time","browser","index","first_half_probabilities","second_half_probabilities","deck_color","deck_position","deck_probabilities","deck_contingencies","response_color","key_press","response_position","response_probability","reward_type","trial_type","rt","reward_tally","exclusion_reason"
"AC5UD8N187QD6","Sun Nov 01 2020 13:49:25 GMT-0500 (Eastern Standard Time)","Sun Nov 01 2020 13:57:50 GMT-0500 (Eastern Standard Time)","Mozilla/5.0 (Macintosh; Intel Mac OS X 10_11_6) AppleWebKit/537.36 (KHTML, like Gecko) Chrome/86.0.4240.111 Safari/537.36",1,"[0.9, 0.5, 0.1]","[0.8, 0.4, 0.2]","[u'red', u'black', u'blue']","[u'left', u'middle', u'right']","[0.9, 0.5, 0.1]","[u'high', u'medium', u'low']","red",49,"left","high","False","False",1124,-50,NA
"AC5UD8N187QD6","Sun Nov 01 2020 13:49:25 GMT-0500 (Eastern Standard Time)","Sun Nov 01 2020 13:57:50 GMT-0500 (Eastern Standard Time)","Mozilla/5.0 (Macintosh; Intel Mac OS X 10_11_6) AppleWebKit/537.36 (KHTML, like Gecko) Chrome/86.0.4240.111 Safari/537.36",2,"[0.9, 0.5, 0.1]","[0.8, 0.4, 0.2]","[u'red', u'black', u'blue']","[u'left', u'middle', u'right']","[0.9, 0.5, 0.1]","[u'high', u'medium', u'low']","black",50,"middle","medium","False","False",336,-100,NA
"AC5UD8N187QD6","Sun Nov 01 2020 13:49:25 GMT-0500 (Eastern Standard Time)","Sun Nov 01 2020 13:57:50 GMT-0500 (Eastern Standard Time)","Mozilla/5.0 (Macintosh; Intel Mac OS X 10_11_6) AppleWebKit/537.36 (KHTML, like Gecko) Chrome/86.0.4240.111 Safari/537.36",3,"[0.9, 0.5, 0.1]","[0.8, 0.4, 0.2]","[u'red', u'black', u'blue']","[u'left', u'middle', u'right']","[0.9, 0.5, 0.1]","[u'high', u'medium', u'low']","blue",51,"right","low","False","False",592,-150,NA
"AC5UD8N187QD6","Sun Nov 01 2020 13:49:25 GMT-0500 (Eastern Standard Time)","Sun Nov 01 2020 13:57:50 GMT-0500 (Eastern Standard Time)","Mozilla/5.0 (Macintosh; Intel Mac OS X 10_11_6) AppleWebKit/537.36 (KHTML, like Gecko) Chrome/86.0.4240.111 Safari/537.36",4,"[0.9, 0.5, 0.1]","[0.8, 0.4, 0.2]","[u'red', u'black', u'blue']","[u'left', u'middle', u'right']","[0.9, 0.5, 0.1]","[u'high', u'medium', u'low']","blue",51,"right","low","False","False",416,-200,NA
"AC5UD8N187QD6","Sun Nov 01 2020 13:49:25 GMT-0500 (Eastern Standard Time)","Sun Nov 01 2020 13:57:50 GMT-0500 (Eastern Standard Time)","Mozilla/5.0 (Macintosh; Intel Mac OS X 10_11_6) AppleWebKit/537.36 (KHTML, like Gecko) Chrome/86.0.4240.111 Safari/537.36",5,"[0.9, 0.5, 0.1]","[0.8, 0.4, 0.2]","[u'red', u'black', u'blue']","[u'left', u'middle', u'right']","[0.9, 0.5, 0.1]","[u'high', u'medium', u'low']","black",50,"middle","medium","False","False",418,-250,NA
"AC5UD8N187QD6","Sun Nov 01 2020 13:49:25 GMT-0500 (Eastern Standard Time)","Sun Nov 01 2020 13:57:50 GMT-0500 (Eastern Standard Time)","Mozilla/5.0 (Macintosh; Intel Mac OS X 10_11_6) AppleWebKit/537.36 (KHTML, like Gecko) Chrome/86.0.4240.111 Safari/537.36",6,"[0.9, 0.5, 0.1]","[0.8, 0.4, 0.2]","[u'red', u'black', u'blue']","[u'left', u'middle', u'right']","[0.9, 0.5, 0.1]","[u'high', u'medium', u'low']","red",49,"left","high","True","False",353,-150,NA
"AC5UD8N187QD6","Sun Nov 01 2020 13:49:25 GMT-0500 (Eastern Standard Time)","Sun Nov 01 2020 13:57:50 GMT-0500 (Eastern Standard Time)","Mozilla/5.0 (Macintosh; Intel Mac OS X 10_11_6) AppleWebKit/537.36 (KHTML, like Gecko) Chrome/86.0.4240.111 Safari/537.36",7,"[0.9, 0.5, 0.1]","[0.8, 0.4, 0.2]","[u'red', u'black', u'blue']","[u'left', u'middle', u'right']","[0.9, 0.5, 0.1]","[u'high', u'medium', u'low']","red",49,"left","high","True","False",344,-50,NA
"AC5UD8N187QD6","Sun Nov 01 2020 13:49:25 GMT-0500 (Eastern Standard Time)","Sun Nov 01 2020 13:57:50 GMT-0500 (Eastern Standard Time)","Mozilla/5.0 (Macintosh; Intel Mac OS X 10_11_6) AppleWebKit/537.36 (KHTML, like Gecko) Chrome/86.0.4240.111 Safari/537.36",8,"[0.9, 0.5, 0.1]","[0.8, 0.4, 0.2]","[u'red', u'black', u'blue']","[u'left', u'middle', u'right']","[0.9, 0.5, 0.1]","[u'high', u'medium', u'low']","red",49,"left","high","True","False",330,50,NA
"AC5UD8N187QD6","Sun Nov 01 2020 13:49:25 GMT-0500 (Eastern Standard Time)","Sun Nov 01 2020 13:57:50 GMT-0500 (Eastern Standard Time)","Mozilla/5.0 (Macintosh; Intel Mac OS X 10_11_6) AppleWebKit/537.36 (KHTML, like Gecko) Chrome/86.0.4240.111 Safari/537.36",9,"[0.9, 0.5, 0.1]","[0.8, 0.4, 0.2]","[u'red', u'black', u'blue']","[u'left', u'middle', u'right']","[0.9, 0.5, 0.1]","[u'high', u'medium', u'low']","red",49,"left","high","True","False",361,150,NA
"AC5UD8N187QD6","Sun Nov 01 2020 13:49:25 GMT-0500 (Eastern Standard Time)","Sun Nov 01 2020 13:57:50 GMT-0500 (Eastern Standard Time)","Mozilla/5.0 (Macintosh; Intel Mac OS X 10_11_6) AppleWebKit/537.36 (KHTML, like Gecko) Chrome/86.0.4240.111 Safari/537.36",10,"[0.9, 0.5, 0.1]","[0.8, 0.4, 0.2]","[u'red', u'black', u'blue']","[u'left', u'middle', u'right']","[0.9, 0.5, 0.1]","[u'high', u'medium', u'low']","red",49,"left","high","False","False",346,100,NA
"AC5UD8N187QD6","Sun Nov 01 2020 13:49:25 GMT-0500 (Eastern Standard Time)","Sun Nov 01 2020 13:57:50 GMT-0500 (Eastern Standard Time)","Mozilla/5.0 (Macintosh; Intel Mac OS X 10_11_6) AppleWebKit/537.36 (KHTML, like Gecko) Chrome/86.0.4240.111 Safari/537.36",11,"[0.9, 0.5, 0.1]","[0.8, 0.4, 0.2]","[u'red', u'black', u'blue']","[u'left', u'middle', u'right']","[0.9, 0.5, 0.1]","[u'high', u'medium', u'low']","blue",51,"right","low","False","False",289,50,NA
"AC5UD8N187QD6","Sun Nov 01 2020 13:49:25 GMT-0500 (Eastern Standard Time)","Sun Nov 01 2020 13:57:50 GMT-0500 (Eastern Standard Time)","Mozilla/5.0 (Macintosh; Intel Mac OS X 10_11_6) AppleWebKit/537.36 (KHTML, like Gecko) Chrome/86.0.4240.111 Safari/537.36",12,"[0.9, 0.5, 0.1]","[0.8, 0.4, 0.2]","[u'red', u'black', u'blue']","[u'left', u'middle', u'right']","[0.9, 0.5, 0.1]","[u'high', u'medium', u'low']","black",50,"middle","medium","False","False",264,0,NA
"AC5UD8N187QD6","Sun Nov 01 2020 13:49:25 GMT-0500 (Eastern Standard Time)","Sun Nov 01 2020 13:57:50 GMT-0500 (Eastern Standard Time)","Mozilla/5.0 (Macintosh; Intel Mac OS X 10_11_6) AppleWebKit/537.36 (KHTML, like Gecko) Chrome/86.0.4240.111 Safari/537.36",13,"[0.9, 0.5, 0.1]","[0.8, 0.4, 0.2]","[u'red', u'black', u'blue']","[u'left', u'middle', u'right']","[0.9, 0.5, 0.1]","[u'high', u'medium', u'low']","red",49,"left","high","True","False",328,100,NA
"AC5UD8N187QD6","Sun Nov 01 2020 13:49:25 GMT-0500 (Eastern Standard Time)","Sun Nov 01 2020 13:57:50 GMT-0500 (Eastern Standard Time)","Mozilla/5.0 (Macintosh; Intel Mac OS X 10_11_6) AppleWebKit/537.36 (KHTML, like Gecko) Chrome/86.0.4240.111 Safari/537.36",14,"[0.9, 0.5, 0.1]","[0.8, 0.4, 0.2]","[u'red', u'black', u'blue']","[u'left', u'middle', u'right']","[0.9, 0.5, 0.1]","[u'high', u'medium', u'low']","red",49,"left","high","True","False",306,200,NA
"AC5UD8N187QD6","Sun Nov 01 2020 13:49:25 GMT-0500 (Eastern Standard Time)","Sun Nov 01 2020 13:57:50 GMT-0500 (Eastern Standard Time)","Mozilla/5.0 (Macintosh; Intel Mac OS X 10_11_6) AppleWebKit/537.36 (KHTML, like Gecko) Chrome/86.0.4240.111 Safari/537.36",15,"[0.9, 0.5, 0.1]","[0.8, 0.4, 0.2]","[u'red', u'black', u'blue']","[u'left', u'middle', u'right']","[0.9, 0.5, 0.1]","[u'high', u'medium', u'low']","red",49,"left","high","True","False",342,300,NA
"AC5UD8N187QD6","Sun Nov 01 2020 13:49:25 GMT-0500 (Eastern Standard Time)","Sun Nov 01 2020 13:57:50 GMT-0500 (Eastern Standard Time)","Mozilla/5.0 (Macintosh; Intel Mac OS X 10_11_6) AppleWebKit/537.36 (KHTML, like Gecko) Chrome/86.0.4240.111 Safari/537.36",16,"[0.9, 0.5, 0.1]","[0.8, 0.4, 0.2]","[u'red', u'black', u'blue']","[u'left', u'middle', u'right']","[0.9, 0.5, 0.1]","[u'high', u'medium', u'low']","red",49,"left","high","True","False",339,400,NA
"AC5UD8N187QD6","Sun Nov 01 2020 13:49:25 GMT-0500 (Eastern Standard Time)","Sun Nov 01 2020 13:57:50 GMT-0500 (Eastern Standard Time)","Mozilla/5.0 (Macintosh; Intel Mac OS X 10_11_6) AppleWebKit/537.36 (KHTML, like Gecko) Chrome/86.0.4240.111 Safari/537.36",17,"[0.9, 0.5, 0.1]","[0.8, 0.4, 0.2]","[u'red', u'black', u'blue']","[u'left', u'middle', u'right']","[0.9, 0.5, 0.1]","[u'high', u'medium', u'low']","red",49,"left","high","True","False",393,500,NA
"AC5UD8N187QD6","Sun Nov 01 2020 13:49:25 GMT-0500 (Eastern Standard Time)","Sun Nov 01 2020 13:57:50 GMT-0500 (Eastern Standard Time)","Mozilla/5.0 (Macintosh; Intel Mac OS X 10_11_6) AppleWebKit/537.36 (KHTML, like Gecko) Chrome/86.0.4240.111 Safari/537.36",18,"[0.9, 0.5, 0.1]","[0.8, 0.4, 0.2]","[u'red', u'black', u'blue']","[u'left', u'middle', u'right']","[0.9, 0.5, 0.1]","[u'high', u'medium', u'low']","red",49,"left","high","True","False",424,600,NA
"AC5UD8N187QD6","Sun Nov 01 2020 13:49:25 GMT-0500 (Eastern Standard Time)","Sun Nov 01 2020 13:57:50 GMT-0500 (Eastern Standard Time)","Mozilla/5.0 (Macintosh; Intel Mac OS X 10_11_6) AppleWebKit/537.36 (KHTML, like Gecko) Chrome/86.0.4240.111 Safari/537.36",19,"[0.9, 0.5, 0.1]","[0.8, 0.4, 0.2]","[u'red', u'black', u'blue']","[u'left', u'middle', u'right']","[0.9, 0.5, 0.1]","[u'high', u'medium', u'low']","red",49,"left","high","True","False",512,700,NA
"AC5UD8N187QD6","Sun Nov 01 2020 13:49:25 GMT-0500 (Eastern Standard Time)","Sun Nov 01 2020 13:57:50 GMT-0500 (Eastern Standard Time)","Mozilla/5.0 (Macintosh; Intel Mac OS X 10_11_6) AppleWebKit/537.36 (KHTML, like Gecko) Chrome/86.0.4240.111 Safari/537.36",20,"[0.9, 0.5, 0.1]","[0.8, 0.4, 0.2]","[u'red', u'black', u'blue']","[u'left', u'middle', u'right']","[0.9, 0.5, 0.1]","[u'high', u'medium', u'low']","red",49,"left","high","True","False",378,800,NA
"AC5UD8N187QD6","Sun Nov 01 2020 13:49:25 GMT-0500 (Eastern Standard Time)","Sun Nov 01 2020 13:57:50 GMT-0500 (Eastern Standard Time)","Mozilla/5.0 (Macintosh; Intel Mac OS X 10_11_6) AppleWebKit/537.36 (KHTML, like Gecko) Chrome/86.0.4240.111 Safari/537.36",21,"[0.9, 0.5, 0.1]","[0.8, 0.4, 0.2]","[u'red', u'black', u'blue']","[u'left', u'middle', u'right']","[0.9, 0.5, 0.1]","[u'high', u'medium', u'low']","red",49,"left","high","True","True",610,900,NA
"AC5UD8N187QD6","Sun Nov 01 2020 13:49:25 GMT-0500 (Eastern Standard Time)","Sun Nov 01 2020 13:57:50 GMT-0500 (Eastern Standard Time)","Mozilla/5.0 (Macintosh; Intel Mac OS X 10_11_6) AppleWebKit/537.36 (KHTML, like Gecko) Chrome/86.0.4240.111 Safari/537.36",22,"[0.9, 0.5, 0.1]","[0.8, 0.4, 0.2]","[u'red', u'black', u'blue']","[u'left', u'middle', u'right']","[0.9, 0.5, 0.1]","[u'low', u'high', u'medium']","red",49,"left","low","False","False",440,850,NA
"AC5UD8N187QD6","Sun Nov 01 2020 13:49:25 GMT-0500 (Eastern Standard Time)","Sun Nov 01 2020 13:57:50 GMT-0500 (Eastern Standard Time)","Mozilla/5.0 (Macintosh; Intel Mac OS X 10_11_6) AppleWebKit/537.36 (KHTML, like Gecko) Chrome/86.0.4240.111 Safari/537.36",23,"[0.9, 0.5, 0.1]","[0.8, 0.4, 0.2]","[u'red', u'black', u'blue']","[u'left', u'middle', u'right']","[0.9, 0.5, 0.1]","[u'low', u'high', u'medium']","blue",51,"right","medium","True","False",402,950,NA
"AC5UD8N187QD6","Sun Nov 01 2020 13:49:25 GMT-0500 (Eastern Standard Time)","Sun Nov 01 2020 13:57:50 GMT-0500 (Eastern Standard Time)","Mozilla/5.0 (Macintosh; Intel Mac OS X 10_11_6) AppleWebKit/537.36 (KHTML, like Gecko) Chrome/86.0.4240.111 Safari/537.36",24,"[0.9, 0.5, 0.1]","[0.8, 0.4, 0.2]","[u'red', u'black', u'blue']","[u'left', u'middle', u'right']","[0.9, 0.5, 0.1]","[u'low', u'high', u'medium']","blue",51,"right","medium","False","False",305,900,NA
"AC5UD8N187QD6","Sun Nov 01 2020 13:49:25 GMT-0500 (Eastern Standard Time)","Sun Nov 01 2020 13:57:50 GMT-0500 (Eastern Standard Time)","Mozilla/5.0 (Macintosh; Intel Mac OS X 10_11_6) AppleWebKit/537.36 (KHTML, like Gecko) Chrome/86.0.4240.111 Safari/537.36",25,"[0.9, 0.5, 0.1]","[0.8, 0.4, 0.2]","[u'red', u'black', u'blue']","[u'left', u'middle', u'right']","[0.9, 0.5, 0.1]","[u'low', u'high', u'medium']","blue",51,"right","medium","True","False",280,1000,NA
"AC5UD8N187QD6","Sun Nov 01 2020 13:49:25 GMT-0500 (Eastern Standard Time)","Sun Nov 01 2020 13:57:50 GMT-0500 (Eastern Standard Time)","Mozilla/5.0 (Macintosh; Intel Mac OS X 10_11_6) AppleWebKit/537.36 (KHTML, like Gecko) Chrome/86.0.4240.111 Safari/537.36",26,"[0.9, 0.5, 0.1]","[0.8, 0.4, 0.2]","[u'red', u'black', u'blue']","[u'left', u'middle', u'right']","[0.9, 0.5, 0.1]","[u'low', u'high', u'medium']","blue",51,"right","medium","True","False",312,1100,NA
"AC5UD8N187QD6","Sun Nov 01 2020 13:49:25 GMT-0500 (Eastern Standard Time)","Sun Nov 01 2020 13:57:50 GMT-0500 (Eastern Standard Time)","Mozilla/5.0 (Macintosh; Intel Mac OS X 10_11_6) AppleWebKit/537.36 (KHTML, like Gecko) Chrome/86.0.4240.111 Safari/537.36",27,"[0.9, 0.5, 0.1]","[0.8, 0.4, 0.2]","[u'red', u'black', u'blue']","[u'left', u'middle', u'right']","[0.9, 0.5, 0.1]","[u'low', u'high', u'medium']","blue",51,"right","medium","True","False",320,1200,NA
"AC5UD8N187QD6","Sun Nov 01 2020 13:49:25 GMT-0500 (Eastern Standard Time)","Sun Nov 01 2020 13:57:50 GMT-0500 (Eastern Standard Time)","Mozilla/5.0 (Macintosh; Intel Mac OS X 10_11_6) AppleWebKit/537.36 (KHTML, like Gecko) Chrome/86.0.4240.111 Safari/537.36",28,"[0.9, 0.5, 0.1]","[0.8, 0.4, 0.2]","[u'red', u'black', u'blue']","[u'left', u'middle', u'right']","[0.9, 0.5, 0.1]","[u'low', u'high', u'medium']","blue",51,"right","medium","False","False",328,1150,NA
"AC5UD8N187QD6","Sun Nov 01 2020 13:49:25 GMT-0500 (Eastern Standard Time)","Sun Nov 01 2020 13:57:50 GMT-0500 (Eastern Standard Time)","Mozilla/5.0 (Macintosh; Intel Mac OS X 10_11_6) AppleWebKit/537.36 (KHTML, like Gecko) Chrome/86.0.4240.111 Safari/537.36",29,"[0.9, 0.5, 0.1]","[0.8, 0.4, 0.2]","[u'red', u'black', u'blue']","[u'left', u'middle', u'right']","[0.9, 0.5, 0.1]","[u'low', u'high', u'medium']","blue",51,"right","medium","True","False",344,1250,NA
"AC5UD8N187QD6","Sun Nov 01 2020 13:49:25 GMT-0500 (Eastern Standard Time)","Sun Nov 01 2020 13:57:50 GMT-0500 (Eastern Standard Time)","Mozilla/5.0 (Macintosh; Intel Mac OS X 10_11_6) AppleWebKit/537.36 (KHTML, like Gecko) Chrome/86.0.4240.111 Safari/537.36",30,"[0.9, 0.5, 0.1]","[0.8, 0.4, 0.2]","[u'red', u'black', u'blue']","[u'left', u'middle', u'right']","[0.9, 0.5, 0.1]","[u'low', u'high', u'medium']","blue",51,"right","medium","False","False",368,1200,NA
"AC5UD8N187QD6","Sun Nov 01 2020 13:49:25 GMT-0500 (Eastern Standard Time)","Sun Nov 01 2020 13:57:50 GMT-0500 (Eastern Standard Time)","Mozilla/5.0 (Macintosh; Intel Mac OS X 10_11_6) AppleWebKit/537.36 (KHTML, like Gecko) Chrome/86.0.4240.111 Safari/537.36",31,"[0.9, 0.5, 0.1]","[0.8, 0.4, 0.2]","[u'red', u'black', u'blue']","[u'left', u'middle', u'right']","[0.9, 0.5, 0.1]","[u'low', u'high', u'medium']","blue",51,"right","medium","True","False",463,1300,NA
"AC5UD8N187QD6","Sun Nov 01 2020 13:49:25 GMT-0500 (Eastern Standard Time)","Sun Nov 01 2020 13:57:50 GMT-0500 (Eastern Standard Time)","Mozilla/5.0 (Macintosh; Intel Mac OS X 10_11_6) AppleWebKit/537.36 (KHTML, like Gecko) Chrome/86.0.4240.111 Safari/537.36",32,"[0.9, 0.5, 0.1]","[0.8, 0.4, 0.2]","[u'red', u'black', u'blue']","[u'left', u'middle', u'right']","[0.9, 0.5, 0.1]","[u'low', u'high', u'medium']","blue",51,"right","medium","False","False",384,1250,NA
"AC5UD8N187QD6","Sun Nov 01 2020 13:49:25 GMT-0500 (Eastern Standard Time)","Sun Nov 01 2020 13:57:50 GMT-0500 (Eastern Standard Time)","Mozilla/5.0 (Macintosh; Intel Mac OS X 10_11_6) AppleWebKit/537.36 (KHTML, like Gecko) Chrome/86.0.4240.111 Safari/537.36",33,"[0.9, 0.5, 0.1]","[0.8, 0.4, 0.2]","[u'red', u'black', u'blue']","[u'left', u'middle', u'right']","[0.9, 0.5, 0.1]","[u'low', u'high', u'medium']","black",50,"middle","high","True","False",400,1350,NA
"AC5UD8N187QD6","Sun Nov 01 2020 13:49:25 GMT-0500 (Eastern Standard Time)","Sun Nov 01 2020 13:57:50 GMT-0500 (Eastern Standard Time)","Mozilla/5.0 (Macintosh; Intel Mac OS X 10_11_6) AppleWebKit/537.36 (KHTML, like Gecko) Chrome/86.0.4240.111 Safari/537.36",34,"[0.9, 0.5, 0.1]","[0.8, 0.4, 0.2]","[u'red', u'black', u'blue']","[u'left', u'middle', u'right']","[0.9, 0.5, 0.1]","[u'low', u'high', u'medium']","black",50,"middle","high","True","False",399,1450,NA
"AC5UD8N187QD6","Sun Nov 01 2020 13:49:25 GMT-0500 (Eastern Standard Time)","Sun Nov 01 2020 13:57:50 GMT-0500 (Eastern Standard Time)","Mozilla/5.0 (Macintosh; Intel Mac OS X 10_11_6) AppleWebKit/537.36 (KHTML, like Gecko) Chrome/86.0.4240.111 Safari/537.36",35,"[0.9, 0.5, 0.1]","[0.8, 0.4, 0.2]","[u'red', u'black', u'blue']","[u'left', u'middle', u'right']","[0.9, 0.5, 0.1]","[u'low', u'high', u'medium']","black",50,"middle","high","True","False",383,1550,NA
"AC5UD8N187QD6","Sun Nov 01 2020 13:49:25 GMT-0500 (Eastern Standard Time)","Sun Nov 01 2020 13:57:50 GMT-0500 (Eastern Standard Time)","Mozilla/5.0 (Macintosh; Intel Mac OS X 10_11_6) AppleWebKit/537.36 (KHTML, like Gecko) Chrome/86.0.4240.111 Safari/537.36",36,"[0.9, 0.5, 0.1]","[0.8, 0.4, 0.2]","[u'red', u'black', u'blue']","[u'left', u'middle', u'right']","[0.9, 0.5, 0.1]","[u'low', u'high', u'medium']","black",50,"middle","high","True","False",416,1650,NA
"AC5UD8N187QD6","Sun Nov 01 2020 13:49:25 GMT-0500 (Eastern Standard Time)","Sun Nov 01 2020 13:57:50 GMT-0500 (Eastern Standard Time)","Mozilla/5.0 (Macintosh; Intel Mac OS X 10_11_6) AppleWebKit/537.36 (KHTML, like Gecko) Chrome/86.0.4240.111 Safari/537.36",37,"[0.9, 0.5, 0.1]","[0.8, 0.4, 0.2]","[u'red', u'black', u'blue']","[u'left', u'middle', u'right']","[0.9, 0.5, 0.1]","[u'low', u'high', u'medium']","black",50,"middle","high","True","False",352,1750,NA
"AC5UD8N187QD6","Sun Nov 01 2020 13:49:25 GMT-0500 (Eastern Standard Time)","Sun Nov 01 2020 13:57:50 GMT-0500 (Eastern Standard Time)","Mozilla/5.0 (Macintosh; Intel Mac OS X 10_11_6) AppleWebKit/537.36 (KHTML, like Gecko) Chrome/86.0.4240.111 Safari/537.36",38,"[0.9, 0.5, 0.1]","[0.8, 0.4, 0.2]","[u'red', u'black', u'blue']","[u'left', u'middle', u'right']","[0.9, 0.5, 0.1]","[u'low', u'high', u'medium']","black",50,"middle","high","True","False",336,1850,NA
"AC5UD8N187QD6","Sun Nov 01 2020 13:49:25 GMT-0500 (Eastern Standard Time)","Sun Nov 01 2020 13:57:50 GMT-0500 (Eastern Standard Time)","Mozilla/5.0 (Macintosh; Intel Mac OS X 10_11_6) AppleWebKit/537.36 (KHTML, like Gecko) Chrome/86.0.4240.111 Safari/537.36",39,"[0.9, 0.5, 0.1]","[0.8, 0.4, 0.2]","[u'red', u'black', u'blue']","[u'left', u'middle', u'right']","[0.9, 0.5, 0.1]","[u'low', u'high', u'medium']","black",50,"middle","high","True","False",282,1950,NA
"AC5UD8N187QD6","Sun Nov 01 2020 13:49:25 GMT-0500 (Eastern Standard Time)","Sun Nov 01 2020 13:57:50 GMT-0500 (Eastern Standard Time)","Mozilla/5.0 (Macintosh; Intel Mac OS X 10_11_6) AppleWebKit/537.36 (KHTML, like Gecko) Chrome/86.0.4240.111 Safari/537.36",40,"[0.9, 0.5, 0.1]","[0.8, 0.4, 0.2]","[u'red', u'black', u'blue']","[u'left', u'middle', u'right']","[0.9, 0.5, 0.1]","[u'low', u'high', u'medium']","black",50,"middle","high","True","False",370,2050,NA
"AC5UD8N187QD6","Sun Nov 01 2020 13:49:25 GMT-0500 (Eastern Standard Time)","Sun Nov 01 2020 13:57:50 GMT-0500 (Eastern Standard Time)","Mozilla/5.0 (Macintosh; Intel Mac OS X 10_11_6) AppleWebKit/537.36 (KHTML, like Gecko) Chrome/86.0.4240.111 Safari/537.36",41,"[0.9, 0.5, 0.1]","[0.8, 0.4, 0.2]","[u'red', u'black', u'blue']","[u'left', u'middle', u'right']","[0.9, 0.5, 0.1]","[u'low', u'medium', u'high']","black",50,"middle","medium","False","False",562,2000,NA
"AC5UD8N187QD6","Sun Nov 01 2020 13:49:25 GMT-0500 (Eastern Standard Time)","Sun Nov 01 2020 13:57:50 GMT-0500 (Eastern Standard Time)","Mozilla/5.0 (Macintosh; Intel Mac OS X 10_11_6) AppleWebKit/537.36 (KHTML, like Gecko) Chrome/86.0.4240.111 Safari/537.36",42,"[0.9, 0.5, 0.1]","[0.8, 0.4, 0.2]","[u'red', u'black', u'blue']","[u'left', u'middle', u'right']","[0.9, 0.5, 0.1]","[u'low', u'medium', u'high']","red",49,"left","low","False","False",360,1950,NA
"AC5UD8N187QD6","Sun Nov 01 2020 13:49:25 GMT-0500 (Eastern Standard Time)","Sun Nov 01 2020 13:57:50 GMT-0500 (Eastern Standard Time)","Mozilla/5.0 (Macintosh; Intel Mac OS X 10_11_6) AppleWebKit/537.36 (KHTML, like Gecko) Chrome/86.0.4240.111 Safari/537.36",43,"[0.9, 0.5, 0.1]","[0.8, 0.4, 0.2]","[u'red', u'black', u'blue']","[u'left', u'middle', u'right']","[0.9, 0.5, 0.1]","[u'low', u'medium', u'high']","blue",51,"right","high","True","False",265,2050,NA
"AC5UD8N187QD6","Sun Nov 01 2020 13:49:25 GMT-0500 (Eastern Standard Time)","Sun Nov 01 2020 13:57:50 GMT-0500 (Eastern Standard Time)","Mozilla/5.0 (Macintosh; Intel Mac OS X 10_11_6) AppleWebKit/537.36 (KHTML, like Gecko) Chrome/86.0.4240.111 Safari/537.36",44,"[0.9, 0.5, 0.1]","[0.8, 0.4, 0.2]","[u'red', u'black', u'blue']","[u'left', u'middle', u'right']","[0.9, 0.5, 0.1]","[u'low', u'medium', u'high']","blue",51,"right","high","True","False",361,2150,NA
"AC5UD8N187QD6","Sun Nov 01 2020 13:49:25 GMT-0500 (Eastern Standard Time)","Sun Nov 01 2020 13:57:50 GMT-0500 (Eastern Standard Time)","Mozilla/5.0 (Macintosh; Intel Mac OS X 10_11_6) AppleWebKit/537.36 (KHTML, like Gecko) Chrome/86.0.4240.111 Safari/537.36",45,"[0.9, 0.5, 0.1]","[0.8, 0.4, 0.2]","[u'red', u'black', u'blue']","[u'left', u'middle', u'right']","[0.9, 0.5, 0.1]","[u'low', u'medium', u'high']","blue",51,"right","high","True","False",352,2250,NA
"AC5UD8N187QD6","Sun Nov 01 2020 13:49:25 GMT-0500 (Eastern Standard Time)","Sun Nov 01 2020 13:57:50 GMT-0500 (Eastern Standard Time)","Mozilla/5.0 (Macintosh; Intel Mac OS X 10_11_6) AppleWebKit/537.36 (KHTML, like Gecko) Chrome/86.0.4240.111 Safari/537.36",46,"[0.9, 0.5, 0.1]","[0.8, 0.4, 0.2]","[u'red', u'black', u'blue']","[u'left', u'middle', u'right']","[0.9, 0.5, 0.1]","[u'low', u'medium', u'high']","blue",51,"right","high","True","False",368,2350,NA
"AC5UD8N187QD6","Sun Nov 01 2020 13:49:25 GMT-0500 (Eastern Standard Time)","Sun Nov 01 2020 13:57:50 GMT-0500 (Eastern Standard Time)","Mozilla/5.0 (Macintosh; Intel Mac OS X 10_11_6) AppleWebKit/537.36 (KHTML, like Gecko) Chrome/86.0.4240.111 Safari/537.36",47,"[0.9, 0.5, 0.1]","[0.8, 0.4, 0.2]","[u'red', u'black', u'blue']","[u'left', u'middle', u'right']","[0.9, 0.5, 0.1]","[u'low', u'medium', u'high']","blue",51,"right","high","True","False",408,2450,NA
"AC5UD8N187QD6","Sun Nov 01 2020 13:49:25 GMT-0500 (Eastern Standard Time)","Sun Nov 01 2020 13:57:50 GMT-0500 (Eastern Standard Time)","Mozilla/5.0 (Macintosh; Intel Mac OS X 10_11_6) AppleWebKit/537.36 (KHTML, like Gecko) Chrome/86.0.4240.111 Safari/537.36",48,"[0.9, 0.5, 0.1]","[0.8, 0.4, 0.2]","[u'red', u'black', u'blue']","[u'left', u'middle', u'right']","[0.9, 0.5, 0.1]","[u'low', u'medium', u'high']","blue",51,"right","high","True","False",408,2550,NA
"AC5UD8N187QD6","Sun Nov 01 2020 13:49:25 GMT-0500 (Eastern Standard Time)","Sun Nov 01 2020 13:57:50 GMT-0500 (Eastern Standard Time)","Mozilla/5.0 (Macintosh; Intel Mac OS X 10_11_6) AppleWebKit/537.36 (KHTML, like Gecko) Chrome/86.0.4240.111 Safari/537.36",49,"[0.9, 0.5, 0.1]","[0.8, 0.4, 0.2]","[u'red', u'black', u'blue']","[u'left', u'middle', u'right']","[0.9, 0.5, 0.1]","[u'low', u'medium', u'high']","blue",51,"right","high","True","False",353,2650,NA
"AC5UD8N187QD6","Sun Nov 01 2020 13:49:25 GMT-0500 (Eastern Standard Time)","Sun Nov 01 2020 13:57:50 GMT-0500 (Eastern Standard Time)","Mozilla/5.0 (Macintosh; Intel Mac OS X 10_11_6) AppleWebKit/537.36 (KHTML, like Gecko) Chrome/86.0.4240.111 Safari/537.36",50,"[0.9, 0.5, 0.1]","[0.8, 0.4, 0.2]","[u'red', u'black', u'blue']","[u'left', u'middle', u'right']","[0.9, 0.5, 0.1]","[u'low', u'medium', u'high']","blue",51,"right","high","True","False",360,2750,NA
"AC5UD8N187QD6","Sun Nov 01 2020 13:49:25 GMT-0500 (Eastern Standard Time)","Sun Nov 01 2020 13:57:50 GMT-0500 (Eastern Standard Time)","Mozilla/5.0 (Macintosh; Intel Mac OS X 10_11_6) AppleWebKit/537.36 (KHTML, like Gecko) Chrome/86.0.4240.111 Safari/537.36",51,"[0.9, 0.5, 0.1]","[0.8, 0.4, 0.2]","[u'red', u'black', u'blue']","[u'left', u'middle', u'right']","[0.9, 0.5, 0.1]","[u'low', u'medium', u'high']","blue",51,"right","high","True","True",337,2850,NA
"AC5UD8N187QD6","Sun Nov 01 2020 13:49:25 GMT-0500 (Eastern Standard Time)","Sun Nov 01 2020 13:57:50 GMT-0500 (Eastern Standard Time)","Mozilla/5.0 (Macintosh; Intel Mac OS X 10_11_6) AppleWebKit/537.36 (KHTML, like Gecko) Chrome/86.0.4240.111 Safari/537.36",52,"[0.9, 0.5, 0.1]","[0.8, 0.4, 0.2]","[u'red', u'black', u'blue']","[u'left', u'middle', u'right']","[0.9, 0.5, 0.1]","[u'low', u'high', u'medium']","blue",51,"right","medium","True","False",377,2950,NA
"AC5UD8N187QD6","Sun Nov 01 2020 13:49:25 GMT-0500 (Eastern Standard Time)","Sun Nov 01 2020 13:57:50 GMT-0500 (Eastern Standard Time)","Mozilla/5.0 (Macintosh; Intel Mac OS X 10_11_6) AppleWebKit/537.36 (KHTML, like Gecko) Chrome/86.0.4240.111 Safari/537.36",53,"[0.9, 0.5, 0.1]","[0.8, 0.4, 0.2]","[u'red', u'black', u'blue']","[u'left', u'middle', u'right']","[0.9, 0.5, 0.1]","[u'low', u'high', u'medium']","blue",51,"right","medium","False","False",504,2900,NA
"AC5UD8N187QD6","Sun Nov 01 2020 13:49:25 GMT-0500 (Eastern Standard Time)","Sun Nov 01 2020 13:57:50 GMT-0500 (Eastern Standard Time)","Mozilla/5.0 (Macintosh; Intel Mac OS X 10_11_6) AppleWebKit/537.36 (KHTML, like Gecko) Chrome/86.0.4240.111 Safari/537.36",54,"[0.9, 0.5, 0.1]","[0.8, 0.4, 0.2]","[u'red', u'black', u'blue']","[u'left', u'middle', u'right']","[0.9, 0.5, 0.1]","[u'low', u'high', u'medium']","black",50,"middle","high","True","False",279,3000,NA
"AC5UD8N187QD6","Sun Nov 01 2020 13:49:25 GMT-0500 (Eastern Standard Time)","Sun Nov 01 2020 13:57:50 GMT-0500 (Eastern Standard Time)","Mozilla/5.0 (Macintosh; Intel Mac OS X 10_11_6) AppleWebKit/537.36 (KHTML, like Gecko) Chrome/86.0.4240.111 Safari/537.36",55,"[0.9, 0.5, 0.1]","[0.8, 0.4, 0.2]","[u'red', u'black', u'blue']","[u'left', u'middle', u'right']","[0.9, 0.5, 0.1]","[u'low', u'high', u'medium']","black",50,"middle","high","True","False",298,3100,NA
"AC5UD8N187QD6","Sun Nov 01 2020 13:49:25 GMT-0500 (Eastern Standard Time)","Sun Nov 01 2020 13:57:50 GMT-0500 (Eastern Standard Time)","Mozilla/5.0 (Macintosh; Intel Mac OS X 10_11_6) AppleWebKit/537.36 (KHTML, like Gecko) Chrome/86.0.4240.111 Safari/537.36",56,"[0.9, 0.5, 0.1]","[0.8, 0.4, 0.2]","[u'red', u'black', u'blue']","[u'left', u'middle', u'right']","[0.9, 0.5, 0.1]","[u'low', u'high', u'medium']","black",50,"middle","high","True","False",330,3200,NA
"AC5UD8N187QD6","Sun Nov 01 2020 13:49:25 GMT-0500 (Eastern Standard Time)","Sun Nov 01 2020 13:57:50 GMT-0500 (Eastern Standard Time)","Mozilla/5.0 (Macintosh; Intel Mac OS X 10_11_6) AppleWebKit/537.36 (KHTML, like Gecko) Chrome/86.0.4240.111 Safari/537.36",57,"[0.9, 0.5, 0.1]","[0.8, 0.4, 0.2]","[u'red', u'black', u'blue']","[u'left', u'middle', u'right']","[0.9, 0.5, 0.1]","[u'low', u'high', u'medium']","black",50,"middle","high","True","False",344,3300,NA
"AC5UD8N187QD6","Sun Nov 01 2020 13:49:25 GMT-0500 (Eastern Standard Time)","Sun Nov 01 2020 13:57:50 GMT-0500 (Eastern Standard Time)","Mozilla/5.0 (Macintosh; Intel Mac OS X 10_11_6) AppleWebKit/537.36 (KHTML, like Gecko) Chrome/86.0.4240.111 Safari/537.36",58,"[0.9, 0.5, 0.1]","[0.8, 0.4, 0.2]","[u'red', u'black', u'blue']","[u'left', u'middle', u'right']","[0.9, 0.5, 0.1]","[u'low', u'high', u'medium']","black",50,"middle","high","True","False",408,3400,NA
"AC5UD8N187QD6","Sun Nov 01 2020 13:49:25 GMT-0500 (Eastern Standard Time)","Sun Nov 01 2020 13:57:50 GMT-0500 (Eastern Standard Time)","Mozilla/5.0 (Macintosh; Intel Mac OS X 10_11_6) AppleWebKit/537.36 (KHTML, like Gecko) Chrome/86.0.4240.111 Safari/537.36",59,"[0.9, 0.5, 0.1]","[0.8, 0.4, 0.2]","[u'red', u'black', u'blue']","[u'left', u'middle', u'right']","[0.9, 0.5, 0.1]","[u'low', u'high', u'medium']","black",50,"middle","high","True","False",288,3500,NA
"AC5UD8N187QD6","Sun Nov 01 2020 13:49:25 GMT-0500 (Eastern Standard Time)","Sun Nov 01 2020 13:57:50 GMT-0500 (Eastern Standard Time)","Mozilla/5.0 (Macintosh; Intel Mac OS X 10_11_6) AppleWebKit/537.36 (KHTML, like Gecko) Chrome/86.0.4240.111 Safari/537.36",60,"[0.9, 0.5, 0.1]","[0.8, 0.4, 0.2]","[u'red', u'black', u'blue']","[u'left', u'middle', u'right']","[0.9, 0.5, 0.1]","[u'low', u'high', u'medium']","black",50,"middle","high","True","False",385,3600,NA
"AC5UD8N187QD6","Sun Nov 01 2020 13:49:25 GMT-0500 (Eastern Standard Time)","Sun Nov 01 2020 13:57:50 GMT-0500 (Eastern Standard Time)","Mozilla/5.0 (Macintosh; Intel Mac OS X 10_11_6) AppleWebKit/537.36 (KHTML, like Gecko) Chrome/86.0.4240.111 Safari/537.36",61,"[0.9, 0.5, 0.1]","[0.8, 0.4, 0.2]","[u'red', u'black', u'blue']","[u'left', u'middle', u'right']","[0.9, 0.5, 0.1]","[u'low', u'high', u'medium']","black",50,"middle","high","True","False",408,3700,NA
"AC5UD8N187QD6","Sun Nov 01 2020 13:49:25 GMT-0500 (Eastern Standard Time)","Sun Nov 01 2020 13:57:50 GMT-0500 (Eastern Standard Time)","Mozilla/5.0 (Macintosh; Intel Mac OS X 10_11_6) AppleWebKit/537.36 (KHTML, like Gecko) Chrome/86.0.4240.111 Safari/537.36",62,"[0.9, 0.5, 0.1]","[0.8, 0.4, 0.2]","[u'red', u'black', u'blue']","[u'left', u'middle', u'right']","[0.9, 0.5, 0.1]","[u'low', u'high', u'medium']","black",50,"middle","high","True","True",358,3800,NA
"AC5UD8N187QD6","Sun Nov 01 2020 13:49:25 GMT-0500 (Eastern Standard Time)","Sun Nov 01 2020 13:57:50 GMT-0500 (Eastern Standard Time)","Mozilla/5.0 (Macintosh; Intel Mac OS X 10_11_6) AppleWebKit/537.36 (KHTML, like Gecko) Chrome/86.0.4240.111 Safari/537.36",63,"[0.9, 0.5, 0.1]","[0.8, 0.4, 0.2]","[u'red', u'black', u'blue']","[u'left', u'middle', u'right']","[0.9, 0.5, 0.1]","[u'medium', u'low', u'high']","black",50,"middle","low","False","False",480,3750,NA
"AC5UD8N187QD6","Sun Nov 01 2020 13:49:25 GMT-0500 (Eastern Standard Time)","Sun Nov 01 2020 13:57:50 GMT-0500 (Eastern Standard Time)","Mozilla/5.0 (Macintosh; Intel Mac OS X 10_11_6) AppleWebKit/537.36 (KHTML, like Gecko) Chrome/86.0.4240.111 Safari/537.36",64,"[0.9, 0.5, 0.1]","[0.8, 0.4, 0.2]","[u'red', u'black', u'blue']","[u'left', u'middle', u'right']","[0.9, 0.5, 0.1]","[u'medium', u'low', u'high']","red",49,"left","medium","True","False",379,3850,NA
"AC5UD8N187QD6","Sun Nov 01 2020 13:49:25 GMT-0500 (Eastern Standard Time)","Sun Nov 01 2020 13:57:50 GMT-0500 (Eastern Standard Time)","Mozilla/5.0 (Macintosh; Intel Mac OS X 10_11_6) AppleWebKit/537.36 (KHTML, like Gecko) Chrome/86.0.4240.111 Safari/537.36",65,"[0.9, 0.5, 0.1]","[0.8, 0.4, 0.2]","[u'red', u'black', u'blue']","[u'left', u'middle', u'right']","[0.9, 0.5, 0.1]","[u'medium', u'low', u'high']","red",49,"left","medium","False","False",303,3800,NA
"AC5UD8N187QD6","Sun Nov 01 2020 13:49:25 GMT-0500 (Eastern Standard Time)","Sun Nov 01 2020 13:57:50 GMT-0500 (Eastern Standard Time)","Mozilla/5.0 (Macintosh; Intel Mac OS X 10_11_6) AppleWebKit/537.36 (KHTML, like Gecko) Chrome/86.0.4240.111 Safari/537.36",66,"[0.9, 0.5, 0.1]","[0.8, 0.4, 0.2]","[u'red', u'black', u'blue']","[u'left', u'middle', u'right']","[0.9, 0.5, 0.1]","[u'medium', u'low', u'high']","red",49,"left","medium","True","False",329,3900,NA
"AC5UD8N187QD6","Sun Nov 01 2020 13:49:25 GMT-0500 (Eastern Standard Time)","Sun Nov 01 2020 13:57:50 GMT-0500 (Eastern Standard Time)","Mozilla/5.0 (Macintosh; Intel Mac OS X 10_11_6) AppleWebKit/537.36 (KHTML, like Gecko) Chrome/86.0.4240.111 Safari/537.36",67,"[0.9, 0.5, 0.1]","[0.8, 0.4, 0.2]","[u'red', u'black', u'blue']","[u'left', u'middle', u'right']","[0.9, 0.5, 0.1]","[u'medium', u'low', u'high']","red",49,"left","medium","True","False",360,4000,NA
"AC5UD8N187QD6","Sun Nov 01 2020 13:49:25 GMT-0500 (Eastern Standard Time)","Sun Nov 01 2020 13:57:50 GMT-0500 (Eastern Standard Time)","Mozilla/5.0 (Macintosh; Intel Mac OS X 10_11_6) AppleWebKit/537.36 (KHTML, like Gecko) Chrome/86.0.4240.111 Safari/537.36",68,"[0.9, 0.5, 0.1]","[0.8, 0.4, 0.2]","[u'red', u'black', u'blue']","[u'left', u'middle', u'right']","[0.9, 0.5, 0.1]","[u'medium', u'low', u'high']","red",49,"left","medium","False","False",352,3950,NA
"AC5UD8N187QD6","Sun Nov 01 2020 13:49:25 GMT-0500 (Eastern Standard Time)","Sun Nov 01 2020 13:57:50 GMT-0500 (Eastern Standard Time)","Mozilla/5.0 (Macintosh; Intel Mac OS X 10_11_6) AppleWebKit/537.36 (KHTML, like Gecko) Chrome/86.0.4240.111 Safari/537.36",69,"[0.9, 0.5, 0.1]","[0.8, 0.4, 0.2]","[u'red', u'black', u'blue']","[u'left', u'middle', u'right']","[0.9, 0.5, 0.1]","[u'medium', u'low', u'high']","red",49,"left","medium","True","False",352,4050,NA
"AC5UD8N187QD6","Sun Nov 01 2020 13:49:25 GMT-0500 (Eastern Standard Time)","Sun Nov 01 2020 13:57:50 GMT-0500 (Eastern Standard Time)","Mozilla/5.0 (Macintosh; Intel Mac OS X 10_11_6) AppleWebKit/537.36 (KHTML, like Gecko) Chrome/86.0.4240.111 Safari/537.36",70,"[0.9, 0.5, 0.1]","[0.8, 0.4, 0.2]","[u'red', u'black', u'blue']","[u'left', u'middle', u'right']","[0.9, 0.5, 0.1]","[u'medium', u'low', u'high']","blue",51,"right","high","True","False",315,4150,NA
"AC5UD8N187QD6","Sun Nov 01 2020 13:49:25 GMT-0500 (Eastern Standard Time)","Sun Nov 01 2020 13:57:50 GMT-0500 (Eastern Standard Time)","Mozilla/5.0 (Macintosh; Intel Mac OS X 10_11_6) AppleWebKit/537.36 (KHTML, like Gecko) Chrome/86.0.4240.111 Safari/537.36",71,"[0.9, 0.5, 0.1]","[0.8, 0.4, 0.2]","[u'red', u'black', u'blue']","[u'left', u'middle', u'right']","[0.9, 0.5, 0.1]","[u'medium', u'low', u'high']","blue",51,"right","high","True","False",310,4250,NA
"AC5UD8N187QD6","Sun Nov 01 2020 13:49:25 GMT-0500 (Eastern Standard Time)","Sun Nov 01 2020 13:57:50 GMT-0500 (Eastern Standard Time)","Mozilla/5.0 (Macintosh; Intel Mac OS X 10_11_6) AppleWebKit/537.36 (KHTML, like Gecko) Chrome/86.0.4240.111 Safari/537.36",72,"[0.9, 0.5, 0.1]","[0.8, 0.4, 0.2]","[u'red', u'black', u'blue']","[u'left', u'middle', u'right']","[0.9, 0.5, 0.1]","[u'medium', u'low', u'high']","blue",51,"right","high","True","False",368,4350,NA
"AC5UD8N187QD6","Sun Nov 01 2020 13:49:25 GMT-0500 (Eastern Standard Time)","Sun Nov 01 2020 13:57:50 GMT-0500 (Eastern Standard Time)","Mozilla/5.0 (Macintosh; Intel Mac OS X 10_11_6) AppleWebKit/537.36 (KHTML, like Gecko) Chrome/86.0.4240.111 Safari/537.36",73,"[0.9, 0.5, 0.1]","[0.8, 0.4, 0.2]","[u'red', u'black', u'blue']","[u'left', u'middle', u'right']","[0.9, 0.5, 0.1]","[u'medium', u'low', u'high']","blue",51,"right","high","True","False",392,4450,NA
"AC5UD8N187QD6","Sun Nov 01 2020 13:49:25 GMT-0500 (Eastern Standard Time)","Sun Nov 01 2020 13:57:50 GMT-0500 (Eastern Standard Time)","Mozilla/5.0 (Macintosh; Intel Mac OS X 10_11_6) AppleWebKit/537.36 (KHTML, like Gecko) Chrome/86.0.4240.111 Safari/537.36",74,"[0.9, 0.5, 0.1]","[0.8, 0.4, 0.2]","[u'red', u'black', u'blue']","[u'left', u'middle', u'right']","[0.9, 0.5, 0.1]","[u'medium', u'low', u'high']","blue",51,"right","high","True","False",330,4550,NA
"AC5UD8N187QD6","Sun Nov 01 2020 13:49:25 GMT-0500 (Eastern Standard Time)","Sun Nov 01 2020 13:57:50 GMT-0500 (Eastern Standard Time)","Mozilla/5.0 (Macintosh; Intel Mac OS X 10_11_6) AppleWebKit/537.36 (KHTML, like Gecko) Chrome/86.0.4240.111 Safari/537.36",75,"[0.9, 0.5, 0.1]","[0.8, 0.4, 0.2]","[u'red', u'black', u'blue']","[u'left', u'middle', u'right']","[0.9, 0.5, 0.1]","[u'medium', u'low', u'high']","blue",51,"right","high","True","False",328,4650,NA
"AC5UD8N187QD6","Sun Nov 01 2020 13:49:25 GMT-0500 (Eastern Standard Time)","Sun Nov 01 2020 13:57:50 GMT-0500 (Eastern Standard Time)","Mozilla/5.0 (Macintosh; Intel Mac OS X 10_11_6) AppleWebKit/537.36 (KHTML, like Gecko) Chrome/86.0.4240.111 Safari/537.36",76,"[0.9, 0.5, 0.1]","[0.8, 0.4, 0.2]","[u'red', u'black', u'blue']","[u'left', u'middle', u'right']","[0.9, 0.5, 0.1]","[u'medium', u'low', u'high']","blue",51,"right","high","True","False",312,4750,NA
"AC5UD8N187QD6","Sun Nov 01 2020 13:49:25 GMT-0500 (Eastern Standard Time)","Sun Nov 01 2020 13:57:50 GMT-0500 (Eastern Standard Time)","Mozilla/5.0 (Macintosh; Intel Mac OS X 10_11_6) AppleWebKit/537.36 (KHTML, like Gecko) Chrome/86.0.4240.111 Safari/537.36",77,"[0.9, 0.5, 0.1]","[0.8, 0.4, 0.2]","[u'red', u'black', u'blue']","[u'left', u'middle', u'right']","[0.9, 0.5, 0.1]","[u'medium', u'low', u'high']","blue",51,"right","high","True","False",346,4850,NA
"AC5UD8N187QD6","Sun Nov 01 2020 13:49:25 GMT-0500 (Eastern Standard Time)","Sun Nov 01 2020 13:57:50 GMT-0500 (Eastern Standard Time)","Mozilla/5.0 (Macintosh; Intel Mac OS X 10_11_6) AppleWebKit/537.36 (KHTML, like Gecko) Chrome/86.0.4240.111 Safari/537.36",78,"[0.9, 0.5, 0.1]","[0.8, 0.4, 0.2]","[u'red', u'black', u'blue']","[u'left', u'middle', u'right']","[0.9, 0.5, 0.1]","[u'medium', u'low', u'high']","blue",51,"right","high","True","True",399,4950,NA
"AC5UD8N187QD6","Sun Nov 01 2020 13:49:25 GMT-0500 (Eastern Standard Time)","Sun Nov 01 2020 13:57:50 GMT-0500 (Eastern Standard Time)","Mozilla/5.0 (Macintosh; Intel Mac OS X 10_11_6) AppleWebKit/537.36 (KHTML, like Gecko) Chrome/86.0.4240.111 Safari/537.36",79,"[0.9, 0.5, 0.1]","[0.8, 0.4, 0.2]","[u'red', u'black', u'blue']","[u'left', u'middle', u'right']","[0.9, 0.5, 0.1]","[u'high', u'medium', u'low']","blue",51,"right","low","False","False",360,4900,NA
"AC5UD8N187QD6","Sun Nov 01 2020 13:49:25 GMT-0500 (Eastern Standard Time)","Sun Nov 01 2020 13:57:50 GMT-0500 (Eastern Standard Time)","Mozilla/5.0 (Macintosh; Intel Mac OS X 10_11_6) AppleWebKit/537.36 (KHTML, like Gecko) Chrome/86.0.4240.111 Safari/537.36",80,"[0.9, 0.5, 0.1]","[0.8, 0.4, 0.2]","[u'red', u'black', u'blue']","[u'left', u'middle', u'right']","[0.9, 0.5, 0.1]","[u'high', u'medium', u'low']","black",50,"middle","medium","True","False",408,5000,NA
"AC5UD8N187QD6","Sun Nov 01 2020 13:49:25 GMT-0500 (Eastern Standard Time)","Sun Nov 01 2020 13:57:50 GMT-0500 (Eastern Standard Time)","Mozilla/5.0 (Macintosh; Intel Mac OS X 10_11_6) AppleWebKit/537.36 (KHTML, like Gecko) Chrome/86.0.4240.111 Safari/537.36",81,"[0.9, 0.5, 0.1]","[0.8, 0.4, 0.2]","[u'red', u'black', u'blue']","[u'left', u'middle', u'right']","[0.8, 0.4, 0.2]","[u'low', u'high', u'medium']","red",49,"left","low","False","False",592,4950,NA
"AC5UD8N187QD6","Sun Nov 01 2020 13:49:25 GMT-0500 (Eastern Standard Time)","Sun Nov 01 2020 13:57:50 GMT-0500 (Eastern Standard Time)","Mozilla/5.0 (Macintosh; Intel Mac OS X 10_11_6) AppleWebKit/537.36 (KHTML, like Gecko) Chrome/86.0.4240.111 Safari/537.36",82,"[0.9, 0.5, 0.1]","[0.8, 0.4, 0.2]","[u'red', u'black', u'blue']","[u'left', u'middle', u'right']","[0.8, 0.4, 0.2]","[u'low', u'high', u'medium']","black",50,"middle","high","False","False",335,4900,NA
"AC5UD8N187QD6","Sun Nov 01 2020 13:49:25 GMT-0500 (Eastern Standard Time)","Sun Nov 01 2020 13:57:50 GMT-0500 (Eastern Standard Time)","Mozilla/5.0 (Macintosh; Intel Mac OS X 10_11_6) AppleWebKit/537.36 (KHTML, like Gecko) Chrome/86.0.4240.111 Safari/537.36",83,"[0.9, 0.5, 0.1]","[0.8, 0.4, 0.2]","[u'red', u'black', u'blue']","[u'left', u'middle', u'right']","[0.8, 0.4, 0.2]","[u'low', u'high', u'medium']","blue",51,"right","medium","False","False",344,4850,NA
"AC5UD8N187QD6","Sun Nov 01 2020 13:49:25 GMT-0500 (Eastern Standard Time)","Sun Nov 01 2020 13:57:50 GMT-0500 (Eastern Standard Time)","Mozilla/5.0 (Macintosh; Intel Mac OS X 10_11_6) AppleWebKit/537.36 (KHTML, like Gecko) Chrome/86.0.4240.111 Safari/537.36",84,"[0.9, 0.5, 0.1]","[0.8, 0.4, 0.2]","[u'red', u'black', u'blue']","[u'left', u'middle', u'right']","[0.8, 0.4, 0.2]","[u'low', u'high', u'medium']","red",49,"left","low","False","False",281,4800,NA
"AC5UD8N187QD6","Sun Nov 01 2020 13:49:25 GMT-0500 (Eastern Standard Time)","Sun Nov 01 2020 13:57:50 GMT-0500 (Eastern Standard Time)","Mozilla/5.0 (Macintosh; Intel Mac OS X 10_11_6) AppleWebKit/537.36 (KHTML, like Gecko) Chrome/86.0.4240.111 Safari/537.36",85,"[0.9, 0.5, 0.1]","[0.8, 0.4, 0.2]","[u'red', u'black', u'blue']","[u'left', u'middle', u'right']","[0.8, 0.4, 0.2]","[u'low', u'high', u'medium']","black",50,"middle","high","False","False",304,4750,NA
"AC5UD8N187QD6","Sun Nov 01 2020 13:49:25 GMT-0500 (Eastern Standard Time)","Sun Nov 01 2020 13:57:50 GMT-0500 (Eastern Standard Time)","Mozilla/5.0 (Macintosh; Intel Mac OS X 10_11_6) AppleWebKit/537.36 (KHTML, like Gecko) Chrome/86.0.4240.111 Safari/537.36",86,"[0.9, 0.5, 0.1]","[0.8, 0.4, 0.2]","[u'red', u'black', u'blue']","[u'left', u'middle', u'right']","[0.8, 0.4, 0.2]","[u'low', u'high', u'medium']","blue",51,"right","medium","False","False",481,4700,NA
"AC5UD8N187QD6","Sun Nov 01 2020 13:49:25 GMT-0500 (Eastern Standard Time)","Sun Nov 01 2020 13:57:50 GMT-0500 (Eastern Standard Time)","Mozilla/5.0 (Macintosh; Intel Mac OS X 10_11_6) AppleWebKit/537.36 (KHTML, like Gecko) Chrome/86.0.4240.111 Safari/537.36",87,"[0.9, 0.5, 0.1]","[0.8, 0.4, 0.2]","[u'red', u'black', u'blue']","[u'left', u'middle', u'right']","[0.8, 0.4, 0.2]","[u'low', u'high', u'medium']","red",49,"left","low","False","False",360,4650,NA
"AC5UD8N187QD6","Sun Nov 01 2020 13:49:25 GMT-0500 (Eastern Standard Time)","Sun Nov 01 2020 13:57:50 GMT-0500 (Eastern Standard Time)","Mozilla/5.0 (Macintosh; Intel Mac OS X 10_11_6) AppleWebKit/537.36 (KHTML, like Gecko) Chrome/86.0.4240.111 Safari/537.36",88,"[0.9, 0.5, 0.1]","[0.8, 0.4, 0.2]","[u'red', u'black', u'blue']","[u'left', u'middle', u'right']","[0.8, 0.4, 0.2]","[u'low', u'high', u'medium']","black",50,"middle","high","True","False",302,4750,NA
"AC5UD8N187QD6","Sun Nov 01 2020 13:49:25 GMT-0500 (Eastern Standard Time)","Sun Nov 01 2020 13:57:50 GMT-0500 (Eastern Standard Time)","Mozilla/5.0 (Macintosh; Intel Mac OS X 10_11_6) AppleWebKit/537.36 (KHTML, like Gecko) Chrome/86.0.4240.111 Safari/537.36",89,"[0.9, 0.5, 0.1]","[0.8, 0.4, 0.2]","[u'red', u'black', u'blue']","[u'left', u'middle', u'right']","[0.8, 0.4, 0.2]","[u'low', u'high', u'medium']","black",50,"middle","high","True","False",320,4850,NA
"AC5UD8N187QD6","Sun Nov 01 2020 13:49:25 GMT-0500 (Eastern Standard Time)","Sun Nov 01 2020 13:57:50 GMT-0500 (Eastern Standard Time)","Mozilla/5.0 (Macintosh; Intel Mac OS X 10_11_6) AppleWebKit/537.36 (KHTML, like Gecko) Chrome/86.0.4240.111 Safari/537.36",90,"[0.9, 0.5, 0.1]","[0.8, 0.4, 0.2]","[u'red', u'black', u'blue']","[u'left', u'middle', u'right']","[0.8, 0.4, 0.2]","[u'low', u'high', u'medium']","black",50,"middle","high","True","False",362,4950,NA
"AC5UD8N187QD6","Sun Nov 01 2020 13:49:25 GMT-0500 (Eastern Standard Time)","Sun Nov 01 2020 13:57:50 GMT-0500 (Eastern Standard Time)","Mozilla/5.0 (Macintosh; Intel Mac OS X 10_11_6) AppleWebKit/537.36 (KHTML, like Gecko) Chrome/86.0.4240.111 Safari/537.36",91,"[0.9, 0.5, 0.1]","[0.8, 0.4, 0.2]","[u'red', u'black', u'blue']","[u'left', u'middle', u'right']","[0.8, 0.4, 0.2]","[u'low', u'high', u'medium']","black",50,"middle","high","True","False",384,5050,NA
"AC5UD8N187QD6","Sun Nov 01 2020 13:49:25 GMT-0500 (Eastern Standard Time)","Sun Nov 01 2020 13:57:50 GMT-0500 (Eastern Standard Time)","Mozilla/5.0 (Macintosh; Intel Mac OS X 10_11_6) AppleWebKit/537.36 (KHTML, like Gecko) Chrome/86.0.4240.111 Safari/537.36",92,"[0.9, 0.5, 0.1]","[0.8, 0.4, 0.2]","[u'red', u'black', u'blue']","[u'left', u'middle', u'right']","[0.8, 0.4, 0.2]","[u'low', u'high', u'medium']","black",50,"middle","high","True","False",442,5150,NA
"AC5UD8N187QD6","Sun Nov 01 2020 13:49:25 GMT-0500 (Eastern Standard Time)","Sun Nov 01 2020 13:57:50 GMT-0500 (Eastern Standard Time)","Mozilla/5.0 (Macintosh; Intel Mac OS X 10_11_6) AppleWebKit/537.36 (KHTML, like Gecko) Chrome/86.0.4240.111 Safari/537.36",93,"[0.9, 0.5, 0.1]","[0.8, 0.4, 0.2]","[u'red', u'black', u'blue']","[u'left', u'middle', u'right']","[0.8, 0.4, 0.2]","[u'low', u'high', u'medium']","black",50,"middle","high","True","False",400,5250,NA
"AC5UD8N187QD6","Sun Nov 01 2020 13:49:25 GMT-0500 (Eastern Standard Time)","Sun Nov 01 2020 13:57:50 GMT-0500 (Eastern Standard Time)","Mozilla/5.0 (Macintosh; Intel Mac OS X 10_11_6) AppleWebKit/537.36 (KHTML, like Gecko) Chrome/86.0.4240.111 Safari/537.36",94,"[0.9, 0.5, 0.1]","[0.8, 0.4, 0.2]","[u'red', u'black', u'blue']","[u'left', u'middle', u'right']","[0.8, 0.4, 0.2]","[u'low', u'high', u'medium']","black",50,"middle","high","True","False",368,5350,NA
"AC5UD8N187QD6","Sun Nov 01 2020 13:49:25 GMT-0500 (Eastern Standard Time)","Sun Nov 01 2020 13:57:50 GMT-0500 (Eastern Standard Time)","Mozilla/5.0 (Macintosh; Intel Mac OS X 10_11_6) AppleWebKit/537.36 (KHTML, like Gecko) Chrome/86.0.4240.111 Safari/537.36",95,"[0.9, 0.5, 0.1]","[0.8, 0.4, 0.2]","[u'red', u'black', u'blue']","[u'left', u'middle', u'right']","[0.8, 0.4, 0.2]","[u'low', u'high', u'medium']","black",50,"middle","high","False","False",432,5300,NA
"AC5UD8N187QD6","Sun Nov 01 2020 13:49:25 GMT-0500 (Eastern Standard Time)","Sun Nov 01 2020 13:57:50 GMT-0500 (Eastern Standard Time)","Mozilla/5.0 (Macintosh; Intel Mac OS X 10_11_6) AppleWebKit/537.36 (KHTML, like Gecko) Chrome/86.0.4240.111 Safari/537.36",96,"[0.9, 0.5, 0.1]","[0.8, 0.4, 0.2]","[u'red', u'black', u'blue']","[u'left', u'middle', u'right']","[0.8, 0.4, 0.2]","[u'low', u'high', u'medium']","black",50,"middle","high","True","True",439,5400,NA
"AC5UD8N187QD6","Sun Nov 01 2020 13:49:25 GMT-0500 (Eastern Standard Time)","Sun Nov 01 2020 13:57:50 GMT-0500 (Eastern Standard Time)","Mozilla/5.0 (Macintosh; Intel Mac OS X 10_11_6) AppleWebKit/537.36 (KHTML, like Gecko) Chrome/86.0.4240.111 Safari/537.36",97,"[0.9, 0.5, 0.1]","[0.8, 0.4, 0.2]","[u'red', u'black', u'blue']","[u'left', u'middle', u'right']","[0.8, 0.4, 0.2]","[u'high', u'medium', u'low']","black",50,"middle","medium","False","False",414,5350,NA
"AC5UD8N187QD6","Sun Nov 01 2020 13:49:25 GMT-0500 (Eastern Standard Time)","Sun Nov 01 2020 13:57:50 GMT-0500 (Eastern Standard Time)","Mozilla/5.0 (Macintosh; Intel Mac OS X 10_11_6) AppleWebKit/537.36 (KHTML, like Gecko) Chrome/86.0.4240.111 Safari/537.36",98,"[0.9, 0.5, 0.1]","[0.8, 0.4, 0.2]","[u'red', u'black', u'blue']","[u'left', u'middle', u'right']","[0.8, 0.4, 0.2]","[u'high', u'medium', u'low']","red",49,"left","high","True","False",360,5450,NA
"AC5UD8N187QD6","Sun Nov 01 2020 13:49:25 GMT-0500 (Eastern Standard Time)","Sun Nov 01 2020 13:57:50 GMT-0500 (Eastern Standard Time)","Mozilla/5.0 (Macintosh; Intel Mac OS X 10_11_6) AppleWebKit/537.36 (KHTML, like Gecko) Chrome/86.0.4240.111 Safari/537.36",99,"[0.9, 0.5, 0.1]","[0.8, 0.4, 0.2]","[u'red', u'black', u'blue']","[u'left', u'middle', u'right']","[0.8, 0.4, 0.2]","[u'high', u'medium', u'low']","red",49,"left","high","True","False",314,5550,NA
"AC5UD8N187QD6","Sun Nov 01 2020 13:49:25 GMT-0500 (Eastern Standard Time)","Sun Nov 01 2020 13:57:50 GMT-0500 (Eastern Standard Time)","Mozilla/5.0 (Macintosh; Intel Mac OS X 10_11_6) AppleWebKit/537.36 (KHTML, like Gecko) Chrome/86.0.4240.111 Safari/537.36",100,"[0.9, 0.5, 0.1]","[0.8, 0.4, 0.2]","[u'red', u'black', u'blue']","[u'left', u'middle', u'right']","[0.8, 0.4, 0.2]","[u'high', u'medium', u'low']","red",49,"left","high","True","False",361,5650,NA
"AC5UD8N187QD6","Sun Nov 01 2020 13:49:25 GMT-0500 (Eastern Standard Time)","Sun Nov 01 2020 13:57:50 GMT-0500 (Eastern Standard Time)","Mozilla/5.0 (Macintosh; Intel Mac OS X 10_11_6) AppleWebKit/537.36 (KHTML, like Gecko) Chrome/86.0.4240.111 Safari/537.36",101,"[0.9, 0.5, 0.1]","[0.8, 0.4, 0.2]","[u'red', u'black', u'blue']","[u'left', u'middle', u'right']","[0.8, 0.4, 0.2]","[u'high', u'medium', u'low']","red",49,"left","high","True","False",368,5750,NA
"AC5UD8N187QD6","Sun Nov 01 2020 13:49:25 GMT-0500 (Eastern Standard Time)","Sun Nov 01 2020 13:57:50 GMT-0500 (Eastern Standard Time)","Mozilla/5.0 (Macintosh; Intel Mac OS X 10_11_6) AppleWebKit/537.36 (KHTML, like Gecko) Chrome/86.0.4240.111 Safari/537.36",102,"[0.9, 0.5, 0.1]","[0.8, 0.4, 0.2]","[u'red', u'black', u'blue']","[u'left', u'middle', u'right']","[0.8, 0.4, 0.2]","[u'high', u'medium', u'low']","red",49,"left","high","True","False",514,5850,NA
"AC5UD8N187QD6","Sun Nov 01 2020 13:49:25 GMT-0500 (Eastern Standard Time)","Sun Nov 01 2020 13:57:50 GMT-0500 (Eastern Standard Time)","Mozilla/5.0 (Macintosh; Intel Mac OS X 10_11_6) AppleWebKit/537.36 (KHTML, like Gecko) Chrome/86.0.4240.111 Safari/537.36",103,"[0.9, 0.5, 0.1]","[0.8, 0.4, 0.2]","[u'red', u'black', u'blue']","[u'left', u'middle', u'right']","[0.8, 0.4, 0.2]","[u'high', u'medium', u'low']","red",49,"left","high","True","False",546,5950,NA
"AC5UD8N187QD6","Sun Nov 01 2020 13:49:25 GMT-0500 (Eastern Standard Time)","Sun Nov 01 2020 13:57:50 GMT-0500 (Eastern Standard Time)","Mozilla/5.0 (Macintosh; Intel Mac OS X 10_11_6) AppleWebKit/537.36 (KHTML, like Gecko) Chrome/86.0.4240.111 Safari/537.36",104,"[0.9, 0.5, 0.1]","[0.8, 0.4, 0.2]","[u'red', u'black', u'blue']","[u'left', u'middle', u'right']","[0.8, 0.4, 0.2]","[u'high', u'medium', u'low']","red",49,"left","high","True","False",321,6050,NA
"AC5UD8N187QD6","Sun Nov 01 2020 13:49:25 GMT-0500 (Eastern Standard Time)","Sun Nov 01 2020 13:57:50 GMT-0500 (Eastern Standard Time)","Mozilla/5.0 (Macintosh; Intel Mac OS X 10_11_6) AppleWebKit/537.36 (KHTML, like Gecko) Chrome/86.0.4240.111 Safari/537.36",105,"[0.9, 0.5, 0.1]","[0.8, 0.4, 0.2]","[u'red', u'black', u'blue']","[u'left', u'middle', u'right']","[0.8, 0.4, 0.2]","[u'high', u'medium', u'low']","red",49,"left","high","False","False",296,6000,NA
"AC5UD8N187QD6","Sun Nov 01 2020 13:49:25 GMT-0500 (Eastern Standard Time)","Sun Nov 01 2020 13:57:50 GMT-0500 (Eastern Standard Time)","Mozilla/5.0 (Macintosh; Intel Mac OS X 10_11_6) AppleWebKit/537.36 (KHTML, like Gecko) Chrome/86.0.4240.111 Safari/537.36",106,"[0.9, 0.5, 0.1]","[0.8, 0.4, 0.2]","[u'red', u'black', u'blue']","[u'left', u'middle', u'right']","[0.8, 0.4, 0.2]","[u'high', u'medium', u'low']","blue",51,"right","low","False","False",319,5950,NA
"AC5UD8N187QD6","Sun Nov 01 2020 13:49:25 GMT-0500 (Eastern Standard Time)","Sun Nov 01 2020 13:57:50 GMT-0500 (Eastern Standard Time)","Mozilla/5.0 (Macintosh; Intel Mac OS X 10_11_6) AppleWebKit/537.36 (KHTML, like Gecko) Chrome/86.0.4240.111 Safari/537.36",107,"[0.9, 0.5, 0.1]","[0.8, 0.4, 0.2]","[u'red', u'black', u'blue']","[u'left', u'middle', u'right']","[0.8, 0.4, 0.2]","[u'high', u'medium', u'low']","black",50,"middle","medium","True","False",328,6050,NA
"AC5UD8N187QD6","Sun Nov 01 2020 13:49:25 GMT-0500 (Eastern Standard Time)","Sun Nov 01 2020 13:57:50 GMT-0500 (Eastern Standard Time)","Mozilla/5.0 (Macintosh; Intel Mac OS X 10_11_6) AppleWebKit/537.36 (KHTML, like Gecko) Chrome/86.0.4240.111 Safari/537.36",108,"[0.9, 0.5, 0.1]","[0.8, 0.4, 0.2]","[u'red', u'black', u'blue']","[u'left', u'middle', u'right']","[0.8, 0.4, 0.2]","[u'high', u'medium', u'low']","black",50,"middle","medium","False","False",264,6000,NA
"AC5UD8N187QD6","Sun Nov 01 2020 13:49:25 GMT-0500 (Eastern Standard Time)","Sun Nov 01 2020 13:57:50 GMT-0500 (Eastern Standard Time)","Mozilla/5.0 (Macintosh; Intel Mac OS X 10_11_6) AppleWebKit/537.36 (KHTML, like Gecko) Chrome/86.0.4240.111 Safari/537.36",109,"[0.9, 0.5, 0.1]","[0.8, 0.4, 0.2]","[u'red', u'black', u'blue']","[u'left', u'middle', u'right']","[0.8, 0.4, 0.2]","[u'high', u'medium', u'low']","black",50,"middle","medium","False","False",363,5950,NA
"AC5UD8N187QD6","Sun Nov 01 2020 13:49:25 GMT-0500 (Eastern Standard Time)","Sun Nov 01 2020 13:57:50 GMT-0500 (Eastern Standard Time)","Mozilla/5.0 (Macintosh; Intel Mac OS X 10_11_6) AppleWebKit/537.36 (KHTML, like Gecko) Chrome/86.0.4240.111 Safari/537.36",110,"[0.9, 0.5, 0.1]","[0.8, 0.4, 0.2]","[u'red', u'black', u'blue']","[u'left', u'middle', u'right']","[0.8, 0.4, 0.2]","[u'high', u'medium', u'low']","red",49,"left","high","True","False",313,6050,NA
"AC5UD8N187QD6","Sun Nov 01 2020 13:49:25 GMT-0500 (Eastern Standard Time)","Sun Nov 01 2020 13:57:50 GMT-0500 (Eastern Standard Time)","Mozilla/5.0 (Macintosh; Intel Mac OS X 10_11_6) AppleWebKit/537.36 (KHTML, like Gecko) Chrome/86.0.4240.111 Safari/537.36",111,"[0.9, 0.5, 0.1]","[0.8, 0.4, 0.2]","[u'red', u'black', u'blue']","[u'left', u'middle', u'right']","[0.8, 0.4, 0.2]","[u'high', u'medium', u'low']","red",49,"left","high","True","False",314,6150,NA
"AC5UD8N187QD6","Sun Nov 01 2020 13:49:25 GMT-0500 (Eastern Standard Time)","Sun Nov 01 2020 13:57:50 GMT-0500 (Eastern Standard Time)","Mozilla/5.0 (Macintosh; Intel Mac OS X 10_11_6) AppleWebKit/537.36 (KHTML, like Gecko) Chrome/86.0.4240.111 Safari/537.36",112,"[0.9, 0.5, 0.1]","[0.8, 0.4, 0.2]","[u'red', u'black', u'blue']","[u'left', u'middle', u'right']","[0.8, 0.4, 0.2]","[u'high', u'medium', u'low']","red",49,"left","high","True","False",360,6250,NA
"AC5UD8N187QD6","Sun Nov 01 2020 13:49:25 GMT-0500 (Eastern Standard Time)","Sun Nov 01 2020 13:57:50 GMT-0500 (Eastern Standard Time)","Mozilla/5.0 (Macintosh; Intel Mac OS X 10_11_6) AppleWebKit/537.36 (KHTML, like Gecko) Chrome/86.0.4240.111 Safari/537.36",113,"[0.9, 0.5, 0.1]","[0.8, 0.4, 0.2]","[u'red', u'black', u'blue']","[u'left', u'middle', u'right']","[0.8, 0.4, 0.2]","[u'high', u'medium', u'low']","red",49,"left","high","True","False",360,6350,NA
"AC5UD8N187QD6","Sun Nov 01 2020 13:49:25 GMT-0500 (Eastern Standard Time)","Sun Nov 01 2020 13:57:50 GMT-0500 (Eastern Standard Time)","Mozilla/5.0 (Macintosh; Intel Mac OS X 10_11_6) AppleWebKit/537.36 (KHTML, like Gecko) Chrome/86.0.4240.111 Safari/537.36",114,"[0.9, 0.5, 0.1]","[0.8, 0.4, 0.2]","[u'red', u'black', u'blue']","[u'left', u'middle', u'right']","[0.8, 0.4, 0.2]","[u'high', u'medium', u'low']","red",49,"left","high","True","False",378,6450,NA
"AC5UD8N187QD6","Sun Nov 01 2020 13:49:25 GMT-0500 (Eastern Standard Time)","Sun Nov 01 2020 13:57:50 GMT-0500 (Eastern Standard Time)","Mozilla/5.0 (Macintosh; Intel Mac OS X 10_11_6) AppleWebKit/537.36 (KHTML, like Gecko) Chrome/86.0.4240.111 Safari/537.36",115,"[0.9, 0.5, 0.1]","[0.8, 0.4, 0.2]","[u'red', u'black', u'blue']","[u'left', u'middle', u'right']","[0.8, 0.4, 0.2]","[u'high', u'medium', u'low']","red",49,"left","high","True","False",376,6550,NA
"AC5UD8N187QD6","Sun Nov 01 2020 13:49:25 GMT-0500 (Eastern Standard Time)","Sun Nov 01 2020 13:57:50 GMT-0500 (Eastern Standard Time)","Mozilla/5.0 (Macintosh; Intel Mac OS X 10_11_6) AppleWebKit/537.36 (KHTML, like Gecko) Chrome/86.0.4240.111 Safari/537.36",116,"[0.9, 0.5, 0.1]","[0.8, 0.4, 0.2]","[u'red', u'black', u'blue']","[u'left', u'middle', u'right']","[0.8, 0.4, 0.2]","[u'high', u'medium', u'low']","red",49,"left","high","False","False",344,6500,NA
"AC5UD8N187QD6","Sun Nov 01 2020 13:49:25 GMT-0500 (Eastern Standard Time)","Sun Nov 01 2020 13:57:50 GMT-0500 (Eastern Standard Time)","Mozilla/5.0 (Macintosh; Intel Mac OS X 10_11_6) AppleWebKit/537.36 (KHTML, like Gecko) Chrome/86.0.4240.111 Safari/537.36",117,"[0.9, 0.5, 0.1]","[0.8, 0.4, 0.2]","[u'red', u'black', u'blue']","[u'left', u'middle', u'right']","[0.8, 0.4, 0.2]","[u'high', u'medium', u'low']","red",49,"left","high","True","False",326,6600,NA
"AC5UD8N187QD6","Sun Nov 01 2020 13:49:25 GMT-0500 (Eastern Standard Time)","Sun Nov 01 2020 13:57:50 GMT-0500 (Eastern Standard Time)","Mozilla/5.0 (Macintosh; Intel Mac OS X 10_11_6) AppleWebKit/537.36 (KHTML, like Gecko) Chrome/86.0.4240.111 Safari/537.36",118,"[0.9, 0.5, 0.1]","[0.8, 0.4, 0.2]","[u'red', u'black', u'blue']","[u'left', u'middle', u'right']","[0.8, 0.4, 0.2]","[u'high', u'medium', u'low']","red",49,"left","high","False","True",368,6550,NA
"AC5UD8N187QD6","Sun Nov 01 2020 13:49:25 GMT-0500 (Eastern Standard Time)","Sun Nov 01 2020 13:57:50 GMT-0500 (Eastern Standard Time)","Mozilla/5.0 (Macintosh; Intel Mac OS X 10_11_6) AppleWebKit/537.36 (KHTML, like Gecko) Chrome/86.0.4240.111 Safari/537.36",119,"[0.9, 0.5, 0.1]","[0.8, 0.4, 0.2]","[u'red', u'black', u'blue']","[u'left', u'middle', u'right']","[0.8, 0.4, 0.2]","[u'low', u'medium', u'high']","blue",51,"right","high","True","False",312,6650,NA
"AC5UD8N187QD6","Sun Nov 01 2020 13:49:25 GMT-0500 (Eastern Standard Time)","Sun Nov 01 2020 13:57:50 GMT-0500 (Eastern Standard Time)","Mozilla/5.0 (Macintosh; Intel Mac OS X 10_11_6) AppleWebKit/537.36 (KHTML, like Gecko) Chrome/86.0.4240.111 Safari/537.36",120,"[0.9, 0.5, 0.1]","[0.8, 0.4, 0.2]","[u'red', u'black', u'blue']","[u'left', u'middle', u'right']","[0.8, 0.4, 0.2]","[u'low', u'medium', u'high']","blue",51,"right","high","False","False",314,6600,NA
"AC5UD8N187QD6","Sun Nov 01 2020 13:49:25 GMT-0500 (Eastern Standard Time)","Sun Nov 01 2020 13:57:50 GMT-0500 (Eastern Standard Time)","Mozilla/5.0 (Macintosh; Intel Mac OS X 10_11_6) AppleWebKit/537.36 (KHTML, like Gecko) Chrome/86.0.4240.111 Safari/537.36",121,"[0.9, 0.5, 0.1]","[0.8, 0.4, 0.2]","[u'red', u'black', u'blue']","[u'left', u'middle', u'right']","[0.8, 0.4, 0.2]","[u'high', u'low', u'medium']","blue",51,"right","medium","True","False",392,6700,NA
"AC5UD8N187QD6","Sun Nov 01 2020 13:49:25 GMT-0500 (Eastern Standard Time)","Sun Nov 01 2020 13:57:50 GMT-0500 (Eastern Standard Time)","Mozilla/5.0 (Macintosh; Intel Mac OS X 10_11_6) AppleWebKit/537.36 (KHTML, like Gecko) Chrome/86.0.4240.111 Safari/537.36",122,"[0.9, 0.5, 0.1]","[0.8, 0.4, 0.2]","[u'red', u'black', u'blue']","[u'left', u'middle', u'right']","[0.8, 0.4, 0.2]","[u'high', u'low', u'medium']","blue",51,"right","medium","False","False",338,6650,NA
"AC5UD8N187QD6","Sun Nov 01 2020 13:49:25 GMT-0500 (Eastern Standard Time)","Sun Nov 01 2020 13:57:50 GMT-0500 (Eastern Standard Time)","Mozilla/5.0 (Macintosh; Intel Mac OS X 10_11_6) AppleWebKit/537.36 (KHTML, like Gecko) Chrome/86.0.4240.111 Safari/537.36",123,"[0.9, 0.5, 0.1]","[0.8, 0.4, 0.2]","[u'red', u'black', u'blue']","[u'left', u'middle', u'right']","[0.8, 0.4, 0.2]","[u'high', u'low', u'medium']","black",50,"middle","low","True","False",306,6750,NA
"AC5UD8N187QD6","Sun Nov 01 2020 13:49:25 GMT-0500 (Eastern Standard Time)","Sun Nov 01 2020 13:57:50 GMT-0500 (Eastern Standard Time)","Mozilla/5.0 (Macintosh; Intel Mac OS X 10_11_6) AppleWebKit/537.36 (KHTML, like Gecko) Chrome/86.0.4240.111 Safari/537.36",124,"[0.9, 0.5, 0.1]","[0.8, 0.4, 0.2]","[u'red', u'black', u'blue']","[u'left', u'middle', u'right']","[0.8, 0.4, 0.2]","[u'high', u'low', u'medium']","black",50,"middle","low","False","False",290,6700,NA
"AC5UD8N187QD6","Sun Nov 01 2020 13:49:25 GMT-0500 (Eastern Standard Time)","Sun Nov 01 2020 13:57:50 GMT-0500 (Eastern Standard Time)","Mozilla/5.0 (Macintosh; Intel Mac OS X 10_11_6) AppleWebKit/537.36 (KHTML, like Gecko) Chrome/86.0.4240.111 Safari/537.36",125,"[0.9, 0.5, 0.1]","[0.8, 0.4, 0.2]","[u'red', u'black', u'blue']","[u'left', u'middle', u'right']","[0.8, 0.4, 0.2]","[u'high', u'low', u'medium']","black",50,"middle","low","False","False",432,6650,NA
"AC5UD8N187QD6","Sun Nov 01 2020 13:49:25 GMT-0500 (Eastern Standard Time)","Sun Nov 01 2020 13:57:50 GMT-0500 (Eastern Standard Time)","Mozilla/5.0 (Macintosh; Intel Mac OS X 10_11_6) AppleWebKit/537.36 (KHTML, like Gecko) Chrome/86.0.4240.111 Safari/537.36",126,"[0.9, 0.5, 0.1]","[0.8, 0.4, 0.2]","[u'red', u'black', u'blue']","[u'left', u'middle', u'right']","[0.8, 0.4, 0.2]","[u'high', u'low', u'medium']","blue",51,"right","medium","True","False",305,6750,NA
"AC5UD8N187QD6","Sun Nov 01 2020 13:49:25 GMT-0500 (Eastern Standard Time)","Sun Nov 01 2020 13:57:50 GMT-0500 (Eastern Standard Time)","Mozilla/5.0 (Macintosh; Intel Mac OS X 10_11_6) AppleWebKit/537.36 (KHTML, like Gecko) Chrome/86.0.4240.111 Safari/537.36",127,"[0.9, 0.5, 0.1]","[0.8, 0.4, 0.2]","[u'red', u'black', u'blue']","[u'left', u'middle', u'right']","[0.8, 0.4, 0.2]","[u'high', u'low', u'medium']","blue",51,"right","medium","False","False",403,6700,NA
"AC5UD8N187QD6","Sun Nov 01 2020 13:49:25 GMT-0500 (Eastern Standard Time)","Sun Nov 01 2020 13:57:50 GMT-0500 (Eastern Standard Time)","Mozilla/5.0 (Macintosh; Intel Mac OS X 10_11_6) AppleWebKit/537.36 (KHTML, like Gecko) Chrome/86.0.4240.111 Safari/537.36",128,"[0.9, 0.5, 0.1]","[0.8, 0.4, 0.2]","[u'red', u'black', u'blue']","[u'left', u'middle', u'right']","[0.8, 0.4, 0.2]","[u'high', u'low', u'medium']","red",49,"left","high","True","False",313,6800,NA
"AC5UD8N187QD6","Sun Nov 01 2020 13:49:25 GMT-0500 (Eastern Standard Time)","Sun Nov 01 2020 13:57:50 GMT-0500 (Eastern Standard Time)","Mozilla/5.0 (Macintosh; Intel Mac OS X 10_11_6) AppleWebKit/537.36 (KHTML, like Gecko) Chrome/86.0.4240.111 Safari/537.36",129,"[0.9, 0.5, 0.1]","[0.8, 0.4, 0.2]","[u'red', u'black', u'blue']","[u'left', u'middle', u'right']","[0.8, 0.4, 0.2]","[u'high', u'low', u'medium']","red",49,"left","high","True","False",376,6900,NA
"AC5UD8N187QD6","Sun Nov 01 2020 13:49:25 GMT-0500 (Eastern Standard Time)","Sun Nov 01 2020 13:57:50 GMT-0500 (Eastern Standard Time)","Mozilla/5.0 (Macintosh; Intel Mac OS X 10_11_6) AppleWebKit/537.36 (KHTML, like Gecko) Chrome/86.0.4240.111 Safari/537.36",130,"[0.9, 0.5, 0.1]","[0.8, 0.4, 0.2]","[u'red', u'black', u'blue']","[u'left', u'middle', u'right']","[0.8, 0.4, 0.2]","[u'high', u'low', u'medium']","red",49,"left","high","True","False",337,7000,NA
"AC5UD8N187QD6","Sun Nov 01 2020 13:49:25 GMT-0500 (Eastern Standard Time)","Sun Nov 01 2020 13:57:50 GMT-0500 (Eastern Standard Time)","Mozilla/5.0 (Macintosh; Intel Mac OS X 10_11_6) AppleWebKit/537.36 (KHTML, like Gecko) Chrome/86.0.4240.111 Safari/537.36",131,"[0.9, 0.5, 0.1]","[0.8, 0.4, 0.2]","[u'red', u'black', u'blue']","[u'left', u'middle', u'right']","[0.8, 0.4, 0.2]","[u'high', u'low', u'medium']","red",49,"left","high","False","False",769,6950,NA
"AC5UD8N187QD6","Sun Nov 01 2020 13:49:25 GMT-0500 (Eastern Standard Time)","Sun Nov 01 2020 13:57:50 GMT-0500 (Eastern Standard Time)","Mozilla/5.0 (Macintosh; Intel Mac OS X 10_11_6) AppleWebKit/537.36 (KHTML, like Gecko) Chrome/86.0.4240.111 Safari/537.36",132,"[0.9, 0.5, 0.1]","[0.8, 0.4, 0.2]","[u'red', u'black', u'blue']","[u'left', u'middle', u'right']","[0.8, 0.4, 0.2]","[u'high', u'low', u'medium']","red",49,"left","high","True","False",330,7050,NA
"AC5UD8N187QD6","Sun Nov 01 2020 13:49:25 GMT-0500 (Eastern Standard Time)","Sun Nov 01 2020 13:57:50 GMT-0500 (Eastern Standard Time)","Mozilla/5.0 (Macintosh; Intel Mac OS X 10_11_6) AppleWebKit/537.36 (KHTML, like Gecko) Chrome/86.0.4240.111 Safari/537.36",133,"[0.9, 0.5, 0.1]","[0.8, 0.4, 0.2]","[u'red', u'black', u'blue']","[u'left', u'middle', u'right']","[0.8, 0.4, 0.2]","[u'high', u'low', u'medium']","red",49,"left","high","True","False",336,7150,NA
"AC5UD8N187QD6","Sun Nov 01 2020 13:49:25 GMT-0500 (Eastern Standard Time)","Sun Nov 01 2020 13:57:50 GMT-0500 (Eastern Standard Time)","Mozilla/5.0 (Macintosh; Intel Mac OS X 10_11_6) AppleWebKit/537.36 (KHTML, like Gecko) Chrome/86.0.4240.111 Safari/537.36",134,"[0.9, 0.5, 0.1]","[0.8, 0.4, 0.2]","[u'red', u'black', u'blue']","[u'left', u'middle', u'right']","[0.8, 0.4, 0.2]","[u'high', u'low', u'medium']","red",49,"left","high","False","False",401,7100,NA
"AC5UD8N187QD6","Sun Nov 01 2020 13:49:25 GMT-0500 (Eastern Standard Time)","Sun Nov 01 2020 13:57:50 GMT-0500 (Eastern Standard Time)","Mozilla/5.0 (Macintosh; Intel Mac OS X 10_11_6) AppleWebKit/537.36 (KHTML, like Gecko) Chrome/86.0.4240.111 Safari/537.36",135,"[0.9, 0.5, 0.1]","[0.8, 0.4, 0.2]","[u'red', u'black', u'blue']","[u'left', u'middle', u'right']","[0.8, 0.4, 0.2]","[u'high', u'low', u'medium']","red",49,"left","high","True","False",495,7200,NA
"AC5UD8N187QD6","Sun Nov 01 2020 13:49:25 GMT-0500 (Eastern Standard Time)","Sun Nov 01 2020 13:57:50 GMT-0500 (Eastern Standard Time)","Mozilla/5.0 (Macintosh; Intel Mac OS X 10_11_6) AppleWebKit/537.36 (KHTML, like Gecko) Chrome/86.0.4240.111 Safari/537.36",136,"[0.9, 0.5, 0.1]","[0.8, 0.4, 0.2]","[u'red', u'black', u'blue']","[u'left', u'middle', u'right']","[0.8, 0.4, 0.2]","[u'high', u'low', u'medium']","red",49,"left","high","False","True",360,7150,NA
"AC5UD8N187QD6","Sun Nov 01 2020 13:49:25 GMT-0500 (Eastern Standard Time)","Sun Nov 01 2020 13:57:50 GMT-0500 (Eastern Standard Time)","Mozilla/5.0 (Macintosh; Intel Mac OS X 10_11_6) AppleWebKit/537.36 (KHTML, like Gecko) Chrome/86.0.4240.111 Safari/537.36",137,"[0.9, 0.5, 0.1]","[0.8, 0.4, 0.2]","[u'red', u'black', u'blue']","[u'left', u'middle', u'right']","[0.8, 0.4, 0.2]","[u'medium', u'high', u'low']","blue",51,"right","low","False","False",352,7100,NA
"AC5UD8N187QD6","Sun Nov 01 2020 13:49:25 GMT-0500 (Eastern Standard Time)","Sun Nov 01 2020 13:57:50 GMT-0500 (Eastern Standard Time)","Mozilla/5.0 (Macintosh; Intel Mac OS X 10_11_6) AppleWebKit/537.36 (KHTML, like Gecko) Chrome/86.0.4240.111 Safari/537.36",138,"[0.9, 0.5, 0.1]","[0.8, 0.4, 0.2]","[u'red', u'black', u'blue']","[u'left', u'middle', u'right']","[0.8, 0.4, 0.2]","[u'medium', u'high', u'low']","black",50,"middle","high","True","False",401,7200,NA
"AC5UD8N187QD6","Sun Nov 01 2020 13:49:25 GMT-0500 (Eastern Standard Time)","Sun Nov 01 2020 13:57:50 GMT-0500 (Eastern Standard Time)","Mozilla/5.0 (Macintosh; Intel Mac OS X 10_11_6) AppleWebKit/537.36 (KHTML, like Gecko) Chrome/86.0.4240.111 Safari/537.36",139,"[0.9, 0.5, 0.1]","[0.8, 0.4, 0.2]","[u'red', u'black', u'blue']","[u'left', u'middle', u'right']","[0.8, 0.4, 0.2]","[u'medium', u'high', u'low']","black",50,"middle","high","True","False",320,7300,NA
"AC5UD8N187QD6","Sun Nov 01 2020 13:49:25 GMT-0500 (Eastern Standard Time)","Sun Nov 01 2020 13:57:50 GMT-0500 (Eastern Standard Time)","Mozilla/5.0 (Macintosh; Intel Mac OS X 10_11_6) AppleWebKit/537.36 (KHTML, like Gecko) Chrome/86.0.4240.111 Safari/537.36",140,"[0.9, 0.5, 0.1]","[0.8, 0.4, 0.2]","[u'red', u'black', u'blue']","[u'left', u'middle', u'right']","[0.8, 0.4, 0.2]","[u'medium', u'high', u'low']","black",50,"middle","high","True","False",337,7400,NA
"AC5UD8N187QD6","Sun Nov 01 2020 13:49:25 GMT-0500 (Eastern Standard Time)","Sun Nov 01 2020 13:57:50 GMT-0500 (Eastern Standard Time)","Mozilla/5.0 (Macintosh; Intel Mac OS X 10_11_6) AppleWebKit/537.36 (KHTML, like Gecko) Chrome/86.0.4240.111 Safari/537.36",141,"[0.9, 0.5, 0.1]","[0.8, 0.4, 0.2]","[u'red', u'black', u'blue']","[u'left', u'middle', u'right']","[0.8, 0.4, 0.2]","[u'medium', u'high', u'low']","black",50,"middle","high","False","False",360,7350,NA
"AC5UD8N187QD6","Sun Nov 01 2020 13:49:25 GMT-0500 (Eastern Standard Time)","Sun Nov 01 2020 13:57:50 GMT-0500 (Eastern Standard Time)","Mozilla/5.0 (Macintosh; Intel Mac OS X 10_11_6) AppleWebKit/537.36 (KHTML, like Gecko) Chrome/86.0.4240.111 Safari/537.36",142,"[0.9, 0.5, 0.1]","[0.8, 0.4, 0.2]","[u'red', u'black', u'blue']","[u'left', u'middle', u'right']","[0.8, 0.4, 0.2]","[u'medium', u'high', u'low']","black",50,"middle","high","True","False",442,7450,NA
"AC5UD8N187QD6","Sun Nov 01 2020 13:49:25 GMT-0500 (Eastern Standard Time)","Sun Nov 01 2020 13:57:50 GMT-0500 (Eastern Standard Time)","Mozilla/5.0 (Macintosh; Intel Mac OS X 10_11_6) AppleWebKit/537.36 (KHTML, like Gecko) Chrome/86.0.4240.111 Safari/537.36",143,"[0.9, 0.5, 0.1]","[0.8, 0.4, 0.2]","[u'red', u'black', u'blue']","[u'left', u'middle', u'right']","[0.8, 0.4, 0.2]","[u'medium', u'high', u'low']","black",50,"middle","high","False","False",376,7400,NA
"AC5UD8N187QD6","Sun Nov 01 2020 13:49:25 GMT-0500 (Eastern Standard Time)","Sun Nov 01 2020 13:57:50 GMT-0500 (Eastern Standard Time)","Mozilla/5.0 (Macintosh; Intel Mac OS X 10_11_6) AppleWebKit/537.36 (KHTML, like Gecko) Chrome/86.0.4240.111 Safari/537.36",144,"[0.9, 0.5, 0.1]","[0.8, 0.4, 0.2]","[u'red', u'black', u'blue']","[u'left', u'middle', u'right']","[0.8, 0.4, 0.2]","[u'medium', u'high', u'low']","red",49,"left","medium","False","False",361,7350,NA
"AC5UD8N187QD6","Sun Nov 01 2020 13:49:25 GMT-0500 (Eastern Standard Time)","Sun Nov 01 2020 13:57:50 GMT-0500 (Eastern Standard Time)","Mozilla/5.0 (Macintosh; Intel Mac OS X 10_11_6) AppleWebKit/537.36 (KHTML, like Gecko) Chrome/86.0.4240.111 Safari/537.36",145,"[0.9, 0.5, 0.1]","[0.8, 0.4, 0.2]","[u'red', u'black', u'blue']","[u'left', u'middle', u'right']","[0.8, 0.4, 0.2]","[u'medium', u'high', u'low']","black",50,"middle","high","False","False",321,7300,NA
"AC5UD8N187QD6","Sun Nov 01 2020 13:49:25 GMT-0500 (Eastern Standard Time)","Sun Nov 01 2020 13:57:50 GMT-0500 (Eastern Standard Time)","Mozilla/5.0 (Macintosh; Intel Mac OS X 10_11_6) AppleWebKit/537.36 (KHTML, like Gecko) Chrome/86.0.4240.111 Safari/537.36",146,"[0.9, 0.5, 0.1]","[0.8, 0.4, 0.2]","[u'red', u'black', u'blue']","[u'left', u'middle', u'right']","[0.8, 0.4, 0.2]","[u'medium', u'high', u'low']","blue",51,"right","low","False","False",354,7250,NA
"AC5UD8N187QD6","Sun Nov 01 2020 13:49:25 GMT-0500 (Eastern Standard Time)","Sun Nov 01 2020 13:57:50 GMT-0500 (Eastern Standard Time)","Mozilla/5.0 (Macintosh; Intel Mac OS X 10_11_6) AppleWebKit/537.36 (KHTML, like Gecko) Chrome/86.0.4240.111 Safari/537.36",147,"[0.9, 0.5, 0.1]","[0.8, 0.4, 0.2]","[u'red', u'black', u'blue']","[u'left', u'middle', u'right']","[0.8, 0.4, 0.2]","[u'medium', u'high', u'low']","black",50,"middle","high","True","False",328,7350,NA
"AC5UD8N187QD6","Sun Nov 01 2020 13:49:25 GMT-0500 (Eastern Standard Time)","Sun Nov 01 2020 13:57:50 GMT-0500 (Eastern Standard Time)","Mozilla/5.0 (Macintosh; Intel Mac OS X 10_11_6) AppleWebKit/537.36 (KHTML, like Gecko) Chrome/86.0.4240.111 Safari/537.36",148,"[0.9, 0.5, 0.1]","[0.8, 0.4, 0.2]","[u'red', u'black', u'blue']","[u'left', u'middle', u'right']","[0.8, 0.4, 0.2]","[u'medium', u'high', u'low']","black",50,"middle","high","True","False",312,7450,NA
"AC5UD8N187QD6","Sun Nov 01 2020 13:49:25 GMT-0500 (Eastern Standard Time)","Sun Nov 01 2020 13:57:50 GMT-0500 (Eastern Standard Time)","Mozilla/5.0 (Macintosh; Intel Mac OS X 10_11_6) AppleWebKit/537.36 (KHTML, like Gecko) Chrome/86.0.4240.111 Safari/537.36",149,"[0.9, 0.5, 0.1]","[0.8, 0.4, 0.2]","[u'red', u'black', u'blue']","[u'left', u'middle', u'right']","[0.8, 0.4, 0.2]","[u'medium', u'high', u'low']","black",50,"middle","high","True","False",414,7550,NA
"AC5UD8N187QD6","Sun Nov 01 2020 13:49:25 GMT-0500 (Eastern Standard Time)","Sun Nov 01 2020 13:57:50 GMT-0500 (Eastern Standard Time)","Mozilla/5.0 (Macintosh; Intel Mac OS X 10_11_6) AppleWebKit/537.36 (KHTML, like Gecko) Chrome/86.0.4240.111 Safari/537.36",150,"[0.9, 0.5, 0.1]","[0.8, 0.4, 0.2]","[u'red', u'black', u'blue']","[u'left', u'middle', u'right']","[0.8, 0.4, 0.2]","[u'medium', u'high', u'low']","black",50,"middle","high","True","False",368,7650,NA
"AC5UD8N187QD6","Sun Nov 01 2020 13:49:25 GMT-0500 (Eastern Standard Time)","Sun Nov 01 2020 13:57:50 GMT-0500 (Eastern Standard Time)","Mozilla/5.0 (Macintosh; Intel Mac OS X 10_11_6) AppleWebKit/537.36 (KHTML, like Gecko) Chrome/86.0.4240.111 Safari/537.36",151,"[0.9, 0.5, 0.1]","[0.8, 0.4, 0.2]","[u'red', u'black', u'blue']","[u'left', u'middle', u'right']","[0.8, 0.4, 0.2]","[u'medium', u'high', u'low']","black",50,"middle","high","True","False",525,7750,NA
"AC5UD8N187QD6","Sun Nov 01 2020 13:49:25 GMT-0500 (Eastern Standard Time)","Sun Nov 01 2020 13:57:50 GMT-0500 (Eastern Standard Time)","Mozilla/5.0 (Macintosh; Intel Mac OS X 10_11_6) AppleWebKit/537.36 (KHTML, like Gecko) Chrome/86.0.4240.111 Safari/537.36",152,"[0.9, 0.5, 0.1]","[0.8, 0.4, 0.2]","[u'red', u'black', u'blue']","[u'left', u'middle', u'right']","[0.8, 0.4, 0.2]","[u'medium', u'high', u'low']","black",50,"middle","high","True","False",472,7850,NA
"AC5UD8N187QD6","Sun Nov 01 2020 13:49:25 GMT-0500 (Eastern Standard Time)","Sun Nov 01 2020 13:57:50 GMT-0500 (Eastern Standard Time)","Mozilla/5.0 (Macintosh; Intel Mac OS X 10_11_6) AppleWebKit/537.36 (KHTML, like Gecko) Chrome/86.0.4240.111 Safari/537.36",153,"[0.9, 0.5, 0.1]","[0.8, 0.4, 0.2]","[u'red', u'black', u'blue']","[u'left', u'middle', u'right']","[0.8, 0.4, 0.2]","[u'medium', u'high', u'low']","black",50,"middle","high","True","False",353,7950,NA
"AC5UD8N187QD6","Sun Nov 01 2020 13:49:25 GMT-0500 (Eastern Standard Time)","Sun Nov 01 2020 13:57:50 GMT-0500 (Eastern Standard Time)","Mozilla/5.0 (Macintosh; Intel Mac OS X 10_11_6) AppleWebKit/537.36 (KHTML, like Gecko) Chrome/86.0.4240.111 Safari/537.36",154,"[0.9, 0.5, 0.1]","[0.8, 0.4, 0.2]","[u'red', u'black', u'blue']","[u'left', u'middle', u'right']","[0.8, 0.4, 0.2]","[u'medium', u'high', u'low']","black",50,"middle","high","True","False",432,8050,NA
"AC5UD8N187QD6","Sun Nov 01 2020 13:49:25 GMT-0500 (Eastern Standard Time)","Sun Nov 01 2020 13:57:50 GMT-0500 (Eastern Standard Time)","Mozilla/5.0 (Macintosh; Intel Mac OS X 10_11_6) AppleWebKit/537.36 (KHTML, like Gecko) Chrome/86.0.4240.111 Safari/537.36",155,"[0.9, 0.5, 0.1]","[0.8, 0.4, 0.2]","[u'red', u'black', u'blue']","[u'left', u'middle', u'right']","[0.8, 0.4, 0.2]","[u'medium', u'high', u'low']","black",50,"middle","high","True","True",338,8150,NA
"AC5UD8N187QD6","Sun Nov 01 2020 13:49:25 GMT-0500 (Eastern Standard Time)","Sun Nov 01 2020 13:57:50 GMT-0500 (Eastern Standard Time)","Mozilla/5.0 (Macintosh; Intel Mac OS X 10_11_6) AppleWebKit/537.36 (KHTML, like Gecko) Chrome/86.0.4240.111 Safari/537.36",156,"[0.9, 0.5, 0.1]","[0.8, 0.4, 0.2]","[u'red', u'black', u'blue']","[u'left', u'middle', u'right']","[0.8, 0.4, 0.2]","[u'medium', u'low', u'high']","black",50,"middle","low","True","False",361,8250,NA
"AC5UD8N187QD6","Sun Nov 01 2020 13:49:25 GMT-0500 (Eastern Standard Time)","Sun Nov 01 2020 13:57:50 GMT-0500 (Eastern Standard Time)","Mozilla/5.0 (Macintosh; Intel Mac OS X 10_11_6) AppleWebKit/537.36 (KHTML, like Gecko) Chrome/86.0.4240.111 Safari/537.36",157,"[0.9, 0.5, 0.1]","[0.8, 0.4, 0.2]","[u'red', u'black', u'blue']","[u'left', u'middle', u'right']","[0.8, 0.4, 0.2]","[u'medium', u'low', u'high']","black",50,"middle","low","True","False",352,8350,NA
"AC5UD8N187QD6","Sun Nov 01 2020 13:49:25 GMT-0500 (Eastern Standard Time)","Sun Nov 01 2020 13:57:50 GMT-0500 (Eastern Standard Time)","Mozilla/5.0 (Macintosh; Intel Mac OS X 10_11_6) AppleWebKit/537.36 (KHTML, like Gecko) Chrome/86.0.4240.111 Safari/537.36",158,"[0.9, 0.5, 0.1]","[0.8, 0.4, 0.2]","[u'red', u'black', u'blue']","[u'left', u'middle', u'right']","[0.8, 0.4, 0.2]","[u'medium', u'low', u'high']","black",50,"middle","low","False","False",360,8300,NA
"AC5UD8N187QD6","Sun Nov 01 2020 13:49:25 GMT-0500 (Eastern Standard Time)","Sun Nov 01 2020 13:57:50 GMT-0500 (Eastern Standard Time)","Mozilla/5.0 (Macintosh; Intel Mac OS X 10_11_6) AppleWebKit/537.36 (KHTML, like Gecko) Chrome/86.0.4240.111 Safari/537.36",159,"[0.9, 0.5, 0.1]","[0.8, 0.4, 0.2]","[u'red', u'black', u'blue']","[u'left', u'middle', u'right']","[0.8, 0.4, 0.2]","[u'medium', u'low', u'high']","red",49,"left","medium","False","False",304,8250,NA
"AC5UD8N187QD6","Sun Nov 01 2020 13:49:25 GMT-0500 (Eastern Standard Time)","Sun Nov 01 2020 13:57:50 GMT-0500 (Eastern Standard Time)","Mozilla/5.0 (Macintosh; Intel Mac OS X 10_11_6) AppleWebKit/537.36 (KHTML, like Gecko) Chrome/86.0.4240.111 Safari/537.36",160,"[0.9, 0.5, 0.1]","[0.8, 0.4, 0.2]","[u'red', u'black', u'blue']","[u'left', u'middle', u'right']","[0.8, 0.4, 0.2]","[u'medium', u'low', u'high']","black",50,"middle","low","False","False",256,8200,NA
