"src_subject_id","start_time","end_time","browser","index","first_half_probabilities","second_half_probabilities","deck_color","deck_position","deck_probabilities","deck_contingencies","response_color","key_press","response_position","response_probability","reward_type","trial_type","rt","reward_tally","exclusion_reason"
"A2CYWYI523IFI9","Mon Nov 02 2020 08:17:12 GMT-0500 (Eastern Standard Time)","Mon Nov 02 2020 08:27:08 GMT-0500 (Eastern Standard Time)","Mozilla/5.0 (Windows NT 10.0; WOW64) AppleWebKit/537.36 (KHTML, like Gecko) Chrome/86.0.4240.111 Safari/537.36",1,"[0.9, 0.5, 0.1]","[0.8, 0.4, 0.2]","[u'red', u'blue', u'black']","[u'left', u'middle', u'right']","[0.9, 0.5, 0.1]","[u'medium', u'low', u'high']","black",51,"right","high","True","False",1326,100,NA
"A2CYWYI523IFI9","Mon Nov 02 2020 08:17:12 GMT-0500 (Eastern Standard Time)","Mon Nov 02 2020 08:27:08 GMT-0500 (Eastern Standard Time)","Mozilla/5.0 (Windows NT 10.0; WOW64) AppleWebKit/537.36 (KHTML, like Gecko) Chrome/86.0.4240.111 Safari/537.36",2,"[0.9, 0.5, 0.1]","[0.8, 0.4, 0.2]","[u'red', u'blue', u'black']","[u'left', u'middle', u'right']","[0.9, 0.5, 0.1]","[u'medium', u'low', u'high']","red",49,"left","medium","False","False",532,50,NA
"A2CYWYI523IFI9","Mon Nov 02 2020 08:17:12 GMT-0500 (Eastern Standard Time)","Mon Nov 02 2020 08:27:08 GMT-0500 (Eastern Standard Time)","Mozilla/5.0 (Windows NT 10.0; WOW64) AppleWebKit/537.36 (KHTML, like Gecko) Chrome/86.0.4240.111 Safari/537.36",3,"[0.9, 0.5, 0.1]","[0.8, 0.4, 0.2]","[u'red', u'blue', u'black']","[u'left', u'middle', u'right']","[0.9, 0.5, 0.1]","[u'medium', u'low', u'high']","blue",50,"middle","low","False","False",627,0,NA
"A2CYWYI523IFI9","Mon Nov 02 2020 08:17:12 GMT-0500 (Eastern Standard Time)","Mon Nov 02 2020 08:27:08 GMT-0500 (Eastern Standard Time)","Mozilla/5.0 (Windows NT 10.0; WOW64) AppleWebKit/537.36 (KHTML, like Gecko) Chrome/86.0.4240.111 Safari/537.36",4,"[0.9, 0.5, 0.1]","[0.8, 0.4, 0.2]","[u'red', u'blue', u'black']","[u'left', u'middle', u'right']","[0.9, 0.5, 0.1]","[u'medium', u'low', u'high']","blue",50,"middle","low","False","False",443,-50,NA
"A2CYWYI523IFI9","Mon Nov 02 2020 08:17:12 GMT-0500 (Eastern Standard Time)","Mon Nov 02 2020 08:27:08 GMT-0500 (Eastern Standard Time)","Mozilla/5.0 (Windows NT 10.0; WOW64) AppleWebKit/537.36 (KHTML, like Gecko) Chrome/86.0.4240.111 Safari/537.36",5,"[0.9, 0.5, 0.1]","[0.8, 0.4, 0.2]","[u'red', u'blue', u'black']","[u'left', u'middle', u'right']","[0.9, 0.5, 0.1]","[u'medium', u'low', u'high']","black",51,"right","high","True","False",969,50,NA
"A2CYWYI523IFI9","Mon Nov 02 2020 08:17:12 GMT-0500 (Eastern Standard Time)","Mon Nov 02 2020 08:27:08 GMT-0500 (Eastern Standard Time)","Mozilla/5.0 (Windows NT 10.0; WOW64) AppleWebKit/537.36 (KHTML, like Gecko) Chrome/86.0.4240.111 Safari/537.36",6,"[0.9, 0.5, 0.1]","[0.8, 0.4, 0.2]","[u'red', u'blue', u'black']","[u'left', u'middle', u'right']","[0.9, 0.5, 0.1]","[u'medium', u'low', u'high']","red",49,"left","medium","True","False",2380,150,NA
"A2CYWYI523IFI9","Mon Nov 02 2020 08:17:12 GMT-0500 (Eastern Standard Time)","Mon Nov 02 2020 08:27:08 GMT-0500 (Eastern Standard Time)","Mozilla/5.0 (Windows NT 10.0; WOW64) AppleWebKit/537.36 (KHTML, like Gecko) Chrome/86.0.4240.111 Safari/537.36",7,"[0.9, 0.5, 0.1]","[0.8, 0.4, 0.2]","[u'red', u'blue', u'black']","[u'left', u'middle', u'right']","[0.9, 0.5, 0.1]","[u'medium', u'low', u'high']","blue",50,"middle","low","False","False",1402,100,NA
"A2CYWYI523IFI9","Mon Nov 02 2020 08:17:12 GMT-0500 (Eastern Standard Time)","Mon Nov 02 2020 08:27:08 GMT-0500 (Eastern Standard Time)","Mozilla/5.0 (Windows NT 10.0; WOW64) AppleWebKit/537.36 (KHTML, like Gecko) Chrome/86.0.4240.111 Safari/537.36",8,"[0.9, 0.5, 0.1]","[0.8, 0.4, 0.2]","[u'red', u'blue', u'black']","[u'left', u'middle', u'right']","[0.9, 0.5, 0.1]","[u'medium', u'low', u'high']","black",51,"right","high","True","False",680,200,NA
"A2CYWYI523IFI9","Mon Nov 02 2020 08:17:12 GMT-0500 (Eastern Standard Time)","Mon Nov 02 2020 08:27:08 GMT-0500 (Eastern Standard Time)","Mozilla/5.0 (Windows NT 10.0; WOW64) AppleWebKit/537.36 (KHTML, like Gecko) Chrome/86.0.4240.111 Safari/537.36",9,"[0.9, 0.5, 0.1]","[0.8, 0.4, 0.2]","[u'red', u'blue', u'black']","[u'left', u'middle', u'right']","[0.9, 0.5, 0.1]","[u'medium', u'low', u'high']","red",49,"left","medium","True","False",1070,300,NA
"A2CYWYI523IFI9","Mon Nov 02 2020 08:17:12 GMT-0500 (Eastern Standard Time)","Mon Nov 02 2020 08:27:08 GMT-0500 (Eastern Standard Time)","Mozilla/5.0 (Windows NT 10.0; WOW64) AppleWebKit/537.36 (KHTML, like Gecko) Chrome/86.0.4240.111 Safari/537.36",10,"[0.9, 0.5, 0.1]","[0.8, 0.4, 0.2]","[u'red', u'blue', u'black']","[u'left', u'middle', u'right']","[0.9, 0.5, 0.1]","[u'medium', u'low', u'high']","blue",50,"middle","low","False","False",690,250,NA
"A2CYWYI523IFI9","Mon Nov 02 2020 08:17:12 GMT-0500 (Eastern Standard Time)","Mon Nov 02 2020 08:27:08 GMT-0500 (Eastern Standard Time)","Mozilla/5.0 (Windows NT 10.0; WOW64) AppleWebKit/537.36 (KHTML, like Gecko) Chrome/86.0.4240.111 Safari/537.36",11,"[0.9, 0.5, 0.1]","[0.8, 0.4, 0.2]","[u'red', u'blue', u'black']","[u'left', u'middle', u'right']","[0.9, 0.5, 0.1]","[u'medium', u'low', u'high']","red",49,"left","medium","False","False",656,200,NA
"A2CYWYI523IFI9","Mon Nov 02 2020 08:17:12 GMT-0500 (Eastern Standard Time)","Mon Nov 02 2020 08:27:08 GMT-0500 (Eastern Standard Time)","Mozilla/5.0 (Windows NT 10.0; WOW64) AppleWebKit/537.36 (KHTML, like Gecko) Chrome/86.0.4240.111 Safari/537.36",12,"[0.9, 0.5, 0.1]","[0.8, 0.4, 0.2]","[u'red', u'blue', u'black']","[u'left', u'middle', u'right']","[0.9, 0.5, 0.1]","[u'medium', u'low', u'high']","black",51,"right","high","True","False",509,300,NA
"A2CYWYI523IFI9","Mon Nov 02 2020 08:17:12 GMT-0500 (Eastern Standard Time)","Mon Nov 02 2020 08:27:08 GMT-0500 (Eastern Standard Time)","Mozilla/5.0 (Windows NT 10.0; WOW64) AppleWebKit/537.36 (KHTML, like Gecko) Chrome/86.0.4240.111 Safari/537.36",13,"[0.9, 0.5, 0.1]","[0.8, 0.4, 0.2]","[u'red', u'blue', u'black']","[u'left', u'middle', u'right']","[0.9, 0.5, 0.1]","[u'medium', u'low', u'high']","red",49,"left","medium","False","False",916,250,NA
"A2CYWYI523IFI9","Mon Nov 02 2020 08:17:12 GMT-0500 (Eastern Standard Time)","Mon Nov 02 2020 08:27:08 GMT-0500 (Eastern Standard Time)","Mozilla/5.0 (Windows NT 10.0; WOW64) AppleWebKit/537.36 (KHTML, like Gecko) Chrome/86.0.4240.111 Safari/537.36",14,"[0.9, 0.5, 0.1]","[0.8, 0.4, 0.2]","[u'red', u'blue', u'black']","[u'left', u'middle', u'right']","[0.9, 0.5, 0.1]","[u'medium', u'low', u'high']","red",49,"left","medium","True","False",1939,350,NA
"A2CYWYI523IFI9","Mon Nov 02 2020 08:17:12 GMT-0500 (Eastern Standard Time)","Mon Nov 02 2020 08:27:08 GMT-0500 (Eastern Standard Time)","Mozilla/5.0 (Windows NT 10.0; WOW64) AppleWebKit/537.36 (KHTML, like Gecko) Chrome/86.0.4240.111 Safari/537.36",15,"[0.9, 0.5, 0.1]","[0.8, 0.4, 0.2]","[u'red', u'blue', u'black']","[u'left', u'middle', u'right']","[0.9, 0.5, 0.1]","[u'medium', u'low', u'high']","red",49,"left","medium","False","False",928,300,NA
"A2CYWYI523IFI9","Mon Nov 02 2020 08:17:12 GMT-0500 (Eastern Standard Time)","Mon Nov 02 2020 08:27:08 GMT-0500 (Eastern Standard Time)","Mozilla/5.0 (Windows NT 10.0; WOW64) AppleWebKit/537.36 (KHTML, like Gecko) Chrome/86.0.4240.111 Safari/537.36",16,"[0.9, 0.5, 0.1]","[0.8, 0.4, 0.2]","[u'red', u'blue', u'black']","[u'left', u'middle', u'right']","[0.9, 0.5, 0.1]","[u'medium', u'low', u'high']","blue",50,"middle","low","False","False",1437,250,NA
"A2CYWYI523IFI9","Mon Nov 02 2020 08:17:12 GMT-0500 (Eastern Standard Time)","Mon Nov 02 2020 08:27:08 GMT-0500 (Eastern Standard Time)","Mozilla/5.0 (Windows NT 10.0; WOW64) AppleWebKit/537.36 (KHTML, like Gecko) Chrome/86.0.4240.111 Safari/537.36",17,"[0.9, 0.5, 0.1]","[0.8, 0.4, 0.2]","[u'red', u'blue', u'black']","[u'left', u'middle', u'right']","[0.9, 0.5, 0.1]","[u'medium', u'low', u'high']","black",51,"right","high","True","False",457,350,NA
"A2CYWYI523IFI9","Mon Nov 02 2020 08:17:12 GMT-0500 (Eastern Standard Time)","Mon Nov 02 2020 08:27:08 GMT-0500 (Eastern Standard Time)","Mozilla/5.0 (Windows NT 10.0; WOW64) AppleWebKit/537.36 (KHTML, like Gecko) Chrome/86.0.4240.111 Safari/537.36",18,"[0.9, 0.5, 0.1]","[0.8, 0.4, 0.2]","[u'red', u'blue', u'black']","[u'left', u'middle', u'right']","[0.9, 0.5, 0.1]","[u'medium', u'low', u'high']","red",49,"left","medium","True","False",522,450,NA
"A2CYWYI523IFI9","Mon Nov 02 2020 08:17:12 GMT-0500 (Eastern Standard Time)","Mon Nov 02 2020 08:27:08 GMT-0500 (Eastern Standard Time)","Mozilla/5.0 (Windows NT 10.0; WOW64) AppleWebKit/537.36 (KHTML, like Gecko) Chrome/86.0.4240.111 Safari/537.36",19,"[0.9, 0.5, 0.1]","[0.8, 0.4, 0.2]","[u'red', u'blue', u'black']","[u'left', u'middle', u'right']","[0.9, 0.5, 0.1]","[u'medium', u'low', u'high']","blue",50,"middle","low","False","False",569,400,NA
"A2CYWYI523IFI9","Mon Nov 02 2020 08:17:12 GMT-0500 (Eastern Standard Time)","Mon Nov 02 2020 08:27:08 GMT-0500 (Eastern Standard Time)","Mozilla/5.0 (Windows NT 10.0; WOW64) AppleWebKit/537.36 (KHTML, like Gecko) Chrome/86.0.4240.111 Safari/537.36",20,"[0.9, 0.5, 0.1]","[0.8, 0.4, 0.2]","[u'red', u'blue', u'black']","[u'left', u'middle', u'right']","[0.9, 0.5, 0.1]","[u'medium', u'low', u'high']","black",51,"right","high","True","False",677,500,NA
"A2CYWYI523IFI9","Mon Nov 02 2020 08:17:12 GMT-0500 (Eastern Standard Time)","Mon Nov 02 2020 08:27:08 GMT-0500 (Eastern Standard Time)","Mozilla/5.0 (Windows NT 10.0; WOW64) AppleWebKit/537.36 (KHTML, like Gecko) Chrome/86.0.4240.111 Safari/537.36",21,"[0.9, 0.5, 0.1]","[0.8, 0.4, 0.2]","[u'red', u'blue', u'black']","[u'left', u'middle', u'right']","[0.9, 0.5, 0.1]","[u'medium', u'low', u'high']","red",49,"left","medium","True","False",439,600,NA
"A2CYWYI523IFI9","Mon Nov 02 2020 08:17:12 GMT-0500 (Eastern Standard Time)","Mon Nov 02 2020 08:27:08 GMT-0500 (Eastern Standard Time)","Mozilla/5.0 (Windows NT 10.0; WOW64) AppleWebKit/537.36 (KHTML, like Gecko) Chrome/86.0.4240.111 Safari/537.36",22,"[0.9, 0.5, 0.1]","[0.8, 0.4, 0.2]","[u'red', u'blue', u'black']","[u'left', u'middle', u'right']","[0.9, 0.5, 0.1]","[u'medium', u'low', u'high']","blue",50,"middle","low","False","False",461,550,NA
"A2CYWYI523IFI9","Mon Nov 02 2020 08:17:12 GMT-0500 (Eastern Standard Time)","Mon Nov 02 2020 08:27:08 GMT-0500 (Eastern Standard Time)","Mozilla/5.0 (Windows NT 10.0; WOW64) AppleWebKit/537.36 (KHTML, like Gecko) Chrome/86.0.4240.111 Safari/537.36",23,"[0.9, 0.5, 0.1]","[0.8, 0.4, 0.2]","[u'red', u'blue', u'black']","[u'left', u'middle', u'right']","[0.9, 0.5, 0.1]","[u'medium', u'low', u'high']","black",51,"right","high","True","False",1034,650,NA
"A2CYWYI523IFI9","Mon Nov 02 2020 08:17:12 GMT-0500 (Eastern Standard Time)","Mon Nov 02 2020 08:27:08 GMT-0500 (Eastern Standard Time)","Mozilla/5.0 (Windows NT 10.0; WOW64) AppleWebKit/537.36 (KHTML, like Gecko) Chrome/86.0.4240.111 Safari/537.36",24,"[0.9, 0.5, 0.1]","[0.8, 0.4, 0.2]","[u'red', u'blue', u'black']","[u'left', u'middle', u'right']","[0.9, 0.5, 0.1]","[u'medium', u'low', u'high']","red",49,"left","medium","True","False",509,750,NA
"A2CYWYI523IFI9","Mon Nov 02 2020 08:17:12 GMT-0500 (Eastern Standard Time)","Mon Nov 02 2020 08:27:08 GMT-0500 (Eastern Standard Time)","Mozilla/5.0 (Windows NT 10.0; WOW64) AppleWebKit/537.36 (KHTML, like Gecko) Chrome/86.0.4240.111 Safari/537.36",25,"[0.9, 0.5, 0.1]","[0.8, 0.4, 0.2]","[u'red', u'blue', u'black']","[u'left', u'middle', u'right']","[0.9, 0.5, 0.1]","[u'medium', u'low', u'high']","black",51,"right","high","True","False",7266,850,NA
"A2CYWYI523IFI9","Mon Nov 02 2020 08:17:12 GMT-0500 (Eastern Standard Time)","Mon Nov 02 2020 08:27:08 GMT-0500 (Eastern Standard Time)","Mozilla/5.0 (Windows NT 10.0; WOW64) AppleWebKit/537.36 (KHTML, like Gecko) Chrome/86.0.4240.111 Safari/537.36",26,"[0.9, 0.5, 0.1]","[0.8, 0.4, 0.2]","[u'red', u'blue', u'black']","[u'left', u'middle', u'right']","[0.9, 0.5, 0.1]","[u'medium', u'low', u'high']","blue",50,"middle","low","False","False",493,800,NA
"A2CYWYI523IFI9","Mon Nov 02 2020 08:17:12 GMT-0500 (Eastern Standard Time)","Mon Nov 02 2020 08:27:08 GMT-0500 (Eastern Standard Time)","Mozilla/5.0 (Windows NT 10.0; WOW64) AppleWebKit/537.36 (KHTML, like Gecko) Chrome/86.0.4240.111 Safari/537.36",27,"[0.9, 0.5, 0.1]","[0.8, 0.4, 0.2]","[u'red', u'blue', u'black']","[u'left', u'middle', u'right']","[0.9, 0.5, 0.1]","[u'medium', u'low', u'high']","blue",50,"middle","low","False","False",465,750,NA
"A2CYWYI523IFI9","Mon Nov 02 2020 08:17:12 GMT-0500 (Eastern Standard Time)","Mon Nov 02 2020 08:27:08 GMT-0500 (Eastern Standard Time)","Mozilla/5.0 (Windows NT 10.0; WOW64) AppleWebKit/537.36 (KHTML, like Gecko) Chrome/86.0.4240.111 Safari/537.36",28,"[0.9, 0.5, 0.1]","[0.8, 0.4, 0.2]","[u'red', u'blue', u'black']","[u'left', u'middle', u'right']","[0.9, 0.5, 0.1]","[u'medium', u'low', u'high']","blue",50,"middle","low","False","False",1234,700,NA
"A2CYWYI523IFI9","Mon Nov 02 2020 08:17:12 GMT-0500 (Eastern Standard Time)","Mon Nov 02 2020 08:27:08 GMT-0500 (Eastern Standard Time)","Mozilla/5.0 (Windows NT 10.0; WOW64) AppleWebKit/537.36 (KHTML, like Gecko) Chrome/86.0.4240.111 Safari/537.36",29,"[0.9, 0.5, 0.1]","[0.8, 0.4, 0.2]","[u'red', u'blue', u'black']","[u'left', u'middle', u'right']","[0.9, 0.5, 0.1]","[u'medium', u'low', u'high']","blue",50,"middle","low","False","False",626,650,NA
"A2CYWYI523IFI9","Mon Nov 02 2020 08:17:12 GMT-0500 (Eastern Standard Time)","Mon Nov 02 2020 08:27:08 GMT-0500 (Eastern Standard Time)","Mozilla/5.0 (Windows NT 10.0; WOW64) AppleWebKit/537.36 (KHTML, like Gecko) Chrome/86.0.4240.111 Safari/537.36",30,"[0.9, 0.5, 0.1]","[0.8, 0.4, 0.2]","[u'red', u'blue', u'black']","[u'left', u'middle', u'right']","[0.9, 0.5, 0.1]","[u'medium', u'low', u'high']","black",51,"right","high","True","False",532,750,NA
"A2CYWYI523IFI9","Mon Nov 02 2020 08:17:12 GMT-0500 (Eastern Standard Time)","Mon Nov 02 2020 08:27:08 GMT-0500 (Eastern Standard Time)","Mozilla/5.0 (Windows NT 10.0; WOW64) AppleWebKit/537.36 (KHTML, like Gecko) Chrome/86.0.4240.111 Safari/537.36",31,"[0.9, 0.5, 0.1]","[0.8, 0.4, 0.2]","[u'red', u'blue', u'black']","[u'left', u'middle', u'right']","[0.9, 0.5, 0.1]","[u'medium', u'low', u'high']","black",51,"right","high","True","False",473,850,NA
"A2CYWYI523IFI9","Mon Nov 02 2020 08:17:12 GMT-0500 (Eastern Standard Time)","Mon Nov 02 2020 08:27:08 GMT-0500 (Eastern Standard Time)","Mozilla/5.0 (Windows NT 10.0; WOW64) AppleWebKit/537.36 (KHTML, like Gecko) Chrome/86.0.4240.111 Safari/537.36",32,"[0.9, 0.5, 0.1]","[0.8, 0.4, 0.2]","[u'red', u'blue', u'black']","[u'left', u'middle', u'right']","[0.9, 0.5, 0.1]","[u'medium', u'low', u'high']","black",51,"right","high","True","False",468,950,NA
"A2CYWYI523IFI9","Mon Nov 02 2020 08:17:12 GMT-0500 (Eastern Standard Time)","Mon Nov 02 2020 08:27:08 GMT-0500 (Eastern Standard Time)","Mozilla/5.0 (Windows NT 10.0; WOW64) AppleWebKit/537.36 (KHTML, like Gecko) Chrome/86.0.4240.111 Safari/537.36",33,"[0.9, 0.5, 0.1]","[0.8, 0.4, 0.2]","[u'red', u'blue', u'black']","[u'left', u'middle', u'right']","[0.9, 0.5, 0.1]","[u'medium', u'low', u'high']","black",51,"right","high","True","False",682,1050,NA
"A2CYWYI523IFI9","Mon Nov 02 2020 08:17:12 GMT-0500 (Eastern Standard Time)","Mon Nov 02 2020 08:27:08 GMT-0500 (Eastern Standard Time)","Mozilla/5.0 (Windows NT 10.0; WOW64) AppleWebKit/537.36 (KHTML, like Gecko) Chrome/86.0.4240.111 Safari/537.36",34,"[0.9, 0.5, 0.1]","[0.8, 0.4, 0.2]","[u'red', u'blue', u'black']","[u'left', u'middle', u'right']","[0.9, 0.5, 0.1]","[u'medium', u'low', u'high']","black",51,"right","high","True","False",662,1150,NA
"A2CYWYI523IFI9","Mon Nov 02 2020 08:17:12 GMT-0500 (Eastern Standard Time)","Mon Nov 02 2020 08:27:08 GMT-0500 (Eastern Standard Time)","Mozilla/5.0 (Windows NT 10.0; WOW64) AppleWebKit/537.36 (KHTML, like Gecko) Chrome/86.0.4240.111 Safari/537.36",35,"[0.9, 0.5, 0.1]","[0.8, 0.4, 0.2]","[u'red', u'blue', u'black']","[u'left', u'middle', u'right']","[0.9, 0.5, 0.1]","[u'medium', u'low', u'high']","black",51,"right","high","True","False",2530,1250,NA
"A2CYWYI523IFI9","Mon Nov 02 2020 08:17:12 GMT-0500 (Eastern Standard Time)","Mon Nov 02 2020 08:27:08 GMT-0500 (Eastern Standard Time)","Mozilla/5.0 (Windows NT 10.0; WOW64) AppleWebKit/537.36 (KHTML, like Gecko) Chrome/86.0.4240.111 Safari/537.36",36,"[0.9, 0.5, 0.1]","[0.8, 0.4, 0.2]","[u'red', u'blue', u'black']","[u'left', u'middle', u'right']","[0.9, 0.5, 0.1]","[u'medium', u'low', u'high']","red",49,"left","medium","False","False",4916,1200,NA
"A2CYWYI523IFI9","Mon Nov 02 2020 08:17:12 GMT-0500 (Eastern Standard Time)","Mon Nov 02 2020 08:27:08 GMT-0500 (Eastern Standard Time)","Mozilla/5.0 (Windows NT 10.0; WOW64) AppleWebKit/537.36 (KHTML, like Gecko) Chrome/86.0.4240.111 Safari/537.36",37,"[0.9, 0.5, 0.1]","[0.8, 0.4, 0.2]","[u'red', u'blue', u'black']","[u'left', u'middle', u'right']","[0.9, 0.5, 0.1]","[u'medium', u'low', u'high']","black",51,"right","high","True","False",1169,1300,NA
"A2CYWYI523IFI9","Mon Nov 02 2020 08:17:12 GMT-0500 (Eastern Standard Time)","Mon Nov 02 2020 08:27:08 GMT-0500 (Eastern Standard Time)","Mozilla/5.0 (Windows NT 10.0; WOW64) AppleWebKit/537.36 (KHTML, like Gecko) Chrome/86.0.4240.111 Safari/537.36",38,"[0.9, 0.5, 0.1]","[0.8, 0.4, 0.2]","[u'red', u'blue', u'black']","[u'left', u'middle', u'right']","[0.9, 0.5, 0.1]","[u'medium', u'low', u'high']","black",51,"right","high","True","False",529,1400,NA
"A2CYWYI523IFI9","Mon Nov 02 2020 08:17:12 GMT-0500 (Eastern Standard Time)","Mon Nov 02 2020 08:27:08 GMT-0500 (Eastern Standard Time)","Mozilla/5.0 (Windows NT 10.0; WOW64) AppleWebKit/537.36 (KHTML, like Gecko) Chrome/86.0.4240.111 Safari/537.36",39,"[0.9, 0.5, 0.1]","[0.8, 0.4, 0.2]","[u'red', u'blue', u'black']","[u'left', u'middle', u'right']","[0.9, 0.5, 0.1]","[u'medium', u'low', u'high']","black",51,"right","high","True","True",874,1500,NA
"A2CYWYI523IFI9","Mon Nov 02 2020 08:17:12 GMT-0500 (Eastern Standard Time)","Mon Nov 02 2020 08:27:08 GMT-0500 (Eastern Standard Time)","Mozilla/5.0 (Windows NT 10.0; WOW64) AppleWebKit/537.36 (KHTML, like Gecko) Chrome/86.0.4240.111 Safari/537.36",40,"[0.9, 0.5, 0.1]","[0.8, 0.4, 0.2]","[u'red', u'blue', u'black']","[u'left', u'middle', u'right']","[0.9, 0.5, 0.1]","[u'high', u'medium', u'low']","black",51,"right","low","False","False",490,1450,NA
"A2CYWYI523IFI9","Mon Nov 02 2020 08:17:12 GMT-0500 (Eastern Standard Time)","Mon Nov 02 2020 08:27:08 GMT-0500 (Eastern Standard Time)","Mozilla/5.0 (Windows NT 10.0; WOW64) AppleWebKit/537.36 (KHTML, like Gecko) Chrome/86.0.4240.111 Safari/537.36",41,"[0.9, 0.5, 0.1]","[0.8, 0.4, 0.2]","[u'red', u'blue', u'black']","[u'left', u'middle', u'right']","[0.9, 0.5, 0.1]","[u'medium', u'low', u'high']","blue",50,"middle","low","False","False",7780,1400,NA
"A2CYWYI523IFI9","Mon Nov 02 2020 08:17:12 GMT-0500 (Eastern Standard Time)","Mon Nov 02 2020 08:27:08 GMT-0500 (Eastern Standard Time)","Mozilla/5.0 (Windows NT 10.0; WOW64) AppleWebKit/537.36 (KHTML, like Gecko) Chrome/86.0.4240.111 Safari/537.36",42,"[0.9, 0.5, 0.1]","[0.8, 0.4, 0.2]","[u'red', u'blue', u'black']","[u'left', u'middle', u'right']","[0.9, 0.5, 0.1]","[u'medium', u'low', u'high']","black",51,"right","high","True","False",633,1500,NA
"A2CYWYI523IFI9","Mon Nov 02 2020 08:17:12 GMT-0500 (Eastern Standard Time)","Mon Nov 02 2020 08:27:08 GMT-0500 (Eastern Standard Time)","Mozilla/5.0 (Windows NT 10.0; WOW64) AppleWebKit/537.36 (KHTML, like Gecko) Chrome/86.0.4240.111 Safari/537.36",43,"[0.9, 0.5, 0.1]","[0.8, 0.4, 0.2]","[u'red', u'blue', u'black']","[u'left', u'middle', u'right']","[0.9, 0.5, 0.1]","[u'medium', u'low', u'high']","black",51,"right","high","True","False",836,1600,NA
"A2CYWYI523IFI9","Mon Nov 02 2020 08:17:12 GMT-0500 (Eastern Standard Time)","Mon Nov 02 2020 08:27:08 GMT-0500 (Eastern Standard Time)","Mozilla/5.0 (Windows NT 10.0; WOW64) AppleWebKit/537.36 (KHTML, like Gecko) Chrome/86.0.4240.111 Safari/537.36",44,"[0.9, 0.5, 0.1]","[0.8, 0.4, 0.2]","[u'red', u'blue', u'black']","[u'left', u'middle', u'right']","[0.9, 0.5, 0.1]","[u'medium', u'low', u'high']","black",51,"right","high","False","False",685,1550,NA
"A2CYWYI523IFI9","Mon Nov 02 2020 08:17:12 GMT-0500 (Eastern Standard Time)","Mon Nov 02 2020 08:27:08 GMT-0500 (Eastern Standard Time)","Mozilla/5.0 (Windows NT 10.0; WOW64) AppleWebKit/537.36 (KHTML, like Gecko) Chrome/86.0.4240.111 Safari/537.36",45,"[0.9, 0.5, 0.1]","[0.8, 0.4, 0.2]","[u'red', u'blue', u'black']","[u'left', u'middle', u'right']","[0.9, 0.5, 0.1]","[u'medium', u'low', u'high']","blue",50,"middle","low","False","False",492,1500,NA
"A2CYWYI523IFI9","Mon Nov 02 2020 08:17:12 GMT-0500 (Eastern Standard Time)","Mon Nov 02 2020 08:27:08 GMT-0500 (Eastern Standard Time)","Mozilla/5.0 (Windows NT 10.0; WOW64) AppleWebKit/537.36 (KHTML, like Gecko) Chrome/86.0.4240.111 Safari/537.36",46,"[0.9, 0.5, 0.1]","[0.8, 0.4, 0.2]","[u'red', u'blue', u'black']","[u'left', u'middle', u'right']","[0.9, 0.5, 0.1]","[u'medium', u'low', u'high']","red",49,"left","medium","True","False",730,1600,NA
"A2CYWYI523IFI9","Mon Nov 02 2020 08:17:12 GMT-0500 (Eastern Standard Time)","Mon Nov 02 2020 08:27:08 GMT-0500 (Eastern Standard Time)","Mozilla/5.0 (Windows NT 10.0; WOW64) AppleWebKit/537.36 (KHTML, like Gecko) Chrome/86.0.4240.111 Safari/537.36",47,"[0.9, 0.5, 0.1]","[0.8, 0.4, 0.2]","[u'red', u'blue', u'black']","[u'left', u'middle', u'right']","[0.9, 0.5, 0.1]","[u'medium', u'low', u'high']","red",49,"left","medium","False","False",1174,1550,NA
"A2CYWYI523IFI9","Mon Nov 02 2020 08:17:12 GMT-0500 (Eastern Standard Time)","Mon Nov 02 2020 08:27:08 GMT-0500 (Eastern Standard Time)","Mozilla/5.0 (Windows NT 10.0; WOW64) AppleWebKit/537.36 (KHTML, like Gecko) Chrome/86.0.4240.111 Safari/537.36",48,"[0.9, 0.5, 0.1]","[0.8, 0.4, 0.2]","[u'red', u'blue', u'black']","[u'left', u'middle', u'right']","[0.9, 0.5, 0.1]","[u'medium', u'low', u'high']","blue",50,"middle","low","True","False",929,1650,NA
"A2CYWYI523IFI9","Mon Nov 02 2020 08:17:12 GMT-0500 (Eastern Standard Time)","Mon Nov 02 2020 08:27:08 GMT-0500 (Eastern Standard Time)","Mozilla/5.0 (Windows NT 10.0; WOW64) AppleWebKit/537.36 (KHTML, like Gecko) Chrome/86.0.4240.111 Safari/537.36",49,"[0.9, 0.5, 0.1]","[0.8, 0.4, 0.2]","[u'red', u'blue', u'black']","[u'left', u'middle', u'right']","[0.9, 0.5, 0.1]","[u'medium', u'low', u'high']","blue",50,"middle","low","False","False",1044,1600,NA
"A2CYWYI523IFI9","Mon Nov 02 2020 08:17:12 GMT-0500 (Eastern Standard Time)","Mon Nov 02 2020 08:27:08 GMT-0500 (Eastern Standard Time)","Mozilla/5.0 (Windows NT 10.0; WOW64) AppleWebKit/537.36 (KHTML, like Gecko) Chrome/86.0.4240.111 Safari/537.36",50,"[0.9, 0.5, 0.1]","[0.8, 0.4, 0.2]","[u'red', u'blue', u'black']","[u'left', u'middle', u'right']","[0.9, 0.5, 0.1]","[u'medium', u'low', u'high']","black",51,"right","high","True","False",620,1700,NA
"A2CYWYI523IFI9","Mon Nov 02 2020 08:17:12 GMT-0500 (Eastern Standard Time)","Mon Nov 02 2020 08:27:08 GMT-0500 (Eastern Standard Time)","Mozilla/5.0 (Windows NT 10.0; WOW64) AppleWebKit/537.36 (KHTML, like Gecko) Chrome/86.0.4240.111 Safari/537.36",51,"[0.9, 0.5, 0.1]","[0.8, 0.4, 0.2]","[u'red', u'blue', u'black']","[u'left', u'middle', u'right']","[0.9, 0.5, 0.1]","[u'medium', u'low', u'high']","black",51,"right","high","True","False",1975,1800,NA
"A2CYWYI523IFI9","Mon Nov 02 2020 08:17:12 GMT-0500 (Eastern Standard Time)","Mon Nov 02 2020 08:27:08 GMT-0500 (Eastern Standard Time)","Mozilla/5.0 (Windows NT 10.0; WOW64) AppleWebKit/537.36 (KHTML, like Gecko) Chrome/86.0.4240.111 Safari/537.36",52,"[0.9, 0.5, 0.1]","[0.8, 0.4, 0.2]","[u'red', u'blue', u'black']","[u'left', u'middle', u'right']","[0.9, 0.5, 0.1]","[u'medium', u'low', u'high']","black",51,"right","high","True","False",1447,1900,NA
"A2CYWYI523IFI9","Mon Nov 02 2020 08:17:12 GMT-0500 (Eastern Standard Time)","Mon Nov 02 2020 08:27:08 GMT-0500 (Eastern Standard Time)","Mozilla/5.0 (Windows NT 10.0; WOW64) AppleWebKit/537.36 (KHTML, like Gecko) Chrome/86.0.4240.111 Safari/537.36",53,"[0.9, 0.5, 0.1]","[0.8, 0.4, 0.2]","[u'red', u'blue', u'black']","[u'left', u'middle', u'right']","[0.9, 0.5, 0.1]","[u'medium', u'low', u'high']","black",51,"right","high","True","False",755,2000,NA
"A2CYWYI523IFI9","Mon Nov 02 2020 08:17:12 GMT-0500 (Eastern Standard Time)","Mon Nov 02 2020 08:27:08 GMT-0500 (Eastern Standard Time)","Mozilla/5.0 (Windows NT 10.0; WOW64) AppleWebKit/537.36 (KHTML, like Gecko) Chrome/86.0.4240.111 Safari/537.36",54,"[0.9, 0.5, 0.1]","[0.8, 0.4, 0.2]","[u'red', u'blue', u'black']","[u'left', u'middle', u'right']","[0.9, 0.5, 0.1]","[u'medium', u'low', u'high']","blue",50,"middle","low","False","False",1052,1950,NA
"A2CYWYI523IFI9","Mon Nov 02 2020 08:17:12 GMT-0500 (Eastern Standard Time)","Mon Nov 02 2020 08:27:08 GMT-0500 (Eastern Standard Time)","Mozilla/5.0 (Windows NT 10.0; WOW64) AppleWebKit/537.36 (KHTML, like Gecko) Chrome/86.0.4240.111 Safari/537.36",55,"[0.9, 0.5, 0.1]","[0.8, 0.4, 0.2]","[u'red', u'blue', u'black']","[u'left', u'middle', u'right']","[0.9, 0.5, 0.1]","[u'medium', u'low', u'high']","black",51,"right","high","True","False",757,2050,NA
"A2CYWYI523IFI9","Mon Nov 02 2020 08:17:12 GMT-0500 (Eastern Standard Time)","Mon Nov 02 2020 08:27:08 GMT-0500 (Eastern Standard Time)","Mozilla/5.0 (Windows NT 10.0; WOW64) AppleWebKit/537.36 (KHTML, like Gecko) Chrome/86.0.4240.111 Safari/537.36",56,"[0.9, 0.5, 0.1]","[0.8, 0.4, 0.2]","[u'red', u'blue', u'black']","[u'left', u'middle', u'right']","[0.9, 0.5, 0.1]","[u'medium', u'low', u'high']","black",51,"right","high","True","False",843,2150,NA
"A2CYWYI523IFI9","Mon Nov 02 2020 08:17:12 GMT-0500 (Eastern Standard Time)","Mon Nov 02 2020 08:27:08 GMT-0500 (Eastern Standard Time)","Mozilla/5.0 (Windows NT 10.0; WOW64) AppleWebKit/537.36 (KHTML, like Gecko) Chrome/86.0.4240.111 Safari/537.36",57,"[0.9, 0.5, 0.1]","[0.8, 0.4, 0.2]","[u'red', u'blue', u'black']","[u'left', u'middle', u'right']","[0.9, 0.5, 0.1]","[u'medium', u'low', u'high']","blue",50,"middle","low","True","False",582,2250,NA
"A2CYWYI523IFI9","Mon Nov 02 2020 08:17:12 GMT-0500 (Eastern Standard Time)","Mon Nov 02 2020 08:27:08 GMT-0500 (Eastern Standard Time)","Mozilla/5.0 (Windows NT 10.0; WOW64) AppleWebKit/537.36 (KHTML, like Gecko) Chrome/86.0.4240.111 Safari/537.36",58,"[0.9, 0.5, 0.1]","[0.8, 0.4, 0.2]","[u'red', u'blue', u'black']","[u'left', u'middle', u'right']","[0.9, 0.5, 0.1]","[u'medium', u'low', u'high']","black",51,"right","high","True","False",642,2350,NA
"A2CYWYI523IFI9","Mon Nov 02 2020 08:17:12 GMT-0500 (Eastern Standard Time)","Mon Nov 02 2020 08:27:08 GMT-0500 (Eastern Standard Time)","Mozilla/5.0 (Windows NT 10.0; WOW64) AppleWebKit/537.36 (KHTML, like Gecko) Chrome/86.0.4240.111 Safari/537.36",59,"[0.9, 0.5, 0.1]","[0.8, 0.4, 0.2]","[u'red', u'blue', u'black']","[u'left', u'middle', u'right']","[0.9, 0.5, 0.1]","[u'medium', u'low', u'high']","blue",50,"middle","low","False","False",454,2300,NA
"A2CYWYI523IFI9","Mon Nov 02 2020 08:17:12 GMT-0500 (Eastern Standard Time)","Mon Nov 02 2020 08:27:08 GMT-0500 (Eastern Standard Time)","Mozilla/5.0 (Windows NT 10.0; WOW64) AppleWebKit/537.36 (KHTML, like Gecko) Chrome/86.0.4240.111 Safari/537.36",60,"[0.9, 0.5, 0.1]","[0.8, 0.4, 0.2]","[u'red', u'blue', u'black']","[u'left', u'middle', u'right']","[0.9, 0.5, 0.1]","[u'medium', u'low', u'high']","red",49,"left","medium","True","False",1060,2400,NA
"A2CYWYI523IFI9","Mon Nov 02 2020 08:17:12 GMT-0500 (Eastern Standard Time)","Mon Nov 02 2020 08:27:08 GMT-0500 (Eastern Standard Time)","Mozilla/5.0 (Windows NT 10.0; WOW64) AppleWebKit/537.36 (KHTML, like Gecko) Chrome/86.0.4240.111 Safari/537.36",61,"[0.9, 0.5, 0.1]","[0.8, 0.4, 0.2]","[u'red', u'blue', u'black']","[u'left', u'middle', u'right']","[0.9, 0.5, 0.1]","[u'medium', u'low', u'high']","red",49,"left","medium","False","False",1548,2350,NA
"A2CYWYI523IFI9","Mon Nov 02 2020 08:17:12 GMT-0500 (Eastern Standard Time)","Mon Nov 02 2020 08:27:08 GMT-0500 (Eastern Standard Time)","Mozilla/5.0 (Windows NT 10.0; WOW64) AppleWebKit/537.36 (KHTML, like Gecko) Chrome/86.0.4240.111 Safari/537.36",62,"[0.9, 0.5, 0.1]","[0.8, 0.4, 0.2]","[u'red', u'blue', u'black']","[u'left', u'middle', u'right']","[0.9, 0.5, 0.1]","[u'medium', u'low', u'high']","blue",50,"middle","low","False","False",1576,2300,NA
"A2CYWYI523IFI9","Mon Nov 02 2020 08:17:12 GMT-0500 (Eastern Standard Time)","Mon Nov 02 2020 08:27:08 GMT-0500 (Eastern Standard Time)","Mozilla/5.0 (Windows NT 10.0; WOW64) AppleWebKit/537.36 (KHTML, like Gecko) Chrome/86.0.4240.111 Safari/537.36",63,"[0.9, 0.5, 0.1]","[0.8, 0.4, 0.2]","[u'red', u'blue', u'black']","[u'left', u'middle', u'right']","[0.9, 0.5, 0.1]","[u'medium', u'low', u'high']","black",51,"right","high","True","False",817,2400,NA
"A2CYWYI523IFI9","Mon Nov 02 2020 08:17:12 GMT-0500 (Eastern Standard Time)","Mon Nov 02 2020 08:27:08 GMT-0500 (Eastern Standard Time)","Mozilla/5.0 (Windows NT 10.0; WOW64) AppleWebKit/537.36 (KHTML, like Gecko) Chrome/86.0.4240.111 Safari/537.36",64,"[0.9, 0.5, 0.1]","[0.8, 0.4, 0.2]","[u'red', u'blue', u'black']","[u'left', u'middle', u'right']","[0.9, 0.5, 0.1]","[u'medium', u'low', u'high']","black",51,"right","high","True","False",631,2500,NA
"A2CYWYI523IFI9","Mon Nov 02 2020 08:17:12 GMT-0500 (Eastern Standard Time)","Mon Nov 02 2020 08:27:08 GMT-0500 (Eastern Standard Time)","Mozilla/5.0 (Windows NT 10.0; WOW64) AppleWebKit/537.36 (KHTML, like Gecko) Chrome/86.0.4240.111 Safari/537.36",65,"[0.9, 0.5, 0.1]","[0.8, 0.4, 0.2]","[u'red', u'blue', u'black']","[u'left', u'middle', u'right']","[0.9, 0.5, 0.1]","[u'medium', u'low', u'high']","black",51,"right","high","True","False",327,2600,NA
"A2CYWYI523IFI9","Mon Nov 02 2020 08:17:12 GMT-0500 (Eastern Standard Time)","Mon Nov 02 2020 08:27:08 GMT-0500 (Eastern Standard Time)","Mozilla/5.0 (Windows NT 10.0; WOW64) AppleWebKit/537.36 (KHTML, like Gecko) Chrome/86.0.4240.111 Safari/537.36",66,"[0.9, 0.5, 0.1]","[0.8, 0.4, 0.2]","[u'red', u'blue', u'black']","[u'left', u'middle', u'right']","[0.9, 0.5, 0.1]","[u'medium', u'low', u'high']","black",51,"right","high","True","False",492,2700,NA
"A2CYWYI523IFI9","Mon Nov 02 2020 08:17:12 GMT-0500 (Eastern Standard Time)","Mon Nov 02 2020 08:27:08 GMT-0500 (Eastern Standard Time)","Mozilla/5.0 (Windows NT 10.0; WOW64) AppleWebKit/537.36 (KHTML, like Gecko) Chrome/86.0.4240.111 Safari/537.36",67,"[0.9, 0.5, 0.1]","[0.8, 0.4, 0.2]","[u'red', u'blue', u'black']","[u'left', u'middle', u'right']","[0.9, 0.5, 0.1]","[u'medium', u'low', u'high']","black",51,"right","high","True","False",741,2800,NA
"A2CYWYI523IFI9","Mon Nov 02 2020 08:17:12 GMT-0500 (Eastern Standard Time)","Mon Nov 02 2020 08:27:08 GMT-0500 (Eastern Standard Time)","Mozilla/5.0 (Windows NT 10.0; WOW64) AppleWebKit/537.36 (KHTML, like Gecko) Chrome/86.0.4240.111 Safari/537.36",68,"[0.9, 0.5, 0.1]","[0.8, 0.4, 0.2]","[u'red', u'blue', u'black']","[u'left', u'middle', u'right']","[0.9, 0.5, 0.1]","[u'medium', u'low', u'high']","black",51,"right","high","True","False",481,2900,NA
"A2CYWYI523IFI9","Mon Nov 02 2020 08:17:12 GMT-0500 (Eastern Standard Time)","Mon Nov 02 2020 08:27:08 GMT-0500 (Eastern Standard Time)","Mozilla/5.0 (Windows NT 10.0; WOW64) AppleWebKit/537.36 (KHTML, like Gecko) Chrome/86.0.4240.111 Safari/537.36",69,"[0.9, 0.5, 0.1]","[0.8, 0.4, 0.2]","[u'red', u'blue', u'black']","[u'left', u'middle', u'right']","[0.9, 0.5, 0.1]","[u'medium', u'low', u'high']","black",51,"right","high","True","False",684,3000,NA
"A2CYWYI523IFI9","Mon Nov 02 2020 08:17:12 GMT-0500 (Eastern Standard Time)","Mon Nov 02 2020 08:27:08 GMT-0500 (Eastern Standard Time)","Mozilla/5.0 (Windows NT 10.0; WOW64) AppleWebKit/537.36 (KHTML, like Gecko) Chrome/86.0.4240.111 Safari/537.36",70,"[0.9, 0.5, 0.1]","[0.8, 0.4, 0.2]","[u'red', u'blue', u'black']","[u'left', u'middle', u'right']","[0.9, 0.5, 0.1]","[u'medium', u'low', u'high']","blue",50,"middle","low","False","False",1067,2950,NA
"A2CYWYI523IFI9","Mon Nov 02 2020 08:17:12 GMT-0500 (Eastern Standard Time)","Mon Nov 02 2020 08:27:08 GMT-0500 (Eastern Standard Time)","Mozilla/5.0 (Windows NT 10.0; WOW64) AppleWebKit/537.36 (KHTML, like Gecko) Chrome/86.0.4240.111 Safari/537.36",71,"[0.9, 0.5, 0.1]","[0.8, 0.4, 0.2]","[u'red', u'blue', u'black']","[u'left', u'middle', u'right']","[0.9, 0.5, 0.1]","[u'medium', u'low', u'high']","black",51,"right","high","True","False",1088,3050,NA
"A2CYWYI523IFI9","Mon Nov 02 2020 08:17:12 GMT-0500 (Eastern Standard Time)","Mon Nov 02 2020 08:27:08 GMT-0500 (Eastern Standard Time)","Mozilla/5.0 (Windows NT 10.0; WOW64) AppleWebKit/537.36 (KHTML, like Gecko) Chrome/86.0.4240.111 Safari/537.36",72,"[0.9, 0.5, 0.1]","[0.8, 0.4, 0.2]","[u'red', u'blue', u'black']","[u'left', u'middle', u'right']","[0.9, 0.5, 0.1]","[u'medium', u'low', u'high']","blue",50,"middle","low","False","False",845,3000,NA
"A2CYWYI523IFI9","Mon Nov 02 2020 08:17:12 GMT-0500 (Eastern Standard Time)","Mon Nov 02 2020 08:27:08 GMT-0500 (Eastern Standard Time)","Mozilla/5.0 (Windows NT 10.0; WOW64) AppleWebKit/537.36 (KHTML, like Gecko) Chrome/86.0.4240.111 Safari/537.36",73,"[0.9, 0.5, 0.1]","[0.8, 0.4, 0.2]","[u'red', u'blue', u'black']","[u'left', u'middle', u'right']","[0.9, 0.5, 0.1]","[u'medium', u'low', u'high']","black",51,"right","high","False","False",906,2950,NA
"A2CYWYI523IFI9","Mon Nov 02 2020 08:17:12 GMT-0500 (Eastern Standard Time)","Mon Nov 02 2020 08:27:08 GMT-0500 (Eastern Standard Time)","Mozilla/5.0 (Windows NT 10.0; WOW64) AppleWebKit/537.36 (KHTML, like Gecko) Chrome/86.0.4240.111 Safari/537.36",74,"[0.9, 0.5, 0.1]","[0.8, 0.4, 0.2]","[u'red', u'blue', u'black']","[u'left', u'middle', u'right']","[0.9, 0.5, 0.1]","[u'medium', u'low', u'high']","red",49,"left","medium","False","False",1242,2900,NA
"A2CYWYI523IFI9","Mon Nov 02 2020 08:17:12 GMT-0500 (Eastern Standard Time)","Mon Nov 02 2020 08:27:08 GMT-0500 (Eastern Standard Time)","Mozilla/5.0 (Windows NT 10.0; WOW64) AppleWebKit/537.36 (KHTML, like Gecko) Chrome/86.0.4240.111 Safari/537.36",75,"[0.9, 0.5, 0.1]","[0.8, 0.4, 0.2]","[u'red', u'blue', u'black']","[u'left', u'middle', u'right']","[0.9, 0.5, 0.1]","[u'medium', u'low', u'high']","blue",50,"middle","low","False","False",2475,2850,NA
"A2CYWYI523IFI9","Mon Nov 02 2020 08:17:12 GMT-0500 (Eastern Standard Time)","Mon Nov 02 2020 08:27:08 GMT-0500 (Eastern Standard Time)","Mozilla/5.0 (Windows NT 10.0; WOW64) AppleWebKit/537.36 (KHTML, like Gecko) Chrome/86.0.4240.111 Safari/537.36",76,"[0.9, 0.5, 0.1]","[0.8, 0.4, 0.2]","[u'red', u'blue', u'black']","[u'left', u'middle', u'right']","[0.9, 0.5, 0.1]","[u'medium', u'low', u'high']","black",51,"right","high","True","False",659,2950,NA
"A2CYWYI523IFI9","Mon Nov 02 2020 08:17:12 GMT-0500 (Eastern Standard Time)","Mon Nov 02 2020 08:27:08 GMT-0500 (Eastern Standard Time)","Mozilla/5.0 (Windows NT 10.0; WOW64) AppleWebKit/537.36 (KHTML, like Gecko) Chrome/86.0.4240.111 Safari/537.36",77,"[0.9, 0.5, 0.1]","[0.8, 0.4, 0.2]","[u'red', u'blue', u'black']","[u'left', u'middle', u'right']","[0.9, 0.5, 0.1]","[u'medium', u'low', u'high']","blue",50,"middle","low","False","False",1389,2900,NA
"A2CYWYI523IFI9","Mon Nov 02 2020 08:17:12 GMT-0500 (Eastern Standard Time)","Mon Nov 02 2020 08:27:08 GMT-0500 (Eastern Standard Time)","Mozilla/5.0 (Windows NT 10.0; WOW64) AppleWebKit/537.36 (KHTML, like Gecko) Chrome/86.0.4240.111 Safari/537.36",78,"[0.9, 0.5, 0.1]","[0.8, 0.4, 0.2]","[u'red', u'blue', u'black']","[u'left', u'middle', u'right']","[0.9, 0.5, 0.1]","[u'medium', u'low', u'high']","black",51,"right","high","True","False",689,3000,NA
"A2CYWYI523IFI9","Mon Nov 02 2020 08:17:12 GMT-0500 (Eastern Standard Time)","Mon Nov 02 2020 08:27:08 GMT-0500 (Eastern Standard Time)","Mozilla/5.0 (Windows NT 10.0; WOW64) AppleWebKit/537.36 (KHTML, like Gecko) Chrome/86.0.4240.111 Safari/537.36",79,"[0.9, 0.5, 0.1]","[0.8, 0.4, 0.2]","[u'red', u'blue', u'black']","[u'left', u'middle', u'right']","[0.9, 0.5, 0.1]","[u'medium', u'low', u'high']","black",51,"right","high","True","False",706,3100,NA
"A2CYWYI523IFI9","Mon Nov 02 2020 08:17:12 GMT-0500 (Eastern Standard Time)","Mon Nov 02 2020 08:27:08 GMT-0500 (Eastern Standard Time)","Mozilla/5.0 (Windows NT 10.0; WOW64) AppleWebKit/537.36 (KHTML, like Gecko) Chrome/86.0.4240.111 Safari/537.36",80,"[0.9, 0.5, 0.1]","[0.8, 0.4, 0.2]","[u'red', u'blue', u'black']","[u'left', u'middle', u'right']","[0.9, 0.5, 0.1]","[u'medium', u'low', u'high']","black",51,"right","high","False","False",1201,3050,NA
"A2CYWYI523IFI9","Mon Nov 02 2020 08:17:12 GMT-0500 (Eastern Standard Time)","Mon Nov 02 2020 08:27:08 GMT-0500 (Eastern Standard Time)","Mozilla/5.0 (Windows NT 10.0; WOW64) AppleWebKit/537.36 (KHTML, like Gecko) Chrome/86.0.4240.111 Safari/537.36",81,"[0.9, 0.5, 0.1]","[0.8, 0.4, 0.2]","[u'red', u'blue', u'black']","[u'left', u'middle', u'right']","[0.8, 0.4, 0.2]","[u'high', u'low', u'medium']","black",51,"right","medium","True","False",1121,3150,NA
"A2CYWYI523IFI9","Mon Nov 02 2020 08:17:12 GMT-0500 (Eastern Standard Time)","Mon Nov 02 2020 08:27:08 GMT-0500 (Eastern Standard Time)","Mozilla/5.0 (Windows NT 10.0; WOW64) AppleWebKit/537.36 (KHTML, like Gecko) Chrome/86.0.4240.111 Safari/537.36",82,"[0.9, 0.5, 0.1]","[0.8, 0.4, 0.2]","[u'red', u'blue', u'black']","[u'left', u'middle', u'right']","[0.8, 0.4, 0.2]","[u'high', u'low', u'medium']","black",51,"right","medium","False","False",771,3100,NA
"A2CYWYI523IFI9","Mon Nov 02 2020 08:17:12 GMT-0500 (Eastern Standard Time)","Mon Nov 02 2020 08:27:08 GMT-0500 (Eastern Standard Time)","Mozilla/5.0 (Windows NT 10.0; WOW64) AppleWebKit/537.36 (KHTML, like Gecko) Chrome/86.0.4240.111 Safari/537.36",83,"[0.9, 0.5, 0.1]","[0.8, 0.4, 0.2]","[u'red', u'blue', u'black']","[u'left', u'middle', u'right']","[0.8, 0.4, 0.2]","[u'high', u'low', u'medium']","black",51,"right","medium","False","False",5866,3050,NA
"A2CYWYI523IFI9","Mon Nov 02 2020 08:17:12 GMT-0500 (Eastern Standard Time)","Mon Nov 02 2020 08:27:08 GMT-0500 (Eastern Standard Time)","Mozilla/5.0 (Windows NT 10.0; WOW64) AppleWebKit/537.36 (KHTML, like Gecko) Chrome/86.0.4240.111 Safari/537.36",84,"[0.9, 0.5, 0.1]","[0.8, 0.4, 0.2]","[u'red', u'blue', u'black']","[u'left', u'middle', u'right']","[0.8, 0.4, 0.2]","[u'high', u'low', u'medium']","blue",50,"middle","low","False","False",569,3000,NA
"A2CYWYI523IFI9","Mon Nov 02 2020 08:17:12 GMT-0500 (Eastern Standard Time)","Mon Nov 02 2020 08:27:08 GMT-0500 (Eastern Standard Time)","Mozilla/5.0 (Windows NT 10.0; WOW64) AppleWebKit/537.36 (KHTML, like Gecko) Chrome/86.0.4240.111 Safari/537.36",85,"[0.9, 0.5, 0.1]","[0.8, 0.4, 0.2]","[u'red', u'blue', u'black']","[u'left', u'middle', u'right']","[0.8, 0.4, 0.2]","[u'high', u'low', u'medium']","red",49,"left","high","True","False",541,3100,NA
"A2CYWYI523IFI9","Mon Nov 02 2020 08:17:12 GMT-0500 (Eastern Standard Time)","Mon Nov 02 2020 08:27:08 GMT-0500 (Eastern Standard Time)","Mozilla/5.0 (Windows NT 10.0; WOW64) AppleWebKit/537.36 (KHTML, like Gecko) Chrome/86.0.4240.111 Safari/537.36",86,"[0.9, 0.5, 0.1]","[0.8, 0.4, 0.2]","[u'red', u'blue', u'black']","[u'left', u'middle', u'right']","[0.8, 0.4, 0.2]","[u'high', u'low', u'medium']","red",49,"left","high","True","False",543,3200,NA
"A2CYWYI523IFI9","Mon Nov 02 2020 08:17:12 GMT-0500 (Eastern Standard Time)","Mon Nov 02 2020 08:27:08 GMT-0500 (Eastern Standard Time)","Mozilla/5.0 (Windows NT 10.0; WOW64) AppleWebKit/537.36 (KHTML, like Gecko) Chrome/86.0.4240.111 Safari/537.36",87,"[0.9, 0.5, 0.1]","[0.8, 0.4, 0.2]","[u'red', u'blue', u'black']","[u'left', u'middle', u'right']","[0.8, 0.4, 0.2]","[u'high', u'low', u'medium']","red",49,"left","high","True","False",1181,3300,NA
"A2CYWYI523IFI9","Mon Nov 02 2020 08:17:12 GMT-0500 (Eastern Standard Time)","Mon Nov 02 2020 08:27:08 GMT-0500 (Eastern Standard Time)","Mozilla/5.0 (Windows NT 10.0; WOW64) AppleWebKit/537.36 (KHTML, like Gecko) Chrome/86.0.4240.111 Safari/537.36",88,"[0.9, 0.5, 0.1]","[0.8, 0.4, 0.2]","[u'red', u'blue', u'black']","[u'left', u'middle', u'right']","[0.8, 0.4, 0.2]","[u'high', u'low', u'medium']","red",49,"left","high","False","False",1525,3250,NA
"A2CYWYI523IFI9","Mon Nov 02 2020 08:17:12 GMT-0500 (Eastern Standard Time)","Mon Nov 02 2020 08:27:08 GMT-0500 (Eastern Standard Time)","Mozilla/5.0 (Windows NT 10.0; WOW64) AppleWebKit/537.36 (KHTML, like Gecko) Chrome/86.0.4240.111 Safari/537.36",89,"[0.9, 0.5, 0.1]","[0.8, 0.4, 0.2]","[u'red', u'blue', u'black']","[u'left', u'middle', u'right']","[0.8, 0.4, 0.2]","[u'high', u'low', u'medium']","blue",50,"middle","low","True","False",1039,3350,NA
"A2CYWYI523IFI9","Mon Nov 02 2020 08:17:12 GMT-0500 (Eastern Standard Time)","Mon Nov 02 2020 08:27:08 GMT-0500 (Eastern Standard Time)","Mozilla/5.0 (Windows NT 10.0; WOW64) AppleWebKit/537.36 (KHTML, like Gecko) Chrome/86.0.4240.111 Safari/537.36",90,"[0.9, 0.5, 0.1]","[0.8, 0.4, 0.2]","[u'red', u'blue', u'black']","[u'left', u'middle', u'right']","[0.8, 0.4, 0.2]","[u'high', u'low', u'medium']","blue",50,"middle","low","True","False",994,3450,NA
"A2CYWYI523IFI9","Mon Nov 02 2020 08:17:12 GMT-0500 (Eastern Standard Time)","Mon Nov 02 2020 08:27:08 GMT-0500 (Eastern Standard Time)","Mozilla/5.0 (Windows NT 10.0; WOW64) AppleWebKit/537.36 (KHTML, like Gecko) Chrome/86.0.4240.111 Safari/537.36",91,"[0.9, 0.5, 0.1]","[0.8, 0.4, 0.2]","[u'red', u'blue', u'black']","[u'left', u'middle', u'right']","[0.8, 0.4, 0.2]","[u'high', u'low', u'medium']","blue",50,"middle","low","False","False",674,3400,NA
"A2CYWYI523IFI9","Mon Nov 02 2020 08:17:12 GMT-0500 (Eastern Standard Time)","Mon Nov 02 2020 08:27:08 GMT-0500 (Eastern Standard Time)","Mozilla/5.0 (Windows NT 10.0; WOW64) AppleWebKit/537.36 (KHTML, like Gecko) Chrome/86.0.4240.111 Safari/537.36",92,"[0.9, 0.5, 0.1]","[0.8, 0.4, 0.2]","[u'red', u'blue', u'black']","[u'left', u'middle', u'right']","[0.8, 0.4, 0.2]","[u'high', u'low', u'medium']","black",51,"right","medium","False","False",572,3350,NA
"A2CYWYI523IFI9","Mon Nov 02 2020 08:17:12 GMT-0500 (Eastern Standard Time)","Mon Nov 02 2020 08:27:08 GMT-0500 (Eastern Standard Time)","Mozilla/5.0 (Windows NT 10.0; WOW64) AppleWebKit/537.36 (KHTML, like Gecko) Chrome/86.0.4240.111 Safari/537.36",93,"[0.9, 0.5, 0.1]","[0.8, 0.4, 0.2]","[u'red', u'blue', u'black']","[u'left', u'middle', u'right']","[0.8, 0.4, 0.2]","[u'high', u'low', u'medium']","red",49,"left","high","True","False",469,3450,NA
"A2CYWYI523IFI9","Mon Nov 02 2020 08:17:12 GMT-0500 (Eastern Standard Time)","Mon Nov 02 2020 08:27:08 GMT-0500 (Eastern Standard Time)","Mozilla/5.0 (Windows NT 10.0; WOW64) AppleWebKit/537.36 (KHTML, like Gecko) Chrome/86.0.4240.111 Safari/537.36",94,"[0.9, 0.5, 0.1]","[0.8, 0.4, 0.2]","[u'red', u'blue', u'black']","[u'left', u'middle', u'right']","[0.8, 0.4, 0.2]","[u'high', u'low', u'medium']","red",49,"left","high","True","False",679,3550,NA
"A2CYWYI523IFI9","Mon Nov 02 2020 08:17:12 GMT-0500 (Eastern Standard Time)","Mon Nov 02 2020 08:27:08 GMT-0500 (Eastern Standard Time)","Mozilla/5.0 (Windows NT 10.0; WOW64) AppleWebKit/537.36 (KHTML, like Gecko) Chrome/86.0.4240.111 Safari/537.36",95,"[0.9, 0.5, 0.1]","[0.8, 0.4, 0.2]","[u'red', u'blue', u'black']","[u'left', u'middle', u'right']","[0.8, 0.4, 0.2]","[u'high', u'low', u'medium']","red",49,"left","high","True","False",197,3650,NA
"A2CYWYI523IFI9","Mon Nov 02 2020 08:17:12 GMT-0500 (Eastern Standard Time)","Mon Nov 02 2020 08:27:08 GMT-0500 (Eastern Standard Time)","Mozilla/5.0 (Windows NT 10.0; WOW64) AppleWebKit/537.36 (KHTML, like Gecko) Chrome/86.0.4240.111 Safari/537.36",96,"[0.9, 0.5, 0.1]","[0.8, 0.4, 0.2]","[u'red', u'blue', u'black']","[u'left', u'middle', u'right']","[0.8, 0.4, 0.2]","[u'high', u'low', u'medium']","red",49,"left","high","True","False",721,3750,NA
"A2CYWYI523IFI9","Mon Nov 02 2020 08:17:12 GMT-0500 (Eastern Standard Time)","Mon Nov 02 2020 08:27:08 GMT-0500 (Eastern Standard Time)","Mozilla/5.0 (Windows NT 10.0; WOW64) AppleWebKit/537.36 (KHTML, like Gecko) Chrome/86.0.4240.111 Safari/537.36",97,"[0.9, 0.5, 0.1]","[0.8, 0.4, 0.2]","[u'red', u'blue', u'black']","[u'left', u'middle', u'right']","[0.8, 0.4, 0.2]","[u'high', u'low', u'medium']","red",49,"left","high","False","False",807,3700,NA
"A2CYWYI523IFI9","Mon Nov 02 2020 08:17:12 GMT-0500 (Eastern Standard Time)","Mon Nov 02 2020 08:27:08 GMT-0500 (Eastern Standard Time)","Mozilla/5.0 (Windows NT 10.0; WOW64) AppleWebKit/537.36 (KHTML, like Gecko) Chrome/86.0.4240.111 Safari/537.36",98,"[0.9, 0.5, 0.1]","[0.8, 0.4, 0.2]","[u'red', u'blue', u'black']","[u'left', u'middle', u'right']","[0.8, 0.4, 0.2]","[u'high', u'low', u'medium']","blue",50,"middle","low","False","False",523,3650,NA
"A2CYWYI523IFI9","Mon Nov 02 2020 08:17:12 GMT-0500 (Eastern Standard Time)","Mon Nov 02 2020 08:27:08 GMT-0500 (Eastern Standard Time)","Mozilla/5.0 (Windows NT 10.0; WOW64) AppleWebKit/537.36 (KHTML, like Gecko) Chrome/86.0.4240.111 Safari/537.36",99,"[0.9, 0.5, 0.1]","[0.8, 0.4, 0.2]","[u'red', u'blue', u'black']","[u'left', u'middle', u'right']","[0.8, 0.4, 0.2]","[u'high', u'low', u'medium']","black",51,"right","medium","True","False",542,3750,NA
"A2CYWYI523IFI9","Mon Nov 02 2020 08:17:12 GMT-0500 (Eastern Standard Time)","Mon Nov 02 2020 08:27:08 GMT-0500 (Eastern Standard Time)","Mozilla/5.0 (Windows NT 10.0; WOW64) AppleWebKit/537.36 (KHTML, like Gecko) Chrome/86.0.4240.111 Safari/537.36",100,"[0.9, 0.5, 0.1]","[0.8, 0.4, 0.2]","[u'red', u'blue', u'black']","[u'left', u'middle', u'right']","[0.8, 0.4, 0.2]","[u'high', u'low', u'medium']","black",51,"right","medium","True","False",487,3850,NA
"A2CYWYI523IFI9","Mon Nov 02 2020 08:17:12 GMT-0500 (Eastern Standard Time)","Mon Nov 02 2020 08:27:08 GMT-0500 (Eastern Standard Time)","Mozilla/5.0 (Windows NT 10.0; WOW64) AppleWebKit/537.36 (KHTML, like Gecko) Chrome/86.0.4240.111 Safari/537.36",101,"[0.9, 0.5, 0.1]","[0.8, 0.4, 0.2]","[u'red', u'blue', u'black']","[u'left', u'middle', u'right']","[0.8, 0.4, 0.2]","[u'high', u'low', u'medium']","black",51,"right","medium","True","False",668,3950,NA
"A2CYWYI523IFI9","Mon Nov 02 2020 08:17:12 GMT-0500 (Eastern Standard Time)","Mon Nov 02 2020 08:27:08 GMT-0500 (Eastern Standard Time)","Mozilla/5.0 (Windows NT 10.0; WOW64) AppleWebKit/537.36 (KHTML, like Gecko) Chrome/86.0.4240.111 Safari/537.36",102,"[0.9, 0.5, 0.1]","[0.8, 0.4, 0.2]","[u'red', u'blue', u'black']","[u'left', u'middle', u'right']","[0.8, 0.4, 0.2]","[u'high', u'low', u'medium']","black",51,"right","medium","True","False",918,4050,NA
"A2CYWYI523IFI9","Mon Nov 02 2020 08:17:12 GMT-0500 (Eastern Standard Time)","Mon Nov 02 2020 08:27:08 GMT-0500 (Eastern Standard Time)","Mozilla/5.0 (Windows NT 10.0; WOW64) AppleWebKit/537.36 (KHTML, like Gecko) Chrome/86.0.4240.111 Safari/537.36",103,"[0.9, 0.5, 0.1]","[0.8, 0.4, 0.2]","[u'red', u'blue', u'black']","[u'left', u'middle', u'right']","[0.8, 0.4, 0.2]","[u'high', u'low', u'medium']","black",51,"right","medium","False","False",1456,4000,NA
"A2CYWYI523IFI9","Mon Nov 02 2020 08:17:12 GMT-0500 (Eastern Standard Time)","Mon Nov 02 2020 08:27:08 GMT-0500 (Eastern Standard Time)","Mozilla/5.0 (Windows NT 10.0; WOW64) AppleWebKit/537.36 (KHTML, like Gecko) Chrome/86.0.4240.111 Safari/537.36",104,"[0.9, 0.5, 0.1]","[0.8, 0.4, 0.2]","[u'red', u'blue', u'black']","[u'left', u'middle', u'right']","[0.8, 0.4, 0.2]","[u'high', u'low', u'medium']","blue",50,"middle","low","False","False",623,3950,NA
"A2CYWYI523IFI9","Mon Nov 02 2020 08:17:12 GMT-0500 (Eastern Standard Time)","Mon Nov 02 2020 08:27:08 GMT-0500 (Eastern Standard Time)","Mozilla/5.0 (Windows NT 10.0; WOW64) AppleWebKit/537.36 (KHTML, like Gecko) Chrome/86.0.4240.111 Safari/537.36",105,"[0.9, 0.5, 0.1]","[0.8, 0.4, 0.2]","[u'red', u'blue', u'black']","[u'left', u'middle', u'right']","[0.8, 0.4, 0.2]","[u'high', u'low', u'medium']","red",49,"left","high","True","False",519,4050,NA
"A2CYWYI523IFI9","Mon Nov 02 2020 08:17:12 GMT-0500 (Eastern Standard Time)","Mon Nov 02 2020 08:27:08 GMT-0500 (Eastern Standard Time)","Mozilla/5.0 (Windows NT 10.0; WOW64) AppleWebKit/537.36 (KHTML, like Gecko) Chrome/86.0.4240.111 Safari/537.36",106,"[0.9, 0.5, 0.1]","[0.8, 0.4, 0.2]","[u'red', u'blue', u'black']","[u'left', u'middle', u'right']","[0.8, 0.4, 0.2]","[u'high', u'low', u'medium']","red",49,"left","high","True","False",659,4150,NA
"A2CYWYI523IFI9","Mon Nov 02 2020 08:17:12 GMT-0500 (Eastern Standard Time)","Mon Nov 02 2020 08:27:08 GMT-0500 (Eastern Standard Time)","Mozilla/5.0 (Windows NT 10.0; WOW64) AppleWebKit/537.36 (KHTML, like Gecko) Chrome/86.0.4240.111 Safari/537.36",107,"[0.9, 0.5, 0.1]","[0.8, 0.4, 0.2]","[u'red', u'blue', u'black']","[u'left', u'middle', u'right']","[0.8, 0.4, 0.2]","[u'high', u'low', u'medium']","red",49,"left","high","True","False",988,4250,NA
"A2CYWYI523IFI9","Mon Nov 02 2020 08:17:12 GMT-0500 (Eastern Standard Time)","Mon Nov 02 2020 08:27:08 GMT-0500 (Eastern Standard Time)","Mozilla/5.0 (Windows NT 10.0; WOW64) AppleWebKit/537.36 (KHTML, like Gecko) Chrome/86.0.4240.111 Safari/537.36",108,"[0.9, 0.5, 0.1]","[0.8, 0.4, 0.2]","[u'red', u'blue', u'black']","[u'left', u'middle', u'right']","[0.8, 0.4, 0.2]","[u'high', u'low', u'medium']","red",49,"left","high","True","False",605,4350,NA
"A2CYWYI523IFI9","Mon Nov 02 2020 08:17:12 GMT-0500 (Eastern Standard Time)","Mon Nov 02 2020 08:27:08 GMT-0500 (Eastern Standard Time)","Mozilla/5.0 (Windows NT 10.0; WOW64) AppleWebKit/537.36 (KHTML, like Gecko) Chrome/86.0.4240.111 Safari/537.36",109,"[0.9, 0.5, 0.1]","[0.8, 0.4, 0.2]","[u'red', u'blue', u'black']","[u'left', u'middle', u'right']","[0.8, 0.4, 0.2]","[u'high', u'low', u'medium']","red",49,"left","high","False","False",758,4300,NA
"A2CYWYI523IFI9","Mon Nov 02 2020 08:17:12 GMT-0500 (Eastern Standard Time)","Mon Nov 02 2020 08:27:08 GMT-0500 (Eastern Standard Time)","Mozilla/5.0 (Windows NT 10.0; WOW64) AppleWebKit/537.36 (KHTML, like Gecko) Chrome/86.0.4240.111 Safari/537.36",110,"[0.9, 0.5, 0.1]","[0.8, 0.4, 0.2]","[u'red', u'blue', u'black']","[u'left', u'middle', u'right']","[0.8, 0.4, 0.2]","[u'high', u'low', u'medium']","blue",50,"middle","low","False","False",731,4250,NA
"A2CYWYI523IFI9","Mon Nov 02 2020 08:17:12 GMT-0500 (Eastern Standard Time)","Mon Nov 02 2020 08:27:08 GMT-0500 (Eastern Standard Time)","Mozilla/5.0 (Windows NT 10.0; WOW64) AppleWebKit/537.36 (KHTML, like Gecko) Chrome/86.0.4240.111 Safari/537.36",111,"[0.9, 0.5, 0.1]","[0.8, 0.4, 0.2]","[u'red', u'blue', u'black']","[u'left', u'middle', u'right']","[0.8, 0.4, 0.2]","[u'high', u'low', u'medium']","blue",50,"middle","low","False","False",998,4200,NA
"A2CYWYI523IFI9","Mon Nov 02 2020 08:17:12 GMT-0500 (Eastern Standard Time)","Mon Nov 02 2020 08:27:08 GMT-0500 (Eastern Standard Time)","Mozilla/5.0 (Windows NT 10.0; WOW64) AppleWebKit/537.36 (KHTML, like Gecko) Chrome/86.0.4240.111 Safari/537.36",112,"[0.9, 0.5, 0.1]","[0.8, 0.4, 0.2]","[u'red', u'blue', u'black']","[u'left', u'middle', u'right']","[0.8, 0.4, 0.2]","[u'high', u'low', u'medium']","black",51,"right","medium","True","False",638,4300,NA
"A2CYWYI523IFI9","Mon Nov 02 2020 08:17:12 GMT-0500 (Eastern Standard Time)","Mon Nov 02 2020 08:27:08 GMT-0500 (Eastern Standard Time)","Mozilla/5.0 (Windows NT 10.0; WOW64) AppleWebKit/537.36 (KHTML, like Gecko) Chrome/86.0.4240.111 Safari/537.36",113,"[0.9, 0.5, 0.1]","[0.8, 0.4, 0.2]","[u'red', u'blue', u'black']","[u'left', u'middle', u'right']","[0.8, 0.4, 0.2]","[u'high', u'low', u'medium']","black",51,"right","medium","False","False",665,4250,NA
"A2CYWYI523IFI9","Mon Nov 02 2020 08:17:12 GMT-0500 (Eastern Standard Time)","Mon Nov 02 2020 08:27:08 GMT-0500 (Eastern Standard Time)","Mozilla/5.0 (Windows NT 10.0; WOW64) AppleWebKit/537.36 (KHTML, like Gecko) Chrome/86.0.4240.111 Safari/537.36",114,"[0.9, 0.5, 0.1]","[0.8, 0.4, 0.2]","[u'red', u'blue', u'black']","[u'left', u'middle', u'right']","[0.8, 0.4, 0.2]","[u'high', u'low', u'medium']","blue",50,"middle","low","True","False",738,4350,NA
"A2CYWYI523IFI9","Mon Nov 02 2020 08:17:12 GMT-0500 (Eastern Standard Time)","Mon Nov 02 2020 08:27:08 GMT-0500 (Eastern Standard Time)","Mozilla/5.0 (Windows NT 10.0; WOW64) AppleWebKit/537.36 (KHTML, like Gecko) Chrome/86.0.4240.111 Safari/537.36",115,"[0.9, 0.5, 0.1]","[0.8, 0.4, 0.2]","[u'red', u'blue', u'black']","[u'left', u'middle', u'right']","[0.8, 0.4, 0.2]","[u'high', u'low', u'medium']","blue",50,"middle","low","False","False",681,4300,NA
"A2CYWYI523IFI9","Mon Nov 02 2020 08:17:12 GMT-0500 (Eastern Standard Time)","Mon Nov 02 2020 08:27:08 GMT-0500 (Eastern Standard Time)","Mozilla/5.0 (Windows NT 10.0; WOW64) AppleWebKit/537.36 (KHTML, like Gecko) Chrome/86.0.4240.111 Safari/537.36",116,"[0.9, 0.5, 0.1]","[0.8, 0.4, 0.2]","[u'red', u'blue', u'black']","[u'left', u'middle', u'right']","[0.8, 0.4, 0.2]","[u'high', u'low', u'medium']","red",49,"left","high","True","False",608,4400,NA
"A2CYWYI523IFI9","Mon Nov 02 2020 08:17:12 GMT-0500 (Eastern Standard Time)","Mon Nov 02 2020 08:27:08 GMT-0500 (Eastern Standard Time)","Mozilla/5.0 (Windows NT 10.0; WOW64) AppleWebKit/537.36 (KHTML, like Gecko) Chrome/86.0.4240.111 Safari/537.36",117,"[0.9, 0.5, 0.1]","[0.8, 0.4, 0.2]","[u'red', u'blue', u'black']","[u'left', u'middle', u'right']","[0.8, 0.4, 0.2]","[u'high', u'low', u'medium']","red",49,"left","high","True","False",743,4500,NA
"A2CYWYI523IFI9","Mon Nov 02 2020 08:17:12 GMT-0500 (Eastern Standard Time)","Mon Nov 02 2020 08:27:08 GMT-0500 (Eastern Standard Time)","Mozilla/5.0 (Windows NT 10.0; WOW64) AppleWebKit/537.36 (KHTML, like Gecko) Chrome/86.0.4240.111 Safari/537.36",118,"[0.9, 0.5, 0.1]","[0.8, 0.4, 0.2]","[u'red', u'blue', u'black']","[u'left', u'middle', u'right']","[0.8, 0.4, 0.2]","[u'high', u'low', u'medium']","red",49,"left","high","True","False",906,4600,NA
"A2CYWYI523IFI9","Mon Nov 02 2020 08:17:12 GMT-0500 (Eastern Standard Time)","Mon Nov 02 2020 08:27:08 GMT-0500 (Eastern Standard Time)","Mozilla/5.0 (Windows NT 10.0; WOW64) AppleWebKit/537.36 (KHTML, like Gecko) Chrome/86.0.4240.111 Safari/537.36",119,"[0.9, 0.5, 0.1]","[0.8, 0.4, 0.2]","[u'red', u'blue', u'black']","[u'left', u'middle', u'right']","[0.8, 0.4, 0.2]","[u'high', u'low', u'medium']","red",49,"left","high","True","False",675,4700,NA
"A2CYWYI523IFI9","Mon Nov 02 2020 08:17:12 GMT-0500 (Eastern Standard Time)","Mon Nov 02 2020 08:27:08 GMT-0500 (Eastern Standard Time)","Mozilla/5.0 (Windows NT 10.0; WOW64) AppleWebKit/537.36 (KHTML, like Gecko) Chrome/86.0.4240.111 Safari/537.36",120,"[0.9, 0.5, 0.1]","[0.8, 0.4, 0.2]","[u'red', u'blue', u'black']","[u'left', u'middle', u'right']","[0.8, 0.4, 0.2]","[u'high', u'low', u'medium']","blue",50,"middle","low","True","False",670,4800,NA
"A2CYWYI523IFI9","Mon Nov 02 2020 08:17:12 GMT-0500 (Eastern Standard Time)","Mon Nov 02 2020 08:27:08 GMT-0500 (Eastern Standard Time)","Mozilla/5.0 (Windows NT 10.0; WOW64) AppleWebKit/537.36 (KHTML, like Gecko) Chrome/86.0.4240.111 Safari/537.36",121,"[0.9, 0.5, 0.1]","[0.8, 0.4, 0.2]","[u'red', u'blue', u'black']","[u'left', u'middle', u'right']","[0.8, 0.4, 0.2]","[u'medium', u'low', u'high']","blue",50,"middle","low","False","False",1468,4750,NA
"A2CYWYI523IFI9","Mon Nov 02 2020 08:17:12 GMT-0500 (Eastern Standard Time)","Mon Nov 02 2020 08:27:08 GMT-0500 (Eastern Standard Time)","Mozilla/5.0 (Windows NT 10.0; WOW64) AppleWebKit/537.36 (KHTML, like Gecko) Chrome/86.0.4240.111 Safari/537.36",122,"[0.9, 0.5, 0.1]","[0.8, 0.4, 0.2]","[u'red', u'blue', u'black']","[u'left', u'middle', u'right']","[0.8, 0.4, 0.2]","[u'medium', u'low', u'high']","black",51,"right","high","False","False",594,4700,NA
"A2CYWYI523IFI9","Mon Nov 02 2020 08:17:12 GMT-0500 (Eastern Standard Time)","Mon Nov 02 2020 08:27:08 GMT-0500 (Eastern Standard Time)","Mozilla/5.0 (Windows NT 10.0; WOW64) AppleWebKit/537.36 (KHTML, like Gecko) Chrome/86.0.4240.111 Safari/537.36",123,"[0.9, 0.5, 0.1]","[0.8, 0.4, 0.2]","[u'red', u'blue', u'black']","[u'left', u'middle', u'right']","[0.8, 0.4, 0.2]","[u'medium', u'low', u'high']","red",49,"left","medium","False","False",492,4650,NA
"A2CYWYI523IFI9","Mon Nov 02 2020 08:17:12 GMT-0500 (Eastern Standard Time)","Mon Nov 02 2020 08:27:08 GMT-0500 (Eastern Standard Time)","Mozilla/5.0 (Windows NT 10.0; WOW64) AppleWebKit/537.36 (KHTML, like Gecko) Chrome/86.0.4240.111 Safari/537.36",124,"[0.9, 0.5, 0.1]","[0.8, 0.4, 0.2]","[u'red', u'blue', u'black']","[u'left', u'middle', u'right']","[0.8, 0.4, 0.2]","[u'medium', u'low', u'high']","blue",50,"middle","low","False","False",444,4600,NA
"A2CYWYI523IFI9","Mon Nov 02 2020 08:17:12 GMT-0500 (Eastern Standard Time)","Mon Nov 02 2020 08:27:08 GMT-0500 (Eastern Standard Time)","Mozilla/5.0 (Windows NT 10.0; WOW64) AppleWebKit/537.36 (KHTML, like Gecko) Chrome/86.0.4240.111 Safari/537.36",125,"[0.9, 0.5, 0.1]","[0.8, 0.4, 0.2]","[u'red', u'blue', u'black']","[u'left', u'middle', u'right']","[0.8, 0.4, 0.2]","[u'medium', u'low', u'high']","black",51,"right","high","True","False",483,4700,NA
"A2CYWYI523IFI9","Mon Nov 02 2020 08:17:12 GMT-0500 (Eastern Standard Time)","Mon Nov 02 2020 08:27:08 GMT-0500 (Eastern Standard Time)","Mozilla/5.0 (Windows NT 10.0; WOW64) AppleWebKit/537.36 (KHTML, like Gecko) Chrome/86.0.4240.111 Safari/537.36",126,"[0.9, 0.5, 0.1]","[0.8, 0.4, 0.2]","[u'red', u'blue', u'black']","[u'left', u'middle', u'right']","[0.8, 0.4, 0.2]","[u'medium', u'low', u'high']","black",51,"right","high","True","False",1990,4800,NA
"A2CYWYI523IFI9","Mon Nov 02 2020 08:17:12 GMT-0500 (Eastern Standard Time)","Mon Nov 02 2020 08:27:08 GMT-0500 (Eastern Standard Time)","Mozilla/5.0 (Windows NT 10.0; WOW64) AppleWebKit/537.36 (KHTML, like Gecko) Chrome/86.0.4240.111 Safari/537.36",127,"[0.9, 0.5, 0.1]","[0.8, 0.4, 0.2]","[u'red', u'blue', u'black']","[u'left', u'middle', u'right']","[0.8, 0.4, 0.2]","[u'medium', u'low', u'high']","black",51,"right","high","True","False",982,4900,NA
"A2CYWYI523IFI9","Mon Nov 02 2020 08:17:12 GMT-0500 (Eastern Standard Time)","Mon Nov 02 2020 08:27:08 GMT-0500 (Eastern Standard Time)","Mozilla/5.0 (Windows NT 10.0; WOW64) AppleWebKit/537.36 (KHTML, like Gecko) Chrome/86.0.4240.111 Safari/537.36",128,"[0.9, 0.5, 0.1]","[0.8, 0.4, 0.2]","[u'red', u'blue', u'black']","[u'left', u'middle', u'right']","[0.8, 0.4, 0.2]","[u'medium', u'low', u'high']","black",51,"right","high","True","False",591,5000,NA
"A2CYWYI523IFI9","Mon Nov 02 2020 08:17:12 GMT-0500 (Eastern Standard Time)","Mon Nov 02 2020 08:27:08 GMT-0500 (Eastern Standard Time)","Mozilla/5.0 (Windows NT 10.0; WOW64) AppleWebKit/537.36 (KHTML, like Gecko) Chrome/86.0.4240.111 Safari/537.36",129,"[0.9, 0.5, 0.1]","[0.8, 0.4, 0.2]","[u'red', u'blue', u'black']","[u'left', u'middle', u'right']","[0.8, 0.4, 0.2]","[u'medium', u'low', u'high']","black",51,"right","high","True","False",1033,5100,NA
"A2CYWYI523IFI9","Mon Nov 02 2020 08:17:12 GMT-0500 (Eastern Standard Time)","Mon Nov 02 2020 08:27:08 GMT-0500 (Eastern Standard Time)","Mozilla/5.0 (Windows NT 10.0; WOW64) AppleWebKit/537.36 (KHTML, like Gecko) Chrome/86.0.4240.111 Safari/537.36",130,"[0.9, 0.5, 0.1]","[0.8, 0.4, 0.2]","[u'red', u'blue', u'black']","[u'left', u'middle', u'right']","[0.8, 0.4, 0.2]","[u'medium', u'low', u'high']","black",51,"right","high","True","False",515,5200,NA
"A2CYWYI523IFI9","Mon Nov 02 2020 08:17:12 GMT-0500 (Eastern Standard Time)","Mon Nov 02 2020 08:27:08 GMT-0500 (Eastern Standard Time)","Mozilla/5.0 (Windows NT 10.0; WOW64) AppleWebKit/537.36 (KHTML, like Gecko) Chrome/86.0.4240.111 Safari/537.36",131,"[0.9, 0.5, 0.1]","[0.8, 0.4, 0.2]","[u'red', u'blue', u'black']","[u'left', u'middle', u'right']","[0.8, 0.4, 0.2]","[u'medium', u'low', u'high']","black",51,"right","high","True","False",1011,5300,NA
"A2CYWYI523IFI9","Mon Nov 02 2020 08:17:12 GMT-0500 (Eastern Standard Time)","Mon Nov 02 2020 08:27:08 GMT-0500 (Eastern Standard Time)","Mozilla/5.0 (Windows NT 10.0; WOW64) AppleWebKit/537.36 (KHTML, like Gecko) Chrome/86.0.4240.111 Safari/537.36",132,"[0.9, 0.5, 0.1]","[0.8, 0.4, 0.2]","[u'red', u'blue', u'black']","[u'left', u'middle', u'right']","[0.8, 0.4, 0.2]","[u'medium', u'low', u'high']","black",51,"right","high","False","False",602,5250,NA
"A2CYWYI523IFI9","Mon Nov 02 2020 08:17:12 GMT-0500 (Eastern Standard Time)","Mon Nov 02 2020 08:27:08 GMT-0500 (Eastern Standard Time)","Mozilla/5.0 (Windows NT 10.0; WOW64) AppleWebKit/537.36 (KHTML, like Gecko) Chrome/86.0.4240.111 Safari/537.36",133,"[0.9, 0.5, 0.1]","[0.8, 0.4, 0.2]","[u'red', u'blue', u'black']","[u'left', u'middle', u'right']","[0.8, 0.4, 0.2]","[u'medium', u'low', u'high']","blue",50,"middle","low","False","False",890,5200,NA
"A2CYWYI523IFI9","Mon Nov 02 2020 08:17:12 GMT-0500 (Eastern Standard Time)","Mon Nov 02 2020 08:27:08 GMT-0500 (Eastern Standard Time)","Mozilla/5.0 (Windows NT 10.0; WOW64) AppleWebKit/537.36 (KHTML, like Gecko) Chrome/86.0.4240.111 Safari/537.36",134,"[0.9, 0.5, 0.1]","[0.8, 0.4, 0.2]","[u'red', u'blue', u'black']","[u'left', u'middle', u'right']","[0.8, 0.4, 0.2]","[u'medium', u'low', u'high']","red",49,"left","medium","True","False",514,5300,NA
"A2CYWYI523IFI9","Mon Nov 02 2020 08:17:12 GMT-0500 (Eastern Standard Time)","Mon Nov 02 2020 08:27:08 GMT-0500 (Eastern Standard Time)","Mozilla/5.0 (Windows NT 10.0; WOW64) AppleWebKit/537.36 (KHTML, like Gecko) Chrome/86.0.4240.111 Safari/537.36",135,"[0.9, 0.5, 0.1]","[0.8, 0.4, 0.2]","[u'red', u'blue', u'black']","[u'left', u'middle', u'right']","[0.8, 0.4, 0.2]","[u'medium', u'low', u'high']","red",49,"left","medium","False","False",463,5250,NA
"A2CYWYI523IFI9","Mon Nov 02 2020 08:17:12 GMT-0500 (Eastern Standard Time)","Mon Nov 02 2020 08:27:08 GMT-0500 (Eastern Standard Time)","Mozilla/5.0 (Windows NT 10.0; WOW64) AppleWebKit/537.36 (KHTML, like Gecko) Chrome/86.0.4240.111 Safari/537.36",136,"[0.9, 0.5, 0.1]","[0.8, 0.4, 0.2]","[u'red', u'blue', u'black']","[u'left', u'middle', u'right']","[0.8, 0.4, 0.2]","[u'medium', u'low', u'high']","blue",50,"middle","low","False","False",4303,5200,NA
"A2CYWYI523IFI9","Mon Nov 02 2020 08:17:12 GMT-0500 (Eastern Standard Time)","Mon Nov 02 2020 08:27:08 GMT-0500 (Eastern Standard Time)","Mozilla/5.0 (Windows NT 10.0; WOW64) AppleWebKit/537.36 (KHTML, like Gecko) Chrome/86.0.4240.111 Safari/537.36",137,"[0.9, 0.5, 0.1]","[0.8, 0.4, 0.2]","[u'red', u'blue', u'black']","[u'left', u'middle', u'right']","[0.8, 0.4, 0.2]","[u'medium', u'low', u'high']","blue",50,"middle","low","False","False",1651,5150,NA
"A2CYWYI523IFI9","Mon Nov 02 2020 08:17:12 GMT-0500 (Eastern Standard Time)","Mon Nov 02 2020 08:27:08 GMT-0500 (Eastern Standard Time)","Mozilla/5.0 (Windows NT 10.0; WOW64) AppleWebKit/537.36 (KHTML, like Gecko) Chrome/86.0.4240.111 Safari/537.36",138,"[0.9, 0.5, 0.1]","[0.8, 0.4, 0.2]","[u'red', u'blue', u'black']","[u'left', u'middle', u'right']","[0.8, 0.4, 0.2]","[u'medium', u'low', u'high']","black",51,"right","high","True","False",1946,5250,NA
"A2CYWYI523IFI9","Mon Nov 02 2020 08:17:12 GMT-0500 (Eastern Standard Time)","Mon Nov 02 2020 08:27:08 GMT-0500 (Eastern Standard Time)","Mozilla/5.0 (Windows NT 10.0; WOW64) AppleWebKit/537.36 (KHTML, like Gecko) Chrome/86.0.4240.111 Safari/537.36",139,"[0.9, 0.5, 0.1]","[0.8, 0.4, 0.2]","[u'red', u'blue', u'black']","[u'left', u'middle', u'right']","[0.8, 0.4, 0.2]","[u'medium', u'low', u'high']","blue",50,"middle","low","False","False",5529,5200,NA
"A2CYWYI523IFI9","Mon Nov 02 2020 08:17:12 GMT-0500 (Eastern Standard Time)","Mon Nov 02 2020 08:27:08 GMT-0500 (Eastern Standard Time)","Mozilla/5.0 (Windows NT 10.0; WOW64) AppleWebKit/537.36 (KHTML, like Gecko) Chrome/86.0.4240.111 Safari/537.36",140,"[0.9, 0.5, 0.1]","[0.8, 0.4, 0.2]","[u'red', u'blue', u'black']","[u'left', u'middle', u'right']","[0.8, 0.4, 0.2]","[u'medium', u'low', u'high']","red",49,"left","medium","False","False",590,5150,NA
"A2CYWYI523IFI9","Mon Nov 02 2020 08:17:12 GMT-0500 (Eastern Standard Time)","Mon Nov 02 2020 08:27:08 GMT-0500 (Eastern Standard Time)","Mozilla/5.0 (Windows NT 10.0; WOW64) AppleWebKit/537.36 (KHTML, like Gecko) Chrome/86.0.4240.111 Safari/537.36",141,"[0.9, 0.5, 0.1]","[0.8, 0.4, 0.2]","[u'red', u'blue', u'black']","[u'left', u'middle', u'right']","[0.8, 0.4, 0.2]","[u'medium', u'low', u'high']","black",51,"right","high","True","False",2675,5250,NA
"A2CYWYI523IFI9","Mon Nov 02 2020 08:17:12 GMT-0500 (Eastern Standard Time)","Mon Nov 02 2020 08:27:08 GMT-0500 (Eastern Standard Time)","Mozilla/5.0 (Windows NT 10.0; WOW64) AppleWebKit/537.36 (KHTML, like Gecko) Chrome/86.0.4240.111 Safari/537.36",142,"[0.9, 0.5, 0.1]","[0.8, 0.4, 0.2]","[u'red', u'blue', u'black']","[u'left', u'middle', u'right']","[0.8, 0.4, 0.2]","[u'medium', u'low', u'high']","black",51,"right","high","True","False",4285,5350,NA
"A2CYWYI523IFI9","Mon Nov 02 2020 08:17:12 GMT-0500 (Eastern Standard Time)","Mon Nov 02 2020 08:27:08 GMT-0500 (Eastern Standard Time)","Mozilla/5.0 (Windows NT 10.0; WOW64) AppleWebKit/537.36 (KHTML, like Gecko) Chrome/86.0.4240.111 Safari/537.36",143,"[0.9, 0.5, 0.1]","[0.8, 0.4, 0.2]","[u'red', u'blue', u'black']","[u'left', u'middle', u'right']","[0.8, 0.4, 0.2]","[u'medium', u'low', u'high']","black",51,"right","high","False","False",2732,5300,NA
"A2CYWYI523IFI9","Mon Nov 02 2020 08:17:12 GMT-0500 (Eastern Standard Time)","Mon Nov 02 2020 08:27:08 GMT-0500 (Eastern Standard Time)","Mozilla/5.0 (Windows NT 10.0; WOW64) AppleWebKit/537.36 (KHTML, like Gecko) Chrome/86.0.4240.111 Safari/537.36",144,"[0.9, 0.5, 0.1]","[0.8, 0.4, 0.2]","[u'red', u'blue', u'black']","[u'left', u'middle', u'right']","[0.8, 0.4, 0.2]","[u'medium', u'low', u'high']","blue",50,"middle","low","False","False",618,5250,NA
"A2CYWYI523IFI9","Mon Nov 02 2020 08:17:12 GMT-0500 (Eastern Standard Time)","Mon Nov 02 2020 08:27:08 GMT-0500 (Eastern Standard Time)","Mozilla/5.0 (Windows NT 10.0; WOW64) AppleWebKit/537.36 (KHTML, like Gecko) Chrome/86.0.4240.111 Safari/537.36",145,"[0.9, 0.5, 0.1]","[0.8, 0.4, 0.2]","[u'red', u'blue', u'black']","[u'left', u'middle', u'right']","[0.8, 0.4, 0.2]","[u'medium', u'low', u'high']","red",49,"left","medium","False","False",424,5200,NA
"A2CYWYI523IFI9","Mon Nov 02 2020 08:17:12 GMT-0500 (Eastern Standard Time)","Mon Nov 02 2020 08:27:08 GMT-0500 (Eastern Standard Time)","Mozilla/5.0 (Windows NT 10.0; WOW64) AppleWebKit/537.36 (KHTML, like Gecko) Chrome/86.0.4240.111 Safari/537.36",146,"[0.9, 0.5, 0.1]","[0.8, 0.4, 0.2]","[u'red', u'blue', u'black']","[u'left', u'middle', u'right']","[0.8, 0.4, 0.2]","[u'medium', u'low', u'high']","blue",50,"middle","low","False","False",425,5150,NA
"A2CYWYI523IFI9","Mon Nov 02 2020 08:17:12 GMT-0500 (Eastern Standard Time)","Mon Nov 02 2020 08:27:08 GMT-0500 (Eastern Standard Time)","Mozilla/5.0 (Windows NT 10.0; WOW64) AppleWebKit/537.36 (KHTML, like Gecko) Chrome/86.0.4240.111 Safari/537.36",147,"[0.9, 0.5, 0.1]","[0.8, 0.4, 0.2]","[u'red', u'blue', u'black']","[u'left', u'middle', u'right']","[0.8, 0.4, 0.2]","[u'medium', u'low', u'high']","black",51,"right","high","False","False",569,5100,NA
"A2CYWYI523IFI9","Mon Nov 02 2020 08:17:12 GMT-0500 (Eastern Standard Time)","Mon Nov 02 2020 08:27:08 GMT-0500 (Eastern Standard Time)","Mozilla/5.0 (Windows NT 10.0; WOW64) AppleWebKit/537.36 (KHTML, like Gecko) Chrome/86.0.4240.111 Safari/537.36",148,"[0.9, 0.5, 0.1]","[0.8, 0.4, 0.2]","[u'red', u'blue', u'black']","[u'left', u'middle', u'right']","[0.8, 0.4, 0.2]","[u'medium', u'low', u'high']","black",51,"right","high","True","False",233,5200,NA
"A2CYWYI523IFI9","Mon Nov 02 2020 08:17:12 GMT-0500 (Eastern Standard Time)","Mon Nov 02 2020 08:27:08 GMT-0500 (Eastern Standard Time)","Mozilla/5.0 (Windows NT 10.0; WOW64) AppleWebKit/537.36 (KHTML, like Gecko) Chrome/86.0.4240.111 Safari/537.36",149,"[0.9, 0.5, 0.1]","[0.8, 0.4, 0.2]","[u'red', u'blue', u'black']","[u'left', u'middle', u'right']","[0.8, 0.4, 0.2]","[u'medium', u'low', u'high']","black",51,"right","high","True","False",990,5300,NA
"A2CYWYI523IFI9","Mon Nov 02 2020 08:17:12 GMT-0500 (Eastern Standard Time)","Mon Nov 02 2020 08:27:08 GMT-0500 (Eastern Standard Time)","Mozilla/5.0 (Windows NT 10.0; WOW64) AppleWebKit/537.36 (KHTML, like Gecko) Chrome/86.0.4240.111 Safari/537.36",150,"[0.9, 0.5, 0.1]","[0.8, 0.4, 0.2]","[u'red', u'blue', u'black']","[u'left', u'middle', u'right']","[0.8, 0.4, 0.2]","[u'medium', u'low', u'high']","blue",50,"middle","low","False","False",678,5250,NA
"A2CYWYI523IFI9","Mon Nov 02 2020 08:17:12 GMT-0500 (Eastern Standard Time)","Mon Nov 02 2020 08:27:08 GMT-0500 (Eastern Standard Time)","Mozilla/5.0 (Windows NT 10.0; WOW64) AppleWebKit/537.36 (KHTML, like Gecko) Chrome/86.0.4240.111 Safari/537.36",151,"[0.9, 0.5, 0.1]","[0.8, 0.4, 0.2]","[u'red', u'blue', u'black']","[u'left', u'middle', u'right']","[0.8, 0.4, 0.2]","[u'medium', u'low', u'high']","black",51,"right","high","True","False",593,5350,NA
"A2CYWYI523IFI9","Mon Nov 02 2020 08:17:12 GMT-0500 (Eastern Standard Time)","Mon Nov 02 2020 08:27:08 GMT-0500 (Eastern Standard Time)","Mozilla/5.0 (Windows NT 10.0; WOW64) AppleWebKit/537.36 (KHTML, like Gecko) Chrome/86.0.4240.111 Safari/537.36",152,"[0.9, 0.5, 0.1]","[0.8, 0.4, 0.2]","[u'red', u'blue', u'black']","[u'left', u'middle', u'right']","[0.8, 0.4, 0.2]","[u'medium', u'low', u'high']","black",51,"right","high","True","False",568,5450,NA
"A2CYWYI523IFI9","Mon Nov 02 2020 08:17:12 GMT-0500 (Eastern Standard Time)","Mon Nov 02 2020 08:27:08 GMT-0500 (Eastern Standard Time)","Mozilla/5.0 (Windows NT 10.0; WOW64) AppleWebKit/537.36 (KHTML, like Gecko) Chrome/86.0.4240.111 Safari/537.36",153,"[0.9, 0.5, 0.1]","[0.8, 0.4, 0.2]","[u'red', u'blue', u'black']","[u'left', u'middle', u'right']","[0.8, 0.4, 0.2]","[u'medium', u'low', u'high']","black",51,"right","high","True","False",756,5550,NA
"A2CYWYI523IFI9","Mon Nov 02 2020 08:17:12 GMT-0500 (Eastern Standard Time)","Mon Nov 02 2020 08:27:08 GMT-0500 (Eastern Standard Time)","Mozilla/5.0 (Windows NT 10.0; WOW64) AppleWebKit/537.36 (KHTML, like Gecko) Chrome/86.0.4240.111 Safari/537.36",154,"[0.9, 0.5, 0.1]","[0.8, 0.4, 0.2]","[u'red', u'blue', u'black']","[u'left', u'middle', u'right']","[0.8, 0.4, 0.2]","[u'medium', u'low', u'high']","black",51,"right","high","True","False",564,5650,NA
"A2CYWYI523IFI9","Mon Nov 02 2020 08:17:12 GMT-0500 (Eastern Standard Time)","Mon Nov 02 2020 08:27:08 GMT-0500 (Eastern Standard Time)","Mozilla/5.0 (Windows NT 10.0; WOW64) AppleWebKit/537.36 (KHTML, like Gecko) Chrome/86.0.4240.111 Safari/537.36",155,"[0.9, 0.5, 0.1]","[0.8, 0.4, 0.2]","[u'red', u'blue', u'black']","[u'left', u'middle', u'right']","[0.8, 0.4, 0.2]","[u'medium', u'low', u'high']","black",51,"right","high","True","False",684,5750,NA
"A2CYWYI523IFI9","Mon Nov 02 2020 08:17:12 GMT-0500 (Eastern Standard Time)","Mon Nov 02 2020 08:27:08 GMT-0500 (Eastern Standard Time)","Mozilla/5.0 (Windows NT 10.0; WOW64) AppleWebKit/537.36 (KHTML, like Gecko) Chrome/86.0.4240.111 Safari/537.36",156,"[0.9, 0.5, 0.1]","[0.8, 0.4, 0.2]","[u'red', u'blue', u'black']","[u'left', u'middle', u'right']","[0.8, 0.4, 0.2]","[u'medium', u'low', u'high']","black",51,"right","high","True","True",700,5850,NA
"A2CYWYI523IFI9","Mon Nov 02 2020 08:17:12 GMT-0500 (Eastern Standard Time)","Mon Nov 02 2020 08:27:08 GMT-0500 (Eastern Standard Time)","Mozilla/5.0 (Windows NT 10.0; WOW64) AppleWebKit/537.36 (KHTML, like Gecko) Chrome/86.0.4240.111 Safari/537.36",157,"[0.9, 0.5, 0.1]","[0.8, 0.4, 0.2]","[u'red', u'blue', u'black']","[u'left', u'middle', u'right']","[0.8, 0.4, 0.2]","[u'low', u'high', u'medium']","black",51,"right","medium","True","False",1007,5950,NA
"A2CYWYI523IFI9","Mon Nov 02 2020 08:17:12 GMT-0500 (Eastern Standard Time)","Mon Nov 02 2020 08:27:08 GMT-0500 (Eastern Standard Time)","Mozilla/5.0 (Windows NT 10.0; WOW64) AppleWebKit/537.36 (KHTML, like Gecko) Chrome/86.0.4240.111 Safari/537.36",158,"[0.9, 0.5, 0.1]","[0.8, 0.4, 0.2]","[u'red', u'blue', u'black']","[u'left', u'middle', u'right']","[0.8, 0.4, 0.2]","[u'low', u'high', u'medium']","black",51,"right","medium","False","False",985,5900,NA
"A2CYWYI523IFI9","Mon Nov 02 2020 08:17:12 GMT-0500 (Eastern Standard Time)","Mon Nov 02 2020 08:27:08 GMT-0500 (Eastern Standard Time)","Mozilla/5.0 (Windows NT 10.0; WOW64) AppleWebKit/537.36 (KHTML, like Gecko) Chrome/86.0.4240.111 Safari/537.36",159,"[0.9, 0.5, 0.1]","[0.8, 0.4, 0.2]","[u'red', u'blue', u'black']","[u'left', u'middle', u'right']","[0.8, 0.4, 0.2]","[u'low', u'high', u'medium']","black",51,"right","medium","False","False",443,5850,NA
"A2CYWYI523IFI9","Mon Nov 02 2020 08:17:12 GMT-0500 (Eastern Standard Time)","Mon Nov 02 2020 08:27:08 GMT-0500 (Eastern Standard Time)","Mozilla/5.0 (Windows NT 10.0; WOW64) AppleWebKit/537.36 (KHTML, like Gecko) Chrome/86.0.4240.111 Safari/537.36",160,"[0.9, 0.5, 0.1]","[0.8, 0.4, 0.2]","[u'red', u'blue', u'black']","[u'left', u'middle', u'right']","[0.8, 0.4, 0.2]","[u'low', u'high', u'medium']","blue",50,"middle","high","True","False",589,5950,NA
