"src_subject_id","start_time","end_time","browser","index","first_half_probabilities","second_half_probabilities","deck_color","deck_position","deck_probabilities","deck_contingencies","response_color","key_press","response_position","response_probability","reward_type","trial_type","rt","reward_tally","exclusion_reason"
"A2QP9ZGIW4R7C2","Mon Nov 02 2020 08:23:14 GMT-0500 (Eastern Standard Time)","Mon Nov 02 2020 08:30:39 GMT-0500 (Eastern Standard Time)","Mozilla/5.0 (Windows NT 10.0; Win64; x64; rv:82.0) Gecko/20100101 Firefox/82.0",1,"[0.9, 0.5, 0.1]","[0.8, 0.4, 0.2]","[u'blue', u'black', u'red']","[u'left', u'middle', u'right']","[0.9, 0.5, 0.1]","[u'medium', u'low', u'high']","blue",49,"left","medium","True","False",1165,100,NA
"A2QP9ZGIW4R7C2","Mon Nov 02 2020 08:23:14 GMT-0500 (Eastern Standard Time)","Mon Nov 02 2020 08:30:39 GMT-0500 (Eastern Standard Time)","Mozilla/5.0 (Windows NT 10.0; Win64; x64; rv:82.0) Gecko/20100101 Firefox/82.0",2,"[0.9, 0.5, 0.1]","[0.8, 0.4, 0.2]","[u'blue', u'black', u'red']","[u'left', u'middle', u'right']","[0.9, 0.5, 0.1]","[u'medium', u'low', u'high']","blue",49,"left","medium","False","False",484,50,NA
"A2QP9ZGIW4R7C2","Mon Nov 02 2020 08:23:14 GMT-0500 (Eastern Standard Time)","Mon Nov 02 2020 08:30:39 GMT-0500 (Eastern Standard Time)","Mozilla/5.0 (Windows NT 10.0; Win64; x64; rv:82.0) Gecko/20100101 Firefox/82.0",3,"[0.9, 0.5, 0.1]","[0.8, 0.4, 0.2]","[u'blue', u'black', u'red']","[u'left', u'middle', u'right']","[0.9, 0.5, 0.1]","[u'medium', u'low', u'high']","red",51,"right","high","True","False",511,150,NA
"A2QP9ZGIW4R7C2","Mon Nov 02 2020 08:23:14 GMT-0500 (Eastern Standard Time)","Mon Nov 02 2020 08:30:39 GMT-0500 (Eastern Standard Time)","Mozilla/5.0 (Windows NT 10.0; Win64; x64; rv:82.0) Gecko/20100101 Firefox/82.0",4,"[0.9, 0.5, 0.1]","[0.8, 0.4, 0.2]","[u'blue', u'black', u'red']","[u'left', u'middle', u'right']","[0.9, 0.5, 0.1]","[u'medium', u'low', u'high']","red",51,"right","high","True","False",423,250,NA
"A2QP9ZGIW4R7C2","Mon Nov 02 2020 08:23:14 GMT-0500 (Eastern Standard Time)","Mon Nov 02 2020 08:30:39 GMT-0500 (Eastern Standard Time)","Mozilla/5.0 (Windows NT 10.0; Win64; x64; rv:82.0) Gecko/20100101 Firefox/82.0",5,"[0.9, 0.5, 0.1]","[0.8, 0.4, 0.2]","[u'blue', u'black', u'red']","[u'left', u'middle', u'right']","[0.9, 0.5, 0.1]","[u'medium', u'low', u'high']","red",51,"right","high","True","False",355,350,NA
"A2QP9ZGIW4R7C2","Mon Nov 02 2020 08:23:14 GMT-0500 (Eastern Standard Time)","Mon Nov 02 2020 08:30:39 GMT-0500 (Eastern Standard Time)","Mozilla/5.0 (Windows NT 10.0; Win64; x64; rv:82.0) Gecko/20100101 Firefox/82.0",6,"[0.9, 0.5, 0.1]","[0.8, 0.4, 0.2]","[u'blue', u'black', u'red']","[u'left', u'middle', u'right']","[0.9, 0.5, 0.1]","[u'medium', u'low', u'high']","red",51,"right","high","True","False",390,450,NA
"A2QP9ZGIW4R7C2","Mon Nov 02 2020 08:23:14 GMT-0500 (Eastern Standard Time)","Mon Nov 02 2020 08:30:39 GMT-0500 (Eastern Standard Time)","Mozilla/5.0 (Windows NT 10.0; Win64; x64; rv:82.0) Gecko/20100101 Firefox/82.0",7,"[0.9, 0.5, 0.1]","[0.8, 0.4, 0.2]","[u'blue', u'black', u'red']","[u'left', u'middle', u'right']","[0.9, 0.5, 0.1]","[u'medium', u'low', u'high']","red",51,"right","high","True","False",488,550,NA
"A2QP9ZGIW4R7C2","Mon Nov 02 2020 08:23:14 GMT-0500 (Eastern Standard Time)","Mon Nov 02 2020 08:30:39 GMT-0500 (Eastern Standard Time)","Mozilla/5.0 (Windows NT 10.0; Win64; x64; rv:82.0) Gecko/20100101 Firefox/82.0",8,"[0.9, 0.5, 0.1]","[0.8, 0.4, 0.2]","[u'blue', u'black', u'red']","[u'left', u'middle', u'right']","[0.9, 0.5, 0.1]","[u'medium', u'low', u'high']","red",51,"right","high","True","False",391,650,NA
"A2QP9ZGIW4R7C2","Mon Nov 02 2020 08:23:14 GMT-0500 (Eastern Standard Time)","Mon Nov 02 2020 08:30:39 GMT-0500 (Eastern Standard Time)","Mozilla/5.0 (Windows NT 10.0; Win64; x64; rv:82.0) Gecko/20100101 Firefox/82.0",9,"[0.9, 0.5, 0.1]","[0.8, 0.4, 0.2]","[u'blue', u'black', u'red']","[u'left', u'middle', u'right']","[0.9, 0.5, 0.1]","[u'medium', u'low', u'high']","red",51,"right","high","True","False",379,750,NA
"A2QP9ZGIW4R7C2","Mon Nov 02 2020 08:23:14 GMT-0500 (Eastern Standard Time)","Mon Nov 02 2020 08:30:39 GMT-0500 (Eastern Standard Time)","Mozilla/5.0 (Windows NT 10.0; Win64; x64; rv:82.0) Gecko/20100101 Firefox/82.0",10,"[0.9, 0.5, 0.1]","[0.8, 0.4, 0.2]","[u'blue', u'black', u'red']","[u'left', u'middle', u'right']","[0.9, 0.5, 0.1]","[u'medium', u'low', u'high']","red",51,"right","high","True","False",374,850,NA
"A2QP9ZGIW4R7C2","Mon Nov 02 2020 08:23:14 GMT-0500 (Eastern Standard Time)","Mon Nov 02 2020 08:30:39 GMT-0500 (Eastern Standard Time)","Mozilla/5.0 (Windows NT 10.0; Win64; x64; rv:82.0) Gecko/20100101 Firefox/82.0",11,"[0.9, 0.5, 0.1]","[0.8, 0.4, 0.2]","[u'blue', u'black', u'red']","[u'left', u'middle', u'right']","[0.9, 0.5, 0.1]","[u'medium', u'low', u'high']","red",51,"right","high","True","True",485,950,NA
"A2QP9ZGIW4R7C2","Mon Nov 02 2020 08:23:14 GMT-0500 (Eastern Standard Time)","Mon Nov 02 2020 08:30:39 GMT-0500 (Eastern Standard Time)","Mozilla/5.0 (Windows NT 10.0; Win64; x64; rv:82.0) Gecko/20100101 Firefox/82.0",12,"[0.9, 0.5, 0.1]","[0.8, 0.4, 0.2]","[u'blue', u'black', u'red']","[u'left', u'middle', u'right']","[0.9, 0.5, 0.1]","[u'high', u'low', u'medium']","red",51,"right","medium","False","False",398,900,NA
"A2QP9ZGIW4R7C2","Mon Nov 02 2020 08:23:14 GMT-0500 (Eastern Standard Time)","Mon Nov 02 2020 08:30:39 GMT-0500 (Eastern Standard Time)","Mozilla/5.0 (Windows NT 10.0; Win64; x64; rv:82.0) Gecko/20100101 Firefox/82.0",13,"[0.9, 0.5, 0.1]","[0.8, 0.4, 0.2]","[u'blue', u'black', u'red']","[u'left', u'middle', u'right']","[0.9, 0.5, 0.1]","[u'high', u'low', u'medium']","red",51,"right","medium","False","False",363,850,NA
"A2QP9ZGIW4R7C2","Mon Nov 02 2020 08:23:14 GMT-0500 (Eastern Standard Time)","Mon Nov 02 2020 08:30:39 GMT-0500 (Eastern Standard Time)","Mozilla/5.0 (Windows NT 10.0; Win64; x64; rv:82.0) Gecko/20100101 Firefox/82.0",14,"[0.9, 0.5, 0.1]","[0.8, 0.4, 0.2]","[u'blue', u'black', u'red']","[u'left', u'middle', u'right']","[0.9, 0.5, 0.1]","[u'high', u'low', u'medium']","black",50,"middle","low","False","False",401,800,NA
"A2QP9ZGIW4R7C2","Mon Nov 02 2020 08:23:14 GMT-0500 (Eastern Standard Time)","Mon Nov 02 2020 08:30:39 GMT-0500 (Eastern Standard Time)","Mozilla/5.0 (Windows NT 10.0; Win64; x64; rv:82.0) Gecko/20100101 Firefox/82.0",15,"[0.9, 0.5, 0.1]","[0.8, 0.4, 0.2]","[u'blue', u'black', u'red']","[u'left', u'middle', u'right']","[0.9, 0.5, 0.1]","[u'high', u'low', u'medium']","blue",49,"left","high","False","False",354,750,NA
"A2QP9ZGIW4R7C2","Mon Nov 02 2020 08:23:14 GMT-0500 (Eastern Standard Time)","Mon Nov 02 2020 08:30:39 GMT-0500 (Eastern Standard Time)","Mozilla/5.0 (Windows NT 10.0; Win64; x64; rv:82.0) Gecko/20100101 Firefox/82.0",16,"[0.9, 0.5, 0.1]","[0.8, 0.4, 0.2]","[u'blue', u'black', u'red']","[u'left', u'middle', u'right']","[0.9, 0.5, 0.1]","[u'high', u'low', u'medium']","red",51,"right","medium","False","False",387,700,NA
"A2QP9ZGIW4R7C2","Mon Nov 02 2020 08:23:14 GMT-0500 (Eastern Standard Time)","Mon Nov 02 2020 08:30:39 GMT-0500 (Eastern Standard Time)","Mozilla/5.0 (Windows NT 10.0; Win64; x64; rv:82.0) Gecko/20100101 Firefox/82.0",17,"[0.9, 0.5, 0.1]","[0.8, 0.4, 0.2]","[u'blue', u'black', u'red']","[u'left', u'middle', u'right']","[0.9, 0.5, 0.1]","[u'high', u'low', u'medium']","blue",49,"left","high","True","False",504,800,NA
"A2QP9ZGIW4R7C2","Mon Nov 02 2020 08:23:14 GMT-0500 (Eastern Standard Time)","Mon Nov 02 2020 08:30:39 GMT-0500 (Eastern Standard Time)","Mozilla/5.0 (Windows NT 10.0; Win64; x64; rv:82.0) Gecko/20100101 Firefox/82.0",18,"[0.9, 0.5, 0.1]","[0.8, 0.4, 0.2]","[u'blue', u'black', u'red']","[u'left', u'middle', u'right']","[0.9, 0.5, 0.1]","[u'high', u'low', u'medium']","blue",49,"left","high","True","False",331,900,NA
"A2QP9ZGIW4R7C2","Mon Nov 02 2020 08:23:14 GMT-0500 (Eastern Standard Time)","Mon Nov 02 2020 08:30:39 GMT-0500 (Eastern Standard Time)","Mozilla/5.0 (Windows NT 10.0; Win64; x64; rv:82.0) Gecko/20100101 Firefox/82.0",19,"[0.9, 0.5, 0.1]","[0.8, 0.4, 0.2]","[u'blue', u'black', u'red']","[u'left', u'middle', u'right']","[0.9, 0.5, 0.1]","[u'high', u'low', u'medium']","blue",49,"left","high","True","False",390,1000,NA
"A2QP9ZGIW4R7C2","Mon Nov 02 2020 08:23:14 GMT-0500 (Eastern Standard Time)","Mon Nov 02 2020 08:30:39 GMT-0500 (Eastern Standard Time)","Mozilla/5.0 (Windows NT 10.0; Win64; x64; rv:82.0) Gecko/20100101 Firefox/82.0",20,"[0.9, 0.5, 0.1]","[0.8, 0.4, 0.2]","[u'blue', u'black', u'red']","[u'left', u'middle', u'right']","[0.9, 0.5, 0.1]","[u'high', u'low', u'medium']","blue",49,"left","high","True","False",662,1100,NA
"A2QP9ZGIW4R7C2","Mon Nov 02 2020 08:23:14 GMT-0500 (Eastern Standard Time)","Mon Nov 02 2020 08:30:39 GMT-0500 (Eastern Standard Time)","Mozilla/5.0 (Windows NT 10.0; Win64; x64; rv:82.0) Gecko/20100101 Firefox/82.0",21,"[0.9, 0.5, 0.1]","[0.8, 0.4, 0.2]","[u'blue', u'black', u'red']","[u'left', u'middle', u'right']","[0.9, 0.5, 0.1]","[u'high', u'low', u'medium']","blue",49,"left","high","True","False",439,1200,NA
"A2QP9ZGIW4R7C2","Mon Nov 02 2020 08:23:14 GMT-0500 (Eastern Standard Time)","Mon Nov 02 2020 08:30:39 GMT-0500 (Eastern Standard Time)","Mozilla/5.0 (Windows NT 10.0; Win64; x64; rv:82.0) Gecko/20100101 Firefox/82.0",22,"[0.9, 0.5, 0.1]","[0.8, 0.4, 0.2]","[u'blue', u'black', u'red']","[u'left', u'middle', u'right']","[0.9, 0.5, 0.1]","[u'high', u'low', u'medium']","blue",49,"left","high","True","False",617,1300,NA
"A2QP9ZGIW4R7C2","Mon Nov 02 2020 08:23:14 GMT-0500 (Eastern Standard Time)","Mon Nov 02 2020 08:30:39 GMT-0500 (Eastern Standard Time)","Mozilla/5.0 (Windows NT 10.0; Win64; x64; rv:82.0) Gecko/20100101 Firefox/82.0",23,"[0.9, 0.5, 0.1]","[0.8, 0.4, 0.2]","[u'blue', u'black', u'red']","[u'left', u'middle', u'right']","[0.9, 0.5, 0.1]","[u'high', u'low', u'medium']","blue",49,"left","high","False","False",586,1250,NA
"A2QP9ZGIW4R7C2","Mon Nov 02 2020 08:23:14 GMT-0500 (Eastern Standard Time)","Mon Nov 02 2020 08:30:39 GMT-0500 (Eastern Standard Time)","Mozilla/5.0 (Windows NT 10.0; Win64; x64; rv:82.0) Gecko/20100101 Firefox/82.0",24,"[0.9, 0.5, 0.1]","[0.8, 0.4, 0.2]","[u'blue', u'black', u'red']","[u'left', u'middle', u'right']","[0.9, 0.5, 0.1]","[u'high', u'low', u'medium']","red",51,"right","medium","False","False",395,1200,NA
"A2QP9ZGIW4R7C2","Mon Nov 02 2020 08:23:14 GMT-0500 (Eastern Standard Time)","Mon Nov 02 2020 08:30:39 GMT-0500 (Eastern Standard Time)","Mozilla/5.0 (Windows NT 10.0; Win64; x64; rv:82.0) Gecko/20100101 Firefox/82.0",25,"[0.9, 0.5, 0.1]","[0.8, 0.4, 0.2]","[u'blue', u'black', u'red']","[u'left', u'middle', u'right']","[0.9, 0.5, 0.1]","[u'high', u'low', u'medium']","black",50,"middle","low","False","False",243,1150,NA
"A2QP9ZGIW4R7C2","Mon Nov 02 2020 08:23:14 GMT-0500 (Eastern Standard Time)","Mon Nov 02 2020 08:30:39 GMT-0500 (Eastern Standard Time)","Mozilla/5.0 (Windows NT 10.0; Win64; x64; rv:82.0) Gecko/20100101 Firefox/82.0",26,"[0.9, 0.5, 0.1]","[0.8, 0.4, 0.2]","[u'blue', u'black', u'red']","[u'left', u'middle', u'right']","[0.9, 0.5, 0.1]","[u'high', u'low', u'medium']","red",51,"right","medium","True","False",262,1250,NA
"A2QP9ZGIW4R7C2","Mon Nov 02 2020 08:23:14 GMT-0500 (Eastern Standard Time)","Mon Nov 02 2020 08:30:39 GMT-0500 (Eastern Standard Time)","Mozilla/5.0 (Windows NT 10.0; Win64; x64; rv:82.0) Gecko/20100101 Firefox/82.0",27,"[0.9, 0.5, 0.1]","[0.8, 0.4, 0.2]","[u'blue', u'black', u'red']","[u'left', u'middle', u'right']","[0.9, 0.5, 0.1]","[u'high', u'low', u'medium']","red",51,"right","medium","True","False",313,1350,NA
"A2QP9ZGIW4R7C2","Mon Nov 02 2020 08:23:14 GMT-0500 (Eastern Standard Time)","Mon Nov 02 2020 08:30:39 GMT-0500 (Eastern Standard Time)","Mozilla/5.0 (Windows NT 10.0; Win64; x64; rv:82.0) Gecko/20100101 Firefox/82.0",28,"[0.9, 0.5, 0.1]","[0.8, 0.4, 0.2]","[u'blue', u'black', u'red']","[u'left', u'middle', u'right']","[0.9, 0.5, 0.1]","[u'high', u'low', u'medium']","red",51,"right","medium","True","False",382,1450,NA
"A2QP9ZGIW4R7C2","Mon Nov 02 2020 08:23:14 GMT-0500 (Eastern Standard Time)","Mon Nov 02 2020 08:30:39 GMT-0500 (Eastern Standard Time)","Mozilla/5.0 (Windows NT 10.0; Win64; x64; rv:82.0) Gecko/20100101 Firefox/82.0",29,"[0.9, 0.5, 0.1]","[0.8, 0.4, 0.2]","[u'blue', u'black', u'red']","[u'left', u'middle', u'right']","[0.9, 0.5, 0.1]","[u'high', u'low', u'medium']","red",51,"right","medium","False","False",396,1400,NA
"A2QP9ZGIW4R7C2","Mon Nov 02 2020 08:23:14 GMT-0500 (Eastern Standard Time)","Mon Nov 02 2020 08:30:39 GMT-0500 (Eastern Standard Time)","Mozilla/5.0 (Windows NT 10.0; Win64; x64; rv:82.0) Gecko/20100101 Firefox/82.0",30,"[0.9, 0.5, 0.1]","[0.8, 0.4, 0.2]","[u'blue', u'black', u'red']","[u'left', u'middle', u'right']","[0.9, 0.5, 0.1]","[u'high', u'low', u'medium']","blue",49,"left","high","True","False",322,1500,NA
"A2QP9ZGIW4R7C2","Mon Nov 02 2020 08:23:14 GMT-0500 (Eastern Standard Time)","Mon Nov 02 2020 08:30:39 GMT-0500 (Eastern Standard Time)","Mozilla/5.0 (Windows NT 10.0; Win64; x64; rv:82.0) Gecko/20100101 Firefox/82.0",31,"[0.9, 0.5, 0.1]","[0.8, 0.4, 0.2]","[u'blue', u'black', u'red']","[u'left', u'middle', u'right']","[0.9, 0.5, 0.1]","[u'high', u'low', u'medium']","blue",49,"left","high","False","False",291,1450,NA
"A2QP9ZGIW4R7C2","Mon Nov 02 2020 08:23:14 GMT-0500 (Eastern Standard Time)","Mon Nov 02 2020 08:30:39 GMT-0500 (Eastern Standard Time)","Mozilla/5.0 (Windows NT 10.0; Win64; x64; rv:82.0) Gecko/20100101 Firefox/82.0",32,"[0.9, 0.5, 0.1]","[0.8, 0.4, 0.2]","[u'blue', u'black', u'red']","[u'left', u'middle', u'right']","[0.9, 0.5, 0.1]","[u'high', u'low', u'medium']","black",50,"middle","low","True","False",349,1550,NA
"A2QP9ZGIW4R7C2","Mon Nov 02 2020 08:23:14 GMT-0500 (Eastern Standard Time)","Mon Nov 02 2020 08:30:39 GMT-0500 (Eastern Standard Time)","Mozilla/5.0 (Windows NT 10.0; Win64; x64; rv:82.0) Gecko/20100101 Firefox/82.0",33,"[0.9, 0.5, 0.1]","[0.8, 0.4, 0.2]","[u'blue', u'black', u'red']","[u'left', u'middle', u'right']","[0.9, 0.5, 0.1]","[u'high', u'low', u'medium']","black",50,"middle","low","False","False",277,1500,NA
"A2QP9ZGIW4R7C2","Mon Nov 02 2020 08:23:14 GMT-0500 (Eastern Standard Time)","Mon Nov 02 2020 08:30:39 GMT-0500 (Eastern Standard Time)","Mozilla/5.0 (Windows NT 10.0; Win64; x64; rv:82.0) Gecko/20100101 Firefox/82.0",34,"[0.9, 0.5, 0.1]","[0.8, 0.4, 0.2]","[u'blue', u'black', u'red']","[u'left', u'middle', u'right']","[0.9, 0.5, 0.1]","[u'high', u'low', u'medium']","red",51,"right","medium","True","False",396,1600,NA
"A2QP9ZGIW4R7C2","Mon Nov 02 2020 08:23:14 GMT-0500 (Eastern Standard Time)","Mon Nov 02 2020 08:30:39 GMT-0500 (Eastern Standard Time)","Mozilla/5.0 (Windows NT 10.0; Win64; x64; rv:82.0) Gecko/20100101 Firefox/82.0",35,"[0.9, 0.5, 0.1]","[0.8, 0.4, 0.2]","[u'blue', u'black', u'red']","[u'left', u'middle', u'right']","[0.9, 0.5, 0.1]","[u'high', u'low', u'medium']","red",51,"right","medium","False","False",420,1550,NA
"A2QP9ZGIW4R7C2","Mon Nov 02 2020 08:23:14 GMT-0500 (Eastern Standard Time)","Mon Nov 02 2020 08:30:39 GMT-0500 (Eastern Standard Time)","Mozilla/5.0 (Windows NT 10.0; Win64; x64; rv:82.0) Gecko/20100101 Firefox/82.0",36,"[0.9, 0.5, 0.1]","[0.8, 0.4, 0.2]","[u'blue', u'black', u'red']","[u'left', u'middle', u'right']","[0.9, 0.5, 0.1]","[u'high', u'low', u'medium']","red",51,"right","medium","False","False",347,1500,NA
"A2QP9ZGIW4R7C2","Mon Nov 02 2020 08:23:14 GMT-0500 (Eastern Standard Time)","Mon Nov 02 2020 08:30:39 GMT-0500 (Eastern Standard Time)","Mozilla/5.0 (Windows NT 10.0; Win64; x64; rv:82.0) Gecko/20100101 Firefox/82.0",37,"[0.9, 0.5, 0.1]","[0.8, 0.4, 0.2]","[u'blue', u'black', u'red']","[u'left', u'middle', u'right']","[0.9, 0.5, 0.1]","[u'high', u'low', u'medium']","red",51,"right","medium","True","False",270,1600,NA
"A2QP9ZGIW4R7C2","Mon Nov 02 2020 08:23:14 GMT-0500 (Eastern Standard Time)","Mon Nov 02 2020 08:30:39 GMT-0500 (Eastern Standard Time)","Mozilla/5.0 (Windows NT 10.0; Win64; x64; rv:82.0) Gecko/20100101 Firefox/82.0",38,"[0.9, 0.5, 0.1]","[0.8, 0.4, 0.2]","[u'blue', u'black', u'red']","[u'left', u'middle', u'right']","[0.9, 0.5, 0.1]","[u'high', u'low', u'medium']","red",51,"right","medium","False","False",321,1550,NA
"A2QP9ZGIW4R7C2","Mon Nov 02 2020 08:23:14 GMT-0500 (Eastern Standard Time)","Mon Nov 02 2020 08:30:39 GMT-0500 (Eastern Standard Time)","Mozilla/5.0 (Windows NT 10.0; Win64; x64; rv:82.0) Gecko/20100101 Firefox/82.0",39,"[0.9, 0.5, 0.1]","[0.8, 0.4, 0.2]","[u'blue', u'black', u'red']","[u'left', u'middle', u'right']","[0.9, 0.5, 0.1]","[u'high', u'low', u'medium']","red",51,"right","medium","True","False",293,1650,NA
"A2QP9ZGIW4R7C2","Mon Nov 02 2020 08:23:14 GMT-0500 (Eastern Standard Time)","Mon Nov 02 2020 08:30:39 GMT-0500 (Eastern Standard Time)","Mozilla/5.0 (Windows NT 10.0; Win64; x64; rv:82.0) Gecko/20100101 Firefox/82.0",40,"[0.9, 0.5, 0.1]","[0.8, 0.4, 0.2]","[u'blue', u'black', u'red']","[u'left', u'middle', u'right']","[0.9, 0.5, 0.1]","[u'high', u'low', u'medium']","red",51,"right","medium","False","False",362,1600,NA
"A2QP9ZGIW4R7C2","Mon Nov 02 2020 08:23:14 GMT-0500 (Eastern Standard Time)","Mon Nov 02 2020 08:30:39 GMT-0500 (Eastern Standard Time)","Mozilla/5.0 (Windows NT 10.0; Win64; x64; rv:82.0) Gecko/20100101 Firefox/82.0",41,"[0.9, 0.5, 0.1]","[0.8, 0.4, 0.2]","[u'blue', u'black', u'red']","[u'left', u'middle', u'right']","[0.9, 0.5, 0.1]","[u'medium', u'low', u'high']","blue",49,"left","medium","True","False",550,1700,NA
"A2QP9ZGIW4R7C2","Mon Nov 02 2020 08:23:14 GMT-0500 (Eastern Standard Time)","Mon Nov 02 2020 08:30:39 GMT-0500 (Eastern Standard Time)","Mozilla/5.0 (Windows NT 10.0; Win64; x64; rv:82.0) Gecko/20100101 Firefox/82.0",42,"[0.9, 0.5, 0.1]","[0.8, 0.4, 0.2]","[u'blue', u'black', u'red']","[u'left', u'middle', u'right']","[0.9, 0.5, 0.1]","[u'medium', u'low', u'high']","blue",49,"left","medium","True","False",340,1800,NA
"A2QP9ZGIW4R7C2","Mon Nov 02 2020 08:23:14 GMT-0500 (Eastern Standard Time)","Mon Nov 02 2020 08:30:39 GMT-0500 (Eastern Standard Time)","Mozilla/5.0 (Windows NT 10.0; Win64; x64; rv:82.0) Gecko/20100101 Firefox/82.0",43,"[0.9, 0.5, 0.1]","[0.8, 0.4, 0.2]","[u'blue', u'black', u'red']","[u'left', u'middle', u'right']","[0.9, 0.5, 0.1]","[u'medium', u'low', u'high']","blue",49,"left","medium","False","False",498,1750,NA
"A2QP9ZGIW4R7C2","Mon Nov 02 2020 08:23:14 GMT-0500 (Eastern Standard Time)","Mon Nov 02 2020 08:30:39 GMT-0500 (Eastern Standard Time)","Mozilla/5.0 (Windows NT 10.0; Win64; x64; rv:82.0) Gecko/20100101 Firefox/82.0",44,"[0.9, 0.5, 0.1]","[0.8, 0.4, 0.2]","[u'blue', u'black', u'red']","[u'left', u'middle', u'right']","[0.9, 0.5, 0.1]","[u'medium', u'low', u'high']","red",51,"right","high","True","False",431,1850,NA
"A2QP9ZGIW4R7C2","Mon Nov 02 2020 08:23:14 GMT-0500 (Eastern Standard Time)","Mon Nov 02 2020 08:30:39 GMT-0500 (Eastern Standard Time)","Mozilla/5.0 (Windows NT 10.0; Win64; x64; rv:82.0) Gecko/20100101 Firefox/82.0",45,"[0.9, 0.5, 0.1]","[0.8, 0.4, 0.2]","[u'blue', u'black', u'red']","[u'left', u'middle', u'right']","[0.9, 0.5, 0.1]","[u'medium', u'low', u'high']","red",51,"right","high","True","False",460,1950,NA
"A2QP9ZGIW4R7C2","Mon Nov 02 2020 08:23:14 GMT-0500 (Eastern Standard Time)","Mon Nov 02 2020 08:30:39 GMT-0500 (Eastern Standard Time)","Mozilla/5.0 (Windows NT 10.0; Win64; x64; rv:82.0) Gecko/20100101 Firefox/82.0",46,"[0.9, 0.5, 0.1]","[0.8, 0.4, 0.2]","[u'blue', u'black', u'red']","[u'left', u'middle', u'right']","[0.9, 0.5, 0.1]","[u'medium', u'low', u'high']","red",51,"right","high","False","False",392,1900,NA
"A2QP9ZGIW4R7C2","Mon Nov 02 2020 08:23:14 GMT-0500 (Eastern Standard Time)","Mon Nov 02 2020 08:30:39 GMT-0500 (Eastern Standard Time)","Mozilla/5.0 (Windows NT 10.0; Win64; x64; rv:82.0) Gecko/20100101 Firefox/82.0",47,"[0.9, 0.5, 0.1]","[0.8, 0.4, 0.2]","[u'blue', u'black', u'red']","[u'left', u'middle', u'right']","[0.9, 0.5, 0.1]","[u'medium', u'low', u'high']","blue",49,"left","medium","False","False",263,1850,NA
"A2QP9ZGIW4R7C2","Mon Nov 02 2020 08:23:14 GMT-0500 (Eastern Standard Time)","Mon Nov 02 2020 08:30:39 GMT-0500 (Eastern Standard Time)","Mozilla/5.0 (Windows NT 10.0; Win64; x64; rv:82.0) Gecko/20100101 Firefox/82.0",48,"[0.9, 0.5, 0.1]","[0.8, 0.4, 0.2]","[u'blue', u'black', u'red']","[u'left', u'middle', u'right']","[0.9, 0.5, 0.1]","[u'medium', u'low', u'high']","red",51,"right","high","True","False",287,1950,NA
"A2QP9ZGIW4R7C2","Mon Nov 02 2020 08:23:14 GMT-0500 (Eastern Standard Time)","Mon Nov 02 2020 08:30:39 GMT-0500 (Eastern Standard Time)","Mozilla/5.0 (Windows NT 10.0; Win64; x64; rv:82.0) Gecko/20100101 Firefox/82.0",49,"[0.9, 0.5, 0.1]","[0.8, 0.4, 0.2]","[u'blue', u'black', u'red']","[u'left', u'middle', u'right']","[0.9, 0.5, 0.1]","[u'medium', u'low', u'high']","red",51,"right","high","True","False",390,2050,NA
"A2QP9ZGIW4R7C2","Mon Nov 02 2020 08:23:14 GMT-0500 (Eastern Standard Time)","Mon Nov 02 2020 08:30:39 GMT-0500 (Eastern Standard Time)","Mozilla/5.0 (Windows NT 10.0; Win64; x64; rv:82.0) Gecko/20100101 Firefox/82.0",50,"[0.9, 0.5, 0.1]","[0.8, 0.4, 0.2]","[u'blue', u'black', u'red']","[u'left', u'middle', u'right']","[0.9, 0.5, 0.1]","[u'medium', u'low', u'high']","red",51,"right","high","True","False",330,2150,NA
"A2QP9ZGIW4R7C2","Mon Nov 02 2020 08:23:14 GMT-0500 (Eastern Standard Time)","Mon Nov 02 2020 08:30:39 GMT-0500 (Eastern Standard Time)","Mozilla/5.0 (Windows NT 10.0; Win64; x64; rv:82.0) Gecko/20100101 Firefox/82.0",51,"[0.9, 0.5, 0.1]","[0.8, 0.4, 0.2]","[u'blue', u'black', u'red']","[u'left', u'middle', u'right']","[0.9, 0.5, 0.1]","[u'medium', u'low', u'high']","red",51,"right","high","True","False",363,2250,NA
"A2QP9ZGIW4R7C2","Mon Nov 02 2020 08:23:14 GMT-0500 (Eastern Standard Time)","Mon Nov 02 2020 08:30:39 GMT-0500 (Eastern Standard Time)","Mozilla/5.0 (Windows NT 10.0; Win64; x64; rv:82.0) Gecko/20100101 Firefox/82.0",52,"[0.9, 0.5, 0.1]","[0.8, 0.4, 0.2]","[u'blue', u'black', u'red']","[u'left', u'middle', u'right']","[0.9, 0.5, 0.1]","[u'medium', u'low', u'high']","red",51,"right","high","True","False",482,2350,NA
"A2QP9ZGIW4R7C2","Mon Nov 02 2020 08:23:14 GMT-0500 (Eastern Standard Time)","Mon Nov 02 2020 08:30:39 GMT-0500 (Eastern Standard Time)","Mozilla/5.0 (Windows NT 10.0; Win64; x64; rv:82.0) Gecko/20100101 Firefox/82.0",53,"[0.9, 0.5, 0.1]","[0.8, 0.4, 0.2]","[u'blue', u'black', u'red']","[u'left', u'middle', u'right']","[0.9, 0.5, 0.1]","[u'medium', u'low', u'high']","red",51,"right","high","True","True",321,2450,NA
"A2QP9ZGIW4R7C2","Mon Nov 02 2020 08:23:14 GMT-0500 (Eastern Standard Time)","Mon Nov 02 2020 08:30:39 GMT-0500 (Eastern Standard Time)","Mozilla/5.0 (Windows NT 10.0; Win64; x64; rv:82.0) Gecko/20100101 Firefox/82.0",54,"[0.9, 0.5, 0.1]","[0.8, 0.4, 0.2]","[u'blue', u'black', u'red']","[u'left', u'middle', u'right']","[0.9, 0.5, 0.1]","[u'medium', u'high', u'low']","red",51,"right","low","False","False",407,2400,NA
"A2QP9ZGIW4R7C2","Mon Nov 02 2020 08:23:14 GMT-0500 (Eastern Standard Time)","Mon Nov 02 2020 08:30:39 GMT-0500 (Eastern Standard Time)","Mozilla/5.0 (Windows NT 10.0; Win64; x64; rv:82.0) Gecko/20100101 Firefox/82.0",55,"[0.9, 0.5, 0.1]","[0.8, 0.4, 0.2]","[u'blue', u'black', u'red']","[u'left', u'middle', u'right']","[0.9, 0.5, 0.1]","[u'medium', u'high', u'low']","blue",49,"left","medium","True","False",289,2500,NA
"A2QP9ZGIW4R7C2","Mon Nov 02 2020 08:23:14 GMT-0500 (Eastern Standard Time)","Mon Nov 02 2020 08:30:39 GMT-0500 (Eastern Standard Time)","Mozilla/5.0 (Windows NT 10.0; Win64; x64; rv:82.0) Gecko/20100101 Firefox/82.0",56,"[0.9, 0.5, 0.1]","[0.8, 0.4, 0.2]","[u'blue', u'black', u'red']","[u'left', u'middle', u'right']","[0.9, 0.5, 0.1]","[u'medium', u'high', u'low']","blue",49,"left","medium","False","False",469,2450,NA
"A2QP9ZGIW4R7C2","Mon Nov 02 2020 08:23:14 GMT-0500 (Eastern Standard Time)","Mon Nov 02 2020 08:30:39 GMT-0500 (Eastern Standard Time)","Mozilla/5.0 (Windows NT 10.0; Win64; x64; rv:82.0) Gecko/20100101 Firefox/82.0",57,"[0.9, 0.5, 0.1]","[0.8, 0.4, 0.2]","[u'blue', u'black', u'red']","[u'left', u'middle', u'right']","[0.9, 0.5, 0.1]","[u'medium', u'high', u'low']","red",51,"right","low","False","False",317,2400,NA
"A2QP9ZGIW4R7C2","Mon Nov 02 2020 08:23:14 GMT-0500 (Eastern Standard Time)","Mon Nov 02 2020 08:30:39 GMT-0500 (Eastern Standard Time)","Mozilla/5.0 (Windows NT 10.0; Win64; x64; rv:82.0) Gecko/20100101 Firefox/82.0",58,"[0.9, 0.5, 0.1]","[0.8, 0.4, 0.2]","[u'blue', u'black', u'red']","[u'left', u'middle', u'right']","[0.9, 0.5, 0.1]","[u'medium', u'high', u'low']","blue",49,"left","medium","False","False",378,2350,NA
"A2QP9ZGIW4R7C2","Mon Nov 02 2020 08:23:14 GMT-0500 (Eastern Standard Time)","Mon Nov 02 2020 08:30:39 GMT-0500 (Eastern Standard Time)","Mozilla/5.0 (Windows NT 10.0; Win64; x64; rv:82.0) Gecko/20100101 Firefox/82.0",59,"[0.9, 0.5, 0.1]","[0.8, 0.4, 0.2]","[u'blue', u'black', u'red']","[u'left', u'middle', u'right']","[0.9, 0.5, 0.1]","[u'medium', u'high', u'low']","red",51,"right","low","False","False",255,2300,NA
"A2QP9ZGIW4R7C2","Mon Nov 02 2020 08:23:14 GMT-0500 (Eastern Standard Time)","Mon Nov 02 2020 08:30:39 GMT-0500 (Eastern Standard Time)","Mozilla/5.0 (Windows NT 10.0; Win64; x64; rv:82.0) Gecko/20100101 Firefox/82.0",60,"[0.9, 0.5, 0.1]","[0.8, 0.4, 0.2]","[u'blue', u'black', u'red']","[u'left', u'middle', u'right']","[0.9, 0.5, 0.1]","[u'medium', u'high', u'low']","red",51,"right","low","False","False",339,2250,NA
"A2QP9ZGIW4R7C2","Mon Nov 02 2020 08:23:14 GMT-0500 (Eastern Standard Time)","Mon Nov 02 2020 08:30:39 GMT-0500 (Eastern Standard Time)","Mozilla/5.0 (Windows NT 10.0; Win64; x64; rv:82.0) Gecko/20100101 Firefox/82.0",61,"[0.9, 0.5, 0.1]","[0.8, 0.4, 0.2]","[u'blue', u'black', u'red']","[u'left', u'middle', u'right']","[0.9, 0.5, 0.1]","[u'medium', u'high', u'low']","blue",49,"left","medium","True","False",495,2350,NA
"A2QP9ZGIW4R7C2","Mon Nov 02 2020 08:23:14 GMT-0500 (Eastern Standard Time)","Mon Nov 02 2020 08:30:39 GMT-0500 (Eastern Standard Time)","Mozilla/5.0 (Windows NT 10.0; Win64; x64; rv:82.0) Gecko/20100101 Firefox/82.0",62,"[0.9, 0.5, 0.1]","[0.8, 0.4, 0.2]","[u'blue', u'black', u'red']","[u'left', u'middle', u'right']","[0.9, 0.5, 0.1]","[u'medium', u'high', u'low']","blue",49,"left","medium","False","False",366,2300,NA
"A2QP9ZGIW4R7C2","Mon Nov 02 2020 08:23:14 GMT-0500 (Eastern Standard Time)","Mon Nov 02 2020 08:30:39 GMT-0500 (Eastern Standard Time)","Mozilla/5.0 (Windows NT 10.0; Win64; x64; rv:82.0) Gecko/20100101 Firefox/82.0",63,"[0.9, 0.5, 0.1]","[0.8, 0.4, 0.2]","[u'blue', u'black', u'red']","[u'left', u'middle', u'right']","[0.9, 0.5, 0.1]","[u'medium', u'high', u'low']","red",51,"right","low","False","False",295,2250,NA
"A2QP9ZGIW4R7C2","Mon Nov 02 2020 08:23:14 GMT-0500 (Eastern Standard Time)","Mon Nov 02 2020 08:30:39 GMT-0500 (Eastern Standard Time)","Mozilla/5.0 (Windows NT 10.0; Win64; x64; rv:82.0) Gecko/20100101 Firefox/82.0",64,"[0.9, 0.5, 0.1]","[0.8, 0.4, 0.2]","[u'blue', u'black', u'red']","[u'left', u'middle', u'right']","[0.9, 0.5, 0.1]","[u'medium', u'high', u'low']","black",50,"middle","high","True","False",347,2350,NA
"A2QP9ZGIW4R7C2","Mon Nov 02 2020 08:23:14 GMT-0500 (Eastern Standard Time)","Mon Nov 02 2020 08:30:39 GMT-0500 (Eastern Standard Time)","Mozilla/5.0 (Windows NT 10.0; Win64; x64; rv:82.0) Gecko/20100101 Firefox/82.0",65,"[0.9, 0.5, 0.1]","[0.8, 0.4, 0.2]","[u'blue', u'black', u'red']","[u'left', u'middle', u'right']","[0.9, 0.5, 0.1]","[u'medium', u'high', u'low']","black",50,"middle","high","True","False",290,2450,NA
"A2QP9ZGIW4R7C2","Mon Nov 02 2020 08:23:14 GMT-0500 (Eastern Standard Time)","Mon Nov 02 2020 08:30:39 GMT-0500 (Eastern Standard Time)","Mozilla/5.0 (Windows NT 10.0; Win64; x64; rv:82.0) Gecko/20100101 Firefox/82.0",66,"[0.9, 0.5, 0.1]","[0.8, 0.4, 0.2]","[u'blue', u'black', u'red']","[u'left', u'middle', u'right']","[0.9, 0.5, 0.1]","[u'medium', u'high', u'low']","black",50,"middle","high","True","False",273,2550,NA
"A2QP9ZGIW4R7C2","Mon Nov 02 2020 08:23:14 GMT-0500 (Eastern Standard Time)","Mon Nov 02 2020 08:30:39 GMT-0500 (Eastern Standard Time)","Mozilla/5.0 (Windows NT 10.0; Win64; x64; rv:82.0) Gecko/20100101 Firefox/82.0",67,"[0.9, 0.5, 0.1]","[0.8, 0.4, 0.2]","[u'blue', u'black', u'red']","[u'left', u'middle', u'right']","[0.9, 0.5, 0.1]","[u'medium', u'high', u'low']","black",50,"middle","high","True","False",272,2650,NA
"A2QP9ZGIW4R7C2","Mon Nov 02 2020 08:23:14 GMT-0500 (Eastern Standard Time)","Mon Nov 02 2020 08:30:39 GMT-0500 (Eastern Standard Time)","Mozilla/5.0 (Windows NT 10.0; Win64; x64; rv:82.0) Gecko/20100101 Firefox/82.0",68,"[0.9, 0.5, 0.1]","[0.8, 0.4, 0.2]","[u'blue', u'black', u'red']","[u'left', u'middle', u'right']","[0.9, 0.5, 0.1]","[u'medium', u'high', u'low']","black",50,"middle","high","True","False",349,2750,NA
"A2QP9ZGIW4R7C2","Mon Nov 02 2020 08:23:14 GMT-0500 (Eastern Standard Time)","Mon Nov 02 2020 08:30:39 GMT-0500 (Eastern Standard Time)","Mozilla/5.0 (Windows NT 10.0; Win64; x64; rv:82.0) Gecko/20100101 Firefox/82.0",69,"[0.9, 0.5, 0.1]","[0.8, 0.4, 0.2]","[u'blue', u'black', u'red']","[u'left', u'middle', u'right']","[0.9, 0.5, 0.1]","[u'medium', u'high', u'low']","black",50,"middle","high","True","False",322,2850,NA
"A2QP9ZGIW4R7C2","Mon Nov 02 2020 08:23:14 GMT-0500 (Eastern Standard Time)","Mon Nov 02 2020 08:30:39 GMT-0500 (Eastern Standard Time)","Mozilla/5.0 (Windows NT 10.0; Win64; x64; rv:82.0) Gecko/20100101 Firefox/82.0",70,"[0.9, 0.5, 0.1]","[0.8, 0.4, 0.2]","[u'blue', u'black', u'red']","[u'left', u'middle', u'right']","[0.9, 0.5, 0.1]","[u'medium', u'high', u'low']","black",50,"middle","high","True","False",436,2950,NA
"A2QP9ZGIW4R7C2","Mon Nov 02 2020 08:23:14 GMT-0500 (Eastern Standard Time)","Mon Nov 02 2020 08:30:39 GMT-0500 (Eastern Standard Time)","Mozilla/5.0 (Windows NT 10.0; Win64; x64; rv:82.0) Gecko/20100101 Firefox/82.0",71,"[0.9, 0.5, 0.1]","[0.8, 0.4, 0.2]","[u'blue', u'black', u'red']","[u'left', u'middle', u'right']","[0.9, 0.5, 0.1]","[u'medium', u'high', u'low']","black",50,"middle","high","True","False",316,3050,NA
"A2QP9ZGIW4R7C2","Mon Nov 02 2020 08:23:14 GMT-0500 (Eastern Standard Time)","Mon Nov 02 2020 08:30:39 GMT-0500 (Eastern Standard Time)","Mozilla/5.0 (Windows NT 10.0; Win64; x64; rv:82.0) Gecko/20100101 Firefox/82.0",72,"[0.9, 0.5, 0.1]","[0.8, 0.4, 0.2]","[u'blue', u'black', u'red']","[u'left', u'middle', u'right']","[0.9, 0.5, 0.1]","[u'medium', u'high', u'low']","black",50,"middle","high","True","True",231,3150,NA
"A2QP9ZGIW4R7C2","Mon Nov 02 2020 08:23:14 GMT-0500 (Eastern Standard Time)","Mon Nov 02 2020 08:30:39 GMT-0500 (Eastern Standard Time)","Mozilla/5.0 (Windows NT 10.0; Win64; x64; rv:82.0) Gecko/20100101 Firefox/82.0",73,"[0.9, 0.5, 0.1]","[0.8, 0.4, 0.2]","[u'blue', u'black', u'red']","[u'left', u'middle', u'right']","[0.9, 0.5, 0.1]","[u'low', u'medium', u'high']","black",50,"middle","medium","True","False",132,3250,NA
"A2QP9ZGIW4R7C2","Mon Nov 02 2020 08:23:14 GMT-0500 (Eastern Standard Time)","Mon Nov 02 2020 08:30:39 GMT-0500 (Eastern Standard Time)","Mozilla/5.0 (Windows NT 10.0; Win64; x64; rv:82.0) Gecko/20100101 Firefox/82.0",74,"[0.9, 0.5, 0.1]","[0.8, 0.4, 0.2]","[u'blue', u'black', u'red']","[u'left', u'middle', u'right']","[0.9, 0.5, 0.1]","[u'low', u'medium', u'high']","black",50,"middle","medium","True","False",258,3350,NA
"A2QP9ZGIW4R7C2","Mon Nov 02 2020 08:23:14 GMT-0500 (Eastern Standard Time)","Mon Nov 02 2020 08:30:39 GMT-0500 (Eastern Standard Time)","Mozilla/5.0 (Windows NT 10.0; Win64; x64; rv:82.0) Gecko/20100101 Firefox/82.0",75,"[0.9, 0.5, 0.1]","[0.8, 0.4, 0.2]","[u'blue', u'black', u'red']","[u'left', u'middle', u'right']","[0.9, 0.5, 0.1]","[u'low', u'medium', u'high']","black",50,"middle","medium","False","False",688,3300,NA
"A2QP9ZGIW4R7C2","Mon Nov 02 2020 08:23:14 GMT-0500 (Eastern Standard Time)","Mon Nov 02 2020 08:30:39 GMT-0500 (Eastern Standard Time)","Mozilla/5.0 (Windows NT 10.0; Win64; x64; rv:82.0) Gecko/20100101 Firefox/82.0",76,"[0.9, 0.5, 0.1]","[0.8, 0.4, 0.2]","[u'blue', u'black', u'red']","[u'left', u'middle', u'right']","[0.9, 0.5, 0.1]","[u'low', u'medium', u'high']","red",51,"right","high","True","False",322,3400,NA
"A2QP9ZGIW4R7C2","Mon Nov 02 2020 08:23:14 GMT-0500 (Eastern Standard Time)","Mon Nov 02 2020 08:30:39 GMT-0500 (Eastern Standard Time)","Mozilla/5.0 (Windows NT 10.0; Win64; x64; rv:82.0) Gecko/20100101 Firefox/82.0",77,"[0.9, 0.5, 0.1]","[0.8, 0.4, 0.2]","[u'blue', u'black', u'red']","[u'left', u'middle', u'right']","[0.9, 0.5, 0.1]","[u'low', u'medium', u'high']","red",51,"right","high","True","False",393,3500,NA
"A2QP9ZGIW4R7C2","Mon Nov 02 2020 08:23:14 GMT-0500 (Eastern Standard Time)","Mon Nov 02 2020 08:30:39 GMT-0500 (Eastern Standard Time)","Mozilla/5.0 (Windows NT 10.0; Win64; x64; rv:82.0) Gecko/20100101 Firefox/82.0",78,"[0.9, 0.5, 0.1]","[0.8, 0.4, 0.2]","[u'blue', u'black', u'red']","[u'left', u'middle', u'right']","[0.9, 0.5, 0.1]","[u'low', u'medium', u'high']","red",51,"right","high","True","False",336,3600,NA
"A2QP9ZGIW4R7C2","Mon Nov 02 2020 08:23:14 GMT-0500 (Eastern Standard Time)","Mon Nov 02 2020 08:30:39 GMT-0500 (Eastern Standard Time)","Mozilla/5.0 (Windows NT 10.0; Win64; x64; rv:82.0) Gecko/20100101 Firefox/82.0",79,"[0.9, 0.5, 0.1]","[0.8, 0.4, 0.2]","[u'blue', u'black', u'red']","[u'left', u'middle', u'right']","[0.9, 0.5, 0.1]","[u'low', u'medium', u'high']","red",51,"right","high","True","False",468,3700,NA
"A2QP9ZGIW4R7C2","Mon Nov 02 2020 08:23:14 GMT-0500 (Eastern Standard Time)","Mon Nov 02 2020 08:30:39 GMT-0500 (Eastern Standard Time)","Mozilla/5.0 (Windows NT 10.0; Win64; x64; rv:82.0) Gecko/20100101 Firefox/82.0",80,"[0.9, 0.5, 0.1]","[0.8, 0.4, 0.2]","[u'blue', u'black', u'red']","[u'left', u'middle', u'right']","[0.9, 0.5, 0.1]","[u'low', u'medium', u'high']","red",51,"right","high","True","False",456,3800,NA
"A2QP9ZGIW4R7C2","Mon Nov 02 2020 08:23:14 GMT-0500 (Eastern Standard Time)","Mon Nov 02 2020 08:30:39 GMT-0500 (Eastern Standard Time)","Mozilla/5.0 (Windows NT 10.0; Win64; x64; rv:82.0) Gecko/20100101 Firefox/82.0",81,"[0.9, 0.5, 0.1]","[0.8, 0.4, 0.2]","[u'blue', u'black', u'red']","[u'left', u'middle', u'right']","[0.8, 0.4, 0.2]","[u'high', u'low', u'medium']","red",51,"right","medium","True","False",376,3900,NA
"A2QP9ZGIW4R7C2","Mon Nov 02 2020 08:23:14 GMT-0500 (Eastern Standard Time)","Mon Nov 02 2020 08:30:39 GMT-0500 (Eastern Standard Time)","Mozilla/5.0 (Windows NT 10.0; Win64; x64; rv:82.0) Gecko/20100101 Firefox/82.0",82,"[0.9, 0.5, 0.1]","[0.8, 0.4, 0.2]","[u'blue', u'black', u'red']","[u'left', u'middle', u'right']","[0.8, 0.4, 0.2]","[u'high', u'low', u'medium']","red",51,"right","medium","False","False",283,3850,NA
"A2QP9ZGIW4R7C2","Mon Nov 02 2020 08:23:14 GMT-0500 (Eastern Standard Time)","Mon Nov 02 2020 08:30:39 GMT-0500 (Eastern Standard Time)","Mozilla/5.0 (Windows NT 10.0; Win64; x64; rv:82.0) Gecko/20100101 Firefox/82.0",83,"[0.9, 0.5, 0.1]","[0.8, 0.4, 0.2]","[u'blue', u'black', u'red']","[u'left', u'middle', u'right']","[0.8, 0.4, 0.2]","[u'high', u'low', u'medium']","blue",49,"left","high","True","False",306,3950,NA
"A2QP9ZGIW4R7C2","Mon Nov 02 2020 08:23:14 GMT-0500 (Eastern Standard Time)","Mon Nov 02 2020 08:30:39 GMT-0500 (Eastern Standard Time)","Mozilla/5.0 (Windows NT 10.0; Win64; x64; rv:82.0) Gecko/20100101 Firefox/82.0",84,"[0.9, 0.5, 0.1]","[0.8, 0.4, 0.2]","[u'blue', u'black', u'red']","[u'left', u'middle', u'right']","[0.8, 0.4, 0.2]","[u'high', u'low', u'medium']","blue",49,"left","high","True","False",410,4050,NA
"A2QP9ZGIW4R7C2","Mon Nov 02 2020 08:23:14 GMT-0500 (Eastern Standard Time)","Mon Nov 02 2020 08:30:39 GMT-0500 (Eastern Standard Time)","Mozilla/5.0 (Windows NT 10.0; Win64; x64; rv:82.0) Gecko/20100101 Firefox/82.0",85,"[0.9, 0.5, 0.1]","[0.8, 0.4, 0.2]","[u'blue', u'black', u'red']","[u'left', u'middle', u'right']","[0.8, 0.4, 0.2]","[u'high', u'low', u'medium']","blue",49,"left","high","False","False",479,4000,NA
"A2QP9ZGIW4R7C2","Mon Nov 02 2020 08:23:14 GMT-0500 (Eastern Standard Time)","Mon Nov 02 2020 08:30:39 GMT-0500 (Eastern Standard Time)","Mozilla/5.0 (Windows NT 10.0; Win64; x64; rv:82.0) Gecko/20100101 Firefox/82.0",86,"[0.9, 0.5, 0.1]","[0.8, 0.4, 0.2]","[u'blue', u'black', u'red']","[u'left', u'middle', u'right']","[0.8, 0.4, 0.2]","[u'high', u'low', u'medium']","black",50,"middle","low","False","False",427,3950,NA
"A2QP9ZGIW4R7C2","Mon Nov 02 2020 08:23:14 GMT-0500 (Eastern Standard Time)","Mon Nov 02 2020 08:30:39 GMT-0500 (Eastern Standard Time)","Mozilla/5.0 (Windows NT 10.0; Win64; x64; rv:82.0) Gecko/20100101 Firefox/82.0",87,"[0.9, 0.5, 0.1]","[0.8, 0.4, 0.2]","[u'blue', u'black', u'red']","[u'left', u'middle', u'right']","[0.8, 0.4, 0.2]","[u'high', u'low', u'medium']","red",51,"right","medium","False","False",223,3900,NA
"A2QP9ZGIW4R7C2","Mon Nov 02 2020 08:23:14 GMT-0500 (Eastern Standard Time)","Mon Nov 02 2020 08:30:39 GMT-0500 (Eastern Standard Time)","Mozilla/5.0 (Windows NT 10.0; Win64; x64; rv:82.0) Gecko/20100101 Firefox/82.0",88,"[0.9, 0.5, 0.1]","[0.8, 0.4, 0.2]","[u'blue', u'black', u'red']","[u'left', u'middle', u'right']","[0.8, 0.4, 0.2]","[u'high', u'low', u'medium']","red",51,"right","medium","True","False",482,4000,NA
"A2QP9ZGIW4R7C2","Mon Nov 02 2020 08:23:14 GMT-0500 (Eastern Standard Time)","Mon Nov 02 2020 08:30:39 GMT-0500 (Eastern Standard Time)","Mozilla/5.0 (Windows NT 10.0; Win64; x64; rv:82.0) Gecko/20100101 Firefox/82.0",89,"[0.9, 0.5, 0.1]","[0.8, 0.4, 0.2]","[u'blue', u'black', u'red']","[u'left', u'middle', u'right']","[0.8, 0.4, 0.2]","[u'high', u'low', u'medium']","red",51,"right","medium","False","False",322,3950,NA
"A2QP9ZGIW4R7C2","Mon Nov 02 2020 08:23:14 GMT-0500 (Eastern Standard Time)","Mon Nov 02 2020 08:30:39 GMT-0500 (Eastern Standard Time)","Mozilla/5.0 (Windows NT 10.0; Win64; x64; rv:82.0) Gecko/20100101 Firefox/82.0",90,"[0.9, 0.5, 0.1]","[0.8, 0.4, 0.2]","[u'blue', u'black', u'red']","[u'left', u'middle', u'right']","[0.8, 0.4, 0.2]","[u'high', u'low', u'medium']","blue",49,"left","high","False","False",363,3900,NA
"A2QP9ZGIW4R7C2","Mon Nov 02 2020 08:23:14 GMT-0500 (Eastern Standard Time)","Mon Nov 02 2020 08:30:39 GMT-0500 (Eastern Standard Time)","Mozilla/5.0 (Windows NT 10.0; Win64; x64; rv:82.0) Gecko/20100101 Firefox/82.0",91,"[0.9, 0.5, 0.1]","[0.8, 0.4, 0.2]","[u'blue', u'black', u'red']","[u'left', u'middle', u'right']","[0.8, 0.4, 0.2]","[u'high', u'low', u'medium']","black",50,"middle","low","False","False",157,3850,NA
"A2QP9ZGIW4R7C2","Mon Nov 02 2020 08:23:14 GMT-0500 (Eastern Standard Time)","Mon Nov 02 2020 08:30:39 GMT-0500 (Eastern Standard Time)","Mozilla/5.0 (Windows NT 10.0; Win64; x64; rv:82.0) Gecko/20100101 Firefox/82.0",92,"[0.9, 0.5, 0.1]","[0.8, 0.4, 0.2]","[u'blue', u'black', u'red']","[u'left', u'middle', u'right']","[0.8, 0.4, 0.2]","[u'high', u'low', u'medium']","red",51,"right","medium","False","False",521,3800,NA
"A2QP9ZGIW4R7C2","Mon Nov 02 2020 08:23:14 GMT-0500 (Eastern Standard Time)","Mon Nov 02 2020 08:30:39 GMT-0500 (Eastern Standard Time)","Mozilla/5.0 (Windows NT 10.0; Win64; x64; rv:82.0) Gecko/20100101 Firefox/82.0",93,"[0.9, 0.5, 0.1]","[0.8, 0.4, 0.2]","[u'blue', u'black', u'red']","[u'left', u'middle', u'right']","[0.8, 0.4, 0.2]","[u'high', u'low', u'medium']","red",51,"right","medium","False","False",333,3750,NA
"A2QP9ZGIW4R7C2","Mon Nov 02 2020 08:23:14 GMT-0500 (Eastern Standard Time)","Mon Nov 02 2020 08:30:39 GMT-0500 (Eastern Standard Time)","Mozilla/5.0 (Windows NT 10.0; Win64; x64; rv:82.0) Gecko/20100101 Firefox/82.0",94,"[0.9, 0.5, 0.1]","[0.8, 0.4, 0.2]","[u'blue', u'black', u'red']","[u'left', u'middle', u'right']","[0.8, 0.4, 0.2]","[u'high', u'low', u'medium']","blue",49,"left","high","True","False",313,3850,NA
"A2QP9ZGIW4R7C2","Mon Nov 02 2020 08:23:14 GMT-0500 (Eastern Standard Time)","Mon Nov 02 2020 08:30:39 GMT-0500 (Eastern Standard Time)","Mozilla/5.0 (Windows NT 10.0; Win64; x64; rv:82.0) Gecko/20100101 Firefox/82.0",95,"[0.9, 0.5, 0.1]","[0.8, 0.4, 0.2]","[u'blue', u'black', u'red']","[u'left', u'middle', u'right']","[0.8, 0.4, 0.2]","[u'high', u'low', u'medium']","blue",49,"left","high","True","False",318,3950,NA
"A2QP9ZGIW4R7C2","Mon Nov 02 2020 08:23:14 GMT-0500 (Eastern Standard Time)","Mon Nov 02 2020 08:30:39 GMT-0500 (Eastern Standard Time)","Mozilla/5.0 (Windows NT 10.0; Win64; x64; rv:82.0) Gecko/20100101 Firefox/82.0",96,"[0.9, 0.5, 0.1]","[0.8, 0.4, 0.2]","[u'blue', u'black', u'red']","[u'left', u'middle', u'right']","[0.8, 0.4, 0.2]","[u'high', u'low', u'medium']","blue",49,"left","high","False","False",331,3900,NA
"A2QP9ZGIW4R7C2","Mon Nov 02 2020 08:23:14 GMT-0500 (Eastern Standard Time)","Mon Nov 02 2020 08:30:39 GMT-0500 (Eastern Standard Time)","Mozilla/5.0 (Windows NT 10.0; Win64; x64; rv:82.0) Gecko/20100101 Firefox/82.0",97,"[0.9, 0.5, 0.1]","[0.8, 0.4, 0.2]","[u'blue', u'black', u'red']","[u'left', u'middle', u'right']","[0.8, 0.4, 0.2]","[u'high', u'low', u'medium']","black",50,"middle","low","False","False",326,3850,NA
"A2QP9ZGIW4R7C2","Mon Nov 02 2020 08:23:14 GMT-0500 (Eastern Standard Time)","Mon Nov 02 2020 08:30:39 GMT-0500 (Eastern Standard Time)","Mozilla/5.0 (Windows NT 10.0; Win64; x64; rv:82.0) Gecko/20100101 Firefox/82.0",98,"[0.9, 0.5, 0.1]","[0.8, 0.4, 0.2]","[u'blue', u'black', u'red']","[u'left', u'middle', u'right']","[0.8, 0.4, 0.2]","[u'high', u'low', u'medium']","blue",49,"left","high","True","False",253,3950,NA
"A2QP9ZGIW4R7C2","Mon Nov 02 2020 08:23:14 GMT-0500 (Eastern Standard Time)","Mon Nov 02 2020 08:30:39 GMT-0500 (Eastern Standard Time)","Mozilla/5.0 (Windows NT 10.0; Win64; x64; rv:82.0) Gecko/20100101 Firefox/82.0",99,"[0.9, 0.5, 0.1]","[0.8, 0.4, 0.2]","[u'blue', u'black', u'red']","[u'left', u'middle', u'right']","[0.8, 0.4, 0.2]","[u'high', u'low', u'medium']","blue",49,"left","high","False","False",541,3900,NA
"A2QP9ZGIW4R7C2","Mon Nov 02 2020 08:23:14 GMT-0500 (Eastern Standard Time)","Mon Nov 02 2020 08:30:39 GMT-0500 (Eastern Standard Time)","Mozilla/5.0 (Windows NT 10.0; Win64; x64; rv:82.0) Gecko/20100101 Firefox/82.0",100,"[0.9, 0.5, 0.1]","[0.8, 0.4, 0.2]","[u'blue', u'black', u'red']","[u'left', u'middle', u'right']","[0.8, 0.4, 0.2]","[u'high', u'low', u'medium']","red",51,"right","medium","False","False",312,3850,NA
"A2QP9ZGIW4R7C2","Mon Nov 02 2020 08:23:14 GMT-0500 (Eastern Standard Time)","Mon Nov 02 2020 08:30:39 GMT-0500 (Eastern Standard Time)","Mozilla/5.0 (Windows NT 10.0; Win64; x64; rv:82.0) Gecko/20100101 Firefox/82.0",101,"[0.9, 0.5, 0.1]","[0.8, 0.4, 0.2]","[u'blue', u'black', u'red']","[u'left', u'middle', u'right']","[0.8, 0.4, 0.2]","[u'high', u'low', u'medium']","blue",49,"left","high","True","False",242,3950,NA
"A2QP9ZGIW4R7C2","Mon Nov 02 2020 08:23:14 GMT-0500 (Eastern Standard Time)","Mon Nov 02 2020 08:30:39 GMT-0500 (Eastern Standard Time)","Mozilla/5.0 (Windows NT 10.0; Win64; x64; rv:82.0) Gecko/20100101 Firefox/82.0",102,"[0.9, 0.5, 0.1]","[0.8, 0.4, 0.2]","[u'blue', u'black', u'red']","[u'left', u'middle', u'right']","[0.8, 0.4, 0.2]","[u'high', u'low', u'medium']","blue",49,"left","high","True","False",305,4050,NA
"A2QP9ZGIW4R7C2","Mon Nov 02 2020 08:23:14 GMT-0500 (Eastern Standard Time)","Mon Nov 02 2020 08:30:39 GMT-0500 (Eastern Standard Time)","Mozilla/5.0 (Windows NT 10.0; Win64; x64; rv:82.0) Gecko/20100101 Firefox/82.0",103,"[0.9, 0.5, 0.1]","[0.8, 0.4, 0.2]","[u'blue', u'black', u'red']","[u'left', u'middle', u'right']","[0.8, 0.4, 0.2]","[u'high', u'low', u'medium']","blue",49,"left","high","True","False",356,4150,NA
"A2QP9ZGIW4R7C2","Mon Nov 02 2020 08:23:14 GMT-0500 (Eastern Standard Time)","Mon Nov 02 2020 08:30:39 GMT-0500 (Eastern Standard Time)","Mozilla/5.0 (Windows NT 10.0; Win64; x64; rv:82.0) Gecko/20100101 Firefox/82.0",104,"[0.9, 0.5, 0.1]","[0.8, 0.4, 0.2]","[u'blue', u'black', u'red']","[u'left', u'middle', u'right']","[0.8, 0.4, 0.2]","[u'high', u'low', u'medium']","blue",49,"left","high","True","False",362,4250,NA
"A2QP9ZGIW4R7C2","Mon Nov 02 2020 08:23:14 GMT-0500 (Eastern Standard Time)","Mon Nov 02 2020 08:30:39 GMT-0500 (Eastern Standard Time)","Mozilla/5.0 (Windows NT 10.0; Win64; x64; rv:82.0) Gecko/20100101 Firefox/82.0",105,"[0.9, 0.5, 0.1]","[0.8, 0.4, 0.2]","[u'blue', u'black', u'red']","[u'left', u'middle', u'right']","[0.8, 0.4, 0.2]","[u'high', u'low', u'medium']","blue",49,"left","high","True","False",436,4350,NA
"A2QP9ZGIW4R7C2","Mon Nov 02 2020 08:23:14 GMT-0500 (Eastern Standard Time)","Mon Nov 02 2020 08:30:39 GMT-0500 (Eastern Standard Time)","Mozilla/5.0 (Windows NT 10.0; Win64; x64; rv:82.0) Gecko/20100101 Firefox/82.0",106,"[0.9, 0.5, 0.1]","[0.8, 0.4, 0.2]","[u'blue', u'black', u'red']","[u'left', u'middle', u'right']","[0.8, 0.4, 0.2]","[u'high', u'low', u'medium']","blue",49,"left","high","True","False",315,4450,NA
"A2QP9ZGIW4R7C2","Mon Nov 02 2020 08:23:14 GMT-0500 (Eastern Standard Time)","Mon Nov 02 2020 08:30:39 GMT-0500 (Eastern Standard Time)","Mozilla/5.0 (Windows NT 10.0; Win64; x64; rv:82.0) Gecko/20100101 Firefox/82.0",107,"[0.9, 0.5, 0.1]","[0.8, 0.4, 0.2]","[u'blue', u'black', u'red']","[u'left', u'middle', u'right']","[0.8, 0.4, 0.2]","[u'high', u'low', u'medium']","blue",49,"left","high","True","False",272,4550,NA
"A2QP9ZGIW4R7C2","Mon Nov 02 2020 08:23:14 GMT-0500 (Eastern Standard Time)","Mon Nov 02 2020 08:30:39 GMT-0500 (Eastern Standard Time)","Mozilla/5.0 (Windows NT 10.0; Win64; x64; rv:82.0) Gecko/20100101 Firefox/82.0",108,"[0.9, 0.5, 0.1]","[0.8, 0.4, 0.2]","[u'blue', u'black', u'red']","[u'left', u'middle', u'right']","[0.8, 0.4, 0.2]","[u'high', u'low', u'medium']","blue",49,"left","high","True","False",371,4650,NA
"A2QP9ZGIW4R7C2","Mon Nov 02 2020 08:23:14 GMT-0500 (Eastern Standard Time)","Mon Nov 02 2020 08:30:39 GMT-0500 (Eastern Standard Time)","Mozilla/5.0 (Windows NT 10.0; Win64; x64; rv:82.0) Gecko/20100101 Firefox/82.0",109,"[0.9, 0.5, 0.1]","[0.8, 0.4, 0.2]","[u'blue', u'black', u'red']","[u'left', u'middle', u'right']","[0.8, 0.4, 0.2]","[u'high', u'low', u'medium']","blue",49,"left","high","True","True",302,4750,NA
"A2QP9ZGIW4R7C2","Mon Nov 02 2020 08:23:14 GMT-0500 (Eastern Standard Time)","Mon Nov 02 2020 08:30:39 GMT-0500 (Eastern Standard Time)","Mozilla/5.0 (Windows NT 10.0; Win64; x64; rv:82.0) Gecko/20100101 Firefox/82.0",110,"[0.9, 0.5, 0.1]","[0.8, 0.4, 0.2]","[u'blue', u'black', u'red']","[u'left', u'middle', u'right']","[0.8, 0.4, 0.2]","[u'medium', u'high', u'low']","blue",49,"left","medium","True","False",276,4850,NA
"A2QP9ZGIW4R7C2","Mon Nov 02 2020 08:23:14 GMT-0500 (Eastern Standard Time)","Mon Nov 02 2020 08:30:39 GMT-0500 (Eastern Standard Time)","Mozilla/5.0 (Windows NT 10.0; Win64; x64; rv:82.0) Gecko/20100101 Firefox/82.0",111,"[0.9, 0.5, 0.1]","[0.8, 0.4, 0.2]","[u'blue', u'black', u'red']","[u'left', u'middle', u'right']","[0.8, 0.4, 0.2]","[u'medium', u'high', u'low']","blue",49,"left","medium","False","False",265,4800,NA
"A2QP9ZGIW4R7C2","Mon Nov 02 2020 08:23:14 GMT-0500 (Eastern Standard Time)","Mon Nov 02 2020 08:30:39 GMT-0500 (Eastern Standard Time)","Mozilla/5.0 (Windows NT 10.0; Win64; x64; rv:82.0) Gecko/20100101 Firefox/82.0",112,"[0.9, 0.5, 0.1]","[0.8, 0.4, 0.2]","[u'blue', u'black', u'red']","[u'left', u'middle', u'right']","[0.8, 0.4, 0.2]","[u'medium', u'high', u'low']","black",50,"middle","high","False","False",256,4750,NA
"A2QP9ZGIW4R7C2","Mon Nov 02 2020 08:23:14 GMT-0500 (Eastern Standard Time)","Mon Nov 02 2020 08:30:39 GMT-0500 (Eastern Standard Time)","Mozilla/5.0 (Windows NT 10.0; Win64; x64; rv:82.0) Gecko/20100101 Firefox/82.0",113,"[0.9, 0.5, 0.1]","[0.8, 0.4, 0.2]","[u'blue', u'black', u'red']","[u'left', u'middle', u'right']","[0.8, 0.4, 0.2]","[u'medium', u'high', u'low']","blue",49,"left","medium","False","False",316,4700,NA
"A2QP9ZGIW4R7C2","Mon Nov 02 2020 08:23:14 GMT-0500 (Eastern Standard Time)","Mon Nov 02 2020 08:30:39 GMT-0500 (Eastern Standard Time)","Mozilla/5.0 (Windows NT 10.0; Win64; x64; rv:82.0) Gecko/20100101 Firefox/82.0",114,"[0.9, 0.5, 0.1]","[0.8, 0.4, 0.2]","[u'blue', u'black', u'red']","[u'left', u'middle', u'right']","[0.8, 0.4, 0.2]","[u'medium', u'high', u'low']","red",51,"right","low","True","False",295,4800,NA
"A2QP9ZGIW4R7C2","Mon Nov 02 2020 08:23:14 GMT-0500 (Eastern Standard Time)","Mon Nov 02 2020 08:30:39 GMT-0500 (Eastern Standard Time)","Mozilla/5.0 (Windows NT 10.0; Win64; x64; rv:82.0) Gecko/20100101 Firefox/82.0",115,"[0.9, 0.5, 0.1]","[0.8, 0.4, 0.2]","[u'blue', u'black', u'red']","[u'left', u'middle', u'right']","[0.8, 0.4, 0.2]","[u'medium', u'high', u'low']","red",51,"right","low","False","False",345,4750,NA
"A2QP9ZGIW4R7C2","Mon Nov 02 2020 08:23:14 GMT-0500 (Eastern Standard Time)","Mon Nov 02 2020 08:30:39 GMT-0500 (Eastern Standard Time)","Mozilla/5.0 (Windows NT 10.0; Win64; x64; rv:82.0) Gecko/20100101 Firefox/82.0",116,"[0.9, 0.5, 0.1]","[0.8, 0.4, 0.2]","[u'blue', u'black', u'red']","[u'left', u'middle', u'right']","[0.8, 0.4, 0.2]","[u'medium', u'high', u'low']","red",51,"right","low","False","False",242,4700,NA
"A2QP9ZGIW4R7C2","Mon Nov 02 2020 08:23:14 GMT-0500 (Eastern Standard Time)","Mon Nov 02 2020 08:30:39 GMT-0500 (Eastern Standard Time)","Mozilla/5.0 (Windows NT 10.0; Win64; x64; rv:82.0) Gecko/20100101 Firefox/82.0",117,"[0.9, 0.5, 0.1]","[0.8, 0.4, 0.2]","[u'blue', u'black', u'red']","[u'left', u'middle', u'right']","[0.8, 0.4, 0.2]","[u'medium', u'high', u'low']","black",50,"middle","high","True","False",301,4800,NA
"A2QP9ZGIW4R7C2","Mon Nov 02 2020 08:23:14 GMT-0500 (Eastern Standard Time)","Mon Nov 02 2020 08:30:39 GMT-0500 (Eastern Standard Time)","Mozilla/5.0 (Windows NT 10.0; Win64; x64; rv:82.0) Gecko/20100101 Firefox/82.0",118,"[0.9, 0.5, 0.1]","[0.8, 0.4, 0.2]","[u'blue', u'black', u'red']","[u'left', u'middle', u'right']","[0.8, 0.4, 0.2]","[u'medium', u'high', u'low']","black",50,"middle","high","True","False",265,4900,NA
"A2QP9ZGIW4R7C2","Mon Nov 02 2020 08:23:14 GMT-0500 (Eastern Standard Time)","Mon Nov 02 2020 08:30:39 GMT-0500 (Eastern Standard Time)","Mozilla/5.0 (Windows NT 10.0; Win64; x64; rv:82.0) Gecko/20100101 Firefox/82.0",119,"[0.9, 0.5, 0.1]","[0.8, 0.4, 0.2]","[u'blue', u'black', u'red']","[u'left', u'middle', u'right']","[0.8, 0.4, 0.2]","[u'medium', u'high', u'low']","black",50,"middle","high","True","False",261,5000,NA
"A2QP9ZGIW4R7C2","Mon Nov 02 2020 08:23:14 GMT-0500 (Eastern Standard Time)","Mon Nov 02 2020 08:30:39 GMT-0500 (Eastern Standard Time)","Mozilla/5.0 (Windows NT 10.0; Win64; x64; rv:82.0) Gecko/20100101 Firefox/82.0",120,"[0.9, 0.5, 0.1]","[0.8, 0.4, 0.2]","[u'blue', u'black', u'red']","[u'left', u'middle', u'right']","[0.8, 0.4, 0.2]","[u'medium', u'high', u'low']","black",50,"middle","high","True","False",365,5100,NA
"A2QP9ZGIW4R7C2","Mon Nov 02 2020 08:23:14 GMT-0500 (Eastern Standard Time)","Mon Nov 02 2020 08:30:39 GMT-0500 (Eastern Standard Time)","Mozilla/5.0 (Windows NT 10.0; Win64; x64; rv:82.0) Gecko/20100101 Firefox/82.0",121,"[0.9, 0.5, 0.1]","[0.8, 0.4, 0.2]","[u'blue', u'black', u'red']","[u'left', u'middle', u'right']","[0.8, 0.4, 0.2]","[u'high', u'medium', u'low']","black",50,"middle","medium","False","False",397,5050,NA
"A2QP9ZGIW4R7C2","Mon Nov 02 2020 08:23:14 GMT-0500 (Eastern Standard Time)","Mon Nov 02 2020 08:30:39 GMT-0500 (Eastern Standard Time)","Mozilla/5.0 (Windows NT 10.0; Win64; x64; rv:82.0) Gecko/20100101 Firefox/82.0",122,"[0.9, 0.5, 0.1]","[0.8, 0.4, 0.2]","[u'blue', u'black', u'red']","[u'left', u'middle', u'right']","[0.8, 0.4, 0.2]","[u'high', u'medium', u'low']","red",51,"right","low","False","False",271,5000,NA
"A2QP9ZGIW4R7C2","Mon Nov 02 2020 08:23:14 GMT-0500 (Eastern Standard Time)","Mon Nov 02 2020 08:30:39 GMT-0500 (Eastern Standard Time)","Mozilla/5.0 (Windows NT 10.0; Win64; x64; rv:82.0) Gecko/20100101 Firefox/82.0",123,"[0.9, 0.5, 0.1]","[0.8, 0.4, 0.2]","[u'blue', u'black', u'red']","[u'left', u'middle', u'right']","[0.8, 0.4, 0.2]","[u'high', u'medium', u'low']","blue",49,"left","high","True","False",269,5100,NA
"A2QP9ZGIW4R7C2","Mon Nov 02 2020 08:23:14 GMT-0500 (Eastern Standard Time)","Mon Nov 02 2020 08:30:39 GMT-0500 (Eastern Standard Time)","Mozilla/5.0 (Windows NT 10.0; Win64; x64; rv:82.0) Gecko/20100101 Firefox/82.0",124,"[0.9, 0.5, 0.1]","[0.8, 0.4, 0.2]","[u'blue', u'black', u'red']","[u'left', u'middle', u'right']","[0.8, 0.4, 0.2]","[u'high', u'medium', u'low']","blue",49,"left","high","False","False",227,5050,NA
"A2QP9ZGIW4R7C2","Mon Nov 02 2020 08:23:14 GMT-0500 (Eastern Standard Time)","Mon Nov 02 2020 08:30:39 GMT-0500 (Eastern Standard Time)","Mozilla/5.0 (Windows NT 10.0; Win64; x64; rv:82.0) Gecko/20100101 Firefox/82.0",125,"[0.9, 0.5, 0.1]","[0.8, 0.4, 0.2]","[u'blue', u'black', u'red']","[u'left', u'middle', u'right']","[0.8, 0.4, 0.2]","[u'high', u'medium', u'low']","blue",49,"left","high","True","False",271,5150,NA
"A2QP9ZGIW4R7C2","Mon Nov 02 2020 08:23:14 GMT-0500 (Eastern Standard Time)","Mon Nov 02 2020 08:30:39 GMT-0500 (Eastern Standard Time)","Mozilla/5.0 (Windows NT 10.0; Win64; x64; rv:82.0) Gecko/20100101 Firefox/82.0",126,"[0.9, 0.5, 0.1]","[0.8, 0.4, 0.2]","[u'blue', u'black', u'red']","[u'left', u'middle', u'right']","[0.8, 0.4, 0.2]","[u'high', u'medium', u'low']","blue",49,"left","high","True","False",369,5250,NA
"A2QP9ZGIW4R7C2","Mon Nov 02 2020 08:23:14 GMT-0500 (Eastern Standard Time)","Mon Nov 02 2020 08:30:39 GMT-0500 (Eastern Standard Time)","Mozilla/5.0 (Windows NT 10.0; Win64; x64; rv:82.0) Gecko/20100101 Firefox/82.0",127,"[0.9, 0.5, 0.1]","[0.8, 0.4, 0.2]","[u'blue', u'black', u'red']","[u'left', u'middle', u'right']","[0.8, 0.4, 0.2]","[u'high', u'medium', u'low']","blue",49,"left","high","False","False",345,5200,NA
"A2QP9ZGIW4R7C2","Mon Nov 02 2020 08:23:14 GMT-0500 (Eastern Standard Time)","Mon Nov 02 2020 08:30:39 GMT-0500 (Eastern Standard Time)","Mozilla/5.0 (Windows NT 10.0; Win64; x64; rv:82.0) Gecko/20100101 Firefox/82.0",128,"[0.9, 0.5, 0.1]","[0.8, 0.4, 0.2]","[u'blue', u'black', u'red']","[u'left', u'middle', u'right']","[0.8, 0.4, 0.2]","[u'high', u'medium', u'low']","red",51,"right","low","False","False",218,5150,NA
"A2QP9ZGIW4R7C2","Mon Nov 02 2020 08:23:14 GMT-0500 (Eastern Standard Time)","Mon Nov 02 2020 08:30:39 GMT-0500 (Eastern Standard Time)","Mozilla/5.0 (Windows NT 10.0; Win64; x64; rv:82.0) Gecko/20100101 Firefox/82.0",129,"[0.9, 0.5, 0.1]","[0.8, 0.4, 0.2]","[u'blue', u'black', u'red']","[u'left', u'middle', u'right']","[0.8, 0.4, 0.2]","[u'high', u'medium', u'low']","black",50,"middle","medium","True","False",82,5250,NA
"A2QP9ZGIW4R7C2","Mon Nov 02 2020 08:23:14 GMT-0500 (Eastern Standard Time)","Mon Nov 02 2020 08:30:39 GMT-0500 (Eastern Standard Time)","Mozilla/5.0 (Windows NT 10.0; Win64; x64; rv:82.0) Gecko/20100101 Firefox/82.0",130,"[0.9, 0.5, 0.1]","[0.8, 0.4, 0.2]","[u'blue', u'black', u'red']","[u'left', u'middle', u'right']","[0.8, 0.4, 0.2]","[u'high', u'medium', u'low']","black",50,"middle","medium","True","False",305,5350,NA
"A2QP9ZGIW4R7C2","Mon Nov 02 2020 08:23:14 GMT-0500 (Eastern Standard Time)","Mon Nov 02 2020 08:30:39 GMT-0500 (Eastern Standard Time)","Mozilla/5.0 (Windows NT 10.0; Win64; x64; rv:82.0) Gecko/20100101 Firefox/82.0",131,"[0.9, 0.5, 0.1]","[0.8, 0.4, 0.2]","[u'blue', u'black', u'red']","[u'left', u'middle', u'right']","[0.8, 0.4, 0.2]","[u'high', u'medium', u'low']","black",50,"middle","medium","True","False",285,5450,NA
"A2QP9ZGIW4R7C2","Mon Nov 02 2020 08:23:14 GMT-0500 (Eastern Standard Time)","Mon Nov 02 2020 08:30:39 GMT-0500 (Eastern Standard Time)","Mozilla/5.0 (Windows NT 10.0; Win64; x64; rv:82.0) Gecko/20100101 Firefox/82.0",132,"[0.9, 0.5, 0.1]","[0.8, 0.4, 0.2]","[u'blue', u'black', u'red']","[u'left', u'middle', u'right']","[0.8, 0.4, 0.2]","[u'high', u'medium', u'low']","black",50,"middle","medium","True","False",271,5550,NA
"A2QP9ZGIW4R7C2","Mon Nov 02 2020 08:23:14 GMT-0500 (Eastern Standard Time)","Mon Nov 02 2020 08:30:39 GMT-0500 (Eastern Standard Time)","Mozilla/5.0 (Windows NT 10.0; Win64; x64; rv:82.0) Gecko/20100101 Firefox/82.0",133,"[0.9, 0.5, 0.1]","[0.8, 0.4, 0.2]","[u'blue', u'black', u'red']","[u'left', u'middle', u'right']","[0.8, 0.4, 0.2]","[u'high', u'medium', u'low']","black",50,"middle","medium","False","False",333,5500,NA
"A2QP9ZGIW4R7C2","Mon Nov 02 2020 08:23:14 GMT-0500 (Eastern Standard Time)","Mon Nov 02 2020 08:30:39 GMT-0500 (Eastern Standard Time)","Mozilla/5.0 (Windows NT 10.0; Win64; x64; rv:82.0) Gecko/20100101 Firefox/82.0",134,"[0.9, 0.5, 0.1]","[0.8, 0.4, 0.2]","[u'blue', u'black', u'red']","[u'left', u'middle', u'right']","[0.8, 0.4, 0.2]","[u'high', u'medium', u'low']","black",50,"middle","medium","True","False",246,5600,NA
"A2QP9ZGIW4R7C2","Mon Nov 02 2020 08:23:14 GMT-0500 (Eastern Standard Time)","Mon Nov 02 2020 08:30:39 GMT-0500 (Eastern Standard Time)","Mozilla/5.0 (Windows NT 10.0; Win64; x64; rv:82.0) Gecko/20100101 Firefox/82.0",135,"[0.9, 0.5, 0.1]","[0.8, 0.4, 0.2]","[u'blue', u'black', u'red']","[u'left', u'middle', u'right']","[0.8, 0.4, 0.2]","[u'high', u'medium', u'low']","black",50,"middle","medium","True","False",253,5700,NA
"A2QP9ZGIW4R7C2","Mon Nov 02 2020 08:23:14 GMT-0500 (Eastern Standard Time)","Mon Nov 02 2020 08:30:39 GMT-0500 (Eastern Standard Time)","Mozilla/5.0 (Windows NT 10.0; Win64; x64; rv:82.0) Gecko/20100101 Firefox/82.0",136,"[0.9, 0.5, 0.1]","[0.8, 0.4, 0.2]","[u'blue', u'black', u'red']","[u'left', u'middle', u'right']","[0.8, 0.4, 0.2]","[u'high', u'medium', u'low']","black",50,"middle","medium","True","False",247,5800,NA
"A2QP9ZGIW4R7C2","Mon Nov 02 2020 08:23:14 GMT-0500 (Eastern Standard Time)","Mon Nov 02 2020 08:30:39 GMT-0500 (Eastern Standard Time)","Mozilla/5.0 (Windows NT 10.0; Win64; x64; rv:82.0) Gecko/20100101 Firefox/82.0",137,"[0.9, 0.5, 0.1]","[0.8, 0.4, 0.2]","[u'blue', u'black', u'red']","[u'left', u'middle', u'right']","[0.8, 0.4, 0.2]","[u'high', u'medium', u'low']","black",50,"middle","medium","False","False",295,5750,NA
"A2QP9ZGIW4R7C2","Mon Nov 02 2020 08:23:14 GMT-0500 (Eastern Standard Time)","Mon Nov 02 2020 08:30:39 GMT-0500 (Eastern Standard Time)","Mozilla/5.0 (Windows NT 10.0; Win64; x64; rv:82.0) Gecko/20100101 Firefox/82.0",138,"[0.9, 0.5, 0.1]","[0.8, 0.4, 0.2]","[u'blue', u'black', u'red']","[u'left', u'middle', u'right']","[0.8, 0.4, 0.2]","[u'high', u'medium', u'low']","black",50,"middle","medium","False","False",278,5700,NA
"A2QP9ZGIW4R7C2","Mon Nov 02 2020 08:23:14 GMT-0500 (Eastern Standard Time)","Mon Nov 02 2020 08:30:39 GMT-0500 (Eastern Standard Time)","Mozilla/5.0 (Windows NT 10.0; Win64; x64; rv:82.0) Gecko/20100101 Firefox/82.0",139,"[0.9, 0.5, 0.1]","[0.8, 0.4, 0.2]","[u'blue', u'black', u'red']","[u'left', u'middle', u'right']","[0.8, 0.4, 0.2]","[u'high', u'medium', u'low']","red",51,"right","low","False","False",264,5650,NA
"A2QP9ZGIW4R7C2","Mon Nov 02 2020 08:23:14 GMT-0500 (Eastern Standard Time)","Mon Nov 02 2020 08:30:39 GMT-0500 (Eastern Standard Time)","Mozilla/5.0 (Windows NT 10.0; Win64; x64; rv:82.0) Gecko/20100101 Firefox/82.0",140,"[0.9, 0.5, 0.1]","[0.8, 0.4, 0.2]","[u'blue', u'black', u'red']","[u'left', u'middle', u'right']","[0.8, 0.4, 0.2]","[u'high', u'medium', u'low']","blue",49,"left","high","True","False",233,5750,NA
"A2QP9ZGIW4R7C2","Mon Nov 02 2020 08:23:14 GMT-0500 (Eastern Standard Time)","Mon Nov 02 2020 08:30:39 GMT-0500 (Eastern Standard Time)","Mozilla/5.0 (Windows NT 10.0; Win64; x64; rv:82.0) Gecko/20100101 Firefox/82.0",141,"[0.9, 0.5, 0.1]","[0.8, 0.4, 0.2]","[u'blue', u'black', u'red']","[u'left', u'middle', u'right']","[0.8, 0.4, 0.2]","[u'high', u'medium', u'low']","blue",49,"left","high","False","False",358,5700,NA
"A2QP9ZGIW4R7C2","Mon Nov 02 2020 08:23:14 GMT-0500 (Eastern Standard Time)","Mon Nov 02 2020 08:30:39 GMT-0500 (Eastern Standard Time)","Mozilla/5.0 (Windows NT 10.0; Win64; x64; rv:82.0) Gecko/20100101 Firefox/82.0",142,"[0.9, 0.5, 0.1]","[0.8, 0.4, 0.2]","[u'blue', u'black', u'red']","[u'left', u'middle', u'right']","[0.8, 0.4, 0.2]","[u'high', u'medium', u'low']","blue",49,"left","high","True","False",264,5800,NA
"A2QP9ZGIW4R7C2","Mon Nov 02 2020 08:23:14 GMT-0500 (Eastern Standard Time)","Mon Nov 02 2020 08:30:39 GMT-0500 (Eastern Standard Time)","Mozilla/5.0 (Windows NT 10.0; Win64; x64; rv:82.0) Gecko/20100101 Firefox/82.0",143,"[0.9, 0.5, 0.1]","[0.8, 0.4, 0.2]","[u'blue', u'black', u'red']","[u'left', u'middle', u'right']","[0.8, 0.4, 0.2]","[u'high', u'medium', u'low']","blue",49,"left","high","True","False",236,5900,NA
"A2QP9ZGIW4R7C2","Mon Nov 02 2020 08:23:14 GMT-0500 (Eastern Standard Time)","Mon Nov 02 2020 08:30:39 GMT-0500 (Eastern Standard Time)","Mozilla/5.0 (Windows NT 10.0; Win64; x64; rv:82.0) Gecko/20100101 Firefox/82.0",144,"[0.9, 0.5, 0.1]","[0.8, 0.4, 0.2]","[u'blue', u'black', u'red']","[u'left', u'middle', u'right']","[0.8, 0.4, 0.2]","[u'high', u'medium', u'low']","blue",49,"left","high","True","False",311,6000,NA
"A2QP9ZGIW4R7C2","Mon Nov 02 2020 08:23:14 GMT-0500 (Eastern Standard Time)","Mon Nov 02 2020 08:30:39 GMT-0500 (Eastern Standard Time)","Mozilla/5.0 (Windows NT 10.0; Win64; x64; rv:82.0) Gecko/20100101 Firefox/82.0",145,"[0.9, 0.5, 0.1]","[0.8, 0.4, 0.2]","[u'blue', u'black', u'red']","[u'left', u'middle', u'right']","[0.8, 0.4, 0.2]","[u'high', u'medium', u'low']","blue",49,"left","high","True","False",562,6100,NA
"A2QP9ZGIW4R7C2","Mon Nov 02 2020 08:23:14 GMT-0500 (Eastern Standard Time)","Mon Nov 02 2020 08:30:39 GMT-0500 (Eastern Standard Time)","Mozilla/5.0 (Windows NT 10.0; Win64; x64; rv:82.0) Gecko/20100101 Firefox/82.0",146,"[0.9, 0.5, 0.1]","[0.8, 0.4, 0.2]","[u'blue', u'black', u'red']","[u'left', u'middle', u'right']","[0.8, 0.4, 0.2]","[u'high', u'medium', u'low']","blue",49,"left","high","True","False",349,6200,NA
"A2QP9ZGIW4R7C2","Mon Nov 02 2020 08:23:14 GMT-0500 (Eastern Standard Time)","Mon Nov 02 2020 08:30:39 GMT-0500 (Eastern Standard Time)","Mozilla/5.0 (Windows NT 10.0; Win64; x64; rv:82.0) Gecko/20100101 Firefox/82.0",147,"[0.9, 0.5, 0.1]","[0.8, 0.4, 0.2]","[u'blue', u'black', u'red']","[u'left', u'middle', u'right']","[0.8, 0.4, 0.2]","[u'high', u'medium', u'low']","blue",49,"left","high","True","False",360,6300,NA
"A2QP9ZGIW4R7C2","Mon Nov 02 2020 08:23:14 GMT-0500 (Eastern Standard Time)","Mon Nov 02 2020 08:30:39 GMT-0500 (Eastern Standard Time)","Mozilla/5.0 (Windows NT 10.0; Win64; x64; rv:82.0) Gecko/20100101 Firefox/82.0",148,"[0.9, 0.5, 0.1]","[0.8, 0.4, 0.2]","[u'blue', u'black', u'red']","[u'left', u'middle', u'right']","[0.8, 0.4, 0.2]","[u'high', u'medium', u'low']","blue",49,"left","high","False","True",321,6250,NA
"A2QP9ZGIW4R7C2","Mon Nov 02 2020 08:23:14 GMT-0500 (Eastern Standard Time)","Mon Nov 02 2020 08:30:39 GMT-0500 (Eastern Standard Time)","Mozilla/5.0 (Windows NT 10.0; Win64; x64; rv:82.0) Gecko/20100101 Firefox/82.0",149,"[0.9, 0.5, 0.1]","[0.8, 0.4, 0.2]","[u'blue', u'black', u'red']","[u'left', u'middle', u'right']","[0.8, 0.4, 0.2]","[u'medium', u'low', u'high']","blue",49,"left","medium","True","False",271,6350,NA
"A2QP9ZGIW4R7C2","Mon Nov 02 2020 08:23:14 GMT-0500 (Eastern Standard Time)","Mon Nov 02 2020 08:30:39 GMT-0500 (Eastern Standard Time)","Mozilla/5.0 (Windows NT 10.0; Win64; x64; rv:82.0) Gecko/20100101 Firefox/82.0",150,"[0.9, 0.5, 0.1]","[0.8, 0.4, 0.2]","[u'blue', u'black', u'red']","[u'left', u'middle', u'right']","[0.8, 0.4, 0.2]","[u'medium', u'low', u'high']","blue",49,"left","medium","False","False",234,6300,NA
"A2QP9ZGIW4R7C2","Mon Nov 02 2020 08:23:14 GMT-0500 (Eastern Standard Time)","Mon Nov 02 2020 08:30:39 GMT-0500 (Eastern Standard Time)","Mozilla/5.0 (Windows NT 10.0; Win64; x64; rv:82.0) Gecko/20100101 Firefox/82.0",151,"[0.9, 0.5, 0.1]","[0.8, 0.4, 0.2]","[u'blue', u'black', u'red']","[u'left', u'middle', u'right']","[0.8, 0.4, 0.2]","[u'medium', u'low', u'high']","blue",49,"left","medium","False","False",726,6250,NA
"A2QP9ZGIW4R7C2","Mon Nov 02 2020 08:23:14 GMT-0500 (Eastern Standard Time)","Mon Nov 02 2020 08:30:39 GMT-0500 (Eastern Standard Time)","Mozilla/5.0 (Windows NT 10.0; Win64; x64; rv:82.0) Gecko/20100101 Firefox/82.0",152,"[0.9, 0.5, 0.1]","[0.8, 0.4, 0.2]","[u'blue', u'black', u'red']","[u'left', u'middle', u'right']","[0.8, 0.4, 0.2]","[u'medium', u'low', u'high']","black",50,"middle","low","True","False",195,6350,NA
"A2QP9ZGIW4R7C2","Mon Nov 02 2020 08:23:14 GMT-0500 (Eastern Standard Time)","Mon Nov 02 2020 08:30:39 GMT-0500 (Eastern Standard Time)","Mozilla/5.0 (Windows NT 10.0; Win64; x64; rv:82.0) Gecko/20100101 Firefox/82.0",153,"[0.9, 0.5, 0.1]","[0.8, 0.4, 0.2]","[u'blue', u'black', u'red']","[u'left', u'middle', u'right']","[0.8, 0.4, 0.2]","[u'medium', u'low', u'high']","black",50,"middle","low","True","False",285,6450,NA
"A2QP9ZGIW4R7C2","Mon Nov 02 2020 08:23:14 GMT-0500 (Eastern Standard Time)","Mon Nov 02 2020 08:30:39 GMT-0500 (Eastern Standard Time)","Mozilla/5.0 (Windows NT 10.0; Win64; x64; rv:82.0) Gecko/20100101 Firefox/82.0",154,"[0.9, 0.5, 0.1]","[0.8, 0.4, 0.2]","[u'blue', u'black', u'red']","[u'left', u'middle', u'right']","[0.8, 0.4, 0.2]","[u'medium', u'low', u'high']","black",50,"middle","low","False","False",325,6400,NA
"A2QP9ZGIW4R7C2","Mon Nov 02 2020 08:23:14 GMT-0500 (Eastern Standard Time)","Mon Nov 02 2020 08:30:39 GMT-0500 (Eastern Standard Time)","Mozilla/5.0 (Windows NT 10.0; Win64; x64; rv:82.0) Gecko/20100101 Firefox/82.0",155,"[0.9, 0.5, 0.1]","[0.8, 0.4, 0.2]","[u'blue', u'black', u'red']","[u'left', u'middle', u'right']","[0.8, 0.4, 0.2]","[u'medium', u'low', u'high']","black",50,"middle","low","True","False",310,6500,NA
"A2QP9ZGIW4R7C2","Mon Nov 02 2020 08:23:14 GMT-0500 (Eastern Standard Time)","Mon Nov 02 2020 08:30:39 GMT-0500 (Eastern Standard Time)","Mozilla/5.0 (Windows NT 10.0; Win64; x64; rv:82.0) Gecko/20100101 Firefox/82.0",156,"[0.9, 0.5, 0.1]","[0.8, 0.4, 0.2]","[u'blue', u'black', u'red']","[u'left', u'middle', u'right']","[0.8, 0.4, 0.2]","[u'medium', u'low', u'high']","black",50,"middle","low","False","False",322,6450,NA
"A2QP9ZGIW4R7C2","Mon Nov 02 2020 08:23:14 GMT-0500 (Eastern Standard Time)","Mon Nov 02 2020 08:30:39 GMT-0500 (Eastern Standard Time)","Mozilla/5.0 (Windows NT 10.0; Win64; x64; rv:82.0) Gecko/20100101 Firefox/82.0",157,"[0.9, 0.5, 0.1]","[0.8, 0.4, 0.2]","[u'blue', u'black', u'red']","[u'left', u'middle', u'right']","[0.8, 0.4, 0.2]","[u'medium', u'low', u'high']","black",50,"middle","low","False","False",268,6400,NA
"A2QP9ZGIW4R7C2","Mon Nov 02 2020 08:23:14 GMT-0500 (Eastern Standard Time)","Mon Nov 02 2020 08:30:39 GMT-0500 (Eastern Standard Time)","Mozilla/5.0 (Windows NT 10.0; Win64; x64; rv:82.0) Gecko/20100101 Firefox/82.0",158,"[0.9, 0.5, 0.1]","[0.8, 0.4, 0.2]","[u'blue', u'black', u'red']","[u'left', u'middle', u'right']","[0.8, 0.4, 0.2]","[u'medium', u'low', u'high']","red",51,"right","high","True","False",318,6500,NA
"A2QP9ZGIW4R7C2","Mon Nov 02 2020 08:23:14 GMT-0500 (Eastern Standard Time)","Mon Nov 02 2020 08:30:39 GMT-0500 (Eastern Standard Time)","Mozilla/5.0 (Windows NT 10.0; Win64; x64; rv:82.0) Gecko/20100101 Firefox/82.0",159,"[0.9, 0.5, 0.1]","[0.8, 0.4, 0.2]","[u'blue', u'black', u'red']","[u'left', u'middle', u'right']","[0.8, 0.4, 0.2]","[u'medium', u'low', u'high']","red",51,"right","high","True","False",299,6600,NA
"A2QP9ZGIW4R7C2","Mon Nov 02 2020 08:23:14 GMT-0500 (Eastern Standard Time)","Mon Nov 02 2020 08:30:39 GMT-0500 (Eastern Standard Time)","Mozilla/5.0 (Windows NT 10.0; Win64; x64; rv:82.0) Gecko/20100101 Firefox/82.0",160,"[0.9, 0.5, 0.1]","[0.8, 0.4, 0.2]","[u'blue', u'black', u'red']","[u'left', u'middle', u'right']","[0.8, 0.4, 0.2]","[u'medium', u'low', u'high']","red",51,"right","high","True","False",540,6700,NA
