"src_subject_id","start_time","end_time","browser","index","first_half_probabilities","second_half_probabilities","deck_color","deck_position","deck_probabilities","deck_contingencies","response_color","key_press","response_position","response_probability","reward_type","trial_type","rt","reward_tally","exclusion_reason"
"A256BNNQRDR4LZ","Mon Nov 02 2020 08:33:41 GMT-0500 (Eastern Standard Time)","Mon Nov 02 2020 08:41:26 GMT-0500 (Eastern Standard Time)","Mozilla/5.0 (Windows NT 10.0; WOW64) AppleWebKit/537.36 (KHTML, like Gecko) Chrome/86.0.4240.111 Safari/537.36",1,"[0.9, 0.5, 0.1]","[0.8, 0.4, 0.2]","[u'black', u'red', u'blue']","[u'left', u'middle', u'right']","[0.9, 0.5, 0.1]","[u'medium', u'low', u'high']","red",50,"middle","low","False","False",249,-50,NA
"A256BNNQRDR4LZ","Mon Nov 02 2020 08:33:41 GMT-0500 (Eastern Standard Time)","Mon Nov 02 2020 08:41:26 GMT-0500 (Eastern Standard Time)","Mozilla/5.0 (Windows NT 10.0; WOW64) AppleWebKit/537.36 (KHTML, like Gecko) Chrome/86.0.4240.111 Safari/537.36",2,"[0.9, 0.5, 0.1]","[0.8, 0.4, 0.2]","[u'black', u'red', u'blue']","[u'left', u'middle', u'right']","[0.9, 0.5, 0.1]","[u'medium', u'low', u'high']","black",49,"left","medium","False","False",339,-100,NA
"A256BNNQRDR4LZ","Mon Nov 02 2020 08:33:41 GMT-0500 (Eastern Standard Time)","Mon Nov 02 2020 08:41:26 GMT-0500 (Eastern Standard Time)","Mozilla/5.0 (Windows NT 10.0; WOW64) AppleWebKit/537.36 (KHTML, like Gecko) Chrome/86.0.4240.111 Safari/537.36",3,"[0.9, 0.5, 0.1]","[0.8, 0.4, 0.2]","[u'black', u'red', u'blue']","[u'left', u'middle', u'right']","[0.9, 0.5, 0.1]","[u'medium', u'low', u'high']","red",50,"middle","low","True","False",590,0,NA
"A256BNNQRDR4LZ","Mon Nov 02 2020 08:33:41 GMT-0500 (Eastern Standard Time)","Mon Nov 02 2020 08:41:26 GMT-0500 (Eastern Standard Time)","Mozilla/5.0 (Windows NT 10.0; WOW64) AppleWebKit/537.36 (KHTML, like Gecko) Chrome/86.0.4240.111 Safari/537.36",4,"[0.9, 0.5, 0.1]","[0.8, 0.4, 0.2]","[u'black', u'red', u'blue']","[u'left', u'middle', u'right']","[0.9, 0.5, 0.1]","[u'medium', u'low', u'high']","blue",51,"right","high","True","False",769,100,NA
"A256BNNQRDR4LZ","Mon Nov 02 2020 08:33:41 GMT-0500 (Eastern Standard Time)","Mon Nov 02 2020 08:41:26 GMT-0500 (Eastern Standard Time)","Mozilla/5.0 (Windows NT 10.0; WOW64) AppleWebKit/537.36 (KHTML, like Gecko) Chrome/86.0.4240.111 Safari/537.36",5,"[0.9, 0.5, 0.1]","[0.8, 0.4, 0.2]","[u'black', u'red', u'blue']","[u'left', u'middle', u'right']","[0.9, 0.5, 0.1]","[u'medium', u'low', u'high']","black",49,"left","medium","True","False",524,200,NA
"A256BNNQRDR4LZ","Mon Nov 02 2020 08:33:41 GMT-0500 (Eastern Standard Time)","Mon Nov 02 2020 08:41:26 GMT-0500 (Eastern Standard Time)","Mozilla/5.0 (Windows NT 10.0; WOW64) AppleWebKit/537.36 (KHTML, like Gecko) Chrome/86.0.4240.111 Safari/537.36",6,"[0.9, 0.5, 0.1]","[0.8, 0.4, 0.2]","[u'black', u'red', u'blue']","[u'left', u'middle', u'right']","[0.9, 0.5, 0.1]","[u'medium', u'low', u'high']","blue",51,"right","high","True","False",493,300,NA
"A256BNNQRDR4LZ","Mon Nov 02 2020 08:33:41 GMT-0500 (Eastern Standard Time)","Mon Nov 02 2020 08:41:26 GMT-0500 (Eastern Standard Time)","Mozilla/5.0 (Windows NT 10.0; WOW64) AppleWebKit/537.36 (KHTML, like Gecko) Chrome/86.0.4240.111 Safari/537.36",7,"[0.9, 0.5, 0.1]","[0.8, 0.4, 0.2]","[u'black', u'red', u'blue']","[u'left', u'middle', u'right']","[0.9, 0.5, 0.1]","[u'medium', u'low', u'high']","red",50,"middle","low","False","False",652,250,NA
"A256BNNQRDR4LZ","Mon Nov 02 2020 08:33:41 GMT-0500 (Eastern Standard Time)","Mon Nov 02 2020 08:41:26 GMT-0500 (Eastern Standard Time)","Mozilla/5.0 (Windows NT 10.0; WOW64) AppleWebKit/537.36 (KHTML, like Gecko) Chrome/86.0.4240.111 Safari/537.36",8,"[0.9, 0.5, 0.1]","[0.8, 0.4, 0.2]","[u'black', u'red', u'blue']","[u'left', u'middle', u'right']","[0.9, 0.5, 0.1]","[u'medium', u'low', u'high']","blue",51,"right","high","True","False",484,350,NA
"A256BNNQRDR4LZ","Mon Nov 02 2020 08:33:41 GMT-0500 (Eastern Standard Time)","Mon Nov 02 2020 08:41:26 GMT-0500 (Eastern Standard Time)","Mozilla/5.0 (Windows NT 10.0; WOW64) AppleWebKit/537.36 (KHTML, like Gecko) Chrome/86.0.4240.111 Safari/537.36",9,"[0.9, 0.5, 0.1]","[0.8, 0.4, 0.2]","[u'black', u'red', u'blue']","[u'left', u'middle', u'right']","[0.9, 0.5, 0.1]","[u'medium', u'low', u'high']","black",49,"left","medium","False","False",536,300,NA
"A256BNNQRDR4LZ","Mon Nov 02 2020 08:33:41 GMT-0500 (Eastern Standard Time)","Mon Nov 02 2020 08:41:26 GMT-0500 (Eastern Standard Time)","Mozilla/5.0 (Windows NT 10.0; WOW64) AppleWebKit/537.36 (KHTML, like Gecko) Chrome/86.0.4240.111 Safari/537.36",10,"[0.9, 0.5, 0.1]","[0.8, 0.4, 0.2]","[u'black', u'red', u'blue']","[u'left', u'middle', u'right']","[0.9, 0.5, 0.1]","[u'medium', u'low', u'high']","red",50,"middle","low","False","False",482,250,NA
"A256BNNQRDR4LZ","Mon Nov 02 2020 08:33:41 GMT-0500 (Eastern Standard Time)","Mon Nov 02 2020 08:41:26 GMT-0500 (Eastern Standard Time)","Mozilla/5.0 (Windows NT 10.0; WOW64) AppleWebKit/537.36 (KHTML, like Gecko) Chrome/86.0.4240.111 Safari/537.36",11,"[0.9, 0.5, 0.1]","[0.8, 0.4, 0.2]","[u'black', u'red', u'blue']","[u'left', u'middle', u'right']","[0.9, 0.5, 0.1]","[u'medium', u'low', u'high']","black",49,"left","medium","True","False",858,350,NA
"A256BNNQRDR4LZ","Mon Nov 02 2020 08:33:41 GMT-0500 (Eastern Standard Time)","Mon Nov 02 2020 08:41:26 GMT-0500 (Eastern Standard Time)","Mozilla/5.0 (Windows NT 10.0; WOW64) AppleWebKit/537.36 (KHTML, like Gecko) Chrome/86.0.4240.111 Safari/537.36",12,"[0.9, 0.5, 0.1]","[0.8, 0.4, 0.2]","[u'black', u'red', u'blue']","[u'left', u'middle', u'right']","[0.9, 0.5, 0.1]","[u'medium', u'low', u'high']","black",49,"left","medium","True","False",480,450,NA
"A256BNNQRDR4LZ","Mon Nov 02 2020 08:33:41 GMT-0500 (Eastern Standard Time)","Mon Nov 02 2020 08:41:26 GMT-0500 (Eastern Standard Time)","Mozilla/5.0 (Windows NT 10.0; WOW64) AppleWebKit/537.36 (KHTML, like Gecko) Chrome/86.0.4240.111 Safari/537.36",13,"[0.9, 0.5, 0.1]","[0.8, 0.4, 0.2]","[u'black', u'red', u'blue']","[u'left', u'middle', u'right']","[0.9, 0.5, 0.1]","[u'medium', u'low', u'high']","red",50,"middle","low","False","False",514,400,NA
"A256BNNQRDR4LZ","Mon Nov 02 2020 08:33:41 GMT-0500 (Eastern Standard Time)","Mon Nov 02 2020 08:41:26 GMT-0500 (Eastern Standard Time)","Mozilla/5.0 (Windows NT 10.0; WOW64) AppleWebKit/537.36 (KHTML, like Gecko) Chrome/86.0.4240.111 Safari/537.36",14,"[0.9, 0.5, 0.1]","[0.8, 0.4, 0.2]","[u'black', u'red', u'blue']","[u'left', u'middle', u'right']","[0.9, 0.5, 0.1]","[u'medium', u'low', u'high']","red",50,"middle","low","False","False",985,350,NA
"A256BNNQRDR4LZ","Mon Nov 02 2020 08:33:41 GMT-0500 (Eastern Standard Time)","Mon Nov 02 2020 08:41:26 GMT-0500 (Eastern Standard Time)","Mozilla/5.0 (Windows NT 10.0; WOW64) AppleWebKit/537.36 (KHTML, like Gecko) Chrome/86.0.4240.111 Safari/537.36",15,"[0.9, 0.5, 0.1]","[0.8, 0.4, 0.2]","[u'black', u'red', u'blue']","[u'left', u'middle', u'right']","[0.9, 0.5, 0.1]","[u'medium', u'low', u'high']","black",49,"left","medium","True","False",514,450,NA
"A256BNNQRDR4LZ","Mon Nov 02 2020 08:33:41 GMT-0500 (Eastern Standard Time)","Mon Nov 02 2020 08:41:26 GMT-0500 (Eastern Standard Time)","Mozilla/5.0 (Windows NT 10.0; WOW64) AppleWebKit/537.36 (KHTML, like Gecko) Chrome/86.0.4240.111 Safari/537.36",16,"[0.9, 0.5, 0.1]","[0.8, 0.4, 0.2]","[u'black', u'red', u'blue']","[u'left', u'middle', u'right']","[0.9, 0.5, 0.1]","[u'medium', u'low', u'high']","blue",51,"right","high","True","False",1725,550,NA
"A256BNNQRDR4LZ","Mon Nov 02 2020 08:33:41 GMT-0500 (Eastern Standard Time)","Mon Nov 02 2020 08:41:26 GMT-0500 (Eastern Standard Time)","Mozilla/5.0 (Windows NT 10.0; WOW64) AppleWebKit/537.36 (KHTML, like Gecko) Chrome/86.0.4240.111 Safari/537.36",17,"[0.9, 0.5, 0.1]","[0.8, 0.4, 0.2]","[u'black', u'red', u'blue']","[u'left', u'middle', u'right']","[0.9, 0.5, 0.1]","[u'medium', u'low', u'high']","blue",51,"right","high","True","False",600,650,NA
"A256BNNQRDR4LZ","Mon Nov 02 2020 08:33:41 GMT-0500 (Eastern Standard Time)","Mon Nov 02 2020 08:41:26 GMT-0500 (Eastern Standard Time)","Mozilla/5.0 (Windows NT 10.0; WOW64) AppleWebKit/537.36 (KHTML, like Gecko) Chrome/86.0.4240.111 Safari/537.36",18,"[0.9, 0.5, 0.1]","[0.8, 0.4, 0.2]","[u'black', u'red', u'blue']","[u'left', u'middle', u'right']","[0.9, 0.5, 0.1]","[u'medium', u'low', u'high']","black",49,"left","medium","True","False",579,750,NA
"A256BNNQRDR4LZ","Mon Nov 02 2020 08:33:41 GMT-0500 (Eastern Standard Time)","Mon Nov 02 2020 08:41:26 GMT-0500 (Eastern Standard Time)","Mozilla/5.0 (Windows NT 10.0; WOW64) AppleWebKit/537.36 (KHTML, like Gecko) Chrome/86.0.4240.111 Safari/537.36",19,"[0.9, 0.5, 0.1]","[0.8, 0.4, 0.2]","[u'black', u'red', u'blue']","[u'left', u'middle', u'right']","[0.9, 0.5, 0.1]","[u'medium', u'low', u'high']","blue",51,"right","high","True","False",1220,850,NA
"A256BNNQRDR4LZ","Mon Nov 02 2020 08:33:41 GMT-0500 (Eastern Standard Time)","Mon Nov 02 2020 08:41:26 GMT-0500 (Eastern Standard Time)","Mozilla/5.0 (Windows NT 10.0; WOW64) AppleWebKit/537.36 (KHTML, like Gecko) Chrome/86.0.4240.111 Safari/537.36",20,"[0.9, 0.5, 0.1]","[0.8, 0.4, 0.2]","[u'black', u'red', u'blue']","[u'left', u'middle', u'right']","[0.9, 0.5, 0.1]","[u'medium', u'low', u'high']","blue",51,"right","high","True","False",1544,950,NA
"A256BNNQRDR4LZ","Mon Nov 02 2020 08:33:41 GMT-0500 (Eastern Standard Time)","Mon Nov 02 2020 08:41:26 GMT-0500 (Eastern Standard Time)","Mozilla/5.0 (Windows NT 10.0; WOW64) AppleWebKit/537.36 (KHTML, like Gecko) Chrome/86.0.4240.111 Safari/537.36",21,"[0.9, 0.5, 0.1]","[0.8, 0.4, 0.2]","[u'black', u'red', u'blue']","[u'left', u'middle', u'right']","[0.9, 0.5, 0.1]","[u'medium', u'low', u'high']","black",49,"left","medium","True","False",894,1050,NA
"A256BNNQRDR4LZ","Mon Nov 02 2020 08:33:41 GMT-0500 (Eastern Standard Time)","Mon Nov 02 2020 08:41:26 GMT-0500 (Eastern Standard Time)","Mozilla/5.0 (Windows NT 10.0; WOW64) AppleWebKit/537.36 (KHTML, like Gecko) Chrome/86.0.4240.111 Safari/537.36",22,"[0.9, 0.5, 0.1]","[0.8, 0.4, 0.2]","[u'black', u'red', u'blue']","[u'left', u'middle', u'right']","[0.9, 0.5, 0.1]","[u'medium', u'low', u'high']","black",49,"left","medium","True","False",870,1150,NA
"A256BNNQRDR4LZ","Mon Nov 02 2020 08:33:41 GMT-0500 (Eastern Standard Time)","Mon Nov 02 2020 08:41:26 GMT-0500 (Eastern Standard Time)","Mozilla/5.0 (Windows NT 10.0; WOW64) AppleWebKit/537.36 (KHTML, like Gecko) Chrome/86.0.4240.111 Safari/537.36",23,"[0.9, 0.5, 0.1]","[0.8, 0.4, 0.2]","[u'black', u'red', u'blue']","[u'left', u'middle', u'right']","[0.9, 0.5, 0.1]","[u'medium', u'low', u'high']","blue",51,"right","high","True","False",1149,1250,NA
"A256BNNQRDR4LZ","Mon Nov 02 2020 08:33:41 GMT-0500 (Eastern Standard Time)","Mon Nov 02 2020 08:41:26 GMT-0500 (Eastern Standard Time)","Mozilla/5.0 (Windows NT 10.0; WOW64) AppleWebKit/537.36 (KHTML, like Gecko) Chrome/86.0.4240.111 Safari/537.36",24,"[0.9, 0.5, 0.1]","[0.8, 0.4, 0.2]","[u'black', u'red', u'blue']","[u'left', u'middle', u'right']","[0.9, 0.5, 0.1]","[u'medium', u'low', u'high']","blue",51,"right","high","True","False",1098,1350,NA
"A256BNNQRDR4LZ","Mon Nov 02 2020 08:33:41 GMT-0500 (Eastern Standard Time)","Mon Nov 02 2020 08:41:26 GMT-0500 (Eastern Standard Time)","Mozilla/5.0 (Windows NT 10.0; WOW64) AppleWebKit/537.36 (KHTML, like Gecko) Chrome/86.0.4240.111 Safari/537.36",25,"[0.9, 0.5, 0.1]","[0.8, 0.4, 0.2]","[u'black', u'red', u'blue']","[u'left', u'middle', u'right']","[0.9, 0.5, 0.1]","[u'medium', u'low', u'high']","blue",51,"right","high","True","False",1275,1450,NA
"A256BNNQRDR4LZ","Mon Nov 02 2020 08:33:41 GMT-0500 (Eastern Standard Time)","Mon Nov 02 2020 08:41:26 GMT-0500 (Eastern Standard Time)","Mozilla/5.0 (Windows NT 10.0; WOW64) AppleWebKit/537.36 (KHTML, like Gecko) Chrome/86.0.4240.111 Safari/537.36",26,"[0.9, 0.5, 0.1]","[0.8, 0.4, 0.2]","[u'black', u'red', u'blue']","[u'left', u'middle', u'right']","[0.9, 0.5, 0.1]","[u'medium', u'low', u'high']","black",49,"left","medium","True","False",708,1550,NA
"A256BNNQRDR4LZ","Mon Nov 02 2020 08:33:41 GMT-0500 (Eastern Standard Time)","Mon Nov 02 2020 08:41:26 GMT-0500 (Eastern Standard Time)","Mozilla/5.0 (Windows NT 10.0; WOW64) AppleWebKit/537.36 (KHTML, like Gecko) Chrome/86.0.4240.111 Safari/537.36",27,"[0.9, 0.5, 0.1]","[0.8, 0.4, 0.2]","[u'black', u'red', u'blue']","[u'left', u'middle', u'right']","[0.9, 0.5, 0.1]","[u'medium', u'low', u'high']","black",49,"left","medium","True","False",650,1650,NA
"A256BNNQRDR4LZ","Mon Nov 02 2020 08:33:41 GMT-0500 (Eastern Standard Time)","Mon Nov 02 2020 08:41:26 GMT-0500 (Eastern Standard Time)","Mozilla/5.0 (Windows NT 10.0; WOW64) AppleWebKit/537.36 (KHTML, like Gecko) Chrome/86.0.4240.111 Safari/537.36",28,"[0.9, 0.5, 0.1]","[0.8, 0.4, 0.2]","[u'black', u'red', u'blue']","[u'left', u'middle', u'right']","[0.9, 0.5, 0.1]","[u'medium', u'low', u'high']","black",49,"left","medium","False","False",1138,1600,NA
"A256BNNQRDR4LZ","Mon Nov 02 2020 08:33:41 GMT-0500 (Eastern Standard Time)","Mon Nov 02 2020 08:41:26 GMT-0500 (Eastern Standard Time)","Mozilla/5.0 (Windows NT 10.0; WOW64) AppleWebKit/537.36 (KHTML, like Gecko) Chrome/86.0.4240.111 Safari/537.36",29,"[0.9, 0.5, 0.1]","[0.8, 0.4, 0.2]","[u'black', u'red', u'blue']","[u'left', u'middle', u'right']","[0.9, 0.5, 0.1]","[u'medium', u'low', u'high']","blue",51,"right","high","True","False",529,1700,NA
"A256BNNQRDR4LZ","Mon Nov 02 2020 08:33:41 GMT-0500 (Eastern Standard Time)","Mon Nov 02 2020 08:41:26 GMT-0500 (Eastern Standard Time)","Mozilla/5.0 (Windows NT 10.0; WOW64) AppleWebKit/537.36 (KHTML, like Gecko) Chrome/86.0.4240.111 Safari/537.36",30,"[0.9, 0.5, 0.1]","[0.8, 0.4, 0.2]","[u'black', u'red', u'blue']","[u'left', u'middle', u'right']","[0.9, 0.5, 0.1]","[u'medium', u'low', u'high']","red",50,"middle","low","False","False",828,1650,NA
"A256BNNQRDR4LZ","Mon Nov 02 2020 08:33:41 GMT-0500 (Eastern Standard Time)","Mon Nov 02 2020 08:41:26 GMT-0500 (Eastern Standard Time)","Mozilla/5.0 (Windows NT 10.0; WOW64) AppleWebKit/537.36 (KHTML, like Gecko) Chrome/86.0.4240.111 Safari/537.36",31,"[0.9, 0.5, 0.1]","[0.8, 0.4, 0.2]","[u'black', u'red', u'blue']","[u'left', u'middle', u'right']","[0.9, 0.5, 0.1]","[u'medium', u'low', u'high']","blue",51,"right","high","False","False",437,1600,NA
"A256BNNQRDR4LZ","Mon Nov 02 2020 08:33:41 GMT-0500 (Eastern Standard Time)","Mon Nov 02 2020 08:41:26 GMT-0500 (Eastern Standard Time)","Mozilla/5.0 (Windows NT 10.0; WOW64) AppleWebKit/537.36 (KHTML, like Gecko) Chrome/86.0.4240.111 Safari/537.36",32,"[0.9, 0.5, 0.1]","[0.8, 0.4, 0.2]","[u'black', u'red', u'blue']","[u'left', u'middle', u'right']","[0.9, 0.5, 0.1]","[u'medium', u'low', u'high']","red",50,"middle","low","False","False",718,1550,NA
"A256BNNQRDR4LZ","Mon Nov 02 2020 08:33:41 GMT-0500 (Eastern Standard Time)","Mon Nov 02 2020 08:41:26 GMT-0500 (Eastern Standard Time)","Mozilla/5.0 (Windows NT 10.0; WOW64) AppleWebKit/537.36 (KHTML, like Gecko) Chrome/86.0.4240.111 Safari/537.36",33,"[0.9, 0.5, 0.1]","[0.8, 0.4, 0.2]","[u'black', u'red', u'blue']","[u'left', u'middle', u'right']","[0.9, 0.5, 0.1]","[u'medium', u'low', u'high']","black",49,"left","medium","True","False",471,1650,NA
"A256BNNQRDR4LZ","Mon Nov 02 2020 08:33:41 GMT-0500 (Eastern Standard Time)","Mon Nov 02 2020 08:41:26 GMT-0500 (Eastern Standard Time)","Mozilla/5.0 (Windows NT 10.0; WOW64) AppleWebKit/537.36 (KHTML, like Gecko) Chrome/86.0.4240.111 Safari/537.36",34,"[0.9, 0.5, 0.1]","[0.8, 0.4, 0.2]","[u'black', u'red', u'blue']","[u'left', u'middle', u'right']","[0.9, 0.5, 0.1]","[u'medium', u'low', u'high']","black",49,"left","medium","True","False",690,1750,NA
"A256BNNQRDR4LZ","Mon Nov 02 2020 08:33:41 GMT-0500 (Eastern Standard Time)","Mon Nov 02 2020 08:41:26 GMT-0500 (Eastern Standard Time)","Mozilla/5.0 (Windows NT 10.0; WOW64) AppleWebKit/537.36 (KHTML, like Gecko) Chrome/86.0.4240.111 Safari/537.36",35,"[0.9, 0.5, 0.1]","[0.8, 0.4, 0.2]","[u'black', u'red', u'blue']","[u'left', u'middle', u'right']","[0.9, 0.5, 0.1]","[u'medium', u'low', u'high']","blue",51,"right","high","True","False",636,1850,NA
"A256BNNQRDR4LZ","Mon Nov 02 2020 08:33:41 GMT-0500 (Eastern Standard Time)","Mon Nov 02 2020 08:41:26 GMT-0500 (Eastern Standard Time)","Mozilla/5.0 (Windows NT 10.0; WOW64) AppleWebKit/537.36 (KHTML, like Gecko) Chrome/86.0.4240.111 Safari/537.36",36,"[0.9, 0.5, 0.1]","[0.8, 0.4, 0.2]","[u'black', u'red', u'blue']","[u'left', u'middle', u'right']","[0.9, 0.5, 0.1]","[u'medium', u'low', u'high']","black",49,"left","medium","False","False",1525,1800,NA
"A256BNNQRDR4LZ","Mon Nov 02 2020 08:33:41 GMT-0500 (Eastern Standard Time)","Mon Nov 02 2020 08:41:26 GMT-0500 (Eastern Standard Time)","Mozilla/5.0 (Windows NT 10.0; WOW64) AppleWebKit/537.36 (KHTML, like Gecko) Chrome/86.0.4240.111 Safari/537.36",37,"[0.9, 0.5, 0.1]","[0.8, 0.4, 0.2]","[u'black', u'red', u'blue']","[u'left', u'middle', u'right']","[0.9, 0.5, 0.1]","[u'medium', u'low', u'high']","blue",51,"right","high","True","False",597,1900,NA
"A256BNNQRDR4LZ","Mon Nov 02 2020 08:33:41 GMT-0500 (Eastern Standard Time)","Mon Nov 02 2020 08:41:26 GMT-0500 (Eastern Standard Time)","Mozilla/5.0 (Windows NT 10.0; WOW64) AppleWebKit/537.36 (KHTML, like Gecko) Chrome/86.0.4240.111 Safari/537.36",38,"[0.9, 0.5, 0.1]","[0.8, 0.4, 0.2]","[u'black', u'red', u'blue']","[u'left', u'middle', u'right']","[0.9, 0.5, 0.1]","[u'medium', u'low', u'high']","blue",51,"right","high","True","False",639,2000,NA
"A256BNNQRDR4LZ","Mon Nov 02 2020 08:33:41 GMT-0500 (Eastern Standard Time)","Mon Nov 02 2020 08:41:26 GMT-0500 (Eastern Standard Time)","Mozilla/5.0 (Windows NT 10.0; WOW64) AppleWebKit/537.36 (KHTML, like Gecko) Chrome/86.0.4240.111 Safari/537.36",39,"[0.9, 0.5, 0.1]","[0.8, 0.4, 0.2]","[u'black', u'red', u'blue']","[u'left', u'middle', u'right']","[0.9, 0.5, 0.1]","[u'medium', u'low', u'high']","blue",51,"right","high","True","False",943,2100,NA
"A256BNNQRDR4LZ","Mon Nov 02 2020 08:33:41 GMT-0500 (Eastern Standard Time)","Mon Nov 02 2020 08:41:26 GMT-0500 (Eastern Standard Time)","Mozilla/5.0 (Windows NT 10.0; WOW64) AppleWebKit/537.36 (KHTML, like Gecko) Chrome/86.0.4240.111 Safari/537.36",40,"[0.9, 0.5, 0.1]","[0.8, 0.4, 0.2]","[u'black', u'red', u'blue']","[u'left', u'middle', u'right']","[0.9, 0.5, 0.1]","[u'medium', u'low', u'high']","blue",51,"right","high","True","False",833,2200,NA
"A256BNNQRDR4LZ","Mon Nov 02 2020 08:33:41 GMT-0500 (Eastern Standard Time)","Mon Nov 02 2020 08:41:26 GMT-0500 (Eastern Standard Time)","Mozilla/5.0 (Windows NT 10.0; WOW64) AppleWebKit/537.36 (KHTML, like Gecko) Chrome/86.0.4240.111 Safari/537.36",41,"[0.9, 0.5, 0.1]","[0.8, 0.4, 0.2]","[u'black', u'red', u'blue']","[u'left', u'middle', u'right']","[0.9, 0.5, 0.1]","[u'low', u'high', u'medium']","blue",51,"right","medium","True","False",2061,2300,NA
"A256BNNQRDR4LZ","Mon Nov 02 2020 08:33:41 GMT-0500 (Eastern Standard Time)","Mon Nov 02 2020 08:41:26 GMT-0500 (Eastern Standard Time)","Mozilla/5.0 (Windows NT 10.0; WOW64) AppleWebKit/537.36 (KHTML, like Gecko) Chrome/86.0.4240.111 Safari/537.36",42,"[0.9, 0.5, 0.1]","[0.8, 0.4, 0.2]","[u'black', u'red', u'blue']","[u'left', u'middle', u'right']","[0.9, 0.5, 0.1]","[u'low', u'high', u'medium']","black",49,"left","low","False","False",717,2250,NA
"A256BNNQRDR4LZ","Mon Nov 02 2020 08:33:41 GMT-0500 (Eastern Standard Time)","Mon Nov 02 2020 08:41:26 GMT-0500 (Eastern Standard Time)","Mozilla/5.0 (Windows NT 10.0; WOW64) AppleWebKit/537.36 (KHTML, like Gecko) Chrome/86.0.4240.111 Safari/537.36",43,"[0.9, 0.5, 0.1]","[0.8, 0.4, 0.2]","[u'black', u'red', u'blue']","[u'left', u'middle', u'right']","[0.9, 0.5, 0.1]","[u'low', u'high', u'medium']","blue",51,"right","medium","True","False",163,2350,NA
"A256BNNQRDR4LZ","Mon Nov 02 2020 08:33:41 GMT-0500 (Eastern Standard Time)","Mon Nov 02 2020 08:41:26 GMT-0500 (Eastern Standard Time)","Mozilla/5.0 (Windows NT 10.0; WOW64) AppleWebKit/537.36 (KHTML, like Gecko) Chrome/86.0.4240.111 Safari/537.36",44,"[0.9, 0.5, 0.1]","[0.8, 0.4, 0.2]","[u'black', u'red', u'blue']","[u'left', u'middle', u'right']","[0.9, 0.5, 0.1]","[u'low', u'high', u'medium']","red",50,"middle","high","False","False",461,2300,NA
"A256BNNQRDR4LZ","Mon Nov 02 2020 08:33:41 GMT-0500 (Eastern Standard Time)","Mon Nov 02 2020 08:41:26 GMT-0500 (Eastern Standard Time)","Mozilla/5.0 (Windows NT 10.0; WOW64) AppleWebKit/537.36 (KHTML, like Gecko) Chrome/86.0.4240.111 Safari/537.36",45,"[0.9, 0.5, 0.1]","[0.8, 0.4, 0.2]","[u'black', u'red', u'blue']","[u'left', u'middle', u'right']","[0.9, 0.5, 0.1]","[u'low', u'high', u'medium']","blue",51,"right","medium","True","False",257,2400,NA
"A256BNNQRDR4LZ","Mon Nov 02 2020 08:33:41 GMT-0500 (Eastern Standard Time)","Mon Nov 02 2020 08:41:26 GMT-0500 (Eastern Standard Time)","Mozilla/5.0 (Windows NT 10.0; WOW64) AppleWebKit/537.36 (KHTML, like Gecko) Chrome/86.0.4240.111 Safari/537.36",46,"[0.9, 0.5, 0.1]","[0.8, 0.4, 0.2]","[u'black', u'red', u'blue']","[u'left', u'middle', u'right']","[0.9, 0.5, 0.1]","[u'low', u'high', u'medium']","blue",51,"right","medium","True","False",1372,2500,NA
"A256BNNQRDR4LZ","Mon Nov 02 2020 08:33:41 GMT-0500 (Eastern Standard Time)","Mon Nov 02 2020 08:41:26 GMT-0500 (Eastern Standard Time)","Mozilla/5.0 (Windows NT 10.0; WOW64) AppleWebKit/537.36 (KHTML, like Gecko) Chrome/86.0.4240.111 Safari/537.36",47,"[0.9, 0.5, 0.1]","[0.8, 0.4, 0.2]","[u'black', u'red', u'blue']","[u'left', u'middle', u'right']","[0.9, 0.5, 0.1]","[u'low', u'high', u'medium']","blue",51,"right","medium","False","False",1109,2450,NA
"A256BNNQRDR4LZ","Mon Nov 02 2020 08:33:41 GMT-0500 (Eastern Standard Time)","Mon Nov 02 2020 08:41:26 GMT-0500 (Eastern Standard Time)","Mozilla/5.0 (Windows NT 10.0; WOW64) AppleWebKit/537.36 (KHTML, like Gecko) Chrome/86.0.4240.111 Safari/537.36",48,"[0.9, 0.5, 0.1]","[0.8, 0.4, 0.2]","[u'black', u'red', u'blue']","[u'left', u'middle', u'right']","[0.9, 0.5, 0.1]","[u'low', u'high', u'medium']","black",49,"left","low","False","False",478,2400,NA
"A256BNNQRDR4LZ","Mon Nov 02 2020 08:33:41 GMT-0500 (Eastern Standard Time)","Mon Nov 02 2020 08:41:26 GMT-0500 (Eastern Standard Time)","Mozilla/5.0 (Windows NT 10.0; WOW64) AppleWebKit/537.36 (KHTML, like Gecko) Chrome/86.0.4240.111 Safari/537.36",49,"[0.9, 0.5, 0.1]","[0.8, 0.4, 0.2]","[u'black', u'red', u'blue']","[u'left', u'middle', u'right']","[0.9, 0.5, 0.1]","[u'low', u'high', u'medium']","blue",51,"right","medium","False","False",440,2350,NA
"A256BNNQRDR4LZ","Mon Nov 02 2020 08:33:41 GMT-0500 (Eastern Standard Time)","Mon Nov 02 2020 08:41:26 GMT-0500 (Eastern Standard Time)","Mozilla/5.0 (Windows NT 10.0; WOW64) AppleWebKit/537.36 (KHTML, like Gecko) Chrome/86.0.4240.111 Safari/537.36",50,"[0.9, 0.5, 0.1]","[0.8, 0.4, 0.2]","[u'black', u'red', u'blue']","[u'left', u'middle', u'right']","[0.9, 0.5, 0.1]","[u'low', u'high', u'medium']","red",50,"middle","high","False","False",399,2300,NA
"A256BNNQRDR4LZ","Mon Nov 02 2020 08:33:41 GMT-0500 (Eastern Standard Time)","Mon Nov 02 2020 08:41:26 GMT-0500 (Eastern Standard Time)","Mozilla/5.0 (Windows NT 10.0; WOW64) AppleWebKit/537.36 (KHTML, like Gecko) Chrome/86.0.4240.111 Safari/537.36",51,"[0.9, 0.5, 0.1]","[0.8, 0.4, 0.2]","[u'black', u'red', u'blue']","[u'left', u'middle', u'right']","[0.9, 0.5, 0.1]","[u'low', u'high', u'medium']","blue",51,"right","medium","False","False",80,2250,NA
"A256BNNQRDR4LZ","Mon Nov 02 2020 08:33:41 GMT-0500 (Eastern Standard Time)","Mon Nov 02 2020 08:41:26 GMT-0500 (Eastern Standard Time)","Mozilla/5.0 (Windows NT 10.0; WOW64) AppleWebKit/537.36 (KHTML, like Gecko) Chrome/86.0.4240.111 Safari/537.36",52,"[0.9, 0.5, 0.1]","[0.8, 0.4, 0.2]","[u'black', u'red', u'blue']","[u'left', u'middle', u'right']","[0.9, 0.5, 0.1]","[u'low', u'high', u'medium']","black",49,"left","low","False","False",451,2200,NA
"A256BNNQRDR4LZ","Mon Nov 02 2020 08:33:41 GMT-0500 (Eastern Standard Time)","Mon Nov 02 2020 08:41:26 GMT-0500 (Eastern Standard Time)","Mozilla/5.0 (Windows NT 10.0; WOW64) AppleWebKit/537.36 (KHTML, like Gecko) Chrome/86.0.4240.111 Safari/537.36",53,"[0.9, 0.5, 0.1]","[0.8, 0.4, 0.2]","[u'black', u'red', u'blue']","[u'left', u'middle', u'right']","[0.9, 0.5, 0.1]","[u'low', u'high', u'medium']","red",50,"middle","high","True","False",379,2300,NA
"A256BNNQRDR4LZ","Mon Nov 02 2020 08:33:41 GMT-0500 (Eastern Standard Time)","Mon Nov 02 2020 08:41:26 GMT-0500 (Eastern Standard Time)","Mozilla/5.0 (Windows NT 10.0; WOW64) AppleWebKit/537.36 (KHTML, like Gecko) Chrome/86.0.4240.111 Safari/537.36",54,"[0.9, 0.5, 0.1]","[0.8, 0.4, 0.2]","[u'black', u'red', u'blue']","[u'left', u'middle', u'right']","[0.9, 0.5, 0.1]","[u'low', u'high', u'medium']","red",50,"middle","high","True","False",426,2400,NA
"A256BNNQRDR4LZ","Mon Nov 02 2020 08:33:41 GMT-0500 (Eastern Standard Time)","Mon Nov 02 2020 08:41:26 GMT-0500 (Eastern Standard Time)","Mozilla/5.0 (Windows NT 10.0; WOW64) AppleWebKit/537.36 (KHTML, like Gecko) Chrome/86.0.4240.111 Safari/537.36",55,"[0.9, 0.5, 0.1]","[0.8, 0.4, 0.2]","[u'black', u'red', u'blue']","[u'left', u'middle', u'right']","[0.9, 0.5, 0.1]","[u'low', u'high', u'medium']","red",50,"middle","high","False","False",801,2350,NA
"A256BNNQRDR4LZ","Mon Nov 02 2020 08:33:41 GMT-0500 (Eastern Standard Time)","Mon Nov 02 2020 08:41:26 GMT-0500 (Eastern Standard Time)","Mozilla/5.0 (Windows NT 10.0; WOW64) AppleWebKit/537.36 (KHTML, like Gecko) Chrome/86.0.4240.111 Safari/537.36",56,"[0.9, 0.5, 0.1]","[0.8, 0.4, 0.2]","[u'black', u'red', u'blue']","[u'left', u'middle', u'right']","[0.9, 0.5, 0.1]","[u'low', u'high', u'medium']","blue",51,"right","medium","True","False",418,2450,NA
"A256BNNQRDR4LZ","Mon Nov 02 2020 08:33:41 GMT-0500 (Eastern Standard Time)","Mon Nov 02 2020 08:41:26 GMT-0500 (Eastern Standard Time)","Mozilla/5.0 (Windows NT 10.0; WOW64) AppleWebKit/537.36 (KHTML, like Gecko) Chrome/86.0.4240.111 Safari/537.36",57,"[0.9, 0.5, 0.1]","[0.8, 0.4, 0.2]","[u'black', u'red', u'blue']","[u'left', u'middle', u'right']","[0.9, 0.5, 0.1]","[u'low', u'high', u'medium']","blue",51,"right","medium","True","False",1232,2550,NA
"A256BNNQRDR4LZ","Mon Nov 02 2020 08:33:41 GMT-0500 (Eastern Standard Time)","Mon Nov 02 2020 08:41:26 GMT-0500 (Eastern Standard Time)","Mozilla/5.0 (Windows NT 10.0; WOW64) AppleWebKit/537.36 (KHTML, like Gecko) Chrome/86.0.4240.111 Safari/537.36",58,"[0.9, 0.5, 0.1]","[0.8, 0.4, 0.2]","[u'black', u'red', u'blue']","[u'left', u'middle', u'right']","[0.9, 0.5, 0.1]","[u'low', u'high', u'medium']","black",49,"left","low","False","False",827,2500,NA
"A256BNNQRDR4LZ","Mon Nov 02 2020 08:33:41 GMT-0500 (Eastern Standard Time)","Mon Nov 02 2020 08:41:26 GMT-0500 (Eastern Standard Time)","Mozilla/5.0 (Windows NT 10.0; WOW64) AppleWebKit/537.36 (KHTML, like Gecko) Chrome/86.0.4240.111 Safari/537.36",59,"[0.9, 0.5, 0.1]","[0.8, 0.4, 0.2]","[u'black', u'red', u'blue']","[u'left', u'middle', u'right']","[0.9, 0.5, 0.1]","[u'low', u'high', u'medium']","blue",51,"right","medium","True","False",436,2600,NA
"A256BNNQRDR4LZ","Mon Nov 02 2020 08:33:41 GMT-0500 (Eastern Standard Time)","Mon Nov 02 2020 08:41:26 GMT-0500 (Eastern Standard Time)","Mozilla/5.0 (Windows NT 10.0; WOW64) AppleWebKit/537.36 (KHTML, like Gecko) Chrome/86.0.4240.111 Safari/537.36",60,"[0.9, 0.5, 0.1]","[0.8, 0.4, 0.2]","[u'black', u'red', u'blue']","[u'left', u'middle', u'right']","[0.9, 0.5, 0.1]","[u'low', u'high', u'medium']","blue",51,"right","medium","True","False",1264,2700,NA
"A256BNNQRDR4LZ","Mon Nov 02 2020 08:33:41 GMT-0500 (Eastern Standard Time)","Mon Nov 02 2020 08:41:26 GMT-0500 (Eastern Standard Time)","Mozilla/5.0 (Windows NT 10.0; WOW64) AppleWebKit/537.36 (KHTML, like Gecko) Chrome/86.0.4240.111 Safari/537.36",61,"[0.9, 0.5, 0.1]","[0.8, 0.4, 0.2]","[u'black', u'red', u'blue']","[u'left', u'middle', u'right']","[0.9, 0.5, 0.1]","[u'low', u'high', u'medium']","red",50,"middle","high","True","False",455,2800,NA
"A256BNNQRDR4LZ","Mon Nov 02 2020 08:33:41 GMT-0500 (Eastern Standard Time)","Mon Nov 02 2020 08:41:26 GMT-0500 (Eastern Standard Time)","Mozilla/5.0 (Windows NT 10.0; WOW64) AppleWebKit/537.36 (KHTML, like Gecko) Chrome/86.0.4240.111 Safari/537.36",62,"[0.9, 0.5, 0.1]","[0.8, 0.4, 0.2]","[u'black', u'red', u'blue']","[u'left', u'middle', u'right']","[0.9, 0.5, 0.1]","[u'low', u'high', u'medium']","red",50,"middle","high","True","False",878,2900,NA
"A256BNNQRDR4LZ","Mon Nov 02 2020 08:33:41 GMT-0500 (Eastern Standard Time)","Mon Nov 02 2020 08:41:26 GMT-0500 (Eastern Standard Time)","Mozilla/5.0 (Windows NT 10.0; WOW64) AppleWebKit/537.36 (KHTML, like Gecko) Chrome/86.0.4240.111 Safari/537.36",63,"[0.9, 0.5, 0.1]","[0.8, 0.4, 0.2]","[u'black', u'red', u'blue']","[u'left', u'middle', u'right']","[0.9, 0.5, 0.1]","[u'low', u'high', u'medium']","blue",51,"right","medium","False","False",880,2850,NA
"A256BNNQRDR4LZ","Mon Nov 02 2020 08:33:41 GMT-0500 (Eastern Standard Time)","Mon Nov 02 2020 08:41:26 GMT-0500 (Eastern Standard Time)","Mozilla/5.0 (Windows NT 10.0; WOW64) AppleWebKit/537.36 (KHTML, like Gecko) Chrome/86.0.4240.111 Safari/537.36",64,"[0.9, 0.5, 0.1]","[0.8, 0.4, 0.2]","[u'black', u'red', u'blue']","[u'left', u'middle', u'right']","[0.9, 0.5, 0.1]","[u'low', u'high', u'medium']","red",50,"middle","high","True","False",578,2950,NA
"A256BNNQRDR4LZ","Mon Nov 02 2020 08:33:41 GMT-0500 (Eastern Standard Time)","Mon Nov 02 2020 08:41:26 GMT-0500 (Eastern Standard Time)","Mozilla/5.0 (Windows NT 10.0; WOW64) AppleWebKit/537.36 (KHTML, like Gecko) Chrome/86.0.4240.111 Safari/537.36",65,"[0.9, 0.5, 0.1]","[0.8, 0.4, 0.2]","[u'black', u'red', u'blue']","[u'left', u'middle', u'right']","[0.9, 0.5, 0.1]","[u'low', u'high', u'medium']","red",50,"middle","high","True","False",655,3050,NA
"A256BNNQRDR4LZ","Mon Nov 02 2020 08:33:41 GMT-0500 (Eastern Standard Time)","Mon Nov 02 2020 08:41:26 GMT-0500 (Eastern Standard Time)","Mozilla/5.0 (Windows NT 10.0; WOW64) AppleWebKit/537.36 (KHTML, like Gecko) Chrome/86.0.4240.111 Safari/537.36",66,"[0.9, 0.5, 0.1]","[0.8, 0.4, 0.2]","[u'black', u'red', u'blue']","[u'left', u'middle', u'right']","[0.9, 0.5, 0.1]","[u'low', u'high', u'medium']","red",50,"middle","high","False","False",821,3000,NA
"A256BNNQRDR4LZ","Mon Nov 02 2020 08:33:41 GMT-0500 (Eastern Standard Time)","Mon Nov 02 2020 08:41:26 GMT-0500 (Eastern Standard Time)","Mozilla/5.0 (Windows NT 10.0; WOW64) AppleWebKit/537.36 (KHTML, like Gecko) Chrome/86.0.4240.111 Safari/537.36",67,"[0.9, 0.5, 0.1]","[0.8, 0.4, 0.2]","[u'black', u'red', u'blue']","[u'left', u'middle', u'right']","[0.9, 0.5, 0.1]","[u'low', u'high', u'medium']","black",49,"left","low","False","False",578,2950,NA
"A256BNNQRDR4LZ","Mon Nov 02 2020 08:33:41 GMT-0500 (Eastern Standard Time)","Mon Nov 02 2020 08:41:26 GMT-0500 (Eastern Standard Time)","Mozilla/5.0 (Windows NT 10.0; WOW64) AppleWebKit/537.36 (KHTML, like Gecko) Chrome/86.0.4240.111 Safari/537.36",68,"[0.9, 0.5, 0.1]","[0.8, 0.4, 0.2]","[u'black', u'red', u'blue']","[u'left', u'middle', u'right']","[0.9, 0.5, 0.1]","[u'low', u'high', u'medium']","blue",51,"right","medium","False","False",188,2900,NA
"A256BNNQRDR4LZ","Mon Nov 02 2020 08:33:41 GMT-0500 (Eastern Standard Time)","Mon Nov 02 2020 08:41:26 GMT-0500 (Eastern Standard Time)","Mozilla/5.0 (Windows NT 10.0; WOW64) AppleWebKit/537.36 (KHTML, like Gecko) Chrome/86.0.4240.111 Safari/537.36",69,"[0.9, 0.5, 0.1]","[0.8, 0.4, 0.2]","[u'black', u'red', u'blue']","[u'left', u'middle', u'right']","[0.9, 0.5, 0.1]","[u'low', u'high', u'medium']","red",50,"middle","high","True","False",542,3000,NA
"A256BNNQRDR4LZ","Mon Nov 02 2020 08:33:41 GMT-0500 (Eastern Standard Time)","Mon Nov 02 2020 08:41:26 GMT-0500 (Eastern Standard Time)","Mozilla/5.0 (Windows NT 10.0; WOW64) AppleWebKit/537.36 (KHTML, like Gecko) Chrome/86.0.4240.111 Safari/537.36",70,"[0.9, 0.5, 0.1]","[0.8, 0.4, 0.2]","[u'black', u'red', u'blue']","[u'left', u'middle', u'right']","[0.9, 0.5, 0.1]","[u'low', u'high', u'medium']","red",50,"middle","high","True","False",728,3100,NA
"A256BNNQRDR4LZ","Mon Nov 02 2020 08:33:41 GMT-0500 (Eastern Standard Time)","Mon Nov 02 2020 08:41:26 GMT-0500 (Eastern Standard Time)","Mozilla/5.0 (Windows NT 10.0; WOW64) AppleWebKit/537.36 (KHTML, like Gecko) Chrome/86.0.4240.111 Safari/537.36",71,"[0.9, 0.5, 0.1]","[0.8, 0.4, 0.2]","[u'black', u'red', u'blue']","[u'left', u'middle', u'right']","[0.9, 0.5, 0.1]","[u'low', u'high', u'medium']","red",50,"middle","high","True","False",1038,3200,NA
"A256BNNQRDR4LZ","Mon Nov 02 2020 08:33:41 GMT-0500 (Eastern Standard Time)","Mon Nov 02 2020 08:41:26 GMT-0500 (Eastern Standard Time)","Mozilla/5.0 (Windows NT 10.0; WOW64) AppleWebKit/537.36 (KHTML, like Gecko) Chrome/86.0.4240.111 Safari/537.36",72,"[0.9, 0.5, 0.1]","[0.8, 0.4, 0.2]","[u'black', u'red', u'blue']","[u'left', u'middle', u'right']","[0.9, 0.5, 0.1]","[u'low', u'high', u'medium']","red",50,"middle","high","True","False",1513,3300,NA
"A256BNNQRDR4LZ","Mon Nov 02 2020 08:33:41 GMT-0500 (Eastern Standard Time)","Mon Nov 02 2020 08:41:26 GMT-0500 (Eastern Standard Time)","Mozilla/5.0 (Windows NT 10.0; WOW64) AppleWebKit/537.36 (KHTML, like Gecko) Chrome/86.0.4240.111 Safari/537.36",73,"[0.9, 0.5, 0.1]","[0.8, 0.4, 0.2]","[u'black', u'red', u'blue']","[u'left', u'middle', u'right']","[0.9, 0.5, 0.1]","[u'low', u'high', u'medium']","red",50,"middle","high","False","False",1079,3250,NA
"A256BNNQRDR4LZ","Mon Nov 02 2020 08:33:41 GMT-0500 (Eastern Standard Time)","Mon Nov 02 2020 08:41:26 GMT-0500 (Eastern Standard Time)","Mozilla/5.0 (Windows NT 10.0; WOW64) AppleWebKit/537.36 (KHTML, like Gecko) Chrome/86.0.4240.111 Safari/537.36",74,"[0.9, 0.5, 0.1]","[0.8, 0.4, 0.2]","[u'black', u'red', u'blue']","[u'left', u'middle', u'right']","[0.9, 0.5, 0.1]","[u'low', u'high', u'medium']","black",49,"left","low","False","False",1456,3200,NA
"A256BNNQRDR4LZ","Mon Nov 02 2020 08:33:41 GMT-0500 (Eastern Standard Time)","Mon Nov 02 2020 08:41:26 GMT-0500 (Eastern Standard Time)","Mozilla/5.0 (Windows NT 10.0; WOW64) AppleWebKit/537.36 (KHTML, like Gecko) Chrome/86.0.4240.111 Safari/537.36",75,"[0.9, 0.5, 0.1]","[0.8, 0.4, 0.2]","[u'black', u'red', u'blue']","[u'left', u'middle', u'right']","[0.9, 0.5, 0.1]","[u'low', u'high', u'medium']","blue",51,"right","medium","False","False",702,3150,NA
"A256BNNQRDR4LZ","Mon Nov 02 2020 08:33:41 GMT-0500 (Eastern Standard Time)","Mon Nov 02 2020 08:41:26 GMT-0500 (Eastern Standard Time)","Mozilla/5.0 (Windows NT 10.0; WOW64) AppleWebKit/537.36 (KHTML, like Gecko) Chrome/86.0.4240.111 Safari/537.36",76,"[0.9, 0.5, 0.1]","[0.8, 0.4, 0.2]","[u'black', u'red', u'blue']","[u'left', u'middle', u'right']","[0.9, 0.5, 0.1]","[u'low', u'high', u'medium']","red",50,"middle","high","True","False",154,3250,NA
"A256BNNQRDR4LZ","Mon Nov 02 2020 08:33:41 GMT-0500 (Eastern Standard Time)","Mon Nov 02 2020 08:41:26 GMT-0500 (Eastern Standard Time)","Mozilla/5.0 (Windows NT 10.0; WOW64) AppleWebKit/537.36 (KHTML, like Gecko) Chrome/86.0.4240.111 Safari/537.36",77,"[0.9, 0.5, 0.1]","[0.8, 0.4, 0.2]","[u'black', u'red', u'blue']","[u'left', u'middle', u'right']","[0.9, 0.5, 0.1]","[u'low', u'high', u'medium']","red",50,"middle","high","False","False",387,3200,NA
"A256BNNQRDR4LZ","Mon Nov 02 2020 08:33:41 GMT-0500 (Eastern Standard Time)","Mon Nov 02 2020 08:41:26 GMT-0500 (Eastern Standard Time)","Mozilla/5.0 (Windows NT 10.0; WOW64) AppleWebKit/537.36 (KHTML, like Gecko) Chrome/86.0.4240.111 Safari/537.36",78,"[0.9, 0.5, 0.1]","[0.8, 0.4, 0.2]","[u'black', u'red', u'blue']","[u'left', u'middle', u'right']","[0.9, 0.5, 0.1]","[u'low', u'high', u'medium']","blue",51,"right","medium","True","False",1284,3300,NA
"A256BNNQRDR4LZ","Mon Nov 02 2020 08:33:41 GMT-0500 (Eastern Standard Time)","Mon Nov 02 2020 08:41:26 GMT-0500 (Eastern Standard Time)","Mozilla/5.0 (Windows NT 10.0; WOW64) AppleWebKit/537.36 (KHTML, like Gecko) Chrome/86.0.4240.111 Safari/537.36",79,"[0.9, 0.5, 0.1]","[0.8, 0.4, 0.2]","[u'black', u'red', u'blue']","[u'left', u'middle', u'right']","[0.9, 0.5, 0.1]","[u'low', u'high', u'medium']","blue",51,"right","medium","False","False",738,3250,NA
"A256BNNQRDR4LZ","Mon Nov 02 2020 08:33:41 GMT-0500 (Eastern Standard Time)","Mon Nov 02 2020 08:41:26 GMT-0500 (Eastern Standard Time)","Mozilla/5.0 (Windows NT 10.0; WOW64) AppleWebKit/537.36 (KHTML, like Gecko) Chrome/86.0.4240.111 Safari/537.36",80,"[0.9, 0.5, 0.1]","[0.8, 0.4, 0.2]","[u'black', u'red', u'blue']","[u'left', u'middle', u'right']","[0.9, 0.5, 0.1]","[u'low', u'high', u'medium']","red",50,"middle","high","True","False",479,3350,NA
"A256BNNQRDR4LZ","Mon Nov 02 2020 08:33:41 GMT-0500 (Eastern Standard Time)","Mon Nov 02 2020 08:41:26 GMT-0500 (Eastern Standard Time)","Mozilla/5.0 (Windows NT 10.0; WOW64) AppleWebKit/537.36 (KHTML, like Gecko) Chrome/86.0.4240.111 Safari/537.36",81,"[0.9, 0.5, 0.1]","[0.8, 0.4, 0.2]","[u'black', u'red', u'blue']","[u'left', u'middle', u'right']","[0.8, 0.4, 0.2]","[u'low', u'medium', u'high']","red",50,"middle","medium","False","False",982,3300,NA
"A256BNNQRDR4LZ","Mon Nov 02 2020 08:33:41 GMT-0500 (Eastern Standard Time)","Mon Nov 02 2020 08:41:26 GMT-0500 (Eastern Standard Time)","Mozilla/5.0 (Windows NT 10.0; WOW64) AppleWebKit/537.36 (KHTML, like Gecko) Chrome/86.0.4240.111 Safari/537.36",82,"[0.9, 0.5, 0.1]","[0.8, 0.4, 0.2]","[u'black', u'red', u'blue']","[u'left', u'middle', u'right']","[0.8, 0.4, 0.2]","[u'low', u'medium', u'high']","black",49,"left","low","True","False",160,3400,NA
"A256BNNQRDR4LZ","Mon Nov 02 2020 08:33:41 GMT-0500 (Eastern Standard Time)","Mon Nov 02 2020 08:41:26 GMT-0500 (Eastern Standard Time)","Mozilla/5.0 (Windows NT 10.0; WOW64) AppleWebKit/537.36 (KHTML, like Gecko) Chrome/86.0.4240.111 Safari/537.36",83,"[0.9, 0.5, 0.1]","[0.8, 0.4, 0.2]","[u'black', u'red', u'blue']","[u'left', u'middle', u'right']","[0.8, 0.4, 0.2]","[u'low', u'medium', u'high']","black",49,"left","low","False","False",498,3350,NA
"A256BNNQRDR4LZ","Mon Nov 02 2020 08:33:41 GMT-0500 (Eastern Standard Time)","Mon Nov 02 2020 08:41:26 GMT-0500 (Eastern Standard Time)","Mozilla/5.0 (Windows NT 10.0; WOW64) AppleWebKit/537.36 (KHTML, like Gecko) Chrome/86.0.4240.111 Safari/537.36",84,"[0.9, 0.5, 0.1]","[0.8, 0.4, 0.2]","[u'black', u'red', u'blue']","[u'left', u'middle', u'right']","[0.8, 0.4, 0.2]","[u'low', u'medium', u'high']","blue",51,"right","high","False","False",100,3300,NA
"A256BNNQRDR4LZ","Mon Nov 02 2020 08:33:41 GMT-0500 (Eastern Standard Time)","Mon Nov 02 2020 08:41:26 GMT-0500 (Eastern Standard Time)","Mozilla/5.0 (Windows NT 10.0; WOW64) AppleWebKit/537.36 (KHTML, like Gecko) Chrome/86.0.4240.111 Safari/537.36",85,"[0.9, 0.5, 0.1]","[0.8, 0.4, 0.2]","[u'black', u'red', u'blue']","[u'left', u'middle', u'right']","[0.8, 0.4, 0.2]","[u'low', u'medium', u'high']","red",50,"middle","medium","True","False",923,3400,NA
"A256BNNQRDR4LZ","Mon Nov 02 2020 08:33:41 GMT-0500 (Eastern Standard Time)","Mon Nov 02 2020 08:41:26 GMT-0500 (Eastern Standard Time)","Mozilla/5.0 (Windows NT 10.0; WOW64) AppleWebKit/537.36 (KHTML, like Gecko) Chrome/86.0.4240.111 Safari/537.36",86,"[0.9, 0.5, 0.1]","[0.8, 0.4, 0.2]","[u'black', u'red', u'blue']","[u'left', u'middle', u'right']","[0.8, 0.4, 0.2]","[u'low', u'medium', u'high']","red",50,"middle","medium","False","False",494,3350,NA
"A256BNNQRDR4LZ","Mon Nov 02 2020 08:33:41 GMT-0500 (Eastern Standard Time)","Mon Nov 02 2020 08:41:26 GMT-0500 (Eastern Standard Time)","Mozilla/5.0 (Windows NT 10.0; WOW64) AppleWebKit/537.36 (KHTML, like Gecko) Chrome/86.0.4240.111 Safari/537.36",87,"[0.9, 0.5, 0.1]","[0.8, 0.4, 0.2]","[u'black', u'red', u'blue']","[u'left', u'middle', u'right']","[0.8, 0.4, 0.2]","[u'low', u'medium', u'high']","black",49,"left","low","False","False",518,3300,NA
"A256BNNQRDR4LZ","Mon Nov 02 2020 08:33:41 GMT-0500 (Eastern Standard Time)","Mon Nov 02 2020 08:41:26 GMT-0500 (Eastern Standard Time)","Mozilla/5.0 (Windows NT 10.0; WOW64) AppleWebKit/537.36 (KHTML, like Gecko) Chrome/86.0.4240.111 Safari/537.36",88,"[0.9, 0.5, 0.1]","[0.8, 0.4, 0.2]","[u'black', u'red', u'blue']","[u'left', u'middle', u'right']","[0.8, 0.4, 0.2]","[u'low', u'medium', u'high']","red",50,"middle","medium","False","False",1052,3250,NA
"A256BNNQRDR4LZ","Mon Nov 02 2020 08:33:41 GMT-0500 (Eastern Standard Time)","Mon Nov 02 2020 08:41:26 GMT-0500 (Eastern Standard Time)","Mozilla/5.0 (Windows NT 10.0; WOW64) AppleWebKit/537.36 (KHTML, like Gecko) Chrome/86.0.4240.111 Safari/537.36",89,"[0.9, 0.5, 0.1]","[0.8, 0.4, 0.2]","[u'black', u'red', u'blue']","[u'left', u'middle', u'right']","[0.8, 0.4, 0.2]","[u'low', u'medium', u'high']","blue",51,"right","high","True","False",626,3350,NA
"A256BNNQRDR4LZ","Mon Nov 02 2020 08:33:41 GMT-0500 (Eastern Standard Time)","Mon Nov 02 2020 08:41:26 GMT-0500 (Eastern Standard Time)","Mozilla/5.0 (Windows NT 10.0; WOW64) AppleWebKit/537.36 (KHTML, like Gecko) Chrome/86.0.4240.111 Safari/537.36",90,"[0.9, 0.5, 0.1]","[0.8, 0.4, 0.2]","[u'black', u'red', u'blue']","[u'left', u'middle', u'right']","[0.8, 0.4, 0.2]","[u'low', u'medium', u'high']","blue",51,"right","high","True","False",271,3450,NA
"A256BNNQRDR4LZ","Mon Nov 02 2020 08:33:41 GMT-0500 (Eastern Standard Time)","Mon Nov 02 2020 08:41:26 GMT-0500 (Eastern Standard Time)","Mozilla/5.0 (Windows NT 10.0; WOW64) AppleWebKit/537.36 (KHTML, like Gecko) Chrome/86.0.4240.111 Safari/537.36",91,"[0.9, 0.5, 0.1]","[0.8, 0.4, 0.2]","[u'black', u'red', u'blue']","[u'left', u'middle', u'right']","[0.8, 0.4, 0.2]","[u'low', u'medium', u'high']","blue",51,"right","high","False","False",867,3400,NA
"A256BNNQRDR4LZ","Mon Nov 02 2020 08:33:41 GMT-0500 (Eastern Standard Time)","Mon Nov 02 2020 08:41:26 GMT-0500 (Eastern Standard Time)","Mozilla/5.0 (Windows NT 10.0; WOW64) AppleWebKit/537.36 (KHTML, like Gecko) Chrome/86.0.4240.111 Safari/537.36",92,"[0.9, 0.5, 0.1]","[0.8, 0.4, 0.2]","[u'black', u'red', u'blue']","[u'left', u'middle', u'right']","[0.8, 0.4, 0.2]","[u'low', u'medium', u'high']","red",50,"middle","medium","False","False",641,3350,NA
"A256BNNQRDR4LZ","Mon Nov 02 2020 08:33:41 GMT-0500 (Eastern Standard Time)","Mon Nov 02 2020 08:41:26 GMT-0500 (Eastern Standard Time)","Mozilla/5.0 (Windows NT 10.0; WOW64) AppleWebKit/537.36 (KHTML, like Gecko) Chrome/86.0.4240.111 Safari/537.36",93,"[0.9, 0.5, 0.1]","[0.8, 0.4, 0.2]","[u'black', u'red', u'blue']","[u'left', u'middle', u'right']","[0.8, 0.4, 0.2]","[u'low', u'medium', u'high']","black",49,"left","low","False","False",797,3300,NA
"A256BNNQRDR4LZ","Mon Nov 02 2020 08:33:41 GMT-0500 (Eastern Standard Time)","Mon Nov 02 2020 08:41:26 GMT-0500 (Eastern Standard Time)","Mozilla/5.0 (Windows NT 10.0; WOW64) AppleWebKit/537.36 (KHTML, like Gecko) Chrome/86.0.4240.111 Safari/537.36",94,"[0.9, 0.5, 0.1]","[0.8, 0.4, 0.2]","[u'black', u'red', u'blue']","[u'left', u'middle', u'right']","[0.8, 0.4, 0.2]","[u'low', u'medium', u'high']","red",50,"middle","medium","False","False",743,3250,NA
"A256BNNQRDR4LZ","Mon Nov 02 2020 08:33:41 GMT-0500 (Eastern Standard Time)","Mon Nov 02 2020 08:41:26 GMT-0500 (Eastern Standard Time)","Mozilla/5.0 (Windows NT 10.0; WOW64) AppleWebKit/537.36 (KHTML, like Gecko) Chrome/86.0.4240.111 Safari/537.36",95,"[0.9, 0.5, 0.1]","[0.8, 0.4, 0.2]","[u'black', u'red', u'blue']","[u'left', u'middle', u'right']","[0.8, 0.4, 0.2]","[u'low', u'medium', u'high']","blue",51,"right","high","True","False",564,3350,NA
"A256BNNQRDR4LZ","Mon Nov 02 2020 08:33:41 GMT-0500 (Eastern Standard Time)","Mon Nov 02 2020 08:41:26 GMT-0500 (Eastern Standard Time)","Mozilla/5.0 (Windows NT 10.0; WOW64) AppleWebKit/537.36 (KHTML, like Gecko) Chrome/86.0.4240.111 Safari/537.36",96,"[0.9, 0.5, 0.1]","[0.8, 0.4, 0.2]","[u'black', u'red', u'blue']","[u'left', u'middle', u'right']","[0.8, 0.4, 0.2]","[u'low', u'medium', u'high']","blue",51,"right","high","True","False",710,3450,NA
"A256BNNQRDR4LZ","Mon Nov 02 2020 08:33:41 GMT-0500 (Eastern Standard Time)","Mon Nov 02 2020 08:41:26 GMT-0500 (Eastern Standard Time)","Mozilla/5.0 (Windows NT 10.0; WOW64) AppleWebKit/537.36 (KHTML, like Gecko) Chrome/86.0.4240.111 Safari/537.36",97,"[0.9, 0.5, 0.1]","[0.8, 0.4, 0.2]","[u'black', u'red', u'blue']","[u'left', u'middle', u'right']","[0.8, 0.4, 0.2]","[u'low', u'medium', u'high']","black",49,"left","low","False","False",665,3400,NA
"A256BNNQRDR4LZ","Mon Nov 02 2020 08:33:41 GMT-0500 (Eastern Standard Time)","Mon Nov 02 2020 08:41:26 GMT-0500 (Eastern Standard Time)","Mozilla/5.0 (Windows NT 10.0; WOW64) AppleWebKit/537.36 (KHTML, like Gecko) Chrome/86.0.4240.111 Safari/537.36",98,"[0.9, 0.5, 0.1]","[0.8, 0.4, 0.2]","[u'black', u'red', u'blue']","[u'left', u'middle', u'right']","[0.8, 0.4, 0.2]","[u'low', u'medium', u'high']","blue",51,"right","high","True","False",434,3500,NA
"A256BNNQRDR4LZ","Mon Nov 02 2020 08:33:41 GMT-0500 (Eastern Standard Time)","Mon Nov 02 2020 08:41:26 GMT-0500 (Eastern Standard Time)","Mozilla/5.0 (Windows NT 10.0; WOW64) AppleWebKit/537.36 (KHTML, like Gecko) Chrome/86.0.4240.111 Safari/537.36",99,"[0.9, 0.5, 0.1]","[0.8, 0.4, 0.2]","[u'black', u'red', u'blue']","[u'left', u'middle', u'right']","[0.8, 0.4, 0.2]","[u'low', u'medium', u'high']","red",50,"middle","medium","False","False",1311,3450,NA
"A256BNNQRDR4LZ","Mon Nov 02 2020 08:33:41 GMT-0500 (Eastern Standard Time)","Mon Nov 02 2020 08:41:26 GMT-0500 (Eastern Standard Time)","Mozilla/5.0 (Windows NT 10.0; WOW64) AppleWebKit/537.36 (KHTML, like Gecko) Chrome/86.0.4240.111 Safari/537.36",100,"[0.9, 0.5, 0.1]","[0.8, 0.4, 0.2]","[u'black', u'red', u'blue']","[u'left', u'middle', u'right']","[0.8, 0.4, 0.2]","[u'low', u'medium', u'high']","blue",51,"right","high","True","False",203,3550,NA
"A256BNNQRDR4LZ","Mon Nov 02 2020 08:33:41 GMT-0500 (Eastern Standard Time)","Mon Nov 02 2020 08:41:26 GMT-0500 (Eastern Standard Time)","Mozilla/5.0 (Windows NT 10.0; WOW64) AppleWebKit/537.36 (KHTML, like Gecko) Chrome/86.0.4240.111 Safari/537.36",101,"[0.9, 0.5, 0.1]","[0.8, 0.4, 0.2]","[u'black', u'red', u'blue']","[u'left', u'middle', u'right']","[0.8, 0.4, 0.2]","[u'low', u'medium', u'high']","blue",51,"right","high","True","False",946,3650,NA
"A256BNNQRDR4LZ","Mon Nov 02 2020 08:33:41 GMT-0500 (Eastern Standard Time)","Mon Nov 02 2020 08:41:26 GMT-0500 (Eastern Standard Time)","Mozilla/5.0 (Windows NT 10.0; WOW64) AppleWebKit/537.36 (KHTML, like Gecko) Chrome/86.0.4240.111 Safari/537.36",102,"[0.9, 0.5, 0.1]","[0.8, 0.4, 0.2]","[u'black', u'red', u'blue']","[u'left', u'middle', u'right']","[0.8, 0.4, 0.2]","[u'low', u'medium', u'high']","blue",51,"right","high","True","False",488,3750,NA
"A256BNNQRDR4LZ","Mon Nov 02 2020 08:33:41 GMT-0500 (Eastern Standard Time)","Mon Nov 02 2020 08:41:26 GMT-0500 (Eastern Standard Time)","Mozilla/5.0 (Windows NT 10.0; WOW64) AppleWebKit/537.36 (KHTML, like Gecko) Chrome/86.0.4240.111 Safari/537.36",103,"[0.9, 0.5, 0.1]","[0.8, 0.4, 0.2]","[u'black', u'red', u'blue']","[u'left', u'middle', u'right']","[0.8, 0.4, 0.2]","[u'low', u'medium', u'high']","blue",51,"right","high","True","False",490,3850,NA
"A256BNNQRDR4LZ","Mon Nov 02 2020 08:33:41 GMT-0500 (Eastern Standard Time)","Mon Nov 02 2020 08:41:26 GMT-0500 (Eastern Standard Time)","Mozilla/5.0 (Windows NT 10.0; WOW64) AppleWebKit/537.36 (KHTML, like Gecko) Chrome/86.0.4240.111 Safari/537.36",104,"[0.9, 0.5, 0.1]","[0.8, 0.4, 0.2]","[u'black', u'red', u'blue']","[u'left', u'middle', u'right']","[0.8, 0.4, 0.2]","[u'low', u'medium', u'high']","blue",51,"right","high","True","False",670,3950,NA
"A256BNNQRDR4LZ","Mon Nov 02 2020 08:33:41 GMT-0500 (Eastern Standard Time)","Mon Nov 02 2020 08:41:26 GMT-0500 (Eastern Standard Time)","Mozilla/5.0 (Windows NT 10.0; WOW64) AppleWebKit/537.36 (KHTML, like Gecko) Chrome/86.0.4240.111 Safari/537.36",105,"[0.9, 0.5, 0.1]","[0.8, 0.4, 0.2]","[u'black', u'red', u'blue']","[u'left', u'middle', u'right']","[0.8, 0.4, 0.2]","[u'low', u'medium', u'high']","blue",51,"right","high","True","False",847,4050,NA
"A256BNNQRDR4LZ","Mon Nov 02 2020 08:33:41 GMT-0500 (Eastern Standard Time)","Mon Nov 02 2020 08:41:26 GMT-0500 (Eastern Standard Time)","Mozilla/5.0 (Windows NT 10.0; WOW64) AppleWebKit/537.36 (KHTML, like Gecko) Chrome/86.0.4240.111 Safari/537.36",106,"[0.9, 0.5, 0.1]","[0.8, 0.4, 0.2]","[u'black', u'red', u'blue']","[u'left', u'middle', u'right']","[0.8, 0.4, 0.2]","[u'low', u'medium', u'high']","blue",51,"right","high","False","False",660,4000,NA
"A256BNNQRDR4LZ","Mon Nov 02 2020 08:33:41 GMT-0500 (Eastern Standard Time)","Mon Nov 02 2020 08:41:26 GMT-0500 (Eastern Standard Time)","Mozilla/5.0 (Windows NT 10.0; WOW64) AppleWebKit/537.36 (KHTML, like Gecko) Chrome/86.0.4240.111 Safari/537.36",107,"[0.9, 0.5, 0.1]","[0.8, 0.4, 0.2]","[u'black', u'red', u'blue']","[u'left', u'middle', u'right']","[0.8, 0.4, 0.2]","[u'low', u'medium', u'high']","red",50,"middle","medium","True","False",2072,4100,NA
"A256BNNQRDR4LZ","Mon Nov 02 2020 08:33:41 GMT-0500 (Eastern Standard Time)","Mon Nov 02 2020 08:41:26 GMT-0500 (Eastern Standard Time)","Mozilla/5.0 (Windows NT 10.0; WOW64) AppleWebKit/537.36 (KHTML, like Gecko) Chrome/86.0.4240.111 Safari/537.36",108,"[0.9, 0.5, 0.1]","[0.8, 0.4, 0.2]","[u'black', u'red', u'blue']","[u'left', u'middle', u'right']","[0.8, 0.4, 0.2]","[u'low', u'medium', u'high']","blue",51,"right","high","True","False",735,4200,NA
"A256BNNQRDR4LZ","Mon Nov 02 2020 08:33:41 GMT-0500 (Eastern Standard Time)","Mon Nov 02 2020 08:41:26 GMT-0500 (Eastern Standard Time)","Mozilla/5.0 (Windows NT 10.0; WOW64) AppleWebKit/537.36 (KHTML, like Gecko) Chrome/86.0.4240.111 Safari/537.36",109,"[0.9, 0.5, 0.1]","[0.8, 0.4, 0.2]","[u'black', u'red', u'blue']","[u'left', u'middle', u'right']","[0.8, 0.4, 0.2]","[u'low', u'medium', u'high']","blue",51,"right","high","True","True",507,4300,NA
"A256BNNQRDR4LZ","Mon Nov 02 2020 08:33:41 GMT-0500 (Eastern Standard Time)","Mon Nov 02 2020 08:41:26 GMT-0500 (Eastern Standard Time)","Mozilla/5.0 (Windows NT 10.0; WOW64) AppleWebKit/537.36 (KHTML, like Gecko) Chrome/86.0.4240.111 Safari/537.36",110,"[0.9, 0.5, 0.1]","[0.8, 0.4, 0.2]","[u'black', u'red', u'blue']","[u'left', u'middle', u'right']","[0.8, 0.4, 0.2]","[u'high', u'medium', u'low']","blue",51,"right","low","False","False",885,4250,NA
"A256BNNQRDR4LZ","Mon Nov 02 2020 08:33:41 GMT-0500 (Eastern Standard Time)","Mon Nov 02 2020 08:41:26 GMT-0500 (Eastern Standard Time)","Mozilla/5.0 (Windows NT 10.0; WOW64) AppleWebKit/537.36 (KHTML, like Gecko) Chrome/86.0.4240.111 Safari/537.36",111,"[0.9, 0.5, 0.1]","[0.8, 0.4, 0.2]","[u'black', u'red', u'blue']","[u'left', u'middle', u'right']","[0.8, 0.4, 0.2]","[u'high', u'medium', u'low']","red",50,"middle","medium","False","False",1060,4200,NA
"A256BNNQRDR4LZ","Mon Nov 02 2020 08:33:41 GMT-0500 (Eastern Standard Time)","Mon Nov 02 2020 08:41:26 GMT-0500 (Eastern Standard Time)","Mozilla/5.0 (Windows NT 10.0; WOW64) AppleWebKit/537.36 (KHTML, like Gecko) Chrome/86.0.4240.111 Safari/537.36",112,"[0.9, 0.5, 0.1]","[0.8, 0.4, 0.2]","[u'black', u'red', u'blue']","[u'left', u'middle', u'right']","[0.8, 0.4, 0.2]","[u'high', u'medium', u'low']","blue",51,"right","low","False","False",408,4150,NA
"A256BNNQRDR4LZ","Mon Nov 02 2020 08:33:41 GMT-0500 (Eastern Standard Time)","Mon Nov 02 2020 08:41:26 GMT-0500 (Eastern Standard Time)","Mozilla/5.0 (Windows NT 10.0; WOW64) AppleWebKit/537.36 (KHTML, like Gecko) Chrome/86.0.4240.111 Safari/537.36",113,"[0.9, 0.5, 0.1]","[0.8, 0.4, 0.2]","[u'black', u'red', u'blue']","[u'left', u'middle', u'right']","[0.8, 0.4, 0.2]","[u'high', u'medium', u'low']","black",49,"left","high","False","False",679,4100,NA
"A256BNNQRDR4LZ","Mon Nov 02 2020 08:33:41 GMT-0500 (Eastern Standard Time)","Mon Nov 02 2020 08:41:26 GMT-0500 (Eastern Standard Time)","Mozilla/5.0 (Windows NT 10.0; WOW64) AppleWebKit/537.36 (KHTML, like Gecko) Chrome/86.0.4240.111 Safari/537.36",114,"[0.9, 0.5, 0.1]","[0.8, 0.4, 0.2]","[u'black', u'red', u'blue']","[u'left', u'middle', u'right']","[0.8, 0.4, 0.2]","[u'high', u'medium', u'low']","red",50,"middle","medium","False","False",177,4050,NA
"A256BNNQRDR4LZ","Mon Nov 02 2020 08:33:41 GMT-0500 (Eastern Standard Time)","Mon Nov 02 2020 08:41:26 GMT-0500 (Eastern Standard Time)","Mozilla/5.0 (Windows NT 10.0; WOW64) AppleWebKit/537.36 (KHTML, like Gecko) Chrome/86.0.4240.111 Safari/537.36",115,"[0.9, 0.5, 0.1]","[0.8, 0.4, 0.2]","[u'black', u'red', u'blue']","[u'left', u'middle', u'right']","[0.8, 0.4, 0.2]","[u'high', u'medium', u'low']","blue",51,"right","low","True","False",179,4150,NA
"A256BNNQRDR4LZ","Mon Nov 02 2020 08:33:41 GMT-0500 (Eastern Standard Time)","Mon Nov 02 2020 08:41:26 GMT-0500 (Eastern Standard Time)","Mozilla/5.0 (Windows NT 10.0; WOW64) AppleWebKit/537.36 (KHTML, like Gecko) Chrome/86.0.4240.111 Safari/537.36",116,"[0.9, 0.5, 0.1]","[0.8, 0.4, 0.2]","[u'black', u'red', u'blue']","[u'left', u'middle', u'right']","[0.8, 0.4, 0.2]","[u'high', u'medium', u'low']","blue",51,"right","low","True","False",910,4250,NA
"A256BNNQRDR4LZ","Mon Nov 02 2020 08:33:41 GMT-0500 (Eastern Standard Time)","Mon Nov 02 2020 08:41:26 GMT-0500 (Eastern Standard Time)","Mozilla/5.0 (Windows NT 10.0; WOW64) AppleWebKit/537.36 (KHTML, like Gecko) Chrome/86.0.4240.111 Safari/537.36",117,"[0.9, 0.5, 0.1]","[0.8, 0.4, 0.2]","[u'black', u'red', u'blue']","[u'left', u'middle', u'right']","[0.8, 0.4, 0.2]","[u'high', u'medium', u'low']","blue",51,"right","low","True","False",530,4350,NA
"A256BNNQRDR4LZ","Mon Nov 02 2020 08:33:41 GMT-0500 (Eastern Standard Time)","Mon Nov 02 2020 08:41:26 GMT-0500 (Eastern Standard Time)","Mozilla/5.0 (Windows NT 10.0; WOW64) AppleWebKit/537.36 (KHTML, like Gecko) Chrome/86.0.4240.111 Safari/537.36",118,"[0.9, 0.5, 0.1]","[0.8, 0.4, 0.2]","[u'black', u'red', u'blue']","[u'left', u'middle', u'right']","[0.8, 0.4, 0.2]","[u'high', u'medium', u'low']","blue",51,"right","low","True","False",701,4450,NA
"A256BNNQRDR4LZ","Mon Nov 02 2020 08:33:41 GMT-0500 (Eastern Standard Time)","Mon Nov 02 2020 08:41:26 GMT-0500 (Eastern Standard Time)","Mozilla/5.0 (Windows NT 10.0; WOW64) AppleWebKit/537.36 (KHTML, like Gecko) Chrome/86.0.4240.111 Safari/537.36",119,"[0.9, 0.5, 0.1]","[0.8, 0.4, 0.2]","[u'black', u'red', u'blue']","[u'left', u'middle', u'right']","[0.8, 0.4, 0.2]","[u'high', u'medium', u'low']","blue",51,"right","low","False","False",895,4400,NA
"A256BNNQRDR4LZ","Mon Nov 02 2020 08:33:41 GMT-0500 (Eastern Standard Time)","Mon Nov 02 2020 08:41:26 GMT-0500 (Eastern Standard Time)","Mozilla/5.0 (Windows NT 10.0; WOW64) AppleWebKit/537.36 (KHTML, like Gecko) Chrome/86.0.4240.111 Safari/537.36",120,"[0.9, 0.5, 0.1]","[0.8, 0.4, 0.2]","[u'black', u'red', u'blue']","[u'left', u'middle', u'right']","[0.8, 0.4, 0.2]","[u'high', u'medium', u'low']","black",49,"left","high","False","False",1019,4350,NA
"A256BNNQRDR4LZ","Mon Nov 02 2020 08:33:41 GMT-0500 (Eastern Standard Time)","Mon Nov 02 2020 08:41:26 GMT-0500 (Eastern Standard Time)","Mozilla/5.0 (Windows NT 10.0; WOW64) AppleWebKit/537.36 (KHTML, like Gecko) Chrome/86.0.4240.111 Safari/537.36",121,"[0.9, 0.5, 0.1]","[0.8, 0.4, 0.2]","[u'black', u'red', u'blue']","[u'left', u'middle', u'right']","[0.8, 0.4, 0.2]","[u'medium', u'high', u'low']","blue",51,"right","low","False","False",1382,4300,NA
"A256BNNQRDR4LZ","Mon Nov 02 2020 08:33:41 GMT-0500 (Eastern Standard Time)","Mon Nov 02 2020 08:41:26 GMT-0500 (Eastern Standard Time)","Mozilla/5.0 (Windows NT 10.0; WOW64) AppleWebKit/537.36 (KHTML, like Gecko) Chrome/86.0.4240.111 Safari/537.36",122,"[0.9, 0.5, 0.1]","[0.8, 0.4, 0.2]","[u'black', u'red', u'blue']","[u'left', u'middle', u'right']","[0.8, 0.4, 0.2]","[u'medium', u'high', u'low']","black",49,"left","medium","False","False",345,4250,NA
"A256BNNQRDR4LZ","Mon Nov 02 2020 08:33:41 GMT-0500 (Eastern Standard Time)","Mon Nov 02 2020 08:41:26 GMT-0500 (Eastern Standard Time)","Mozilla/5.0 (Windows NT 10.0; WOW64) AppleWebKit/537.36 (KHTML, like Gecko) Chrome/86.0.4240.111 Safari/537.36",123,"[0.9, 0.5, 0.1]","[0.8, 0.4, 0.2]","[u'black', u'red', u'blue']","[u'left', u'middle', u'right']","[0.8, 0.4, 0.2]","[u'medium', u'high', u'low']","red",50,"middle","high","True","False",130,4350,NA
"A256BNNQRDR4LZ","Mon Nov 02 2020 08:33:41 GMT-0500 (Eastern Standard Time)","Mon Nov 02 2020 08:41:26 GMT-0500 (Eastern Standard Time)","Mozilla/5.0 (Windows NT 10.0; WOW64) AppleWebKit/537.36 (KHTML, like Gecko) Chrome/86.0.4240.111 Safari/537.36",124,"[0.9, 0.5, 0.1]","[0.8, 0.4, 0.2]","[u'black', u'red', u'blue']","[u'left', u'middle', u'right']","[0.8, 0.4, 0.2]","[u'medium', u'high', u'low']","red",50,"middle","high","True","False",1421,4450,NA
"A256BNNQRDR4LZ","Mon Nov 02 2020 08:33:41 GMT-0500 (Eastern Standard Time)","Mon Nov 02 2020 08:41:26 GMT-0500 (Eastern Standard Time)","Mozilla/5.0 (Windows NT 10.0; WOW64) AppleWebKit/537.36 (KHTML, like Gecko) Chrome/86.0.4240.111 Safari/537.36",125,"[0.9, 0.5, 0.1]","[0.8, 0.4, 0.2]","[u'black', u'red', u'blue']","[u'left', u'middle', u'right']","[0.8, 0.4, 0.2]","[u'medium', u'high', u'low']","red",50,"middle","high","True","False",802,4550,NA
"A256BNNQRDR4LZ","Mon Nov 02 2020 08:33:41 GMT-0500 (Eastern Standard Time)","Mon Nov 02 2020 08:41:26 GMT-0500 (Eastern Standard Time)","Mozilla/5.0 (Windows NT 10.0; WOW64) AppleWebKit/537.36 (KHTML, like Gecko) Chrome/86.0.4240.111 Safari/537.36",126,"[0.9, 0.5, 0.1]","[0.8, 0.4, 0.2]","[u'black', u'red', u'blue']","[u'left', u'middle', u'right']","[0.8, 0.4, 0.2]","[u'medium', u'high', u'low']","red",50,"middle","high","True","False",472,4650,NA
"A256BNNQRDR4LZ","Mon Nov 02 2020 08:33:41 GMT-0500 (Eastern Standard Time)","Mon Nov 02 2020 08:41:26 GMT-0500 (Eastern Standard Time)","Mozilla/5.0 (Windows NT 10.0; WOW64) AppleWebKit/537.36 (KHTML, like Gecko) Chrome/86.0.4240.111 Safari/537.36",127,"[0.9, 0.5, 0.1]","[0.8, 0.4, 0.2]","[u'black', u'red', u'blue']","[u'left', u'middle', u'right']","[0.8, 0.4, 0.2]","[u'medium', u'high', u'low']","red",50,"middle","high","False","False",860,4600,NA
"A256BNNQRDR4LZ","Mon Nov 02 2020 08:33:41 GMT-0500 (Eastern Standard Time)","Mon Nov 02 2020 08:41:26 GMT-0500 (Eastern Standard Time)","Mozilla/5.0 (Windows NT 10.0; WOW64) AppleWebKit/537.36 (KHTML, like Gecko) Chrome/86.0.4240.111 Safari/537.36",128,"[0.9, 0.5, 0.1]","[0.8, 0.4, 0.2]","[u'black', u'red', u'blue']","[u'left', u'middle', u'right']","[0.8, 0.4, 0.2]","[u'medium', u'high', u'low']","blue",51,"right","low","False","False",480,4550,NA
"A256BNNQRDR4LZ","Mon Nov 02 2020 08:33:41 GMT-0500 (Eastern Standard Time)","Mon Nov 02 2020 08:41:26 GMT-0500 (Eastern Standard Time)","Mozilla/5.0 (Windows NT 10.0; WOW64) AppleWebKit/537.36 (KHTML, like Gecko) Chrome/86.0.4240.111 Safari/537.36",129,"[0.9, 0.5, 0.1]","[0.8, 0.4, 0.2]","[u'black', u'red', u'blue']","[u'left', u'middle', u'right']","[0.8, 0.4, 0.2]","[u'medium', u'high', u'low']","red",50,"middle","high","True","False",355,4650,NA
"A256BNNQRDR4LZ","Mon Nov 02 2020 08:33:41 GMT-0500 (Eastern Standard Time)","Mon Nov 02 2020 08:41:26 GMT-0500 (Eastern Standard Time)","Mozilla/5.0 (Windows NT 10.0; WOW64) AppleWebKit/537.36 (KHTML, like Gecko) Chrome/86.0.4240.111 Safari/537.36",130,"[0.9, 0.5, 0.1]","[0.8, 0.4, 0.2]","[u'black', u'red', u'blue']","[u'left', u'middle', u'right']","[0.8, 0.4, 0.2]","[u'medium', u'high', u'low']","red",50,"middle","high","True","False",546,4750,NA
"A256BNNQRDR4LZ","Mon Nov 02 2020 08:33:41 GMT-0500 (Eastern Standard Time)","Mon Nov 02 2020 08:41:26 GMT-0500 (Eastern Standard Time)","Mozilla/5.0 (Windows NT 10.0; WOW64) AppleWebKit/537.36 (KHTML, like Gecko) Chrome/86.0.4240.111 Safari/537.36",131,"[0.9, 0.5, 0.1]","[0.8, 0.4, 0.2]","[u'black', u'red', u'blue']","[u'left', u'middle', u'right']","[0.8, 0.4, 0.2]","[u'medium', u'high', u'low']","red",50,"middle","high","True","False",669,4850,NA
"A256BNNQRDR4LZ","Mon Nov 02 2020 08:33:41 GMT-0500 (Eastern Standard Time)","Mon Nov 02 2020 08:41:26 GMT-0500 (Eastern Standard Time)","Mozilla/5.0 (Windows NT 10.0; WOW64) AppleWebKit/537.36 (KHTML, like Gecko) Chrome/86.0.4240.111 Safari/537.36",132,"[0.9, 0.5, 0.1]","[0.8, 0.4, 0.2]","[u'black', u'red', u'blue']","[u'left', u'middle', u'right']","[0.8, 0.4, 0.2]","[u'medium', u'high', u'low']","red",50,"middle","high","True","True",805,4950,NA
"A256BNNQRDR4LZ","Mon Nov 02 2020 08:33:41 GMT-0500 (Eastern Standard Time)","Mon Nov 02 2020 08:41:26 GMT-0500 (Eastern Standard Time)","Mozilla/5.0 (Windows NT 10.0; WOW64) AppleWebKit/537.36 (KHTML, like Gecko) Chrome/86.0.4240.111 Safari/537.36",133,"[0.9, 0.5, 0.1]","[0.8, 0.4, 0.2]","[u'black', u'red', u'blue']","[u'left', u'middle', u'right']","[0.8, 0.4, 0.2]","[u'low', u'medium', u'high']","red",50,"middle","medium","True","False",703,5050,NA
"A256BNNQRDR4LZ","Mon Nov 02 2020 08:33:41 GMT-0500 (Eastern Standard Time)","Mon Nov 02 2020 08:41:26 GMT-0500 (Eastern Standard Time)","Mozilla/5.0 (Windows NT 10.0; WOW64) AppleWebKit/537.36 (KHTML, like Gecko) Chrome/86.0.4240.111 Safari/537.36",134,"[0.9, 0.5, 0.1]","[0.8, 0.4, 0.2]","[u'black', u'red', u'blue']","[u'left', u'middle', u'right']","[0.8, 0.4, 0.2]","[u'low', u'medium', u'high']","red",50,"middle","medium","True","False",399,5150,NA
"A256BNNQRDR4LZ","Mon Nov 02 2020 08:33:41 GMT-0500 (Eastern Standard Time)","Mon Nov 02 2020 08:41:26 GMT-0500 (Eastern Standard Time)","Mozilla/5.0 (Windows NT 10.0; WOW64) AppleWebKit/537.36 (KHTML, like Gecko) Chrome/86.0.4240.111 Safari/537.36",135,"[0.9, 0.5, 0.1]","[0.8, 0.4, 0.2]","[u'black', u'red', u'blue']","[u'left', u'middle', u'right']","[0.8, 0.4, 0.2]","[u'low', u'medium', u'high']","red",50,"middle","medium","False","False",480,5100,NA
"A256BNNQRDR4LZ","Mon Nov 02 2020 08:33:41 GMT-0500 (Eastern Standard Time)","Mon Nov 02 2020 08:41:26 GMT-0500 (Eastern Standard Time)","Mozilla/5.0 (Windows NT 10.0; WOW64) AppleWebKit/537.36 (KHTML, like Gecko) Chrome/86.0.4240.111 Safari/537.36",136,"[0.9, 0.5, 0.1]","[0.8, 0.4, 0.2]","[u'black', u'red', u'blue']","[u'left', u'middle', u'right']","[0.8, 0.4, 0.2]","[u'low', u'medium', u'high']","blue",51,"right","high","True","False",759,5200,NA
"A256BNNQRDR4LZ","Mon Nov 02 2020 08:33:41 GMT-0500 (Eastern Standard Time)","Mon Nov 02 2020 08:41:26 GMT-0500 (Eastern Standard Time)","Mozilla/5.0 (Windows NT 10.0; WOW64) AppleWebKit/537.36 (KHTML, like Gecko) Chrome/86.0.4240.111 Safari/537.36",137,"[0.9, 0.5, 0.1]","[0.8, 0.4, 0.2]","[u'black', u'red', u'blue']","[u'left', u'middle', u'right']","[0.8, 0.4, 0.2]","[u'low', u'medium', u'high']","red",50,"middle","medium","False","False",636,5150,NA
"A256BNNQRDR4LZ","Mon Nov 02 2020 08:33:41 GMT-0500 (Eastern Standard Time)","Mon Nov 02 2020 08:41:26 GMT-0500 (Eastern Standard Time)","Mozilla/5.0 (Windows NT 10.0; WOW64) AppleWebKit/537.36 (KHTML, like Gecko) Chrome/86.0.4240.111 Safari/537.36",138,"[0.9, 0.5, 0.1]","[0.8, 0.4, 0.2]","[u'black', u'red', u'blue']","[u'left', u'middle', u'right']","[0.8, 0.4, 0.2]","[u'low', u'medium', u'high']","blue",51,"right","high","True","False",461,5250,NA
"A256BNNQRDR4LZ","Mon Nov 02 2020 08:33:41 GMT-0500 (Eastern Standard Time)","Mon Nov 02 2020 08:41:26 GMT-0500 (Eastern Standard Time)","Mozilla/5.0 (Windows NT 10.0; WOW64) AppleWebKit/537.36 (KHTML, like Gecko) Chrome/86.0.4240.111 Safari/537.36",139,"[0.9, 0.5, 0.1]","[0.8, 0.4, 0.2]","[u'black', u'red', u'blue']","[u'left', u'middle', u'right']","[0.8, 0.4, 0.2]","[u'low', u'medium', u'high']","blue",51,"right","high","True","False",784,5350,NA
"A256BNNQRDR4LZ","Mon Nov 02 2020 08:33:41 GMT-0500 (Eastern Standard Time)","Mon Nov 02 2020 08:41:26 GMT-0500 (Eastern Standard Time)","Mozilla/5.0 (Windows NT 10.0; WOW64) AppleWebKit/537.36 (KHTML, like Gecko) Chrome/86.0.4240.111 Safari/537.36",140,"[0.9, 0.5, 0.1]","[0.8, 0.4, 0.2]","[u'black', u'red', u'blue']","[u'left', u'middle', u'right']","[0.8, 0.4, 0.2]","[u'low', u'medium', u'high']","blue",51,"right","high","True","False",600,5450,NA
"A256BNNQRDR4LZ","Mon Nov 02 2020 08:33:41 GMT-0500 (Eastern Standard Time)","Mon Nov 02 2020 08:41:26 GMT-0500 (Eastern Standard Time)","Mozilla/5.0 (Windows NT 10.0; WOW64) AppleWebKit/537.36 (KHTML, like Gecko) Chrome/86.0.4240.111 Safari/537.36",141,"[0.9, 0.5, 0.1]","[0.8, 0.4, 0.2]","[u'black', u'red', u'blue']","[u'left', u'middle', u'right']","[0.8, 0.4, 0.2]","[u'low', u'medium', u'high']","blue",51,"right","high","False","False",546,5400,NA
"A256BNNQRDR4LZ","Mon Nov 02 2020 08:33:41 GMT-0500 (Eastern Standard Time)","Mon Nov 02 2020 08:41:26 GMT-0500 (Eastern Standard Time)","Mozilla/5.0 (Windows NT 10.0; WOW64) AppleWebKit/537.36 (KHTML, like Gecko) Chrome/86.0.4240.111 Safari/537.36",142,"[0.9, 0.5, 0.1]","[0.8, 0.4, 0.2]","[u'black', u'red', u'blue']","[u'left', u'middle', u'right']","[0.8, 0.4, 0.2]","[u'low', u'medium', u'high']","red",50,"middle","medium","False","False",435,5350,NA
"A256BNNQRDR4LZ","Mon Nov 02 2020 08:33:41 GMT-0500 (Eastern Standard Time)","Mon Nov 02 2020 08:41:26 GMT-0500 (Eastern Standard Time)","Mozilla/5.0 (Windows NT 10.0; WOW64) AppleWebKit/537.36 (KHTML, like Gecko) Chrome/86.0.4240.111 Safari/537.36",143,"[0.9, 0.5, 0.1]","[0.8, 0.4, 0.2]","[u'black', u'red', u'blue']","[u'left', u'middle', u'right']","[0.8, 0.4, 0.2]","[u'low', u'medium', u'high']","blue",51,"right","high","True","False",417,5450,NA
"A256BNNQRDR4LZ","Mon Nov 02 2020 08:33:41 GMT-0500 (Eastern Standard Time)","Mon Nov 02 2020 08:41:26 GMT-0500 (Eastern Standard Time)","Mozilla/5.0 (Windows NT 10.0; WOW64) AppleWebKit/537.36 (KHTML, like Gecko) Chrome/86.0.4240.111 Safari/537.36",144,"[0.9, 0.5, 0.1]","[0.8, 0.4, 0.2]","[u'black', u'red', u'blue']","[u'left', u'middle', u'right']","[0.8, 0.4, 0.2]","[u'low', u'medium', u'high']","blue",51,"right","high","True","False",494,5550,NA
"A256BNNQRDR4LZ","Mon Nov 02 2020 08:33:41 GMT-0500 (Eastern Standard Time)","Mon Nov 02 2020 08:41:26 GMT-0500 (Eastern Standard Time)","Mozilla/5.0 (Windows NT 10.0; WOW64) AppleWebKit/537.36 (KHTML, like Gecko) Chrome/86.0.4240.111 Safari/537.36",145,"[0.9, 0.5, 0.1]","[0.8, 0.4, 0.2]","[u'black', u'red', u'blue']","[u'left', u'middle', u'right']","[0.8, 0.4, 0.2]","[u'low', u'medium', u'high']","blue",51,"right","high","True","False",1017,5650,NA
"A256BNNQRDR4LZ","Mon Nov 02 2020 08:33:41 GMT-0500 (Eastern Standard Time)","Mon Nov 02 2020 08:41:26 GMT-0500 (Eastern Standard Time)","Mozilla/5.0 (Windows NT 10.0; WOW64) AppleWebKit/537.36 (KHTML, like Gecko) Chrome/86.0.4240.111 Safari/537.36",146,"[0.9, 0.5, 0.1]","[0.8, 0.4, 0.2]","[u'black', u'red', u'blue']","[u'left', u'middle', u'right']","[0.8, 0.4, 0.2]","[u'low', u'medium', u'high']","blue",51,"right","high","True","False",685,5750,NA
"A256BNNQRDR4LZ","Mon Nov 02 2020 08:33:41 GMT-0500 (Eastern Standard Time)","Mon Nov 02 2020 08:41:26 GMT-0500 (Eastern Standard Time)","Mozilla/5.0 (Windows NT 10.0; WOW64) AppleWebKit/537.36 (KHTML, like Gecko) Chrome/86.0.4240.111 Safari/537.36",147,"[0.9, 0.5, 0.1]","[0.8, 0.4, 0.2]","[u'black', u'red', u'blue']","[u'left', u'middle', u'right']","[0.8, 0.4, 0.2]","[u'low', u'medium', u'high']","blue",51,"right","high","True","False",504,5850,NA
"A256BNNQRDR4LZ","Mon Nov 02 2020 08:33:41 GMT-0500 (Eastern Standard Time)","Mon Nov 02 2020 08:41:26 GMT-0500 (Eastern Standard Time)","Mozilla/5.0 (Windows NT 10.0; WOW64) AppleWebKit/537.36 (KHTML, like Gecko) Chrome/86.0.4240.111 Safari/537.36",148,"[0.9, 0.5, 0.1]","[0.8, 0.4, 0.2]","[u'black', u'red', u'blue']","[u'left', u'middle', u'right']","[0.8, 0.4, 0.2]","[u'low', u'medium', u'high']","blue",51,"right","high","True","False",650,5950,NA
"A256BNNQRDR4LZ","Mon Nov 02 2020 08:33:41 GMT-0500 (Eastern Standard Time)","Mon Nov 02 2020 08:41:26 GMT-0500 (Eastern Standard Time)","Mozilla/5.0 (Windows NT 10.0; WOW64) AppleWebKit/537.36 (KHTML, like Gecko) Chrome/86.0.4240.111 Safari/537.36",149,"[0.9, 0.5, 0.1]","[0.8, 0.4, 0.2]","[u'black', u'red', u'blue']","[u'left', u'middle', u'right']","[0.8, 0.4, 0.2]","[u'low', u'medium', u'high']","blue",51,"right","high","True","False",617,6050,NA
"A256BNNQRDR4LZ","Mon Nov 02 2020 08:33:41 GMT-0500 (Eastern Standard Time)","Mon Nov 02 2020 08:41:26 GMT-0500 (Eastern Standard Time)","Mozilla/5.0 (Windows NT 10.0; WOW64) AppleWebKit/537.36 (KHTML, like Gecko) Chrome/86.0.4240.111 Safari/537.36",150,"[0.9, 0.5, 0.1]","[0.8, 0.4, 0.2]","[u'black', u'red', u'blue']","[u'left', u'middle', u'right']","[0.8, 0.4, 0.2]","[u'low', u'medium', u'high']","blue",51,"right","high","True","False",742,6150,NA
"A256BNNQRDR4LZ","Mon Nov 02 2020 08:33:41 GMT-0500 (Eastern Standard Time)","Mon Nov 02 2020 08:41:26 GMT-0500 (Eastern Standard Time)","Mozilla/5.0 (Windows NT 10.0; WOW64) AppleWebKit/537.36 (KHTML, like Gecko) Chrome/86.0.4240.111 Safari/537.36",151,"[0.9, 0.5, 0.1]","[0.8, 0.4, 0.2]","[u'black', u'red', u'blue']","[u'left', u'middle', u'right']","[0.8, 0.4, 0.2]","[u'low', u'medium', u'high']","red",50,"middle","medium","True","False",1203,6250,NA
"A256BNNQRDR4LZ","Mon Nov 02 2020 08:33:41 GMT-0500 (Eastern Standard Time)","Mon Nov 02 2020 08:41:26 GMT-0500 (Eastern Standard Time)","Mozilla/5.0 (Windows NT 10.0; WOW64) AppleWebKit/537.36 (KHTML, like Gecko) Chrome/86.0.4240.111 Safari/537.36",152,"[0.9, 0.5, 0.1]","[0.8, 0.4, 0.2]","[u'black', u'red', u'blue']","[u'left', u'middle', u'right']","[0.8, 0.4, 0.2]","[u'low', u'medium', u'high']","blue",51,"right","high","True","True",653,6350,NA
"A256BNNQRDR4LZ","Mon Nov 02 2020 08:33:41 GMT-0500 (Eastern Standard Time)","Mon Nov 02 2020 08:41:26 GMT-0500 (Eastern Standard Time)","Mozilla/5.0 (Windows NT 10.0; WOW64) AppleWebKit/537.36 (KHTML, like Gecko) Chrome/86.0.4240.111 Safari/537.36",153,"[0.9, 0.5, 0.1]","[0.8, 0.4, 0.2]","[u'black', u'red', u'blue']","[u'left', u'middle', u'right']","[0.8, 0.4, 0.2]","[u'medium', u'high', u'low']","blue",51,"right","low","False","False",998,6300,NA
"A256BNNQRDR4LZ","Mon Nov 02 2020 08:33:41 GMT-0500 (Eastern Standard Time)","Mon Nov 02 2020 08:41:26 GMT-0500 (Eastern Standard Time)","Mozilla/5.0 (Windows NT 10.0; WOW64) AppleWebKit/537.36 (KHTML, like Gecko) Chrome/86.0.4240.111 Safari/537.36",154,"[0.9, 0.5, 0.1]","[0.8, 0.4, 0.2]","[u'black', u'red', u'blue']","[u'left', u'middle', u'right']","[0.8, 0.4, 0.2]","[u'medium', u'high', u'low']","red",50,"middle","high","True","False",1208,6400,NA
"A256BNNQRDR4LZ","Mon Nov 02 2020 08:33:41 GMT-0500 (Eastern Standard Time)","Mon Nov 02 2020 08:41:26 GMT-0500 (Eastern Standard Time)","Mozilla/5.0 (Windows NT 10.0; WOW64) AppleWebKit/537.36 (KHTML, like Gecko) Chrome/86.0.4240.111 Safari/537.36",155,"[0.9, 0.5, 0.1]","[0.8, 0.4, 0.2]","[u'black', u'red', u'blue']","[u'left', u'middle', u'right']","[0.8, 0.4, 0.2]","[u'medium', u'high', u'low']","red",50,"middle","high","True","False",544,6500,NA
"A256BNNQRDR4LZ","Mon Nov 02 2020 08:33:41 GMT-0500 (Eastern Standard Time)","Mon Nov 02 2020 08:41:26 GMT-0500 (Eastern Standard Time)","Mozilla/5.0 (Windows NT 10.0; WOW64) AppleWebKit/537.36 (KHTML, like Gecko) Chrome/86.0.4240.111 Safari/537.36",156,"[0.9, 0.5, 0.1]","[0.8, 0.4, 0.2]","[u'black', u'red', u'blue']","[u'left', u'middle', u'right']","[0.8, 0.4, 0.2]","[u'medium', u'high', u'low']","red",50,"middle","high","True","False",1113,6600,NA
"A256BNNQRDR4LZ","Mon Nov 02 2020 08:33:41 GMT-0500 (Eastern Standard Time)","Mon Nov 02 2020 08:41:26 GMT-0500 (Eastern Standard Time)","Mozilla/5.0 (Windows NT 10.0; WOW64) AppleWebKit/537.36 (KHTML, like Gecko) Chrome/86.0.4240.111 Safari/537.36",157,"[0.9, 0.5, 0.1]","[0.8, 0.4, 0.2]","[u'black', u'red', u'blue']","[u'left', u'middle', u'right']","[0.8, 0.4, 0.2]","[u'medium', u'high', u'low']","red",50,"middle","high","True","False",738,6700,NA
"A256BNNQRDR4LZ","Mon Nov 02 2020 08:33:41 GMT-0500 (Eastern Standard Time)","Mon Nov 02 2020 08:41:26 GMT-0500 (Eastern Standard Time)","Mozilla/5.0 (Windows NT 10.0; WOW64) AppleWebKit/537.36 (KHTML, like Gecko) Chrome/86.0.4240.111 Safari/537.36",158,"[0.9, 0.5, 0.1]","[0.8, 0.4, 0.2]","[u'black', u'red', u'blue']","[u'left', u'middle', u'right']","[0.8, 0.4, 0.2]","[u'medium', u'high', u'low']","blue",51,"right","low","False","False",1238,6650,NA
"A256BNNQRDR4LZ","Mon Nov 02 2020 08:33:41 GMT-0500 (Eastern Standard Time)","Mon Nov 02 2020 08:41:26 GMT-0500 (Eastern Standard Time)","Mozilla/5.0 (Windows NT 10.0; WOW64) AppleWebKit/537.36 (KHTML, like Gecko) Chrome/86.0.4240.111 Safari/537.36",159,"[0.9, 0.5, 0.1]","[0.8, 0.4, 0.2]","[u'black', u'red', u'blue']","[u'left', u'middle', u'right']","[0.8, 0.4, 0.2]","[u'medium', u'high', u'low']","red",50,"middle","high","True","False",612,6750,NA
"A256BNNQRDR4LZ","Mon Nov 02 2020 08:33:41 GMT-0500 (Eastern Standard Time)","Mon Nov 02 2020 08:41:26 GMT-0500 (Eastern Standard Time)","Mozilla/5.0 (Windows NT 10.0; WOW64) AppleWebKit/537.36 (KHTML, like Gecko) Chrome/86.0.4240.111 Safari/537.36",160,"[0.9, 0.5, 0.1]","[0.8, 0.4, 0.2]","[u'black', u'red', u'blue']","[u'left', u'middle', u'right']","[0.8, 0.4, 0.2]","[u'medium', u'high', u'low']","red",50,"middle","high","True","False",550,6850,NA
