"src_subject_id","start_time","end_time","browser","index","first_half_probabilities","second_half_probabilities","deck_color","deck_position","deck_probabilities","deck_contingencies","response_color","key_press","response_position","response_probability","reward_type","trial_type","rt","reward_tally","exclusion_reason"
"AJNQ2PBD07FKE","Mon Nov 02 2020 09:05:23 GMT-0500 (Eastern Standard Time)","Mon Nov 02 2020 09:23:25 GMT-0500 (Eastern Standard Time)","Mozilla/5.0 (Macintosh; Intel Mac OS X 10_15_7) AppleWebKit/537.36 (KHTML, like Gecko) Chrome/86.0.4240.75 Safari/537.36",1,"[0.9, 0.5, 0.1]","[0.8, 0.4, 0.2]","[u'black', u'red', u'blue']","[u'left', u'middle', u'right']","[0.9, 0.5, 0.1]","[u'high', u'medium', u'low']","black",49,"left","high","True","False",920,100,NA
"AJNQ2PBD07FKE","Mon Nov 02 2020 09:05:23 GMT-0500 (Eastern Standard Time)","Mon Nov 02 2020 09:23:25 GMT-0500 (Eastern Standard Time)","Mozilla/5.0 (Macintosh; Intel Mac OS X 10_15_7) AppleWebKit/537.36 (KHTML, like Gecko) Chrome/86.0.4240.75 Safari/537.36",2,"[0.9, 0.5, 0.1]","[0.8, 0.4, 0.2]","[u'black', u'red', u'blue']","[u'left', u'middle', u'right']","[0.9, 0.5, 0.1]","[u'high', u'medium', u'low']","blue",51,"right","low","False","False",972,50,NA
"AJNQ2PBD07FKE","Mon Nov 02 2020 09:05:23 GMT-0500 (Eastern Standard Time)","Mon Nov 02 2020 09:23:25 GMT-0500 (Eastern Standard Time)","Mozilla/5.0 (Macintosh; Intel Mac OS X 10_15_7) AppleWebKit/537.36 (KHTML, like Gecko) Chrome/86.0.4240.75 Safari/537.36",3,"[0.9, 0.5, 0.1]","[0.8, 0.4, 0.2]","[u'black', u'red', u'blue']","[u'left', u'middle', u'right']","[0.9, 0.5, 0.1]","[u'high', u'medium', u'low']","red",50,"middle","medium","True","False",321,150,NA
"AJNQ2PBD07FKE","Mon Nov 02 2020 09:05:23 GMT-0500 (Eastern Standard Time)","Mon Nov 02 2020 09:23:25 GMT-0500 (Eastern Standard Time)","Mozilla/5.0 (Macintosh; Intel Mac OS X 10_15_7) AppleWebKit/537.36 (KHTML, like Gecko) Chrome/86.0.4240.75 Safari/537.36",4,"[0.9, 0.5, 0.1]","[0.8, 0.4, 0.2]","[u'black', u'red', u'blue']","[u'left', u'middle', u'right']","[0.9, 0.5, 0.1]","[u'high', u'medium', u'low']","black",49,"left","high","True","False",360,250,NA
"AJNQ2PBD07FKE","Mon Nov 02 2020 09:05:23 GMT-0500 (Eastern Standard Time)","Mon Nov 02 2020 09:23:25 GMT-0500 (Eastern Standard Time)","Mozilla/5.0 (Macintosh; Intel Mac OS X 10_15_7) AppleWebKit/537.36 (KHTML, like Gecko) Chrome/86.0.4240.75 Safari/537.36",5,"[0.9, 0.5, 0.1]","[0.8, 0.4, 0.2]","[u'black', u'red', u'blue']","[u'left', u'middle', u'right']","[0.9, 0.5, 0.1]","[u'high', u'medium', u'low']","black",49,"left","high","True","False",373,350,NA
"AJNQ2PBD07FKE","Mon Nov 02 2020 09:05:23 GMT-0500 (Eastern Standard Time)","Mon Nov 02 2020 09:23:25 GMT-0500 (Eastern Standard Time)","Mozilla/5.0 (Macintosh; Intel Mac OS X 10_15_7) AppleWebKit/537.36 (KHTML, like Gecko) Chrome/86.0.4240.75 Safari/537.36",6,"[0.9, 0.5, 0.1]","[0.8, 0.4, 0.2]","[u'black', u'red', u'blue']","[u'left', u'middle', u'right']","[0.9, 0.5, 0.1]","[u'high', u'medium', u'low']","black",49,"left","high","True","False",433,450,NA
"AJNQ2PBD07FKE","Mon Nov 02 2020 09:05:23 GMT-0500 (Eastern Standard Time)","Mon Nov 02 2020 09:23:25 GMT-0500 (Eastern Standard Time)","Mozilla/5.0 (Macintosh; Intel Mac OS X 10_15_7) AppleWebKit/537.36 (KHTML, like Gecko) Chrome/86.0.4240.75 Safari/537.36",7,"[0.9, 0.5, 0.1]","[0.8, 0.4, 0.2]","[u'black', u'red', u'blue']","[u'left', u'middle', u'right']","[0.9, 0.5, 0.1]","[u'high', u'medium', u'low']","black",49,"left","high","False","False",375,400,NA
"AJNQ2PBD07FKE","Mon Nov 02 2020 09:05:23 GMT-0500 (Eastern Standard Time)","Mon Nov 02 2020 09:23:25 GMT-0500 (Eastern Standard Time)","Mozilla/5.0 (Macintosh; Intel Mac OS X 10_15_7) AppleWebKit/537.36 (KHTML, like Gecko) Chrome/86.0.4240.75 Safari/537.36",8,"[0.9, 0.5, 0.1]","[0.8, 0.4, 0.2]","[u'black', u'red', u'blue']","[u'left', u'middle', u'right']","[0.9, 0.5, 0.1]","[u'high', u'medium', u'low']","red",50,"middle","medium","False","False",281,350,NA
"AJNQ2PBD07FKE","Mon Nov 02 2020 09:05:23 GMT-0500 (Eastern Standard Time)","Mon Nov 02 2020 09:23:25 GMT-0500 (Eastern Standard Time)","Mozilla/5.0 (Macintosh; Intel Mac OS X 10_15_7) AppleWebKit/537.36 (KHTML, like Gecko) Chrome/86.0.4240.75 Safari/537.36",9,"[0.9, 0.5, 0.1]","[0.8, 0.4, 0.2]","[u'black', u'red', u'blue']","[u'left', u'middle', u'right']","[0.9, 0.5, 0.1]","[u'high', u'medium', u'low']","black",49,"left","high","True","False",255,450,NA
"AJNQ2PBD07FKE","Mon Nov 02 2020 09:05:23 GMT-0500 (Eastern Standard Time)","Mon Nov 02 2020 09:23:25 GMT-0500 (Eastern Standard Time)","Mozilla/5.0 (Macintosh; Intel Mac OS X 10_15_7) AppleWebKit/537.36 (KHTML, like Gecko) Chrome/86.0.4240.75 Safari/537.36",10,"[0.9, 0.5, 0.1]","[0.8, 0.4, 0.2]","[u'black', u'red', u'blue']","[u'left', u'middle', u'right']","[0.9, 0.5, 0.1]","[u'high', u'medium', u'low']","black",49,"left","high","True","False",439,550,NA
"AJNQ2PBD07FKE","Mon Nov 02 2020 09:05:23 GMT-0500 (Eastern Standard Time)","Mon Nov 02 2020 09:23:25 GMT-0500 (Eastern Standard Time)","Mozilla/5.0 (Macintosh; Intel Mac OS X 10_15_7) AppleWebKit/537.36 (KHTML, like Gecko) Chrome/86.0.4240.75 Safari/537.36",11,"[0.9, 0.5, 0.1]","[0.8, 0.4, 0.2]","[u'black', u'red', u'blue']","[u'left', u'middle', u'right']","[0.9, 0.5, 0.1]","[u'high', u'medium', u'low']","black",49,"left","high","True","False",418,650,NA
"AJNQ2PBD07FKE","Mon Nov 02 2020 09:05:23 GMT-0500 (Eastern Standard Time)","Mon Nov 02 2020 09:23:25 GMT-0500 (Eastern Standard Time)","Mozilla/5.0 (Macintosh; Intel Mac OS X 10_15_7) AppleWebKit/537.36 (KHTML, like Gecko) Chrome/86.0.4240.75 Safari/537.36",12,"[0.9, 0.5, 0.1]","[0.8, 0.4, 0.2]","[u'black', u'red', u'blue']","[u'left', u'middle', u'right']","[0.9, 0.5, 0.1]","[u'high', u'medium', u'low']","black",49,"left","high","False","False",506,600,NA
"AJNQ2PBD07FKE","Mon Nov 02 2020 09:05:23 GMT-0500 (Eastern Standard Time)","Mon Nov 02 2020 09:23:25 GMT-0500 (Eastern Standard Time)","Mozilla/5.0 (Macintosh; Intel Mac OS X 10_15_7) AppleWebKit/537.36 (KHTML, like Gecko) Chrome/86.0.4240.75 Safari/537.36",13,"[0.9, 0.5, 0.1]","[0.8, 0.4, 0.2]","[u'black', u'red', u'blue']","[u'left', u'middle', u'right']","[0.9, 0.5, 0.1]","[u'high', u'medium', u'low']","red",50,"middle","medium","False","False",287,550,NA
"AJNQ2PBD07FKE","Mon Nov 02 2020 09:05:23 GMT-0500 (Eastern Standard Time)","Mon Nov 02 2020 09:23:25 GMT-0500 (Eastern Standard Time)","Mozilla/5.0 (Macintosh; Intel Mac OS X 10_15_7) AppleWebKit/537.36 (KHTML, like Gecko) Chrome/86.0.4240.75 Safari/537.36",14,"[0.9, 0.5, 0.1]","[0.8, 0.4, 0.2]","[u'black', u'red', u'blue']","[u'left', u'middle', u'right']","[0.9, 0.5, 0.1]","[u'high', u'medium', u'low']","black",49,"left","high","True","False",260,650,NA
"AJNQ2PBD07FKE","Mon Nov 02 2020 09:05:23 GMT-0500 (Eastern Standard Time)","Mon Nov 02 2020 09:23:25 GMT-0500 (Eastern Standard Time)","Mozilla/5.0 (Macintosh; Intel Mac OS X 10_15_7) AppleWebKit/537.36 (KHTML, like Gecko) Chrome/86.0.4240.75 Safari/537.36",15,"[0.9, 0.5, 0.1]","[0.8, 0.4, 0.2]","[u'black', u'red', u'blue']","[u'left', u'middle', u'right']","[0.9, 0.5, 0.1]","[u'high', u'medium', u'low']","black",49,"left","high","True","False",386,750,NA
"AJNQ2PBD07FKE","Mon Nov 02 2020 09:05:23 GMT-0500 (Eastern Standard Time)","Mon Nov 02 2020 09:23:25 GMT-0500 (Eastern Standard Time)","Mozilla/5.0 (Macintosh; Intel Mac OS X 10_15_7) AppleWebKit/537.36 (KHTML, like Gecko) Chrome/86.0.4240.75 Safari/537.36",16,"[0.9, 0.5, 0.1]","[0.8, 0.4, 0.2]","[u'black', u'red', u'blue']","[u'left', u'middle', u'right']","[0.9, 0.5, 0.1]","[u'high', u'medium', u'low']","black",49,"left","high","True","False",442,850,NA
"AJNQ2PBD07FKE","Mon Nov 02 2020 09:05:23 GMT-0500 (Eastern Standard Time)","Mon Nov 02 2020 09:23:25 GMT-0500 (Eastern Standard Time)","Mozilla/5.0 (Macintosh; Intel Mac OS X 10_15_7) AppleWebKit/537.36 (KHTML, like Gecko) Chrome/86.0.4240.75 Safari/537.36",17,"[0.9, 0.5, 0.1]","[0.8, 0.4, 0.2]","[u'black', u'red', u'blue']","[u'left', u'middle', u'right']","[0.9, 0.5, 0.1]","[u'high', u'medium', u'low']","black",49,"left","high","True","False",414,950,NA
"AJNQ2PBD07FKE","Mon Nov 02 2020 09:05:23 GMT-0500 (Eastern Standard Time)","Mon Nov 02 2020 09:23:25 GMT-0500 (Eastern Standard Time)","Mozilla/5.0 (Macintosh; Intel Mac OS X 10_15_7) AppleWebKit/537.36 (KHTML, like Gecko) Chrome/86.0.4240.75 Safari/537.36",18,"[0.9, 0.5, 0.1]","[0.8, 0.4, 0.2]","[u'black', u'red', u'blue']","[u'left', u'middle', u'right']","[0.9, 0.5, 0.1]","[u'high', u'medium', u'low']","black",49,"left","high","True","False",424,1050,NA
"AJNQ2PBD07FKE","Mon Nov 02 2020 09:05:23 GMT-0500 (Eastern Standard Time)","Mon Nov 02 2020 09:23:25 GMT-0500 (Eastern Standard Time)","Mozilla/5.0 (Macintosh; Intel Mac OS X 10_15_7) AppleWebKit/537.36 (KHTML, like Gecko) Chrome/86.0.4240.75 Safari/537.36",19,"[0.9, 0.5, 0.1]","[0.8, 0.4, 0.2]","[u'black', u'red', u'blue']","[u'left', u'middle', u'right']","[0.9, 0.5, 0.1]","[u'high', u'medium', u'low']","black",49,"left","high","True","False",340,1150,NA
"AJNQ2PBD07FKE","Mon Nov 02 2020 09:05:23 GMT-0500 (Eastern Standard Time)","Mon Nov 02 2020 09:23:25 GMT-0500 (Eastern Standard Time)","Mozilla/5.0 (Macintosh; Intel Mac OS X 10_15_7) AppleWebKit/537.36 (KHTML, like Gecko) Chrome/86.0.4240.75 Safari/537.36",20,"[0.9, 0.5, 0.1]","[0.8, 0.4, 0.2]","[u'black', u'red', u'blue']","[u'left', u'middle', u'right']","[0.9, 0.5, 0.1]","[u'high', u'medium', u'low']","black",49,"left","high","True","False",476,1250,NA
"AJNQ2PBD07FKE","Mon Nov 02 2020 09:05:23 GMT-0500 (Eastern Standard Time)","Mon Nov 02 2020 09:23:25 GMT-0500 (Eastern Standard Time)","Mozilla/5.0 (Macintosh; Intel Mac OS X 10_15_7) AppleWebKit/537.36 (KHTML, like Gecko) Chrome/86.0.4240.75 Safari/537.36",21,"[0.9, 0.5, 0.1]","[0.8, 0.4, 0.2]","[u'black', u'red', u'blue']","[u'left', u'middle', u'right']","[0.9, 0.5, 0.1]","[u'high', u'medium', u'low']","black",49,"left","high","False","False",353,1200,NA
"AJNQ2PBD07FKE","Mon Nov 02 2020 09:05:23 GMT-0500 (Eastern Standard Time)","Mon Nov 02 2020 09:23:25 GMT-0500 (Eastern Standard Time)","Mozilla/5.0 (Macintosh; Intel Mac OS X 10_15_7) AppleWebKit/537.36 (KHTML, like Gecko) Chrome/86.0.4240.75 Safari/537.36",22,"[0.9, 0.5, 0.1]","[0.8, 0.4, 0.2]","[u'black', u'red', u'blue']","[u'left', u'middle', u'right']","[0.9, 0.5, 0.1]","[u'high', u'medium', u'low']","black",49,"left","high","True","True",402,1300,NA
"AJNQ2PBD07FKE","Mon Nov 02 2020 09:05:23 GMT-0500 (Eastern Standard Time)","Mon Nov 02 2020 09:23:25 GMT-0500 (Eastern Standard Time)","Mozilla/5.0 (Macintosh; Intel Mac OS X 10_15_7) AppleWebKit/537.36 (KHTML, like Gecko) Chrome/86.0.4240.75 Safari/537.36",23,"[0.9, 0.5, 0.1]","[0.8, 0.4, 0.2]","[u'black', u'red', u'blue']","[u'left', u'middle', u'right']","[0.9, 0.5, 0.1]","[u'medium', u'low', u'high']","black",49,"left","medium","False","False",443,1250,NA
"AJNQ2PBD07FKE","Mon Nov 02 2020 09:05:23 GMT-0500 (Eastern Standard Time)","Mon Nov 02 2020 09:23:25 GMT-0500 (Eastern Standard Time)","Mozilla/5.0 (Macintosh; Intel Mac OS X 10_15_7) AppleWebKit/537.36 (KHTML, like Gecko) Chrome/86.0.4240.75 Safari/537.36",24,"[0.9, 0.5, 0.1]","[0.8, 0.4, 0.2]","[u'black', u'red', u'blue']","[u'left', u'middle', u'right']","[0.9, 0.5, 0.1]","[u'medium', u'low', u'high']","black",49,"left","medium","False","False",471,1200,NA
"AJNQ2PBD07FKE","Mon Nov 02 2020 09:05:23 GMT-0500 (Eastern Standard Time)","Mon Nov 02 2020 09:23:25 GMT-0500 (Eastern Standard Time)","Mozilla/5.0 (Macintosh; Intel Mac OS X 10_15_7) AppleWebKit/537.36 (KHTML, like Gecko) Chrome/86.0.4240.75 Safari/537.36",25,"[0.9, 0.5, 0.1]","[0.8, 0.4, 0.2]","[u'black', u'red', u'blue']","[u'left', u'middle', u'right']","[0.9, 0.5, 0.1]","[u'medium', u'low', u'high']","red",50,"middle","low","False","False",228,1150,NA
"AJNQ2PBD07FKE","Mon Nov 02 2020 09:05:23 GMT-0500 (Eastern Standard Time)","Mon Nov 02 2020 09:23:25 GMT-0500 (Eastern Standard Time)","Mozilla/5.0 (Macintosh; Intel Mac OS X 10_15_7) AppleWebKit/537.36 (KHTML, like Gecko) Chrome/86.0.4240.75 Safari/537.36",26,"[0.9, 0.5, 0.1]","[0.8, 0.4, 0.2]","[u'black', u'red', u'blue']","[u'left', u'middle', u'right']","[0.9, 0.5, 0.1]","[u'medium', u'low', u'high']","red",50,"middle","low","False","False",257,1100,NA
"AJNQ2PBD07FKE","Mon Nov 02 2020 09:05:23 GMT-0500 (Eastern Standard Time)","Mon Nov 02 2020 09:23:25 GMT-0500 (Eastern Standard Time)","Mozilla/5.0 (Macintosh; Intel Mac OS X 10_15_7) AppleWebKit/537.36 (KHTML, like Gecko) Chrome/86.0.4240.75 Safari/537.36",27,"[0.9, 0.5, 0.1]","[0.8, 0.4, 0.2]","[u'black', u'red', u'blue']","[u'left', u'middle', u'right']","[0.9, 0.5, 0.1]","[u'medium', u'low', u'high']","blue",51,"right","high","True","False",254,1200,NA
"AJNQ2PBD07FKE","Mon Nov 02 2020 09:05:23 GMT-0500 (Eastern Standard Time)","Mon Nov 02 2020 09:23:25 GMT-0500 (Eastern Standard Time)","Mozilla/5.0 (Macintosh; Intel Mac OS X 10_15_7) AppleWebKit/537.36 (KHTML, like Gecko) Chrome/86.0.4240.75 Safari/537.36",28,"[0.9, 0.5, 0.1]","[0.8, 0.4, 0.2]","[u'black', u'red', u'blue']","[u'left', u'middle', u'right']","[0.9, 0.5, 0.1]","[u'medium', u'low', u'high']","blue",51,"right","high","True","False",364,1300,NA
"AJNQ2PBD07FKE","Mon Nov 02 2020 09:05:23 GMT-0500 (Eastern Standard Time)","Mon Nov 02 2020 09:23:25 GMT-0500 (Eastern Standard Time)","Mozilla/5.0 (Macintosh; Intel Mac OS X 10_15_7) AppleWebKit/537.36 (KHTML, like Gecko) Chrome/86.0.4240.75 Safari/537.36",29,"[0.9, 0.5, 0.1]","[0.8, 0.4, 0.2]","[u'black', u'red', u'blue']","[u'left', u'middle', u'right']","[0.9, 0.5, 0.1]","[u'medium', u'low', u'high']","blue",51,"right","high","True","False",351,1400,NA
"AJNQ2PBD07FKE","Mon Nov 02 2020 09:05:23 GMT-0500 (Eastern Standard Time)","Mon Nov 02 2020 09:23:25 GMT-0500 (Eastern Standard Time)","Mozilla/5.0 (Macintosh; Intel Mac OS X 10_15_7) AppleWebKit/537.36 (KHTML, like Gecko) Chrome/86.0.4240.75 Safari/537.36",30,"[0.9, 0.5, 0.1]","[0.8, 0.4, 0.2]","[u'black', u'red', u'blue']","[u'left', u'middle', u'right']","[0.9, 0.5, 0.1]","[u'medium', u'low', u'high']","blue",51,"right","high","False","False",339,1350,NA
"AJNQ2PBD07FKE","Mon Nov 02 2020 09:05:23 GMT-0500 (Eastern Standard Time)","Mon Nov 02 2020 09:23:25 GMT-0500 (Eastern Standard Time)","Mozilla/5.0 (Macintosh; Intel Mac OS X 10_15_7) AppleWebKit/537.36 (KHTML, like Gecko) Chrome/86.0.4240.75 Safari/537.36",31,"[0.9, 0.5, 0.1]","[0.8, 0.4, 0.2]","[u'black', u'red', u'blue']","[u'left', u'middle', u'right']","[0.9, 0.5, 0.1]","[u'medium', u'low', u'high']","blue",51,"right","high","True","False",332,1450,NA
"AJNQ2PBD07FKE","Mon Nov 02 2020 09:05:23 GMT-0500 (Eastern Standard Time)","Mon Nov 02 2020 09:23:25 GMT-0500 (Eastern Standard Time)","Mozilla/5.0 (Macintosh; Intel Mac OS X 10_15_7) AppleWebKit/537.36 (KHTML, like Gecko) Chrome/86.0.4240.75 Safari/537.36",32,"[0.9, 0.5, 0.1]","[0.8, 0.4, 0.2]","[u'black', u'red', u'blue']","[u'left', u'middle', u'right']","[0.9, 0.5, 0.1]","[u'medium', u'low', u'high']","blue",51,"right","high","True","False",417,1550,NA
"AJNQ2PBD07FKE","Mon Nov 02 2020 09:05:23 GMT-0500 (Eastern Standard Time)","Mon Nov 02 2020 09:23:25 GMT-0500 (Eastern Standard Time)","Mozilla/5.0 (Macintosh; Intel Mac OS X 10_15_7) AppleWebKit/537.36 (KHTML, like Gecko) Chrome/86.0.4240.75 Safari/537.36",33,"[0.9, 0.5, 0.1]","[0.8, 0.4, 0.2]","[u'black', u'red', u'blue']","[u'left', u'middle', u'right']","[0.9, 0.5, 0.1]","[u'medium', u'low', u'high']","blue",51,"right","high","True","False",368,1650,NA
"AJNQ2PBD07FKE","Mon Nov 02 2020 09:05:23 GMT-0500 (Eastern Standard Time)","Mon Nov 02 2020 09:23:25 GMT-0500 (Eastern Standard Time)","Mozilla/5.0 (Macintosh; Intel Mac OS X 10_15_7) AppleWebKit/537.36 (KHTML, like Gecko) Chrome/86.0.4240.75 Safari/537.36",34,"[0.9, 0.5, 0.1]","[0.8, 0.4, 0.2]","[u'black', u'red', u'blue']","[u'left', u'middle', u'right']","[0.9, 0.5, 0.1]","[u'medium', u'low', u'high']","blue",51,"right","high","True","False",597,1750,NA
"AJNQ2PBD07FKE","Mon Nov 02 2020 09:05:23 GMT-0500 (Eastern Standard Time)","Mon Nov 02 2020 09:23:25 GMT-0500 (Eastern Standard Time)","Mozilla/5.0 (Macintosh; Intel Mac OS X 10_15_7) AppleWebKit/537.36 (KHTML, like Gecko) Chrome/86.0.4240.75 Safari/537.36",35,"[0.9, 0.5, 0.1]","[0.8, 0.4, 0.2]","[u'black', u'red', u'blue']","[u'left', u'middle', u'right']","[0.9, 0.5, 0.1]","[u'medium', u'low', u'high']","blue",51,"right","high","True","True",437,1850,NA
"AJNQ2PBD07FKE","Mon Nov 02 2020 09:05:23 GMT-0500 (Eastern Standard Time)","Mon Nov 02 2020 09:23:25 GMT-0500 (Eastern Standard Time)","Mozilla/5.0 (Macintosh; Intel Mac OS X 10_15_7) AppleWebKit/537.36 (KHTML, like Gecko) Chrome/86.0.4240.75 Safari/537.36",36,"[0.9, 0.5, 0.1]","[0.8, 0.4, 0.2]","[u'black', u'red', u'blue']","[u'left', u'middle', u'right']","[0.9, 0.5, 0.1]","[u'high', u'medium', u'low']","blue",51,"right","low","False","False",755,1800,NA
"AJNQ2PBD07FKE","Mon Nov 02 2020 09:05:23 GMT-0500 (Eastern Standard Time)","Mon Nov 02 2020 09:23:25 GMT-0500 (Eastern Standard Time)","Mozilla/5.0 (Macintosh; Intel Mac OS X 10_15_7) AppleWebKit/537.36 (KHTML, like Gecko) Chrome/86.0.4240.75 Safari/537.36",37,"[0.9, 0.5, 0.1]","[0.8, 0.4, 0.2]","[u'black', u'red', u'blue']","[u'left', u'middle', u'right']","[0.9, 0.5, 0.1]","[u'high', u'medium', u'low']","blue",51,"right","low","False","False",174540,1750,NA
"AJNQ2PBD07FKE","Mon Nov 02 2020 09:05:23 GMT-0500 (Eastern Standard Time)","Mon Nov 02 2020 09:23:25 GMT-0500 (Eastern Standard Time)","Mozilla/5.0 (Macintosh; Intel Mac OS X 10_15_7) AppleWebKit/537.36 (KHTML, like Gecko) Chrome/86.0.4240.75 Safari/537.36",38,"[0.9, 0.5, 0.1]","[0.8, 0.4, 0.2]","[u'black', u'red', u'blue']","[u'left', u'middle', u'right']","[0.9, 0.5, 0.1]","[u'high', u'medium', u'low']","blue",51,"right","low","True","False",427,1850,NA
"AJNQ2PBD07FKE","Mon Nov 02 2020 09:05:23 GMT-0500 (Eastern Standard Time)","Mon Nov 02 2020 09:23:25 GMT-0500 (Eastern Standard Time)","Mozilla/5.0 (Macintosh; Intel Mac OS X 10_15_7) AppleWebKit/537.36 (KHTML, like Gecko) Chrome/86.0.4240.75 Safari/537.36",39,"[0.9, 0.5, 0.1]","[0.8, 0.4, 0.2]","[u'black', u'red', u'blue']","[u'left', u'middle', u'right']","[0.9, 0.5, 0.1]","[u'high', u'medium', u'low']","blue",51,"right","low","False","False",324,1800,NA
"AJNQ2PBD07FKE","Mon Nov 02 2020 09:05:23 GMT-0500 (Eastern Standard Time)","Mon Nov 02 2020 09:23:25 GMT-0500 (Eastern Standard Time)","Mozilla/5.0 (Macintosh; Intel Mac OS X 10_15_7) AppleWebKit/537.36 (KHTML, like Gecko) Chrome/86.0.4240.75 Safari/537.36",40,"[0.9, 0.5, 0.1]","[0.8, 0.4, 0.2]","[u'black', u'red', u'blue']","[u'left', u'middle', u'right']","[0.9, 0.5, 0.1]","[u'high', u'medium', u'low']","blue",51,"right","low","False","False",278,1750,NA
"AJNQ2PBD07FKE","Mon Nov 02 2020 09:05:23 GMT-0500 (Eastern Standard Time)","Mon Nov 02 2020 09:23:25 GMT-0500 (Eastern Standard Time)","Mozilla/5.0 (Macintosh; Intel Mac OS X 10_15_7) AppleWebKit/537.36 (KHTML, like Gecko) Chrome/86.0.4240.75 Safari/537.36",41,"[0.9, 0.5, 0.1]","[0.8, 0.4, 0.2]","[u'black', u'red', u'blue']","[u'left', u'middle', u'right']","[0.9, 0.5, 0.1]","[u'low', u'high', u'medium']","red",50,"middle","high","True","False",342,1850,NA
"AJNQ2PBD07FKE","Mon Nov 02 2020 09:05:23 GMT-0500 (Eastern Standard Time)","Mon Nov 02 2020 09:23:25 GMT-0500 (Eastern Standard Time)","Mozilla/5.0 (Macintosh; Intel Mac OS X 10_15_7) AppleWebKit/537.36 (KHTML, like Gecko) Chrome/86.0.4240.75 Safari/537.36",42,"[0.9, 0.5, 0.1]","[0.8, 0.4, 0.2]","[u'black', u'red', u'blue']","[u'left', u'middle', u'right']","[0.9, 0.5, 0.1]","[u'low', u'high', u'medium']","red",50,"middle","high","True","False",299,1950,NA
"AJNQ2PBD07FKE","Mon Nov 02 2020 09:05:23 GMT-0500 (Eastern Standard Time)","Mon Nov 02 2020 09:23:25 GMT-0500 (Eastern Standard Time)","Mozilla/5.0 (Macintosh; Intel Mac OS X 10_15_7) AppleWebKit/537.36 (KHTML, like Gecko) Chrome/86.0.4240.75 Safari/537.36",43,"[0.9, 0.5, 0.1]","[0.8, 0.4, 0.2]","[u'black', u'red', u'blue']","[u'left', u'middle', u'right']","[0.9, 0.5, 0.1]","[u'low', u'high', u'medium']","red",50,"middle","high","True","False",395,2050,NA
"AJNQ2PBD07FKE","Mon Nov 02 2020 09:05:23 GMT-0500 (Eastern Standard Time)","Mon Nov 02 2020 09:23:25 GMT-0500 (Eastern Standard Time)","Mozilla/5.0 (Macintosh; Intel Mac OS X 10_15_7) AppleWebKit/537.36 (KHTML, like Gecko) Chrome/86.0.4240.75 Safari/537.36",44,"[0.9, 0.5, 0.1]","[0.8, 0.4, 0.2]","[u'black', u'red', u'blue']","[u'left', u'middle', u'right']","[0.9, 0.5, 0.1]","[u'low', u'high', u'medium']","red",50,"middle","high","True","False",306,2150,NA
"AJNQ2PBD07FKE","Mon Nov 02 2020 09:05:23 GMT-0500 (Eastern Standard Time)","Mon Nov 02 2020 09:23:25 GMT-0500 (Eastern Standard Time)","Mozilla/5.0 (Macintosh; Intel Mac OS X 10_15_7) AppleWebKit/537.36 (KHTML, like Gecko) Chrome/86.0.4240.75 Safari/537.36",45,"[0.9, 0.5, 0.1]","[0.8, 0.4, 0.2]","[u'black', u'red', u'blue']","[u'left', u'middle', u'right']","[0.9, 0.5, 0.1]","[u'low', u'high', u'medium']","red",50,"middle","high","True","False",342,2250,NA
"AJNQ2PBD07FKE","Mon Nov 02 2020 09:05:23 GMT-0500 (Eastern Standard Time)","Mon Nov 02 2020 09:23:25 GMT-0500 (Eastern Standard Time)","Mozilla/5.0 (Macintosh; Intel Mac OS X 10_15_7) AppleWebKit/537.36 (KHTML, like Gecko) Chrome/86.0.4240.75 Safari/537.36",46,"[0.9, 0.5, 0.1]","[0.8, 0.4, 0.2]","[u'black', u'red', u'blue']","[u'left', u'middle', u'right']","[0.9, 0.5, 0.1]","[u'low', u'high', u'medium']","red",50,"middle","high","True","False",609,2350,NA
"AJNQ2PBD07FKE","Mon Nov 02 2020 09:05:23 GMT-0500 (Eastern Standard Time)","Mon Nov 02 2020 09:23:25 GMT-0500 (Eastern Standard Time)","Mozilla/5.0 (Macintosh; Intel Mac OS X 10_15_7) AppleWebKit/537.36 (KHTML, like Gecko) Chrome/86.0.4240.75 Safari/537.36",47,"[0.9, 0.5, 0.1]","[0.8, 0.4, 0.2]","[u'black', u'red', u'blue']","[u'left', u'middle', u'right']","[0.9, 0.5, 0.1]","[u'low', u'high', u'medium']","red",50,"middle","high","True","False",796,2450,NA
"AJNQ2PBD07FKE","Mon Nov 02 2020 09:05:23 GMT-0500 (Eastern Standard Time)","Mon Nov 02 2020 09:23:25 GMT-0500 (Eastern Standard Time)","Mozilla/5.0 (Macintosh; Intel Mac OS X 10_15_7) AppleWebKit/537.36 (KHTML, like Gecko) Chrome/86.0.4240.75 Safari/537.36",48,"[0.9, 0.5, 0.1]","[0.8, 0.4, 0.2]","[u'black', u'red', u'blue']","[u'left', u'middle', u'right']","[0.9, 0.5, 0.1]","[u'low', u'high', u'medium']","red",50,"middle","high","False","False",420,2400,NA
"AJNQ2PBD07FKE","Mon Nov 02 2020 09:05:23 GMT-0500 (Eastern Standard Time)","Mon Nov 02 2020 09:23:25 GMT-0500 (Eastern Standard Time)","Mozilla/5.0 (Macintosh; Intel Mac OS X 10_15_7) AppleWebKit/537.36 (KHTML, like Gecko) Chrome/86.0.4240.75 Safari/537.36",49,"[0.9, 0.5, 0.1]","[0.8, 0.4, 0.2]","[u'black', u'red', u'blue']","[u'left', u'middle', u'right']","[0.9, 0.5, 0.1]","[u'low', u'high', u'medium']","red",50,"middle","high","False","True",227,2350,NA
"AJNQ2PBD07FKE","Mon Nov 02 2020 09:05:23 GMT-0500 (Eastern Standard Time)","Mon Nov 02 2020 09:23:25 GMT-0500 (Eastern Standard Time)","Mozilla/5.0 (Macintosh; Intel Mac OS X 10_15_7) AppleWebKit/537.36 (KHTML, like Gecko) Chrome/86.0.4240.75 Safari/537.36",50,"[0.9, 0.5, 0.1]","[0.8, 0.4, 0.2]","[u'black', u'red', u'blue']","[u'left', u'middle', u'right']","[0.9, 0.5, 0.1]","[u'medium', u'low', u'high']","black",49,"left","medium","True","False",207,2450,NA
"AJNQ2PBD07FKE","Mon Nov 02 2020 09:05:23 GMT-0500 (Eastern Standard Time)","Mon Nov 02 2020 09:23:25 GMT-0500 (Eastern Standard Time)","Mozilla/5.0 (Macintosh; Intel Mac OS X 10_15_7) AppleWebKit/537.36 (KHTML, like Gecko) Chrome/86.0.4240.75 Safari/537.36",51,"[0.9, 0.5, 0.1]","[0.8, 0.4, 0.2]","[u'black', u'red', u'blue']","[u'left', u'middle', u'right']","[0.9, 0.5, 0.1]","[u'medium', u'low', u'high']","black",49,"left","medium","True","False",234,2550,NA
"AJNQ2PBD07FKE","Mon Nov 02 2020 09:05:23 GMT-0500 (Eastern Standard Time)","Mon Nov 02 2020 09:23:25 GMT-0500 (Eastern Standard Time)","Mozilla/5.0 (Macintosh; Intel Mac OS X 10_15_7) AppleWebKit/537.36 (KHTML, like Gecko) Chrome/86.0.4240.75 Safari/537.36",52,"[0.9, 0.5, 0.1]","[0.8, 0.4, 0.2]","[u'black', u'red', u'blue']","[u'left', u'middle', u'right']","[0.9, 0.5, 0.1]","[u'medium', u'low', u'high']","black",49,"left","medium","False","False",588,2500,NA
"AJNQ2PBD07FKE","Mon Nov 02 2020 09:05:23 GMT-0500 (Eastern Standard Time)","Mon Nov 02 2020 09:23:25 GMT-0500 (Eastern Standard Time)","Mozilla/5.0 (Macintosh; Intel Mac OS X 10_15_7) AppleWebKit/537.36 (KHTML, like Gecko) Chrome/86.0.4240.75 Safari/537.36",53,"[0.9, 0.5, 0.1]","[0.8, 0.4, 0.2]","[u'black', u'red', u'blue']","[u'left', u'middle', u'right']","[0.9, 0.5, 0.1]","[u'medium', u'low', u'high']","black",49,"left","medium","True","False",282,2600,NA
"AJNQ2PBD07FKE","Mon Nov 02 2020 09:05:23 GMT-0500 (Eastern Standard Time)","Mon Nov 02 2020 09:23:25 GMT-0500 (Eastern Standard Time)","Mozilla/5.0 (Macintosh; Intel Mac OS X 10_15_7) AppleWebKit/537.36 (KHTML, like Gecko) Chrome/86.0.4240.75 Safari/537.36",54,"[0.9, 0.5, 0.1]","[0.8, 0.4, 0.2]","[u'black', u'red', u'blue']","[u'left', u'middle', u'right']","[0.9, 0.5, 0.1]","[u'medium', u'low', u'high']","black",49,"left","medium","False","False",261,2550,NA
"AJNQ2PBD07FKE","Mon Nov 02 2020 09:05:23 GMT-0500 (Eastern Standard Time)","Mon Nov 02 2020 09:23:25 GMT-0500 (Eastern Standard Time)","Mozilla/5.0 (Macintosh; Intel Mac OS X 10_15_7) AppleWebKit/537.36 (KHTML, like Gecko) Chrome/86.0.4240.75 Safari/537.36",55,"[0.9, 0.5, 0.1]","[0.8, 0.4, 0.2]","[u'black', u'red', u'blue']","[u'left', u'middle', u'right']","[0.9, 0.5, 0.1]","[u'medium', u'low', u'high']","black",49,"left","medium","False","False",204,2500,NA
"AJNQ2PBD07FKE","Mon Nov 02 2020 09:05:23 GMT-0500 (Eastern Standard Time)","Mon Nov 02 2020 09:23:25 GMT-0500 (Eastern Standard Time)","Mozilla/5.0 (Macintosh; Intel Mac OS X 10_15_7) AppleWebKit/537.36 (KHTML, like Gecko) Chrome/86.0.4240.75 Safari/537.36",56,"[0.9, 0.5, 0.1]","[0.8, 0.4, 0.2]","[u'black', u'red', u'blue']","[u'left', u'middle', u'right']","[0.9, 0.5, 0.1]","[u'medium', u'low', u'high']","blue",51,"right","high","True","False",341,2600,NA
"AJNQ2PBD07FKE","Mon Nov 02 2020 09:05:23 GMT-0500 (Eastern Standard Time)","Mon Nov 02 2020 09:23:25 GMT-0500 (Eastern Standard Time)","Mozilla/5.0 (Macintosh; Intel Mac OS X 10_15_7) AppleWebKit/537.36 (KHTML, like Gecko) Chrome/86.0.4240.75 Safari/537.36",57,"[0.9, 0.5, 0.1]","[0.8, 0.4, 0.2]","[u'black', u'red', u'blue']","[u'left', u'middle', u'right']","[0.9, 0.5, 0.1]","[u'medium', u'low', u'high']","blue",51,"right","high","True","False",226,2700,NA
"AJNQ2PBD07FKE","Mon Nov 02 2020 09:05:23 GMT-0500 (Eastern Standard Time)","Mon Nov 02 2020 09:23:25 GMT-0500 (Eastern Standard Time)","Mozilla/5.0 (Macintosh; Intel Mac OS X 10_15_7) AppleWebKit/537.36 (KHTML, like Gecko) Chrome/86.0.4240.75 Safari/537.36",58,"[0.9, 0.5, 0.1]","[0.8, 0.4, 0.2]","[u'black', u'red', u'blue']","[u'left', u'middle', u'right']","[0.9, 0.5, 0.1]","[u'medium', u'low', u'high']","blue",51,"right","high","False","False",275,2650,NA
"AJNQ2PBD07FKE","Mon Nov 02 2020 09:05:23 GMT-0500 (Eastern Standard Time)","Mon Nov 02 2020 09:23:25 GMT-0500 (Eastern Standard Time)","Mozilla/5.0 (Macintosh; Intel Mac OS X 10_15_7) AppleWebKit/537.36 (KHTML, like Gecko) Chrome/86.0.4240.75 Safari/537.36",59,"[0.9, 0.5, 0.1]","[0.8, 0.4, 0.2]","[u'black', u'red', u'blue']","[u'left', u'middle', u'right']","[0.9, 0.5, 0.1]","[u'medium', u'low', u'high']","blue",51,"right","high","False","False",242,2600,NA
"AJNQ2PBD07FKE","Mon Nov 02 2020 09:05:23 GMT-0500 (Eastern Standard Time)","Mon Nov 02 2020 09:23:25 GMT-0500 (Eastern Standard Time)","Mozilla/5.0 (Macintosh; Intel Mac OS X 10_15_7) AppleWebKit/537.36 (KHTML, like Gecko) Chrome/86.0.4240.75 Safari/537.36",60,"[0.9, 0.5, 0.1]","[0.8, 0.4, 0.2]","[u'black', u'red', u'blue']","[u'left', u'middle', u'right']","[0.9, 0.5, 0.1]","[u'medium', u'low', u'high']","red",50,"middle","low","False","False",120,2550,NA
"AJNQ2PBD07FKE","Mon Nov 02 2020 09:05:23 GMT-0500 (Eastern Standard Time)","Mon Nov 02 2020 09:23:25 GMT-0500 (Eastern Standard Time)","Mozilla/5.0 (Macintosh; Intel Mac OS X 10_15_7) AppleWebKit/537.36 (KHTML, like Gecko) Chrome/86.0.4240.75 Safari/537.36",61,"[0.9, 0.5, 0.1]","[0.8, 0.4, 0.2]","[u'black', u'red', u'blue']","[u'left', u'middle', u'right']","[0.9, 0.5, 0.1]","[u'medium', u'low', u'high']","red",50,"middle","low","False","False",239,2500,NA
"AJNQ2PBD07FKE","Mon Nov 02 2020 09:05:23 GMT-0500 (Eastern Standard Time)","Mon Nov 02 2020 09:23:25 GMT-0500 (Eastern Standard Time)","Mozilla/5.0 (Macintosh; Intel Mac OS X 10_15_7) AppleWebKit/537.36 (KHTML, like Gecko) Chrome/86.0.4240.75 Safari/537.36",62,"[0.9, 0.5, 0.1]","[0.8, 0.4, 0.2]","[u'black', u'red', u'blue']","[u'left', u'middle', u'right']","[0.9, 0.5, 0.1]","[u'medium', u'low', u'high']","black",49,"left","medium","True","False",198,2600,NA
"AJNQ2PBD07FKE","Mon Nov 02 2020 09:05:23 GMT-0500 (Eastern Standard Time)","Mon Nov 02 2020 09:23:25 GMT-0500 (Eastern Standard Time)","Mozilla/5.0 (Macintosh; Intel Mac OS X 10_15_7) AppleWebKit/537.36 (KHTML, like Gecko) Chrome/86.0.4240.75 Safari/537.36",63,"[0.9, 0.5, 0.1]","[0.8, 0.4, 0.2]","[u'black', u'red', u'blue']","[u'left', u'middle', u'right']","[0.9, 0.5, 0.1]","[u'medium', u'low', u'high']","black",49,"left","medium","True","False",291,2700,NA
"AJNQ2PBD07FKE","Mon Nov 02 2020 09:05:23 GMT-0500 (Eastern Standard Time)","Mon Nov 02 2020 09:23:25 GMT-0500 (Eastern Standard Time)","Mozilla/5.0 (Macintosh; Intel Mac OS X 10_15_7) AppleWebKit/537.36 (KHTML, like Gecko) Chrome/86.0.4240.75 Safari/537.36",64,"[0.9, 0.5, 0.1]","[0.8, 0.4, 0.2]","[u'black', u'red', u'blue']","[u'left', u'middle', u'right']","[0.9, 0.5, 0.1]","[u'medium', u'low', u'high']","black",49,"left","medium","True","False",329,2800,NA
"AJNQ2PBD07FKE","Mon Nov 02 2020 09:05:23 GMT-0500 (Eastern Standard Time)","Mon Nov 02 2020 09:23:25 GMT-0500 (Eastern Standard Time)","Mozilla/5.0 (Macintosh; Intel Mac OS X 10_15_7) AppleWebKit/537.36 (KHTML, like Gecko) Chrome/86.0.4240.75 Safari/537.36",65,"[0.9, 0.5, 0.1]","[0.8, 0.4, 0.2]","[u'black', u'red', u'blue']","[u'left', u'middle', u'right']","[0.9, 0.5, 0.1]","[u'medium', u'low', u'high']","black",49,"left","medium","True","False",420,2900,NA
"AJNQ2PBD07FKE","Mon Nov 02 2020 09:05:23 GMT-0500 (Eastern Standard Time)","Mon Nov 02 2020 09:23:25 GMT-0500 (Eastern Standard Time)","Mozilla/5.0 (Macintosh; Intel Mac OS X 10_15_7) AppleWebKit/537.36 (KHTML, like Gecko) Chrome/86.0.4240.75 Safari/537.36",66,"[0.9, 0.5, 0.1]","[0.8, 0.4, 0.2]","[u'black', u'red', u'blue']","[u'left', u'middle', u'right']","[0.9, 0.5, 0.1]","[u'medium', u'low', u'high']","black",49,"left","medium","True","False",462,3000,NA
"AJNQ2PBD07FKE","Mon Nov 02 2020 09:05:23 GMT-0500 (Eastern Standard Time)","Mon Nov 02 2020 09:23:25 GMT-0500 (Eastern Standard Time)","Mozilla/5.0 (Macintosh; Intel Mac OS X 10_15_7) AppleWebKit/537.36 (KHTML, like Gecko) Chrome/86.0.4240.75 Safari/537.36",67,"[0.9, 0.5, 0.1]","[0.8, 0.4, 0.2]","[u'black', u'red', u'blue']","[u'left', u'middle', u'right']","[0.9, 0.5, 0.1]","[u'medium', u'low', u'high']","black",49,"left","medium","True","False",352,3100,NA
"AJNQ2PBD07FKE","Mon Nov 02 2020 09:05:23 GMT-0500 (Eastern Standard Time)","Mon Nov 02 2020 09:23:25 GMT-0500 (Eastern Standard Time)","Mozilla/5.0 (Macintosh; Intel Mac OS X 10_15_7) AppleWebKit/537.36 (KHTML, like Gecko) Chrome/86.0.4240.75 Safari/537.36",68,"[0.9, 0.5, 0.1]","[0.8, 0.4, 0.2]","[u'black', u'red', u'blue']","[u'left', u'middle', u'right']","[0.9, 0.5, 0.1]","[u'medium', u'low', u'high']","black",49,"left","medium","True","False",453,3200,NA
"AJNQ2PBD07FKE","Mon Nov 02 2020 09:05:23 GMT-0500 (Eastern Standard Time)","Mon Nov 02 2020 09:23:25 GMT-0500 (Eastern Standard Time)","Mozilla/5.0 (Macintosh; Intel Mac OS X 10_15_7) AppleWebKit/537.36 (KHTML, like Gecko) Chrome/86.0.4240.75 Safari/537.36",69,"[0.9, 0.5, 0.1]","[0.8, 0.4, 0.2]","[u'black', u'red', u'blue']","[u'left', u'middle', u'right']","[0.9, 0.5, 0.1]","[u'medium', u'low', u'high']","black",49,"left","medium","False","False",484,3150,NA
"AJNQ2PBD07FKE","Mon Nov 02 2020 09:05:23 GMT-0500 (Eastern Standard Time)","Mon Nov 02 2020 09:23:25 GMT-0500 (Eastern Standard Time)","Mozilla/5.0 (Macintosh; Intel Mac OS X 10_15_7) AppleWebKit/537.36 (KHTML, like Gecko) Chrome/86.0.4240.75 Safari/537.36",70,"[0.9, 0.5, 0.1]","[0.8, 0.4, 0.2]","[u'black', u'red', u'blue']","[u'left', u'middle', u'right']","[0.9, 0.5, 0.1]","[u'medium', u'low', u'high']","black",49,"left","medium","True","False",283,3250,NA
"AJNQ2PBD07FKE","Mon Nov 02 2020 09:05:23 GMT-0500 (Eastern Standard Time)","Mon Nov 02 2020 09:23:25 GMT-0500 (Eastern Standard Time)","Mozilla/5.0 (Macintosh; Intel Mac OS X 10_15_7) AppleWebKit/537.36 (KHTML, like Gecko) Chrome/86.0.4240.75 Safari/537.36",71,"[0.9, 0.5, 0.1]","[0.8, 0.4, 0.2]","[u'black', u'red', u'blue']","[u'left', u'middle', u'right']","[0.9, 0.5, 0.1]","[u'medium', u'low', u'high']","black",49,"left","medium","True","False",244,3350,NA
"AJNQ2PBD07FKE","Mon Nov 02 2020 09:05:23 GMT-0500 (Eastern Standard Time)","Mon Nov 02 2020 09:23:25 GMT-0500 (Eastern Standard Time)","Mozilla/5.0 (Macintosh; Intel Mac OS X 10_15_7) AppleWebKit/537.36 (KHTML, like Gecko) Chrome/86.0.4240.75 Safari/537.36",72,"[0.9, 0.5, 0.1]","[0.8, 0.4, 0.2]","[u'black', u'red', u'blue']","[u'left', u'middle', u'right']","[0.9, 0.5, 0.1]","[u'medium', u'low', u'high']","black",49,"left","medium","True","False",314,3450,NA
"AJNQ2PBD07FKE","Mon Nov 02 2020 09:05:23 GMT-0500 (Eastern Standard Time)","Mon Nov 02 2020 09:23:25 GMT-0500 (Eastern Standard Time)","Mozilla/5.0 (Macintosh; Intel Mac OS X 10_15_7) AppleWebKit/537.36 (KHTML, like Gecko) Chrome/86.0.4240.75 Safari/537.36",73,"[0.9, 0.5, 0.1]","[0.8, 0.4, 0.2]","[u'black', u'red', u'blue']","[u'left', u'middle', u'right']","[0.9, 0.5, 0.1]","[u'medium', u'low', u'high']","black",49,"left","medium","False","False",345,3400,NA
"AJNQ2PBD07FKE","Mon Nov 02 2020 09:05:23 GMT-0500 (Eastern Standard Time)","Mon Nov 02 2020 09:23:25 GMT-0500 (Eastern Standard Time)","Mozilla/5.0 (Macintosh; Intel Mac OS X 10_15_7) AppleWebKit/537.36 (KHTML, like Gecko) Chrome/86.0.4240.75 Safari/537.36",74,"[0.9, 0.5, 0.1]","[0.8, 0.4, 0.2]","[u'black', u'red', u'blue']","[u'left', u'middle', u'right']","[0.9, 0.5, 0.1]","[u'medium', u'low', u'high']","black",49,"left","medium","False","False",271,3350,NA
"AJNQ2PBD07FKE","Mon Nov 02 2020 09:05:23 GMT-0500 (Eastern Standard Time)","Mon Nov 02 2020 09:23:25 GMT-0500 (Eastern Standard Time)","Mozilla/5.0 (Macintosh; Intel Mac OS X 10_15_7) AppleWebKit/537.36 (KHTML, like Gecko) Chrome/86.0.4240.75 Safari/537.36",75,"[0.9, 0.5, 0.1]","[0.8, 0.4, 0.2]","[u'black', u'red', u'blue']","[u'left', u'middle', u'right']","[0.9, 0.5, 0.1]","[u'medium', u'low', u'high']","blue",51,"right","high","True","False",177,3450,NA
"AJNQ2PBD07FKE","Mon Nov 02 2020 09:05:23 GMT-0500 (Eastern Standard Time)","Mon Nov 02 2020 09:23:25 GMT-0500 (Eastern Standard Time)","Mozilla/5.0 (Macintosh; Intel Mac OS X 10_15_7) AppleWebKit/537.36 (KHTML, like Gecko) Chrome/86.0.4240.75 Safari/537.36",76,"[0.9, 0.5, 0.1]","[0.8, 0.4, 0.2]","[u'black', u'red', u'blue']","[u'left', u'middle', u'right']","[0.9, 0.5, 0.1]","[u'medium', u'low', u'high']","blue",51,"right","high","True","False",303,3550,NA
"AJNQ2PBD07FKE","Mon Nov 02 2020 09:05:23 GMT-0500 (Eastern Standard Time)","Mon Nov 02 2020 09:23:25 GMT-0500 (Eastern Standard Time)","Mozilla/5.0 (Macintosh; Intel Mac OS X 10_15_7) AppleWebKit/537.36 (KHTML, like Gecko) Chrome/86.0.4240.75 Safari/537.36",77,"[0.9, 0.5, 0.1]","[0.8, 0.4, 0.2]","[u'black', u'red', u'blue']","[u'left', u'middle', u'right']","[0.9, 0.5, 0.1]","[u'medium', u'low', u'high']","blue",51,"right","high","True","False",275,3650,NA
"AJNQ2PBD07FKE","Mon Nov 02 2020 09:05:23 GMT-0500 (Eastern Standard Time)","Mon Nov 02 2020 09:23:25 GMT-0500 (Eastern Standard Time)","Mozilla/5.0 (Macintosh; Intel Mac OS X 10_15_7) AppleWebKit/537.36 (KHTML, like Gecko) Chrome/86.0.4240.75 Safari/537.36",78,"[0.9, 0.5, 0.1]","[0.8, 0.4, 0.2]","[u'black', u'red', u'blue']","[u'left', u'middle', u'right']","[0.9, 0.5, 0.1]","[u'medium', u'low', u'high']","blue",51,"right","high","True","False",290,3750,NA
"AJNQ2PBD07FKE","Mon Nov 02 2020 09:05:23 GMT-0500 (Eastern Standard Time)","Mon Nov 02 2020 09:23:25 GMT-0500 (Eastern Standard Time)","Mozilla/5.0 (Macintosh; Intel Mac OS X 10_15_7) AppleWebKit/537.36 (KHTML, like Gecko) Chrome/86.0.4240.75 Safari/537.36",79,"[0.9, 0.5, 0.1]","[0.8, 0.4, 0.2]","[u'black', u'red', u'blue']","[u'left', u'middle', u'right']","[0.9, 0.5, 0.1]","[u'medium', u'low', u'high']","blue",51,"right","high","True","False",318,3850,NA
"AJNQ2PBD07FKE","Mon Nov 02 2020 09:05:23 GMT-0500 (Eastern Standard Time)","Mon Nov 02 2020 09:23:25 GMT-0500 (Eastern Standard Time)","Mozilla/5.0 (Macintosh; Intel Mac OS X 10_15_7) AppleWebKit/537.36 (KHTML, like Gecko) Chrome/86.0.4240.75 Safari/537.36",80,"[0.9, 0.5, 0.1]","[0.8, 0.4, 0.2]","[u'black', u'red', u'blue']","[u'left', u'middle', u'right']","[0.9, 0.5, 0.1]","[u'medium', u'low', u'high']","blue",51,"right","high","True","False",313,3950,NA
"AJNQ2PBD07FKE","Mon Nov 02 2020 09:05:23 GMT-0500 (Eastern Standard Time)","Mon Nov 02 2020 09:23:25 GMT-0500 (Eastern Standard Time)","Mozilla/5.0 (Macintosh; Intel Mac OS X 10_15_7) AppleWebKit/537.36 (KHTML, like Gecko) Chrome/86.0.4240.75 Safari/537.36",81,"[0.9, 0.5, 0.1]","[0.8, 0.4, 0.2]","[u'black', u'red', u'blue']","[u'left', u'middle', u'right']","[0.8, 0.4, 0.2]","[u'low', u'high', u'medium']","black",49,"left","low","False","False",660,3900,NA
"AJNQ2PBD07FKE","Mon Nov 02 2020 09:05:23 GMT-0500 (Eastern Standard Time)","Mon Nov 02 2020 09:23:25 GMT-0500 (Eastern Standard Time)","Mozilla/5.0 (Macintosh; Intel Mac OS X 10_15_7) AppleWebKit/537.36 (KHTML, like Gecko) Chrome/86.0.4240.75 Safari/537.36",82,"[0.9, 0.5, 0.1]","[0.8, 0.4, 0.2]","[u'black', u'red', u'blue']","[u'left', u'middle', u'right']","[0.8, 0.4, 0.2]","[u'low', u'high', u'medium']","black",49,"left","low","True","False",306,4000,NA
"AJNQ2PBD07FKE","Mon Nov 02 2020 09:05:23 GMT-0500 (Eastern Standard Time)","Mon Nov 02 2020 09:23:25 GMT-0500 (Eastern Standard Time)","Mozilla/5.0 (Macintosh; Intel Mac OS X 10_15_7) AppleWebKit/537.36 (KHTML, like Gecko) Chrome/86.0.4240.75 Safari/537.36",83,"[0.9, 0.5, 0.1]","[0.8, 0.4, 0.2]","[u'black', u'red', u'blue']","[u'left', u'middle', u'right']","[0.8, 0.4, 0.2]","[u'low', u'high', u'medium']","black",49,"left","low","True","False",553,4100,NA
"AJNQ2PBD07FKE","Mon Nov 02 2020 09:05:23 GMT-0500 (Eastern Standard Time)","Mon Nov 02 2020 09:23:25 GMT-0500 (Eastern Standard Time)","Mozilla/5.0 (Macintosh; Intel Mac OS X 10_15_7) AppleWebKit/537.36 (KHTML, like Gecko) Chrome/86.0.4240.75 Safari/537.36",84,"[0.9, 0.5, 0.1]","[0.8, 0.4, 0.2]","[u'black', u'red', u'blue']","[u'left', u'middle', u'right']","[0.8, 0.4, 0.2]","[u'low', u'high', u'medium']","black",49,"left","low","False","False",337,4050,NA
"AJNQ2PBD07FKE","Mon Nov 02 2020 09:05:23 GMT-0500 (Eastern Standard Time)","Mon Nov 02 2020 09:23:25 GMT-0500 (Eastern Standard Time)","Mozilla/5.0 (Macintosh; Intel Mac OS X 10_15_7) AppleWebKit/537.36 (KHTML, like Gecko) Chrome/86.0.4240.75 Safari/537.36",85,"[0.9, 0.5, 0.1]","[0.8, 0.4, 0.2]","[u'black', u'red', u'blue']","[u'left', u'middle', u'right']","[0.8, 0.4, 0.2]","[u'low', u'high', u'medium']","black",49,"left","low","False","False",313,4000,NA
"AJNQ2PBD07FKE","Mon Nov 02 2020 09:05:23 GMT-0500 (Eastern Standard Time)","Mon Nov 02 2020 09:23:25 GMT-0500 (Eastern Standard Time)","Mozilla/5.0 (Macintosh; Intel Mac OS X 10_15_7) AppleWebKit/537.36 (KHTML, like Gecko) Chrome/86.0.4240.75 Safari/537.36",86,"[0.9, 0.5, 0.1]","[0.8, 0.4, 0.2]","[u'black', u'red', u'blue']","[u'left', u'middle', u'right']","[0.8, 0.4, 0.2]","[u'low', u'high', u'medium']","blue",51,"right","medium","True","False",173,4100,NA
"AJNQ2PBD07FKE","Mon Nov 02 2020 09:05:23 GMT-0500 (Eastern Standard Time)","Mon Nov 02 2020 09:23:25 GMT-0500 (Eastern Standard Time)","Mozilla/5.0 (Macintosh; Intel Mac OS X 10_15_7) AppleWebKit/537.36 (KHTML, like Gecko) Chrome/86.0.4240.75 Safari/537.36",87,"[0.9, 0.5, 0.1]","[0.8, 0.4, 0.2]","[u'black', u'red', u'blue']","[u'left', u'middle', u'right']","[0.8, 0.4, 0.2]","[u'low', u'high', u'medium']","blue",51,"right","medium","False","False",428,4050,NA
"AJNQ2PBD07FKE","Mon Nov 02 2020 09:05:23 GMT-0500 (Eastern Standard Time)","Mon Nov 02 2020 09:23:25 GMT-0500 (Eastern Standard Time)","Mozilla/5.0 (Macintosh; Intel Mac OS X 10_15_7) AppleWebKit/537.36 (KHTML, like Gecko) Chrome/86.0.4240.75 Safari/537.36",88,"[0.9, 0.5, 0.1]","[0.8, 0.4, 0.2]","[u'black', u'red', u'blue']","[u'left', u'middle', u'right']","[0.8, 0.4, 0.2]","[u'low', u'high', u'medium']","blue",51,"right","medium","False","False",336,4000,NA
"AJNQ2PBD07FKE","Mon Nov 02 2020 09:05:23 GMT-0500 (Eastern Standard Time)","Mon Nov 02 2020 09:23:25 GMT-0500 (Eastern Standard Time)","Mozilla/5.0 (Macintosh; Intel Mac OS X 10_15_7) AppleWebKit/537.36 (KHTML, like Gecko) Chrome/86.0.4240.75 Safari/537.36",89,"[0.9, 0.5, 0.1]","[0.8, 0.4, 0.2]","[u'black', u'red', u'blue']","[u'left', u'middle', u'right']","[0.8, 0.4, 0.2]","[u'low', u'high', u'medium']","red",50,"middle","high","False","False",273,3950,NA
"AJNQ2PBD07FKE","Mon Nov 02 2020 09:05:23 GMT-0500 (Eastern Standard Time)","Mon Nov 02 2020 09:23:25 GMT-0500 (Eastern Standard Time)","Mozilla/5.0 (Macintosh; Intel Mac OS X 10_15_7) AppleWebKit/537.36 (KHTML, like Gecko) Chrome/86.0.4240.75 Safari/537.36",90,"[0.9, 0.5, 0.1]","[0.8, 0.4, 0.2]","[u'black', u'red', u'blue']","[u'left', u'middle', u'right']","[0.8, 0.4, 0.2]","[u'low', u'high', u'medium']","red",50,"middle","high","True","False",230,4050,NA
"AJNQ2PBD07FKE","Mon Nov 02 2020 09:05:23 GMT-0500 (Eastern Standard Time)","Mon Nov 02 2020 09:23:25 GMT-0500 (Eastern Standard Time)","Mozilla/5.0 (Macintosh; Intel Mac OS X 10_15_7) AppleWebKit/537.36 (KHTML, like Gecko) Chrome/86.0.4240.75 Safari/537.36",91,"[0.9, 0.5, 0.1]","[0.8, 0.4, 0.2]","[u'black', u'red', u'blue']","[u'left', u'middle', u'right']","[0.8, 0.4, 0.2]","[u'low', u'high', u'medium']","red",50,"middle","high","False","False",288,4000,NA
"AJNQ2PBD07FKE","Mon Nov 02 2020 09:05:23 GMT-0500 (Eastern Standard Time)","Mon Nov 02 2020 09:23:25 GMT-0500 (Eastern Standard Time)","Mozilla/5.0 (Macintosh; Intel Mac OS X 10_15_7) AppleWebKit/537.36 (KHTML, like Gecko) Chrome/86.0.4240.75 Safari/537.36",92,"[0.9, 0.5, 0.1]","[0.8, 0.4, 0.2]","[u'black', u'red', u'blue']","[u'left', u'middle', u'right']","[0.8, 0.4, 0.2]","[u'low', u'high', u'medium']","blue",51,"right","medium","False","False",239,3950,NA
"AJNQ2PBD07FKE","Mon Nov 02 2020 09:05:23 GMT-0500 (Eastern Standard Time)","Mon Nov 02 2020 09:23:25 GMT-0500 (Eastern Standard Time)","Mozilla/5.0 (Macintosh; Intel Mac OS X 10_15_7) AppleWebKit/537.36 (KHTML, like Gecko) Chrome/86.0.4240.75 Safari/537.36",93,"[0.9, 0.5, 0.1]","[0.8, 0.4, 0.2]","[u'black', u'red', u'blue']","[u'left', u'middle', u'right']","[0.8, 0.4, 0.2]","[u'low', u'high', u'medium']","blue",51,"right","medium","False","False",267,3900,NA
"AJNQ2PBD07FKE","Mon Nov 02 2020 09:05:23 GMT-0500 (Eastern Standard Time)","Mon Nov 02 2020 09:23:25 GMT-0500 (Eastern Standard Time)","Mozilla/5.0 (Macintosh; Intel Mac OS X 10_15_7) AppleWebKit/537.36 (KHTML, like Gecko) Chrome/86.0.4240.75 Safari/537.36",94,"[0.9, 0.5, 0.1]","[0.8, 0.4, 0.2]","[u'black', u'red', u'blue']","[u'left', u'middle', u'right']","[0.8, 0.4, 0.2]","[u'low', u'high', u'medium']","red",50,"middle","high","True","False",55,4000,NA
"AJNQ2PBD07FKE","Mon Nov 02 2020 09:05:23 GMT-0500 (Eastern Standard Time)","Mon Nov 02 2020 09:23:25 GMT-0500 (Eastern Standard Time)","Mozilla/5.0 (Macintosh; Intel Mac OS X 10_15_7) AppleWebKit/537.36 (KHTML, like Gecko) Chrome/86.0.4240.75 Safari/537.36",95,"[0.9, 0.5, 0.1]","[0.8, 0.4, 0.2]","[u'black', u'red', u'blue']","[u'left', u'middle', u'right']","[0.8, 0.4, 0.2]","[u'low', u'high', u'medium']","red",50,"middle","high","True","False",249,4100,NA
"AJNQ2PBD07FKE","Mon Nov 02 2020 09:05:23 GMT-0500 (Eastern Standard Time)","Mon Nov 02 2020 09:23:25 GMT-0500 (Eastern Standard Time)","Mozilla/5.0 (Macintosh; Intel Mac OS X 10_15_7) AppleWebKit/537.36 (KHTML, like Gecko) Chrome/86.0.4240.75 Safari/537.36",96,"[0.9, 0.5, 0.1]","[0.8, 0.4, 0.2]","[u'black', u'red', u'blue']","[u'left', u'middle', u'right']","[0.8, 0.4, 0.2]","[u'low', u'high', u'medium']","red",50,"middle","high","True","False",273,4200,NA
"AJNQ2PBD07FKE","Mon Nov 02 2020 09:05:23 GMT-0500 (Eastern Standard Time)","Mon Nov 02 2020 09:23:25 GMT-0500 (Eastern Standard Time)","Mozilla/5.0 (Macintosh; Intel Mac OS X 10_15_7) AppleWebKit/537.36 (KHTML, like Gecko) Chrome/86.0.4240.75 Safari/537.36",97,"[0.9, 0.5, 0.1]","[0.8, 0.4, 0.2]","[u'black', u'red', u'blue']","[u'left', u'middle', u'right']","[0.8, 0.4, 0.2]","[u'low', u'high', u'medium']","red",50,"middle","high","True","False",180,4300,NA
"AJNQ2PBD07FKE","Mon Nov 02 2020 09:05:23 GMT-0500 (Eastern Standard Time)","Mon Nov 02 2020 09:23:25 GMT-0500 (Eastern Standard Time)","Mozilla/5.0 (Macintosh; Intel Mac OS X 10_15_7) AppleWebKit/537.36 (KHTML, like Gecko) Chrome/86.0.4240.75 Safari/537.36",98,"[0.9, 0.5, 0.1]","[0.8, 0.4, 0.2]","[u'black', u'red', u'blue']","[u'left', u'middle', u'right']","[0.8, 0.4, 0.2]","[u'low', u'high', u'medium']","red",50,"middle","high","False","False",277,4250,NA
"AJNQ2PBD07FKE","Mon Nov 02 2020 09:05:23 GMT-0500 (Eastern Standard Time)","Mon Nov 02 2020 09:23:25 GMT-0500 (Eastern Standard Time)","Mozilla/5.0 (Macintosh; Intel Mac OS X 10_15_7) AppleWebKit/537.36 (KHTML, like Gecko) Chrome/86.0.4240.75 Safari/537.36",99,"[0.9, 0.5, 0.1]","[0.8, 0.4, 0.2]","[u'black', u'red', u'blue']","[u'left', u'middle', u'right']","[0.8, 0.4, 0.2]","[u'low', u'high', u'medium']","red",50,"middle","high","True","False",260,4350,NA
"AJNQ2PBD07FKE","Mon Nov 02 2020 09:05:23 GMT-0500 (Eastern Standard Time)","Mon Nov 02 2020 09:23:25 GMT-0500 (Eastern Standard Time)","Mozilla/5.0 (Macintosh; Intel Mac OS X 10_15_7) AppleWebKit/537.36 (KHTML, like Gecko) Chrome/86.0.4240.75 Safari/537.36",100,"[0.9, 0.5, 0.1]","[0.8, 0.4, 0.2]","[u'black', u'red', u'blue']","[u'left', u'middle', u'right']","[0.8, 0.4, 0.2]","[u'low', u'high', u'medium']","red",50,"middle","high","True","False",289,4450,NA
"AJNQ2PBD07FKE","Mon Nov 02 2020 09:05:23 GMT-0500 (Eastern Standard Time)","Mon Nov 02 2020 09:23:25 GMT-0500 (Eastern Standard Time)","Mozilla/5.0 (Macintosh; Intel Mac OS X 10_15_7) AppleWebKit/537.36 (KHTML, like Gecko) Chrome/86.0.4240.75 Safari/537.36",101,"[0.9, 0.5, 0.1]","[0.8, 0.4, 0.2]","[u'black', u'red', u'blue']","[u'left', u'middle', u'right']","[0.8, 0.4, 0.2]","[u'low', u'high', u'medium']","red",50,"middle","high","True","False",291,4550,NA
"AJNQ2PBD07FKE","Mon Nov 02 2020 09:05:23 GMT-0500 (Eastern Standard Time)","Mon Nov 02 2020 09:23:25 GMT-0500 (Eastern Standard Time)","Mozilla/5.0 (Macintosh; Intel Mac OS X 10_15_7) AppleWebKit/537.36 (KHTML, like Gecko) Chrome/86.0.4240.75 Safari/537.36",102,"[0.9, 0.5, 0.1]","[0.8, 0.4, 0.2]","[u'black', u'red', u'blue']","[u'left', u'middle', u'right']","[0.8, 0.4, 0.2]","[u'low', u'high', u'medium']","red",50,"middle","high","True","True",367,4650,NA
"AJNQ2PBD07FKE","Mon Nov 02 2020 09:05:23 GMT-0500 (Eastern Standard Time)","Mon Nov 02 2020 09:23:25 GMT-0500 (Eastern Standard Time)","Mozilla/5.0 (Macintosh; Intel Mac OS X 10_15_7) AppleWebKit/537.36 (KHTML, like Gecko) Chrome/86.0.4240.75 Safari/537.36",103,"[0.9, 0.5, 0.1]","[0.8, 0.4, 0.2]","[u'black', u'red', u'blue']","[u'left', u'middle', u'right']","[0.8, 0.4, 0.2]","[u'high', u'medium', u'low']","red",50,"middle","medium","True","False",401,4750,NA
"AJNQ2PBD07FKE","Mon Nov 02 2020 09:05:23 GMT-0500 (Eastern Standard Time)","Mon Nov 02 2020 09:23:25 GMT-0500 (Eastern Standard Time)","Mozilla/5.0 (Macintosh; Intel Mac OS X 10_15_7) AppleWebKit/537.36 (KHTML, like Gecko) Chrome/86.0.4240.75 Safari/537.36",104,"[0.9, 0.5, 0.1]","[0.8, 0.4, 0.2]","[u'black', u'red', u'blue']","[u'left', u'middle', u'right']","[0.8, 0.4, 0.2]","[u'high', u'medium', u'low']","red",50,"middle","medium","False","False",734,4700,NA
"AJNQ2PBD07FKE","Mon Nov 02 2020 09:05:23 GMT-0500 (Eastern Standard Time)","Mon Nov 02 2020 09:23:25 GMT-0500 (Eastern Standard Time)","Mozilla/5.0 (Macintosh; Intel Mac OS X 10_15_7) AppleWebKit/537.36 (KHTML, like Gecko) Chrome/86.0.4240.75 Safari/537.36",105,"[0.9, 0.5, 0.1]","[0.8, 0.4, 0.2]","[u'black', u'red', u'blue']","[u'left', u'middle', u'right']","[0.8, 0.4, 0.2]","[u'high', u'medium', u'low']","red",50,"middle","medium","True","False",334,4800,NA
"AJNQ2PBD07FKE","Mon Nov 02 2020 09:05:23 GMT-0500 (Eastern Standard Time)","Mon Nov 02 2020 09:23:25 GMT-0500 (Eastern Standard Time)","Mozilla/5.0 (Macintosh; Intel Mac OS X 10_15_7) AppleWebKit/537.36 (KHTML, like Gecko) Chrome/86.0.4240.75 Safari/537.36",106,"[0.9, 0.5, 0.1]","[0.8, 0.4, 0.2]","[u'black', u'red', u'blue']","[u'left', u'middle', u'right']","[0.8, 0.4, 0.2]","[u'high', u'medium', u'low']","red",50,"middle","medium","False","False",300,4750,NA
"AJNQ2PBD07FKE","Mon Nov 02 2020 09:05:23 GMT-0500 (Eastern Standard Time)","Mon Nov 02 2020 09:23:25 GMT-0500 (Eastern Standard Time)","Mozilla/5.0 (Macintosh; Intel Mac OS X 10_15_7) AppleWebKit/537.36 (KHTML, like Gecko) Chrome/86.0.4240.75 Safari/537.36",107,"[0.9, 0.5, 0.1]","[0.8, 0.4, 0.2]","[u'black', u'red', u'blue']","[u'left', u'middle', u'right']","[0.8, 0.4, 0.2]","[u'high', u'medium', u'low']","red",50,"middle","medium","False","False",145,4700,NA
"AJNQ2PBD07FKE","Mon Nov 02 2020 09:05:23 GMT-0500 (Eastern Standard Time)","Mon Nov 02 2020 09:23:25 GMT-0500 (Eastern Standard Time)","Mozilla/5.0 (Macintosh; Intel Mac OS X 10_15_7) AppleWebKit/537.36 (KHTML, like Gecko) Chrome/86.0.4240.75 Safari/537.36",108,"[0.9, 0.5, 0.1]","[0.8, 0.4, 0.2]","[u'black', u'red', u'blue']","[u'left', u'middle', u'right']","[0.8, 0.4, 0.2]","[u'high', u'medium', u'low']","black",49,"left","high","True","False",275,4800,NA
"AJNQ2PBD07FKE","Mon Nov 02 2020 09:05:23 GMT-0500 (Eastern Standard Time)","Mon Nov 02 2020 09:23:25 GMT-0500 (Eastern Standard Time)","Mozilla/5.0 (Macintosh; Intel Mac OS X 10_15_7) AppleWebKit/537.36 (KHTML, like Gecko) Chrome/86.0.4240.75 Safari/537.36",109,"[0.9, 0.5, 0.1]","[0.8, 0.4, 0.2]","[u'black', u'red', u'blue']","[u'left', u'middle', u'right']","[0.8, 0.4, 0.2]","[u'high', u'medium', u'low']","black",49,"left","high","True","False",162,4900,NA
"AJNQ2PBD07FKE","Mon Nov 02 2020 09:05:23 GMT-0500 (Eastern Standard Time)","Mon Nov 02 2020 09:23:25 GMT-0500 (Eastern Standard Time)","Mozilla/5.0 (Macintosh; Intel Mac OS X 10_15_7) AppleWebKit/537.36 (KHTML, like Gecko) Chrome/86.0.4240.75 Safari/537.36",110,"[0.9, 0.5, 0.1]","[0.8, 0.4, 0.2]","[u'black', u'red', u'blue']","[u'left', u'middle', u'right']","[0.8, 0.4, 0.2]","[u'high', u'medium', u'low']","black",49,"left","high","False","False",317,4850,NA
"AJNQ2PBD07FKE","Mon Nov 02 2020 09:05:23 GMT-0500 (Eastern Standard Time)","Mon Nov 02 2020 09:23:25 GMT-0500 (Eastern Standard Time)","Mozilla/5.0 (Macintosh; Intel Mac OS X 10_15_7) AppleWebKit/537.36 (KHTML, like Gecko) Chrome/86.0.4240.75 Safari/537.36",111,"[0.9, 0.5, 0.1]","[0.8, 0.4, 0.2]","[u'black', u'red', u'blue']","[u'left', u'middle', u'right']","[0.8, 0.4, 0.2]","[u'high', u'medium', u'low']","black",49,"left","high","True","False",83,4950,NA
"AJNQ2PBD07FKE","Mon Nov 02 2020 09:05:23 GMT-0500 (Eastern Standard Time)","Mon Nov 02 2020 09:23:25 GMT-0500 (Eastern Standard Time)","Mozilla/5.0 (Macintosh; Intel Mac OS X 10_15_7) AppleWebKit/537.36 (KHTML, like Gecko) Chrome/86.0.4240.75 Safari/537.36",112,"[0.9, 0.5, 0.1]","[0.8, 0.4, 0.2]","[u'black', u'red', u'blue']","[u'left', u'middle', u'right']","[0.8, 0.4, 0.2]","[u'high', u'medium', u'low']","black",49,"left","high","True","False",231,5050,NA
"AJNQ2PBD07FKE","Mon Nov 02 2020 09:05:23 GMT-0500 (Eastern Standard Time)","Mon Nov 02 2020 09:23:25 GMT-0500 (Eastern Standard Time)","Mozilla/5.0 (Macintosh; Intel Mac OS X 10_15_7) AppleWebKit/537.36 (KHTML, like Gecko) Chrome/86.0.4240.75 Safari/537.36",113,"[0.9, 0.5, 0.1]","[0.8, 0.4, 0.2]","[u'black', u'red', u'blue']","[u'left', u'middle', u'right']","[0.8, 0.4, 0.2]","[u'high', u'medium', u'low']","black",49,"left","high","True","False",302,5150,NA
"AJNQ2PBD07FKE","Mon Nov 02 2020 09:05:23 GMT-0500 (Eastern Standard Time)","Mon Nov 02 2020 09:23:25 GMT-0500 (Eastern Standard Time)","Mozilla/5.0 (Macintosh; Intel Mac OS X 10_15_7) AppleWebKit/537.36 (KHTML, like Gecko) Chrome/86.0.4240.75 Safari/537.36",114,"[0.9, 0.5, 0.1]","[0.8, 0.4, 0.2]","[u'black', u'red', u'blue']","[u'left', u'middle', u'right']","[0.8, 0.4, 0.2]","[u'high', u'medium', u'low']","black",49,"left","high","False","False",277,5100,NA
"AJNQ2PBD07FKE","Mon Nov 02 2020 09:05:23 GMT-0500 (Eastern Standard Time)","Mon Nov 02 2020 09:23:25 GMT-0500 (Eastern Standard Time)","Mozilla/5.0 (Macintosh; Intel Mac OS X 10_15_7) AppleWebKit/537.36 (KHTML, like Gecko) Chrome/86.0.4240.75 Safari/537.36",115,"[0.9, 0.5, 0.1]","[0.8, 0.4, 0.2]","[u'black', u'red', u'blue']","[u'left', u'middle', u'right']","[0.8, 0.4, 0.2]","[u'high', u'medium', u'low']","black",49,"left","high","True","False",175,5200,NA
"AJNQ2PBD07FKE","Mon Nov 02 2020 09:05:23 GMT-0500 (Eastern Standard Time)","Mon Nov 02 2020 09:23:25 GMT-0500 (Eastern Standard Time)","Mozilla/5.0 (Macintosh; Intel Mac OS X 10_15_7) AppleWebKit/537.36 (KHTML, like Gecko) Chrome/86.0.4240.75 Safari/537.36",116,"[0.9, 0.5, 0.1]","[0.8, 0.4, 0.2]","[u'black', u'red', u'blue']","[u'left', u'middle', u'right']","[0.8, 0.4, 0.2]","[u'high', u'medium', u'low']","black",49,"left","high","True","True",238,5300,NA
"AJNQ2PBD07FKE","Mon Nov 02 2020 09:05:23 GMT-0500 (Eastern Standard Time)","Mon Nov 02 2020 09:23:25 GMT-0500 (Eastern Standard Time)","Mozilla/5.0 (Macintosh; Intel Mac OS X 10_15_7) AppleWebKit/537.36 (KHTML, like Gecko) Chrome/86.0.4240.75 Safari/537.36",117,"[0.9, 0.5, 0.1]","[0.8, 0.4, 0.2]","[u'black', u'red', u'blue']","[u'left', u'middle', u'right']","[0.8, 0.4, 0.2]","[u'medium', u'low', u'high']","black",49,"left","medium","False","False",275,5250,NA
"AJNQ2PBD07FKE","Mon Nov 02 2020 09:05:23 GMT-0500 (Eastern Standard Time)","Mon Nov 02 2020 09:23:25 GMT-0500 (Eastern Standard Time)","Mozilla/5.0 (Macintosh; Intel Mac OS X 10_15_7) AppleWebKit/537.36 (KHTML, like Gecko) Chrome/86.0.4240.75 Safari/537.36",118,"[0.9, 0.5, 0.1]","[0.8, 0.4, 0.2]","[u'black', u'red', u'blue']","[u'left', u'middle', u'right']","[0.8, 0.4, 0.2]","[u'medium', u'low', u'high']","black",49,"left","medium","True","False",212,5350,NA
"AJNQ2PBD07FKE","Mon Nov 02 2020 09:05:23 GMT-0500 (Eastern Standard Time)","Mon Nov 02 2020 09:23:25 GMT-0500 (Eastern Standard Time)","Mozilla/5.0 (Macintosh; Intel Mac OS X 10_15_7) AppleWebKit/537.36 (KHTML, like Gecko) Chrome/86.0.4240.75 Safari/537.36",119,"[0.9, 0.5, 0.1]","[0.8, 0.4, 0.2]","[u'black', u'red', u'blue']","[u'left', u'middle', u'right']","[0.8, 0.4, 0.2]","[u'medium', u'low', u'high']","black",49,"left","medium","False","False",253,5300,NA
"AJNQ2PBD07FKE","Mon Nov 02 2020 09:05:23 GMT-0500 (Eastern Standard Time)","Mon Nov 02 2020 09:23:25 GMT-0500 (Eastern Standard Time)","Mozilla/5.0 (Macintosh; Intel Mac OS X 10_15_7) AppleWebKit/537.36 (KHTML, like Gecko) Chrome/86.0.4240.75 Safari/537.36",120,"[0.9, 0.5, 0.1]","[0.8, 0.4, 0.2]","[u'black', u'red', u'blue']","[u'left', u'middle', u'right']","[0.8, 0.4, 0.2]","[u'medium', u'low', u'high']","blue",51,"right","high","True","False",248,5400,NA
"AJNQ2PBD07FKE","Mon Nov 02 2020 09:05:23 GMT-0500 (Eastern Standard Time)","Mon Nov 02 2020 09:23:25 GMT-0500 (Eastern Standard Time)","Mozilla/5.0 (Macintosh; Intel Mac OS X 10_15_7) AppleWebKit/537.36 (KHTML, like Gecko) Chrome/86.0.4240.75 Safari/537.36",121,"[0.9, 0.5, 0.1]","[0.8, 0.4, 0.2]","[u'black', u'red', u'blue']","[u'left', u'middle', u'right']","[0.8, 0.4, 0.2]","[u'low', u'high', u'medium']","blue",51,"right","medium","False","False",293,5350,NA
"AJNQ2PBD07FKE","Mon Nov 02 2020 09:05:23 GMT-0500 (Eastern Standard Time)","Mon Nov 02 2020 09:23:25 GMT-0500 (Eastern Standard Time)","Mozilla/5.0 (Macintosh; Intel Mac OS X 10_15_7) AppleWebKit/537.36 (KHTML, like Gecko) Chrome/86.0.4240.75 Safari/537.36",122,"[0.9, 0.5, 0.1]","[0.8, 0.4, 0.2]","[u'black', u'red', u'blue']","[u'left', u'middle', u'right']","[0.8, 0.4, 0.2]","[u'low', u'high', u'medium']","blue",51,"right","medium","True","False",262,5450,NA
"AJNQ2PBD07FKE","Mon Nov 02 2020 09:05:23 GMT-0500 (Eastern Standard Time)","Mon Nov 02 2020 09:23:25 GMT-0500 (Eastern Standard Time)","Mozilla/5.0 (Macintosh; Intel Mac OS X 10_15_7) AppleWebKit/537.36 (KHTML, like Gecko) Chrome/86.0.4240.75 Safari/537.36",123,"[0.9, 0.5, 0.1]","[0.8, 0.4, 0.2]","[u'black', u'red', u'blue']","[u'left', u'middle', u'right']","[0.8, 0.4, 0.2]","[u'low', u'high', u'medium']","blue",51,"right","medium","True","False",290,5550,NA
"AJNQ2PBD07FKE","Mon Nov 02 2020 09:05:23 GMT-0500 (Eastern Standard Time)","Mon Nov 02 2020 09:23:25 GMT-0500 (Eastern Standard Time)","Mozilla/5.0 (Macintosh; Intel Mac OS X 10_15_7) AppleWebKit/537.36 (KHTML, like Gecko) Chrome/86.0.4240.75 Safari/537.36",124,"[0.9, 0.5, 0.1]","[0.8, 0.4, 0.2]","[u'black', u'red', u'blue']","[u'left', u'middle', u'right']","[0.8, 0.4, 0.2]","[u'low', u'high', u'medium']","blue",51,"right","medium","False","False",233,5500,NA
"AJNQ2PBD07FKE","Mon Nov 02 2020 09:05:23 GMT-0500 (Eastern Standard Time)","Mon Nov 02 2020 09:23:25 GMT-0500 (Eastern Standard Time)","Mozilla/5.0 (Macintosh; Intel Mac OS X 10_15_7) AppleWebKit/537.36 (KHTML, like Gecko) Chrome/86.0.4240.75 Safari/537.36",125,"[0.9, 0.5, 0.1]","[0.8, 0.4, 0.2]","[u'black', u'red', u'blue']","[u'left', u'middle', u'right']","[0.8, 0.4, 0.2]","[u'low', u'high', u'medium']","blue",51,"right","medium","True","False",130,5600,NA
"AJNQ2PBD07FKE","Mon Nov 02 2020 09:05:23 GMT-0500 (Eastern Standard Time)","Mon Nov 02 2020 09:23:25 GMT-0500 (Eastern Standard Time)","Mozilla/5.0 (Macintosh; Intel Mac OS X 10_15_7) AppleWebKit/537.36 (KHTML, like Gecko) Chrome/86.0.4240.75 Safari/537.36",126,"[0.9, 0.5, 0.1]","[0.8, 0.4, 0.2]","[u'black', u'red', u'blue']","[u'left', u'middle', u'right']","[0.8, 0.4, 0.2]","[u'low', u'high', u'medium']","blue",51,"right","medium","True","False",234,5700,NA
"AJNQ2PBD07FKE","Mon Nov 02 2020 09:05:23 GMT-0500 (Eastern Standard Time)","Mon Nov 02 2020 09:23:25 GMT-0500 (Eastern Standard Time)","Mozilla/5.0 (Macintosh; Intel Mac OS X 10_15_7) AppleWebKit/537.36 (KHTML, like Gecko) Chrome/86.0.4240.75 Safari/537.36",127,"[0.9, 0.5, 0.1]","[0.8, 0.4, 0.2]","[u'black', u'red', u'blue']","[u'left', u'middle', u'right']","[0.8, 0.4, 0.2]","[u'low', u'high', u'medium']","blue",51,"right","medium","True","False",243,5800,NA
"AJNQ2PBD07FKE","Mon Nov 02 2020 09:05:23 GMT-0500 (Eastern Standard Time)","Mon Nov 02 2020 09:23:25 GMT-0500 (Eastern Standard Time)","Mozilla/5.0 (Macintosh; Intel Mac OS X 10_15_7) AppleWebKit/537.36 (KHTML, like Gecko) Chrome/86.0.4240.75 Safari/537.36",128,"[0.9, 0.5, 0.1]","[0.8, 0.4, 0.2]","[u'black', u'red', u'blue']","[u'left', u'middle', u'right']","[0.8, 0.4, 0.2]","[u'low', u'high', u'medium']","blue",51,"right","medium","True","False",307,5900,NA
"AJNQ2PBD07FKE","Mon Nov 02 2020 09:05:23 GMT-0500 (Eastern Standard Time)","Mon Nov 02 2020 09:23:25 GMT-0500 (Eastern Standard Time)","Mozilla/5.0 (Macintosh; Intel Mac OS X 10_15_7) AppleWebKit/537.36 (KHTML, like Gecko) Chrome/86.0.4240.75 Safari/537.36",129,"[0.9, 0.5, 0.1]","[0.8, 0.4, 0.2]","[u'black', u'red', u'blue']","[u'left', u'middle', u'right']","[0.8, 0.4, 0.2]","[u'low', u'high', u'medium']","blue",51,"right","medium","True","False",294,6000,NA
"AJNQ2PBD07FKE","Mon Nov 02 2020 09:05:23 GMT-0500 (Eastern Standard Time)","Mon Nov 02 2020 09:23:25 GMT-0500 (Eastern Standard Time)","Mozilla/5.0 (Macintosh; Intel Mac OS X 10_15_7) AppleWebKit/537.36 (KHTML, like Gecko) Chrome/86.0.4240.75 Safari/537.36",130,"[0.9, 0.5, 0.1]","[0.8, 0.4, 0.2]","[u'black', u'red', u'blue']","[u'left', u'middle', u'right']","[0.8, 0.4, 0.2]","[u'low', u'high', u'medium']","blue",51,"right","medium","True","False",299,6100,NA
"AJNQ2PBD07FKE","Mon Nov 02 2020 09:05:23 GMT-0500 (Eastern Standard Time)","Mon Nov 02 2020 09:23:25 GMT-0500 (Eastern Standard Time)","Mozilla/5.0 (Macintosh; Intel Mac OS X 10_15_7) AppleWebKit/537.36 (KHTML, like Gecko) Chrome/86.0.4240.75 Safari/537.36",131,"[0.9, 0.5, 0.1]","[0.8, 0.4, 0.2]","[u'black', u'red', u'blue']","[u'left', u'middle', u'right']","[0.8, 0.4, 0.2]","[u'low', u'high', u'medium']","blue",51,"right","medium","True","False",329,6200,NA
"AJNQ2PBD07FKE","Mon Nov 02 2020 09:05:23 GMT-0500 (Eastern Standard Time)","Mon Nov 02 2020 09:23:25 GMT-0500 (Eastern Standard Time)","Mozilla/5.0 (Macintosh; Intel Mac OS X 10_15_7) AppleWebKit/537.36 (KHTML, like Gecko) Chrome/86.0.4240.75 Safari/537.36",132,"[0.9, 0.5, 0.1]","[0.8, 0.4, 0.2]","[u'black', u'red', u'blue']","[u'left', u'middle', u'right']","[0.8, 0.4, 0.2]","[u'low', u'high', u'medium']","blue",51,"right","medium","True","False",237,6300,NA
"AJNQ2PBD07FKE","Mon Nov 02 2020 09:05:23 GMT-0500 (Eastern Standard Time)","Mon Nov 02 2020 09:23:25 GMT-0500 (Eastern Standard Time)","Mozilla/5.0 (Macintosh; Intel Mac OS X 10_15_7) AppleWebKit/537.36 (KHTML, like Gecko) Chrome/86.0.4240.75 Safari/537.36",133,"[0.9, 0.5, 0.1]","[0.8, 0.4, 0.2]","[u'black', u'red', u'blue']","[u'left', u'middle', u'right']","[0.8, 0.4, 0.2]","[u'low', u'high', u'medium']","blue",51,"right","medium","True","False",285,6400,NA
"AJNQ2PBD07FKE","Mon Nov 02 2020 09:05:23 GMT-0500 (Eastern Standard Time)","Mon Nov 02 2020 09:23:25 GMT-0500 (Eastern Standard Time)","Mozilla/5.0 (Macintosh; Intel Mac OS X 10_15_7) AppleWebKit/537.36 (KHTML, like Gecko) Chrome/86.0.4240.75 Safari/537.36",134,"[0.9, 0.5, 0.1]","[0.8, 0.4, 0.2]","[u'black', u'red', u'blue']","[u'left', u'middle', u'right']","[0.8, 0.4, 0.2]","[u'low', u'high', u'medium']","blue",51,"right","medium","False","False",263,6350,NA
"AJNQ2PBD07FKE","Mon Nov 02 2020 09:05:23 GMT-0500 (Eastern Standard Time)","Mon Nov 02 2020 09:23:25 GMT-0500 (Eastern Standard Time)","Mozilla/5.0 (Macintosh; Intel Mac OS X 10_15_7) AppleWebKit/537.36 (KHTML, like Gecko) Chrome/86.0.4240.75 Safari/537.36",135,"[0.9, 0.5, 0.1]","[0.8, 0.4, 0.2]","[u'black', u'red', u'blue']","[u'left', u'middle', u'right']","[0.8, 0.4, 0.2]","[u'low', u'high', u'medium']","blue",51,"right","medium","False","False",261,6300,NA
"AJNQ2PBD07FKE","Mon Nov 02 2020 09:05:23 GMT-0500 (Eastern Standard Time)","Mon Nov 02 2020 09:23:25 GMT-0500 (Eastern Standard Time)","Mozilla/5.0 (Macintosh; Intel Mac OS X 10_15_7) AppleWebKit/537.36 (KHTML, like Gecko) Chrome/86.0.4240.75 Safari/537.36",136,"[0.9, 0.5, 0.1]","[0.8, 0.4, 0.2]","[u'black', u'red', u'blue']","[u'left', u'middle', u'right']","[0.8, 0.4, 0.2]","[u'low', u'high', u'medium']","blue",51,"right","medium","False","False",257,6250,NA
"AJNQ2PBD07FKE","Mon Nov 02 2020 09:05:23 GMT-0500 (Eastern Standard Time)","Mon Nov 02 2020 09:23:25 GMT-0500 (Eastern Standard Time)","Mozilla/5.0 (Macintosh; Intel Mac OS X 10_15_7) AppleWebKit/537.36 (KHTML, like Gecko) Chrome/86.0.4240.75 Safari/537.36",137,"[0.9, 0.5, 0.1]","[0.8, 0.4, 0.2]","[u'black', u'red', u'blue']","[u'left', u'middle', u'right']","[0.8, 0.4, 0.2]","[u'low', u'high', u'medium']","black",49,"left","low","False","False",292,6200,NA
"AJNQ2PBD07FKE","Mon Nov 02 2020 09:05:23 GMT-0500 (Eastern Standard Time)","Mon Nov 02 2020 09:23:25 GMT-0500 (Eastern Standard Time)","Mozilla/5.0 (Macintosh; Intel Mac OS X 10_15_7) AppleWebKit/537.36 (KHTML, like Gecko) Chrome/86.0.4240.75 Safari/537.36",138,"[0.9, 0.5, 0.1]","[0.8, 0.4, 0.2]","[u'black', u'red', u'blue']","[u'left', u'middle', u'right']","[0.8, 0.4, 0.2]","[u'low', u'high', u'medium']","red",50,"middle","high","True","False",98,6300,NA
"AJNQ2PBD07FKE","Mon Nov 02 2020 09:05:23 GMT-0500 (Eastern Standard Time)","Mon Nov 02 2020 09:23:25 GMT-0500 (Eastern Standard Time)","Mozilla/5.0 (Macintosh; Intel Mac OS X 10_15_7) AppleWebKit/537.36 (KHTML, like Gecko) Chrome/86.0.4240.75 Safari/537.36",139,"[0.9, 0.5, 0.1]","[0.8, 0.4, 0.2]","[u'black', u'red', u'blue']","[u'left', u'middle', u'right']","[0.8, 0.4, 0.2]","[u'low', u'high', u'medium']","red",50,"middle","high","True","False",148,6400,NA
"AJNQ2PBD07FKE","Mon Nov 02 2020 09:05:23 GMT-0500 (Eastern Standard Time)","Mon Nov 02 2020 09:23:25 GMT-0500 (Eastern Standard Time)","Mozilla/5.0 (Macintosh; Intel Mac OS X 10_15_7) AppleWebKit/537.36 (KHTML, like Gecko) Chrome/86.0.4240.75 Safari/537.36",140,"[0.9, 0.5, 0.1]","[0.8, 0.4, 0.2]","[u'black', u'red', u'blue']","[u'left', u'middle', u'right']","[0.8, 0.4, 0.2]","[u'low', u'high', u'medium']","red",50,"middle","high","True","False",249,6500,NA
"AJNQ2PBD07FKE","Mon Nov 02 2020 09:05:23 GMT-0500 (Eastern Standard Time)","Mon Nov 02 2020 09:23:25 GMT-0500 (Eastern Standard Time)","Mozilla/5.0 (Macintosh; Intel Mac OS X 10_15_7) AppleWebKit/537.36 (KHTML, like Gecko) Chrome/86.0.4240.75 Safari/537.36",141,"[0.9, 0.5, 0.1]","[0.8, 0.4, 0.2]","[u'black', u'red', u'blue']","[u'left', u'middle', u'right']","[0.8, 0.4, 0.2]","[u'low', u'high', u'medium']","red",50,"middle","high","True","False",241,6600,NA
"AJNQ2PBD07FKE","Mon Nov 02 2020 09:05:23 GMT-0500 (Eastern Standard Time)","Mon Nov 02 2020 09:23:25 GMT-0500 (Eastern Standard Time)","Mozilla/5.0 (Macintosh; Intel Mac OS X 10_15_7) AppleWebKit/537.36 (KHTML, like Gecko) Chrome/86.0.4240.75 Safari/537.36",142,"[0.9, 0.5, 0.1]","[0.8, 0.4, 0.2]","[u'black', u'red', u'blue']","[u'left', u'middle', u'right']","[0.8, 0.4, 0.2]","[u'low', u'high', u'medium']","red",50,"middle","high","True","False",339,6700,NA
"AJNQ2PBD07FKE","Mon Nov 02 2020 09:05:23 GMT-0500 (Eastern Standard Time)","Mon Nov 02 2020 09:23:25 GMT-0500 (Eastern Standard Time)","Mozilla/5.0 (Macintosh; Intel Mac OS X 10_15_7) AppleWebKit/537.36 (KHTML, like Gecko) Chrome/86.0.4240.75 Safari/537.36",143,"[0.9, 0.5, 0.1]","[0.8, 0.4, 0.2]","[u'black', u'red', u'blue']","[u'left', u'middle', u'right']","[0.8, 0.4, 0.2]","[u'low', u'high', u'medium']","red",50,"middle","high","True","False",352,6800,NA
"AJNQ2PBD07FKE","Mon Nov 02 2020 09:05:23 GMT-0500 (Eastern Standard Time)","Mon Nov 02 2020 09:23:25 GMT-0500 (Eastern Standard Time)","Mozilla/5.0 (Macintosh; Intel Mac OS X 10_15_7) AppleWebKit/537.36 (KHTML, like Gecko) Chrome/86.0.4240.75 Safari/537.36",144,"[0.9, 0.5, 0.1]","[0.8, 0.4, 0.2]","[u'black', u'red', u'blue']","[u'left', u'middle', u'right']","[0.8, 0.4, 0.2]","[u'low', u'high', u'medium']","red",50,"middle","high","True","False",345,6900,NA
"AJNQ2PBD07FKE","Mon Nov 02 2020 09:05:23 GMT-0500 (Eastern Standard Time)","Mon Nov 02 2020 09:23:25 GMT-0500 (Eastern Standard Time)","Mozilla/5.0 (Macintosh; Intel Mac OS X 10_15_7) AppleWebKit/537.36 (KHTML, like Gecko) Chrome/86.0.4240.75 Safari/537.36",145,"[0.9, 0.5, 0.1]","[0.8, 0.4, 0.2]","[u'black', u'red', u'blue']","[u'left', u'middle', u'right']","[0.8, 0.4, 0.2]","[u'low', u'high', u'medium']","red",50,"middle","high","True","False",309,7000,NA
"AJNQ2PBD07FKE","Mon Nov 02 2020 09:05:23 GMT-0500 (Eastern Standard Time)","Mon Nov 02 2020 09:23:25 GMT-0500 (Eastern Standard Time)","Mozilla/5.0 (Macintosh; Intel Mac OS X 10_15_7) AppleWebKit/537.36 (KHTML, like Gecko) Chrome/86.0.4240.75 Safari/537.36",146,"[0.9, 0.5, 0.1]","[0.8, 0.4, 0.2]","[u'black', u'red', u'blue']","[u'left', u'middle', u'right']","[0.8, 0.4, 0.2]","[u'low', u'high', u'medium']","red",50,"middle","high","False","True",538,6950,NA
"AJNQ2PBD07FKE","Mon Nov 02 2020 09:05:23 GMT-0500 (Eastern Standard Time)","Mon Nov 02 2020 09:23:25 GMT-0500 (Eastern Standard Time)","Mozilla/5.0 (Macintosh; Intel Mac OS X 10_15_7) AppleWebKit/537.36 (KHTML, like Gecko) Chrome/86.0.4240.75 Safari/537.36",147,"[0.9, 0.5, 0.1]","[0.8, 0.4, 0.2]","[u'black', u'red', u'blue']","[u'left', u'middle', u'right']","[0.8, 0.4, 0.2]","[u'high', u'medium', u'low']","red",50,"middle","medium","False","False",2160,6900,NA
"AJNQ2PBD07FKE","Mon Nov 02 2020 09:05:23 GMT-0500 (Eastern Standard Time)","Mon Nov 02 2020 09:23:25 GMT-0500 (Eastern Standard Time)","Mozilla/5.0 (Macintosh; Intel Mac OS X 10_15_7) AppleWebKit/537.36 (KHTML, like Gecko) Chrome/86.0.4240.75 Safari/537.36",148,"[0.9, 0.5, 0.1]","[0.8, 0.4, 0.2]","[u'black', u'red', u'blue']","[u'left', u'middle', u'right']","[0.8, 0.4, 0.2]","[u'high', u'medium', u'low']","black",49,"left","high","True","False",142,7000,NA
"AJNQ2PBD07FKE","Mon Nov 02 2020 09:05:23 GMT-0500 (Eastern Standard Time)","Mon Nov 02 2020 09:23:25 GMT-0500 (Eastern Standard Time)","Mozilla/5.0 (Macintosh; Intel Mac OS X 10_15_7) AppleWebKit/537.36 (KHTML, like Gecko) Chrome/86.0.4240.75 Safari/537.36",149,"[0.9, 0.5, 0.1]","[0.8, 0.4, 0.2]","[u'black', u'red', u'blue']","[u'left', u'middle', u'right']","[0.8, 0.4, 0.2]","[u'high', u'medium', u'low']","black",49,"left","high","True","False",274,7100,NA
"AJNQ2PBD07FKE","Mon Nov 02 2020 09:05:23 GMT-0500 (Eastern Standard Time)","Mon Nov 02 2020 09:23:25 GMT-0500 (Eastern Standard Time)","Mozilla/5.0 (Macintosh; Intel Mac OS X 10_15_7) AppleWebKit/537.36 (KHTML, like Gecko) Chrome/86.0.4240.75 Safari/537.36",150,"[0.9, 0.5, 0.1]","[0.8, 0.4, 0.2]","[u'black', u'red', u'blue']","[u'left', u'middle', u'right']","[0.8, 0.4, 0.2]","[u'high', u'medium', u'low']","black",49,"left","high","False","False",291,7050,NA
"AJNQ2PBD07FKE","Mon Nov 02 2020 09:05:23 GMT-0500 (Eastern Standard Time)","Mon Nov 02 2020 09:23:25 GMT-0500 (Eastern Standard Time)","Mozilla/5.0 (Macintosh; Intel Mac OS X 10_15_7) AppleWebKit/537.36 (KHTML, like Gecko) Chrome/86.0.4240.75 Safari/537.36",151,"[0.9, 0.5, 0.1]","[0.8, 0.4, 0.2]","[u'black', u'red', u'blue']","[u'left', u'middle', u'right']","[0.8, 0.4, 0.2]","[u'high', u'medium', u'low']","black",49,"left","high","False","False",118,7000,NA
"AJNQ2PBD07FKE","Mon Nov 02 2020 09:05:23 GMT-0500 (Eastern Standard Time)","Mon Nov 02 2020 09:23:25 GMT-0500 (Eastern Standard Time)","Mozilla/5.0 (Macintosh; Intel Mac OS X 10_15_7) AppleWebKit/537.36 (KHTML, like Gecko) Chrome/86.0.4240.75 Safari/537.36",152,"[0.9, 0.5, 0.1]","[0.8, 0.4, 0.2]","[u'black', u'red', u'blue']","[u'left', u'middle', u'right']","[0.8, 0.4, 0.2]","[u'high', u'medium', u'low']","blue",51,"right","low","False","False",79,6950,NA
"AJNQ2PBD07FKE","Mon Nov 02 2020 09:05:23 GMT-0500 (Eastern Standard Time)","Mon Nov 02 2020 09:23:25 GMT-0500 (Eastern Standard Time)","Mozilla/5.0 (Macintosh; Intel Mac OS X 10_15_7) AppleWebKit/537.36 (KHTML, like Gecko) Chrome/86.0.4240.75 Safari/537.36",153,"[0.9, 0.5, 0.1]","[0.8, 0.4, 0.2]","[u'black', u'red', u'blue']","[u'left', u'middle', u'right']","[0.8, 0.4, 0.2]","[u'high', u'medium', u'low']","blue",51,"right","low","False","False",133,6900,NA
"AJNQ2PBD07FKE","Mon Nov 02 2020 09:05:23 GMT-0500 (Eastern Standard Time)","Mon Nov 02 2020 09:23:25 GMT-0500 (Eastern Standard Time)","Mozilla/5.0 (Macintosh; Intel Mac OS X 10_15_7) AppleWebKit/537.36 (KHTML, like Gecko) Chrome/86.0.4240.75 Safari/537.36",154,"[0.9, 0.5, 0.1]","[0.8, 0.4, 0.2]","[u'black', u'red', u'blue']","[u'left', u'middle', u'right']","[0.8, 0.4, 0.2]","[u'high', u'medium', u'low']","red",50,"middle","medium","False","False",142,6850,NA
"AJNQ2PBD07FKE","Mon Nov 02 2020 09:05:23 GMT-0500 (Eastern Standard Time)","Mon Nov 02 2020 09:23:25 GMT-0500 (Eastern Standard Time)","Mozilla/5.0 (Macintosh; Intel Mac OS X 10_15_7) AppleWebKit/537.36 (KHTML, like Gecko) Chrome/86.0.4240.75 Safari/537.36",155,"[0.9, 0.5, 0.1]","[0.8, 0.4, 0.2]","[u'black', u'red', u'blue']","[u'left', u'middle', u'right']","[0.8, 0.4, 0.2]","[u'high', u'medium', u'low']","red",50,"middle","medium","True","False",40,6950,NA
"AJNQ2PBD07FKE","Mon Nov 02 2020 09:05:23 GMT-0500 (Eastern Standard Time)","Mon Nov 02 2020 09:23:25 GMT-0500 (Eastern Standard Time)","Mozilla/5.0 (Macintosh; Intel Mac OS X 10_15_7) AppleWebKit/537.36 (KHTML, like Gecko) Chrome/86.0.4240.75 Safari/537.36",156,"[0.9, 0.5, 0.1]","[0.8, 0.4, 0.2]","[u'black', u'red', u'blue']","[u'left', u'middle', u'right']","[0.8, 0.4, 0.2]","[u'high', u'medium', u'low']","red",50,"middle","medium","True","False",269,7050,NA
"AJNQ2PBD07FKE","Mon Nov 02 2020 09:05:23 GMT-0500 (Eastern Standard Time)","Mon Nov 02 2020 09:23:25 GMT-0500 (Eastern Standard Time)","Mozilla/5.0 (Macintosh; Intel Mac OS X 10_15_7) AppleWebKit/537.36 (KHTML, like Gecko) Chrome/86.0.4240.75 Safari/537.36",157,"[0.9, 0.5, 0.1]","[0.8, 0.4, 0.2]","[u'black', u'red', u'blue']","[u'left', u'middle', u'right']","[0.8, 0.4, 0.2]","[u'high', u'medium', u'low']","red",50,"middle","medium","True","False",229,7150,NA
"AJNQ2PBD07FKE","Mon Nov 02 2020 09:05:23 GMT-0500 (Eastern Standard Time)","Mon Nov 02 2020 09:23:25 GMT-0500 (Eastern Standard Time)","Mozilla/5.0 (Macintosh; Intel Mac OS X 10_15_7) AppleWebKit/537.36 (KHTML, like Gecko) Chrome/86.0.4240.75 Safari/537.36",158,"[0.9, 0.5, 0.1]","[0.8, 0.4, 0.2]","[u'black', u'red', u'blue']","[u'left', u'middle', u'right']","[0.8, 0.4, 0.2]","[u'high', u'medium', u'low']","red",50,"middle","medium","True","False",308,7250,NA
"AJNQ2PBD07FKE","Mon Nov 02 2020 09:05:23 GMT-0500 (Eastern Standard Time)","Mon Nov 02 2020 09:23:25 GMT-0500 (Eastern Standard Time)","Mozilla/5.0 (Macintosh; Intel Mac OS X 10_15_7) AppleWebKit/537.36 (KHTML, like Gecko) Chrome/86.0.4240.75 Safari/537.36",159,"[0.9, 0.5, 0.1]","[0.8, 0.4, 0.2]","[u'black', u'red', u'blue']","[u'left', u'middle', u'right']","[0.8, 0.4, 0.2]","[u'high', u'medium', u'low']","red",50,"middle","medium","True","False",248,7350,NA
"AJNQ2PBD07FKE","Mon Nov 02 2020 09:05:23 GMT-0500 (Eastern Standard Time)","Mon Nov 02 2020 09:23:25 GMT-0500 (Eastern Standard Time)","Mozilla/5.0 (Macintosh; Intel Mac OS X 10_15_7) AppleWebKit/537.36 (KHTML, like Gecko) Chrome/86.0.4240.75 Safari/537.36",160,"[0.9, 0.5, 0.1]","[0.8, 0.4, 0.2]","[u'black', u'red', u'blue']","[u'left', u'middle', u'right']","[0.8, 0.4, 0.2]","[u'high', u'medium', u'low']","red",50,"middle","medium","True","False",284,7450,NA
