"src_subject_id","start_time","end_time","browser","index","first_half_probabilities","second_half_probabilities","deck_color","deck_position","deck_probabilities","deck_contingencies","response_color","key_press","response_position","response_probability","reward_type","trial_type","rt","reward_tally","exclusion_reason"
"A1TEXCUTI4IUUN","Mon Nov 02 2020 10:46:45 GMT-0400 (hora de Venezuela)","Mon Nov 02 2020 10:57:13 GMT-0400 (hora de Venezuela)","Mozilla/5.0 (Windows NT 10.0; Win64; x64; rv:82.0) Gecko/20100101 Firefox/82.0",1,"[0.9, 0.5, 0.1]","[0.8, 0.4, 0.2]","[u'black', u'red', u'blue']","[u'left', u'middle', u'right']","[0.9, 0.5, 0.1]","[u'low', u'medium', u'high']","black",49,"left","low","False","False",830,-50,NA
"A1TEXCUTI4IUUN","Mon Nov 02 2020 10:46:45 GMT-0400 (hora de Venezuela)","Mon Nov 02 2020 10:57:13 GMT-0400 (hora de Venezuela)","Mozilla/5.0 (Windows NT 10.0; Win64; x64; rv:82.0) Gecko/20100101 Firefox/82.0",2,"[0.9, 0.5, 0.1]","[0.8, 0.4, 0.2]","[u'black', u'red', u'blue']","[u'left', u'middle', u'right']","[0.9, 0.5, 0.1]","[u'low', u'medium', u'high']","red",50,"middle","medium","True","False",322,50,NA
"A1TEXCUTI4IUUN","Mon Nov 02 2020 10:46:45 GMT-0400 (hora de Venezuela)","Mon Nov 02 2020 10:57:13 GMT-0400 (hora de Venezuela)","Mozilla/5.0 (Windows NT 10.0; Win64; x64; rv:82.0) Gecko/20100101 Firefox/82.0",3,"[0.9, 0.5, 0.1]","[0.8, 0.4, 0.2]","[u'black', u'red', u'blue']","[u'left', u'middle', u'right']","[0.9, 0.5, 0.1]","[u'low', u'medium', u'high']","blue",51,"right","high","True","False",244,150,NA
"A1TEXCUTI4IUUN","Mon Nov 02 2020 10:46:45 GMT-0400 (hora de Venezuela)","Mon Nov 02 2020 10:57:13 GMT-0400 (hora de Venezuela)","Mozilla/5.0 (Windows NT 10.0; Win64; x64; rv:82.0) Gecko/20100101 Firefox/82.0",4,"[0.9, 0.5, 0.1]","[0.8, 0.4, 0.2]","[u'black', u'red', u'blue']","[u'left', u'middle', u'right']","[0.9, 0.5, 0.1]","[u'low', u'medium', u'high']","red",50,"middle","medium","True","False",404,250,NA
"A1TEXCUTI4IUUN","Mon Nov 02 2020 10:46:45 GMT-0400 (hora de Venezuela)","Mon Nov 02 2020 10:57:13 GMT-0400 (hora de Venezuela)","Mozilla/5.0 (Windows NT 10.0; Win64; x64; rv:82.0) Gecko/20100101 Firefox/82.0",5,"[0.9, 0.5, 0.1]","[0.8, 0.4, 0.2]","[u'black', u'red', u'blue']","[u'left', u'middle', u'right']","[0.9, 0.5, 0.1]","[u'low', u'medium', u'high']","red",50,"middle","medium","True","False",383,350,NA
"A1TEXCUTI4IUUN","Mon Nov 02 2020 10:46:45 GMT-0400 (hora de Venezuela)","Mon Nov 02 2020 10:57:13 GMT-0400 (hora de Venezuela)","Mozilla/5.0 (Windows NT 10.0; Win64; x64; rv:82.0) Gecko/20100101 Firefox/82.0",6,"[0.9, 0.5, 0.1]","[0.8, 0.4, 0.2]","[u'black', u'red', u'blue']","[u'left', u'middle', u'right']","[0.9, 0.5, 0.1]","[u'low', u'medium', u'high']","blue",51,"right","high","True","False",274,450,NA
"A1TEXCUTI4IUUN","Mon Nov 02 2020 10:46:45 GMT-0400 (hora de Venezuela)","Mon Nov 02 2020 10:57:13 GMT-0400 (hora de Venezuela)","Mozilla/5.0 (Windows NT 10.0; Win64; x64; rv:82.0) Gecko/20100101 Firefox/82.0",7,"[0.9, 0.5, 0.1]","[0.8, 0.4, 0.2]","[u'black', u'red', u'blue']","[u'left', u'middle', u'right']","[0.9, 0.5, 0.1]","[u'low', u'medium', u'high']","black",49,"left","low","False","False",260,400,NA
"A1TEXCUTI4IUUN","Mon Nov 02 2020 10:46:45 GMT-0400 (hora de Venezuela)","Mon Nov 02 2020 10:57:13 GMT-0400 (hora de Venezuela)","Mozilla/5.0 (Windows NT 10.0; Win64; x64; rv:82.0) Gecko/20100101 Firefox/82.0",8,"[0.9, 0.5, 0.1]","[0.8, 0.4, 0.2]","[u'black', u'red', u'blue']","[u'left', u'middle', u'right']","[0.9, 0.5, 0.1]","[u'low', u'medium', u'high']","red",50,"middle","medium","False","False",259,350,NA
"A1TEXCUTI4IUUN","Mon Nov 02 2020 10:46:45 GMT-0400 (hora de Venezuela)","Mon Nov 02 2020 10:57:13 GMT-0400 (hora de Venezuela)","Mozilla/5.0 (Windows NT 10.0; Win64; x64; rv:82.0) Gecko/20100101 Firefox/82.0",9,"[0.9, 0.5, 0.1]","[0.8, 0.4, 0.2]","[u'black', u'red', u'blue']","[u'left', u'middle', u'right']","[0.9, 0.5, 0.1]","[u'low', u'medium', u'high']","black",49,"left","low","False","False",185,300,NA
"A1TEXCUTI4IUUN","Mon Nov 02 2020 10:46:45 GMT-0400 (hora de Venezuela)","Mon Nov 02 2020 10:57:13 GMT-0400 (hora de Venezuela)","Mozilla/5.0 (Windows NT 10.0; Win64; x64; rv:82.0) Gecko/20100101 Firefox/82.0",10,"[0.9, 0.5, 0.1]","[0.8, 0.4, 0.2]","[u'black', u'red', u'blue']","[u'left', u'middle', u'right']","[0.9, 0.5, 0.1]","[u'low', u'medium', u'high']","blue",51,"right","high","True","False",180,400,NA
"A1TEXCUTI4IUUN","Mon Nov 02 2020 10:46:45 GMT-0400 (hora de Venezuela)","Mon Nov 02 2020 10:57:13 GMT-0400 (hora de Venezuela)","Mozilla/5.0 (Windows NT 10.0; Win64; x64; rv:82.0) Gecko/20100101 Firefox/82.0",11,"[0.9, 0.5, 0.1]","[0.8, 0.4, 0.2]","[u'black', u'red', u'blue']","[u'left', u'middle', u'right']","[0.9, 0.5, 0.1]","[u'low', u'medium', u'high']","red",50,"middle","medium","True","False",320,500,NA
"A1TEXCUTI4IUUN","Mon Nov 02 2020 10:46:45 GMT-0400 (hora de Venezuela)","Mon Nov 02 2020 10:57:13 GMT-0400 (hora de Venezuela)","Mozilla/5.0 (Windows NT 10.0; Win64; x64; rv:82.0) Gecko/20100101 Firefox/82.0",12,"[0.9, 0.5, 0.1]","[0.8, 0.4, 0.2]","[u'black', u'red', u'blue']","[u'left', u'middle', u'right']","[0.9, 0.5, 0.1]","[u'low', u'medium', u'high']","blue",51,"right","high","True","False",255,600,NA
"A1TEXCUTI4IUUN","Mon Nov 02 2020 10:46:45 GMT-0400 (hora de Venezuela)","Mon Nov 02 2020 10:57:13 GMT-0400 (hora de Venezuela)","Mozilla/5.0 (Windows NT 10.0; Win64; x64; rv:82.0) Gecko/20100101 Firefox/82.0",13,"[0.9, 0.5, 0.1]","[0.8, 0.4, 0.2]","[u'black', u'red', u'blue']","[u'left', u'middle', u'right']","[0.9, 0.5, 0.1]","[u'low', u'medium', u'high']","black",49,"left","low","False","False",139,550,NA
"A1TEXCUTI4IUUN","Mon Nov 02 2020 10:46:45 GMT-0400 (hora de Venezuela)","Mon Nov 02 2020 10:57:13 GMT-0400 (hora de Venezuela)","Mozilla/5.0 (Windows NT 10.0; Win64; x64; rv:82.0) Gecko/20100101 Firefox/82.0",14,"[0.9, 0.5, 0.1]","[0.8, 0.4, 0.2]","[u'black', u'red', u'blue']","[u'left', u'middle', u'right']","[0.9, 0.5, 0.1]","[u'low', u'medium', u'high']","blue",51,"right","high","True","False",166,650,NA
"A1TEXCUTI4IUUN","Mon Nov 02 2020 10:46:45 GMT-0400 (hora de Venezuela)","Mon Nov 02 2020 10:57:13 GMT-0400 (hora de Venezuela)","Mozilla/5.0 (Windows NT 10.0; Win64; x64; rv:82.0) Gecko/20100101 Firefox/82.0",15,"[0.9, 0.5, 0.1]","[0.8, 0.4, 0.2]","[u'black', u'red', u'blue']","[u'left', u'middle', u'right']","[0.9, 0.5, 0.1]","[u'low', u'medium', u'high']","red",50,"middle","medium","False","False",340,600,NA
"A1TEXCUTI4IUUN","Mon Nov 02 2020 10:46:45 GMT-0400 (hora de Venezuela)","Mon Nov 02 2020 10:57:13 GMT-0400 (hora de Venezuela)","Mozilla/5.0 (Windows NT 10.0; Win64; x64; rv:82.0) Gecko/20100101 Firefox/82.0",16,"[0.9, 0.5, 0.1]","[0.8, 0.4, 0.2]","[u'black', u'red', u'blue']","[u'left', u'middle', u'right']","[0.9, 0.5, 0.1]","[u'low', u'medium', u'high']","blue",51,"right","high","True","False",90,700,NA
"A1TEXCUTI4IUUN","Mon Nov 02 2020 10:46:45 GMT-0400 (hora de Venezuela)","Mon Nov 02 2020 10:57:13 GMT-0400 (hora de Venezuela)","Mozilla/5.0 (Windows NT 10.0; Win64; x64; rv:82.0) Gecko/20100101 Firefox/82.0",17,"[0.9, 0.5, 0.1]","[0.8, 0.4, 0.2]","[u'black', u'red', u'blue']","[u'left', u'middle', u'right']","[0.9, 0.5, 0.1]","[u'low', u'medium', u'high']","black",49,"left","low","False","False",175,650,NA
"A1TEXCUTI4IUUN","Mon Nov 02 2020 10:46:45 GMT-0400 (hora de Venezuela)","Mon Nov 02 2020 10:57:13 GMT-0400 (hora de Venezuela)","Mozilla/5.0 (Windows NT 10.0; Win64; x64; rv:82.0) Gecko/20100101 Firefox/82.0",18,"[0.9, 0.5, 0.1]","[0.8, 0.4, 0.2]","[u'black', u'red', u'blue']","[u'left', u'middle', u'right']","[0.9, 0.5, 0.1]","[u'low', u'medium', u'high']","red",50,"middle","medium","True","False",122,750,NA
"A1TEXCUTI4IUUN","Mon Nov 02 2020 10:46:45 GMT-0400 (hora de Venezuela)","Mon Nov 02 2020 10:57:13 GMT-0400 (hora de Venezuela)","Mozilla/5.0 (Windows NT 10.0; Win64; x64; rv:82.0) Gecko/20100101 Firefox/82.0",19,"[0.9, 0.5, 0.1]","[0.8, 0.4, 0.2]","[u'black', u'red', u'blue']","[u'left', u'middle', u'right']","[0.9, 0.5, 0.1]","[u'low', u'medium', u'high']","blue",51,"right","high","True","False",194,850,NA
"A1TEXCUTI4IUUN","Mon Nov 02 2020 10:46:45 GMT-0400 (hora de Venezuela)","Mon Nov 02 2020 10:57:13 GMT-0400 (hora de Venezuela)","Mozilla/5.0 (Windows NT 10.0; Win64; x64; rv:82.0) Gecko/20100101 Firefox/82.0",20,"[0.9, 0.5, 0.1]","[0.8, 0.4, 0.2]","[u'black', u'red', u'blue']","[u'left', u'middle', u'right']","[0.9, 0.5, 0.1]","[u'low', u'medium', u'high']","red",50,"middle","medium","True","False",39,950,NA
"A1TEXCUTI4IUUN","Mon Nov 02 2020 10:46:45 GMT-0400 (hora de Venezuela)","Mon Nov 02 2020 10:57:13 GMT-0400 (hora de Venezuela)","Mozilla/5.0 (Windows NT 10.0; Win64; x64; rv:82.0) Gecko/20100101 Firefox/82.0",21,"[0.9, 0.5, 0.1]","[0.8, 0.4, 0.2]","[u'black', u'red', u'blue']","[u'left', u'middle', u'right']","[0.9, 0.5, 0.1]","[u'low', u'medium', u'high']","blue",51,"right","high","True","False",234,1050,NA
"A1TEXCUTI4IUUN","Mon Nov 02 2020 10:46:45 GMT-0400 (hora de Venezuela)","Mon Nov 02 2020 10:57:13 GMT-0400 (hora de Venezuela)","Mozilla/5.0 (Windows NT 10.0; Win64; x64; rv:82.0) Gecko/20100101 Firefox/82.0",22,"[0.9, 0.5, 0.1]","[0.8, 0.4, 0.2]","[u'black', u'red', u'blue']","[u'left', u'middle', u'right']","[0.9, 0.5, 0.1]","[u'low', u'medium', u'high']","black",49,"left","low","False","False",337,1000,NA
"A1TEXCUTI4IUUN","Mon Nov 02 2020 10:46:45 GMT-0400 (hora de Venezuela)","Mon Nov 02 2020 10:57:13 GMT-0400 (hora de Venezuela)","Mozilla/5.0 (Windows NT 10.0; Win64; x64; rv:82.0) Gecko/20100101 Firefox/82.0",23,"[0.9, 0.5, 0.1]","[0.8, 0.4, 0.2]","[u'black', u'red', u'blue']","[u'left', u'middle', u'right']","[0.9, 0.5, 0.1]","[u'low', u'medium', u'high']","blue",51,"right","high","True","False",76,1100,NA
"A1TEXCUTI4IUUN","Mon Nov 02 2020 10:46:45 GMT-0400 (hora de Venezuela)","Mon Nov 02 2020 10:57:13 GMT-0400 (hora de Venezuela)","Mozilla/5.0 (Windows NT 10.0; Win64; x64; rv:82.0) Gecko/20100101 Firefox/82.0",24,"[0.9, 0.5, 0.1]","[0.8, 0.4, 0.2]","[u'black', u'red', u'blue']","[u'left', u'middle', u'right']","[0.9, 0.5, 0.1]","[u'low', u'medium', u'high']","red",50,"middle","medium","False","False",240,1050,NA
"A1TEXCUTI4IUUN","Mon Nov 02 2020 10:46:45 GMT-0400 (hora de Venezuela)","Mon Nov 02 2020 10:57:13 GMT-0400 (hora de Venezuela)","Mozilla/5.0 (Windows NT 10.0; Win64; x64; rv:82.0) Gecko/20100101 Firefox/82.0",25,"[0.9, 0.5, 0.1]","[0.8, 0.4, 0.2]","[u'black', u'red', u'blue']","[u'left', u'middle', u'right']","[0.9, 0.5, 0.1]","[u'low', u'medium', u'high']","blue",51,"right","high","True","False",90,1150,NA
"A1TEXCUTI4IUUN","Mon Nov 02 2020 10:46:45 GMT-0400 (hora de Venezuela)","Mon Nov 02 2020 10:57:13 GMT-0400 (hora de Venezuela)","Mozilla/5.0 (Windows NT 10.0; Win64; x64; rv:82.0) Gecko/20100101 Firefox/82.0",26,"[0.9, 0.5, 0.1]","[0.8, 0.4, 0.2]","[u'black', u'red', u'blue']","[u'left', u'middle', u'right']","[0.9, 0.5, 0.1]","[u'low', u'medium', u'high']","black",49,"left","low","False","False",189,1100,NA
"A1TEXCUTI4IUUN","Mon Nov 02 2020 10:46:45 GMT-0400 (hora de Venezuela)","Mon Nov 02 2020 10:57:13 GMT-0400 (hora de Venezuela)","Mozilla/5.0 (Windows NT 10.0; Win64; x64; rv:82.0) Gecko/20100101 Firefox/82.0",27,"[0.9, 0.5, 0.1]","[0.8, 0.4, 0.2]","[u'black', u'red', u'blue']","[u'left', u'middle', u'right']","[0.9, 0.5, 0.1]","[u'low', u'medium', u'high']","red",50,"middle","medium","True","False",88,1200,NA
"A1TEXCUTI4IUUN","Mon Nov 02 2020 10:46:45 GMT-0400 (hora de Venezuela)","Mon Nov 02 2020 10:57:13 GMT-0400 (hora de Venezuela)","Mozilla/5.0 (Windows NT 10.0; Win64; x64; rv:82.0) Gecko/20100101 Firefox/82.0",28,"[0.9, 0.5, 0.1]","[0.8, 0.4, 0.2]","[u'black', u'red', u'blue']","[u'left', u'middle', u'right']","[0.9, 0.5, 0.1]","[u'low', u'medium', u'high']","blue",51,"right","high","True","False",228,1300,NA
"A1TEXCUTI4IUUN","Mon Nov 02 2020 10:46:45 GMT-0400 (hora de Venezuela)","Mon Nov 02 2020 10:57:13 GMT-0400 (hora de Venezuela)","Mozilla/5.0 (Windows NT 10.0; Win64; x64; rv:82.0) Gecko/20100101 Firefox/82.0",29,"[0.9, 0.5, 0.1]","[0.8, 0.4, 0.2]","[u'black', u'red', u'blue']","[u'left', u'middle', u'right']","[0.9, 0.5, 0.1]","[u'low', u'medium', u'high']","red",50,"middle","medium","False","False",215,1250,NA
"A1TEXCUTI4IUUN","Mon Nov 02 2020 10:46:45 GMT-0400 (hora de Venezuela)","Mon Nov 02 2020 10:57:13 GMT-0400 (hora de Venezuela)","Mozilla/5.0 (Windows NT 10.0; Win64; x64; rv:82.0) Gecko/20100101 Firefox/82.0",30,"[0.9, 0.5, 0.1]","[0.8, 0.4, 0.2]","[u'black', u'red', u'blue']","[u'left', u'middle', u'right']","[0.9, 0.5, 0.1]","[u'low', u'medium', u'high']","blue",51,"right","high","False","False",289,1200,NA
"A1TEXCUTI4IUUN","Mon Nov 02 2020 10:46:45 GMT-0400 (hora de Venezuela)","Mon Nov 02 2020 10:57:13 GMT-0400 (hora de Venezuela)","Mozilla/5.0 (Windows NT 10.0; Win64; x64; rv:82.0) Gecko/20100101 Firefox/82.0",31,"[0.9, 0.5, 0.1]","[0.8, 0.4, 0.2]","[u'black', u'red', u'blue']","[u'left', u'middle', u'right']","[0.9, 0.5, 0.1]","[u'low', u'medium', u'high']","red",50,"middle","medium","True","False",205,1300,NA
"A1TEXCUTI4IUUN","Mon Nov 02 2020 10:46:45 GMT-0400 (hora de Venezuela)","Mon Nov 02 2020 10:57:13 GMT-0400 (hora de Venezuela)","Mozilla/5.0 (Windows NT 10.0; Win64; x64; rv:82.0) Gecko/20100101 Firefox/82.0",32,"[0.9, 0.5, 0.1]","[0.8, 0.4, 0.2]","[u'black', u'red', u'blue']","[u'left', u'middle', u'right']","[0.9, 0.5, 0.1]","[u'low', u'medium', u'high']","black",49,"left","low","False","False",158,1250,NA
"A1TEXCUTI4IUUN","Mon Nov 02 2020 10:46:45 GMT-0400 (hora de Venezuela)","Mon Nov 02 2020 10:57:13 GMT-0400 (hora de Venezuela)","Mozilla/5.0 (Windows NT 10.0; Win64; x64; rv:82.0) Gecko/20100101 Firefox/82.0",33,"[0.9, 0.5, 0.1]","[0.8, 0.4, 0.2]","[u'black', u'red', u'blue']","[u'left', u'middle', u'right']","[0.9, 0.5, 0.1]","[u'low', u'medium', u'high']","blue",51,"right","high","True","False",11,1350,NA
"A1TEXCUTI4IUUN","Mon Nov 02 2020 10:46:45 GMT-0400 (hora de Venezuela)","Mon Nov 02 2020 10:57:13 GMT-0400 (hora de Venezuela)","Mozilla/5.0 (Windows NT 10.0; Win64; x64; rv:82.0) Gecko/20100101 Firefox/82.0",34,"[0.9, 0.5, 0.1]","[0.8, 0.4, 0.2]","[u'black', u'red', u'blue']","[u'left', u'middle', u'right']","[0.9, 0.5, 0.1]","[u'low', u'medium', u'high']","red",50,"middle","medium","True","False",223,1450,NA
"A1TEXCUTI4IUUN","Mon Nov 02 2020 10:46:45 GMT-0400 (hora de Venezuela)","Mon Nov 02 2020 10:57:13 GMT-0400 (hora de Venezuela)","Mozilla/5.0 (Windows NT 10.0; Win64; x64; rv:82.0) Gecko/20100101 Firefox/82.0",35,"[0.9, 0.5, 0.1]","[0.8, 0.4, 0.2]","[u'black', u'red', u'blue']","[u'left', u'middle', u'right']","[0.9, 0.5, 0.1]","[u'low', u'medium', u'high']","blue",51,"right","high","True","False",321,1550,NA
"A1TEXCUTI4IUUN","Mon Nov 02 2020 10:46:45 GMT-0400 (hora de Venezuela)","Mon Nov 02 2020 10:57:13 GMT-0400 (hora de Venezuela)","Mozilla/5.0 (Windows NT 10.0; Win64; x64; rv:82.0) Gecko/20100101 Firefox/82.0",36,"[0.9, 0.5, 0.1]","[0.8, 0.4, 0.2]","[u'black', u'red', u'blue']","[u'left', u'middle', u'right']","[0.9, 0.5, 0.1]","[u'low', u'medium', u'high']","red",50,"middle","medium","True","False",388,1650,NA
"A1TEXCUTI4IUUN","Mon Nov 02 2020 10:46:45 GMT-0400 (hora de Venezuela)","Mon Nov 02 2020 10:57:13 GMT-0400 (hora de Venezuela)","Mozilla/5.0 (Windows NT 10.0; Win64; x64; rv:82.0) Gecko/20100101 Firefox/82.0",37,"[0.9, 0.5, 0.1]","[0.8, 0.4, 0.2]","[u'black', u'red', u'blue']","[u'left', u'middle', u'right']","[0.9, 0.5, 0.1]","[u'low', u'medium', u'high']","blue",51,"right","high","True","False",265,1750,NA
"A1TEXCUTI4IUUN","Mon Nov 02 2020 10:46:45 GMT-0400 (hora de Venezuela)","Mon Nov 02 2020 10:57:13 GMT-0400 (hora de Venezuela)","Mozilla/5.0 (Windows NT 10.0; Win64; x64; rv:82.0) Gecko/20100101 Firefox/82.0",38,"[0.9, 0.5, 0.1]","[0.8, 0.4, 0.2]","[u'black', u'red', u'blue']","[u'left', u'middle', u'right']","[0.9, 0.5, 0.1]","[u'low', u'medium', u'high']","red",50,"middle","medium","True","False",264,1850,NA
"A1TEXCUTI4IUUN","Mon Nov 02 2020 10:46:45 GMT-0400 (hora de Venezuela)","Mon Nov 02 2020 10:57:13 GMT-0400 (hora de Venezuela)","Mozilla/5.0 (Windows NT 10.0; Win64; x64; rv:82.0) Gecko/20100101 Firefox/82.0",39,"[0.9, 0.5, 0.1]","[0.8, 0.4, 0.2]","[u'black', u'red', u'blue']","[u'left', u'middle', u'right']","[0.9, 0.5, 0.1]","[u'low', u'medium', u'high']","blue",51,"right","high","True","False",320,1950,NA
"A1TEXCUTI4IUUN","Mon Nov 02 2020 10:46:45 GMT-0400 (hora de Venezuela)","Mon Nov 02 2020 10:57:13 GMT-0400 (hora de Venezuela)","Mozilla/5.0 (Windows NT 10.0; Win64; x64; rv:82.0) Gecko/20100101 Firefox/82.0",40,"[0.9, 0.5, 0.1]","[0.8, 0.4, 0.2]","[u'black', u'red', u'blue']","[u'left', u'middle', u'right']","[0.9, 0.5, 0.1]","[u'low', u'medium', u'high']","red",50,"middle","medium","False","False",230,1900,NA
"A1TEXCUTI4IUUN","Mon Nov 02 2020 10:46:45 GMT-0400 (hora de Venezuela)","Mon Nov 02 2020 10:57:13 GMT-0400 (hora de Venezuela)","Mozilla/5.0 (Windows NT 10.0; Win64; x64; rv:82.0) Gecko/20100101 Firefox/82.0",41,"[0.9, 0.5, 0.1]","[0.8, 0.4, 0.2]","[u'black', u'red', u'blue']","[u'left', u'middle', u'right']","[0.9, 0.5, 0.1]","[u'medium', u'high', u'low']","red",50,"middle","high","True","False",440,2000,NA
"A1TEXCUTI4IUUN","Mon Nov 02 2020 10:46:45 GMT-0400 (hora de Venezuela)","Mon Nov 02 2020 10:57:13 GMT-0400 (hora de Venezuela)","Mozilla/5.0 (Windows NT 10.0; Win64; x64; rv:82.0) Gecko/20100101 Firefox/82.0",42,"[0.9, 0.5, 0.1]","[0.8, 0.4, 0.2]","[u'black', u'red', u'blue']","[u'left', u'middle', u'right']","[0.9, 0.5, 0.1]","[u'medium', u'high', u'low']","blue",51,"right","low","False","False",239,1950,NA
"A1TEXCUTI4IUUN","Mon Nov 02 2020 10:46:45 GMT-0400 (hora de Venezuela)","Mon Nov 02 2020 10:57:13 GMT-0400 (hora de Venezuela)","Mozilla/5.0 (Windows NT 10.0; Win64; x64; rv:82.0) Gecko/20100101 Firefox/82.0",43,"[0.9, 0.5, 0.1]","[0.8, 0.4, 0.2]","[u'black', u'red', u'blue']","[u'left', u'middle', u'right']","[0.9, 0.5, 0.1]","[u'medium', u'high', u'low']","red",50,"middle","high","True","False",191,2050,NA
"A1TEXCUTI4IUUN","Mon Nov 02 2020 10:46:45 GMT-0400 (hora de Venezuela)","Mon Nov 02 2020 10:57:13 GMT-0400 (hora de Venezuela)","Mozilla/5.0 (Windows NT 10.0; Win64; x64; rv:82.0) Gecko/20100101 Firefox/82.0",44,"[0.9, 0.5, 0.1]","[0.8, 0.4, 0.2]","[u'black', u'red', u'blue']","[u'left', u'middle', u'right']","[0.9, 0.5, 0.1]","[u'medium', u'high', u'low']","black",49,"left","medium","True","False",180,2150,NA
"A1TEXCUTI4IUUN","Mon Nov 02 2020 10:46:45 GMT-0400 (hora de Venezuela)","Mon Nov 02 2020 10:57:13 GMT-0400 (hora de Venezuela)","Mozilla/5.0 (Windows NT 10.0; Win64; x64; rv:82.0) Gecko/20100101 Firefox/82.0",45,"[0.9, 0.5, 0.1]","[0.8, 0.4, 0.2]","[u'black', u'red', u'blue']","[u'left', u'middle', u'right']","[0.9, 0.5, 0.1]","[u'medium', u'high', u'low']","blue",51,"right","low","False","False",220,2100,NA
"A1TEXCUTI4IUUN","Mon Nov 02 2020 10:46:45 GMT-0400 (hora de Venezuela)","Mon Nov 02 2020 10:57:13 GMT-0400 (hora de Venezuela)","Mozilla/5.0 (Windows NT 10.0; Win64; x64; rv:82.0) Gecko/20100101 Firefox/82.0",46,"[0.9, 0.5, 0.1]","[0.8, 0.4, 0.2]","[u'black', u'red', u'blue']","[u'left', u'middle', u'right']","[0.9, 0.5, 0.1]","[u'medium', u'high', u'low']","black",49,"left","medium","False","False",216,2050,NA
"A1TEXCUTI4IUUN","Mon Nov 02 2020 10:46:45 GMT-0400 (hora de Venezuela)","Mon Nov 02 2020 10:57:13 GMT-0400 (hora de Venezuela)","Mozilla/5.0 (Windows NT 10.0; Win64; x64; rv:82.0) Gecko/20100101 Firefox/82.0",47,"[0.9, 0.5, 0.1]","[0.8, 0.4, 0.2]","[u'black', u'red', u'blue']","[u'left', u'middle', u'right']","[0.9, 0.5, 0.1]","[u'medium', u'high', u'low']","red",50,"middle","high","False","False",208,2000,NA
"A1TEXCUTI4IUUN","Mon Nov 02 2020 10:46:45 GMT-0400 (hora de Venezuela)","Mon Nov 02 2020 10:57:13 GMT-0400 (hora de Venezuela)","Mozilla/5.0 (Windows NT 10.0; Win64; x64; rv:82.0) Gecko/20100101 Firefox/82.0",48,"[0.9, 0.5, 0.1]","[0.8, 0.4, 0.2]","[u'black', u'red', u'blue']","[u'left', u'middle', u'right']","[0.9, 0.5, 0.1]","[u'medium', u'high', u'low']","blue",51,"right","low","False","False",206,1950,NA
"A1TEXCUTI4IUUN","Mon Nov 02 2020 10:46:45 GMT-0400 (hora de Venezuela)","Mon Nov 02 2020 10:57:13 GMT-0400 (hora de Venezuela)","Mozilla/5.0 (Windows NT 10.0; Win64; x64; rv:82.0) Gecko/20100101 Firefox/82.0",49,"[0.9, 0.5, 0.1]","[0.8, 0.4, 0.2]","[u'black', u'red', u'blue']","[u'left', u'middle', u'right']","[0.9, 0.5, 0.1]","[u'medium', u'high', u'low']","blue",51,"right","low","False","False",135,1900,NA
"A1TEXCUTI4IUUN","Mon Nov 02 2020 10:46:45 GMT-0400 (hora de Venezuela)","Mon Nov 02 2020 10:57:13 GMT-0400 (hora de Venezuela)","Mozilla/5.0 (Windows NT 10.0; Win64; x64; rv:82.0) Gecko/20100101 Firefox/82.0",50,"[0.9, 0.5, 0.1]","[0.8, 0.4, 0.2]","[u'black', u'red', u'blue']","[u'left', u'middle', u'right']","[0.9, 0.5, 0.1]","[u'medium', u'high', u'low']","black",49,"left","medium","True","False",176,2000,NA
"A1TEXCUTI4IUUN","Mon Nov 02 2020 10:46:45 GMT-0400 (hora de Venezuela)","Mon Nov 02 2020 10:57:13 GMT-0400 (hora de Venezuela)","Mozilla/5.0 (Windows NT 10.0; Win64; x64; rv:82.0) Gecko/20100101 Firefox/82.0",51,"[0.9, 0.5, 0.1]","[0.8, 0.4, 0.2]","[u'black', u'red', u'blue']","[u'left', u'middle', u'right']","[0.9, 0.5, 0.1]","[u'medium', u'high', u'low']","blue",51,"right","low","True","False",167,2100,NA
"A1TEXCUTI4IUUN","Mon Nov 02 2020 10:46:45 GMT-0400 (hora de Venezuela)","Mon Nov 02 2020 10:57:13 GMT-0400 (hora de Venezuela)","Mozilla/5.0 (Windows NT 10.0; Win64; x64; rv:82.0) Gecko/20100101 Firefox/82.0",52,"[0.9, 0.5, 0.1]","[0.8, 0.4, 0.2]","[u'black', u'red', u'blue']","[u'left', u'middle', u'right']","[0.9, 0.5, 0.1]","[u'medium', u'high', u'low']","red",50,"middle","high","True","False",202,2200,NA
"A1TEXCUTI4IUUN","Mon Nov 02 2020 10:46:45 GMT-0400 (hora de Venezuela)","Mon Nov 02 2020 10:57:13 GMT-0400 (hora de Venezuela)","Mozilla/5.0 (Windows NT 10.0; Win64; x64; rv:82.0) Gecko/20100101 Firefox/82.0",53,"[0.9, 0.5, 0.1]","[0.8, 0.4, 0.2]","[u'black', u'red', u'blue']","[u'left', u'middle', u'right']","[0.9, 0.5, 0.1]","[u'medium', u'high', u'low']","blue",51,"right","low","False","False",235,2150,NA
"A1TEXCUTI4IUUN","Mon Nov 02 2020 10:46:45 GMT-0400 (hora de Venezuela)","Mon Nov 02 2020 10:57:13 GMT-0400 (hora de Venezuela)","Mozilla/5.0 (Windows NT 10.0; Win64; x64; rv:82.0) Gecko/20100101 Firefox/82.0",54,"[0.9, 0.5, 0.1]","[0.8, 0.4, 0.2]","[u'black', u'red', u'blue']","[u'left', u'middle', u'right']","[0.9, 0.5, 0.1]","[u'medium', u'high', u'low']","red",50,"middle","high","True","False",40,2250,NA
"A1TEXCUTI4IUUN","Mon Nov 02 2020 10:46:45 GMT-0400 (hora de Venezuela)","Mon Nov 02 2020 10:57:13 GMT-0400 (hora de Venezuela)","Mozilla/5.0 (Windows NT 10.0; Win64; x64; rv:82.0) Gecko/20100101 Firefox/82.0",55,"[0.9, 0.5, 0.1]","[0.8, 0.4, 0.2]","[u'black', u'red', u'blue']","[u'left', u'middle', u'right']","[0.9, 0.5, 0.1]","[u'medium', u'high', u'low']","black",49,"left","medium","True","False",215,2350,NA
"A1TEXCUTI4IUUN","Mon Nov 02 2020 10:46:45 GMT-0400 (hora de Venezuela)","Mon Nov 02 2020 10:57:13 GMT-0400 (hora de Venezuela)","Mozilla/5.0 (Windows NT 10.0; Win64; x64; rv:82.0) Gecko/20100101 Firefox/82.0",56,"[0.9, 0.5, 0.1]","[0.8, 0.4, 0.2]","[u'black', u'red', u'blue']","[u'left', u'middle', u'right']","[0.9, 0.5, 0.1]","[u'medium', u'high', u'low']","red",50,"middle","high","True","False",414,2450,NA
"A1TEXCUTI4IUUN","Mon Nov 02 2020 10:46:45 GMT-0400 (hora de Venezuela)","Mon Nov 02 2020 10:57:13 GMT-0400 (hora de Venezuela)","Mozilla/5.0 (Windows NT 10.0; Win64; x64; rv:82.0) Gecko/20100101 Firefox/82.0",57,"[0.9, 0.5, 0.1]","[0.8, 0.4, 0.2]","[u'black', u'red', u'blue']","[u'left', u'middle', u'right']","[0.9, 0.5, 0.1]","[u'medium', u'high', u'low']","black",49,"left","medium","True","False",236,2550,NA
"A1TEXCUTI4IUUN","Mon Nov 02 2020 10:46:45 GMT-0400 (hora de Venezuela)","Mon Nov 02 2020 10:57:13 GMT-0400 (hora de Venezuela)","Mozilla/5.0 (Windows NT 10.0; Win64; x64; rv:82.0) Gecko/20100101 Firefox/82.0",58,"[0.9, 0.5, 0.1]","[0.8, 0.4, 0.2]","[u'black', u'red', u'blue']","[u'left', u'middle', u'right']","[0.9, 0.5, 0.1]","[u'medium', u'high', u'low']","blue",51,"right","low","False","False",241,2500,NA
"A1TEXCUTI4IUUN","Mon Nov 02 2020 10:46:45 GMT-0400 (hora de Venezuela)","Mon Nov 02 2020 10:57:13 GMT-0400 (hora de Venezuela)","Mozilla/5.0 (Windows NT 10.0; Win64; x64; rv:82.0) Gecko/20100101 Firefox/82.0",59,"[0.9, 0.5, 0.1]","[0.8, 0.4, 0.2]","[u'black', u'red', u'blue']","[u'left', u'middle', u'right']","[0.9, 0.5, 0.1]","[u'medium', u'high', u'low']","black",49,"left","medium","True","False",226,2600,NA
"A1TEXCUTI4IUUN","Mon Nov 02 2020 10:46:45 GMT-0400 (hora de Venezuela)","Mon Nov 02 2020 10:57:13 GMT-0400 (hora de Venezuela)","Mozilla/5.0 (Windows NT 10.0; Win64; x64; rv:82.0) Gecko/20100101 Firefox/82.0",60,"[0.9, 0.5, 0.1]","[0.8, 0.4, 0.2]","[u'black', u'red', u'blue']","[u'left', u'middle', u'right']","[0.9, 0.5, 0.1]","[u'medium', u'high', u'low']","red",50,"middle","high","True","False",284,2700,NA
"A1TEXCUTI4IUUN","Mon Nov 02 2020 10:46:45 GMT-0400 (hora de Venezuela)","Mon Nov 02 2020 10:57:13 GMT-0400 (hora de Venezuela)","Mozilla/5.0 (Windows NT 10.0; Win64; x64; rv:82.0) Gecko/20100101 Firefox/82.0",61,"[0.9, 0.5, 0.1]","[0.8, 0.4, 0.2]","[u'black', u'red', u'blue']","[u'left', u'middle', u'right']","[0.9, 0.5, 0.1]","[u'medium', u'high', u'low']","black",49,"left","medium","False","False",359,2650,NA
"A1TEXCUTI4IUUN","Mon Nov 02 2020 10:46:45 GMT-0400 (hora de Venezuela)","Mon Nov 02 2020 10:57:13 GMT-0400 (hora de Venezuela)","Mozilla/5.0 (Windows NT 10.0; Win64; x64; rv:82.0) Gecko/20100101 Firefox/82.0",62,"[0.9, 0.5, 0.1]","[0.8, 0.4, 0.2]","[u'black', u'red', u'blue']","[u'left', u'middle', u'right']","[0.9, 0.5, 0.1]","[u'medium', u'high', u'low']","blue",51,"right","low","False","False",219,2600,NA
"A1TEXCUTI4IUUN","Mon Nov 02 2020 10:46:45 GMT-0400 (hora de Venezuela)","Mon Nov 02 2020 10:57:13 GMT-0400 (hora de Venezuela)","Mozilla/5.0 (Windows NT 10.0; Win64; x64; rv:82.0) Gecko/20100101 Firefox/82.0",63,"[0.9, 0.5, 0.1]","[0.8, 0.4, 0.2]","[u'black', u'red', u'blue']","[u'left', u'middle', u'right']","[0.9, 0.5, 0.1]","[u'medium', u'high', u'low']","red",50,"middle","high","True","False",176,2700,NA
"A1TEXCUTI4IUUN","Mon Nov 02 2020 10:46:45 GMT-0400 (hora de Venezuela)","Mon Nov 02 2020 10:57:13 GMT-0400 (hora de Venezuela)","Mozilla/5.0 (Windows NT 10.0; Win64; x64; rv:82.0) Gecko/20100101 Firefox/82.0",64,"[0.9, 0.5, 0.1]","[0.8, 0.4, 0.2]","[u'black', u'red', u'blue']","[u'left', u'middle', u'right']","[0.9, 0.5, 0.1]","[u'medium', u'high', u'low']","black",49,"left","medium","False","False",278,2650,NA
"A1TEXCUTI4IUUN","Mon Nov 02 2020 10:46:45 GMT-0400 (hora de Venezuela)","Mon Nov 02 2020 10:57:13 GMT-0400 (hora de Venezuela)","Mozilla/5.0 (Windows NT 10.0; Win64; x64; rv:82.0) Gecko/20100101 Firefox/82.0",65,"[0.9, 0.5, 0.1]","[0.8, 0.4, 0.2]","[u'black', u'red', u'blue']","[u'left', u'middle', u'right']","[0.9, 0.5, 0.1]","[u'medium', u'high', u'low']","blue",51,"right","low","False","False",300,2600,NA
"A1TEXCUTI4IUUN","Mon Nov 02 2020 10:46:45 GMT-0400 (hora de Venezuela)","Mon Nov 02 2020 10:57:13 GMT-0400 (hora de Venezuela)","Mozilla/5.0 (Windows NT 10.0; Win64; x64; rv:82.0) Gecko/20100101 Firefox/82.0",66,"[0.9, 0.5, 0.1]","[0.8, 0.4, 0.2]","[u'black', u'red', u'blue']","[u'left', u'middle', u'right']","[0.9, 0.5, 0.1]","[u'medium', u'high', u'low']","red",50,"middle","high","True","False",255,2700,NA
"A1TEXCUTI4IUUN","Mon Nov 02 2020 10:46:45 GMT-0400 (hora de Venezuela)","Mon Nov 02 2020 10:57:13 GMT-0400 (hora de Venezuela)","Mozilla/5.0 (Windows NT 10.0; Win64; x64; rv:82.0) Gecko/20100101 Firefox/82.0",67,"[0.9, 0.5, 0.1]","[0.8, 0.4, 0.2]","[u'black', u'red', u'blue']","[u'left', u'middle', u'right']","[0.9, 0.5, 0.1]","[u'medium', u'high', u'low']","black",49,"left","medium","False","False",365,2650,NA
"A1TEXCUTI4IUUN","Mon Nov 02 2020 10:46:45 GMT-0400 (hora de Venezuela)","Mon Nov 02 2020 10:57:13 GMT-0400 (hora de Venezuela)","Mozilla/5.0 (Windows NT 10.0; Win64; x64; rv:82.0) Gecko/20100101 Firefox/82.0",68,"[0.9, 0.5, 0.1]","[0.8, 0.4, 0.2]","[u'black', u'red', u'blue']","[u'left', u'middle', u'right']","[0.9, 0.5, 0.1]","[u'medium', u'high', u'low']","blue",51,"right","low","True","False",168,2750,NA
"A1TEXCUTI4IUUN","Mon Nov 02 2020 10:46:45 GMT-0400 (hora de Venezuela)","Mon Nov 02 2020 10:57:13 GMT-0400 (hora de Venezuela)","Mozilla/5.0 (Windows NT 10.0; Win64; x64; rv:82.0) Gecko/20100101 Firefox/82.0",69,"[0.9, 0.5, 0.1]","[0.8, 0.4, 0.2]","[u'black', u'red', u'blue']","[u'left', u'middle', u'right']","[0.9, 0.5, 0.1]","[u'medium', u'high', u'low']","red",50,"middle","high","True","False",225,2850,NA
"A1TEXCUTI4IUUN","Mon Nov 02 2020 10:46:45 GMT-0400 (hora de Venezuela)","Mon Nov 02 2020 10:57:13 GMT-0400 (hora de Venezuela)","Mozilla/5.0 (Windows NT 10.0; Win64; x64; rv:82.0) Gecko/20100101 Firefox/82.0",70,"[0.9, 0.5, 0.1]","[0.8, 0.4, 0.2]","[u'black', u'red', u'blue']","[u'left', u'middle', u'right']","[0.9, 0.5, 0.1]","[u'medium', u'high', u'low']","blue",51,"right","low","False","False",354,2800,NA
"A1TEXCUTI4IUUN","Mon Nov 02 2020 10:46:45 GMT-0400 (hora de Venezuela)","Mon Nov 02 2020 10:57:13 GMT-0400 (hora de Venezuela)","Mozilla/5.0 (Windows NT 10.0; Win64; x64; rv:82.0) Gecko/20100101 Firefox/82.0",71,"[0.9, 0.5, 0.1]","[0.8, 0.4, 0.2]","[u'black', u'red', u'blue']","[u'left', u'middle', u'right']","[0.9, 0.5, 0.1]","[u'medium', u'high', u'low']","red",50,"middle","high","True","False",171,2900,NA
"A1TEXCUTI4IUUN","Mon Nov 02 2020 10:46:45 GMT-0400 (hora de Venezuela)","Mon Nov 02 2020 10:57:13 GMT-0400 (hora de Venezuela)","Mozilla/5.0 (Windows NT 10.0; Win64; x64; rv:82.0) Gecko/20100101 Firefox/82.0",72,"[0.9, 0.5, 0.1]","[0.8, 0.4, 0.2]","[u'black', u'red', u'blue']","[u'left', u'middle', u'right']","[0.9, 0.5, 0.1]","[u'medium', u'high', u'low']","black",49,"left","medium","False","False",295,2850,NA
"A1TEXCUTI4IUUN","Mon Nov 02 2020 10:46:45 GMT-0400 (hora de Venezuela)","Mon Nov 02 2020 10:57:13 GMT-0400 (hora de Venezuela)","Mozilla/5.0 (Windows NT 10.0; Win64; x64; rv:82.0) Gecko/20100101 Firefox/82.0",73,"[0.9, 0.5, 0.1]","[0.8, 0.4, 0.2]","[u'black', u'red', u'blue']","[u'left', u'middle', u'right']","[0.9, 0.5, 0.1]","[u'medium', u'high', u'low']","red",50,"middle","high","True","False",205,2950,NA
"A1TEXCUTI4IUUN","Mon Nov 02 2020 10:46:45 GMT-0400 (hora de Venezuela)","Mon Nov 02 2020 10:57:13 GMT-0400 (hora de Venezuela)","Mozilla/5.0 (Windows NT 10.0; Win64; x64; rv:82.0) Gecko/20100101 Firefox/82.0",74,"[0.9, 0.5, 0.1]","[0.8, 0.4, 0.2]","[u'black', u'red', u'blue']","[u'left', u'middle', u'right']","[0.9, 0.5, 0.1]","[u'medium', u'high', u'low']","blue",51,"right","low","False","False",234,2900,NA
"A1TEXCUTI4IUUN","Mon Nov 02 2020 10:46:45 GMT-0400 (hora de Venezuela)","Mon Nov 02 2020 10:57:13 GMT-0400 (hora de Venezuela)","Mozilla/5.0 (Windows NT 10.0; Win64; x64; rv:82.0) Gecko/20100101 Firefox/82.0",75,"[0.9, 0.5, 0.1]","[0.8, 0.4, 0.2]","[u'black', u'red', u'blue']","[u'left', u'middle', u'right']","[0.9, 0.5, 0.1]","[u'medium', u'high', u'low']","red",50,"middle","high","True","False",28,3000,NA
"A1TEXCUTI4IUUN","Mon Nov 02 2020 10:46:45 GMT-0400 (hora de Venezuela)","Mon Nov 02 2020 10:57:13 GMT-0400 (hora de Venezuela)","Mozilla/5.0 (Windows NT 10.0; Win64; x64; rv:82.0) Gecko/20100101 Firefox/82.0",76,"[0.9, 0.5, 0.1]","[0.8, 0.4, 0.2]","[u'black', u'red', u'blue']","[u'left', u'middle', u'right']","[0.9, 0.5, 0.1]","[u'medium', u'high', u'low']","black",49,"left","medium","True","False",188,3100,NA
"A1TEXCUTI4IUUN","Mon Nov 02 2020 10:46:45 GMT-0400 (hora de Venezuela)","Mon Nov 02 2020 10:57:13 GMT-0400 (hora de Venezuela)","Mozilla/5.0 (Windows NT 10.0; Win64; x64; rv:82.0) Gecko/20100101 Firefox/82.0",77,"[0.9, 0.5, 0.1]","[0.8, 0.4, 0.2]","[u'black', u'red', u'blue']","[u'left', u'middle', u'right']","[0.9, 0.5, 0.1]","[u'medium', u'high', u'low']","red",50,"middle","high","True","False",264,3200,NA
"A1TEXCUTI4IUUN","Mon Nov 02 2020 10:46:45 GMT-0400 (hora de Venezuela)","Mon Nov 02 2020 10:57:13 GMT-0400 (hora de Venezuela)","Mozilla/5.0 (Windows NT 10.0; Win64; x64; rv:82.0) Gecko/20100101 Firefox/82.0",78,"[0.9, 0.5, 0.1]","[0.8, 0.4, 0.2]","[u'black', u'red', u'blue']","[u'left', u'middle', u'right']","[0.9, 0.5, 0.1]","[u'medium', u'high', u'low']","black",49,"left","medium","True","False",364,3300,NA
"A1TEXCUTI4IUUN","Mon Nov 02 2020 10:46:45 GMT-0400 (hora de Venezuela)","Mon Nov 02 2020 10:57:13 GMT-0400 (hora de Venezuela)","Mozilla/5.0 (Windows NT 10.0; Win64; x64; rv:82.0) Gecko/20100101 Firefox/82.0",79,"[0.9, 0.5, 0.1]","[0.8, 0.4, 0.2]","[u'black', u'red', u'blue']","[u'left', u'middle', u'right']","[0.9, 0.5, 0.1]","[u'medium', u'high', u'low']","blue",51,"right","low","False","False",134,3250,NA
"A1TEXCUTI4IUUN","Mon Nov 02 2020 10:46:45 GMT-0400 (hora de Venezuela)","Mon Nov 02 2020 10:57:13 GMT-0400 (hora de Venezuela)","Mozilla/5.0 (Windows NT 10.0; Win64; x64; rv:82.0) Gecko/20100101 Firefox/82.0",80,"[0.9, 0.5, 0.1]","[0.8, 0.4, 0.2]","[u'black', u'red', u'blue']","[u'left', u'middle', u'right']","[0.9, 0.5, 0.1]","[u'medium', u'high', u'low']","red",50,"middle","high","True","False",67,3350,NA
"A1TEXCUTI4IUUN","Mon Nov 02 2020 10:46:45 GMT-0400 (hora de Venezuela)","Mon Nov 02 2020 10:57:13 GMT-0400 (hora de Venezuela)","Mozilla/5.0 (Windows NT 10.0; Win64; x64; rv:82.0) Gecko/20100101 Firefox/82.0",81,"[0.9, 0.5, 0.1]","[0.8, 0.4, 0.2]","[u'black', u'red', u'blue']","[u'left', u'middle', u'right']","[0.8, 0.4, 0.2]","[u'low', u'medium', u'high']","black",49,"left","low","True","False",398,3450,NA
"A1TEXCUTI4IUUN","Mon Nov 02 2020 10:46:45 GMT-0400 (hora de Venezuela)","Mon Nov 02 2020 10:57:13 GMT-0400 (hora de Venezuela)","Mozilla/5.0 (Windows NT 10.0; Win64; x64; rv:82.0) Gecko/20100101 Firefox/82.0",82,"[0.9, 0.5, 0.1]","[0.8, 0.4, 0.2]","[u'black', u'red', u'blue']","[u'left', u'middle', u'right']","[0.8, 0.4, 0.2]","[u'low', u'medium', u'high']","red",50,"middle","medium","False","False",219,3400,NA
"A1TEXCUTI4IUUN","Mon Nov 02 2020 10:46:45 GMT-0400 (hora de Venezuela)","Mon Nov 02 2020 10:57:13 GMT-0400 (hora de Venezuela)","Mozilla/5.0 (Windows NT 10.0; Win64; x64; rv:82.0) Gecko/20100101 Firefox/82.0",83,"[0.9, 0.5, 0.1]","[0.8, 0.4, 0.2]","[u'black', u'red', u'blue']","[u'left', u'middle', u'right']","[0.8, 0.4, 0.2]","[u'low', u'medium', u'high']","black",49,"left","low","False","False",105,3350,NA
"A1TEXCUTI4IUUN","Mon Nov 02 2020 10:46:45 GMT-0400 (hora de Venezuela)","Mon Nov 02 2020 10:57:13 GMT-0400 (hora de Venezuela)","Mozilla/5.0 (Windows NT 10.0; Win64; x64; rv:82.0) Gecko/20100101 Firefox/82.0",84,"[0.9, 0.5, 0.1]","[0.8, 0.4, 0.2]","[u'black', u'red', u'blue']","[u'left', u'middle', u'right']","[0.8, 0.4, 0.2]","[u'low', u'medium', u'high']","blue",51,"right","high","True","False",85,3450,NA
"A1TEXCUTI4IUUN","Mon Nov 02 2020 10:46:45 GMT-0400 (hora de Venezuela)","Mon Nov 02 2020 10:57:13 GMT-0400 (hora de Venezuela)","Mozilla/5.0 (Windows NT 10.0; Win64; x64; rv:82.0) Gecko/20100101 Firefox/82.0",85,"[0.9, 0.5, 0.1]","[0.8, 0.4, 0.2]","[u'black', u'red', u'blue']","[u'left', u'middle', u'right']","[0.8, 0.4, 0.2]","[u'low', u'medium', u'high']","black",49,"left","low","False","False",226,3400,NA
"A1TEXCUTI4IUUN","Mon Nov 02 2020 10:46:45 GMT-0400 (hora de Venezuela)","Mon Nov 02 2020 10:57:13 GMT-0400 (hora de Venezuela)","Mozilla/5.0 (Windows NT 10.0; Win64; x64; rv:82.0) Gecko/20100101 Firefox/82.0",86,"[0.9, 0.5, 0.1]","[0.8, 0.4, 0.2]","[u'black', u'red', u'blue']","[u'left', u'middle', u'right']","[0.8, 0.4, 0.2]","[u'low', u'medium', u'high']","blue",51,"right","high","True","False",214,3500,NA
"A1TEXCUTI4IUUN","Mon Nov 02 2020 10:46:45 GMT-0400 (hora de Venezuela)","Mon Nov 02 2020 10:57:13 GMT-0400 (hora de Venezuela)","Mozilla/5.0 (Windows NT 10.0; Win64; x64; rv:82.0) Gecko/20100101 Firefox/82.0",87,"[0.9, 0.5, 0.1]","[0.8, 0.4, 0.2]","[u'black', u'red', u'blue']","[u'left', u'middle', u'right']","[0.8, 0.4, 0.2]","[u'low', u'medium', u'high']","black",49,"left","low","False","False",279,3450,NA
"A1TEXCUTI4IUUN","Mon Nov 02 2020 10:46:45 GMT-0400 (hora de Venezuela)","Mon Nov 02 2020 10:57:13 GMT-0400 (hora de Venezuela)","Mozilla/5.0 (Windows NT 10.0; Win64; x64; rv:82.0) Gecko/20100101 Firefox/82.0",88,"[0.9, 0.5, 0.1]","[0.8, 0.4, 0.2]","[u'black', u'red', u'blue']","[u'left', u'middle', u'right']","[0.8, 0.4, 0.2]","[u'low', u'medium', u'high']","blue",51,"right","high","True","False",70,3550,NA
"A1TEXCUTI4IUUN","Mon Nov 02 2020 10:46:45 GMT-0400 (hora de Venezuela)","Mon Nov 02 2020 10:57:13 GMT-0400 (hora de Venezuela)","Mozilla/5.0 (Windows NT 10.0; Win64; x64; rv:82.0) Gecko/20100101 Firefox/82.0",89,"[0.9, 0.5, 0.1]","[0.8, 0.4, 0.2]","[u'black', u'red', u'blue']","[u'left', u'middle', u'right']","[0.8, 0.4, 0.2]","[u'low', u'medium', u'high']","red",50,"middle","medium","False","False",135,3500,NA
"A1TEXCUTI4IUUN","Mon Nov 02 2020 10:46:45 GMT-0400 (hora de Venezuela)","Mon Nov 02 2020 10:57:13 GMT-0400 (hora de Venezuela)","Mozilla/5.0 (Windows NT 10.0; Win64; x64; rv:82.0) Gecko/20100101 Firefox/82.0",90,"[0.9, 0.5, 0.1]","[0.8, 0.4, 0.2]","[u'black', u'red', u'blue']","[u'left', u'middle', u'right']","[0.8, 0.4, 0.2]","[u'low', u'medium', u'high']","blue",51,"right","high","True","False",192,3600,NA
"A1TEXCUTI4IUUN","Mon Nov 02 2020 10:46:45 GMT-0400 (hora de Venezuela)","Mon Nov 02 2020 10:57:13 GMT-0400 (hora de Venezuela)","Mozilla/5.0 (Windows NT 10.0; Win64; x64; rv:82.0) Gecko/20100101 Firefox/82.0",91,"[0.9, 0.5, 0.1]","[0.8, 0.4, 0.2]","[u'black', u'red', u'blue']","[u'left', u'middle', u'right']","[0.8, 0.4, 0.2]","[u'low', u'medium', u'high']","black",49,"left","low","False","False",274,3550,NA
"A1TEXCUTI4IUUN","Mon Nov 02 2020 10:46:45 GMT-0400 (hora de Venezuela)","Mon Nov 02 2020 10:57:13 GMT-0400 (hora de Venezuela)","Mozilla/5.0 (Windows NT 10.0; Win64; x64; rv:82.0) Gecko/20100101 Firefox/82.0",92,"[0.9, 0.5, 0.1]","[0.8, 0.4, 0.2]","[u'black', u'red', u'blue']","[u'left', u'middle', u'right']","[0.8, 0.4, 0.2]","[u'low', u'medium', u'high']","red",50,"middle","medium","True","False",125,3650,NA
"A1TEXCUTI4IUUN","Mon Nov 02 2020 10:46:45 GMT-0400 (hora de Venezuela)","Mon Nov 02 2020 10:57:13 GMT-0400 (hora de Venezuela)","Mozilla/5.0 (Windows NT 10.0; Win64; x64; rv:82.0) Gecko/20100101 Firefox/82.0",93,"[0.9, 0.5, 0.1]","[0.8, 0.4, 0.2]","[u'black', u'red', u'blue']","[u'left', u'middle', u'right']","[0.8, 0.4, 0.2]","[u'low', u'medium', u'high']","blue",51,"right","high","False","False",189,3600,NA
"A1TEXCUTI4IUUN","Mon Nov 02 2020 10:46:45 GMT-0400 (hora de Venezuela)","Mon Nov 02 2020 10:57:13 GMT-0400 (hora de Venezuela)","Mozilla/5.0 (Windows NT 10.0; Win64; x64; rv:82.0) Gecko/20100101 Firefox/82.0",94,"[0.9, 0.5, 0.1]","[0.8, 0.4, 0.2]","[u'black', u'red', u'blue']","[u'left', u'middle', u'right']","[0.8, 0.4, 0.2]","[u'low', u'medium', u'high']","red",50,"middle","medium","False","False",229,3550,NA
"A1TEXCUTI4IUUN","Mon Nov 02 2020 10:46:45 GMT-0400 (hora de Venezuela)","Mon Nov 02 2020 10:57:13 GMT-0400 (hora de Venezuela)","Mozilla/5.0 (Windows NT 10.0; Win64; x64; rv:82.0) Gecko/20100101 Firefox/82.0",95,"[0.9, 0.5, 0.1]","[0.8, 0.4, 0.2]","[u'black', u'red', u'blue']","[u'left', u'middle', u'right']","[0.8, 0.4, 0.2]","[u'low', u'medium', u'high']","black",49,"left","low","False","False",151,3500,NA
"A1TEXCUTI4IUUN","Mon Nov 02 2020 10:46:45 GMT-0400 (hora de Venezuela)","Mon Nov 02 2020 10:57:13 GMT-0400 (hora de Venezuela)","Mozilla/5.0 (Windows NT 10.0; Win64; x64; rv:82.0) Gecko/20100101 Firefox/82.0",96,"[0.9, 0.5, 0.1]","[0.8, 0.4, 0.2]","[u'black', u'red', u'blue']","[u'left', u'middle', u'right']","[0.8, 0.4, 0.2]","[u'low', u'medium', u'high']","blue",51,"right","high","True","False",171,3600,NA
"A1TEXCUTI4IUUN","Mon Nov 02 2020 10:46:45 GMT-0400 (hora de Venezuela)","Mon Nov 02 2020 10:57:13 GMT-0400 (hora de Venezuela)","Mozilla/5.0 (Windows NT 10.0; Win64; x64; rv:82.0) Gecko/20100101 Firefox/82.0",97,"[0.9, 0.5, 0.1]","[0.8, 0.4, 0.2]","[u'black', u'red', u'blue']","[u'left', u'middle', u'right']","[0.8, 0.4, 0.2]","[u'low', u'medium', u'high']","red",50,"middle","medium","True","False",191,3700,NA
"A1TEXCUTI4IUUN","Mon Nov 02 2020 10:46:45 GMT-0400 (hora de Venezuela)","Mon Nov 02 2020 10:57:13 GMT-0400 (hora de Venezuela)","Mozilla/5.0 (Windows NT 10.0; Win64; x64; rv:82.0) Gecko/20100101 Firefox/82.0",98,"[0.9, 0.5, 0.1]","[0.8, 0.4, 0.2]","[u'black', u'red', u'blue']","[u'left', u'middle', u'right']","[0.8, 0.4, 0.2]","[u'low', u'medium', u'high']","blue",51,"right","high","True","False",180,3800,NA
"A1TEXCUTI4IUUN","Mon Nov 02 2020 10:46:45 GMT-0400 (hora de Venezuela)","Mon Nov 02 2020 10:57:13 GMT-0400 (hora de Venezuela)","Mozilla/5.0 (Windows NT 10.0; Win64; x64; rv:82.0) Gecko/20100101 Firefox/82.0",99,"[0.9, 0.5, 0.1]","[0.8, 0.4, 0.2]","[u'black', u'red', u'blue']","[u'left', u'middle', u'right']","[0.8, 0.4, 0.2]","[u'low', u'medium', u'high']","red",50,"middle","medium","False","False",298,3750,NA
"A1TEXCUTI4IUUN","Mon Nov 02 2020 10:46:45 GMT-0400 (hora de Venezuela)","Mon Nov 02 2020 10:57:13 GMT-0400 (hora de Venezuela)","Mozilla/5.0 (Windows NT 10.0; Win64; x64; rv:82.0) Gecko/20100101 Firefox/82.0",100,"[0.9, 0.5, 0.1]","[0.8, 0.4, 0.2]","[u'black', u'red', u'blue']","[u'left', u'middle', u'right']","[0.8, 0.4, 0.2]","[u'low', u'medium', u'high']","blue",51,"right","high","True","False",264,3850,NA
"A1TEXCUTI4IUUN","Mon Nov 02 2020 10:46:45 GMT-0400 (hora de Venezuela)","Mon Nov 02 2020 10:57:13 GMT-0400 (hora de Venezuela)","Mozilla/5.0 (Windows NT 10.0; Win64; x64; rv:82.0) Gecko/20100101 Firefox/82.0",101,"[0.9, 0.5, 0.1]","[0.8, 0.4, 0.2]","[u'black', u'red', u'blue']","[u'left', u'middle', u'right']","[0.8, 0.4, 0.2]","[u'low', u'medium', u'high']","black",49,"left","low","False","False",171,3800,NA
"A1TEXCUTI4IUUN","Mon Nov 02 2020 10:46:45 GMT-0400 (hora de Venezuela)","Mon Nov 02 2020 10:57:13 GMT-0400 (hora de Venezuela)","Mozilla/5.0 (Windows NT 10.0; Win64; x64; rv:82.0) Gecko/20100101 Firefox/82.0",102,"[0.9, 0.5, 0.1]","[0.8, 0.4, 0.2]","[u'black', u'red', u'blue']","[u'left', u'middle', u'right']","[0.8, 0.4, 0.2]","[u'low', u'medium', u'high']","red",50,"middle","medium","True","False",112,3900,NA
"A1TEXCUTI4IUUN","Mon Nov 02 2020 10:46:45 GMT-0400 (hora de Venezuela)","Mon Nov 02 2020 10:57:13 GMT-0400 (hora de Venezuela)","Mozilla/5.0 (Windows NT 10.0; Win64; x64; rv:82.0) Gecko/20100101 Firefox/82.0",103,"[0.9, 0.5, 0.1]","[0.8, 0.4, 0.2]","[u'black', u'red', u'blue']","[u'left', u'middle', u'right']","[0.8, 0.4, 0.2]","[u'low', u'medium', u'high']","blue",51,"right","high","True","False",47,4000,NA
"A1TEXCUTI4IUUN","Mon Nov 02 2020 10:46:45 GMT-0400 (hora de Venezuela)","Mon Nov 02 2020 10:57:13 GMT-0400 (hora de Venezuela)","Mozilla/5.0 (Windows NT 10.0; Win64; x64; rv:82.0) Gecko/20100101 Firefox/82.0",104,"[0.9, 0.5, 0.1]","[0.8, 0.4, 0.2]","[u'black', u'red', u'blue']","[u'left', u'middle', u'right']","[0.8, 0.4, 0.2]","[u'low', u'medium', u'high']","red",50,"middle","medium","True","False",90,4100,NA
"A1TEXCUTI4IUUN","Mon Nov 02 2020 10:46:45 GMT-0400 (hora de Venezuela)","Mon Nov 02 2020 10:57:13 GMT-0400 (hora de Venezuela)","Mozilla/5.0 (Windows NT 10.0; Win64; x64; rv:82.0) Gecko/20100101 Firefox/82.0",105,"[0.9, 0.5, 0.1]","[0.8, 0.4, 0.2]","[u'black', u'red', u'blue']","[u'left', u'middle', u'right']","[0.8, 0.4, 0.2]","[u'low', u'medium', u'high']","blue",51,"right","high","True","False",236,4200,NA
"A1TEXCUTI4IUUN","Mon Nov 02 2020 10:46:45 GMT-0400 (hora de Venezuela)","Mon Nov 02 2020 10:57:13 GMT-0400 (hora de Venezuela)","Mozilla/5.0 (Windows NT 10.0; Win64; x64; rv:82.0) Gecko/20100101 Firefox/82.0",106,"[0.9, 0.5, 0.1]","[0.8, 0.4, 0.2]","[u'black', u'red', u'blue']","[u'left', u'middle', u'right']","[0.8, 0.4, 0.2]","[u'low', u'medium', u'high']","red",50,"middle","medium","False","False",261,4150,NA
"A1TEXCUTI4IUUN","Mon Nov 02 2020 10:46:45 GMT-0400 (hora de Venezuela)","Mon Nov 02 2020 10:57:13 GMT-0400 (hora de Venezuela)","Mozilla/5.0 (Windows NT 10.0; Win64; x64; rv:82.0) Gecko/20100101 Firefox/82.0",107,"[0.9, 0.5, 0.1]","[0.8, 0.4, 0.2]","[u'black', u'red', u'blue']","[u'left', u'middle', u'right']","[0.8, 0.4, 0.2]","[u'low', u'medium', u'high']","black",49,"left","low","True","False",199,4250,NA
"A1TEXCUTI4IUUN","Mon Nov 02 2020 10:46:45 GMT-0400 (hora de Venezuela)","Mon Nov 02 2020 10:57:13 GMT-0400 (hora de Venezuela)","Mozilla/5.0 (Windows NT 10.0; Win64; x64; rv:82.0) Gecko/20100101 Firefox/82.0",108,"[0.9, 0.5, 0.1]","[0.8, 0.4, 0.2]","[u'black', u'red', u'blue']","[u'left', u'middle', u'right']","[0.8, 0.4, 0.2]","[u'low', u'medium', u'high']","blue",51,"right","high","True","False",249,4350,NA
"A1TEXCUTI4IUUN","Mon Nov 02 2020 10:46:45 GMT-0400 (hora de Venezuela)","Mon Nov 02 2020 10:57:13 GMT-0400 (hora de Venezuela)","Mozilla/5.0 (Windows NT 10.0; Win64; x64; rv:82.0) Gecko/20100101 Firefox/82.0",109,"[0.9, 0.5, 0.1]","[0.8, 0.4, 0.2]","[u'black', u'red', u'blue']","[u'left', u'middle', u'right']","[0.8, 0.4, 0.2]","[u'low', u'medium', u'high']","black",49,"left","low","False","False",284,4300,NA
"A1TEXCUTI4IUUN","Mon Nov 02 2020 10:46:45 GMT-0400 (hora de Venezuela)","Mon Nov 02 2020 10:57:13 GMT-0400 (hora de Venezuela)","Mozilla/5.0 (Windows NT 10.0; Win64; x64; rv:82.0) Gecko/20100101 Firefox/82.0",110,"[0.9, 0.5, 0.1]","[0.8, 0.4, 0.2]","[u'black', u'red', u'blue']","[u'left', u'middle', u'right']","[0.8, 0.4, 0.2]","[u'low', u'medium', u'high']","red",50,"middle","medium","False","False",179,4250,NA
"A1TEXCUTI4IUUN","Mon Nov 02 2020 10:46:45 GMT-0400 (hora de Venezuela)","Mon Nov 02 2020 10:57:13 GMT-0400 (hora de Venezuela)","Mozilla/5.0 (Windows NT 10.0; Win64; x64; rv:82.0) Gecko/20100101 Firefox/82.0",111,"[0.9, 0.5, 0.1]","[0.8, 0.4, 0.2]","[u'black', u'red', u'blue']","[u'left', u'middle', u'right']","[0.8, 0.4, 0.2]","[u'low', u'medium', u'high']","blue",51,"right","high","True","False",234,4350,NA
"A1TEXCUTI4IUUN","Mon Nov 02 2020 10:46:45 GMT-0400 (hora de Venezuela)","Mon Nov 02 2020 10:57:13 GMT-0400 (hora de Venezuela)","Mozilla/5.0 (Windows NT 10.0; Win64; x64; rv:82.0) Gecko/20100101 Firefox/82.0",112,"[0.9, 0.5, 0.1]","[0.8, 0.4, 0.2]","[u'black', u'red', u'blue']","[u'left', u'middle', u'right']","[0.8, 0.4, 0.2]","[u'low', u'medium', u'high']","black",49,"left","low","False","False",272,4300,NA
"A1TEXCUTI4IUUN","Mon Nov 02 2020 10:46:45 GMT-0400 (hora de Venezuela)","Mon Nov 02 2020 10:57:13 GMT-0400 (hora de Venezuela)","Mozilla/5.0 (Windows NT 10.0; Win64; x64; rv:82.0) Gecko/20100101 Firefox/82.0",113,"[0.9, 0.5, 0.1]","[0.8, 0.4, 0.2]","[u'black', u'red', u'blue']","[u'left', u'middle', u'right']","[0.8, 0.4, 0.2]","[u'low', u'medium', u'high']","red",50,"middle","medium","True","False",121,4400,NA
"A1TEXCUTI4IUUN","Mon Nov 02 2020 10:46:45 GMT-0400 (hora de Venezuela)","Mon Nov 02 2020 10:57:13 GMT-0400 (hora de Venezuela)","Mozilla/5.0 (Windows NT 10.0; Win64; x64; rv:82.0) Gecko/20100101 Firefox/82.0",114,"[0.9, 0.5, 0.1]","[0.8, 0.4, 0.2]","[u'black', u'red', u'blue']","[u'left', u'middle', u'right']","[0.8, 0.4, 0.2]","[u'low', u'medium', u'high']","blue",51,"right","high","True","False",266,4500,NA
"A1TEXCUTI4IUUN","Mon Nov 02 2020 10:46:45 GMT-0400 (hora de Venezuela)","Mon Nov 02 2020 10:57:13 GMT-0400 (hora de Venezuela)","Mozilla/5.0 (Windows NT 10.0; Win64; x64; rv:82.0) Gecko/20100101 Firefox/82.0",115,"[0.9, 0.5, 0.1]","[0.8, 0.4, 0.2]","[u'black', u'red', u'blue']","[u'left', u'middle', u'right']","[0.8, 0.4, 0.2]","[u'low', u'medium', u'high']","black",49,"left","low","False","False",234,4450,NA
"A1TEXCUTI4IUUN","Mon Nov 02 2020 10:46:45 GMT-0400 (hora de Venezuela)","Mon Nov 02 2020 10:57:13 GMT-0400 (hora de Venezuela)","Mozilla/5.0 (Windows NT 10.0; Win64; x64; rv:82.0) Gecko/20100101 Firefox/82.0",116,"[0.9, 0.5, 0.1]","[0.8, 0.4, 0.2]","[u'black', u'red', u'blue']","[u'left', u'middle', u'right']","[0.8, 0.4, 0.2]","[u'low', u'medium', u'high']","red",50,"middle","medium","False","False",0,4400,NA
"A1TEXCUTI4IUUN","Mon Nov 02 2020 10:46:45 GMT-0400 (hora de Venezuela)","Mon Nov 02 2020 10:57:13 GMT-0400 (hora de Venezuela)","Mozilla/5.0 (Windows NT 10.0; Win64; x64; rv:82.0) Gecko/20100101 Firefox/82.0",117,"[0.9, 0.5, 0.1]","[0.8, 0.4, 0.2]","[u'black', u'red', u'blue']","[u'left', u'middle', u'right']","[0.8, 0.4, 0.2]","[u'low', u'medium', u'high']","blue",51,"right","high","False","False",95,4350,NA
"A1TEXCUTI4IUUN","Mon Nov 02 2020 10:46:45 GMT-0400 (hora de Venezuela)","Mon Nov 02 2020 10:57:13 GMT-0400 (hora de Venezuela)","Mozilla/5.0 (Windows NT 10.0; Win64; x64; rv:82.0) Gecko/20100101 Firefox/82.0",118,"[0.9, 0.5, 0.1]","[0.8, 0.4, 0.2]","[u'black', u'red', u'blue']","[u'left', u'middle', u'right']","[0.8, 0.4, 0.2]","[u'low', u'medium', u'high']","red",50,"middle","medium","False","False",107,4300,NA
"A1TEXCUTI4IUUN","Mon Nov 02 2020 10:46:45 GMT-0400 (hora de Venezuela)","Mon Nov 02 2020 10:57:13 GMT-0400 (hora de Venezuela)","Mozilla/5.0 (Windows NT 10.0; Win64; x64; rv:82.0) Gecko/20100101 Firefox/82.0",119,"[0.9, 0.5, 0.1]","[0.8, 0.4, 0.2]","[u'black', u'red', u'blue']","[u'left', u'middle', u'right']","[0.8, 0.4, 0.2]","[u'low', u'medium', u'high']","black",49,"left","low","False","False",244,4250,NA
"A1TEXCUTI4IUUN","Mon Nov 02 2020 10:46:45 GMT-0400 (hora de Venezuela)","Mon Nov 02 2020 10:57:13 GMT-0400 (hora de Venezuela)","Mozilla/5.0 (Windows NT 10.0; Win64; x64; rv:82.0) Gecko/20100101 Firefox/82.0",120,"[0.9, 0.5, 0.1]","[0.8, 0.4, 0.2]","[u'black', u'red', u'blue']","[u'left', u'middle', u'right']","[0.8, 0.4, 0.2]","[u'low', u'medium', u'high']","blue",51,"right","high","True","False",107,4350,NA
"A1TEXCUTI4IUUN","Mon Nov 02 2020 10:46:45 GMT-0400 (hora de Venezuela)","Mon Nov 02 2020 10:57:13 GMT-0400 (hora de Venezuela)","Mozilla/5.0 (Windows NT 10.0; Win64; x64; rv:82.0) Gecko/20100101 Firefox/82.0",121,"[0.9, 0.5, 0.1]","[0.8, 0.4, 0.2]","[u'black', u'red', u'blue']","[u'left', u'middle', u'right']","[0.8, 0.4, 0.2]","[u'medium', u'high', u'low']","black",49,"left","medium","False","False",495,4300,NA
"A1TEXCUTI4IUUN","Mon Nov 02 2020 10:46:45 GMT-0400 (hora de Venezuela)","Mon Nov 02 2020 10:57:13 GMT-0400 (hora de Venezuela)","Mozilla/5.0 (Windows NT 10.0; Win64; x64; rv:82.0) Gecko/20100101 Firefox/82.0",122,"[0.9, 0.5, 0.1]","[0.8, 0.4, 0.2]","[u'black', u'red', u'blue']","[u'left', u'middle', u'right']","[0.8, 0.4, 0.2]","[u'medium', u'high', u'low']","red",50,"middle","high","False","False",474,4250,NA
"A1TEXCUTI4IUUN","Mon Nov 02 2020 10:46:45 GMT-0400 (hora de Venezuela)","Mon Nov 02 2020 10:57:13 GMT-0400 (hora de Venezuela)","Mozilla/5.0 (Windows NT 10.0; Win64; x64; rv:82.0) Gecko/20100101 Firefox/82.0",123,"[0.9, 0.5, 0.1]","[0.8, 0.4, 0.2]","[u'black', u'red', u'blue']","[u'left', u'middle', u'right']","[0.8, 0.4, 0.2]","[u'medium', u'high', u'low']","blue",51,"right","low","False","False",194,4200,NA
"A1TEXCUTI4IUUN","Mon Nov 02 2020 10:46:45 GMT-0400 (hora de Venezuela)","Mon Nov 02 2020 10:57:13 GMT-0400 (hora de Venezuela)","Mozilla/5.0 (Windows NT 10.0; Win64; x64; rv:82.0) Gecko/20100101 Firefox/82.0",124,"[0.9, 0.5, 0.1]","[0.8, 0.4, 0.2]","[u'black', u'red', u'blue']","[u'left', u'middle', u'right']","[0.8, 0.4, 0.2]","[u'medium', u'high', u'low']","black",49,"left","medium","True","False",47,4300,NA
"A1TEXCUTI4IUUN","Mon Nov 02 2020 10:46:45 GMT-0400 (hora de Venezuela)","Mon Nov 02 2020 10:57:13 GMT-0400 (hora de Venezuela)","Mozilla/5.0 (Windows NT 10.0; Win64; x64; rv:82.0) Gecko/20100101 Firefox/82.0",125,"[0.9, 0.5, 0.1]","[0.8, 0.4, 0.2]","[u'black', u'red', u'blue']","[u'left', u'middle', u'right']","[0.8, 0.4, 0.2]","[u'medium', u'high', u'low']","red",50,"middle","high","False","False",175,4250,NA
"A1TEXCUTI4IUUN","Mon Nov 02 2020 10:46:45 GMT-0400 (hora de Venezuela)","Mon Nov 02 2020 10:57:13 GMT-0400 (hora de Venezuela)","Mozilla/5.0 (Windows NT 10.0; Win64; x64; rv:82.0) Gecko/20100101 Firefox/82.0",126,"[0.9, 0.5, 0.1]","[0.8, 0.4, 0.2]","[u'black', u'red', u'blue']","[u'left', u'middle', u'right']","[0.8, 0.4, 0.2]","[u'medium', u'high', u'low']","black",49,"left","medium","True","False",200,4350,NA
"A1TEXCUTI4IUUN","Mon Nov 02 2020 10:46:45 GMT-0400 (hora de Venezuela)","Mon Nov 02 2020 10:57:13 GMT-0400 (hora de Venezuela)","Mozilla/5.0 (Windows NT 10.0; Win64; x64; rv:82.0) Gecko/20100101 Firefox/82.0",127,"[0.9, 0.5, 0.1]","[0.8, 0.4, 0.2]","[u'black', u'red', u'blue']","[u'left', u'middle', u'right']","[0.8, 0.4, 0.2]","[u'medium', u'high', u'low']","blue",51,"right","low","False","False",191,4300,NA
"A1TEXCUTI4IUUN","Mon Nov 02 2020 10:46:45 GMT-0400 (hora de Venezuela)","Mon Nov 02 2020 10:57:13 GMT-0400 (hora de Venezuela)","Mozilla/5.0 (Windows NT 10.0; Win64; x64; rv:82.0) Gecko/20100101 Firefox/82.0",128,"[0.9, 0.5, 0.1]","[0.8, 0.4, 0.2]","[u'black', u'red', u'blue']","[u'left', u'middle', u'right']","[0.8, 0.4, 0.2]","[u'medium', u'high', u'low']","black",49,"left","medium","True","False",7,4400,NA
"A1TEXCUTI4IUUN","Mon Nov 02 2020 10:46:45 GMT-0400 (hora de Venezuela)","Mon Nov 02 2020 10:57:13 GMT-0400 (hora de Venezuela)","Mozilla/5.0 (Windows NT 10.0; Win64; x64; rv:82.0) Gecko/20100101 Firefox/82.0",129,"[0.9, 0.5, 0.1]","[0.8, 0.4, 0.2]","[u'black', u'red', u'blue']","[u'left', u'middle', u'right']","[0.8, 0.4, 0.2]","[u'medium', u'high', u'low']","red",50,"middle","high","False","False",79,4350,NA
"A1TEXCUTI4IUUN","Mon Nov 02 2020 10:46:45 GMT-0400 (hora de Venezuela)","Mon Nov 02 2020 10:57:13 GMT-0400 (hora de Venezuela)","Mozilla/5.0 (Windows NT 10.0; Win64; x64; rv:82.0) Gecko/20100101 Firefox/82.0",130,"[0.9, 0.5, 0.1]","[0.8, 0.4, 0.2]","[u'black', u'red', u'blue']","[u'left', u'middle', u'right']","[0.8, 0.4, 0.2]","[u'medium', u'high', u'low']","black",49,"left","medium","False","False",62,4300,NA
"A1TEXCUTI4IUUN","Mon Nov 02 2020 10:46:45 GMT-0400 (hora de Venezuela)","Mon Nov 02 2020 10:57:13 GMT-0400 (hora de Venezuela)","Mozilla/5.0 (Windows NT 10.0; Win64; x64; rv:82.0) Gecko/20100101 Firefox/82.0",131,"[0.9, 0.5, 0.1]","[0.8, 0.4, 0.2]","[u'black', u'red', u'blue']","[u'left', u'middle', u'right']","[0.8, 0.4, 0.2]","[u'medium', u'high', u'low']","blue",51,"right","low","False","False",421,4250,NA
"A1TEXCUTI4IUUN","Mon Nov 02 2020 10:46:45 GMT-0400 (hora de Venezuela)","Mon Nov 02 2020 10:57:13 GMT-0400 (hora de Venezuela)","Mozilla/5.0 (Windows NT 10.0; Win64; x64; rv:82.0) Gecko/20100101 Firefox/82.0",132,"[0.9, 0.5, 0.1]","[0.8, 0.4, 0.2]","[u'black', u'red', u'blue']","[u'left', u'middle', u'right']","[0.8, 0.4, 0.2]","[u'medium', u'high', u'low']","red",50,"middle","high","True","False",245,4350,NA
"A1TEXCUTI4IUUN","Mon Nov 02 2020 10:46:45 GMT-0400 (hora de Venezuela)","Mon Nov 02 2020 10:57:13 GMT-0400 (hora de Venezuela)","Mozilla/5.0 (Windows NT 10.0; Win64; x64; rv:82.0) Gecko/20100101 Firefox/82.0",133,"[0.9, 0.5, 0.1]","[0.8, 0.4, 0.2]","[u'black', u'red', u'blue']","[u'left', u'middle', u'right']","[0.8, 0.4, 0.2]","[u'medium', u'high', u'low']","black",49,"left","medium","False","False",151,4300,NA
"A1TEXCUTI4IUUN","Mon Nov 02 2020 10:46:45 GMT-0400 (hora de Venezuela)","Mon Nov 02 2020 10:57:13 GMT-0400 (hora de Venezuela)","Mozilla/5.0 (Windows NT 10.0; Win64; x64; rv:82.0) Gecko/20100101 Firefox/82.0",134,"[0.9, 0.5, 0.1]","[0.8, 0.4, 0.2]","[u'black', u'red', u'blue']","[u'left', u'middle', u'right']","[0.8, 0.4, 0.2]","[u'medium', u'high', u'low']","red",50,"middle","high","True","False",143,4400,NA
"A1TEXCUTI4IUUN","Mon Nov 02 2020 10:46:45 GMT-0400 (hora de Venezuela)","Mon Nov 02 2020 10:57:13 GMT-0400 (hora de Venezuela)","Mozilla/5.0 (Windows NT 10.0; Win64; x64; rv:82.0) Gecko/20100101 Firefox/82.0",135,"[0.9, 0.5, 0.1]","[0.8, 0.4, 0.2]","[u'black', u'red', u'blue']","[u'left', u'middle', u'right']","[0.8, 0.4, 0.2]","[u'medium', u'high', u'low']","blue",51,"right","low","True","False",201,4500,NA
"A1TEXCUTI4IUUN","Mon Nov 02 2020 10:46:45 GMT-0400 (hora de Venezuela)","Mon Nov 02 2020 10:57:13 GMT-0400 (hora de Venezuela)","Mozilla/5.0 (Windows NT 10.0; Win64; x64; rv:82.0) Gecko/20100101 Firefox/82.0",136,"[0.9, 0.5, 0.1]","[0.8, 0.4, 0.2]","[u'black', u'red', u'blue']","[u'left', u'middle', u'right']","[0.8, 0.4, 0.2]","[u'medium', u'high', u'low']","black",49,"left","medium","False","False",445,4450,NA
"A1TEXCUTI4IUUN","Mon Nov 02 2020 10:46:45 GMT-0400 (hora de Venezuela)","Mon Nov 02 2020 10:57:13 GMT-0400 (hora de Venezuela)","Mozilla/5.0 (Windows NT 10.0; Win64; x64; rv:82.0) Gecko/20100101 Firefox/82.0",137,"[0.9, 0.5, 0.1]","[0.8, 0.4, 0.2]","[u'black', u'red', u'blue']","[u'left', u'middle', u'right']","[0.8, 0.4, 0.2]","[u'medium', u'high', u'low']","red",50,"middle","high","False","False",196,4400,NA
"A1TEXCUTI4IUUN","Mon Nov 02 2020 10:46:45 GMT-0400 (hora de Venezuela)","Mon Nov 02 2020 10:57:13 GMT-0400 (hora de Venezuela)","Mozilla/5.0 (Windows NT 10.0; Win64; x64; rv:82.0) Gecko/20100101 Firefox/82.0",138,"[0.9, 0.5, 0.1]","[0.8, 0.4, 0.2]","[u'black', u'red', u'blue']","[u'left', u'middle', u'right']","[0.8, 0.4, 0.2]","[u'medium', u'high', u'low']","blue",51,"right","low","False","False",51,4350,NA
"A1TEXCUTI4IUUN","Mon Nov 02 2020 10:46:45 GMT-0400 (hora de Venezuela)","Mon Nov 02 2020 10:57:13 GMT-0400 (hora de Venezuela)","Mozilla/5.0 (Windows NT 10.0; Win64; x64; rv:82.0) Gecko/20100101 Firefox/82.0",139,"[0.9, 0.5, 0.1]","[0.8, 0.4, 0.2]","[u'black', u'red', u'blue']","[u'left', u'middle', u'right']","[0.8, 0.4, 0.2]","[u'medium', u'high', u'low']","red",50,"middle","high","True","False",102,4450,NA
"A1TEXCUTI4IUUN","Mon Nov 02 2020 10:46:45 GMT-0400 (hora de Venezuela)","Mon Nov 02 2020 10:57:13 GMT-0400 (hora de Venezuela)","Mozilla/5.0 (Windows NT 10.0; Win64; x64; rv:82.0) Gecko/20100101 Firefox/82.0",140,"[0.9, 0.5, 0.1]","[0.8, 0.4, 0.2]","[u'black', u'red', u'blue']","[u'left', u'middle', u'right']","[0.8, 0.4, 0.2]","[u'medium', u'high', u'low']","black",49,"left","medium","True","False",146,4550,NA
"A1TEXCUTI4IUUN","Mon Nov 02 2020 10:46:45 GMT-0400 (hora de Venezuela)","Mon Nov 02 2020 10:57:13 GMT-0400 (hora de Venezuela)","Mozilla/5.0 (Windows NT 10.0; Win64; x64; rv:82.0) Gecko/20100101 Firefox/82.0",141,"[0.9, 0.5, 0.1]","[0.8, 0.4, 0.2]","[u'black', u'red', u'blue']","[u'left', u'middle', u'right']","[0.8, 0.4, 0.2]","[u'medium', u'high', u'low']","blue",51,"right","low","False","False",298,4500,NA
"A1TEXCUTI4IUUN","Mon Nov 02 2020 10:46:45 GMT-0400 (hora de Venezuela)","Mon Nov 02 2020 10:57:13 GMT-0400 (hora de Venezuela)","Mozilla/5.0 (Windows NT 10.0; Win64; x64; rv:82.0) Gecko/20100101 Firefox/82.0",142,"[0.9, 0.5, 0.1]","[0.8, 0.4, 0.2]","[u'black', u'red', u'blue']","[u'left', u'middle', u'right']","[0.8, 0.4, 0.2]","[u'medium', u'high', u'low']","black",49,"left","medium","False","False",241,4450,NA
"A1TEXCUTI4IUUN","Mon Nov 02 2020 10:46:45 GMT-0400 (hora de Venezuela)","Mon Nov 02 2020 10:57:13 GMT-0400 (hora de Venezuela)","Mozilla/5.0 (Windows NT 10.0; Win64; x64; rv:82.0) Gecko/20100101 Firefox/82.0",143,"[0.9, 0.5, 0.1]","[0.8, 0.4, 0.2]","[u'black', u'red', u'blue']","[u'left', u'middle', u'right']","[0.8, 0.4, 0.2]","[u'medium', u'high', u'low']","blue",51,"right","low","False","False",145,4400,NA
"A1TEXCUTI4IUUN","Mon Nov 02 2020 10:46:45 GMT-0400 (hora de Venezuela)","Mon Nov 02 2020 10:57:13 GMT-0400 (hora de Venezuela)","Mozilla/5.0 (Windows NT 10.0; Win64; x64; rv:82.0) Gecko/20100101 Firefox/82.0",144,"[0.9, 0.5, 0.1]","[0.8, 0.4, 0.2]","[u'black', u'red', u'blue']","[u'left', u'middle', u'right']","[0.8, 0.4, 0.2]","[u'medium', u'high', u'low']","red",50,"middle","high","True","False",612,4500,NA
"A1TEXCUTI4IUUN","Mon Nov 02 2020 10:46:45 GMT-0400 (hora de Venezuela)","Mon Nov 02 2020 10:57:13 GMT-0400 (hora de Venezuela)","Mozilla/5.0 (Windows NT 10.0; Win64; x64; rv:82.0) Gecko/20100101 Firefox/82.0",145,"[0.9, 0.5, 0.1]","[0.8, 0.4, 0.2]","[u'black', u'red', u'blue']","[u'left', u'middle', u'right']","[0.8, 0.4, 0.2]","[u'medium', u'high', u'low']","black",49,"left","medium","True","False",295,4600,NA
"A1TEXCUTI4IUUN","Mon Nov 02 2020 10:46:45 GMT-0400 (hora de Venezuela)","Mon Nov 02 2020 10:57:13 GMT-0400 (hora de Venezuela)","Mozilla/5.0 (Windows NT 10.0; Win64; x64; rv:82.0) Gecko/20100101 Firefox/82.0",146,"[0.9, 0.5, 0.1]","[0.8, 0.4, 0.2]","[u'black', u'red', u'blue']","[u'left', u'middle', u'right']","[0.8, 0.4, 0.2]","[u'medium', u'high', u'low']","blue",51,"right","low","False","False",235,4550,NA
"A1TEXCUTI4IUUN","Mon Nov 02 2020 10:46:45 GMT-0400 (hora de Venezuela)","Mon Nov 02 2020 10:57:13 GMT-0400 (hora de Venezuela)","Mozilla/5.0 (Windows NT 10.0; Win64; x64; rv:82.0) Gecko/20100101 Firefox/82.0",147,"[0.9, 0.5, 0.1]","[0.8, 0.4, 0.2]","[u'black', u'red', u'blue']","[u'left', u'middle', u'right']","[0.8, 0.4, 0.2]","[u'medium', u'high', u'low']","red",50,"middle","high","True","False",480,4650,NA
"A1TEXCUTI4IUUN","Mon Nov 02 2020 10:46:45 GMT-0400 (hora de Venezuela)","Mon Nov 02 2020 10:57:13 GMT-0400 (hora de Venezuela)","Mozilla/5.0 (Windows NT 10.0; Win64; x64; rv:82.0) Gecko/20100101 Firefox/82.0",148,"[0.9, 0.5, 0.1]","[0.8, 0.4, 0.2]","[u'black', u'red', u'blue']","[u'left', u'middle', u'right']","[0.8, 0.4, 0.2]","[u'medium', u'high', u'low']","black",49,"left","medium","False","False",342,4600,NA
"A1TEXCUTI4IUUN","Mon Nov 02 2020 10:46:45 GMT-0400 (hora de Venezuela)","Mon Nov 02 2020 10:57:13 GMT-0400 (hora de Venezuela)","Mozilla/5.0 (Windows NT 10.0; Win64; x64; rv:82.0) Gecko/20100101 Firefox/82.0",149,"[0.9, 0.5, 0.1]","[0.8, 0.4, 0.2]","[u'black', u'red', u'blue']","[u'left', u'middle', u'right']","[0.8, 0.4, 0.2]","[u'medium', u'high', u'low']","red",50,"middle","high","True","False",259,4700,NA
"A1TEXCUTI4IUUN","Mon Nov 02 2020 10:46:45 GMT-0400 (hora de Venezuela)","Mon Nov 02 2020 10:57:13 GMT-0400 (hora de Venezuela)","Mozilla/5.0 (Windows NT 10.0; Win64; x64; rv:82.0) Gecko/20100101 Firefox/82.0",150,"[0.9, 0.5, 0.1]","[0.8, 0.4, 0.2]","[u'black', u'red', u'blue']","[u'left', u'middle', u'right']","[0.8, 0.4, 0.2]","[u'medium', u'high', u'low']","black",49,"left","medium","True","False",305,4800,NA
"A1TEXCUTI4IUUN","Mon Nov 02 2020 10:46:45 GMT-0400 (hora de Venezuela)","Mon Nov 02 2020 10:57:13 GMT-0400 (hora de Venezuela)","Mozilla/5.0 (Windows NT 10.0; Win64; x64; rv:82.0) Gecko/20100101 Firefox/82.0",151,"[0.9, 0.5, 0.1]","[0.8, 0.4, 0.2]","[u'black', u'red', u'blue']","[u'left', u'middle', u'right']","[0.8, 0.4, 0.2]","[u'medium', u'high', u'low']","blue",51,"right","low","False","False",253,4750,NA
"A1TEXCUTI4IUUN","Mon Nov 02 2020 10:46:45 GMT-0400 (hora de Venezuela)","Mon Nov 02 2020 10:57:13 GMT-0400 (hora de Venezuela)","Mozilla/5.0 (Windows NT 10.0; Win64; x64; rv:82.0) Gecko/20100101 Firefox/82.0",152,"[0.9, 0.5, 0.1]","[0.8, 0.4, 0.2]","[u'black', u'red', u'blue']","[u'left', u'middle', u'right']","[0.8, 0.4, 0.2]","[u'medium', u'high', u'low']","red",50,"middle","high","True","False",230,4850,NA
"A1TEXCUTI4IUUN","Mon Nov 02 2020 10:46:45 GMT-0400 (hora de Venezuela)","Mon Nov 02 2020 10:57:13 GMT-0400 (hora de Venezuela)","Mozilla/5.0 (Windows NT 10.0; Win64; x64; rv:82.0) Gecko/20100101 Firefox/82.0",153,"[0.9, 0.5, 0.1]","[0.8, 0.4, 0.2]","[u'black', u'red', u'blue']","[u'left', u'middle', u'right']","[0.8, 0.4, 0.2]","[u'medium', u'high', u'low']","black",49,"left","medium","False","False",261,4800,NA
"A1TEXCUTI4IUUN","Mon Nov 02 2020 10:46:45 GMT-0400 (hora de Venezuela)","Mon Nov 02 2020 10:57:13 GMT-0400 (hora de Venezuela)","Mozilla/5.0 (Windows NT 10.0; Win64; x64; rv:82.0) Gecko/20100101 Firefox/82.0",154,"[0.9, 0.5, 0.1]","[0.8, 0.4, 0.2]","[u'black', u'red', u'blue']","[u'left', u'middle', u'right']","[0.8, 0.4, 0.2]","[u'medium', u'high', u'low']","red",50,"middle","high","True","False",229,4900,NA
"A1TEXCUTI4IUUN","Mon Nov 02 2020 10:46:45 GMT-0400 (hora de Venezuela)","Mon Nov 02 2020 10:57:13 GMT-0400 (hora de Venezuela)","Mozilla/5.0 (Windows NT 10.0; Win64; x64; rv:82.0) Gecko/20100101 Firefox/82.0",155,"[0.9, 0.5, 0.1]","[0.8, 0.4, 0.2]","[u'black', u'red', u'blue']","[u'left', u'middle', u'right']","[0.8, 0.4, 0.2]","[u'medium', u'high', u'low']","blue",51,"right","low","True","False",235,5000,NA
"A1TEXCUTI4IUUN","Mon Nov 02 2020 10:46:45 GMT-0400 (hora de Venezuela)","Mon Nov 02 2020 10:57:13 GMT-0400 (hora de Venezuela)","Mozilla/5.0 (Windows NT 10.0; Win64; x64; rv:82.0) Gecko/20100101 Firefox/82.0",156,"[0.9, 0.5, 0.1]","[0.8, 0.4, 0.2]","[u'black', u'red', u'blue']","[u'left', u'middle', u'right']","[0.8, 0.4, 0.2]","[u'medium', u'high', u'low']","black",49,"left","medium","False","False",488,4950,NA
"A1TEXCUTI4IUUN","Mon Nov 02 2020 10:46:45 GMT-0400 (hora de Venezuela)","Mon Nov 02 2020 10:57:13 GMT-0400 (hora de Venezuela)","Mozilla/5.0 (Windows NT 10.0; Win64; x64; rv:82.0) Gecko/20100101 Firefox/82.0",157,"[0.9, 0.5, 0.1]","[0.8, 0.4, 0.2]","[u'black', u'red', u'blue']","[u'left', u'middle', u'right']","[0.8, 0.4, 0.2]","[u'medium', u'high', u'low']","red",50,"middle","high","False","False",163,4900,NA
"A1TEXCUTI4IUUN","Mon Nov 02 2020 10:46:45 GMT-0400 (hora de Venezuela)","Mon Nov 02 2020 10:57:13 GMT-0400 (hora de Venezuela)","Mozilla/5.0 (Windows NT 10.0; Win64; x64; rv:82.0) Gecko/20100101 Firefox/82.0",158,"[0.9, 0.5, 0.1]","[0.8, 0.4, 0.2]","[u'black', u'red', u'blue']","[u'left', u'middle', u'right']","[0.8, 0.4, 0.2]","[u'medium', u'high', u'low']","blue",51,"right","low","False","False",61,4850,NA
"A1TEXCUTI4IUUN","Mon Nov 02 2020 10:46:45 GMT-0400 (hora de Venezuela)","Mon Nov 02 2020 10:57:13 GMT-0400 (hora de Venezuela)","Mozilla/5.0 (Windows NT 10.0; Win64; x64; rv:82.0) Gecko/20100101 Firefox/82.0",159,"[0.9, 0.5, 0.1]","[0.8, 0.4, 0.2]","[u'black', u'red', u'blue']","[u'left', u'middle', u'right']","[0.8, 0.4, 0.2]","[u'medium', u'high', u'low']","black",49,"left","medium","False","False",243,4800,NA
"A1TEXCUTI4IUUN","Mon Nov 02 2020 10:46:45 GMT-0400 (hora de Venezuela)","Mon Nov 02 2020 10:57:13 GMT-0400 (hora de Venezuela)","Mozilla/5.0 (Windows NT 10.0; Win64; x64; rv:82.0) Gecko/20100101 Firefox/82.0",160,"[0.9, 0.5, 0.1]","[0.8, 0.4, 0.2]","[u'black', u'red', u'blue']","[u'left', u'middle', u'right']","[0.8, 0.4, 0.2]","[u'medium', u'high', u'low']","red",50,"middle","high","True","False",127,4900,NA
