"src_subject_id","start_time","end_time","browser","index","first_half_probabilities","second_half_probabilities","deck_color","deck_position","deck_probabilities","deck_contingencies","response_color","key_press","response_position","response_probability","reward_type","trial_type","rt","reward_tally","exclusion_reason"
"A2WNCIZ47VXDIC","Mon Nov 02 2020 18:57:30 GMT+0300 (East Africa Time)","Mon Nov 02 2020 20:33:28 GMT+0300 (East Africa Time)","Mozilla/5.0 (Windows NT 10.0; Win64; x64) AppleWebKit/537.36 (KHTML, like Gecko) Chrome/86.0.4240.111 Safari/537.36",1,"[0.9, 0.5, 0.1]","[0.8, 0.4, 0.2]","[u'black', u'blue', u'red']","[u'left', u'middle', u'right']","[0.9, 0.5, 0.1]","[u'low', u'high', u'medium']","black",49,"left","low","True","False",877,100,NA
"A2WNCIZ47VXDIC","Mon Nov 02 2020 18:57:30 GMT+0300 (East Africa Time)","Mon Nov 02 2020 20:33:28 GMT+0300 (East Africa Time)","Mozilla/5.0 (Windows NT 10.0; Win64; x64) AppleWebKit/537.36 (KHTML, like Gecko) Chrome/86.0.4240.111 Safari/537.36",2,"[0.9, 0.5, 0.1]","[0.8, 0.4, 0.2]","[u'black', u'blue', u'red']","[u'left', u'middle', u'right']","[0.9, 0.5, 0.1]","[u'low', u'high', u'medium']","black",49,"left","low","False","False",873,50,NA
"A2WNCIZ47VXDIC","Mon Nov 02 2020 18:57:30 GMT+0300 (East Africa Time)","Mon Nov 02 2020 20:33:28 GMT+0300 (East Africa Time)","Mozilla/5.0 (Windows NT 10.0; Win64; x64) AppleWebKit/537.36 (KHTML, like Gecko) Chrome/86.0.4240.111 Safari/537.36",3,"[0.9, 0.5, 0.1]","[0.8, 0.4, 0.2]","[u'black', u'blue', u'red']","[u'left', u'middle', u'right']","[0.9, 0.5, 0.1]","[u'low', u'high', u'medium']","blue",50,"middle","high","True","False",390,150,NA
"A2WNCIZ47VXDIC","Mon Nov 02 2020 18:57:30 GMT+0300 (East Africa Time)","Mon Nov 02 2020 20:33:28 GMT+0300 (East Africa Time)","Mozilla/5.0 (Windows NT 10.0; Win64; x64) AppleWebKit/537.36 (KHTML, like Gecko) Chrome/86.0.4240.111 Safari/537.36",4,"[0.9, 0.5, 0.1]","[0.8, 0.4, 0.2]","[u'black', u'blue', u'red']","[u'left', u'middle', u'right']","[0.9, 0.5, 0.1]","[u'low', u'high', u'medium']","red",51,"right","medium","True","False",1022,250,NA
"A2WNCIZ47VXDIC","Mon Nov 02 2020 18:57:30 GMT+0300 (East Africa Time)","Mon Nov 02 2020 20:33:28 GMT+0300 (East Africa Time)","Mozilla/5.0 (Windows NT 10.0; Win64; x64) AppleWebKit/537.36 (KHTML, like Gecko) Chrome/86.0.4240.111 Safari/537.36",5,"[0.9, 0.5, 0.1]","[0.8, 0.4, 0.2]","[u'black', u'blue', u'red']","[u'left', u'middle', u'right']","[0.9, 0.5, 0.1]","[u'low', u'high', u'medium']","red",51,"right","medium","False","False",760,200,NA
"A2WNCIZ47VXDIC","Mon Nov 02 2020 18:57:30 GMT+0300 (East Africa Time)","Mon Nov 02 2020 20:33:28 GMT+0300 (East Africa Time)","Mozilla/5.0 (Windows NT 10.0; Win64; x64) AppleWebKit/537.36 (KHTML, like Gecko) Chrome/86.0.4240.111 Safari/537.36",6,"[0.9, 0.5, 0.1]","[0.8, 0.4, 0.2]","[u'black', u'blue', u'red']","[u'left', u'middle', u'right']","[0.9, 0.5, 0.1]","[u'low', u'high', u'medium']","blue",50,"middle","high","True","False",397,300,NA
"A2WNCIZ47VXDIC","Mon Nov 02 2020 18:57:30 GMT+0300 (East Africa Time)","Mon Nov 02 2020 20:33:28 GMT+0300 (East Africa Time)","Mozilla/5.0 (Windows NT 10.0; Win64; x64) AppleWebKit/537.36 (KHTML, like Gecko) Chrome/86.0.4240.111 Safari/537.36",7,"[0.9, 0.5, 0.1]","[0.8, 0.4, 0.2]","[u'black', u'blue', u'red']","[u'left', u'middle', u'right']","[0.9, 0.5, 0.1]","[u'low', u'high', u'medium']","black",49,"left","low","False","False",419,250,NA
"A2WNCIZ47VXDIC","Mon Nov 02 2020 18:57:30 GMT+0300 (East Africa Time)","Mon Nov 02 2020 20:33:28 GMT+0300 (East Africa Time)","Mozilla/5.0 (Windows NT 10.0; Win64; x64) AppleWebKit/537.36 (KHTML, like Gecko) Chrome/86.0.4240.111 Safari/537.36",8,"[0.9, 0.5, 0.1]","[0.8, 0.4, 0.2]","[u'black', u'blue', u'red']","[u'left', u'middle', u'right']","[0.9, 0.5, 0.1]","[u'low', u'high', u'medium']","blue",50,"middle","high","True","False",401,350,NA
"A2WNCIZ47VXDIC","Mon Nov 02 2020 18:57:30 GMT+0300 (East Africa Time)","Mon Nov 02 2020 20:33:28 GMT+0300 (East Africa Time)","Mozilla/5.0 (Windows NT 10.0; Win64; x64) AppleWebKit/537.36 (KHTML, like Gecko) Chrome/86.0.4240.111 Safari/537.36",9,"[0.9, 0.5, 0.1]","[0.8, 0.4, 0.2]","[u'black', u'blue', u'red']","[u'left', u'middle', u'right']","[0.9, 0.5, 0.1]","[u'low', u'high', u'medium']","blue",50,"middle","high","True","False",395,450,NA
"A2WNCIZ47VXDIC","Mon Nov 02 2020 18:57:30 GMT+0300 (East Africa Time)","Mon Nov 02 2020 20:33:28 GMT+0300 (East Africa Time)","Mozilla/5.0 (Windows NT 10.0; Win64; x64) AppleWebKit/537.36 (KHTML, like Gecko) Chrome/86.0.4240.111 Safari/537.36",10,"[0.9, 0.5, 0.1]","[0.8, 0.4, 0.2]","[u'black', u'blue', u'red']","[u'left', u'middle', u'right']","[0.9, 0.5, 0.1]","[u'low', u'high', u'medium']","black",49,"left","low","False","False",2487,400,NA
"A2WNCIZ47VXDIC","Mon Nov 02 2020 18:57:30 GMT+0300 (East Africa Time)","Mon Nov 02 2020 20:33:28 GMT+0300 (East Africa Time)","Mozilla/5.0 (Windows NT 10.0; Win64; x64) AppleWebKit/537.36 (KHTML, like Gecko) Chrome/86.0.4240.111 Safari/537.36",11,"[0.9, 0.5, 0.1]","[0.8, 0.4, 0.2]","[u'black', u'blue', u'red']","[u'left', u'middle', u'right']","[0.9, 0.5, 0.1]","[u'low', u'high', u'medium']","black",49,"left","low","False","False",168,350,NA
"A2WNCIZ47VXDIC","Mon Nov 02 2020 18:57:30 GMT+0300 (East Africa Time)","Mon Nov 02 2020 20:33:28 GMT+0300 (East Africa Time)","Mozilla/5.0 (Windows NT 10.0; Win64; x64) AppleWebKit/537.36 (KHTML, like Gecko) Chrome/86.0.4240.111 Safari/537.36",12,"[0.9, 0.5, 0.1]","[0.8, 0.4, 0.2]","[u'black', u'blue', u'red']","[u'left', u'middle', u'right']","[0.9, 0.5, 0.1]","[u'low', u'high', u'medium']","blue",50,"middle","high","True","False",537,450,NA
"A2WNCIZ47VXDIC","Mon Nov 02 2020 18:57:30 GMT+0300 (East Africa Time)","Mon Nov 02 2020 20:33:28 GMT+0300 (East Africa Time)","Mozilla/5.0 (Windows NT 10.0; Win64; x64) AppleWebKit/537.36 (KHTML, like Gecko) Chrome/86.0.4240.111 Safari/537.36",13,"[0.9, 0.5, 0.1]","[0.8, 0.4, 0.2]","[u'black', u'blue', u'red']","[u'left', u'middle', u'right']","[0.9, 0.5, 0.1]","[u'low', u'high', u'medium']","blue",50,"middle","high","True","False",565,550,NA
"A2WNCIZ47VXDIC","Mon Nov 02 2020 18:57:30 GMT+0300 (East Africa Time)","Mon Nov 02 2020 20:33:28 GMT+0300 (East Africa Time)","Mozilla/5.0 (Windows NT 10.0; Win64; x64) AppleWebKit/537.36 (KHTML, like Gecko) Chrome/86.0.4240.111 Safari/537.36",14,"[0.9, 0.5, 0.1]","[0.8, 0.4, 0.2]","[u'black', u'blue', u'red']","[u'left', u'middle', u'right']","[0.9, 0.5, 0.1]","[u'low', u'high', u'medium']","blue",50,"middle","high","True","False",651,650,NA
"A2WNCIZ47VXDIC","Mon Nov 02 2020 18:57:30 GMT+0300 (East Africa Time)","Mon Nov 02 2020 20:33:28 GMT+0300 (East Africa Time)","Mozilla/5.0 (Windows NT 10.0; Win64; x64) AppleWebKit/537.36 (KHTML, like Gecko) Chrome/86.0.4240.111 Safari/537.36",15,"[0.9, 0.5, 0.1]","[0.8, 0.4, 0.2]","[u'black', u'blue', u'red']","[u'left', u'middle', u'right']","[0.9, 0.5, 0.1]","[u'low', u'high', u'medium']","blue",50,"middle","high","True","False",332,750,NA
"A2WNCIZ47VXDIC","Mon Nov 02 2020 18:57:30 GMT+0300 (East Africa Time)","Mon Nov 02 2020 20:33:28 GMT+0300 (East Africa Time)","Mozilla/5.0 (Windows NT 10.0; Win64; x64) AppleWebKit/537.36 (KHTML, like Gecko) Chrome/86.0.4240.111 Safari/537.36",16,"[0.9, 0.5, 0.1]","[0.8, 0.4, 0.2]","[u'black', u'blue', u'red']","[u'left', u'middle', u'right']","[0.9, 0.5, 0.1]","[u'low', u'high', u'medium']","red",51,"right","medium","False","False",162,700,NA
"A2WNCIZ47VXDIC","Mon Nov 02 2020 18:57:30 GMT+0300 (East Africa Time)","Mon Nov 02 2020 20:33:28 GMT+0300 (East Africa Time)","Mozilla/5.0 (Windows NT 10.0; Win64; x64) AppleWebKit/537.36 (KHTML, like Gecko) Chrome/86.0.4240.111 Safari/537.36",17,"[0.9, 0.5, 0.1]","[0.8, 0.4, 0.2]","[u'black', u'blue', u'red']","[u'left', u'middle', u'right']","[0.9, 0.5, 0.1]","[u'low', u'high', u'medium']","blue",50,"middle","high","True","False",63,800,NA
"A2WNCIZ47VXDIC","Mon Nov 02 2020 18:57:30 GMT+0300 (East Africa Time)","Mon Nov 02 2020 20:33:28 GMT+0300 (East Africa Time)","Mozilla/5.0 (Windows NT 10.0; Win64; x64) AppleWebKit/537.36 (KHTML, like Gecko) Chrome/86.0.4240.111 Safari/537.36",18,"[0.9, 0.5, 0.1]","[0.8, 0.4, 0.2]","[u'black', u'blue', u'red']","[u'left', u'middle', u'right']","[0.9, 0.5, 0.1]","[u'low', u'high', u'medium']","black",49,"left","low","False","False",927,750,NA
"A2WNCIZ47VXDIC","Mon Nov 02 2020 18:57:30 GMT+0300 (East Africa Time)","Mon Nov 02 2020 20:33:28 GMT+0300 (East Africa Time)","Mozilla/5.0 (Windows NT 10.0; Win64; x64) AppleWebKit/537.36 (KHTML, like Gecko) Chrome/86.0.4240.111 Safari/537.36",19,"[0.9, 0.5, 0.1]","[0.8, 0.4, 0.2]","[u'black', u'blue', u'red']","[u'left', u'middle', u'right']","[0.9, 0.5, 0.1]","[u'low', u'high', u'medium']","blue",50,"middle","high","True","False",435,850,NA
"A2WNCIZ47VXDIC","Mon Nov 02 2020 18:57:30 GMT+0300 (East Africa Time)","Mon Nov 02 2020 20:33:28 GMT+0300 (East Africa Time)","Mozilla/5.0 (Windows NT 10.0; Win64; x64) AppleWebKit/537.36 (KHTML, like Gecko) Chrome/86.0.4240.111 Safari/537.36",20,"[0.9, 0.5, 0.1]","[0.8, 0.4, 0.2]","[u'black', u'blue', u'red']","[u'left', u'middle', u'right']","[0.9, 0.5, 0.1]","[u'low', u'high', u'medium']","blue",50,"middle","high","True","False",235,950,NA
"A2WNCIZ47VXDIC","Mon Nov 02 2020 18:57:30 GMT+0300 (East Africa Time)","Mon Nov 02 2020 20:33:28 GMT+0300 (East Africa Time)","Mozilla/5.0 (Windows NT 10.0; Win64; x64) AppleWebKit/537.36 (KHTML, like Gecko) Chrome/86.0.4240.111 Safari/537.36",21,"[0.9, 0.5, 0.1]","[0.8, 0.4, 0.2]","[u'black', u'blue', u'red']","[u'left', u'middle', u'right']","[0.9, 0.5, 0.1]","[u'low', u'high', u'medium']","blue",50,"middle","high","True","False",531,1050,NA
"A2WNCIZ47VXDIC","Mon Nov 02 2020 18:57:30 GMT+0300 (East Africa Time)","Mon Nov 02 2020 20:33:28 GMT+0300 (East Africa Time)","Mozilla/5.0 (Windows NT 10.0; Win64; x64) AppleWebKit/537.36 (KHTML, like Gecko) Chrome/86.0.4240.111 Safari/537.36",22,"[0.9, 0.5, 0.1]","[0.8, 0.4, 0.2]","[u'black', u'blue', u'red']","[u'left', u'middle', u'right']","[0.9, 0.5, 0.1]","[u'low', u'high', u'medium']","red",51,"right","medium","True","False",256,1150,NA
"A2WNCIZ47VXDIC","Mon Nov 02 2020 18:57:30 GMT+0300 (East Africa Time)","Mon Nov 02 2020 20:33:28 GMT+0300 (East Africa Time)","Mozilla/5.0 (Windows NT 10.0; Win64; x64) AppleWebKit/537.36 (KHTML, like Gecko) Chrome/86.0.4240.111 Safari/537.36",23,"[0.9, 0.5, 0.1]","[0.8, 0.4, 0.2]","[u'black', u'blue', u'red']","[u'left', u'middle', u'right']","[0.9, 0.5, 0.1]","[u'low', u'high', u'medium']","red",51,"right","medium","True","False",367,1250,NA
"A2WNCIZ47VXDIC","Mon Nov 02 2020 18:57:30 GMT+0300 (East Africa Time)","Mon Nov 02 2020 20:33:28 GMT+0300 (East Africa Time)","Mozilla/5.0 (Windows NT 10.0; Win64; x64) AppleWebKit/537.36 (KHTML, like Gecko) Chrome/86.0.4240.111 Safari/537.36",24,"[0.9, 0.5, 0.1]","[0.8, 0.4, 0.2]","[u'black', u'blue', u'red']","[u'left', u'middle', u'right']","[0.9, 0.5, 0.1]","[u'low', u'high', u'medium']","black",49,"left","low","False","False",46,1200,NA
"A2WNCIZ47VXDIC","Mon Nov 02 2020 18:57:30 GMT+0300 (East Africa Time)","Mon Nov 02 2020 20:33:28 GMT+0300 (East Africa Time)","Mozilla/5.0 (Windows NT 10.0; Win64; x64) AppleWebKit/537.36 (KHTML, like Gecko) Chrome/86.0.4240.111 Safari/537.36",25,"[0.9, 0.5, 0.1]","[0.8, 0.4, 0.2]","[u'black', u'blue', u'red']","[u'left', u'middle', u'right']","[0.9, 0.5, 0.1]","[u'low', u'high', u'medium']","blue",50,"middle","high","True","False",94,1300,NA
"A2WNCIZ47VXDIC","Mon Nov 02 2020 18:57:30 GMT+0300 (East Africa Time)","Mon Nov 02 2020 20:33:28 GMT+0300 (East Africa Time)","Mozilla/5.0 (Windows NT 10.0; Win64; x64) AppleWebKit/537.36 (KHTML, like Gecko) Chrome/86.0.4240.111 Safari/537.36",26,"[0.9, 0.5, 0.1]","[0.8, 0.4, 0.2]","[u'black', u'blue', u'red']","[u'left', u'middle', u'right']","[0.9, 0.5, 0.1]","[u'low', u'high', u'medium']","blue",50,"middle","high","True","False",463,1400,NA
"A2WNCIZ47VXDIC","Mon Nov 02 2020 18:57:30 GMT+0300 (East Africa Time)","Mon Nov 02 2020 20:33:28 GMT+0300 (East Africa Time)","Mozilla/5.0 (Windows NT 10.0; Win64; x64) AppleWebKit/537.36 (KHTML, like Gecko) Chrome/86.0.4240.111 Safari/537.36",27,"[0.9, 0.5, 0.1]","[0.8, 0.4, 0.2]","[u'black', u'blue', u'red']","[u'left', u'middle', u'right']","[0.9, 0.5, 0.1]","[u'low', u'high', u'medium']","red",51,"right","medium","True","False",440,1500,NA
"A2WNCIZ47VXDIC","Mon Nov 02 2020 18:57:30 GMT+0300 (East Africa Time)","Mon Nov 02 2020 20:33:28 GMT+0300 (East Africa Time)","Mozilla/5.0 (Windows NT 10.0; Win64; x64) AppleWebKit/537.36 (KHTML, like Gecko) Chrome/86.0.4240.111 Safari/537.36",28,"[0.9, 0.5, 0.1]","[0.8, 0.4, 0.2]","[u'black', u'blue', u'red']","[u'left', u'middle', u'right']","[0.9, 0.5, 0.1]","[u'low', u'high', u'medium']","blue",50,"middle","high","True","False",538,1600,NA
"A2WNCIZ47VXDIC","Mon Nov 02 2020 18:57:30 GMT+0300 (East Africa Time)","Mon Nov 02 2020 20:33:28 GMT+0300 (East Africa Time)","Mozilla/5.0 (Windows NT 10.0; Win64; x64) AppleWebKit/537.36 (KHTML, like Gecko) Chrome/86.0.4240.111 Safari/537.36",29,"[0.9, 0.5, 0.1]","[0.8, 0.4, 0.2]","[u'black', u'blue', u'red']","[u'left', u'middle', u'right']","[0.9, 0.5, 0.1]","[u'low', u'high', u'medium']","red",51,"right","medium","False","False",143,1550,NA
"A2WNCIZ47VXDIC","Mon Nov 02 2020 18:57:30 GMT+0300 (East Africa Time)","Mon Nov 02 2020 20:33:28 GMT+0300 (East Africa Time)","Mozilla/5.0 (Windows NT 10.0; Win64; x64) AppleWebKit/537.36 (KHTML, like Gecko) Chrome/86.0.4240.111 Safari/537.36",30,"[0.9, 0.5, 0.1]","[0.8, 0.4, 0.2]","[u'black', u'blue', u'red']","[u'left', u'middle', u'right']","[0.9, 0.5, 0.1]","[u'low', u'high', u'medium']","blue",50,"middle","high","True","False",16,1650,NA
"A2WNCIZ47VXDIC","Mon Nov 02 2020 18:57:30 GMT+0300 (East Africa Time)","Mon Nov 02 2020 20:33:28 GMT+0300 (East Africa Time)","Mozilla/5.0 (Windows NT 10.0; Win64; x64) AppleWebKit/537.36 (KHTML, like Gecko) Chrome/86.0.4240.111 Safari/537.36",31,"[0.9, 0.5, 0.1]","[0.8, 0.4, 0.2]","[u'black', u'blue', u'red']","[u'left', u'middle', u'right']","[0.9, 0.5, 0.1]","[u'low', u'high', u'medium']","blue",50,"middle","high","True","False",295,1750,NA
"A2WNCIZ47VXDIC","Mon Nov 02 2020 18:57:30 GMT+0300 (East Africa Time)","Mon Nov 02 2020 20:33:28 GMT+0300 (East Africa Time)","Mozilla/5.0 (Windows NT 10.0; Win64; x64) AppleWebKit/537.36 (KHTML, like Gecko) Chrome/86.0.4240.111 Safari/537.36",32,"[0.9, 0.5, 0.1]","[0.8, 0.4, 0.2]","[u'black', u'blue', u'red']","[u'left', u'middle', u'right']","[0.9, 0.5, 0.1]","[u'low', u'high', u'medium']","red",51,"right","medium","True","False",283,1850,NA
"A2WNCIZ47VXDIC","Mon Nov 02 2020 18:57:30 GMT+0300 (East Africa Time)","Mon Nov 02 2020 20:33:28 GMT+0300 (East Africa Time)","Mozilla/5.0 (Windows NT 10.0; Win64; x64) AppleWebKit/537.36 (KHTML, like Gecko) Chrome/86.0.4240.111 Safari/537.36",33,"[0.9, 0.5, 0.1]","[0.8, 0.4, 0.2]","[u'black', u'blue', u'red']","[u'left', u'middle', u'right']","[0.9, 0.5, 0.1]","[u'low', u'high', u'medium']","black",49,"left","low","False","False",319,1800,NA
"A2WNCIZ47VXDIC","Mon Nov 02 2020 18:57:30 GMT+0300 (East Africa Time)","Mon Nov 02 2020 20:33:28 GMT+0300 (East Africa Time)","Mozilla/5.0 (Windows NT 10.0; Win64; x64) AppleWebKit/537.36 (KHTML, like Gecko) Chrome/86.0.4240.111 Safari/537.36",34,"[0.9, 0.5, 0.1]","[0.8, 0.4, 0.2]","[u'black', u'blue', u'red']","[u'left', u'middle', u'right']","[0.9, 0.5, 0.1]","[u'low', u'high', u'medium']","black",49,"left","low","False","False",271,1750,NA
"A2WNCIZ47VXDIC","Mon Nov 02 2020 18:57:30 GMT+0300 (East Africa Time)","Mon Nov 02 2020 20:33:28 GMT+0300 (East Africa Time)","Mozilla/5.0 (Windows NT 10.0; Win64; x64) AppleWebKit/537.36 (KHTML, like Gecko) Chrome/86.0.4240.111 Safari/537.36",35,"[0.9, 0.5, 0.1]","[0.8, 0.4, 0.2]","[u'black', u'blue', u'red']","[u'left', u'middle', u'right']","[0.9, 0.5, 0.1]","[u'low', u'high', u'medium']","black",49,"left","low","False","False",237,1700,NA
"A2WNCIZ47VXDIC","Mon Nov 02 2020 18:57:30 GMT+0300 (East Africa Time)","Mon Nov 02 2020 20:33:28 GMT+0300 (East Africa Time)","Mozilla/5.0 (Windows NT 10.0; Win64; x64) AppleWebKit/537.36 (KHTML, like Gecko) Chrome/86.0.4240.111 Safari/537.36",36,"[0.9, 0.5, 0.1]","[0.8, 0.4, 0.2]","[u'black', u'blue', u'red']","[u'left', u'middle', u'right']","[0.9, 0.5, 0.1]","[u'low', u'high', u'medium']","blue",50,"middle","high","False","False",65,1650,NA
"A2WNCIZ47VXDIC","Mon Nov 02 2020 18:57:30 GMT+0300 (East Africa Time)","Mon Nov 02 2020 20:33:28 GMT+0300 (East Africa Time)","Mozilla/5.0 (Windows NT 10.0; Win64; x64) AppleWebKit/537.36 (KHTML, like Gecko) Chrome/86.0.4240.111 Safari/537.36",37,"[0.9, 0.5, 0.1]","[0.8, 0.4, 0.2]","[u'black', u'blue', u'red']","[u'left', u'middle', u'right']","[0.9, 0.5, 0.1]","[u'low', u'high', u'medium']","black",49,"left","low","False","False",77,1600,NA
"A2WNCIZ47VXDIC","Mon Nov 02 2020 18:57:30 GMT+0300 (East Africa Time)","Mon Nov 02 2020 20:33:28 GMT+0300 (East Africa Time)","Mozilla/5.0 (Windows NT 10.0; Win64; x64) AppleWebKit/537.36 (KHTML, like Gecko) Chrome/86.0.4240.111 Safari/537.36",38,"[0.9, 0.5, 0.1]","[0.8, 0.4, 0.2]","[u'black', u'blue', u'red']","[u'left', u'middle', u'right']","[0.9, 0.5, 0.1]","[u'low', u'high', u'medium']","blue",50,"middle","high","True","False",81,1700,NA
"A2WNCIZ47VXDIC","Mon Nov 02 2020 18:57:30 GMT+0300 (East Africa Time)","Mon Nov 02 2020 20:33:28 GMT+0300 (East Africa Time)","Mozilla/5.0 (Windows NT 10.0; Win64; x64) AppleWebKit/537.36 (KHTML, like Gecko) Chrome/86.0.4240.111 Safari/537.36",39,"[0.9, 0.5, 0.1]","[0.8, 0.4, 0.2]","[u'black', u'blue', u'red']","[u'left', u'middle', u'right']","[0.9, 0.5, 0.1]","[u'low', u'high', u'medium']","red",51,"right","medium","False","False",45,1650,NA
"A2WNCIZ47VXDIC","Mon Nov 02 2020 18:57:30 GMT+0300 (East Africa Time)","Mon Nov 02 2020 20:33:28 GMT+0300 (East Africa Time)","Mozilla/5.0 (Windows NT 10.0; Win64; x64) AppleWebKit/537.36 (KHTML, like Gecko) Chrome/86.0.4240.111 Safari/537.36",40,"[0.9, 0.5, 0.1]","[0.8, 0.4, 0.2]","[u'black', u'blue', u'red']","[u'left', u'middle', u'right']","[0.9, 0.5, 0.1]","[u'low', u'high', u'medium']","blue",50,"middle","high","True","False",121,1750,NA
"A2WNCIZ47VXDIC","Mon Nov 02 2020 18:57:30 GMT+0300 (East Africa Time)","Mon Nov 02 2020 20:33:28 GMT+0300 (East Africa Time)","Mozilla/5.0 (Windows NT 10.0; Win64; x64) AppleWebKit/537.36 (KHTML, like Gecko) Chrome/86.0.4240.111 Safari/537.36",41,"[0.9, 0.5, 0.1]","[0.8, 0.4, 0.2]","[u'black', u'blue', u'red']","[u'left', u'middle', u'right']","[0.9, 0.5, 0.1]","[u'medium', u'low', u'high']","black",49,"left","medium","False","False",1917,1700,NA
"A2WNCIZ47VXDIC","Mon Nov 02 2020 18:57:30 GMT+0300 (East Africa Time)","Mon Nov 02 2020 20:33:28 GMT+0300 (East Africa Time)","Mozilla/5.0 (Windows NT 10.0; Win64; x64) AppleWebKit/537.36 (KHTML, like Gecko) Chrome/86.0.4240.111 Safari/537.36",42,"[0.9, 0.5, 0.1]","[0.8, 0.4, 0.2]","[u'black', u'blue', u'red']","[u'left', u'middle', u'right']","[0.9, 0.5, 0.1]","[u'medium', u'low', u'high']","blue",50,"middle","low","False","False",386,1650,NA
"A2WNCIZ47VXDIC","Mon Nov 02 2020 18:57:30 GMT+0300 (East Africa Time)","Mon Nov 02 2020 20:33:28 GMT+0300 (East Africa Time)","Mozilla/5.0 (Windows NT 10.0; Win64; x64) AppleWebKit/537.36 (KHTML, like Gecko) Chrome/86.0.4240.111 Safari/537.36",43,"[0.9, 0.5, 0.1]","[0.8, 0.4, 0.2]","[u'black', u'blue', u'red']","[u'left', u'middle', u'right']","[0.9, 0.5, 0.1]","[u'medium', u'low', u'high']","blue",50,"middle","low","False","False",122,1600,NA
"A2WNCIZ47VXDIC","Mon Nov 02 2020 18:57:30 GMT+0300 (East Africa Time)","Mon Nov 02 2020 20:33:28 GMT+0300 (East Africa Time)","Mozilla/5.0 (Windows NT 10.0; Win64; x64) AppleWebKit/537.36 (KHTML, like Gecko) Chrome/86.0.4240.111 Safari/537.36",44,"[0.9, 0.5, 0.1]","[0.8, 0.4, 0.2]","[u'black', u'blue', u'red']","[u'left', u'middle', u'right']","[0.9, 0.5, 0.1]","[u'medium', u'low', u'high']","blue",50,"middle","low","False","False",255,1550,NA
"A2WNCIZ47VXDIC","Mon Nov 02 2020 18:57:30 GMT+0300 (East Africa Time)","Mon Nov 02 2020 20:33:28 GMT+0300 (East Africa Time)","Mozilla/5.0 (Windows NT 10.0; Win64; x64) AppleWebKit/537.36 (KHTML, like Gecko) Chrome/86.0.4240.111 Safari/537.36",45,"[0.9, 0.5, 0.1]","[0.8, 0.4, 0.2]","[u'black', u'blue', u'red']","[u'left', u'middle', u'right']","[0.9, 0.5, 0.1]","[u'medium', u'low', u'high']","red",51,"right","high","False","False",115,1500,NA
"A2WNCIZ47VXDIC","Mon Nov 02 2020 18:57:30 GMT+0300 (East Africa Time)","Mon Nov 02 2020 20:33:28 GMT+0300 (East Africa Time)","Mozilla/5.0 (Windows NT 10.0; Win64; x64) AppleWebKit/537.36 (KHTML, like Gecko) Chrome/86.0.4240.111 Safari/537.36",46,"[0.9, 0.5, 0.1]","[0.8, 0.4, 0.2]","[u'black', u'blue', u'red']","[u'left', u'middle', u'right']","[0.9, 0.5, 0.1]","[u'medium', u'low', u'high']","black",49,"left","medium","True","False",387,1600,NA
"A2WNCIZ47VXDIC","Mon Nov 02 2020 18:57:30 GMT+0300 (East Africa Time)","Mon Nov 02 2020 20:33:28 GMT+0300 (East Africa Time)","Mozilla/5.0 (Windows NT 10.0; Win64; x64) AppleWebKit/537.36 (KHTML, like Gecko) Chrome/86.0.4240.111 Safari/537.36",47,"[0.9, 0.5, 0.1]","[0.8, 0.4, 0.2]","[u'black', u'blue', u'red']","[u'left', u'middle', u'right']","[0.9, 0.5, 0.1]","[u'medium', u'low', u'high']","blue",50,"middle","low","False","False",265,1550,NA
"A2WNCIZ47VXDIC","Mon Nov 02 2020 18:57:30 GMT+0300 (East Africa Time)","Mon Nov 02 2020 20:33:28 GMT+0300 (East Africa Time)","Mozilla/5.0 (Windows NT 10.0; Win64; x64) AppleWebKit/537.36 (KHTML, like Gecko) Chrome/86.0.4240.111 Safari/537.36",48,"[0.9, 0.5, 0.1]","[0.8, 0.4, 0.2]","[u'black', u'blue', u'red']","[u'left', u'middle', u'right']","[0.9, 0.5, 0.1]","[u'medium', u'low', u'high']","black",49,"left","medium","False","False",154,1500,NA
"A2WNCIZ47VXDIC","Mon Nov 02 2020 18:57:30 GMT+0300 (East Africa Time)","Mon Nov 02 2020 20:33:28 GMT+0300 (East Africa Time)","Mozilla/5.0 (Windows NT 10.0; Win64; x64) AppleWebKit/537.36 (KHTML, like Gecko) Chrome/86.0.4240.111 Safari/537.36",49,"[0.9, 0.5, 0.1]","[0.8, 0.4, 0.2]","[u'black', u'blue', u'red']","[u'left', u'middle', u'right']","[0.9, 0.5, 0.1]","[u'medium', u'low', u'high']","blue",50,"middle","low","False","False",422,1450,NA
"A2WNCIZ47VXDIC","Mon Nov 02 2020 18:57:30 GMT+0300 (East Africa Time)","Mon Nov 02 2020 20:33:28 GMT+0300 (East Africa Time)","Mozilla/5.0 (Windows NT 10.0; Win64; x64) AppleWebKit/537.36 (KHTML, like Gecko) Chrome/86.0.4240.111 Safari/537.36",50,"[0.9, 0.5, 0.1]","[0.8, 0.4, 0.2]","[u'black', u'blue', u'red']","[u'left', u'middle', u'right']","[0.9, 0.5, 0.1]","[u'medium', u'low', u'high']","red",51,"right","high","True","False",147,1550,NA
"A2WNCIZ47VXDIC","Mon Nov 02 2020 18:57:30 GMT+0300 (East Africa Time)","Mon Nov 02 2020 20:33:28 GMT+0300 (East Africa Time)","Mozilla/5.0 (Windows NT 10.0; Win64; x64) AppleWebKit/537.36 (KHTML, like Gecko) Chrome/86.0.4240.111 Safari/537.36",51,"[0.9, 0.5, 0.1]","[0.8, 0.4, 0.2]","[u'black', u'blue', u'red']","[u'left', u'middle', u'right']","[0.9, 0.5, 0.1]","[u'medium', u'low', u'high']","black",49,"left","medium","False","False",89,1500,NA
"A2WNCIZ47VXDIC","Mon Nov 02 2020 18:57:30 GMT+0300 (East Africa Time)","Mon Nov 02 2020 20:33:28 GMT+0300 (East Africa Time)","Mozilla/5.0 (Windows NT 10.0; Win64; x64) AppleWebKit/537.36 (KHTML, like Gecko) Chrome/86.0.4240.111 Safari/537.36",52,"[0.9, 0.5, 0.1]","[0.8, 0.4, 0.2]","[u'black', u'blue', u'red']","[u'left', u'middle', u'right']","[0.9, 0.5, 0.1]","[u'medium', u'low', u'high']","red",51,"right","high","False","False",57,1450,NA
"A2WNCIZ47VXDIC","Mon Nov 02 2020 18:57:30 GMT+0300 (East Africa Time)","Mon Nov 02 2020 20:33:28 GMT+0300 (East Africa Time)","Mozilla/5.0 (Windows NT 10.0; Win64; x64) AppleWebKit/537.36 (KHTML, like Gecko) Chrome/86.0.4240.111 Safari/537.36",53,"[0.9, 0.5, 0.1]","[0.8, 0.4, 0.2]","[u'black', u'blue', u'red']","[u'left', u'middle', u'right']","[0.9, 0.5, 0.1]","[u'medium', u'low', u'high']","blue",50,"middle","low","False","False",301,1400,NA
"A2WNCIZ47VXDIC","Mon Nov 02 2020 18:57:30 GMT+0300 (East Africa Time)","Mon Nov 02 2020 20:33:28 GMT+0300 (East Africa Time)","Mozilla/5.0 (Windows NT 10.0; Win64; x64) AppleWebKit/537.36 (KHTML, like Gecko) Chrome/86.0.4240.111 Safari/537.36",54,"[0.9, 0.5, 0.1]","[0.8, 0.4, 0.2]","[u'black', u'blue', u'red']","[u'left', u'middle', u'right']","[0.9, 0.5, 0.1]","[u'medium', u'low', u'high']","black",49,"left","medium","False","False",229,1350,NA
"A2WNCIZ47VXDIC","Mon Nov 02 2020 18:57:30 GMT+0300 (East Africa Time)","Mon Nov 02 2020 20:33:28 GMT+0300 (East Africa Time)","Mozilla/5.0 (Windows NT 10.0; Win64; x64) AppleWebKit/537.36 (KHTML, like Gecko) Chrome/86.0.4240.111 Safari/537.36",55,"[0.9, 0.5, 0.1]","[0.8, 0.4, 0.2]","[u'black', u'blue', u'red']","[u'left', u'middle', u'right']","[0.9, 0.5, 0.1]","[u'medium', u'low', u'high']","black",49,"left","medium","True","False",422,1450,NA
"A2WNCIZ47VXDIC","Mon Nov 02 2020 18:57:30 GMT+0300 (East Africa Time)","Mon Nov 02 2020 20:33:28 GMT+0300 (East Africa Time)","Mozilla/5.0 (Windows NT 10.0; Win64; x64) AppleWebKit/537.36 (KHTML, like Gecko) Chrome/86.0.4240.111 Safari/537.36",56,"[0.9, 0.5, 0.1]","[0.8, 0.4, 0.2]","[u'black', u'blue', u'red']","[u'left', u'middle', u'right']","[0.9, 0.5, 0.1]","[u'medium', u'low', u'high']","black",49,"left","medium","False","False",795,1400,NA
"A2WNCIZ47VXDIC","Mon Nov 02 2020 18:57:30 GMT+0300 (East Africa Time)","Mon Nov 02 2020 20:33:28 GMT+0300 (East Africa Time)","Mozilla/5.0 (Windows NT 10.0; Win64; x64) AppleWebKit/537.36 (KHTML, like Gecko) Chrome/86.0.4240.111 Safari/537.36",57,"[0.9, 0.5, 0.1]","[0.8, 0.4, 0.2]","[u'black', u'blue', u'red']","[u'left', u'middle', u'right']","[0.9, 0.5, 0.1]","[u'medium', u'low', u'high']","black",49,"left","medium","True","False",1006,1500,NA
"A2WNCIZ47VXDIC","Mon Nov 02 2020 18:57:30 GMT+0300 (East Africa Time)","Mon Nov 02 2020 20:33:28 GMT+0300 (East Africa Time)","Mozilla/5.0 (Windows NT 10.0; Win64; x64) AppleWebKit/537.36 (KHTML, like Gecko) Chrome/86.0.4240.111 Safari/537.36",58,"[0.9, 0.5, 0.1]","[0.8, 0.4, 0.2]","[u'black', u'blue', u'red']","[u'left', u'middle', u'right']","[0.9, 0.5, 0.1]","[u'medium', u'low', u'high']","blue",50,"middle","low","True","False",285,1600,NA
"A2WNCIZ47VXDIC","Mon Nov 02 2020 18:57:30 GMT+0300 (East Africa Time)","Mon Nov 02 2020 20:33:28 GMT+0300 (East Africa Time)","Mozilla/5.0 (Windows NT 10.0; Win64; x64) AppleWebKit/537.36 (KHTML, like Gecko) Chrome/86.0.4240.111 Safari/537.36",59,"[0.9, 0.5, 0.1]","[0.8, 0.4, 0.2]","[u'black', u'blue', u'red']","[u'left', u'middle', u'right']","[0.9, 0.5, 0.1]","[u'medium', u'low', u'high']","blue",50,"middle","low","False","False",388,1550,NA
"A2WNCIZ47VXDIC","Mon Nov 02 2020 18:57:30 GMT+0300 (East Africa Time)","Mon Nov 02 2020 20:33:28 GMT+0300 (East Africa Time)","Mozilla/5.0 (Windows NT 10.0; Win64; x64) AppleWebKit/537.36 (KHTML, like Gecko) Chrome/86.0.4240.111 Safari/537.36",60,"[0.9, 0.5, 0.1]","[0.8, 0.4, 0.2]","[u'black', u'blue', u'red']","[u'left', u'middle', u'right']","[0.9, 0.5, 0.1]","[u'medium', u'low', u'high']","red",51,"right","high","True","False",237,1650,NA
"A2WNCIZ47VXDIC","Mon Nov 02 2020 18:57:30 GMT+0300 (East Africa Time)","Mon Nov 02 2020 20:33:28 GMT+0300 (East Africa Time)","Mozilla/5.0 (Windows NT 10.0; Win64; x64) AppleWebKit/537.36 (KHTML, like Gecko) Chrome/86.0.4240.111 Safari/537.36",61,"[0.9, 0.5, 0.1]","[0.8, 0.4, 0.2]","[u'black', u'blue', u'red']","[u'left', u'middle', u'right']","[0.9, 0.5, 0.1]","[u'medium', u'low', u'high']","red",51,"right","high","True","False",161,1750,NA
"A2WNCIZ47VXDIC","Mon Nov 02 2020 18:57:30 GMT+0300 (East Africa Time)","Mon Nov 02 2020 20:33:28 GMT+0300 (East Africa Time)","Mozilla/5.0 (Windows NT 10.0; Win64; x64) AppleWebKit/537.36 (KHTML, like Gecko) Chrome/86.0.4240.111 Safari/537.36",62,"[0.9, 0.5, 0.1]","[0.8, 0.4, 0.2]","[u'black', u'blue', u'red']","[u'left', u'middle', u'right']","[0.9, 0.5, 0.1]","[u'medium', u'low', u'high']","black",49,"left","medium","False","False",343,1700,NA
"A2WNCIZ47VXDIC","Mon Nov 02 2020 18:57:30 GMT+0300 (East Africa Time)","Mon Nov 02 2020 20:33:28 GMT+0300 (East Africa Time)","Mozilla/5.0 (Windows NT 10.0; Win64; x64) AppleWebKit/537.36 (KHTML, like Gecko) Chrome/86.0.4240.111 Safari/537.36",63,"[0.9, 0.5, 0.1]","[0.8, 0.4, 0.2]","[u'black', u'blue', u'red']","[u'left', u'middle', u'right']","[0.9, 0.5, 0.1]","[u'medium', u'low', u'high']","blue",50,"middle","low","False","False",127,1650,NA
"A2WNCIZ47VXDIC","Mon Nov 02 2020 18:57:30 GMT+0300 (East Africa Time)","Mon Nov 02 2020 20:33:28 GMT+0300 (East Africa Time)","Mozilla/5.0 (Windows NT 10.0; Win64; x64) AppleWebKit/537.36 (KHTML, like Gecko) Chrome/86.0.4240.111 Safari/537.36",64,"[0.9, 0.5, 0.1]","[0.8, 0.4, 0.2]","[u'black', u'blue', u'red']","[u'left', u'middle', u'right']","[0.9, 0.5, 0.1]","[u'medium', u'low', u'high']","red",51,"right","high","True","False",211,1750,NA
"A2WNCIZ47VXDIC","Mon Nov 02 2020 18:57:30 GMT+0300 (East Africa Time)","Mon Nov 02 2020 20:33:28 GMT+0300 (East Africa Time)","Mozilla/5.0 (Windows NT 10.0; Win64; x64) AppleWebKit/537.36 (KHTML, like Gecko) Chrome/86.0.4240.111 Safari/537.36",65,"[0.9, 0.5, 0.1]","[0.8, 0.4, 0.2]","[u'black', u'blue', u'red']","[u'left', u'middle', u'right']","[0.9, 0.5, 0.1]","[u'medium', u'low', u'high']","red",51,"right","high","True","False",326,1850,NA
"A2WNCIZ47VXDIC","Mon Nov 02 2020 18:57:30 GMT+0300 (East Africa Time)","Mon Nov 02 2020 20:33:28 GMT+0300 (East Africa Time)","Mozilla/5.0 (Windows NT 10.0; Win64; x64) AppleWebKit/537.36 (KHTML, like Gecko) Chrome/86.0.4240.111 Safari/537.36",66,"[0.9, 0.5, 0.1]","[0.8, 0.4, 0.2]","[u'black', u'blue', u'red']","[u'left', u'middle', u'right']","[0.9, 0.5, 0.1]","[u'medium', u'low', u'high']","black",49,"left","medium","False","False",163,1800,NA
"A2WNCIZ47VXDIC","Mon Nov 02 2020 18:57:30 GMT+0300 (East Africa Time)","Mon Nov 02 2020 20:33:28 GMT+0300 (East Africa Time)","Mozilla/5.0 (Windows NT 10.0; Win64; x64) AppleWebKit/537.36 (KHTML, like Gecko) Chrome/86.0.4240.111 Safari/537.36",67,"[0.9, 0.5, 0.1]","[0.8, 0.4, 0.2]","[u'black', u'blue', u'red']","[u'left', u'middle', u'right']","[0.9, 0.5, 0.1]","[u'medium', u'low', u'high']","red",51,"right","high","True","False",196,1900,NA
"A2WNCIZ47VXDIC","Mon Nov 02 2020 18:57:30 GMT+0300 (East Africa Time)","Mon Nov 02 2020 20:33:28 GMT+0300 (East Africa Time)","Mozilla/5.0 (Windows NT 10.0; Win64; x64) AppleWebKit/537.36 (KHTML, like Gecko) Chrome/86.0.4240.111 Safari/537.36",68,"[0.9, 0.5, 0.1]","[0.8, 0.4, 0.2]","[u'black', u'blue', u'red']","[u'left', u'middle', u'right']","[0.9, 0.5, 0.1]","[u'medium', u'low', u'high']","red",51,"right","high","True","False",263,2000,NA
"A2WNCIZ47VXDIC","Mon Nov 02 2020 18:57:30 GMT+0300 (East Africa Time)","Mon Nov 02 2020 20:33:28 GMT+0300 (East Africa Time)","Mozilla/5.0 (Windows NT 10.0; Win64; x64) AppleWebKit/537.36 (KHTML, like Gecko) Chrome/86.0.4240.111 Safari/537.36",69,"[0.9, 0.5, 0.1]","[0.8, 0.4, 0.2]","[u'black', u'blue', u'red']","[u'left', u'middle', u'right']","[0.9, 0.5, 0.1]","[u'medium', u'low', u'high']","red",51,"right","high","True","False",480,2100,NA
"A2WNCIZ47VXDIC","Mon Nov 02 2020 18:57:30 GMT+0300 (East Africa Time)","Mon Nov 02 2020 20:33:28 GMT+0300 (East Africa Time)","Mozilla/5.0 (Windows NT 10.0; Win64; x64) AppleWebKit/537.36 (KHTML, like Gecko) Chrome/86.0.4240.111 Safari/537.36",70,"[0.9, 0.5, 0.1]","[0.8, 0.4, 0.2]","[u'black', u'blue', u'red']","[u'left', u'middle', u'right']","[0.9, 0.5, 0.1]","[u'medium', u'low', u'high']","red",51,"right","high","True","False",474,2200,NA
"A2WNCIZ47VXDIC","Mon Nov 02 2020 18:57:30 GMT+0300 (East Africa Time)","Mon Nov 02 2020 20:33:28 GMT+0300 (East Africa Time)","Mozilla/5.0 (Windows NT 10.0; Win64; x64) AppleWebKit/537.36 (KHTML, like Gecko) Chrome/86.0.4240.111 Safari/537.36",71,"[0.9, 0.5, 0.1]","[0.8, 0.4, 0.2]","[u'black', u'blue', u'red']","[u'left', u'middle', u'right']","[0.9, 0.5, 0.1]","[u'medium', u'low', u'high']","red",51,"right","high","True","False",280,2300,NA
"A2WNCIZ47VXDIC","Mon Nov 02 2020 18:57:30 GMT+0300 (East Africa Time)","Mon Nov 02 2020 20:33:28 GMT+0300 (East Africa Time)","Mozilla/5.0 (Windows NT 10.0; Win64; x64) AppleWebKit/537.36 (KHTML, like Gecko) Chrome/86.0.4240.111 Safari/537.36",72,"[0.9, 0.5, 0.1]","[0.8, 0.4, 0.2]","[u'black', u'blue', u'red']","[u'left', u'middle', u'right']","[0.9, 0.5, 0.1]","[u'medium', u'low', u'high']","red",51,"right","high","True","False",442,2400,NA
"A2WNCIZ47VXDIC","Mon Nov 02 2020 18:57:30 GMT+0300 (East Africa Time)","Mon Nov 02 2020 20:33:28 GMT+0300 (East Africa Time)","Mozilla/5.0 (Windows NT 10.0; Win64; x64) AppleWebKit/537.36 (KHTML, like Gecko) Chrome/86.0.4240.111 Safari/537.36",73,"[0.9, 0.5, 0.1]","[0.8, 0.4, 0.2]","[u'black', u'blue', u'red']","[u'left', u'middle', u'right']","[0.9, 0.5, 0.1]","[u'medium', u'low', u'high']","blue",50,"middle","low","False","False",126,2350,NA
"A2WNCIZ47VXDIC","Mon Nov 02 2020 18:57:30 GMT+0300 (East Africa Time)","Mon Nov 02 2020 20:33:28 GMT+0300 (East Africa Time)","Mozilla/5.0 (Windows NT 10.0; Win64; x64) AppleWebKit/537.36 (KHTML, like Gecko) Chrome/86.0.4240.111 Safari/537.36",74,"[0.9, 0.5, 0.1]","[0.8, 0.4, 0.2]","[u'black', u'blue', u'red']","[u'left', u'middle', u'right']","[0.9, 0.5, 0.1]","[u'medium', u'low', u'high']","red",51,"right","high","True","False",368,2450,NA
"A2WNCIZ47VXDIC","Mon Nov 02 2020 18:57:30 GMT+0300 (East Africa Time)","Mon Nov 02 2020 20:33:28 GMT+0300 (East Africa Time)","Mozilla/5.0 (Windows NT 10.0; Win64; x64) AppleWebKit/537.36 (KHTML, like Gecko) Chrome/86.0.4240.111 Safari/537.36",75,"[0.9, 0.5, 0.1]","[0.8, 0.4, 0.2]","[u'black', u'blue', u'red']","[u'left', u'middle', u'right']","[0.9, 0.5, 0.1]","[u'medium', u'low', u'high']","black",49,"left","medium","True","False",216,2550,NA
"A2WNCIZ47VXDIC","Mon Nov 02 2020 18:57:30 GMT+0300 (East Africa Time)","Mon Nov 02 2020 20:33:28 GMT+0300 (East Africa Time)","Mozilla/5.0 (Windows NT 10.0; Win64; x64) AppleWebKit/537.36 (KHTML, like Gecko) Chrome/86.0.4240.111 Safari/537.36",76,"[0.9, 0.5, 0.1]","[0.8, 0.4, 0.2]","[u'black', u'blue', u'red']","[u'left', u'middle', u'right']","[0.9, 0.5, 0.1]","[u'medium', u'low', u'high']","black",49,"left","medium","True","False",469,2650,NA
"A2WNCIZ47VXDIC","Mon Nov 02 2020 18:57:30 GMT+0300 (East Africa Time)","Mon Nov 02 2020 20:33:28 GMT+0300 (East Africa Time)","Mozilla/5.0 (Windows NT 10.0; Win64; x64) AppleWebKit/537.36 (KHTML, like Gecko) Chrome/86.0.4240.111 Safari/537.36",77,"[0.9, 0.5, 0.1]","[0.8, 0.4, 0.2]","[u'black', u'blue', u'red']","[u'left', u'middle', u'right']","[0.9, 0.5, 0.1]","[u'medium', u'low', u'high']","red",51,"right","high","True","False",468,2750,NA
"A2WNCIZ47VXDIC","Mon Nov 02 2020 18:57:30 GMT+0300 (East Africa Time)","Mon Nov 02 2020 20:33:28 GMT+0300 (East Africa Time)","Mozilla/5.0 (Windows NT 10.0; Win64; x64) AppleWebKit/537.36 (KHTML, like Gecko) Chrome/86.0.4240.111 Safari/537.36",78,"[0.9, 0.5, 0.1]","[0.8, 0.4, 0.2]","[u'black', u'blue', u'red']","[u'left', u'middle', u'right']","[0.9, 0.5, 0.1]","[u'medium', u'low', u'high']","red",51,"right","high","True","False",185,2850,NA
"A2WNCIZ47VXDIC","Mon Nov 02 2020 18:57:30 GMT+0300 (East Africa Time)","Mon Nov 02 2020 20:33:28 GMT+0300 (East Africa Time)","Mozilla/5.0 (Windows NT 10.0; Win64; x64) AppleWebKit/537.36 (KHTML, like Gecko) Chrome/86.0.4240.111 Safari/537.36",79,"[0.9, 0.5, 0.1]","[0.8, 0.4, 0.2]","[u'black', u'blue', u'red']","[u'left', u'middle', u'right']","[0.9, 0.5, 0.1]","[u'medium', u'low', u'high']","red",51,"right","high","True","False",418,2950,NA
"A2WNCIZ47VXDIC","Mon Nov 02 2020 18:57:30 GMT+0300 (East Africa Time)","Mon Nov 02 2020 20:33:28 GMT+0300 (East Africa Time)","Mozilla/5.0 (Windows NT 10.0; Win64; x64) AppleWebKit/537.36 (KHTML, like Gecko) Chrome/86.0.4240.111 Safari/537.36",80,"[0.9, 0.5, 0.1]","[0.8, 0.4, 0.2]","[u'black', u'blue', u'red']","[u'left', u'middle', u'right']","[0.9, 0.5, 0.1]","[u'medium', u'low', u'high']","red",51,"right","high","True","False",289,3050,NA
"A2WNCIZ47VXDIC","Mon Nov 02 2020 18:57:30 GMT+0300 (East Africa Time)","Mon Nov 02 2020 20:33:28 GMT+0300 (East Africa Time)","Mozilla/5.0 (Windows NT 10.0; Win64; x64) AppleWebKit/537.36 (KHTML, like Gecko) Chrome/86.0.4240.111 Safari/537.36",81,"[0.9, 0.5, 0.1]","[0.8, 0.4, 0.2]","[u'black', u'blue', u'red']","[u'left', u'middle', u'right']","[0.8, 0.4, 0.2]","[u'low', u'high', u'medium']","black",49,"left","low","False","False",13,3000,NA
"A2WNCIZ47VXDIC","Mon Nov 02 2020 18:57:30 GMT+0300 (East Africa Time)","Mon Nov 02 2020 20:33:28 GMT+0300 (East Africa Time)","Mozilla/5.0 (Windows NT 10.0; Win64; x64) AppleWebKit/537.36 (KHTML, like Gecko) Chrome/86.0.4240.111 Safari/537.36",82,"[0.9, 0.5, 0.1]","[0.8, 0.4, 0.2]","[u'black', u'blue', u'red']","[u'left', u'middle', u'right']","[0.8, 0.4, 0.2]","[u'low', u'high', u'medium']","blue",50,"middle","high","False","False",214,2950,NA
"A2WNCIZ47VXDIC","Mon Nov 02 2020 18:57:30 GMT+0300 (East Africa Time)","Mon Nov 02 2020 20:33:28 GMT+0300 (East Africa Time)","Mozilla/5.0 (Windows NT 10.0; Win64; x64) AppleWebKit/537.36 (KHTML, like Gecko) Chrome/86.0.4240.111 Safari/537.36",83,"[0.9, 0.5, 0.1]","[0.8, 0.4, 0.2]","[u'black', u'blue', u'red']","[u'left', u'middle', u'right']","[0.8, 0.4, 0.2]","[u'low', u'high', u'medium']","blue",50,"middle","high","True","False",147,3050,NA
"A2WNCIZ47VXDIC","Mon Nov 02 2020 18:57:30 GMT+0300 (East Africa Time)","Mon Nov 02 2020 20:33:28 GMT+0300 (East Africa Time)","Mozilla/5.0 (Windows NT 10.0; Win64; x64) AppleWebKit/537.36 (KHTML, like Gecko) Chrome/86.0.4240.111 Safari/537.36",84,"[0.9, 0.5, 0.1]","[0.8, 0.4, 0.2]","[u'black', u'blue', u'red']","[u'left', u'middle', u'right']","[0.8, 0.4, 0.2]","[u'low', u'high', u'medium']","black",49,"left","low","True","False",628,3150,NA
"A2WNCIZ47VXDIC","Mon Nov 02 2020 18:57:30 GMT+0300 (East Africa Time)","Mon Nov 02 2020 20:33:28 GMT+0300 (East Africa Time)","Mozilla/5.0 (Windows NT 10.0; Win64; x64) AppleWebKit/537.36 (KHTML, like Gecko) Chrome/86.0.4240.111 Safari/537.36",85,"[0.9, 0.5, 0.1]","[0.8, 0.4, 0.2]","[u'black', u'blue', u'red']","[u'left', u'middle', u'right']","[0.8, 0.4, 0.2]","[u'low', u'high', u'medium']","red",51,"right","medium","False","False",328,3100,NA
"A2WNCIZ47VXDIC","Mon Nov 02 2020 18:57:30 GMT+0300 (East Africa Time)","Mon Nov 02 2020 20:33:28 GMT+0300 (East Africa Time)","Mozilla/5.0 (Windows NT 10.0; Win64; x64) AppleWebKit/537.36 (KHTML, like Gecko) Chrome/86.0.4240.111 Safari/537.36",86,"[0.9, 0.5, 0.1]","[0.8, 0.4, 0.2]","[u'black', u'blue', u'red']","[u'left', u'middle', u'right']","[0.8, 0.4, 0.2]","[u'low', u'high', u'medium']","blue",50,"middle","high","True","False",226,3200,NA
"A2WNCIZ47VXDIC","Mon Nov 02 2020 18:57:30 GMT+0300 (East Africa Time)","Mon Nov 02 2020 20:33:28 GMT+0300 (East Africa Time)","Mozilla/5.0 (Windows NT 10.0; Win64; x64) AppleWebKit/537.36 (KHTML, like Gecko) Chrome/86.0.4240.111 Safari/537.36",87,"[0.9, 0.5, 0.1]","[0.8, 0.4, 0.2]","[u'black', u'blue', u'red']","[u'left', u'middle', u'right']","[0.8, 0.4, 0.2]","[u'low', u'high', u'medium']","black",49,"left","low","False","False",9,3150,NA
"A2WNCIZ47VXDIC","Mon Nov 02 2020 18:57:30 GMT+0300 (East Africa Time)","Mon Nov 02 2020 20:33:28 GMT+0300 (East Africa Time)","Mozilla/5.0 (Windows NT 10.0; Win64; x64) AppleWebKit/537.36 (KHTML, like Gecko) Chrome/86.0.4240.111 Safari/537.36",88,"[0.9, 0.5, 0.1]","[0.8, 0.4, 0.2]","[u'black', u'blue', u'red']","[u'left', u'middle', u'right']","[0.8, 0.4, 0.2]","[u'low', u'high', u'medium']","blue",50,"middle","high","True","False",53,3250,NA
"A2WNCIZ47VXDIC","Mon Nov 02 2020 18:57:30 GMT+0300 (East Africa Time)","Mon Nov 02 2020 20:33:28 GMT+0300 (East Africa Time)","Mozilla/5.0 (Windows NT 10.0; Win64; x64) AppleWebKit/537.36 (KHTML, like Gecko) Chrome/86.0.4240.111 Safari/537.36",89,"[0.9, 0.5, 0.1]","[0.8, 0.4, 0.2]","[u'black', u'blue', u'red']","[u'left', u'middle', u'right']","[0.8, 0.4, 0.2]","[u'low', u'high', u'medium']","black",49,"left","low","False","False",239,3200,NA
"A2WNCIZ47VXDIC","Mon Nov 02 2020 18:57:30 GMT+0300 (East Africa Time)","Mon Nov 02 2020 20:33:28 GMT+0300 (East Africa Time)","Mozilla/5.0 (Windows NT 10.0; Win64; x64) AppleWebKit/537.36 (KHTML, like Gecko) Chrome/86.0.4240.111 Safari/537.36",90,"[0.9, 0.5, 0.1]","[0.8, 0.4, 0.2]","[u'black', u'blue', u'red']","[u'left', u'middle', u'right']","[0.8, 0.4, 0.2]","[u'low', u'high', u'medium']","blue",50,"middle","high","True","False",255,3300,NA
"A2WNCIZ47VXDIC","Mon Nov 02 2020 18:57:30 GMT+0300 (East Africa Time)","Mon Nov 02 2020 20:33:28 GMT+0300 (East Africa Time)","Mozilla/5.0 (Windows NT 10.0; Win64; x64) AppleWebKit/537.36 (KHTML, like Gecko) Chrome/86.0.4240.111 Safari/537.36",91,"[0.9, 0.5, 0.1]","[0.8, 0.4, 0.2]","[u'black', u'blue', u'red']","[u'left', u'middle', u'right']","[0.8, 0.4, 0.2]","[u'low', u'high', u'medium']","blue",50,"middle","high","True","False",81,3400,NA
"A2WNCIZ47VXDIC","Mon Nov 02 2020 18:57:30 GMT+0300 (East Africa Time)","Mon Nov 02 2020 20:33:28 GMT+0300 (East Africa Time)","Mozilla/5.0 (Windows NT 10.0; Win64; x64) AppleWebKit/537.36 (KHTML, like Gecko) Chrome/86.0.4240.111 Safari/537.36",92,"[0.9, 0.5, 0.1]","[0.8, 0.4, 0.2]","[u'black', u'blue', u'red']","[u'left', u'middle', u'right']","[0.8, 0.4, 0.2]","[u'low', u'high', u'medium']","blue",50,"middle","high","True","False",1177,3500,NA
"A2WNCIZ47VXDIC","Mon Nov 02 2020 18:57:30 GMT+0300 (East Africa Time)","Mon Nov 02 2020 20:33:28 GMT+0300 (East Africa Time)","Mozilla/5.0 (Windows NT 10.0; Win64; x64) AppleWebKit/537.36 (KHTML, like Gecko) Chrome/86.0.4240.111 Safari/537.36",93,"[0.9, 0.5, 0.1]","[0.8, 0.4, 0.2]","[u'black', u'blue', u'red']","[u'left', u'middle', u'right']","[0.8, 0.4, 0.2]","[u'low', u'high', u'medium']","blue",50,"middle","high","True","False",228,3600,NA
"A2WNCIZ47VXDIC","Mon Nov 02 2020 18:57:30 GMT+0300 (East Africa Time)","Mon Nov 02 2020 20:33:28 GMT+0300 (East Africa Time)","Mozilla/5.0 (Windows NT 10.0; Win64; x64) AppleWebKit/537.36 (KHTML, like Gecko) Chrome/86.0.4240.111 Safari/537.36",94,"[0.9, 0.5, 0.1]","[0.8, 0.4, 0.2]","[u'black', u'blue', u'red']","[u'left', u'middle', u'right']","[0.8, 0.4, 0.2]","[u'low', u'high', u'medium']","blue",50,"middle","high","False","False",204,3550,NA
"A2WNCIZ47VXDIC","Mon Nov 02 2020 18:57:30 GMT+0300 (East Africa Time)","Mon Nov 02 2020 20:33:28 GMT+0300 (East Africa Time)","Mozilla/5.0 (Windows NT 10.0; Win64; x64) AppleWebKit/537.36 (KHTML, like Gecko) Chrome/86.0.4240.111 Safari/537.36",95,"[0.9, 0.5, 0.1]","[0.8, 0.4, 0.2]","[u'black', u'blue', u'red']","[u'left', u'middle', u'right']","[0.8, 0.4, 0.2]","[u'low', u'high', u'medium']","black",49,"left","low","False","False",72,3500,NA
"A2WNCIZ47VXDIC","Mon Nov 02 2020 18:57:30 GMT+0300 (East Africa Time)","Mon Nov 02 2020 20:33:28 GMT+0300 (East Africa Time)","Mozilla/5.0 (Windows NT 10.0; Win64; x64) AppleWebKit/537.36 (KHTML, like Gecko) Chrome/86.0.4240.111 Safari/537.36",96,"[0.9, 0.5, 0.1]","[0.8, 0.4, 0.2]","[u'black', u'blue', u'red']","[u'left', u'middle', u'right']","[0.8, 0.4, 0.2]","[u'low', u'high', u'medium']","red",51,"right","medium","False","False",396,3450,NA
"A2WNCIZ47VXDIC","Mon Nov 02 2020 18:57:30 GMT+0300 (East Africa Time)","Mon Nov 02 2020 20:33:28 GMT+0300 (East Africa Time)","Mozilla/5.0 (Windows NT 10.0; Win64; x64) AppleWebKit/537.36 (KHTML, like Gecko) Chrome/86.0.4240.111 Safari/537.36",97,"[0.9, 0.5, 0.1]","[0.8, 0.4, 0.2]","[u'black', u'blue', u'red']","[u'left', u'middle', u'right']","[0.8, 0.4, 0.2]","[u'low', u'high', u'medium']","black",49,"left","low","False","False",3509,3400,NA
"A2WNCIZ47VXDIC","Mon Nov 02 2020 18:57:30 GMT+0300 (East Africa Time)","Mon Nov 02 2020 20:33:28 GMT+0300 (East Africa Time)","Mozilla/5.0 (Windows NT 10.0; Win64; x64) AppleWebKit/537.36 (KHTML, like Gecko) Chrome/86.0.4240.111 Safari/537.36",98,"[0.9, 0.5, 0.1]","[0.8, 0.4, 0.2]","[u'black', u'blue', u'red']","[u'left', u'middle', u'right']","[0.8, 0.4, 0.2]","[u'low', u'high', u'medium']","blue",50,"middle","high","True","False",222,3500,NA
"A2WNCIZ47VXDIC","Mon Nov 02 2020 18:57:30 GMT+0300 (East Africa Time)","Mon Nov 02 2020 20:33:28 GMT+0300 (East Africa Time)","Mozilla/5.0 (Windows NT 10.0; Win64; x64) AppleWebKit/537.36 (KHTML, like Gecko) Chrome/86.0.4240.111 Safari/537.36",99,"[0.9, 0.5, 0.1]","[0.8, 0.4, 0.2]","[u'black', u'blue', u'red']","[u'left', u'middle', u'right']","[0.8, 0.4, 0.2]","[u'low', u'high', u'medium']","red",51,"right","medium","False","False",541,3450,NA
"A2WNCIZ47VXDIC","Mon Nov 02 2020 18:57:30 GMT+0300 (East Africa Time)","Mon Nov 02 2020 20:33:28 GMT+0300 (East Africa Time)","Mozilla/5.0 (Windows NT 10.0; Win64; x64) AppleWebKit/537.36 (KHTML, like Gecko) Chrome/86.0.4240.111 Safari/537.36",100,"[0.9, 0.5, 0.1]","[0.8, 0.4, 0.2]","[u'black', u'blue', u'red']","[u'left', u'middle', u'right']","[0.8, 0.4, 0.2]","[u'low', u'high', u'medium']","blue",50,"middle","high","True","False",335,3550,NA
"A2WNCIZ47VXDIC","Mon Nov 02 2020 18:57:30 GMT+0300 (East Africa Time)","Mon Nov 02 2020 20:33:28 GMT+0300 (East Africa Time)","Mozilla/5.0 (Windows NT 10.0; Win64; x64) AppleWebKit/537.36 (KHTML, like Gecko) Chrome/86.0.4240.111 Safari/537.36",101,"[0.9, 0.5, 0.1]","[0.8, 0.4, 0.2]","[u'black', u'blue', u'red']","[u'left', u'middle', u'right']","[0.8, 0.4, 0.2]","[u'low', u'high', u'medium']","black",49,"left","low","False","False",339,3500,NA
"A2WNCIZ47VXDIC","Mon Nov 02 2020 18:57:30 GMT+0300 (East Africa Time)","Mon Nov 02 2020 20:33:28 GMT+0300 (East Africa Time)","Mozilla/5.0 (Windows NT 10.0; Win64; x64) AppleWebKit/537.36 (KHTML, like Gecko) Chrome/86.0.4240.111 Safari/537.36",102,"[0.9, 0.5, 0.1]","[0.8, 0.4, 0.2]","[u'black', u'blue', u'red']","[u'left', u'middle', u'right']","[0.8, 0.4, 0.2]","[u'low', u'high', u'medium']","blue",50,"middle","high","True","False",82,3600,NA
"A2WNCIZ47VXDIC","Mon Nov 02 2020 18:57:30 GMT+0300 (East Africa Time)","Mon Nov 02 2020 20:33:28 GMT+0300 (East Africa Time)","Mozilla/5.0 (Windows NT 10.0; Win64; x64) AppleWebKit/537.36 (KHTML, like Gecko) Chrome/86.0.4240.111 Safari/537.36",103,"[0.9, 0.5, 0.1]","[0.8, 0.4, 0.2]","[u'black', u'blue', u'red']","[u'left', u'middle', u'right']","[0.8, 0.4, 0.2]","[u'low', u'high', u'medium']","blue",50,"middle","high","True","False",509,3700,NA
"A2WNCIZ47VXDIC","Mon Nov 02 2020 18:57:30 GMT+0300 (East Africa Time)","Mon Nov 02 2020 20:33:28 GMT+0300 (East Africa Time)","Mozilla/5.0 (Windows NT 10.0; Win64; x64) AppleWebKit/537.36 (KHTML, like Gecko) Chrome/86.0.4240.111 Safari/537.36",104,"[0.9, 0.5, 0.1]","[0.8, 0.4, 0.2]","[u'black', u'blue', u'red']","[u'left', u'middle', u'right']","[0.8, 0.4, 0.2]","[u'low', u'high', u'medium']","blue",50,"middle","high","True","False",9631,3800,NA
"A2WNCIZ47VXDIC","Mon Nov 02 2020 18:57:30 GMT+0300 (East Africa Time)","Mon Nov 02 2020 20:33:28 GMT+0300 (East Africa Time)","Mozilla/5.0 (Windows NT 10.0; Win64; x64) AppleWebKit/537.36 (KHTML, like Gecko) Chrome/86.0.4240.111 Safari/537.36",105,"[0.9, 0.5, 0.1]","[0.8, 0.4, 0.2]","[u'black', u'blue', u'red']","[u'left', u'middle', u'right']","[0.8, 0.4, 0.2]","[u'low', u'high', u'medium']","black",49,"left","low","False","False",474,3750,NA
"A2WNCIZ47VXDIC","Mon Nov 02 2020 18:57:30 GMT+0300 (East Africa Time)","Mon Nov 02 2020 20:33:28 GMT+0300 (East Africa Time)","Mozilla/5.0 (Windows NT 10.0; Win64; x64) AppleWebKit/537.36 (KHTML, like Gecko) Chrome/86.0.4240.111 Safari/537.36",106,"[0.9, 0.5, 0.1]","[0.8, 0.4, 0.2]","[u'black', u'blue', u'red']","[u'left', u'middle', u'right']","[0.8, 0.4, 0.2]","[u'low', u'high', u'medium']","blue",50,"middle","high","False","False",429,3700,NA
"A2WNCIZ47VXDIC","Mon Nov 02 2020 18:57:30 GMT+0300 (East Africa Time)","Mon Nov 02 2020 20:33:28 GMT+0300 (East Africa Time)","Mozilla/5.0 (Windows NT 10.0; Win64; x64) AppleWebKit/537.36 (KHTML, like Gecko) Chrome/86.0.4240.111 Safari/537.36",107,"[0.9, 0.5, 0.1]","[0.8, 0.4, 0.2]","[u'black', u'blue', u'red']","[u'left', u'middle', u'right']","[0.8, 0.4, 0.2]","[u'low', u'high', u'medium']","blue",50,"middle","high","False","False",9284,3650,NA
"A2WNCIZ47VXDIC","Mon Nov 02 2020 18:57:30 GMT+0300 (East Africa Time)","Mon Nov 02 2020 20:33:28 GMT+0300 (East Africa Time)","Mozilla/5.0 (Windows NT 10.0; Win64; x64) AppleWebKit/537.36 (KHTML, like Gecko) Chrome/86.0.4240.111 Safari/537.36",108,"[0.9, 0.5, 0.1]","[0.8, 0.4, 0.2]","[u'black', u'blue', u'red']","[u'left', u'middle', u'right']","[0.8, 0.4, 0.2]","[u'low', u'high', u'medium']","black",49,"left","low","False","False",250,3600,NA
"A2WNCIZ47VXDIC","Mon Nov 02 2020 18:57:30 GMT+0300 (East Africa Time)","Mon Nov 02 2020 20:33:28 GMT+0300 (East Africa Time)","Mozilla/5.0 (Windows NT 10.0; Win64; x64) AppleWebKit/537.36 (KHTML, like Gecko) Chrome/86.0.4240.111 Safari/537.36",109,"[0.9, 0.5, 0.1]","[0.8, 0.4, 0.2]","[u'black', u'blue', u'red']","[u'left', u'middle', u'right']","[0.8, 0.4, 0.2]","[u'low', u'high', u'medium']","red",51,"right","medium","False","False",286,3550,NA
"A2WNCIZ47VXDIC","Mon Nov 02 2020 18:57:30 GMT+0300 (East Africa Time)","Mon Nov 02 2020 20:33:28 GMT+0300 (East Africa Time)","Mozilla/5.0 (Windows NT 10.0; Win64; x64) AppleWebKit/537.36 (KHTML, like Gecko) Chrome/86.0.4240.111 Safari/537.36",110,"[0.9, 0.5, 0.1]","[0.8, 0.4, 0.2]","[u'black', u'blue', u'red']","[u'left', u'middle', u'right']","[0.8, 0.4, 0.2]","[u'low', u'high', u'medium']","blue",50,"middle","high","True","False",252,3650,NA
"A2WNCIZ47VXDIC","Mon Nov 02 2020 18:57:30 GMT+0300 (East Africa Time)","Mon Nov 02 2020 20:33:28 GMT+0300 (East Africa Time)","Mozilla/5.0 (Windows NT 10.0; Win64; x64) AppleWebKit/537.36 (KHTML, like Gecko) Chrome/86.0.4240.111 Safari/537.36",111,"[0.9, 0.5, 0.1]","[0.8, 0.4, 0.2]","[u'black', u'blue', u'red']","[u'left', u'middle', u'right']","[0.8, 0.4, 0.2]","[u'low', u'high', u'medium']","blue",50,"middle","high","True","False",394,3750,NA
"A2WNCIZ47VXDIC","Mon Nov 02 2020 18:57:30 GMT+0300 (East Africa Time)","Mon Nov 02 2020 20:33:28 GMT+0300 (East Africa Time)","Mozilla/5.0 (Windows NT 10.0; Win64; x64) AppleWebKit/537.36 (KHTML, like Gecko) Chrome/86.0.4240.111 Safari/537.36",112,"[0.9, 0.5, 0.1]","[0.8, 0.4, 0.2]","[u'black', u'blue', u'red']","[u'left', u'middle', u'right']","[0.8, 0.4, 0.2]","[u'low', u'high', u'medium']","blue",50,"middle","high","True","False",2804,3850,NA
"A2WNCIZ47VXDIC","Mon Nov 02 2020 18:57:30 GMT+0300 (East Africa Time)","Mon Nov 02 2020 20:33:28 GMT+0300 (East Africa Time)","Mozilla/5.0 (Windows NT 10.0; Win64; x64) AppleWebKit/537.36 (KHTML, like Gecko) Chrome/86.0.4240.111 Safari/537.36",113,"[0.9, 0.5, 0.1]","[0.8, 0.4, 0.2]","[u'black', u'blue', u'red']","[u'left', u'middle', u'right']","[0.8, 0.4, 0.2]","[u'low', u'high', u'medium']","blue",50,"middle","high","True","False",1528,3950,NA
"A2WNCIZ47VXDIC","Mon Nov 02 2020 18:57:30 GMT+0300 (East Africa Time)","Mon Nov 02 2020 20:33:28 GMT+0300 (East Africa Time)","Mozilla/5.0 (Windows NT 10.0; Win64; x64) AppleWebKit/537.36 (KHTML, like Gecko) Chrome/86.0.4240.111 Safari/537.36",114,"[0.9, 0.5, 0.1]","[0.8, 0.4, 0.2]","[u'black', u'blue', u'red']","[u'left', u'middle', u'right']","[0.8, 0.4, 0.2]","[u'low', u'high', u'medium']","black",49,"left","low","False","False",595,3900,NA
"A2WNCIZ47VXDIC","Mon Nov 02 2020 18:57:30 GMT+0300 (East Africa Time)","Mon Nov 02 2020 20:33:28 GMT+0300 (East Africa Time)","Mozilla/5.0 (Windows NT 10.0; Win64; x64) AppleWebKit/537.36 (KHTML, like Gecko) Chrome/86.0.4240.111 Safari/537.36",115,"[0.9, 0.5, 0.1]","[0.8, 0.4, 0.2]","[u'black', u'blue', u'red']","[u'left', u'middle', u'right']","[0.8, 0.4, 0.2]","[u'low', u'high', u'medium']","blue",50,"middle","high","True","False",2687,4000,NA
"A2WNCIZ47VXDIC","Mon Nov 02 2020 18:57:30 GMT+0300 (East Africa Time)","Mon Nov 02 2020 20:33:28 GMT+0300 (East Africa Time)","Mozilla/5.0 (Windows NT 10.0; Win64; x64) AppleWebKit/537.36 (KHTML, like Gecko) Chrome/86.0.4240.111 Safari/537.36",116,"[0.9, 0.5, 0.1]","[0.8, 0.4, 0.2]","[u'black', u'blue', u'red']","[u'left', u'middle', u'right']","[0.8, 0.4, 0.2]","[u'low', u'high', u'medium']","blue",50,"middle","high","True","False",409,4100,NA
"A2WNCIZ47VXDIC","Mon Nov 02 2020 18:57:30 GMT+0300 (East Africa Time)","Mon Nov 02 2020 20:33:28 GMT+0300 (East Africa Time)","Mozilla/5.0 (Windows NT 10.0; Win64; x64) AppleWebKit/537.36 (KHTML, like Gecko) Chrome/86.0.4240.111 Safari/537.36",117,"[0.9, 0.5, 0.1]","[0.8, 0.4, 0.2]","[u'black', u'blue', u'red']","[u'left', u'middle', u'right']","[0.8, 0.4, 0.2]","[u'low', u'high', u'medium']","blue",50,"middle","high","True","False",5012,4200,NA
"A2WNCIZ47VXDIC","Mon Nov 02 2020 18:57:30 GMT+0300 (East Africa Time)","Mon Nov 02 2020 20:33:28 GMT+0300 (East Africa Time)","Mozilla/5.0 (Windows NT 10.0; Win64; x64) AppleWebKit/537.36 (KHTML, like Gecko) Chrome/86.0.4240.111 Safari/537.36",118,"[0.9, 0.5, 0.1]","[0.8, 0.4, 0.2]","[u'black', u'blue', u'red']","[u'left', u'middle', u'right']","[0.8, 0.4, 0.2]","[u'low', u'high', u'medium']","black",49,"left","low","False","False",162,4150,NA
"A2WNCIZ47VXDIC","Mon Nov 02 2020 18:57:30 GMT+0300 (East Africa Time)","Mon Nov 02 2020 20:33:28 GMT+0300 (East Africa Time)","Mozilla/5.0 (Windows NT 10.0; Win64; x64) AppleWebKit/537.36 (KHTML, like Gecko) Chrome/86.0.4240.111 Safari/537.36",119,"[0.9, 0.5, 0.1]","[0.8, 0.4, 0.2]","[u'black', u'blue', u'red']","[u'left', u'middle', u'right']","[0.8, 0.4, 0.2]","[u'low', u'high', u'medium']","red",51,"right","medium","False","False",697,4100,NA
"A2WNCIZ47VXDIC","Mon Nov 02 2020 18:57:30 GMT+0300 (East Africa Time)","Mon Nov 02 2020 20:33:28 GMT+0300 (East Africa Time)","Mozilla/5.0 (Windows NT 10.0; Win64; x64) AppleWebKit/537.36 (KHTML, like Gecko) Chrome/86.0.4240.111 Safari/537.36",120,"[0.9, 0.5, 0.1]","[0.8, 0.4, 0.2]","[u'black', u'blue', u'red']","[u'left', u'middle', u'right']","[0.8, 0.4, 0.2]","[u'low', u'high', u'medium']","blue",50,"middle","high","False","False",466,4050,NA
"A2WNCIZ47VXDIC","Mon Nov 02 2020 18:57:30 GMT+0300 (East Africa Time)","Mon Nov 02 2020 20:33:28 GMT+0300 (East Africa Time)","Mozilla/5.0 (Windows NT 10.0; Win64; x64) AppleWebKit/537.36 (KHTML, like Gecko) Chrome/86.0.4240.111 Safari/537.36",121,"[0.9, 0.5, 0.1]","[0.8, 0.4, 0.2]","[u'black', u'blue', u'red']","[u'left', u'middle', u'right']","[0.8, 0.4, 0.2]","[u'medium', u'low', u'high']","black",49,"left","medium","True","False",1342,4150,NA
"A2WNCIZ47VXDIC","Mon Nov 02 2020 18:57:30 GMT+0300 (East Africa Time)","Mon Nov 02 2020 20:33:28 GMT+0300 (East Africa Time)","Mozilla/5.0 (Windows NT 10.0; Win64; x64) AppleWebKit/537.36 (KHTML, like Gecko) Chrome/86.0.4240.111 Safari/537.36",122,"[0.9, 0.5, 0.1]","[0.8, 0.4, 0.2]","[u'black', u'blue', u'red']","[u'left', u'middle', u'right']","[0.8, 0.4, 0.2]","[u'medium', u'low', u'high']","blue",50,"middle","low","False","False",77,4100,NA
"A2WNCIZ47VXDIC","Mon Nov 02 2020 18:57:30 GMT+0300 (East Africa Time)","Mon Nov 02 2020 20:33:28 GMT+0300 (East Africa Time)","Mozilla/5.0 (Windows NT 10.0; Win64; x64) AppleWebKit/537.36 (KHTML, like Gecko) Chrome/86.0.4240.111 Safari/537.36",123,"[0.9, 0.5, 0.1]","[0.8, 0.4, 0.2]","[u'black', u'blue', u'red']","[u'left', u'middle', u'right']","[0.8, 0.4, 0.2]","[u'medium', u'low', u'high']","black",49,"left","medium","False","False",467,4050,NA
"A2WNCIZ47VXDIC","Mon Nov 02 2020 18:57:30 GMT+0300 (East Africa Time)","Mon Nov 02 2020 20:33:28 GMT+0300 (East Africa Time)","Mozilla/5.0 (Windows NT 10.0; Win64; x64) AppleWebKit/537.36 (KHTML, like Gecko) Chrome/86.0.4240.111 Safari/537.36",124,"[0.9, 0.5, 0.1]","[0.8, 0.4, 0.2]","[u'black', u'blue', u'red']","[u'left', u'middle', u'right']","[0.8, 0.4, 0.2]","[u'medium', u'low', u'high']","red",51,"right","high","True","False",406,4150,NA
"A2WNCIZ47VXDIC","Mon Nov 02 2020 18:57:30 GMT+0300 (East Africa Time)","Mon Nov 02 2020 20:33:28 GMT+0300 (East Africa Time)","Mozilla/5.0 (Windows NT 10.0; Win64; x64) AppleWebKit/537.36 (KHTML, like Gecko) Chrome/86.0.4240.111 Safari/537.36",125,"[0.9, 0.5, 0.1]","[0.8, 0.4, 0.2]","[u'black', u'blue', u'red']","[u'left', u'middle', u'right']","[0.8, 0.4, 0.2]","[u'medium', u'low', u'high']","blue",50,"middle","low","False","False",688,4100,NA
"A2WNCIZ47VXDIC","Mon Nov 02 2020 18:57:30 GMT+0300 (East Africa Time)","Mon Nov 02 2020 20:33:28 GMT+0300 (East Africa Time)","Mozilla/5.0 (Windows NT 10.0; Win64; x64) AppleWebKit/537.36 (KHTML, like Gecko) Chrome/86.0.4240.111 Safari/537.36",126,"[0.9, 0.5, 0.1]","[0.8, 0.4, 0.2]","[u'black', u'blue', u'red']","[u'left', u'middle', u'right']","[0.8, 0.4, 0.2]","[u'medium', u'low', u'high']","blue",50,"middle","low","True","False",410,4200,NA
"A2WNCIZ47VXDIC","Mon Nov 02 2020 18:57:30 GMT+0300 (East Africa Time)","Mon Nov 02 2020 20:33:28 GMT+0300 (East Africa Time)","Mozilla/5.0 (Windows NT 10.0; Win64; x64) AppleWebKit/537.36 (KHTML, like Gecko) Chrome/86.0.4240.111 Safari/537.36",127,"[0.9, 0.5, 0.1]","[0.8, 0.4, 0.2]","[u'black', u'blue', u'red']","[u'left', u'middle', u'right']","[0.8, 0.4, 0.2]","[u'medium', u'low', u'high']","black",49,"left","medium","True","False",66,4300,NA
"A2WNCIZ47VXDIC","Mon Nov 02 2020 18:57:30 GMT+0300 (East Africa Time)","Mon Nov 02 2020 20:33:28 GMT+0300 (East Africa Time)","Mozilla/5.0 (Windows NT 10.0; Win64; x64) AppleWebKit/537.36 (KHTML, like Gecko) Chrome/86.0.4240.111 Safari/537.36",128,"[0.9, 0.5, 0.1]","[0.8, 0.4, 0.2]","[u'black', u'blue', u'red']","[u'left', u'middle', u'right']","[0.8, 0.4, 0.2]","[u'medium', u'low', u'high']","black",49,"left","medium","False","False",801,4250,NA
"A2WNCIZ47VXDIC","Mon Nov 02 2020 18:57:30 GMT+0300 (East Africa Time)","Mon Nov 02 2020 20:33:28 GMT+0300 (East Africa Time)","Mozilla/5.0 (Windows NT 10.0; Win64; x64) AppleWebKit/537.36 (KHTML, like Gecko) Chrome/86.0.4240.111 Safari/537.36",129,"[0.9, 0.5, 0.1]","[0.8, 0.4, 0.2]","[u'black', u'blue', u'red']","[u'left', u'middle', u'right']","[0.8, 0.4, 0.2]","[u'medium', u'low', u'high']","red",51,"right","high","True","False",1356,4350,NA
"A2WNCIZ47VXDIC","Mon Nov 02 2020 18:57:30 GMT+0300 (East Africa Time)","Mon Nov 02 2020 20:33:28 GMT+0300 (East Africa Time)","Mozilla/5.0 (Windows NT 10.0; Win64; x64) AppleWebKit/537.36 (KHTML, like Gecko) Chrome/86.0.4240.111 Safari/537.36",130,"[0.9, 0.5, 0.1]","[0.8, 0.4, 0.2]","[u'black', u'blue', u'red']","[u'left', u'middle', u'right']","[0.8, 0.4, 0.2]","[u'medium', u'low', u'high']","blue",50,"middle","low","False","False",1285,4300,NA
"A2WNCIZ47VXDIC","Mon Nov 02 2020 18:57:30 GMT+0300 (East Africa Time)","Mon Nov 02 2020 20:33:28 GMT+0300 (East Africa Time)","Mozilla/5.0 (Windows NT 10.0; Win64; x64) AppleWebKit/537.36 (KHTML, like Gecko) Chrome/86.0.4240.111 Safari/537.36",131,"[0.9, 0.5, 0.1]","[0.8, 0.4, 0.2]","[u'black', u'blue', u'red']","[u'left', u'middle', u'right']","[0.8, 0.4, 0.2]","[u'medium', u'low', u'high']","red",51,"right","high","True","False",806,4400,NA
"A2WNCIZ47VXDIC","Mon Nov 02 2020 18:57:30 GMT+0300 (East Africa Time)","Mon Nov 02 2020 20:33:28 GMT+0300 (East Africa Time)","Mozilla/5.0 (Windows NT 10.0; Win64; x64) AppleWebKit/537.36 (KHTML, like Gecko) Chrome/86.0.4240.111 Safari/537.36",132,"[0.9, 0.5, 0.1]","[0.8, 0.4, 0.2]","[u'black', u'blue', u'red']","[u'left', u'middle', u'right']","[0.8, 0.4, 0.2]","[u'medium', u'low', u'high']","red",51,"right","high","True","False",413,4500,NA
"A2WNCIZ47VXDIC","Mon Nov 02 2020 18:57:30 GMT+0300 (East Africa Time)","Mon Nov 02 2020 20:33:28 GMT+0300 (East Africa Time)","Mozilla/5.0 (Windows NT 10.0; Win64; x64) AppleWebKit/537.36 (KHTML, like Gecko) Chrome/86.0.4240.111 Safari/537.36",133,"[0.9, 0.5, 0.1]","[0.8, 0.4, 0.2]","[u'black', u'blue', u'red']","[u'left', u'middle', u'right']","[0.8, 0.4, 0.2]","[u'medium', u'low', u'high']","black",49,"left","medium","True","False",4160,4600,NA
"A2WNCIZ47VXDIC","Mon Nov 02 2020 18:57:30 GMT+0300 (East Africa Time)","Mon Nov 02 2020 20:33:28 GMT+0300 (East Africa Time)","Mozilla/5.0 (Windows NT 10.0; Win64; x64) AppleWebKit/537.36 (KHTML, like Gecko) Chrome/86.0.4240.111 Safari/537.36",134,"[0.9, 0.5, 0.1]","[0.8, 0.4, 0.2]","[u'black', u'blue', u'red']","[u'left', u'middle', u'right']","[0.8, 0.4, 0.2]","[u'medium', u'low', u'high']","black",49,"left","medium","False","False",379,4550,NA
"A2WNCIZ47VXDIC","Mon Nov 02 2020 18:57:30 GMT+0300 (East Africa Time)","Mon Nov 02 2020 20:33:28 GMT+0300 (East Africa Time)","Mozilla/5.0 (Windows NT 10.0; Win64; x64) AppleWebKit/537.36 (KHTML, like Gecko) Chrome/86.0.4240.111 Safari/537.36",135,"[0.9, 0.5, 0.1]","[0.8, 0.4, 0.2]","[u'black', u'blue', u'red']","[u'left', u'middle', u'right']","[0.8, 0.4, 0.2]","[u'medium', u'low', u'high']","black",49,"left","medium","True","False",592,4650,NA
"A2WNCIZ47VXDIC","Mon Nov 02 2020 18:57:30 GMT+0300 (East Africa Time)","Mon Nov 02 2020 20:33:28 GMT+0300 (East Africa Time)","Mozilla/5.0 (Windows NT 10.0; Win64; x64) AppleWebKit/537.36 (KHTML, like Gecko) Chrome/86.0.4240.111 Safari/537.36",136,"[0.9, 0.5, 0.1]","[0.8, 0.4, 0.2]","[u'black', u'blue', u'red']","[u'left', u'middle', u'right']","[0.8, 0.4, 0.2]","[u'medium', u'low', u'high']","blue",50,"middle","low","False","False",1341,4600,NA
"A2WNCIZ47VXDIC","Mon Nov 02 2020 18:57:30 GMT+0300 (East Africa Time)","Mon Nov 02 2020 20:33:28 GMT+0300 (East Africa Time)","Mozilla/5.0 (Windows NT 10.0; Win64; x64) AppleWebKit/537.36 (KHTML, like Gecko) Chrome/86.0.4240.111 Safari/537.36",137,"[0.9, 0.5, 0.1]","[0.8, 0.4, 0.2]","[u'black', u'blue', u'red']","[u'left', u'middle', u'right']","[0.8, 0.4, 0.2]","[u'medium', u'low', u'high']","blue",50,"middle","low","False","False",6,4550,NA
"A2WNCIZ47VXDIC","Mon Nov 02 2020 18:57:30 GMT+0300 (East Africa Time)","Mon Nov 02 2020 20:33:28 GMT+0300 (East Africa Time)","Mozilla/5.0 (Windows NT 10.0; Win64; x64) AppleWebKit/537.36 (KHTML, like Gecko) Chrome/86.0.4240.111 Safari/537.36",138,"[0.9, 0.5, 0.1]","[0.8, 0.4, 0.2]","[u'black', u'blue', u'red']","[u'left', u'middle', u'right']","[0.8, 0.4, 0.2]","[u'medium', u'low', u'high']","red",51,"right","high","True","False",743,4650,NA
"A2WNCIZ47VXDIC","Mon Nov 02 2020 18:57:30 GMT+0300 (East Africa Time)","Mon Nov 02 2020 20:33:28 GMT+0300 (East Africa Time)","Mozilla/5.0 (Windows NT 10.0; Win64; x64) AppleWebKit/537.36 (KHTML, like Gecko) Chrome/86.0.4240.111 Safari/537.36",139,"[0.9, 0.5, 0.1]","[0.8, 0.4, 0.2]","[u'black', u'blue', u'red']","[u'left', u'middle', u'right']","[0.8, 0.4, 0.2]","[u'medium', u'low', u'high']","blue",50,"middle","low","False","False",1621,4600,NA
"A2WNCIZ47VXDIC","Mon Nov 02 2020 18:57:30 GMT+0300 (East Africa Time)","Mon Nov 02 2020 20:33:28 GMT+0300 (East Africa Time)","Mozilla/5.0 (Windows NT 10.0; Win64; x64) AppleWebKit/537.36 (KHTML, like Gecko) Chrome/86.0.4240.111 Safari/537.36",140,"[0.9, 0.5, 0.1]","[0.8, 0.4, 0.2]","[u'black', u'blue', u'red']","[u'left', u'middle', u'right']","[0.8, 0.4, 0.2]","[u'medium', u'low', u'high']","black",49,"left","medium","False","False",1724,4550,NA
"A2WNCIZ47VXDIC","Mon Nov 02 2020 18:57:30 GMT+0300 (East Africa Time)","Mon Nov 02 2020 20:33:28 GMT+0300 (East Africa Time)","Mozilla/5.0 (Windows NT 10.0; Win64; x64) AppleWebKit/537.36 (KHTML, like Gecko) Chrome/86.0.4240.111 Safari/537.36",141,"[0.9, 0.5, 0.1]","[0.8, 0.4, 0.2]","[u'black', u'blue', u'red']","[u'left', u'middle', u'right']","[0.8, 0.4, 0.2]","[u'medium', u'low', u'high']","blue",50,"middle","low","False","False",726,4500,NA
"A2WNCIZ47VXDIC","Mon Nov 02 2020 18:57:30 GMT+0300 (East Africa Time)","Mon Nov 02 2020 20:33:28 GMT+0300 (East Africa Time)","Mozilla/5.0 (Windows NT 10.0; Win64; x64) AppleWebKit/537.36 (KHTML, like Gecko) Chrome/86.0.4240.111 Safari/537.36",142,"[0.9, 0.5, 0.1]","[0.8, 0.4, 0.2]","[u'black', u'blue', u'red']","[u'left', u'middle', u'right']","[0.8, 0.4, 0.2]","[u'medium', u'low', u'high']","blue",50,"middle","low","False","False",1432,4450,NA
"A2WNCIZ47VXDIC","Mon Nov 02 2020 18:57:30 GMT+0300 (East Africa Time)","Mon Nov 02 2020 20:33:28 GMT+0300 (East Africa Time)","Mozilla/5.0 (Windows NT 10.0; Win64; x64) AppleWebKit/537.36 (KHTML, like Gecko) Chrome/86.0.4240.111 Safari/537.36",143,"[0.9, 0.5, 0.1]","[0.8, 0.4, 0.2]","[u'black', u'blue', u'red']","[u'left', u'middle', u'right']","[0.8, 0.4, 0.2]","[u'medium', u'low', u'high']","red",51,"right","high","False","False",2365,4400,NA
"A2WNCIZ47VXDIC","Mon Nov 02 2020 18:57:30 GMT+0300 (East Africa Time)","Mon Nov 02 2020 20:33:28 GMT+0300 (East Africa Time)","Mozilla/5.0 (Windows NT 10.0; Win64; x64) AppleWebKit/537.36 (KHTML, like Gecko) Chrome/86.0.4240.111 Safari/537.36",144,"[0.9, 0.5, 0.1]","[0.8, 0.4, 0.2]","[u'black', u'blue', u'red']","[u'left', u'middle', u'right']","[0.8, 0.4, 0.2]","[u'medium', u'low', u'high']","blue",50,"middle","low","False","False",983,4350,NA
"A2WNCIZ47VXDIC","Mon Nov 02 2020 18:57:30 GMT+0300 (East Africa Time)","Mon Nov 02 2020 20:33:28 GMT+0300 (East Africa Time)","Mozilla/5.0 (Windows NT 10.0; Win64; x64) AppleWebKit/537.36 (KHTML, like Gecko) Chrome/86.0.4240.111 Safari/537.36",145,"[0.9, 0.5, 0.1]","[0.8, 0.4, 0.2]","[u'black', u'blue', u'red']","[u'left', u'middle', u'right']","[0.8, 0.4, 0.2]","[u'medium', u'low', u'high']","blue",50,"middle","low","False","False",1579,4300,NA
"A2WNCIZ47VXDIC","Mon Nov 02 2020 18:57:30 GMT+0300 (East Africa Time)","Mon Nov 02 2020 20:33:28 GMT+0300 (East Africa Time)","Mozilla/5.0 (Windows NT 10.0; Win64; x64) AppleWebKit/537.36 (KHTML, like Gecko) Chrome/86.0.4240.111 Safari/537.36",146,"[0.9, 0.5, 0.1]","[0.8, 0.4, 0.2]","[u'black', u'blue', u'red']","[u'left', u'middle', u'right']","[0.8, 0.4, 0.2]","[u'medium', u'low', u'high']","black",49,"left","medium","False","False",320,4250,NA
"A2WNCIZ47VXDIC","Mon Nov 02 2020 18:57:30 GMT+0300 (East Africa Time)","Mon Nov 02 2020 20:33:28 GMT+0300 (East Africa Time)","Mozilla/5.0 (Windows NT 10.0; Win64; x64) AppleWebKit/537.36 (KHTML, like Gecko) Chrome/86.0.4240.111 Safari/537.36",147,"[0.9, 0.5, 0.1]","[0.8, 0.4, 0.2]","[u'black', u'blue', u'red']","[u'left', u'middle', u'right']","[0.8, 0.4, 0.2]","[u'medium', u'low', u'high']","red",51,"right","high","True","False",1253,4350,NA
"A2WNCIZ47VXDIC","Mon Nov 02 2020 18:57:30 GMT+0300 (East Africa Time)","Mon Nov 02 2020 20:33:28 GMT+0300 (East Africa Time)","Mozilla/5.0 (Windows NT 10.0; Win64; x64) AppleWebKit/537.36 (KHTML, like Gecko) Chrome/86.0.4240.111 Safari/537.36",148,"[0.9, 0.5, 0.1]","[0.8, 0.4, 0.2]","[u'black', u'blue', u'red']","[u'left', u'middle', u'right']","[0.8, 0.4, 0.2]","[u'medium', u'low', u'high']","red",51,"right","high","False","False",1108,4300,NA
"A2WNCIZ47VXDIC","Mon Nov 02 2020 18:57:30 GMT+0300 (East Africa Time)","Mon Nov 02 2020 20:33:28 GMT+0300 (East Africa Time)","Mozilla/5.0 (Windows NT 10.0; Win64; x64) AppleWebKit/537.36 (KHTML, like Gecko) Chrome/86.0.4240.111 Safari/537.36",149,"[0.9, 0.5, 0.1]","[0.8, 0.4, 0.2]","[u'black', u'blue', u'red']","[u'left', u'middle', u'right']","[0.8, 0.4, 0.2]","[u'medium', u'low', u'high']","blue",50,"middle","low","False","False",235,4250,NA
"A2WNCIZ47VXDIC","Mon Nov 02 2020 18:57:30 GMT+0300 (East Africa Time)","Mon Nov 02 2020 20:33:28 GMT+0300 (East Africa Time)","Mozilla/5.0 (Windows NT 10.0; Win64; x64) AppleWebKit/537.36 (KHTML, like Gecko) Chrome/86.0.4240.111 Safari/537.36",150,"[0.9, 0.5, 0.1]","[0.8, 0.4, 0.2]","[u'black', u'blue', u'red']","[u'left', u'middle', u'right']","[0.8, 0.4, 0.2]","[u'medium', u'low', u'high']","black",49,"left","medium","False","False",2677,4200,NA
"A2WNCIZ47VXDIC","Mon Nov 02 2020 18:57:30 GMT+0300 (East Africa Time)","Mon Nov 02 2020 20:33:28 GMT+0300 (East Africa Time)","Mozilla/5.0 (Windows NT 10.0; Win64; x64) AppleWebKit/537.36 (KHTML, like Gecko) Chrome/86.0.4240.111 Safari/537.36",151,"[0.9, 0.5, 0.1]","[0.8, 0.4, 0.2]","[u'black', u'blue', u'red']","[u'left', u'middle', u'right']","[0.8, 0.4, 0.2]","[u'medium', u'low', u'high']","black",49,"left","medium","True","False",898,4300,NA
"A2WNCIZ47VXDIC","Mon Nov 02 2020 18:57:30 GMT+0300 (East Africa Time)","Mon Nov 02 2020 20:33:28 GMT+0300 (East Africa Time)","Mozilla/5.0 (Windows NT 10.0; Win64; x64) AppleWebKit/537.36 (KHTML, like Gecko) Chrome/86.0.4240.111 Safari/537.36",152,"[0.9, 0.5, 0.1]","[0.8, 0.4, 0.2]","[u'black', u'blue', u'red']","[u'left', u'middle', u'right']","[0.8, 0.4, 0.2]","[u'medium', u'low', u'high']","blue",50,"middle","low","False","False",1041,4250,NA
"A2WNCIZ47VXDIC","Mon Nov 02 2020 18:57:30 GMT+0300 (East Africa Time)","Mon Nov 02 2020 20:33:28 GMT+0300 (East Africa Time)","Mozilla/5.0 (Windows NT 10.0; Win64; x64) AppleWebKit/537.36 (KHTML, like Gecko) Chrome/86.0.4240.111 Safari/537.36",153,"[0.9, 0.5, 0.1]","[0.8, 0.4, 0.2]","[u'black', u'blue', u'red']","[u'left', u'middle', u'right']","[0.8, 0.4, 0.2]","[u'medium', u'low', u'high']","black",49,"left","medium","True","False",2167,4350,NA
"A2WNCIZ47VXDIC","Mon Nov 02 2020 18:57:30 GMT+0300 (East Africa Time)","Mon Nov 02 2020 20:33:28 GMT+0300 (East Africa Time)","Mozilla/5.0 (Windows NT 10.0; Win64; x64) AppleWebKit/537.36 (KHTML, like Gecko) Chrome/86.0.4240.111 Safari/537.36",154,"[0.9, 0.5, 0.1]","[0.8, 0.4, 0.2]","[u'black', u'blue', u'red']","[u'left', u'middle', u'right']","[0.8, 0.4, 0.2]","[u'medium', u'low', u'high']","blue",50,"middle","low","False","False",887,4300,NA
"A2WNCIZ47VXDIC","Mon Nov 02 2020 18:57:30 GMT+0300 (East Africa Time)","Mon Nov 02 2020 20:33:28 GMT+0300 (East Africa Time)","Mozilla/5.0 (Windows NT 10.0; Win64; x64) AppleWebKit/537.36 (KHTML, like Gecko) Chrome/86.0.4240.111 Safari/537.36",155,"[0.9, 0.5, 0.1]","[0.8, 0.4, 0.2]","[u'black', u'blue', u'red']","[u'left', u'middle', u'right']","[0.8, 0.4, 0.2]","[u'medium', u'low', u'high']","black",49,"left","medium","True","False",2011,4400,NA
"A2WNCIZ47VXDIC","Mon Nov 02 2020 18:57:30 GMT+0300 (East Africa Time)","Mon Nov 02 2020 20:33:28 GMT+0300 (East Africa Time)","Mozilla/5.0 (Windows NT 10.0; Win64; x64) AppleWebKit/537.36 (KHTML, like Gecko) Chrome/86.0.4240.111 Safari/537.36",156,"[0.9, 0.5, 0.1]","[0.8, 0.4, 0.2]","[u'black', u'blue', u'red']","[u'left', u'middle', u'right']","[0.8, 0.4, 0.2]","[u'medium', u'low', u'high']","black",49,"left","medium","True","False",828,4500,NA
"A2WNCIZ47VXDIC","Mon Nov 02 2020 18:57:30 GMT+0300 (East Africa Time)","Mon Nov 02 2020 20:33:28 GMT+0300 (East Africa Time)","Mozilla/5.0 (Windows NT 10.0; Win64; x64) AppleWebKit/537.36 (KHTML, like Gecko) Chrome/86.0.4240.111 Safari/537.36",157,"[0.9, 0.5, 0.1]","[0.8, 0.4, 0.2]","[u'black', u'blue', u'red']","[u'left', u'middle', u'right']","[0.8, 0.4, 0.2]","[u'medium', u'low', u'high']","black",49,"left","medium","False","False",496,4450,NA
"A2WNCIZ47VXDIC","Mon Nov 02 2020 18:57:30 GMT+0300 (East Africa Time)","Mon Nov 02 2020 20:33:28 GMT+0300 (East Africa Time)","Mozilla/5.0 (Windows NT 10.0; Win64; x64) AppleWebKit/537.36 (KHTML, like Gecko) Chrome/86.0.4240.111 Safari/537.36",158,"[0.9, 0.5, 0.1]","[0.8, 0.4, 0.2]","[u'black', u'blue', u'red']","[u'left', u'middle', u'right']","[0.8, 0.4, 0.2]","[u'medium', u'low', u'high']","black",49,"left","medium","False","False",11597,4400,NA
"A2WNCIZ47VXDIC","Mon Nov 02 2020 18:57:30 GMT+0300 (East Africa Time)","Mon Nov 02 2020 20:33:28 GMT+0300 (East Africa Time)","Mozilla/5.0 (Windows NT 10.0; Win64; x64) AppleWebKit/537.36 (KHTML, like Gecko) Chrome/86.0.4240.111 Safari/537.36",159,"[0.9, 0.5, 0.1]","[0.8, 0.4, 0.2]","[u'black', u'blue', u'red']","[u'left', u'middle', u'right']","[0.8, 0.4, 0.2]","[u'medium', u'low', u'high']","blue",50,"middle","low","False","False",420,4350,NA
"A2WNCIZ47VXDIC","Mon Nov 02 2020 18:57:30 GMT+0300 (East Africa Time)","Mon Nov 02 2020 20:33:28 GMT+0300 (East Africa Time)","Mozilla/5.0 (Windows NT 10.0; Win64; x64) AppleWebKit/537.36 (KHTML, like Gecko) Chrome/86.0.4240.111 Safari/537.36",160,"[0.9, 0.5, 0.1]","[0.8, 0.4, 0.2]","[u'black', u'blue', u'red']","[u'left', u'middle', u'right']","[0.8, 0.4, 0.2]","[u'medium', u'low', u'high']","red",51,"right","high","True","False",477,4450,NA
