"src_subject_id","start_time","end_time","browser","index","first_half_probabilities","second_half_probabilities","deck_color","deck_position","deck_probabilities","deck_contingencies","response_color","key_press","response_position","response_probability","reward_type","trial_type","rt","reward_tally","exclusion_reason"
"A3HE29W5IDR394","Mon Nov 02 2020 13:08:37 GMT-0500 (Eastern Standard Time)","Mon Nov 02 2020 14:58:28 GMT-0500 (Eastern Standard Time)","Mozilla/5.0 (X11; Fedora; Linux x86_64) AppleWebKit/537.36 (KHTML, like Gecko) Chrome/86.0.4240.111 Safari/537.36",1,"[0.9, 0.5, 0.1]","[0.8, 0.4, 0.2]","[u'blue', u'black', u'red']","[u'left', u'middle', u'right']","[0.9, 0.5, 0.1]","[u'high', u'medium', u'low']","blue",49,"left","high","True","False",372,100,NA
"A3HE29W5IDR394","Mon Nov 02 2020 13:08:37 GMT-0500 (Eastern Standard Time)","Mon Nov 02 2020 14:58:28 GMT-0500 (Eastern Standard Time)","Mozilla/5.0 (X11; Fedora; Linux x86_64) AppleWebKit/537.36 (KHTML, like Gecko) Chrome/86.0.4240.111 Safari/537.36",2,"[0.9, 0.5, 0.1]","[0.8, 0.4, 0.2]","[u'blue', u'black', u'red']","[u'left', u'middle', u'right']","[0.9, 0.5, 0.1]","[u'high', u'medium', u'low']","blue",49,"left","high","True","False",378,200,NA
"A3HE29W5IDR394","Mon Nov 02 2020 13:08:37 GMT-0500 (Eastern Standard Time)","Mon Nov 02 2020 14:58:28 GMT-0500 (Eastern Standard Time)","Mozilla/5.0 (X11; Fedora; Linux x86_64) AppleWebKit/537.36 (KHTML, like Gecko) Chrome/86.0.4240.111 Safari/537.36",3,"[0.9, 0.5, 0.1]","[0.8, 0.4, 0.2]","[u'blue', u'black', u'red']","[u'left', u'middle', u'right']","[0.9, 0.5, 0.1]","[u'high', u'medium', u'low']","blue",49,"left","high","True","False",328,300,NA
"A3HE29W5IDR394","Mon Nov 02 2020 13:08:37 GMT-0500 (Eastern Standard Time)","Mon Nov 02 2020 14:58:28 GMT-0500 (Eastern Standard Time)","Mozilla/5.0 (X11; Fedora; Linux x86_64) AppleWebKit/537.36 (KHTML, like Gecko) Chrome/86.0.4240.111 Safari/537.36",4,"[0.9, 0.5, 0.1]","[0.8, 0.4, 0.2]","[u'blue', u'black', u'red']","[u'left', u'middle', u'right']","[0.9, 0.5, 0.1]","[u'high', u'medium', u'low']","blue",49,"left","high","True","False",250,400,NA
"A3HE29W5IDR394","Mon Nov 02 2020 13:08:37 GMT-0500 (Eastern Standard Time)","Mon Nov 02 2020 14:58:28 GMT-0500 (Eastern Standard Time)","Mozilla/5.0 (X11; Fedora; Linux x86_64) AppleWebKit/537.36 (KHTML, like Gecko) Chrome/86.0.4240.111 Safari/537.36",5,"[0.9, 0.5, 0.1]","[0.8, 0.4, 0.2]","[u'blue', u'black', u'red']","[u'left', u'middle', u'right']","[0.9, 0.5, 0.1]","[u'high', u'medium', u'low']","blue",49,"left","high","False","False",276,350,NA
"A3HE29W5IDR394","Mon Nov 02 2020 13:08:37 GMT-0500 (Eastern Standard Time)","Mon Nov 02 2020 14:58:28 GMT-0500 (Eastern Standard Time)","Mozilla/5.0 (X11; Fedora; Linux x86_64) AppleWebKit/537.36 (KHTML, like Gecko) Chrome/86.0.4240.111 Safari/537.36",6,"[0.9, 0.5, 0.1]","[0.8, 0.4, 0.2]","[u'blue', u'black', u'red']","[u'left', u'middle', u'right']","[0.9, 0.5, 0.1]","[u'high', u'medium', u'low']","blue",49,"left","high","True","False",325,450,NA
"A3HE29W5IDR394","Mon Nov 02 2020 13:08:37 GMT-0500 (Eastern Standard Time)","Mon Nov 02 2020 14:58:28 GMT-0500 (Eastern Standard Time)","Mozilla/5.0 (X11; Fedora; Linux x86_64) AppleWebKit/537.36 (KHTML, like Gecko) Chrome/86.0.4240.111 Safari/537.36",7,"[0.9, 0.5, 0.1]","[0.8, 0.4, 0.2]","[u'blue', u'black', u'red']","[u'left', u'middle', u'right']","[0.9, 0.5, 0.1]","[u'high', u'medium', u'low']","blue",49,"left","high","True","False",284,550,NA
"A3HE29W5IDR394","Mon Nov 02 2020 13:08:37 GMT-0500 (Eastern Standard Time)","Mon Nov 02 2020 14:58:28 GMT-0500 (Eastern Standard Time)","Mozilla/5.0 (X11; Fedora; Linux x86_64) AppleWebKit/537.36 (KHTML, like Gecko) Chrome/86.0.4240.111 Safari/537.36",8,"[0.9, 0.5, 0.1]","[0.8, 0.4, 0.2]","[u'blue', u'black', u'red']","[u'left', u'middle', u'right']","[0.9, 0.5, 0.1]","[u'high', u'medium', u'low']","blue",49,"left","high","True","False",271,650,NA
"A3HE29W5IDR394","Mon Nov 02 2020 13:08:37 GMT-0500 (Eastern Standard Time)","Mon Nov 02 2020 14:58:28 GMT-0500 (Eastern Standard Time)","Mozilla/5.0 (X11; Fedora; Linux x86_64) AppleWebKit/537.36 (KHTML, like Gecko) Chrome/86.0.4240.111 Safari/537.36",9,"[0.9, 0.5, 0.1]","[0.8, 0.4, 0.2]","[u'blue', u'black', u'red']","[u'left', u'middle', u'right']","[0.9, 0.5, 0.1]","[u'high', u'medium', u'low']","blue",49,"left","high","True","True",229,750,NA
"A3HE29W5IDR394","Mon Nov 02 2020 13:08:37 GMT-0500 (Eastern Standard Time)","Mon Nov 02 2020 14:58:28 GMT-0500 (Eastern Standard Time)","Mozilla/5.0 (X11; Fedora; Linux x86_64) AppleWebKit/537.36 (KHTML, like Gecko) Chrome/86.0.4240.111 Safari/537.36",10,"[0.9, 0.5, 0.1]","[0.8, 0.4, 0.2]","[u'blue', u'black', u'red']","[u'left', u'middle', u'right']","[0.9, 0.5, 0.1]","[u'low', u'high', u'medium']","blue",49,"left","low","False","False",245,700,NA
"A3HE29W5IDR394","Mon Nov 02 2020 13:08:37 GMT-0500 (Eastern Standard Time)","Mon Nov 02 2020 14:58:28 GMT-0500 (Eastern Standard Time)","Mozilla/5.0 (X11; Fedora; Linux x86_64) AppleWebKit/537.36 (KHTML, like Gecko) Chrome/86.0.4240.111 Safari/537.36",11,"[0.9, 0.5, 0.1]","[0.8, 0.4, 0.2]","[u'blue', u'black', u'red']","[u'left', u'middle', u'right']","[0.9, 0.5, 0.1]","[u'low', u'high', u'medium']","blue",49,"left","low","False","False",196,650,NA
"A3HE29W5IDR394","Mon Nov 02 2020 13:08:37 GMT-0500 (Eastern Standard Time)","Mon Nov 02 2020 14:58:28 GMT-0500 (Eastern Standard Time)","Mozilla/5.0 (X11; Fedora; Linux x86_64) AppleWebKit/537.36 (KHTML, like Gecko) Chrome/86.0.4240.111 Safari/537.36",12,"[0.9, 0.5, 0.1]","[0.8, 0.4, 0.2]","[u'blue', u'black', u'red']","[u'left', u'middle', u'right']","[0.9, 0.5, 0.1]","[u'low', u'high', u'medium']","blue",49,"left","low","False","False",337,600,NA
"A3HE29W5IDR394","Mon Nov 02 2020 13:08:37 GMT-0500 (Eastern Standard Time)","Mon Nov 02 2020 14:58:28 GMT-0500 (Eastern Standard Time)","Mozilla/5.0 (X11; Fedora; Linux x86_64) AppleWebKit/537.36 (KHTML, like Gecko) Chrome/86.0.4240.111 Safari/537.36",13,"[0.9, 0.5, 0.1]","[0.8, 0.4, 0.2]","[u'blue', u'black', u'red']","[u'left', u'middle', u'right']","[0.9, 0.5, 0.1]","[u'low', u'high', u'medium']","black",50,"middle","high","True","False",157,700,NA
"A3HE29W5IDR394","Mon Nov 02 2020 13:08:37 GMT-0500 (Eastern Standard Time)","Mon Nov 02 2020 14:58:28 GMT-0500 (Eastern Standard Time)","Mozilla/5.0 (X11; Fedora; Linux x86_64) AppleWebKit/537.36 (KHTML, like Gecko) Chrome/86.0.4240.111 Safari/537.36",14,"[0.9, 0.5, 0.1]","[0.8, 0.4, 0.2]","[u'blue', u'black', u'red']","[u'left', u'middle', u'right']","[0.9, 0.5, 0.1]","[u'low', u'high', u'medium']","black",50,"middle","high","True","False",300,800,NA
"A3HE29W5IDR394","Mon Nov 02 2020 13:08:37 GMT-0500 (Eastern Standard Time)","Mon Nov 02 2020 14:58:28 GMT-0500 (Eastern Standard Time)","Mozilla/5.0 (X11; Fedora; Linux x86_64) AppleWebKit/537.36 (KHTML, like Gecko) Chrome/86.0.4240.111 Safari/537.36",15,"[0.9, 0.5, 0.1]","[0.8, 0.4, 0.2]","[u'blue', u'black', u'red']","[u'left', u'middle', u'right']","[0.9, 0.5, 0.1]","[u'low', u'high', u'medium']","black",50,"middle","high","True","False",224,900,NA
"A3HE29W5IDR394","Mon Nov 02 2020 13:08:37 GMT-0500 (Eastern Standard Time)","Mon Nov 02 2020 14:58:28 GMT-0500 (Eastern Standard Time)","Mozilla/5.0 (X11; Fedora; Linux x86_64) AppleWebKit/537.36 (KHTML, like Gecko) Chrome/86.0.4240.111 Safari/537.36",16,"[0.9, 0.5, 0.1]","[0.8, 0.4, 0.2]","[u'blue', u'black', u'red']","[u'left', u'middle', u'right']","[0.9, 0.5, 0.1]","[u'low', u'high', u'medium']","black",50,"middle","high","True","False",220,1000,NA
"A3HE29W5IDR394","Mon Nov 02 2020 13:08:37 GMT-0500 (Eastern Standard Time)","Mon Nov 02 2020 14:58:28 GMT-0500 (Eastern Standard Time)","Mozilla/5.0 (X11; Fedora; Linux x86_64) AppleWebKit/537.36 (KHTML, like Gecko) Chrome/86.0.4240.111 Safari/537.36",17,"[0.9, 0.5, 0.1]","[0.8, 0.4, 0.2]","[u'blue', u'black', u'red']","[u'left', u'middle', u'right']","[0.9, 0.5, 0.1]","[u'low', u'high', u'medium']","black",50,"middle","high","True","False",221,1100,NA
"A3HE29W5IDR394","Mon Nov 02 2020 13:08:37 GMT-0500 (Eastern Standard Time)","Mon Nov 02 2020 14:58:28 GMT-0500 (Eastern Standard Time)","Mozilla/5.0 (X11; Fedora; Linux x86_64) AppleWebKit/537.36 (KHTML, like Gecko) Chrome/86.0.4240.111 Safari/537.36",18,"[0.9, 0.5, 0.1]","[0.8, 0.4, 0.2]","[u'blue', u'black', u'red']","[u'left', u'middle', u'right']","[0.9, 0.5, 0.1]","[u'low', u'high', u'medium']","black",50,"middle","high","True","False",215,1200,NA
"A3HE29W5IDR394","Mon Nov 02 2020 13:08:37 GMT-0500 (Eastern Standard Time)","Mon Nov 02 2020 14:58:28 GMT-0500 (Eastern Standard Time)","Mozilla/5.0 (X11; Fedora; Linux x86_64) AppleWebKit/537.36 (KHTML, like Gecko) Chrome/86.0.4240.111 Safari/537.36",19,"[0.9, 0.5, 0.1]","[0.8, 0.4, 0.2]","[u'blue', u'black', u'red']","[u'left', u'middle', u'right']","[0.9, 0.5, 0.1]","[u'low', u'high', u'medium']","black",50,"middle","high","True","False",189,1300,NA
"A3HE29W5IDR394","Mon Nov 02 2020 13:08:37 GMT-0500 (Eastern Standard Time)","Mon Nov 02 2020 14:58:28 GMT-0500 (Eastern Standard Time)","Mozilla/5.0 (X11; Fedora; Linux x86_64) AppleWebKit/537.36 (KHTML, like Gecko) Chrome/86.0.4240.111 Safari/537.36",20,"[0.9, 0.5, 0.1]","[0.8, 0.4, 0.2]","[u'blue', u'black', u'red']","[u'left', u'middle', u'right']","[0.9, 0.5, 0.1]","[u'low', u'high', u'medium']","black",50,"middle","high","True","False",174,1400,NA
"A3HE29W5IDR394","Mon Nov 02 2020 13:08:37 GMT-0500 (Eastern Standard Time)","Mon Nov 02 2020 14:58:28 GMT-0500 (Eastern Standard Time)","Mozilla/5.0 (X11; Fedora; Linux x86_64) AppleWebKit/537.36 (KHTML, like Gecko) Chrome/86.0.4240.111 Safari/537.36",21,"[0.9, 0.5, 0.1]","[0.8, 0.4, 0.2]","[u'blue', u'black', u'red']","[u'left', u'middle', u'right']","[0.9, 0.5, 0.1]","[u'low', u'high', u'medium']","black",50,"middle","high","True","True",214,1500,NA
"A3HE29W5IDR394","Mon Nov 02 2020 13:08:37 GMT-0500 (Eastern Standard Time)","Mon Nov 02 2020 14:58:28 GMT-0500 (Eastern Standard Time)","Mozilla/5.0 (X11; Fedora; Linux x86_64) AppleWebKit/537.36 (KHTML, like Gecko) Chrome/86.0.4240.111 Safari/537.36",22,"[0.9, 0.5, 0.1]","[0.8, 0.4, 0.2]","[u'blue', u'black', u'red']","[u'left', u'middle', u'right']","[0.9, 0.5, 0.1]","[u'high', u'low', u'medium']","black",50,"middle","low","False","False",118,1450,NA
"A3HE29W5IDR394","Mon Nov 02 2020 13:08:37 GMT-0500 (Eastern Standard Time)","Mon Nov 02 2020 14:58:28 GMT-0500 (Eastern Standard Time)","Mozilla/5.0 (X11; Fedora; Linux x86_64) AppleWebKit/537.36 (KHTML, like Gecko) Chrome/86.0.4240.111 Safari/537.36",23,"[0.9, 0.5, 0.1]","[0.8, 0.4, 0.2]","[u'blue', u'black', u'red']","[u'left', u'middle', u'right']","[0.9, 0.5, 0.1]","[u'high', u'low', u'medium']","black",50,"middle","low","False","False",331,1400,NA
"A3HE29W5IDR394","Mon Nov 02 2020 13:08:37 GMT-0500 (Eastern Standard Time)","Mon Nov 02 2020 14:58:28 GMT-0500 (Eastern Standard Time)","Mozilla/5.0 (X11; Fedora; Linux x86_64) AppleWebKit/537.36 (KHTML, like Gecko) Chrome/86.0.4240.111 Safari/537.36",24,"[0.9, 0.5, 0.1]","[0.8, 0.4, 0.2]","[u'blue', u'black', u'red']","[u'left', u'middle', u'right']","[0.9, 0.5, 0.1]","[u'high', u'low', u'medium']","black",50,"middle","low","False","False",192,1350,NA
"A3HE29W5IDR394","Mon Nov 02 2020 13:08:37 GMT-0500 (Eastern Standard Time)","Mon Nov 02 2020 14:58:28 GMT-0500 (Eastern Standard Time)","Mozilla/5.0 (X11; Fedora; Linux x86_64) AppleWebKit/537.36 (KHTML, like Gecko) Chrome/86.0.4240.111 Safari/537.36",25,"[0.9, 0.5, 0.1]","[0.8, 0.4, 0.2]","[u'blue', u'black', u'red']","[u'left', u'middle', u'right']","[0.9, 0.5, 0.1]","[u'high', u'low', u'medium']","red",51,"right","medium","False","False",24,1300,NA
"A3HE29W5IDR394","Mon Nov 02 2020 13:08:37 GMT-0500 (Eastern Standard Time)","Mon Nov 02 2020 14:58:28 GMT-0500 (Eastern Standard Time)","Mozilla/5.0 (X11; Fedora; Linux x86_64) AppleWebKit/537.36 (KHTML, like Gecko) Chrome/86.0.4240.111 Safari/537.36",26,"[0.9, 0.5, 0.1]","[0.8, 0.4, 0.2]","[u'blue', u'black', u'red']","[u'left', u'middle', u'right']","[0.9, 0.5, 0.1]","[u'high', u'low', u'medium']","red",51,"right","medium","False","False",217,1250,NA
"A3HE29W5IDR394","Mon Nov 02 2020 13:08:37 GMT-0500 (Eastern Standard Time)","Mon Nov 02 2020 14:58:28 GMT-0500 (Eastern Standard Time)","Mozilla/5.0 (X11; Fedora; Linux x86_64) AppleWebKit/537.36 (KHTML, like Gecko) Chrome/86.0.4240.111 Safari/537.36",27,"[0.9, 0.5, 0.1]","[0.8, 0.4, 0.2]","[u'blue', u'black', u'red']","[u'left', u'middle', u'right']","[0.9, 0.5, 0.1]","[u'high', u'low', u'medium']","blue",49,"left","high","True","False",155,1350,NA
"A3HE29W5IDR394","Mon Nov 02 2020 13:08:37 GMT-0500 (Eastern Standard Time)","Mon Nov 02 2020 14:58:28 GMT-0500 (Eastern Standard Time)","Mozilla/5.0 (X11; Fedora; Linux x86_64) AppleWebKit/537.36 (KHTML, like Gecko) Chrome/86.0.4240.111 Safari/537.36",28,"[0.9, 0.5, 0.1]","[0.8, 0.4, 0.2]","[u'blue', u'black', u'red']","[u'left', u'middle', u'right']","[0.9, 0.5, 0.1]","[u'high', u'low', u'medium']","blue",49,"left","high","True","False",323,1450,NA
"A3HE29W5IDR394","Mon Nov 02 2020 13:08:37 GMT-0500 (Eastern Standard Time)","Mon Nov 02 2020 14:58:28 GMT-0500 (Eastern Standard Time)","Mozilla/5.0 (X11; Fedora; Linux x86_64) AppleWebKit/537.36 (KHTML, like Gecko) Chrome/86.0.4240.111 Safari/537.36",29,"[0.9, 0.5, 0.1]","[0.8, 0.4, 0.2]","[u'blue', u'black', u'red']","[u'left', u'middle', u'right']","[0.9, 0.5, 0.1]","[u'high', u'low', u'medium']","blue",49,"left","high","True","False",205,1550,NA
"A3HE29W5IDR394","Mon Nov 02 2020 13:08:37 GMT-0500 (Eastern Standard Time)","Mon Nov 02 2020 14:58:28 GMT-0500 (Eastern Standard Time)","Mozilla/5.0 (X11; Fedora; Linux x86_64) AppleWebKit/537.36 (KHTML, like Gecko) Chrome/86.0.4240.111 Safari/537.36",30,"[0.9, 0.5, 0.1]","[0.8, 0.4, 0.2]","[u'blue', u'black', u'red']","[u'left', u'middle', u'right']","[0.9, 0.5, 0.1]","[u'high', u'low', u'medium']","blue",49,"left","high","True","False",263,1650,NA
"A3HE29W5IDR394","Mon Nov 02 2020 13:08:37 GMT-0500 (Eastern Standard Time)","Mon Nov 02 2020 14:58:28 GMT-0500 (Eastern Standard Time)","Mozilla/5.0 (X11; Fedora; Linux x86_64) AppleWebKit/537.36 (KHTML, like Gecko) Chrome/86.0.4240.111 Safari/537.36",31,"[0.9, 0.5, 0.1]","[0.8, 0.4, 0.2]","[u'blue', u'black', u'red']","[u'left', u'middle', u'right']","[0.9, 0.5, 0.1]","[u'high', u'low', u'medium']","blue",49,"left","high","True","False",220,1750,NA
"A3HE29W5IDR394","Mon Nov 02 2020 13:08:37 GMT-0500 (Eastern Standard Time)","Mon Nov 02 2020 14:58:28 GMT-0500 (Eastern Standard Time)","Mozilla/5.0 (X11; Fedora; Linux x86_64) AppleWebKit/537.36 (KHTML, like Gecko) Chrome/86.0.4240.111 Safari/537.36",32,"[0.9, 0.5, 0.1]","[0.8, 0.4, 0.2]","[u'blue', u'black', u'red']","[u'left', u'middle', u'right']","[0.9, 0.5, 0.1]","[u'high', u'low', u'medium']","blue",49,"left","high","True","False",187,1850,NA
"A3HE29W5IDR394","Mon Nov 02 2020 13:08:37 GMT-0500 (Eastern Standard Time)","Mon Nov 02 2020 14:58:28 GMT-0500 (Eastern Standard Time)","Mozilla/5.0 (X11; Fedora; Linux x86_64) AppleWebKit/537.36 (KHTML, like Gecko) Chrome/86.0.4240.111 Safari/537.36",33,"[0.9, 0.5, 0.1]","[0.8, 0.4, 0.2]","[u'blue', u'black', u'red']","[u'left', u'middle', u'right']","[0.9, 0.5, 0.1]","[u'high', u'low', u'medium']","blue",49,"left","high","False","False",254,1800,NA
"A3HE29W5IDR394","Mon Nov 02 2020 13:08:37 GMT-0500 (Eastern Standard Time)","Mon Nov 02 2020 14:58:28 GMT-0500 (Eastern Standard Time)","Mozilla/5.0 (X11; Fedora; Linux x86_64) AppleWebKit/537.36 (KHTML, like Gecko) Chrome/86.0.4240.111 Safari/537.36",34,"[0.9, 0.5, 0.1]","[0.8, 0.4, 0.2]","[u'blue', u'black', u'red']","[u'left', u'middle', u'right']","[0.9, 0.5, 0.1]","[u'high', u'low', u'medium']","blue",49,"left","high","True","False",56,1900,NA
"A3HE29W5IDR394","Mon Nov 02 2020 13:08:37 GMT-0500 (Eastern Standard Time)","Mon Nov 02 2020 14:58:28 GMT-0500 (Eastern Standard Time)","Mozilla/5.0 (X11; Fedora; Linux x86_64) AppleWebKit/537.36 (KHTML, like Gecko) Chrome/86.0.4240.111 Safari/537.36",35,"[0.9, 0.5, 0.1]","[0.8, 0.4, 0.2]","[u'blue', u'black', u'red']","[u'left', u'middle', u'right']","[0.9, 0.5, 0.1]","[u'high', u'low', u'medium']","blue",49,"left","high","True","True",232,2000,NA
"A3HE29W5IDR394","Mon Nov 02 2020 13:08:37 GMT-0500 (Eastern Standard Time)","Mon Nov 02 2020 14:58:28 GMT-0500 (Eastern Standard Time)","Mozilla/5.0 (X11; Fedora; Linux x86_64) AppleWebKit/537.36 (KHTML, like Gecko) Chrome/86.0.4240.111 Safari/537.36",36,"[0.9, 0.5, 0.1]","[0.8, 0.4, 0.2]","[u'blue', u'black', u'red']","[u'left', u'middle', u'right']","[0.9, 0.5, 0.1]","[u'low', u'high', u'medium']","blue",49,"left","low","True","False",283,2100,NA
"A3HE29W5IDR394","Mon Nov 02 2020 13:08:37 GMT-0500 (Eastern Standard Time)","Mon Nov 02 2020 14:58:28 GMT-0500 (Eastern Standard Time)","Mozilla/5.0 (X11; Fedora; Linux x86_64) AppleWebKit/537.36 (KHTML, like Gecko) Chrome/86.0.4240.111 Safari/537.36",37,"[0.9, 0.5, 0.1]","[0.8, 0.4, 0.2]","[u'blue', u'black', u'red']","[u'left', u'middle', u'right']","[0.9, 0.5, 0.1]","[u'low', u'high', u'medium']","blue",49,"left","low","False","False",244,2050,NA
"A3HE29W5IDR394","Mon Nov 02 2020 13:08:37 GMT-0500 (Eastern Standard Time)","Mon Nov 02 2020 14:58:28 GMT-0500 (Eastern Standard Time)","Mozilla/5.0 (X11; Fedora; Linux x86_64) AppleWebKit/537.36 (KHTML, like Gecko) Chrome/86.0.4240.111 Safari/537.36",38,"[0.9, 0.5, 0.1]","[0.8, 0.4, 0.2]","[u'blue', u'black', u'red']","[u'left', u'middle', u'right']","[0.9, 0.5, 0.1]","[u'low', u'high', u'medium']","blue",49,"left","low","False","False",206,2000,NA
"A3HE29W5IDR394","Mon Nov 02 2020 13:08:37 GMT-0500 (Eastern Standard Time)","Mon Nov 02 2020 14:58:28 GMT-0500 (Eastern Standard Time)","Mozilla/5.0 (X11; Fedora; Linux x86_64) AppleWebKit/537.36 (KHTML, like Gecko) Chrome/86.0.4240.111 Safari/537.36",39,"[0.9, 0.5, 0.1]","[0.8, 0.4, 0.2]","[u'blue', u'black', u'red']","[u'left', u'middle', u'right']","[0.9, 0.5, 0.1]","[u'low', u'high', u'medium']","black",50,"middle","high","True","False",224,2100,NA
"A3HE29W5IDR394","Mon Nov 02 2020 13:08:37 GMT-0500 (Eastern Standard Time)","Mon Nov 02 2020 14:58:28 GMT-0500 (Eastern Standard Time)","Mozilla/5.0 (X11; Fedora; Linux x86_64) AppleWebKit/537.36 (KHTML, like Gecko) Chrome/86.0.4240.111 Safari/537.36",40,"[0.9, 0.5, 0.1]","[0.8, 0.4, 0.2]","[u'blue', u'black', u'red']","[u'left', u'middle', u'right']","[0.9, 0.5, 0.1]","[u'low', u'high', u'medium']","black",50,"middle","high","True","False",329,2200,NA
"A3HE29W5IDR394","Mon Nov 02 2020 13:08:37 GMT-0500 (Eastern Standard Time)","Mon Nov 02 2020 14:58:28 GMT-0500 (Eastern Standard Time)","Mozilla/5.0 (X11; Fedora; Linux x86_64) AppleWebKit/537.36 (KHTML, like Gecko) Chrome/86.0.4240.111 Safari/537.36",41,"[0.9, 0.5, 0.1]","[0.8, 0.4, 0.2]","[u'blue', u'black', u'red']","[u'left', u'middle', u'right']","[0.9, 0.5, 0.1]","[u'high', u'medium', u'low']","black",50,"middle","medium","False","False",530,2150,NA
"A3HE29W5IDR394","Mon Nov 02 2020 13:08:37 GMT-0500 (Eastern Standard Time)","Mon Nov 02 2020 14:58:28 GMT-0500 (Eastern Standard Time)","Mozilla/5.0 (X11; Fedora; Linux x86_64) AppleWebKit/537.36 (KHTML, like Gecko) Chrome/86.0.4240.111 Safari/537.36",42,"[0.9, 0.5, 0.1]","[0.8, 0.4, 0.2]","[u'blue', u'black', u'red']","[u'left', u'middle', u'right']","[0.9, 0.5, 0.1]","[u'high', u'medium', u'low']","black",50,"middle","medium","False","False",383,2100,NA
"A3HE29W5IDR394","Mon Nov 02 2020 13:08:37 GMT-0500 (Eastern Standard Time)","Mon Nov 02 2020 14:58:28 GMT-0500 (Eastern Standard Time)","Mozilla/5.0 (X11; Fedora; Linux x86_64) AppleWebKit/537.36 (KHTML, like Gecko) Chrome/86.0.4240.111 Safari/537.36",43,"[0.9, 0.5, 0.1]","[0.8, 0.4, 0.2]","[u'blue', u'black', u'red']","[u'left', u'middle', u'right']","[0.9, 0.5, 0.1]","[u'high', u'medium', u'low']","blue",49,"left","high","True","False",207,2200,NA
"A3HE29W5IDR394","Mon Nov 02 2020 13:08:37 GMT-0500 (Eastern Standard Time)","Mon Nov 02 2020 14:58:28 GMT-0500 (Eastern Standard Time)","Mozilla/5.0 (X11; Fedora; Linux x86_64) AppleWebKit/537.36 (KHTML, like Gecko) Chrome/86.0.4240.111 Safari/537.36",44,"[0.9, 0.5, 0.1]","[0.8, 0.4, 0.2]","[u'blue', u'black', u'red']","[u'left', u'middle', u'right']","[0.9, 0.5, 0.1]","[u'high', u'medium', u'low']","blue",49,"left","high","True","False",271,2300,NA
"A3HE29W5IDR394","Mon Nov 02 2020 13:08:37 GMT-0500 (Eastern Standard Time)","Mon Nov 02 2020 14:58:28 GMT-0500 (Eastern Standard Time)","Mozilla/5.0 (X11; Fedora; Linux x86_64) AppleWebKit/537.36 (KHTML, like Gecko) Chrome/86.0.4240.111 Safari/537.36",45,"[0.9, 0.5, 0.1]","[0.8, 0.4, 0.2]","[u'blue', u'black', u'red']","[u'left', u'middle', u'right']","[0.9, 0.5, 0.1]","[u'high', u'medium', u'low']","blue",49,"left","high","True","False",392,2400,NA
"A3HE29W5IDR394","Mon Nov 02 2020 13:08:37 GMT-0500 (Eastern Standard Time)","Mon Nov 02 2020 14:58:28 GMT-0500 (Eastern Standard Time)","Mozilla/5.0 (X11; Fedora; Linux x86_64) AppleWebKit/537.36 (KHTML, like Gecko) Chrome/86.0.4240.111 Safari/537.36",46,"[0.9, 0.5, 0.1]","[0.8, 0.4, 0.2]","[u'blue', u'black', u'red']","[u'left', u'middle', u'right']","[0.9, 0.5, 0.1]","[u'high', u'medium', u'low']","blue",49,"left","high","True","False",302,2500,NA
"A3HE29W5IDR394","Mon Nov 02 2020 13:08:37 GMT-0500 (Eastern Standard Time)","Mon Nov 02 2020 14:58:28 GMT-0500 (Eastern Standard Time)","Mozilla/5.0 (X11; Fedora; Linux x86_64) AppleWebKit/537.36 (KHTML, like Gecko) Chrome/86.0.4240.111 Safari/537.36",47,"[0.9, 0.5, 0.1]","[0.8, 0.4, 0.2]","[u'blue', u'black', u'red']","[u'left', u'middle', u'right']","[0.9, 0.5, 0.1]","[u'high', u'medium', u'low']","blue",49,"left","high","True","False",225,2600,NA
"A3HE29W5IDR394","Mon Nov 02 2020 13:08:37 GMT-0500 (Eastern Standard Time)","Mon Nov 02 2020 14:58:28 GMT-0500 (Eastern Standard Time)","Mozilla/5.0 (X11; Fedora; Linux x86_64) AppleWebKit/537.36 (KHTML, like Gecko) Chrome/86.0.4240.111 Safari/537.36",48,"[0.9, 0.5, 0.1]","[0.8, 0.4, 0.2]","[u'blue', u'black', u'red']","[u'left', u'middle', u'right']","[0.9, 0.5, 0.1]","[u'high', u'medium', u'low']","blue",49,"left","high","True","False",238,2700,NA
"A3HE29W5IDR394","Mon Nov 02 2020 13:08:37 GMT-0500 (Eastern Standard Time)","Mon Nov 02 2020 14:58:28 GMT-0500 (Eastern Standard Time)","Mozilla/5.0 (X11; Fedora; Linux x86_64) AppleWebKit/537.36 (KHTML, like Gecko) Chrome/86.0.4240.111 Safari/537.36",49,"[0.9, 0.5, 0.1]","[0.8, 0.4, 0.2]","[u'blue', u'black', u'red']","[u'left', u'middle', u'right']","[0.9, 0.5, 0.1]","[u'high', u'medium', u'low']","blue",49,"left","high","True","False",264,2800,NA
"A3HE29W5IDR394","Mon Nov 02 2020 13:08:37 GMT-0500 (Eastern Standard Time)","Mon Nov 02 2020 14:58:28 GMT-0500 (Eastern Standard Time)","Mozilla/5.0 (X11; Fedora; Linux x86_64) AppleWebKit/537.36 (KHTML, like Gecko) Chrome/86.0.4240.111 Safari/537.36",50,"[0.9, 0.5, 0.1]","[0.8, 0.4, 0.2]","[u'blue', u'black', u'red']","[u'left', u'middle', u'right']","[0.9, 0.5, 0.1]","[u'high', u'medium', u'low']","blue",49,"left","high","True","False",277,2900,NA
"A3HE29W5IDR394","Mon Nov 02 2020 13:08:37 GMT-0500 (Eastern Standard Time)","Mon Nov 02 2020 14:58:28 GMT-0500 (Eastern Standard Time)","Mozilla/5.0 (X11; Fedora; Linux x86_64) AppleWebKit/537.36 (KHTML, like Gecko) Chrome/86.0.4240.111 Safari/537.36",51,"[0.9, 0.5, 0.1]","[0.8, 0.4, 0.2]","[u'blue', u'black', u'red']","[u'left', u'middle', u'right']","[0.9, 0.5, 0.1]","[u'high', u'medium', u'low']","blue",49,"left","high","True","True",284,3000,NA
"A3HE29W5IDR394","Mon Nov 02 2020 13:08:37 GMT-0500 (Eastern Standard Time)","Mon Nov 02 2020 14:58:28 GMT-0500 (Eastern Standard Time)","Mozilla/5.0 (X11; Fedora; Linux x86_64) AppleWebKit/537.36 (KHTML, like Gecko) Chrome/86.0.4240.111 Safari/537.36",52,"[0.9, 0.5, 0.1]","[0.8, 0.4, 0.2]","[u'blue', u'black', u'red']","[u'left', u'middle', u'right']","[0.9, 0.5, 0.1]","[u'medium', u'low', u'high']","blue",49,"left","medium","False","False",363,2950,NA
"A3HE29W5IDR394","Mon Nov 02 2020 13:08:37 GMT-0500 (Eastern Standard Time)","Mon Nov 02 2020 14:58:28 GMT-0500 (Eastern Standard Time)","Mozilla/5.0 (X11; Fedora; Linux x86_64) AppleWebKit/537.36 (KHTML, like Gecko) Chrome/86.0.4240.111 Safari/537.36",53,"[0.9, 0.5, 0.1]","[0.8, 0.4, 0.2]","[u'blue', u'black', u'red']","[u'left', u'middle', u'right']","[0.9, 0.5, 0.1]","[u'medium', u'low', u'high']","blue",49,"left","medium","False","False",151,2900,NA
"A3HE29W5IDR394","Mon Nov 02 2020 13:08:37 GMT-0500 (Eastern Standard Time)","Mon Nov 02 2020 14:58:28 GMT-0500 (Eastern Standard Time)","Mozilla/5.0 (X11; Fedora; Linux x86_64) AppleWebKit/537.36 (KHTML, like Gecko) Chrome/86.0.4240.111 Safari/537.36",54,"[0.9, 0.5, 0.1]","[0.8, 0.4, 0.2]","[u'blue', u'black', u'red']","[u'left', u'middle', u'right']","[0.9, 0.5, 0.1]","[u'medium', u'low', u'high']","black",50,"middle","low","False","False",231,2850,NA
"A3HE29W5IDR394","Mon Nov 02 2020 13:08:37 GMT-0500 (Eastern Standard Time)","Mon Nov 02 2020 14:58:28 GMT-0500 (Eastern Standard Time)","Mozilla/5.0 (X11; Fedora; Linux x86_64) AppleWebKit/537.36 (KHTML, like Gecko) Chrome/86.0.4240.111 Safari/537.36",55,"[0.9, 0.5, 0.1]","[0.8, 0.4, 0.2]","[u'blue', u'black', u'red']","[u'left', u'middle', u'right']","[0.9, 0.5, 0.1]","[u'medium', u'low', u'high']","red",51,"right","high","True","False",62,2950,NA
"A3HE29W5IDR394","Mon Nov 02 2020 13:08:37 GMT-0500 (Eastern Standard Time)","Mon Nov 02 2020 14:58:28 GMT-0500 (Eastern Standard Time)","Mozilla/5.0 (X11; Fedora; Linux x86_64) AppleWebKit/537.36 (KHTML, like Gecko) Chrome/86.0.4240.111 Safari/537.36",56,"[0.9, 0.5, 0.1]","[0.8, 0.4, 0.2]","[u'blue', u'black', u'red']","[u'left', u'middle', u'right']","[0.9, 0.5, 0.1]","[u'medium', u'low', u'high']","red",51,"right","high","True","False",228,3050,NA
"A3HE29W5IDR394","Mon Nov 02 2020 13:08:37 GMT-0500 (Eastern Standard Time)","Mon Nov 02 2020 14:58:28 GMT-0500 (Eastern Standard Time)","Mozilla/5.0 (X11; Fedora; Linux x86_64) AppleWebKit/537.36 (KHTML, like Gecko) Chrome/86.0.4240.111 Safari/537.36",57,"[0.9, 0.5, 0.1]","[0.8, 0.4, 0.2]","[u'blue', u'black', u'red']","[u'left', u'middle', u'right']","[0.9, 0.5, 0.1]","[u'medium', u'low', u'high']","red",51,"right","high","True","False",295,3150,NA
"A3HE29W5IDR394","Mon Nov 02 2020 13:08:37 GMT-0500 (Eastern Standard Time)","Mon Nov 02 2020 14:58:28 GMT-0500 (Eastern Standard Time)","Mozilla/5.0 (X11; Fedora; Linux x86_64) AppleWebKit/537.36 (KHTML, like Gecko) Chrome/86.0.4240.111 Safari/537.36",58,"[0.9, 0.5, 0.1]","[0.8, 0.4, 0.2]","[u'blue', u'black', u'red']","[u'left', u'middle', u'right']","[0.9, 0.5, 0.1]","[u'medium', u'low', u'high']","red",51,"right","high","True","False",248,3250,NA
"A3HE29W5IDR394","Mon Nov 02 2020 13:08:37 GMT-0500 (Eastern Standard Time)","Mon Nov 02 2020 14:58:28 GMT-0500 (Eastern Standard Time)","Mozilla/5.0 (X11; Fedora; Linux x86_64) AppleWebKit/537.36 (KHTML, like Gecko) Chrome/86.0.4240.111 Safari/537.36",59,"[0.9, 0.5, 0.1]","[0.8, 0.4, 0.2]","[u'blue', u'black', u'red']","[u'left', u'middle', u'right']","[0.9, 0.5, 0.1]","[u'medium', u'low', u'high']","red",51,"right","high","True","False",240,3350,NA
"A3HE29W5IDR394","Mon Nov 02 2020 13:08:37 GMT-0500 (Eastern Standard Time)","Mon Nov 02 2020 14:58:28 GMT-0500 (Eastern Standard Time)","Mozilla/5.0 (X11; Fedora; Linux x86_64) AppleWebKit/537.36 (KHTML, like Gecko) Chrome/86.0.4240.111 Safari/537.36",60,"[0.9, 0.5, 0.1]","[0.8, 0.4, 0.2]","[u'blue', u'black', u'red']","[u'left', u'middle', u'right']","[0.9, 0.5, 0.1]","[u'medium', u'low', u'high']","red",51,"right","high","True","False",192,3450,NA
"A3HE29W5IDR394","Mon Nov 02 2020 13:08:37 GMT-0500 (Eastern Standard Time)","Mon Nov 02 2020 14:58:28 GMT-0500 (Eastern Standard Time)","Mozilla/5.0 (X11; Fedora; Linux x86_64) AppleWebKit/537.36 (KHTML, like Gecko) Chrome/86.0.4240.111 Safari/537.36",61,"[0.9, 0.5, 0.1]","[0.8, 0.4, 0.2]","[u'blue', u'black', u'red']","[u'left', u'middle', u'right']","[0.9, 0.5, 0.1]","[u'medium', u'low', u'high']","red",51,"right","high","True","False",325,3550,NA
"A3HE29W5IDR394","Mon Nov 02 2020 13:08:37 GMT-0500 (Eastern Standard Time)","Mon Nov 02 2020 14:58:28 GMT-0500 (Eastern Standard Time)","Mozilla/5.0 (X11; Fedora; Linux x86_64) AppleWebKit/537.36 (KHTML, like Gecko) Chrome/86.0.4240.111 Safari/537.36",62,"[0.9, 0.5, 0.1]","[0.8, 0.4, 0.2]","[u'blue', u'black', u'red']","[u'left', u'middle', u'right']","[0.9, 0.5, 0.1]","[u'medium', u'low', u'high']","red",51,"right","high","True","False",211,3650,NA
"A3HE29W5IDR394","Mon Nov 02 2020 13:08:37 GMT-0500 (Eastern Standard Time)","Mon Nov 02 2020 14:58:28 GMT-0500 (Eastern Standard Time)","Mozilla/5.0 (X11; Fedora; Linux x86_64) AppleWebKit/537.36 (KHTML, like Gecko) Chrome/86.0.4240.111 Safari/537.36",63,"[0.9, 0.5, 0.1]","[0.8, 0.4, 0.2]","[u'blue', u'black', u'red']","[u'left', u'middle', u'right']","[0.9, 0.5, 0.1]","[u'medium', u'low', u'high']","red",51,"right","high","True","True",206,3750,NA
"A3HE29W5IDR394","Mon Nov 02 2020 13:08:37 GMT-0500 (Eastern Standard Time)","Mon Nov 02 2020 14:58:28 GMT-0500 (Eastern Standard Time)","Mozilla/5.0 (X11; Fedora; Linux x86_64) AppleWebKit/537.36 (KHTML, like Gecko) Chrome/86.0.4240.111 Safari/537.36",64,"[0.9, 0.5, 0.1]","[0.8, 0.4, 0.2]","[u'blue', u'black', u'red']","[u'left', u'middle', u'right']","[0.9, 0.5, 0.1]","[u'high', u'medium', u'low']","red",51,"right","low","False","False",222,3700,NA
"A3HE29W5IDR394","Mon Nov 02 2020 13:08:37 GMT-0500 (Eastern Standard Time)","Mon Nov 02 2020 14:58:28 GMT-0500 (Eastern Standard Time)","Mozilla/5.0 (X11; Fedora; Linux x86_64) AppleWebKit/537.36 (KHTML, like Gecko) Chrome/86.0.4240.111 Safari/537.36",65,"[0.9, 0.5, 0.1]","[0.8, 0.4, 0.2]","[u'blue', u'black', u'red']","[u'left', u'middle', u'right']","[0.9, 0.5, 0.1]","[u'high', u'medium', u'low']","red",51,"right","low","False","False",199,3650,NA
"A3HE29W5IDR394","Mon Nov 02 2020 13:08:37 GMT-0500 (Eastern Standard Time)","Mon Nov 02 2020 14:58:28 GMT-0500 (Eastern Standard Time)","Mozilla/5.0 (X11; Fedora; Linux x86_64) AppleWebKit/537.36 (KHTML, like Gecko) Chrome/86.0.4240.111 Safari/537.36",66,"[0.9, 0.5, 0.1]","[0.8, 0.4, 0.2]","[u'blue', u'black', u'red']","[u'left', u'middle', u'right']","[0.9, 0.5, 0.1]","[u'high', u'medium', u'low']","blue",49,"left","high","True","False",225,3750,NA
"A3HE29W5IDR394","Mon Nov 02 2020 13:08:37 GMT-0500 (Eastern Standard Time)","Mon Nov 02 2020 14:58:28 GMT-0500 (Eastern Standard Time)","Mozilla/5.0 (X11; Fedora; Linux x86_64) AppleWebKit/537.36 (KHTML, like Gecko) Chrome/86.0.4240.111 Safari/537.36",67,"[0.9, 0.5, 0.1]","[0.8, 0.4, 0.2]","[u'blue', u'black', u'red']","[u'left', u'middle', u'right']","[0.9, 0.5, 0.1]","[u'high', u'medium', u'low']","blue",49,"left","high","True","False",272,3850,NA
"A3HE29W5IDR394","Mon Nov 02 2020 13:08:37 GMT-0500 (Eastern Standard Time)","Mon Nov 02 2020 14:58:28 GMT-0500 (Eastern Standard Time)","Mozilla/5.0 (X11; Fedora; Linux x86_64) AppleWebKit/537.36 (KHTML, like Gecko) Chrome/86.0.4240.111 Safari/537.36",68,"[0.9, 0.5, 0.1]","[0.8, 0.4, 0.2]","[u'blue', u'black', u'red']","[u'left', u'middle', u'right']","[0.9, 0.5, 0.1]","[u'high', u'medium', u'low']","blue",49,"left","high","True","False",260,3950,NA
"A3HE29W5IDR394","Mon Nov 02 2020 13:08:37 GMT-0500 (Eastern Standard Time)","Mon Nov 02 2020 14:58:28 GMT-0500 (Eastern Standard Time)","Mozilla/5.0 (X11; Fedora; Linux x86_64) AppleWebKit/537.36 (KHTML, like Gecko) Chrome/86.0.4240.111 Safari/537.36",69,"[0.9, 0.5, 0.1]","[0.8, 0.4, 0.2]","[u'blue', u'black', u'red']","[u'left', u'middle', u'right']","[0.9, 0.5, 0.1]","[u'high', u'medium', u'low']","blue",49,"left","high","True","False",332,4050,NA
"A3HE29W5IDR394","Mon Nov 02 2020 13:08:37 GMT-0500 (Eastern Standard Time)","Mon Nov 02 2020 14:58:28 GMT-0500 (Eastern Standard Time)","Mozilla/5.0 (X11; Fedora; Linux x86_64) AppleWebKit/537.36 (KHTML, like Gecko) Chrome/86.0.4240.111 Safari/537.36",70,"[0.9, 0.5, 0.1]","[0.8, 0.4, 0.2]","[u'blue', u'black', u'red']","[u'left', u'middle', u'right']","[0.9, 0.5, 0.1]","[u'high', u'medium', u'low']","blue",49,"left","high","True","False",231,4150,NA
"A3HE29W5IDR394","Mon Nov 02 2020 13:08:37 GMT-0500 (Eastern Standard Time)","Mon Nov 02 2020 14:58:28 GMT-0500 (Eastern Standard Time)","Mozilla/5.0 (X11; Fedora; Linux x86_64) AppleWebKit/537.36 (KHTML, like Gecko) Chrome/86.0.4240.111 Safari/537.36",71,"[0.9, 0.5, 0.1]","[0.8, 0.4, 0.2]","[u'blue', u'black', u'red']","[u'left', u'middle', u'right']","[0.9, 0.5, 0.1]","[u'high', u'medium', u'low']","blue",49,"left","high","True","False",249,4250,NA
"A3HE29W5IDR394","Mon Nov 02 2020 13:08:37 GMT-0500 (Eastern Standard Time)","Mon Nov 02 2020 14:58:28 GMT-0500 (Eastern Standard Time)","Mozilla/5.0 (X11; Fedora; Linux x86_64) AppleWebKit/537.36 (KHTML, like Gecko) Chrome/86.0.4240.111 Safari/537.36",72,"[0.9, 0.5, 0.1]","[0.8, 0.4, 0.2]","[u'blue', u'black', u'red']","[u'left', u'middle', u'right']","[0.9, 0.5, 0.1]","[u'high', u'medium', u'low']","blue",49,"left","high","True","False",255,4350,NA
"A3HE29W5IDR394","Mon Nov 02 2020 13:08:37 GMT-0500 (Eastern Standard Time)","Mon Nov 02 2020 14:58:28 GMT-0500 (Eastern Standard Time)","Mozilla/5.0 (X11; Fedora; Linux x86_64) AppleWebKit/537.36 (KHTML, like Gecko) Chrome/86.0.4240.111 Safari/537.36",73,"[0.9, 0.5, 0.1]","[0.8, 0.4, 0.2]","[u'blue', u'black', u'red']","[u'left', u'middle', u'right']","[0.9, 0.5, 0.1]","[u'high', u'medium', u'low']","blue",49,"left","high","True","False",377,4450,NA
"A3HE29W5IDR394","Mon Nov 02 2020 13:08:37 GMT-0500 (Eastern Standard Time)","Mon Nov 02 2020 14:58:28 GMT-0500 (Eastern Standard Time)","Mozilla/5.0 (X11; Fedora; Linux x86_64) AppleWebKit/537.36 (KHTML, like Gecko) Chrome/86.0.4240.111 Safari/537.36",74,"[0.9, 0.5, 0.1]","[0.8, 0.4, 0.2]","[u'blue', u'black', u'red']","[u'left', u'middle', u'right']","[0.9, 0.5, 0.1]","[u'high', u'medium', u'low']","blue",49,"left","high","True","True",242,4550,NA
"A3HE29W5IDR394","Mon Nov 02 2020 13:08:37 GMT-0500 (Eastern Standard Time)","Mon Nov 02 2020 14:58:28 GMT-0500 (Eastern Standard Time)","Mozilla/5.0 (X11; Fedora; Linux x86_64) AppleWebKit/537.36 (KHTML, like Gecko) Chrome/86.0.4240.111 Safari/537.36",75,"[0.9, 0.5, 0.1]","[0.8, 0.4, 0.2]","[u'blue', u'black', u'red']","[u'left', u'middle', u'right']","[0.9, 0.5, 0.1]","[u'medium', u'low', u'high']","blue",49,"left","medium","True","False",263,4650,NA
"A3HE29W5IDR394","Mon Nov 02 2020 13:08:37 GMT-0500 (Eastern Standard Time)","Mon Nov 02 2020 14:58:28 GMT-0500 (Eastern Standard Time)","Mozilla/5.0 (X11; Fedora; Linux x86_64) AppleWebKit/537.36 (KHTML, like Gecko) Chrome/86.0.4240.111 Safari/537.36",76,"[0.9, 0.5, 0.1]","[0.8, 0.4, 0.2]","[u'blue', u'black', u'red']","[u'left', u'middle', u'right']","[0.9, 0.5, 0.1]","[u'medium', u'low', u'high']","blue",49,"left","medium","False","False",249,4600,NA
"A3HE29W5IDR394","Mon Nov 02 2020 13:08:37 GMT-0500 (Eastern Standard Time)","Mon Nov 02 2020 14:58:28 GMT-0500 (Eastern Standard Time)","Mozilla/5.0 (X11; Fedora; Linux x86_64) AppleWebKit/537.36 (KHTML, like Gecko) Chrome/86.0.4240.111 Safari/537.36",77,"[0.9, 0.5, 0.1]","[0.8, 0.4, 0.2]","[u'blue', u'black', u'red']","[u'left', u'middle', u'right']","[0.9, 0.5, 0.1]","[u'medium', u'low', u'high']","blue",49,"left","medium","True","False",407,4700,NA
"A3HE29W5IDR394","Mon Nov 02 2020 13:08:37 GMT-0500 (Eastern Standard Time)","Mon Nov 02 2020 14:58:28 GMT-0500 (Eastern Standard Time)","Mozilla/5.0 (X11; Fedora; Linux x86_64) AppleWebKit/537.36 (KHTML, like Gecko) Chrome/86.0.4240.111 Safari/537.36",78,"[0.9, 0.5, 0.1]","[0.8, 0.4, 0.2]","[u'blue', u'black', u'red']","[u'left', u'middle', u'right']","[0.9, 0.5, 0.1]","[u'medium', u'low', u'high']","blue",49,"left","medium","True","False",301,4800,NA
"A3HE29W5IDR394","Mon Nov 02 2020 13:08:37 GMT-0500 (Eastern Standard Time)","Mon Nov 02 2020 14:58:28 GMT-0500 (Eastern Standard Time)","Mozilla/5.0 (X11; Fedora; Linux x86_64) AppleWebKit/537.36 (KHTML, like Gecko) Chrome/86.0.4240.111 Safari/537.36",79,"[0.9, 0.5, 0.1]","[0.8, 0.4, 0.2]","[u'blue', u'black', u'red']","[u'left', u'middle', u'right']","[0.9, 0.5, 0.1]","[u'medium', u'low', u'high']","blue",49,"left","medium","False","False",308,4750,NA
"A3HE29W5IDR394","Mon Nov 02 2020 13:08:37 GMT-0500 (Eastern Standard Time)","Mon Nov 02 2020 14:58:28 GMT-0500 (Eastern Standard Time)","Mozilla/5.0 (X11; Fedora; Linux x86_64) AppleWebKit/537.36 (KHTML, like Gecko) Chrome/86.0.4240.111 Safari/537.36",80,"[0.9, 0.5, 0.1]","[0.8, 0.4, 0.2]","[u'blue', u'black', u'red']","[u'left', u'middle', u'right']","[0.9, 0.5, 0.1]","[u'medium', u'low', u'high']","blue",49,"left","medium","True","False",314,4850,NA
"A3HE29W5IDR394","Mon Nov 02 2020 13:08:37 GMT-0500 (Eastern Standard Time)","Mon Nov 02 2020 14:58:28 GMT-0500 (Eastern Standard Time)","Mozilla/5.0 (X11; Fedora; Linux x86_64) AppleWebKit/537.36 (KHTML, like Gecko) Chrome/86.0.4240.111 Safari/537.36",81,"[0.9, 0.5, 0.1]","[0.8, 0.4, 0.2]","[u'blue', u'black', u'red']","[u'left', u'middle', u'right']","[0.8, 0.4, 0.2]","[u'medium', u'high', u'low']","blue",49,"left","medium","True","False",415,4950,NA
"A3HE29W5IDR394","Mon Nov 02 2020 13:08:37 GMT-0500 (Eastern Standard Time)","Mon Nov 02 2020 14:58:28 GMT-0500 (Eastern Standard Time)","Mozilla/5.0 (X11; Fedora; Linux x86_64) AppleWebKit/537.36 (KHTML, like Gecko) Chrome/86.0.4240.111 Safari/537.36",82,"[0.9, 0.5, 0.1]","[0.8, 0.4, 0.2]","[u'blue', u'black', u'red']","[u'left', u'middle', u'right']","[0.8, 0.4, 0.2]","[u'medium', u'high', u'low']","blue",49,"left","medium","True","False",361,5050,NA
"A3HE29W5IDR394","Mon Nov 02 2020 13:08:37 GMT-0500 (Eastern Standard Time)","Mon Nov 02 2020 14:58:28 GMT-0500 (Eastern Standard Time)","Mozilla/5.0 (X11; Fedora; Linux x86_64) AppleWebKit/537.36 (KHTML, like Gecko) Chrome/86.0.4240.111 Safari/537.36",83,"[0.9, 0.5, 0.1]","[0.8, 0.4, 0.2]","[u'blue', u'black', u'red']","[u'left', u'middle', u'right']","[0.8, 0.4, 0.2]","[u'medium', u'high', u'low']","blue",49,"left","medium","False","False",283,5000,NA
"A3HE29W5IDR394","Mon Nov 02 2020 13:08:37 GMT-0500 (Eastern Standard Time)","Mon Nov 02 2020 14:58:28 GMT-0500 (Eastern Standard Time)","Mozilla/5.0 (X11; Fedora; Linux x86_64) AppleWebKit/537.36 (KHTML, like Gecko) Chrome/86.0.4240.111 Safari/537.36",84,"[0.9, 0.5, 0.1]","[0.8, 0.4, 0.2]","[u'blue', u'black', u'red']","[u'left', u'middle', u'right']","[0.8, 0.4, 0.2]","[u'medium', u'high', u'low']","blue",49,"left","medium","False","False",268,4950,NA
"A3HE29W5IDR394","Mon Nov 02 2020 13:08:37 GMT-0500 (Eastern Standard Time)","Mon Nov 02 2020 14:58:28 GMT-0500 (Eastern Standard Time)","Mozilla/5.0 (X11; Fedora; Linux x86_64) AppleWebKit/537.36 (KHTML, like Gecko) Chrome/86.0.4240.111 Safari/537.36",85,"[0.9, 0.5, 0.1]","[0.8, 0.4, 0.2]","[u'blue', u'black', u'red']","[u'left', u'middle', u'right']","[0.8, 0.4, 0.2]","[u'medium', u'high', u'low']","black",50,"middle","high","True","False",208,5050,NA
"A3HE29W5IDR394","Mon Nov 02 2020 13:08:37 GMT-0500 (Eastern Standard Time)","Mon Nov 02 2020 14:58:28 GMT-0500 (Eastern Standard Time)","Mozilla/5.0 (X11; Fedora; Linux x86_64) AppleWebKit/537.36 (KHTML, like Gecko) Chrome/86.0.4240.111 Safari/537.36",86,"[0.9, 0.5, 0.1]","[0.8, 0.4, 0.2]","[u'blue', u'black', u'red']","[u'left', u'middle', u'right']","[0.8, 0.4, 0.2]","[u'medium', u'high', u'low']","black",50,"middle","high","True","False",367,5150,NA
"A3HE29W5IDR394","Mon Nov 02 2020 13:08:37 GMT-0500 (Eastern Standard Time)","Mon Nov 02 2020 14:58:28 GMT-0500 (Eastern Standard Time)","Mozilla/5.0 (X11; Fedora; Linux x86_64) AppleWebKit/537.36 (KHTML, like Gecko) Chrome/86.0.4240.111 Safari/537.36",87,"[0.9, 0.5, 0.1]","[0.8, 0.4, 0.2]","[u'blue', u'black', u'red']","[u'left', u'middle', u'right']","[0.8, 0.4, 0.2]","[u'medium', u'high', u'low']","black",50,"middle","high","True","False",337,5250,NA
"A3HE29W5IDR394","Mon Nov 02 2020 13:08:37 GMT-0500 (Eastern Standard Time)","Mon Nov 02 2020 14:58:28 GMT-0500 (Eastern Standard Time)","Mozilla/5.0 (X11; Fedora; Linux x86_64) AppleWebKit/537.36 (KHTML, like Gecko) Chrome/86.0.4240.111 Safari/537.36",88,"[0.9, 0.5, 0.1]","[0.8, 0.4, 0.2]","[u'blue', u'black', u'red']","[u'left', u'middle', u'right']","[0.8, 0.4, 0.2]","[u'medium', u'high', u'low']","black",50,"middle","high","True","False",258,5350,NA
"A3HE29W5IDR394","Mon Nov 02 2020 13:08:37 GMT-0500 (Eastern Standard Time)","Mon Nov 02 2020 14:58:28 GMT-0500 (Eastern Standard Time)","Mozilla/5.0 (X11; Fedora; Linux x86_64) AppleWebKit/537.36 (KHTML, like Gecko) Chrome/86.0.4240.111 Safari/537.36",89,"[0.9, 0.5, 0.1]","[0.8, 0.4, 0.2]","[u'blue', u'black', u'red']","[u'left', u'middle', u'right']","[0.8, 0.4, 0.2]","[u'medium', u'high', u'low']","black",50,"middle","high","True","False",329,5450,NA
"A3HE29W5IDR394","Mon Nov 02 2020 13:08:37 GMT-0500 (Eastern Standard Time)","Mon Nov 02 2020 14:58:28 GMT-0500 (Eastern Standard Time)","Mozilla/5.0 (X11; Fedora; Linux x86_64) AppleWebKit/537.36 (KHTML, like Gecko) Chrome/86.0.4240.111 Safari/537.36",90,"[0.9, 0.5, 0.1]","[0.8, 0.4, 0.2]","[u'blue', u'black', u'red']","[u'left', u'middle', u'right']","[0.8, 0.4, 0.2]","[u'medium', u'high', u'low']","black",50,"middle","high","True","False",210,5550,NA
"A3HE29W5IDR394","Mon Nov 02 2020 13:08:37 GMT-0500 (Eastern Standard Time)","Mon Nov 02 2020 14:58:28 GMT-0500 (Eastern Standard Time)","Mozilla/5.0 (X11; Fedora; Linux x86_64) AppleWebKit/537.36 (KHTML, like Gecko) Chrome/86.0.4240.111 Safari/537.36",91,"[0.9, 0.5, 0.1]","[0.8, 0.4, 0.2]","[u'blue', u'black', u'red']","[u'left', u'middle', u'right']","[0.8, 0.4, 0.2]","[u'medium', u'high', u'low']","black",50,"middle","high","True","False",247,5650,NA
"A3HE29W5IDR394","Mon Nov 02 2020 13:08:37 GMT-0500 (Eastern Standard Time)","Mon Nov 02 2020 14:58:28 GMT-0500 (Eastern Standard Time)","Mozilla/5.0 (X11; Fedora; Linux x86_64) AppleWebKit/537.36 (KHTML, like Gecko) Chrome/86.0.4240.111 Safari/537.36",92,"[0.9, 0.5, 0.1]","[0.8, 0.4, 0.2]","[u'blue', u'black', u'red']","[u'left', u'middle', u'right']","[0.8, 0.4, 0.2]","[u'medium', u'high', u'low']","black",50,"middle","high","False","False",283,5600,NA
"A3HE29W5IDR394","Mon Nov 02 2020 13:08:37 GMT-0500 (Eastern Standard Time)","Mon Nov 02 2020 14:58:28 GMT-0500 (Eastern Standard Time)","Mozilla/5.0 (X11; Fedora; Linux x86_64) AppleWebKit/537.36 (KHTML, like Gecko) Chrome/86.0.4240.111 Safari/537.36",93,"[0.9, 0.5, 0.1]","[0.8, 0.4, 0.2]","[u'blue', u'black', u'red']","[u'left', u'middle', u'right']","[0.8, 0.4, 0.2]","[u'medium', u'high', u'low']","black",50,"middle","high","True","True",221,5700,NA
"A3HE29W5IDR394","Mon Nov 02 2020 13:08:37 GMT-0500 (Eastern Standard Time)","Mon Nov 02 2020 14:58:28 GMT-0500 (Eastern Standard Time)","Mozilla/5.0 (X11; Fedora; Linux x86_64) AppleWebKit/537.36 (KHTML, like Gecko) Chrome/86.0.4240.111 Safari/537.36",94,"[0.9, 0.5, 0.1]","[0.8, 0.4, 0.2]","[u'blue', u'black', u'red']","[u'left', u'middle', u'right']","[0.8, 0.4, 0.2]","[u'high', u'medium', u'low']","black",50,"middle","medium","False","False",287,5650,NA
"A3HE29W5IDR394","Mon Nov 02 2020 13:08:37 GMT-0500 (Eastern Standard Time)","Mon Nov 02 2020 14:58:28 GMT-0500 (Eastern Standard Time)","Mozilla/5.0 (X11; Fedora; Linux x86_64) AppleWebKit/537.36 (KHTML, like Gecko) Chrome/86.0.4240.111 Safari/537.36",95,"[0.9, 0.5, 0.1]","[0.8, 0.4, 0.2]","[u'blue', u'black', u'red']","[u'left', u'middle', u'right']","[0.8, 0.4, 0.2]","[u'high', u'medium', u'low']","red",51,"right","low","False","False",356,5600,NA
"A3HE29W5IDR394","Mon Nov 02 2020 13:08:37 GMT-0500 (Eastern Standard Time)","Mon Nov 02 2020 14:58:28 GMT-0500 (Eastern Standard Time)","Mozilla/5.0 (X11; Fedora; Linux x86_64) AppleWebKit/537.36 (KHTML, like Gecko) Chrome/86.0.4240.111 Safari/537.36",96,"[0.9, 0.5, 0.1]","[0.8, 0.4, 0.2]","[u'blue', u'black', u'red']","[u'left', u'middle', u'right']","[0.8, 0.4, 0.2]","[u'high', u'medium', u'low']","blue",49,"left","high","False","False",206,5550,NA
"A3HE29W5IDR394","Mon Nov 02 2020 13:08:37 GMT-0500 (Eastern Standard Time)","Mon Nov 02 2020 14:58:28 GMT-0500 (Eastern Standard Time)","Mozilla/5.0 (X11; Fedora; Linux x86_64) AppleWebKit/537.36 (KHTML, like Gecko) Chrome/86.0.4240.111 Safari/537.36",97,"[0.9, 0.5, 0.1]","[0.8, 0.4, 0.2]","[u'blue', u'black', u'red']","[u'left', u'middle', u'right']","[0.8, 0.4, 0.2]","[u'high', u'medium', u'low']","black",50,"middle","medium","False","False",234,5500,NA
"A3HE29W5IDR394","Mon Nov 02 2020 13:08:37 GMT-0500 (Eastern Standard Time)","Mon Nov 02 2020 14:58:28 GMT-0500 (Eastern Standard Time)","Mozilla/5.0 (X11; Fedora; Linux x86_64) AppleWebKit/537.36 (KHTML, like Gecko) Chrome/86.0.4240.111 Safari/537.36",98,"[0.9, 0.5, 0.1]","[0.8, 0.4, 0.2]","[u'blue', u'black', u'red']","[u'left', u'middle', u'right']","[0.8, 0.4, 0.2]","[u'high', u'medium', u'low']","red",51,"right","low","False","False",184,5450,NA
"A3HE29W5IDR394","Mon Nov 02 2020 13:08:37 GMT-0500 (Eastern Standard Time)","Mon Nov 02 2020 14:58:28 GMT-0500 (Eastern Standard Time)","Mozilla/5.0 (X11; Fedora; Linux x86_64) AppleWebKit/537.36 (KHTML, like Gecko) Chrome/86.0.4240.111 Safari/537.36",99,"[0.9, 0.5, 0.1]","[0.8, 0.4, 0.2]","[u'blue', u'black', u'red']","[u'left', u'middle', u'right']","[0.8, 0.4, 0.2]","[u'high', u'medium', u'low']","blue",49,"left","high","True","False",136,5550,NA
"A3HE29W5IDR394","Mon Nov 02 2020 13:08:37 GMT-0500 (Eastern Standard Time)","Mon Nov 02 2020 14:58:28 GMT-0500 (Eastern Standard Time)","Mozilla/5.0 (X11; Fedora; Linux x86_64) AppleWebKit/537.36 (KHTML, like Gecko) Chrome/86.0.4240.111 Safari/537.36",100,"[0.9, 0.5, 0.1]","[0.8, 0.4, 0.2]","[u'blue', u'black', u'red']","[u'left', u'middle', u'right']","[0.8, 0.4, 0.2]","[u'high', u'medium', u'low']","blue",49,"left","high","True","False",230,5650,NA
"A3HE29W5IDR394","Mon Nov 02 2020 13:08:37 GMT-0500 (Eastern Standard Time)","Mon Nov 02 2020 14:58:28 GMT-0500 (Eastern Standard Time)","Mozilla/5.0 (X11; Fedora; Linux x86_64) AppleWebKit/537.36 (KHTML, like Gecko) Chrome/86.0.4240.111 Safari/537.36",101,"[0.9, 0.5, 0.1]","[0.8, 0.4, 0.2]","[u'blue', u'black', u'red']","[u'left', u'middle', u'right']","[0.8, 0.4, 0.2]","[u'high', u'medium', u'low']","blue",49,"left","high","True","False",257,5750,NA
"A3HE29W5IDR394","Mon Nov 02 2020 13:08:37 GMT-0500 (Eastern Standard Time)","Mon Nov 02 2020 14:58:28 GMT-0500 (Eastern Standard Time)","Mozilla/5.0 (X11; Fedora; Linux x86_64) AppleWebKit/537.36 (KHTML, like Gecko) Chrome/86.0.4240.111 Safari/537.36",102,"[0.9, 0.5, 0.1]","[0.8, 0.4, 0.2]","[u'blue', u'black', u'red']","[u'left', u'middle', u'right']","[0.8, 0.4, 0.2]","[u'high', u'medium', u'low']","blue",49,"left","high","True","False",290,5850,NA
"A3HE29W5IDR394","Mon Nov 02 2020 13:08:37 GMT-0500 (Eastern Standard Time)","Mon Nov 02 2020 14:58:28 GMT-0500 (Eastern Standard Time)","Mozilla/5.0 (X11; Fedora; Linux x86_64) AppleWebKit/537.36 (KHTML, like Gecko) Chrome/86.0.4240.111 Safari/537.36",103,"[0.9, 0.5, 0.1]","[0.8, 0.4, 0.2]","[u'blue', u'black', u'red']","[u'left', u'middle', u'right']","[0.8, 0.4, 0.2]","[u'high', u'medium', u'low']","blue",49,"left","high","True","False",298,5950,NA
"A3HE29W5IDR394","Mon Nov 02 2020 13:08:37 GMT-0500 (Eastern Standard Time)","Mon Nov 02 2020 14:58:28 GMT-0500 (Eastern Standard Time)","Mozilla/5.0 (X11; Fedora; Linux x86_64) AppleWebKit/537.36 (KHTML, like Gecko) Chrome/86.0.4240.111 Safari/537.36",104,"[0.9, 0.5, 0.1]","[0.8, 0.4, 0.2]","[u'blue', u'black', u'red']","[u'left', u'middle', u'right']","[0.8, 0.4, 0.2]","[u'high', u'medium', u'low']","blue",49,"left","high","True","False",256,6050,NA
"A3HE29W5IDR394","Mon Nov 02 2020 13:08:37 GMT-0500 (Eastern Standard Time)","Mon Nov 02 2020 14:58:28 GMT-0500 (Eastern Standard Time)","Mozilla/5.0 (X11; Fedora; Linux x86_64) AppleWebKit/537.36 (KHTML, like Gecko) Chrome/86.0.4240.111 Safari/537.36",105,"[0.9, 0.5, 0.1]","[0.8, 0.4, 0.2]","[u'blue', u'black', u'red']","[u'left', u'middle', u'right']","[0.8, 0.4, 0.2]","[u'high', u'medium', u'low']","blue",49,"left","high","True","False",250,6150,NA
"A3HE29W5IDR394","Mon Nov 02 2020 13:08:37 GMT-0500 (Eastern Standard Time)","Mon Nov 02 2020 14:58:28 GMT-0500 (Eastern Standard Time)","Mozilla/5.0 (X11; Fedora; Linux x86_64) AppleWebKit/537.36 (KHTML, like Gecko) Chrome/86.0.4240.111 Safari/537.36",106,"[0.9, 0.5, 0.1]","[0.8, 0.4, 0.2]","[u'blue', u'black', u'red']","[u'left', u'middle', u'right']","[0.8, 0.4, 0.2]","[u'high', u'medium', u'low']","blue",49,"left","high","True","False",269,6250,NA
"A3HE29W5IDR394","Mon Nov 02 2020 13:08:37 GMT-0500 (Eastern Standard Time)","Mon Nov 02 2020 14:58:28 GMT-0500 (Eastern Standard Time)","Mozilla/5.0 (X11; Fedora; Linux x86_64) AppleWebKit/537.36 (KHTML, like Gecko) Chrome/86.0.4240.111 Safari/537.36",107,"[0.9, 0.5, 0.1]","[0.8, 0.4, 0.2]","[u'blue', u'black', u'red']","[u'left', u'middle', u'right']","[0.8, 0.4, 0.2]","[u'high', u'medium', u'low']","blue",49,"left","high","True","True",252,6350,NA
"A3HE29W5IDR394","Mon Nov 02 2020 13:08:37 GMT-0500 (Eastern Standard Time)","Mon Nov 02 2020 14:58:28 GMT-0500 (Eastern Standard Time)","Mozilla/5.0 (X11; Fedora; Linux x86_64) AppleWebKit/537.36 (KHTML, like Gecko) Chrome/86.0.4240.111 Safari/537.36",108,"[0.9, 0.5, 0.1]","[0.8, 0.4, 0.2]","[u'blue', u'black', u'red']","[u'left', u'middle', u'right']","[0.8, 0.4, 0.2]","[u'low', u'medium', u'high']","blue",49,"left","low","False","False",280,6300,NA
"A3HE29W5IDR394","Mon Nov 02 2020 13:08:37 GMT-0500 (Eastern Standard Time)","Mon Nov 02 2020 14:58:28 GMT-0500 (Eastern Standard Time)","Mozilla/5.0 (X11; Fedora; Linux x86_64) AppleWebKit/537.36 (KHTML, like Gecko) Chrome/86.0.4240.111 Safari/537.36",109,"[0.9, 0.5, 0.1]","[0.8, 0.4, 0.2]","[u'blue', u'black', u'red']","[u'left', u'middle', u'right']","[0.8, 0.4, 0.2]","[u'low', u'medium', u'high']","blue",49,"left","low","False","False",198,6250,NA
"A3HE29W5IDR394","Mon Nov 02 2020 13:08:37 GMT-0500 (Eastern Standard Time)","Mon Nov 02 2020 14:58:28 GMT-0500 (Eastern Standard Time)","Mozilla/5.0 (X11; Fedora; Linux x86_64) AppleWebKit/537.36 (KHTML, like Gecko) Chrome/86.0.4240.111 Safari/537.36",110,"[0.9, 0.5, 0.1]","[0.8, 0.4, 0.2]","[u'blue', u'black', u'red']","[u'left', u'middle', u'right']","[0.8, 0.4, 0.2]","[u'low', u'medium', u'high']","black",50,"middle","medium","False","False",219,6200,NA
"A3HE29W5IDR394","Mon Nov 02 2020 13:08:37 GMT-0500 (Eastern Standard Time)","Mon Nov 02 2020 14:58:28 GMT-0500 (Eastern Standard Time)","Mozilla/5.0 (X11; Fedora; Linux x86_64) AppleWebKit/537.36 (KHTML, like Gecko) Chrome/86.0.4240.111 Safari/537.36",111,"[0.9, 0.5, 0.1]","[0.8, 0.4, 0.2]","[u'blue', u'black', u'red']","[u'left', u'middle', u'right']","[0.8, 0.4, 0.2]","[u'low', u'medium', u'high']","black",50,"middle","medium","False","False",122,6150,NA
"A3HE29W5IDR394","Mon Nov 02 2020 13:08:37 GMT-0500 (Eastern Standard Time)","Mon Nov 02 2020 14:58:28 GMT-0500 (Eastern Standard Time)","Mozilla/5.0 (X11; Fedora; Linux x86_64) AppleWebKit/537.36 (KHTML, like Gecko) Chrome/86.0.4240.111 Safari/537.36",112,"[0.9, 0.5, 0.1]","[0.8, 0.4, 0.2]","[u'blue', u'black', u'red']","[u'left', u'middle', u'right']","[0.8, 0.4, 0.2]","[u'low', u'medium', u'high']","red",51,"right","high","True","False",211,6250,NA
"A3HE29W5IDR394","Mon Nov 02 2020 13:08:37 GMT-0500 (Eastern Standard Time)","Mon Nov 02 2020 14:58:28 GMT-0500 (Eastern Standard Time)","Mozilla/5.0 (X11; Fedora; Linux x86_64) AppleWebKit/537.36 (KHTML, like Gecko) Chrome/86.0.4240.111 Safari/537.36",113,"[0.9, 0.5, 0.1]","[0.8, 0.4, 0.2]","[u'blue', u'black', u'red']","[u'left', u'middle', u'right']","[0.8, 0.4, 0.2]","[u'low', u'medium', u'high']","red",51,"right","high","True","False",244,6350,NA
"A3HE29W5IDR394","Mon Nov 02 2020 13:08:37 GMT-0500 (Eastern Standard Time)","Mon Nov 02 2020 14:58:28 GMT-0500 (Eastern Standard Time)","Mozilla/5.0 (X11; Fedora; Linux x86_64) AppleWebKit/537.36 (KHTML, like Gecko) Chrome/86.0.4240.111 Safari/537.36",114,"[0.9, 0.5, 0.1]","[0.8, 0.4, 0.2]","[u'blue', u'black', u'red']","[u'left', u'middle', u'right']","[0.8, 0.4, 0.2]","[u'low', u'medium', u'high']","red",51,"right","high","True","False",304,6450,NA
"A3HE29W5IDR394","Mon Nov 02 2020 13:08:37 GMT-0500 (Eastern Standard Time)","Mon Nov 02 2020 14:58:28 GMT-0500 (Eastern Standard Time)","Mozilla/5.0 (X11; Fedora; Linux x86_64) AppleWebKit/537.36 (KHTML, like Gecko) Chrome/86.0.4240.111 Safari/537.36",115,"[0.9, 0.5, 0.1]","[0.8, 0.4, 0.2]","[u'blue', u'black', u'red']","[u'left', u'middle', u'right']","[0.8, 0.4, 0.2]","[u'low', u'medium', u'high']","red",51,"right","high","False","False",249,6400,NA
"A3HE29W5IDR394","Mon Nov 02 2020 13:08:37 GMT-0500 (Eastern Standard Time)","Mon Nov 02 2020 14:58:28 GMT-0500 (Eastern Standard Time)","Mozilla/5.0 (X11; Fedora; Linux x86_64) AppleWebKit/537.36 (KHTML, like Gecko) Chrome/86.0.4240.111 Safari/537.36",116,"[0.9, 0.5, 0.1]","[0.8, 0.4, 0.2]","[u'blue', u'black', u'red']","[u'left', u'middle', u'right']","[0.8, 0.4, 0.2]","[u'low', u'medium', u'high']","red",51,"right","high","True","False",241,6500,NA
"A3HE29W5IDR394","Mon Nov 02 2020 13:08:37 GMT-0500 (Eastern Standard Time)","Mon Nov 02 2020 14:58:28 GMT-0500 (Eastern Standard Time)","Mozilla/5.0 (X11; Fedora; Linux x86_64) AppleWebKit/537.36 (KHTML, like Gecko) Chrome/86.0.4240.111 Safari/537.36",117,"[0.9, 0.5, 0.1]","[0.8, 0.4, 0.2]","[u'blue', u'black', u'red']","[u'left', u'middle', u'right']","[0.8, 0.4, 0.2]","[u'low', u'medium', u'high']","red",51,"right","high","True","False",242,6600,NA
"A3HE29W5IDR394","Mon Nov 02 2020 13:08:37 GMT-0500 (Eastern Standard Time)","Mon Nov 02 2020 14:58:28 GMT-0500 (Eastern Standard Time)","Mozilla/5.0 (X11; Fedora; Linux x86_64) AppleWebKit/537.36 (KHTML, like Gecko) Chrome/86.0.4240.111 Safari/537.36",118,"[0.9, 0.5, 0.1]","[0.8, 0.4, 0.2]","[u'blue', u'black', u'red']","[u'left', u'middle', u'right']","[0.8, 0.4, 0.2]","[u'low', u'medium', u'high']","red",51,"right","high","True","False",257,6700,NA
"A3HE29W5IDR394","Mon Nov 02 2020 13:08:37 GMT-0500 (Eastern Standard Time)","Mon Nov 02 2020 14:58:28 GMT-0500 (Eastern Standard Time)","Mozilla/5.0 (X11; Fedora; Linux x86_64) AppleWebKit/537.36 (KHTML, like Gecko) Chrome/86.0.4240.111 Safari/537.36",119,"[0.9, 0.5, 0.1]","[0.8, 0.4, 0.2]","[u'blue', u'black', u'red']","[u'left', u'middle', u'right']","[0.8, 0.4, 0.2]","[u'low', u'medium', u'high']","red",51,"right","high","True","False",308,6800,NA
"A3HE29W5IDR394","Mon Nov 02 2020 13:08:37 GMT-0500 (Eastern Standard Time)","Mon Nov 02 2020 14:58:28 GMT-0500 (Eastern Standard Time)","Mozilla/5.0 (X11; Fedora; Linux x86_64) AppleWebKit/537.36 (KHTML, like Gecko) Chrome/86.0.4240.111 Safari/537.36",120,"[0.9, 0.5, 0.1]","[0.8, 0.4, 0.2]","[u'blue', u'black', u'red']","[u'left', u'middle', u'right']","[0.8, 0.4, 0.2]","[u'low', u'medium', u'high']","red",51,"right","high","True","True",206,6900,NA
"A3HE29W5IDR394","Mon Nov 02 2020 13:08:37 GMT-0500 (Eastern Standard Time)","Mon Nov 02 2020 14:58:28 GMT-0500 (Eastern Standard Time)","Mozilla/5.0 (X11; Fedora; Linux x86_64) AppleWebKit/537.36 (KHTML, like Gecko) Chrome/86.0.4240.111 Safari/537.36",121,"[0.9, 0.5, 0.1]","[0.8, 0.4, 0.2]","[u'blue', u'black', u'red']","[u'left', u'middle', u'right']","[0.8, 0.4, 0.2]","[u'high', u'medium', u'low']","red",51,"right","low","False","False",449,6850,NA
"A3HE29W5IDR394","Mon Nov 02 2020 13:08:37 GMT-0500 (Eastern Standard Time)","Mon Nov 02 2020 14:58:28 GMT-0500 (Eastern Standard Time)","Mozilla/5.0 (X11; Fedora; Linux x86_64) AppleWebKit/537.36 (KHTML, like Gecko) Chrome/86.0.4240.111 Safari/537.36",122,"[0.9, 0.5, 0.1]","[0.8, 0.4, 0.2]","[u'blue', u'black', u'red']","[u'left', u'middle', u'right']","[0.8, 0.4, 0.2]","[u'high', u'medium', u'low']","red",51,"right","low","False","False",301,6800,NA
"A3HE29W5IDR394","Mon Nov 02 2020 13:08:37 GMT-0500 (Eastern Standard Time)","Mon Nov 02 2020 14:58:28 GMT-0500 (Eastern Standard Time)","Mozilla/5.0 (X11; Fedora; Linux x86_64) AppleWebKit/537.36 (KHTML, like Gecko) Chrome/86.0.4240.111 Safari/537.36",123,"[0.9, 0.5, 0.1]","[0.8, 0.4, 0.2]","[u'blue', u'black', u'red']","[u'left', u'middle', u'right']","[0.8, 0.4, 0.2]","[u'high', u'medium', u'low']","blue",49,"left","high","True","False",228,6900,NA
"A3HE29W5IDR394","Mon Nov 02 2020 13:08:37 GMT-0500 (Eastern Standard Time)","Mon Nov 02 2020 14:58:28 GMT-0500 (Eastern Standard Time)","Mozilla/5.0 (X11; Fedora; Linux x86_64) AppleWebKit/537.36 (KHTML, like Gecko) Chrome/86.0.4240.111 Safari/537.36",124,"[0.9, 0.5, 0.1]","[0.8, 0.4, 0.2]","[u'blue', u'black', u'red']","[u'left', u'middle', u'right']","[0.8, 0.4, 0.2]","[u'high', u'medium', u'low']","blue",49,"left","high","True","False",271,7000,NA
"A3HE29W5IDR394","Mon Nov 02 2020 13:08:37 GMT-0500 (Eastern Standard Time)","Mon Nov 02 2020 14:58:28 GMT-0500 (Eastern Standard Time)","Mozilla/5.0 (X11; Fedora; Linux x86_64) AppleWebKit/537.36 (KHTML, like Gecko) Chrome/86.0.4240.111 Safari/537.36",125,"[0.9, 0.5, 0.1]","[0.8, 0.4, 0.2]","[u'blue', u'black', u'red']","[u'left', u'middle', u'right']","[0.8, 0.4, 0.2]","[u'high', u'medium', u'low']","blue",49,"left","high","True","False",250,7100,NA
"A3HE29W5IDR394","Mon Nov 02 2020 13:08:37 GMT-0500 (Eastern Standard Time)","Mon Nov 02 2020 14:58:28 GMT-0500 (Eastern Standard Time)","Mozilla/5.0 (X11; Fedora; Linux x86_64) AppleWebKit/537.36 (KHTML, like Gecko) Chrome/86.0.4240.111 Safari/537.36",126,"[0.9, 0.5, 0.1]","[0.8, 0.4, 0.2]","[u'blue', u'black', u'red']","[u'left', u'middle', u'right']","[0.8, 0.4, 0.2]","[u'high', u'medium', u'low']","blue",49,"left","high","True","False",319,7200,NA
"A3HE29W5IDR394","Mon Nov 02 2020 13:08:37 GMT-0500 (Eastern Standard Time)","Mon Nov 02 2020 14:58:28 GMT-0500 (Eastern Standard Time)","Mozilla/5.0 (X11; Fedora; Linux x86_64) AppleWebKit/537.36 (KHTML, like Gecko) Chrome/86.0.4240.111 Safari/537.36",127,"[0.9, 0.5, 0.1]","[0.8, 0.4, 0.2]","[u'blue', u'black', u'red']","[u'left', u'middle', u'right']","[0.8, 0.4, 0.2]","[u'high', u'medium', u'low']","blue",49,"left","high","True","False",399,7300,NA
"A3HE29W5IDR394","Mon Nov 02 2020 13:08:37 GMT-0500 (Eastern Standard Time)","Mon Nov 02 2020 14:58:28 GMT-0500 (Eastern Standard Time)","Mozilla/5.0 (X11; Fedora; Linux x86_64) AppleWebKit/537.36 (KHTML, like Gecko) Chrome/86.0.4240.111 Safari/537.36",128,"[0.9, 0.5, 0.1]","[0.8, 0.4, 0.2]","[u'blue', u'black', u'red']","[u'left', u'middle', u'right']","[0.8, 0.4, 0.2]","[u'high', u'medium', u'low']","blue",49,"left","high","True","False",302,7400,NA
"A3HE29W5IDR394","Mon Nov 02 2020 13:08:37 GMT-0500 (Eastern Standard Time)","Mon Nov 02 2020 14:58:28 GMT-0500 (Eastern Standard Time)","Mozilla/5.0 (X11; Fedora; Linux x86_64) AppleWebKit/537.36 (KHTML, like Gecko) Chrome/86.0.4240.111 Safari/537.36",129,"[0.9, 0.5, 0.1]","[0.8, 0.4, 0.2]","[u'blue', u'black', u'red']","[u'left', u'middle', u'right']","[0.8, 0.4, 0.2]","[u'high', u'medium', u'low']","blue",49,"left","high","True","False",259,7500,NA
"A3HE29W5IDR394","Mon Nov 02 2020 13:08:37 GMT-0500 (Eastern Standard Time)","Mon Nov 02 2020 14:58:28 GMT-0500 (Eastern Standard Time)","Mozilla/5.0 (X11; Fedora; Linux x86_64) AppleWebKit/537.36 (KHTML, like Gecko) Chrome/86.0.4240.111 Safari/537.36",130,"[0.9, 0.5, 0.1]","[0.8, 0.4, 0.2]","[u'blue', u'black', u'red']","[u'left', u'middle', u'right']","[0.8, 0.4, 0.2]","[u'high', u'medium', u'low']","blue",49,"left","high","True","False",290,7600,NA
"A3HE29W5IDR394","Mon Nov 02 2020 13:08:37 GMT-0500 (Eastern Standard Time)","Mon Nov 02 2020 14:58:28 GMT-0500 (Eastern Standard Time)","Mozilla/5.0 (X11; Fedora; Linux x86_64) AppleWebKit/537.36 (KHTML, like Gecko) Chrome/86.0.4240.111 Safari/537.36",131,"[0.9, 0.5, 0.1]","[0.8, 0.4, 0.2]","[u'blue', u'black', u'red']","[u'left', u'middle', u'right']","[0.8, 0.4, 0.2]","[u'high', u'medium', u'low']","blue",49,"left","high","True","True",390,7700,NA
"A3HE29W5IDR394","Mon Nov 02 2020 13:08:37 GMT-0500 (Eastern Standard Time)","Mon Nov 02 2020 14:58:28 GMT-0500 (Eastern Standard Time)","Mozilla/5.0 (X11; Fedora; Linux x86_64) AppleWebKit/537.36 (KHTML, like Gecko) Chrome/86.0.4240.111 Safari/537.36",132,"[0.9, 0.5, 0.1]","[0.8, 0.4, 0.2]","[u'blue', u'black', u'red']","[u'left', u'middle', u'right']","[0.8, 0.4, 0.2]","[u'medium', u'low', u'high']","blue",49,"left","medium","False","False",259,7650,NA
"A3HE29W5IDR394","Mon Nov 02 2020 13:08:37 GMT-0500 (Eastern Standard Time)","Mon Nov 02 2020 14:58:28 GMT-0500 (Eastern Standard Time)","Mozilla/5.0 (X11; Fedora; Linux x86_64) AppleWebKit/537.36 (KHTML, like Gecko) Chrome/86.0.4240.111 Safari/537.36",133,"[0.9, 0.5, 0.1]","[0.8, 0.4, 0.2]","[u'blue', u'black', u'red']","[u'left', u'middle', u'right']","[0.8, 0.4, 0.2]","[u'medium', u'low', u'high']","blue",49,"left","medium","False","False",234,7600,NA
"A3HE29W5IDR394","Mon Nov 02 2020 13:08:37 GMT-0500 (Eastern Standard Time)","Mon Nov 02 2020 14:58:28 GMT-0500 (Eastern Standard Time)","Mozilla/5.0 (X11; Fedora; Linux x86_64) AppleWebKit/537.36 (KHTML, like Gecko) Chrome/86.0.4240.111 Safari/537.36",134,"[0.9, 0.5, 0.1]","[0.8, 0.4, 0.2]","[u'blue', u'black', u'red']","[u'left', u'middle', u'right']","[0.8, 0.4, 0.2]","[u'medium', u'low', u'high']","black",50,"middle","low","False","False",236,7550,NA
"A3HE29W5IDR394","Mon Nov 02 2020 13:08:37 GMT-0500 (Eastern Standard Time)","Mon Nov 02 2020 14:58:28 GMT-0500 (Eastern Standard Time)","Mozilla/5.0 (X11; Fedora; Linux x86_64) AppleWebKit/537.36 (KHTML, like Gecko) Chrome/86.0.4240.111 Safari/537.36",135,"[0.9, 0.5, 0.1]","[0.8, 0.4, 0.2]","[u'blue', u'black', u'red']","[u'left', u'middle', u'right']","[0.8, 0.4, 0.2]","[u'medium', u'low', u'high']","black",50,"middle","low","False","False",234,7500,NA
"A3HE29W5IDR394","Mon Nov 02 2020 13:08:37 GMT-0500 (Eastern Standard Time)","Mon Nov 02 2020 14:58:28 GMT-0500 (Eastern Standard Time)","Mozilla/5.0 (X11; Fedora; Linux x86_64) AppleWebKit/537.36 (KHTML, like Gecko) Chrome/86.0.4240.111 Safari/537.36",136,"[0.9, 0.5, 0.1]","[0.8, 0.4, 0.2]","[u'blue', u'black', u'red']","[u'left', u'middle', u'right']","[0.8, 0.4, 0.2]","[u'medium', u'low', u'high']","red",51,"right","high","True","False",201,7600,NA
"A3HE29W5IDR394","Mon Nov 02 2020 13:08:37 GMT-0500 (Eastern Standard Time)","Mon Nov 02 2020 14:58:28 GMT-0500 (Eastern Standard Time)","Mozilla/5.0 (X11; Fedora; Linux x86_64) AppleWebKit/537.36 (KHTML, like Gecko) Chrome/86.0.4240.111 Safari/537.36",137,"[0.9, 0.5, 0.1]","[0.8, 0.4, 0.2]","[u'blue', u'black', u'red']","[u'left', u'middle', u'right']","[0.8, 0.4, 0.2]","[u'medium', u'low', u'high']","red",51,"right","high","True","False",266,7700,NA
"A3HE29W5IDR394","Mon Nov 02 2020 13:08:37 GMT-0500 (Eastern Standard Time)","Mon Nov 02 2020 14:58:28 GMT-0500 (Eastern Standard Time)","Mozilla/5.0 (X11; Fedora; Linux x86_64) AppleWebKit/537.36 (KHTML, like Gecko) Chrome/86.0.4240.111 Safari/537.36",138,"[0.9, 0.5, 0.1]","[0.8, 0.4, 0.2]","[u'blue', u'black', u'red']","[u'left', u'middle', u'right']","[0.8, 0.4, 0.2]","[u'medium', u'low', u'high']","red",51,"right","high","True","False",260,7800,NA
"A3HE29W5IDR394","Mon Nov 02 2020 13:08:37 GMT-0500 (Eastern Standard Time)","Mon Nov 02 2020 14:58:28 GMT-0500 (Eastern Standard Time)","Mozilla/5.0 (X11; Fedora; Linux x86_64) AppleWebKit/537.36 (KHTML, like Gecko) Chrome/86.0.4240.111 Safari/537.36",139,"[0.9, 0.5, 0.1]","[0.8, 0.4, 0.2]","[u'blue', u'black', u'red']","[u'left', u'middle', u'right']","[0.8, 0.4, 0.2]","[u'medium', u'low', u'high']","red",51,"right","high","True","False",315,7900,NA
"A3HE29W5IDR394","Mon Nov 02 2020 13:08:37 GMT-0500 (Eastern Standard Time)","Mon Nov 02 2020 14:58:28 GMT-0500 (Eastern Standard Time)","Mozilla/5.0 (X11; Fedora; Linux x86_64) AppleWebKit/537.36 (KHTML, like Gecko) Chrome/86.0.4240.111 Safari/537.36",140,"[0.9, 0.5, 0.1]","[0.8, 0.4, 0.2]","[u'blue', u'black', u'red']","[u'left', u'middle', u'right']","[0.8, 0.4, 0.2]","[u'medium', u'low', u'high']","red",51,"right","high","True","False",360,8000,NA
"A3HE29W5IDR394","Mon Nov 02 2020 13:08:37 GMT-0500 (Eastern Standard Time)","Mon Nov 02 2020 14:58:28 GMT-0500 (Eastern Standard Time)","Mozilla/5.0 (X11; Fedora; Linux x86_64) AppleWebKit/537.36 (KHTML, like Gecko) Chrome/86.0.4240.111 Safari/537.36",141,"[0.9, 0.5, 0.1]","[0.8, 0.4, 0.2]","[u'blue', u'black', u'red']","[u'left', u'middle', u'right']","[0.8, 0.4, 0.2]","[u'medium', u'low', u'high']","red",51,"right","high","True","False",344,8100,NA
"A3HE29W5IDR394","Mon Nov 02 2020 13:08:37 GMT-0500 (Eastern Standard Time)","Mon Nov 02 2020 14:58:28 GMT-0500 (Eastern Standard Time)","Mozilla/5.0 (X11; Fedora; Linux x86_64) AppleWebKit/537.36 (KHTML, like Gecko) Chrome/86.0.4240.111 Safari/537.36",142,"[0.9, 0.5, 0.1]","[0.8, 0.4, 0.2]","[u'blue', u'black', u'red']","[u'left', u'middle', u'right']","[0.8, 0.4, 0.2]","[u'medium', u'low', u'high']","red",51,"right","high","True","False",311,8200,NA
"A3HE29W5IDR394","Mon Nov 02 2020 13:08:37 GMT-0500 (Eastern Standard Time)","Mon Nov 02 2020 14:58:28 GMT-0500 (Eastern Standard Time)","Mozilla/5.0 (X11; Fedora; Linux x86_64) AppleWebKit/537.36 (KHTML, like Gecko) Chrome/86.0.4240.111 Safari/537.36",143,"[0.9, 0.5, 0.1]","[0.8, 0.4, 0.2]","[u'blue', u'black', u'red']","[u'left', u'middle', u'right']","[0.8, 0.4, 0.2]","[u'medium', u'low', u'high']","red",51,"right","high","True","False",538,8300,NA
"A3HE29W5IDR394","Mon Nov 02 2020 13:08:37 GMT-0500 (Eastern Standard Time)","Mon Nov 02 2020 14:58:28 GMT-0500 (Eastern Standard Time)","Mozilla/5.0 (X11; Fedora; Linux x86_64) AppleWebKit/537.36 (KHTML, like Gecko) Chrome/86.0.4240.111 Safari/537.36",144,"[0.9, 0.5, 0.1]","[0.8, 0.4, 0.2]","[u'blue', u'black', u'red']","[u'left', u'middle', u'right']","[0.8, 0.4, 0.2]","[u'medium', u'low', u'high']","red",51,"right","high","False","True",254,8250,NA
"A3HE29W5IDR394","Mon Nov 02 2020 13:08:37 GMT-0500 (Eastern Standard Time)","Mon Nov 02 2020 14:58:28 GMT-0500 (Eastern Standard Time)","Mozilla/5.0 (X11; Fedora; Linux x86_64) AppleWebKit/537.36 (KHTML, like Gecko) Chrome/86.0.4240.111 Safari/537.36",145,"[0.9, 0.5, 0.1]","[0.8, 0.4, 0.2]","[u'blue', u'black', u'red']","[u'left', u'middle', u'right']","[0.8, 0.4, 0.2]","[u'high', u'low', u'medium']","red",51,"right","medium","False","False",217,8200,NA
"A3HE29W5IDR394","Mon Nov 02 2020 13:08:37 GMT-0500 (Eastern Standard Time)","Mon Nov 02 2020 14:58:28 GMT-0500 (Eastern Standard Time)","Mozilla/5.0 (X11; Fedora; Linux x86_64) AppleWebKit/537.36 (KHTML, like Gecko) Chrome/86.0.4240.111 Safari/537.36",146,"[0.9, 0.5, 0.1]","[0.8, 0.4, 0.2]","[u'blue', u'black', u'red']","[u'left', u'middle', u'right']","[0.8, 0.4, 0.2]","[u'high', u'low', u'medium']","blue",49,"left","high","True","False",244,8300,NA
"A3HE29W5IDR394","Mon Nov 02 2020 13:08:37 GMT-0500 (Eastern Standard Time)","Mon Nov 02 2020 14:58:28 GMT-0500 (Eastern Standard Time)","Mozilla/5.0 (X11; Fedora; Linux x86_64) AppleWebKit/537.36 (KHTML, like Gecko) Chrome/86.0.4240.111 Safari/537.36",147,"[0.9, 0.5, 0.1]","[0.8, 0.4, 0.2]","[u'blue', u'black', u'red']","[u'left', u'middle', u'right']","[0.8, 0.4, 0.2]","[u'high', u'low', u'medium']","blue",49,"left","high","False","False",250,8250,NA
"A3HE29W5IDR394","Mon Nov 02 2020 13:08:37 GMT-0500 (Eastern Standard Time)","Mon Nov 02 2020 14:58:28 GMT-0500 (Eastern Standard Time)","Mozilla/5.0 (X11; Fedora; Linux x86_64) AppleWebKit/537.36 (KHTML, like Gecko) Chrome/86.0.4240.111 Safari/537.36",148,"[0.9, 0.5, 0.1]","[0.8, 0.4, 0.2]","[u'blue', u'black', u'red']","[u'left', u'middle', u'right']","[0.8, 0.4, 0.2]","[u'high', u'low', u'medium']","blue",49,"left","high","True","False",224,8350,NA
"A3HE29W5IDR394","Mon Nov 02 2020 13:08:37 GMT-0500 (Eastern Standard Time)","Mon Nov 02 2020 14:58:28 GMT-0500 (Eastern Standard Time)","Mozilla/5.0 (X11; Fedora; Linux x86_64) AppleWebKit/537.36 (KHTML, like Gecko) Chrome/86.0.4240.111 Safari/537.36",149,"[0.9, 0.5, 0.1]","[0.8, 0.4, 0.2]","[u'blue', u'black', u'red']","[u'left', u'middle', u'right']","[0.8, 0.4, 0.2]","[u'high', u'low', u'medium']","blue",49,"left","high","True","False",244,8450,NA
"A3HE29W5IDR394","Mon Nov 02 2020 13:08:37 GMT-0500 (Eastern Standard Time)","Mon Nov 02 2020 14:58:28 GMT-0500 (Eastern Standard Time)","Mozilla/5.0 (X11; Fedora; Linux x86_64) AppleWebKit/537.36 (KHTML, like Gecko) Chrome/86.0.4240.111 Safari/537.36",150,"[0.9, 0.5, 0.1]","[0.8, 0.4, 0.2]","[u'blue', u'black', u'red']","[u'left', u'middle', u'right']","[0.8, 0.4, 0.2]","[u'high', u'low', u'medium']","blue",49,"left","high","True","False",325,8550,NA
"A3HE29W5IDR394","Mon Nov 02 2020 13:08:37 GMT-0500 (Eastern Standard Time)","Mon Nov 02 2020 14:58:28 GMT-0500 (Eastern Standard Time)","Mozilla/5.0 (X11; Fedora; Linux x86_64) AppleWebKit/537.36 (KHTML, like Gecko) Chrome/86.0.4240.111 Safari/537.36",151,"[0.9, 0.5, 0.1]","[0.8, 0.4, 0.2]","[u'blue', u'black', u'red']","[u'left', u'middle', u'right']","[0.8, 0.4, 0.2]","[u'high', u'low', u'medium']","blue",49,"left","high","False","False",277,8500,NA
"A3HE29W5IDR394","Mon Nov 02 2020 13:08:37 GMT-0500 (Eastern Standard Time)","Mon Nov 02 2020 14:58:28 GMT-0500 (Eastern Standard Time)","Mozilla/5.0 (X11; Fedora; Linux x86_64) AppleWebKit/537.36 (KHTML, like Gecko) Chrome/86.0.4240.111 Safari/537.36",152,"[0.9, 0.5, 0.1]","[0.8, 0.4, 0.2]","[u'blue', u'black', u'red']","[u'left', u'middle', u'right']","[0.8, 0.4, 0.2]","[u'high', u'low', u'medium']","blue",49,"left","high","True","False",138,8600,NA
"A3HE29W5IDR394","Mon Nov 02 2020 13:08:37 GMT-0500 (Eastern Standard Time)","Mon Nov 02 2020 14:58:28 GMT-0500 (Eastern Standard Time)","Mozilla/5.0 (X11; Fedora; Linux x86_64) AppleWebKit/537.36 (KHTML, like Gecko) Chrome/86.0.4240.111 Safari/537.36",153,"[0.9, 0.5, 0.1]","[0.8, 0.4, 0.2]","[u'blue', u'black', u'red']","[u'left', u'middle', u'right']","[0.8, 0.4, 0.2]","[u'high', u'low', u'medium']","blue",49,"left","high","True","False",238,8700,NA
"A3HE29W5IDR394","Mon Nov 02 2020 13:08:37 GMT-0500 (Eastern Standard Time)","Mon Nov 02 2020 14:58:28 GMT-0500 (Eastern Standard Time)","Mozilla/5.0 (X11; Fedora; Linux x86_64) AppleWebKit/537.36 (KHTML, like Gecko) Chrome/86.0.4240.111 Safari/537.36",154,"[0.9, 0.5, 0.1]","[0.8, 0.4, 0.2]","[u'blue', u'black', u'red']","[u'left', u'middle', u'right']","[0.8, 0.4, 0.2]","[u'high', u'low', u'medium']","blue",49,"left","high","False","True",232,8650,NA
"A3HE29W5IDR394","Mon Nov 02 2020 13:08:37 GMT-0500 (Eastern Standard Time)","Mon Nov 02 2020 14:58:28 GMT-0500 (Eastern Standard Time)","Mozilla/5.0 (X11; Fedora; Linux x86_64) AppleWebKit/537.36 (KHTML, like Gecko) Chrome/86.0.4240.111 Safari/537.36",155,"[0.9, 0.5, 0.1]","[0.8, 0.4, 0.2]","[u'blue', u'black', u'red']","[u'left', u'middle', u'right']","[0.8, 0.4, 0.2]","[u'medium', u'high', u'low']","blue",49,"left","medium","True","False",266,8750,NA
"A3HE29W5IDR394","Mon Nov 02 2020 13:08:37 GMT-0500 (Eastern Standard Time)","Mon Nov 02 2020 14:58:28 GMT-0500 (Eastern Standard Time)","Mozilla/5.0 (X11; Fedora; Linux x86_64) AppleWebKit/537.36 (KHTML, like Gecko) Chrome/86.0.4240.111 Safari/537.36",156,"[0.9, 0.5, 0.1]","[0.8, 0.4, 0.2]","[u'blue', u'black', u'red']","[u'left', u'middle', u'right']","[0.8, 0.4, 0.2]","[u'medium', u'high', u'low']","blue",49,"left","medium","False","False",258,8700,NA
"A3HE29W5IDR394","Mon Nov 02 2020 13:08:37 GMT-0500 (Eastern Standard Time)","Mon Nov 02 2020 14:58:28 GMT-0500 (Eastern Standard Time)","Mozilla/5.0 (X11; Fedora; Linux x86_64) AppleWebKit/537.36 (KHTML, like Gecko) Chrome/86.0.4240.111 Safari/537.36",157,"[0.9, 0.5, 0.1]","[0.8, 0.4, 0.2]","[u'blue', u'black', u'red']","[u'left', u'middle', u'right']","[0.8, 0.4, 0.2]","[u'medium', u'high', u'low']","blue",49,"left","medium","False","False",252,8650,NA
"A3HE29W5IDR394","Mon Nov 02 2020 13:08:37 GMT-0500 (Eastern Standard Time)","Mon Nov 02 2020 14:58:28 GMT-0500 (Eastern Standard Time)","Mozilla/5.0 (X11; Fedora; Linux x86_64) AppleWebKit/537.36 (KHTML, like Gecko) Chrome/86.0.4240.111 Safari/537.36",158,"[0.9, 0.5, 0.1]","[0.8, 0.4, 0.2]","[u'blue', u'black', u'red']","[u'left', u'middle', u'right']","[0.8, 0.4, 0.2]","[u'medium', u'high', u'low']","black",50,"middle","high","False","False",204,8600,NA
"A3HE29W5IDR394","Mon Nov 02 2020 13:08:37 GMT-0500 (Eastern Standard Time)","Mon Nov 02 2020 14:58:28 GMT-0500 (Eastern Standard Time)","Mozilla/5.0 (X11; Fedora; Linux x86_64) AppleWebKit/537.36 (KHTML, like Gecko) Chrome/86.0.4240.111 Safari/537.36",159,"[0.9, 0.5, 0.1]","[0.8, 0.4, 0.2]","[u'blue', u'black', u'red']","[u'left', u'middle', u'right']","[0.8, 0.4, 0.2]","[u'medium', u'high', u'low']","red",51,"right","low","False","False",586,8550,NA
"A3HE29W5IDR394","Mon Nov 02 2020 13:08:37 GMT-0500 (Eastern Standard Time)","Mon Nov 02 2020 14:58:28 GMT-0500 (Eastern Standard Time)","Mozilla/5.0 (X11; Fedora; Linux x86_64) AppleWebKit/537.36 (KHTML, like Gecko) Chrome/86.0.4240.111 Safari/537.36",160,"[0.9, 0.5, 0.1]","[0.8, 0.4, 0.2]","[u'blue', u'black', u'red']","[u'left', u'middle', u'right']","[0.8, 0.4, 0.2]","[u'medium', u'high', u'low']","black",50,"middle","high","True","False",235,8650,NA
