"src_subject_id","start_time","end_time","browser","index","first_half_probabilities","second_half_probabilities","deck_color","deck_position","deck_probabilities","deck_contingencies","response_color","key_press","response_position","response_probability","reward_type","trial_type","rt","reward_tally","exclusion_reason"
"A10E77ALJR6R1R","Mon Oct 26 2020 18:58:47 GMT+0100 (Central European Standard Time)","Mon Oct 26 2020 19:08:44 GMT+0100 (Central European Standard Time)","Mozilla/5.0 (Windows NT 10.0; Win64; x64) AppleWebKit/537.36 (KHTML, like Gecko) Chrome/86.0.4240.111 Safari/537.36",1,"[0.9, 0.5, 0.1]","[0.8, 0.4, 0.2]","[u'blue', u'red', u'black']","[u'left', u'middle', u'right']","[0.9, 0.5, 0.1]","[u'high', u'medium', u'low']","black",51,"right","low","False","False",868,-50,NA
"A10E77ALJR6R1R","Mon Oct 26 2020 18:58:47 GMT+0100 (Central European Standard Time)","Mon Oct 26 2020 19:08:44 GMT+0100 (Central European Standard Time)","Mozilla/5.0 (Windows NT 10.0; Win64; x64) AppleWebKit/537.36 (KHTML, like Gecko) Chrome/86.0.4240.111 Safari/537.36",2,"[0.9, 0.5, 0.1]","[0.8, 0.4, 0.2]","[u'blue', u'red', u'black']","[u'left', u'middle', u'right']","[0.9, 0.5, 0.1]","[u'high', u'medium', u'low']","blue",49,"left","high","True","False",750,50,NA
"A10E77ALJR6R1R","Mon Oct 26 2020 18:58:47 GMT+0100 (Central European Standard Time)","Mon Oct 26 2020 19:08:44 GMT+0100 (Central European Standard Time)","Mozilla/5.0 (Windows NT 10.0; Win64; x64) AppleWebKit/537.36 (KHTML, like Gecko) Chrome/86.0.4240.111 Safari/537.36",3,"[0.9, 0.5, 0.1]","[0.8, 0.4, 0.2]","[u'blue', u'red', u'black']","[u'left', u'middle', u'right']","[0.9, 0.5, 0.1]","[u'high', u'medium', u'low']","blue",49,"left","high","True","False",752,150,NA
"A10E77ALJR6R1R","Mon Oct 26 2020 18:58:47 GMT+0100 (Central European Standard Time)","Mon Oct 26 2020 19:08:44 GMT+0100 (Central European Standard Time)","Mozilla/5.0 (Windows NT 10.0; Win64; x64) AppleWebKit/537.36 (KHTML, like Gecko) Chrome/86.0.4240.111 Safari/537.36",4,"[0.9, 0.5, 0.1]","[0.8, 0.4, 0.2]","[u'blue', u'red', u'black']","[u'left', u'middle', u'right']","[0.9, 0.5, 0.1]","[u'high', u'medium', u'low']","blue",49,"left","high","True","False",738,250,NA
"A10E77ALJR6R1R","Mon Oct 26 2020 18:58:47 GMT+0100 (Central European Standard Time)","Mon Oct 26 2020 19:08:44 GMT+0100 (Central European Standard Time)","Mozilla/5.0 (Windows NT 10.0; Win64; x64) AppleWebKit/537.36 (KHTML, like Gecko) Chrome/86.0.4240.111 Safari/537.36",5,"[0.9, 0.5, 0.1]","[0.8, 0.4, 0.2]","[u'blue', u'red', u'black']","[u'left', u'middle', u'right']","[0.9, 0.5, 0.1]","[u'high', u'medium', u'low']","blue",49,"left","high","True","False",819,350,NA
"A10E77ALJR6R1R","Mon Oct 26 2020 18:58:47 GMT+0100 (Central European Standard Time)","Mon Oct 26 2020 19:08:44 GMT+0100 (Central European Standard Time)","Mozilla/5.0 (Windows NT 10.0; Win64; x64) AppleWebKit/537.36 (KHTML, like Gecko) Chrome/86.0.4240.111 Safari/537.36",6,"[0.9, 0.5, 0.1]","[0.8, 0.4, 0.2]","[u'blue', u'red', u'black']","[u'left', u'middle', u'right']","[0.9, 0.5, 0.1]","[u'high', u'medium', u'low']","blue",49,"left","high","True","False",933,450,NA
"A10E77ALJR6R1R","Mon Oct 26 2020 18:58:47 GMT+0100 (Central European Standard Time)","Mon Oct 26 2020 19:08:44 GMT+0100 (Central European Standard Time)","Mozilla/5.0 (Windows NT 10.0; Win64; x64) AppleWebKit/537.36 (KHTML, like Gecko) Chrome/86.0.4240.111 Safari/537.36",7,"[0.9, 0.5, 0.1]","[0.8, 0.4, 0.2]","[u'blue', u'red', u'black']","[u'left', u'middle', u'right']","[0.9, 0.5, 0.1]","[u'high', u'medium', u'low']","black",51,"right","low","False","False",6292,400,NA
"A10E77ALJR6R1R","Mon Oct 26 2020 18:58:47 GMT+0100 (Central European Standard Time)","Mon Oct 26 2020 19:08:44 GMT+0100 (Central European Standard Time)","Mozilla/5.0 (Windows NT 10.0; Win64; x64) AppleWebKit/537.36 (KHTML, like Gecko) Chrome/86.0.4240.111 Safari/537.36",8,"[0.9, 0.5, 0.1]","[0.8, 0.4, 0.2]","[u'blue', u'red', u'black']","[u'left', u'middle', u'right']","[0.9, 0.5, 0.1]","[u'high', u'medium', u'low']","black",51,"right","low","False","False",5488,350,NA
"A10E77ALJR6R1R","Mon Oct 26 2020 18:58:47 GMT+0100 (Central European Standard Time)","Mon Oct 26 2020 19:08:44 GMT+0100 (Central European Standard Time)","Mozilla/5.0 (Windows NT 10.0; Win64; x64) AppleWebKit/537.36 (KHTML, like Gecko) Chrome/86.0.4240.111 Safari/537.36",9,"[0.9, 0.5, 0.1]","[0.8, 0.4, 0.2]","[u'blue', u'red', u'black']","[u'left', u'middle', u'right']","[0.9, 0.5, 0.1]","[u'high', u'medium', u'low']","blue",49,"left","high","True","False",1026,450,NA
"A10E77ALJR6R1R","Mon Oct 26 2020 18:58:47 GMT+0100 (Central European Standard Time)","Mon Oct 26 2020 19:08:44 GMT+0100 (Central European Standard Time)","Mozilla/5.0 (Windows NT 10.0; Win64; x64) AppleWebKit/537.36 (KHTML, like Gecko) Chrome/86.0.4240.111 Safari/537.36",10,"[0.9, 0.5, 0.1]","[0.8, 0.4, 0.2]","[u'blue', u'red', u'black']","[u'left', u'middle', u'right']","[0.9, 0.5, 0.1]","[u'high', u'medium', u'low']","red",50,"middle","medium","True","False",687,550,NA
"A10E77ALJR6R1R","Mon Oct 26 2020 18:58:47 GMT+0100 (Central European Standard Time)","Mon Oct 26 2020 19:08:44 GMT+0100 (Central European Standard Time)","Mozilla/5.0 (Windows NT 10.0; Win64; x64) AppleWebKit/537.36 (KHTML, like Gecko) Chrome/86.0.4240.111 Safari/537.36",11,"[0.9, 0.5, 0.1]","[0.8, 0.4, 0.2]","[u'blue', u'red', u'black']","[u'left', u'middle', u'right']","[0.9, 0.5, 0.1]","[u'high', u'medium', u'low']","blue",49,"left","high","True","False",901,650,NA
"A10E77ALJR6R1R","Mon Oct 26 2020 18:58:47 GMT+0100 (Central European Standard Time)","Mon Oct 26 2020 19:08:44 GMT+0100 (Central European Standard Time)","Mozilla/5.0 (Windows NT 10.0; Win64; x64) AppleWebKit/537.36 (KHTML, like Gecko) Chrome/86.0.4240.111 Safari/537.36",12,"[0.9, 0.5, 0.1]","[0.8, 0.4, 0.2]","[u'blue', u'red', u'black']","[u'left', u'middle', u'right']","[0.9, 0.5, 0.1]","[u'high', u'medium', u'low']","black",51,"right","low","False","False",1012,600,NA
"A10E77ALJR6R1R","Mon Oct 26 2020 18:58:47 GMT+0100 (Central European Standard Time)","Mon Oct 26 2020 19:08:44 GMT+0100 (Central European Standard Time)","Mozilla/5.0 (Windows NT 10.0; Win64; x64) AppleWebKit/537.36 (KHTML, like Gecko) Chrome/86.0.4240.111 Safari/537.36",13,"[0.9, 0.5, 0.1]","[0.8, 0.4, 0.2]","[u'blue', u'red', u'black']","[u'left', u'middle', u'right']","[0.9, 0.5, 0.1]","[u'high', u'medium', u'low']","red",50,"middle","medium","True","False",203,700,NA
"A10E77ALJR6R1R","Mon Oct 26 2020 18:58:47 GMT+0100 (Central European Standard Time)","Mon Oct 26 2020 19:08:44 GMT+0100 (Central European Standard Time)","Mozilla/5.0 (Windows NT 10.0; Win64; x64) AppleWebKit/537.36 (KHTML, like Gecko) Chrome/86.0.4240.111 Safari/537.36",14,"[0.9, 0.5, 0.1]","[0.8, 0.4, 0.2]","[u'blue', u'red', u'black']","[u'left', u'middle', u'right']","[0.9, 0.5, 0.1]","[u'high', u'medium', u'low']","blue",49,"left","high","True","False",594,800,NA
"A10E77ALJR6R1R","Mon Oct 26 2020 18:58:47 GMT+0100 (Central European Standard Time)","Mon Oct 26 2020 19:08:44 GMT+0100 (Central European Standard Time)","Mozilla/5.0 (Windows NT 10.0; Win64; x64) AppleWebKit/537.36 (KHTML, like Gecko) Chrome/86.0.4240.111 Safari/537.36",15,"[0.9, 0.5, 0.1]","[0.8, 0.4, 0.2]","[u'blue', u'red', u'black']","[u'left', u'middle', u'right']","[0.9, 0.5, 0.1]","[u'high', u'medium', u'low']","red",50,"middle","medium","False","False",470,750,NA
"A10E77ALJR6R1R","Mon Oct 26 2020 18:58:47 GMT+0100 (Central European Standard Time)","Mon Oct 26 2020 19:08:44 GMT+0100 (Central European Standard Time)","Mozilla/5.0 (Windows NT 10.0; Win64; x64) AppleWebKit/537.36 (KHTML, like Gecko) Chrome/86.0.4240.111 Safari/537.36",16,"[0.9, 0.5, 0.1]","[0.8, 0.4, 0.2]","[u'blue', u'red', u'black']","[u'left', u'middle', u'right']","[0.9, 0.5, 0.1]","[u'high', u'medium', u'low']","blue",49,"left","high","True","False",504,850,NA
"A10E77ALJR6R1R","Mon Oct 26 2020 18:58:47 GMT+0100 (Central European Standard Time)","Mon Oct 26 2020 19:08:44 GMT+0100 (Central European Standard Time)","Mozilla/5.0 (Windows NT 10.0; Win64; x64) AppleWebKit/537.36 (KHTML, like Gecko) Chrome/86.0.4240.111 Safari/537.36",17,"[0.9, 0.5, 0.1]","[0.8, 0.4, 0.2]","[u'blue', u'red', u'black']","[u'left', u'middle', u'right']","[0.9, 0.5, 0.1]","[u'high', u'medium', u'low']","blue",49,"left","high","True","False",595,950,NA
"A10E77ALJR6R1R","Mon Oct 26 2020 18:58:47 GMT+0100 (Central European Standard Time)","Mon Oct 26 2020 19:08:44 GMT+0100 (Central European Standard Time)","Mozilla/5.0 (Windows NT 10.0; Win64; x64) AppleWebKit/537.36 (KHTML, like Gecko) Chrome/86.0.4240.111 Safari/537.36",18,"[0.9, 0.5, 0.1]","[0.8, 0.4, 0.2]","[u'blue', u'red', u'black']","[u'left', u'middle', u'right']","[0.9, 0.5, 0.1]","[u'high', u'medium', u'low']","blue",49,"left","high","True","False",1484,1050,NA
"A10E77ALJR6R1R","Mon Oct 26 2020 18:58:47 GMT+0100 (Central European Standard Time)","Mon Oct 26 2020 19:08:44 GMT+0100 (Central European Standard Time)","Mozilla/5.0 (Windows NT 10.0; Win64; x64) AppleWebKit/537.36 (KHTML, like Gecko) Chrome/86.0.4240.111 Safari/537.36",19,"[0.9, 0.5, 0.1]","[0.8, 0.4, 0.2]","[u'blue', u'red', u'black']","[u'left', u'middle', u'right']","[0.9, 0.5, 0.1]","[u'high', u'medium', u'low']","black",51,"right","low","False","False",382,1000,NA
"A10E77ALJR6R1R","Mon Oct 26 2020 18:58:47 GMT+0100 (Central European Standard Time)","Mon Oct 26 2020 19:08:44 GMT+0100 (Central European Standard Time)","Mozilla/5.0 (Windows NT 10.0; Win64; x64) AppleWebKit/537.36 (KHTML, like Gecko) Chrome/86.0.4240.111 Safari/537.36",20,"[0.9, 0.5, 0.1]","[0.8, 0.4, 0.2]","[u'blue', u'red', u'black']","[u'left', u'middle', u'right']","[0.9, 0.5, 0.1]","[u'high', u'medium', u'low']","red",50,"middle","medium","True","False",296,1100,NA
"A10E77ALJR6R1R","Mon Oct 26 2020 18:58:47 GMT+0100 (Central European Standard Time)","Mon Oct 26 2020 19:08:44 GMT+0100 (Central European Standard Time)","Mozilla/5.0 (Windows NT 10.0; Win64; x64) AppleWebKit/537.36 (KHTML, like Gecko) Chrome/86.0.4240.111 Safari/537.36",21,"[0.9, 0.5, 0.1]","[0.8, 0.4, 0.2]","[u'blue', u'red', u'black']","[u'left', u'middle', u'right']","[0.9, 0.5, 0.1]","[u'high', u'medium', u'low']","blue",49,"left","high","True","False",614,1200,NA
"A10E77ALJR6R1R","Mon Oct 26 2020 18:58:47 GMT+0100 (Central European Standard Time)","Mon Oct 26 2020 19:08:44 GMT+0100 (Central European Standard Time)","Mozilla/5.0 (Windows NT 10.0; Win64; x64) AppleWebKit/537.36 (KHTML, like Gecko) Chrome/86.0.4240.111 Safari/537.36",22,"[0.9, 0.5, 0.1]","[0.8, 0.4, 0.2]","[u'blue', u'red', u'black']","[u'left', u'middle', u'right']","[0.9, 0.5, 0.1]","[u'high', u'medium', u'low']","blue",49,"left","high","False","False",717,1150,NA
"A10E77ALJR6R1R","Mon Oct 26 2020 18:58:47 GMT+0100 (Central European Standard Time)","Mon Oct 26 2020 19:08:44 GMT+0100 (Central European Standard Time)","Mozilla/5.0 (Windows NT 10.0; Win64; x64) AppleWebKit/537.36 (KHTML, like Gecko) Chrome/86.0.4240.111 Safari/537.36",23,"[0.9, 0.5, 0.1]","[0.8, 0.4, 0.2]","[u'blue', u'red', u'black']","[u'left', u'middle', u'right']","[0.9, 0.5, 0.1]","[u'high', u'medium', u'low']","red",50,"middle","medium","False","False",693,1100,NA
"A10E77ALJR6R1R","Mon Oct 26 2020 18:58:47 GMT+0100 (Central European Standard Time)","Mon Oct 26 2020 19:08:44 GMT+0100 (Central European Standard Time)","Mozilla/5.0 (Windows NT 10.0; Win64; x64) AppleWebKit/537.36 (KHTML, like Gecko) Chrome/86.0.4240.111 Safari/537.36",24,"[0.9, 0.5, 0.1]","[0.8, 0.4, 0.2]","[u'blue', u'red', u'black']","[u'left', u'middle', u'right']","[0.9, 0.5, 0.1]","[u'high', u'medium', u'low']","black",51,"right","low","False","False",352,1050,NA
"A10E77ALJR6R1R","Mon Oct 26 2020 18:58:47 GMT+0100 (Central European Standard Time)","Mon Oct 26 2020 19:08:44 GMT+0100 (Central European Standard Time)","Mozilla/5.0 (Windows NT 10.0; Win64; x64) AppleWebKit/537.36 (KHTML, like Gecko) Chrome/86.0.4240.111 Safari/537.36",25,"[0.9, 0.5, 0.1]","[0.8, 0.4, 0.2]","[u'blue', u'red', u'black']","[u'left', u'middle', u'right']","[0.9, 0.5, 0.1]","[u'high', u'medium', u'low']","black",51,"right","low","False","False",740,1000,NA
"A10E77ALJR6R1R","Mon Oct 26 2020 18:58:47 GMT+0100 (Central European Standard Time)","Mon Oct 26 2020 19:08:44 GMT+0100 (Central European Standard Time)","Mozilla/5.0 (Windows NT 10.0; Win64; x64) AppleWebKit/537.36 (KHTML, like Gecko) Chrome/86.0.4240.111 Safari/537.36",26,"[0.9, 0.5, 0.1]","[0.8, 0.4, 0.2]","[u'blue', u'red', u'black']","[u'left', u'middle', u'right']","[0.9, 0.5, 0.1]","[u'high', u'medium', u'low']","red",50,"middle","medium","False","False",842,950,NA
"A10E77ALJR6R1R","Mon Oct 26 2020 18:58:47 GMT+0100 (Central European Standard Time)","Mon Oct 26 2020 19:08:44 GMT+0100 (Central European Standard Time)","Mozilla/5.0 (Windows NT 10.0; Win64; x64) AppleWebKit/537.36 (KHTML, like Gecko) Chrome/86.0.4240.111 Safari/537.36",27,"[0.9, 0.5, 0.1]","[0.8, 0.4, 0.2]","[u'blue', u'red', u'black']","[u'left', u'middle', u'right']","[0.9, 0.5, 0.1]","[u'high', u'medium', u'low']","blue",49,"left","high","True","False",444,1050,NA
"A10E77ALJR6R1R","Mon Oct 26 2020 18:58:47 GMT+0100 (Central European Standard Time)","Mon Oct 26 2020 19:08:44 GMT+0100 (Central European Standard Time)","Mozilla/5.0 (Windows NT 10.0; Win64; x64) AppleWebKit/537.36 (KHTML, like Gecko) Chrome/86.0.4240.111 Safari/537.36",28,"[0.9, 0.5, 0.1]","[0.8, 0.4, 0.2]","[u'blue', u'red', u'black']","[u'left', u'middle', u'right']","[0.9, 0.5, 0.1]","[u'high', u'medium', u'low']","blue",49,"left","high","True","False",1270,1150,NA
"A10E77ALJR6R1R","Mon Oct 26 2020 18:58:47 GMT+0100 (Central European Standard Time)","Mon Oct 26 2020 19:08:44 GMT+0100 (Central European Standard Time)","Mozilla/5.0 (Windows NT 10.0; Win64; x64) AppleWebKit/537.36 (KHTML, like Gecko) Chrome/86.0.4240.111 Safari/537.36",29,"[0.9, 0.5, 0.1]","[0.8, 0.4, 0.2]","[u'blue', u'red', u'black']","[u'left', u'middle', u'right']","[0.9, 0.5, 0.1]","[u'high', u'medium', u'low']","blue",49,"left","high","False","False",100,1100,NA
"A10E77ALJR6R1R","Mon Oct 26 2020 18:58:47 GMT+0100 (Central European Standard Time)","Mon Oct 26 2020 19:08:44 GMT+0100 (Central European Standard Time)","Mozilla/5.0 (Windows NT 10.0; Win64; x64) AppleWebKit/537.36 (KHTML, like Gecko) Chrome/86.0.4240.111 Safari/537.36",30,"[0.9, 0.5, 0.1]","[0.8, 0.4, 0.2]","[u'blue', u'red', u'black']","[u'left', u'middle', u'right']","[0.9, 0.5, 0.1]","[u'high', u'medium', u'low']","red",50,"middle","medium","False","False",364,1050,NA
"A10E77ALJR6R1R","Mon Oct 26 2020 18:58:47 GMT+0100 (Central European Standard Time)","Mon Oct 26 2020 19:08:44 GMT+0100 (Central European Standard Time)","Mozilla/5.0 (Windows NT 10.0; Win64; x64) AppleWebKit/537.36 (KHTML, like Gecko) Chrome/86.0.4240.111 Safari/537.36",31,"[0.9, 0.5, 0.1]","[0.8, 0.4, 0.2]","[u'blue', u'red', u'black']","[u'left', u'middle', u'right']","[0.9, 0.5, 0.1]","[u'high', u'medium', u'low']","red",50,"middle","medium","True","False",951,1150,NA
"A10E77ALJR6R1R","Mon Oct 26 2020 18:58:47 GMT+0100 (Central European Standard Time)","Mon Oct 26 2020 19:08:44 GMT+0100 (Central European Standard Time)","Mozilla/5.0 (Windows NT 10.0; Win64; x64) AppleWebKit/537.36 (KHTML, like Gecko) Chrome/86.0.4240.111 Safari/537.36",32,"[0.9, 0.5, 0.1]","[0.8, 0.4, 0.2]","[u'blue', u'red', u'black']","[u'left', u'middle', u'right']","[0.9, 0.5, 0.1]","[u'high', u'medium', u'low']","red",50,"middle","medium","False","False",694,1100,NA
"A10E77ALJR6R1R","Mon Oct 26 2020 18:58:47 GMT+0100 (Central European Standard Time)","Mon Oct 26 2020 19:08:44 GMT+0100 (Central European Standard Time)","Mozilla/5.0 (Windows NT 10.0; Win64; x64) AppleWebKit/537.36 (KHTML, like Gecko) Chrome/86.0.4240.111 Safari/537.36",33,"[0.9, 0.5, 0.1]","[0.8, 0.4, 0.2]","[u'blue', u'red', u'black']","[u'left', u'middle', u'right']","[0.9, 0.5, 0.1]","[u'high', u'medium', u'low']","black",51,"right","low","False","False",698,1050,NA
"A10E77ALJR6R1R","Mon Oct 26 2020 18:58:47 GMT+0100 (Central European Standard Time)","Mon Oct 26 2020 19:08:44 GMT+0100 (Central European Standard Time)","Mozilla/5.0 (Windows NT 10.0; Win64; x64) AppleWebKit/537.36 (KHTML, like Gecko) Chrome/86.0.4240.111 Safari/537.36",34,"[0.9, 0.5, 0.1]","[0.8, 0.4, 0.2]","[u'blue', u'red', u'black']","[u'left', u'middle', u'right']","[0.9, 0.5, 0.1]","[u'high', u'medium', u'low']","red",50,"middle","medium","False","False",669,1000,NA
"A10E77ALJR6R1R","Mon Oct 26 2020 18:58:47 GMT+0100 (Central European Standard Time)","Mon Oct 26 2020 19:08:44 GMT+0100 (Central European Standard Time)","Mozilla/5.0 (Windows NT 10.0; Win64; x64) AppleWebKit/537.36 (KHTML, like Gecko) Chrome/86.0.4240.111 Safari/537.36",35,"[0.9, 0.5, 0.1]","[0.8, 0.4, 0.2]","[u'blue', u'red', u'black']","[u'left', u'middle', u'right']","[0.9, 0.5, 0.1]","[u'high', u'medium', u'low']","blue",49,"left","high","True","False",329,1100,NA
"A10E77ALJR6R1R","Mon Oct 26 2020 18:58:47 GMT+0100 (Central European Standard Time)","Mon Oct 26 2020 19:08:44 GMT+0100 (Central European Standard Time)","Mozilla/5.0 (Windows NT 10.0; Win64; x64) AppleWebKit/537.36 (KHTML, like Gecko) Chrome/86.0.4240.111 Safari/537.36",36,"[0.9, 0.5, 0.1]","[0.8, 0.4, 0.2]","[u'blue', u'red', u'black']","[u'left', u'middle', u'right']","[0.9, 0.5, 0.1]","[u'high', u'medium', u'low']","blue",49,"left","high","False","False",1603,1050,NA
"A10E77ALJR6R1R","Mon Oct 26 2020 18:58:47 GMT+0100 (Central European Standard Time)","Mon Oct 26 2020 19:08:44 GMT+0100 (Central European Standard Time)","Mozilla/5.0 (Windows NT 10.0; Win64; x64) AppleWebKit/537.36 (KHTML, like Gecko) Chrome/86.0.4240.111 Safari/537.36",37,"[0.9, 0.5, 0.1]","[0.8, 0.4, 0.2]","[u'blue', u'red', u'black']","[u'left', u'middle', u'right']","[0.9, 0.5, 0.1]","[u'high', u'medium', u'low']","red",50,"middle","medium","False","False",685,1000,NA
"A10E77ALJR6R1R","Mon Oct 26 2020 18:58:47 GMT+0100 (Central European Standard Time)","Mon Oct 26 2020 19:08:44 GMT+0100 (Central European Standard Time)","Mozilla/5.0 (Windows NT 10.0; Win64; x64) AppleWebKit/537.36 (KHTML, like Gecko) Chrome/86.0.4240.111 Safari/537.36",38,"[0.9, 0.5, 0.1]","[0.8, 0.4, 0.2]","[u'blue', u'red', u'black']","[u'left', u'middle', u'right']","[0.9, 0.5, 0.1]","[u'high', u'medium', u'low']","red",50,"middle","medium","False","False",928,950,NA
"A10E77ALJR6R1R","Mon Oct 26 2020 18:58:47 GMT+0100 (Central European Standard Time)","Mon Oct 26 2020 19:08:44 GMT+0100 (Central European Standard Time)","Mozilla/5.0 (Windows NT 10.0; Win64; x64) AppleWebKit/537.36 (KHTML, like Gecko) Chrome/86.0.4240.111 Safari/537.36",39,"[0.9, 0.5, 0.1]","[0.8, 0.4, 0.2]","[u'blue', u'red', u'black']","[u'left', u'middle', u'right']","[0.9, 0.5, 0.1]","[u'high', u'medium', u'low']","blue",49,"left","high","True","False",656,1050,NA
"A10E77ALJR6R1R","Mon Oct 26 2020 18:58:47 GMT+0100 (Central European Standard Time)","Mon Oct 26 2020 19:08:44 GMT+0100 (Central European Standard Time)","Mozilla/5.0 (Windows NT 10.0; Win64; x64) AppleWebKit/537.36 (KHTML, like Gecko) Chrome/86.0.4240.111 Safari/537.36",40,"[0.9, 0.5, 0.1]","[0.8, 0.4, 0.2]","[u'blue', u'red', u'black']","[u'left', u'middle', u'right']","[0.9, 0.5, 0.1]","[u'high', u'medium', u'low']","red",50,"middle","medium","True","False",3141,1150,NA
"A10E77ALJR6R1R","Mon Oct 26 2020 18:58:47 GMT+0100 (Central European Standard Time)","Mon Oct 26 2020 19:08:44 GMT+0100 (Central European Standard Time)","Mozilla/5.0 (Windows NT 10.0; Win64; x64) AppleWebKit/537.36 (KHTML, like Gecko) Chrome/86.0.4240.111 Safari/537.36",41,"[0.9, 0.5, 0.1]","[0.8, 0.4, 0.2]","[u'blue', u'red', u'black']","[u'left', u'middle', u'right']","[0.9, 0.5, 0.1]","[u'low', u'high', u'medium']","blue",49,"left","low","False","False",1444,1100,NA
"A10E77ALJR6R1R","Mon Oct 26 2020 18:58:47 GMT+0100 (Central European Standard Time)","Mon Oct 26 2020 19:08:44 GMT+0100 (Central European Standard Time)","Mozilla/5.0 (Windows NT 10.0; Win64; x64) AppleWebKit/537.36 (KHTML, like Gecko) Chrome/86.0.4240.111 Safari/537.36",42,"[0.9, 0.5, 0.1]","[0.8, 0.4, 0.2]","[u'blue', u'red', u'black']","[u'left', u'middle', u'right']","[0.9, 0.5, 0.1]","[u'low', u'high', u'medium']","red",50,"middle","high","True","False",834,1200,NA
"A10E77ALJR6R1R","Mon Oct 26 2020 18:58:47 GMT+0100 (Central European Standard Time)","Mon Oct 26 2020 19:08:44 GMT+0100 (Central European Standard Time)","Mozilla/5.0 (Windows NT 10.0; Win64; x64) AppleWebKit/537.36 (KHTML, like Gecko) Chrome/86.0.4240.111 Safari/537.36",43,"[0.9, 0.5, 0.1]","[0.8, 0.4, 0.2]","[u'blue', u'red', u'black']","[u'left', u'middle', u'right']","[0.9, 0.5, 0.1]","[u'low', u'high', u'medium']","red",50,"middle","high","True","False",776,1300,NA
"A10E77ALJR6R1R","Mon Oct 26 2020 18:58:47 GMT+0100 (Central European Standard Time)","Mon Oct 26 2020 19:08:44 GMT+0100 (Central European Standard Time)","Mozilla/5.0 (Windows NT 10.0; Win64; x64) AppleWebKit/537.36 (KHTML, like Gecko) Chrome/86.0.4240.111 Safari/537.36",44,"[0.9, 0.5, 0.1]","[0.8, 0.4, 0.2]","[u'blue', u'red', u'black']","[u'left', u'middle', u'right']","[0.9, 0.5, 0.1]","[u'low', u'high', u'medium']","black",51,"right","medium","False","False",1888,1250,NA
"A10E77ALJR6R1R","Mon Oct 26 2020 18:58:47 GMT+0100 (Central European Standard Time)","Mon Oct 26 2020 19:08:44 GMT+0100 (Central European Standard Time)","Mozilla/5.0 (Windows NT 10.0; Win64; x64) AppleWebKit/537.36 (KHTML, like Gecko) Chrome/86.0.4240.111 Safari/537.36",45,"[0.9, 0.5, 0.1]","[0.8, 0.4, 0.2]","[u'blue', u'red', u'black']","[u'left', u'middle', u'right']","[0.9, 0.5, 0.1]","[u'low', u'high', u'medium']","red",50,"middle","high","True","False",377,1350,NA
"A10E77ALJR6R1R","Mon Oct 26 2020 18:58:47 GMT+0100 (Central European Standard Time)","Mon Oct 26 2020 19:08:44 GMT+0100 (Central European Standard Time)","Mozilla/5.0 (Windows NT 10.0; Win64; x64) AppleWebKit/537.36 (KHTML, like Gecko) Chrome/86.0.4240.111 Safari/537.36",46,"[0.9, 0.5, 0.1]","[0.8, 0.4, 0.2]","[u'blue', u'red', u'black']","[u'left', u'middle', u'right']","[0.9, 0.5, 0.1]","[u'low', u'high', u'medium']","red",50,"middle","high","True","False",833,1450,NA
"A10E77ALJR6R1R","Mon Oct 26 2020 18:58:47 GMT+0100 (Central European Standard Time)","Mon Oct 26 2020 19:08:44 GMT+0100 (Central European Standard Time)","Mozilla/5.0 (Windows NT 10.0; Win64; x64) AppleWebKit/537.36 (KHTML, like Gecko) Chrome/86.0.4240.111 Safari/537.36",47,"[0.9, 0.5, 0.1]","[0.8, 0.4, 0.2]","[u'blue', u'red', u'black']","[u'left', u'middle', u'right']","[0.9, 0.5, 0.1]","[u'low', u'high', u'medium']","red",50,"middle","high","True","False",2350,1550,NA
"A10E77ALJR6R1R","Mon Oct 26 2020 18:58:47 GMT+0100 (Central European Standard Time)","Mon Oct 26 2020 19:08:44 GMT+0100 (Central European Standard Time)","Mozilla/5.0 (Windows NT 10.0; Win64; x64) AppleWebKit/537.36 (KHTML, like Gecko) Chrome/86.0.4240.111 Safari/537.36",48,"[0.9, 0.5, 0.1]","[0.8, 0.4, 0.2]","[u'blue', u'red', u'black']","[u'left', u'middle', u'right']","[0.9, 0.5, 0.1]","[u'low', u'high', u'medium']","blue",49,"left","low","False","False",813,1500,NA
"A10E77ALJR6R1R","Mon Oct 26 2020 18:58:47 GMT+0100 (Central European Standard Time)","Mon Oct 26 2020 19:08:44 GMT+0100 (Central European Standard Time)","Mozilla/5.0 (Windows NT 10.0; Win64; x64) AppleWebKit/537.36 (KHTML, like Gecko) Chrome/86.0.4240.111 Safari/537.36",49,"[0.9, 0.5, 0.1]","[0.8, 0.4, 0.2]","[u'blue', u'red', u'black']","[u'left', u'middle', u'right']","[0.9, 0.5, 0.1]","[u'low', u'high', u'medium']","red",50,"middle","high","True","False",859,1600,NA
"A10E77ALJR6R1R","Mon Oct 26 2020 18:58:47 GMT+0100 (Central European Standard Time)","Mon Oct 26 2020 19:08:44 GMT+0100 (Central European Standard Time)","Mozilla/5.0 (Windows NT 10.0; Win64; x64) AppleWebKit/537.36 (KHTML, like Gecko) Chrome/86.0.4240.111 Safari/537.36",50,"[0.9, 0.5, 0.1]","[0.8, 0.4, 0.2]","[u'blue', u'red', u'black']","[u'left', u'middle', u'right']","[0.9, 0.5, 0.1]","[u'low', u'high', u'medium']","black",51,"right","medium","True","False",812,1700,NA
"A10E77ALJR6R1R","Mon Oct 26 2020 18:58:47 GMT+0100 (Central European Standard Time)","Mon Oct 26 2020 19:08:44 GMT+0100 (Central European Standard Time)","Mozilla/5.0 (Windows NT 10.0; Win64; x64) AppleWebKit/537.36 (KHTML, like Gecko) Chrome/86.0.4240.111 Safari/537.36",51,"[0.9, 0.5, 0.1]","[0.8, 0.4, 0.2]","[u'blue', u'red', u'black']","[u'left', u'middle', u'right']","[0.9, 0.5, 0.1]","[u'low', u'high', u'medium']","red",50,"middle","high","True","False",808,1800,NA
"A10E77ALJR6R1R","Mon Oct 26 2020 18:58:47 GMT+0100 (Central European Standard Time)","Mon Oct 26 2020 19:08:44 GMT+0100 (Central European Standard Time)","Mozilla/5.0 (Windows NT 10.0; Win64; x64) AppleWebKit/537.36 (KHTML, like Gecko) Chrome/86.0.4240.111 Safari/537.36",52,"[0.9, 0.5, 0.1]","[0.8, 0.4, 0.2]","[u'blue', u'red', u'black']","[u'left', u'middle', u'right']","[0.9, 0.5, 0.1]","[u'low', u'high', u'medium']","red",50,"middle","high","True","False",1177,1900,NA
"A10E77ALJR6R1R","Mon Oct 26 2020 18:58:47 GMT+0100 (Central European Standard Time)","Mon Oct 26 2020 19:08:44 GMT+0100 (Central European Standard Time)","Mozilla/5.0 (Windows NT 10.0; Win64; x64) AppleWebKit/537.36 (KHTML, like Gecko) Chrome/86.0.4240.111 Safari/537.36",53,"[0.9, 0.5, 0.1]","[0.8, 0.4, 0.2]","[u'blue', u'red', u'black']","[u'left', u'middle', u'right']","[0.9, 0.5, 0.1]","[u'low', u'high', u'medium']","red",50,"middle","high","True","False",665,2000,NA
"A10E77ALJR6R1R","Mon Oct 26 2020 18:58:47 GMT+0100 (Central European Standard Time)","Mon Oct 26 2020 19:08:44 GMT+0100 (Central European Standard Time)","Mozilla/5.0 (Windows NT 10.0; Win64; x64) AppleWebKit/537.36 (KHTML, like Gecko) Chrome/86.0.4240.111 Safari/537.36",54,"[0.9, 0.5, 0.1]","[0.8, 0.4, 0.2]","[u'blue', u'red', u'black']","[u'left', u'middle', u'right']","[0.9, 0.5, 0.1]","[u'low', u'high', u'medium']","black",51,"right","medium","False","False",736,1950,NA
"A10E77ALJR6R1R","Mon Oct 26 2020 18:58:47 GMT+0100 (Central European Standard Time)","Mon Oct 26 2020 19:08:44 GMT+0100 (Central European Standard Time)","Mozilla/5.0 (Windows NT 10.0; Win64; x64) AppleWebKit/537.36 (KHTML, like Gecko) Chrome/86.0.4240.111 Safari/537.36",55,"[0.9, 0.5, 0.1]","[0.8, 0.4, 0.2]","[u'blue', u'red', u'black']","[u'left', u'middle', u'right']","[0.9, 0.5, 0.1]","[u'low', u'high', u'medium']","red",50,"middle","high","True","False",665,2050,NA
"A10E77ALJR6R1R","Mon Oct 26 2020 18:58:47 GMT+0100 (Central European Standard Time)","Mon Oct 26 2020 19:08:44 GMT+0100 (Central European Standard Time)","Mozilla/5.0 (Windows NT 10.0; Win64; x64) AppleWebKit/537.36 (KHTML, like Gecko) Chrome/86.0.4240.111 Safari/537.36",56,"[0.9, 0.5, 0.1]","[0.8, 0.4, 0.2]","[u'blue', u'red', u'black']","[u'left', u'middle', u'right']","[0.9, 0.5, 0.1]","[u'low', u'high', u'medium']","blue",49,"left","low","False","False",827,2000,NA
"A10E77ALJR6R1R","Mon Oct 26 2020 18:58:47 GMT+0100 (Central European Standard Time)","Mon Oct 26 2020 19:08:44 GMT+0100 (Central European Standard Time)","Mozilla/5.0 (Windows NT 10.0; Win64; x64) AppleWebKit/537.36 (KHTML, like Gecko) Chrome/86.0.4240.111 Safari/537.36",57,"[0.9, 0.5, 0.1]","[0.8, 0.4, 0.2]","[u'blue', u'red', u'black']","[u'left', u'middle', u'right']","[0.9, 0.5, 0.1]","[u'low', u'high', u'medium']","red",50,"middle","high","True","False",612,2100,NA
"A10E77ALJR6R1R","Mon Oct 26 2020 18:58:47 GMT+0100 (Central European Standard Time)","Mon Oct 26 2020 19:08:44 GMT+0100 (Central European Standard Time)","Mozilla/5.0 (Windows NT 10.0; Win64; x64) AppleWebKit/537.36 (KHTML, like Gecko) Chrome/86.0.4240.111 Safari/537.36",58,"[0.9, 0.5, 0.1]","[0.8, 0.4, 0.2]","[u'blue', u'red', u'black']","[u'left', u'middle', u'right']","[0.9, 0.5, 0.1]","[u'low', u'high', u'medium']","black",51,"right","medium","False","False",642,2050,NA
"A10E77ALJR6R1R","Mon Oct 26 2020 18:58:47 GMT+0100 (Central European Standard Time)","Mon Oct 26 2020 19:08:44 GMT+0100 (Central European Standard Time)","Mozilla/5.0 (Windows NT 10.0; Win64; x64) AppleWebKit/537.36 (KHTML, like Gecko) Chrome/86.0.4240.111 Safari/537.36",59,"[0.9, 0.5, 0.1]","[0.8, 0.4, 0.2]","[u'blue', u'red', u'black']","[u'left', u'middle', u'right']","[0.9, 0.5, 0.1]","[u'low', u'high', u'medium']","red",50,"middle","high","True","False",1582,2150,NA
"A10E77ALJR6R1R","Mon Oct 26 2020 18:58:47 GMT+0100 (Central European Standard Time)","Mon Oct 26 2020 19:08:44 GMT+0100 (Central European Standard Time)","Mozilla/5.0 (Windows NT 10.0; Win64; x64) AppleWebKit/537.36 (KHTML, like Gecko) Chrome/86.0.4240.111 Safari/537.36",60,"[0.9, 0.5, 0.1]","[0.8, 0.4, 0.2]","[u'blue', u'red', u'black']","[u'left', u'middle', u'right']","[0.9, 0.5, 0.1]","[u'low', u'high', u'medium']","red",50,"middle","high","True","False",637,2250,NA
"A10E77ALJR6R1R","Mon Oct 26 2020 18:58:47 GMT+0100 (Central European Standard Time)","Mon Oct 26 2020 19:08:44 GMT+0100 (Central European Standard Time)","Mozilla/5.0 (Windows NT 10.0; Win64; x64) AppleWebKit/537.36 (KHTML, like Gecko) Chrome/86.0.4240.111 Safari/537.36",61,"[0.9, 0.5, 0.1]","[0.8, 0.4, 0.2]","[u'blue', u'red', u'black']","[u'left', u'middle', u'right']","[0.9, 0.5, 0.1]","[u'low', u'high', u'medium']","red",50,"middle","high","True","False",678,2350,NA
"A10E77ALJR6R1R","Mon Oct 26 2020 18:58:47 GMT+0100 (Central European Standard Time)","Mon Oct 26 2020 19:08:44 GMT+0100 (Central European Standard Time)","Mozilla/5.0 (Windows NT 10.0; Win64; x64) AppleWebKit/537.36 (KHTML, like Gecko) Chrome/86.0.4240.111 Safari/537.36",62,"[0.9, 0.5, 0.1]","[0.8, 0.4, 0.2]","[u'blue', u'red', u'black']","[u'left', u'middle', u'right']","[0.9, 0.5, 0.1]","[u'low', u'high', u'medium']","blue",49,"left","low","False","False",632,2300,NA
"A10E77ALJR6R1R","Mon Oct 26 2020 18:58:47 GMT+0100 (Central European Standard Time)","Mon Oct 26 2020 19:08:44 GMT+0100 (Central European Standard Time)","Mozilla/5.0 (Windows NT 10.0; Win64; x64) AppleWebKit/537.36 (KHTML, like Gecko) Chrome/86.0.4240.111 Safari/537.36",63,"[0.9, 0.5, 0.1]","[0.8, 0.4, 0.2]","[u'blue', u'red', u'black']","[u'left', u'middle', u'right']","[0.9, 0.5, 0.1]","[u'low', u'high', u'medium']","red",50,"middle","high","False","False",605,2250,NA
"A10E77ALJR6R1R","Mon Oct 26 2020 18:58:47 GMT+0100 (Central European Standard Time)","Mon Oct 26 2020 19:08:44 GMT+0100 (Central European Standard Time)","Mozilla/5.0 (Windows NT 10.0; Win64; x64) AppleWebKit/537.36 (KHTML, like Gecko) Chrome/86.0.4240.111 Safari/537.36",64,"[0.9, 0.5, 0.1]","[0.8, 0.4, 0.2]","[u'blue', u'red', u'black']","[u'left', u'middle', u'right']","[0.9, 0.5, 0.1]","[u'low', u'high', u'medium']","red",50,"middle","high","True","False",527,2350,NA
"A10E77ALJR6R1R","Mon Oct 26 2020 18:58:47 GMT+0100 (Central European Standard Time)","Mon Oct 26 2020 19:08:44 GMT+0100 (Central European Standard Time)","Mozilla/5.0 (Windows NT 10.0; Win64; x64) AppleWebKit/537.36 (KHTML, like Gecko) Chrome/86.0.4240.111 Safari/537.36",65,"[0.9, 0.5, 0.1]","[0.8, 0.4, 0.2]","[u'blue', u'red', u'black']","[u'left', u'middle', u'right']","[0.9, 0.5, 0.1]","[u'low', u'high', u'medium']","red",50,"middle","high","False","False",629,2300,NA
"A10E77ALJR6R1R","Mon Oct 26 2020 18:58:47 GMT+0100 (Central European Standard Time)","Mon Oct 26 2020 19:08:44 GMT+0100 (Central European Standard Time)","Mozilla/5.0 (Windows NT 10.0; Win64; x64) AppleWebKit/537.36 (KHTML, like Gecko) Chrome/86.0.4240.111 Safari/537.36",66,"[0.9, 0.5, 0.1]","[0.8, 0.4, 0.2]","[u'blue', u'red', u'black']","[u'left', u'middle', u'right']","[0.9, 0.5, 0.1]","[u'low', u'high', u'medium']","black",51,"right","medium","True","False",221,2400,NA
"A10E77ALJR6R1R","Mon Oct 26 2020 18:58:47 GMT+0100 (Central European Standard Time)","Mon Oct 26 2020 19:08:44 GMT+0100 (Central European Standard Time)","Mozilla/5.0 (Windows NT 10.0; Win64; x64) AppleWebKit/537.36 (KHTML, like Gecko) Chrome/86.0.4240.111 Safari/537.36",67,"[0.9, 0.5, 0.1]","[0.8, 0.4, 0.2]","[u'blue', u'red', u'black']","[u'left', u'middle', u'right']","[0.9, 0.5, 0.1]","[u'low', u'high', u'medium']","black",51,"right","medium","False","False",1032,2350,NA
"A10E77ALJR6R1R","Mon Oct 26 2020 18:58:47 GMT+0100 (Central European Standard Time)","Mon Oct 26 2020 19:08:44 GMT+0100 (Central European Standard Time)","Mozilla/5.0 (Windows NT 10.0; Win64; x64) AppleWebKit/537.36 (KHTML, like Gecko) Chrome/86.0.4240.111 Safari/537.36",68,"[0.9, 0.5, 0.1]","[0.8, 0.4, 0.2]","[u'blue', u'red', u'black']","[u'left', u'middle', u'right']","[0.9, 0.5, 0.1]","[u'low', u'high', u'medium']","red",50,"middle","high","True","False",755,2450,NA
"A10E77ALJR6R1R","Mon Oct 26 2020 18:58:47 GMT+0100 (Central European Standard Time)","Mon Oct 26 2020 19:08:44 GMT+0100 (Central European Standard Time)","Mozilla/5.0 (Windows NT 10.0; Win64; x64) AppleWebKit/537.36 (KHTML, like Gecko) Chrome/86.0.4240.111 Safari/537.36",69,"[0.9, 0.5, 0.1]","[0.8, 0.4, 0.2]","[u'blue', u'red', u'black']","[u'left', u'middle', u'right']","[0.9, 0.5, 0.1]","[u'low', u'high', u'medium']","blue",49,"left","low","False","False",660,2400,NA
"A10E77ALJR6R1R","Mon Oct 26 2020 18:58:47 GMT+0100 (Central European Standard Time)","Mon Oct 26 2020 19:08:44 GMT+0100 (Central European Standard Time)","Mozilla/5.0 (Windows NT 10.0; Win64; x64) AppleWebKit/537.36 (KHTML, like Gecko) Chrome/86.0.4240.111 Safari/537.36",70,"[0.9, 0.5, 0.1]","[0.8, 0.4, 0.2]","[u'blue', u'red', u'black']","[u'left', u'middle', u'right']","[0.9, 0.5, 0.1]","[u'low', u'high', u'medium']","red",50,"middle","high","True","False",715,2500,NA
"A10E77ALJR6R1R","Mon Oct 26 2020 18:58:47 GMT+0100 (Central European Standard Time)","Mon Oct 26 2020 19:08:44 GMT+0100 (Central European Standard Time)","Mozilla/5.0 (Windows NT 10.0; Win64; x64) AppleWebKit/537.36 (KHTML, like Gecko) Chrome/86.0.4240.111 Safari/537.36",71,"[0.9, 0.5, 0.1]","[0.8, 0.4, 0.2]","[u'blue', u'red', u'black']","[u'left', u'middle', u'right']","[0.9, 0.5, 0.1]","[u'low', u'high', u'medium']","red",50,"middle","high","False","False",879,2450,NA
"A10E77ALJR6R1R","Mon Oct 26 2020 18:58:47 GMT+0100 (Central European Standard Time)","Mon Oct 26 2020 19:08:44 GMT+0100 (Central European Standard Time)","Mozilla/5.0 (Windows NT 10.0; Win64; x64) AppleWebKit/537.36 (KHTML, like Gecko) Chrome/86.0.4240.111 Safari/537.36",72,"[0.9, 0.5, 0.1]","[0.8, 0.4, 0.2]","[u'blue', u'red', u'black']","[u'left', u'middle', u'right']","[0.9, 0.5, 0.1]","[u'low', u'high', u'medium']","black",51,"right","medium","True","False",389,2550,NA
"A10E77ALJR6R1R","Mon Oct 26 2020 18:58:47 GMT+0100 (Central European Standard Time)","Mon Oct 26 2020 19:08:44 GMT+0100 (Central European Standard Time)","Mozilla/5.0 (Windows NT 10.0; Win64; x64) AppleWebKit/537.36 (KHTML, like Gecko) Chrome/86.0.4240.111 Safari/537.36",73,"[0.9, 0.5, 0.1]","[0.8, 0.4, 0.2]","[u'blue', u'red', u'black']","[u'left', u'middle', u'right']","[0.9, 0.5, 0.1]","[u'low', u'high', u'medium']","black",51,"right","medium","True","False",757,2650,NA
"A10E77ALJR6R1R","Mon Oct 26 2020 18:58:47 GMT+0100 (Central European Standard Time)","Mon Oct 26 2020 19:08:44 GMT+0100 (Central European Standard Time)","Mozilla/5.0 (Windows NT 10.0; Win64; x64) AppleWebKit/537.36 (KHTML, like Gecko) Chrome/86.0.4240.111 Safari/537.36",74,"[0.9, 0.5, 0.1]","[0.8, 0.4, 0.2]","[u'blue', u'red', u'black']","[u'left', u'middle', u'right']","[0.9, 0.5, 0.1]","[u'low', u'high', u'medium']","blue",49,"left","low","False","False",643,2600,NA
"A10E77ALJR6R1R","Mon Oct 26 2020 18:58:47 GMT+0100 (Central European Standard Time)","Mon Oct 26 2020 19:08:44 GMT+0100 (Central European Standard Time)","Mozilla/5.0 (Windows NT 10.0; Win64; x64) AppleWebKit/537.36 (KHTML, like Gecko) Chrome/86.0.4240.111 Safari/537.36",75,"[0.9, 0.5, 0.1]","[0.8, 0.4, 0.2]","[u'blue', u'red', u'black']","[u'left', u'middle', u'right']","[0.9, 0.5, 0.1]","[u'low', u'high', u'medium']","red",50,"middle","high","True","False",1552,2700,NA
"A10E77ALJR6R1R","Mon Oct 26 2020 18:58:47 GMT+0100 (Central European Standard Time)","Mon Oct 26 2020 19:08:44 GMT+0100 (Central European Standard Time)","Mozilla/5.0 (Windows NT 10.0; Win64; x64) AppleWebKit/537.36 (KHTML, like Gecko) Chrome/86.0.4240.111 Safari/537.36",76,"[0.9, 0.5, 0.1]","[0.8, 0.4, 0.2]","[u'blue', u'red', u'black']","[u'left', u'middle', u'right']","[0.9, 0.5, 0.1]","[u'low', u'high', u'medium']","red",50,"middle","high","True","False",1885,2800,NA
"A10E77ALJR6R1R","Mon Oct 26 2020 18:58:47 GMT+0100 (Central European Standard Time)","Mon Oct 26 2020 19:08:44 GMT+0100 (Central European Standard Time)","Mozilla/5.0 (Windows NT 10.0; Win64; x64) AppleWebKit/537.36 (KHTML, like Gecko) Chrome/86.0.4240.111 Safari/537.36",77,"[0.9, 0.5, 0.1]","[0.8, 0.4, 0.2]","[u'blue', u'red', u'black']","[u'left', u'middle', u'right']","[0.9, 0.5, 0.1]","[u'low', u'high', u'medium']","black",51,"right","medium","False","False",774,2750,NA
"A10E77ALJR6R1R","Mon Oct 26 2020 18:58:47 GMT+0100 (Central European Standard Time)","Mon Oct 26 2020 19:08:44 GMT+0100 (Central European Standard Time)","Mozilla/5.0 (Windows NT 10.0; Win64; x64) AppleWebKit/537.36 (KHTML, like Gecko) Chrome/86.0.4240.111 Safari/537.36",78,"[0.9, 0.5, 0.1]","[0.8, 0.4, 0.2]","[u'blue', u'red', u'black']","[u'left', u'middle', u'right']","[0.9, 0.5, 0.1]","[u'low', u'high', u'medium']","red",50,"middle","high","True","False",682,2850,NA
"A10E77ALJR6R1R","Mon Oct 26 2020 18:58:47 GMT+0100 (Central European Standard Time)","Mon Oct 26 2020 19:08:44 GMT+0100 (Central European Standard Time)","Mozilla/5.0 (Windows NT 10.0; Win64; x64) AppleWebKit/537.36 (KHTML, like Gecko) Chrome/86.0.4240.111 Safari/537.36",79,"[0.9, 0.5, 0.1]","[0.8, 0.4, 0.2]","[u'blue', u'red', u'black']","[u'left', u'middle', u'right']","[0.9, 0.5, 0.1]","[u'low', u'high', u'medium']","blue",49,"left","low","False","False",547,2800,NA
"A10E77ALJR6R1R","Mon Oct 26 2020 18:58:47 GMT+0100 (Central European Standard Time)","Mon Oct 26 2020 19:08:44 GMT+0100 (Central European Standard Time)","Mozilla/5.0 (Windows NT 10.0; Win64; x64) AppleWebKit/537.36 (KHTML, like Gecko) Chrome/86.0.4240.111 Safari/537.36",80,"[0.9, 0.5, 0.1]","[0.8, 0.4, 0.2]","[u'blue', u'red', u'black']","[u'left', u'middle', u'right']","[0.9, 0.5, 0.1]","[u'low', u'high', u'medium']","red",50,"middle","high","True","False",763,2900,NA
"A10E77ALJR6R1R","Mon Oct 26 2020 18:58:47 GMT+0100 (Central European Standard Time)","Mon Oct 26 2020 19:08:44 GMT+0100 (Central European Standard Time)","Mozilla/5.0 (Windows NT 10.0; Win64; x64) AppleWebKit/537.36 (KHTML, like Gecko) Chrome/86.0.4240.111 Safari/537.36",81,"[0.9, 0.5, 0.1]","[0.8, 0.4, 0.2]","[u'blue', u'red', u'black']","[u'left', u'middle', u'right']","[0.8, 0.4, 0.2]","[u'high', u'medium', u'low']","red",50,"middle","medium","True","False",2723,3000,NA
"A10E77ALJR6R1R","Mon Oct 26 2020 18:58:47 GMT+0100 (Central European Standard Time)","Mon Oct 26 2020 19:08:44 GMT+0100 (Central European Standard Time)","Mozilla/5.0 (Windows NT 10.0; Win64; x64) AppleWebKit/537.36 (KHTML, like Gecko) Chrome/86.0.4240.111 Safari/537.36",82,"[0.9, 0.5, 0.1]","[0.8, 0.4, 0.2]","[u'blue', u'red', u'black']","[u'left', u'middle', u'right']","[0.8, 0.4, 0.2]","[u'high', u'medium', u'low']","red",50,"middle","medium","False","False",851,2950,NA
"A10E77ALJR6R1R","Mon Oct 26 2020 18:58:47 GMT+0100 (Central European Standard Time)","Mon Oct 26 2020 19:08:44 GMT+0100 (Central European Standard Time)","Mozilla/5.0 (Windows NT 10.0; Win64; x64) AppleWebKit/537.36 (KHTML, like Gecko) Chrome/86.0.4240.111 Safari/537.36",83,"[0.9, 0.5, 0.1]","[0.8, 0.4, 0.2]","[u'blue', u'red', u'black']","[u'left', u'middle', u'right']","[0.8, 0.4, 0.2]","[u'high', u'medium', u'low']","blue",49,"left","high","True","False",625,3050,NA
"A10E77ALJR6R1R","Mon Oct 26 2020 18:58:47 GMT+0100 (Central European Standard Time)","Mon Oct 26 2020 19:08:44 GMT+0100 (Central European Standard Time)","Mozilla/5.0 (Windows NT 10.0; Win64; x64) AppleWebKit/537.36 (KHTML, like Gecko) Chrome/86.0.4240.111 Safari/537.36",84,"[0.9, 0.5, 0.1]","[0.8, 0.4, 0.2]","[u'blue', u'red', u'black']","[u'left', u'middle', u'right']","[0.8, 0.4, 0.2]","[u'high', u'medium', u'low']","black",51,"right","low","False","False",1531,3000,NA
"A10E77ALJR6R1R","Mon Oct 26 2020 18:58:47 GMT+0100 (Central European Standard Time)","Mon Oct 26 2020 19:08:44 GMT+0100 (Central European Standard Time)","Mozilla/5.0 (Windows NT 10.0; Win64; x64) AppleWebKit/537.36 (KHTML, like Gecko) Chrome/86.0.4240.111 Safari/537.36",85,"[0.9, 0.5, 0.1]","[0.8, 0.4, 0.2]","[u'blue', u'red', u'black']","[u'left', u'middle', u'right']","[0.8, 0.4, 0.2]","[u'high', u'medium', u'low']","black",51,"right","low","False","False",12115,2950,NA
"A10E77ALJR6R1R","Mon Oct 26 2020 18:58:47 GMT+0100 (Central European Standard Time)","Mon Oct 26 2020 19:08:44 GMT+0100 (Central European Standard Time)","Mozilla/5.0 (Windows NT 10.0; Win64; x64) AppleWebKit/537.36 (KHTML, like Gecko) Chrome/86.0.4240.111 Safari/537.36",86,"[0.9, 0.5, 0.1]","[0.8, 0.4, 0.2]","[u'blue', u'red', u'black']","[u'left', u'middle', u'right']","[0.8, 0.4, 0.2]","[u'high', u'medium', u'low']","black",51,"right","low","False","False",5593,2900,NA
"A10E77ALJR6R1R","Mon Oct 26 2020 18:58:47 GMT+0100 (Central European Standard Time)","Mon Oct 26 2020 19:08:44 GMT+0100 (Central European Standard Time)","Mozilla/5.0 (Windows NT 10.0; Win64; x64) AppleWebKit/537.36 (KHTML, like Gecko) Chrome/86.0.4240.111 Safari/537.36",87,"[0.9, 0.5, 0.1]","[0.8, 0.4, 0.2]","[u'blue', u'red', u'black']","[u'left', u'middle', u'right']","[0.8, 0.4, 0.2]","[u'high', u'medium', u'low']","blue",49,"left","high","False","False",7018,2850,NA
"A10E77ALJR6R1R","Mon Oct 26 2020 18:58:47 GMT+0100 (Central European Standard Time)","Mon Oct 26 2020 19:08:44 GMT+0100 (Central European Standard Time)","Mozilla/5.0 (Windows NT 10.0; Win64; x64) AppleWebKit/537.36 (KHTML, like Gecko) Chrome/86.0.4240.111 Safari/537.36",88,"[0.9, 0.5, 0.1]","[0.8, 0.4, 0.2]","[u'blue', u'red', u'black']","[u'left', u'middle', u'right']","[0.8, 0.4, 0.2]","[u'high', u'medium', u'low']","red",50,"middle","medium","True","False",13298,2950,NA
"A10E77ALJR6R1R","Mon Oct 26 2020 18:58:47 GMT+0100 (Central European Standard Time)","Mon Oct 26 2020 19:08:44 GMT+0100 (Central European Standard Time)","Mozilla/5.0 (Windows NT 10.0; Win64; x64) AppleWebKit/537.36 (KHTML, like Gecko) Chrome/86.0.4240.111 Safari/537.36",89,"[0.9, 0.5, 0.1]","[0.8, 0.4, 0.2]","[u'blue', u'red', u'black']","[u'left', u'middle', u'right']","[0.8, 0.4, 0.2]","[u'high', u'medium', u'low']","red",50,"middle","medium","False","False",227,2900,NA
"A10E77ALJR6R1R","Mon Oct 26 2020 18:58:47 GMT+0100 (Central European Standard Time)","Mon Oct 26 2020 19:08:44 GMT+0100 (Central European Standard Time)","Mozilla/5.0 (Windows NT 10.0; Win64; x64) AppleWebKit/537.36 (KHTML, like Gecko) Chrome/86.0.4240.111 Safari/537.36",90,"[0.9, 0.5, 0.1]","[0.8, 0.4, 0.2]","[u'blue', u'red', u'black']","[u'left', u'middle', u'right']","[0.8, 0.4, 0.2]","[u'high', u'medium', u'low']","blue",49,"left","high","True","False",87,3000,NA
"A10E77ALJR6R1R","Mon Oct 26 2020 18:58:47 GMT+0100 (Central European Standard Time)","Mon Oct 26 2020 19:08:44 GMT+0100 (Central European Standard Time)","Mozilla/5.0 (Windows NT 10.0; Win64; x64) AppleWebKit/537.36 (KHTML, like Gecko) Chrome/86.0.4240.111 Safari/537.36",91,"[0.9, 0.5, 0.1]","[0.8, 0.4, 0.2]","[u'blue', u'red', u'black']","[u'left', u'middle', u'right']","[0.8, 0.4, 0.2]","[u'high', u'medium', u'low']","black",51,"right","low","False","False",277,2950,NA
"A10E77ALJR6R1R","Mon Oct 26 2020 18:58:47 GMT+0100 (Central European Standard Time)","Mon Oct 26 2020 19:08:44 GMT+0100 (Central European Standard Time)","Mozilla/5.0 (Windows NT 10.0; Win64; x64) AppleWebKit/537.36 (KHTML, like Gecko) Chrome/86.0.4240.111 Safari/537.36",92,"[0.9, 0.5, 0.1]","[0.8, 0.4, 0.2]","[u'blue', u'red', u'black']","[u'left', u'middle', u'right']","[0.8, 0.4, 0.2]","[u'high', u'medium', u'low']","black",51,"right","low","True","False",4363,3050,NA
"A10E77ALJR6R1R","Mon Oct 26 2020 18:58:47 GMT+0100 (Central European Standard Time)","Mon Oct 26 2020 19:08:44 GMT+0100 (Central European Standard Time)","Mozilla/5.0 (Windows NT 10.0; Win64; x64) AppleWebKit/537.36 (KHTML, like Gecko) Chrome/86.0.4240.111 Safari/537.36",93,"[0.9, 0.5, 0.1]","[0.8, 0.4, 0.2]","[u'blue', u'red', u'black']","[u'left', u'middle', u'right']","[0.8, 0.4, 0.2]","[u'high', u'medium', u'low']","black",51,"right","low","False","False",614,3000,NA
"A10E77ALJR6R1R","Mon Oct 26 2020 18:58:47 GMT+0100 (Central European Standard Time)","Mon Oct 26 2020 19:08:44 GMT+0100 (Central European Standard Time)","Mozilla/5.0 (Windows NT 10.0; Win64; x64) AppleWebKit/537.36 (KHTML, like Gecko) Chrome/86.0.4240.111 Safari/537.36",94,"[0.9, 0.5, 0.1]","[0.8, 0.4, 0.2]","[u'blue', u'red', u'black']","[u'left', u'middle', u'right']","[0.8, 0.4, 0.2]","[u'high', u'medium', u'low']","black",51,"right","low","False","False",1090,2950,NA
"A10E77ALJR6R1R","Mon Oct 26 2020 18:58:47 GMT+0100 (Central European Standard Time)","Mon Oct 26 2020 19:08:44 GMT+0100 (Central European Standard Time)","Mozilla/5.0 (Windows NT 10.0; Win64; x64) AppleWebKit/537.36 (KHTML, like Gecko) Chrome/86.0.4240.111 Safari/537.36",95,"[0.9, 0.5, 0.1]","[0.8, 0.4, 0.2]","[u'blue', u'red', u'black']","[u'left', u'middle', u'right']","[0.8, 0.4, 0.2]","[u'high', u'medium', u'low']","blue",49,"left","high","False","False",1950,2900,NA
"A10E77ALJR6R1R","Mon Oct 26 2020 18:58:47 GMT+0100 (Central European Standard Time)","Mon Oct 26 2020 19:08:44 GMT+0100 (Central European Standard Time)","Mozilla/5.0 (Windows NT 10.0; Win64; x64) AppleWebKit/537.36 (KHTML, like Gecko) Chrome/86.0.4240.111 Safari/537.36",96,"[0.9, 0.5, 0.1]","[0.8, 0.4, 0.2]","[u'blue', u'red', u'black']","[u'left', u'middle', u'right']","[0.8, 0.4, 0.2]","[u'high', u'medium', u'low']","black",51,"right","low","False","False",832,2850,NA
"A10E77ALJR6R1R","Mon Oct 26 2020 18:58:47 GMT+0100 (Central European Standard Time)","Mon Oct 26 2020 19:08:44 GMT+0100 (Central European Standard Time)","Mozilla/5.0 (Windows NT 10.0; Win64; x64) AppleWebKit/537.36 (KHTML, like Gecko) Chrome/86.0.4240.111 Safari/537.36",97,"[0.9, 0.5, 0.1]","[0.8, 0.4, 0.2]","[u'blue', u'red', u'black']","[u'left', u'middle', u'right']","[0.8, 0.4, 0.2]","[u'high', u'medium', u'low']","red",50,"middle","medium","True","False",552,2950,NA
"A10E77ALJR6R1R","Mon Oct 26 2020 18:58:47 GMT+0100 (Central European Standard Time)","Mon Oct 26 2020 19:08:44 GMT+0100 (Central European Standard Time)","Mozilla/5.0 (Windows NT 10.0; Win64; x64) AppleWebKit/537.36 (KHTML, like Gecko) Chrome/86.0.4240.111 Safari/537.36",98,"[0.9, 0.5, 0.1]","[0.8, 0.4, 0.2]","[u'blue', u'red', u'black']","[u'left', u'middle', u'right']","[0.8, 0.4, 0.2]","[u'high', u'medium', u'low']","blue",49,"left","high","True","False",659,3050,NA
"A10E77ALJR6R1R","Mon Oct 26 2020 18:58:47 GMT+0100 (Central European Standard Time)","Mon Oct 26 2020 19:08:44 GMT+0100 (Central European Standard Time)","Mozilla/5.0 (Windows NT 10.0; Win64; x64) AppleWebKit/537.36 (KHTML, like Gecko) Chrome/86.0.4240.111 Safari/537.36",99,"[0.9, 0.5, 0.1]","[0.8, 0.4, 0.2]","[u'blue', u'red', u'black']","[u'left', u'middle', u'right']","[0.8, 0.4, 0.2]","[u'high', u'medium', u'low']","red",50,"middle","medium","False","False",312,3000,NA
"A10E77ALJR6R1R","Mon Oct 26 2020 18:58:47 GMT+0100 (Central European Standard Time)","Mon Oct 26 2020 19:08:44 GMT+0100 (Central European Standard Time)","Mozilla/5.0 (Windows NT 10.0; Win64; x64) AppleWebKit/537.36 (KHTML, like Gecko) Chrome/86.0.4240.111 Safari/537.36",100,"[0.9, 0.5, 0.1]","[0.8, 0.4, 0.2]","[u'blue', u'red', u'black']","[u'left', u'middle', u'right']","[0.8, 0.4, 0.2]","[u'high', u'medium', u'low']","red",50,"middle","medium","True","False",1469,3100,NA
"A10E77ALJR6R1R","Mon Oct 26 2020 18:58:47 GMT+0100 (Central European Standard Time)","Mon Oct 26 2020 19:08:44 GMT+0100 (Central European Standard Time)","Mozilla/5.0 (Windows NT 10.0; Win64; x64) AppleWebKit/537.36 (KHTML, like Gecko) Chrome/86.0.4240.111 Safari/537.36",101,"[0.9, 0.5, 0.1]","[0.8, 0.4, 0.2]","[u'blue', u'red', u'black']","[u'left', u'middle', u'right']","[0.8, 0.4, 0.2]","[u'high', u'medium', u'low']","black",51,"right","low","False","False",829,3050,NA
"A10E77ALJR6R1R","Mon Oct 26 2020 18:58:47 GMT+0100 (Central European Standard Time)","Mon Oct 26 2020 19:08:44 GMT+0100 (Central European Standard Time)","Mozilla/5.0 (Windows NT 10.0; Win64; x64) AppleWebKit/537.36 (KHTML, like Gecko) Chrome/86.0.4240.111 Safari/537.36",102,"[0.9, 0.5, 0.1]","[0.8, 0.4, 0.2]","[u'blue', u'red', u'black']","[u'left', u'middle', u'right']","[0.8, 0.4, 0.2]","[u'high', u'medium', u'low']","red",50,"middle","medium","True","False",934,3150,NA
"A10E77ALJR6R1R","Mon Oct 26 2020 18:58:47 GMT+0100 (Central European Standard Time)","Mon Oct 26 2020 19:08:44 GMT+0100 (Central European Standard Time)","Mozilla/5.0 (Windows NT 10.0; Win64; x64) AppleWebKit/537.36 (KHTML, like Gecko) Chrome/86.0.4240.111 Safari/537.36",103,"[0.9, 0.5, 0.1]","[0.8, 0.4, 0.2]","[u'blue', u'red', u'black']","[u'left', u'middle', u'right']","[0.8, 0.4, 0.2]","[u'high', u'medium', u'low']","blue",49,"left","high","False","False",332,3100,NA
"A10E77ALJR6R1R","Mon Oct 26 2020 18:58:47 GMT+0100 (Central European Standard Time)","Mon Oct 26 2020 19:08:44 GMT+0100 (Central European Standard Time)","Mozilla/5.0 (Windows NT 10.0; Win64; x64) AppleWebKit/537.36 (KHTML, like Gecko) Chrome/86.0.4240.111 Safari/537.36",104,"[0.9, 0.5, 0.1]","[0.8, 0.4, 0.2]","[u'blue', u'red', u'black']","[u'left', u'middle', u'right']","[0.8, 0.4, 0.2]","[u'high', u'medium', u'low']","red",50,"middle","medium","False","False",662,3050,NA
"A10E77ALJR6R1R","Mon Oct 26 2020 18:58:47 GMT+0100 (Central European Standard Time)","Mon Oct 26 2020 19:08:44 GMT+0100 (Central European Standard Time)","Mozilla/5.0 (Windows NT 10.0; Win64; x64) AppleWebKit/537.36 (KHTML, like Gecko) Chrome/86.0.4240.111 Safari/537.36",105,"[0.9, 0.5, 0.1]","[0.8, 0.4, 0.2]","[u'blue', u'red', u'black']","[u'left', u'middle', u'right']","[0.8, 0.4, 0.2]","[u'high', u'medium', u'low']","black",51,"right","low","False","False",219,3000,NA
"A10E77ALJR6R1R","Mon Oct 26 2020 18:58:47 GMT+0100 (Central European Standard Time)","Mon Oct 26 2020 19:08:44 GMT+0100 (Central European Standard Time)","Mozilla/5.0 (Windows NT 10.0; Win64; x64) AppleWebKit/537.36 (KHTML, like Gecko) Chrome/86.0.4240.111 Safari/537.36",106,"[0.9, 0.5, 0.1]","[0.8, 0.4, 0.2]","[u'blue', u'red', u'black']","[u'left', u'middle', u'right']","[0.8, 0.4, 0.2]","[u'high', u'medium', u'low']","blue",49,"left","high","True","False",439,3100,NA
"A10E77ALJR6R1R","Mon Oct 26 2020 18:58:47 GMT+0100 (Central European Standard Time)","Mon Oct 26 2020 19:08:44 GMT+0100 (Central European Standard Time)","Mozilla/5.0 (Windows NT 10.0; Win64; x64) AppleWebKit/537.36 (KHTML, like Gecko) Chrome/86.0.4240.111 Safari/537.36",107,"[0.9, 0.5, 0.1]","[0.8, 0.4, 0.2]","[u'blue', u'red', u'black']","[u'left', u'middle', u'right']","[0.8, 0.4, 0.2]","[u'high', u'medium', u'low']","red",50,"middle","medium","False","False",841,3050,NA
"A10E77ALJR6R1R","Mon Oct 26 2020 18:58:47 GMT+0100 (Central European Standard Time)","Mon Oct 26 2020 19:08:44 GMT+0100 (Central European Standard Time)","Mozilla/5.0 (Windows NT 10.0; Win64; x64) AppleWebKit/537.36 (KHTML, like Gecko) Chrome/86.0.4240.111 Safari/537.36",108,"[0.9, 0.5, 0.1]","[0.8, 0.4, 0.2]","[u'blue', u'red', u'black']","[u'left', u'middle', u'right']","[0.8, 0.4, 0.2]","[u'high', u'medium', u'low']","blue",49,"left","high","True","False",837,3150,NA
"A10E77ALJR6R1R","Mon Oct 26 2020 18:58:47 GMT+0100 (Central European Standard Time)","Mon Oct 26 2020 19:08:44 GMT+0100 (Central European Standard Time)","Mozilla/5.0 (Windows NT 10.0; Win64; x64) AppleWebKit/537.36 (KHTML, like Gecko) Chrome/86.0.4240.111 Safari/537.36",109,"[0.9, 0.5, 0.1]","[0.8, 0.4, 0.2]","[u'blue', u'red', u'black']","[u'left', u'middle', u'right']","[0.8, 0.4, 0.2]","[u'high', u'medium', u'low']","blue",49,"left","high","True","False",1952,3250,NA
"A10E77ALJR6R1R","Mon Oct 26 2020 18:58:47 GMT+0100 (Central European Standard Time)","Mon Oct 26 2020 19:08:44 GMT+0100 (Central European Standard Time)","Mozilla/5.0 (Windows NT 10.0; Win64; x64) AppleWebKit/537.36 (KHTML, like Gecko) Chrome/86.0.4240.111 Safari/537.36",110,"[0.9, 0.5, 0.1]","[0.8, 0.4, 0.2]","[u'blue', u'red', u'black']","[u'left', u'middle', u'right']","[0.8, 0.4, 0.2]","[u'high', u'medium', u'low']","red",50,"middle","medium","False","False",1201,3200,NA
"A10E77ALJR6R1R","Mon Oct 26 2020 18:58:47 GMT+0100 (Central European Standard Time)","Mon Oct 26 2020 19:08:44 GMT+0100 (Central European Standard Time)","Mozilla/5.0 (Windows NT 10.0; Win64; x64) AppleWebKit/537.36 (KHTML, like Gecko) Chrome/86.0.4240.111 Safari/537.36",111,"[0.9, 0.5, 0.1]","[0.8, 0.4, 0.2]","[u'blue', u'red', u'black']","[u'left', u'middle', u'right']","[0.8, 0.4, 0.2]","[u'high', u'medium', u'low']","red",50,"middle","medium","False","False",193,3150,NA
"A10E77ALJR6R1R","Mon Oct 26 2020 18:58:47 GMT+0100 (Central European Standard Time)","Mon Oct 26 2020 19:08:44 GMT+0100 (Central European Standard Time)","Mozilla/5.0 (Windows NT 10.0; Win64; x64) AppleWebKit/537.36 (KHTML, like Gecko) Chrome/86.0.4240.111 Safari/537.36",112,"[0.9, 0.5, 0.1]","[0.8, 0.4, 0.2]","[u'blue', u'red', u'black']","[u'left', u'middle', u'right']","[0.8, 0.4, 0.2]","[u'high', u'medium', u'low']","blue",49,"left","high","True","False",368,3250,NA
"A10E77ALJR6R1R","Mon Oct 26 2020 18:58:47 GMT+0100 (Central European Standard Time)","Mon Oct 26 2020 19:08:44 GMT+0100 (Central European Standard Time)","Mozilla/5.0 (Windows NT 10.0; Win64; x64) AppleWebKit/537.36 (KHTML, like Gecko) Chrome/86.0.4240.111 Safari/537.36",113,"[0.9, 0.5, 0.1]","[0.8, 0.4, 0.2]","[u'blue', u'red', u'black']","[u'left', u'middle', u'right']","[0.8, 0.4, 0.2]","[u'high', u'medium', u'low']","blue",49,"left","high","True","False",170,3350,NA
"A10E77ALJR6R1R","Mon Oct 26 2020 18:58:47 GMT+0100 (Central European Standard Time)","Mon Oct 26 2020 19:08:44 GMT+0100 (Central European Standard Time)","Mozilla/5.0 (Windows NT 10.0; Win64; x64) AppleWebKit/537.36 (KHTML, like Gecko) Chrome/86.0.4240.111 Safari/537.36",114,"[0.9, 0.5, 0.1]","[0.8, 0.4, 0.2]","[u'blue', u'red', u'black']","[u'left', u'middle', u'right']","[0.8, 0.4, 0.2]","[u'high', u'medium', u'low']","red",50,"middle","medium","False","False",175,3300,NA
"A10E77ALJR6R1R","Mon Oct 26 2020 18:58:47 GMT+0100 (Central European Standard Time)","Mon Oct 26 2020 19:08:44 GMT+0100 (Central European Standard Time)","Mozilla/5.0 (Windows NT 10.0; Win64; x64) AppleWebKit/537.36 (KHTML, like Gecko) Chrome/86.0.4240.111 Safari/537.36",115,"[0.9, 0.5, 0.1]","[0.8, 0.4, 0.2]","[u'blue', u'red', u'black']","[u'left', u'middle', u'right']","[0.8, 0.4, 0.2]","[u'high', u'medium', u'low']","red",50,"middle","medium","True","False",315,3400,NA
"A10E77ALJR6R1R","Mon Oct 26 2020 18:58:47 GMT+0100 (Central European Standard Time)","Mon Oct 26 2020 19:08:44 GMT+0100 (Central European Standard Time)","Mozilla/5.0 (Windows NT 10.0; Win64; x64) AppleWebKit/537.36 (KHTML, like Gecko) Chrome/86.0.4240.111 Safari/537.36",116,"[0.9, 0.5, 0.1]","[0.8, 0.4, 0.2]","[u'blue', u'red', u'black']","[u'left', u'middle', u'right']","[0.8, 0.4, 0.2]","[u'high', u'medium', u'low']","red",50,"middle","medium","False","False",5667,3350,NA
"A10E77ALJR6R1R","Mon Oct 26 2020 18:58:47 GMT+0100 (Central European Standard Time)","Mon Oct 26 2020 19:08:44 GMT+0100 (Central European Standard Time)","Mozilla/5.0 (Windows NT 10.0; Win64; x64) AppleWebKit/537.36 (KHTML, like Gecko) Chrome/86.0.4240.111 Safari/537.36",117,"[0.9, 0.5, 0.1]","[0.8, 0.4, 0.2]","[u'blue', u'red', u'black']","[u'left', u'middle', u'right']","[0.8, 0.4, 0.2]","[u'high', u'medium', u'low']","red",50,"middle","medium","False","False",2505,3300,NA
"A10E77ALJR6R1R","Mon Oct 26 2020 18:58:47 GMT+0100 (Central European Standard Time)","Mon Oct 26 2020 19:08:44 GMT+0100 (Central European Standard Time)","Mozilla/5.0 (Windows NT 10.0; Win64; x64) AppleWebKit/537.36 (KHTML, like Gecko) Chrome/86.0.4240.111 Safari/537.36",118,"[0.9, 0.5, 0.1]","[0.8, 0.4, 0.2]","[u'blue', u'red', u'black']","[u'left', u'middle', u'right']","[0.8, 0.4, 0.2]","[u'high', u'medium', u'low']","blue",49,"left","high","True","False",2329,3400,NA
"A10E77ALJR6R1R","Mon Oct 26 2020 18:58:47 GMT+0100 (Central European Standard Time)","Mon Oct 26 2020 19:08:44 GMT+0100 (Central European Standard Time)","Mozilla/5.0 (Windows NT 10.0; Win64; x64) AppleWebKit/537.36 (KHTML, like Gecko) Chrome/86.0.4240.111 Safari/537.36",119,"[0.9, 0.5, 0.1]","[0.8, 0.4, 0.2]","[u'blue', u'red', u'black']","[u'left', u'middle', u'right']","[0.8, 0.4, 0.2]","[u'high', u'medium', u'low']","blue",49,"left","high","True","False",863,3500,NA
"A10E77ALJR6R1R","Mon Oct 26 2020 18:58:47 GMT+0100 (Central European Standard Time)","Mon Oct 26 2020 19:08:44 GMT+0100 (Central European Standard Time)","Mozilla/5.0 (Windows NT 10.0; Win64; x64) AppleWebKit/537.36 (KHTML, like Gecko) Chrome/86.0.4240.111 Safari/537.36",120,"[0.9, 0.5, 0.1]","[0.8, 0.4, 0.2]","[u'blue', u'red', u'black']","[u'left', u'middle', u'right']","[0.8, 0.4, 0.2]","[u'high', u'medium', u'low']","blue",49,"left","high","False","False",1251,3450,NA
"A10E77ALJR6R1R","Mon Oct 26 2020 18:58:47 GMT+0100 (Central European Standard Time)","Mon Oct 26 2020 19:08:44 GMT+0100 (Central European Standard Time)","Mozilla/5.0 (Windows NT 10.0; Win64; x64) AppleWebKit/537.36 (KHTML, like Gecko) Chrome/86.0.4240.111 Safari/537.36",121,"[0.9, 0.5, 0.1]","[0.8, 0.4, 0.2]","[u'blue', u'red', u'black']","[u'left', u'middle', u'right']","[0.8, 0.4, 0.2]","[u'medium', u'low', u'high']","blue",49,"left","medium","True","False",1405,3550,NA
"A10E77ALJR6R1R","Mon Oct 26 2020 18:58:47 GMT+0100 (Central European Standard Time)","Mon Oct 26 2020 19:08:44 GMT+0100 (Central European Standard Time)","Mozilla/5.0 (Windows NT 10.0; Win64; x64) AppleWebKit/537.36 (KHTML, like Gecko) Chrome/86.0.4240.111 Safari/537.36",122,"[0.9, 0.5, 0.1]","[0.8, 0.4, 0.2]","[u'blue', u'red', u'black']","[u'left', u'middle', u'right']","[0.8, 0.4, 0.2]","[u'medium', u'low', u'high']","blue",49,"left","medium","True","False",1623,3650,NA
"A10E77ALJR6R1R","Mon Oct 26 2020 18:58:47 GMT+0100 (Central European Standard Time)","Mon Oct 26 2020 19:08:44 GMT+0100 (Central European Standard Time)","Mozilla/5.0 (Windows NT 10.0; Win64; x64) AppleWebKit/537.36 (KHTML, like Gecko) Chrome/86.0.4240.111 Safari/537.36",123,"[0.9, 0.5, 0.1]","[0.8, 0.4, 0.2]","[u'blue', u'red', u'black']","[u'left', u'middle', u'right']","[0.8, 0.4, 0.2]","[u'medium', u'low', u'high']","blue",49,"left","medium","True","False",866,3750,NA
"A10E77ALJR6R1R","Mon Oct 26 2020 18:58:47 GMT+0100 (Central European Standard Time)","Mon Oct 26 2020 19:08:44 GMT+0100 (Central European Standard Time)","Mozilla/5.0 (Windows NT 10.0; Win64; x64) AppleWebKit/537.36 (KHTML, like Gecko) Chrome/86.0.4240.111 Safari/537.36",124,"[0.9, 0.5, 0.1]","[0.8, 0.4, 0.2]","[u'blue', u'red', u'black']","[u'left', u'middle', u'right']","[0.8, 0.4, 0.2]","[u'medium', u'low', u'high']","blue",49,"left","medium","False","False",1014,3700,NA
"A10E77ALJR6R1R","Mon Oct 26 2020 18:58:47 GMT+0100 (Central European Standard Time)","Mon Oct 26 2020 19:08:44 GMT+0100 (Central European Standard Time)","Mozilla/5.0 (Windows NT 10.0; Win64; x64) AppleWebKit/537.36 (KHTML, like Gecko) Chrome/86.0.4240.111 Safari/537.36",125,"[0.9, 0.5, 0.1]","[0.8, 0.4, 0.2]","[u'blue', u'red', u'black']","[u'left', u'middle', u'right']","[0.8, 0.4, 0.2]","[u'medium', u'low', u'high']","blue",49,"left","medium","False","False",117,3650,NA
"A10E77ALJR6R1R","Mon Oct 26 2020 18:58:47 GMT+0100 (Central European Standard Time)","Mon Oct 26 2020 19:08:44 GMT+0100 (Central European Standard Time)","Mozilla/5.0 (Windows NT 10.0; Win64; x64) AppleWebKit/537.36 (KHTML, like Gecko) Chrome/86.0.4240.111 Safari/537.36",126,"[0.9, 0.5, 0.1]","[0.8, 0.4, 0.2]","[u'blue', u'red', u'black']","[u'left', u'middle', u'right']","[0.8, 0.4, 0.2]","[u'medium', u'low', u'high']","red",50,"middle","low","False","False",939,3600,NA
"A10E77ALJR6R1R","Mon Oct 26 2020 18:58:47 GMT+0100 (Central European Standard Time)","Mon Oct 26 2020 19:08:44 GMT+0100 (Central European Standard Time)","Mozilla/5.0 (Windows NT 10.0; Win64; x64) AppleWebKit/537.36 (KHTML, like Gecko) Chrome/86.0.4240.111 Safari/537.36",127,"[0.9, 0.5, 0.1]","[0.8, 0.4, 0.2]","[u'blue', u'red', u'black']","[u'left', u'middle', u'right']","[0.8, 0.4, 0.2]","[u'medium', u'low', u'high']","red",50,"middle","low","False","False",1754,3550,NA
"A10E77ALJR6R1R","Mon Oct 26 2020 18:58:47 GMT+0100 (Central European Standard Time)","Mon Oct 26 2020 19:08:44 GMT+0100 (Central European Standard Time)","Mozilla/5.0 (Windows NT 10.0; Win64; x64) AppleWebKit/537.36 (KHTML, like Gecko) Chrome/86.0.4240.111 Safari/537.36",128,"[0.9, 0.5, 0.1]","[0.8, 0.4, 0.2]","[u'blue', u'red', u'black']","[u'left', u'middle', u'right']","[0.8, 0.4, 0.2]","[u'medium', u'low', u'high']","blue",49,"left","medium","False","False",140,3500,NA
"A10E77ALJR6R1R","Mon Oct 26 2020 18:58:47 GMT+0100 (Central European Standard Time)","Mon Oct 26 2020 19:08:44 GMT+0100 (Central European Standard Time)","Mozilla/5.0 (Windows NT 10.0; Win64; x64) AppleWebKit/537.36 (KHTML, like Gecko) Chrome/86.0.4240.111 Safari/537.36",129,"[0.9, 0.5, 0.1]","[0.8, 0.4, 0.2]","[u'blue', u'red', u'black']","[u'left', u'middle', u'right']","[0.8, 0.4, 0.2]","[u'medium', u'low', u'high']","blue",49,"left","medium","False","False",156,3450,NA
"A10E77ALJR6R1R","Mon Oct 26 2020 18:58:47 GMT+0100 (Central European Standard Time)","Mon Oct 26 2020 19:08:44 GMT+0100 (Central European Standard Time)","Mozilla/5.0 (Windows NT 10.0; Win64; x64) AppleWebKit/537.36 (KHTML, like Gecko) Chrome/86.0.4240.111 Safari/537.36",130,"[0.9, 0.5, 0.1]","[0.8, 0.4, 0.2]","[u'blue', u'red', u'black']","[u'left', u'middle', u'right']","[0.8, 0.4, 0.2]","[u'medium', u'low', u'high']","red",50,"middle","low","False","False",457,3400,NA
"A10E77ALJR6R1R","Mon Oct 26 2020 18:58:47 GMT+0100 (Central European Standard Time)","Mon Oct 26 2020 19:08:44 GMT+0100 (Central European Standard Time)","Mozilla/5.0 (Windows NT 10.0; Win64; x64) AppleWebKit/537.36 (KHTML, like Gecko) Chrome/86.0.4240.111 Safari/537.36",131,"[0.9, 0.5, 0.1]","[0.8, 0.4, 0.2]","[u'blue', u'red', u'black']","[u'left', u'middle', u'right']","[0.8, 0.4, 0.2]","[u'medium', u'low', u'high']","black",51,"right","high","True","False",305,3500,NA
"A10E77ALJR6R1R","Mon Oct 26 2020 18:58:47 GMT+0100 (Central European Standard Time)","Mon Oct 26 2020 19:08:44 GMT+0100 (Central European Standard Time)","Mozilla/5.0 (Windows NT 10.0; Win64; x64) AppleWebKit/537.36 (KHTML, like Gecko) Chrome/86.0.4240.111 Safari/537.36",132,"[0.9, 0.5, 0.1]","[0.8, 0.4, 0.2]","[u'blue', u'red', u'black']","[u'left', u'middle', u'right']","[0.8, 0.4, 0.2]","[u'medium', u'low', u'high']","black",51,"right","high","True","False",1121,3600,NA
"A10E77ALJR6R1R","Mon Oct 26 2020 18:58:47 GMT+0100 (Central European Standard Time)","Mon Oct 26 2020 19:08:44 GMT+0100 (Central European Standard Time)","Mozilla/5.0 (Windows NT 10.0; Win64; x64) AppleWebKit/537.36 (KHTML, like Gecko) Chrome/86.0.4240.111 Safari/537.36",133,"[0.9, 0.5, 0.1]","[0.8, 0.4, 0.2]","[u'blue', u'red', u'black']","[u'left', u'middle', u'right']","[0.8, 0.4, 0.2]","[u'medium', u'low', u'high']","black",51,"right","high","False","False",1014,3550,NA
"A10E77ALJR6R1R","Mon Oct 26 2020 18:58:47 GMT+0100 (Central European Standard Time)","Mon Oct 26 2020 19:08:44 GMT+0100 (Central European Standard Time)","Mozilla/5.0 (Windows NT 10.0; Win64; x64) AppleWebKit/537.36 (KHTML, like Gecko) Chrome/86.0.4240.111 Safari/537.36",134,"[0.9, 0.5, 0.1]","[0.8, 0.4, 0.2]","[u'blue', u'red', u'black']","[u'left', u'middle', u'right']","[0.8, 0.4, 0.2]","[u'medium', u'low', u'high']","blue",49,"left","medium","False","False",1648,3500,NA
"A10E77ALJR6R1R","Mon Oct 26 2020 18:58:47 GMT+0100 (Central European Standard Time)","Mon Oct 26 2020 19:08:44 GMT+0100 (Central European Standard Time)","Mozilla/5.0 (Windows NT 10.0; Win64; x64) AppleWebKit/537.36 (KHTML, like Gecko) Chrome/86.0.4240.111 Safari/537.36",135,"[0.9, 0.5, 0.1]","[0.8, 0.4, 0.2]","[u'blue', u'red', u'black']","[u'left', u'middle', u'right']","[0.8, 0.4, 0.2]","[u'medium', u'low', u'high']","blue",49,"left","medium","True","False",2450,3600,NA
"A10E77ALJR6R1R","Mon Oct 26 2020 18:58:47 GMT+0100 (Central European Standard Time)","Mon Oct 26 2020 19:08:44 GMT+0100 (Central European Standard Time)","Mozilla/5.0 (Windows NT 10.0; Win64; x64) AppleWebKit/537.36 (KHTML, like Gecko) Chrome/86.0.4240.111 Safari/537.36",136,"[0.9, 0.5, 0.1]","[0.8, 0.4, 0.2]","[u'blue', u'red', u'black']","[u'left', u'middle', u'right']","[0.8, 0.4, 0.2]","[u'medium', u'low', u'high']","blue",49,"left","medium","False","False",795,3550,NA
"A10E77ALJR6R1R","Mon Oct 26 2020 18:58:47 GMT+0100 (Central European Standard Time)","Mon Oct 26 2020 19:08:44 GMT+0100 (Central European Standard Time)","Mozilla/5.0 (Windows NT 10.0; Win64; x64) AppleWebKit/537.36 (KHTML, like Gecko) Chrome/86.0.4240.111 Safari/537.36",137,"[0.9, 0.5, 0.1]","[0.8, 0.4, 0.2]","[u'blue', u'red', u'black']","[u'left', u'middle', u'right']","[0.8, 0.4, 0.2]","[u'medium', u'low', u'high']","red",50,"middle","low","False","False",576,3500,NA
"A10E77ALJR6R1R","Mon Oct 26 2020 18:58:47 GMT+0100 (Central European Standard Time)","Mon Oct 26 2020 19:08:44 GMT+0100 (Central European Standard Time)","Mozilla/5.0 (Windows NT 10.0; Win64; x64) AppleWebKit/537.36 (KHTML, like Gecko) Chrome/86.0.4240.111 Safari/537.36",138,"[0.9, 0.5, 0.1]","[0.8, 0.4, 0.2]","[u'blue', u'red', u'black']","[u'left', u'middle', u'right']","[0.8, 0.4, 0.2]","[u'medium', u'low', u'high']","black",51,"right","high","False","False",145,3450,NA
"A10E77ALJR6R1R","Mon Oct 26 2020 18:58:47 GMT+0100 (Central European Standard Time)","Mon Oct 26 2020 19:08:44 GMT+0100 (Central European Standard Time)","Mozilla/5.0 (Windows NT 10.0; Win64; x64) AppleWebKit/537.36 (KHTML, like Gecko) Chrome/86.0.4240.111 Safari/537.36",139,"[0.9, 0.5, 0.1]","[0.8, 0.4, 0.2]","[u'blue', u'red', u'black']","[u'left', u'middle', u'right']","[0.8, 0.4, 0.2]","[u'medium', u'low', u'high']","black",51,"right","high","True","False",759,3550,NA
"A10E77ALJR6R1R","Mon Oct 26 2020 18:58:47 GMT+0100 (Central European Standard Time)","Mon Oct 26 2020 19:08:44 GMT+0100 (Central European Standard Time)","Mozilla/5.0 (Windows NT 10.0; Win64; x64) AppleWebKit/537.36 (KHTML, like Gecko) Chrome/86.0.4240.111 Safari/537.36",140,"[0.9, 0.5, 0.1]","[0.8, 0.4, 0.2]","[u'blue', u'red', u'black']","[u'left', u'middle', u'right']","[0.8, 0.4, 0.2]","[u'medium', u'low', u'high']","black",51,"right","high","True","False",1396,3650,NA
"A10E77ALJR6R1R","Mon Oct 26 2020 18:58:47 GMT+0100 (Central European Standard Time)","Mon Oct 26 2020 19:08:44 GMT+0100 (Central European Standard Time)","Mozilla/5.0 (Windows NT 10.0; Win64; x64) AppleWebKit/537.36 (KHTML, like Gecko) Chrome/86.0.4240.111 Safari/537.36",141,"[0.9, 0.5, 0.1]","[0.8, 0.4, 0.2]","[u'blue', u'red', u'black']","[u'left', u'middle', u'right']","[0.8, 0.4, 0.2]","[u'medium', u'low', u'high']","black",51,"right","high","True","False",690,3750,NA
"A10E77ALJR6R1R","Mon Oct 26 2020 18:58:47 GMT+0100 (Central European Standard Time)","Mon Oct 26 2020 19:08:44 GMT+0100 (Central European Standard Time)","Mozilla/5.0 (Windows NT 10.0; Win64; x64) AppleWebKit/537.36 (KHTML, like Gecko) Chrome/86.0.4240.111 Safari/537.36",142,"[0.9, 0.5, 0.1]","[0.8, 0.4, 0.2]","[u'blue', u'red', u'black']","[u'left', u'middle', u'right']","[0.8, 0.4, 0.2]","[u'medium', u'low', u'high']","black",51,"right","high","True","False",727,3850,NA
"A10E77ALJR6R1R","Mon Oct 26 2020 18:58:47 GMT+0100 (Central European Standard Time)","Mon Oct 26 2020 19:08:44 GMT+0100 (Central European Standard Time)","Mozilla/5.0 (Windows NT 10.0; Win64; x64) AppleWebKit/537.36 (KHTML, like Gecko) Chrome/86.0.4240.111 Safari/537.36",143,"[0.9, 0.5, 0.1]","[0.8, 0.4, 0.2]","[u'blue', u'red', u'black']","[u'left', u'middle', u'right']","[0.8, 0.4, 0.2]","[u'medium', u'low', u'high']","black",51,"right","high","True","False",188,3950,NA
"A10E77ALJR6R1R","Mon Oct 26 2020 18:58:47 GMT+0100 (Central European Standard Time)","Mon Oct 26 2020 19:08:44 GMT+0100 (Central European Standard Time)","Mozilla/5.0 (Windows NT 10.0; Win64; x64) AppleWebKit/537.36 (KHTML, like Gecko) Chrome/86.0.4240.111 Safari/537.36",144,"[0.9, 0.5, 0.1]","[0.8, 0.4, 0.2]","[u'blue', u'red', u'black']","[u'left', u'middle', u'right']","[0.8, 0.4, 0.2]","[u'medium', u'low', u'high']","black",51,"right","high","True","False",1565,4050,NA
"A10E77ALJR6R1R","Mon Oct 26 2020 18:58:47 GMT+0100 (Central European Standard Time)","Mon Oct 26 2020 19:08:44 GMT+0100 (Central European Standard Time)","Mozilla/5.0 (Windows NT 10.0; Win64; x64) AppleWebKit/537.36 (KHTML, like Gecko) Chrome/86.0.4240.111 Safari/537.36",145,"[0.9, 0.5, 0.1]","[0.8, 0.4, 0.2]","[u'blue', u'red', u'black']","[u'left', u'middle', u'right']","[0.8, 0.4, 0.2]","[u'medium', u'low', u'high']","black",51,"right","high","True","False",737,4150,NA
"A10E77ALJR6R1R","Mon Oct 26 2020 18:58:47 GMT+0100 (Central European Standard Time)","Mon Oct 26 2020 19:08:44 GMT+0100 (Central European Standard Time)","Mozilla/5.0 (Windows NT 10.0; Win64; x64) AppleWebKit/537.36 (KHTML, like Gecko) Chrome/86.0.4240.111 Safari/537.36",146,"[0.9, 0.5, 0.1]","[0.8, 0.4, 0.2]","[u'blue', u'red', u'black']","[u'left', u'middle', u'right']","[0.8, 0.4, 0.2]","[u'medium', u'low', u'high']","black",51,"right","high","True","True",834,4250,NA
"A10E77ALJR6R1R","Mon Oct 26 2020 18:58:47 GMT+0100 (Central European Standard Time)","Mon Oct 26 2020 19:08:44 GMT+0100 (Central European Standard Time)","Mozilla/5.0 (Windows NT 10.0; Win64; x64) AppleWebKit/537.36 (KHTML, like Gecko) Chrome/86.0.4240.111 Safari/537.36",147,"[0.9, 0.5, 0.1]","[0.8, 0.4, 0.2]","[u'blue', u'red', u'black']","[u'left', u'middle', u'right']","[0.8, 0.4, 0.2]","[u'medium', u'high', u'low']","black",51,"right","low","False","False",860,4200,NA
"A10E77ALJR6R1R","Mon Oct 26 2020 18:58:47 GMT+0100 (Central European Standard Time)","Mon Oct 26 2020 19:08:44 GMT+0100 (Central European Standard Time)","Mozilla/5.0 (Windows NT 10.0; Win64; x64) AppleWebKit/537.36 (KHTML, like Gecko) Chrome/86.0.4240.111 Safari/537.36",148,"[0.9, 0.5, 0.1]","[0.8, 0.4, 0.2]","[u'blue', u'red', u'black']","[u'left', u'middle', u'right']","[0.8, 0.4, 0.2]","[u'medium', u'high', u'low']","black",51,"right","low","True","False",3832,4300,NA
"A10E77ALJR6R1R","Mon Oct 26 2020 18:58:47 GMT+0100 (Central European Standard Time)","Mon Oct 26 2020 19:08:44 GMT+0100 (Central European Standard Time)","Mozilla/5.0 (Windows NT 10.0; Win64; x64) AppleWebKit/537.36 (KHTML, like Gecko) Chrome/86.0.4240.111 Safari/537.36",149,"[0.9, 0.5, 0.1]","[0.8, 0.4, 0.2]","[u'blue', u'red', u'black']","[u'left', u'middle', u'right']","[0.8, 0.4, 0.2]","[u'medium', u'high', u'low']","black",51,"right","low","False","False",2445,4250,NA
"A10E77ALJR6R1R","Mon Oct 26 2020 18:58:47 GMT+0100 (Central European Standard Time)","Mon Oct 26 2020 19:08:44 GMT+0100 (Central European Standard Time)","Mozilla/5.0 (Windows NT 10.0; Win64; x64) AppleWebKit/537.36 (KHTML, like Gecko) Chrome/86.0.4240.111 Safari/537.36",150,"[0.9, 0.5, 0.1]","[0.8, 0.4, 0.2]","[u'blue', u'red', u'black']","[u'left', u'middle', u'right']","[0.8, 0.4, 0.2]","[u'medium', u'high', u'low']","blue",49,"left","medium","False","False",34,4200,NA
"A10E77ALJR6R1R","Mon Oct 26 2020 18:58:47 GMT+0100 (Central European Standard Time)","Mon Oct 26 2020 19:08:44 GMT+0100 (Central European Standard Time)","Mozilla/5.0 (Windows NT 10.0; Win64; x64) AppleWebKit/537.36 (KHTML, like Gecko) Chrome/86.0.4240.111 Safari/537.36",151,"[0.9, 0.5, 0.1]","[0.8, 0.4, 0.2]","[u'blue', u'red', u'black']","[u'left', u'middle', u'right']","[0.8, 0.4, 0.2]","[u'medium', u'high', u'low']","red",50,"middle","high","True","False",514,4300,NA
"A10E77ALJR6R1R","Mon Oct 26 2020 18:58:47 GMT+0100 (Central European Standard Time)","Mon Oct 26 2020 19:08:44 GMT+0100 (Central European Standard Time)","Mozilla/5.0 (Windows NT 10.0; Win64; x64) AppleWebKit/537.36 (KHTML, like Gecko) Chrome/86.0.4240.111 Safari/537.36",152,"[0.9, 0.5, 0.1]","[0.8, 0.4, 0.2]","[u'blue', u'red', u'black']","[u'left', u'middle', u'right']","[0.8, 0.4, 0.2]","[u'medium', u'high', u'low']","red",50,"middle","high","True","False",1205,4400,NA
"A10E77ALJR6R1R","Mon Oct 26 2020 18:58:47 GMT+0100 (Central European Standard Time)","Mon Oct 26 2020 19:08:44 GMT+0100 (Central European Standard Time)","Mozilla/5.0 (Windows NT 10.0; Win64; x64) AppleWebKit/537.36 (KHTML, like Gecko) Chrome/86.0.4240.111 Safari/537.36",153,"[0.9, 0.5, 0.1]","[0.8, 0.4, 0.2]","[u'blue', u'red', u'black']","[u'left', u'middle', u'right']","[0.8, 0.4, 0.2]","[u'medium', u'high', u'low']","red",50,"middle","high","True","False",965,4500,NA
"A10E77ALJR6R1R","Mon Oct 26 2020 18:58:47 GMT+0100 (Central European Standard Time)","Mon Oct 26 2020 19:08:44 GMT+0100 (Central European Standard Time)","Mozilla/5.0 (Windows NT 10.0; Win64; x64) AppleWebKit/537.36 (KHTML, like Gecko) Chrome/86.0.4240.111 Safari/537.36",154,"[0.9, 0.5, 0.1]","[0.8, 0.4, 0.2]","[u'blue', u'red', u'black']","[u'left', u'middle', u'right']","[0.8, 0.4, 0.2]","[u'medium', u'high', u'low']","red",50,"middle","high","True","False",1974,4600,NA
"A10E77ALJR6R1R","Mon Oct 26 2020 18:58:47 GMT+0100 (Central European Standard Time)","Mon Oct 26 2020 19:08:44 GMT+0100 (Central European Standard Time)","Mozilla/5.0 (Windows NT 10.0; Win64; x64) AppleWebKit/537.36 (KHTML, like Gecko) Chrome/86.0.4240.111 Safari/537.36",155,"[0.9, 0.5, 0.1]","[0.8, 0.4, 0.2]","[u'blue', u'red', u'black']","[u'left', u'middle', u'right']","[0.8, 0.4, 0.2]","[u'medium', u'high', u'low']","red",50,"middle","high","False","False",1925,4550,NA
"A10E77ALJR6R1R","Mon Oct 26 2020 18:58:47 GMT+0100 (Central European Standard Time)","Mon Oct 26 2020 19:08:44 GMT+0100 (Central European Standard Time)","Mozilla/5.0 (Windows NT 10.0; Win64; x64) AppleWebKit/537.36 (KHTML, like Gecko) Chrome/86.0.4240.111 Safari/537.36",156,"[0.9, 0.5, 0.1]","[0.8, 0.4, 0.2]","[u'blue', u'red', u'black']","[u'left', u'middle', u'right']","[0.8, 0.4, 0.2]","[u'medium', u'high', u'low']","blue",49,"left","medium","False","False",171,4500,NA
"A10E77ALJR6R1R","Mon Oct 26 2020 18:58:47 GMT+0100 (Central European Standard Time)","Mon Oct 26 2020 19:08:44 GMT+0100 (Central European Standard Time)","Mozilla/5.0 (Windows NT 10.0; Win64; x64) AppleWebKit/537.36 (KHTML, like Gecko) Chrome/86.0.4240.111 Safari/537.36",157,"[0.9, 0.5, 0.1]","[0.8, 0.4, 0.2]","[u'blue', u'red', u'black']","[u'left', u'middle', u'right']","[0.8, 0.4, 0.2]","[u'medium', u'high', u'low']","black",51,"right","low","False","False",194,4450,NA
"A10E77ALJR6R1R","Mon Oct 26 2020 18:58:47 GMT+0100 (Central European Standard Time)","Mon Oct 26 2020 19:08:44 GMT+0100 (Central European Standard Time)","Mozilla/5.0 (Windows NT 10.0; Win64; x64) AppleWebKit/537.36 (KHTML, like Gecko) Chrome/86.0.4240.111 Safari/537.36",158,"[0.9, 0.5, 0.1]","[0.8, 0.4, 0.2]","[u'blue', u'red', u'black']","[u'left', u'middle', u'right']","[0.8, 0.4, 0.2]","[u'medium', u'high', u'low']","red",50,"middle","high","True","False",188,4550,NA
"A10E77ALJR6R1R","Mon Oct 26 2020 18:58:47 GMT+0100 (Central European Standard Time)","Mon Oct 26 2020 19:08:44 GMT+0100 (Central European Standard Time)","Mozilla/5.0 (Windows NT 10.0; Win64; x64) AppleWebKit/537.36 (KHTML, like Gecko) Chrome/86.0.4240.111 Safari/537.36",159,"[0.9, 0.5, 0.1]","[0.8, 0.4, 0.2]","[u'blue', u'red', u'black']","[u'left', u'middle', u'right']","[0.8, 0.4, 0.2]","[u'medium', u'high', u'low']","red",50,"middle","high","True","False",1026,4650,NA
"A10E77ALJR6R1R","Mon Oct 26 2020 18:58:47 GMT+0100 (Central European Standard Time)","Mon Oct 26 2020 19:08:44 GMT+0100 (Central European Standard Time)","Mozilla/5.0 (Windows NT 10.0; Win64; x64) AppleWebKit/537.36 (KHTML, like Gecko) Chrome/86.0.4240.111 Safari/537.36",160,"[0.9, 0.5, 0.1]","[0.8, 0.4, 0.2]","[u'blue', u'red', u'black']","[u'left', u'middle', u'right']","[0.8, 0.4, 0.2]","[u'medium', u'high', u'low']","red",50,"middle","high","True","False",2127,4750,NA
