"src_subject_id","start_time","end_time","browser","index","first_half_probabilities","second_half_probabilities","deck_color","deck_position","deck_probabilities","deck_contingencies","response_color","key_press","response_position","response_probability","reward_type","trial_type","rt","reward_tally","exclusion_reason"
"A3LT7W355XOAKF","Mon Oct 26 2020 22:10:21 GMT-0500 (Central Daylight Time)","Mon Oct 26 2020 22:25:15 GMT-0500 (Central Daylight Time)","Mozilla/5.0 (Windows NT 6.1; Win64; x64; rv:81.0) Gecko/20100101 Firefox/81.0",1,"[0.9, 0.5, 0.1]","[0.8, 0.4, 0.2]","[u'black', u'blue', u'red']","[u'left', u'middle', u'right']","[0.9, 0.5, 0.1]","[u'high', u'medium', u'low']","black",49,"left","high","False","False",1195,-50,NA
"A3LT7W355XOAKF","Mon Oct 26 2020 22:10:21 GMT-0500 (Central Daylight Time)","Mon Oct 26 2020 22:25:15 GMT-0500 (Central Daylight Time)","Mozilla/5.0 (Windows NT 6.1; Win64; x64; rv:81.0) Gecko/20100101 Firefox/81.0",2,"[0.9, 0.5, 0.1]","[0.8, 0.4, 0.2]","[u'black', u'blue', u'red']","[u'left', u'middle', u'right']","[0.9, 0.5, 0.1]","[u'high', u'medium', u'low']","blue",50,"middle","medium","True","False",374,50,NA
"A3LT7W355XOAKF","Mon Oct 26 2020 22:10:21 GMT-0500 (Central Daylight Time)","Mon Oct 26 2020 22:25:15 GMT-0500 (Central Daylight Time)","Mozilla/5.0 (Windows NT 6.1; Win64; x64; rv:81.0) Gecko/20100101 Firefox/81.0",3,"[0.9, 0.5, 0.1]","[0.8, 0.4, 0.2]","[u'black', u'blue', u'red']","[u'left', u'middle', u'right']","[0.9, 0.5, 0.1]","[u'high', u'medium', u'low']","blue",50,"middle","medium","True","False",412,150,NA
"A3LT7W355XOAKF","Mon Oct 26 2020 22:10:21 GMT-0500 (Central Daylight Time)","Mon Oct 26 2020 22:25:15 GMT-0500 (Central Daylight Time)","Mozilla/5.0 (Windows NT 6.1; Win64; x64; rv:81.0) Gecko/20100101 Firefox/81.0",4,"[0.9, 0.5, 0.1]","[0.8, 0.4, 0.2]","[u'black', u'blue', u'red']","[u'left', u'middle', u'right']","[0.9, 0.5, 0.1]","[u'high', u'medium', u'low']","blue",50,"middle","medium","True","False",732,250,NA
"A3LT7W355XOAKF","Mon Oct 26 2020 22:10:21 GMT-0500 (Central Daylight Time)","Mon Oct 26 2020 22:25:15 GMT-0500 (Central Daylight Time)","Mozilla/5.0 (Windows NT 6.1; Win64; x64; rv:81.0) Gecko/20100101 Firefox/81.0",5,"[0.9, 0.5, 0.1]","[0.8, 0.4, 0.2]","[u'black', u'blue', u'red']","[u'left', u'middle', u'right']","[0.9, 0.5, 0.1]","[u'high', u'medium', u'low']","blue",50,"middle","medium","True","False",2662,350,NA
"A3LT7W355XOAKF","Mon Oct 26 2020 22:10:21 GMT-0500 (Central Daylight Time)","Mon Oct 26 2020 22:25:15 GMT-0500 (Central Daylight Time)","Mozilla/5.0 (Windows NT 6.1; Win64; x64; rv:81.0) Gecko/20100101 Firefox/81.0",6,"[0.9, 0.5, 0.1]","[0.8, 0.4, 0.2]","[u'black', u'blue', u'red']","[u'left', u'middle', u'right']","[0.9, 0.5, 0.1]","[u'high', u'medium', u'low']","blue",50,"middle","medium","True","False",3257,450,NA
"A3LT7W355XOAKF","Mon Oct 26 2020 22:10:21 GMT-0500 (Central Daylight Time)","Mon Oct 26 2020 22:25:15 GMT-0500 (Central Daylight Time)","Mozilla/5.0 (Windows NT 6.1; Win64; x64; rv:81.0) Gecko/20100101 Firefox/81.0",7,"[0.9, 0.5, 0.1]","[0.8, 0.4, 0.2]","[u'black', u'blue', u'red']","[u'left', u'middle', u'right']","[0.9, 0.5, 0.1]","[u'high', u'medium', u'low']","blue",50,"middle","medium","False","False",1709,400,NA
"A3LT7W355XOAKF","Mon Oct 26 2020 22:10:21 GMT-0500 (Central Daylight Time)","Mon Oct 26 2020 22:25:15 GMT-0500 (Central Daylight Time)","Mozilla/5.0 (Windows NT 6.1; Win64; x64; rv:81.0) Gecko/20100101 Firefox/81.0",8,"[0.9, 0.5, 0.1]","[0.8, 0.4, 0.2]","[u'black', u'blue', u'red']","[u'left', u'middle', u'right']","[0.9, 0.5, 0.1]","[u'high', u'medium', u'low']","red",51,"right","low","False","False",762,350,NA
"A3LT7W355XOAKF","Mon Oct 26 2020 22:10:21 GMT-0500 (Central Daylight Time)","Mon Oct 26 2020 22:25:15 GMT-0500 (Central Daylight Time)","Mozilla/5.0 (Windows NT 6.1; Win64; x64; rv:81.0) Gecko/20100101 Firefox/81.0",9,"[0.9, 0.5, 0.1]","[0.8, 0.4, 0.2]","[u'black', u'blue', u'red']","[u'left', u'middle', u'right']","[0.9, 0.5, 0.1]","[u'high', u'medium', u'low']","black",49,"left","high","True","False",252,450,NA
"A3LT7W355XOAKF","Mon Oct 26 2020 22:10:21 GMT-0500 (Central Daylight Time)","Mon Oct 26 2020 22:25:15 GMT-0500 (Central Daylight Time)","Mozilla/5.0 (Windows NT 6.1; Win64; x64; rv:81.0) Gecko/20100101 Firefox/81.0",10,"[0.9, 0.5, 0.1]","[0.8, 0.4, 0.2]","[u'black', u'blue', u'red']","[u'left', u'middle', u'right']","[0.9, 0.5, 0.1]","[u'high', u'medium', u'low']","black",49,"left","high","True","False",5976,550,NA
"A3LT7W355XOAKF","Mon Oct 26 2020 22:10:21 GMT-0500 (Central Daylight Time)","Mon Oct 26 2020 22:25:15 GMT-0500 (Central Daylight Time)","Mozilla/5.0 (Windows NT 6.1; Win64; x64; rv:81.0) Gecko/20100101 Firefox/81.0",11,"[0.9, 0.5, 0.1]","[0.8, 0.4, 0.2]","[u'black', u'blue', u'red']","[u'left', u'middle', u'right']","[0.9, 0.5, 0.1]","[u'high', u'medium', u'low']","black",49,"left","high","True","False",5747,650,NA
"A3LT7W355XOAKF","Mon Oct 26 2020 22:10:21 GMT-0500 (Central Daylight Time)","Mon Oct 26 2020 22:25:15 GMT-0500 (Central Daylight Time)","Mozilla/5.0 (Windows NT 6.1; Win64; x64; rv:81.0) Gecko/20100101 Firefox/81.0",12,"[0.9, 0.5, 0.1]","[0.8, 0.4, 0.2]","[u'black', u'blue', u'red']","[u'left', u'middle', u'right']","[0.9, 0.5, 0.1]","[u'high', u'medium', u'low']","black",49,"left","high","True","False",1223,750,NA
"A3LT7W355XOAKF","Mon Oct 26 2020 22:10:21 GMT-0500 (Central Daylight Time)","Mon Oct 26 2020 22:25:15 GMT-0500 (Central Daylight Time)","Mozilla/5.0 (Windows NT 6.1; Win64; x64; rv:81.0) Gecko/20100101 Firefox/81.0",13,"[0.9, 0.5, 0.1]","[0.8, 0.4, 0.2]","[u'black', u'blue', u'red']","[u'left', u'middle', u'right']","[0.9, 0.5, 0.1]","[u'high', u'medium', u'low']","black",49,"left","high","True","False",412,850,NA
"A3LT7W355XOAKF","Mon Oct 26 2020 22:10:21 GMT-0500 (Central Daylight Time)","Mon Oct 26 2020 22:25:15 GMT-0500 (Central Daylight Time)","Mozilla/5.0 (Windows NT 6.1; Win64; x64; rv:81.0) Gecko/20100101 Firefox/81.0",14,"[0.9, 0.5, 0.1]","[0.8, 0.4, 0.2]","[u'black', u'blue', u'red']","[u'left', u'middle', u'right']","[0.9, 0.5, 0.1]","[u'high', u'medium', u'low']","black",49,"left","high","True","False",744,950,NA
"A3LT7W355XOAKF","Mon Oct 26 2020 22:10:21 GMT-0500 (Central Daylight Time)","Mon Oct 26 2020 22:25:15 GMT-0500 (Central Daylight Time)","Mozilla/5.0 (Windows NT 6.1; Win64; x64; rv:81.0) Gecko/20100101 Firefox/81.0",15,"[0.9, 0.5, 0.1]","[0.8, 0.4, 0.2]","[u'black', u'blue', u'red']","[u'left', u'middle', u'right']","[0.9, 0.5, 0.1]","[u'high', u'medium', u'low']","black",49,"left","high","True","False",600,1050,NA
"A3LT7W355XOAKF","Mon Oct 26 2020 22:10:21 GMT-0500 (Central Daylight Time)","Mon Oct 26 2020 22:25:15 GMT-0500 (Central Daylight Time)","Mozilla/5.0 (Windows NT 6.1; Win64; x64; rv:81.0) Gecko/20100101 Firefox/81.0",16,"[0.9, 0.5, 0.1]","[0.8, 0.4, 0.2]","[u'black', u'blue', u'red']","[u'left', u'middle', u'right']","[0.9, 0.5, 0.1]","[u'high', u'medium', u'low']","black",49,"left","high","True","False",364,1150,NA
"A3LT7W355XOAKF","Mon Oct 26 2020 22:10:21 GMT-0500 (Central Daylight Time)","Mon Oct 26 2020 22:25:15 GMT-0500 (Central Daylight Time)","Mozilla/5.0 (Windows NT 6.1; Win64; x64; rv:81.0) Gecko/20100101 Firefox/81.0",17,"[0.9, 0.5, 0.1]","[0.8, 0.4, 0.2]","[u'black', u'blue', u'red']","[u'left', u'middle', u'right']","[0.9, 0.5, 0.1]","[u'high', u'medium', u'low']","black",49,"left","high","True","True",278,1250,NA
"A3LT7W355XOAKF","Mon Oct 26 2020 22:10:21 GMT-0500 (Central Daylight Time)","Mon Oct 26 2020 22:25:15 GMT-0500 (Central Daylight Time)","Mozilla/5.0 (Windows NT 6.1; Win64; x64; rv:81.0) Gecko/20100101 Firefox/81.0",18,"[0.9, 0.5, 0.1]","[0.8, 0.4, 0.2]","[u'black', u'blue', u'red']","[u'left', u'middle', u'right']","[0.9, 0.5, 0.1]","[u'low', u'medium', u'high']","black",49,"left","low","False","False",395,1200,NA
"A3LT7W355XOAKF","Mon Oct 26 2020 22:10:21 GMT-0500 (Central Daylight Time)","Mon Oct 26 2020 22:25:15 GMT-0500 (Central Daylight Time)","Mozilla/5.0 (Windows NT 6.1; Win64; x64; rv:81.0) Gecko/20100101 Firefox/81.0",19,"[0.9, 0.5, 0.1]","[0.8, 0.4, 0.2]","[u'black', u'blue', u'red']","[u'left', u'middle', u'right']","[0.9, 0.5, 0.1]","[u'low', u'medium', u'high']","black",49,"left","low","False","False",347,1150,NA
"A3LT7W355XOAKF","Mon Oct 26 2020 22:10:21 GMT-0500 (Central Daylight Time)","Mon Oct 26 2020 22:25:15 GMT-0500 (Central Daylight Time)","Mozilla/5.0 (Windows NT 6.1; Win64; x64; rv:81.0) Gecko/20100101 Firefox/81.0",20,"[0.9, 0.5, 0.1]","[0.8, 0.4, 0.2]","[u'black', u'blue', u'red']","[u'left', u'middle', u'right']","[0.9, 0.5, 0.1]","[u'low', u'medium', u'high']","red",51,"right","high","True","False",777,1250,NA
"A3LT7W355XOAKF","Mon Oct 26 2020 22:10:21 GMT-0500 (Central Daylight Time)","Mon Oct 26 2020 22:25:15 GMT-0500 (Central Daylight Time)","Mozilla/5.0 (Windows NT 6.1; Win64; x64; rv:81.0) Gecko/20100101 Firefox/81.0",21,"[0.9, 0.5, 0.1]","[0.8, 0.4, 0.2]","[u'black', u'blue', u'red']","[u'left', u'middle', u'right']","[0.9, 0.5, 0.1]","[u'low', u'medium', u'high']","red",51,"right","high","True","False",238,1350,NA
"A3LT7W355XOAKF","Mon Oct 26 2020 22:10:21 GMT-0500 (Central Daylight Time)","Mon Oct 26 2020 22:25:15 GMT-0500 (Central Daylight Time)","Mozilla/5.0 (Windows NT 6.1; Win64; x64; rv:81.0) Gecko/20100101 Firefox/81.0",22,"[0.9, 0.5, 0.1]","[0.8, 0.4, 0.2]","[u'black', u'blue', u'red']","[u'left', u'middle', u'right']","[0.9, 0.5, 0.1]","[u'low', u'medium', u'high']","red",51,"right","high","True","False",172,1450,NA
"A3LT7W355XOAKF","Mon Oct 26 2020 22:10:21 GMT-0500 (Central Daylight Time)","Mon Oct 26 2020 22:25:15 GMT-0500 (Central Daylight Time)","Mozilla/5.0 (Windows NT 6.1; Win64; x64; rv:81.0) Gecko/20100101 Firefox/81.0",23,"[0.9, 0.5, 0.1]","[0.8, 0.4, 0.2]","[u'black', u'blue', u'red']","[u'left', u'middle', u'right']","[0.9, 0.5, 0.1]","[u'low', u'medium', u'high']","red",51,"right","high","True","False",707,1550,NA
"A3LT7W355XOAKF","Mon Oct 26 2020 22:10:21 GMT-0500 (Central Daylight Time)","Mon Oct 26 2020 22:25:15 GMT-0500 (Central Daylight Time)","Mozilla/5.0 (Windows NT 6.1; Win64; x64; rv:81.0) Gecko/20100101 Firefox/81.0",24,"[0.9, 0.5, 0.1]","[0.8, 0.4, 0.2]","[u'black', u'blue', u'red']","[u'left', u'middle', u'right']","[0.9, 0.5, 0.1]","[u'low', u'medium', u'high']","red",51,"right","high","True","False",177,1650,NA
"A3LT7W355XOAKF","Mon Oct 26 2020 22:10:21 GMT-0500 (Central Daylight Time)","Mon Oct 26 2020 22:25:15 GMT-0500 (Central Daylight Time)","Mozilla/5.0 (Windows NT 6.1; Win64; x64; rv:81.0) Gecko/20100101 Firefox/81.0",25,"[0.9, 0.5, 0.1]","[0.8, 0.4, 0.2]","[u'black', u'blue', u'red']","[u'left', u'middle', u'right']","[0.9, 0.5, 0.1]","[u'low', u'medium', u'high']","red",51,"right","high","True","False",510,1750,NA
"A3LT7W355XOAKF","Mon Oct 26 2020 22:10:21 GMT-0500 (Central Daylight Time)","Mon Oct 26 2020 22:25:15 GMT-0500 (Central Daylight Time)","Mozilla/5.0 (Windows NT 6.1; Win64; x64; rv:81.0) Gecko/20100101 Firefox/81.0",26,"[0.9, 0.5, 0.1]","[0.8, 0.4, 0.2]","[u'black', u'blue', u'red']","[u'left', u'middle', u'right']","[0.9, 0.5, 0.1]","[u'low', u'medium', u'high']","red",51,"right","high","True","False",263,1850,NA
"A3LT7W355XOAKF","Mon Oct 26 2020 22:10:21 GMT-0500 (Central Daylight Time)","Mon Oct 26 2020 22:25:15 GMT-0500 (Central Daylight Time)","Mozilla/5.0 (Windows NT 6.1; Win64; x64; rv:81.0) Gecko/20100101 Firefox/81.0",27,"[0.9, 0.5, 0.1]","[0.8, 0.4, 0.2]","[u'black', u'blue', u'red']","[u'left', u'middle', u'right']","[0.9, 0.5, 0.1]","[u'low', u'medium', u'high']","red",51,"right","high","True","False",707,1950,NA
"A3LT7W355XOAKF","Mon Oct 26 2020 22:10:21 GMT-0500 (Central Daylight Time)","Mon Oct 26 2020 22:25:15 GMT-0500 (Central Daylight Time)","Mozilla/5.0 (Windows NT 6.1; Win64; x64; rv:81.0) Gecko/20100101 Firefox/81.0",28,"[0.9, 0.5, 0.1]","[0.8, 0.4, 0.2]","[u'black', u'blue', u'red']","[u'left', u'middle', u'right']","[0.9, 0.5, 0.1]","[u'low', u'medium', u'high']","red",51,"right","high","True","True",344,2050,NA
"A3LT7W355XOAKF","Mon Oct 26 2020 22:10:21 GMT-0500 (Central Daylight Time)","Mon Oct 26 2020 22:25:15 GMT-0500 (Central Daylight Time)","Mozilla/5.0 (Windows NT 6.1; Win64; x64; rv:81.0) Gecko/20100101 Firefox/81.0",29,"[0.9, 0.5, 0.1]","[0.8, 0.4, 0.2]","[u'black', u'blue', u'red']","[u'left', u'middle', u'right']","[0.9, 0.5, 0.1]","[u'medium', u'high', u'low']","red",51,"right","low","False","False",589,2000,NA
"A3LT7W355XOAKF","Mon Oct 26 2020 22:10:21 GMT-0500 (Central Daylight Time)","Mon Oct 26 2020 22:25:15 GMT-0500 (Central Daylight Time)","Mozilla/5.0 (Windows NT 6.1; Win64; x64; rv:81.0) Gecko/20100101 Firefox/81.0",30,"[0.9, 0.5, 0.1]","[0.8, 0.4, 0.2]","[u'black', u'blue', u'red']","[u'left', u'middle', u'right']","[0.9, 0.5, 0.1]","[u'medium', u'high', u'low']","blue",50,"middle","high","True","False",366,2100,NA
"A3LT7W355XOAKF","Mon Oct 26 2020 22:10:21 GMT-0500 (Central Daylight Time)","Mon Oct 26 2020 22:25:15 GMT-0500 (Central Daylight Time)","Mozilla/5.0 (Windows NT 6.1; Win64; x64; rv:81.0) Gecko/20100101 Firefox/81.0",31,"[0.9, 0.5, 0.1]","[0.8, 0.4, 0.2]","[u'black', u'blue', u'red']","[u'left', u'middle', u'right']","[0.9, 0.5, 0.1]","[u'medium', u'high', u'low']","blue",50,"middle","high","True","False",273,2200,NA
"A3LT7W355XOAKF","Mon Oct 26 2020 22:10:21 GMT-0500 (Central Daylight Time)","Mon Oct 26 2020 22:25:15 GMT-0500 (Central Daylight Time)","Mozilla/5.0 (Windows NT 6.1; Win64; x64; rv:81.0) Gecko/20100101 Firefox/81.0",32,"[0.9, 0.5, 0.1]","[0.8, 0.4, 0.2]","[u'black', u'blue', u'red']","[u'left', u'middle', u'right']","[0.9, 0.5, 0.1]","[u'medium', u'high', u'low']","blue",50,"middle","high","True","False",235,2300,NA
"A3LT7W355XOAKF","Mon Oct 26 2020 22:10:21 GMT-0500 (Central Daylight Time)","Mon Oct 26 2020 22:25:15 GMT-0500 (Central Daylight Time)","Mozilla/5.0 (Windows NT 6.1; Win64; x64; rv:81.0) Gecko/20100101 Firefox/81.0",33,"[0.9, 0.5, 0.1]","[0.8, 0.4, 0.2]","[u'black', u'blue', u'red']","[u'left', u'middle', u'right']","[0.9, 0.5, 0.1]","[u'medium', u'high', u'low']","blue",50,"middle","high","True","False",33,2400,NA
"A3LT7W355XOAKF","Mon Oct 26 2020 22:10:21 GMT-0500 (Central Daylight Time)","Mon Oct 26 2020 22:25:15 GMT-0500 (Central Daylight Time)","Mozilla/5.0 (Windows NT 6.1; Win64; x64; rv:81.0) Gecko/20100101 Firefox/81.0",34,"[0.9, 0.5, 0.1]","[0.8, 0.4, 0.2]","[u'black', u'blue', u'red']","[u'left', u'middle', u'right']","[0.9, 0.5, 0.1]","[u'medium', u'high', u'low']","blue",50,"middle","high","True","False",164,2500,NA
"A3LT7W355XOAKF","Mon Oct 26 2020 22:10:21 GMT-0500 (Central Daylight Time)","Mon Oct 26 2020 22:25:15 GMT-0500 (Central Daylight Time)","Mozilla/5.0 (Windows NT 6.1; Win64; x64; rv:81.0) Gecko/20100101 Firefox/81.0",35,"[0.9, 0.5, 0.1]","[0.8, 0.4, 0.2]","[u'black', u'blue', u'red']","[u'left', u'middle', u'right']","[0.9, 0.5, 0.1]","[u'medium', u'high', u'low']","blue",50,"middle","high","True","False",295,2600,NA
"A3LT7W355XOAKF","Mon Oct 26 2020 22:10:21 GMT-0500 (Central Daylight Time)","Mon Oct 26 2020 22:25:15 GMT-0500 (Central Daylight Time)","Mozilla/5.0 (Windows NT 6.1; Win64; x64; rv:81.0) Gecko/20100101 Firefox/81.0",36,"[0.9, 0.5, 0.1]","[0.8, 0.4, 0.2]","[u'black', u'blue', u'red']","[u'left', u'middle', u'right']","[0.9, 0.5, 0.1]","[u'medium', u'high', u'low']","blue",50,"middle","high","True","False",514,2700,NA
"A3LT7W355XOAKF","Mon Oct 26 2020 22:10:21 GMT-0500 (Central Daylight Time)","Mon Oct 26 2020 22:25:15 GMT-0500 (Central Daylight Time)","Mozilla/5.0 (Windows NT 6.1; Win64; x64; rv:81.0) Gecko/20100101 Firefox/81.0",37,"[0.9, 0.5, 0.1]","[0.8, 0.4, 0.2]","[u'black', u'blue', u'red']","[u'left', u'middle', u'right']","[0.9, 0.5, 0.1]","[u'medium', u'high', u'low']","blue",50,"middle","high","True","False",308,2800,NA
"A3LT7W355XOAKF","Mon Oct 26 2020 22:10:21 GMT-0500 (Central Daylight Time)","Mon Oct 26 2020 22:25:15 GMT-0500 (Central Daylight Time)","Mozilla/5.0 (Windows NT 6.1; Win64; x64; rv:81.0) Gecko/20100101 Firefox/81.0",38,"[0.9, 0.5, 0.1]","[0.8, 0.4, 0.2]","[u'black', u'blue', u'red']","[u'left', u'middle', u'right']","[0.9, 0.5, 0.1]","[u'medium', u'high', u'low']","blue",50,"middle","high","True","True",419,2900,NA
"A3LT7W355XOAKF","Mon Oct 26 2020 22:10:21 GMT-0500 (Central Daylight Time)","Mon Oct 26 2020 22:25:15 GMT-0500 (Central Daylight Time)","Mozilla/5.0 (Windows NT 6.1; Win64; x64; rv:81.0) Gecko/20100101 Firefox/81.0",39,"[0.9, 0.5, 0.1]","[0.8, 0.4, 0.2]","[u'black', u'blue', u'red']","[u'left', u'middle', u'right']","[0.9, 0.5, 0.1]","[u'medium', u'low', u'high']","blue",50,"middle","low","True","False",211,3000,NA
"A3LT7W355XOAKF","Mon Oct 26 2020 22:10:21 GMT-0500 (Central Daylight Time)","Mon Oct 26 2020 22:25:15 GMT-0500 (Central Daylight Time)","Mozilla/5.0 (Windows NT 6.1; Win64; x64; rv:81.0) Gecko/20100101 Firefox/81.0",40,"[0.9, 0.5, 0.1]","[0.8, 0.4, 0.2]","[u'black', u'blue', u'red']","[u'left', u'middle', u'right']","[0.9, 0.5, 0.1]","[u'medium', u'low', u'high']","blue",50,"middle","low","False","False",341,2950,NA
"A3LT7W355XOAKF","Mon Oct 26 2020 22:10:21 GMT-0500 (Central Daylight Time)","Mon Oct 26 2020 22:25:15 GMT-0500 (Central Daylight Time)","Mozilla/5.0 (Windows NT 6.1; Win64; x64; rv:81.0) Gecko/20100101 Firefox/81.0",41,"[0.9, 0.5, 0.1]","[0.8, 0.4, 0.2]","[u'black', u'blue', u'red']","[u'left', u'middle', u'right']","[0.9, 0.5, 0.1]","[u'medium', u'high', u'low']","black",49,"left","medium","False","False",1762,2900,NA
"A3LT7W355XOAKF","Mon Oct 26 2020 22:10:21 GMT-0500 (Central Daylight Time)","Mon Oct 26 2020 22:25:15 GMT-0500 (Central Daylight Time)","Mozilla/5.0 (Windows NT 6.1; Win64; x64; rv:81.0) Gecko/20100101 Firefox/81.0",42,"[0.9, 0.5, 0.1]","[0.8, 0.4, 0.2]","[u'black', u'blue', u'red']","[u'left', u'middle', u'right']","[0.9, 0.5, 0.1]","[u'medium', u'high', u'low']","red",51,"right","low","False","False",541,2850,NA
"A3LT7W355XOAKF","Mon Oct 26 2020 22:10:21 GMT-0500 (Central Daylight Time)","Mon Oct 26 2020 22:25:15 GMT-0500 (Central Daylight Time)","Mozilla/5.0 (Windows NT 6.1; Win64; x64; rv:81.0) Gecko/20100101 Firefox/81.0",43,"[0.9, 0.5, 0.1]","[0.8, 0.4, 0.2]","[u'black', u'blue', u'red']","[u'left', u'middle', u'right']","[0.9, 0.5, 0.1]","[u'medium', u'high', u'low']","blue",50,"middle","high","True","False",74,2950,NA
"A3LT7W355XOAKF","Mon Oct 26 2020 22:10:21 GMT-0500 (Central Daylight Time)","Mon Oct 26 2020 22:25:15 GMT-0500 (Central Daylight Time)","Mozilla/5.0 (Windows NT 6.1; Win64; x64; rv:81.0) Gecko/20100101 Firefox/81.0",44,"[0.9, 0.5, 0.1]","[0.8, 0.4, 0.2]","[u'black', u'blue', u'red']","[u'left', u'middle', u'right']","[0.9, 0.5, 0.1]","[u'medium', u'high', u'low']","blue",50,"middle","high","True","False",249,3050,NA
"A3LT7W355XOAKF","Mon Oct 26 2020 22:10:21 GMT-0500 (Central Daylight Time)","Mon Oct 26 2020 22:25:15 GMT-0500 (Central Daylight Time)","Mozilla/5.0 (Windows NT 6.1; Win64; x64; rv:81.0) Gecko/20100101 Firefox/81.0",45,"[0.9, 0.5, 0.1]","[0.8, 0.4, 0.2]","[u'black', u'blue', u'red']","[u'left', u'middle', u'right']","[0.9, 0.5, 0.1]","[u'medium', u'high', u'low']","blue",50,"middle","high","True","False",166,3150,NA
"A3LT7W355XOAKF","Mon Oct 26 2020 22:10:21 GMT-0500 (Central Daylight Time)","Mon Oct 26 2020 22:25:15 GMT-0500 (Central Daylight Time)","Mozilla/5.0 (Windows NT 6.1; Win64; x64; rv:81.0) Gecko/20100101 Firefox/81.0",46,"[0.9, 0.5, 0.1]","[0.8, 0.4, 0.2]","[u'black', u'blue', u'red']","[u'left', u'middle', u'right']","[0.9, 0.5, 0.1]","[u'medium', u'high', u'low']","blue",50,"middle","high","True","False",219,3250,NA
"A3LT7W355XOAKF","Mon Oct 26 2020 22:10:21 GMT-0500 (Central Daylight Time)","Mon Oct 26 2020 22:25:15 GMT-0500 (Central Daylight Time)","Mozilla/5.0 (Windows NT 6.1; Win64; x64; rv:81.0) Gecko/20100101 Firefox/81.0",47,"[0.9, 0.5, 0.1]","[0.8, 0.4, 0.2]","[u'black', u'blue', u'red']","[u'left', u'middle', u'right']","[0.9, 0.5, 0.1]","[u'medium', u'high', u'low']","blue",50,"middle","high","True","False",388,3350,NA
"A3LT7W355XOAKF","Mon Oct 26 2020 22:10:21 GMT-0500 (Central Daylight Time)","Mon Oct 26 2020 22:25:15 GMT-0500 (Central Daylight Time)","Mozilla/5.0 (Windows NT 6.1; Win64; x64; rv:81.0) Gecko/20100101 Firefox/81.0",48,"[0.9, 0.5, 0.1]","[0.8, 0.4, 0.2]","[u'black', u'blue', u'red']","[u'left', u'middle', u'right']","[0.9, 0.5, 0.1]","[u'medium', u'high', u'low']","blue",50,"middle","high","True","False",451,3450,NA
"A3LT7W355XOAKF","Mon Oct 26 2020 22:10:21 GMT-0500 (Central Daylight Time)","Mon Oct 26 2020 22:25:15 GMT-0500 (Central Daylight Time)","Mozilla/5.0 (Windows NT 6.1; Win64; x64; rv:81.0) Gecko/20100101 Firefox/81.0",49,"[0.9, 0.5, 0.1]","[0.8, 0.4, 0.2]","[u'black', u'blue', u'red']","[u'left', u'middle', u'right']","[0.9, 0.5, 0.1]","[u'medium', u'high', u'low']","blue",50,"middle","high","True","False",416,3550,NA
"A3LT7W355XOAKF","Mon Oct 26 2020 22:10:21 GMT-0500 (Central Daylight Time)","Mon Oct 26 2020 22:25:15 GMT-0500 (Central Daylight Time)","Mozilla/5.0 (Windows NT 6.1; Win64; x64; rv:81.0) Gecko/20100101 Firefox/81.0",50,"[0.9, 0.5, 0.1]","[0.8, 0.4, 0.2]","[u'black', u'blue', u'red']","[u'left', u'middle', u'right']","[0.9, 0.5, 0.1]","[u'medium', u'high', u'low']","blue",50,"middle","high","True","False",261,3650,NA
"A3LT7W355XOAKF","Mon Oct 26 2020 22:10:21 GMT-0500 (Central Daylight Time)","Mon Oct 26 2020 22:25:15 GMT-0500 (Central Daylight Time)","Mozilla/5.0 (Windows NT 6.1; Win64; x64; rv:81.0) Gecko/20100101 Firefox/81.0",51,"[0.9, 0.5, 0.1]","[0.8, 0.4, 0.2]","[u'black', u'blue', u'red']","[u'left', u'middle', u'right']","[0.9, 0.5, 0.1]","[u'medium', u'high', u'low']","blue",50,"middle","high","True","True",210,3750,NA
"A3LT7W355XOAKF","Mon Oct 26 2020 22:10:21 GMT-0500 (Central Daylight Time)","Mon Oct 26 2020 22:25:15 GMT-0500 (Central Daylight Time)","Mozilla/5.0 (Windows NT 6.1; Win64; x64; rv:81.0) Gecko/20100101 Firefox/81.0",52,"[0.9, 0.5, 0.1]","[0.8, 0.4, 0.2]","[u'black', u'blue', u'red']","[u'left', u'middle', u'right']","[0.9, 0.5, 0.1]","[u'medium', u'low', u'high']","blue",50,"middle","low","False","False",177,3700,NA
"A3LT7W355XOAKF","Mon Oct 26 2020 22:10:21 GMT-0500 (Central Daylight Time)","Mon Oct 26 2020 22:25:15 GMT-0500 (Central Daylight Time)","Mozilla/5.0 (Windows NT 6.1; Win64; x64; rv:81.0) Gecko/20100101 Firefox/81.0",53,"[0.9, 0.5, 0.1]","[0.8, 0.4, 0.2]","[u'black', u'blue', u'red']","[u'left', u'middle', u'right']","[0.9, 0.5, 0.1]","[u'medium', u'low', u'high']","black",49,"left","medium","False","False",62,3650,NA
"A3LT7W355XOAKF","Mon Oct 26 2020 22:10:21 GMT-0500 (Central Daylight Time)","Mon Oct 26 2020 22:25:15 GMT-0500 (Central Daylight Time)","Mozilla/5.0 (Windows NT 6.1; Win64; x64; rv:81.0) Gecko/20100101 Firefox/81.0",54,"[0.9, 0.5, 0.1]","[0.8, 0.4, 0.2]","[u'black', u'blue', u'red']","[u'left', u'middle', u'right']","[0.9, 0.5, 0.1]","[u'medium', u'low', u'high']","red",51,"right","high","True","False",748,3750,NA
"A3LT7W355XOAKF","Mon Oct 26 2020 22:10:21 GMT-0500 (Central Daylight Time)","Mon Oct 26 2020 22:25:15 GMT-0500 (Central Daylight Time)","Mozilla/5.0 (Windows NT 6.1; Win64; x64; rv:81.0) Gecko/20100101 Firefox/81.0",55,"[0.9, 0.5, 0.1]","[0.8, 0.4, 0.2]","[u'black', u'blue', u'red']","[u'left', u'middle', u'right']","[0.9, 0.5, 0.1]","[u'medium', u'low', u'high']","red",51,"right","high","True","False",201,3850,NA
"A3LT7W355XOAKF","Mon Oct 26 2020 22:10:21 GMT-0500 (Central Daylight Time)","Mon Oct 26 2020 22:25:15 GMT-0500 (Central Daylight Time)","Mozilla/5.0 (Windows NT 6.1; Win64; x64; rv:81.0) Gecko/20100101 Firefox/81.0",56,"[0.9, 0.5, 0.1]","[0.8, 0.4, 0.2]","[u'black', u'blue', u'red']","[u'left', u'middle', u'right']","[0.9, 0.5, 0.1]","[u'medium', u'low', u'high']","red",51,"right","high","True","False",229,3950,NA
"A3LT7W355XOAKF","Mon Oct 26 2020 22:10:21 GMT-0500 (Central Daylight Time)","Mon Oct 26 2020 22:25:15 GMT-0500 (Central Daylight Time)","Mozilla/5.0 (Windows NT 6.1; Win64; x64; rv:81.0) Gecko/20100101 Firefox/81.0",57,"[0.9, 0.5, 0.1]","[0.8, 0.4, 0.2]","[u'black', u'blue', u'red']","[u'left', u'middle', u'right']","[0.9, 0.5, 0.1]","[u'medium', u'low', u'high']","red",51,"right","high","True","False",263,4050,NA
"A3LT7W355XOAKF","Mon Oct 26 2020 22:10:21 GMT-0500 (Central Daylight Time)","Mon Oct 26 2020 22:25:15 GMT-0500 (Central Daylight Time)","Mozilla/5.0 (Windows NT 6.1; Win64; x64; rv:81.0) Gecko/20100101 Firefox/81.0",58,"[0.9, 0.5, 0.1]","[0.8, 0.4, 0.2]","[u'black', u'blue', u'red']","[u'left', u'middle', u'right']","[0.9, 0.5, 0.1]","[u'medium', u'low', u'high']","red",51,"right","high","True","False",290,4150,NA
"A3LT7W355XOAKF","Mon Oct 26 2020 22:10:21 GMT-0500 (Central Daylight Time)","Mon Oct 26 2020 22:25:15 GMT-0500 (Central Daylight Time)","Mozilla/5.0 (Windows NT 6.1; Win64; x64; rv:81.0) Gecko/20100101 Firefox/81.0",59,"[0.9, 0.5, 0.1]","[0.8, 0.4, 0.2]","[u'black', u'blue', u'red']","[u'left', u'middle', u'right']","[0.9, 0.5, 0.1]","[u'medium', u'low', u'high']","red",51,"right","high","True","False",332,4250,NA
"A3LT7W355XOAKF","Mon Oct 26 2020 22:10:21 GMT-0500 (Central Daylight Time)","Mon Oct 26 2020 22:25:15 GMT-0500 (Central Daylight Time)","Mozilla/5.0 (Windows NT 6.1; Win64; x64; rv:81.0) Gecko/20100101 Firefox/81.0",60,"[0.9, 0.5, 0.1]","[0.8, 0.4, 0.2]","[u'black', u'blue', u'red']","[u'left', u'middle', u'right']","[0.9, 0.5, 0.1]","[u'medium', u'low', u'high']","red",51,"right","high","False","False",276,4200,NA
"A3LT7W355XOAKF","Mon Oct 26 2020 22:10:21 GMT-0500 (Central Daylight Time)","Mon Oct 26 2020 22:25:15 GMT-0500 (Central Daylight Time)","Mozilla/5.0 (Windows NT 6.1; Win64; x64; rv:81.0) Gecko/20100101 Firefox/81.0",61,"[0.9, 0.5, 0.1]","[0.8, 0.4, 0.2]","[u'black', u'blue', u'red']","[u'left', u'middle', u'right']","[0.9, 0.5, 0.1]","[u'medium', u'low', u'high']","blue",50,"middle","low","False","False",298,4150,NA
"A3LT7W355XOAKF","Mon Oct 26 2020 22:10:21 GMT-0500 (Central Daylight Time)","Mon Oct 26 2020 22:25:15 GMT-0500 (Central Daylight Time)","Mozilla/5.0 (Windows NT 6.1; Win64; x64; rv:81.0) Gecko/20100101 Firefox/81.0",62,"[0.9, 0.5, 0.1]","[0.8, 0.4, 0.2]","[u'black', u'blue', u'red']","[u'left', u'middle', u'right']","[0.9, 0.5, 0.1]","[u'medium', u'low', u'high']","black",49,"left","medium","True","False",132,4250,NA
"A3LT7W355XOAKF","Mon Oct 26 2020 22:10:21 GMT-0500 (Central Daylight Time)","Mon Oct 26 2020 22:25:15 GMT-0500 (Central Daylight Time)","Mozilla/5.0 (Windows NT 6.1; Win64; x64; rv:81.0) Gecko/20100101 Firefox/81.0",63,"[0.9, 0.5, 0.1]","[0.8, 0.4, 0.2]","[u'black', u'blue', u'red']","[u'left', u'middle', u'right']","[0.9, 0.5, 0.1]","[u'medium', u'low', u'high']","black",49,"left","medium","True","False",308,4350,NA
"A3LT7W355XOAKF","Mon Oct 26 2020 22:10:21 GMT-0500 (Central Daylight Time)","Mon Oct 26 2020 22:25:15 GMT-0500 (Central Daylight Time)","Mozilla/5.0 (Windows NT 6.1; Win64; x64; rv:81.0) Gecko/20100101 Firefox/81.0",64,"[0.9, 0.5, 0.1]","[0.8, 0.4, 0.2]","[u'black', u'blue', u'red']","[u'left', u'middle', u'right']","[0.9, 0.5, 0.1]","[u'medium', u'low', u'high']","black",49,"left","medium","False","False",128,4300,NA
"A3LT7W355XOAKF","Mon Oct 26 2020 22:10:21 GMT-0500 (Central Daylight Time)","Mon Oct 26 2020 22:25:15 GMT-0500 (Central Daylight Time)","Mozilla/5.0 (Windows NT 6.1; Win64; x64; rv:81.0) Gecko/20100101 Firefox/81.0",65,"[0.9, 0.5, 0.1]","[0.8, 0.4, 0.2]","[u'black', u'blue', u'red']","[u'left', u'middle', u'right']","[0.9, 0.5, 0.1]","[u'medium', u'low', u'high']","blue",50,"middle","low","False","False",103,4250,NA
"A3LT7W355XOAKF","Mon Oct 26 2020 22:10:21 GMT-0500 (Central Daylight Time)","Mon Oct 26 2020 22:25:15 GMT-0500 (Central Daylight Time)","Mozilla/5.0 (Windows NT 6.1; Win64; x64; rv:81.0) Gecko/20100101 Firefox/81.0",66,"[0.9, 0.5, 0.1]","[0.8, 0.4, 0.2]","[u'black', u'blue', u'red']","[u'left', u'middle', u'right']","[0.9, 0.5, 0.1]","[u'medium', u'low', u'high']","red",51,"right","high","True","False",313,4350,NA
"A3LT7W355XOAKF","Mon Oct 26 2020 22:10:21 GMT-0500 (Central Daylight Time)","Mon Oct 26 2020 22:25:15 GMT-0500 (Central Daylight Time)","Mozilla/5.0 (Windows NT 6.1; Win64; x64; rv:81.0) Gecko/20100101 Firefox/81.0",67,"[0.9, 0.5, 0.1]","[0.8, 0.4, 0.2]","[u'black', u'blue', u'red']","[u'left', u'middle', u'right']","[0.9, 0.5, 0.1]","[u'medium', u'low', u'high']","red",51,"right","high","True","False",158,4450,NA
"A3LT7W355XOAKF","Mon Oct 26 2020 22:10:21 GMT-0500 (Central Daylight Time)","Mon Oct 26 2020 22:25:15 GMT-0500 (Central Daylight Time)","Mozilla/5.0 (Windows NT 6.1; Win64; x64; rv:81.0) Gecko/20100101 Firefox/81.0",68,"[0.9, 0.5, 0.1]","[0.8, 0.4, 0.2]","[u'black', u'blue', u'red']","[u'left', u'middle', u'right']","[0.9, 0.5, 0.1]","[u'medium', u'low', u'high']","red",51,"right","high","True","False",156,4550,NA
"A3LT7W355XOAKF","Mon Oct 26 2020 22:10:21 GMT-0500 (Central Daylight Time)","Mon Oct 26 2020 22:25:15 GMT-0500 (Central Daylight Time)","Mozilla/5.0 (Windows NT 6.1; Win64; x64; rv:81.0) Gecko/20100101 Firefox/81.0",69,"[0.9, 0.5, 0.1]","[0.8, 0.4, 0.2]","[u'black', u'blue', u'red']","[u'left', u'middle', u'right']","[0.9, 0.5, 0.1]","[u'medium', u'low', u'high']","red",51,"right","high","True","False",182,4650,NA
"A3LT7W355XOAKF","Mon Oct 26 2020 22:10:21 GMT-0500 (Central Daylight Time)","Mon Oct 26 2020 22:25:15 GMT-0500 (Central Daylight Time)","Mozilla/5.0 (Windows NT 6.1; Win64; x64; rv:81.0) Gecko/20100101 Firefox/81.0",70,"[0.9, 0.5, 0.1]","[0.8, 0.4, 0.2]","[u'black', u'blue', u'red']","[u'left', u'middle', u'right']","[0.9, 0.5, 0.1]","[u'medium', u'low', u'high']","red",51,"right","high","True","False",132,4750,NA
"A3LT7W355XOAKF","Mon Oct 26 2020 22:10:21 GMT-0500 (Central Daylight Time)","Mon Oct 26 2020 22:25:15 GMT-0500 (Central Daylight Time)","Mozilla/5.0 (Windows NT 6.1; Win64; x64; rv:81.0) Gecko/20100101 Firefox/81.0",71,"[0.9, 0.5, 0.1]","[0.8, 0.4, 0.2]","[u'black', u'blue', u'red']","[u'left', u'middle', u'right']","[0.9, 0.5, 0.1]","[u'medium', u'low', u'high']","red",51,"right","high","True","False",156,4850,NA
"A3LT7W355XOAKF","Mon Oct 26 2020 22:10:21 GMT-0500 (Central Daylight Time)","Mon Oct 26 2020 22:25:15 GMT-0500 (Central Daylight Time)","Mozilla/5.0 (Windows NT 6.1; Win64; x64; rv:81.0) Gecko/20100101 Firefox/81.0",72,"[0.9, 0.5, 0.1]","[0.8, 0.4, 0.2]","[u'black', u'blue', u'red']","[u'left', u'middle', u'right']","[0.9, 0.5, 0.1]","[u'medium', u'low', u'high']","red",51,"right","high","True","False",333,4950,NA
"A3LT7W355XOAKF","Mon Oct 26 2020 22:10:21 GMT-0500 (Central Daylight Time)","Mon Oct 26 2020 22:25:15 GMT-0500 (Central Daylight Time)","Mozilla/5.0 (Windows NT 6.1; Win64; x64; rv:81.0) Gecko/20100101 Firefox/81.0",73,"[0.9, 0.5, 0.1]","[0.8, 0.4, 0.2]","[u'black', u'blue', u'red']","[u'left', u'middle', u'right']","[0.9, 0.5, 0.1]","[u'medium', u'low', u'high']","red",51,"right","high","True","False",377,5050,NA
"A3LT7W355XOAKF","Mon Oct 26 2020 22:10:21 GMT-0500 (Central Daylight Time)","Mon Oct 26 2020 22:25:15 GMT-0500 (Central Daylight Time)","Mozilla/5.0 (Windows NT 6.1; Win64; x64; rv:81.0) Gecko/20100101 Firefox/81.0",74,"[0.9, 0.5, 0.1]","[0.8, 0.4, 0.2]","[u'black', u'blue', u'red']","[u'left', u'middle', u'right']","[0.9, 0.5, 0.1]","[u'medium', u'low', u'high']","red",51,"right","high","True","True",421,5150,NA
"A3LT7W355XOAKF","Mon Oct 26 2020 22:10:21 GMT-0500 (Central Daylight Time)","Mon Oct 26 2020 22:25:15 GMT-0500 (Central Daylight Time)","Mozilla/5.0 (Windows NT 6.1; Win64; x64; rv:81.0) Gecko/20100101 Firefox/81.0",75,"[0.9, 0.5, 0.1]","[0.8, 0.4, 0.2]","[u'black', u'blue', u'red']","[u'left', u'middle', u'right']","[0.9, 0.5, 0.1]","[u'high', u'low', u'medium']","red",51,"right","medium","True","False",97,5250,NA
"A3LT7W355XOAKF","Mon Oct 26 2020 22:10:21 GMT-0500 (Central Daylight Time)","Mon Oct 26 2020 22:25:15 GMT-0500 (Central Daylight Time)","Mozilla/5.0 (Windows NT 6.1; Win64; x64; rv:81.0) Gecko/20100101 Firefox/81.0",76,"[0.9, 0.5, 0.1]","[0.8, 0.4, 0.2]","[u'black', u'blue', u'red']","[u'left', u'middle', u'right']","[0.9, 0.5, 0.1]","[u'high', u'low', u'medium']","red",51,"right","medium","False","False",210,5200,NA
"A3LT7W355XOAKF","Mon Oct 26 2020 22:10:21 GMT-0500 (Central Daylight Time)","Mon Oct 26 2020 22:25:15 GMT-0500 (Central Daylight Time)","Mozilla/5.0 (Windows NT 6.1; Win64; x64; rv:81.0) Gecko/20100101 Firefox/81.0",77,"[0.9, 0.5, 0.1]","[0.8, 0.4, 0.2]","[u'black', u'blue', u'red']","[u'left', u'middle', u'right']","[0.9, 0.5, 0.1]","[u'high', u'low', u'medium']","black",49,"left","high","True","False",700,5300,NA
"A3LT7W355XOAKF","Mon Oct 26 2020 22:10:21 GMT-0500 (Central Daylight Time)","Mon Oct 26 2020 22:25:15 GMT-0500 (Central Daylight Time)","Mozilla/5.0 (Windows NT 6.1; Win64; x64; rv:81.0) Gecko/20100101 Firefox/81.0",78,"[0.9, 0.5, 0.1]","[0.8, 0.4, 0.2]","[u'black', u'blue', u'red']","[u'left', u'middle', u'right']","[0.9, 0.5, 0.1]","[u'high', u'low', u'medium']","black",49,"left","high","True","False",273,5400,NA
"A3LT7W355XOAKF","Mon Oct 26 2020 22:10:21 GMT-0500 (Central Daylight Time)","Mon Oct 26 2020 22:25:15 GMT-0500 (Central Daylight Time)","Mozilla/5.0 (Windows NT 6.1; Win64; x64; rv:81.0) Gecko/20100101 Firefox/81.0",79,"[0.9, 0.5, 0.1]","[0.8, 0.4, 0.2]","[u'black', u'blue', u'red']","[u'left', u'middle', u'right']","[0.9, 0.5, 0.1]","[u'high', u'low', u'medium']","black",49,"left","high","True","False",305,5500,NA
"A3LT7W355XOAKF","Mon Oct 26 2020 22:10:21 GMT-0500 (Central Daylight Time)","Mon Oct 26 2020 22:25:15 GMT-0500 (Central Daylight Time)","Mozilla/5.0 (Windows NT 6.1; Win64; x64; rv:81.0) Gecko/20100101 Firefox/81.0",80,"[0.9, 0.5, 0.1]","[0.8, 0.4, 0.2]","[u'black', u'blue', u'red']","[u'left', u'middle', u'right']","[0.9, 0.5, 0.1]","[u'high', u'low', u'medium']","black",49,"left","high","True","False",368,5600,NA
"A3LT7W355XOAKF","Mon Oct 26 2020 22:10:21 GMT-0500 (Central Daylight Time)","Mon Oct 26 2020 22:25:15 GMT-0500 (Central Daylight Time)","Mozilla/5.0 (Windows NT 6.1; Win64; x64; rv:81.0) Gecko/20100101 Firefox/81.0",81,"[0.9, 0.5, 0.1]","[0.8, 0.4, 0.2]","[u'black', u'blue', u'red']","[u'left', u'middle', u'right']","[0.8, 0.4, 0.2]","[u'low', u'medium', u'high']","black",49,"left","low","False","False",1029,5550,NA
"A3LT7W355XOAKF","Mon Oct 26 2020 22:10:21 GMT-0500 (Central Daylight Time)","Mon Oct 26 2020 22:25:15 GMT-0500 (Central Daylight Time)","Mozilla/5.0 (Windows NT 6.1; Win64; x64; rv:81.0) Gecko/20100101 Firefox/81.0",82,"[0.9, 0.5, 0.1]","[0.8, 0.4, 0.2]","[u'black', u'blue', u'red']","[u'left', u'middle', u'right']","[0.8, 0.4, 0.2]","[u'low', u'medium', u'high']","red",51,"right","high","True","False",1005,5650,NA
"A3LT7W355XOAKF","Mon Oct 26 2020 22:10:21 GMT-0500 (Central Daylight Time)","Mon Oct 26 2020 22:25:15 GMT-0500 (Central Daylight Time)","Mozilla/5.0 (Windows NT 6.1; Win64; x64; rv:81.0) Gecko/20100101 Firefox/81.0",83,"[0.9, 0.5, 0.1]","[0.8, 0.4, 0.2]","[u'black', u'blue', u'red']","[u'left', u'middle', u'right']","[0.8, 0.4, 0.2]","[u'low', u'medium', u'high']","red",51,"right","high","True","False",157,5750,NA
"A3LT7W355XOAKF","Mon Oct 26 2020 22:10:21 GMT-0500 (Central Daylight Time)","Mon Oct 26 2020 22:25:15 GMT-0500 (Central Daylight Time)","Mozilla/5.0 (Windows NT 6.1; Win64; x64; rv:81.0) Gecko/20100101 Firefox/81.0",84,"[0.9, 0.5, 0.1]","[0.8, 0.4, 0.2]","[u'black', u'blue', u'red']","[u'left', u'middle', u'right']","[0.8, 0.4, 0.2]","[u'low', u'medium', u'high']","red",51,"right","high","True","False",247,5850,NA
"A3LT7W355XOAKF","Mon Oct 26 2020 22:10:21 GMT-0500 (Central Daylight Time)","Mon Oct 26 2020 22:25:15 GMT-0500 (Central Daylight Time)","Mozilla/5.0 (Windows NT 6.1; Win64; x64; rv:81.0) Gecko/20100101 Firefox/81.0",85,"[0.9, 0.5, 0.1]","[0.8, 0.4, 0.2]","[u'black', u'blue', u'red']","[u'left', u'middle', u'right']","[0.8, 0.4, 0.2]","[u'low', u'medium', u'high']","red",51,"right","high","False","False",647,5800,NA
"A3LT7W355XOAKF","Mon Oct 26 2020 22:10:21 GMT-0500 (Central Daylight Time)","Mon Oct 26 2020 22:25:15 GMT-0500 (Central Daylight Time)","Mozilla/5.0 (Windows NT 6.1; Win64; x64; rv:81.0) Gecko/20100101 Firefox/81.0",86,"[0.9, 0.5, 0.1]","[0.8, 0.4, 0.2]","[u'black', u'blue', u'red']","[u'left', u'middle', u'right']","[0.8, 0.4, 0.2]","[u'low', u'medium', u'high']","blue",50,"middle","medium","False","False",377,5750,NA
"A3LT7W355XOAKF","Mon Oct 26 2020 22:10:21 GMT-0500 (Central Daylight Time)","Mon Oct 26 2020 22:25:15 GMT-0500 (Central Daylight Time)","Mozilla/5.0 (Windows NT 6.1; Win64; x64; rv:81.0) Gecko/20100101 Firefox/81.0",87,"[0.9, 0.5, 0.1]","[0.8, 0.4, 0.2]","[u'black', u'blue', u'red']","[u'left', u'middle', u'right']","[0.8, 0.4, 0.2]","[u'low', u'medium', u'high']","black",49,"left","low","False","False",75,5700,NA
"A3LT7W355XOAKF","Mon Oct 26 2020 22:10:21 GMT-0500 (Central Daylight Time)","Mon Oct 26 2020 22:25:15 GMT-0500 (Central Daylight Time)","Mozilla/5.0 (Windows NT 6.1; Win64; x64; rv:81.0) Gecko/20100101 Firefox/81.0",88,"[0.9, 0.5, 0.1]","[0.8, 0.4, 0.2]","[u'black', u'blue', u'red']","[u'left', u'middle', u'right']","[0.8, 0.4, 0.2]","[u'low', u'medium', u'high']","red",51,"right","high","True","False",95,5800,NA
"A3LT7W355XOAKF","Mon Oct 26 2020 22:10:21 GMT-0500 (Central Daylight Time)","Mon Oct 26 2020 22:25:15 GMT-0500 (Central Daylight Time)","Mozilla/5.0 (Windows NT 6.1; Win64; x64; rv:81.0) Gecko/20100101 Firefox/81.0",89,"[0.9, 0.5, 0.1]","[0.8, 0.4, 0.2]","[u'black', u'blue', u'red']","[u'left', u'middle', u'right']","[0.8, 0.4, 0.2]","[u'low', u'medium', u'high']","red",51,"right","high","True","False",230,5900,NA
"A3LT7W355XOAKF","Mon Oct 26 2020 22:10:21 GMT-0500 (Central Daylight Time)","Mon Oct 26 2020 22:25:15 GMT-0500 (Central Daylight Time)","Mozilla/5.0 (Windows NT 6.1; Win64; x64; rv:81.0) Gecko/20100101 Firefox/81.0",90,"[0.9, 0.5, 0.1]","[0.8, 0.4, 0.2]","[u'black', u'blue', u'red']","[u'left', u'middle', u'right']","[0.8, 0.4, 0.2]","[u'low', u'medium', u'high']","red",51,"right","high","True","False",353,6000,NA
"A3LT7W355XOAKF","Mon Oct 26 2020 22:10:21 GMT-0500 (Central Daylight Time)","Mon Oct 26 2020 22:25:15 GMT-0500 (Central Daylight Time)","Mozilla/5.0 (Windows NT 6.1; Win64; x64; rv:81.0) Gecko/20100101 Firefox/81.0",91,"[0.9, 0.5, 0.1]","[0.8, 0.4, 0.2]","[u'black', u'blue', u'red']","[u'left', u'middle', u'right']","[0.8, 0.4, 0.2]","[u'low', u'medium', u'high']","red",51,"right","high","False","False",330,5950,NA
"A3LT7W355XOAKF","Mon Oct 26 2020 22:10:21 GMT-0500 (Central Daylight Time)","Mon Oct 26 2020 22:25:15 GMT-0500 (Central Daylight Time)","Mozilla/5.0 (Windows NT 6.1; Win64; x64; rv:81.0) Gecko/20100101 Firefox/81.0",92,"[0.9, 0.5, 0.1]","[0.8, 0.4, 0.2]","[u'black', u'blue', u'red']","[u'left', u'middle', u'right']","[0.8, 0.4, 0.2]","[u'low', u'medium', u'high']","blue",50,"middle","medium","True","False",201,6050,NA
"A3LT7W355XOAKF","Mon Oct 26 2020 22:10:21 GMT-0500 (Central Daylight Time)","Mon Oct 26 2020 22:25:15 GMT-0500 (Central Daylight Time)","Mozilla/5.0 (Windows NT 6.1; Win64; x64; rv:81.0) Gecko/20100101 Firefox/81.0",93,"[0.9, 0.5, 0.1]","[0.8, 0.4, 0.2]","[u'black', u'blue', u'red']","[u'left', u'middle', u'right']","[0.8, 0.4, 0.2]","[u'low', u'medium', u'high']","blue",50,"middle","medium","False","False",384,6000,NA
"A3LT7W355XOAKF","Mon Oct 26 2020 22:10:21 GMT-0500 (Central Daylight Time)","Mon Oct 26 2020 22:25:15 GMT-0500 (Central Daylight Time)","Mozilla/5.0 (Windows NT 6.1; Win64; x64; rv:81.0) Gecko/20100101 Firefox/81.0",94,"[0.9, 0.5, 0.1]","[0.8, 0.4, 0.2]","[u'black', u'blue', u'red']","[u'left', u'middle', u'right']","[0.8, 0.4, 0.2]","[u'low', u'medium', u'high']","black",49,"left","low","False","False",153,5950,NA
"A3LT7W355XOAKF","Mon Oct 26 2020 22:10:21 GMT-0500 (Central Daylight Time)","Mon Oct 26 2020 22:25:15 GMT-0500 (Central Daylight Time)","Mozilla/5.0 (Windows NT 6.1; Win64; x64; rv:81.0) Gecko/20100101 Firefox/81.0",95,"[0.9, 0.5, 0.1]","[0.8, 0.4, 0.2]","[u'black', u'blue', u'red']","[u'left', u'middle', u'right']","[0.8, 0.4, 0.2]","[u'low', u'medium', u'high']","red",51,"right","high","True","False",1065,6050,NA
"A3LT7W355XOAKF","Mon Oct 26 2020 22:10:21 GMT-0500 (Central Daylight Time)","Mon Oct 26 2020 22:25:15 GMT-0500 (Central Daylight Time)","Mozilla/5.0 (Windows NT 6.1; Win64; x64; rv:81.0) Gecko/20100101 Firefox/81.0",96,"[0.9, 0.5, 0.1]","[0.8, 0.4, 0.2]","[u'black', u'blue', u'red']","[u'left', u'middle', u'right']","[0.8, 0.4, 0.2]","[u'low', u'medium', u'high']","red",51,"right","high","True","False",587,6150,NA
"A3LT7W355XOAKF","Mon Oct 26 2020 22:10:21 GMT-0500 (Central Daylight Time)","Mon Oct 26 2020 22:25:15 GMT-0500 (Central Daylight Time)","Mozilla/5.0 (Windows NT 6.1; Win64; x64; rv:81.0) Gecko/20100101 Firefox/81.0",97,"[0.9, 0.5, 0.1]","[0.8, 0.4, 0.2]","[u'black', u'blue', u'red']","[u'left', u'middle', u'right']","[0.8, 0.4, 0.2]","[u'low', u'medium', u'high']","red",51,"right","high","True","False",310,6250,NA
"A3LT7W355XOAKF","Mon Oct 26 2020 22:10:21 GMT-0500 (Central Daylight Time)","Mon Oct 26 2020 22:25:15 GMT-0500 (Central Daylight Time)","Mozilla/5.0 (Windows NT 6.1; Win64; x64; rv:81.0) Gecko/20100101 Firefox/81.0",98,"[0.9, 0.5, 0.1]","[0.8, 0.4, 0.2]","[u'black', u'blue', u'red']","[u'left', u'middle', u'right']","[0.8, 0.4, 0.2]","[u'low', u'medium', u'high']","red",51,"right","high","False","False",344,6200,NA
"A3LT7W355XOAKF","Mon Oct 26 2020 22:10:21 GMT-0500 (Central Daylight Time)","Mon Oct 26 2020 22:25:15 GMT-0500 (Central Daylight Time)","Mozilla/5.0 (Windows NT 6.1; Win64; x64; rv:81.0) Gecko/20100101 Firefox/81.0",99,"[0.9, 0.5, 0.1]","[0.8, 0.4, 0.2]","[u'black', u'blue', u'red']","[u'left', u'middle', u'right']","[0.8, 0.4, 0.2]","[u'low', u'medium', u'high']","blue",50,"middle","medium","False","False",1121,6150,NA
"A3LT7W355XOAKF","Mon Oct 26 2020 22:10:21 GMT-0500 (Central Daylight Time)","Mon Oct 26 2020 22:25:15 GMT-0500 (Central Daylight Time)","Mozilla/5.0 (Windows NT 6.1; Win64; x64; rv:81.0) Gecko/20100101 Firefox/81.0",100,"[0.9, 0.5, 0.1]","[0.8, 0.4, 0.2]","[u'black', u'blue', u'red']","[u'left', u'middle', u'right']","[0.8, 0.4, 0.2]","[u'low', u'medium', u'high']","black",49,"left","low","False","False",109,6100,NA
"A3LT7W355XOAKF","Mon Oct 26 2020 22:10:21 GMT-0500 (Central Daylight Time)","Mon Oct 26 2020 22:25:15 GMT-0500 (Central Daylight Time)","Mozilla/5.0 (Windows NT 6.1; Win64; x64; rv:81.0) Gecko/20100101 Firefox/81.0",101,"[0.9, 0.5, 0.1]","[0.8, 0.4, 0.2]","[u'black', u'blue', u'red']","[u'left', u'middle', u'right']","[0.8, 0.4, 0.2]","[u'low', u'medium', u'high']","red",51,"right","high","True","False",325,6200,NA
"A3LT7W355XOAKF","Mon Oct 26 2020 22:10:21 GMT-0500 (Central Daylight Time)","Mon Oct 26 2020 22:25:15 GMT-0500 (Central Daylight Time)","Mozilla/5.0 (Windows NT 6.1; Win64; x64; rv:81.0) Gecko/20100101 Firefox/81.0",102,"[0.9, 0.5, 0.1]","[0.8, 0.4, 0.2]","[u'black', u'blue', u'red']","[u'left', u'middle', u'right']","[0.8, 0.4, 0.2]","[u'low', u'medium', u'high']","red",51,"right","high","True","False",108,6300,NA
"A3LT7W355XOAKF","Mon Oct 26 2020 22:10:21 GMT-0500 (Central Daylight Time)","Mon Oct 26 2020 22:25:15 GMT-0500 (Central Daylight Time)","Mozilla/5.0 (Windows NT 6.1; Win64; x64; rv:81.0) Gecko/20100101 Firefox/81.0",103,"[0.9, 0.5, 0.1]","[0.8, 0.4, 0.2]","[u'black', u'blue', u'red']","[u'left', u'middle', u'right']","[0.8, 0.4, 0.2]","[u'low', u'medium', u'high']","red",51,"right","high","True","False",172,6400,NA
"A3LT7W355XOAKF","Mon Oct 26 2020 22:10:21 GMT-0500 (Central Daylight Time)","Mon Oct 26 2020 22:25:15 GMT-0500 (Central Daylight Time)","Mozilla/5.0 (Windows NT 6.1; Win64; x64; rv:81.0) Gecko/20100101 Firefox/81.0",104,"[0.9, 0.5, 0.1]","[0.8, 0.4, 0.2]","[u'black', u'blue', u'red']","[u'left', u'middle', u'right']","[0.8, 0.4, 0.2]","[u'low', u'medium', u'high']","red",51,"right","high","True","False",236,6500,NA
"A3LT7W355XOAKF","Mon Oct 26 2020 22:10:21 GMT-0500 (Central Daylight Time)","Mon Oct 26 2020 22:25:15 GMT-0500 (Central Daylight Time)","Mozilla/5.0 (Windows NT 6.1; Win64; x64; rv:81.0) Gecko/20100101 Firefox/81.0",105,"[0.9, 0.5, 0.1]","[0.8, 0.4, 0.2]","[u'black', u'blue', u'red']","[u'left', u'middle', u'right']","[0.8, 0.4, 0.2]","[u'low', u'medium', u'high']","red",51,"right","high","True","False",978,6600,NA
"A3LT7W355XOAKF","Mon Oct 26 2020 22:10:21 GMT-0500 (Central Daylight Time)","Mon Oct 26 2020 22:25:15 GMT-0500 (Central Daylight Time)","Mozilla/5.0 (Windows NT 6.1; Win64; x64; rv:81.0) Gecko/20100101 Firefox/81.0",106,"[0.9, 0.5, 0.1]","[0.8, 0.4, 0.2]","[u'black', u'blue', u'red']","[u'left', u'middle', u'right']","[0.8, 0.4, 0.2]","[u'low', u'medium', u'high']","red",51,"right","high","False","False",716,6550,NA
"A3LT7W355XOAKF","Mon Oct 26 2020 22:10:21 GMT-0500 (Central Daylight Time)","Mon Oct 26 2020 22:25:15 GMT-0500 (Central Daylight Time)","Mozilla/5.0 (Windows NT 6.1; Win64; x64; rv:81.0) Gecko/20100101 Firefox/81.0",107,"[0.9, 0.5, 0.1]","[0.8, 0.4, 0.2]","[u'black', u'blue', u'red']","[u'left', u'middle', u'right']","[0.8, 0.4, 0.2]","[u'low', u'medium', u'high']","blue",50,"middle","medium","False","False",2298,6500,NA
"A3LT7W355XOAKF","Mon Oct 26 2020 22:10:21 GMT-0500 (Central Daylight Time)","Mon Oct 26 2020 22:25:15 GMT-0500 (Central Daylight Time)","Mozilla/5.0 (Windows NT 6.1; Win64; x64; rv:81.0) Gecko/20100101 Firefox/81.0",108,"[0.9, 0.5, 0.1]","[0.8, 0.4, 0.2]","[u'black', u'blue', u'red']","[u'left', u'middle', u'right']","[0.8, 0.4, 0.2]","[u'low', u'medium', u'high']","black",49,"left","low","False","False",437,6450,NA
"A3LT7W355XOAKF","Mon Oct 26 2020 22:10:21 GMT-0500 (Central Daylight Time)","Mon Oct 26 2020 22:25:15 GMT-0500 (Central Daylight Time)","Mozilla/5.0 (Windows NT 6.1; Win64; x64; rv:81.0) Gecko/20100101 Firefox/81.0",109,"[0.9, 0.5, 0.1]","[0.8, 0.4, 0.2]","[u'black', u'blue', u'red']","[u'left', u'middle', u'right']","[0.8, 0.4, 0.2]","[u'low', u'medium', u'high']","blue",50,"middle","medium","False","False",887,6400,NA
"A3LT7W355XOAKF","Mon Oct 26 2020 22:10:21 GMT-0500 (Central Daylight Time)","Mon Oct 26 2020 22:25:15 GMT-0500 (Central Daylight Time)","Mozilla/5.0 (Windows NT 6.1; Win64; x64; rv:81.0) Gecko/20100101 Firefox/81.0",110,"[0.9, 0.5, 0.1]","[0.8, 0.4, 0.2]","[u'black', u'blue', u'red']","[u'left', u'middle', u'right']","[0.8, 0.4, 0.2]","[u'low', u'medium', u'high']","red",51,"right","high","True","False",1079,6500,NA
"A3LT7W355XOAKF","Mon Oct 26 2020 22:10:21 GMT-0500 (Central Daylight Time)","Mon Oct 26 2020 22:25:15 GMT-0500 (Central Daylight Time)","Mozilla/5.0 (Windows NT 6.1; Win64; x64; rv:81.0) Gecko/20100101 Firefox/81.0",111,"[0.9, 0.5, 0.1]","[0.8, 0.4, 0.2]","[u'black', u'blue', u'red']","[u'left', u'middle', u'right']","[0.8, 0.4, 0.2]","[u'low', u'medium', u'high']","red",51,"right","high","True","False",437,6600,NA
"A3LT7W355XOAKF","Mon Oct 26 2020 22:10:21 GMT-0500 (Central Daylight Time)","Mon Oct 26 2020 22:25:15 GMT-0500 (Central Daylight Time)","Mozilla/5.0 (Windows NT 6.1; Win64; x64; rv:81.0) Gecko/20100101 Firefox/81.0",112,"[0.9, 0.5, 0.1]","[0.8, 0.4, 0.2]","[u'black', u'blue', u'red']","[u'left', u'middle', u'right']","[0.8, 0.4, 0.2]","[u'low', u'medium', u'high']","red",51,"right","high","True","False",179,6700,NA
"A3LT7W355XOAKF","Mon Oct 26 2020 22:10:21 GMT-0500 (Central Daylight Time)","Mon Oct 26 2020 22:25:15 GMT-0500 (Central Daylight Time)","Mozilla/5.0 (Windows NT 6.1; Win64; x64; rv:81.0) Gecko/20100101 Firefox/81.0",113,"[0.9, 0.5, 0.1]","[0.8, 0.4, 0.2]","[u'black', u'blue', u'red']","[u'left', u'middle', u'right']","[0.8, 0.4, 0.2]","[u'low', u'medium', u'high']","red",51,"right","high","True","False",250,6800,NA
"A3LT7W355XOAKF","Mon Oct 26 2020 22:10:21 GMT-0500 (Central Daylight Time)","Mon Oct 26 2020 22:25:15 GMT-0500 (Central Daylight Time)","Mozilla/5.0 (Windows NT 6.1; Win64; x64; rv:81.0) Gecko/20100101 Firefox/81.0",114,"[0.9, 0.5, 0.1]","[0.8, 0.4, 0.2]","[u'black', u'blue', u'red']","[u'left', u'middle', u'right']","[0.8, 0.4, 0.2]","[u'low', u'medium', u'high']","red",51,"right","high","True","False",383,6900,NA
"A3LT7W355XOAKF","Mon Oct 26 2020 22:10:21 GMT-0500 (Central Daylight Time)","Mon Oct 26 2020 22:25:15 GMT-0500 (Central Daylight Time)","Mozilla/5.0 (Windows NT 6.1; Win64; x64; rv:81.0) Gecko/20100101 Firefox/81.0",115,"[0.9, 0.5, 0.1]","[0.8, 0.4, 0.2]","[u'black', u'blue', u'red']","[u'left', u'middle', u'right']","[0.8, 0.4, 0.2]","[u'low', u'medium', u'high']","red",51,"right","high","True","False",409,7000,NA
"A3LT7W355XOAKF","Mon Oct 26 2020 22:10:21 GMT-0500 (Central Daylight Time)","Mon Oct 26 2020 22:25:15 GMT-0500 (Central Daylight Time)","Mozilla/5.0 (Windows NT 6.1; Win64; x64; rv:81.0) Gecko/20100101 Firefox/81.0",116,"[0.9, 0.5, 0.1]","[0.8, 0.4, 0.2]","[u'black', u'blue', u'red']","[u'left', u'middle', u'right']","[0.8, 0.4, 0.2]","[u'low', u'medium', u'high']","red",51,"right","high","True","False",317,7100,NA
"A3LT7W355XOAKF","Mon Oct 26 2020 22:10:21 GMT-0500 (Central Daylight Time)","Mon Oct 26 2020 22:25:15 GMT-0500 (Central Daylight Time)","Mozilla/5.0 (Windows NT 6.1; Win64; x64; rv:81.0) Gecko/20100101 Firefox/81.0",117,"[0.9, 0.5, 0.1]","[0.8, 0.4, 0.2]","[u'black', u'blue', u'red']","[u'left', u'middle', u'right']","[0.8, 0.4, 0.2]","[u'low', u'medium', u'high']","red",51,"right","high","True","False",379,7200,NA
"A3LT7W355XOAKF","Mon Oct 26 2020 22:10:21 GMT-0500 (Central Daylight Time)","Mon Oct 26 2020 22:25:15 GMT-0500 (Central Daylight Time)","Mozilla/5.0 (Windows NT 6.1; Win64; x64; rv:81.0) Gecko/20100101 Firefox/81.0",118,"[0.9, 0.5, 0.1]","[0.8, 0.4, 0.2]","[u'black', u'blue', u'red']","[u'left', u'middle', u'right']","[0.8, 0.4, 0.2]","[u'low', u'medium', u'high']","red",51,"right","high","True","True",191,7300,NA
"A3LT7W355XOAKF","Mon Oct 26 2020 22:10:21 GMT-0500 (Central Daylight Time)","Mon Oct 26 2020 22:25:15 GMT-0500 (Central Daylight Time)","Mozilla/5.0 (Windows NT 6.1; Win64; x64; rv:81.0) Gecko/20100101 Firefox/81.0",119,"[0.9, 0.5, 0.1]","[0.8, 0.4, 0.2]","[u'black', u'blue', u'red']","[u'left', u'middle', u'right']","[0.8, 0.4, 0.2]","[u'high', u'low', u'medium']","red",51,"right","medium","False","False",194,7250,NA
"A3LT7W355XOAKF","Mon Oct 26 2020 22:10:21 GMT-0500 (Central Daylight Time)","Mon Oct 26 2020 22:25:15 GMT-0500 (Central Daylight Time)","Mozilla/5.0 (Windows NT 6.1; Win64; x64; rv:81.0) Gecko/20100101 Firefox/81.0",120,"[0.9, 0.5, 0.1]","[0.8, 0.4, 0.2]","[u'black', u'blue', u'red']","[u'left', u'middle', u'right']","[0.8, 0.4, 0.2]","[u'high', u'low', u'medium']","blue",50,"middle","low","True","False",50,7350,NA
"A3LT7W355XOAKF","Mon Oct 26 2020 22:10:21 GMT-0500 (Central Daylight Time)","Mon Oct 26 2020 22:25:15 GMT-0500 (Central Daylight Time)","Mozilla/5.0 (Windows NT 6.1; Win64; x64; rv:81.0) Gecko/20100101 Firefox/81.0",121,"[0.9, 0.5, 0.1]","[0.8, 0.4, 0.2]","[u'black', u'blue', u'red']","[u'left', u'middle', u'right']","[0.8, 0.4, 0.2]","[u'low', u'high', u'medium']","black",49,"left","low","False","False",2118,7300,NA
"A3LT7W355XOAKF","Mon Oct 26 2020 22:10:21 GMT-0500 (Central Daylight Time)","Mon Oct 26 2020 22:25:15 GMT-0500 (Central Daylight Time)","Mozilla/5.0 (Windows NT 6.1; Win64; x64; rv:81.0) Gecko/20100101 Firefox/81.0",122,"[0.9, 0.5, 0.1]","[0.8, 0.4, 0.2]","[u'black', u'blue', u'red']","[u'left', u'middle', u'right']","[0.8, 0.4, 0.2]","[u'low', u'high', u'medium']","blue",50,"middle","high","True","False",164,7400,NA
"A3LT7W355XOAKF","Mon Oct 26 2020 22:10:21 GMT-0500 (Central Daylight Time)","Mon Oct 26 2020 22:25:15 GMT-0500 (Central Daylight Time)","Mozilla/5.0 (Windows NT 6.1; Win64; x64; rv:81.0) Gecko/20100101 Firefox/81.0",123,"[0.9, 0.5, 0.1]","[0.8, 0.4, 0.2]","[u'black', u'blue', u'red']","[u'left', u'middle', u'right']","[0.8, 0.4, 0.2]","[u'low', u'high', u'medium']","blue",50,"middle","high","False","False",165,7350,NA
"A3LT7W355XOAKF","Mon Oct 26 2020 22:10:21 GMT-0500 (Central Daylight Time)","Mon Oct 26 2020 22:25:15 GMT-0500 (Central Daylight Time)","Mozilla/5.0 (Windows NT 6.1; Win64; x64; rv:81.0) Gecko/20100101 Firefox/81.0",124,"[0.9, 0.5, 0.1]","[0.8, 0.4, 0.2]","[u'black', u'blue', u'red']","[u'left', u'middle', u'right']","[0.8, 0.4, 0.2]","[u'low', u'high', u'medium']","red",51,"right","medium","False","False",67,7300,NA
"A3LT7W355XOAKF","Mon Oct 26 2020 22:10:21 GMT-0500 (Central Daylight Time)","Mon Oct 26 2020 22:25:15 GMT-0500 (Central Daylight Time)","Mozilla/5.0 (Windows NT 6.1; Win64; x64; rv:81.0) Gecko/20100101 Firefox/81.0",125,"[0.9, 0.5, 0.1]","[0.8, 0.4, 0.2]","[u'black', u'blue', u'red']","[u'left', u'middle', u'right']","[0.8, 0.4, 0.2]","[u'low', u'high', u'medium']","blue",50,"middle","high","True","False",256,7400,NA
"A3LT7W355XOAKF","Mon Oct 26 2020 22:10:21 GMT-0500 (Central Daylight Time)","Mon Oct 26 2020 22:25:15 GMT-0500 (Central Daylight Time)","Mozilla/5.0 (Windows NT 6.1; Win64; x64; rv:81.0) Gecko/20100101 Firefox/81.0",126,"[0.9, 0.5, 0.1]","[0.8, 0.4, 0.2]","[u'black', u'blue', u'red']","[u'left', u'middle', u'right']","[0.8, 0.4, 0.2]","[u'low', u'high', u'medium']","blue",50,"middle","high","False","False",794,7350,NA
"A3LT7W355XOAKF","Mon Oct 26 2020 22:10:21 GMT-0500 (Central Daylight Time)","Mon Oct 26 2020 22:25:15 GMT-0500 (Central Daylight Time)","Mozilla/5.0 (Windows NT 6.1; Win64; x64; rv:81.0) Gecko/20100101 Firefox/81.0",127,"[0.9, 0.5, 0.1]","[0.8, 0.4, 0.2]","[u'black', u'blue', u'red']","[u'left', u'middle', u'right']","[0.8, 0.4, 0.2]","[u'low', u'high', u'medium']","black",49,"left","low","False","False",296,7300,NA
"A3LT7W355XOAKF","Mon Oct 26 2020 22:10:21 GMT-0500 (Central Daylight Time)","Mon Oct 26 2020 22:25:15 GMT-0500 (Central Daylight Time)","Mozilla/5.0 (Windows NT 6.1; Win64; x64; rv:81.0) Gecko/20100101 Firefox/81.0",128,"[0.9, 0.5, 0.1]","[0.8, 0.4, 0.2]","[u'black', u'blue', u'red']","[u'left', u'middle', u'right']","[0.8, 0.4, 0.2]","[u'low', u'high', u'medium']","red",51,"right","medium","False","False",128,7250,NA
"A3LT7W355XOAKF","Mon Oct 26 2020 22:10:21 GMT-0500 (Central Daylight Time)","Mon Oct 26 2020 22:25:15 GMT-0500 (Central Daylight Time)","Mozilla/5.0 (Windows NT 6.1; Win64; x64; rv:81.0) Gecko/20100101 Firefox/81.0",129,"[0.9, 0.5, 0.1]","[0.8, 0.4, 0.2]","[u'black', u'blue', u'red']","[u'left', u'middle', u'right']","[0.8, 0.4, 0.2]","[u'low', u'high', u'medium']","blue",50,"middle","high","False","False",160,7200,NA
"A3LT7W355XOAKF","Mon Oct 26 2020 22:10:21 GMT-0500 (Central Daylight Time)","Mon Oct 26 2020 22:25:15 GMT-0500 (Central Daylight Time)","Mozilla/5.0 (Windows NT 6.1; Win64; x64; rv:81.0) Gecko/20100101 Firefox/81.0",130,"[0.9, 0.5, 0.1]","[0.8, 0.4, 0.2]","[u'black', u'blue', u'red']","[u'left', u'middle', u'right']","[0.8, 0.4, 0.2]","[u'low', u'high', u'medium']","blue",50,"middle","high","True","False",131,7300,NA
"A3LT7W355XOAKF","Mon Oct 26 2020 22:10:21 GMT-0500 (Central Daylight Time)","Mon Oct 26 2020 22:25:15 GMT-0500 (Central Daylight Time)","Mozilla/5.0 (Windows NT 6.1; Win64; x64; rv:81.0) Gecko/20100101 Firefox/81.0",131,"[0.9, 0.5, 0.1]","[0.8, 0.4, 0.2]","[u'black', u'blue', u'red']","[u'left', u'middle', u'right']","[0.8, 0.4, 0.2]","[u'low', u'high', u'medium']","blue",50,"middle","high","True","False",110,7400,NA
"A3LT7W355XOAKF","Mon Oct 26 2020 22:10:21 GMT-0500 (Central Daylight Time)","Mon Oct 26 2020 22:25:15 GMT-0500 (Central Daylight Time)","Mozilla/5.0 (Windows NT 6.1; Win64; x64; rv:81.0) Gecko/20100101 Firefox/81.0",132,"[0.9, 0.5, 0.1]","[0.8, 0.4, 0.2]","[u'black', u'blue', u'red']","[u'left', u'middle', u'right']","[0.8, 0.4, 0.2]","[u'low', u'high', u'medium']","blue",50,"middle","high","True","False",119,7500,NA
"A3LT7W355XOAKF","Mon Oct 26 2020 22:10:21 GMT-0500 (Central Daylight Time)","Mon Oct 26 2020 22:25:15 GMT-0500 (Central Daylight Time)","Mozilla/5.0 (Windows NT 6.1; Win64; x64; rv:81.0) Gecko/20100101 Firefox/81.0",133,"[0.9, 0.5, 0.1]","[0.8, 0.4, 0.2]","[u'black', u'blue', u'red']","[u'left', u'middle', u'right']","[0.8, 0.4, 0.2]","[u'low', u'high', u'medium']","blue",50,"middle","high","True","False",188,7600,NA
"A3LT7W355XOAKF","Mon Oct 26 2020 22:10:21 GMT-0500 (Central Daylight Time)","Mon Oct 26 2020 22:25:15 GMT-0500 (Central Daylight Time)","Mozilla/5.0 (Windows NT 6.1; Win64; x64; rv:81.0) Gecko/20100101 Firefox/81.0",134,"[0.9, 0.5, 0.1]","[0.8, 0.4, 0.2]","[u'black', u'blue', u'red']","[u'left', u'middle', u'right']","[0.8, 0.4, 0.2]","[u'low', u'high', u'medium']","blue",50,"middle","high","True","False",60,7700,NA
"A3LT7W355XOAKF","Mon Oct 26 2020 22:10:21 GMT-0500 (Central Daylight Time)","Mon Oct 26 2020 22:25:15 GMT-0500 (Central Daylight Time)","Mozilla/5.0 (Windows NT 6.1; Win64; x64; rv:81.0) Gecko/20100101 Firefox/81.0",135,"[0.9, 0.5, 0.1]","[0.8, 0.4, 0.2]","[u'black', u'blue', u'red']","[u'left', u'middle', u'right']","[0.8, 0.4, 0.2]","[u'low', u'high', u'medium']","blue",50,"middle","high","False","False",31,7650,NA
"A3LT7W355XOAKF","Mon Oct 26 2020 22:10:21 GMT-0500 (Central Daylight Time)","Mon Oct 26 2020 22:25:15 GMT-0500 (Central Daylight Time)","Mozilla/5.0 (Windows NT 6.1; Win64; x64; rv:81.0) Gecko/20100101 Firefox/81.0",136,"[0.9, 0.5, 0.1]","[0.8, 0.4, 0.2]","[u'black', u'blue', u'red']","[u'left', u'middle', u'right']","[0.8, 0.4, 0.2]","[u'low', u'high', u'medium']","blue",50,"middle","high","True","False",249,7750,NA
"A3LT7W355XOAKF","Mon Oct 26 2020 22:10:21 GMT-0500 (Central Daylight Time)","Mon Oct 26 2020 22:25:15 GMT-0500 (Central Daylight Time)","Mozilla/5.0 (Windows NT 6.1; Win64; x64; rv:81.0) Gecko/20100101 Firefox/81.0",137,"[0.9, 0.5, 0.1]","[0.8, 0.4, 0.2]","[u'black', u'blue', u'red']","[u'left', u'middle', u'right']","[0.8, 0.4, 0.2]","[u'low', u'high', u'medium']","blue",50,"middle","high","True","True",239,7850,NA
"A3LT7W355XOAKF","Mon Oct 26 2020 22:10:21 GMT-0500 (Central Daylight Time)","Mon Oct 26 2020 22:25:15 GMT-0500 (Central Daylight Time)","Mozilla/5.0 (Windows NT 6.1; Win64; x64; rv:81.0) Gecko/20100101 Firefox/81.0",138,"[0.9, 0.5, 0.1]","[0.8, 0.4, 0.2]","[u'black', u'blue', u'red']","[u'left', u'middle', u'right']","[0.8, 0.4, 0.2]","[u'high', u'medium', u'low']","blue",50,"middle","medium","True","False",162,7950,NA
"A3LT7W355XOAKF","Mon Oct 26 2020 22:10:21 GMT-0500 (Central Daylight Time)","Mon Oct 26 2020 22:25:15 GMT-0500 (Central Daylight Time)","Mozilla/5.0 (Windows NT 6.1; Win64; x64; rv:81.0) Gecko/20100101 Firefox/81.0",139,"[0.9, 0.5, 0.1]","[0.8, 0.4, 0.2]","[u'black', u'blue', u'red']","[u'left', u'middle', u'right']","[0.8, 0.4, 0.2]","[u'high', u'medium', u'low']","blue",50,"middle","medium","True","False",92,8050,NA
"A3LT7W355XOAKF","Mon Oct 26 2020 22:10:21 GMT-0500 (Central Daylight Time)","Mon Oct 26 2020 22:25:15 GMT-0500 (Central Daylight Time)","Mozilla/5.0 (Windows NT 6.1; Win64; x64; rv:81.0) Gecko/20100101 Firefox/81.0",140,"[0.9, 0.5, 0.1]","[0.8, 0.4, 0.2]","[u'black', u'blue', u'red']","[u'left', u'middle', u'right']","[0.8, 0.4, 0.2]","[u'high', u'medium', u'low']","blue",50,"middle","medium","True","False",966,8150,NA
"A3LT7W355XOAKF","Mon Oct 26 2020 22:10:21 GMT-0500 (Central Daylight Time)","Mon Oct 26 2020 22:25:15 GMT-0500 (Central Daylight Time)","Mozilla/5.0 (Windows NT 6.1; Win64; x64; rv:81.0) Gecko/20100101 Firefox/81.0",141,"[0.9, 0.5, 0.1]","[0.8, 0.4, 0.2]","[u'black', u'blue', u'red']","[u'left', u'middle', u'right']","[0.8, 0.4, 0.2]","[u'high', u'medium', u'low']","blue",50,"middle","medium","False","False",346,8100,NA
"A3LT7W355XOAKF","Mon Oct 26 2020 22:10:21 GMT-0500 (Central Daylight Time)","Mon Oct 26 2020 22:25:15 GMT-0500 (Central Daylight Time)","Mozilla/5.0 (Windows NT 6.1; Win64; x64; rv:81.0) Gecko/20100101 Firefox/81.0",142,"[0.9, 0.5, 0.1]","[0.8, 0.4, 0.2]","[u'black', u'blue', u'red']","[u'left', u'middle', u'right']","[0.8, 0.4, 0.2]","[u'high', u'medium', u'low']","blue",50,"middle","medium","True","False",21,8200,NA
"A3LT7W355XOAKF","Mon Oct 26 2020 22:10:21 GMT-0500 (Central Daylight Time)","Mon Oct 26 2020 22:25:15 GMT-0500 (Central Daylight Time)","Mozilla/5.0 (Windows NT 6.1; Win64; x64; rv:81.0) Gecko/20100101 Firefox/81.0",143,"[0.9, 0.5, 0.1]","[0.8, 0.4, 0.2]","[u'black', u'blue', u'red']","[u'left', u'middle', u'right']","[0.8, 0.4, 0.2]","[u'high', u'medium', u'low']","blue",50,"middle","medium","True","False",245,8300,NA
"A3LT7W355XOAKF","Mon Oct 26 2020 22:10:21 GMT-0500 (Central Daylight Time)","Mon Oct 26 2020 22:25:15 GMT-0500 (Central Daylight Time)","Mozilla/5.0 (Windows NT 6.1; Win64; x64; rv:81.0) Gecko/20100101 Firefox/81.0",144,"[0.9, 0.5, 0.1]","[0.8, 0.4, 0.2]","[u'black', u'blue', u'red']","[u'left', u'middle', u'right']","[0.8, 0.4, 0.2]","[u'high', u'medium', u'low']","blue",50,"middle","medium","False","False",198,8250,NA
"A3LT7W355XOAKF","Mon Oct 26 2020 22:10:21 GMT-0500 (Central Daylight Time)","Mon Oct 26 2020 22:25:15 GMT-0500 (Central Daylight Time)","Mozilla/5.0 (Windows NT 6.1; Win64; x64; rv:81.0) Gecko/20100101 Firefox/81.0",145,"[0.9, 0.5, 0.1]","[0.8, 0.4, 0.2]","[u'black', u'blue', u'red']","[u'left', u'middle', u'right']","[0.8, 0.4, 0.2]","[u'high', u'medium', u'low']","blue",50,"middle","medium","True","False",127,8350,NA
"A3LT7W355XOAKF","Mon Oct 26 2020 22:10:21 GMT-0500 (Central Daylight Time)","Mon Oct 26 2020 22:25:15 GMT-0500 (Central Daylight Time)","Mozilla/5.0 (Windows NT 6.1; Win64; x64; rv:81.0) Gecko/20100101 Firefox/81.0",146,"[0.9, 0.5, 0.1]","[0.8, 0.4, 0.2]","[u'black', u'blue', u'red']","[u'left', u'middle', u'right']","[0.8, 0.4, 0.2]","[u'high', u'medium', u'low']","blue",50,"middle","medium","False","False",180,8300,NA
"A3LT7W355XOAKF","Mon Oct 26 2020 22:10:21 GMT-0500 (Central Daylight Time)","Mon Oct 26 2020 22:25:15 GMT-0500 (Central Daylight Time)","Mozilla/5.0 (Windows NT 6.1; Win64; x64; rv:81.0) Gecko/20100101 Firefox/81.0",147,"[0.9, 0.5, 0.1]","[0.8, 0.4, 0.2]","[u'black', u'blue', u'red']","[u'left', u'middle', u'right']","[0.8, 0.4, 0.2]","[u'high', u'medium', u'low']","blue",50,"middle","medium","True","False",224,8400,NA
"A3LT7W355XOAKF","Mon Oct 26 2020 22:10:21 GMT-0500 (Central Daylight Time)","Mon Oct 26 2020 22:25:15 GMT-0500 (Central Daylight Time)","Mozilla/5.0 (Windows NT 6.1; Win64; x64; rv:81.0) Gecko/20100101 Firefox/81.0",148,"[0.9, 0.5, 0.1]","[0.8, 0.4, 0.2]","[u'black', u'blue', u'red']","[u'left', u'middle', u'right']","[0.8, 0.4, 0.2]","[u'high', u'medium', u'low']","blue",50,"middle","medium","True","False",153,8500,NA
"A3LT7W355XOAKF","Mon Oct 26 2020 22:10:21 GMT-0500 (Central Daylight Time)","Mon Oct 26 2020 22:25:15 GMT-0500 (Central Daylight Time)","Mozilla/5.0 (Windows NT 6.1; Win64; x64; rv:81.0) Gecko/20100101 Firefox/81.0",149,"[0.9, 0.5, 0.1]","[0.8, 0.4, 0.2]","[u'black', u'blue', u'red']","[u'left', u'middle', u'right']","[0.8, 0.4, 0.2]","[u'high', u'medium', u'low']","blue",50,"middle","medium","False","False",197,8450,NA
"A3LT7W355XOAKF","Mon Oct 26 2020 22:10:21 GMT-0500 (Central Daylight Time)","Mon Oct 26 2020 22:25:15 GMT-0500 (Central Daylight Time)","Mozilla/5.0 (Windows NT 6.1; Win64; x64; rv:81.0) Gecko/20100101 Firefox/81.0",150,"[0.9, 0.5, 0.1]","[0.8, 0.4, 0.2]","[u'black', u'blue', u'red']","[u'left', u'middle', u'right']","[0.8, 0.4, 0.2]","[u'high', u'medium', u'low']","blue",50,"middle","medium","True","False",193,8550,NA
"A3LT7W355XOAKF","Mon Oct 26 2020 22:10:21 GMT-0500 (Central Daylight Time)","Mon Oct 26 2020 22:25:15 GMT-0500 (Central Daylight Time)","Mozilla/5.0 (Windows NT 6.1; Win64; x64; rv:81.0) Gecko/20100101 Firefox/81.0",151,"[0.9, 0.5, 0.1]","[0.8, 0.4, 0.2]","[u'black', u'blue', u'red']","[u'left', u'middle', u'right']","[0.8, 0.4, 0.2]","[u'high', u'medium', u'low']","blue",50,"middle","medium","False","False",252,8500,NA
"A3LT7W355XOAKF","Mon Oct 26 2020 22:10:21 GMT-0500 (Central Daylight Time)","Mon Oct 26 2020 22:25:15 GMT-0500 (Central Daylight Time)","Mozilla/5.0 (Windows NT 6.1; Win64; x64; rv:81.0) Gecko/20100101 Firefox/81.0",152,"[0.9, 0.5, 0.1]","[0.8, 0.4, 0.2]","[u'black', u'blue', u'red']","[u'left', u'middle', u'right']","[0.8, 0.4, 0.2]","[u'high', u'medium', u'low']","blue",50,"middle","medium","False","False",1124,8450,NA
"A3LT7W355XOAKF","Mon Oct 26 2020 22:10:21 GMT-0500 (Central Daylight Time)","Mon Oct 26 2020 22:25:15 GMT-0500 (Central Daylight Time)","Mozilla/5.0 (Windows NT 6.1; Win64; x64; rv:81.0) Gecko/20100101 Firefox/81.0",153,"[0.9, 0.5, 0.1]","[0.8, 0.4, 0.2]","[u'black', u'blue', u'red']","[u'left', u'middle', u'right']","[0.8, 0.4, 0.2]","[u'high', u'medium', u'low']","red",51,"right","low","False","False",782,8400,NA
"A3LT7W355XOAKF","Mon Oct 26 2020 22:10:21 GMT-0500 (Central Daylight Time)","Mon Oct 26 2020 22:25:15 GMT-0500 (Central Daylight Time)","Mozilla/5.0 (Windows NT 6.1; Win64; x64; rv:81.0) Gecko/20100101 Firefox/81.0",154,"[0.9, 0.5, 0.1]","[0.8, 0.4, 0.2]","[u'black', u'blue', u'red']","[u'left', u'middle', u'right']","[0.8, 0.4, 0.2]","[u'high', u'medium', u'low']","black",49,"left","high","True","False",78,8500,NA
"A3LT7W355XOAKF","Mon Oct 26 2020 22:10:21 GMT-0500 (Central Daylight Time)","Mon Oct 26 2020 22:25:15 GMT-0500 (Central Daylight Time)","Mozilla/5.0 (Windows NT 6.1; Win64; x64; rv:81.0) Gecko/20100101 Firefox/81.0",155,"[0.9, 0.5, 0.1]","[0.8, 0.4, 0.2]","[u'black', u'blue', u'red']","[u'left', u'middle', u'right']","[0.8, 0.4, 0.2]","[u'high', u'medium', u'low']","black",49,"left","high","True","False",163,8600,NA
"A3LT7W355XOAKF","Mon Oct 26 2020 22:10:21 GMT-0500 (Central Daylight Time)","Mon Oct 26 2020 22:25:15 GMT-0500 (Central Daylight Time)","Mozilla/5.0 (Windows NT 6.1; Win64; x64; rv:81.0) Gecko/20100101 Firefox/81.0",156,"[0.9, 0.5, 0.1]","[0.8, 0.4, 0.2]","[u'black', u'blue', u'red']","[u'left', u'middle', u'right']","[0.8, 0.4, 0.2]","[u'high', u'medium', u'low']","black",49,"left","high","True","False",170,8700,NA
"A3LT7W355XOAKF","Mon Oct 26 2020 22:10:21 GMT-0500 (Central Daylight Time)","Mon Oct 26 2020 22:25:15 GMT-0500 (Central Daylight Time)","Mozilla/5.0 (Windows NT 6.1; Win64; x64; rv:81.0) Gecko/20100101 Firefox/81.0",157,"[0.9, 0.5, 0.1]","[0.8, 0.4, 0.2]","[u'black', u'blue', u'red']","[u'left', u'middle', u'right']","[0.8, 0.4, 0.2]","[u'high', u'medium', u'low']","black",49,"left","high","False","False",113,8650,NA
"A3LT7W355XOAKF","Mon Oct 26 2020 22:10:21 GMT-0500 (Central Daylight Time)","Mon Oct 26 2020 22:25:15 GMT-0500 (Central Daylight Time)","Mozilla/5.0 (Windows NT 6.1; Win64; x64; rv:81.0) Gecko/20100101 Firefox/81.0",158,"[0.9, 0.5, 0.1]","[0.8, 0.4, 0.2]","[u'black', u'blue', u'red']","[u'left', u'middle', u'right']","[0.8, 0.4, 0.2]","[u'high', u'medium', u'low']","black",49,"left","high","True","False",139,8750,NA
"A3LT7W355XOAKF","Mon Oct 26 2020 22:10:21 GMT-0500 (Central Daylight Time)","Mon Oct 26 2020 22:25:15 GMT-0500 (Central Daylight Time)","Mozilla/5.0 (Windows NT 6.1; Win64; x64; rv:81.0) Gecko/20100101 Firefox/81.0",159,"[0.9, 0.5, 0.1]","[0.8, 0.4, 0.2]","[u'black', u'blue', u'red']","[u'left', u'middle', u'right']","[0.8, 0.4, 0.2]","[u'high', u'medium', u'low']","black",49,"left","high","False","False",135,8700,NA
"A3LT7W355XOAKF","Mon Oct 26 2020 22:10:21 GMT-0500 (Central Daylight Time)","Mon Oct 26 2020 22:25:15 GMT-0500 (Central Daylight Time)","Mozilla/5.0 (Windows NT 6.1; Win64; x64; rv:81.0) Gecko/20100101 Firefox/81.0",160,"[0.9, 0.5, 0.1]","[0.8, 0.4, 0.2]","[u'black', u'blue', u'red']","[u'left', u'middle', u'right']","[0.8, 0.4, 0.2]","[u'high', u'medium', u'low']","red",51,"right","low","False","False",905,8650,NA
