"src_subject_id","start_time","end_time","browser","index","first_half_probabilities","second_half_probabilities","deck_color","deck_position","deck_probabilities","deck_contingencies","response_color","key_press","response_position","response_probability","reward_type","trial_type","rt","reward_tally","exclusion_reason"
"A2JA0C0PI7KIMJ","Tue Oct 27 2020 10:44:33 GMT-0400 (Eastern Daylight Time)","Tue Oct 27 2020 10:52:40 GMT-0400 (Eastern Daylight Time)","Mozilla/5.0 (Windows NT 6.3; Win64; x64) AppleWebKit/537.36 (KHTML, like Gecko) Chrome/86.0.4240.111 Safari/537.36",1,"[0.9, 0.5, 0.1]","[0.8, 0.4, 0.2]","[u'red', u'blue', u'black']","[u'left', u'middle', u'right']","[0.9, 0.5, 0.1]","[u'high', u'medium', u'low']","red",49,"left","high","True","False",1853,100,NA
"A2JA0C0PI7KIMJ","Tue Oct 27 2020 10:44:33 GMT-0400 (Eastern Daylight Time)","Tue Oct 27 2020 10:52:40 GMT-0400 (Eastern Daylight Time)","Mozilla/5.0 (Windows NT 6.3; Win64; x64) AppleWebKit/537.36 (KHTML, like Gecko) Chrome/86.0.4240.111 Safari/537.36",2,"[0.9, 0.5, 0.1]","[0.8, 0.4, 0.2]","[u'red', u'blue', u'black']","[u'left', u'middle', u'right']","[0.9, 0.5, 0.1]","[u'high', u'medium', u'low']","blue",50,"middle","medium","False","False",1136,50,NA
"A2JA0C0PI7KIMJ","Tue Oct 27 2020 10:44:33 GMT-0400 (Eastern Daylight Time)","Tue Oct 27 2020 10:52:40 GMT-0400 (Eastern Daylight Time)","Mozilla/5.0 (Windows NT 6.3; Win64; x64) AppleWebKit/537.36 (KHTML, like Gecko) Chrome/86.0.4240.111 Safari/537.36",3,"[0.9, 0.5, 0.1]","[0.8, 0.4, 0.2]","[u'red', u'blue', u'black']","[u'left', u'middle', u'right']","[0.9, 0.5, 0.1]","[u'high', u'medium', u'low']","black",51,"right","low","False","False",877,0,NA
"A2JA0C0PI7KIMJ","Tue Oct 27 2020 10:44:33 GMT-0400 (Eastern Daylight Time)","Tue Oct 27 2020 10:52:40 GMT-0400 (Eastern Daylight Time)","Mozilla/5.0 (Windows NT 6.3; Win64; x64) AppleWebKit/537.36 (KHTML, like Gecko) Chrome/86.0.4240.111 Safari/537.36",4,"[0.9, 0.5, 0.1]","[0.8, 0.4, 0.2]","[u'red', u'blue', u'black']","[u'left', u'middle', u'right']","[0.9, 0.5, 0.1]","[u'high', u'medium', u'low']","red",49,"left","high","True","False",693,100,NA
"A2JA0C0PI7KIMJ","Tue Oct 27 2020 10:44:33 GMT-0400 (Eastern Daylight Time)","Tue Oct 27 2020 10:52:40 GMT-0400 (Eastern Daylight Time)","Mozilla/5.0 (Windows NT 6.3; Win64; x64) AppleWebKit/537.36 (KHTML, like Gecko) Chrome/86.0.4240.111 Safari/537.36",5,"[0.9, 0.5, 0.1]","[0.8, 0.4, 0.2]","[u'red', u'blue', u'black']","[u'left', u'middle', u'right']","[0.9, 0.5, 0.1]","[u'high', u'medium', u'low']","red",49,"left","high","True","False",875,200,NA
"A2JA0C0PI7KIMJ","Tue Oct 27 2020 10:44:33 GMT-0400 (Eastern Daylight Time)","Tue Oct 27 2020 10:52:40 GMT-0400 (Eastern Daylight Time)","Mozilla/5.0 (Windows NT 6.3; Win64; x64) AppleWebKit/537.36 (KHTML, like Gecko) Chrome/86.0.4240.111 Safari/537.36",6,"[0.9, 0.5, 0.1]","[0.8, 0.4, 0.2]","[u'red', u'blue', u'black']","[u'left', u'middle', u'right']","[0.9, 0.5, 0.1]","[u'high', u'medium', u'low']","red",49,"left","high","True","False",708,300,NA
"A2JA0C0PI7KIMJ","Tue Oct 27 2020 10:44:33 GMT-0400 (Eastern Daylight Time)","Tue Oct 27 2020 10:52:40 GMT-0400 (Eastern Daylight Time)","Mozilla/5.0 (Windows NT 6.3; Win64; x64) AppleWebKit/537.36 (KHTML, like Gecko) Chrome/86.0.4240.111 Safari/537.36",7,"[0.9, 0.5, 0.1]","[0.8, 0.4, 0.2]","[u'red', u'blue', u'black']","[u'left', u'middle', u'right']","[0.9, 0.5, 0.1]","[u'high', u'medium', u'low']","red",49,"left","high","True","False",434,400,NA
"A2JA0C0PI7KIMJ","Tue Oct 27 2020 10:44:33 GMT-0400 (Eastern Daylight Time)","Tue Oct 27 2020 10:52:40 GMT-0400 (Eastern Daylight Time)","Mozilla/5.0 (Windows NT 6.3; Win64; x64) AppleWebKit/537.36 (KHTML, like Gecko) Chrome/86.0.4240.111 Safari/537.36",8,"[0.9, 0.5, 0.1]","[0.8, 0.4, 0.2]","[u'red', u'blue', u'black']","[u'left', u'middle', u'right']","[0.9, 0.5, 0.1]","[u'high', u'medium', u'low']","red",49,"left","high","True","False",292,500,NA
"A2JA0C0PI7KIMJ","Tue Oct 27 2020 10:44:33 GMT-0400 (Eastern Daylight Time)","Tue Oct 27 2020 10:52:40 GMT-0400 (Eastern Daylight Time)","Mozilla/5.0 (Windows NT 6.3; Win64; x64) AppleWebKit/537.36 (KHTML, like Gecko) Chrome/86.0.4240.111 Safari/537.36",9,"[0.9, 0.5, 0.1]","[0.8, 0.4, 0.2]","[u'red', u'blue', u'black']","[u'left', u'middle', u'right']","[0.9, 0.5, 0.1]","[u'high', u'medium', u'low']","blue",50,"middle","medium","False","False",359,450,NA
"A2JA0C0PI7KIMJ","Tue Oct 27 2020 10:44:33 GMT-0400 (Eastern Daylight Time)","Tue Oct 27 2020 10:52:40 GMT-0400 (Eastern Daylight Time)","Mozilla/5.0 (Windows NT 6.3; Win64; x64) AppleWebKit/537.36 (KHTML, like Gecko) Chrome/86.0.4240.111 Safari/537.36",10,"[0.9, 0.5, 0.1]","[0.8, 0.4, 0.2]","[u'red', u'blue', u'black']","[u'left', u'middle', u'right']","[0.9, 0.5, 0.1]","[u'high', u'medium', u'low']","red",49,"left","high","True","False",10608,550,NA
"A2JA0C0PI7KIMJ","Tue Oct 27 2020 10:44:33 GMT-0400 (Eastern Daylight Time)","Tue Oct 27 2020 10:52:40 GMT-0400 (Eastern Daylight Time)","Mozilla/5.0 (Windows NT 6.3; Win64; x64) AppleWebKit/537.36 (KHTML, like Gecko) Chrome/86.0.4240.111 Safari/537.36",11,"[0.9, 0.5, 0.1]","[0.8, 0.4, 0.2]","[u'red', u'blue', u'black']","[u'left', u'middle', u'right']","[0.9, 0.5, 0.1]","[u'high', u'medium', u'low']","blue",50,"middle","medium","True","False",818,650,NA
"A2JA0C0PI7KIMJ","Tue Oct 27 2020 10:44:33 GMT-0400 (Eastern Daylight Time)","Tue Oct 27 2020 10:52:40 GMT-0400 (Eastern Daylight Time)","Mozilla/5.0 (Windows NT 6.3; Win64; x64) AppleWebKit/537.36 (KHTML, like Gecko) Chrome/86.0.4240.111 Safari/537.36",12,"[0.9, 0.5, 0.1]","[0.8, 0.4, 0.2]","[u'red', u'blue', u'black']","[u'left', u'middle', u'right']","[0.9, 0.5, 0.1]","[u'high', u'medium', u'low']","blue",50,"middle","medium","False","False",1011,600,NA
"A2JA0C0PI7KIMJ","Tue Oct 27 2020 10:44:33 GMT-0400 (Eastern Daylight Time)","Tue Oct 27 2020 10:52:40 GMT-0400 (Eastern Daylight Time)","Mozilla/5.0 (Windows NT 6.3; Win64; x64) AppleWebKit/537.36 (KHTML, like Gecko) Chrome/86.0.4240.111 Safari/537.36",13,"[0.9, 0.5, 0.1]","[0.8, 0.4, 0.2]","[u'red', u'blue', u'black']","[u'left', u'middle', u'right']","[0.9, 0.5, 0.1]","[u'high', u'medium', u'low']","blue",50,"middle","medium","False","False",858,550,NA
"A2JA0C0PI7KIMJ","Tue Oct 27 2020 10:44:33 GMT-0400 (Eastern Daylight Time)","Tue Oct 27 2020 10:52:40 GMT-0400 (Eastern Daylight Time)","Mozilla/5.0 (Windows NT 6.3; Win64; x64) AppleWebKit/537.36 (KHTML, like Gecko) Chrome/86.0.4240.111 Safari/537.36",14,"[0.9, 0.5, 0.1]","[0.8, 0.4, 0.2]","[u'red', u'blue', u'black']","[u'left', u'middle', u'right']","[0.9, 0.5, 0.1]","[u'high', u'medium', u'low']","red",49,"left","high","True","False",968,650,NA
"A2JA0C0PI7KIMJ","Tue Oct 27 2020 10:44:33 GMT-0400 (Eastern Daylight Time)","Tue Oct 27 2020 10:52:40 GMT-0400 (Eastern Daylight Time)","Mozilla/5.0 (Windows NT 6.3; Win64; x64) AppleWebKit/537.36 (KHTML, like Gecko) Chrome/86.0.4240.111 Safari/537.36",15,"[0.9, 0.5, 0.1]","[0.8, 0.4, 0.2]","[u'red', u'blue', u'black']","[u'left', u'middle', u'right']","[0.9, 0.5, 0.1]","[u'high', u'medium', u'low']","blue",50,"middle","medium","False","False",66,600,NA
"A2JA0C0PI7KIMJ","Tue Oct 27 2020 10:44:33 GMT-0400 (Eastern Daylight Time)","Tue Oct 27 2020 10:52:40 GMT-0400 (Eastern Daylight Time)","Mozilla/5.0 (Windows NT 6.3; Win64; x64) AppleWebKit/537.36 (KHTML, like Gecko) Chrome/86.0.4240.111 Safari/537.36",16,"[0.9, 0.5, 0.1]","[0.8, 0.4, 0.2]","[u'red', u'blue', u'black']","[u'left', u'middle', u'right']","[0.9, 0.5, 0.1]","[u'high', u'medium', u'low']","blue",50,"middle","medium","False","False",883,550,NA
"A2JA0C0PI7KIMJ","Tue Oct 27 2020 10:44:33 GMT-0400 (Eastern Daylight Time)","Tue Oct 27 2020 10:52:40 GMT-0400 (Eastern Daylight Time)","Mozilla/5.0 (Windows NT 6.3; Win64; x64) AppleWebKit/537.36 (KHTML, like Gecko) Chrome/86.0.4240.111 Safari/537.36",17,"[0.9, 0.5, 0.1]","[0.8, 0.4, 0.2]","[u'red', u'blue', u'black']","[u'left', u'middle', u'right']","[0.9, 0.5, 0.1]","[u'high', u'medium', u'low']","black",51,"right","low","False","False",785,500,NA
"A2JA0C0PI7KIMJ","Tue Oct 27 2020 10:44:33 GMT-0400 (Eastern Daylight Time)","Tue Oct 27 2020 10:52:40 GMT-0400 (Eastern Daylight Time)","Mozilla/5.0 (Windows NT 6.3; Win64; x64) AppleWebKit/537.36 (KHTML, like Gecko) Chrome/86.0.4240.111 Safari/537.36",18,"[0.9, 0.5, 0.1]","[0.8, 0.4, 0.2]","[u'red', u'blue', u'black']","[u'left', u'middle', u'right']","[0.9, 0.5, 0.1]","[u'high', u'medium', u'low']","red",49,"left","high","True","False",997,600,NA
"A2JA0C0PI7KIMJ","Tue Oct 27 2020 10:44:33 GMT-0400 (Eastern Daylight Time)","Tue Oct 27 2020 10:52:40 GMT-0400 (Eastern Daylight Time)","Mozilla/5.0 (Windows NT 6.3; Win64; x64) AppleWebKit/537.36 (KHTML, like Gecko) Chrome/86.0.4240.111 Safari/537.36",19,"[0.9, 0.5, 0.1]","[0.8, 0.4, 0.2]","[u'red', u'blue', u'black']","[u'left', u'middle', u'right']","[0.9, 0.5, 0.1]","[u'high', u'medium', u'low']","blue",50,"middle","medium","False","False",3289,550,NA
"A2JA0C0PI7KIMJ","Tue Oct 27 2020 10:44:33 GMT-0400 (Eastern Daylight Time)","Tue Oct 27 2020 10:52:40 GMT-0400 (Eastern Daylight Time)","Mozilla/5.0 (Windows NT 6.3; Win64; x64) AppleWebKit/537.36 (KHTML, like Gecko) Chrome/86.0.4240.111 Safari/537.36",20,"[0.9, 0.5, 0.1]","[0.8, 0.4, 0.2]","[u'red', u'blue', u'black']","[u'left', u'middle', u'right']","[0.9, 0.5, 0.1]","[u'high', u'medium', u'low']","red",49,"left","high","True","False",1033,650,NA
"A2JA0C0PI7KIMJ","Tue Oct 27 2020 10:44:33 GMT-0400 (Eastern Daylight Time)","Tue Oct 27 2020 10:52:40 GMT-0400 (Eastern Daylight Time)","Mozilla/5.0 (Windows NT 6.3; Win64; x64) AppleWebKit/537.36 (KHTML, like Gecko) Chrome/86.0.4240.111 Safari/537.36",21,"[0.9, 0.5, 0.1]","[0.8, 0.4, 0.2]","[u'red', u'blue', u'black']","[u'left', u'middle', u'right']","[0.9, 0.5, 0.1]","[u'high', u'medium', u'low']","red",49,"left","high","True","False",1130,750,NA
"A2JA0C0PI7KIMJ","Tue Oct 27 2020 10:44:33 GMT-0400 (Eastern Daylight Time)","Tue Oct 27 2020 10:52:40 GMT-0400 (Eastern Daylight Time)","Mozilla/5.0 (Windows NT 6.3; Win64; x64) AppleWebKit/537.36 (KHTML, like Gecko) Chrome/86.0.4240.111 Safari/537.36",22,"[0.9, 0.5, 0.1]","[0.8, 0.4, 0.2]","[u'red', u'blue', u'black']","[u'left', u'middle', u'right']","[0.9, 0.5, 0.1]","[u'high', u'medium', u'low']","blue",50,"middle","medium","False","False",742,700,NA
"A2JA0C0PI7KIMJ","Tue Oct 27 2020 10:44:33 GMT-0400 (Eastern Daylight Time)","Tue Oct 27 2020 10:52:40 GMT-0400 (Eastern Daylight Time)","Mozilla/5.0 (Windows NT 6.3; Win64; x64) AppleWebKit/537.36 (KHTML, like Gecko) Chrome/86.0.4240.111 Safari/537.36",23,"[0.9, 0.5, 0.1]","[0.8, 0.4, 0.2]","[u'red', u'blue', u'black']","[u'left', u'middle', u'right']","[0.9, 0.5, 0.1]","[u'high', u'medium', u'low']","red",49,"left","high","False","False",1028,650,NA
"A2JA0C0PI7KIMJ","Tue Oct 27 2020 10:44:33 GMT-0400 (Eastern Daylight Time)","Tue Oct 27 2020 10:52:40 GMT-0400 (Eastern Daylight Time)","Mozilla/5.0 (Windows NT 6.3; Win64; x64) AppleWebKit/537.36 (KHTML, like Gecko) Chrome/86.0.4240.111 Safari/537.36",24,"[0.9, 0.5, 0.1]","[0.8, 0.4, 0.2]","[u'red', u'blue', u'black']","[u'left', u'middle', u'right']","[0.9, 0.5, 0.1]","[u'high', u'medium', u'low']","blue",50,"middle","medium","False","False",1129,600,NA
"A2JA0C0PI7KIMJ","Tue Oct 27 2020 10:44:33 GMT-0400 (Eastern Daylight Time)","Tue Oct 27 2020 10:52:40 GMT-0400 (Eastern Daylight Time)","Mozilla/5.0 (Windows NT 6.3; Win64; x64) AppleWebKit/537.36 (KHTML, like Gecko) Chrome/86.0.4240.111 Safari/537.36",25,"[0.9, 0.5, 0.1]","[0.8, 0.4, 0.2]","[u'red', u'blue', u'black']","[u'left', u'middle', u'right']","[0.9, 0.5, 0.1]","[u'high', u'medium', u'low']","black",51,"right","low","False","False",787,550,NA
"A2JA0C0PI7KIMJ","Tue Oct 27 2020 10:44:33 GMT-0400 (Eastern Daylight Time)","Tue Oct 27 2020 10:52:40 GMT-0400 (Eastern Daylight Time)","Mozilla/5.0 (Windows NT 6.3; Win64; x64) AppleWebKit/537.36 (KHTML, like Gecko) Chrome/86.0.4240.111 Safari/537.36",26,"[0.9, 0.5, 0.1]","[0.8, 0.4, 0.2]","[u'red', u'blue', u'black']","[u'left', u'middle', u'right']","[0.9, 0.5, 0.1]","[u'high', u'medium', u'low']","blue",50,"middle","medium","True","False",368,650,NA
"A2JA0C0PI7KIMJ","Tue Oct 27 2020 10:44:33 GMT-0400 (Eastern Daylight Time)","Tue Oct 27 2020 10:52:40 GMT-0400 (Eastern Daylight Time)","Mozilla/5.0 (Windows NT 6.3; Win64; x64) AppleWebKit/537.36 (KHTML, like Gecko) Chrome/86.0.4240.111 Safari/537.36",27,"[0.9, 0.5, 0.1]","[0.8, 0.4, 0.2]","[u'red', u'blue', u'black']","[u'left', u'middle', u'right']","[0.9, 0.5, 0.1]","[u'high', u'medium', u'low']","red",49,"left","high","True","False",687,750,NA
"A2JA0C0PI7KIMJ","Tue Oct 27 2020 10:44:33 GMT-0400 (Eastern Daylight Time)","Tue Oct 27 2020 10:52:40 GMT-0400 (Eastern Daylight Time)","Mozilla/5.0 (Windows NT 6.3; Win64; x64) AppleWebKit/537.36 (KHTML, like Gecko) Chrome/86.0.4240.111 Safari/537.36",28,"[0.9, 0.5, 0.1]","[0.8, 0.4, 0.2]","[u'red', u'blue', u'black']","[u'left', u'middle', u'right']","[0.9, 0.5, 0.1]","[u'high', u'medium', u'low']","red",49,"left","high","True","False",740,850,NA
"A2JA0C0PI7KIMJ","Tue Oct 27 2020 10:44:33 GMT-0400 (Eastern Daylight Time)","Tue Oct 27 2020 10:52:40 GMT-0400 (Eastern Daylight Time)","Mozilla/5.0 (Windows NT 6.3; Win64; x64) AppleWebKit/537.36 (KHTML, like Gecko) Chrome/86.0.4240.111 Safari/537.36",29,"[0.9, 0.5, 0.1]","[0.8, 0.4, 0.2]","[u'red', u'blue', u'black']","[u'left', u'middle', u'right']","[0.9, 0.5, 0.1]","[u'high', u'medium', u'low']","red",49,"left","high","True","False",988,950,NA
"A2JA0C0PI7KIMJ","Tue Oct 27 2020 10:44:33 GMT-0400 (Eastern Daylight Time)","Tue Oct 27 2020 10:52:40 GMT-0400 (Eastern Daylight Time)","Mozilla/5.0 (Windows NT 6.3; Win64; x64) AppleWebKit/537.36 (KHTML, like Gecko) Chrome/86.0.4240.111 Safari/537.36",30,"[0.9, 0.5, 0.1]","[0.8, 0.4, 0.2]","[u'red', u'blue', u'black']","[u'left', u'middle', u'right']","[0.9, 0.5, 0.1]","[u'high', u'medium', u'low']","red",49,"left","high","True","False",107,1050,NA
"A2JA0C0PI7KIMJ","Tue Oct 27 2020 10:44:33 GMT-0400 (Eastern Daylight Time)","Tue Oct 27 2020 10:52:40 GMT-0400 (Eastern Daylight Time)","Mozilla/5.0 (Windows NT 6.3; Win64; x64) AppleWebKit/537.36 (KHTML, like Gecko) Chrome/86.0.4240.111 Safari/537.36",31,"[0.9, 0.5, 0.1]","[0.8, 0.4, 0.2]","[u'red', u'blue', u'black']","[u'left', u'middle', u'right']","[0.9, 0.5, 0.1]","[u'high', u'medium', u'low']","blue",50,"middle","medium","True","False",119,1150,NA
"A2JA0C0PI7KIMJ","Tue Oct 27 2020 10:44:33 GMT-0400 (Eastern Daylight Time)","Tue Oct 27 2020 10:52:40 GMT-0400 (Eastern Daylight Time)","Mozilla/5.0 (Windows NT 6.3; Win64; x64) AppleWebKit/537.36 (KHTML, like Gecko) Chrome/86.0.4240.111 Safari/537.36",32,"[0.9, 0.5, 0.1]","[0.8, 0.4, 0.2]","[u'red', u'blue', u'black']","[u'left', u'middle', u'right']","[0.9, 0.5, 0.1]","[u'high', u'medium', u'low']","red",49,"left","high","True","False",447,1250,NA
"A2JA0C0PI7KIMJ","Tue Oct 27 2020 10:44:33 GMT-0400 (Eastern Daylight Time)","Tue Oct 27 2020 10:52:40 GMT-0400 (Eastern Daylight Time)","Mozilla/5.0 (Windows NT 6.3; Win64; x64) AppleWebKit/537.36 (KHTML, like Gecko) Chrome/86.0.4240.111 Safari/537.36",33,"[0.9, 0.5, 0.1]","[0.8, 0.4, 0.2]","[u'red', u'blue', u'black']","[u'left', u'middle', u'right']","[0.9, 0.5, 0.1]","[u'high', u'medium', u'low']","red",49,"left","high","True","False",139,1350,NA
"A2JA0C0PI7KIMJ","Tue Oct 27 2020 10:44:33 GMT-0400 (Eastern Daylight Time)","Tue Oct 27 2020 10:52:40 GMT-0400 (Eastern Daylight Time)","Mozilla/5.0 (Windows NT 6.3; Win64; x64) AppleWebKit/537.36 (KHTML, like Gecko) Chrome/86.0.4240.111 Safari/537.36",34,"[0.9, 0.5, 0.1]","[0.8, 0.4, 0.2]","[u'red', u'blue', u'black']","[u'left', u'middle', u'right']","[0.9, 0.5, 0.1]","[u'high', u'medium', u'low']","blue",50,"middle","medium","False","False",810,1300,NA
"A2JA0C0PI7KIMJ","Tue Oct 27 2020 10:44:33 GMT-0400 (Eastern Daylight Time)","Tue Oct 27 2020 10:52:40 GMT-0400 (Eastern Daylight Time)","Mozilla/5.0 (Windows NT 6.3; Win64; x64) AppleWebKit/537.36 (KHTML, like Gecko) Chrome/86.0.4240.111 Safari/537.36",35,"[0.9, 0.5, 0.1]","[0.8, 0.4, 0.2]","[u'red', u'blue', u'black']","[u'left', u'middle', u'right']","[0.9, 0.5, 0.1]","[u'high', u'medium', u'low']","blue",50,"middle","medium","False","False",648,1250,NA
"A2JA0C0PI7KIMJ","Tue Oct 27 2020 10:44:33 GMT-0400 (Eastern Daylight Time)","Tue Oct 27 2020 10:52:40 GMT-0400 (Eastern Daylight Time)","Mozilla/5.0 (Windows NT 6.3; Win64; x64) AppleWebKit/537.36 (KHTML, like Gecko) Chrome/86.0.4240.111 Safari/537.36",36,"[0.9, 0.5, 0.1]","[0.8, 0.4, 0.2]","[u'red', u'blue', u'black']","[u'left', u'middle', u'right']","[0.9, 0.5, 0.1]","[u'high', u'medium', u'low']","red",49,"left","high","True","False",831,1350,NA
"A2JA0C0PI7KIMJ","Tue Oct 27 2020 10:44:33 GMT-0400 (Eastern Daylight Time)","Tue Oct 27 2020 10:52:40 GMT-0400 (Eastern Daylight Time)","Mozilla/5.0 (Windows NT 6.3; Win64; x64) AppleWebKit/537.36 (KHTML, like Gecko) Chrome/86.0.4240.111 Safari/537.36",37,"[0.9, 0.5, 0.1]","[0.8, 0.4, 0.2]","[u'red', u'blue', u'black']","[u'left', u'middle', u'right']","[0.9, 0.5, 0.1]","[u'high', u'medium', u'low']","blue",50,"middle","medium","True","False",336,1450,NA
"A2JA0C0PI7KIMJ","Tue Oct 27 2020 10:44:33 GMT-0400 (Eastern Daylight Time)","Tue Oct 27 2020 10:52:40 GMT-0400 (Eastern Daylight Time)","Mozilla/5.0 (Windows NT 6.3; Win64; x64) AppleWebKit/537.36 (KHTML, like Gecko) Chrome/86.0.4240.111 Safari/537.36",38,"[0.9, 0.5, 0.1]","[0.8, 0.4, 0.2]","[u'red', u'blue', u'black']","[u'left', u'middle', u'right']","[0.9, 0.5, 0.1]","[u'high', u'medium', u'low']","blue",50,"middle","medium","False","False",21,1400,NA
"A2JA0C0PI7KIMJ","Tue Oct 27 2020 10:44:33 GMT-0400 (Eastern Daylight Time)","Tue Oct 27 2020 10:52:40 GMT-0400 (Eastern Daylight Time)","Mozilla/5.0 (Windows NT 6.3; Win64; x64) AppleWebKit/537.36 (KHTML, like Gecko) Chrome/86.0.4240.111 Safari/537.36",39,"[0.9, 0.5, 0.1]","[0.8, 0.4, 0.2]","[u'red', u'blue', u'black']","[u'left', u'middle', u'right']","[0.9, 0.5, 0.1]","[u'high', u'medium', u'low']","blue",50,"middle","medium","False","False",758,1350,NA
"A2JA0C0PI7KIMJ","Tue Oct 27 2020 10:44:33 GMT-0400 (Eastern Daylight Time)","Tue Oct 27 2020 10:52:40 GMT-0400 (Eastern Daylight Time)","Mozilla/5.0 (Windows NT 6.3; Win64; x64) AppleWebKit/537.36 (KHTML, like Gecko) Chrome/86.0.4240.111 Safari/537.36",40,"[0.9, 0.5, 0.1]","[0.8, 0.4, 0.2]","[u'red', u'blue', u'black']","[u'left', u'middle', u'right']","[0.9, 0.5, 0.1]","[u'high', u'medium', u'low']","red",49,"left","high","True","False",558,1450,NA
"A2JA0C0PI7KIMJ","Tue Oct 27 2020 10:44:33 GMT-0400 (Eastern Daylight Time)","Tue Oct 27 2020 10:52:40 GMT-0400 (Eastern Daylight Time)","Mozilla/5.0 (Windows NT 6.3; Win64; x64) AppleWebKit/537.36 (KHTML, like Gecko) Chrome/86.0.4240.111 Safari/537.36",41,"[0.9, 0.5, 0.1]","[0.8, 0.4, 0.2]","[u'red', u'blue', u'black']","[u'left', u'middle', u'right']","[0.9, 0.5, 0.1]","[u'medium', u'high', u'low']","red",49,"left","medium","False","False",816,1400,NA
"A2JA0C0PI7KIMJ","Tue Oct 27 2020 10:44:33 GMT-0400 (Eastern Daylight Time)","Tue Oct 27 2020 10:52:40 GMT-0400 (Eastern Daylight Time)","Mozilla/5.0 (Windows NT 6.3; Win64; x64) AppleWebKit/537.36 (KHTML, like Gecko) Chrome/86.0.4240.111 Safari/537.36",42,"[0.9, 0.5, 0.1]","[0.8, 0.4, 0.2]","[u'red', u'blue', u'black']","[u'left', u'middle', u'right']","[0.9, 0.5, 0.1]","[u'medium', u'high', u'low']","red",49,"left","medium","False","False",599,1350,NA
"A2JA0C0PI7KIMJ","Tue Oct 27 2020 10:44:33 GMT-0400 (Eastern Daylight Time)","Tue Oct 27 2020 10:52:40 GMT-0400 (Eastern Daylight Time)","Mozilla/5.0 (Windows NT 6.3; Win64; x64) AppleWebKit/537.36 (KHTML, like Gecko) Chrome/86.0.4240.111 Safari/537.36",43,"[0.9, 0.5, 0.1]","[0.8, 0.4, 0.2]","[u'red', u'blue', u'black']","[u'left', u'middle', u'right']","[0.9, 0.5, 0.1]","[u'medium', u'high', u'low']","blue",50,"middle","high","True","False",58,1450,NA
"A2JA0C0PI7KIMJ","Tue Oct 27 2020 10:44:33 GMT-0400 (Eastern Daylight Time)","Tue Oct 27 2020 10:52:40 GMT-0400 (Eastern Daylight Time)","Mozilla/5.0 (Windows NT 6.3; Win64; x64) AppleWebKit/537.36 (KHTML, like Gecko) Chrome/86.0.4240.111 Safari/537.36",44,"[0.9, 0.5, 0.1]","[0.8, 0.4, 0.2]","[u'red', u'blue', u'black']","[u'left', u'middle', u'right']","[0.9, 0.5, 0.1]","[u'medium', u'high', u'low']","red",49,"left","medium","False","False",630,1400,NA
"A2JA0C0PI7KIMJ","Tue Oct 27 2020 10:44:33 GMT-0400 (Eastern Daylight Time)","Tue Oct 27 2020 10:52:40 GMT-0400 (Eastern Daylight Time)","Mozilla/5.0 (Windows NT 6.3; Win64; x64) AppleWebKit/537.36 (KHTML, like Gecko) Chrome/86.0.4240.111 Safari/537.36",45,"[0.9, 0.5, 0.1]","[0.8, 0.4, 0.2]","[u'red', u'blue', u'black']","[u'left', u'middle', u'right']","[0.9, 0.5, 0.1]","[u'medium', u'high', u'low']","blue",50,"middle","high","True","False",398,1500,NA
"A2JA0C0PI7KIMJ","Tue Oct 27 2020 10:44:33 GMT-0400 (Eastern Daylight Time)","Tue Oct 27 2020 10:52:40 GMT-0400 (Eastern Daylight Time)","Mozilla/5.0 (Windows NT 6.3; Win64; x64) AppleWebKit/537.36 (KHTML, like Gecko) Chrome/86.0.4240.111 Safari/537.36",46,"[0.9, 0.5, 0.1]","[0.8, 0.4, 0.2]","[u'red', u'blue', u'black']","[u'left', u'middle', u'right']","[0.9, 0.5, 0.1]","[u'medium', u'high', u'low']","black",51,"right","low","True","False",318,1600,NA
"A2JA0C0PI7KIMJ","Tue Oct 27 2020 10:44:33 GMT-0400 (Eastern Daylight Time)","Tue Oct 27 2020 10:52:40 GMT-0400 (Eastern Daylight Time)","Mozilla/5.0 (Windows NT 6.3; Win64; x64) AppleWebKit/537.36 (KHTML, like Gecko) Chrome/86.0.4240.111 Safari/537.36",47,"[0.9, 0.5, 0.1]","[0.8, 0.4, 0.2]","[u'red', u'blue', u'black']","[u'left', u'middle', u'right']","[0.9, 0.5, 0.1]","[u'medium', u'high', u'low']","blue",50,"middle","high","True","False",268,1700,NA
"A2JA0C0PI7KIMJ","Tue Oct 27 2020 10:44:33 GMT-0400 (Eastern Daylight Time)","Tue Oct 27 2020 10:52:40 GMT-0400 (Eastern Daylight Time)","Mozilla/5.0 (Windows NT 6.3; Win64; x64) AppleWebKit/537.36 (KHTML, like Gecko) Chrome/86.0.4240.111 Safari/537.36",48,"[0.9, 0.5, 0.1]","[0.8, 0.4, 0.2]","[u'red', u'blue', u'black']","[u'left', u'middle', u'right']","[0.9, 0.5, 0.1]","[u'medium', u'high', u'low']","blue",50,"middle","high","True","False",320,1800,NA
"A2JA0C0PI7KIMJ","Tue Oct 27 2020 10:44:33 GMT-0400 (Eastern Daylight Time)","Tue Oct 27 2020 10:52:40 GMT-0400 (Eastern Daylight Time)","Mozilla/5.0 (Windows NT 6.3; Win64; x64) AppleWebKit/537.36 (KHTML, like Gecko) Chrome/86.0.4240.111 Safari/537.36",49,"[0.9, 0.5, 0.1]","[0.8, 0.4, 0.2]","[u'red', u'blue', u'black']","[u'left', u'middle', u'right']","[0.9, 0.5, 0.1]","[u'medium', u'high', u'low']","red",49,"left","medium","True","False",408,1900,NA
"A2JA0C0PI7KIMJ","Tue Oct 27 2020 10:44:33 GMT-0400 (Eastern Daylight Time)","Tue Oct 27 2020 10:52:40 GMT-0400 (Eastern Daylight Time)","Mozilla/5.0 (Windows NT 6.3; Win64; x64) AppleWebKit/537.36 (KHTML, like Gecko) Chrome/86.0.4240.111 Safari/537.36",50,"[0.9, 0.5, 0.1]","[0.8, 0.4, 0.2]","[u'red', u'blue', u'black']","[u'left', u'middle', u'right']","[0.9, 0.5, 0.1]","[u'medium', u'high', u'low']","red",49,"left","medium","False","False",374,1850,NA
"A2JA0C0PI7KIMJ","Tue Oct 27 2020 10:44:33 GMT-0400 (Eastern Daylight Time)","Tue Oct 27 2020 10:52:40 GMT-0400 (Eastern Daylight Time)","Mozilla/5.0 (Windows NT 6.3; Win64; x64) AppleWebKit/537.36 (KHTML, like Gecko) Chrome/86.0.4240.111 Safari/537.36",51,"[0.9, 0.5, 0.1]","[0.8, 0.4, 0.2]","[u'red', u'blue', u'black']","[u'left', u'middle', u'right']","[0.9, 0.5, 0.1]","[u'medium', u'high', u'low']","black",51,"right","low","False","False",557,1800,NA
"A2JA0C0PI7KIMJ","Tue Oct 27 2020 10:44:33 GMT-0400 (Eastern Daylight Time)","Tue Oct 27 2020 10:52:40 GMT-0400 (Eastern Daylight Time)","Mozilla/5.0 (Windows NT 6.3; Win64; x64) AppleWebKit/537.36 (KHTML, like Gecko) Chrome/86.0.4240.111 Safari/537.36",52,"[0.9, 0.5, 0.1]","[0.8, 0.4, 0.2]","[u'red', u'blue', u'black']","[u'left', u'middle', u'right']","[0.9, 0.5, 0.1]","[u'medium', u'high', u'low']","blue",50,"middle","high","True","False",484,1900,NA
"A2JA0C0PI7KIMJ","Tue Oct 27 2020 10:44:33 GMT-0400 (Eastern Daylight Time)","Tue Oct 27 2020 10:52:40 GMT-0400 (Eastern Daylight Time)","Mozilla/5.0 (Windows NT 6.3; Win64; x64) AppleWebKit/537.36 (KHTML, like Gecko) Chrome/86.0.4240.111 Safari/537.36",53,"[0.9, 0.5, 0.1]","[0.8, 0.4, 0.2]","[u'red', u'blue', u'black']","[u'left', u'middle', u'right']","[0.9, 0.5, 0.1]","[u'medium', u'high', u'low']","blue",50,"middle","high","True","False",330,2000,NA
"A2JA0C0PI7KIMJ","Tue Oct 27 2020 10:44:33 GMT-0400 (Eastern Daylight Time)","Tue Oct 27 2020 10:52:40 GMT-0400 (Eastern Daylight Time)","Mozilla/5.0 (Windows NT 6.3; Win64; x64) AppleWebKit/537.36 (KHTML, like Gecko) Chrome/86.0.4240.111 Safari/537.36",54,"[0.9, 0.5, 0.1]","[0.8, 0.4, 0.2]","[u'red', u'blue', u'black']","[u'left', u'middle', u'right']","[0.9, 0.5, 0.1]","[u'medium', u'high', u'low']","red",49,"left","medium","True","False",468,2100,NA
"A2JA0C0PI7KIMJ","Tue Oct 27 2020 10:44:33 GMT-0400 (Eastern Daylight Time)","Tue Oct 27 2020 10:52:40 GMT-0400 (Eastern Daylight Time)","Mozilla/5.0 (Windows NT 6.3; Win64; x64) AppleWebKit/537.36 (KHTML, like Gecko) Chrome/86.0.4240.111 Safari/537.36",55,"[0.9, 0.5, 0.1]","[0.8, 0.4, 0.2]","[u'red', u'blue', u'black']","[u'left', u'middle', u'right']","[0.9, 0.5, 0.1]","[u'medium', u'high', u'low']","blue",50,"middle","high","True","False",168,2200,NA
"A2JA0C0PI7KIMJ","Tue Oct 27 2020 10:44:33 GMT-0400 (Eastern Daylight Time)","Tue Oct 27 2020 10:52:40 GMT-0400 (Eastern Daylight Time)","Mozilla/5.0 (Windows NT 6.3; Win64; x64) AppleWebKit/537.36 (KHTML, like Gecko) Chrome/86.0.4240.111 Safari/537.36",56,"[0.9, 0.5, 0.1]","[0.8, 0.4, 0.2]","[u'red', u'blue', u'black']","[u'left', u'middle', u'right']","[0.9, 0.5, 0.1]","[u'medium', u'high', u'low']","black",51,"right","low","False","False",259,2150,NA
"A2JA0C0PI7KIMJ","Tue Oct 27 2020 10:44:33 GMT-0400 (Eastern Daylight Time)","Tue Oct 27 2020 10:52:40 GMT-0400 (Eastern Daylight Time)","Mozilla/5.0 (Windows NT 6.3; Win64; x64) AppleWebKit/537.36 (KHTML, like Gecko) Chrome/86.0.4240.111 Safari/537.36",57,"[0.9, 0.5, 0.1]","[0.8, 0.4, 0.2]","[u'red', u'blue', u'black']","[u'left', u'middle', u'right']","[0.9, 0.5, 0.1]","[u'medium', u'high', u'low']","black",51,"right","low","False","False",698,2100,NA
"A2JA0C0PI7KIMJ","Tue Oct 27 2020 10:44:33 GMT-0400 (Eastern Daylight Time)","Tue Oct 27 2020 10:52:40 GMT-0400 (Eastern Daylight Time)","Mozilla/5.0 (Windows NT 6.3; Win64; x64) AppleWebKit/537.36 (KHTML, like Gecko) Chrome/86.0.4240.111 Safari/537.36",58,"[0.9, 0.5, 0.1]","[0.8, 0.4, 0.2]","[u'red', u'blue', u'black']","[u'left', u'middle', u'right']","[0.9, 0.5, 0.1]","[u'medium', u'high', u'low']","black",51,"right","low","False","False",260,2050,NA
"A2JA0C0PI7KIMJ","Tue Oct 27 2020 10:44:33 GMT-0400 (Eastern Daylight Time)","Tue Oct 27 2020 10:52:40 GMT-0400 (Eastern Daylight Time)","Mozilla/5.0 (Windows NT 6.3; Win64; x64) AppleWebKit/537.36 (KHTML, like Gecko) Chrome/86.0.4240.111 Safari/537.36",59,"[0.9, 0.5, 0.1]","[0.8, 0.4, 0.2]","[u'red', u'blue', u'black']","[u'left', u'middle', u'right']","[0.9, 0.5, 0.1]","[u'medium', u'high', u'low']","red",49,"left","medium","True","False",207,2150,NA
"A2JA0C0PI7KIMJ","Tue Oct 27 2020 10:44:33 GMT-0400 (Eastern Daylight Time)","Tue Oct 27 2020 10:52:40 GMT-0400 (Eastern Daylight Time)","Mozilla/5.0 (Windows NT 6.3; Win64; x64) AppleWebKit/537.36 (KHTML, like Gecko) Chrome/86.0.4240.111 Safari/537.36",60,"[0.9, 0.5, 0.1]","[0.8, 0.4, 0.2]","[u'red', u'blue', u'black']","[u'left', u'middle', u'right']","[0.9, 0.5, 0.1]","[u'medium', u'high', u'low']","red",49,"left","medium","True","False",138,2250,NA
"A2JA0C0PI7KIMJ","Tue Oct 27 2020 10:44:33 GMT-0400 (Eastern Daylight Time)","Tue Oct 27 2020 10:52:40 GMT-0400 (Eastern Daylight Time)","Mozilla/5.0 (Windows NT 6.3; Win64; x64) AppleWebKit/537.36 (KHTML, like Gecko) Chrome/86.0.4240.111 Safari/537.36",61,"[0.9, 0.5, 0.1]","[0.8, 0.4, 0.2]","[u'red', u'blue', u'black']","[u'left', u'middle', u'right']","[0.9, 0.5, 0.1]","[u'medium', u'high', u'low']","blue",50,"middle","high","True","False",249,2350,NA
"A2JA0C0PI7KIMJ","Tue Oct 27 2020 10:44:33 GMT-0400 (Eastern Daylight Time)","Tue Oct 27 2020 10:52:40 GMT-0400 (Eastern Daylight Time)","Mozilla/5.0 (Windows NT 6.3; Win64; x64) AppleWebKit/537.36 (KHTML, like Gecko) Chrome/86.0.4240.111 Safari/537.36",62,"[0.9, 0.5, 0.1]","[0.8, 0.4, 0.2]","[u'red', u'blue', u'black']","[u'left', u'middle', u'right']","[0.9, 0.5, 0.1]","[u'medium', u'high', u'low']","black",51,"right","low","True","False",512,2450,NA
"A2JA0C0PI7KIMJ","Tue Oct 27 2020 10:44:33 GMT-0400 (Eastern Daylight Time)","Tue Oct 27 2020 10:52:40 GMT-0400 (Eastern Daylight Time)","Mozilla/5.0 (Windows NT 6.3; Win64; x64) AppleWebKit/537.36 (KHTML, like Gecko) Chrome/86.0.4240.111 Safari/537.36",63,"[0.9, 0.5, 0.1]","[0.8, 0.4, 0.2]","[u'red', u'blue', u'black']","[u'left', u'middle', u'right']","[0.9, 0.5, 0.1]","[u'medium', u'high', u'low']","blue",50,"middle","high","True","False",75,2550,NA
"A2JA0C0PI7KIMJ","Tue Oct 27 2020 10:44:33 GMT-0400 (Eastern Daylight Time)","Tue Oct 27 2020 10:52:40 GMT-0400 (Eastern Daylight Time)","Mozilla/5.0 (Windows NT 6.3; Win64; x64) AppleWebKit/537.36 (KHTML, like Gecko) Chrome/86.0.4240.111 Safari/537.36",64,"[0.9, 0.5, 0.1]","[0.8, 0.4, 0.2]","[u'red', u'blue', u'black']","[u'left', u'middle', u'right']","[0.9, 0.5, 0.1]","[u'medium', u'high', u'low']","blue",50,"middle","high","True","False",318,2650,NA
"A2JA0C0PI7KIMJ","Tue Oct 27 2020 10:44:33 GMT-0400 (Eastern Daylight Time)","Tue Oct 27 2020 10:52:40 GMT-0400 (Eastern Daylight Time)","Mozilla/5.0 (Windows NT 6.3; Win64; x64) AppleWebKit/537.36 (KHTML, like Gecko) Chrome/86.0.4240.111 Safari/537.36",65,"[0.9, 0.5, 0.1]","[0.8, 0.4, 0.2]","[u'red', u'blue', u'black']","[u'left', u'middle', u'right']","[0.9, 0.5, 0.1]","[u'medium', u'high', u'low']","blue",50,"middle","high","True","False",441,2750,NA
"A2JA0C0PI7KIMJ","Tue Oct 27 2020 10:44:33 GMT-0400 (Eastern Daylight Time)","Tue Oct 27 2020 10:52:40 GMT-0400 (Eastern Daylight Time)","Mozilla/5.0 (Windows NT 6.3; Win64; x64) AppleWebKit/537.36 (KHTML, like Gecko) Chrome/86.0.4240.111 Safari/537.36",66,"[0.9, 0.5, 0.1]","[0.8, 0.4, 0.2]","[u'red', u'blue', u'black']","[u'left', u'middle', u'right']","[0.9, 0.5, 0.1]","[u'medium', u'high', u'low']","blue",50,"middle","high","True","False",407,2850,NA
"A2JA0C0PI7KIMJ","Tue Oct 27 2020 10:44:33 GMT-0400 (Eastern Daylight Time)","Tue Oct 27 2020 10:52:40 GMT-0400 (Eastern Daylight Time)","Mozilla/5.0 (Windows NT 6.3; Win64; x64) AppleWebKit/537.36 (KHTML, like Gecko) Chrome/86.0.4240.111 Safari/537.36",67,"[0.9, 0.5, 0.1]","[0.8, 0.4, 0.2]","[u'red', u'blue', u'black']","[u'left', u'middle', u'right']","[0.9, 0.5, 0.1]","[u'medium', u'high', u'low']","blue",50,"middle","high","True","False",339,2950,NA
"A2JA0C0PI7KIMJ","Tue Oct 27 2020 10:44:33 GMT-0400 (Eastern Daylight Time)","Tue Oct 27 2020 10:52:40 GMT-0400 (Eastern Daylight Time)","Mozilla/5.0 (Windows NT 6.3; Win64; x64) AppleWebKit/537.36 (KHTML, like Gecko) Chrome/86.0.4240.111 Safari/537.36",68,"[0.9, 0.5, 0.1]","[0.8, 0.4, 0.2]","[u'red', u'blue', u'black']","[u'left', u'middle', u'right']","[0.9, 0.5, 0.1]","[u'medium', u'high', u'low']","blue",50,"middle","high","True","False",409,3050,NA
"A2JA0C0PI7KIMJ","Tue Oct 27 2020 10:44:33 GMT-0400 (Eastern Daylight Time)","Tue Oct 27 2020 10:52:40 GMT-0400 (Eastern Daylight Time)","Mozilla/5.0 (Windows NT 6.3; Win64; x64) AppleWebKit/537.36 (KHTML, like Gecko) Chrome/86.0.4240.111 Safari/537.36",69,"[0.9, 0.5, 0.1]","[0.8, 0.4, 0.2]","[u'red', u'blue', u'black']","[u'left', u'middle', u'right']","[0.9, 0.5, 0.1]","[u'medium', u'high', u'low']","blue",50,"middle","high","False","False",430,3000,NA
"A2JA0C0PI7KIMJ","Tue Oct 27 2020 10:44:33 GMT-0400 (Eastern Daylight Time)","Tue Oct 27 2020 10:52:40 GMT-0400 (Eastern Daylight Time)","Mozilla/5.0 (Windows NT 6.3; Win64; x64) AppleWebKit/537.36 (KHTML, like Gecko) Chrome/86.0.4240.111 Safari/537.36",70,"[0.9, 0.5, 0.1]","[0.8, 0.4, 0.2]","[u'red', u'blue', u'black']","[u'left', u'middle', u'right']","[0.9, 0.5, 0.1]","[u'medium', u'high', u'low']","blue",50,"middle","high","True","True",617,3100,NA
"A2JA0C0PI7KIMJ","Tue Oct 27 2020 10:44:33 GMT-0400 (Eastern Daylight Time)","Tue Oct 27 2020 10:52:40 GMT-0400 (Eastern Daylight Time)","Mozilla/5.0 (Windows NT 6.3; Win64; x64) AppleWebKit/537.36 (KHTML, like Gecko) Chrome/86.0.4240.111 Safari/537.36",71,"[0.9, 0.5, 0.1]","[0.8, 0.4, 0.2]","[u'red', u'blue', u'black']","[u'left', u'middle', u'right']","[0.9, 0.5, 0.1]","[u'high', u'medium', u'low']","red",49,"left","high","True","False",869,3200,NA
"A2JA0C0PI7KIMJ","Tue Oct 27 2020 10:44:33 GMT-0400 (Eastern Daylight Time)","Tue Oct 27 2020 10:52:40 GMT-0400 (Eastern Daylight Time)","Mozilla/5.0 (Windows NT 6.3; Win64; x64) AppleWebKit/537.36 (KHTML, like Gecko) Chrome/86.0.4240.111 Safari/537.36",72,"[0.9, 0.5, 0.1]","[0.8, 0.4, 0.2]","[u'red', u'blue', u'black']","[u'left', u'middle', u'right']","[0.9, 0.5, 0.1]","[u'high', u'medium', u'low']","black",51,"right","low","True","False",308,3300,NA
"A2JA0C0PI7KIMJ","Tue Oct 27 2020 10:44:33 GMT-0400 (Eastern Daylight Time)","Tue Oct 27 2020 10:52:40 GMT-0400 (Eastern Daylight Time)","Mozilla/5.0 (Windows NT 6.3; Win64; x64) AppleWebKit/537.36 (KHTML, like Gecko) Chrome/86.0.4240.111 Safari/537.36",73,"[0.9, 0.5, 0.1]","[0.8, 0.4, 0.2]","[u'red', u'blue', u'black']","[u'left', u'middle', u'right']","[0.9, 0.5, 0.1]","[u'high', u'medium', u'low']","red",49,"left","high","False","False",2760,3250,NA
"A2JA0C0PI7KIMJ","Tue Oct 27 2020 10:44:33 GMT-0400 (Eastern Daylight Time)","Tue Oct 27 2020 10:52:40 GMT-0400 (Eastern Daylight Time)","Mozilla/5.0 (Windows NT 6.3; Win64; x64) AppleWebKit/537.36 (KHTML, like Gecko) Chrome/86.0.4240.111 Safari/537.36",74,"[0.9, 0.5, 0.1]","[0.8, 0.4, 0.2]","[u'red', u'blue', u'black']","[u'left', u'middle', u'right']","[0.9, 0.5, 0.1]","[u'high', u'medium', u'low']","blue",50,"middle","medium","False","False",680,3200,NA
"A2JA0C0PI7KIMJ","Tue Oct 27 2020 10:44:33 GMT-0400 (Eastern Daylight Time)","Tue Oct 27 2020 10:52:40 GMT-0400 (Eastern Daylight Time)","Mozilla/5.0 (Windows NT 6.3; Win64; x64) AppleWebKit/537.36 (KHTML, like Gecko) Chrome/86.0.4240.111 Safari/537.36",75,"[0.9, 0.5, 0.1]","[0.8, 0.4, 0.2]","[u'red', u'blue', u'black']","[u'left', u'middle', u'right']","[0.9, 0.5, 0.1]","[u'high', u'medium', u'low']","blue",50,"middle","medium","True","False",38,3300,NA
"A2JA0C0PI7KIMJ","Tue Oct 27 2020 10:44:33 GMT-0400 (Eastern Daylight Time)","Tue Oct 27 2020 10:52:40 GMT-0400 (Eastern Daylight Time)","Mozilla/5.0 (Windows NT 6.3; Win64; x64) AppleWebKit/537.36 (KHTML, like Gecko) Chrome/86.0.4240.111 Safari/537.36",76,"[0.9, 0.5, 0.1]","[0.8, 0.4, 0.2]","[u'red', u'blue', u'black']","[u'left', u'middle', u'right']","[0.9, 0.5, 0.1]","[u'high', u'medium', u'low']","black",51,"right","low","False","False",769,3250,NA
"A2JA0C0PI7KIMJ","Tue Oct 27 2020 10:44:33 GMT-0400 (Eastern Daylight Time)","Tue Oct 27 2020 10:52:40 GMT-0400 (Eastern Daylight Time)","Mozilla/5.0 (Windows NT 6.3; Win64; x64) AppleWebKit/537.36 (KHTML, like Gecko) Chrome/86.0.4240.111 Safari/537.36",77,"[0.9, 0.5, 0.1]","[0.8, 0.4, 0.2]","[u'red', u'blue', u'black']","[u'left', u'middle', u'right']","[0.9, 0.5, 0.1]","[u'high', u'medium', u'low']","red",49,"left","high","True","False",597,3350,NA
"A2JA0C0PI7KIMJ","Tue Oct 27 2020 10:44:33 GMT-0400 (Eastern Daylight Time)","Tue Oct 27 2020 10:52:40 GMT-0400 (Eastern Daylight Time)","Mozilla/5.0 (Windows NT 6.3; Win64; x64) AppleWebKit/537.36 (KHTML, like Gecko) Chrome/86.0.4240.111 Safari/537.36",78,"[0.9, 0.5, 0.1]","[0.8, 0.4, 0.2]","[u'red', u'blue', u'black']","[u'left', u'middle', u'right']","[0.9, 0.5, 0.1]","[u'high', u'medium', u'low']","red",49,"left","high","True","False",70,3450,NA
"A2JA0C0PI7KIMJ","Tue Oct 27 2020 10:44:33 GMT-0400 (Eastern Daylight Time)","Tue Oct 27 2020 10:52:40 GMT-0400 (Eastern Daylight Time)","Mozilla/5.0 (Windows NT 6.3; Win64; x64) AppleWebKit/537.36 (KHTML, like Gecko) Chrome/86.0.4240.111 Safari/537.36",79,"[0.9, 0.5, 0.1]","[0.8, 0.4, 0.2]","[u'red', u'blue', u'black']","[u'left', u'middle', u'right']","[0.9, 0.5, 0.1]","[u'high', u'medium', u'low']","blue",50,"middle","medium","False","False",669,3400,NA
"A2JA0C0PI7KIMJ","Tue Oct 27 2020 10:44:33 GMT-0400 (Eastern Daylight Time)","Tue Oct 27 2020 10:52:40 GMT-0400 (Eastern Daylight Time)","Mozilla/5.0 (Windows NT 6.3; Win64; x64) AppleWebKit/537.36 (KHTML, like Gecko) Chrome/86.0.4240.111 Safari/537.36",80,"[0.9, 0.5, 0.1]","[0.8, 0.4, 0.2]","[u'red', u'blue', u'black']","[u'left', u'middle', u'right']","[0.9, 0.5, 0.1]","[u'high', u'medium', u'low']","red",49,"left","high","True","False",70,3500,NA
"A2JA0C0PI7KIMJ","Tue Oct 27 2020 10:44:33 GMT-0400 (Eastern Daylight Time)","Tue Oct 27 2020 10:52:40 GMT-0400 (Eastern Daylight Time)","Mozilla/5.0 (Windows NT 6.3; Win64; x64) AppleWebKit/537.36 (KHTML, like Gecko) Chrome/86.0.4240.111 Safari/537.36",81,"[0.9, 0.5, 0.1]","[0.8, 0.4, 0.2]","[u'red', u'blue', u'black']","[u'left', u'middle', u'right']","[0.8, 0.4, 0.2]","[u'low', u'medium', u'high']","red",49,"left","low","False","False",549,3450,NA
"A2JA0C0PI7KIMJ","Tue Oct 27 2020 10:44:33 GMT-0400 (Eastern Daylight Time)","Tue Oct 27 2020 10:52:40 GMT-0400 (Eastern Daylight Time)","Mozilla/5.0 (Windows NT 6.3; Win64; x64) AppleWebKit/537.36 (KHTML, like Gecko) Chrome/86.0.4240.111 Safari/537.36",82,"[0.9, 0.5, 0.1]","[0.8, 0.4, 0.2]","[u'red', u'blue', u'black']","[u'left', u'middle', u'right']","[0.8, 0.4, 0.2]","[u'low', u'medium', u'high']","blue",50,"middle","medium","False","False",907,3400,NA
"A2JA0C0PI7KIMJ","Tue Oct 27 2020 10:44:33 GMT-0400 (Eastern Daylight Time)","Tue Oct 27 2020 10:52:40 GMT-0400 (Eastern Daylight Time)","Mozilla/5.0 (Windows NT 6.3; Win64; x64) AppleWebKit/537.36 (KHTML, like Gecko) Chrome/86.0.4240.111 Safari/537.36",83,"[0.9, 0.5, 0.1]","[0.8, 0.4, 0.2]","[u'red', u'blue', u'black']","[u'left', u'middle', u'right']","[0.8, 0.4, 0.2]","[u'low', u'medium', u'high']","blue",50,"middle","medium","True","False",752,3500,NA
"A2JA0C0PI7KIMJ","Tue Oct 27 2020 10:44:33 GMT-0400 (Eastern Daylight Time)","Tue Oct 27 2020 10:52:40 GMT-0400 (Eastern Daylight Time)","Mozilla/5.0 (Windows NT 6.3; Win64; x64) AppleWebKit/537.36 (KHTML, like Gecko) Chrome/86.0.4240.111 Safari/537.36",84,"[0.9, 0.5, 0.1]","[0.8, 0.4, 0.2]","[u'red', u'blue', u'black']","[u'left', u'middle', u'right']","[0.8, 0.4, 0.2]","[u'low', u'medium', u'high']","red",49,"left","low","True","False",559,3600,NA
"A2JA0C0PI7KIMJ","Tue Oct 27 2020 10:44:33 GMT-0400 (Eastern Daylight Time)","Tue Oct 27 2020 10:52:40 GMT-0400 (Eastern Daylight Time)","Mozilla/5.0 (Windows NT 6.3; Win64; x64) AppleWebKit/537.36 (KHTML, like Gecko) Chrome/86.0.4240.111 Safari/537.36",85,"[0.9, 0.5, 0.1]","[0.8, 0.4, 0.2]","[u'red', u'blue', u'black']","[u'left', u'middle', u'right']","[0.8, 0.4, 0.2]","[u'low', u'medium', u'high']","blue",50,"middle","medium","False","False",398,3550,NA
"A2JA0C0PI7KIMJ","Tue Oct 27 2020 10:44:33 GMT-0400 (Eastern Daylight Time)","Tue Oct 27 2020 10:52:40 GMT-0400 (Eastern Daylight Time)","Mozilla/5.0 (Windows NT 6.3; Win64; x64) AppleWebKit/537.36 (KHTML, like Gecko) Chrome/86.0.4240.111 Safari/537.36",86,"[0.9, 0.5, 0.1]","[0.8, 0.4, 0.2]","[u'red', u'blue', u'black']","[u'left', u'middle', u'right']","[0.8, 0.4, 0.2]","[u'low', u'medium', u'high']","blue",50,"middle","medium","False","False",851,3500,NA
"A2JA0C0PI7KIMJ","Tue Oct 27 2020 10:44:33 GMT-0400 (Eastern Daylight Time)","Tue Oct 27 2020 10:52:40 GMT-0400 (Eastern Daylight Time)","Mozilla/5.0 (Windows NT 6.3; Win64; x64) AppleWebKit/537.36 (KHTML, like Gecko) Chrome/86.0.4240.111 Safari/537.36",87,"[0.9, 0.5, 0.1]","[0.8, 0.4, 0.2]","[u'red', u'blue', u'black']","[u'left', u'middle', u'right']","[0.8, 0.4, 0.2]","[u'low', u'medium', u'high']","red",49,"left","low","False","False",77,3450,NA
"A2JA0C0PI7KIMJ","Tue Oct 27 2020 10:44:33 GMT-0400 (Eastern Daylight Time)","Tue Oct 27 2020 10:52:40 GMT-0400 (Eastern Daylight Time)","Mozilla/5.0 (Windows NT 6.3; Win64; x64) AppleWebKit/537.36 (KHTML, like Gecko) Chrome/86.0.4240.111 Safari/537.36",88,"[0.9, 0.5, 0.1]","[0.8, 0.4, 0.2]","[u'red', u'blue', u'black']","[u'left', u'middle', u'right']","[0.8, 0.4, 0.2]","[u'low', u'medium', u'high']","black",51,"right","high","True","False",44,3550,NA
"A2JA0C0PI7KIMJ","Tue Oct 27 2020 10:44:33 GMT-0400 (Eastern Daylight Time)","Tue Oct 27 2020 10:52:40 GMT-0400 (Eastern Daylight Time)","Mozilla/5.0 (Windows NT 6.3; Win64; x64) AppleWebKit/537.36 (KHTML, like Gecko) Chrome/86.0.4240.111 Safari/537.36",89,"[0.9, 0.5, 0.1]","[0.8, 0.4, 0.2]","[u'red', u'blue', u'black']","[u'left', u'middle', u'right']","[0.8, 0.4, 0.2]","[u'low', u'medium', u'high']","black",51,"right","high","False","False",1089,3500,NA
"A2JA0C0PI7KIMJ","Tue Oct 27 2020 10:44:33 GMT-0400 (Eastern Daylight Time)","Tue Oct 27 2020 10:52:40 GMT-0400 (Eastern Daylight Time)","Mozilla/5.0 (Windows NT 6.3; Win64; x64) AppleWebKit/537.36 (KHTML, like Gecko) Chrome/86.0.4240.111 Safari/537.36",90,"[0.9, 0.5, 0.1]","[0.8, 0.4, 0.2]","[u'red', u'blue', u'black']","[u'left', u'middle', u'right']","[0.8, 0.4, 0.2]","[u'low', u'medium', u'high']","blue",50,"middle","medium","True","False",542,3600,NA
"A2JA0C0PI7KIMJ","Tue Oct 27 2020 10:44:33 GMT-0400 (Eastern Daylight Time)","Tue Oct 27 2020 10:52:40 GMT-0400 (Eastern Daylight Time)","Mozilla/5.0 (Windows NT 6.3; Win64; x64) AppleWebKit/537.36 (KHTML, like Gecko) Chrome/86.0.4240.111 Safari/537.36",91,"[0.9, 0.5, 0.1]","[0.8, 0.4, 0.2]","[u'red', u'blue', u'black']","[u'left', u'middle', u'right']","[0.8, 0.4, 0.2]","[u'low', u'medium', u'high']","blue",50,"middle","medium","True","False",309,3700,NA
"A2JA0C0PI7KIMJ","Tue Oct 27 2020 10:44:33 GMT-0400 (Eastern Daylight Time)","Tue Oct 27 2020 10:52:40 GMT-0400 (Eastern Daylight Time)","Mozilla/5.0 (Windows NT 6.3; Win64; x64) AppleWebKit/537.36 (KHTML, like Gecko) Chrome/86.0.4240.111 Safari/537.36",92,"[0.9, 0.5, 0.1]","[0.8, 0.4, 0.2]","[u'red', u'blue', u'black']","[u'left', u'middle', u'right']","[0.8, 0.4, 0.2]","[u'low', u'medium', u'high']","red",49,"left","low","True","False",585,3800,NA
"A2JA0C0PI7KIMJ","Tue Oct 27 2020 10:44:33 GMT-0400 (Eastern Daylight Time)","Tue Oct 27 2020 10:52:40 GMT-0400 (Eastern Daylight Time)","Mozilla/5.0 (Windows NT 6.3; Win64; x64) AppleWebKit/537.36 (KHTML, like Gecko) Chrome/86.0.4240.111 Safari/537.36",93,"[0.9, 0.5, 0.1]","[0.8, 0.4, 0.2]","[u'red', u'blue', u'black']","[u'left', u'middle', u'right']","[0.8, 0.4, 0.2]","[u'low', u'medium', u'high']","blue",50,"middle","medium","False","False",331,3750,NA
"A2JA0C0PI7KIMJ","Tue Oct 27 2020 10:44:33 GMT-0400 (Eastern Daylight Time)","Tue Oct 27 2020 10:52:40 GMT-0400 (Eastern Daylight Time)","Mozilla/5.0 (Windows NT 6.3; Win64; x64) AppleWebKit/537.36 (KHTML, like Gecko) Chrome/86.0.4240.111 Safari/537.36",94,"[0.9, 0.5, 0.1]","[0.8, 0.4, 0.2]","[u'red', u'blue', u'black']","[u'left', u'middle', u'right']","[0.8, 0.4, 0.2]","[u'low', u'medium', u'high']","blue",50,"middle","medium","True","False",417,3850,NA
"A2JA0C0PI7KIMJ","Tue Oct 27 2020 10:44:33 GMT-0400 (Eastern Daylight Time)","Tue Oct 27 2020 10:52:40 GMT-0400 (Eastern Daylight Time)","Mozilla/5.0 (Windows NT 6.3; Win64; x64) AppleWebKit/537.36 (KHTML, like Gecko) Chrome/86.0.4240.111 Safari/537.36",95,"[0.9, 0.5, 0.1]","[0.8, 0.4, 0.2]","[u'red', u'blue', u'black']","[u'left', u'middle', u'right']","[0.8, 0.4, 0.2]","[u'low', u'medium', u'high']","red",49,"left","low","False","False",579,3800,NA
"A2JA0C0PI7KIMJ","Tue Oct 27 2020 10:44:33 GMT-0400 (Eastern Daylight Time)","Tue Oct 27 2020 10:52:40 GMT-0400 (Eastern Daylight Time)","Mozilla/5.0 (Windows NT 6.3; Win64; x64) AppleWebKit/537.36 (KHTML, like Gecko) Chrome/86.0.4240.111 Safari/537.36",96,"[0.9, 0.5, 0.1]","[0.8, 0.4, 0.2]","[u'red', u'blue', u'black']","[u'left', u'middle', u'right']","[0.8, 0.4, 0.2]","[u'low', u'medium', u'high']","blue",50,"middle","medium","True","False",446,3900,NA
"A2JA0C0PI7KIMJ","Tue Oct 27 2020 10:44:33 GMT-0400 (Eastern Daylight Time)","Tue Oct 27 2020 10:52:40 GMT-0400 (Eastern Daylight Time)","Mozilla/5.0 (Windows NT 6.3; Win64; x64) AppleWebKit/537.36 (KHTML, like Gecko) Chrome/86.0.4240.111 Safari/537.36",97,"[0.9, 0.5, 0.1]","[0.8, 0.4, 0.2]","[u'red', u'blue', u'black']","[u'left', u'middle', u'right']","[0.8, 0.4, 0.2]","[u'low', u'medium', u'high']","black",51,"right","high","True","False",393,4000,NA
"A2JA0C0PI7KIMJ","Tue Oct 27 2020 10:44:33 GMT-0400 (Eastern Daylight Time)","Tue Oct 27 2020 10:52:40 GMT-0400 (Eastern Daylight Time)","Mozilla/5.0 (Windows NT 6.3; Win64; x64) AppleWebKit/537.36 (KHTML, like Gecko) Chrome/86.0.4240.111 Safari/537.36",98,"[0.9, 0.5, 0.1]","[0.8, 0.4, 0.2]","[u'red', u'blue', u'black']","[u'left', u'middle', u'right']","[0.8, 0.4, 0.2]","[u'low', u'medium', u'high']","black",51,"right","high","True","False",653,4100,NA
"A2JA0C0PI7KIMJ","Tue Oct 27 2020 10:44:33 GMT-0400 (Eastern Daylight Time)","Tue Oct 27 2020 10:52:40 GMT-0400 (Eastern Daylight Time)","Mozilla/5.0 (Windows NT 6.3; Win64; x64) AppleWebKit/537.36 (KHTML, like Gecko) Chrome/86.0.4240.111 Safari/537.36",99,"[0.9, 0.5, 0.1]","[0.8, 0.4, 0.2]","[u'red', u'blue', u'black']","[u'left', u'middle', u'right']","[0.8, 0.4, 0.2]","[u'low', u'medium', u'high']","black",51,"right","high","True","False",539,4200,NA
"A2JA0C0PI7KIMJ","Tue Oct 27 2020 10:44:33 GMT-0400 (Eastern Daylight Time)","Tue Oct 27 2020 10:52:40 GMT-0400 (Eastern Daylight Time)","Mozilla/5.0 (Windows NT 6.3; Win64; x64) AppleWebKit/537.36 (KHTML, like Gecko) Chrome/86.0.4240.111 Safari/537.36",100,"[0.9, 0.5, 0.1]","[0.8, 0.4, 0.2]","[u'red', u'blue', u'black']","[u'left', u'middle', u'right']","[0.8, 0.4, 0.2]","[u'low', u'medium', u'high']","black",51,"right","high","False","False",487,4150,NA
"A2JA0C0PI7KIMJ","Tue Oct 27 2020 10:44:33 GMT-0400 (Eastern Daylight Time)","Tue Oct 27 2020 10:52:40 GMT-0400 (Eastern Daylight Time)","Mozilla/5.0 (Windows NT 6.3; Win64; x64) AppleWebKit/537.36 (KHTML, like Gecko) Chrome/86.0.4240.111 Safari/537.36",101,"[0.9, 0.5, 0.1]","[0.8, 0.4, 0.2]","[u'red', u'blue', u'black']","[u'left', u'middle', u'right']","[0.8, 0.4, 0.2]","[u'low', u'medium', u'high']","black",51,"right","high","True","False",258,4250,NA
"A2JA0C0PI7KIMJ","Tue Oct 27 2020 10:44:33 GMT-0400 (Eastern Daylight Time)","Tue Oct 27 2020 10:52:40 GMT-0400 (Eastern Daylight Time)","Mozilla/5.0 (Windows NT 6.3; Win64; x64) AppleWebKit/537.36 (KHTML, like Gecko) Chrome/86.0.4240.111 Safari/537.36",102,"[0.9, 0.5, 0.1]","[0.8, 0.4, 0.2]","[u'red', u'blue', u'black']","[u'left', u'middle', u'right']","[0.8, 0.4, 0.2]","[u'low', u'medium', u'high']","black",51,"right","high","True","False",286,4350,NA
"A2JA0C0PI7KIMJ","Tue Oct 27 2020 10:44:33 GMT-0400 (Eastern Daylight Time)","Tue Oct 27 2020 10:52:40 GMT-0400 (Eastern Daylight Time)","Mozilla/5.0 (Windows NT 6.3; Win64; x64) AppleWebKit/537.36 (KHTML, like Gecko) Chrome/86.0.4240.111 Safari/537.36",103,"[0.9, 0.5, 0.1]","[0.8, 0.4, 0.2]","[u'red', u'blue', u'black']","[u'left', u'middle', u'right']","[0.8, 0.4, 0.2]","[u'low', u'medium', u'high']","black",51,"right","high","False","False",740,4300,NA
"A2JA0C0PI7KIMJ","Tue Oct 27 2020 10:44:33 GMT-0400 (Eastern Daylight Time)","Tue Oct 27 2020 10:52:40 GMT-0400 (Eastern Daylight Time)","Mozilla/5.0 (Windows NT 6.3; Win64; x64) AppleWebKit/537.36 (KHTML, like Gecko) Chrome/86.0.4240.111 Safari/537.36",104,"[0.9, 0.5, 0.1]","[0.8, 0.4, 0.2]","[u'red', u'blue', u'black']","[u'left', u'middle', u'right']","[0.8, 0.4, 0.2]","[u'low', u'medium', u'high']","blue",50,"middle","medium","False","False",358,4250,NA
"A2JA0C0PI7KIMJ","Tue Oct 27 2020 10:44:33 GMT-0400 (Eastern Daylight Time)","Tue Oct 27 2020 10:52:40 GMT-0400 (Eastern Daylight Time)","Mozilla/5.0 (Windows NT 6.3; Win64; x64) AppleWebKit/537.36 (KHTML, like Gecko) Chrome/86.0.4240.111 Safari/537.36",105,"[0.9, 0.5, 0.1]","[0.8, 0.4, 0.2]","[u'red', u'blue', u'black']","[u'left', u'middle', u'right']","[0.8, 0.4, 0.2]","[u'low', u'medium', u'high']","red",49,"left","low","True","False",725,4350,NA
"A2JA0C0PI7KIMJ","Tue Oct 27 2020 10:44:33 GMT-0400 (Eastern Daylight Time)","Tue Oct 27 2020 10:52:40 GMT-0400 (Eastern Daylight Time)","Mozilla/5.0 (Windows NT 6.3; Win64; x64) AppleWebKit/537.36 (KHTML, like Gecko) Chrome/86.0.4240.111 Safari/537.36",106,"[0.9, 0.5, 0.1]","[0.8, 0.4, 0.2]","[u'red', u'blue', u'black']","[u'left', u'middle', u'right']","[0.8, 0.4, 0.2]","[u'low', u'medium', u'high']","blue",50,"middle","medium","False","False",553,4300,NA
"A2JA0C0PI7KIMJ","Tue Oct 27 2020 10:44:33 GMT-0400 (Eastern Daylight Time)","Tue Oct 27 2020 10:52:40 GMT-0400 (Eastern Daylight Time)","Mozilla/5.0 (Windows NT 6.3; Win64; x64) AppleWebKit/537.36 (KHTML, like Gecko) Chrome/86.0.4240.111 Safari/537.36",107,"[0.9, 0.5, 0.1]","[0.8, 0.4, 0.2]","[u'red', u'blue', u'black']","[u'left', u'middle', u'right']","[0.8, 0.4, 0.2]","[u'low', u'medium', u'high']","black",51,"right","high","True","False",39,4400,NA
"A2JA0C0PI7KIMJ","Tue Oct 27 2020 10:44:33 GMT-0400 (Eastern Daylight Time)","Tue Oct 27 2020 10:52:40 GMT-0400 (Eastern Daylight Time)","Mozilla/5.0 (Windows NT 6.3; Win64; x64) AppleWebKit/537.36 (KHTML, like Gecko) Chrome/86.0.4240.111 Safari/537.36",108,"[0.9, 0.5, 0.1]","[0.8, 0.4, 0.2]","[u'red', u'blue', u'black']","[u'left', u'middle', u'right']","[0.8, 0.4, 0.2]","[u'low', u'medium', u'high']","black",51,"right","high","False","False",316,4350,NA
"A2JA0C0PI7KIMJ","Tue Oct 27 2020 10:44:33 GMT-0400 (Eastern Daylight Time)","Tue Oct 27 2020 10:52:40 GMT-0400 (Eastern Daylight Time)","Mozilla/5.0 (Windows NT 6.3; Win64; x64) AppleWebKit/537.36 (KHTML, like Gecko) Chrome/86.0.4240.111 Safari/537.36",109,"[0.9, 0.5, 0.1]","[0.8, 0.4, 0.2]","[u'red', u'blue', u'black']","[u'left', u'middle', u'right']","[0.8, 0.4, 0.2]","[u'low', u'medium', u'high']","black",51,"right","high","True","False",448,4450,NA
"A2JA0C0PI7KIMJ","Tue Oct 27 2020 10:44:33 GMT-0400 (Eastern Daylight Time)","Tue Oct 27 2020 10:52:40 GMT-0400 (Eastern Daylight Time)","Mozilla/5.0 (Windows NT 6.3; Win64; x64) AppleWebKit/537.36 (KHTML, like Gecko) Chrome/86.0.4240.111 Safari/537.36",110,"[0.9, 0.5, 0.1]","[0.8, 0.4, 0.2]","[u'red', u'blue', u'black']","[u'left', u'middle', u'right']","[0.8, 0.4, 0.2]","[u'low', u'medium', u'high']","red",49,"left","low","False","False",308,4400,NA
"A2JA0C0PI7KIMJ","Tue Oct 27 2020 10:44:33 GMT-0400 (Eastern Daylight Time)","Tue Oct 27 2020 10:52:40 GMT-0400 (Eastern Daylight Time)","Mozilla/5.0 (Windows NT 6.3; Win64; x64) AppleWebKit/537.36 (KHTML, like Gecko) Chrome/86.0.4240.111 Safari/537.36",111,"[0.9, 0.5, 0.1]","[0.8, 0.4, 0.2]","[u'red', u'blue', u'black']","[u'left', u'middle', u'right']","[0.8, 0.4, 0.2]","[u'low', u'medium', u'high']","red",49,"left","low","False","False",432,4350,NA
"A2JA0C0PI7KIMJ","Tue Oct 27 2020 10:44:33 GMT-0400 (Eastern Daylight Time)","Tue Oct 27 2020 10:52:40 GMT-0400 (Eastern Daylight Time)","Mozilla/5.0 (Windows NT 6.3; Win64; x64) AppleWebKit/537.36 (KHTML, like Gecko) Chrome/86.0.4240.111 Safari/537.36",112,"[0.9, 0.5, 0.1]","[0.8, 0.4, 0.2]","[u'red', u'blue', u'black']","[u'left', u'middle', u'right']","[0.8, 0.4, 0.2]","[u'low', u'medium', u'high']","red",49,"left","low","False","False",378,4300,NA
"A2JA0C0PI7KIMJ","Tue Oct 27 2020 10:44:33 GMT-0400 (Eastern Daylight Time)","Tue Oct 27 2020 10:52:40 GMT-0400 (Eastern Daylight Time)","Mozilla/5.0 (Windows NT 6.3; Win64; x64) AppleWebKit/537.36 (KHTML, like Gecko) Chrome/86.0.4240.111 Safari/537.36",113,"[0.9, 0.5, 0.1]","[0.8, 0.4, 0.2]","[u'red', u'blue', u'black']","[u'left', u'middle', u'right']","[0.8, 0.4, 0.2]","[u'low', u'medium', u'high']","red",49,"left","low","False","False",18,4250,NA
"A2JA0C0PI7KIMJ","Tue Oct 27 2020 10:44:33 GMT-0400 (Eastern Daylight Time)","Tue Oct 27 2020 10:52:40 GMT-0400 (Eastern Daylight Time)","Mozilla/5.0 (Windows NT 6.3; Win64; x64) AppleWebKit/537.36 (KHTML, like Gecko) Chrome/86.0.4240.111 Safari/537.36",114,"[0.9, 0.5, 0.1]","[0.8, 0.4, 0.2]","[u'red', u'blue', u'black']","[u'left', u'middle', u'right']","[0.8, 0.4, 0.2]","[u'low', u'medium', u'high']","blue",50,"middle","medium","False","False",146,4200,NA
"A2JA0C0PI7KIMJ","Tue Oct 27 2020 10:44:33 GMT-0400 (Eastern Daylight Time)","Tue Oct 27 2020 10:52:40 GMT-0400 (Eastern Daylight Time)","Mozilla/5.0 (Windows NT 6.3; Win64; x64) AppleWebKit/537.36 (KHTML, like Gecko) Chrome/86.0.4240.111 Safari/537.36",115,"[0.9, 0.5, 0.1]","[0.8, 0.4, 0.2]","[u'red', u'blue', u'black']","[u'left', u'middle', u'right']","[0.8, 0.4, 0.2]","[u'low', u'medium', u'high']","black",51,"right","high","False","False",168,4150,NA
"A2JA0C0PI7KIMJ","Tue Oct 27 2020 10:44:33 GMT-0400 (Eastern Daylight Time)","Tue Oct 27 2020 10:52:40 GMT-0400 (Eastern Daylight Time)","Mozilla/5.0 (Windows NT 6.3; Win64; x64) AppleWebKit/537.36 (KHTML, like Gecko) Chrome/86.0.4240.111 Safari/537.36",116,"[0.9, 0.5, 0.1]","[0.8, 0.4, 0.2]","[u'red', u'blue', u'black']","[u'left', u'middle', u'right']","[0.8, 0.4, 0.2]","[u'low', u'medium', u'high']","blue",50,"middle","medium","False","False",618,4100,NA
"A2JA0C0PI7KIMJ","Tue Oct 27 2020 10:44:33 GMT-0400 (Eastern Daylight Time)","Tue Oct 27 2020 10:52:40 GMT-0400 (Eastern Daylight Time)","Mozilla/5.0 (Windows NT 6.3; Win64; x64) AppleWebKit/537.36 (KHTML, like Gecko) Chrome/86.0.4240.111 Safari/537.36",117,"[0.9, 0.5, 0.1]","[0.8, 0.4, 0.2]","[u'red', u'blue', u'black']","[u'left', u'middle', u'right']","[0.8, 0.4, 0.2]","[u'low', u'medium', u'high']","red",49,"left","low","False","False",228,4050,NA
"A2JA0C0PI7KIMJ","Tue Oct 27 2020 10:44:33 GMT-0400 (Eastern Daylight Time)","Tue Oct 27 2020 10:52:40 GMT-0400 (Eastern Daylight Time)","Mozilla/5.0 (Windows NT 6.3; Win64; x64) AppleWebKit/537.36 (KHTML, like Gecko) Chrome/86.0.4240.111 Safari/537.36",118,"[0.9, 0.5, 0.1]","[0.8, 0.4, 0.2]","[u'red', u'blue', u'black']","[u'left', u'middle', u'right']","[0.8, 0.4, 0.2]","[u'low', u'medium', u'high']","black",51,"right","high","False","False",508,4000,NA
"A2JA0C0PI7KIMJ","Tue Oct 27 2020 10:44:33 GMT-0400 (Eastern Daylight Time)","Tue Oct 27 2020 10:52:40 GMT-0400 (Eastern Daylight Time)","Mozilla/5.0 (Windows NT 6.3; Win64; x64) AppleWebKit/537.36 (KHTML, like Gecko) Chrome/86.0.4240.111 Safari/537.36",119,"[0.9, 0.5, 0.1]","[0.8, 0.4, 0.2]","[u'red', u'blue', u'black']","[u'left', u'middle', u'right']","[0.8, 0.4, 0.2]","[u'low', u'medium', u'high']","blue",50,"middle","medium","True","False",199,4100,NA
"A2JA0C0PI7KIMJ","Tue Oct 27 2020 10:44:33 GMT-0400 (Eastern Daylight Time)","Tue Oct 27 2020 10:52:40 GMT-0400 (Eastern Daylight Time)","Mozilla/5.0 (Windows NT 6.3; Win64; x64) AppleWebKit/537.36 (KHTML, like Gecko) Chrome/86.0.4240.111 Safari/537.36",120,"[0.9, 0.5, 0.1]","[0.8, 0.4, 0.2]","[u'red', u'blue', u'black']","[u'left', u'middle', u'right']","[0.8, 0.4, 0.2]","[u'low', u'medium', u'high']","red",49,"left","low","False","False",188,4050,NA
"A2JA0C0PI7KIMJ","Tue Oct 27 2020 10:44:33 GMT-0400 (Eastern Daylight Time)","Tue Oct 27 2020 10:52:40 GMT-0400 (Eastern Daylight Time)","Mozilla/5.0 (Windows NT 6.3; Win64; x64) AppleWebKit/537.36 (KHTML, like Gecko) Chrome/86.0.4240.111 Safari/537.36",121,"[0.9, 0.5, 0.1]","[0.8, 0.4, 0.2]","[u'red', u'blue', u'black']","[u'left', u'middle', u'right']","[0.8, 0.4, 0.2]","[u'low', u'high', u'medium']","red",49,"left","low","False","False",742,4000,NA
"A2JA0C0PI7KIMJ","Tue Oct 27 2020 10:44:33 GMT-0400 (Eastern Daylight Time)","Tue Oct 27 2020 10:52:40 GMT-0400 (Eastern Daylight Time)","Mozilla/5.0 (Windows NT 6.3; Win64; x64) AppleWebKit/537.36 (KHTML, like Gecko) Chrome/86.0.4240.111 Safari/537.36",122,"[0.9, 0.5, 0.1]","[0.8, 0.4, 0.2]","[u'red', u'blue', u'black']","[u'left', u'middle', u'right']","[0.8, 0.4, 0.2]","[u'low', u'high', u'medium']","blue",50,"middle","high","True","False",405,4100,NA
"A2JA0C0PI7KIMJ","Tue Oct 27 2020 10:44:33 GMT-0400 (Eastern Daylight Time)","Tue Oct 27 2020 10:52:40 GMT-0400 (Eastern Daylight Time)","Mozilla/5.0 (Windows NT 6.3; Win64; x64) AppleWebKit/537.36 (KHTML, like Gecko) Chrome/86.0.4240.111 Safari/537.36",123,"[0.9, 0.5, 0.1]","[0.8, 0.4, 0.2]","[u'red', u'blue', u'black']","[u'left', u'middle', u'right']","[0.8, 0.4, 0.2]","[u'low', u'high', u'medium']","blue",50,"middle","high","False","False",850,4050,NA
"A2JA0C0PI7KIMJ","Tue Oct 27 2020 10:44:33 GMT-0400 (Eastern Daylight Time)","Tue Oct 27 2020 10:52:40 GMT-0400 (Eastern Daylight Time)","Mozilla/5.0 (Windows NT 6.3; Win64; x64) AppleWebKit/537.36 (KHTML, like Gecko) Chrome/86.0.4240.111 Safari/537.36",124,"[0.9, 0.5, 0.1]","[0.8, 0.4, 0.2]","[u'red', u'blue', u'black']","[u'left', u'middle', u'right']","[0.8, 0.4, 0.2]","[u'low', u'high', u'medium']","blue",50,"middle","high","False","False",280,4000,NA
"A2JA0C0PI7KIMJ","Tue Oct 27 2020 10:44:33 GMT-0400 (Eastern Daylight Time)","Tue Oct 27 2020 10:52:40 GMT-0400 (Eastern Daylight Time)","Mozilla/5.0 (Windows NT 6.3; Win64; x64) AppleWebKit/537.36 (KHTML, like Gecko) Chrome/86.0.4240.111 Safari/537.36",125,"[0.9, 0.5, 0.1]","[0.8, 0.4, 0.2]","[u'red', u'blue', u'black']","[u'left', u'middle', u'right']","[0.8, 0.4, 0.2]","[u'low', u'high', u'medium']","blue",50,"middle","high","False","False",847,3950,NA
"A2JA0C0PI7KIMJ","Tue Oct 27 2020 10:44:33 GMT-0400 (Eastern Daylight Time)","Tue Oct 27 2020 10:52:40 GMT-0400 (Eastern Daylight Time)","Mozilla/5.0 (Windows NT 6.3; Win64; x64) AppleWebKit/537.36 (KHTML, like Gecko) Chrome/86.0.4240.111 Safari/537.36",126,"[0.9, 0.5, 0.1]","[0.8, 0.4, 0.2]","[u'red', u'blue', u'black']","[u'left', u'middle', u'right']","[0.8, 0.4, 0.2]","[u'low', u'high', u'medium']","black",51,"right","medium","True","False",364,4050,NA
"A2JA0C0PI7KIMJ","Tue Oct 27 2020 10:44:33 GMT-0400 (Eastern Daylight Time)","Tue Oct 27 2020 10:52:40 GMT-0400 (Eastern Daylight Time)","Mozilla/5.0 (Windows NT 6.3; Win64; x64) AppleWebKit/537.36 (KHTML, like Gecko) Chrome/86.0.4240.111 Safari/537.36",127,"[0.9, 0.5, 0.1]","[0.8, 0.4, 0.2]","[u'red', u'blue', u'black']","[u'left', u'middle', u'right']","[0.8, 0.4, 0.2]","[u'low', u'high', u'medium']","blue",50,"middle","high","True","False",74,4150,NA
"A2JA0C0PI7KIMJ","Tue Oct 27 2020 10:44:33 GMT-0400 (Eastern Daylight Time)","Tue Oct 27 2020 10:52:40 GMT-0400 (Eastern Daylight Time)","Mozilla/5.0 (Windows NT 6.3; Win64; x64) AppleWebKit/537.36 (KHTML, like Gecko) Chrome/86.0.4240.111 Safari/537.36",128,"[0.9, 0.5, 0.1]","[0.8, 0.4, 0.2]","[u'red', u'blue', u'black']","[u'left', u'middle', u'right']","[0.8, 0.4, 0.2]","[u'low', u'high', u'medium']","blue",50,"middle","high","True","False",120,4250,NA
"A2JA0C0PI7KIMJ","Tue Oct 27 2020 10:44:33 GMT-0400 (Eastern Daylight Time)","Tue Oct 27 2020 10:52:40 GMT-0400 (Eastern Daylight Time)","Mozilla/5.0 (Windows NT 6.3; Win64; x64) AppleWebKit/537.36 (KHTML, like Gecko) Chrome/86.0.4240.111 Safari/537.36",129,"[0.9, 0.5, 0.1]","[0.8, 0.4, 0.2]","[u'red', u'blue', u'black']","[u'left', u'middle', u'right']","[0.8, 0.4, 0.2]","[u'low', u'high', u'medium']","blue",50,"middle","high","True","False",89,4350,NA
"A2JA0C0PI7KIMJ","Tue Oct 27 2020 10:44:33 GMT-0400 (Eastern Daylight Time)","Tue Oct 27 2020 10:52:40 GMT-0400 (Eastern Daylight Time)","Mozilla/5.0 (Windows NT 6.3; Win64; x64) AppleWebKit/537.36 (KHTML, like Gecko) Chrome/86.0.4240.111 Safari/537.36",130,"[0.9, 0.5, 0.1]","[0.8, 0.4, 0.2]","[u'red', u'blue', u'black']","[u'left', u'middle', u'right']","[0.8, 0.4, 0.2]","[u'low', u'high', u'medium']","red",49,"left","low","False","False",148,4300,NA
"A2JA0C0PI7KIMJ","Tue Oct 27 2020 10:44:33 GMT-0400 (Eastern Daylight Time)","Tue Oct 27 2020 10:52:40 GMT-0400 (Eastern Daylight Time)","Mozilla/5.0 (Windows NT 6.3; Win64; x64) AppleWebKit/537.36 (KHTML, like Gecko) Chrome/86.0.4240.111 Safari/537.36",131,"[0.9, 0.5, 0.1]","[0.8, 0.4, 0.2]","[u'red', u'blue', u'black']","[u'left', u'middle', u'right']","[0.8, 0.4, 0.2]","[u'low', u'high', u'medium']","blue",50,"middle","high","True","False",310,4400,NA
"A2JA0C0PI7KIMJ","Tue Oct 27 2020 10:44:33 GMT-0400 (Eastern Daylight Time)","Tue Oct 27 2020 10:52:40 GMT-0400 (Eastern Daylight Time)","Mozilla/5.0 (Windows NT 6.3; Win64; x64) AppleWebKit/537.36 (KHTML, like Gecko) Chrome/86.0.4240.111 Safari/537.36",132,"[0.9, 0.5, 0.1]","[0.8, 0.4, 0.2]","[u'red', u'blue', u'black']","[u'left', u'middle', u'right']","[0.8, 0.4, 0.2]","[u'low', u'high', u'medium']","red",49,"left","low","False","False",339,4350,NA
"A2JA0C0PI7KIMJ","Tue Oct 27 2020 10:44:33 GMT-0400 (Eastern Daylight Time)","Tue Oct 27 2020 10:52:40 GMT-0400 (Eastern Daylight Time)","Mozilla/5.0 (Windows NT 6.3; Win64; x64) AppleWebKit/537.36 (KHTML, like Gecko) Chrome/86.0.4240.111 Safari/537.36",133,"[0.9, 0.5, 0.1]","[0.8, 0.4, 0.2]","[u'red', u'blue', u'black']","[u'left', u'middle', u'right']","[0.8, 0.4, 0.2]","[u'low', u'high', u'medium']","red",49,"left","low","True","False",455,4450,NA
"A2JA0C0PI7KIMJ","Tue Oct 27 2020 10:44:33 GMT-0400 (Eastern Daylight Time)","Tue Oct 27 2020 10:52:40 GMT-0400 (Eastern Daylight Time)","Mozilla/5.0 (Windows NT 6.3; Win64; x64) AppleWebKit/537.36 (KHTML, like Gecko) Chrome/86.0.4240.111 Safari/537.36",134,"[0.9, 0.5, 0.1]","[0.8, 0.4, 0.2]","[u'red', u'blue', u'black']","[u'left', u'middle', u'right']","[0.8, 0.4, 0.2]","[u'low', u'high', u'medium']","red",49,"left","low","True","False",789,4550,NA
"A2JA0C0PI7KIMJ","Tue Oct 27 2020 10:44:33 GMT-0400 (Eastern Daylight Time)","Tue Oct 27 2020 10:52:40 GMT-0400 (Eastern Daylight Time)","Mozilla/5.0 (Windows NT 6.3; Win64; x64) AppleWebKit/537.36 (KHTML, like Gecko) Chrome/86.0.4240.111 Safari/537.36",135,"[0.9, 0.5, 0.1]","[0.8, 0.4, 0.2]","[u'red', u'blue', u'black']","[u'left', u'middle', u'right']","[0.8, 0.4, 0.2]","[u'low', u'high', u'medium']","blue",50,"middle","high","False","False",18,4500,NA
"A2JA0C0PI7KIMJ","Tue Oct 27 2020 10:44:33 GMT-0400 (Eastern Daylight Time)","Tue Oct 27 2020 10:52:40 GMT-0400 (Eastern Daylight Time)","Mozilla/5.0 (Windows NT 6.3; Win64; x64) AppleWebKit/537.36 (KHTML, like Gecko) Chrome/86.0.4240.111 Safari/537.36",136,"[0.9, 0.5, 0.1]","[0.8, 0.4, 0.2]","[u'red', u'blue', u'black']","[u'left', u'middle', u'right']","[0.8, 0.4, 0.2]","[u'low', u'high', u'medium']","red",49,"left","low","False","False",120,4450,NA
"A2JA0C0PI7KIMJ","Tue Oct 27 2020 10:44:33 GMT-0400 (Eastern Daylight Time)","Tue Oct 27 2020 10:52:40 GMT-0400 (Eastern Daylight Time)","Mozilla/5.0 (Windows NT 6.3; Win64; x64) AppleWebKit/537.36 (KHTML, like Gecko) Chrome/86.0.4240.111 Safari/537.36",137,"[0.9, 0.5, 0.1]","[0.8, 0.4, 0.2]","[u'red', u'blue', u'black']","[u'left', u'middle', u'right']","[0.8, 0.4, 0.2]","[u'low', u'high', u'medium']","blue",50,"middle","high","True","False",120,4550,NA
"A2JA0C0PI7KIMJ","Tue Oct 27 2020 10:44:33 GMT-0400 (Eastern Daylight Time)","Tue Oct 27 2020 10:52:40 GMT-0400 (Eastern Daylight Time)","Mozilla/5.0 (Windows NT 6.3; Win64; x64) AppleWebKit/537.36 (KHTML, like Gecko) Chrome/86.0.4240.111 Safari/537.36",138,"[0.9, 0.5, 0.1]","[0.8, 0.4, 0.2]","[u'red', u'blue', u'black']","[u'left', u'middle', u'right']","[0.8, 0.4, 0.2]","[u'low', u'high', u'medium']","red",49,"left","low","True","False",397,4650,NA
"A2JA0C0PI7KIMJ","Tue Oct 27 2020 10:44:33 GMT-0400 (Eastern Daylight Time)","Tue Oct 27 2020 10:52:40 GMT-0400 (Eastern Daylight Time)","Mozilla/5.0 (Windows NT 6.3; Win64; x64) AppleWebKit/537.36 (KHTML, like Gecko) Chrome/86.0.4240.111 Safari/537.36",139,"[0.9, 0.5, 0.1]","[0.8, 0.4, 0.2]","[u'red', u'blue', u'black']","[u'left', u'middle', u'right']","[0.8, 0.4, 0.2]","[u'low', u'high', u'medium']","red",49,"left","low","False","False",218,4600,NA
"A2JA0C0PI7KIMJ","Tue Oct 27 2020 10:44:33 GMT-0400 (Eastern Daylight Time)","Tue Oct 27 2020 10:52:40 GMT-0400 (Eastern Daylight Time)","Mozilla/5.0 (Windows NT 6.3; Win64; x64) AppleWebKit/537.36 (KHTML, like Gecko) Chrome/86.0.4240.111 Safari/537.36",140,"[0.9, 0.5, 0.1]","[0.8, 0.4, 0.2]","[u'red', u'blue', u'black']","[u'left', u'middle', u'right']","[0.8, 0.4, 0.2]","[u'low', u'high', u'medium']","blue",50,"middle","high","True","False",49,4700,NA
"A2JA0C0PI7KIMJ","Tue Oct 27 2020 10:44:33 GMT-0400 (Eastern Daylight Time)","Tue Oct 27 2020 10:52:40 GMT-0400 (Eastern Daylight Time)","Mozilla/5.0 (Windows NT 6.3; Win64; x64) AppleWebKit/537.36 (KHTML, like Gecko) Chrome/86.0.4240.111 Safari/537.36",141,"[0.9, 0.5, 0.1]","[0.8, 0.4, 0.2]","[u'red', u'blue', u'black']","[u'left', u'middle', u'right']","[0.8, 0.4, 0.2]","[u'low', u'high', u'medium']","red",49,"left","low","False","False",467,4650,NA
"A2JA0C0PI7KIMJ","Tue Oct 27 2020 10:44:33 GMT-0400 (Eastern Daylight Time)","Tue Oct 27 2020 10:52:40 GMT-0400 (Eastern Daylight Time)","Mozilla/5.0 (Windows NT 6.3; Win64; x64) AppleWebKit/537.36 (KHTML, like Gecko) Chrome/86.0.4240.111 Safari/537.36",142,"[0.9, 0.5, 0.1]","[0.8, 0.4, 0.2]","[u'red', u'blue', u'black']","[u'left', u'middle', u'right']","[0.8, 0.4, 0.2]","[u'low', u'high', u'medium']","blue",50,"middle","high","True","False",258,4750,NA
"A2JA0C0PI7KIMJ","Tue Oct 27 2020 10:44:33 GMT-0400 (Eastern Daylight Time)","Tue Oct 27 2020 10:52:40 GMT-0400 (Eastern Daylight Time)","Mozilla/5.0 (Windows NT 6.3; Win64; x64) AppleWebKit/537.36 (KHTML, like Gecko) Chrome/86.0.4240.111 Safari/537.36",143,"[0.9, 0.5, 0.1]","[0.8, 0.4, 0.2]","[u'red', u'blue', u'black']","[u'left', u'middle', u'right']","[0.8, 0.4, 0.2]","[u'low', u'high', u'medium']","blue",50,"middle","high","True","False",478,4850,NA
"A2JA0C0PI7KIMJ","Tue Oct 27 2020 10:44:33 GMT-0400 (Eastern Daylight Time)","Tue Oct 27 2020 10:52:40 GMT-0400 (Eastern Daylight Time)","Mozilla/5.0 (Windows NT 6.3; Win64; x64) AppleWebKit/537.36 (KHTML, like Gecko) Chrome/86.0.4240.111 Safari/537.36",144,"[0.9, 0.5, 0.1]","[0.8, 0.4, 0.2]","[u'red', u'blue', u'black']","[u'left', u'middle', u'right']","[0.8, 0.4, 0.2]","[u'low', u'high', u'medium']","black",51,"right","medium","True","False",69,4950,NA
"A2JA0C0PI7KIMJ","Tue Oct 27 2020 10:44:33 GMT-0400 (Eastern Daylight Time)","Tue Oct 27 2020 10:52:40 GMT-0400 (Eastern Daylight Time)","Mozilla/5.0 (Windows NT 6.3; Win64; x64) AppleWebKit/537.36 (KHTML, like Gecko) Chrome/86.0.4240.111 Safari/537.36",145,"[0.9, 0.5, 0.1]","[0.8, 0.4, 0.2]","[u'red', u'blue', u'black']","[u'left', u'middle', u'right']","[0.8, 0.4, 0.2]","[u'low', u'high', u'medium']","blue",50,"middle","high","True","False",210,5050,NA
"A2JA0C0PI7KIMJ","Tue Oct 27 2020 10:44:33 GMT-0400 (Eastern Daylight Time)","Tue Oct 27 2020 10:52:40 GMT-0400 (Eastern Daylight Time)","Mozilla/5.0 (Windows NT 6.3; Win64; x64) AppleWebKit/537.36 (KHTML, like Gecko) Chrome/86.0.4240.111 Safari/537.36",146,"[0.9, 0.5, 0.1]","[0.8, 0.4, 0.2]","[u'red', u'blue', u'black']","[u'left', u'middle', u'right']","[0.8, 0.4, 0.2]","[u'low', u'high', u'medium']","blue",50,"middle","high","True","False",306,5150,NA
"A2JA0C0PI7KIMJ","Tue Oct 27 2020 10:44:33 GMT-0400 (Eastern Daylight Time)","Tue Oct 27 2020 10:52:40 GMT-0400 (Eastern Daylight Time)","Mozilla/5.0 (Windows NT 6.3; Win64; x64) AppleWebKit/537.36 (KHTML, like Gecko) Chrome/86.0.4240.111 Safari/537.36",147,"[0.9, 0.5, 0.1]","[0.8, 0.4, 0.2]","[u'red', u'blue', u'black']","[u'left', u'middle', u'right']","[0.8, 0.4, 0.2]","[u'low', u'high', u'medium']","red",49,"left","low","True","False",300,5250,NA
"A2JA0C0PI7KIMJ","Tue Oct 27 2020 10:44:33 GMT-0400 (Eastern Daylight Time)","Tue Oct 27 2020 10:52:40 GMT-0400 (Eastern Daylight Time)","Mozilla/5.0 (Windows NT 6.3; Win64; x64) AppleWebKit/537.36 (KHTML, like Gecko) Chrome/86.0.4240.111 Safari/537.36",148,"[0.9, 0.5, 0.1]","[0.8, 0.4, 0.2]","[u'red', u'blue', u'black']","[u'left', u'middle', u'right']","[0.8, 0.4, 0.2]","[u'low', u'high', u'medium']","blue",50,"middle","high","True","False",359,5350,NA
"A2JA0C0PI7KIMJ","Tue Oct 27 2020 10:44:33 GMT-0400 (Eastern Daylight Time)","Tue Oct 27 2020 10:52:40 GMT-0400 (Eastern Daylight Time)","Mozilla/5.0 (Windows NT 6.3; Win64; x64) AppleWebKit/537.36 (KHTML, like Gecko) Chrome/86.0.4240.111 Safari/537.36",149,"[0.9, 0.5, 0.1]","[0.8, 0.4, 0.2]","[u'red', u'blue', u'black']","[u'left', u'middle', u'right']","[0.8, 0.4, 0.2]","[u'low', u'high', u'medium']","blue",50,"middle","high","False","False",8,5300,NA
"A2JA0C0PI7KIMJ","Tue Oct 27 2020 10:44:33 GMT-0400 (Eastern Daylight Time)","Tue Oct 27 2020 10:52:40 GMT-0400 (Eastern Daylight Time)","Mozilla/5.0 (Windows NT 6.3; Win64; x64) AppleWebKit/537.36 (KHTML, like Gecko) Chrome/86.0.4240.111 Safari/537.36",150,"[0.9, 0.5, 0.1]","[0.8, 0.4, 0.2]","[u'red', u'blue', u'black']","[u'left', u'middle', u'right']","[0.8, 0.4, 0.2]","[u'low', u'high', u'medium']","red",49,"left","low","False","False",48,5250,NA
"A2JA0C0PI7KIMJ","Tue Oct 27 2020 10:44:33 GMT-0400 (Eastern Daylight Time)","Tue Oct 27 2020 10:52:40 GMT-0400 (Eastern Daylight Time)","Mozilla/5.0 (Windows NT 6.3; Win64; x64) AppleWebKit/537.36 (KHTML, like Gecko) Chrome/86.0.4240.111 Safari/537.36",151,"[0.9, 0.5, 0.1]","[0.8, 0.4, 0.2]","[u'red', u'blue', u'black']","[u'left', u'middle', u'right']","[0.8, 0.4, 0.2]","[u'low', u'high', u'medium']","blue",50,"middle","high","False","False",238,5200,NA
"A2JA0C0PI7KIMJ","Tue Oct 27 2020 10:44:33 GMT-0400 (Eastern Daylight Time)","Tue Oct 27 2020 10:52:40 GMT-0400 (Eastern Daylight Time)","Mozilla/5.0 (Windows NT 6.3; Win64; x64) AppleWebKit/537.36 (KHTML, like Gecko) Chrome/86.0.4240.111 Safari/537.36",152,"[0.9, 0.5, 0.1]","[0.8, 0.4, 0.2]","[u'red', u'blue', u'black']","[u'left', u'middle', u'right']","[0.8, 0.4, 0.2]","[u'low', u'high', u'medium']","black",51,"right","medium","False","False",329,5150,NA
"A2JA0C0PI7KIMJ","Tue Oct 27 2020 10:44:33 GMT-0400 (Eastern Daylight Time)","Tue Oct 27 2020 10:52:40 GMT-0400 (Eastern Daylight Time)","Mozilla/5.0 (Windows NT 6.3; Win64; x64) AppleWebKit/537.36 (KHTML, like Gecko) Chrome/86.0.4240.111 Safari/537.36",153,"[0.9, 0.5, 0.1]","[0.8, 0.4, 0.2]","[u'red', u'blue', u'black']","[u'left', u'middle', u'right']","[0.8, 0.4, 0.2]","[u'low', u'high', u'medium']","red",49,"left","low","False","False",249,5100,NA
"A2JA0C0PI7KIMJ","Tue Oct 27 2020 10:44:33 GMT-0400 (Eastern Daylight Time)","Tue Oct 27 2020 10:52:40 GMT-0400 (Eastern Daylight Time)","Mozilla/5.0 (Windows NT 6.3; Win64; x64) AppleWebKit/537.36 (KHTML, like Gecko) Chrome/86.0.4240.111 Safari/537.36",154,"[0.9, 0.5, 0.1]","[0.8, 0.4, 0.2]","[u'red', u'blue', u'black']","[u'left', u'middle', u'right']","[0.8, 0.4, 0.2]","[u'low', u'high', u'medium']","blue",50,"middle","high","True","False",150,5200,NA
"A2JA0C0PI7KIMJ","Tue Oct 27 2020 10:44:33 GMT-0400 (Eastern Daylight Time)","Tue Oct 27 2020 10:52:40 GMT-0400 (Eastern Daylight Time)","Mozilla/5.0 (Windows NT 6.3; Win64; x64) AppleWebKit/537.36 (KHTML, like Gecko) Chrome/86.0.4240.111 Safari/537.36",155,"[0.9, 0.5, 0.1]","[0.8, 0.4, 0.2]","[u'red', u'blue', u'black']","[u'left', u'middle', u'right']","[0.8, 0.4, 0.2]","[u'low', u'high', u'medium']","blue",50,"middle","high","True","False",529,5300,NA
"A2JA0C0PI7KIMJ","Tue Oct 27 2020 10:44:33 GMT-0400 (Eastern Daylight Time)","Tue Oct 27 2020 10:52:40 GMT-0400 (Eastern Daylight Time)","Mozilla/5.0 (Windows NT 6.3; Win64; x64) AppleWebKit/537.36 (KHTML, like Gecko) Chrome/86.0.4240.111 Safari/537.36",156,"[0.9, 0.5, 0.1]","[0.8, 0.4, 0.2]","[u'red', u'blue', u'black']","[u'left', u'middle', u'right']","[0.8, 0.4, 0.2]","[u'low', u'high', u'medium']","black",51,"right","medium","False","False",417,5250,NA
"A2JA0C0PI7KIMJ","Tue Oct 27 2020 10:44:33 GMT-0400 (Eastern Daylight Time)","Tue Oct 27 2020 10:52:40 GMT-0400 (Eastern Daylight Time)","Mozilla/5.0 (Windows NT 6.3; Win64; x64) AppleWebKit/537.36 (KHTML, like Gecko) Chrome/86.0.4240.111 Safari/537.36",157,"[0.9, 0.5, 0.1]","[0.8, 0.4, 0.2]","[u'red', u'blue', u'black']","[u'left', u'middle', u'right']","[0.8, 0.4, 0.2]","[u'low', u'high', u'medium']","blue",50,"middle","high","True","False",17,5350,NA
"A2JA0C0PI7KIMJ","Tue Oct 27 2020 10:44:33 GMT-0400 (Eastern Daylight Time)","Tue Oct 27 2020 10:52:40 GMT-0400 (Eastern Daylight Time)","Mozilla/5.0 (Windows NT 6.3; Win64; x64) AppleWebKit/537.36 (KHTML, like Gecko) Chrome/86.0.4240.111 Safari/537.36",158,"[0.9, 0.5, 0.1]","[0.8, 0.4, 0.2]","[u'red', u'blue', u'black']","[u'left', u'middle', u'right']","[0.8, 0.4, 0.2]","[u'low', u'high', u'medium']","blue",50,"middle","high","True","False",959,5450,NA
"A2JA0C0PI7KIMJ","Tue Oct 27 2020 10:44:33 GMT-0400 (Eastern Daylight Time)","Tue Oct 27 2020 10:52:40 GMT-0400 (Eastern Daylight Time)","Mozilla/5.0 (Windows NT 6.3; Win64; x64) AppleWebKit/537.36 (KHTML, like Gecko) Chrome/86.0.4240.111 Safari/537.36",159,"[0.9, 0.5, 0.1]","[0.8, 0.4, 0.2]","[u'red', u'blue', u'black']","[u'left', u'middle', u'right']","[0.8, 0.4, 0.2]","[u'low', u'high', u'medium']","blue",50,"middle","high","False","False",269,5400,NA
"A2JA0C0PI7KIMJ","Tue Oct 27 2020 10:44:33 GMT-0400 (Eastern Daylight Time)","Tue Oct 27 2020 10:52:40 GMT-0400 (Eastern Daylight Time)","Mozilla/5.0 (Windows NT 6.3; Win64; x64) AppleWebKit/537.36 (KHTML, like Gecko) Chrome/86.0.4240.111 Safari/537.36",160,"[0.9, 0.5, 0.1]","[0.8, 0.4, 0.2]","[u'red', u'blue', u'black']","[u'left', u'middle', u'right']","[0.8, 0.4, 0.2]","[u'low', u'high', u'medium']","black",51,"right","medium","False","False",677,5350,NA
