"src_subject_id","start_time","end_time","browser","index","first_half_probabilities","second_half_probabilities","deck_color","deck_position","deck_probabilities","deck_contingencies","response_color","key_press","response_position","response_probability","reward_type","trial_type","rt","reward_tally","exclusion_reason"
"A1XAFKGJBBH6S5","Tue Oct 27 2020 10:16:02 GMT-0600 (Mountain Daylight Time)","Tue Oct 27 2020 10:22:45 GMT-0600 (Mountain Daylight Time)","Mozilla/5.0 (Windows NT 10.0; Win64; x64) AppleWebKit/537.36 (KHTML, like Gecko) Chrome/86.0.4240.75 Safari/537.36",1,"[0.9, 0.5, 0.1]","[0.8, 0.4, 0.2]","[u'blue', u'red', u'black']","[u'left', u'middle', u'right']","[0.9, 0.5, 0.1]","[u'high', u'medium', u'low']","black",51,"right","low","False","False",980,-50,NA
"A1XAFKGJBBH6S5","Tue Oct 27 2020 10:16:02 GMT-0600 (Mountain Daylight Time)","Tue Oct 27 2020 10:22:45 GMT-0600 (Mountain Daylight Time)","Mozilla/5.0 (Windows NT 10.0; Win64; x64) AppleWebKit/537.36 (KHTML, like Gecko) Chrome/86.0.4240.75 Safari/537.36",2,"[0.9, 0.5, 0.1]","[0.8, 0.4, 0.2]","[u'blue', u'red', u'black']","[u'left', u'middle', u'right']","[0.9, 0.5, 0.1]","[u'high', u'medium', u'low']","red",50,"middle","medium","True","False",355,50,NA
"A1XAFKGJBBH6S5","Tue Oct 27 2020 10:16:02 GMT-0600 (Mountain Daylight Time)","Tue Oct 27 2020 10:22:45 GMT-0600 (Mountain Daylight Time)","Mozilla/5.0 (Windows NT 10.0; Win64; x64) AppleWebKit/537.36 (KHTML, like Gecko) Chrome/86.0.4240.75 Safari/537.36",3,"[0.9, 0.5, 0.1]","[0.8, 0.4, 0.2]","[u'blue', u'red', u'black']","[u'left', u'middle', u'right']","[0.9, 0.5, 0.1]","[u'high', u'medium', u'low']","blue",49,"left","high","True","False",729,150,NA
"A1XAFKGJBBH6S5","Tue Oct 27 2020 10:16:02 GMT-0600 (Mountain Daylight Time)","Tue Oct 27 2020 10:22:45 GMT-0600 (Mountain Daylight Time)","Mozilla/5.0 (Windows NT 10.0; Win64; x64) AppleWebKit/537.36 (KHTML, like Gecko) Chrome/86.0.4240.75 Safari/537.36",4,"[0.9, 0.5, 0.1]","[0.8, 0.4, 0.2]","[u'blue', u'red', u'black']","[u'left', u'middle', u'right']","[0.9, 0.5, 0.1]","[u'high', u'medium', u'low']","black",51,"right","low","False","False",316,100,NA
"A1XAFKGJBBH6S5","Tue Oct 27 2020 10:16:02 GMT-0600 (Mountain Daylight Time)","Tue Oct 27 2020 10:22:45 GMT-0600 (Mountain Daylight Time)","Mozilla/5.0 (Windows NT 10.0; Win64; x64) AppleWebKit/537.36 (KHTML, like Gecko) Chrome/86.0.4240.75 Safari/537.36",5,"[0.9, 0.5, 0.1]","[0.8, 0.4, 0.2]","[u'blue', u'red', u'black']","[u'left', u'middle', u'right']","[0.9, 0.5, 0.1]","[u'high', u'medium', u'low']","red",50,"middle","medium","False","False",414,50,NA
"A1XAFKGJBBH6S5","Tue Oct 27 2020 10:16:02 GMT-0600 (Mountain Daylight Time)","Tue Oct 27 2020 10:22:45 GMT-0600 (Mountain Daylight Time)","Mozilla/5.0 (Windows NT 10.0; Win64; x64) AppleWebKit/537.36 (KHTML, like Gecko) Chrome/86.0.4240.75 Safari/537.36",6,"[0.9, 0.5, 0.1]","[0.8, 0.4, 0.2]","[u'blue', u'red', u'black']","[u'left', u'middle', u'right']","[0.9, 0.5, 0.1]","[u'high', u'medium', u'low']","black",51,"right","low","False","False",274,0,NA
"A1XAFKGJBBH6S5","Tue Oct 27 2020 10:16:02 GMT-0600 (Mountain Daylight Time)","Tue Oct 27 2020 10:22:45 GMT-0600 (Mountain Daylight Time)","Mozilla/5.0 (Windows NT 10.0; Win64; x64) AppleWebKit/537.36 (KHTML, like Gecko) Chrome/86.0.4240.75 Safari/537.36",7,"[0.9, 0.5, 0.1]","[0.8, 0.4, 0.2]","[u'blue', u'red', u'black']","[u'left', u'middle', u'right']","[0.9, 0.5, 0.1]","[u'high', u'medium', u'low']","blue",49,"left","high","True","False",296,100,NA
"A1XAFKGJBBH6S5","Tue Oct 27 2020 10:16:02 GMT-0600 (Mountain Daylight Time)","Tue Oct 27 2020 10:22:45 GMT-0600 (Mountain Daylight Time)","Mozilla/5.0 (Windows NT 10.0; Win64; x64) AppleWebKit/537.36 (KHTML, like Gecko) Chrome/86.0.4240.75 Safari/537.36",8,"[0.9, 0.5, 0.1]","[0.8, 0.4, 0.2]","[u'blue', u'red', u'black']","[u'left', u'middle', u'right']","[0.9, 0.5, 0.1]","[u'high', u'medium', u'low']","red",50,"middle","medium","True","False",162,200,NA
"A1XAFKGJBBH6S5","Tue Oct 27 2020 10:16:02 GMT-0600 (Mountain Daylight Time)","Tue Oct 27 2020 10:22:45 GMT-0600 (Mountain Daylight Time)","Mozilla/5.0 (Windows NT 10.0; Win64; x64) AppleWebKit/537.36 (KHTML, like Gecko) Chrome/86.0.4240.75 Safari/537.36",9,"[0.9, 0.5, 0.1]","[0.8, 0.4, 0.2]","[u'blue', u'red', u'black']","[u'left', u'middle', u'right']","[0.9, 0.5, 0.1]","[u'high', u'medium', u'low']","black",51,"right","low","False","False",114,150,NA
"A1XAFKGJBBH6S5","Tue Oct 27 2020 10:16:02 GMT-0600 (Mountain Daylight Time)","Tue Oct 27 2020 10:22:45 GMT-0600 (Mountain Daylight Time)","Mozilla/5.0 (Windows NT 10.0; Win64; x64) AppleWebKit/537.36 (KHTML, like Gecko) Chrome/86.0.4240.75 Safari/537.36",10,"[0.9, 0.5, 0.1]","[0.8, 0.4, 0.2]","[u'blue', u'red', u'black']","[u'left', u'middle', u'right']","[0.9, 0.5, 0.1]","[u'high', u'medium', u'low']","red",50,"middle","medium","False","False",372,100,NA
"A1XAFKGJBBH6S5","Tue Oct 27 2020 10:16:02 GMT-0600 (Mountain Daylight Time)","Tue Oct 27 2020 10:22:45 GMT-0600 (Mountain Daylight Time)","Mozilla/5.0 (Windows NT 10.0; Win64; x64) AppleWebKit/537.36 (KHTML, like Gecko) Chrome/86.0.4240.75 Safari/537.36",11,"[0.9, 0.5, 0.1]","[0.8, 0.4, 0.2]","[u'blue', u'red', u'black']","[u'left', u'middle', u'right']","[0.9, 0.5, 0.1]","[u'high', u'medium', u'low']","blue",49,"left","high","True","False",25,200,NA
"A1XAFKGJBBH6S5","Tue Oct 27 2020 10:16:02 GMT-0600 (Mountain Daylight Time)","Tue Oct 27 2020 10:22:45 GMT-0600 (Mountain Daylight Time)","Mozilla/5.0 (Windows NT 10.0; Win64; x64) AppleWebKit/537.36 (KHTML, like Gecko) Chrome/86.0.4240.75 Safari/537.36",12,"[0.9, 0.5, 0.1]","[0.8, 0.4, 0.2]","[u'blue', u'red', u'black']","[u'left', u'middle', u'right']","[0.9, 0.5, 0.1]","[u'high', u'medium', u'low']","blue",49,"left","high","True","False",235,300,NA
"A1XAFKGJBBH6S5","Tue Oct 27 2020 10:16:02 GMT-0600 (Mountain Daylight Time)","Tue Oct 27 2020 10:22:45 GMT-0600 (Mountain Daylight Time)","Mozilla/5.0 (Windows NT 10.0; Win64; x64) AppleWebKit/537.36 (KHTML, like Gecko) Chrome/86.0.4240.75 Safari/537.36",13,"[0.9, 0.5, 0.1]","[0.8, 0.4, 0.2]","[u'blue', u'red', u'black']","[u'left', u'middle', u'right']","[0.9, 0.5, 0.1]","[u'high', u'medium', u'low']","blue",49,"left","high","True","False",273,400,NA
"A1XAFKGJBBH6S5","Tue Oct 27 2020 10:16:02 GMT-0600 (Mountain Daylight Time)","Tue Oct 27 2020 10:22:45 GMT-0600 (Mountain Daylight Time)","Mozilla/5.0 (Windows NT 10.0; Win64; x64) AppleWebKit/537.36 (KHTML, like Gecko) Chrome/86.0.4240.75 Safari/537.36",14,"[0.9, 0.5, 0.1]","[0.8, 0.4, 0.2]","[u'blue', u'red', u'black']","[u'left', u'middle', u'right']","[0.9, 0.5, 0.1]","[u'high', u'medium', u'low']","blue",49,"left","high","True","False",233,500,NA
"A1XAFKGJBBH6S5","Tue Oct 27 2020 10:16:02 GMT-0600 (Mountain Daylight Time)","Tue Oct 27 2020 10:22:45 GMT-0600 (Mountain Daylight Time)","Mozilla/5.0 (Windows NT 10.0; Win64; x64) AppleWebKit/537.36 (KHTML, like Gecko) Chrome/86.0.4240.75 Safari/537.36",15,"[0.9, 0.5, 0.1]","[0.8, 0.4, 0.2]","[u'blue', u'red', u'black']","[u'left', u'middle', u'right']","[0.9, 0.5, 0.1]","[u'high', u'medium', u'low']","blue",49,"left","high","True","False",490,600,NA
"A1XAFKGJBBH6S5","Tue Oct 27 2020 10:16:02 GMT-0600 (Mountain Daylight Time)","Tue Oct 27 2020 10:22:45 GMT-0600 (Mountain Daylight Time)","Mozilla/5.0 (Windows NT 10.0; Win64; x64) AppleWebKit/537.36 (KHTML, like Gecko) Chrome/86.0.4240.75 Safari/537.36",16,"[0.9, 0.5, 0.1]","[0.8, 0.4, 0.2]","[u'blue', u'red', u'black']","[u'left', u'middle', u'right']","[0.9, 0.5, 0.1]","[u'high', u'medium', u'low']","blue",49,"left","high","True","False",265,700,NA
"A1XAFKGJBBH6S5","Tue Oct 27 2020 10:16:02 GMT-0600 (Mountain Daylight Time)","Tue Oct 27 2020 10:22:45 GMT-0600 (Mountain Daylight Time)","Mozilla/5.0 (Windows NT 10.0; Win64; x64) AppleWebKit/537.36 (KHTML, like Gecko) Chrome/86.0.4240.75 Safari/537.36",17,"[0.9, 0.5, 0.1]","[0.8, 0.4, 0.2]","[u'blue', u'red', u'black']","[u'left', u'middle', u'right']","[0.9, 0.5, 0.1]","[u'high', u'medium', u'low']","blue",49,"left","high","True","False",289,800,NA
"A1XAFKGJBBH6S5","Tue Oct 27 2020 10:16:02 GMT-0600 (Mountain Daylight Time)","Tue Oct 27 2020 10:22:45 GMT-0600 (Mountain Daylight Time)","Mozilla/5.0 (Windows NT 10.0; Win64; x64) AppleWebKit/537.36 (KHTML, like Gecko) Chrome/86.0.4240.75 Safari/537.36",18,"[0.9, 0.5, 0.1]","[0.8, 0.4, 0.2]","[u'blue', u'red', u'black']","[u'left', u'middle', u'right']","[0.9, 0.5, 0.1]","[u'high', u'medium', u'low']","blue",49,"left","high","True","False",242,900,NA
"A1XAFKGJBBH6S5","Tue Oct 27 2020 10:16:02 GMT-0600 (Mountain Daylight Time)","Tue Oct 27 2020 10:22:45 GMT-0600 (Mountain Daylight Time)","Mozilla/5.0 (Windows NT 10.0; Win64; x64) AppleWebKit/537.36 (KHTML, like Gecko) Chrome/86.0.4240.75 Safari/537.36",19,"[0.9, 0.5, 0.1]","[0.8, 0.4, 0.2]","[u'blue', u'red', u'black']","[u'left', u'middle', u'right']","[0.9, 0.5, 0.1]","[u'high', u'medium', u'low']","blue",49,"left","high","True","True",257,1000,NA
"A1XAFKGJBBH6S5","Tue Oct 27 2020 10:16:02 GMT-0600 (Mountain Daylight Time)","Tue Oct 27 2020 10:22:45 GMT-0600 (Mountain Daylight Time)","Mozilla/5.0 (Windows NT 10.0; Win64; x64) AppleWebKit/537.36 (KHTML, like Gecko) Chrome/86.0.4240.75 Safari/537.36",20,"[0.9, 0.5, 0.1]","[0.8, 0.4, 0.2]","[u'blue', u'red', u'black']","[u'left', u'middle', u'right']","[0.9, 0.5, 0.1]","[u'medium', u'high', u'low']","blue",49,"left","medium","True","False",57,1100,NA
"A1XAFKGJBBH6S5","Tue Oct 27 2020 10:16:02 GMT-0600 (Mountain Daylight Time)","Tue Oct 27 2020 10:22:45 GMT-0600 (Mountain Daylight Time)","Mozilla/5.0 (Windows NT 10.0; Win64; x64) AppleWebKit/537.36 (KHTML, like Gecko) Chrome/86.0.4240.75 Safari/537.36",21,"[0.9, 0.5, 0.1]","[0.8, 0.4, 0.2]","[u'blue', u'red', u'black']","[u'left', u'middle', u'right']","[0.9, 0.5, 0.1]","[u'medium', u'high', u'low']","blue",49,"left","medium","False","False",219,1050,NA
"A1XAFKGJBBH6S5","Tue Oct 27 2020 10:16:02 GMT-0600 (Mountain Daylight Time)","Tue Oct 27 2020 10:22:45 GMT-0600 (Mountain Daylight Time)","Mozilla/5.0 (Windows NT 10.0; Win64; x64) AppleWebKit/537.36 (KHTML, like Gecko) Chrome/86.0.4240.75 Safari/537.36",22,"[0.9, 0.5, 0.1]","[0.8, 0.4, 0.2]","[u'blue', u'red', u'black']","[u'left', u'middle', u'right']","[0.9, 0.5, 0.1]","[u'medium', u'high', u'low']","blue",49,"left","medium","False","False",364,1000,NA
"A1XAFKGJBBH6S5","Tue Oct 27 2020 10:16:02 GMT-0600 (Mountain Daylight Time)","Tue Oct 27 2020 10:22:45 GMT-0600 (Mountain Daylight Time)","Mozilla/5.0 (Windows NT 10.0; Win64; x64) AppleWebKit/537.36 (KHTML, like Gecko) Chrome/86.0.4240.75 Safari/537.36",23,"[0.9, 0.5, 0.1]","[0.8, 0.4, 0.2]","[u'blue', u'red', u'black']","[u'left', u'middle', u'right']","[0.9, 0.5, 0.1]","[u'medium', u'high', u'low']","red",50,"middle","high","True","False",213,1100,NA
"A1XAFKGJBBH6S5","Tue Oct 27 2020 10:16:02 GMT-0600 (Mountain Daylight Time)","Tue Oct 27 2020 10:22:45 GMT-0600 (Mountain Daylight Time)","Mozilla/5.0 (Windows NT 10.0; Win64; x64) AppleWebKit/537.36 (KHTML, like Gecko) Chrome/86.0.4240.75 Safari/537.36",24,"[0.9, 0.5, 0.1]","[0.8, 0.4, 0.2]","[u'blue', u'red', u'black']","[u'left', u'middle', u'right']","[0.9, 0.5, 0.1]","[u'medium', u'high', u'low']","red",50,"middle","high","True","False",390,1200,NA
"A1XAFKGJBBH6S5","Tue Oct 27 2020 10:16:02 GMT-0600 (Mountain Daylight Time)","Tue Oct 27 2020 10:22:45 GMT-0600 (Mountain Daylight Time)","Mozilla/5.0 (Windows NT 10.0; Win64; x64) AppleWebKit/537.36 (KHTML, like Gecko) Chrome/86.0.4240.75 Safari/537.36",25,"[0.9, 0.5, 0.1]","[0.8, 0.4, 0.2]","[u'blue', u'red', u'black']","[u'left', u'middle', u'right']","[0.9, 0.5, 0.1]","[u'medium', u'high', u'low']","red",50,"middle","high","True","False",236,1300,NA
"A1XAFKGJBBH6S5","Tue Oct 27 2020 10:16:02 GMT-0600 (Mountain Daylight Time)","Tue Oct 27 2020 10:22:45 GMT-0600 (Mountain Daylight Time)","Mozilla/5.0 (Windows NT 10.0; Win64; x64) AppleWebKit/537.36 (KHTML, like Gecko) Chrome/86.0.4240.75 Safari/537.36",26,"[0.9, 0.5, 0.1]","[0.8, 0.4, 0.2]","[u'blue', u'red', u'black']","[u'left', u'middle', u'right']","[0.9, 0.5, 0.1]","[u'medium', u'high', u'low']","red",50,"middle","high","True","False",220,1400,NA
"A1XAFKGJBBH6S5","Tue Oct 27 2020 10:16:02 GMT-0600 (Mountain Daylight Time)","Tue Oct 27 2020 10:22:45 GMT-0600 (Mountain Daylight Time)","Mozilla/5.0 (Windows NT 10.0; Win64; x64) AppleWebKit/537.36 (KHTML, like Gecko) Chrome/86.0.4240.75 Safari/537.36",27,"[0.9, 0.5, 0.1]","[0.8, 0.4, 0.2]","[u'blue', u'red', u'black']","[u'left', u'middle', u'right']","[0.9, 0.5, 0.1]","[u'medium', u'high', u'low']","red",50,"middle","high","True","False",292,1500,NA
"A1XAFKGJBBH6S5","Tue Oct 27 2020 10:16:02 GMT-0600 (Mountain Daylight Time)","Tue Oct 27 2020 10:22:45 GMT-0600 (Mountain Daylight Time)","Mozilla/5.0 (Windows NT 10.0; Win64; x64) AppleWebKit/537.36 (KHTML, like Gecko) Chrome/86.0.4240.75 Safari/537.36",28,"[0.9, 0.5, 0.1]","[0.8, 0.4, 0.2]","[u'blue', u'red', u'black']","[u'left', u'middle', u'right']","[0.9, 0.5, 0.1]","[u'medium', u'high', u'low']","red",50,"middle","high","False","False",228,1450,NA
"A1XAFKGJBBH6S5","Tue Oct 27 2020 10:16:02 GMT-0600 (Mountain Daylight Time)","Tue Oct 27 2020 10:22:45 GMT-0600 (Mountain Daylight Time)","Mozilla/5.0 (Windows NT 10.0; Win64; x64) AppleWebKit/537.36 (KHTML, like Gecko) Chrome/86.0.4240.75 Safari/537.36",29,"[0.9, 0.5, 0.1]","[0.8, 0.4, 0.2]","[u'blue', u'red', u'black']","[u'left', u'middle', u'right']","[0.9, 0.5, 0.1]","[u'medium', u'high', u'low']","black",51,"right","low","False","False",212,1400,NA
"A1XAFKGJBBH6S5","Tue Oct 27 2020 10:16:02 GMT-0600 (Mountain Daylight Time)","Tue Oct 27 2020 10:22:45 GMT-0600 (Mountain Daylight Time)","Mozilla/5.0 (Windows NT 10.0; Win64; x64) AppleWebKit/537.36 (KHTML, like Gecko) Chrome/86.0.4240.75 Safari/537.36",30,"[0.9, 0.5, 0.1]","[0.8, 0.4, 0.2]","[u'blue', u'red', u'black']","[u'left', u'middle', u'right']","[0.9, 0.5, 0.1]","[u'medium', u'high', u'low']","blue",49,"left","medium","False","False",228,1350,NA
"A1XAFKGJBBH6S5","Tue Oct 27 2020 10:16:02 GMT-0600 (Mountain Daylight Time)","Tue Oct 27 2020 10:22:45 GMT-0600 (Mountain Daylight Time)","Mozilla/5.0 (Windows NT 10.0; Win64; x64) AppleWebKit/537.36 (KHTML, like Gecko) Chrome/86.0.4240.75 Safari/537.36",31,"[0.9, 0.5, 0.1]","[0.8, 0.4, 0.2]","[u'blue', u'red', u'black']","[u'left', u'middle', u'right']","[0.9, 0.5, 0.1]","[u'medium', u'high', u'low']","red",50,"middle","high","True","False",301,1450,NA
"A1XAFKGJBBH6S5","Tue Oct 27 2020 10:16:02 GMT-0600 (Mountain Daylight Time)","Tue Oct 27 2020 10:22:45 GMT-0600 (Mountain Daylight Time)","Mozilla/5.0 (Windows NT 10.0; Win64; x64) AppleWebKit/537.36 (KHTML, like Gecko) Chrome/86.0.4240.75 Safari/537.36",32,"[0.9, 0.5, 0.1]","[0.8, 0.4, 0.2]","[u'blue', u'red', u'black']","[u'left', u'middle', u'right']","[0.9, 0.5, 0.1]","[u'medium', u'high', u'low']","red",50,"middle","high","True","False",96,1550,NA
"A1XAFKGJBBH6S5","Tue Oct 27 2020 10:16:02 GMT-0600 (Mountain Daylight Time)","Tue Oct 27 2020 10:22:45 GMT-0600 (Mountain Daylight Time)","Mozilla/5.0 (Windows NT 10.0; Win64; x64) AppleWebKit/537.36 (KHTML, like Gecko) Chrome/86.0.4240.75 Safari/537.36",33,"[0.9, 0.5, 0.1]","[0.8, 0.4, 0.2]","[u'blue', u'red', u'black']","[u'left', u'middle', u'right']","[0.9, 0.5, 0.1]","[u'medium', u'high', u'low']","red",50,"middle","high","True","False",338,1650,NA
"A1XAFKGJBBH6S5","Tue Oct 27 2020 10:16:02 GMT-0600 (Mountain Daylight Time)","Tue Oct 27 2020 10:22:45 GMT-0600 (Mountain Daylight Time)","Mozilla/5.0 (Windows NT 10.0; Win64; x64) AppleWebKit/537.36 (KHTML, like Gecko) Chrome/86.0.4240.75 Safari/537.36",34,"[0.9, 0.5, 0.1]","[0.8, 0.4, 0.2]","[u'blue', u'red', u'black']","[u'left', u'middle', u'right']","[0.9, 0.5, 0.1]","[u'medium', u'high', u'low']","red",50,"middle","high","True","False",309,1750,NA
"A1XAFKGJBBH6S5","Tue Oct 27 2020 10:16:02 GMT-0600 (Mountain Daylight Time)","Tue Oct 27 2020 10:22:45 GMT-0600 (Mountain Daylight Time)","Mozilla/5.0 (Windows NT 10.0; Win64; x64) AppleWebKit/537.36 (KHTML, like Gecko) Chrome/86.0.4240.75 Safari/537.36",35,"[0.9, 0.5, 0.1]","[0.8, 0.4, 0.2]","[u'blue', u'red', u'black']","[u'left', u'middle', u'right']","[0.9, 0.5, 0.1]","[u'medium', u'high', u'low']","red",50,"middle","high","True","False",318,1850,NA
"A1XAFKGJBBH6S5","Tue Oct 27 2020 10:16:02 GMT-0600 (Mountain Daylight Time)","Tue Oct 27 2020 10:22:45 GMT-0600 (Mountain Daylight Time)","Mozilla/5.0 (Windows NT 10.0; Win64; x64) AppleWebKit/537.36 (KHTML, like Gecko) Chrome/86.0.4240.75 Safari/537.36",36,"[0.9, 0.5, 0.1]","[0.8, 0.4, 0.2]","[u'blue', u'red', u'black']","[u'left', u'middle', u'right']","[0.9, 0.5, 0.1]","[u'medium', u'high', u'low']","red",50,"middle","high","True","False",237,1950,NA
"A1XAFKGJBBH6S5","Tue Oct 27 2020 10:16:02 GMT-0600 (Mountain Daylight Time)","Tue Oct 27 2020 10:22:45 GMT-0600 (Mountain Daylight Time)","Mozilla/5.0 (Windows NT 10.0; Win64; x64) AppleWebKit/537.36 (KHTML, like Gecko) Chrome/86.0.4240.75 Safari/537.36",37,"[0.9, 0.5, 0.1]","[0.8, 0.4, 0.2]","[u'blue', u'red', u'black']","[u'left', u'middle', u'right']","[0.9, 0.5, 0.1]","[u'medium', u'high', u'low']","red",50,"middle","high","True","False",268,2050,NA
"A1XAFKGJBBH6S5","Tue Oct 27 2020 10:16:02 GMT-0600 (Mountain Daylight Time)","Tue Oct 27 2020 10:22:45 GMT-0600 (Mountain Daylight Time)","Mozilla/5.0 (Windows NT 10.0; Win64; x64) AppleWebKit/537.36 (KHTML, like Gecko) Chrome/86.0.4240.75 Safari/537.36",38,"[0.9, 0.5, 0.1]","[0.8, 0.4, 0.2]","[u'blue', u'red', u'black']","[u'left', u'middle', u'right']","[0.9, 0.5, 0.1]","[u'medium', u'high', u'low']","red",50,"middle","high","True","False",268,2150,NA
"A1XAFKGJBBH6S5","Tue Oct 27 2020 10:16:02 GMT-0600 (Mountain Daylight Time)","Tue Oct 27 2020 10:22:45 GMT-0600 (Mountain Daylight Time)","Mozilla/5.0 (Windows NT 10.0; Win64; x64) AppleWebKit/537.36 (KHTML, like Gecko) Chrome/86.0.4240.75 Safari/537.36",39,"[0.9, 0.5, 0.1]","[0.8, 0.4, 0.2]","[u'blue', u'red', u'black']","[u'left', u'middle', u'right']","[0.9, 0.5, 0.1]","[u'medium', u'high', u'low']","red",50,"middle","high","True","True",224,2250,NA
"A1XAFKGJBBH6S5","Tue Oct 27 2020 10:16:02 GMT-0600 (Mountain Daylight Time)","Tue Oct 27 2020 10:22:45 GMT-0600 (Mountain Daylight Time)","Mozilla/5.0 (Windows NT 10.0; Win64; x64) AppleWebKit/537.36 (KHTML, like Gecko) Chrome/86.0.4240.75 Safari/537.36",40,"[0.9, 0.5, 0.1]","[0.8, 0.4, 0.2]","[u'blue', u'red', u'black']","[u'left', u'middle', u'right']","[0.9, 0.5, 0.1]","[u'high', u'low', u'medium']","red",50,"middle","low","False","False",238,2200,NA
"A1XAFKGJBBH6S5","Tue Oct 27 2020 10:16:02 GMT-0600 (Mountain Daylight Time)","Tue Oct 27 2020 10:22:45 GMT-0600 (Mountain Daylight Time)","Mozilla/5.0 (Windows NT 10.0; Win64; x64) AppleWebKit/537.36 (KHTML, like Gecko) Chrome/86.0.4240.75 Safari/537.36",41,"[0.9, 0.5, 0.1]","[0.8, 0.4, 0.2]","[u'blue', u'red', u'black']","[u'left', u'middle', u'right']","[0.9, 0.5, 0.1]","[u'medium', u'low', u'high']","blue",49,"left","medium","False","False",727,2150,NA
"A1XAFKGJBBH6S5","Tue Oct 27 2020 10:16:02 GMT-0600 (Mountain Daylight Time)","Tue Oct 27 2020 10:22:45 GMT-0600 (Mountain Daylight Time)","Mozilla/5.0 (Windows NT 10.0; Win64; x64) AppleWebKit/537.36 (KHTML, like Gecko) Chrome/86.0.4240.75 Safari/537.36",42,"[0.9, 0.5, 0.1]","[0.8, 0.4, 0.2]","[u'blue', u'red', u'black']","[u'left', u'middle', u'right']","[0.9, 0.5, 0.1]","[u'medium', u'low', u'high']","red",50,"middle","low","False","False",238,2100,NA
"A1XAFKGJBBH6S5","Tue Oct 27 2020 10:16:02 GMT-0600 (Mountain Daylight Time)","Tue Oct 27 2020 10:22:45 GMT-0600 (Mountain Daylight Time)","Mozilla/5.0 (Windows NT 10.0; Win64; x64) AppleWebKit/537.36 (KHTML, like Gecko) Chrome/86.0.4240.75 Safari/537.36",43,"[0.9, 0.5, 0.1]","[0.8, 0.4, 0.2]","[u'blue', u'red', u'black']","[u'left', u'middle', u'right']","[0.9, 0.5, 0.1]","[u'medium', u'low', u'high']","black",51,"right","high","True","False",37,2200,NA
"A1XAFKGJBBH6S5","Tue Oct 27 2020 10:16:02 GMT-0600 (Mountain Daylight Time)","Tue Oct 27 2020 10:22:45 GMT-0600 (Mountain Daylight Time)","Mozilla/5.0 (Windows NT 10.0; Win64; x64) AppleWebKit/537.36 (KHTML, like Gecko) Chrome/86.0.4240.75 Safari/537.36",44,"[0.9, 0.5, 0.1]","[0.8, 0.4, 0.2]","[u'blue', u'red', u'black']","[u'left', u'middle', u'right']","[0.9, 0.5, 0.1]","[u'medium', u'low', u'high']","black",51,"right","high","True","False",227,2300,NA
"A1XAFKGJBBH6S5","Tue Oct 27 2020 10:16:02 GMT-0600 (Mountain Daylight Time)","Tue Oct 27 2020 10:22:45 GMT-0600 (Mountain Daylight Time)","Mozilla/5.0 (Windows NT 10.0; Win64; x64) AppleWebKit/537.36 (KHTML, like Gecko) Chrome/86.0.4240.75 Safari/537.36",45,"[0.9, 0.5, 0.1]","[0.8, 0.4, 0.2]","[u'blue', u'red', u'black']","[u'left', u'middle', u'right']","[0.9, 0.5, 0.1]","[u'medium', u'low', u'high']","black",51,"right","high","True","False",55,2400,NA
"A1XAFKGJBBH6S5","Tue Oct 27 2020 10:16:02 GMT-0600 (Mountain Daylight Time)","Tue Oct 27 2020 10:22:45 GMT-0600 (Mountain Daylight Time)","Mozilla/5.0 (Windows NT 10.0; Win64; x64) AppleWebKit/537.36 (KHTML, like Gecko) Chrome/86.0.4240.75 Safari/537.36",46,"[0.9, 0.5, 0.1]","[0.8, 0.4, 0.2]","[u'blue', u'red', u'black']","[u'left', u'middle', u'right']","[0.9, 0.5, 0.1]","[u'medium', u'low', u'high']","black",51,"right","high","True","False",308,2500,NA
"A1XAFKGJBBH6S5","Tue Oct 27 2020 10:16:02 GMT-0600 (Mountain Daylight Time)","Tue Oct 27 2020 10:22:45 GMT-0600 (Mountain Daylight Time)","Mozilla/5.0 (Windows NT 10.0; Win64; x64) AppleWebKit/537.36 (KHTML, like Gecko) Chrome/86.0.4240.75 Safari/537.36",47,"[0.9, 0.5, 0.1]","[0.8, 0.4, 0.2]","[u'blue', u'red', u'black']","[u'left', u'middle', u'right']","[0.9, 0.5, 0.1]","[u'medium', u'low', u'high']","black",51,"right","high","True","False",251,2600,NA
"A1XAFKGJBBH6S5","Tue Oct 27 2020 10:16:02 GMT-0600 (Mountain Daylight Time)","Tue Oct 27 2020 10:22:45 GMT-0600 (Mountain Daylight Time)","Mozilla/5.0 (Windows NT 10.0; Win64; x64) AppleWebKit/537.36 (KHTML, like Gecko) Chrome/86.0.4240.75 Safari/537.36",48,"[0.9, 0.5, 0.1]","[0.8, 0.4, 0.2]","[u'blue', u'red', u'black']","[u'left', u'middle', u'right']","[0.9, 0.5, 0.1]","[u'medium', u'low', u'high']","black",51,"right","high","True","False",330,2700,NA
"A1XAFKGJBBH6S5","Tue Oct 27 2020 10:16:02 GMT-0600 (Mountain Daylight Time)","Tue Oct 27 2020 10:22:45 GMT-0600 (Mountain Daylight Time)","Mozilla/5.0 (Windows NT 10.0; Win64; x64) AppleWebKit/537.36 (KHTML, like Gecko) Chrome/86.0.4240.75 Safari/537.36",49,"[0.9, 0.5, 0.1]","[0.8, 0.4, 0.2]","[u'blue', u'red', u'black']","[u'left', u'middle', u'right']","[0.9, 0.5, 0.1]","[u'medium', u'low', u'high']","black",51,"right","high","True","False",256,2800,NA
"A1XAFKGJBBH6S5","Tue Oct 27 2020 10:16:02 GMT-0600 (Mountain Daylight Time)","Tue Oct 27 2020 10:22:45 GMT-0600 (Mountain Daylight Time)","Mozilla/5.0 (Windows NT 10.0; Win64; x64) AppleWebKit/537.36 (KHTML, like Gecko) Chrome/86.0.4240.75 Safari/537.36",50,"[0.9, 0.5, 0.1]","[0.8, 0.4, 0.2]","[u'blue', u'red', u'black']","[u'left', u'middle', u'right']","[0.9, 0.5, 0.1]","[u'medium', u'low', u'high']","black",51,"right","high","True","False",250,2900,NA
"A1XAFKGJBBH6S5","Tue Oct 27 2020 10:16:02 GMT-0600 (Mountain Daylight Time)","Tue Oct 27 2020 10:22:45 GMT-0600 (Mountain Daylight Time)","Mozilla/5.0 (Windows NT 10.0; Win64; x64) AppleWebKit/537.36 (KHTML, like Gecko) Chrome/86.0.4240.75 Safari/537.36",51,"[0.9, 0.5, 0.1]","[0.8, 0.4, 0.2]","[u'blue', u'red', u'black']","[u'left', u'middle', u'right']","[0.9, 0.5, 0.1]","[u'medium', u'low', u'high']","black",51,"right","high","True","True",277,3000,NA
"A1XAFKGJBBH6S5","Tue Oct 27 2020 10:16:02 GMT-0600 (Mountain Daylight Time)","Tue Oct 27 2020 10:22:45 GMT-0600 (Mountain Daylight Time)","Mozilla/5.0 (Windows NT 10.0; Win64; x64) AppleWebKit/537.36 (KHTML, like Gecko) Chrome/86.0.4240.75 Safari/537.36",52,"[0.9, 0.5, 0.1]","[0.8, 0.4, 0.2]","[u'blue', u'red', u'black']","[u'left', u'middle', u'right']","[0.9, 0.5, 0.1]","[u'medium', u'high', u'low']","black",51,"right","low","False","False",266,2950,NA
"A1XAFKGJBBH6S5","Tue Oct 27 2020 10:16:02 GMT-0600 (Mountain Daylight Time)","Tue Oct 27 2020 10:22:45 GMT-0600 (Mountain Daylight Time)","Mozilla/5.0 (Windows NT 10.0; Win64; x64) AppleWebKit/537.36 (KHTML, like Gecko) Chrome/86.0.4240.75 Safari/537.36",53,"[0.9, 0.5, 0.1]","[0.8, 0.4, 0.2]","[u'blue', u'red', u'black']","[u'left', u'middle', u'right']","[0.9, 0.5, 0.1]","[u'medium', u'high', u'low']","red",50,"middle","high","True","False",230,3050,NA
"A1XAFKGJBBH6S5","Tue Oct 27 2020 10:16:02 GMT-0600 (Mountain Daylight Time)","Tue Oct 27 2020 10:22:45 GMT-0600 (Mountain Daylight Time)","Mozilla/5.0 (Windows NT 10.0; Win64; x64) AppleWebKit/537.36 (KHTML, like Gecko) Chrome/86.0.4240.75 Safari/537.36",54,"[0.9, 0.5, 0.1]","[0.8, 0.4, 0.2]","[u'blue', u'red', u'black']","[u'left', u'middle', u'right']","[0.9, 0.5, 0.1]","[u'medium', u'high', u'low']","red",50,"middle","high","True","False",257,3150,NA
"A1XAFKGJBBH6S5","Tue Oct 27 2020 10:16:02 GMT-0600 (Mountain Daylight Time)","Tue Oct 27 2020 10:22:45 GMT-0600 (Mountain Daylight Time)","Mozilla/5.0 (Windows NT 10.0; Win64; x64) AppleWebKit/537.36 (KHTML, like Gecko) Chrome/86.0.4240.75 Safari/537.36",55,"[0.9, 0.5, 0.1]","[0.8, 0.4, 0.2]","[u'blue', u'red', u'black']","[u'left', u'middle', u'right']","[0.9, 0.5, 0.1]","[u'medium', u'high', u'low']","red",50,"middle","high","True","False",232,3250,NA
"A1XAFKGJBBH6S5","Tue Oct 27 2020 10:16:02 GMT-0600 (Mountain Daylight Time)","Tue Oct 27 2020 10:22:45 GMT-0600 (Mountain Daylight Time)","Mozilla/5.0 (Windows NT 10.0; Win64; x64) AppleWebKit/537.36 (KHTML, like Gecko) Chrome/86.0.4240.75 Safari/537.36",56,"[0.9, 0.5, 0.1]","[0.8, 0.4, 0.2]","[u'blue', u'red', u'black']","[u'left', u'middle', u'right']","[0.9, 0.5, 0.1]","[u'medium', u'high', u'low']","red",50,"middle","high","False","False",133,3200,NA
"A1XAFKGJBBH6S5","Tue Oct 27 2020 10:16:02 GMT-0600 (Mountain Daylight Time)","Tue Oct 27 2020 10:22:45 GMT-0600 (Mountain Daylight Time)","Mozilla/5.0 (Windows NT 10.0; Win64; x64) AppleWebKit/537.36 (KHTML, like Gecko) Chrome/86.0.4240.75 Safari/537.36",57,"[0.9, 0.5, 0.1]","[0.8, 0.4, 0.2]","[u'blue', u'red', u'black']","[u'left', u'middle', u'right']","[0.9, 0.5, 0.1]","[u'medium', u'high', u'low']","blue",49,"left","medium","True","False",243,3300,NA
"A1XAFKGJBBH6S5","Tue Oct 27 2020 10:16:02 GMT-0600 (Mountain Daylight Time)","Tue Oct 27 2020 10:22:45 GMT-0600 (Mountain Daylight Time)","Mozilla/5.0 (Windows NT 10.0; Win64; x64) AppleWebKit/537.36 (KHTML, like Gecko) Chrome/86.0.4240.75 Safari/537.36",58,"[0.9, 0.5, 0.1]","[0.8, 0.4, 0.2]","[u'blue', u'red', u'black']","[u'left', u'middle', u'right']","[0.9, 0.5, 0.1]","[u'medium', u'high', u'low']","blue",49,"left","medium","True","False",208,3400,NA
"A1XAFKGJBBH6S5","Tue Oct 27 2020 10:16:02 GMT-0600 (Mountain Daylight Time)","Tue Oct 27 2020 10:22:45 GMT-0600 (Mountain Daylight Time)","Mozilla/5.0 (Windows NT 10.0; Win64; x64) AppleWebKit/537.36 (KHTML, like Gecko) Chrome/86.0.4240.75 Safari/537.36",59,"[0.9, 0.5, 0.1]","[0.8, 0.4, 0.2]","[u'blue', u'red', u'black']","[u'left', u'middle', u'right']","[0.9, 0.5, 0.1]","[u'medium', u'high', u'low']","blue",49,"left","medium","True","False",197,3500,NA
"A1XAFKGJBBH6S5","Tue Oct 27 2020 10:16:02 GMT-0600 (Mountain Daylight Time)","Tue Oct 27 2020 10:22:45 GMT-0600 (Mountain Daylight Time)","Mozilla/5.0 (Windows NT 10.0; Win64; x64) AppleWebKit/537.36 (KHTML, like Gecko) Chrome/86.0.4240.75 Safari/537.36",60,"[0.9, 0.5, 0.1]","[0.8, 0.4, 0.2]","[u'blue', u'red', u'black']","[u'left', u'middle', u'right']","[0.9, 0.5, 0.1]","[u'medium', u'high', u'low']","blue",49,"left","medium","False","False",407,3450,NA
"A1XAFKGJBBH6S5","Tue Oct 27 2020 10:16:02 GMT-0600 (Mountain Daylight Time)","Tue Oct 27 2020 10:22:45 GMT-0600 (Mountain Daylight Time)","Mozilla/5.0 (Windows NT 10.0; Win64; x64) AppleWebKit/537.36 (KHTML, like Gecko) Chrome/86.0.4240.75 Safari/537.36",61,"[0.9, 0.5, 0.1]","[0.8, 0.4, 0.2]","[u'blue', u'red', u'black']","[u'left', u'middle', u'right']","[0.9, 0.5, 0.1]","[u'medium', u'high', u'low']","black",51,"right","low","False","False",236,3400,NA
"A1XAFKGJBBH6S5","Tue Oct 27 2020 10:16:02 GMT-0600 (Mountain Daylight Time)","Tue Oct 27 2020 10:22:45 GMT-0600 (Mountain Daylight Time)","Mozilla/5.0 (Windows NT 10.0; Win64; x64) AppleWebKit/537.36 (KHTML, like Gecko) Chrome/86.0.4240.75 Safari/537.36",62,"[0.9, 0.5, 0.1]","[0.8, 0.4, 0.2]","[u'blue', u'red', u'black']","[u'left', u'middle', u'right']","[0.9, 0.5, 0.1]","[u'medium', u'high', u'low']","red",50,"middle","high","True","False",98,3500,NA
"A1XAFKGJBBH6S5","Tue Oct 27 2020 10:16:02 GMT-0600 (Mountain Daylight Time)","Tue Oct 27 2020 10:22:45 GMT-0600 (Mountain Daylight Time)","Mozilla/5.0 (Windows NT 10.0; Win64; x64) AppleWebKit/537.36 (KHTML, like Gecko) Chrome/86.0.4240.75 Safari/537.36",63,"[0.9, 0.5, 0.1]","[0.8, 0.4, 0.2]","[u'blue', u'red', u'black']","[u'left', u'middle', u'right']","[0.9, 0.5, 0.1]","[u'medium', u'high', u'low']","red",50,"middle","high","True","False",260,3600,NA
"A1XAFKGJBBH6S5","Tue Oct 27 2020 10:16:02 GMT-0600 (Mountain Daylight Time)","Tue Oct 27 2020 10:22:45 GMT-0600 (Mountain Daylight Time)","Mozilla/5.0 (Windows NT 10.0; Win64; x64) AppleWebKit/537.36 (KHTML, like Gecko) Chrome/86.0.4240.75 Safari/537.36",64,"[0.9, 0.5, 0.1]","[0.8, 0.4, 0.2]","[u'blue', u'red', u'black']","[u'left', u'middle', u'right']","[0.9, 0.5, 0.1]","[u'medium', u'high', u'low']","red",50,"middle","high","True","False",212,3700,NA
"A1XAFKGJBBH6S5","Tue Oct 27 2020 10:16:02 GMT-0600 (Mountain Daylight Time)","Tue Oct 27 2020 10:22:45 GMT-0600 (Mountain Daylight Time)","Mozilla/5.0 (Windows NT 10.0; Win64; x64) AppleWebKit/537.36 (KHTML, like Gecko) Chrome/86.0.4240.75 Safari/537.36",65,"[0.9, 0.5, 0.1]","[0.8, 0.4, 0.2]","[u'blue', u'red', u'black']","[u'left', u'middle', u'right']","[0.9, 0.5, 0.1]","[u'medium', u'high', u'low']","red",50,"middle","high","True","False",239,3800,NA
"A1XAFKGJBBH6S5","Tue Oct 27 2020 10:16:02 GMT-0600 (Mountain Daylight Time)","Tue Oct 27 2020 10:22:45 GMT-0600 (Mountain Daylight Time)","Mozilla/5.0 (Windows NT 10.0; Win64; x64) AppleWebKit/537.36 (KHTML, like Gecko) Chrome/86.0.4240.75 Safari/537.36",66,"[0.9, 0.5, 0.1]","[0.8, 0.4, 0.2]","[u'blue', u'red', u'black']","[u'left', u'middle', u'right']","[0.9, 0.5, 0.1]","[u'medium', u'high', u'low']","red",50,"middle","high","True","False",205,3900,NA
"A1XAFKGJBBH6S5","Tue Oct 27 2020 10:16:02 GMT-0600 (Mountain Daylight Time)","Tue Oct 27 2020 10:22:45 GMT-0600 (Mountain Daylight Time)","Mozilla/5.0 (Windows NT 10.0; Win64; x64) AppleWebKit/537.36 (KHTML, like Gecko) Chrome/86.0.4240.75 Safari/537.36",67,"[0.9, 0.5, 0.1]","[0.8, 0.4, 0.2]","[u'blue', u'red', u'black']","[u'left', u'middle', u'right']","[0.9, 0.5, 0.1]","[u'medium', u'high', u'low']","red",50,"middle","high","True","False",234,4000,NA
"A1XAFKGJBBH6S5","Tue Oct 27 2020 10:16:02 GMT-0600 (Mountain Daylight Time)","Tue Oct 27 2020 10:22:45 GMT-0600 (Mountain Daylight Time)","Mozilla/5.0 (Windows NT 10.0; Win64; x64) AppleWebKit/537.36 (KHTML, like Gecko) Chrome/86.0.4240.75 Safari/537.36",68,"[0.9, 0.5, 0.1]","[0.8, 0.4, 0.2]","[u'blue', u'red', u'black']","[u'left', u'middle', u'right']","[0.9, 0.5, 0.1]","[u'medium', u'high', u'low']","red",50,"middle","high","True","False",133,4100,NA
"A1XAFKGJBBH6S5","Tue Oct 27 2020 10:16:02 GMT-0600 (Mountain Daylight Time)","Tue Oct 27 2020 10:22:45 GMT-0600 (Mountain Daylight Time)","Mozilla/5.0 (Windows NT 10.0; Win64; x64) AppleWebKit/537.36 (KHTML, like Gecko) Chrome/86.0.4240.75 Safari/537.36",69,"[0.9, 0.5, 0.1]","[0.8, 0.4, 0.2]","[u'blue', u'red', u'black']","[u'left', u'middle', u'right']","[0.9, 0.5, 0.1]","[u'medium', u'high', u'low']","red",50,"middle","high","True","False",225,4200,NA
"A1XAFKGJBBH6S5","Tue Oct 27 2020 10:16:02 GMT-0600 (Mountain Daylight Time)","Tue Oct 27 2020 10:22:45 GMT-0600 (Mountain Daylight Time)","Mozilla/5.0 (Windows NT 10.0; Win64; x64) AppleWebKit/537.36 (KHTML, like Gecko) Chrome/86.0.4240.75 Safari/537.36",70,"[0.9, 0.5, 0.1]","[0.8, 0.4, 0.2]","[u'blue', u'red', u'black']","[u'left', u'middle', u'right']","[0.9, 0.5, 0.1]","[u'medium', u'high', u'low']","red",50,"middle","high","True","True",228,4300,NA
"A1XAFKGJBBH6S5","Tue Oct 27 2020 10:16:02 GMT-0600 (Mountain Daylight Time)","Tue Oct 27 2020 10:22:45 GMT-0600 (Mountain Daylight Time)","Mozilla/5.0 (Windows NT 10.0; Win64; x64) AppleWebKit/537.36 (KHTML, like Gecko) Chrome/86.0.4240.75 Safari/537.36",71,"[0.9, 0.5, 0.1]","[0.8, 0.4, 0.2]","[u'blue', u'red', u'black']","[u'left', u'middle', u'right']","[0.9, 0.5, 0.1]","[u'medium', u'low', u'high']","red",50,"middle","low","False","False",260,4250,NA
"A1XAFKGJBBH6S5","Tue Oct 27 2020 10:16:02 GMT-0600 (Mountain Daylight Time)","Tue Oct 27 2020 10:22:45 GMT-0600 (Mountain Daylight Time)","Mozilla/5.0 (Windows NT 10.0; Win64; x64) AppleWebKit/537.36 (KHTML, like Gecko) Chrome/86.0.4240.75 Safari/537.36",72,"[0.9, 0.5, 0.1]","[0.8, 0.4, 0.2]","[u'blue', u'red', u'black']","[u'left', u'middle', u'right']","[0.9, 0.5, 0.1]","[u'medium', u'low', u'high']","blue",49,"left","medium","True","False",264,4350,NA
"A1XAFKGJBBH6S5","Tue Oct 27 2020 10:16:02 GMT-0600 (Mountain Daylight Time)","Tue Oct 27 2020 10:22:45 GMT-0600 (Mountain Daylight Time)","Mozilla/5.0 (Windows NT 10.0; Win64; x64) AppleWebKit/537.36 (KHTML, like Gecko) Chrome/86.0.4240.75 Safari/537.36",73,"[0.9, 0.5, 0.1]","[0.8, 0.4, 0.2]","[u'blue', u'red', u'black']","[u'left', u'middle', u'right']","[0.9, 0.5, 0.1]","[u'medium', u'low', u'high']","blue",49,"left","medium","False","False",221,4300,NA
"A1XAFKGJBBH6S5","Tue Oct 27 2020 10:16:02 GMT-0600 (Mountain Daylight Time)","Tue Oct 27 2020 10:22:45 GMT-0600 (Mountain Daylight Time)","Mozilla/5.0 (Windows NT 10.0; Win64; x64) AppleWebKit/537.36 (KHTML, like Gecko) Chrome/86.0.4240.75 Safari/537.36",74,"[0.9, 0.5, 0.1]","[0.8, 0.4, 0.2]","[u'blue', u'red', u'black']","[u'left', u'middle', u'right']","[0.9, 0.5, 0.1]","[u'medium', u'low', u'high']","black",51,"right","high","True","False",252,4400,NA
"A1XAFKGJBBH6S5","Tue Oct 27 2020 10:16:02 GMT-0600 (Mountain Daylight Time)","Tue Oct 27 2020 10:22:45 GMT-0600 (Mountain Daylight Time)","Mozilla/5.0 (Windows NT 10.0; Win64; x64) AppleWebKit/537.36 (KHTML, like Gecko) Chrome/86.0.4240.75 Safari/537.36",75,"[0.9, 0.5, 0.1]","[0.8, 0.4, 0.2]","[u'blue', u'red', u'black']","[u'left', u'middle', u'right']","[0.9, 0.5, 0.1]","[u'medium', u'low', u'high']","black",51,"right","high","True","False",262,4500,NA
"A1XAFKGJBBH6S5","Tue Oct 27 2020 10:16:02 GMT-0600 (Mountain Daylight Time)","Tue Oct 27 2020 10:22:45 GMT-0600 (Mountain Daylight Time)","Mozilla/5.0 (Windows NT 10.0; Win64; x64) AppleWebKit/537.36 (KHTML, like Gecko) Chrome/86.0.4240.75 Safari/537.36",76,"[0.9, 0.5, 0.1]","[0.8, 0.4, 0.2]","[u'blue', u'red', u'black']","[u'left', u'middle', u'right']","[0.9, 0.5, 0.1]","[u'medium', u'low', u'high']","black",51,"right","high","True","False",242,4600,NA
"A1XAFKGJBBH6S5","Tue Oct 27 2020 10:16:02 GMT-0600 (Mountain Daylight Time)","Tue Oct 27 2020 10:22:45 GMT-0600 (Mountain Daylight Time)","Mozilla/5.0 (Windows NT 10.0; Win64; x64) AppleWebKit/537.36 (KHTML, like Gecko) Chrome/86.0.4240.75 Safari/537.36",77,"[0.9, 0.5, 0.1]","[0.8, 0.4, 0.2]","[u'blue', u'red', u'black']","[u'left', u'middle', u'right']","[0.9, 0.5, 0.1]","[u'medium', u'low', u'high']","black",51,"right","high","False","False",301,4550,NA
"A1XAFKGJBBH6S5","Tue Oct 27 2020 10:16:02 GMT-0600 (Mountain Daylight Time)","Tue Oct 27 2020 10:22:45 GMT-0600 (Mountain Daylight Time)","Mozilla/5.0 (Windows NT 10.0; Win64; x64) AppleWebKit/537.36 (KHTML, like Gecko) Chrome/86.0.4240.75 Safari/537.36",78,"[0.9, 0.5, 0.1]","[0.8, 0.4, 0.2]","[u'blue', u'red', u'black']","[u'left', u'middle', u'right']","[0.9, 0.5, 0.1]","[u'medium', u'low', u'high']","red",50,"middle","low","False","False",162,4500,NA
"A1XAFKGJBBH6S5","Tue Oct 27 2020 10:16:02 GMT-0600 (Mountain Daylight Time)","Tue Oct 27 2020 10:22:45 GMT-0600 (Mountain Daylight Time)","Mozilla/5.0 (Windows NT 10.0; Win64; x64) AppleWebKit/537.36 (KHTML, like Gecko) Chrome/86.0.4240.75 Safari/537.36",79,"[0.9, 0.5, 0.1]","[0.8, 0.4, 0.2]","[u'blue', u'red', u'black']","[u'left', u'middle', u'right']","[0.9, 0.5, 0.1]","[u'medium', u'low', u'high']","black",51,"right","high","True","False",272,4600,NA
"A1XAFKGJBBH6S5","Tue Oct 27 2020 10:16:02 GMT-0600 (Mountain Daylight Time)","Tue Oct 27 2020 10:22:45 GMT-0600 (Mountain Daylight Time)","Mozilla/5.0 (Windows NT 10.0; Win64; x64) AppleWebKit/537.36 (KHTML, like Gecko) Chrome/86.0.4240.75 Safari/537.36",80,"[0.9, 0.5, 0.1]","[0.8, 0.4, 0.2]","[u'blue', u'red', u'black']","[u'left', u'middle', u'right']","[0.9, 0.5, 0.1]","[u'medium', u'low', u'high']","black",51,"right","high","True","False",253,4700,NA
"A1XAFKGJBBH6S5","Tue Oct 27 2020 10:16:02 GMT-0600 (Mountain Daylight Time)","Tue Oct 27 2020 10:22:45 GMT-0600 (Mountain Daylight Time)","Mozilla/5.0 (Windows NT 10.0; Win64; x64) AppleWebKit/537.36 (KHTML, like Gecko) Chrome/86.0.4240.75 Safari/537.36",81,"[0.9, 0.5, 0.1]","[0.8, 0.4, 0.2]","[u'blue', u'red', u'black']","[u'left', u'middle', u'right']","[0.8, 0.4, 0.2]","[u'medium', u'high', u'low']","blue",49,"left","medium","False","False",343,4650,NA
"A1XAFKGJBBH6S5","Tue Oct 27 2020 10:16:02 GMT-0600 (Mountain Daylight Time)","Tue Oct 27 2020 10:22:45 GMT-0600 (Mountain Daylight Time)","Mozilla/5.0 (Windows NT 10.0; Win64; x64) AppleWebKit/537.36 (KHTML, like Gecko) Chrome/86.0.4240.75 Safari/537.36",82,"[0.9, 0.5, 0.1]","[0.8, 0.4, 0.2]","[u'blue', u'red', u'black']","[u'left', u'middle', u'right']","[0.8, 0.4, 0.2]","[u'medium', u'high', u'low']","red",50,"middle","high","True","False",400,4750,NA
"A1XAFKGJBBH6S5","Tue Oct 27 2020 10:16:02 GMT-0600 (Mountain Daylight Time)","Tue Oct 27 2020 10:22:45 GMT-0600 (Mountain Daylight Time)","Mozilla/5.0 (Windows NT 10.0; Win64; x64) AppleWebKit/537.36 (KHTML, like Gecko) Chrome/86.0.4240.75 Safari/537.36",83,"[0.9, 0.5, 0.1]","[0.8, 0.4, 0.2]","[u'blue', u'red', u'black']","[u'left', u'middle', u'right']","[0.8, 0.4, 0.2]","[u'medium', u'high', u'low']","red",50,"middle","high","False","False",247,4700,NA
"A1XAFKGJBBH6S5","Tue Oct 27 2020 10:16:02 GMT-0600 (Mountain Daylight Time)","Tue Oct 27 2020 10:22:45 GMT-0600 (Mountain Daylight Time)","Mozilla/5.0 (Windows NT 10.0; Win64; x64) AppleWebKit/537.36 (KHTML, like Gecko) Chrome/86.0.4240.75 Safari/537.36",84,"[0.9, 0.5, 0.1]","[0.8, 0.4, 0.2]","[u'blue', u'red', u'black']","[u'left', u'middle', u'right']","[0.8, 0.4, 0.2]","[u'medium', u'high', u'low']","black",51,"right","low","False","False",290,4650,NA
"A1XAFKGJBBH6S5","Tue Oct 27 2020 10:16:02 GMT-0600 (Mountain Daylight Time)","Tue Oct 27 2020 10:22:45 GMT-0600 (Mountain Daylight Time)","Mozilla/5.0 (Windows NT 10.0; Win64; x64) AppleWebKit/537.36 (KHTML, like Gecko) Chrome/86.0.4240.75 Safari/537.36",85,"[0.9, 0.5, 0.1]","[0.8, 0.4, 0.2]","[u'blue', u'red', u'black']","[u'left', u'middle', u'right']","[0.8, 0.4, 0.2]","[u'medium', u'high', u'low']","red",50,"middle","high","True","False",274,4750,NA
"A1XAFKGJBBH6S5","Tue Oct 27 2020 10:16:02 GMT-0600 (Mountain Daylight Time)","Tue Oct 27 2020 10:22:45 GMT-0600 (Mountain Daylight Time)","Mozilla/5.0 (Windows NT 10.0; Win64; x64) AppleWebKit/537.36 (KHTML, like Gecko) Chrome/86.0.4240.75 Safari/537.36",86,"[0.9, 0.5, 0.1]","[0.8, 0.4, 0.2]","[u'blue', u'red', u'black']","[u'left', u'middle', u'right']","[0.8, 0.4, 0.2]","[u'medium', u'high', u'low']","red",50,"middle","high","True","False",266,4850,NA
"A1XAFKGJBBH6S5","Tue Oct 27 2020 10:16:02 GMT-0600 (Mountain Daylight Time)","Tue Oct 27 2020 10:22:45 GMT-0600 (Mountain Daylight Time)","Mozilla/5.0 (Windows NT 10.0; Win64; x64) AppleWebKit/537.36 (KHTML, like Gecko) Chrome/86.0.4240.75 Safari/537.36",87,"[0.9, 0.5, 0.1]","[0.8, 0.4, 0.2]","[u'blue', u'red', u'black']","[u'left', u'middle', u'right']","[0.8, 0.4, 0.2]","[u'medium', u'high', u'low']","red",50,"middle","high","True","False",317,4950,NA
"A1XAFKGJBBH6S5","Tue Oct 27 2020 10:16:02 GMT-0600 (Mountain Daylight Time)","Tue Oct 27 2020 10:22:45 GMT-0600 (Mountain Daylight Time)","Mozilla/5.0 (Windows NT 10.0; Win64; x64) AppleWebKit/537.36 (KHTML, like Gecko) Chrome/86.0.4240.75 Safari/537.36",88,"[0.9, 0.5, 0.1]","[0.8, 0.4, 0.2]","[u'blue', u'red', u'black']","[u'left', u'middle', u'right']","[0.8, 0.4, 0.2]","[u'medium', u'high', u'low']","red",50,"middle","high","False","False",16,4900,NA
"A1XAFKGJBBH6S5","Tue Oct 27 2020 10:16:02 GMT-0600 (Mountain Daylight Time)","Tue Oct 27 2020 10:22:45 GMT-0600 (Mountain Daylight Time)","Mozilla/5.0 (Windows NT 10.0; Win64; x64) AppleWebKit/537.36 (KHTML, like Gecko) Chrome/86.0.4240.75 Safari/537.36",89,"[0.9, 0.5, 0.1]","[0.8, 0.4, 0.2]","[u'blue', u'red', u'black']","[u'left', u'middle', u'right']","[0.8, 0.4, 0.2]","[u'medium', u'high', u'low']","blue",49,"left","medium","True","False",431,5000,NA
"A1XAFKGJBBH6S5","Tue Oct 27 2020 10:16:02 GMT-0600 (Mountain Daylight Time)","Tue Oct 27 2020 10:22:45 GMT-0600 (Mountain Daylight Time)","Mozilla/5.0 (Windows NT 10.0; Win64; x64) AppleWebKit/537.36 (KHTML, like Gecko) Chrome/86.0.4240.75 Safari/537.36",90,"[0.9, 0.5, 0.1]","[0.8, 0.4, 0.2]","[u'blue', u'red', u'black']","[u'left', u'middle', u'right']","[0.8, 0.4, 0.2]","[u'medium', u'high', u'low']","blue",49,"left","medium","False","False",272,4950,NA
"A1XAFKGJBBH6S5","Tue Oct 27 2020 10:16:02 GMT-0600 (Mountain Daylight Time)","Tue Oct 27 2020 10:22:45 GMT-0600 (Mountain Daylight Time)","Mozilla/5.0 (Windows NT 10.0; Win64; x64) AppleWebKit/537.36 (KHTML, like Gecko) Chrome/86.0.4240.75 Safari/537.36",91,"[0.9, 0.5, 0.1]","[0.8, 0.4, 0.2]","[u'blue', u'red', u'black']","[u'left', u'middle', u'right']","[0.8, 0.4, 0.2]","[u'medium', u'high', u'low']","red",50,"middle","high","True","False",242,5050,NA
"A1XAFKGJBBH6S5","Tue Oct 27 2020 10:16:02 GMT-0600 (Mountain Daylight Time)","Tue Oct 27 2020 10:22:45 GMT-0600 (Mountain Daylight Time)","Mozilla/5.0 (Windows NT 10.0; Win64; x64) AppleWebKit/537.36 (KHTML, like Gecko) Chrome/86.0.4240.75 Safari/537.36",92,"[0.9, 0.5, 0.1]","[0.8, 0.4, 0.2]","[u'blue', u'red', u'black']","[u'left', u'middle', u'right']","[0.8, 0.4, 0.2]","[u'medium', u'high', u'low']","red",50,"middle","high","True","False",193,5150,NA
"A1XAFKGJBBH6S5","Tue Oct 27 2020 10:16:02 GMT-0600 (Mountain Daylight Time)","Tue Oct 27 2020 10:22:45 GMT-0600 (Mountain Daylight Time)","Mozilla/5.0 (Windows NT 10.0; Win64; x64) AppleWebKit/537.36 (KHTML, like Gecko) Chrome/86.0.4240.75 Safari/537.36",93,"[0.9, 0.5, 0.1]","[0.8, 0.4, 0.2]","[u'blue', u'red', u'black']","[u'left', u'middle', u'right']","[0.8, 0.4, 0.2]","[u'medium', u'high', u'low']","red",50,"middle","high","True","False",219,5250,NA
"A1XAFKGJBBH6S5","Tue Oct 27 2020 10:16:02 GMT-0600 (Mountain Daylight Time)","Tue Oct 27 2020 10:22:45 GMT-0600 (Mountain Daylight Time)","Mozilla/5.0 (Windows NT 10.0; Win64; x64) AppleWebKit/537.36 (KHTML, like Gecko) Chrome/86.0.4240.75 Safari/537.36",94,"[0.9, 0.5, 0.1]","[0.8, 0.4, 0.2]","[u'blue', u'red', u'black']","[u'left', u'middle', u'right']","[0.8, 0.4, 0.2]","[u'medium', u'high', u'low']","red",50,"middle","high","True","False",83,5350,NA
"A1XAFKGJBBH6S5","Tue Oct 27 2020 10:16:02 GMT-0600 (Mountain Daylight Time)","Tue Oct 27 2020 10:22:45 GMT-0600 (Mountain Daylight Time)","Mozilla/5.0 (Windows NT 10.0; Win64; x64) AppleWebKit/537.36 (KHTML, like Gecko) Chrome/86.0.4240.75 Safari/537.36",95,"[0.9, 0.5, 0.1]","[0.8, 0.4, 0.2]","[u'blue', u'red', u'black']","[u'left', u'middle', u'right']","[0.8, 0.4, 0.2]","[u'medium', u'high', u'low']","red",50,"middle","high","True","False",393,5450,NA
"A1XAFKGJBBH6S5","Tue Oct 27 2020 10:16:02 GMT-0600 (Mountain Daylight Time)","Tue Oct 27 2020 10:22:45 GMT-0600 (Mountain Daylight Time)","Mozilla/5.0 (Windows NT 10.0; Win64; x64) AppleWebKit/537.36 (KHTML, like Gecko) Chrome/86.0.4240.75 Safari/537.36",96,"[0.9, 0.5, 0.1]","[0.8, 0.4, 0.2]","[u'blue', u'red', u'black']","[u'left', u'middle', u'right']","[0.8, 0.4, 0.2]","[u'medium', u'high', u'low']","red",50,"middle","high","True","False",260,5550,NA
"A1XAFKGJBBH6S5","Tue Oct 27 2020 10:16:02 GMT-0600 (Mountain Daylight Time)","Tue Oct 27 2020 10:22:45 GMT-0600 (Mountain Daylight Time)","Mozilla/5.0 (Windows NT 10.0; Win64; x64) AppleWebKit/537.36 (KHTML, like Gecko) Chrome/86.0.4240.75 Safari/537.36",97,"[0.9, 0.5, 0.1]","[0.8, 0.4, 0.2]","[u'blue', u'red', u'black']","[u'left', u'middle', u'right']","[0.8, 0.4, 0.2]","[u'medium', u'high', u'low']","red",50,"middle","high","True","False",252,5650,NA
"A1XAFKGJBBH6S5","Tue Oct 27 2020 10:16:02 GMT-0600 (Mountain Daylight Time)","Tue Oct 27 2020 10:22:45 GMT-0600 (Mountain Daylight Time)","Mozilla/5.0 (Windows NT 10.0; Win64; x64) AppleWebKit/537.36 (KHTML, like Gecko) Chrome/86.0.4240.75 Safari/537.36",98,"[0.9, 0.5, 0.1]","[0.8, 0.4, 0.2]","[u'blue', u'red', u'black']","[u'left', u'middle', u'right']","[0.8, 0.4, 0.2]","[u'medium', u'high', u'low']","red",50,"middle","high","True","False",298,5750,NA
"A1XAFKGJBBH6S5","Tue Oct 27 2020 10:16:02 GMT-0600 (Mountain Daylight Time)","Tue Oct 27 2020 10:22:45 GMT-0600 (Mountain Daylight Time)","Mozilla/5.0 (Windows NT 10.0; Win64; x64) AppleWebKit/537.36 (KHTML, like Gecko) Chrome/86.0.4240.75 Safari/537.36",99,"[0.9, 0.5, 0.1]","[0.8, 0.4, 0.2]","[u'blue', u'red', u'black']","[u'left', u'middle', u'right']","[0.8, 0.4, 0.2]","[u'medium', u'high', u'low']","red",50,"middle","high","False","True",275,5700,NA
"A1XAFKGJBBH6S5","Tue Oct 27 2020 10:16:02 GMT-0600 (Mountain Daylight Time)","Tue Oct 27 2020 10:22:45 GMT-0600 (Mountain Daylight Time)","Mozilla/5.0 (Windows NT 10.0; Win64; x64) AppleWebKit/537.36 (KHTML, like Gecko) Chrome/86.0.4240.75 Safari/537.36",100,"[0.9, 0.5, 0.1]","[0.8, 0.4, 0.2]","[u'blue', u'red', u'black']","[u'left', u'middle', u'right']","[0.8, 0.4, 0.2]","[u'high', u'medium', u'low']","black",51,"right","low","False","False",265,5650,NA
"A1XAFKGJBBH6S5","Tue Oct 27 2020 10:16:02 GMT-0600 (Mountain Daylight Time)","Tue Oct 27 2020 10:22:45 GMT-0600 (Mountain Daylight Time)","Mozilla/5.0 (Windows NT 10.0; Win64; x64) AppleWebKit/537.36 (KHTML, like Gecko) Chrome/86.0.4240.75 Safari/537.36",101,"[0.9, 0.5, 0.1]","[0.8, 0.4, 0.2]","[u'blue', u'red', u'black']","[u'left', u'middle', u'right']","[0.8, 0.4, 0.2]","[u'high', u'medium', u'low']","red",50,"middle","medium","False","False",220,5600,NA
"A1XAFKGJBBH6S5","Tue Oct 27 2020 10:16:02 GMT-0600 (Mountain Daylight Time)","Tue Oct 27 2020 10:22:45 GMT-0600 (Mountain Daylight Time)","Mozilla/5.0 (Windows NT 10.0; Win64; x64) AppleWebKit/537.36 (KHTML, like Gecko) Chrome/86.0.4240.75 Safari/537.36",102,"[0.9, 0.5, 0.1]","[0.8, 0.4, 0.2]","[u'blue', u'red', u'black']","[u'left', u'middle', u'right']","[0.8, 0.4, 0.2]","[u'high', u'medium', u'low']","blue",49,"left","high","True","False",251,5700,NA
"A1XAFKGJBBH6S5","Tue Oct 27 2020 10:16:02 GMT-0600 (Mountain Daylight Time)","Tue Oct 27 2020 10:22:45 GMT-0600 (Mountain Daylight Time)","Mozilla/5.0 (Windows NT 10.0; Win64; x64) AppleWebKit/537.36 (KHTML, like Gecko) Chrome/86.0.4240.75 Safari/537.36",103,"[0.9, 0.5, 0.1]","[0.8, 0.4, 0.2]","[u'blue', u'red', u'black']","[u'left', u'middle', u'right']","[0.8, 0.4, 0.2]","[u'high', u'medium', u'low']","blue",49,"left","high","True","False",272,5800,NA
"A1XAFKGJBBH6S5","Tue Oct 27 2020 10:16:02 GMT-0600 (Mountain Daylight Time)","Tue Oct 27 2020 10:22:45 GMT-0600 (Mountain Daylight Time)","Mozilla/5.0 (Windows NT 10.0; Win64; x64) AppleWebKit/537.36 (KHTML, like Gecko) Chrome/86.0.4240.75 Safari/537.36",104,"[0.9, 0.5, 0.1]","[0.8, 0.4, 0.2]","[u'blue', u'red', u'black']","[u'left', u'middle', u'right']","[0.8, 0.4, 0.2]","[u'high', u'medium', u'low']","blue",49,"left","high","True","False",395,5900,NA
"A1XAFKGJBBH6S5","Tue Oct 27 2020 10:16:02 GMT-0600 (Mountain Daylight Time)","Tue Oct 27 2020 10:22:45 GMT-0600 (Mountain Daylight Time)","Mozilla/5.0 (Windows NT 10.0; Win64; x64) AppleWebKit/537.36 (KHTML, like Gecko) Chrome/86.0.4240.75 Safari/537.36",105,"[0.9, 0.5, 0.1]","[0.8, 0.4, 0.2]","[u'blue', u'red', u'black']","[u'left', u'middle', u'right']","[0.8, 0.4, 0.2]","[u'high', u'medium', u'low']","blue",49,"left","high","True","False",169,6000,NA
"A1XAFKGJBBH6S5","Tue Oct 27 2020 10:16:02 GMT-0600 (Mountain Daylight Time)","Tue Oct 27 2020 10:22:45 GMT-0600 (Mountain Daylight Time)","Mozilla/5.0 (Windows NT 10.0; Win64; x64) AppleWebKit/537.36 (KHTML, like Gecko) Chrome/86.0.4240.75 Safari/537.36",106,"[0.9, 0.5, 0.1]","[0.8, 0.4, 0.2]","[u'blue', u'red', u'black']","[u'left', u'middle', u'right']","[0.8, 0.4, 0.2]","[u'high', u'medium', u'low']","blue",49,"left","high","True","False",272,6100,NA
"A1XAFKGJBBH6S5","Tue Oct 27 2020 10:16:02 GMT-0600 (Mountain Daylight Time)","Tue Oct 27 2020 10:22:45 GMT-0600 (Mountain Daylight Time)","Mozilla/5.0 (Windows NT 10.0; Win64; x64) AppleWebKit/537.36 (KHTML, like Gecko) Chrome/86.0.4240.75 Safari/537.36",107,"[0.9, 0.5, 0.1]","[0.8, 0.4, 0.2]","[u'blue', u'red', u'black']","[u'left', u'middle', u'right']","[0.8, 0.4, 0.2]","[u'high', u'medium', u'low']","blue",49,"left","high","True","False",259,6200,NA
"A1XAFKGJBBH6S5","Tue Oct 27 2020 10:16:02 GMT-0600 (Mountain Daylight Time)","Tue Oct 27 2020 10:22:45 GMT-0600 (Mountain Daylight Time)","Mozilla/5.0 (Windows NT 10.0; Win64; x64) AppleWebKit/537.36 (KHTML, like Gecko) Chrome/86.0.4240.75 Safari/537.36",108,"[0.9, 0.5, 0.1]","[0.8, 0.4, 0.2]","[u'blue', u'red', u'black']","[u'left', u'middle', u'right']","[0.8, 0.4, 0.2]","[u'high', u'medium', u'low']","blue",49,"left","high","True","False",266,6300,NA
"A1XAFKGJBBH6S5","Tue Oct 27 2020 10:16:02 GMT-0600 (Mountain Daylight Time)","Tue Oct 27 2020 10:22:45 GMT-0600 (Mountain Daylight Time)","Mozilla/5.0 (Windows NT 10.0; Win64; x64) AppleWebKit/537.36 (KHTML, like Gecko) Chrome/86.0.4240.75 Safari/537.36",109,"[0.9, 0.5, 0.1]","[0.8, 0.4, 0.2]","[u'blue', u'red', u'black']","[u'left', u'middle', u'right']","[0.8, 0.4, 0.2]","[u'high', u'medium', u'low']","blue",49,"left","high","True","False",245,6400,NA
"A1XAFKGJBBH6S5","Tue Oct 27 2020 10:16:02 GMT-0600 (Mountain Daylight Time)","Tue Oct 27 2020 10:22:45 GMT-0600 (Mountain Daylight Time)","Mozilla/5.0 (Windows NT 10.0; Win64; x64) AppleWebKit/537.36 (KHTML, like Gecko) Chrome/86.0.4240.75 Safari/537.36",110,"[0.9, 0.5, 0.1]","[0.8, 0.4, 0.2]","[u'blue', u'red', u'black']","[u'left', u'middle', u'right']","[0.8, 0.4, 0.2]","[u'high', u'medium', u'low']","blue",49,"left","high","True","True",241,6500,NA
"A1XAFKGJBBH6S5","Tue Oct 27 2020 10:16:02 GMT-0600 (Mountain Daylight Time)","Tue Oct 27 2020 10:22:45 GMT-0600 (Mountain Daylight Time)","Mozilla/5.0 (Windows NT 10.0; Win64; x64) AppleWebKit/537.36 (KHTML, like Gecko) Chrome/86.0.4240.75 Safari/537.36",111,"[0.9, 0.5, 0.1]","[0.8, 0.4, 0.2]","[u'blue', u'red', u'black']","[u'left', u'middle', u'right']","[0.8, 0.4, 0.2]","[u'low', u'medium', u'high']","blue",49,"left","low","False","False",248,6450,NA
"A1XAFKGJBBH6S5","Tue Oct 27 2020 10:16:02 GMT-0600 (Mountain Daylight Time)","Tue Oct 27 2020 10:22:45 GMT-0600 (Mountain Daylight Time)","Mozilla/5.0 (Windows NT 10.0; Win64; x64) AppleWebKit/537.36 (KHTML, like Gecko) Chrome/86.0.4240.75 Safari/537.36",112,"[0.9, 0.5, 0.1]","[0.8, 0.4, 0.2]","[u'blue', u'red', u'black']","[u'left', u'middle', u'right']","[0.8, 0.4, 0.2]","[u'low', u'medium', u'high']","red",50,"middle","medium","True","False",301,6550,NA
"A1XAFKGJBBH6S5","Tue Oct 27 2020 10:16:02 GMT-0600 (Mountain Daylight Time)","Tue Oct 27 2020 10:22:45 GMT-0600 (Mountain Daylight Time)","Mozilla/5.0 (Windows NT 10.0; Win64; x64) AppleWebKit/537.36 (KHTML, like Gecko) Chrome/86.0.4240.75 Safari/537.36",113,"[0.9, 0.5, 0.1]","[0.8, 0.4, 0.2]","[u'blue', u'red', u'black']","[u'left', u'middle', u'right']","[0.8, 0.4, 0.2]","[u'low', u'medium', u'high']","red",50,"middle","medium","False","False",269,6500,NA
"A1XAFKGJBBH6S5","Tue Oct 27 2020 10:16:02 GMT-0600 (Mountain Daylight Time)","Tue Oct 27 2020 10:22:45 GMT-0600 (Mountain Daylight Time)","Mozilla/5.0 (Windows NT 10.0; Win64; x64) AppleWebKit/537.36 (KHTML, like Gecko) Chrome/86.0.4240.75 Safari/537.36",114,"[0.9, 0.5, 0.1]","[0.8, 0.4, 0.2]","[u'blue', u'red', u'black']","[u'left', u'middle', u'right']","[0.8, 0.4, 0.2]","[u'low', u'medium', u'high']","blue",49,"left","low","False","False",102,6450,NA
"A1XAFKGJBBH6S5","Tue Oct 27 2020 10:16:02 GMT-0600 (Mountain Daylight Time)","Tue Oct 27 2020 10:22:45 GMT-0600 (Mountain Daylight Time)","Mozilla/5.0 (Windows NT 10.0; Win64; x64) AppleWebKit/537.36 (KHTML, like Gecko) Chrome/86.0.4240.75 Safari/537.36",115,"[0.9, 0.5, 0.1]","[0.8, 0.4, 0.2]","[u'blue', u'red', u'black']","[u'left', u'middle', u'right']","[0.8, 0.4, 0.2]","[u'low', u'medium', u'high']","red",50,"middle","medium","True","False",288,6550,NA
"A1XAFKGJBBH6S5","Tue Oct 27 2020 10:16:02 GMT-0600 (Mountain Daylight Time)","Tue Oct 27 2020 10:22:45 GMT-0600 (Mountain Daylight Time)","Mozilla/5.0 (Windows NT 10.0; Win64; x64) AppleWebKit/537.36 (KHTML, like Gecko) Chrome/86.0.4240.75 Safari/537.36",116,"[0.9, 0.5, 0.1]","[0.8, 0.4, 0.2]","[u'blue', u'red', u'black']","[u'left', u'middle', u'right']","[0.8, 0.4, 0.2]","[u'low', u'medium', u'high']","red",50,"middle","medium","False","False",229,6500,NA
"A1XAFKGJBBH6S5","Tue Oct 27 2020 10:16:02 GMT-0600 (Mountain Daylight Time)","Tue Oct 27 2020 10:22:45 GMT-0600 (Mountain Daylight Time)","Mozilla/5.0 (Windows NT 10.0; Win64; x64) AppleWebKit/537.36 (KHTML, like Gecko) Chrome/86.0.4240.75 Safari/537.36",117,"[0.9, 0.5, 0.1]","[0.8, 0.4, 0.2]","[u'blue', u'red', u'black']","[u'left', u'middle', u'right']","[0.8, 0.4, 0.2]","[u'low', u'medium', u'high']","blue",49,"left","low","False","False",72,6450,NA
"A1XAFKGJBBH6S5","Tue Oct 27 2020 10:16:02 GMT-0600 (Mountain Daylight Time)","Tue Oct 27 2020 10:22:45 GMT-0600 (Mountain Daylight Time)","Mozilla/5.0 (Windows NT 10.0; Win64; x64) AppleWebKit/537.36 (KHTML, like Gecko) Chrome/86.0.4240.75 Safari/537.36",118,"[0.9, 0.5, 0.1]","[0.8, 0.4, 0.2]","[u'blue', u'red', u'black']","[u'left', u'middle', u'right']","[0.8, 0.4, 0.2]","[u'low', u'medium', u'high']","red",50,"middle","medium","False","False",77,6400,NA
"A1XAFKGJBBH6S5","Tue Oct 27 2020 10:16:02 GMT-0600 (Mountain Daylight Time)","Tue Oct 27 2020 10:22:45 GMT-0600 (Mountain Daylight Time)","Mozilla/5.0 (Windows NT 10.0; Win64; x64) AppleWebKit/537.36 (KHTML, like Gecko) Chrome/86.0.4240.75 Safari/537.36",119,"[0.9, 0.5, 0.1]","[0.8, 0.4, 0.2]","[u'blue', u'red', u'black']","[u'left', u'middle', u'right']","[0.8, 0.4, 0.2]","[u'low', u'medium', u'high']","black",51,"right","high","True","False",257,6500,NA
"A1XAFKGJBBH6S5","Tue Oct 27 2020 10:16:02 GMT-0600 (Mountain Daylight Time)","Tue Oct 27 2020 10:22:45 GMT-0600 (Mountain Daylight Time)","Mozilla/5.0 (Windows NT 10.0; Win64; x64) AppleWebKit/537.36 (KHTML, like Gecko) Chrome/86.0.4240.75 Safari/537.36",120,"[0.9, 0.5, 0.1]","[0.8, 0.4, 0.2]","[u'blue', u'red', u'black']","[u'left', u'middle', u'right']","[0.8, 0.4, 0.2]","[u'low', u'medium', u'high']","black",51,"right","high","True","False",217,6600,NA
"A1XAFKGJBBH6S5","Tue Oct 27 2020 10:16:02 GMT-0600 (Mountain Daylight Time)","Tue Oct 27 2020 10:22:45 GMT-0600 (Mountain Daylight Time)","Mozilla/5.0 (Windows NT 10.0; Win64; x64) AppleWebKit/537.36 (KHTML, like Gecko) Chrome/86.0.4240.75 Safari/537.36",121,"[0.9, 0.5, 0.1]","[0.8, 0.4, 0.2]","[u'blue', u'red', u'black']","[u'left', u'middle', u'right']","[0.8, 0.4, 0.2]","[u'high', u'low', u'medium']","black",51,"right","medium","False","False",253,6550,NA
"A1XAFKGJBBH6S5","Tue Oct 27 2020 10:16:02 GMT-0600 (Mountain Daylight Time)","Tue Oct 27 2020 10:22:45 GMT-0600 (Mountain Daylight Time)","Mozilla/5.0 (Windows NT 10.0; Win64; x64) AppleWebKit/537.36 (KHTML, like Gecko) Chrome/86.0.4240.75 Safari/537.36",122,"[0.9, 0.5, 0.1]","[0.8, 0.4, 0.2]","[u'blue', u'red', u'black']","[u'left', u'middle', u'right']","[0.8, 0.4, 0.2]","[u'high', u'low', u'medium']","black",51,"right","medium","False","False",2,6500,NA
"A1XAFKGJBBH6S5","Tue Oct 27 2020 10:16:02 GMT-0600 (Mountain Daylight Time)","Tue Oct 27 2020 10:22:45 GMT-0600 (Mountain Daylight Time)","Mozilla/5.0 (Windows NT 10.0; Win64; x64) AppleWebKit/537.36 (KHTML, like Gecko) Chrome/86.0.4240.75 Safari/537.36",123,"[0.9, 0.5, 0.1]","[0.8, 0.4, 0.2]","[u'blue', u'red', u'black']","[u'left', u'middle', u'right']","[0.8, 0.4, 0.2]","[u'high', u'low', u'medium']","red",50,"middle","low","False","False",491,6450,NA
"A1XAFKGJBBH6S5","Tue Oct 27 2020 10:16:02 GMT-0600 (Mountain Daylight Time)","Tue Oct 27 2020 10:22:45 GMT-0600 (Mountain Daylight Time)","Mozilla/5.0 (Windows NT 10.0; Win64; x64) AppleWebKit/537.36 (KHTML, like Gecko) Chrome/86.0.4240.75 Safari/537.36",124,"[0.9, 0.5, 0.1]","[0.8, 0.4, 0.2]","[u'blue', u'red', u'black']","[u'left', u'middle', u'right']","[0.8, 0.4, 0.2]","[u'high', u'low', u'medium']","blue",49,"left","high","True","False",359,6550,NA
"A1XAFKGJBBH6S5","Tue Oct 27 2020 10:16:02 GMT-0600 (Mountain Daylight Time)","Tue Oct 27 2020 10:22:45 GMT-0600 (Mountain Daylight Time)","Mozilla/5.0 (Windows NT 10.0; Win64; x64) AppleWebKit/537.36 (KHTML, like Gecko) Chrome/86.0.4240.75 Safari/537.36",125,"[0.9, 0.5, 0.1]","[0.8, 0.4, 0.2]","[u'blue', u'red', u'black']","[u'left', u'middle', u'right']","[0.8, 0.4, 0.2]","[u'high', u'low', u'medium']","blue",49,"left","high","False","False",176,6500,NA
"A1XAFKGJBBH6S5","Tue Oct 27 2020 10:16:02 GMT-0600 (Mountain Daylight Time)","Tue Oct 27 2020 10:22:45 GMT-0600 (Mountain Daylight Time)","Mozilla/5.0 (Windows NT 10.0; Win64; x64) AppleWebKit/537.36 (KHTML, like Gecko) Chrome/86.0.4240.75 Safari/537.36",126,"[0.9, 0.5, 0.1]","[0.8, 0.4, 0.2]","[u'blue', u'red', u'black']","[u'left', u'middle', u'right']","[0.8, 0.4, 0.2]","[u'high', u'low', u'medium']","blue",49,"left","high","False","False",253,6450,NA
"A1XAFKGJBBH6S5","Tue Oct 27 2020 10:16:02 GMT-0600 (Mountain Daylight Time)","Tue Oct 27 2020 10:22:45 GMT-0600 (Mountain Daylight Time)","Mozilla/5.0 (Windows NT 10.0; Win64; x64) AppleWebKit/537.36 (KHTML, like Gecko) Chrome/86.0.4240.75 Safari/537.36",127,"[0.9, 0.5, 0.1]","[0.8, 0.4, 0.2]","[u'blue', u'red', u'black']","[u'left', u'middle', u'right']","[0.8, 0.4, 0.2]","[u'high', u'low', u'medium']","red",50,"middle","low","False","False",259,6400,NA
"A1XAFKGJBBH6S5","Tue Oct 27 2020 10:16:02 GMT-0600 (Mountain Daylight Time)","Tue Oct 27 2020 10:22:45 GMT-0600 (Mountain Daylight Time)","Mozilla/5.0 (Windows NT 10.0; Win64; x64) AppleWebKit/537.36 (KHTML, like Gecko) Chrome/86.0.4240.75 Safari/537.36",128,"[0.9, 0.5, 0.1]","[0.8, 0.4, 0.2]","[u'blue', u'red', u'black']","[u'left', u'middle', u'right']","[0.8, 0.4, 0.2]","[u'high', u'low', u'medium']","blue",49,"left","high","True","False",185,6500,NA
"A1XAFKGJBBH6S5","Tue Oct 27 2020 10:16:02 GMT-0600 (Mountain Daylight Time)","Tue Oct 27 2020 10:22:45 GMT-0600 (Mountain Daylight Time)","Mozilla/5.0 (Windows NT 10.0; Win64; x64) AppleWebKit/537.36 (KHTML, like Gecko) Chrome/86.0.4240.75 Safari/537.36",129,"[0.9, 0.5, 0.1]","[0.8, 0.4, 0.2]","[u'blue', u'red', u'black']","[u'left', u'middle', u'right']","[0.8, 0.4, 0.2]","[u'high', u'low', u'medium']","blue",49,"left","high","True","False",259,6600,NA
"A1XAFKGJBBH6S5","Tue Oct 27 2020 10:16:02 GMT-0600 (Mountain Daylight Time)","Tue Oct 27 2020 10:22:45 GMT-0600 (Mountain Daylight Time)","Mozilla/5.0 (Windows NT 10.0; Win64; x64) AppleWebKit/537.36 (KHTML, like Gecko) Chrome/86.0.4240.75 Safari/537.36",130,"[0.9, 0.5, 0.1]","[0.8, 0.4, 0.2]","[u'blue', u'red', u'black']","[u'left', u'middle', u'right']","[0.8, 0.4, 0.2]","[u'high', u'low', u'medium']","blue",49,"left","high","True","False",152,6700,NA
"A1XAFKGJBBH6S5","Tue Oct 27 2020 10:16:02 GMT-0600 (Mountain Daylight Time)","Tue Oct 27 2020 10:22:45 GMT-0600 (Mountain Daylight Time)","Mozilla/5.0 (Windows NT 10.0; Win64; x64) AppleWebKit/537.36 (KHTML, like Gecko) Chrome/86.0.4240.75 Safari/537.36",131,"[0.9, 0.5, 0.1]","[0.8, 0.4, 0.2]","[u'blue', u'red', u'black']","[u'left', u'middle', u'right']","[0.8, 0.4, 0.2]","[u'high', u'low', u'medium']","blue",49,"left","high","False","False",227,6650,NA
"A1XAFKGJBBH6S5","Tue Oct 27 2020 10:16:02 GMT-0600 (Mountain Daylight Time)","Tue Oct 27 2020 10:22:45 GMT-0600 (Mountain Daylight Time)","Mozilla/5.0 (Windows NT 10.0; Win64; x64) AppleWebKit/537.36 (KHTML, like Gecko) Chrome/86.0.4240.75 Safari/537.36",132,"[0.9, 0.5, 0.1]","[0.8, 0.4, 0.2]","[u'blue', u'red', u'black']","[u'left', u'middle', u'right']","[0.8, 0.4, 0.2]","[u'high', u'low', u'medium']","blue",49,"left","high","False","False",213,6600,NA
"A1XAFKGJBBH6S5","Tue Oct 27 2020 10:16:02 GMT-0600 (Mountain Daylight Time)","Tue Oct 27 2020 10:22:45 GMT-0600 (Mountain Daylight Time)","Mozilla/5.0 (Windows NT 10.0; Win64; x64) AppleWebKit/537.36 (KHTML, like Gecko) Chrome/86.0.4240.75 Safari/537.36",133,"[0.9, 0.5, 0.1]","[0.8, 0.4, 0.2]","[u'blue', u'red', u'black']","[u'left', u'middle', u'right']","[0.8, 0.4, 0.2]","[u'high', u'low', u'medium']","blue",49,"left","high","True","True",462,6700,NA
"A1XAFKGJBBH6S5","Tue Oct 27 2020 10:16:02 GMT-0600 (Mountain Daylight Time)","Tue Oct 27 2020 10:22:45 GMT-0600 (Mountain Daylight Time)","Mozilla/5.0 (Windows NT 10.0; Win64; x64) AppleWebKit/537.36 (KHTML, like Gecko) Chrome/86.0.4240.75 Safari/537.36",134,"[0.9, 0.5, 0.1]","[0.8, 0.4, 0.2]","[u'blue', u'red', u'black']","[u'left', u'middle', u'right']","[0.8, 0.4, 0.2]","[u'medium', u'low', u'high']","blue",49,"left","medium","False","False",248,6650,NA
"A1XAFKGJBBH6S5","Tue Oct 27 2020 10:16:02 GMT-0600 (Mountain Daylight Time)","Tue Oct 27 2020 10:22:45 GMT-0600 (Mountain Daylight Time)","Mozilla/5.0 (Windows NT 10.0; Win64; x64) AppleWebKit/537.36 (KHTML, like Gecko) Chrome/86.0.4240.75 Safari/537.36",135,"[0.9, 0.5, 0.1]","[0.8, 0.4, 0.2]","[u'blue', u'red', u'black']","[u'left', u'middle', u'right']","[0.8, 0.4, 0.2]","[u'medium', u'low', u'high']","red",50,"middle","low","False","False",87,6600,NA
"A1XAFKGJBBH6S5","Tue Oct 27 2020 10:16:02 GMT-0600 (Mountain Daylight Time)","Tue Oct 27 2020 10:22:45 GMT-0600 (Mountain Daylight Time)","Mozilla/5.0 (Windows NT 10.0; Win64; x64) AppleWebKit/537.36 (KHTML, like Gecko) Chrome/86.0.4240.75 Safari/537.36",136,"[0.9, 0.5, 0.1]","[0.8, 0.4, 0.2]","[u'blue', u'red', u'black']","[u'left', u'middle', u'right']","[0.8, 0.4, 0.2]","[u'medium', u'low', u'high']","black",51,"right","high","True","False",75,6700,NA
"A1XAFKGJBBH6S5","Tue Oct 27 2020 10:16:02 GMT-0600 (Mountain Daylight Time)","Tue Oct 27 2020 10:22:45 GMT-0600 (Mountain Daylight Time)","Mozilla/5.0 (Windows NT 10.0; Win64; x64) AppleWebKit/537.36 (KHTML, like Gecko) Chrome/86.0.4240.75 Safari/537.36",137,"[0.9, 0.5, 0.1]","[0.8, 0.4, 0.2]","[u'blue', u'red', u'black']","[u'left', u'middle', u'right']","[0.8, 0.4, 0.2]","[u'medium', u'low', u'high']","black",51,"right","high","True","False",3,6800,NA
"A1XAFKGJBBH6S5","Tue Oct 27 2020 10:16:02 GMT-0600 (Mountain Daylight Time)","Tue Oct 27 2020 10:22:45 GMT-0600 (Mountain Daylight Time)","Mozilla/5.0 (Windows NT 10.0; Win64; x64) AppleWebKit/537.36 (KHTML, like Gecko) Chrome/86.0.4240.75 Safari/537.36",138,"[0.9, 0.5, 0.1]","[0.8, 0.4, 0.2]","[u'blue', u'red', u'black']","[u'left', u'middle', u'right']","[0.8, 0.4, 0.2]","[u'medium', u'low', u'high']","black",51,"right","high","True","False",356,6900,NA
"A1XAFKGJBBH6S5","Tue Oct 27 2020 10:16:02 GMT-0600 (Mountain Daylight Time)","Tue Oct 27 2020 10:22:45 GMT-0600 (Mountain Daylight Time)","Mozilla/5.0 (Windows NT 10.0; Win64; x64) AppleWebKit/537.36 (KHTML, like Gecko) Chrome/86.0.4240.75 Safari/537.36",139,"[0.9, 0.5, 0.1]","[0.8, 0.4, 0.2]","[u'blue', u'red', u'black']","[u'left', u'middle', u'right']","[0.8, 0.4, 0.2]","[u'medium', u'low', u'high']","black",51,"right","high","True","False",233,7000,NA
"A1XAFKGJBBH6S5","Tue Oct 27 2020 10:16:02 GMT-0600 (Mountain Daylight Time)","Tue Oct 27 2020 10:22:45 GMT-0600 (Mountain Daylight Time)","Mozilla/5.0 (Windows NT 10.0; Win64; x64) AppleWebKit/537.36 (KHTML, like Gecko) Chrome/86.0.4240.75 Safari/537.36",140,"[0.9, 0.5, 0.1]","[0.8, 0.4, 0.2]","[u'blue', u'red', u'black']","[u'left', u'middle', u'right']","[0.8, 0.4, 0.2]","[u'medium', u'low', u'high']","black",51,"right","high","True","False",278,7100,NA
"A1XAFKGJBBH6S5","Tue Oct 27 2020 10:16:02 GMT-0600 (Mountain Daylight Time)","Tue Oct 27 2020 10:22:45 GMT-0600 (Mountain Daylight Time)","Mozilla/5.0 (Windows NT 10.0; Win64; x64) AppleWebKit/537.36 (KHTML, like Gecko) Chrome/86.0.4240.75 Safari/537.36",141,"[0.9, 0.5, 0.1]","[0.8, 0.4, 0.2]","[u'blue', u'red', u'black']","[u'left', u'middle', u'right']","[0.8, 0.4, 0.2]","[u'medium', u'low', u'high']","black",51,"right","high","False","False",287,7050,NA
"A1XAFKGJBBH6S5","Tue Oct 27 2020 10:16:02 GMT-0600 (Mountain Daylight Time)","Tue Oct 27 2020 10:22:45 GMT-0600 (Mountain Daylight Time)","Mozilla/5.0 (Windows NT 10.0; Win64; x64) AppleWebKit/537.36 (KHTML, like Gecko) Chrome/86.0.4240.75 Safari/537.36",142,"[0.9, 0.5, 0.1]","[0.8, 0.4, 0.2]","[u'blue', u'red', u'black']","[u'left', u'middle', u'right']","[0.8, 0.4, 0.2]","[u'medium', u'low', u'high']","black",51,"right","high","False","False",275,7000,NA
"A1XAFKGJBBH6S5","Tue Oct 27 2020 10:16:02 GMT-0600 (Mountain Daylight Time)","Tue Oct 27 2020 10:22:45 GMT-0600 (Mountain Daylight Time)","Mozilla/5.0 (Windows NT 10.0; Win64; x64) AppleWebKit/537.36 (KHTML, like Gecko) Chrome/86.0.4240.75 Safari/537.36",143,"[0.9, 0.5, 0.1]","[0.8, 0.4, 0.2]","[u'blue', u'red', u'black']","[u'left', u'middle', u'right']","[0.8, 0.4, 0.2]","[u'medium', u'low', u'high']","black",51,"right","high","False","False",231,6950,NA
"A1XAFKGJBBH6S5","Tue Oct 27 2020 10:16:02 GMT-0600 (Mountain Daylight Time)","Tue Oct 27 2020 10:22:45 GMT-0600 (Mountain Daylight Time)","Mozilla/5.0 (Windows NT 10.0; Win64; x64) AppleWebKit/537.36 (KHTML, like Gecko) Chrome/86.0.4240.75 Safari/537.36",144,"[0.9, 0.5, 0.1]","[0.8, 0.4, 0.2]","[u'blue', u'red', u'black']","[u'left', u'middle', u'right']","[0.8, 0.4, 0.2]","[u'medium', u'low', u'high']","red",50,"middle","low","False","False",315,6900,NA
"A1XAFKGJBBH6S5","Tue Oct 27 2020 10:16:02 GMT-0600 (Mountain Daylight Time)","Tue Oct 27 2020 10:22:45 GMT-0600 (Mountain Daylight Time)","Mozilla/5.0 (Windows NT 10.0; Win64; x64) AppleWebKit/537.36 (KHTML, like Gecko) Chrome/86.0.4240.75 Safari/537.36",145,"[0.9, 0.5, 0.1]","[0.8, 0.4, 0.2]","[u'blue', u'red', u'black']","[u'left', u'middle', u'right']","[0.8, 0.4, 0.2]","[u'medium', u'low', u'high']","black",51,"right","high","True","True",321,7000,NA
"A1XAFKGJBBH6S5","Tue Oct 27 2020 10:16:02 GMT-0600 (Mountain Daylight Time)","Tue Oct 27 2020 10:22:45 GMT-0600 (Mountain Daylight Time)","Mozilla/5.0 (Windows NT 10.0; Win64; x64) AppleWebKit/537.36 (KHTML, like Gecko) Chrome/86.0.4240.75 Safari/537.36",146,"[0.9, 0.5, 0.1]","[0.8, 0.4, 0.2]","[u'blue', u'red', u'black']","[u'left', u'middle', u'right']","[0.8, 0.4, 0.2]","[u'high', u'medium', u'low']","black",51,"right","low","True","False",294,7100,NA
"A1XAFKGJBBH6S5","Tue Oct 27 2020 10:16:02 GMT-0600 (Mountain Daylight Time)","Tue Oct 27 2020 10:22:45 GMT-0600 (Mountain Daylight Time)","Mozilla/5.0 (Windows NT 10.0; Win64; x64) AppleWebKit/537.36 (KHTML, like Gecko) Chrome/86.0.4240.75 Safari/537.36",147,"[0.9, 0.5, 0.1]","[0.8, 0.4, 0.2]","[u'blue', u'red', u'black']","[u'left', u'middle', u'right']","[0.8, 0.4, 0.2]","[u'high', u'medium', u'low']","black",51,"right","low","False","False",297,7050,NA
"A1XAFKGJBBH6S5","Tue Oct 27 2020 10:16:02 GMT-0600 (Mountain Daylight Time)","Tue Oct 27 2020 10:22:45 GMT-0600 (Mountain Daylight Time)","Mozilla/5.0 (Windows NT 10.0; Win64; x64) AppleWebKit/537.36 (KHTML, like Gecko) Chrome/86.0.4240.75 Safari/537.36",148,"[0.9, 0.5, 0.1]","[0.8, 0.4, 0.2]","[u'blue', u'red', u'black']","[u'left', u'middle', u'right']","[0.8, 0.4, 0.2]","[u'high', u'medium', u'low']","blue",49,"left","high","True","False",402,7150,NA
"A1XAFKGJBBH6S5","Tue Oct 27 2020 10:16:02 GMT-0600 (Mountain Daylight Time)","Tue Oct 27 2020 10:22:45 GMT-0600 (Mountain Daylight Time)","Mozilla/5.0 (Windows NT 10.0; Win64; x64) AppleWebKit/537.36 (KHTML, like Gecko) Chrome/86.0.4240.75 Safari/537.36",149,"[0.9, 0.5, 0.1]","[0.8, 0.4, 0.2]","[u'blue', u'red', u'black']","[u'left', u'middle', u'right']","[0.8, 0.4, 0.2]","[u'high', u'medium', u'low']","blue",49,"left","high","True","False",273,7250,NA
"A1XAFKGJBBH6S5","Tue Oct 27 2020 10:16:02 GMT-0600 (Mountain Daylight Time)","Tue Oct 27 2020 10:22:45 GMT-0600 (Mountain Daylight Time)","Mozilla/5.0 (Windows NT 10.0; Win64; x64) AppleWebKit/537.36 (KHTML, like Gecko) Chrome/86.0.4240.75 Safari/537.36",150,"[0.9, 0.5, 0.1]","[0.8, 0.4, 0.2]","[u'blue', u'red', u'black']","[u'left', u'middle', u'right']","[0.8, 0.4, 0.2]","[u'high', u'medium', u'low']","blue",49,"left","high","True","False",243,7350,NA
"A1XAFKGJBBH6S5","Tue Oct 27 2020 10:16:02 GMT-0600 (Mountain Daylight Time)","Tue Oct 27 2020 10:22:45 GMT-0600 (Mountain Daylight Time)","Mozilla/5.0 (Windows NT 10.0; Win64; x64) AppleWebKit/537.36 (KHTML, like Gecko) Chrome/86.0.4240.75 Safari/537.36",151,"[0.9, 0.5, 0.1]","[0.8, 0.4, 0.2]","[u'blue', u'red', u'black']","[u'left', u'middle', u'right']","[0.8, 0.4, 0.2]","[u'high', u'medium', u'low']","blue",49,"left","high","True","False",313,7450,NA
"A1XAFKGJBBH6S5","Tue Oct 27 2020 10:16:02 GMT-0600 (Mountain Daylight Time)","Tue Oct 27 2020 10:22:45 GMT-0600 (Mountain Daylight Time)","Mozilla/5.0 (Windows NT 10.0; Win64; x64) AppleWebKit/537.36 (KHTML, like Gecko) Chrome/86.0.4240.75 Safari/537.36",152,"[0.9, 0.5, 0.1]","[0.8, 0.4, 0.2]","[u'blue', u'red', u'black']","[u'left', u'middle', u'right']","[0.8, 0.4, 0.2]","[u'high', u'medium', u'low']","blue",49,"left","high","True","False",325,7550,NA
"A1XAFKGJBBH6S5","Tue Oct 27 2020 10:16:02 GMT-0600 (Mountain Daylight Time)","Tue Oct 27 2020 10:22:45 GMT-0600 (Mountain Daylight Time)","Mozilla/5.0 (Windows NT 10.0; Win64; x64) AppleWebKit/537.36 (KHTML, like Gecko) Chrome/86.0.4240.75 Safari/537.36",153,"[0.9, 0.5, 0.1]","[0.8, 0.4, 0.2]","[u'blue', u'red', u'black']","[u'left', u'middle', u'right']","[0.8, 0.4, 0.2]","[u'high', u'medium', u'low']","blue",49,"left","high","True","False",264,7650,NA
"A1XAFKGJBBH6S5","Tue Oct 27 2020 10:16:02 GMT-0600 (Mountain Daylight Time)","Tue Oct 27 2020 10:22:45 GMT-0600 (Mountain Daylight Time)","Mozilla/5.0 (Windows NT 10.0; Win64; x64) AppleWebKit/537.36 (KHTML, like Gecko) Chrome/86.0.4240.75 Safari/537.36",154,"[0.9, 0.5, 0.1]","[0.8, 0.4, 0.2]","[u'blue', u'red', u'black']","[u'left', u'middle', u'right']","[0.8, 0.4, 0.2]","[u'high', u'medium', u'low']","blue",49,"left","high","True","False",243,7750,NA
"A1XAFKGJBBH6S5","Tue Oct 27 2020 10:16:02 GMT-0600 (Mountain Daylight Time)","Tue Oct 27 2020 10:22:45 GMT-0600 (Mountain Daylight Time)","Mozilla/5.0 (Windows NT 10.0; Win64; x64) AppleWebKit/537.36 (KHTML, like Gecko) Chrome/86.0.4240.75 Safari/537.36",155,"[0.9, 0.5, 0.1]","[0.8, 0.4, 0.2]","[u'blue', u'red', u'black']","[u'left', u'middle', u'right']","[0.8, 0.4, 0.2]","[u'high', u'medium', u'low']","blue",49,"left","high","True","False",286,7850,NA
"A1XAFKGJBBH6S5","Tue Oct 27 2020 10:16:02 GMT-0600 (Mountain Daylight Time)","Tue Oct 27 2020 10:22:45 GMT-0600 (Mountain Daylight Time)","Mozilla/5.0 (Windows NT 10.0; Win64; x64) AppleWebKit/537.36 (KHTML, like Gecko) Chrome/86.0.4240.75 Safari/537.36",156,"[0.9, 0.5, 0.1]","[0.8, 0.4, 0.2]","[u'blue', u'red', u'black']","[u'left', u'middle', u'right']","[0.8, 0.4, 0.2]","[u'high', u'medium', u'low']","blue",49,"left","high","True","True",224,7950,NA
"A1XAFKGJBBH6S5","Tue Oct 27 2020 10:16:02 GMT-0600 (Mountain Daylight Time)","Tue Oct 27 2020 10:22:45 GMT-0600 (Mountain Daylight Time)","Mozilla/5.0 (Windows NT 10.0; Win64; x64) AppleWebKit/537.36 (KHTML, like Gecko) Chrome/86.0.4240.75 Safari/537.36",157,"[0.9, 0.5, 0.1]","[0.8, 0.4, 0.2]","[u'blue', u'red', u'black']","[u'left', u'middle', u'right']","[0.8, 0.4, 0.2]","[u'low', u'high', u'medium']","blue",49,"left","low","False","False",240,7900,NA
"A1XAFKGJBBH6S5","Tue Oct 27 2020 10:16:02 GMT-0600 (Mountain Daylight Time)","Tue Oct 27 2020 10:22:45 GMT-0600 (Mountain Daylight Time)","Mozilla/5.0 (Windows NT 10.0; Win64; x64) AppleWebKit/537.36 (KHTML, like Gecko) Chrome/86.0.4240.75 Safari/537.36",158,"[0.9, 0.5, 0.1]","[0.8, 0.4, 0.2]","[u'blue', u'red', u'black']","[u'left', u'middle', u'right']","[0.8, 0.4, 0.2]","[u'low', u'high', u'medium']","red",50,"middle","high","True","False",313,8000,NA
"A1XAFKGJBBH6S5","Tue Oct 27 2020 10:16:02 GMT-0600 (Mountain Daylight Time)","Tue Oct 27 2020 10:22:45 GMT-0600 (Mountain Daylight Time)","Mozilla/5.0 (Windows NT 10.0; Win64; x64) AppleWebKit/537.36 (KHTML, like Gecko) Chrome/86.0.4240.75 Safari/537.36",159,"[0.9, 0.5, 0.1]","[0.8, 0.4, 0.2]","[u'blue', u'red', u'black']","[u'left', u'middle', u'right']","[0.8, 0.4, 0.2]","[u'low', u'high', u'medium']","red",50,"middle","high","True","False",280,8100,NA
"A1XAFKGJBBH6S5","Tue Oct 27 2020 10:16:02 GMT-0600 (Mountain Daylight Time)","Tue Oct 27 2020 10:22:45 GMT-0600 (Mountain Daylight Time)","Mozilla/5.0 (Windows NT 10.0; Win64; x64) AppleWebKit/537.36 (KHTML, like Gecko) Chrome/86.0.4240.75 Safari/537.36",160,"[0.9, 0.5, 0.1]","[0.8, 0.4, 0.2]","[u'blue', u'red', u'black']","[u'left', u'middle', u'right']","[0.8, 0.4, 0.2]","[u'low', u'high', u'medium']","red",50,"middle","high","True","False",345,8200,NA
