"src_subject_id","start_time","end_time","browser","index","first_half_probabilities","second_half_probabilities","deck_color","deck_position","deck_probabilities","deck_contingencies","response_color","key_press","response_position","response_probability","reward_type","trial_type","rt","reward_tally","exclusion_reason"
"ALEE1QD4TW9G4","Tue Oct 27 2020 12:20:47 GMT-0500 (Central Daylight Time)","Tue Oct 27 2020 12:28:51 GMT-0500 (Central Daylight Time)","Mozilla/5.0 (Windows NT 10.0; Win64; x64) AppleWebKit/537.36 (KHTML, like Gecko) Chrome/86.0.4240.111 Safari/537.36",1,"[0.9, 0.5, 0.1]","[0.8, 0.4, 0.2]","[u'blue', u'red', u'black']","[u'left', u'middle', u'right']","[0.9, 0.5, 0.1]","[u'high', u'low', u'medium']","blue",49,"left","high","True","False",826,100,NA
"ALEE1QD4TW9G4","Tue Oct 27 2020 12:20:47 GMT-0500 (Central Daylight Time)","Tue Oct 27 2020 12:28:51 GMT-0500 (Central Daylight Time)","Mozilla/5.0 (Windows NT 10.0; Win64; x64) AppleWebKit/537.36 (KHTML, like Gecko) Chrome/86.0.4240.111 Safari/537.36",2,"[0.9, 0.5, 0.1]","[0.8, 0.4, 0.2]","[u'blue', u'red', u'black']","[u'left', u'middle', u'right']","[0.9, 0.5, 0.1]","[u'high', u'low', u'medium']","blue",49,"left","high","True","False",278,200,NA
"ALEE1QD4TW9G4","Tue Oct 27 2020 12:20:47 GMT-0500 (Central Daylight Time)","Tue Oct 27 2020 12:28:51 GMT-0500 (Central Daylight Time)","Mozilla/5.0 (Windows NT 10.0; Win64; x64) AppleWebKit/537.36 (KHTML, like Gecko) Chrome/86.0.4240.111 Safari/537.36",3,"[0.9, 0.5, 0.1]","[0.8, 0.4, 0.2]","[u'blue', u'red', u'black']","[u'left', u'middle', u'right']","[0.9, 0.5, 0.1]","[u'high', u'low', u'medium']","blue",49,"left","high","True","False",309,300,NA
"ALEE1QD4TW9G4","Tue Oct 27 2020 12:20:47 GMT-0500 (Central Daylight Time)","Tue Oct 27 2020 12:28:51 GMT-0500 (Central Daylight Time)","Mozilla/5.0 (Windows NT 10.0; Win64; x64) AppleWebKit/537.36 (KHTML, like Gecko) Chrome/86.0.4240.111 Safari/537.36",4,"[0.9, 0.5, 0.1]","[0.8, 0.4, 0.2]","[u'blue', u'red', u'black']","[u'left', u'middle', u'right']","[0.9, 0.5, 0.1]","[u'high', u'low', u'medium']","blue",49,"left","high","False","False",236,250,NA
"ALEE1QD4TW9G4","Tue Oct 27 2020 12:20:47 GMT-0500 (Central Daylight Time)","Tue Oct 27 2020 12:28:51 GMT-0500 (Central Daylight Time)","Mozilla/5.0 (Windows NT 10.0; Win64; x64) AppleWebKit/537.36 (KHTML, like Gecko) Chrome/86.0.4240.111 Safari/537.36",5,"[0.9, 0.5, 0.1]","[0.8, 0.4, 0.2]","[u'blue', u'red', u'black']","[u'left', u'middle', u'right']","[0.9, 0.5, 0.1]","[u'high', u'low', u'medium']","black",51,"right","medium","False","False",380,200,NA
"ALEE1QD4TW9G4","Tue Oct 27 2020 12:20:47 GMT-0500 (Central Daylight Time)","Tue Oct 27 2020 12:28:51 GMT-0500 (Central Daylight Time)","Mozilla/5.0 (Windows NT 10.0; Win64; x64) AppleWebKit/537.36 (KHTML, like Gecko) Chrome/86.0.4240.111 Safari/537.36",6,"[0.9, 0.5, 0.1]","[0.8, 0.4, 0.2]","[u'blue', u'red', u'black']","[u'left', u'middle', u'right']","[0.9, 0.5, 0.1]","[u'high', u'low', u'medium']","red",50,"middle","low","False","False",559,150,NA
"ALEE1QD4TW9G4","Tue Oct 27 2020 12:20:47 GMT-0500 (Central Daylight Time)","Tue Oct 27 2020 12:28:51 GMT-0500 (Central Daylight Time)","Mozilla/5.0 (Windows NT 10.0; Win64; x64) AppleWebKit/537.36 (KHTML, like Gecko) Chrome/86.0.4240.111 Safari/537.36",7,"[0.9, 0.5, 0.1]","[0.8, 0.4, 0.2]","[u'blue', u'red', u'black']","[u'left', u'middle', u'right']","[0.9, 0.5, 0.1]","[u'high', u'low', u'medium']","blue",49,"left","high","True","False",331,250,NA
"ALEE1QD4TW9G4","Tue Oct 27 2020 12:20:47 GMT-0500 (Central Daylight Time)","Tue Oct 27 2020 12:28:51 GMT-0500 (Central Daylight Time)","Mozilla/5.0 (Windows NT 10.0; Win64; x64) AppleWebKit/537.36 (KHTML, like Gecko) Chrome/86.0.4240.111 Safari/537.36",8,"[0.9, 0.5, 0.1]","[0.8, 0.4, 0.2]","[u'blue', u'red', u'black']","[u'left', u'middle', u'right']","[0.9, 0.5, 0.1]","[u'high', u'low', u'medium']","blue",49,"left","high","False","False",263,200,NA
"ALEE1QD4TW9G4","Tue Oct 27 2020 12:20:47 GMT-0500 (Central Daylight Time)","Tue Oct 27 2020 12:28:51 GMT-0500 (Central Daylight Time)","Mozilla/5.0 (Windows NT 10.0; Win64; x64) AppleWebKit/537.36 (KHTML, like Gecko) Chrome/86.0.4240.111 Safari/537.36",9,"[0.9, 0.5, 0.1]","[0.8, 0.4, 0.2]","[u'blue', u'red', u'black']","[u'left', u'middle', u'right']","[0.9, 0.5, 0.1]","[u'high', u'low', u'medium']","blue",49,"left","high","False","False",165,150,NA
"ALEE1QD4TW9G4","Tue Oct 27 2020 12:20:47 GMT-0500 (Central Daylight Time)","Tue Oct 27 2020 12:28:51 GMT-0500 (Central Daylight Time)","Mozilla/5.0 (Windows NT 10.0; Win64; x64) AppleWebKit/537.36 (KHTML, like Gecko) Chrome/86.0.4240.111 Safari/537.36",10,"[0.9, 0.5, 0.1]","[0.8, 0.4, 0.2]","[u'blue', u'red', u'black']","[u'left', u'middle', u'right']","[0.9, 0.5, 0.1]","[u'high', u'low', u'medium']","red",50,"middle","low","False","False",329,100,NA
"ALEE1QD4TW9G4","Tue Oct 27 2020 12:20:47 GMT-0500 (Central Daylight Time)","Tue Oct 27 2020 12:28:51 GMT-0500 (Central Daylight Time)","Mozilla/5.0 (Windows NT 10.0; Win64; x64) AppleWebKit/537.36 (KHTML, like Gecko) Chrome/86.0.4240.111 Safari/537.36",11,"[0.9, 0.5, 0.1]","[0.8, 0.4, 0.2]","[u'blue', u'red', u'black']","[u'left', u'middle', u'right']","[0.9, 0.5, 0.1]","[u'high', u'low', u'medium']","black",51,"right","medium","False","False",199,50,NA
"ALEE1QD4TW9G4","Tue Oct 27 2020 12:20:47 GMT-0500 (Central Daylight Time)","Tue Oct 27 2020 12:28:51 GMT-0500 (Central Daylight Time)","Mozilla/5.0 (Windows NT 10.0; Win64; x64) AppleWebKit/537.36 (KHTML, like Gecko) Chrome/86.0.4240.111 Safari/537.36",12,"[0.9, 0.5, 0.1]","[0.8, 0.4, 0.2]","[u'blue', u'red', u'black']","[u'left', u'middle', u'right']","[0.9, 0.5, 0.1]","[u'high', u'low', u'medium']","red",50,"middle","low","False","False",194,0,NA
"ALEE1QD4TW9G4","Tue Oct 27 2020 12:20:47 GMT-0500 (Central Daylight Time)","Tue Oct 27 2020 12:28:51 GMT-0500 (Central Daylight Time)","Mozilla/5.0 (Windows NT 10.0; Win64; x64) AppleWebKit/537.36 (KHTML, like Gecko) Chrome/86.0.4240.111 Safari/537.36",13,"[0.9, 0.5, 0.1]","[0.8, 0.4, 0.2]","[u'blue', u'red', u'black']","[u'left', u'middle', u'right']","[0.9, 0.5, 0.1]","[u'high', u'low', u'medium']","red",50,"middle","low","False","False",41,-50,NA
"ALEE1QD4TW9G4","Tue Oct 27 2020 12:20:47 GMT-0500 (Central Daylight Time)","Tue Oct 27 2020 12:28:51 GMT-0500 (Central Daylight Time)","Mozilla/5.0 (Windows NT 10.0; Win64; x64) AppleWebKit/537.36 (KHTML, like Gecko) Chrome/86.0.4240.111 Safari/537.36",14,"[0.9, 0.5, 0.1]","[0.8, 0.4, 0.2]","[u'blue', u'red', u'black']","[u'left', u'middle', u'right']","[0.9, 0.5, 0.1]","[u'high', u'low', u'medium']","blue",49,"left","high","False","False",286,-100,NA
"ALEE1QD4TW9G4","Tue Oct 27 2020 12:20:47 GMT-0500 (Central Daylight Time)","Tue Oct 27 2020 12:28:51 GMT-0500 (Central Daylight Time)","Mozilla/5.0 (Windows NT 10.0; Win64; x64) AppleWebKit/537.36 (KHTML, like Gecko) Chrome/86.0.4240.111 Safari/537.36",15,"[0.9, 0.5, 0.1]","[0.8, 0.4, 0.2]","[u'blue', u'red', u'black']","[u'left', u'middle', u'right']","[0.9, 0.5, 0.1]","[u'high', u'low', u'medium']","blue",49,"left","high","True","False",168,0,NA
"ALEE1QD4TW9G4","Tue Oct 27 2020 12:20:47 GMT-0500 (Central Daylight Time)","Tue Oct 27 2020 12:28:51 GMT-0500 (Central Daylight Time)","Mozilla/5.0 (Windows NT 10.0; Win64; x64) AppleWebKit/537.36 (KHTML, like Gecko) Chrome/86.0.4240.111 Safari/537.36",16,"[0.9, 0.5, 0.1]","[0.8, 0.4, 0.2]","[u'blue', u'red', u'black']","[u'left', u'middle', u'right']","[0.9, 0.5, 0.1]","[u'high', u'low', u'medium']","blue",49,"left","high","True","False",441,100,NA
"ALEE1QD4TW9G4","Tue Oct 27 2020 12:20:47 GMT-0500 (Central Daylight Time)","Tue Oct 27 2020 12:28:51 GMT-0500 (Central Daylight Time)","Mozilla/5.0 (Windows NT 10.0; Win64; x64) AppleWebKit/537.36 (KHTML, like Gecko) Chrome/86.0.4240.111 Safari/537.36",17,"[0.9, 0.5, 0.1]","[0.8, 0.4, 0.2]","[u'blue', u'red', u'black']","[u'left', u'middle', u'right']","[0.9, 0.5, 0.1]","[u'high', u'low', u'medium']","blue",49,"left","high","True","False",373,200,NA
"ALEE1QD4TW9G4","Tue Oct 27 2020 12:20:47 GMT-0500 (Central Daylight Time)","Tue Oct 27 2020 12:28:51 GMT-0500 (Central Daylight Time)","Mozilla/5.0 (Windows NT 10.0; Win64; x64) AppleWebKit/537.36 (KHTML, like Gecko) Chrome/86.0.4240.111 Safari/537.36",18,"[0.9, 0.5, 0.1]","[0.8, 0.4, 0.2]","[u'blue', u'red', u'black']","[u'left', u'middle', u'right']","[0.9, 0.5, 0.1]","[u'high', u'low', u'medium']","blue",49,"left","high","True","False",272,300,NA
"ALEE1QD4TW9G4","Tue Oct 27 2020 12:20:47 GMT-0500 (Central Daylight Time)","Tue Oct 27 2020 12:28:51 GMT-0500 (Central Daylight Time)","Mozilla/5.0 (Windows NT 10.0; Win64; x64) AppleWebKit/537.36 (KHTML, like Gecko) Chrome/86.0.4240.111 Safari/537.36",19,"[0.9, 0.5, 0.1]","[0.8, 0.4, 0.2]","[u'blue', u'red', u'black']","[u'left', u'middle', u'right']","[0.9, 0.5, 0.1]","[u'high', u'low', u'medium']","blue",49,"left","high","True","False",220,400,NA
"ALEE1QD4TW9G4","Tue Oct 27 2020 12:20:47 GMT-0500 (Central Daylight Time)","Tue Oct 27 2020 12:28:51 GMT-0500 (Central Daylight Time)","Mozilla/5.0 (Windows NT 10.0; Win64; x64) AppleWebKit/537.36 (KHTML, like Gecko) Chrome/86.0.4240.111 Safari/537.36",20,"[0.9, 0.5, 0.1]","[0.8, 0.4, 0.2]","[u'blue', u'red', u'black']","[u'left', u'middle', u'right']","[0.9, 0.5, 0.1]","[u'high', u'low', u'medium']","blue",49,"left","high","True","False",202,500,NA
"ALEE1QD4TW9G4","Tue Oct 27 2020 12:20:47 GMT-0500 (Central Daylight Time)","Tue Oct 27 2020 12:28:51 GMT-0500 (Central Daylight Time)","Mozilla/5.0 (Windows NT 10.0; Win64; x64) AppleWebKit/537.36 (KHTML, like Gecko) Chrome/86.0.4240.111 Safari/537.36",21,"[0.9, 0.5, 0.1]","[0.8, 0.4, 0.2]","[u'blue', u'red', u'black']","[u'left', u'middle', u'right']","[0.9, 0.5, 0.1]","[u'high', u'low', u'medium']","blue",49,"left","high","True","False",284,600,NA
"ALEE1QD4TW9G4","Tue Oct 27 2020 12:20:47 GMT-0500 (Central Daylight Time)","Tue Oct 27 2020 12:28:51 GMT-0500 (Central Daylight Time)","Mozilla/5.0 (Windows NT 10.0; Win64; x64) AppleWebKit/537.36 (KHTML, like Gecko) Chrome/86.0.4240.111 Safari/537.36",22,"[0.9, 0.5, 0.1]","[0.8, 0.4, 0.2]","[u'blue', u'red', u'black']","[u'left', u'middle', u'right']","[0.9, 0.5, 0.1]","[u'high', u'low', u'medium']","blue",49,"left","high","True","True",399,700,NA
"ALEE1QD4TW9G4","Tue Oct 27 2020 12:20:47 GMT-0500 (Central Daylight Time)","Tue Oct 27 2020 12:28:51 GMT-0500 (Central Daylight Time)","Mozilla/5.0 (Windows NT 10.0; Win64; x64) AppleWebKit/537.36 (KHTML, like Gecko) Chrome/86.0.4240.111 Safari/537.36",23,"[0.9, 0.5, 0.1]","[0.8, 0.4, 0.2]","[u'blue', u'red', u'black']","[u'left', u'middle', u'right']","[0.9, 0.5, 0.1]","[u'medium', u'low', u'high']","blue",49,"left","medium","False","False",338,650,NA
"ALEE1QD4TW9G4","Tue Oct 27 2020 12:20:47 GMT-0500 (Central Daylight Time)","Tue Oct 27 2020 12:28:51 GMT-0500 (Central Daylight Time)","Mozilla/5.0 (Windows NT 10.0; Win64; x64) AppleWebKit/537.36 (KHTML, like Gecko) Chrome/86.0.4240.111 Safari/537.36",24,"[0.9, 0.5, 0.1]","[0.8, 0.4, 0.2]","[u'blue', u'red', u'black']","[u'left', u'middle', u'right']","[0.9, 0.5, 0.1]","[u'medium', u'low', u'high']","blue",49,"left","medium","False","False",96,600,NA
"ALEE1QD4TW9G4","Tue Oct 27 2020 12:20:47 GMT-0500 (Central Daylight Time)","Tue Oct 27 2020 12:28:51 GMT-0500 (Central Daylight Time)","Mozilla/5.0 (Windows NT 10.0; Win64; x64) AppleWebKit/537.36 (KHTML, like Gecko) Chrome/86.0.4240.111 Safari/537.36",25,"[0.9, 0.5, 0.1]","[0.8, 0.4, 0.2]","[u'blue', u'red', u'black']","[u'left', u'middle', u'right']","[0.9, 0.5, 0.1]","[u'medium', u'low', u'high']","blue",49,"left","medium","True","False",83,700,NA
"ALEE1QD4TW9G4","Tue Oct 27 2020 12:20:47 GMT-0500 (Central Daylight Time)","Tue Oct 27 2020 12:28:51 GMT-0500 (Central Daylight Time)","Mozilla/5.0 (Windows NT 10.0; Win64; x64) AppleWebKit/537.36 (KHTML, like Gecko) Chrome/86.0.4240.111 Safari/537.36",26,"[0.9, 0.5, 0.1]","[0.8, 0.4, 0.2]","[u'blue', u'red', u'black']","[u'left', u'middle', u'right']","[0.9, 0.5, 0.1]","[u'medium', u'low', u'high']","blue",49,"left","medium","False","False",90,650,NA
"ALEE1QD4TW9G4","Tue Oct 27 2020 12:20:47 GMT-0500 (Central Daylight Time)","Tue Oct 27 2020 12:28:51 GMT-0500 (Central Daylight Time)","Mozilla/5.0 (Windows NT 10.0; Win64; x64) AppleWebKit/537.36 (KHTML, like Gecko) Chrome/86.0.4240.111 Safari/537.36",27,"[0.9, 0.5, 0.1]","[0.8, 0.4, 0.2]","[u'blue', u'red', u'black']","[u'left', u'middle', u'right']","[0.9, 0.5, 0.1]","[u'medium', u'low', u'high']","blue",49,"left","medium","False","False",196,600,NA
"ALEE1QD4TW9G4","Tue Oct 27 2020 12:20:47 GMT-0500 (Central Daylight Time)","Tue Oct 27 2020 12:28:51 GMT-0500 (Central Daylight Time)","Mozilla/5.0 (Windows NT 10.0; Win64; x64) AppleWebKit/537.36 (KHTML, like Gecko) Chrome/86.0.4240.111 Safari/537.36",28,"[0.9, 0.5, 0.1]","[0.8, 0.4, 0.2]","[u'blue', u'red', u'black']","[u'left', u'middle', u'right']","[0.9, 0.5, 0.1]","[u'medium', u'low', u'high']","blue",49,"left","medium","False","False",167,550,NA
"ALEE1QD4TW9G4","Tue Oct 27 2020 12:20:47 GMT-0500 (Central Daylight Time)","Tue Oct 27 2020 12:28:51 GMT-0500 (Central Daylight Time)","Mozilla/5.0 (Windows NT 10.0; Win64; x64) AppleWebKit/537.36 (KHTML, like Gecko) Chrome/86.0.4240.111 Safari/537.36",29,"[0.9, 0.5, 0.1]","[0.8, 0.4, 0.2]","[u'blue', u'red', u'black']","[u'left', u'middle', u'right']","[0.9, 0.5, 0.1]","[u'medium', u'low', u'high']","red",50,"middle","low","False","False",500,500,NA
"ALEE1QD4TW9G4","Tue Oct 27 2020 12:20:47 GMT-0500 (Central Daylight Time)","Tue Oct 27 2020 12:28:51 GMT-0500 (Central Daylight Time)","Mozilla/5.0 (Windows NT 10.0; Win64; x64) AppleWebKit/537.36 (KHTML, like Gecko) Chrome/86.0.4240.111 Safari/537.36",30,"[0.9, 0.5, 0.1]","[0.8, 0.4, 0.2]","[u'blue', u'red', u'black']","[u'left', u'middle', u'right']","[0.9, 0.5, 0.1]","[u'medium', u'low', u'high']","red",50,"middle","low","True","False",164,600,NA
"ALEE1QD4TW9G4","Tue Oct 27 2020 12:20:47 GMT-0500 (Central Daylight Time)","Tue Oct 27 2020 12:28:51 GMT-0500 (Central Daylight Time)","Mozilla/5.0 (Windows NT 10.0; Win64; x64) AppleWebKit/537.36 (KHTML, like Gecko) Chrome/86.0.4240.111 Safari/537.36",31,"[0.9, 0.5, 0.1]","[0.8, 0.4, 0.2]","[u'blue', u'red', u'black']","[u'left', u'middle', u'right']","[0.9, 0.5, 0.1]","[u'medium', u'low', u'high']","red",50,"middle","low","False","False",95,550,NA
"ALEE1QD4TW9G4","Tue Oct 27 2020 12:20:47 GMT-0500 (Central Daylight Time)","Tue Oct 27 2020 12:28:51 GMT-0500 (Central Daylight Time)","Mozilla/5.0 (Windows NT 10.0; Win64; x64) AppleWebKit/537.36 (KHTML, like Gecko) Chrome/86.0.4240.111 Safari/537.36",32,"[0.9, 0.5, 0.1]","[0.8, 0.4, 0.2]","[u'blue', u'red', u'black']","[u'left', u'middle', u'right']","[0.9, 0.5, 0.1]","[u'medium', u'low', u'high']","red",50,"middle","low","False","False",766,500,NA
"ALEE1QD4TW9G4","Tue Oct 27 2020 12:20:47 GMT-0500 (Central Daylight Time)","Tue Oct 27 2020 12:28:51 GMT-0500 (Central Daylight Time)","Mozilla/5.0 (Windows NT 10.0; Win64; x64) AppleWebKit/537.36 (KHTML, like Gecko) Chrome/86.0.4240.111 Safari/537.36",33,"[0.9, 0.5, 0.1]","[0.8, 0.4, 0.2]","[u'blue', u'red', u'black']","[u'left', u'middle', u'right']","[0.9, 0.5, 0.1]","[u'medium', u'low', u'high']","black",51,"right","high","True","False",483,600,NA
"ALEE1QD4TW9G4","Tue Oct 27 2020 12:20:47 GMT-0500 (Central Daylight Time)","Tue Oct 27 2020 12:28:51 GMT-0500 (Central Daylight Time)","Mozilla/5.0 (Windows NT 10.0; Win64; x64) AppleWebKit/537.36 (KHTML, like Gecko) Chrome/86.0.4240.111 Safari/537.36",34,"[0.9, 0.5, 0.1]","[0.8, 0.4, 0.2]","[u'blue', u'red', u'black']","[u'left', u'middle', u'right']","[0.9, 0.5, 0.1]","[u'medium', u'low', u'high']","black",51,"right","high","True","False",299,700,NA
"ALEE1QD4TW9G4","Tue Oct 27 2020 12:20:47 GMT-0500 (Central Daylight Time)","Tue Oct 27 2020 12:28:51 GMT-0500 (Central Daylight Time)","Mozilla/5.0 (Windows NT 10.0; Win64; x64) AppleWebKit/537.36 (KHTML, like Gecko) Chrome/86.0.4240.111 Safari/537.36",35,"[0.9, 0.5, 0.1]","[0.8, 0.4, 0.2]","[u'blue', u'red', u'black']","[u'left', u'middle', u'right']","[0.9, 0.5, 0.1]","[u'medium', u'low', u'high']","black",51,"right","high","True","False",280,800,NA
"ALEE1QD4TW9G4","Tue Oct 27 2020 12:20:47 GMT-0500 (Central Daylight Time)","Tue Oct 27 2020 12:28:51 GMT-0500 (Central Daylight Time)","Mozilla/5.0 (Windows NT 10.0; Win64; x64) AppleWebKit/537.36 (KHTML, like Gecko) Chrome/86.0.4240.111 Safari/537.36",36,"[0.9, 0.5, 0.1]","[0.8, 0.4, 0.2]","[u'blue', u'red', u'black']","[u'left', u'middle', u'right']","[0.9, 0.5, 0.1]","[u'medium', u'low', u'high']","black",51,"right","high","True","False",67,900,NA
"ALEE1QD4TW9G4","Tue Oct 27 2020 12:20:47 GMT-0500 (Central Daylight Time)","Tue Oct 27 2020 12:28:51 GMT-0500 (Central Daylight Time)","Mozilla/5.0 (Windows NT 10.0; Win64; x64) AppleWebKit/537.36 (KHTML, like Gecko) Chrome/86.0.4240.111 Safari/537.36",37,"[0.9, 0.5, 0.1]","[0.8, 0.4, 0.2]","[u'blue', u'red', u'black']","[u'left', u'middle', u'right']","[0.9, 0.5, 0.1]","[u'medium', u'low', u'high']","black",51,"right","high","True","False",292,1000,NA
"ALEE1QD4TW9G4","Tue Oct 27 2020 12:20:47 GMT-0500 (Central Daylight Time)","Tue Oct 27 2020 12:28:51 GMT-0500 (Central Daylight Time)","Mozilla/5.0 (Windows NT 10.0; Win64; x64) AppleWebKit/537.36 (KHTML, like Gecko) Chrome/86.0.4240.111 Safari/537.36",38,"[0.9, 0.5, 0.1]","[0.8, 0.4, 0.2]","[u'blue', u'red', u'black']","[u'left', u'middle', u'right']","[0.9, 0.5, 0.1]","[u'medium', u'low', u'high']","black",51,"right","high","True","False",139,1100,NA
"ALEE1QD4TW9G4","Tue Oct 27 2020 12:20:47 GMT-0500 (Central Daylight Time)","Tue Oct 27 2020 12:28:51 GMT-0500 (Central Daylight Time)","Mozilla/5.0 (Windows NT 10.0; Win64; x64) AppleWebKit/537.36 (KHTML, like Gecko) Chrome/86.0.4240.111 Safari/537.36",39,"[0.9, 0.5, 0.1]","[0.8, 0.4, 0.2]","[u'blue', u'red', u'black']","[u'left', u'middle', u'right']","[0.9, 0.5, 0.1]","[u'medium', u'low', u'high']","black",51,"right","high","True","False",162,1200,NA
"ALEE1QD4TW9G4","Tue Oct 27 2020 12:20:47 GMT-0500 (Central Daylight Time)","Tue Oct 27 2020 12:28:51 GMT-0500 (Central Daylight Time)","Mozilla/5.0 (Windows NT 10.0; Win64; x64) AppleWebKit/537.36 (KHTML, like Gecko) Chrome/86.0.4240.111 Safari/537.36",40,"[0.9, 0.5, 0.1]","[0.8, 0.4, 0.2]","[u'blue', u'red', u'black']","[u'left', u'middle', u'right']","[0.9, 0.5, 0.1]","[u'medium', u'low', u'high']","black",51,"right","high","True","False",287,1300,NA
"ALEE1QD4TW9G4","Tue Oct 27 2020 12:20:47 GMT-0500 (Central Daylight Time)","Tue Oct 27 2020 12:28:51 GMT-0500 (Central Daylight Time)","Mozilla/5.0 (Windows NT 10.0; Win64; x64) AppleWebKit/537.36 (KHTML, like Gecko) Chrome/86.0.4240.111 Safari/537.36",41,"[0.9, 0.5, 0.1]","[0.8, 0.4, 0.2]","[u'blue', u'red', u'black']","[u'left', u'middle', u'right']","[0.9, 0.5, 0.1]","[u'low', u'high', u'medium']","blue",49,"left","low","False","False",679,1250,NA
"ALEE1QD4TW9G4","Tue Oct 27 2020 12:20:47 GMT-0500 (Central Daylight Time)","Tue Oct 27 2020 12:28:51 GMT-0500 (Central Daylight Time)","Mozilla/5.0 (Windows NT 10.0; Win64; x64) AppleWebKit/537.36 (KHTML, like Gecko) Chrome/86.0.4240.111 Safari/537.36",42,"[0.9, 0.5, 0.1]","[0.8, 0.4, 0.2]","[u'blue', u'red', u'black']","[u'left', u'middle', u'right']","[0.9, 0.5, 0.1]","[u'low', u'high', u'medium']","red",50,"middle","high","True","False",286,1350,NA
"ALEE1QD4TW9G4","Tue Oct 27 2020 12:20:47 GMT-0500 (Central Daylight Time)","Tue Oct 27 2020 12:28:51 GMT-0500 (Central Daylight Time)","Mozilla/5.0 (Windows NT 10.0; Win64; x64) AppleWebKit/537.36 (KHTML, like Gecko) Chrome/86.0.4240.111 Safari/537.36",43,"[0.9, 0.5, 0.1]","[0.8, 0.4, 0.2]","[u'blue', u'red', u'black']","[u'left', u'middle', u'right']","[0.9, 0.5, 0.1]","[u'low', u'high', u'medium']","red",50,"middle","high","True","False",243,1450,NA
"ALEE1QD4TW9G4","Tue Oct 27 2020 12:20:47 GMT-0500 (Central Daylight Time)","Tue Oct 27 2020 12:28:51 GMT-0500 (Central Daylight Time)","Mozilla/5.0 (Windows NT 10.0; Win64; x64) AppleWebKit/537.36 (KHTML, like Gecko) Chrome/86.0.4240.111 Safari/537.36",44,"[0.9, 0.5, 0.1]","[0.8, 0.4, 0.2]","[u'blue', u'red', u'black']","[u'left', u'middle', u'right']","[0.9, 0.5, 0.1]","[u'low', u'high', u'medium']","red",50,"middle","high","True","False",182,1550,NA
"ALEE1QD4TW9G4","Tue Oct 27 2020 12:20:47 GMT-0500 (Central Daylight Time)","Tue Oct 27 2020 12:28:51 GMT-0500 (Central Daylight Time)","Mozilla/5.0 (Windows NT 10.0; Win64; x64) AppleWebKit/537.36 (KHTML, like Gecko) Chrome/86.0.4240.111 Safari/537.36",45,"[0.9, 0.5, 0.1]","[0.8, 0.4, 0.2]","[u'blue', u'red', u'black']","[u'left', u'middle', u'right']","[0.9, 0.5, 0.1]","[u'low', u'high', u'medium']","red",50,"middle","high","True","False",298,1650,NA
"ALEE1QD4TW9G4","Tue Oct 27 2020 12:20:47 GMT-0500 (Central Daylight Time)","Tue Oct 27 2020 12:28:51 GMT-0500 (Central Daylight Time)","Mozilla/5.0 (Windows NT 10.0; Win64; x64) AppleWebKit/537.36 (KHTML, like Gecko) Chrome/86.0.4240.111 Safari/537.36",46,"[0.9, 0.5, 0.1]","[0.8, 0.4, 0.2]","[u'blue', u'red', u'black']","[u'left', u'middle', u'right']","[0.9, 0.5, 0.1]","[u'low', u'high', u'medium']","red",50,"middle","high","True","False",333,1750,NA
"ALEE1QD4TW9G4","Tue Oct 27 2020 12:20:47 GMT-0500 (Central Daylight Time)","Tue Oct 27 2020 12:28:51 GMT-0500 (Central Daylight Time)","Mozilla/5.0 (Windows NT 10.0; Win64; x64) AppleWebKit/537.36 (KHTML, like Gecko) Chrome/86.0.4240.111 Safari/537.36",47,"[0.9, 0.5, 0.1]","[0.8, 0.4, 0.2]","[u'blue', u'red', u'black']","[u'left', u'middle', u'right']","[0.9, 0.5, 0.1]","[u'low', u'high', u'medium']","red",50,"middle","high","True","False",483,1850,NA
"ALEE1QD4TW9G4","Tue Oct 27 2020 12:20:47 GMT-0500 (Central Daylight Time)","Tue Oct 27 2020 12:28:51 GMT-0500 (Central Daylight Time)","Mozilla/5.0 (Windows NT 10.0; Win64; x64) AppleWebKit/537.36 (KHTML, like Gecko) Chrome/86.0.4240.111 Safari/537.36",48,"[0.9, 0.5, 0.1]","[0.8, 0.4, 0.2]","[u'blue', u'red', u'black']","[u'left', u'middle', u'right']","[0.9, 0.5, 0.1]","[u'low', u'high', u'medium']","red",50,"middle","high","True","False",627,1950,NA
"ALEE1QD4TW9G4","Tue Oct 27 2020 12:20:47 GMT-0500 (Central Daylight Time)","Tue Oct 27 2020 12:28:51 GMT-0500 (Central Daylight Time)","Mozilla/5.0 (Windows NT 10.0; Win64; x64) AppleWebKit/537.36 (KHTML, like Gecko) Chrome/86.0.4240.111 Safari/537.36",49,"[0.9, 0.5, 0.1]","[0.8, 0.4, 0.2]","[u'blue', u'red', u'black']","[u'left', u'middle', u'right']","[0.9, 0.5, 0.1]","[u'low', u'high', u'medium']","red",50,"middle","high","True","False",508,2050,NA
"ALEE1QD4TW9G4","Tue Oct 27 2020 12:20:47 GMT-0500 (Central Daylight Time)","Tue Oct 27 2020 12:28:51 GMT-0500 (Central Daylight Time)","Mozilla/5.0 (Windows NT 10.0; Win64; x64) AppleWebKit/537.36 (KHTML, like Gecko) Chrome/86.0.4240.111 Safari/537.36",50,"[0.9, 0.5, 0.1]","[0.8, 0.4, 0.2]","[u'blue', u'red', u'black']","[u'left', u'middle', u'right']","[0.9, 0.5, 0.1]","[u'low', u'high', u'medium']","red",50,"middle","high","True","True",691,2150,NA
"ALEE1QD4TW9G4","Tue Oct 27 2020 12:20:47 GMT-0500 (Central Daylight Time)","Tue Oct 27 2020 12:28:51 GMT-0500 (Central Daylight Time)","Mozilla/5.0 (Windows NT 10.0; Win64; x64) AppleWebKit/537.36 (KHTML, like Gecko) Chrome/86.0.4240.111 Safari/537.36",51,"[0.9, 0.5, 0.1]","[0.8, 0.4, 0.2]","[u'blue', u'red', u'black']","[u'left', u'middle', u'right']","[0.9, 0.5, 0.1]","[u'low', u'medium', u'high']","red",50,"middle","medium","True","False",587,2250,NA
"ALEE1QD4TW9G4","Tue Oct 27 2020 12:20:47 GMT-0500 (Central Daylight Time)","Tue Oct 27 2020 12:28:51 GMT-0500 (Central Daylight Time)","Mozilla/5.0 (Windows NT 10.0; Win64; x64) AppleWebKit/537.36 (KHTML, like Gecko) Chrome/86.0.4240.111 Safari/537.36",52,"[0.9, 0.5, 0.1]","[0.8, 0.4, 0.2]","[u'blue', u'red', u'black']","[u'left', u'middle', u'right']","[0.9, 0.5, 0.1]","[u'low', u'medium', u'high']","red",50,"middle","medium","False","False",17,2200,NA
"ALEE1QD4TW9G4","Tue Oct 27 2020 12:20:47 GMT-0500 (Central Daylight Time)","Tue Oct 27 2020 12:28:51 GMT-0500 (Central Daylight Time)","Mozilla/5.0 (Windows NT 10.0; Win64; x64) AppleWebKit/537.36 (KHTML, like Gecko) Chrome/86.0.4240.111 Safari/537.36",53,"[0.9, 0.5, 0.1]","[0.8, 0.4, 0.2]","[u'blue', u'red', u'black']","[u'left', u'middle', u'right']","[0.9, 0.5, 0.1]","[u'low', u'medium', u'high']","black",51,"right","high","True","False",2157,2300,NA
"ALEE1QD4TW9G4","Tue Oct 27 2020 12:20:47 GMT-0500 (Central Daylight Time)","Tue Oct 27 2020 12:28:51 GMT-0500 (Central Daylight Time)","Mozilla/5.0 (Windows NT 10.0; Win64; x64) AppleWebKit/537.36 (KHTML, like Gecko) Chrome/86.0.4240.111 Safari/537.36",54,"[0.9, 0.5, 0.1]","[0.8, 0.4, 0.2]","[u'blue', u'red', u'black']","[u'left', u'middle', u'right']","[0.9, 0.5, 0.1]","[u'low', u'medium', u'high']","black",51,"right","high","True","False",326,2400,NA
"ALEE1QD4TW9G4","Tue Oct 27 2020 12:20:47 GMT-0500 (Central Daylight Time)","Tue Oct 27 2020 12:28:51 GMT-0500 (Central Daylight Time)","Mozilla/5.0 (Windows NT 10.0; Win64; x64) AppleWebKit/537.36 (KHTML, like Gecko) Chrome/86.0.4240.111 Safari/537.36",55,"[0.9, 0.5, 0.1]","[0.8, 0.4, 0.2]","[u'blue', u'red', u'black']","[u'left', u'middle', u'right']","[0.9, 0.5, 0.1]","[u'low', u'medium', u'high']","black",51,"right","high","True","False",315,2500,NA
"ALEE1QD4TW9G4","Tue Oct 27 2020 12:20:47 GMT-0500 (Central Daylight Time)","Tue Oct 27 2020 12:28:51 GMT-0500 (Central Daylight Time)","Mozilla/5.0 (Windows NT 10.0; Win64; x64) AppleWebKit/537.36 (KHTML, like Gecko) Chrome/86.0.4240.111 Safari/537.36",56,"[0.9, 0.5, 0.1]","[0.8, 0.4, 0.2]","[u'blue', u'red', u'black']","[u'left', u'middle', u'right']","[0.9, 0.5, 0.1]","[u'low', u'medium', u'high']","black",51,"right","high","False","False",285,2450,NA
"ALEE1QD4TW9G4","Tue Oct 27 2020 12:20:47 GMT-0500 (Central Daylight Time)","Tue Oct 27 2020 12:28:51 GMT-0500 (Central Daylight Time)","Mozilla/5.0 (Windows NT 10.0; Win64; x64) AppleWebKit/537.36 (KHTML, like Gecko) Chrome/86.0.4240.111 Safari/537.36",57,"[0.9, 0.5, 0.1]","[0.8, 0.4, 0.2]","[u'blue', u'red', u'black']","[u'left', u'middle', u'right']","[0.9, 0.5, 0.1]","[u'low', u'medium', u'high']","black",51,"right","high","True","False",185,2550,NA
"ALEE1QD4TW9G4","Tue Oct 27 2020 12:20:47 GMT-0500 (Central Daylight Time)","Tue Oct 27 2020 12:28:51 GMT-0500 (Central Daylight Time)","Mozilla/5.0 (Windows NT 10.0; Win64; x64) AppleWebKit/537.36 (KHTML, like Gecko) Chrome/86.0.4240.111 Safari/537.36",58,"[0.9, 0.5, 0.1]","[0.8, 0.4, 0.2]","[u'blue', u'red', u'black']","[u'left', u'middle', u'right']","[0.9, 0.5, 0.1]","[u'low', u'medium', u'high']","black",51,"right","high","True","False",270,2650,NA
"ALEE1QD4TW9G4","Tue Oct 27 2020 12:20:47 GMT-0500 (Central Daylight Time)","Tue Oct 27 2020 12:28:51 GMT-0500 (Central Daylight Time)","Mozilla/5.0 (Windows NT 10.0; Win64; x64) AppleWebKit/537.36 (KHTML, like Gecko) Chrome/86.0.4240.111 Safari/537.36",59,"[0.9, 0.5, 0.1]","[0.8, 0.4, 0.2]","[u'blue', u'red', u'black']","[u'left', u'middle', u'right']","[0.9, 0.5, 0.1]","[u'low', u'medium', u'high']","black",51,"right","high","True","False",273,2750,NA
"ALEE1QD4TW9G4","Tue Oct 27 2020 12:20:47 GMT-0500 (Central Daylight Time)","Tue Oct 27 2020 12:28:51 GMT-0500 (Central Daylight Time)","Mozilla/5.0 (Windows NT 10.0; Win64; x64) AppleWebKit/537.36 (KHTML, like Gecko) Chrome/86.0.4240.111 Safari/537.36",60,"[0.9, 0.5, 0.1]","[0.8, 0.4, 0.2]","[u'blue', u'red', u'black']","[u'left', u'middle', u'right']","[0.9, 0.5, 0.1]","[u'low', u'medium', u'high']","black",51,"right","high","True","False",243,2850,NA
"ALEE1QD4TW9G4","Tue Oct 27 2020 12:20:47 GMT-0500 (Central Daylight Time)","Tue Oct 27 2020 12:28:51 GMT-0500 (Central Daylight Time)","Mozilla/5.0 (Windows NT 10.0; Win64; x64) AppleWebKit/537.36 (KHTML, like Gecko) Chrome/86.0.4240.111 Safari/537.36",61,"[0.9, 0.5, 0.1]","[0.8, 0.4, 0.2]","[u'blue', u'red', u'black']","[u'left', u'middle', u'right']","[0.9, 0.5, 0.1]","[u'low', u'medium', u'high']","black",51,"right","high","True","True",233,2950,NA
"ALEE1QD4TW9G4","Tue Oct 27 2020 12:20:47 GMT-0500 (Central Daylight Time)","Tue Oct 27 2020 12:28:51 GMT-0500 (Central Daylight Time)","Mozilla/5.0 (Windows NT 10.0; Win64; x64) AppleWebKit/537.36 (KHTML, like Gecko) Chrome/86.0.4240.111 Safari/537.36",62,"[0.9, 0.5, 0.1]","[0.8, 0.4, 0.2]","[u'blue', u'red', u'black']","[u'left', u'middle', u'right']","[0.9, 0.5, 0.1]","[u'low', u'high', u'medium']","black",51,"right","medium","False","False",322,2900,NA
"ALEE1QD4TW9G4","Tue Oct 27 2020 12:20:47 GMT-0500 (Central Daylight Time)","Tue Oct 27 2020 12:28:51 GMT-0500 (Central Daylight Time)","Mozilla/5.0 (Windows NT 10.0; Win64; x64) AppleWebKit/537.36 (KHTML, like Gecko) Chrome/86.0.4240.111 Safari/537.36",63,"[0.9, 0.5, 0.1]","[0.8, 0.4, 0.2]","[u'blue', u'red', u'black']","[u'left', u'middle', u'right']","[0.9, 0.5, 0.1]","[u'low', u'high', u'medium']","black",51,"right","medium","False","False",216,2850,NA
"ALEE1QD4TW9G4","Tue Oct 27 2020 12:20:47 GMT-0500 (Central Daylight Time)","Tue Oct 27 2020 12:28:51 GMT-0500 (Central Daylight Time)","Mozilla/5.0 (Windows NT 10.0; Win64; x64) AppleWebKit/537.36 (KHTML, like Gecko) Chrome/86.0.4240.111 Safari/537.36",64,"[0.9, 0.5, 0.1]","[0.8, 0.4, 0.2]","[u'blue', u'red', u'black']","[u'left', u'middle', u'right']","[0.9, 0.5, 0.1]","[u'low', u'high', u'medium']","black",51,"right","medium","True","False",383,2950,NA
"ALEE1QD4TW9G4","Tue Oct 27 2020 12:20:47 GMT-0500 (Central Daylight Time)","Tue Oct 27 2020 12:28:51 GMT-0500 (Central Daylight Time)","Mozilla/5.0 (Windows NT 10.0; Win64; x64) AppleWebKit/537.36 (KHTML, like Gecko) Chrome/86.0.4240.111 Safari/537.36",65,"[0.9, 0.5, 0.1]","[0.8, 0.4, 0.2]","[u'blue', u'red', u'black']","[u'left', u'middle', u'right']","[0.9, 0.5, 0.1]","[u'low', u'high', u'medium']","black",51,"right","medium","True","False",207,3050,NA
"ALEE1QD4TW9G4","Tue Oct 27 2020 12:20:47 GMT-0500 (Central Daylight Time)","Tue Oct 27 2020 12:28:51 GMT-0500 (Central Daylight Time)","Mozilla/5.0 (Windows NT 10.0; Win64; x64) AppleWebKit/537.36 (KHTML, like Gecko) Chrome/86.0.4240.111 Safari/537.36",66,"[0.9, 0.5, 0.1]","[0.8, 0.4, 0.2]","[u'blue', u'red', u'black']","[u'left', u'middle', u'right']","[0.9, 0.5, 0.1]","[u'low', u'high', u'medium']","black",51,"right","medium","True","False",114,3150,NA
"ALEE1QD4TW9G4","Tue Oct 27 2020 12:20:47 GMT-0500 (Central Daylight Time)","Tue Oct 27 2020 12:28:51 GMT-0500 (Central Daylight Time)","Mozilla/5.0 (Windows NT 10.0; Win64; x64) AppleWebKit/537.36 (KHTML, like Gecko) Chrome/86.0.4240.111 Safari/537.36",67,"[0.9, 0.5, 0.1]","[0.8, 0.4, 0.2]","[u'blue', u'red', u'black']","[u'left', u'middle', u'right']","[0.9, 0.5, 0.1]","[u'low', u'high', u'medium']","black",51,"right","medium","False","False",341,3100,NA
"ALEE1QD4TW9G4","Tue Oct 27 2020 12:20:47 GMT-0500 (Central Daylight Time)","Tue Oct 27 2020 12:28:51 GMT-0500 (Central Daylight Time)","Mozilla/5.0 (Windows NT 10.0; Win64; x64) AppleWebKit/537.36 (KHTML, like Gecko) Chrome/86.0.4240.111 Safari/537.36",68,"[0.9, 0.5, 0.1]","[0.8, 0.4, 0.2]","[u'blue', u'red', u'black']","[u'left', u'middle', u'right']","[0.9, 0.5, 0.1]","[u'low', u'high', u'medium']","black",51,"right","medium","False","False",298,3050,NA
"ALEE1QD4TW9G4","Tue Oct 27 2020 12:20:47 GMT-0500 (Central Daylight Time)","Tue Oct 27 2020 12:28:51 GMT-0500 (Central Daylight Time)","Mozilla/5.0 (Windows NT 10.0; Win64; x64) AppleWebKit/537.36 (KHTML, like Gecko) Chrome/86.0.4240.111 Safari/537.36",69,"[0.9, 0.5, 0.1]","[0.8, 0.4, 0.2]","[u'blue', u'red', u'black']","[u'left', u'middle', u'right']","[0.9, 0.5, 0.1]","[u'low', u'high', u'medium']","black",51,"right","medium","True","False",258,3150,NA
"ALEE1QD4TW9G4","Tue Oct 27 2020 12:20:47 GMT-0500 (Central Daylight Time)","Tue Oct 27 2020 12:28:51 GMT-0500 (Central Daylight Time)","Mozilla/5.0 (Windows NT 10.0; Win64; x64) AppleWebKit/537.36 (KHTML, like Gecko) Chrome/86.0.4240.111 Safari/537.36",70,"[0.9, 0.5, 0.1]","[0.8, 0.4, 0.2]","[u'blue', u'red', u'black']","[u'left', u'middle', u'right']","[0.9, 0.5, 0.1]","[u'low', u'high', u'medium']","black",51,"right","medium","True","False",417,3250,NA
"ALEE1QD4TW9G4","Tue Oct 27 2020 12:20:47 GMT-0500 (Central Daylight Time)","Tue Oct 27 2020 12:28:51 GMT-0500 (Central Daylight Time)","Mozilla/5.0 (Windows NT 10.0; Win64; x64) AppleWebKit/537.36 (KHTML, like Gecko) Chrome/86.0.4240.111 Safari/537.36",71,"[0.9, 0.5, 0.1]","[0.8, 0.4, 0.2]","[u'blue', u'red', u'black']","[u'left', u'middle', u'right']","[0.9, 0.5, 0.1]","[u'low', u'high', u'medium']","black",51,"right","medium","True","False",312,3350,NA
"ALEE1QD4TW9G4","Tue Oct 27 2020 12:20:47 GMT-0500 (Central Daylight Time)","Tue Oct 27 2020 12:28:51 GMT-0500 (Central Daylight Time)","Mozilla/5.0 (Windows NT 10.0; Win64; x64) AppleWebKit/537.36 (KHTML, like Gecko) Chrome/86.0.4240.111 Safari/537.36",72,"[0.9, 0.5, 0.1]","[0.8, 0.4, 0.2]","[u'blue', u'red', u'black']","[u'left', u'middle', u'right']","[0.9, 0.5, 0.1]","[u'low', u'high', u'medium']","black",51,"right","medium","True","False",247,3450,NA
"ALEE1QD4TW9G4","Tue Oct 27 2020 12:20:47 GMT-0500 (Central Daylight Time)","Tue Oct 27 2020 12:28:51 GMT-0500 (Central Daylight Time)","Mozilla/5.0 (Windows NT 10.0; Win64; x64) AppleWebKit/537.36 (KHTML, like Gecko) Chrome/86.0.4240.111 Safari/537.36",73,"[0.9, 0.5, 0.1]","[0.8, 0.4, 0.2]","[u'blue', u'red', u'black']","[u'left', u'middle', u'right']","[0.9, 0.5, 0.1]","[u'low', u'high', u'medium']","black",51,"right","medium","True","False",227,3550,NA
"ALEE1QD4TW9G4","Tue Oct 27 2020 12:20:47 GMT-0500 (Central Daylight Time)","Tue Oct 27 2020 12:28:51 GMT-0500 (Central Daylight Time)","Mozilla/5.0 (Windows NT 10.0; Win64; x64) AppleWebKit/537.36 (KHTML, like Gecko) Chrome/86.0.4240.111 Safari/537.36",74,"[0.9, 0.5, 0.1]","[0.8, 0.4, 0.2]","[u'blue', u'red', u'black']","[u'left', u'middle', u'right']","[0.9, 0.5, 0.1]","[u'low', u'high', u'medium']","black",51,"right","medium","False","False",58,3500,NA
"ALEE1QD4TW9G4","Tue Oct 27 2020 12:20:47 GMT-0500 (Central Daylight Time)","Tue Oct 27 2020 12:28:51 GMT-0500 (Central Daylight Time)","Mozilla/5.0 (Windows NT 10.0; Win64; x64) AppleWebKit/537.36 (KHTML, like Gecko) Chrome/86.0.4240.111 Safari/537.36",75,"[0.9, 0.5, 0.1]","[0.8, 0.4, 0.2]","[u'blue', u'red', u'black']","[u'left', u'middle', u'right']","[0.9, 0.5, 0.1]","[u'low', u'high', u'medium']","black",51,"right","medium","False","False",122,3450,NA
"ALEE1QD4TW9G4","Tue Oct 27 2020 12:20:47 GMT-0500 (Central Daylight Time)","Tue Oct 27 2020 12:28:51 GMT-0500 (Central Daylight Time)","Mozilla/5.0 (Windows NT 10.0; Win64; x64) AppleWebKit/537.36 (KHTML, like Gecko) Chrome/86.0.4240.111 Safari/537.36",76,"[0.9, 0.5, 0.1]","[0.8, 0.4, 0.2]","[u'blue', u'red', u'black']","[u'left', u'middle', u'right']","[0.9, 0.5, 0.1]","[u'low', u'high', u'medium']","red",50,"middle","high","False","False",1235,3400,NA
"ALEE1QD4TW9G4","Tue Oct 27 2020 12:20:47 GMT-0500 (Central Daylight Time)","Tue Oct 27 2020 12:28:51 GMT-0500 (Central Daylight Time)","Mozilla/5.0 (Windows NT 10.0; Win64; x64) AppleWebKit/537.36 (KHTML, like Gecko) Chrome/86.0.4240.111 Safari/537.36",77,"[0.9, 0.5, 0.1]","[0.8, 0.4, 0.2]","[u'blue', u'red', u'black']","[u'left', u'middle', u'right']","[0.9, 0.5, 0.1]","[u'low', u'high', u'medium']","black",51,"right","medium","False","False",379,3350,NA
"ALEE1QD4TW9G4","Tue Oct 27 2020 12:20:47 GMT-0500 (Central Daylight Time)","Tue Oct 27 2020 12:28:51 GMT-0500 (Central Daylight Time)","Mozilla/5.0 (Windows NT 10.0; Win64; x64) AppleWebKit/537.36 (KHTML, like Gecko) Chrome/86.0.4240.111 Safari/537.36",78,"[0.9, 0.5, 0.1]","[0.8, 0.4, 0.2]","[u'blue', u'red', u'black']","[u'left', u'middle', u'right']","[0.9, 0.5, 0.1]","[u'low', u'high', u'medium']","blue",49,"left","low","True","False",281,3450,NA
"ALEE1QD4TW9G4","Tue Oct 27 2020 12:20:47 GMT-0500 (Central Daylight Time)","Tue Oct 27 2020 12:28:51 GMT-0500 (Central Daylight Time)","Mozilla/5.0 (Windows NT 10.0; Win64; x64) AppleWebKit/537.36 (KHTML, like Gecko) Chrome/86.0.4240.111 Safari/537.36",79,"[0.9, 0.5, 0.1]","[0.8, 0.4, 0.2]","[u'blue', u'red', u'black']","[u'left', u'middle', u'right']","[0.9, 0.5, 0.1]","[u'low', u'high', u'medium']","blue",49,"left","low","False","False",257,3400,NA
"ALEE1QD4TW9G4","Tue Oct 27 2020 12:20:47 GMT-0500 (Central Daylight Time)","Tue Oct 27 2020 12:28:51 GMT-0500 (Central Daylight Time)","Mozilla/5.0 (Windows NT 10.0; Win64; x64) AppleWebKit/537.36 (KHTML, like Gecko) Chrome/86.0.4240.111 Safari/537.36",80,"[0.9, 0.5, 0.1]","[0.8, 0.4, 0.2]","[u'blue', u'red', u'black']","[u'left', u'middle', u'right']","[0.9, 0.5, 0.1]","[u'low', u'high', u'medium']","blue",49,"left","low","False","False",323,3350,NA
"ALEE1QD4TW9G4","Tue Oct 27 2020 12:20:47 GMT-0500 (Central Daylight Time)","Tue Oct 27 2020 12:28:51 GMT-0500 (Central Daylight Time)","Mozilla/5.0 (Windows NT 10.0; Win64; x64) AppleWebKit/537.36 (KHTML, like Gecko) Chrome/86.0.4240.111 Safari/537.36",81,"[0.9, 0.5, 0.1]","[0.8, 0.4, 0.2]","[u'blue', u'red', u'black']","[u'left', u'middle', u'right']","[0.8, 0.4, 0.2]","[u'low', u'medium', u'high']","blue",49,"left","low","False","False",613,3300,NA
"ALEE1QD4TW9G4","Tue Oct 27 2020 12:20:47 GMT-0500 (Central Daylight Time)","Tue Oct 27 2020 12:28:51 GMT-0500 (Central Daylight Time)","Mozilla/5.0 (Windows NT 10.0; Win64; x64) AppleWebKit/537.36 (KHTML, like Gecko) Chrome/86.0.4240.111 Safari/537.36",82,"[0.9, 0.5, 0.1]","[0.8, 0.4, 0.2]","[u'blue', u'red', u'black']","[u'left', u'middle', u'right']","[0.8, 0.4, 0.2]","[u'low', u'medium', u'high']","red",50,"middle","medium","False","False",290,3250,NA
"ALEE1QD4TW9G4","Tue Oct 27 2020 12:20:47 GMT-0500 (Central Daylight Time)","Tue Oct 27 2020 12:28:51 GMT-0500 (Central Daylight Time)","Mozilla/5.0 (Windows NT 10.0; Win64; x64) AppleWebKit/537.36 (KHTML, like Gecko) Chrome/86.0.4240.111 Safari/537.36",83,"[0.9, 0.5, 0.1]","[0.8, 0.4, 0.2]","[u'blue', u'red', u'black']","[u'left', u'middle', u'right']","[0.8, 0.4, 0.2]","[u'low', u'medium', u'high']","black",51,"right","high","True","False",94,3350,NA
"ALEE1QD4TW9G4","Tue Oct 27 2020 12:20:47 GMT-0500 (Central Daylight Time)","Tue Oct 27 2020 12:28:51 GMT-0500 (Central Daylight Time)","Mozilla/5.0 (Windows NT 10.0; Win64; x64) AppleWebKit/537.36 (KHTML, like Gecko) Chrome/86.0.4240.111 Safari/537.36",84,"[0.9, 0.5, 0.1]","[0.8, 0.4, 0.2]","[u'blue', u'red', u'black']","[u'left', u'middle', u'right']","[0.8, 0.4, 0.2]","[u'low', u'medium', u'high']","black",51,"right","high","True","False",305,3450,NA
"ALEE1QD4TW9G4","Tue Oct 27 2020 12:20:47 GMT-0500 (Central Daylight Time)","Tue Oct 27 2020 12:28:51 GMT-0500 (Central Daylight Time)","Mozilla/5.0 (Windows NT 10.0; Win64; x64) AppleWebKit/537.36 (KHTML, like Gecko) Chrome/86.0.4240.111 Safari/537.36",85,"[0.9, 0.5, 0.1]","[0.8, 0.4, 0.2]","[u'blue', u'red', u'black']","[u'left', u'middle', u'right']","[0.8, 0.4, 0.2]","[u'low', u'medium', u'high']","black",51,"right","high","True","False",374,3550,NA
"ALEE1QD4TW9G4","Tue Oct 27 2020 12:20:47 GMT-0500 (Central Daylight Time)","Tue Oct 27 2020 12:28:51 GMT-0500 (Central Daylight Time)","Mozilla/5.0 (Windows NT 10.0; Win64; x64) AppleWebKit/537.36 (KHTML, like Gecko) Chrome/86.0.4240.111 Safari/537.36",86,"[0.9, 0.5, 0.1]","[0.8, 0.4, 0.2]","[u'blue', u'red', u'black']","[u'left', u'middle', u'right']","[0.8, 0.4, 0.2]","[u'low', u'medium', u'high']","black",51,"right","high","False","False",121,3500,NA
"ALEE1QD4TW9G4","Tue Oct 27 2020 12:20:47 GMT-0500 (Central Daylight Time)","Tue Oct 27 2020 12:28:51 GMT-0500 (Central Daylight Time)","Mozilla/5.0 (Windows NT 10.0; Win64; x64) AppleWebKit/537.36 (KHTML, like Gecko) Chrome/86.0.4240.111 Safari/537.36",87,"[0.9, 0.5, 0.1]","[0.8, 0.4, 0.2]","[u'blue', u'red', u'black']","[u'left', u'middle', u'right']","[0.8, 0.4, 0.2]","[u'low', u'medium', u'high']","black",51,"right","high","False","False",132,3450,NA
"ALEE1QD4TW9G4","Tue Oct 27 2020 12:20:47 GMT-0500 (Central Daylight Time)","Tue Oct 27 2020 12:28:51 GMT-0500 (Central Daylight Time)","Mozilla/5.0 (Windows NT 10.0; Win64; x64) AppleWebKit/537.36 (KHTML, like Gecko) Chrome/86.0.4240.111 Safari/537.36",88,"[0.9, 0.5, 0.1]","[0.8, 0.4, 0.2]","[u'blue', u'red', u'black']","[u'left', u'middle', u'right']","[0.8, 0.4, 0.2]","[u'low', u'medium', u'high']","black",51,"right","high","False","False",178,3400,NA
"ALEE1QD4TW9G4","Tue Oct 27 2020 12:20:47 GMT-0500 (Central Daylight Time)","Tue Oct 27 2020 12:28:51 GMT-0500 (Central Daylight Time)","Mozilla/5.0 (Windows NT 10.0; Win64; x64) AppleWebKit/537.36 (KHTML, like Gecko) Chrome/86.0.4240.111 Safari/537.36",89,"[0.9, 0.5, 0.1]","[0.8, 0.4, 0.2]","[u'blue', u'red', u'black']","[u'left', u'middle', u'right']","[0.8, 0.4, 0.2]","[u'low', u'medium', u'high']","blue",49,"left","low","True","False",17,3500,NA
"ALEE1QD4TW9G4","Tue Oct 27 2020 12:20:47 GMT-0500 (Central Daylight Time)","Tue Oct 27 2020 12:28:51 GMT-0500 (Central Daylight Time)","Mozilla/5.0 (Windows NT 10.0; Win64; x64) AppleWebKit/537.36 (KHTML, like Gecko) Chrome/86.0.4240.111 Safari/537.36",90,"[0.9, 0.5, 0.1]","[0.8, 0.4, 0.2]","[u'blue', u'red', u'black']","[u'left', u'middle', u'right']","[0.8, 0.4, 0.2]","[u'low', u'medium', u'high']","blue",49,"left","low","False","False",234,3450,NA
"ALEE1QD4TW9G4","Tue Oct 27 2020 12:20:47 GMT-0500 (Central Daylight Time)","Tue Oct 27 2020 12:28:51 GMT-0500 (Central Daylight Time)","Mozilla/5.0 (Windows NT 10.0; Win64; x64) AppleWebKit/537.36 (KHTML, like Gecko) Chrome/86.0.4240.111 Safari/537.36",91,"[0.9, 0.5, 0.1]","[0.8, 0.4, 0.2]","[u'blue', u'red', u'black']","[u'left', u'middle', u'right']","[0.8, 0.4, 0.2]","[u'low', u'medium', u'high']","blue",49,"left","low","False","False",292,3400,NA
"ALEE1QD4TW9G4","Tue Oct 27 2020 12:20:47 GMT-0500 (Central Daylight Time)","Tue Oct 27 2020 12:28:51 GMT-0500 (Central Daylight Time)","Mozilla/5.0 (Windows NT 10.0; Win64; x64) AppleWebKit/537.36 (KHTML, like Gecko) Chrome/86.0.4240.111 Safari/537.36",92,"[0.9, 0.5, 0.1]","[0.8, 0.4, 0.2]","[u'blue', u'red', u'black']","[u'left', u'middle', u'right']","[0.8, 0.4, 0.2]","[u'low', u'medium', u'high']","red",50,"middle","medium","False","False",231,3350,NA
"ALEE1QD4TW9G4","Tue Oct 27 2020 12:20:47 GMT-0500 (Central Daylight Time)","Tue Oct 27 2020 12:28:51 GMT-0500 (Central Daylight Time)","Mozilla/5.0 (Windows NT 10.0; Win64; x64) AppleWebKit/537.36 (KHTML, like Gecko) Chrome/86.0.4240.111 Safari/537.36",93,"[0.9, 0.5, 0.1]","[0.8, 0.4, 0.2]","[u'blue', u'red', u'black']","[u'left', u'middle', u'right']","[0.8, 0.4, 0.2]","[u'low', u'medium', u'high']","black",51,"right","high","True","False",12,3450,NA
"ALEE1QD4TW9G4","Tue Oct 27 2020 12:20:47 GMT-0500 (Central Daylight Time)","Tue Oct 27 2020 12:28:51 GMT-0500 (Central Daylight Time)","Mozilla/5.0 (Windows NT 10.0; Win64; x64) AppleWebKit/537.36 (KHTML, like Gecko) Chrome/86.0.4240.111 Safari/537.36",94,"[0.9, 0.5, 0.1]","[0.8, 0.4, 0.2]","[u'blue', u'red', u'black']","[u'left', u'middle', u'right']","[0.8, 0.4, 0.2]","[u'low', u'medium', u'high']","black",51,"right","high","False","False",129,3400,NA
"ALEE1QD4TW9G4","Tue Oct 27 2020 12:20:47 GMT-0500 (Central Daylight Time)","Tue Oct 27 2020 12:28:51 GMT-0500 (Central Daylight Time)","Mozilla/5.0 (Windows NT 10.0; Win64; x64) AppleWebKit/537.36 (KHTML, like Gecko) Chrome/86.0.4240.111 Safari/537.36",95,"[0.9, 0.5, 0.1]","[0.8, 0.4, 0.2]","[u'blue', u'red', u'black']","[u'left', u'middle', u'right']","[0.8, 0.4, 0.2]","[u'low', u'medium', u'high']","black",51,"right","high","True","False",21,3500,NA
"ALEE1QD4TW9G4","Tue Oct 27 2020 12:20:47 GMT-0500 (Central Daylight Time)","Tue Oct 27 2020 12:28:51 GMT-0500 (Central Daylight Time)","Mozilla/5.0 (Windows NT 10.0; Win64; x64) AppleWebKit/537.36 (KHTML, like Gecko) Chrome/86.0.4240.111 Safari/537.36",96,"[0.9, 0.5, 0.1]","[0.8, 0.4, 0.2]","[u'blue', u'red', u'black']","[u'left', u'middle', u'right']","[0.8, 0.4, 0.2]","[u'low', u'medium', u'high']","black",51,"right","high","True","False",19,3600,NA
"ALEE1QD4TW9G4","Tue Oct 27 2020 12:20:47 GMT-0500 (Central Daylight Time)","Tue Oct 27 2020 12:28:51 GMT-0500 (Central Daylight Time)","Mozilla/5.0 (Windows NT 10.0; Win64; x64) AppleWebKit/537.36 (KHTML, like Gecko) Chrome/86.0.4240.111 Safari/537.36",97,"[0.9, 0.5, 0.1]","[0.8, 0.4, 0.2]","[u'blue', u'red', u'black']","[u'left', u'middle', u'right']","[0.8, 0.4, 0.2]","[u'low', u'medium', u'high']","black",51,"right","high","True","False",237,3700,NA
"ALEE1QD4TW9G4","Tue Oct 27 2020 12:20:47 GMT-0500 (Central Daylight Time)","Tue Oct 27 2020 12:28:51 GMT-0500 (Central Daylight Time)","Mozilla/5.0 (Windows NT 10.0; Win64; x64) AppleWebKit/537.36 (KHTML, like Gecko) Chrome/86.0.4240.111 Safari/537.36",98,"[0.9, 0.5, 0.1]","[0.8, 0.4, 0.2]","[u'blue', u'red', u'black']","[u'left', u'middle', u'right']","[0.8, 0.4, 0.2]","[u'low', u'medium', u'high']","black",51,"right","high","True","False",226,3800,NA
"ALEE1QD4TW9G4","Tue Oct 27 2020 12:20:47 GMT-0500 (Central Daylight Time)","Tue Oct 27 2020 12:28:51 GMT-0500 (Central Daylight Time)","Mozilla/5.0 (Windows NT 10.0; Win64; x64) AppleWebKit/537.36 (KHTML, like Gecko) Chrome/86.0.4240.111 Safari/537.36",99,"[0.9, 0.5, 0.1]","[0.8, 0.4, 0.2]","[u'blue', u'red', u'black']","[u'left', u'middle', u'right']","[0.8, 0.4, 0.2]","[u'low', u'medium', u'high']","black",51,"right","high","True","False",193,3900,NA
"ALEE1QD4TW9G4","Tue Oct 27 2020 12:20:47 GMT-0500 (Central Daylight Time)","Tue Oct 27 2020 12:28:51 GMT-0500 (Central Daylight Time)","Mozilla/5.0 (Windows NT 10.0; Win64; x64) AppleWebKit/537.36 (KHTML, like Gecko) Chrome/86.0.4240.111 Safari/537.36",100,"[0.9, 0.5, 0.1]","[0.8, 0.4, 0.2]","[u'blue', u'red', u'black']","[u'left', u'middle', u'right']","[0.8, 0.4, 0.2]","[u'low', u'medium', u'high']","black",51,"right","high","False","False",197,3850,NA
"ALEE1QD4TW9G4","Tue Oct 27 2020 12:20:47 GMT-0500 (Central Daylight Time)","Tue Oct 27 2020 12:28:51 GMT-0500 (Central Daylight Time)","Mozilla/5.0 (Windows NT 10.0; Win64; x64) AppleWebKit/537.36 (KHTML, like Gecko) Chrome/86.0.4240.111 Safari/537.36",101,"[0.9, 0.5, 0.1]","[0.8, 0.4, 0.2]","[u'blue', u'red', u'black']","[u'left', u'middle', u'right']","[0.8, 0.4, 0.2]","[u'low', u'medium', u'high']","black",51,"right","high","False","True",280,3800,NA
"ALEE1QD4TW9G4","Tue Oct 27 2020 12:20:47 GMT-0500 (Central Daylight Time)","Tue Oct 27 2020 12:28:51 GMT-0500 (Central Daylight Time)","Mozilla/5.0 (Windows NT 10.0; Win64; x64) AppleWebKit/537.36 (KHTML, like Gecko) Chrome/86.0.4240.111 Safari/537.36",102,"[0.9, 0.5, 0.1]","[0.8, 0.4, 0.2]","[u'blue', u'red', u'black']","[u'left', u'middle', u'right']","[0.8, 0.4, 0.2]","[u'high', u'medium', u'low']","black",51,"right","low","False","False",268,3750,NA
"ALEE1QD4TW9G4","Tue Oct 27 2020 12:20:47 GMT-0500 (Central Daylight Time)","Tue Oct 27 2020 12:28:51 GMT-0500 (Central Daylight Time)","Mozilla/5.0 (Windows NT 10.0; Win64; x64) AppleWebKit/537.36 (KHTML, like Gecko) Chrome/86.0.4240.111 Safari/537.36",103,"[0.9, 0.5, 0.1]","[0.8, 0.4, 0.2]","[u'blue', u'red', u'black']","[u'left', u'middle', u'right']","[0.8, 0.4, 0.2]","[u'high', u'medium', u'low']","blue",49,"left","high","True","False",323,3850,NA
"ALEE1QD4TW9G4","Tue Oct 27 2020 12:20:47 GMT-0500 (Central Daylight Time)","Tue Oct 27 2020 12:28:51 GMT-0500 (Central Daylight Time)","Mozilla/5.0 (Windows NT 10.0; Win64; x64) AppleWebKit/537.36 (KHTML, like Gecko) Chrome/86.0.4240.111 Safari/537.36",104,"[0.9, 0.5, 0.1]","[0.8, 0.4, 0.2]","[u'blue', u'red', u'black']","[u'left', u'middle', u'right']","[0.8, 0.4, 0.2]","[u'high', u'medium', u'low']","blue",49,"left","high","True","False",144,3950,NA
"ALEE1QD4TW9G4","Tue Oct 27 2020 12:20:47 GMT-0500 (Central Daylight Time)","Tue Oct 27 2020 12:28:51 GMT-0500 (Central Daylight Time)","Mozilla/5.0 (Windows NT 10.0; Win64; x64) AppleWebKit/537.36 (KHTML, like Gecko) Chrome/86.0.4240.111 Safari/537.36",105,"[0.9, 0.5, 0.1]","[0.8, 0.4, 0.2]","[u'blue', u'red', u'black']","[u'left', u'middle', u'right']","[0.8, 0.4, 0.2]","[u'high', u'medium', u'low']","blue",49,"left","high","True","False",389,4050,NA
"ALEE1QD4TW9G4","Tue Oct 27 2020 12:20:47 GMT-0500 (Central Daylight Time)","Tue Oct 27 2020 12:28:51 GMT-0500 (Central Daylight Time)","Mozilla/5.0 (Windows NT 10.0; Win64; x64) AppleWebKit/537.36 (KHTML, like Gecko) Chrome/86.0.4240.111 Safari/537.36",106,"[0.9, 0.5, 0.1]","[0.8, 0.4, 0.2]","[u'blue', u'red', u'black']","[u'left', u'middle', u'right']","[0.8, 0.4, 0.2]","[u'high', u'medium', u'low']","blue",49,"left","high","True","False",257,4150,NA
"ALEE1QD4TW9G4","Tue Oct 27 2020 12:20:47 GMT-0500 (Central Daylight Time)","Tue Oct 27 2020 12:28:51 GMT-0500 (Central Daylight Time)","Mozilla/5.0 (Windows NT 10.0; Win64; x64) AppleWebKit/537.36 (KHTML, like Gecko) Chrome/86.0.4240.111 Safari/537.36",107,"[0.9, 0.5, 0.1]","[0.8, 0.4, 0.2]","[u'blue', u'red', u'black']","[u'left', u'middle', u'right']","[0.8, 0.4, 0.2]","[u'high', u'medium', u'low']","blue",49,"left","high","True","False",266,4250,NA
"ALEE1QD4TW9G4","Tue Oct 27 2020 12:20:47 GMT-0500 (Central Daylight Time)","Tue Oct 27 2020 12:28:51 GMT-0500 (Central Daylight Time)","Mozilla/5.0 (Windows NT 10.0; Win64; x64) AppleWebKit/537.36 (KHTML, like Gecko) Chrome/86.0.4240.111 Safari/537.36",108,"[0.9, 0.5, 0.1]","[0.8, 0.4, 0.2]","[u'blue', u'red', u'black']","[u'left', u'middle', u'right']","[0.8, 0.4, 0.2]","[u'high', u'medium', u'low']","blue",49,"left","high","True","False",163,4350,NA
"ALEE1QD4TW9G4","Tue Oct 27 2020 12:20:47 GMT-0500 (Central Daylight Time)","Tue Oct 27 2020 12:28:51 GMT-0500 (Central Daylight Time)","Mozilla/5.0 (Windows NT 10.0; Win64; x64) AppleWebKit/537.36 (KHTML, like Gecko) Chrome/86.0.4240.111 Safari/537.36",109,"[0.9, 0.5, 0.1]","[0.8, 0.4, 0.2]","[u'blue', u'red', u'black']","[u'left', u'middle', u'right']","[0.8, 0.4, 0.2]","[u'high', u'medium', u'low']","blue",49,"left","high","True","False",547,4450,NA
"ALEE1QD4TW9G4","Tue Oct 27 2020 12:20:47 GMT-0500 (Central Daylight Time)","Tue Oct 27 2020 12:28:51 GMT-0500 (Central Daylight Time)","Mozilla/5.0 (Windows NT 10.0; Win64; x64) AppleWebKit/537.36 (KHTML, like Gecko) Chrome/86.0.4240.111 Safari/537.36",110,"[0.9, 0.5, 0.1]","[0.8, 0.4, 0.2]","[u'blue', u'red', u'black']","[u'left', u'middle', u'right']","[0.8, 0.4, 0.2]","[u'high', u'medium', u'low']","blue",49,"left","high","True","False",76,4550,NA
"ALEE1QD4TW9G4","Tue Oct 27 2020 12:20:47 GMT-0500 (Central Daylight Time)","Tue Oct 27 2020 12:28:51 GMT-0500 (Central Daylight Time)","Mozilla/5.0 (Windows NT 10.0; Win64; x64) AppleWebKit/537.36 (KHTML, like Gecko) Chrome/86.0.4240.111 Safari/537.36",111,"[0.9, 0.5, 0.1]","[0.8, 0.4, 0.2]","[u'blue', u'red', u'black']","[u'left', u'middle', u'right']","[0.8, 0.4, 0.2]","[u'high', u'medium', u'low']","blue",49,"left","high","False","True",10,4500,NA
"ALEE1QD4TW9G4","Tue Oct 27 2020 12:20:47 GMT-0500 (Central Daylight Time)","Tue Oct 27 2020 12:28:51 GMT-0500 (Central Daylight Time)","Mozilla/5.0 (Windows NT 10.0; Win64; x64) AppleWebKit/537.36 (KHTML, like Gecko) Chrome/86.0.4240.111 Safari/537.36",112,"[0.9, 0.5, 0.1]","[0.8, 0.4, 0.2]","[u'blue', u'red', u'black']","[u'left', u'middle', u'right']","[0.8, 0.4, 0.2]","[u'medium', u'high', u'low']","blue",49,"left","medium","True","False",18,4600,NA
"ALEE1QD4TW9G4","Tue Oct 27 2020 12:20:47 GMT-0500 (Central Daylight Time)","Tue Oct 27 2020 12:28:51 GMT-0500 (Central Daylight Time)","Mozilla/5.0 (Windows NT 10.0; Win64; x64) AppleWebKit/537.36 (KHTML, like Gecko) Chrome/86.0.4240.111 Safari/537.36",113,"[0.9, 0.5, 0.1]","[0.8, 0.4, 0.2]","[u'blue', u'red', u'black']","[u'left', u'middle', u'right']","[0.8, 0.4, 0.2]","[u'medium', u'high', u'low']","blue",49,"left","medium","False","False",617,4550,NA
"ALEE1QD4TW9G4","Tue Oct 27 2020 12:20:47 GMT-0500 (Central Daylight Time)","Tue Oct 27 2020 12:28:51 GMT-0500 (Central Daylight Time)","Mozilla/5.0 (Windows NT 10.0; Win64; x64) AppleWebKit/537.36 (KHTML, like Gecko) Chrome/86.0.4240.111 Safari/537.36",114,"[0.9, 0.5, 0.1]","[0.8, 0.4, 0.2]","[u'blue', u'red', u'black']","[u'left', u'middle', u'right']","[0.8, 0.4, 0.2]","[u'medium', u'high', u'low']","blue",49,"left","medium","True","False",311,4650,NA
"ALEE1QD4TW9G4","Tue Oct 27 2020 12:20:47 GMT-0500 (Central Daylight Time)","Tue Oct 27 2020 12:28:51 GMT-0500 (Central Daylight Time)","Mozilla/5.0 (Windows NT 10.0; Win64; x64) AppleWebKit/537.36 (KHTML, like Gecko) Chrome/86.0.4240.111 Safari/537.36",115,"[0.9, 0.5, 0.1]","[0.8, 0.4, 0.2]","[u'blue', u'red', u'black']","[u'left', u'middle', u'right']","[0.8, 0.4, 0.2]","[u'medium', u'high', u'low']","blue",49,"left","medium","True","False",210,4750,NA
"ALEE1QD4TW9G4","Tue Oct 27 2020 12:20:47 GMT-0500 (Central Daylight Time)","Tue Oct 27 2020 12:28:51 GMT-0500 (Central Daylight Time)","Mozilla/5.0 (Windows NT 10.0; Win64; x64) AppleWebKit/537.36 (KHTML, like Gecko) Chrome/86.0.4240.111 Safari/537.36",116,"[0.9, 0.5, 0.1]","[0.8, 0.4, 0.2]","[u'blue', u'red', u'black']","[u'left', u'middle', u'right']","[0.8, 0.4, 0.2]","[u'medium', u'high', u'low']","blue",49,"left","medium","False","False",97,4700,NA
"ALEE1QD4TW9G4","Tue Oct 27 2020 12:20:47 GMT-0500 (Central Daylight Time)","Tue Oct 27 2020 12:28:51 GMT-0500 (Central Daylight Time)","Mozilla/5.0 (Windows NT 10.0; Win64; x64) AppleWebKit/537.36 (KHTML, like Gecko) Chrome/86.0.4240.111 Safari/537.36",117,"[0.9, 0.5, 0.1]","[0.8, 0.4, 0.2]","[u'blue', u'red', u'black']","[u'left', u'middle', u'right']","[0.8, 0.4, 0.2]","[u'medium', u'high', u'low']","blue",49,"left","medium","True","False",157,4800,NA
"ALEE1QD4TW9G4","Tue Oct 27 2020 12:20:47 GMT-0500 (Central Daylight Time)","Tue Oct 27 2020 12:28:51 GMT-0500 (Central Daylight Time)","Mozilla/5.0 (Windows NT 10.0; Win64; x64) AppleWebKit/537.36 (KHTML, like Gecko) Chrome/86.0.4240.111 Safari/537.36",118,"[0.9, 0.5, 0.1]","[0.8, 0.4, 0.2]","[u'blue', u'red', u'black']","[u'left', u'middle', u'right']","[0.8, 0.4, 0.2]","[u'medium', u'high', u'low']","blue",49,"left","medium","True","False",475,4900,NA
"ALEE1QD4TW9G4","Tue Oct 27 2020 12:20:47 GMT-0500 (Central Daylight Time)","Tue Oct 27 2020 12:28:51 GMT-0500 (Central Daylight Time)","Mozilla/5.0 (Windows NT 10.0; Win64; x64) AppleWebKit/537.36 (KHTML, like Gecko) Chrome/86.0.4240.111 Safari/537.36",119,"[0.9, 0.5, 0.1]","[0.8, 0.4, 0.2]","[u'blue', u'red', u'black']","[u'left', u'middle', u'right']","[0.8, 0.4, 0.2]","[u'medium', u'high', u'low']","blue",49,"left","medium","True","False",330,5000,NA
"ALEE1QD4TW9G4","Tue Oct 27 2020 12:20:47 GMT-0500 (Central Daylight Time)","Tue Oct 27 2020 12:28:51 GMT-0500 (Central Daylight Time)","Mozilla/5.0 (Windows NT 10.0; Win64; x64) AppleWebKit/537.36 (KHTML, like Gecko) Chrome/86.0.4240.111 Safari/537.36",120,"[0.9, 0.5, 0.1]","[0.8, 0.4, 0.2]","[u'blue', u'red', u'black']","[u'left', u'middle', u'right']","[0.8, 0.4, 0.2]","[u'medium', u'high', u'low']","blue",49,"left","medium","True","False",221,5100,NA
"ALEE1QD4TW9G4","Tue Oct 27 2020 12:20:47 GMT-0500 (Central Daylight Time)","Tue Oct 27 2020 12:28:51 GMT-0500 (Central Daylight Time)","Mozilla/5.0 (Windows NT 10.0; Win64; x64) AppleWebKit/537.36 (KHTML, like Gecko) Chrome/86.0.4240.111 Safari/537.36",121,"[0.9, 0.5, 0.1]","[0.8, 0.4, 0.2]","[u'blue', u'red', u'black']","[u'left', u'middle', u'right']","[0.8, 0.4, 0.2]","[u'medium', u'low', u'high']","blue",49,"left","medium","True","False",587,5200,NA
"ALEE1QD4TW9G4","Tue Oct 27 2020 12:20:47 GMT-0500 (Central Daylight Time)","Tue Oct 27 2020 12:28:51 GMT-0500 (Central Daylight Time)","Mozilla/5.0 (Windows NT 10.0; Win64; x64) AppleWebKit/537.36 (KHTML, like Gecko) Chrome/86.0.4240.111 Safari/537.36",122,"[0.9, 0.5, 0.1]","[0.8, 0.4, 0.2]","[u'blue', u'red', u'black']","[u'left', u'middle', u'right']","[0.8, 0.4, 0.2]","[u'medium', u'low', u'high']","blue",49,"left","medium","False","False",114,5150,NA
"ALEE1QD4TW9G4","Tue Oct 27 2020 12:20:47 GMT-0500 (Central Daylight Time)","Tue Oct 27 2020 12:28:51 GMT-0500 (Central Daylight Time)","Mozilla/5.0 (Windows NT 10.0; Win64; x64) AppleWebKit/537.36 (KHTML, like Gecko) Chrome/86.0.4240.111 Safari/537.36",123,"[0.9, 0.5, 0.1]","[0.8, 0.4, 0.2]","[u'blue', u'red', u'black']","[u'left', u'middle', u'right']","[0.8, 0.4, 0.2]","[u'medium', u'low', u'high']","blue",49,"left","medium","True","False",335,5250,NA
"ALEE1QD4TW9G4","Tue Oct 27 2020 12:20:47 GMT-0500 (Central Daylight Time)","Tue Oct 27 2020 12:28:51 GMT-0500 (Central Daylight Time)","Mozilla/5.0 (Windows NT 10.0; Win64; x64) AppleWebKit/537.36 (KHTML, like Gecko) Chrome/86.0.4240.111 Safari/537.36",124,"[0.9, 0.5, 0.1]","[0.8, 0.4, 0.2]","[u'blue', u'red', u'black']","[u'left', u'middle', u'right']","[0.8, 0.4, 0.2]","[u'medium', u'low', u'high']","blue",49,"left","medium","False","False",169,5200,NA
"ALEE1QD4TW9G4","Tue Oct 27 2020 12:20:47 GMT-0500 (Central Daylight Time)","Tue Oct 27 2020 12:28:51 GMT-0500 (Central Daylight Time)","Mozilla/5.0 (Windows NT 10.0; Win64; x64) AppleWebKit/537.36 (KHTML, like Gecko) Chrome/86.0.4240.111 Safari/537.36",125,"[0.9, 0.5, 0.1]","[0.8, 0.4, 0.2]","[u'blue', u'red', u'black']","[u'left', u'middle', u'right']","[0.8, 0.4, 0.2]","[u'medium', u'low', u'high']","blue",49,"left","medium","False","False",236,5150,NA
"ALEE1QD4TW9G4","Tue Oct 27 2020 12:20:47 GMT-0500 (Central Daylight Time)","Tue Oct 27 2020 12:28:51 GMT-0500 (Central Daylight Time)","Mozilla/5.0 (Windows NT 10.0; Win64; x64) AppleWebKit/537.36 (KHTML, like Gecko) Chrome/86.0.4240.111 Safari/537.36",126,"[0.9, 0.5, 0.1]","[0.8, 0.4, 0.2]","[u'blue', u'red', u'black']","[u'left', u'middle', u'right']","[0.8, 0.4, 0.2]","[u'medium', u'low', u'high']","blue",49,"left","medium","True","False",123,5250,NA
"ALEE1QD4TW9G4","Tue Oct 27 2020 12:20:47 GMT-0500 (Central Daylight Time)","Tue Oct 27 2020 12:28:51 GMT-0500 (Central Daylight Time)","Mozilla/5.0 (Windows NT 10.0; Win64; x64) AppleWebKit/537.36 (KHTML, like Gecko) Chrome/86.0.4240.111 Safari/537.36",127,"[0.9, 0.5, 0.1]","[0.8, 0.4, 0.2]","[u'blue', u'red', u'black']","[u'left', u'middle', u'right']","[0.8, 0.4, 0.2]","[u'medium', u'low', u'high']","blue",49,"left","medium","False","False",206,5200,NA
"ALEE1QD4TW9G4","Tue Oct 27 2020 12:20:47 GMT-0500 (Central Daylight Time)","Tue Oct 27 2020 12:28:51 GMT-0500 (Central Daylight Time)","Mozilla/5.0 (Windows NT 10.0; Win64; x64) AppleWebKit/537.36 (KHTML, like Gecko) Chrome/86.0.4240.111 Safari/537.36",128,"[0.9, 0.5, 0.1]","[0.8, 0.4, 0.2]","[u'blue', u'red', u'black']","[u'left', u'middle', u'right']","[0.8, 0.4, 0.2]","[u'medium', u'low', u'high']","red",50,"middle","low","False","False",456,5150,NA
"ALEE1QD4TW9G4","Tue Oct 27 2020 12:20:47 GMT-0500 (Central Daylight Time)","Tue Oct 27 2020 12:28:51 GMT-0500 (Central Daylight Time)","Mozilla/5.0 (Windows NT 10.0; Win64; x64) AppleWebKit/537.36 (KHTML, like Gecko) Chrome/86.0.4240.111 Safari/537.36",129,"[0.9, 0.5, 0.1]","[0.8, 0.4, 0.2]","[u'blue', u'red', u'black']","[u'left', u'middle', u'right']","[0.8, 0.4, 0.2]","[u'medium', u'low', u'high']","black",51,"right","high","True","False",179,5250,NA
"ALEE1QD4TW9G4","Tue Oct 27 2020 12:20:47 GMT-0500 (Central Daylight Time)","Tue Oct 27 2020 12:28:51 GMT-0500 (Central Daylight Time)","Mozilla/5.0 (Windows NT 10.0; Win64; x64) AppleWebKit/537.36 (KHTML, like Gecko) Chrome/86.0.4240.111 Safari/537.36",130,"[0.9, 0.5, 0.1]","[0.8, 0.4, 0.2]","[u'blue', u'red', u'black']","[u'left', u'middle', u'right']","[0.8, 0.4, 0.2]","[u'medium', u'low', u'high']","black",51,"right","high","True","False",373,5350,NA
"ALEE1QD4TW9G4","Tue Oct 27 2020 12:20:47 GMT-0500 (Central Daylight Time)","Tue Oct 27 2020 12:28:51 GMT-0500 (Central Daylight Time)","Mozilla/5.0 (Windows NT 10.0; Win64; x64) AppleWebKit/537.36 (KHTML, like Gecko) Chrome/86.0.4240.111 Safari/537.36",131,"[0.9, 0.5, 0.1]","[0.8, 0.4, 0.2]","[u'blue', u'red', u'black']","[u'left', u'middle', u'right']","[0.8, 0.4, 0.2]","[u'medium', u'low', u'high']","black",51,"right","high","False","False",97,5300,NA
"ALEE1QD4TW9G4","Tue Oct 27 2020 12:20:47 GMT-0500 (Central Daylight Time)","Tue Oct 27 2020 12:28:51 GMT-0500 (Central Daylight Time)","Mozilla/5.0 (Windows NT 10.0; Win64; x64) AppleWebKit/537.36 (KHTML, like Gecko) Chrome/86.0.4240.111 Safari/537.36",132,"[0.9, 0.5, 0.1]","[0.8, 0.4, 0.2]","[u'blue', u'red', u'black']","[u'left', u'middle', u'right']","[0.8, 0.4, 0.2]","[u'medium', u'low', u'high']","black",51,"right","high","True","False",124,5400,NA
"ALEE1QD4TW9G4","Tue Oct 27 2020 12:20:47 GMT-0500 (Central Daylight Time)","Tue Oct 27 2020 12:28:51 GMT-0500 (Central Daylight Time)","Mozilla/5.0 (Windows NT 10.0; Win64; x64) AppleWebKit/537.36 (KHTML, like Gecko) Chrome/86.0.4240.111 Safari/537.36",133,"[0.9, 0.5, 0.1]","[0.8, 0.4, 0.2]","[u'blue', u'red', u'black']","[u'left', u'middle', u'right']","[0.8, 0.4, 0.2]","[u'medium', u'low', u'high']","black",51,"right","high","True","False",239,5500,NA
"ALEE1QD4TW9G4","Tue Oct 27 2020 12:20:47 GMT-0500 (Central Daylight Time)","Tue Oct 27 2020 12:28:51 GMT-0500 (Central Daylight Time)","Mozilla/5.0 (Windows NT 10.0; Win64; x64) AppleWebKit/537.36 (KHTML, like Gecko) Chrome/86.0.4240.111 Safari/537.36",134,"[0.9, 0.5, 0.1]","[0.8, 0.4, 0.2]","[u'blue', u'red', u'black']","[u'left', u'middle', u'right']","[0.8, 0.4, 0.2]","[u'medium', u'low', u'high']","black",51,"right","high","True","False",51,5600,NA
"ALEE1QD4TW9G4","Tue Oct 27 2020 12:20:47 GMT-0500 (Central Daylight Time)","Tue Oct 27 2020 12:28:51 GMT-0500 (Central Daylight Time)","Mozilla/5.0 (Windows NT 10.0; Win64; x64) AppleWebKit/537.36 (KHTML, like Gecko) Chrome/86.0.4240.111 Safari/537.36",135,"[0.9, 0.5, 0.1]","[0.8, 0.4, 0.2]","[u'blue', u'red', u'black']","[u'left', u'middle', u'right']","[0.8, 0.4, 0.2]","[u'medium', u'low', u'high']","black",51,"right","high","True","False",400,5700,NA
"ALEE1QD4TW9G4","Tue Oct 27 2020 12:20:47 GMT-0500 (Central Daylight Time)","Tue Oct 27 2020 12:28:51 GMT-0500 (Central Daylight Time)","Mozilla/5.0 (Windows NT 10.0; Win64; x64) AppleWebKit/537.36 (KHTML, like Gecko) Chrome/86.0.4240.111 Safari/537.36",136,"[0.9, 0.5, 0.1]","[0.8, 0.4, 0.2]","[u'blue', u'red', u'black']","[u'left', u'middle', u'right']","[0.8, 0.4, 0.2]","[u'medium', u'low', u'high']","black",51,"right","high","True","False",232,5800,NA
"ALEE1QD4TW9G4","Tue Oct 27 2020 12:20:47 GMT-0500 (Central Daylight Time)","Tue Oct 27 2020 12:28:51 GMT-0500 (Central Daylight Time)","Mozilla/5.0 (Windows NT 10.0; Win64; x64) AppleWebKit/537.36 (KHTML, like Gecko) Chrome/86.0.4240.111 Safari/537.36",137,"[0.9, 0.5, 0.1]","[0.8, 0.4, 0.2]","[u'blue', u'red', u'black']","[u'left', u'middle', u'right']","[0.8, 0.4, 0.2]","[u'medium', u'low', u'high']","black",51,"right","high","True","True",216,5900,NA
"ALEE1QD4TW9G4","Tue Oct 27 2020 12:20:47 GMT-0500 (Central Daylight Time)","Tue Oct 27 2020 12:28:51 GMT-0500 (Central Daylight Time)","Mozilla/5.0 (Windows NT 10.0; Win64; x64) AppleWebKit/537.36 (KHTML, like Gecko) Chrome/86.0.4240.111 Safari/537.36",138,"[0.9, 0.5, 0.1]","[0.8, 0.4, 0.2]","[u'blue', u'red', u'black']","[u'left', u'middle', u'right']","[0.8, 0.4, 0.2]","[u'medium', u'high', u'low']","black",51,"right","low","False","False",193,5850,NA
"ALEE1QD4TW9G4","Tue Oct 27 2020 12:20:47 GMT-0500 (Central Daylight Time)","Tue Oct 27 2020 12:28:51 GMT-0500 (Central Daylight Time)","Mozilla/5.0 (Windows NT 10.0; Win64; x64) AppleWebKit/537.36 (KHTML, like Gecko) Chrome/86.0.4240.111 Safari/537.36",139,"[0.9, 0.5, 0.1]","[0.8, 0.4, 0.2]","[u'blue', u'red', u'black']","[u'left', u'middle', u'right']","[0.8, 0.4, 0.2]","[u'medium', u'high', u'low']","black",51,"right","low","False","False",224,5800,NA
"ALEE1QD4TW9G4","Tue Oct 27 2020 12:20:47 GMT-0500 (Central Daylight Time)","Tue Oct 27 2020 12:28:51 GMT-0500 (Central Daylight Time)","Mozilla/5.0 (Windows NT 10.0; Win64; x64) AppleWebKit/537.36 (KHTML, like Gecko) Chrome/86.0.4240.111 Safari/537.36",140,"[0.9, 0.5, 0.1]","[0.8, 0.4, 0.2]","[u'blue', u'red', u'black']","[u'left', u'middle', u'right']","[0.8, 0.4, 0.2]","[u'medium', u'high', u'low']","black",51,"right","low","False","False",375,5750,NA
"ALEE1QD4TW9G4","Tue Oct 27 2020 12:20:47 GMT-0500 (Central Daylight Time)","Tue Oct 27 2020 12:28:51 GMT-0500 (Central Daylight Time)","Mozilla/5.0 (Windows NT 10.0; Win64; x64) AppleWebKit/537.36 (KHTML, like Gecko) Chrome/86.0.4240.111 Safari/537.36",141,"[0.9, 0.5, 0.1]","[0.8, 0.4, 0.2]","[u'blue', u'red', u'black']","[u'left', u'middle', u'right']","[0.8, 0.4, 0.2]","[u'medium', u'high', u'low']","blue",49,"left","medium","True","False",245,5850,NA
"ALEE1QD4TW9G4","Tue Oct 27 2020 12:20:47 GMT-0500 (Central Daylight Time)","Tue Oct 27 2020 12:28:51 GMT-0500 (Central Daylight Time)","Mozilla/5.0 (Windows NT 10.0; Win64; x64) AppleWebKit/537.36 (KHTML, like Gecko) Chrome/86.0.4240.111 Safari/537.36",142,"[0.9, 0.5, 0.1]","[0.8, 0.4, 0.2]","[u'blue', u'red', u'black']","[u'left', u'middle', u'right']","[0.8, 0.4, 0.2]","[u'medium', u'high', u'low']","blue",49,"left","medium","True","False",9,5950,NA
"ALEE1QD4TW9G4","Tue Oct 27 2020 12:20:47 GMT-0500 (Central Daylight Time)","Tue Oct 27 2020 12:28:51 GMT-0500 (Central Daylight Time)","Mozilla/5.0 (Windows NT 10.0; Win64; x64) AppleWebKit/537.36 (KHTML, like Gecko) Chrome/86.0.4240.111 Safari/537.36",143,"[0.9, 0.5, 0.1]","[0.8, 0.4, 0.2]","[u'blue', u'red', u'black']","[u'left', u'middle', u'right']","[0.8, 0.4, 0.2]","[u'medium', u'high', u'low']","blue",49,"left","medium","False","False",21,5900,NA
"ALEE1QD4TW9G4","Tue Oct 27 2020 12:20:47 GMT-0500 (Central Daylight Time)","Tue Oct 27 2020 12:28:51 GMT-0500 (Central Daylight Time)","Mozilla/5.0 (Windows NT 10.0; Win64; x64) AppleWebKit/537.36 (KHTML, like Gecko) Chrome/86.0.4240.111 Safari/537.36",144,"[0.9, 0.5, 0.1]","[0.8, 0.4, 0.2]","[u'blue', u'red', u'black']","[u'left', u'middle', u'right']","[0.8, 0.4, 0.2]","[u'medium', u'high', u'low']","blue",49,"left","medium","False","False",240,5850,NA
"ALEE1QD4TW9G4","Tue Oct 27 2020 12:20:47 GMT-0500 (Central Daylight Time)","Tue Oct 27 2020 12:28:51 GMT-0500 (Central Daylight Time)","Mozilla/5.0 (Windows NT 10.0; Win64; x64) AppleWebKit/537.36 (KHTML, like Gecko) Chrome/86.0.4240.111 Safari/537.36",145,"[0.9, 0.5, 0.1]","[0.8, 0.4, 0.2]","[u'blue', u'red', u'black']","[u'left', u'middle', u'right']","[0.8, 0.4, 0.2]","[u'medium', u'high', u'low']","black",51,"right","low","False","False",677,5800,NA
"ALEE1QD4TW9G4","Tue Oct 27 2020 12:20:47 GMT-0500 (Central Daylight Time)","Tue Oct 27 2020 12:28:51 GMT-0500 (Central Daylight Time)","Mozilla/5.0 (Windows NT 10.0; Win64; x64) AppleWebKit/537.36 (KHTML, like Gecko) Chrome/86.0.4240.111 Safari/537.36",146,"[0.9, 0.5, 0.1]","[0.8, 0.4, 0.2]","[u'blue', u'red', u'black']","[u'left', u'middle', u'right']","[0.8, 0.4, 0.2]","[u'medium', u'high', u'low']","red",50,"middle","high","True","False",228,5900,NA
"ALEE1QD4TW9G4","Tue Oct 27 2020 12:20:47 GMT-0500 (Central Daylight Time)","Tue Oct 27 2020 12:28:51 GMT-0500 (Central Daylight Time)","Mozilla/5.0 (Windows NT 10.0; Win64; x64) AppleWebKit/537.36 (KHTML, like Gecko) Chrome/86.0.4240.111 Safari/537.36",147,"[0.9, 0.5, 0.1]","[0.8, 0.4, 0.2]","[u'blue', u'red', u'black']","[u'left', u'middle', u'right']","[0.8, 0.4, 0.2]","[u'medium', u'high', u'low']","red",50,"middle","high","False","False",126,5850,NA
"ALEE1QD4TW9G4","Tue Oct 27 2020 12:20:47 GMT-0500 (Central Daylight Time)","Tue Oct 27 2020 12:28:51 GMT-0500 (Central Daylight Time)","Mozilla/5.0 (Windows NT 10.0; Win64; x64) AppleWebKit/537.36 (KHTML, like Gecko) Chrome/86.0.4240.111 Safari/537.36",148,"[0.9, 0.5, 0.1]","[0.8, 0.4, 0.2]","[u'blue', u'red', u'black']","[u'left', u'middle', u'right']","[0.8, 0.4, 0.2]","[u'medium', u'high', u'low']","red",50,"middle","high","False","False",143,5800,NA
"ALEE1QD4TW9G4","Tue Oct 27 2020 12:20:47 GMT-0500 (Central Daylight Time)","Tue Oct 27 2020 12:28:51 GMT-0500 (Central Daylight Time)","Mozilla/5.0 (Windows NT 10.0; Win64; x64) AppleWebKit/537.36 (KHTML, like Gecko) Chrome/86.0.4240.111 Safari/537.36",149,"[0.9, 0.5, 0.1]","[0.8, 0.4, 0.2]","[u'blue', u'red', u'black']","[u'left', u'middle', u'right']","[0.8, 0.4, 0.2]","[u'medium', u'high', u'low']","red",50,"middle","high","True","False",669,5900,NA
"ALEE1QD4TW9G4","Tue Oct 27 2020 12:20:47 GMT-0500 (Central Daylight Time)","Tue Oct 27 2020 12:28:51 GMT-0500 (Central Daylight Time)","Mozilla/5.0 (Windows NT 10.0; Win64; x64) AppleWebKit/537.36 (KHTML, like Gecko) Chrome/86.0.4240.111 Safari/537.36",150,"[0.9, 0.5, 0.1]","[0.8, 0.4, 0.2]","[u'blue', u'red', u'black']","[u'left', u'middle', u'right']","[0.8, 0.4, 0.2]","[u'medium', u'high', u'low']","red",50,"middle","high","True","False",151,6000,NA
"ALEE1QD4TW9G4","Tue Oct 27 2020 12:20:47 GMT-0500 (Central Daylight Time)","Tue Oct 27 2020 12:28:51 GMT-0500 (Central Daylight Time)","Mozilla/5.0 (Windows NT 10.0; Win64; x64) AppleWebKit/537.36 (KHTML, like Gecko) Chrome/86.0.4240.111 Safari/537.36",151,"[0.9, 0.5, 0.1]","[0.8, 0.4, 0.2]","[u'blue', u'red', u'black']","[u'left', u'middle', u'right']","[0.8, 0.4, 0.2]","[u'medium', u'high', u'low']","red",50,"middle","high","True","False",200,6100,NA
"ALEE1QD4TW9G4","Tue Oct 27 2020 12:20:47 GMT-0500 (Central Daylight Time)","Tue Oct 27 2020 12:28:51 GMT-0500 (Central Daylight Time)","Mozilla/5.0 (Windows NT 10.0; Win64; x64) AppleWebKit/537.36 (KHTML, like Gecko) Chrome/86.0.4240.111 Safari/537.36",152,"[0.9, 0.5, 0.1]","[0.8, 0.4, 0.2]","[u'blue', u'red', u'black']","[u'left', u'middle', u'right']","[0.8, 0.4, 0.2]","[u'medium', u'high', u'low']","red",50,"middle","high","True","False",520,6200,NA
"ALEE1QD4TW9G4","Tue Oct 27 2020 12:20:47 GMT-0500 (Central Daylight Time)","Tue Oct 27 2020 12:28:51 GMT-0500 (Central Daylight Time)","Mozilla/5.0 (Windows NT 10.0; Win64; x64) AppleWebKit/537.36 (KHTML, like Gecko) Chrome/86.0.4240.111 Safari/537.36",153,"[0.9, 0.5, 0.1]","[0.8, 0.4, 0.2]","[u'blue', u'red', u'black']","[u'left', u'middle', u'right']","[0.8, 0.4, 0.2]","[u'medium', u'high', u'low']","red",50,"middle","high","True","False",66,6300,NA
"ALEE1QD4TW9G4","Tue Oct 27 2020 12:20:47 GMT-0500 (Central Daylight Time)","Tue Oct 27 2020 12:28:51 GMT-0500 (Central Daylight Time)","Mozilla/5.0 (Windows NT 10.0; Win64; x64) AppleWebKit/537.36 (KHTML, like Gecko) Chrome/86.0.4240.111 Safari/537.36",154,"[0.9, 0.5, 0.1]","[0.8, 0.4, 0.2]","[u'blue', u'red', u'black']","[u'left', u'middle', u'right']","[0.8, 0.4, 0.2]","[u'medium', u'high', u'low']","red",50,"middle","high","True","True",1210,6400,NA
"ALEE1QD4TW9G4","Tue Oct 27 2020 12:20:47 GMT-0500 (Central Daylight Time)","Tue Oct 27 2020 12:28:51 GMT-0500 (Central Daylight Time)","Mozilla/5.0 (Windows NT 10.0; Win64; x64) AppleWebKit/537.36 (KHTML, like Gecko) Chrome/86.0.4240.111 Safari/537.36",155,"[0.9, 0.5, 0.1]","[0.8, 0.4, 0.2]","[u'blue', u'red', u'black']","[u'left', u'middle', u'right']","[0.8, 0.4, 0.2]","[u'high', u'low', u'medium']","red",50,"middle","low","False","False",259,6350,NA
"ALEE1QD4TW9G4","Tue Oct 27 2020 12:20:47 GMT-0500 (Central Daylight Time)","Tue Oct 27 2020 12:28:51 GMT-0500 (Central Daylight Time)","Mozilla/5.0 (Windows NT 10.0; Win64; x64) AppleWebKit/537.36 (KHTML, like Gecko) Chrome/86.0.4240.111 Safari/537.36",156,"[0.9, 0.5, 0.1]","[0.8, 0.4, 0.2]","[u'blue', u'red', u'black']","[u'left', u'middle', u'right']","[0.8, 0.4, 0.2]","[u'high', u'low', u'medium']","red",50,"middle","low","False","False",313,6300,NA
"ALEE1QD4TW9G4","Tue Oct 27 2020 12:20:47 GMT-0500 (Central Daylight Time)","Tue Oct 27 2020 12:28:51 GMT-0500 (Central Daylight Time)","Mozilla/5.0 (Windows NT 10.0; Win64; x64) AppleWebKit/537.36 (KHTML, like Gecko) Chrome/86.0.4240.111 Safari/537.36",157,"[0.9, 0.5, 0.1]","[0.8, 0.4, 0.2]","[u'blue', u'red', u'black']","[u'left', u'middle', u'right']","[0.8, 0.4, 0.2]","[u'high', u'low', u'medium']","red",50,"middle","low","False","False",194,6250,NA
"ALEE1QD4TW9G4","Tue Oct 27 2020 12:20:47 GMT-0500 (Central Daylight Time)","Tue Oct 27 2020 12:28:51 GMT-0500 (Central Daylight Time)","Mozilla/5.0 (Windows NT 10.0; Win64; x64) AppleWebKit/537.36 (KHTML, like Gecko) Chrome/86.0.4240.111 Safari/537.36",158,"[0.9, 0.5, 0.1]","[0.8, 0.4, 0.2]","[u'blue', u'red', u'black']","[u'left', u'middle', u'right']","[0.8, 0.4, 0.2]","[u'high', u'low', u'medium']","blue",49,"left","high","True","False",257,6350,NA
"ALEE1QD4TW9G4","Tue Oct 27 2020 12:20:47 GMT-0500 (Central Daylight Time)","Tue Oct 27 2020 12:28:51 GMT-0500 (Central Daylight Time)","Mozilla/5.0 (Windows NT 10.0; Win64; x64) AppleWebKit/537.36 (KHTML, like Gecko) Chrome/86.0.4240.111 Safari/537.36",159,"[0.9, 0.5, 0.1]","[0.8, 0.4, 0.2]","[u'blue', u'red', u'black']","[u'left', u'middle', u'right']","[0.8, 0.4, 0.2]","[u'high', u'low', u'medium']","blue",49,"left","high","True","False",49,6450,NA
"ALEE1QD4TW9G4","Tue Oct 27 2020 12:20:47 GMT-0500 (Central Daylight Time)","Tue Oct 27 2020 12:28:51 GMT-0500 (Central Daylight Time)","Mozilla/5.0 (Windows NT 10.0; Win64; x64) AppleWebKit/537.36 (KHTML, like Gecko) Chrome/86.0.4240.111 Safari/537.36",160,"[0.9, 0.5, 0.1]","[0.8, 0.4, 0.2]","[u'blue', u'red', u'black']","[u'left', u'middle', u'right']","[0.8, 0.4, 0.2]","[u'high', u'low', u'medium']","blue",49,"left","high","True","False",178,6550,NA
