"src_subject_id","start_time","end_time","browser","index","first_half_probabilities","second_half_probabilities","deck_color","deck_position","deck_probabilities","deck_contingencies","response_color","key_press","response_position","response_probability","reward_type","trial_type","rt","reward_tally","exclusion_reason"
"A337Y4X67PY4QI","Wed Oct 28 2020 08:52:09 GMT-0700 (Pacific Daylight Time)","Wed Oct 28 2020 09:04:37 GMT-0700 (Pacific Daylight Time)","Mozilla/5.0 (X11; CrOS x86_64 13421.53.0) AppleWebKit/537.36 (KHTML, like Gecko) Chrome/86.0.4240.77 Safari/537.36",1,"[0.9, 0.5, 0.1]","[0.8, 0.4, 0.2]","[u'black', u'red', u'blue']","[u'left', u'middle', u'right']","[0.9, 0.5, 0.1]","[u'high', u'medium', u'low']","black",49,"left","high","True","False",1009,100,NA
"A337Y4X67PY4QI","Wed Oct 28 2020 08:52:09 GMT-0700 (Pacific Daylight Time)","Wed Oct 28 2020 09:04:37 GMT-0700 (Pacific Daylight Time)","Mozilla/5.0 (X11; CrOS x86_64 13421.53.0) AppleWebKit/537.36 (KHTML, like Gecko) Chrome/86.0.4240.77 Safari/537.36",2,"[0.9, 0.5, 0.1]","[0.8, 0.4, 0.2]","[u'black', u'red', u'blue']","[u'left', u'middle', u'right']","[0.9, 0.5, 0.1]","[u'high', u'medium', u'low']","red",50,"middle","medium","False","False",349,50,NA
"A337Y4X67PY4QI","Wed Oct 28 2020 08:52:09 GMT-0700 (Pacific Daylight Time)","Wed Oct 28 2020 09:04:37 GMT-0700 (Pacific Daylight Time)","Mozilla/5.0 (X11; CrOS x86_64 13421.53.0) AppleWebKit/537.36 (KHTML, like Gecko) Chrome/86.0.4240.77 Safari/537.36",3,"[0.9, 0.5, 0.1]","[0.8, 0.4, 0.2]","[u'black', u'red', u'blue']","[u'left', u'middle', u'right']","[0.9, 0.5, 0.1]","[u'high', u'medium', u'low']","blue",51,"right","low","False","False",372,0,NA
"A337Y4X67PY4QI","Wed Oct 28 2020 08:52:09 GMT-0700 (Pacific Daylight Time)","Wed Oct 28 2020 09:04:37 GMT-0700 (Pacific Daylight Time)","Mozilla/5.0 (X11; CrOS x86_64 13421.53.0) AppleWebKit/537.36 (KHTML, like Gecko) Chrome/86.0.4240.77 Safari/537.36",4,"[0.9, 0.5, 0.1]","[0.8, 0.4, 0.2]","[u'black', u'red', u'blue']","[u'left', u'middle', u'right']","[0.9, 0.5, 0.1]","[u'high', u'medium', u'low']","black",49,"left","high","True","False",343,100,NA
"A337Y4X67PY4QI","Wed Oct 28 2020 08:52:09 GMT-0700 (Pacific Daylight Time)","Wed Oct 28 2020 09:04:37 GMT-0700 (Pacific Daylight Time)","Mozilla/5.0 (X11; CrOS x86_64 13421.53.0) AppleWebKit/537.36 (KHTML, like Gecko) Chrome/86.0.4240.77 Safari/537.36",5,"[0.9, 0.5, 0.1]","[0.8, 0.4, 0.2]","[u'black', u'red', u'blue']","[u'left', u'middle', u'right']","[0.9, 0.5, 0.1]","[u'high', u'medium', u'low']","black",49,"left","high","True","False",337,200,NA
"A337Y4X67PY4QI","Wed Oct 28 2020 08:52:09 GMT-0700 (Pacific Daylight Time)","Wed Oct 28 2020 09:04:37 GMT-0700 (Pacific Daylight Time)","Mozilla/5.0 (X11; CrOS x86_64 13421.53.0) AppleWebKit/537.36 (KHTML, like Gecko) Chrome/86.0.4240.77 Safari/537.36",6,"[0.9, 0.5, 0.1]","[0.8, 0.4, 0.2]","[u'black', u'red', u'blue']","[u'left', u'middle', u'right']","[0.9, 0.5, 0.1]","[u'high', u'medium', u'low']","black",49,"left","high","True","False",327,300,NA
"A337Y4X67PY4QI","Wed Oct 28 2020 08:52:09 GMT-0700 (Pacific Daylight Time)","Wed Oct 28 2020 09:04:37 GMT-0700 (Pacific Daylight Time)","Mozilla/5.0 (X11; CrOS x86_64 13421.53.0) AppleWebKit/537.36 (KHTML, like Gecko) Chrome/86.0.4240.77 Safari/537.36",7,"[0.9, 0.5, 0.1]","[0.8, 0.4, 0.2]","[u'black', u'red', u'blue']","[u'left', u'middle', u'right']","[0.9, 0.5, 0.1]","[u'high', u'medium', u'low']","black",49,"left","high","True","False",310,400,NA
"A337Y4X67PY4QI","Wed Oct 28 2020 08:52:09 GMT-0700 (Pacific Daylight Time)","Wed Oct 28 2020 09:04:37 GMT-0700 (Pacific Daylight Time)","Mozilla/5.0 (X11; CrOS x86_64 13421.53.0) AppleWebKit/537.36 (KHTML, like Gecko) Chrome/86.0.4240.77 Safari/537.36",8,"[0.9, 0.5, 0.1]","[0.8, 0.4, 0.2]","[u'black', u'red', u'blue']","[u'left', u'middle', u'right']","[0.9, 0.5, 0.1]","[u'high', u'medium', u'low']","black",49,"left","high","True","False",263,500,NA
"A337Y4X67PY4QI","Wed Oct 28 2020 08:52:09 GMT-0700 (Pacific Daylight Time)","Wed Oct 28 2020 09:04:37 GMT-0700 (Pacific Daylight Time)","Mozilla/5.0 (X11; CrOS x86_64 13421.53.0) AppleWebKit/537.36 (KHTML, like Gecko) Chrome/86.0.4240.77 Safari/537.36",9,"[0.9, 0.5, 0.1]","[0.8, 0.4, 0.2]","[u'black', u'red', u'blue']","[u'left', u'middle', u'right']","[0.9, 0.5, 0.1]","[u'high', u'medium', u'low']","black",49,"left","high","True","False",407,600,NA
"A337Y4X67PY4QI","Wed Oct 28 2020 08:52:09 GMT-0700 (Pacific Daylight Time)","Wed Oct 28 2020 09:04:37 GMT-0700 (Pacific Daylight Time)","Mozilla/5.0 (X11; CrOS x86_64 13421.53.0) AppleWebKit/537.36 (KHTML, like Gecko) Chrome/86.0.4240.77 Safari/537.36",10,"[0.9, 0.5, 0.1]","[0.8, 0.4, 0.2]","[u'black', u'red', u'blue']","[u'left', u'middle', u'right']","[0.9, 0.5, 0.1]","[u'high', u'medium', u'low']","black",49,"left","high","True","False",1200,700,NA
"A337Y4X67PY4QI","Wed Oct 28 2020 08:52:09 GMT-0700 (Pacific Daylight Time)","Wed Oct 28 2020 09:04:37 GMT-0700 (Pacific Daylight Time)","Mozilla/5.0 (X11; CrOS x86_64 13421.53.0) AppleWebKit/537.36 (KHTML, like Gecko) Chrome/86.0.4240.77 Safari/537.36",11,"[0.9, 0.5, 0.1]","[0.8, 0.4, 0.2]","[u'black', u'red', u'blue']","[u'left', u'middle', u'right']","[0.9, 0.5, 0.1]","[u'high', u'medium', u'low']","black",49,"left","high","True","False",485,800,NA
"A337Y4X67PY4QI","Wed Oct 28 2020 08:52:09 GMT-0700 (Pacific Daylight Time)","Wed Oct 28 2020 09:04:37 GMT-0700 (Pacific Daylight Time)","Mozilla/5.0 (X11; CrOS x86_64 13421.53.0) AppleWebKit/537.36 (KHTML, like Gecko) Chrome/86.0.4240.77 Safari/537.36",12,"[0.9, 0.5, 0.1]","[0.8, 0.4, 0.2]","[u'black', u'red', u'blue']","[u'left', u'middle', u'right']","[0.9, 0.5, 0.1]","[u'high', u'medium', u'low']","black",49,"left","high","False","True",461,750,NA
"A337Y4X67PY4QI","Wed Oct 28 2020 08:52:09 GMT-0700 (Pacific Daylight Time)","Wed Oct 28 2020 09:04:37 GMT-0700 (Pacific Daylight Time)","Mozilla/5.0 (X11; CrOS x86_64 13421.53.0) AppleWebKit/537.36 (KHTML, like Gecko) Chrome/86.0.4240.77 Safari/537.36",13,"[0.9, 0.5, 0.1]","[0.8, 0.4, 0.2]","[u'black', u'red', u'blue']","[u'left', u'middle', u'right']","[0.9, 0.5, 0.1]","[u'medium', u'low', u'high']","red",50,"middle","low","False","False",707,700,NA
"A337Y4X67PY4QI","Wed Oct 28 2020 08:52:09 GMT-0700 (Pacific Daylight Time)","Wed Oct 28 2020 09:04:37 GMT-0700 (Pacific Daylight Time)","Mozilla/5.0 (X11; CrOS x86_64 13421.53.0) AppleWebKit/537.36 (KHTML, like Gecko) Chrome/86.0.4240.77 Safari/537.36",14,"[0.9, 0.5, 0.1]","[0.8, 0.4, 0.2]","[u'black', u'red', u'blue']","[u'left', u'middle', u'right']","[0.9, 0.5, 0.1]","[u'medium', u'low', u'high']","blue",51,"right","high","True","False",250,800,NA
"A337Y4X67PY4QI","Wed Oct 28 2020 08:52:09 GMT-0700 (Pacific Daylight Time)","Wed Oct 28 2020 09:04:37 GMT-0700 (Pacific Daylight Time)","Mozilla/5.0 (X11; CrOS x86_64 13421.53.0) AppleWebKit/537.36 (KHTML, like Gecko) Chrome/86.0.4240.77 Safari/537.36",15,"[0.9, 0.5, 0.1]","[0.8, 0.4, 0.2]","[u'black', u'red', u'blue']","[u'left', u'middle', u'right']","[0.9, 0.5, 0.1]","[u'medium', u'low', u'high']","blue",51,"right","high","True","False",261,900,NA
"A337Y4X67PY4QI","Wed Oct 28 2020 08:52:09 GMT-0700 (Pacific Daylight Time)","Wed Oct 28 2020 09:04:37 GMT-0700 (Pacific Daylight Time)","Mozilla/5.0 (X11; CrOS x86_64 13421.53.0) AppleWebKit/537.36 (KHTML, like Gecko) Chrome/86.0.4240.77 Safari/537.36",16,"[0.9, 0.5, 0.1]","[0.8, 0.4, 0.2]","[u'black', u'red', u'blue']","[u'left', u'middle', u'right']","[0.9, 0.5, 0.1]","[u'medium', u'low', u'high']","blue",51,"right","high","True","False",391,1000,NA
"A337Y4X67PY4QI","Wed Oct 28 2020 08:52:09 GMT-0700 (Pacific Daylight Time)","Wed Oct 28 2020 09:04:37 GMT-0700 (Pacific Daylight Time)","Mozilla/5.0 (X11; CrOS x86_64 13421.53.0) AppleWebKit/537.36 (KHTML, like Gecko) Chrome/86.0.4240.77 Safari/537.36",17,"[0.9, 0.5, 0.1]","[0.8, 0.4, 0.2]","[u'black', u'red', u'blue']","[u'left', u'middle', u'right']","[0.9, 0.5, 0.1]","[u'medium', u'low', u'high']","blue",51,"right","high","False","False",359,950,NA
"A337Y4X67PY4QI","Wed Oct 28 2020 08:52:09 GMT-0700 (Pacific Daylight Time)","Wed Oct 28 2020 09:04:37 GMT-0700 (Pacific Daylight Time)","Mozilla/5.0 (X11; CrOS x86_64 13421.53.0) AppleWebKit/537.36 (KHTML, like Gecko) Chrome/86.0.4240.77 Safari/537.36",18,"[0.9, 0.5, 0.1]","[0.8, 0.4, 0.2]","[u'black', u'red', u'blue']","[u'left', u'middle', u'right']","[0.9, 0.5, 0.1]","[u'medium', u'low', u'high']","red",50,"middle","low","False","False",161,900,NA
"A337Y4X67PY4QI","Wed Oct 28 2020 08:52:09 GMT-0700 (Pacific Daylight Time)","Wed Oct 28 2020 09:04:37 GMT-0700 (Pacific Daylight Time)","Mozilla/5.0 (X11; CrOS x86_64 13421.53.0) AppleWebKit/537.36 (KHTML, like Gecko) Chrome/86.0.4240.77 Safari/537.36",19,"[0.9, 0.5, 0.1]","[0.8, 0.4, 0.2]","[u'black', u'red', u'blue']","[u'left', u'middle', u'right']","[0.9, 0.5, 0.1]","[u'medium', u'low', u'high']","blue",51,"right","high","True","False",523,1000,NA
"A337Y4X67PY4QI","Wed Oct 28 2020 08:52:09 GMT-0700 (Pacific Daylight Time)","Wed Oct 28 2020 09:04:37 GMT-0700 (Pacific Daylight Time)","Mozilla/5.0 (X11; CrOS x86_64 13421.53.0) AppleWebKit/537.36 (KHTML, like Gecko) Chrome/86.0.4240.77 Safari/537.36",20,"[0.9, 0.5, 0.1]","[0.8, 0.4, 0.2]","[u'black', u'red', u'blue']","[u'left', u'middle', u'right']","[0.9, 0.5, 0.1]","[u'medium', u'low', u'high']","blue",51,"right","high","True","False",276,1100,NA
"A337Y4X67PY4QI","Wed Oct 28 2020 08:52:09 GMT-0700 (Pacific Daylight Time)","Wed Oct 28 2020 09:04:37 GMT-0700 (Pacific Daylight Time)","Mozilla/5.0 (X11; CrOS x86_64 13421.53.0) AppleWebKit/537.36 (KHTML, like Gecko) Chrome/86.0.4240.77 Safari/537.36",21,"[0.9, 0.5, 0.1]","[0.8, 0.4, 0.2]","[u'black', u'red', u'blue']","[u'left', u'middle', u'right']","[0.9, 0.5, 0.1]","[u'medium', u'low', u'high']","blue",51,"right","high","True","False",119,1200,NA
"A337Y4X67PY4QI","Wed Oct 28 2020 08:52:09 GMT-0700 (Pacific Daylight Time)","Wed Oct 28 2020 09:04:37 GMT-0700 (Pacific Daylight Time)","Mozilla/5.0 (X11; CrOS x86_64 13421.53.0) AppleWebKit/537.36 (KHTML, like Gecko) Chrome/86.0.4240.77 Safari/537.36",22,"[0.9, 0.5, 0.1]","[0.8, 0.4, 0.2]","[u'black', u'red', u'blue']","[u'left', u'middle', u'right']","[0.9, 0.5, 0.1]","[u'medium', u'low', u'high']","blue",51,"right","high","True","False",230,1300,NA
"A337Y4X67PY4QI","Wed Oct 28 2020 08:52:09 GMT-0700 (Pacific Daylight Time)","Wed Oct 28 2020 09:04:37 GMT-0700 (Pacific Daylight Time)","Mozilla/5.0 (X11; CrOS x86_64 13421.53.0) AppleWebKit/537.36 (KHTML, like Gecko) Chrome/86.0.4240.77 Safari/537.36",23,"[0.9, 0.5, 0.1]","[0.8, 0.4, 0.2]","[u'black', u'red', u'blue']","[u'left', u'middle', u'right']","[0.9, 0.5, 0.1]","[u'medium', u'low', u'high']","blue",51,"right","high","True","True",377,1400,NA
"A337Y4X67PY4QI","Wed Oct 28 2020 08:52:09 GMT-0700 (Pacific Daylight Time)","Wed Oct 28 2020 09:04:37 GMT-0700 (Pacific Daylight Time)","Mozilla/5.0 (X11; CrOS x86_64 13421.53.0) AppleWebKit/537.36 (KHTML, like Gecko) Chrome/86.0.4240.77 Safari/537.36",24,"[0.9, 0.5, 0.1]","[0.8, 0.4, 0.2]","[u'black', u'red', u'blue']","[u'left', u'middle', u'right']","[0.9, 0.5, 0.1]","[u'medium', u'high', u'low']","blue",51,"right","low","False","False",306,1350,NA
"A337Y4X67PY4QI","Wed Oct 28 2020 08:52:09 GMT-0700 (Pacific Daylight Time)","Wed Oct 28 2020 09:04:37 GMT-0700 (Pacific Daylight Time)","Mozilla/5.0 (X11; CrOS x86_64 13421.53.0) AppleWebKit/537.36 (KHTML, like Gecko) Chrome/86.0.4240.77 Safari/537.36",25,"[0.9, 0.5, 0.1]","[0.8, 0.4, 0.2]","[u'black', u'red', u'blue']","[u'left', u'middle', u'right']","[0.9, 0.5, 0.1]","[u'medium', u'high', u'low']","black",49,"left","medium","False","False",137,1300,NA
"A337Y4X67PY4QI","Wed Oct 28 2020 08:52:09 GMT-0700 (Pacific Daylight Time)","Wed Oct 28 2020 09:04:37 GMT-0700 (Pacific Daylight Time)","Mozilla/5.0 (X11; CrOS x86_64 13421.53.0) AppleWebKit/537.36 (KHTML, like Gecko) Chrome/86.0.4240.77 Safari/537.36",26,"[0.9, 0.5, 0.1]","[0.8, 0.4, 0.2]","[u'black', u'red', u'blue']","[u'left', u'middle', u'right']","[0.9, 0.5, 0.1]","[u'medium', u'high', u'low']","red",50,"middle","high","True","False",92,1400,NA
"A337Y4X67PY4QI","Wed Oct 28 2020 08:52:09 GMT-0700 (Pacific Daylight Time)","Wed Oct 28 2020 09:04:37 GMT-0700 (Pacific Daylight Time)","Mozilla/5.0 (X11; CrOS x86_64 13421.53.0) AppleWebKit/537.36 (KHTML, like Gecko) Chrome/86.0.4240.77 Safari/537.36",27,"[0.9, 0.5, 0.1]","[0.8, 0.4, 0.2]","[u'black', u'red', u'blue']","[u'left', u'middle', u'right']","[0.9, 0.5, 0.1]","[u'medium', u'high', u'low']","red",50,"middle","high","True","False",91,1500,NA
"A337Y4X67PY4QI","Wed Oct 28 2020 08:52:09 GMT-0700 (Pacific Daylight Time)","Wed Oct 28 2020 09:04:37 GMT-0700 (Pacific Daylight Time)","Mozilla/5.0 (X11; CrOS x86_64 13421.53.0) AppleWebKit/537.36 (KHTML, like Gecko) Chrome/86.0.4240.77 Safari/537.36",28,"[0.9, 0.5, 0.1]","[0.8, 0.4, 0.2]","[u'black', u'red', u'blue']","[u'left', u'middle', u'right']","[0.9, 0.5, 0.1]","[u'medium', u'high', u'low']","red",50,"middle","high","True","False",239,1600,NA
"A337Y4X67PY4QI","Wed Oct 28 2020 08:52:09 GMT-0700 (Pacific Daylight Time)","Wed Oct 28 2020 09:04:37 GMT-0700 (Pacific Daylight Time)","Mozilla/5.0 (X11; CrOS x86_64 13421.53.0) AppleWebKit/537.36 (KHTML, like Gecko) Chrome/86.0.4240.77 Safari/537.36",29,"[0.9, 0.5, 0.1]","[0.8, 0.4, 0.2]","[u'black', u'red', u'blue']","[u'left', u'middle', u'right']","[0.9, 0.5, 0.1]","[u'medium', u'high', u'low']","red",50,"middle","high","True","False",296,1700,NA
"A337Y4X67PY4QI","Wed Oct 28 2020 08:52:09 GMT-0700 (Pacific Daylight Time)","Wed Oct 28 2020 09:04:37 GMT-0700 (Pacific Daylight Time)","Mozilla/5.0 (X11; CrOS x86_64 13421.53.0) AppleWebKit/537.36 (KHTML, like Gecko) Chrome/86.0.4240.77 Safari/537.36",30,"[0.9, 0.5, 0.1]","[0.8, 0.4, 0.2]","[u'black', u'red', u'blue']","[u'left', u'middle', u'right']","[0.9, 0.5, 0.1]","[u'medium', u'high', u'low']","red",50,"middle","high","True","False",362,1800,NA
"A337Y4X67PY4QI","Wed Oct 28 2020 08:52:09 GMT-0700 (Pacific Daylight Time)","Wed Oct 28 2020 09:04:37 GMT-0700 (Pacific Daylight Time)","Mozilla/5.0 (X11; CrOS x86_64 13421.53.0) AppleWebKit/537.36 (KHTML, like Gecko) Chrome/86.0.4240.77 Safari/537.36",31,"[0.9, 0.5, 0.1]","[0.8, 0.4, 0.2]","[u'black', u'red', u'blue']","[u'left', u'middle', u'right']","[0.9, 0.5, 0.1]","[u'medium', u'high', u'low']","red",50,"middle","high","True","False",561,1900,NA
"A337Y4X67PY4QI","Wed Oct 28 2020 08:52:09 GMT-0700 (Pacific Daylight Time)","Wed Oct 28 2020 09:04:37 GMT-0700 (Pacific Daylight Time)","Mozilla/5.0 (X11; CrOS x86_64 13421.53.0) AppleWebKit/537.36 (KHTML, like Gecko) Chrome/86.0.4240.77 Safari/537.36",32,"[0.9, 0.5, 0.1]","[0.8, 0.4, 0.2]","[u'black', u'red', u'blue']","[u'left', u'middle', u'right']","[0.9, 0.5, 0.1]","[u'medium', u'high', u'low']","red",50,"middle","high","True","False",301,2000,NA
"A337Y4X67PY4QI","Wed Oct 28 2020 08:52:09 GMT-0700 (Pacific Daylight Time)","Wed Oct 28 2020 09:04:37 GMT-0700 (Pacific Daylight Time)","Mozilla/5.0 (X11; CrOS x86_64 13421.53.0) AppleWebKit/537.36 (KHTML, like Gecko) Chrome/86.0.4240.77 Safari/537.36",33,"[0.9, 0.5, 0.1]","[0.8, 0.4, 0.2]","[u'black', u'red', u'blue']","[u'left', u'middle', u'right']","[0.9, 0.5, 0.1]","[u'medium', u'high', u'low']","red",50,"middle","high","True","False",555,2100,NA
"A337Y4X67PY4QI","Wed Oct 28 2020 08:52:09 GMT-0700 (Pacific Daylight Time)","Wed Oct 28 2020 09:04:37 GMT-0700 (Pacific Daylight Time)","Mozilla/5.0 (X11; CrOS x86_64 13421.53.0) AppleWebKit/537.36 (KHTML, like Gecko) Chrome/86.0.4240.77 Safari/537.36",34,"[0.9, 0.5, 0.1]","[0.8, 0.4, 0.2]","[u'black', u'red', u'blue']","[u'left', u'middle', u'right']","[0.9, 0.5, 0.1]","[u'medium', u'high', u'low']","red",50,"middle","high","True","True",408,2200,NA
"A337Y4X67PY4QI","Wed Oct 28 2020 08:52:09 GMT-0700 (Pacific Daylight Time)","Wed Oct 28 2020 09:04:37 GMT-0700 (Pacific Daylight Time)","Mozilla/5.0 (X11; CrOS x86_64 13421.53.0) AppleWebKit/537.36 (KHTML, like Gecko) Chrome/86.0.4240.77 Safari/537.36",35,"[0.9, 0.5, 0.1]","[0.8, 0.4, 0.2]","[u'black', u'red', u'blue']","[u'left', u'middle', u'right']","[0.9, 0.5, 0.1]","[u'high', u'low', u'medium']","red",50,"middle","low","True","False",306,2300,NA
"A337Y4X67PY4QI","Wed Oct 28 2020 08:52:09 GMT-0700 (Pacific Daylight Time)","Wed Oct 28 2020 09:04:37 GMT-0700 (Pacific Daylight Time)","Mozilla/5.0 (X11; CrOS x86_64 13421.53.0) AppleWebKit/537.36 (KHTML, like Gecko) Chrome/86.0.4240.77 Safari/537.36",36,"[0.9, 0.5, 0.1]","[0.8, 0.4, 0.2]","[u'black', u'red', u'blue']","[u'left', u'middle', u'right']","[0.9, 0.5, 0.1]","[u'high', u'low', u'medium']","red",50,"middle","low","False","False",474,2250,NA
"A337Y4X67PY4QI","Wed Oct 28 2020 08:52:09 GMT-0700 (Pacific Daylight Time)","Wed Oct 28 2020 09:04:37 GMT-0700 (Pacific Daylight Time)","Mozilla/5.0 (X11; CrOS x86_64 13421.53.0) AppleWebKit/537.36 (KHTML, like Gecko) Chrome/86.0.4240.77 Safari/537.36",37,"[0.9, 0.5, 0.1]","[0.8, 0.4, 0.2]","[u'black', u'red', u'blue']","[u'left', u'middle', u'right']","[0.9, 0.5, 0.1]","[u'high', u'low', u'medium']","blue",51,"right","medium","False","False",234,2200,NA
"A337Y4X67PY4QI","Wed Oct 28 2020 08:52:09 GMT-0700 (Pacific Daylight Time)","Wed Oct 28 2020 09:04:37 GMT-0700 (Pacific Daylight Time)","Mozilla/5.0 (X11; CrOS x86_64 13421.53.0) AppleWebKit/537.36 (KHTML, like Gecko) Chrome/86.0.4240.77 Safari/537.36",38,"[0.9, 0.5, 0.1]","[0.8, 0.4, 0.2]","[u'black', u'red', u'blue']","[u'left', u'middle', u'right']","[0.9, 0.5, 0.1]","[u'high', u'low', u'medium']","black",49,"left","high","True","False",256,2300,NA
"A337Y4X67PY4QI","Wed Oct 28 2020 08:52:09 GMT-0700 (Pacific Daylight Time)","Wed Oct 28 2020 09:04:37 GMT-0700 (Pacific Daylight Time)","Mozilla/5.0 (X11; CrOS x86_64 13421.53.0) AppleWebKit/537.36 (KHTML, like Gecko) Chrome/86.0.4240.77 Safari/537.36",39,"[0.9, 0.5, 0.1]","[0.8, 0.4, 0.2]","[u'black', u'red', u'blue']","[u'left', u'middle', u'right']","[0.9, 0.5, 0.1]","[u'high', u'low', u'medium']","black",49,"left","high","True","False",148,2400,NA
"A337Y4X67PY4QI","Wed Oct 28 2020 08:52:09 GMT-0700 (Pacific Daylight Time)","Wed Oct 28 2020 09:04:37 GMT-0700 (Pacific Daylight Time)","Mozilla/5.0 (X11; CrOS x86_64 13421.53.0) AppleWebKit/537.36 (KHTML, like Gecko) Chrome/86.0.4240.77 Safari/537.36",40,"[0.9, 0.5, 0.1]","[0.8, 0.4, 0.2]","[u'black', u'red', u'blue']","[u'left', u'middle', u'right']","[0.9, 0.5, 0.1]","[u'high', u'low', u'medium']","black",49,"left","high","True","False",343,2500,NA
"A337Y4X67PY4QI","Wed Oct 28 2020 08:52:09 GMT-0700 (Pacific Daylight Time)","Wed Oct 28 2020 09:04:37 GMT-0700 (Pacific Daylight Time)","Mozilla/5.0 (X11; CrOS x86_64 13421.53.0) AppleWebKit/537.36 (KHTML, like Gecko) Chrome/86.0.4240.77 Safari/537.36",41,"[0.9, 0.5, 0.1]","[0.8, 0.4, 0.2]","[u'black', u'red', u'blue']","[u'left', u'middle', u'right']","[0.9, 0.5, 0.1]","[u'low', u'high', u'medium']","black",49,"left","low","False","False",455,2450,NA
"A337Y4X67PY4QI","Wed Oct 28 2020 08:52:09 GMT-0700 (Pacific Daylight Time)","Wed Oct 28 2020 09:04:37 GMT-0700 (Pacific Daylight Time)","Mozilla/5.0 (X11; CrOS x86_64 13421.53.0) AppleWebKit/537.36 (KHTML, like Gecko) Chrome/86.0.4240.77 Safari/537.36",42,"[0.9, 0.5, 0.1]","[0.8, 0.4, 0.2]","[u'black', u'red', u'blue']","[u'left', u'middle', u'right']","[0.9, 0.5, 0.1]","[u'low', u'high', u'medium']","blue",51,"right","medium","True","False",326,2550,NA
"A337Y4X67PY4QI","Wed Oct 28 2020 08:52:09 GMT-0700 (Pacific Daylight Time)","Wed Oct 28 2020 09:04:37 GMT-0700 (Pacific Daylight Time)","Mozilla/5.0 (X11; CrOS x86_64 13421.53.0) AppleWebKit/537.36 (KHTML, like Gecko) Chrome/86.0.4240.77 Safari/537.36",43,"[0.9, 0.5, 0.1]","[0.8, 0.4, 0.2]","[u'black', u'red', u'blue']","[u'left', u'middle', u'right']","[0.9, 0.5, 0.1]","[u'low', u'high', u'medium']","blue",51,"right","medium","False","False",193,2500,NA
"A337Y4X67PY4QI","Wed Oct 28 2020 08:52:09 GMT-0700 (Pacific Daylight Time)","Wed Oct 28 2020 09:04:37 GMT-0700 (Pacific Daylight Time)","Mozilla/5.0 (X11; CrOS x86_64 13421.53.0) AppleWebKit/537.36 (KHTML, like Gecko) Chrome/86.0.4240.77 Safari/537.36",44,"[0.9, 0.5, 0.1]","[0.8, 0.4, 0.2]","[u'black', u'red', u'blue']","[u'left', u'middle', u'right']","[0.9, 0.5, 0.1]","[u'low', u'high', u'medium']","black",49,"left","low","False","False",111,2450,NA
"A337Y4X67PY4QI","Wed Oct 28 2020 08:52:09 GMT-0700 (Pacific Daylight Time)","Wed Oct 28 2020 09:04:37 GMT-0700 (Pacific Daylight Time)","Mozilla/5.0 (X11; CrOS x86_64 13421.53.0) AppleWebKit/537.36 (KHTML, like Gecko) Chrome/86.0.4240.77 Safari/537.36",45,"[0.9, 0.5, 0.1]","[0.8, 0.4, 0.2]","[u'black', u'red', u'blue']","[u'left', u'middle', u'right']","[0.9, 0.5, 0.1]","[u'low', u'high', u'medium']","red",50,"middle","high","True","False",37,2550,NA
"A337Y4X67PY4QI","Wed Oct 28 2020 08:52:09 GMT-0700 (Pacific Daylight Time)","Wed Oct 28 2020 09:04:37 GMT-0700 (Pacific Daylight Time)","Mozilla/5.0 (X11; CrOS x86_64 13421.53.0) AppleWebKit/537.36 (KHTML, like Gecko) Chrome/86.0.4240.77 Safari/537.36",46,"[0.9, 0.5, 0.1]","[0.8, 0.4, 0.2]","[u'black', u'red', u'blue']","[u'left', u'middle', u'right']","[0.9, 0.5, 0.1]","[u'low', u'high', u'medium']","red",50,"middle","high","True","False",9,2650,NA
"A337Y4X67PY4QI","Wed Oct 28 2020 08:52:09 GMT-0700 (Pacific Daylight Time)","Wed Oct 28 2020 09:04:37 GMT-0700 (Pacific Daylight Time)","Mozilla/5.0 (X11; CrOS x86_64 13421.53.0) AppleWebKit/537.36 (KHTML, like Gecko) Chrome/86.0.4240.77 Safari/537.36",47,"[0.9, 0.5, 0.1]","[0.8, 0.4, 0.2]","[u'black', u'red', u'blue']","[u'left', u'middle', u'right']","[0.9, 0.5, 0.1]","[u'low', u'high', u'medium']","red",50,"middle","high","True","False",343,2750,NA
"A337Y4X67PY4QI","Wed Oct 28 2020 08:52:09 GMT-0700 (Pacific Daylight Time)","Wed Oct 28 2020 09:04:37 GMT-0700 (Pacific Daylight Time)","Mozilla/5.0 (X11; CrOS x86_64 13421.53.0) AppleWebKit/537.36 (KHTML, like Gecko) Chrome/86.0.4240.77 Safari/537.36",48,"[0.9, 0.5, 0.1]","[0.8, 0.4, 0.2]","[u'black', u'red', u'blue']","[u'left', u'middle', u'right']","[0.9, 0.5, 0.1]","[u'low', u'high', u'medium']","red",50,"middle","high","True","False",265,2850,NA
"A337Y4X67PY4QI","Wed Oct 28 2020 08:52:09 GMT-0700 (Pacific Daylight Time)","Wed Oct 28 2020 09:04:37 GMT-0700 (Pacific Daylight Time)","Mozilla/5.0 (X11; CrOS x86_64 13421.53.0) AppleWebKit/537.36 (KHTML, like Gecko) Chrome/86.0.4240.77 Safari/537.36",49,"[0.9, 0.5, 0.1]","[0.8, 0.4, 0.2]","[u'black', u'red', u'blue']","[u'left', u'middle', u'right']","[0.9, 0.5, 0.1]","[u'low', u'high', u'medium']","red",50,"middle","high","True","False",242,2950,NA
"A337Y4X67PY4QI","Wed Oct 28 2020 08:52:09 GMT-0700 (Pacific Daylight Time)","Wed Oct 28 2020 09:04:37 GMT-0700 (Pacific Daylight Time)","Mozilla/5.0 (X11; CrOS x86_64 13421.53.0) AppleWebKit/537.36 (KHTML, like Gecko) Chrome/86.0.4240.77 Safari/537.36",50,"[0.9, 0.5, 0.1]","[0.8, 0.4, 0.2]","[u'black', u'red', u'blue']","[u'left', u'middle', u'right']","[0.9, 0.5, 0.1]","[u'low', u'high', u'medium']","red",50,"middle","high","True","False",338,3050,NA
"A337Y4X67PY4QI","Wed Oct 28 2020 08:52:09 GMT-0700 (Pacific Daylight Time)","Wed Oct 28 2020 09:04:37 GMT-0700 (Pacific Daylight Time)","Mozilla/5.0 (X11; CrOS x86_64 13421.53.0) AppleWebKit/537.36 (KHTML, like Gecko) Chrome/86.0.4240.77 Safari/537.36",51,"[0.9, 0.5, 0.1]","[0.8, 0.4, 0.2]","[u'black', u'red', u'blue']","[u'left', u'middle', u'right']","[0.9, 0.5, 0.1]","[u'low', u'high', u'medium']","red",50,"middle","high","True","False",186,3150,NA
"A337Y4X67PY4QI","Wed Oct 28 2020 08:52:09 GMT-0700 (Pacific Daylight Time)","Wed Oct 28 2020 09:04:37 GMT-0700 (Pacific Daylight Time)","Mozilla/5.0 (X11; CrOS x86_64 13421.53.0) AppleWebKit/537.36 (KHTML, like Gecko) Chrome/86.0.4240.77 Safari/537.36",52,"[0.9, 0.5, 0.1]","[0.8, 0.4, 0.2]","[u'black', u'red', u'blue']","[u'left', u'middle', u'right']","[0.9, 0.5, 0.1]","[u'low', u'high', u'medium']","red",50,"middle","high","True","False",300,3250,NA
"A337Y4X67PY4QI","Wed Oct 28 2020 08:52:09 GMT-0700 (Pacific Daylight Time)","Wed Oct 28 2020 09:04:37 GMT-0700 (Pacific Daylight Time)","Mozilla/5.0 (X11; CrOS x86_64 13421.53.0) AppleWebKit/537.36 (KHTML, like Gecko) Chrome/86.0.4240.77 Safari/537.36",53,"[0.9, 0.5, 0.1]","[0.8, 0.4, 0.2]","[u'black', u'red', u'blue']","[u'left', u'middle', u'right']","[0.9, 0.5, 0.1]","[u'low', u'high', u'medium']","red",50,"middle","high","True","True",534,3350,NA
"A337Y4X67PY4QI","Wed Oct 28 2020 08:52:09 GMT-0700 (Pacific Daylight Time)","Wed Oct 28 2020 09:04:37 GMT-0700 (Pacific Daylight Time)","Mozilla/5.0 (X11; CrOS x86_64 13421.53.0) AppleWebKit/537.36 (KHTML, like Gecko) Chrome/86.0.4240.77 Safari/537.36",54,"[0.9, 0.5, 0.1]","[0.8, 0.4, 0.2]","[u'black', u'red', u'blue']","[u'left', u'middle', u'right']","[0.9, 0.5, 0.1]","[u'medium', u'low', u'high']","red",50,"middle","low","False","False",376,3300,NA
"A337Y4X67PY4QI","Wed Oct 28 2020 08:52:09 GMT-0700 (Pacific Daylight Time)","Wed Oct 28 2020 09:04:37 GMT-0700 (Pacific Daylight Time)","Mozilla/5.0 (X11; CrOS x86_64 13421.53.0) AppleWebKit/537.36 (KHTML, like Gecko) Chrome/86.0.4240.77 Safari/537.36",55,"[0.9, 0.5, 0.1]","[0.8, 0.4, 0.2]","[u'black', u'red', u'blue']","[u'left', u'middle', u'right']","[0.9, 0.5, 0.1]","[u'medium', u'low', u'high']","blue",51,"right","high","True","False",320,3400,NA
"A337Y4X67PY4QI","Wed Oct 28 2020 08:52:09 GMT-0700 (Pacific Daylight Time)","Wed Oct 28 2020 09:04:37 GMT-0700 (Pacific Daylight Time)","Mozilla/5.0 (X11; CrOS x86_64 13421.53.0) AppleWebKit/537.36 (KHTML, like Gecko) Chrome/86.0.4240.77 Safari/537.36",56,"[0.9, 0.5, 0.1]","[0.8, 0.4, 0.2]","[u'black', u'red', u'blue']","[u'left', u'middle', u'right']","[0.9, 0.5, 0.1]","[u'medium', u'low', u'high']","blue",51,"right","high","True","False",299,3500,NA
"A337Y4X67PY4QI","Wed Oct 28 2020 08:52:09 GMT-0700 (Pacific Daylight Time)","Wed Oct 28 2020 09:04:37 GMT-0700 (Pacific Daylight Time)","Mozilla/5.0 (X11; CrOS x86_64 13421.53.0) AppleWebKit/537.36 (KHTML, like Gecko) Chrome/86.0.4240.77 Safari/537.36",57,"[0.9, 0.5, 0.1]","[0.8, 0.4, 0.2]","[u'black', u'red', u'blue']","[u'left', u'middle', u'right']","[0.9, 0.5, 0.1]","[u'medium', u'low', u'high']","blue",51,"right","high","False","False",241,3450,NA
"A337Y4X67PY4QI","Wed Oct 28 2020 08:52:09 GMT-0700 (Pacific Daylight Time)","Wed Oct 28 2020 09:04:37 GMT-0700 (Pacific Daylight Time)","Mozilla/5.0 (X11; CrOS x86_64 13421.53.0) AppleWebKit/537.36 (KHTML, like Gecko) Chrome/86.0.4240.77 Safari/537.36",58,"[0.9, 0.5, 0.1]","[0.8, 0.4, 0.2]","[u'black', u'red', u'blue']","[u'left', u'middle', u'right']","[0.9, 0.5, 0.1]","[u'medium', u'low', u'high']","black",49,"left","medium","False","False",284,3400,NA
"A337Y4X67PY4QI","Wed Oct 28 2020 08:52:09 GMT-0700 (Pacific Daylight Time)","Wed Oct 28 2020 09:04:37 GMT-0700 (Pacific Daylight Time)","Mozilla/5.0 (X11; CrOS x86_64 13421.53.0) AppleWebKit/537.36 (KHTML, like Gecko) Chrome/86.0.4240.77 Safari/537.36",59,"[0.9, 0.5, 0.1]","[0.8, 0.4, 0.2]","[u'black', u'red', u'blue']","[u'left', u'middle', u'right']","[0.9, 0.5, 0.1]","[u'medium', u'low', u'high']","red",50,"middle","low","False","False",87,3350,NA
"A337Y4X67PY4QI","Wed Oct 28 2020 08:52:09 GMT-0700 (Pacific Daylight Time)","Wed Oct 28 2020 09:04:37 GMT-0700 (Pacific Daylight Time)","Mozilla/5.0 (X11; CrOS x86_64 13421.53.0) AppleWebKit/537.36 (KHTML, like Gecko) Chrome/86.0.4240.77 Safari/537.36",60,"[0.9, 0.5, 0.1]","[0.8, 0.4, 0.2]","[u'black', u'red', u'blue']","[u'left', u'middle', u'right']","[0.9, 0.5, 0.1]","[u'medium', u'low', u'high']","blue",51,"right","high","True","False",539,3450,NA
"A337Y4X67PY4QI","Wed Oct 28 2020 08:52:09 GMT-0700 (Pacific Daylight Time)","Wed Oct 28 2020 09:04:37 GMT-0700 (Pacific Daylight Time)","Mozilla/5.0 (X11; CrOS x86_64 13421.53.0) AppleWebKit/537.36 (KHTML, like Gecko) Chrome/86.0.4240.77 Safari/537.36",61,"[0.9, 0.5, 0.1]","[0.8, 0.4, 0.2]","[u'black', u'red', u'blue']","[u'left', u'middle', u'right']","[0.9, 0.5, 0.1]","[u'medium', u'low', u'high']","blue",51,"right","high","True","False",289,3550,NA
"A337Y4X67PY4QI","Wed Oct 28 2020 08:52:09 GMT-0700 (Pacific Daylight Time)","Wed Oct 28 2020 09:04:37 GMT-0700 (Pacific Daylight Time)","Mozilla/5.0 (X11; CrOS x86_64 13421.53.0) AppleWebKit/537.36 (KHTML, like Gecko) Chrome/86.0.4240.77 Safari/537.36",62,"[0.9, 0.5, 0.1]","[0.8, 0.4, 0.2]","[u'black', u'red', u'blue']","[u'left', u'middle', u'right']","[0.9, 0.5, 0.1]","[u'medium', u'low', u'high']","blue",51,"right","high","True","False",288,3650,NA
"A337Y4X67PY4QI","Wed Oct 28 2020 08:52:09 GMT-0700 (Pacific Daylight Time)","Wed Oct 28 2020 09:04:37 GMT-0700 (Pacific Daylight Time)","Mozilla/5.0 (X11; CrOS x86_64 13421.53.0) AppleWebKit/537.36 (KHTML, like Gecko) Chrome/86.0.4240.77 Safari/537.36",63,"[0.9, 0.5, 0.1]","[0.8, 0.4, 0.2]","[u'black', u'red', u'blue']","[u'left', u'middle', u'right']","[0.9, 0.5, 0.1]","[u'medium', u'low', u'high']","blue",51,"right","high","True","False",100,3750,NA
"A337Y4X67PY4QI","Wed Oct 28 2020 08:52:09 GMT-0700 (Pacific Daylight Time)","Wed Oct 28 2020 09:04:37 GMT-0700 (Pacific Daylight Time)","Mozilla/5.0 (X11; CrOS x86_64 13421.53.0) AppleWebKit/537.36 (KHTML, like Gecko) Chrome/86.0.4240.77 Safari/537.36",64,"[0.9, 0.5, 0.1]","[0.8, 0.4, 0.2]","[u'black', u'red', u'blue']","[u'left', u'middle', u'right']","[0.9, 0.5, 0.1]","[u'medium', u'low', u'high']","blue",51,"right","high","True","False",346,3850,NA
"A337Y4X67PY4QI","Wed Oct 28 2020 08:52:09 GMT-0700 (Pacific Daylight Time)","Wed Oct 28 2020 09:04:37 GMT-0700 (Pacific Daylight Time)","Mozilla/5.0 (X11; CrOS x86_64 13421.53.0) AppleWebKit/537.36 (KHTML, like Gecko) Chrome/86.0.4240.77 Safari/537.36",65,"[0.9, 0.5, 0.1]","[0.8, 0.4, 0.2]","[u'black', u'red', u'blue']","[u'left', u'middle', u'right']","[0.9, 0.5, 0.1]","[u'medium', u'low', u'high']","blue",51,"right","high","True","False",360,3950,NA
"A337Y4X67PY4QI","Wed Oct 28 2020 08:52:09 GMT-0700 (Pacific Daylight Time)","Wed Oct 28 2020 09:04:37 GMT-0700 (Pacific Daylight Time)","Mozilla/5.0 (X11; CrOS x86_64 13421.53.0) AppleWebKit/537.36 (KHTML, like Gecko) Chrome/86.0.4240.77 Safari/537.36",66,"[0.9, 0.5, 0.1]","[0.8, 0.4, 0.2]","[u'black', u'red', u'blue']","[u'left', u'middle', u'right']","[0.9, 0.5, 0.1]","[u'medium', u'low', u'high']","blue",51,"right","high","True","False",356,4050,NA
"A337Y4X67PY4QI","Wed Oct 28 2020 08:52:09 GMT-0700 (Pacific Daylight Time)","Wed Oct 28 2020 09:04:37 GMT-0700 (Pacific Daylight Time)","Mozilla/5.0 (X11; CrOS x86_64 13421.53.0) AppleWebKit/537.36 (KHTML, like Gecko) Chrome/86.0.4240.77 Safari/537.36",67,"[0.9, 0.5, 0.1]","[0.8, 0.4, 0.2]","[u'black', u'red', u'blue']","[u'left', u'middle', u'right']","[0.9, 0.5, 0.1]","[u'medium', u'low', u'high']","blue",51,"right","high","False","False",391,4000,NA
"A337Y4X67PY4QI","Wed Oct 28 2020 08:52:09 GMT-0700 (Pacific Daylight Time)","Wed Oct 28 2020 09:04:37 GMT-0700 (Pacific Daylight Time)","Mozilla/5.0 (X11; CrOS x86_64 13421.53.0) AppleWebKit/537.36 (KHTML, like Gecko) Chrome/86.0.4240.77 Safari/537.36",68,"[0.9, 0.5, 0.1]","[0.8, 0.4, 0.2]","[u'black', u'red', u'blue']","[u'left', u'middle', u'right']","[0.9, 0.5, 0.1]","[u'medium', u'low', u'high']","black",49,"left","medium","True","False",262,4100,NA
"A337Y4X67PY4QI","Wed Oct 28 2020 08:52:09 GMT-0700 (Pacific Daylight Time)","Wed Oct 28 2020 09:04:37 GMT-0700 (Pacific Daylight Time)","Mozilla/5.0 (X11; CrOS x86_64 13421.53.0) AppleWebKit/537.36 (KHTML, like Gecko) Chrome/86.0.4240.77 Safari/537.36",69,"[0.9, 0.5, 0.1]","[0.8, 0.4, 0.2]","[u'black', u'red', u'blue']","[u'left', u'middle', u'right']","[0.9, 0.5, 0.1]","[u'medium', u'low', u'high']","black",49,"left","medium","False","False",293,4050,NA
"A337Y4X67PY4QI","Wed Oct 28 2020 08:52:09 GMT-0700 (Pacific Daylight Time)","Wed Oct 28 2020 09:04:37 GMT-0700 (Pacific Daylight Time)","Mozilla/5.0 (X11; CrOS x86_64 13421.53.0) AppleWebKit/537.36 (KHTML, like Gecko) Chrome/86.0.4240.77 Safari/537.36",70,"[0.9, 0.5, 0.1]","[0.8, 0.4, 0.2]","[u'black', u'red', u'blue']","[u'left', u'middle', u'right']","[0.9, 0.5, 0.1]","[u'medium', u'low', u'high']","black",49,"left","medium","False","False",320,4000,NA
"A337Y4X67PY4QI","Wed Oct 28 2020 08:52:09 GMT-0700 (Pacific Daylight Time)","Wed Oct 28 2020 09:04:37 GMT-0700 (Pacific Daylight Time)","Mozilla/5.0 (X11; CrOS x86_64 13421.53.0) AppleWebKit/537.36 (KHTML, like Gecko) Chrome/86.0.4240.77 Safari/537.36",71,"[0.9, 0.5, 0.1]","[0.8, 0.4, 0.2]","[u'black', u'red', u'blue']","[u'left', u'middle', u'right']","[0.9, 0.5, 0.1]","[u'medium', u'low', u'high']","red",50,"middle","low","False","False",249,3950,NA
"A337Y4X67PY4QI","Wed Oct 28 2020 08:52:09 GMT-0700 (Pacific Daylight Time)","Wed Oct 28 2020 09:04:37 GMT-0700 (Pacific Daylight Time)","Mozilla/5.0 (X11; CrOS x86_64 13421.53.0) AppleWebKit/537.36 (KHTML, like Gecko) Chrome/86.0.4240.77 Safari/537.36",72,"[0.9, 0.5, 0.1]","[0.8, 0.4, 0.2]","[u'black', u'red', u'blue']","[u'left', u'middle', u'right']","[0.9, 0.5, 0.1]","[u'medium', u'low', u'high']","blue",51,"right","high","True","False",170,4050,NA
"A337Y4X67PY4QI","Wed Oct 28 2020 08:52:09 GMT-0700 (Pacific Daylight Time)","Wed Oct 28 2020 09:04:37 GMT-0700 (Pacific Daylight Time)","Mozilla/5.0 (X11; CrOS x86_64 13421.53.0) AppleWebKit/537.36 (KHTML, like Gecko) Chrome/86.0.4240.77 Safari/537.36",73,"[0.9, 0.5, 0.1]","[0.8, 0.4, 0.2]","[u'black', u'red', u'blue']","[u'left', u'middle', u'right']","[0.9, 0.5, 0.1]","[u'medium', u'low', u'high']","blue",51,"right","high","True","False",258,4150,NA
"A337Y4X67PY4QI","Wed Oct 28 2020 08:52:09 GMT-0700 (Pacific Daylight Time)","Wed Oct 28 2020 09:04:37 GMT-0700 (Pacific Daylight Time)","Mozilla/5.0 (X11; CrOS x86_64 13421.53.0) AppleWebKit/537.36 (KHTML, like Gecko) Chrome/86.0.4240.77 Safari/537.36",74,"[0.9, 0.5, 0.1]","[0.8, 0.4, 0.2]","[u'black', u'red', u'blue']","[u'left', u'middle', u'right']","[0.9, 0.5, 0.1]","[u'medium', u'low', u'high']","blue",51,"right","high","True","False",313,4250,NA
"A337Y4X67PY4QI","Wed Oct 28 2020 08:52:09 GMT-0700 (Pacific Daylight Time)","Wed Oct 28 2020 09:04:37 GMT-0700 (Pacific Daylight Time)","Mozilla/5.0 (X11; CrOS x86_64 13421.53.0) AppleWebKit/537.36 (KHTML, like Gecko) Chrome/86.0.4240.77 Safari/537.36",75,"[0.9, 0.5, 0.1]","[0.8, 0.4, 0.2]","[u'black', u'red', u'blue']","[u'left', u'middle', u'right']","[0.9, 0.5, 0.1]","[u'medium', u'low', u'high']","blue",51,"right","high","True","False",369,4350,NA
"A337Y4X67PY4QI","Wed Oct 28 2020 08:52:09 GMT-0700 (Pacific Daylight Time)","Wed Oct 28 2020 09:04:37 GMT-0700 (Pacific Daylight Time)","Mozilla/5.0 (X11; CrOS x86_64 13421.53.0) AppleWebKit/537.36 (KHTML, like Gecko) Chrome/86.0.4240.77 Safari/537.36",76,"[0.9, 0.5, 0.1]","[0.8, 0.4, 0.2]","[u'black', u'red', u'blue']","[u'left', u'middle', u'right']","[0.9, 0.5, 0.1]","[u'medium', u'low', u'high']","blue",51,"right","high","True","False",486,4450,NA
"A337Y4X67PY4QI","Wed Oct 28 2020 08:52:09 GMT-0700 (Pacific Daylight Time)","Wed Oct 28 2020 09:04:37 GMT-0700 (Pacific Daylight Time)","Mozilla/5.0 (X11; CrOS x86_64 13421.53.0) AppleWebKit/537.36 (KHTML, like Gecko) Chrome/86.0.4240.77 Safari/537.36",77,"[0.9, 0.5, 0.1]","[0.8, 0.4, 0.2]","[u'black', u'red', u'blue']","[u'left', u'middle', u'right']","[0.9, 0.5, 0.1]","[u'medium', u'low', u'high']","blue",51,"right","high","True","False",381,4550,NA
"A337Y4X67PY4QI","Wed Oct 28 2020 08:52:09 GMT-0700 (Pacific Daylight Time)","Wed Oct 28 2020 09:04:37 GMT-0700 (Pacific Daylight Time)","Mozilla/5.0 (X11; CrOS x86_64 13421.53.0) AppleWebKit/537.36 (KHTML, like Gecko) Chrome/86.0.4240.77 Safari/537.36",78,"[0.9, 0.5, 0.1]","[0.8, 0.4, 0.2]","[u'black', u'red', u'blue']","[u'left', u'middle', u'right']","[0.9, 0.5, 0.1]","[u'medium', u'low', u'high']","blue",51,"right","high","True","False",316,4650,NA
"A337Y4X67PY4QI","Wed Oct 28 2020 08:52:09 GMT-0700 (Pacific Daylight Time)","Wed Oct 28 2020 09:04:37 GMT-0700 (Pacific Daylight Time)","Mozilla/5.0 (X11; CrOS x86_64 13421.53.0) AppleWebKit/537.36 (KHTML, like Gecko) Chrome/86.0.4240.77 Safari/537.36",79,"[0.9, 0.5, 0.1]","[0.8, 0.4, 0.2]","[u'black', u'red', u'blue']","[u'left', u'middle', u'right']","[0.9, 0.5, 0.1]","[u'medium', u'low', u'high']","blue",51,"right","high","True","False",401,4750,NA
"A337Y4X67PY4QI","Wed Oct 28 2020 08:52:09 GMT-0700 (Pacific Daylight Time)","Wed Oct 28 2020 09:04:37 GMT-0700 (Pacific Daylight Time)","Mozilla/5.0 (X11; CrOS x86_64 13421.53.0) AppleWebKit/537.36 (KHTML, like Gecko) Chrome/86.0.4240.77 Safari/537.36",80,"[0.9, 0.5, 0.1]","[0.8, 0.4, 0.2]","[u'black', u'red', u'blue']","[u'left', u'middle', u'right']","[0.9, 0.5, 0.1]","[u'medium', u'low', u'high']","blue",51,"right","high","True","True",356,4850,NA
"A337Y4X67PY4QI","Wed Oct 28 2020 08:52:09 GMT-0700 (Pacific Daylight Time)","Wed Oct 28 2020 09:04:37 GMT-0700 (Pacific Daylight Time)","Mozilla/5.0 (X11; CrOS x86_64 13421.53.0) AppleWebKit/537.36 (KHTML, like Gecko) Chrome/86.0.4240.77 Safari/537.36",81,"[0.9, 0.5, 0.1]","[0.8, 0.4, 0.2]","[u'black', u'red', u'blue']","[u'left', u'middle', u'right']","[0.8, 0.4, 0.2]","[u'high', u'low', u'medium']","black",49,"left","high","False","False",512,4800,NA
"A337Y4X67PY4QI","Wed Oct 28 2020 08:52:09 GMT-0700 (Pacific Daylight Time)","Wed Oct 28 2020 09:04:37 GMT-0700 (Pacific Daylight Time)","Mozilla/5.0 (X11; CrOS x86_64 13421.53.0) AppleWebKit/537.36 (KHTML, like Gecko) Chrome/86.0.4240.77 Safari/537.36",82,"[0.9, 0.5, 0.1]","[0.8, 0.4, 0.2]","[u'black', u'red', u'blue']","[u'left', u'middle', u'right']","[0.8, 0.4, 0.2]","[u'high', u'low', u'medium']","blue",51,"right","medium","True","False",292,4900,NA
"A337Y4X67PY4QI","Wed Oct 28 2020 08:52:09 GMT-0700 (Pacific Daylight Time)","Wed Oct 28 2020 09:04:37 GMT-0700 (Pacific Daylight Time)","Mozilla/5.0 (X11; CrOS x86_64 13421.53.0) AppleWebKit/537.36 (KHTML, like Gecko) Chrome/86.0.4240.77 Safari/537.36",83,"[0.9, 0.5, 0.1]","[0.8, 0.4, 0.2]","[u'black', u'red', u'blue']","[u'left', u'middle', u'right']","[0.8, 0.4, 0.2]","[u'high', u'low', u'medium']","blue",51,"right","medium","False","False",270,4850,NA
"A337Y4X67PY4QI","Wed Oct 28 2020 08:52:09 GMT-0700 (Pacific Daylight Time)","Wed Oct 28 2020 09:04:37 GMT-0700 (Pacific Daylight Time)","Mozilla/5.0 (X11; CrOS x86_64 13421.53.0) AppleWebKit/537.36 (KHTML, like Gecko) Chrome/86.0.4240.77 Safari/537.36",84,"[0.9, 0.5, 0.1]","[0.8, 0.4, 0.2]","[u'black', u'red', u'blue']","[u'left', u'middle', u'right']","[0.8, 0.4, 0.2]","[u'high', u'low', u'medium']","red",50,"middle","low","False","False",412,4800,NA
"A337Y4X67PY4QI","Wed Oct 28 2020 08:52:09 GMT-0700 (Pacific Daylight Time)","Wed Oct 28 2020 09:04:37 GMT-0700 (Pacific Daylight Time)","Mozilla/5.0 (X11; CrOS x86_64 13421.53.0) AppleWebKit/537.36 (KHTML, like Gecko) Chrome/86.0.4240.77 Safari/537.36",85,"[0.9, 0.5, 0.1]","[0.8, 0.4, 0.2]","[u'black', u'red', u'blue']","[u'left', u'middle', u'right']","[0.8, 0.4, 0.2]","[u'high', u'low', u'medium']","black",49,"left","high","True","False",188,4900,NA
"A337Y4X67PY4QI","Wed Oct 28 2020 08:52:09 GMT-0700 (Pacific Daylight Time)","Wed Oct 28 2020 09:04:37 GMT-0700 (Pacific Daylight Time)","Mozilla/5.0 (X11; CrOS x86_64 13421.53.0) AppleWebKit/537.36 (KHTML, like Gecko) Chrome/86.0.4240.77 Safari/537.36",86,"[0.9, 0.5, 0.1]","[0.8, 0.4, 0.2]","[u'black', u'red', u'blue']","[u'left', u'middle', u'right']","[0.8, 0.4, 0.2]","[u'high', u'low', u'medium']","black",49,"left","high","True","False",441,5000,NA
"A337Y4X67PY4QI","Wed Oct 28 2020 08:52:09 GMT-0700 (Pacific Daylight Time)","Wed Oct 28 2020 09:04:37 GMT-0700 (Pacific Daylight Time)","Mozilla/5.0 (X11; CrOS x86_64 13421.53.0) AppleWebKit/537.36 (KHTML, like Gecko) Chrome/86.0.4240.77 Safari/537.36",87,"[0.9, 0.5, 0.1]","[0.8, 0.4, 0.2]","[u'black', u'red', u'blue']","[u'left', u'middle', u'right']","[0.8, 0.4, 0.2]","[u'high', u'low', u'medium']","black",49,"left","high","True","False",377,5100,NA
"A337Y4X67PY4QI","Wed Oct 28 2020 08:52:09 GMT-0700 (Pacific Daylight Time)","Wed Oct 28 2020 09:04:37 GMT-0700 (Pacific Daylight Time)","Mozilla/5.0 (X11; CrOS x86_64 13421.53.0) AppleWebKit/537.36 (KHTML, like Gecko) Chrome/86.0.4240.77 Safari/537.36",88,"[0.9, 0.5, 0.1]","[0.8, 0.4, 0.2]","[u'black', u'red', u'blue']","[u'left', u'middle', u'right']","[0.8, 0.4, 0.2]","[u'high', u'low', u'medium']","black",49,"left","high","True","False",276,5200,NA
"A337Y4X67PY4QI","Wed Oct 28 2020 08:52:09 GMT-0700 (Pacific Daylight Time)","Wed Oct 28 2020 09:04:37 GMT-0700 (Pacific Daylight Time)","Mozilla/5.0 (X11; CrOS x86_64 13421.53.0) AppleWebKit/537.36 (KHTML, like Gecko) Chrome/86.0.4240.77 Safari/537.36",89,"[0.9, 0.5, 0.1]","[0.8, 0.4, 0.2]","[u'black', u'red', u'blue']","[u'left', u'middle', u'right']","[0.8, 0.4, 0.2]","[u'high', u'low', u'medium']","black",49,"left","high","True","False",330,5300,NA
"A337Y4X67PY4QI","Wed Oct 28 2020 08:52:09 GMT-0700 (Pacific Daylight Time)","Wed Oct 28 2020 09:04:37 GMT-0700 (Pacific Daylight Time)","Mozilla/5.0 (X11; CrOS x86_64 13421.53.0) AppleWebKit/537.36 (KHTML, like Gecko) Chrome/86.0.4240.77 Safari/537.36",90,"[0.9, 0.5, 0.1]","[0.8, 0.4, 0.2]","[u'black', u'red', u'blue']","[u'left', u'middle', u'right']","[0.8, 0.4, 0.2]","[u'high', u'low', u'medium']","black",49,"left","high","True","False",549,5400,NA
"A337Y4X67PY4QI","Wed Oct 28 2020 08:52:09 GMT-0700 (Pacific Daylight Time)","Wed Oct 28 2020 09:04:37 GMT-0700 (Pacific Daylight Time)","Mozilla/5.0 (X11; CrOS x86_64 13421.53.0) AppleWebKit/537.36 (KHTML, like Gecko) Chrome/86.0.4240.77 Safari/537.36",91,"[0.9, 0.5, 0.1]","[0.8, 0.4, 0.2]","[u'black', u'red', u'blue']","[u'left', u'middle', u'right']","[0.8, 0.4, 0.2]","[u'high', u'low', u'medium']","black",49,"left","high","False","False",506,5350,NA
"A337Y4X67PY4QI","Wed Oct 28 2020 08:52:09 GMT-0700 (Pacific Daylight Time)","Wed Oct 28 2020 09:04:37 GMT-0700 (Pacific Daylight Time)","Mozilla/5.0 (X11; CrOS x86_64 13421.53.0) AppleWebKit/537.36 (KHTML, like Gecko) Chrome/86.0.4240.77 Safari/537.36",92,"[0.9, 0.5, 0.1]","[0.8, 0.4, 0.2]","[u'black', u'red', u'blue']","[u'left', u'middle', u'right']","[0.8, 0.4, 0.2]","[u'high', u'low', u'medium']","blue",51,"right","medium","True","False",193,5450,NA
"A337Y4X67PY4QI","Wed Oct 28 2020 08:52:09 GMT-0700 (Pacific Daylight Time)","Wed Oct 28 2020 09:04:37 GMT-0700 (Pacific Daylight Time)","Mozilla/5.0 (X11; CrOS x86_64 13421.53.0) AppleWebKit/537.36 (KHTML, like Gecko) Chrome/86.0.4240.77 Safari/537.36",93,"[0.9, 0.5, 0.1]","[0.8, 0.4, 0.2]","[u'black', u'red', u'blue']","[u'left', u'middle', u'right']","[0.8, 0.4, 0.2]","[u'high', u'low', u'medium']","blue",51,"right","medium","False","False",177,5400,NA
"A337Y4X67PY4QI","Wed Oct 28 2020 08:52:09 GMT-0700 (Pacific Daylight Time)","Wed Oct 28 2020 09:04:37 GMT-0700 (Pacific Daylight Time)","Mozilla/5.0 (X11; CrOS x86_64 13421.53.0) AppleWebKit/537.36 (KHTML, like Gecko) Chrome/86.0.4240.77 Safari/537.36",94,"[0.9, 0.5, 0.1]","[0.8, 0.4, 0.2]","[u'black', u'red', u'blue']","[u'left', u'middle', u'right']","[0.8, 0.4, 0.2]","[u'high', u'low', u'medium']","red",50,"middle","low","False","False",461,5350,NA
"A337Y4X67PY4QI","Wed Oct 28 2020 08:52:09 GMT-0700 (Pacific Daylight Time)","Wed Oct 28 2020 09:04:37 GMT-0700 (Pacific Daylight Time)","Mozilla/5.0 (X11; CrOS x86_64 13421.53.0) AppleWebKit/537.36 (KHTML, like Gecko) Chrome/86.0.4240.77 Safari/537.36",95,"[0.9, 0.5, 0.1]","[0.8, 0.4, 0.2]","[u'black', u'red', u'blue']","[u'left', u'middle', u'right']","[0.8, 0.4, 0.2]","[u'high', u'low', u'medium']","black",49,"left","high","False","False",302,5300,NA
"A337Y4X67PY4QI","Wed Oct 28 2020 08:52:09 GMT-0700 (Pacific Daylight Time)","Wed Oct 28 2020 09:04:37 GMT-0700 (Pacific Daylight Time)","Mozilla/5.0 (X11; CrOS x86_64 13421.53.0) AppleWebKit/537.36 (KHTML, like Gecko) Chrome/86.0.4240.77 Safari/537.36",96,"[0.9, 0.5, 0.1]","[0.8, 0.4, 0.2]","[u'black', u'red', u'blue']","[u'left', u'middle', u'right']","[0.8, 0.4, 0.2]","[u'high', u'low', u'medium']","blue",51,"right","medium","False","False",118,5250,NA
"A337Y4X67PY4QI","Wed Oct 28 2020 08:52:09 GMT-0700 (Pacific Daylight Time)","Wed Oct 28 2020 09:04:37 GMT-0700 (Pacific Daylight Time)","Mozilla/5.0 (X11; CrOS x86_64 13421.53.0) AppleWebKit/537.36 (KHTML, like Gecko) Chrome/86.0.4240.77 Safari/537.36",97,"[0.9, 0.5, 0.1]","[0.8, 0.4, 0.2]","[u'black', u'red', u'blue']","[u'left', u'middle', u'right']","[0.8, 0.4, 0.2]","[u'high', u'low', u'medium']","red",50,"middle","low","False","False",552,5200,NA
"A337Y4X67PY4QI","Wed Oct 28 2020 08:52:09 GMT-0700 (Pacific Daylight Time)","Wed Oct 28 2020 09:04:37 GMT-0700 (Pacific Daylight Time)","Mozilla/5.0 (X11; CrOS x86_64 13421.53.0) AppleWebKit/537.36 (KHTML, like Gecko) Chrome/86.0.4240.77 Safari/537.36",98,"[0.9, 0.5, 0.1]","[0.8, 0.4, 0.2]","[u'black', u'red', u'blue']","[u'left', u'middle', u'right']","[0.8, 0.4, 0.2]","[u'high', u'low', u'medium']","black",49,"left","high","True","False",331,5300,NA
"A337Y4X67PY4QI","Wed Oct 28 2020 08:52:09 GMT-0700 (Pacific Daylight Time)","Wed Oct 28 2020 09:04:37 GMT-0700 (Pacific Daylight Time)","Mozilla/5.0 (X11; CrOS x86_64 13421.53.0) AppleWebKit/537.36 (KHTML, like Gecko) Chrome/86.0.4240.77 Safari/537.36",99,"[0.9, 0.5, 0.1]","[0.8, 0.4, 0.2]","[u'black', u'red', u'blue']","[u'left', u'middle', u'right']","[0.8, 0.4, 0.2]","[u'high', u'low', u'medium']","black",49,"left","high","True","False",309,5400,NA
"A337Y4X67PY4QI","Wed Oct 28 2020 08:52:09 GMT-0700 (Pacific Daylight Time)","Wed Oct 28 2020 09:04:37 GMT-0700 (Pacific Daylight Time)","Mozilla/5.0 (X11; CrOS x86_64 13421.53.0) AppleWebKit/537.36 (KHTML, like Gecko) Chrome/86.0.4240.77 Safari/537.36",100,"[0.9, 0.5, 0.1]","[0.8, 0.4, 0.2]","[u'black', u'red', u'blue']","[u'left', u'middle', u'right']","[0.8, 0.4, 0.2]","[u'high', u'low', u'medium']","black",49,"left","high","True","False",307,5500,NA
"A337Y4X67PY4QI","Wed Oct 28 2020 08:52:09 GMT-0700 (Pacific Daylight Time)","Wed Oct 28 2020 09:04:37 GMT-0700 (Pacific Daylight Time)","Mozilla/5.0 (X11; CrOS x86_64 13421.53.0) AppleWebKit/537.36 (KHTML, like Gecko) Chrome/86.0.4240.77 Safari/537.36",101,"[0.9, 0.5, 0.1]","[0.8, 0.4, 0.2]","[u'black', u'red', u'blue']","[u'left', u'middle', u'right']","[0.8, 0.4, 0.2]","[u'high', u'low', u'medium']","black",49,"left","high","True","False",330,5600,NA
"A337Y4X67PY4QI","Wed Oct 28 2020 08:52:09 GMT-0700 (Pacific Daylight Time)","Wed Oct 28 2020 09:04:37 GMT-0700 (Pacific Daylight Time)","Mozilla/5.0 (X11; CrOS x86_64 13421.53.0) AppleWebKit/537.36 (KHTML, like Gecko) Chrome/86.0.4240.77 Safari/537.36",102,"[0.9, 0.5, 0.1]","[0.8, 0.4, 0.2]","[u'black', u'red', u'blue']","[u'left', u'middle', u'right']","[0.8, 0.4, 0.2]","[u'high', u'low', u'medium']","black",49,"left","high","True","False",413,5700,NA
"A337Y4X67PY4QI","Wed Oct 28 2020 08:52:09 GMT-0700 (Pacific Daylight Time)","Wed Oct 28 2020 09:04:37 GMT-0700 (Pacific Daylight Time)","Mozilla/5.0 (X11; CrOS x86_64 13421.53.0) AppleWebKit/537.36 (KHTML, like Gecko) Chrome/86.0.4240.77 Safari/537.36",103,"[0.9, 0.5, 0.1]","[0.8, 0.4, 0.2]","[u'black', u'red', u'blue']","[u'left', u'middle', u'right']","[0.8, 0.4, 0.2]","[u'high', u'low', u'medium']","black",49,"left","high","True","False",273,5800,NA
"A337Y4X67PY4QI","Wed Oct 28 2020 08:52:09 GMT-0700 (Pacific Daylight Time)","Wed Oct 28 2020 09:04:37 GMT-0700 (Pacific Daylight Time)","Mozilla/5.0 (X11; CrOS x86_64 13421.53.0) AppleWebKit/537.36 (KHTML, like Gecko) Chrome/86.0.4240.77 Safari/537.36",104,"[0.9, 0.5, 0.1]","[0.8, 0.4, 0.2]","[u'black', u'red', u'blue']","[u'left', u'middle', u'right']","[0.8, 0.4, 0.2]","[u'high', u'low', u'medium']","black",49,"left","high","True","False",408,5900,NA
"A337Y4X67PY4QI","Wed Oct 28 2020 08:52:09 GMT-0700 (Pacific Daylight Time)","Wed Oct 28 2020 09:04:37 GMT-0700 (Pacific Daylight Time)","Mozilla/5.0 (X11; CrOS x86_64 13421.53.0) AppleWebKit/537.36 (KHTML, like Gecko) Chrome/86.0.4240.77 Safari/537.36",105,"[0.9, 0.5, 0.1]","[0.8, 0.4, 0.2]","[u'black', u'red', u'blue']","[u'left', u'middle', u'right']","[0.8, 0.4, 0.2]","[u'high', u'low', u'medium']","black",49,"left","high","False","False",281,5850,NA
"A337Y4X67PY4QI","Wed Oct 28 2020 08:52:09 GMT-0700 (Pacific Daylight Time)","Wed Oct 28 2020 09:04:37 GMT-0700 (Pacific Daylight Time)","Mozilla/5.0 (X11; CrOS x86_64 13421.53.0) AppleWebKit/537.36 (KHTML, like Gecko) Chrome/86.0.4240.77 Safari/537.36",106,"[0.9, 0.5, 0.1]","[0.8, 0.4, 0.2]","[u'black', u'red', u'blue']","[u'left', u'middle', u'right']","[0.8, 0.4, 0.2]","[u'high', u'low', u'medium']","red",50,"middle","low","False","False",197,5800,NA
"A337Y4X67PY4QI","Wed Oct 28 2020 08:52:09 GMT-0700 (Pacific Daylight Time)","Wed Oct 28 2020 09:04:37 GMT-0700 (Pacific Daylight Time)","Mozilla/5.0 (X11; CrOS x86_64 13421.53.0) AppleWebKit/537.36 (KHTML, like Gecko) Chrome/86.0.4240.77 Safari/537.36",107,"[0.9, 0.5, 0.1]","[0.8, 0.4, 0.2]","[u'black', u'red', u'blue']","[u'left', u'middle', u'right']","[0.8, 0.4, 0.2]","[u'high', u'low', u'medium']","blue",51,"right","medium","True","False",264,5900,NA
"A337Y4X67PY4QI","Wed Oct 28 2020 08:52:09 GMT-0700 (Pacific Daylight Time)","Wed Oct 28 2020 09:04:37 GMT-0700 (Pacific Daylight Time)","Mozilla/5.0 (X11; CrOS x86_64 13421.53.0) AppleWebKit/537.36 (KHTML, like Gecko) Chrome/86.0.4240.77 Safari/537.36",108,"[0.9, 0.5, 0.1]","[0.8, 0.4, 0.2]","[u'black', u'red', u'blue']","[u'left', u'middle', u'right']","[0.8, 0.4, 0.2]","[u'high', u'low', u'medium']","blue",51,"right","medium","True","False",170,6000,NA
"A337Y4X67PY4QI","Wed Oct 28 2020 08:52:09 GMT-0700 (Pacific Daylight Time)","Wed Oct 28 2020 09:04:37 GMT-0700 (Pacific Daylight Time)","Mozilla/5.0 (X11; CrOS x86_64 13421.53.0) AppleWebKit/537.36 (KHTML, like Gecko) Chrome/86.0.4240.77 Safari/537.36",109,"[0.9, 0.5, 0.1]","[0.8, 0.4, 0.2]","[u'black', u'red', u'blue']","[u'left', u'middle', u'right']","[0.8, 0.4, 0.2]","[u'high', u'low', u'medium']","blue",51,"right","medium","False","False",286,5950,NA
"A337Y4X67PY4QI","Wed Oct 28 2020 08:52:09 GMT-0700 (Pacific Daylight Time)","Wed Oct 28 2020 09:04:37 GMT-0700 (Pacific Daylight Time)","Mozilla/5.0 (X11; CrOS x86_64 13421.53.0) AppleWebKit/537.36 (KHTML, like Gecko) Chrome/86.0.4240.77 Safari/537.36",110,"[0.9, 0.5, 0.1]","[0.8, 0.4, 0.2]","[u'black', u'red', u'blue']","[u'left', u'middle', u'right']","[0.8, 0.4, 0.2]","[u'high', u'low', u'medium']","red",50,"middle","low","False","False",11,5900,NA
"A337Y4X67PY4QI","Wed Oct 28 2020 08:52:09 GMT-0700 (Pacific Daylight Time)","Wed Oct 28 2020 09:04:37 GMT-0700 (Pacific Daylight Time)","Mozilla/5.0 (X11; CrOS x86_64 13421.53.0) AppleWebKit/537.36 (KHTML, like Gecko) Chrome/86.0.4240.77 Safari/537.36",111,"[0.9, 0.5, 0.1]","[0.8, 0.4, 0.2]","[u'black', u'red', u'blue']","[u'left', u'middle', u'right']","[0.8, 0.4, 0.2]","[u'high', u'low', u'medium']","black",49,"left","high","True","False",245,6000,NA
"A337Y4X67PY4QI","Wed Oct 28 2020 08:52:09 GMT-0700 (Pacific Daylight Time)","Wed Oct 28 2020 09:04:37 GMT-0700 (Pacific Daylight Time)","Mozilla/5.0 (X11; CrOS x86_64 13421.53.0) AppleWebKit/537.36 (KHTML, like Gecko) Chrome/86.0.4240.77 Safari/537.36",112,"[0.9, 0.5, 0.1]","[0.8, 0.4, 0.2]","[u'black', u'red', u'blue']","[u'left', u'middle', u'right']","[0.8, 0.4, 0.2]","[u'high', u'low', u'medium']","black",49,"left","high","True","False",216,6100,NA
"A337Y4X67PY4QI","Wed Oct 28 2020 08:52:09 GMT-0700 (Pacific Daylight Time)","Wed Oct 28 2020 09:04:37 GMT-0700 (Pacific Daylight Time)","Mozilla/5.0 (X11; CrOS x86_64 13421.53.0) AppleWebKit/537.36 (KHTML, like Gecko) Chrome/86.0.4240.77 Safari/537.36",113,"[0.9, 0.5, 0.1]","[0.8, 0.4, 0.2]","[u'black', u'red', u'blue']","[u'left', u'middle', u'right']","[0.8, 0.4, 0.2]","[u'high', u'low', u'medium']","black",49,"left","high","True","False",285,6200,NA
"A337Y4X67PY4QI","Wed Oct 28 2020 08:52:09 GMT-0700 (Pacific Daylight Time)","Wed Oct 28 2020 09:04:37 GMT-0700 (Pacific Daylight Time)","Mozilla/5.0 (X11; CrOS x86_64 13421.53.0) AppleWebKit/537.36 (KHTML, like Gecko) Chrome/86.0.4240.77 Safari/537.36",114,"[0.9, 0.5, 0.1]","[0.8, 0.4, 0.2]","[u'black', u'red', u'blue']","[u'left', u'middle', u'right']","[0.8, 0.4, 0.2]","[u'high', u'low', u'medium']","black",49,"left","high","True","False",311,6300,NA
"A337Y4X67PY4QI","Wed Oct 28 2020 08:52:09 GMT-0700 (Pacific Daylight Time)","Wed Oct 28 2020 09:04:37 GMT-0700 (Pacific Daylight Time)","Mozilla/5.0 (X11; CrOS x86_64 13421.53.0) AppleWebKit/537.36 (KHTML, like Gecko) Chrome/86.0.4240.77 Safari/537.36",115,"[0.9, 0.5, 0.1]","[0.8, 0.4, 0.2]","[u'black', u'red', u'blue']","[u'left', u'middle', u'right']","[0.8, 0.4, 0.2]","[u'high', u'low', u'medium']","black",49,"left","high","True","False",355,6400,NA
"A337Y4X67PY4QI","Wed Oct 28 2020 08:52:09 GMT-0700 (Pacific Daylight Time)","Wed Oct 28 2020 09:04:37 GMT-0700 (Pacific Daylight Time)","Mozilla/5.0 (X11; CrOS x86_64 13421.53.0) AppleWebKit/537.36 (KHTML, like Gecko) Chrome/86.0.4240.77 Safari/537.36",116,"[0.9, 0.5, 0.1]","[0.8, 0.4, 0.2]","[u'black', u'red', u'blue']","[u'left', u'middle', u'right']","[0.8, 0.4, 0.2]","[u'high', u'low', u'medium']","black",49,"left","high","True","False",490,6500,NA
"A337Y4X67PY4QI","Wed Oct 28 2020 08:52:09 GMT-0700 (Pacific Daylight Time)","Wed Oct 28 2020 09:04:37 GMT-0700 (Pacific Daylight Time)","Mozilla/5.0 (X11; CrOS x86_64 13421.53.0) AppleWebKit/537.36 (KHTML, like Gecko) Chrome/86.0.4240.77 Safari/537.36",117,"[0.9, 0.5, 0.1]","[0.8, 0.4, 0.2]","[u'black', u'red', u'blue']","[u'left', u'middle', u'right']","[0.8, 0.4, 0.2]","[u'high', u'low', u'medium']","black",49,"left","high","True","False",367,6600,NA
"A337Y4X67PY4QI","Wed Oct 28 2020 08:52:09 GMT-0700 (Pacific Daylight Time)","Wed Oct 28 2020 09:04:37 GMT-0700 (Pacific Daylight Time)","Mozilla/5.0 (X11; CrOS x86_64 13421.53.0) AppleWebKit/537.36 (KHTML, like Gecko) Chrome/86.0.4240.77 Safari/537.36",118,"[0.9, 0.5, 0.1]","[0.8, 0.4, 0.2]","[u'black', u'red', u'blue']","[u'left', u'middle', u'right']","[0.8, 0.4, 0.2]","[u'high', u'low', u'medium']","black",49,"left","high","True","False",380,6700,NA
"A337Y4X67PY4QI","Wed Oct 28 2020 08:52:09 GMT-0700 (Pacific Daylight Time)","Wed Oct 28 2020 09:04:37 GMT-0700 (Pacific Daylight Time)","Mozilla/5.0 (X11; CrOS x86_64 13421.53.0) AppleWebKit/537.36 (KHTML, like Gecko) Chrome/86.0.4240.77 Safari/537.36",119,"[0.9, 0.5, 0.1]","[0.8, 0.4, 0.2]","[u'black', u'red', u'blue']","[u'left', u'middle', u'right']","[0.8, 0.4, 0.2]","[u'high', u'low', u'medium']","black",49,"left","high","True","True",1510,6800,NA
"A337Y4X67PY4QI","Wed Oct 28 2020 08:52:09 GMT-0700 (Pacific Daylight Time)","Wed Oct 28 2020 09:04:37 GMT-0700 (Pacific Daylight Time)","Mozilla/5.0 (X11; CrOS x86_64 13421.53.0) AppleWebKit/537.36 (KHTML, like Gecko) Chrome/86.0.4240.77 Safari/537.36",120,"[0.9, 0.5, 0.1]","[0.8, 0.4, 0.2]","[u'black', u'red', u'blue']","[u'left', u'middle', u'right']","[0.8, 0.4, 0.2]","[u'medium', u'high', u'low']","black",49,"left","medium","True","False",411,6900,NA
"A337Y4X67PY4QI","Wed Oct 28 2020 08:52:09 GMT-0700 (Pacific Daylight Time)","Wed Oct 28 2020 09:04:37 GMT-0700 (Pacific Daylight Time)","Mozilla/5.0 (X11; CrOS x86_64 13421.53.0) AppleWebKit/537.36 (KHTML, like Gecko) Chrome/86.0.4240.77 Safari/537.36",121,"[0.9, 0.5, 0.1]","[0.8, 0.4, 0.2]","[u'black', u'red', u'blue']","[u'left', u'middle', u'right']","[0.8, 0.4, 0.2]","[u'high', u'low', u'medium']","black",49,"left","high","False","False",2485,6850,NA
"A337Y4X67PY4QI","Wed Oct 28 2020 08:52:09 GMT-0700 (Pacific Daylight Time)","Wed Oct 28 2020 09:04:37 GMT-0700 (Pacific Daylight Time)","Mozilla/5.0 (X11; CrOS x86_64 13421.53.0) AppleWebKit/537.36 (KHTML, like Gecko) Chrome/86.0.4240.77 Safari/537.36",122,"[0.9, 0.5, 0.1]","[0.8, 0.4, 0.2]","[u'black', u'red', u'blue']","[u'left', u'middle', u'right']","[0.8, 0.4, 0.2]","[u'high', u'low', u'medium']","red",50,"middle","low","False","False",199,6800,NA
"A337Y4X67PY4QI","Wed Oct 28 2020 08:52:09 GMT-0700 (Pacific Daylight Time)","Wed Oct 28 2020 09:04:37 GMT-0700 (Pacific Daylight Time)","Mozilla/5.0 (X11; CrOS x86_64 13421.53.0) AppleWebKit/537.36 (KHTML, like Gecko) Chrome/86.0.4240.77 Safari/537.36",123,"[0.9, 0.5, 0.1]","[0.8, 0.4, 0.2]","[u'black', u'red', u'blue']","[u'left', u'middle', u'right']","[0.8, 0.4, 0.2]","[u'high', u'low', u'medium']","blue",51,"right","medium","True","False",321,6900,NA
"A337Y4X67PY4QI","Wed Oct 28 2020 08:52:09 GMT-0700 (Pacific Daylight Time)","Wed Oct 28 2020 09:04:37 GMT-0700 (Pacific Daylight Time)","Mozilla/5.0 (X11; CrOS x86_64 13421.53.0) AppleWebKit/537.36 (KHTML, like Gecko) Chrome/86.0.4240.77 Safari/537.36",124,"[0.9, 0.5, 0.1]","[0.8, 0.4, 0.2]","[u'black', u'red', u'blue']","[u'left', u'middle', u'right']","[0.8, 0.4, 0.2]","[u'high', u'low', u'medium']","blue",51,"right","medium","True","False",348,7000,NA
"A337Y4X67PY4QI","Wed Oct 28 2020 08:52:09 GMT-0700 (Pacific Daylight Time)","Wed Oct 28 2020 09:04:37 GMT-0700 (Pacific Daylight Time)","Mozilla/5.0 (X11; CrOS x86_64 13421.53.0) AppleWebKit/537.36 (KHTML, like Gecko) Chrome/86.0.4240.77 Safari/537.36",125,"[0.9, 0.5, 0.1]","[0.8, 0.4, 0.2]","[u'black', u'red', u'blue']","[u'left', u'middle', u'right']","[0.8, 0.4, 0.2]","[u'high', u'low', u'medium']","blue",51,"right","medium","True","False",376,7100,NA
"A337Y4X67PY4QI","Wed Oct 28 2020 08:52:09 GMT-0700 (Pacific Daylight Time)","Wed Oct 28 2020 09:04:37 GMT-0700 (Pacific Daylight Time)","Mozilla/5.0 (X11; CrOS x86_64 13421.53.0) AppleWebKit/537.36 (KHTML, like Gecko) Chrome/86.0.4240.77 Safari/537.36",126,"[0.9, 0.5, 0.1]","[0.8, 0.4, 0.2]","[u'black', u'red', u'blue']","[u'left', u'middle', u'right']","[0.8, 0.4, 0.2]","[u'high', u'low', u'medium']","blue",51,"right","medium","False","False",320,7050,NA
"A337Y4X67PY4QI","Wed Oct 28 2020 08:52:09 GMT-0700 (Pacific Daylight Time)","Wed Oct 28 2020 09:04:37 GMT-0700 (Pacific Daylight Time)","Mozilla/5.0 (X11; CrOS x86_64 13421.53.0) AppleWebKit/537.36 (KHTML, like Gecko) Chrome/86.0.4240.77 Safari/537.36",127,"[0.9, 0.5, 0.1]","[0.8, 0.4, 0.2]","[u'black', u'red', u'blue']","[u'left', u'middle', u'right']","[0.8, 0.4, 0.2]","[u'high', u'low', u'medium']","red",50,"middle","low","False","False",553,7000,NA
"A337Y4X67PY4QI","Wed Oct 28 2020 08:52:09 GMT-0700 (Pacific Daylight Time)","Wed Oct 28 2020 09:04:37 GMT-0700 (Pacific Daylight Time)","Mozilla/5.0 (X11; CrOS x86_64 13421.53.0) AppleWebKit/537.36 (KHTML, like Gecko) Chrome/86.0.4240.77 Safari/537.36",128,"[0.9, 0.5, 0.1]","[0.8, 0.4, 0.2]","[u'black', u'red', u'blue']","[u'left', u'middle', u'right']","[0.8, 0.4, 0.2]","[u'high', u'low', u'medium']","black",49,"left","high","True","False",302,7100,NA
"A337Y4X67PY4QI","Wed Oct 28 2020 08:52:09 GMT-0700 (Pacific Daylight Time)","Wed Oct 28 2020 09:04:37 GMT-0700 (Pacific Daylight Time)","Mozilla/5.0 (X11; CrOS x86_64 13421.53.0) AppleWebKit/537.36 (KHTML, like Gecko) Chrome/86.0.4240.77 Safari/537.36",129,"[0.9, 0.5, 0.1]","[0.8, 0.4, 0.2]","[u'black', u'red', u'blue']","[u'left', u'middle', u'right']","[0.8, 0.4, 0.2]","[u'high', u'low', u'medium']","black",49,"left","high","True","False",369,7200,NA
"A337Y4X67PY4QI","Wed Oct 28 2020 08:52:09 GMT-0700 (Pacific Daylight Time)","Wed Oct 28 2020 09:04:37 GMT-0700 (Pacific Daylight Time)","Mozilla/5.0 (X11; CrOS x86_64 13421.53.0) AppleWebKit/537.36 (KHTML, like Gecko) Chrome/86.0.4240.77 Safari/537.36",130,"[0.9, 0.5, 0.1]","[0.8, 0.4, 0.2]","[u'black', u'red', u'blue']","[u'left', u'middle', u'right']","[0.8, 0.4, 0.2]","[u'high', u'low', u'medium']","black",49,"left","high","False","False",313,7150,NA
"A337Y4X67PY4QI","Wed Oct 28 2020 08:52:09 GMT-0700 (Pacific Daylight Time)","Wed Oct 28 2020 09:04:37 GMT-0700 (Pacific Daylight Time)","Mozilla/5.0 (X11; CrOS x86_64 13421.53.0) AppleWebKit/537.36 (KHTML, like Gecko) Chrome/86.0.4240.77 Safari/537.36",131,"[0.9, 0.5, 0.1]","[0.8, 0.4, 0.2]","[u'black', u'red', u'blue']","[u'left', u'middle', u'right']","[0.8, 0.4, 0.2]","[u'high', u'low', u'medium']","red",50,"middle","low","False","False",107,7100,NA
"A337Y4X67PY4QI","Wed Oct 28 2020 08:52:09 GMT-0700 (Pacific Daylight Time)","Wed Oct 28 2020 09:04:37 GMT-0700 (Pacific Daylight Time)","Mozilla/5.0 (X11; CrOS x86_64 13421.53.0) AppleWebKit/537.36 (KHTML, like Gecko) Chrome/86.0.4240.77 Safari/537.36",132,"[0.9, 0.5, 0.1]","[0.8, 0.4, 0.2]","[u'black', u'red', u'blue']","[u'left', u'middle', u'right']","[0.8, 0.4, 0.2]","[u'high', u'low', u'medium']","blue",51,"right","medium","False","False",208,7050,NA
"A337Y4X67PY4QI","Wed Oct 28 2020 08:52:09 GMT-0700 (Pacific Daylight Time)","Wed Oct 28 2020 09:04:37 GMT-0700 (Pacific Daylight Time)","Mozilla/5.0 (X11; CrOS x86_64 13421.53.0) AppleWebKit/537.36 (KHTML, like Gecko) Chrome/86.0.4240.77 Safari/537.36",133,"[0.9, 0.5, 0.1]","[0.8, 0.4, 0.2]","[u'black', u'red', u'blue']","[u'left', u'middle', u'right']","[0.8, 0.4, 0.2]","[u'high', u'low', u'medium']","red",50,"middle","low","True","False",169,7150,NA
"A337Y4X67PY4QI","Wed Oct 28 2020 08:52:09 GMT-0700 (Pacific Daylight Time)","Wed Oct 28 2020 09:04:37 GMT-0700 (Pacific Daylight Time)","Mozilla/5.0 (X11; CrOS x86_64 13421.53.0) AppleWebKit/537.36 (KHTML, like Gecko) Chrome/86.0.4240.77 Safari/537.36",134,"[0.9, 0.5, 0.1]","[0.8, 0.4, 0.2]","[u'black', u'red', u'blue']","[u'left', u'middle', u'right']","[0.8, 0.4, 0.2]","[u'high', u'low', u'medium']","red",50,"middle","low","False","False",105,7100,NA
"A337Y4X67PY4QI","Wed Oct 28 2020 08:52:09 GMT-0700 (Pacific Daylight Time)","Wed Oct 28 2020 09:04:37 GMT-0700 (Pacific Daylight Time)","Mozilla/5.0 (X11; CrOS x86_64 13421.53.0) AppleWebKit/537.36 (KHTML, like Gecko) Chrome/86.0.4240.77 Safari/537.36",135,"[0.9, 0.5, 0.1]","[0.8, 0.4, 0.2]","[u'black', u'red', u'blue']","[u'left', u'middle', u'right']","[0.8, 0.4, 0.2]","[u'high', u'low', u'medium']","black",49,"left","high","False","False",297,7050,NA
"A337Y4X67PY4QI","Wed Oct 28 2020 08:52:09 GMT-0700 (Pacific Daylight Time)","Wed Oct 28 2020 09:04:37 GMT-0700 (Pacific Daylight Time)","Mozilla/5.0 (X11; CrOS x86_64 13421.53.0) AppleWebKit/537.36 (KHTML, like Gecko) Chrome/86.0.4240.77 Safari/537.36",136,"[0.9, 0.5, 0.1]","[0.8, 0.4, 0.2]","[u'black', u'red', u'blue']","[u'left', u'middle', u'right']","[0.8, 0.4, 0.2]","[u'high', u'low', u'medium']","blue",51,"right","medium","False","False",318,7000,NA
"A337Y4X67PY4QI","Wed Oct 28 2020 08:52:09 GMT-0700 (Pacific Daylight Time)","Wed Oct 28 2020 09:04:37 GMT-0700 (Pacific Daylight Time)","Mozilla/5.0 (X11; CrOS x86_64 13421.53.0) AppleWebKit/537.36 (KHTML, like Gecko) Chrome/86.0.4240.77 Safari/537.36",137,"[0.9, 0.5, 0.1]","[0.8, 0.4, 0.2]","[u'black', u'red', u'blue']","[u'left', u'middle', u'right']","[0.8, 0.4, 0.2]","[u'high', u'low', u'medium']","red",50,"middle","low","False","False",280,6950,NA
"A337Y4X67PY4QI","Wed Oct 28 2020 08:52:09 GMT-0700 (Pacific Daylight Time)","Wed Oct 28 2020 09:04:37 GMT-0700 (Pacific Daylight Time)","Mozilla/5.0 (X11; CrOS x86_64 13421.53.0) AppleWebKit/537.36 (KHTML, like Gecko) Chrome/86.0.4240.77 Safari/537.36",138,"[0.9, 0.5, 0.1]","[0.8, 0.4, 0.2]","[u'black', u'red', u'blue']","[u'left', u'middle', u'right']","[0.8, 0.4, 0.2]","[u'high', u'low', u'medium']","black",49,"left","high","True","False",245,7050,NA
"A337Y4X67PY4QI","Wed Oct 28 2020 08:52:09 GMT-0700 (Pacific Daylight Time)","Wed Oct 28 2020 09:04:37 GMT-0700 (Pacific Daylight Time)","Mozilla/5.0 (X11; CrOS x86_64 13421.53.0) AppleWebKit/537.36 (KHTML, like Gecko) Chrome/86.0.4240.77 Safari/537.36",139,"[0.9, 0.5, 0.1]","[0.8, 0.4, 0.2]","[u'black', u'red', u'blue']","[u'left', u'middle', u'right']","[0.8, 0.4, 0.2]","[u'high', u'low', u'medium']","black",49,"left","high","False","False",303,7000,NA
"A337Y4X67PY4QI","Wed Oct 28 2020 08:52:09 GMT-0700 (Pacific Daylight Time)","Wed Oct 28 2020 09:04:37 GMT-0700 (Pacific Daylight Time)","Mozilla/5.0 (X11; CrOS x86_64 13421.53.0) AppleWebKit/537.36 (KHTML, like Gecko) Chrome/86.0.4240.77 Safari/537.36",140,"[0.9, 0.5, 0.1]","[0.8, 0.4, 0.2]","[u'black', u'red', u'blue']","[u'left', u'middle', u'right']","[0.8, 0.4, 0.2]","[u'high', u'low', u'medium']","blue",51,"right","medium","True","False",349,7100,NA
"A337Y4X67PY4QI","Wed Oct 28 2020 08:52:09 GMT-0700 (Pacific Daylight Time)","Wed Oct 28 2020 09:04:37 GMT-0700 (Pacific Daylight Time)","Mozilla/5.0 (X11; CrOS x86_64 13421.53.0) AppleWebKit/537.36 (KHTML, like Gecko) Chrome/86.0.4240.77 Safari/537.36",141,"[0.9, 0.5, 0.1]","[0.8, 0.4, 0.2]","[u'black', u'red', u'blue']","[u'left', u'middle', u'right']","[0.8, 0.4, 0.2]","[u'high', u'low', u'medium']","blue",51,"right","medium","False","False",408,7050,NA
"A337Y4X67PY4QI","Wed Oct 28 2020 08:52:09 GMT-0700 (Pacific Daylight Time)","Wed Oct 28 2020 09:04:37 GMT-0700 (Pacific Daylight Time)","Mozilla/5.0 (X11; CrOS x86_64 13421.53.0) AppleWebKit/537.36 (KHTML, like Gecko) Chrome/86.0.4240.77 Safari/537.36",142,"[0.9, 0.5, 0.1]","[0.8, 0.4, 0.2]","[u'black', u'red', u'blue']","[u'left', u'middle', u'right']","[0.8, 0.4, 0.2]","[u'high', u'low', u'medium']","red",50,"middle","low","False","False",360,7000,NA
"A337Y4X67PY4QI","Wed Oct 28 2020 08:52:09 GMT-0700 (Pacific Daylight Time)","Wed Oct 28 2020 09:04:37 GMT-0700 (Pacific Daylight Time)","Mozilla/5.0 (X11; CrOS x86_64 13421.53.0) AppleWebKit/537.36 (KHTML, like Gecko) Chrome/86.0.4240.77 Safari/537.36",143,"[0.9, 0.5, 0.1]","[0.8, 0.4, 0.2]","[u'black', u'red', u'blue']","[u'left', u'middle', u'right']","[0.8, 0.4, 0.2]","[u'high', u'low', u'medium']","blue",51,"right","medium","False","False",342,6950,NA
"A337Y4X67PY4QI","Wed Oct 28 2020 08:52:09 GMT-0700 (Pacific Daylight Time)","Wed Oct 28 2020 09:04:37 GMT-0700 (Pacific Daylight Time)","Mozilla/5.0 (X11; CrOS x86_64 13421.53.0) AppleWebKit/537.36 (KHTML, like Gecko) Chrome/86.0.4240.77 Safari/537.36",144,"[0.9, 0.5, 0.1]","[0.8, 0.4, 0.2]","[u'black', u'red', u'blue']","[u'left', u'middle', u'right']","[0.8, 0.4, 0.2]","[u'high', u'low', u'medium']","black",49,"left","high","True","False",378,7050,NA
"A337Y4X67PY4QI","Wed Oct 28 2020 08:52:09 GMT-0700 (Pacific Daylight Time)","Wed Oct 28 2020 09:04:37 GMT-0700 (Pacific Daylight Time)","Mozilla/5.0 (X11; CrOS x86_64 13421.53.0) AppleWebKit/537.36 (KHTML, like Gecko) Chrome/86.0.4240.77 Safari/537.36",145,"[0.9, 0.5, 0.1]","[0.8, 0.4, 0.2]","[u'black', u'red', u'blue']","[u'left', u'middle', u'right']","[0.8, 0.4, 0.2]","[u'high', u'low', u'medium']","black",49,"left","high","True","False",321,7150,NA
"A337Y4X67PY4QI","Wed Oct 28 2020 08:52:09 GMT-0700 (Pacific Daylight Time)","Wed Oct 28 2020 09:04:37 GMT-0700 (Pacific Daylight Time)","Mozilla/5.0 (X11; CrOS x86_64 13421.53.0) AppleWebKit/537.36 (KHTML, like Gecko) Chrome/86.0.4240.77 Safari/537.36",146,"[0.9, 0.5, 0.1]","[0.8, 0.4, 0.2]","[u'black', u'red', u'blue']","[u'left', u'middle', u'right']","[0.8, 0.4, 0.2]","[u'high', u'low', u'medium']","black",49,"left","high","True","False",333,7250,NA
"A337Y4X67PY4QI","Wed Oct 28 2020 08:52:09 GMT-0700 (Pacific Daylight Time)","Wed Oct 28 2020 09:04:37 GMT-0700 (Pacific Daylight Time)","Mozilla/5.0 (X11; CrOS x86_64 13421.53.0) AppleWebKit/537.36 (KHTML, like Gecko) Chrome/86.0.4240.77 Safari/537.36",147,"[0.9, 0.5, 0.1]","[0.8, 0.4, 0.2]","[u'black', u'red', u'blue']","[u'left', u'middle', u'right']","[0.8, 0.4, 0.2]","[u'high', u'low', u'medium']","black",49,"left","high","False","False",266,7200,NA
"A337Y4X67PY4QI","Wed Oct 28 2020 08:52:09 GMT-0700 (Pacific Daylight Time)","Wed Oct 28 2020 09:04:37 GMT-0700 (Pacific Daylight Time)","Mozilla/5.0 (X11; CrOS x86_64 13421.53.0) AppleWebKit/537.36 (KHTML, like Gecko) Chrome/86.0.4240.77 Safari/537.36",148,"[0.9, 0.5, 0.1]","[0.8, 0.4, 0.2]","[u'black', u'red', u'blue']","[u'left', u'middle', u'right']","[0.8, 0.4, 0.2]","[u'high', u'low', u'medium']","blue",51,"right","medium","False","False",311,7150,NA
"A337Y4X67PY4QI","Wed Oct 28 2020 08:52:09 GMT-0700 (Pacific Daylight Time)","Wed Oct 28 2020 09:04:37 GMT-0700 (Pacific Daylight Time)","Mozilla/5.0 (X11; CrOS x86_64 13421.53.0) AppleWebKit/537.36 (KHTML, like Gecko) Chrome/86.0.4240.77 Safari/537.36",149,"[0.9, 0.5, 0.1]","[0.8, 0.4, 0.2]","[u'black', u'red', u'blue']","[u'left', u'middle', u'right']","[0.8, 0.4, 0.2]","[u'high', u'low', u'medium']","black",49,"left","high","True","False",254,7250,NA
"A337Y4X67PY4QI","Wed Oct 28 2020 08:52:09 GMT-0700 (Pacific Daylight Time)","Wed Oct 28 2020 09:04:37 GMT-0700 (Pacific Daylight Time)","Mozilla/5.0 (X11; CrOS x86_64 13421.53.0) AppleWebKit/537.36 (KHTML, like Gecko) Chrome/86.0.4240.77 Safari/537.36",150,"[0.9, 0.5, 0.1]","[0.8, 0.4, 0.2]","[u'black', u'red', u'blue']","[u'left', u'middle', u'right']","[0.8, 0.4, 0.2]","[u'high', u'low', u'medium']","black",49,"left","high","True","False",242,7350,NA
"A337Y4X67PY4QI","Wed Oct 28 2020 08:52:09 GMT-0700 (Pacific Daylight Time)","Wed Oct 28 2020 09:04:37 GMT-0700 (Pacific Daylight Time)","Mozilla/5.0 (X11; CrOS x86_64 13421.53.0) AppleWebKit/537.36 (KHTML, like Gecko) Chrome/86.0.4240.77 Safari/537.36",151,"[0.9, 0.5, 0.1]","[0.8, 0.4, 0.2]","[u'black', u'red', u'blue']","[u'left', u'middle', u'right']","[0.8, 0.4, 0.2]","[u'high', u'low', u'medium']","black",49,"left","high","True","False",188,7450,NA
"A337Y4X67PY4QI","Wed Oct 28 2020 08:52:09 GMT-0700 (Pacific Daylight Time)","Wed Oct 28 2020 09:04:37 GMT-0700 (Pacific Daylight Time)","Mozilla/5.0 (X11; CrOS x86_64 13421.53.0) AppleWebKit/537.36 (KHTML, like Gecko) Chrome/86.0.4240.77 Safari/537.36",152,"[0.9, 0.5, 0.1]","[0.8, 0.4, 0.2]","[u'black', u'red', u'blue']","[u'left', u'middle', u'right']","[0.8, 0.4, 0.2]","[u'high', u'low', u'medium']","black",49,"left","high","False","False",36,7400,NA
"A337Y4X67PY4QI","Wed Oct 28 2020 08:52:09 GMT-0700 (Pacific Daylight Time)","Wed Oct 28 2020 09:04:37 GMT-0700 (Pacific Daylight Time)","Mozilla/5.0 (X11; CrOS x86_64 13421.53.0) AppleWebKit/537.36 (KHTML, like Gecko) Chrome/86.0.4240.77 Safari/537.36",153,"[0.9, 0.5, 0.1]","[0.8, 0.4, 0.2]","[u'black', u'red', u'blue']","[u'left', u'middle', u'right']","[0.8, 0.4, 0.2]","[u'high', u'low', u'medium']","red",50,"middle","low","False","False",275,7350,NA
"A337Y4X67PY4QI","Wed Oct 28 2020 08:52:09 GMT-0700 (Pacific Daylight Time)","Wed Oct 28 2020 09:04:37 GMT-0700 (Pacific Daylight Time)","Mozilla/5.0 (X11; CrOS x86_64 13421.53.0) AppleWebKit/537.36 (KHTML, like Gecko) Chrome/86.0.4240.77 Safari/537.36",154,"[0.9, 0.5, 0.1]","[0.8, 0.4, 0.2]","[u'black', u'red', u'blue']","[u'left', u'middle', u'right']","[0.8, 0.4, 0.2]","[u'high', u'low', u'medium']","blue",51,"right","medium","True","False",355,7450,NA
"A337Y4X67PY4QI","Wed Oct 28 2020 08:52:09 GMT-0700 (Pacific Daylight Time)","Wed Oct 28 2020 09:04:37 GMT-0700 (Pacific Daylight Time)","Mozilla/5.0 (X11; CrOS x86_64 13421.53.0) AppleWebKit/537.36 (KHTML, like Gecko) Chrome/86.0.4240.77 Safari/537.36",155,"[0.9, 0.5, 0.1]","[0.8, 0.4, 0.2]","[u'black', u'red', u'blue']","[u'left', u'middle', u'right']","[0.8, 0.4, 0.2]","[u'high', u'low', u'medium']","blue",51,"right","medium","True","False",87,7550,NA
"A337Y4X67PY4QI","Wed Oct 28 2020 08:52:09 GMT-0700 (Pacific Daylight Time)","Wed Oct 28 2020 09:04:37 GMT-0700 (Pacific Daylight Time)","Mozilla/5.0 (X11; CrOS x86_64 13421.53.0) AppleWebKit/537.36 (KHTML, like Gecko) Chrome/86.0.4240.77 Safari/537.36",156,"[0.9, 0.5, 0.1]","[0.8, 0.4, 0.2]","[u'black', u'red', u'blue']","[u'left', u'middle', u'right']","[0.8, 0.4, 0.2]","[u'high', u'low', u'medium']","blue",51,"right","medium","False","False",159,7500,NA
"A337Y4X67PY4QI","Wed Oct 28 2020 08:52:09 GMT-0700 (Pacific Daylight Time)","Wed Oct 28 2020 09:04:37 GMT-0700 (Pacific Daylight Time)","Mozilla/5.0 (X11; CrOS x86_64 13421.53.0) AppleWebKit/537.36 (KHTML, like Gecko) Chrome/86.0.4240.77 Safari/537.36",157,"[0.9, 0.5, 0.1]","[0.8, 0.4, 0.2]","[u'black', u'red', u'blue']","[u'left', u'middle', u'right']","[0.8, 0.4, 0.2]","[u'high', u'low', u'medium']","black",49,"left","high","True","False",113,7600,NA
"A337Y4X67PY4QI","Wed Oct 28 2020 08:52:09 GMT-0700 (Pacific Daylight Time)","Wed Oct 28 2020 09:04:37 GMT-0700 (Pacific Daylight Time)","Mozilla/5.0 (X11; CrOS x86_64 13421.53.0) AppleWebKit/537.36 (KHTML, like Gecko) Chrome/86.0.4240.77 Safari/537.36",158,"[0.9, 0.5, 0.1]","[0.8, 0.4, 0.2]","[u'black', u'red', u'blue']","[u'left', u'middle', u'right']","[0.8, 0.4, 0.2]","[u'high', u'low', u'medium']","black",49,"left","high","True","False",231,7700,NA
"A337Y4X67PY4QI","Wed Oct 28 2020 08:52:09 GMT-0700 (Pacific Daylight Time)","Wed Oct 28 2020 09:04:37 GMT-0700 (Pacific Daylight Time)","Mozilla/5.0 (X11; CrOS x86_64 13421.53.0) AppleWebKit/537.36 (KHTML, like Gecko) Chrome/86.0.4240.77 Safari/537.36",159,"[0.9, 0.5, 0.1]","[0.8, 0.4, 0.2]","[u'black', u'red', u'blue']","[u'left', u'middle', u'right']","[0.8, 0.4, 0.2]","[u'high', u'low', u'medium']","black",49,"left","high","True","False",198,7800,NA
"A337Y4X67PY4QI","Wed Oct 28 2020 08:52:09 GMT-0700 (Pacific Daylight Time)","Wed Oct 28 2020 09:04:37 GMT-0700 (Pacific Daylight Time)","Mozilla/5.0 (X11; CrOS x86_64 13421.53.0) AppleWebKit/537.36 (KHTML, like Gecko) Chrome/86.0.4240.77 Safari/537.36",160,"[0.9, 0.5, 0.1]","[0.8, 0.4, 0.2]","[u'black', u'red', u'blue']","[u'left', u'middle', u'right']","[0.8, 0.4, 0.2]","[u'high', u'low', u'medium']","black",49,"left","high","False","False",239,7750,NA
