"src_subject_id","start_time","end_time","browser","index","first_half_probabilities","second_half_probabilities","deck_color","deck_position","deck_probabilities","deck_contingencies","response_color","key_press","response_position","response_probability","reward_type","trial_type","rt","reward_tally","exclusion_reason"
"A1ZE87WEYCA44A","Wed Oct 28 2020 12:45:26 GMT-0400 (Eastern Daylight Time)","Wed Oct 28 2020 12:55:14 GMT-0400 (Eastern Daylight Time)","Mozilla/5.0 (Windows NT 6.1) AppleWebKit/537.36 (KHTML, like Gecko) Chrome/86.0.4240.111 Safari/537.36",1,"[0.9, 0.5, 0.1]","[0.8, 0.4, 0.2]","[u'red', u'blue', u'black']","[u'left', u'middle', u'right']","[0.9, 0.5, 0.1]","[u'medium', u'low', u'high']","red",49,"left","medium","True","False",3867,100,NA
"A1ZE87WEYCA44A","Wed Oct 28 2020 12:45:26 GMT-0400 (Eastern Daylight Time)","Wed Oct 28 2020 12:55:14 GMT-0400 (Eastern Daylight Time)","Mozilla/5.0 (Windows NT 6.1) AppleWebKit/537.36 (KHTML, like Gecko) Chrome/86.0.4240.111 Safari/537.36",2,"[0.9, 0.5, 0.1]","[0.8, 0.4, 0.2]","[u'red', u'blue', u'black']","[u'left', u'middle', u'right']","[0.9, 0.5, 0.1]","[u'medium', u'low', u'high']","red",49,"left","medium","True","False",595,200,NA
"A1ZE87WEYCA44A","Wed Oct 28 2020 12:45:26 GMT-0400 (Eastern Daylight Time)","Wed Oct 28 2020 12:55:14 GMT-0400 (Eastern Daylight Time)","Mozilla/5.0 (Windows NT 6.1) AppleWebKit/537.36 (KHTML, like Gecko) Chrome/86.0.4240.111 Safari/537.36",3,"[0.9, 0.5, 0.1]","[0.8, 0.4, 0.2]","[u'red', u'blue', u'black']","[u'left', u'middle', u'right']","[0.9, 0.5, 0.1]","[u'medium', u'low', u'high']","red",49,"left","medium","True","False",1355,300,NA
"A1ZE87WEYCA44A","Wed Oct 28 2020 12:45:26 GMT-0400 (Eastern Daylight Time)","Wed Oct 28 2020 12:55:14 GMT-0400 (Eastern Daylight Time)","Mozilla/5.0 (Windows NT 6.1) AppleWebKit/537.36 (KHTML, like Gecko) Chrome/86.0.4240.111 Safari/537.36",4,"[0.9, 0.5, 0.1]","[0.8, 0.4, 0.2]","[u'red', u'blue', u'black']","[u'left', u'middle', u'right']","[0.9, 0.5, 0.1]","[u'medium', u'low', u'high']","red",49,"left","medium","False","False",1004,250,NA
"A1ZE87WEYCA44A","Wed Oct 28 2020 12:45:26 GMT-0400 (Eastern Daylight Time)","Wed Oct 28 2020 12:55:14 GMT-0400 (Eastern Daylight Time)","Mozilla/5.0 (Windows NT 6.1) AppleWebKit/537.36 (KHTML, like Gecko) Chrome/86.0.4240.111 Safari/537.36",5,"[0.9, 0.5, 0.1]","[0.8, 0.4, 0.2]","[u'red', u'blue', u'black']","[u'left', u'middle', u'right']","[0.9, 0.5, 0.1]","[u'medium', u'low', u'high']","black",51,"right","high","True","False",570,350,NA
"A1ZE87WEYCA44A","Wed Oct 28 2020 12:45:26 GMT-0400 (Eastern Daylight Time)","Wed Oct 28 2020 12:55:14 GMT-0400 (Eastern Daylight Time)","Mozilla/5.0 (Windows NT 6.1) AppleWebKit/537.36 (KHTML, like Gecko) Chrome/86.0.4240.111 Safari/537.36",6,"[0.9, 0.5, 0.1]","[0.8, 0.4, 0.2]","[u'red', u'blue', u'black']","[u'left', u'middle', u'right']","[0.9, 0.5, 0.1]","[u'medium', u'low', u'high']","black",51,"right","high","True","False",589,450,NA
"A1ZE87WEYCA44A","Wed Oct 28 2020 12:45:26 GMT-0400 (Eastern Daylight Time)","Wed Oct 28 2020 12:55:14 GMT-0400 (Eastern Daylight Time)","Mozilla/5.0 (Windows NT 6.1) AppleWebKit/537.36 (KHTML, like Gecko) Chrome/86.0.4240.111 Safari/537.36",7,"[0.9, 0.5, 0.1]","[0.8, 0.4, 0.2]","[u'red', u'blue', u'black']","[u'left', u'middle', u'right']","[0.9, 0.5, 0.1]","[u'medium', u'low', u'high']","black",51,"right","high","True","False",1226,550,NA
"A1ZE87WEYCA44A","Wed Oct 28 2020 12:45:26 GMT-0400 (Eastern Daylight Time)","Wed Oct 28 2020 12:55:14 GMT-0400 (Eastern Daylight Time)","Mozilla/5.0 (Windows NT 6.1) AppleWebKit/537.36 (KHTML, like Gecko) Chrome/86.0.4240.111 Safari/537.36",8,"[0.9, 0.5, 0.1]","[0.8, 0.4, 0.2]","[u'red', u'blue', u'black']","[u'left', u'middle', u'right']","[0.9, 0.5, 0.1]","[u'medium', u'low', u'high']","black",51,"right","high","True","False",1153,650,NA
"A1ZE87WEYCA44A","Wed Oct 28 2020 12:45:26 GMT-0400 (Eastern Daylight Time)","Wed Oct 28 2020 12:55:14 GMT-0400 (Eastern Daylight Time)","Mozilla/5.0 (Windows NT 6.1) AppleWebKit/537.36 (KHTML, like Gecko) Chrome/86.0.4240.111 Safari/537.36",9,"[0.9, 0.5, 0.1]","[0.8, 0.4, 0.2]","[u'red', u'blue', u'black']","[u'left', u'middle', u'right']","[0.9, 0.5, 0.1]","[u'medium', u'low', u'high']","black",51,"right","high","True","False",1708,750,NA
"A1ZE87WEYCA44A","Wed Oct 28 2020 12:45:26 GMT-0400 (Eastern Daylight Time)","Wed Oct 28 2020 12:55:14 GMT-0400 (Eastern Daylight Time)","Mozilla/5.0 (Windows NT 6.1) AppleWebKit/537.36 (KHTML, like Gecko) Chrome/86.0.4240.111 Safari/537.36",10,"[0.9, 0.5, 0.1]","[0.8, 0.4, 0.2]","[u'red', u'blue', u'black']","[u'left', u'middle', u'right']","[0.9, 0.5, 0.1]","[u'medium', u'low', u'high']","black",51,"right","high","True","False",898,850,NA
"A1ZE87WEYCA44A","Wed Oct 28 2020 12:45:26 GMT-0400 (Eastern Daylight Time)","Wed Oct 28 2020 12:55:14 GMT-0400 (Eastern Daylight Time)","Mozilla/5.0 (Windows NT 6.1) AppleWebKit/537.36 (KHTML, like Gecko) Chrome/86.0.4240.111 Safari/537.36",11,"[0.9, 0.5, 0.1]","[0.8, 0.4, 0.2]","[u'red', u'blue', u'black']","[u'left', u'middle', u'right']","[0.9, 0.5, 0.1]","[u'medium', u'low', u'high']","black",51,"right","high","True","False",980,950,NA
"A1ZE87WEYCA44A","Wed Oct 28 2020 12:45:26 GMT-0400 (Eastern Daylight Time)","Wed Oct 28 2020 12:55:14 GMT-0400 (Eastern Daylight Time)","Mozilla/5.0 (Windows NT 6.1) AppleWebKit/537.36 (KHTML, like Gecko) Chrome/86.0.4240.111 Safari/537.36",12,"[0.9, 0.5, 0.1]","[0.8, 0.4, 0.2]","[u'red', u'blue', u'black']","[u'left', u'middle', u'right']","[0.9, 0.5, 0.1]","[u'medium', u'low', u'high']","black",51,"right","high","True","False",691,1050,NA
"A1ZE87WEYCA44A","Wed Oct 28 2020 12:45:26 GMT-0400 (Eastern Daylight Time)","Wed Oct 28 2020 12:55:14 GMT-0400 (Eastern Daylight Time)","Mozilla/5.0 (Windows NT 6.1) AppleWebKit/537.36 (KHTML, like Gecko) Chrome/86.0.4240.111 Safari/537.36",13,"[0.9, 0.5, 0.1]","[0.8, 0.4, 0.2]","[u'red', u'blue', u'black']","[u'left', u'middle', u'right']","[0.9, 0.5, 0.1]","[u'medium', u'low', u'high']","black",51,"right","high","False","True",1525,1000,NA
"A1ZE87WEYCA44A","Wed Oct 28 2020 12:45:26 GMT-0400 (Eastern Daylight Time)","Wed Oct 28 2020 12:55:14 GMT-0400 (Eastern Daylight Time)","Mozilla/5.0 (Windows NT 6.1) AppleWebKit/537.36 (KHTML, like Gecko) Chrome/86.0.4240.111 Safari/537.36",14,"[0.9, 0.5, 0.1]","[0.8, 0.4, 0.2]","[u'red', u'blue', u'black']","[u'left', u'middle', u'right']","[0.9, 0.5, 0.1]","[u'medium', u'high', u'low']","blue",50,"middle","high","True","False",370,1100,NA
"A1ZE87WEYCA44A","Wed Oct 28 2020 12:45:26 GMT-0400 (Eastern Daylight Time)","Wed Oct 28 2020 12:55:14 GMT-0400 (Eastern Daylight Time)","Mozilla/5.0 (Windows NT 6.1) AppleWebKit/537.36 (KHTML, like Gecko) Chrome/86.0.4240.111 Safari/537.36",15,"[0.9, 0.5, 0.1]","[0.8, 0.4, 0.2]","[u'red', u'blue', u'black']","[u'left', u'middle', u'right']","[0.9, 0.5, 0.1]","[u'medium', u'high', u'low']","blue",50,"middle","high","True","False",317,1200,NA
"A1ZE87WEYCA44A","Wed Oct 28 2020 12:45:26 GMT-0400 (Eastern Daylight Time)","Wed Oct 28 2020 12:55:14 GMT-0400 (Eastern Daylight Time)","Mozilla/5.0 (Windows NT 6.1) AppleWebKit/537.36 (KHTML, like Gecko) Chrome/86.0.4240.111 Safari/537.36",16,"[0.9, 0.5, 0.1]","[0.8, 0.4, 0.2]","[u'red', u'blue', u'black']","[u'left', u'middle', u'right']","[0.9, 0.5, 0.1]","[u'medium', u'high', u'low']","blue",50,"middle","high","True","False",314,1300,NA
"A1ZE87WEYCA44A","Wed Oct 28 2020 12:45:26 GMT-0400 (Eastern Daylight Time)","Wed Oct 28 2020 12:55:14 GMT-0400 (Eastern Daylight Time)","Mozilla/5.0 (Windows NT 6.1) AppleWebKit/537.36 (KHTML, like Gecko) Chrome/86.0.4240.111 Safari/537.36",17,"[0.9, 0.5, 0.1]","[0.8, 0.4, 0.2]","[u'red', u'blue', u'black']","[u'left', u'middle', u'right']","[0.9, 0.5, 0.1]","[u'medium', u'high', u'low']","blue",50,"middle","high","True","False",440,1400,NA
"A1ZE87WEYCA44A","Wed Oct 28 2020 12:45:26 GMT-0400 (Eastern Daylight Time)","Wed Oct 28 2020 12:55:14 GMT-0400 (Eastern Daylight Time)","Mozilla/5.0 (Windows NT 6.1) AppleWebKit/537.36 (KHTML, like Gecko) Chrome/86.0.4240.111 Safari/537.36",18,"[0.9, 0.5, 0.1]","[0.8, 0.4, 0.2]","[u'red', u'blue', u'black']","[u'left', u'middle', u'right']","[0.9, 0.5, 0.1]","[u'medium', u'high', u'low']","blue",50,"middle","high","True","False",307,1500,NA
"A1ZE87WEYCA44A","Wed Oct 28 2020 12:45:26 GMT-0400 (Eastern Daylight Time)","Wed Oct 28 2020 12:55:14 GMT-0400 (Eastern Daylight Time)","Mozilla/5.0 (Windows NT 6.1) AppleWebKit/537.36 (KHTML, like Gecko) Chrome/86.0.4240.111 Safari/537.36",19,"[0.9, 0.5, 0.1]","[0.8, 0.4, 0.2]","[u'red', u'blue', u'black']","[u'left', u'middle', u'right']","[0.9, 0.5, 0.1]","[u'medium', u'high', u'low']","blue",50,"middle","high","True","False",324,1600,NA
"A1ZE87WEYCA44A","Wed Oct 28 2020 12:45:26 GMT-0400 (Eastern Daylight Time)","Wed Oct 28 2020 12:55:14 GMT-0400 (Eastern Daylight Time)","Mozilla/5.0 (Windows NT 6.1) AppleWebKit/537.36 (KHTML, like Gecko) Chrome/86.0.4240.111 Safari/537.36",20,"[0.9, 0.5, 0.1]","[0.8, 0.4, 0.2]","[u'red', u'blue', u'black']","[u'left', u'middle', u'right']","[0.9, 0.5, 0.1]","[u'medium', u'high', u'low']","blue",50,"middle","high","False","False",791,1550,NA
"A1ZE87WEYCA44A","Wed Oct 28 2020 12:45:26 GMT-0400 (Eastern Daylight Time)","Wed Oct 28 2020 12:55:14 GMT-0400 (Eastern Daylight Time)","Mozilla/5.0 (Windows NT 6.1) AppleWebKit/537.36 (KHTML, like Gecko) Chrome/86.0.4240.111 Safari/537.36",21,"[0.9, 0.5, 0.1]","[0.8, 0.4, 0.2]","[u'red', u'blue', u'black']","[u'left', u'middle', u'right']","[0.9, 0.5, 0.1]","[u'medium', u'high', u'low']","red",49,"left","medium","True","False",452,1650,NA
"A1ZE87WEYCA44A","Wed Oct 28 2020 12:45:26 GMT-0400 (Eastern Daylight Time)","Wed Oct 28 2020 12:55:14 GMT-0400 (Eastern Daylight Time)","Mozilla/5.0 (Windows NT 6.1) AppleWebKit/537.36 (KHTML, like Gecko) Chrome/86.0.4240.111 Safari/537.36",22,"[0.9, 0.5, 0.1]","[0.8, 0.4, 0.2]","[u'red', u'blue', u'black']","[u'left', u'middle', u'right']","[0.9, 0.5, 0.1]","[u'medium', u'high', u'low']","red",49,"left","medium","False","False",580,1600,NA
"A1ZE87WEYCA44A","Wed Oct 28 2020 12:45:26 GMT-0400 (Eastern Daylight Time)","Wed Oct 28 2020 12:55:14 GMT-0400 (Eastern Daylight Time)","Mozilla/5.0 (Windows NT 6.1) AppleWebKit/537.36 (KHTML, like Gecko) Chrome/86.0.4240.111 Safari/537.36",23,"[0.9, 0.5, 0.1]","[0.8, 0.4, 0.2]","[u'red', u'blue', u'black']","[u'left', u'middle', u'right']","[0.9, 0.5, 0.1]","[u'medium', u'high', u'low']","black",51,"right","low","False","False",411,1550,NA
"A1ZE87WEYCA44A","Wed Oct 28 2020 12:45:26 GMT-0400 (Eastern Daylight Time)","Wed Oct 28 2020 12:55:14 GMT-0400 (Eastern Daylight Time)","Mozilla/5.0 (Windows NT 6.1) AppleWebKit/537.36 (KHTML, like Gecko) Chrome/86.0.4240.111 Safari/537.36",24,"[0.9, 0.5, 0.1]","[0.8, 0.4, 0.2]","[u'red', u'blue', u'black']","[u'left', u'middle', u'right']","[0.9, 0.5, 0.1]","[u'medium', u'high', u'low']","blue",50,"middle","high","True","False",284,1650,NA
"A1ZE87WEYCA44A","Wed Oct 28 2020 12:45:26 GMT-0400 (Eastern Daylight Time)","Wed Oct 28 2020 12:55:14 GMT-0400 (Eastern Daylight Time)","Mozilla/5.0 (Windows NT 6.1) AppleWebKit/537.36 (KHTML, like Gecko) Chrome/86.0.4240.111 Safari/537.36",25,"[0.9, 0.5, 0.1]","[0.8, 0.4, 0.2]","[u'red', u'blue', u'black']","[u'left', u'middle', u'right']","[0.9, 0.5, 0.1]","[u'medium', u'high', u'low']","blue",50,"middle","high","True","False",323,1750,NA
"A1ZE87WEYCA44A","Wed Oct 28 2020 12:45:26 GMT-0400 (Eastern Daylight Time)","Wed Oct 28 2020 12:55:14 GMT-0400 (Eastern Daylight Time)","Mozilla/5.0 (Windows NT 6.1) AppleWebKit/537.36 (KHTML, like Gecko) Chrome/86.0.4240.111 Safari/537.36",26,"[0.9, 0.5, 0.1]","[0.8, 0.4, 0.2]","[u'red', u'blue', u'black']","[u'left', u'middle', u'right']","[0.9, 0.5, 0.1]","[u'medium', u'high', u'low']","blue",50,"middle","high","True","False",395,1850,NA
"A1ZE87WEYCA44A","Wed Oct 28 2020 12:45:26 GMT-0400 (Eastern Daylight Time)","Wed Oct 28 2020 12:55:14 GMT-0400 (Eastern Daylight Time)","Mozilla/5.0 (Windows NT 6.1) AppleWebKit/537.36 (KHTML, like Gecko) Chrome/86.0.4240.111 Safari/537.36",27,"[0.9, 0.5, 0.1]","[0.8, 0.4, 0.2]","[u'red', u'blue', u'black']","[u'left', u'middle', u'right']","[0.9, 0.5, 0.1]","[u'medium', u'high', u'low']","blue",50,"middle","high","True","False",363,1950,NA
"A1ZE87WEYCA44A","Wed Oct 28 2020 12:45:26 GMT-0400 (Eastern Daylight Time)","Wed Oct 28 2020 12:55:14 GMT-0400 (Eastern Daylight Time)","Mozilla/5.0 (Windows NT 6.1) AppleWebKit/537.36 (KHTML, like Gecko) Chrome/86.0.4240.111 Safari/537.36",28,"[0.9, 0.5, 0.1]","[0.8, 0.4, 0.2]","[u'red', u'blue', u'black']","[u'left', u'middle', u'right']","[0.9, 0.5, 0.1]","[u'medium', u'high', u'low']","blue",50,"middle","high","True","False",403,2050,NA
"A1ZE87WEYCA44A","Wed Oct 28 2020 12:45:26 GMT-0400 (Eastern Daylight Time)","Wed Oct 28 2020 12:55:14 GMT-0400 (Eastern Daylight Time)","Mozilla/5.0 (Windows NT 6.1) AppleWebKit/537.36 (KHTML, like Gecko) Chrome/86.0.4240.111 Safari/537.36",29,"[0.9, 0.5, 0.1]","[0.8, 0.4, 0.2]","[u'red', u'blue', u'black']","[u'left', u'middle', u'right']","[0.9, 0.5, 0.1]","[u'medium', u'high', u'low']","blue",50,"middle","high","False","False",348,2000,NA
"A1ZE87WEYCA44A","Wed Oct 28 2020 12:45:26 GMT-0400 (Eastern Daylight Time)","Wed Oct 28 2020 12:55:14 GMT-0400 (Eastern Daylight Time)","Mozilla/5.0 (Windows NT 6.1) AppleWebKit/537.36 (KHTML, like Gecko) Chrome/86.0.4240.111 Safari/537.36",30,"[0.9, 0.5, 0.1]","[0.8, 0.4, 0.2]","[u'red', u'blue', u'black']","[u'left', u'middle', u'right']","[0.9, 0.5, 0.1]","[u'medium', u'high', u'low']","black",51,"right","low","False","False",389,1950,NA
"A1ZE87WEYCA44A","Wed Oct 28 2020 12:45:26 GMT-0400 (Eastern Daylight Time)","Wed Oct 28 2020 12:55:14 GMT-0400 (Eastern Daylight Time)","Mozilla/5.0 (Windows NT 6.1) AppleWebKit/537.36 (KHTML, like Gecko) Chrome/86.0.4240.111 Safari/537.36",31,"[0.9, 0.5, 0.1]","[0.8, 0.4, 0.2]","[u'red', u'blue', u'black']","[u'left', u'middle', u'right']","[0.9, 0.5, 0.1]","[u'medium', u'high', u'low']","blue",50,"middle","high","True","False",1427,2050,NA
"A1ZE87WEYCA44A","Wed Oct 28 2020 12:45:26 GMT-0400 (Eastern Daylight Time)","Wed Oct 28 2020 12:55:14 GMT-0400 (Eastern Daylight Time)","Mozilla/5.0 (Windows NT 6.1) AppleWebKit/537.36 (KHTML, like Gecko) Chrome/86.0.4240.111 Safari/537.36",32,"[0.9, 0.5, 0.1]","[0.8, 0.4, 0.2]","[u'red', u'blue', u'black']","[u'left', u'middle', u'right']","[0.9, 0.5, 0.1]","[u'medium', u'high', u'low']","blue",50,"middle","high","True","False",326,2150,NA
"A1ZE87WEYCA44A","Wed Oct 28 2020 12:45:26 GMT-0400 (Eastern Daylight Time)","Wed Oct 28 2020 12:55:14 GMT-0400 (Eastern Daylight Time)","Mozilla/5.0 (Windows NT 6.1) AppleWebKit/537.36 (KHTML, like Gecko) Chrome/86.0.4240.111 Safari/537.36",33,"[0.9, 0.5, 0.1]","[0.8, 0.4, 0.2]","[u'red', u'blue', u'black']","[u'left', u'middle', u'right']","[0.9, 0.5, 0.1]","[u'medium', u'high', u'low']","blue",50,"middle","high","True","True",353,2250,NA
"A1ZE87WEYCA44A","Wed Oct 28 2020 12:45:26 GMT-0400 (Eastern Daylight Time)","Wed Oct 28 2020 12:55:14 GMT-0400 (Eastern Daylight Time)","Mozilla/5.0 (Windows NT 6.1) AppleWebKit/537.36 (KHTML, like Gecko) Chrome/86.0.4240.111 Safari/537.36",34,"[0.9, 0.5, 0.1]","[0.8, 0.4, 0.2]","[u'red', u'blue', u'black']","[u'left', u'middle', u'right']","[0.9, 0.5, 0.1]","[u'medium', u'low', u'high']","blue",50,"middle","low","False","False",372,2200,NA
"A1ZE87WEYCA44A","Wed Oct 28 2020 12:45:26 GMT-0400 (Eastern Daylight Time)","Wed Oct 28 2020 12:55:14 GMT-0400 (Eastern Daylight Time)","Mozilla/5.0 (Windows NT 6.1) AppleWebKit/537.36 (KHTML, like Gecko) Chrome/86.0.4240.111 Safari/537.36",35,"[0.9, 0.5, 0.1]","[0.8, 0.4, 0.2]","[u'red', u'blue', u'black']","[u'left', u'middle', u'right']","[0.9, 0.5, 0.1]","[u'medium', u'low', u'high']","red",49,"left","medium","False","False",373,2150,NA
"A1ZE87WEYCA44A","Wed Oct 28 2020 12:45:26 GMT-0400 (Eastern Daylight Time)","Wed Oct 28 2020 12:55:14 GMT-0400 (Eastern Daylight Time)","Mozilla/5.0 (Windows NT 6.1) AppleWebKit/537.36 (KHTML, like Gecko) Chrome/86.0.4240.111 Safari/537.36",36,"[0.9, 0.5, 0.1]","[0.8, 0.4, 0.2]","[u'red', u'blue', u'black']","[u'left', u'middle', u'right']","[0.9, 0.5, 0.1]","[u'medium', u'low', u'high']","black",51,"right","high","True","False",578,2250,NA
"A1ZE87WEYCA44A","Wed Oct 28 2020 12:45:26 GMT-0400 (Eastern Daylight Time)","Wed Oct 28 2020 12:55:14 GMT-0400 (Eastern Daylight Time)","Mozilla/5.0 (Windows NT 6.1) AppleWebKit/537.36 (KHTML, like Gecko) Chrome/86.0.4240.111 Safari/537.36",37,"[0.9, 0.5, 0.1]","[0.8, 0.4, 0.2]","[u'red', u'blue', u'black']","[u'left', u'middle', u'right']","[0.9, 0.5, 0.1]","[u'medium', u'low', u'high']","black",51,"right","high","True","False",460,2350,NA
"A1ZE87WEYCA44A","Wed Oct 28 2020 12:45:26 GMT-0400 (Eastern Daylight Time)","Wed Oct 28 2020 12:55:14 GMT-0400 (Eastern Daylight Time)","Mozilla/5.0 (Windows NT 6.1) AppleWebKit/537.36 (KHTML, like Gecko) Chrome/86.0.4240.111 Safari/537.36",38,"[0.9, 0.5, 0.1]","[0.8, 0.4, 0.2]","[u'red', u'blue', u'black']","[u'left', u'middle', u'right']","[0.9, 0.5, 0.1]","[u'medium', u'low', u'high']","black",51,"right","high","True","False",335,2450,NA
"A1ZE87WEYCA44A","Wed Oct 28 2020 12:45:26 GMT-0400 (Eastern Daylight Time)","Wed Oct 28 2020 12:55:14 GMT-0400 (Eastern Daylight Time)","Mozilla/5.0 (Windows NT 6.1) AppleWebKit/537.36 (KHTML, like Gecko) Chrome/86.0.4240.111 Safari/537.36",39,"[0.9, 0.5, 0.1]","[0.8, 0.4, 0.2]","[u'red', u'blue', u'black']","[u'left', u'middle', u'right']","[0.9, 0.5, 0.1]","[u'medium', u'low', u'high']","black",51,"right","high","True","False",481,2550,NA
"A1ZE87WEYCA44A","Wed Oct 28 2020 12:45:26 GMT-0400 (Eastern Daylight Time)","Wed Oct 28 2020 12:55:14 GMT-0400 (Eastern Daylight Time)","Mozilla/5.0 (Windows NT 6.1) AppleWebKit/537.36 (KHTML, like Gecko) Chrome/86.0.4240.111 Safari/537.36",40,"[0.9, 0.5, 0.1]","[0.8, 0.4, 0.2]","[u'red', u'blue', u'black']","[u'left', u'middle', u'right']","[0.9, 0.5, 0.1]","[u'medium', u'low', u'high']","black",51,"right","high","True","False",300,2650,NA
"A1ZE87WEYCA44A","Wed Oct 28 2020 12:45:26 GMT-0400 (Eastern Daylight Time)","Wed Oct 28 2020 12:55:14 GMT-0400 (Eastern Daylight Time)","Mozilla/5.0 (Windows NT 6.1) AppleWebKit/537.36 (KHTML, like Gecko) Chrome/86.0.4240.111 Safari/537.36",41,"[0.9, 0.5, 0.1]","[0.8, 0.4, 0.2]","[u'red', u'blue', u'black']","[u'left', u'middle', u'right']","[0.9, 0.5, 0.1]","[u'medium', u'high', u'low']","red",49,"left","medium","False","False",2138,2600,NA
"A1ZE87WEYCA44A","Wed Oct 28 2020 12:45:26 GMT-0400 (Eastern Daylight Time)","Wed Oct 28 2020 12:55:14 GMT-0400 (Eastern Daylight Time)","Mozilla/5.0 (Windows NT 6.1) AppleWebKit/537.36 (KHTML, like Gecko) Chrome/86.0.4240.111 Safari/537.36",42,"[0.9, 0.5, 0.1]","[0.8, 0.4, 0.2]","[u'red', u'blue', u'black']","[u'left', u'middle', u'right']","[0.9, 0.5, 0.1]","[u'medium', u'high', u'low']","blue",50,"middle","high","True","False",20,2700,NA
"A1ZE87WEYCA44A","Wed Oct 28 2020 12:45:26 GMT-0400 (Eastern Daylight Time)","Wed Oct 28 2020 12:55:14 GMT-0400 (Eastern Daylight Time)","Mozilla/5.0 (Windows NT 6.1) AppleWebKit/537.36 (KHTML, like Gecko) Chrome/86.0.4240.111 Safari/537.36",43,"[0.9, 0.5, 0.1]","[0.8, 0.4, 0.2]","[u'red', u'blue', u'black']","[u'left', u'middle', u'right']","[0.9, 0.5, 0.1]","[u'medium', u'high', u'low']","blue",50,"middle","high","True","False",595,2800,NA
"A1ZE87WEYCA44A","Wed Oct 28 2020 12:45:26 GMT-0400 (Eastern Daylight Time)","Wed Oct 28 2020 12:55:14 GMT-0400 (Eastern Daylight Time)","Mozilla/5.0 (Windows NT 6.1) AppleWebKit/537.36 (KHTML, like Gecko) Chrome/86.0.4240.111 Safari/537.36",44,"[0.9, 0.5, 0.1]","[0.8, 0.4, 0.2]","[u'red', u'blue', u'black']","[u'left', u'middle', u'right']","[0.9, 0.5, 0.1]","[u'medium', u'high', u'low']","blue",50,"middle","high","True","False",276,2900,NA
"A1ZE87WEYCA44A","Wed Oct 28 2020 12:45:26 GMT-0400 (Eastern Daylight Time)","Wed Oct 28 2020 12:55:14 GMT-0400 (Eastern Daylight Time)","Mozilla/5.0 (Windows NT 6.1) AppleWebKit/537.36 (KHTML, like Gecko) Chrome/86.0.4240.111 Safari/537.36",45,"[0.9, 0.5, 0.1]","[0.8, 0.4, 0.2]","[u'red', u'blue', u'black']","[u'left', u'middle', u'right']","[0.9, 0.5, 0.1]","[u'medium', u'high', u'low']","blue",50,"middle","high","True","False",300,3000,NA
"A1ZE87WEYCA44A","Wed Oct 28 2020 12:45:26 GMT-0400 (Eastern Daylight Time)","Wed Oct 28 2020 12:55:14 GMT-0400 (Eastern Daylight Time)","Mozilla/5.0 (Windows NT 6.1) AppleWebKit/537.36 (KHTML, like Gecko) Chrome/86.0.4240.111 Safari/537.36",46,"[0.9, 0.5, 0.1]","[0.8, 0.4, 0.2]","[u'red', u'blue', u'black']","[u'left', u'middle', u'right']","[0.9, 0.5, 0.1]","[u'medium', u'high', u'low']","blue",50,"middle","high","True","False",554,3100,NA
"A1ZE87WEYCA44A","Wed Oct 28 2020 12:45:26 GMT-0400 (Eastern Daylight Time)","Wed Oct 28 2020 12:55:14 GMT-0400 (Eastern Daylight Time)","Mozilla/5.0 (Windows NT 6.1) AppleWebKit/537.36 (KHTML, like Gecko) Chrome/86.0.4240.111 Safari/537.36",47,"[0.9, 0.5, 0.1]","[0.8, 0.4, 0.2]","[u'red', u'blue', u'black']","[u'left', u'middle', u'right']","[0.9, 0.5, 0.1]","[u'medium', u'high', u'low']","blue",50,"middle","high","True","False",339,3200,NA
"A1ZE87WEYCA44A","Wed Oct 28 2020 12:45:26 GMT-0400 (Eastern Daylight Time)","Wed Oct 28 2020 12:55:14 GMT-0400 (Eastern Daylight Time)","Mozilla/5.0 (Windows NT 6.1) AppleWebKit/537.36 (KHTML, like Gecko) Chrome/86.0.4240.111 Safari/537.36",48,"[0.9, 0.5, 0.1]","[0.8, 0.4, 0.2]","[u'red', u'blue', u'black']","[u'left', u'middle', u'right']","[0.9, 0.5, 0.1]","[u'medium', u'high', u'low']","blue",50,"middle","high","True","False",460,3300,NA
"A1ZE87WEYCA44A","Wed Oct 28 2020 12:45:26 GMT-0400 (Eastern Daylight Time)","Wed Oct 28 2020 12:55:14 GMT-0400 (Eastern Daylight Time)","Mozilla/5.0 (Windows NT 6.1) AppleWebKit/537.36 (KHTML, like Gecko) Chrome/86.0.4240.111 Safari/537.36",49,"[0.9, 0.5, 0.1]","[0.8, 0.4, 0.2]","[u'red', u'blue', u'black']","[u'left', u'middle', u'right']","[0.9, 0.5, 0.1]","[u'medium', u'high', u'low']","blue",50,"middle","high","True","False",452,3400,NA
"A1ZE87WEYCA44A","Wed Oct 28 2020 12:45:26 GMT-0400 (Eastern Daylight Time)","Wed Oct 28 2020 12:55:14 GMT-0400 (Eastern Daylight Time)","Mozilla/5.0 (Windows NT 6.1) AppleWebKit/537.36 (KHTML, like Gecko) Chrome/86.0.4240.111 Safari/537.36",50,"[0.9, 0.5, 0.1]","[0.8, 0.4, 0.2]","[u'red', u'blue', u'black']","[u'left', u'middle', u'right']","[0.9, 0.5, 0.1]","[u'medium', u'high', u'low']","blue",50,"middle","high","True","True",308,3500,NA
"A1ZE87WEYCA44A","Wed Oct 28 2020 12:45:26 GMT-0400 (Eastern Daylight Time)","Wed Oct 28 2020 12:55:14 GMT-0400 (Eastern Daylight Time)","Mozilla/5.0 (Windows NT 6.1) AppleWebKit/537.36 (KHTML, like Gecko) Chrome/86.0.4240.111 Safari/537.36",51,"[0.9, 0.5, 0.1]","[0.8, 0.4, 0.2]","[u'red', u'blue', u'black']","[u'left', u'middle', u'right']","[0.9, 0.5, 0.1]","[u'low', u'medium', u'high']","blue",50,"middle","medium","False","False",340,3450,NA
"A1ZE87WEYCA44A","Wed Oct 28 2020 12:45:26 GMT-0400 (Eastern Daylight Time)","Wed Oct 28 2020 12:55:14 GMT-0400 (Eastern Daylight Time)","Mozilla/5.0 (Windows NT 6.1) AppleWebKit/537.36 (KHTML, like Gecko) Chrome/86.0.4240.111 Safari/537.36",52,"[0.9, 0.5, 0.1]","[0.8, 0.4, 0.2]","[u'red', u'blue', u'black']","[u'left', u'middle', u'right']","[0.9, 0.5, 0.1]","[u'low', u'medium', u'high']","black",51,"right","high","True","False",164,3550,NA
"A1ZE87WEYCA44A","Wed Oct 28 2020 12:45:26 GMT-0400 (Eastern Daylight Time)","Wed Oct 28 2020 12:55:14 GMT-0400 (Eastern Daylight Time)","Mozilla/5.0 (Windows NT 6.1) AppleWebKit/537.36 (KHTML, like Gecko) Chrome/86.0.4240.111 Safari/537.36",53,"[0.9, 0.5, 0.1]","[0.8, 0.4, 0.2]","[u'red', u'blue', u'black']","[u'left', u'middle', u'right']","[0.9, 0.5, 0.1]","[u'low', u'medium', u'high']","black",51,"right","high","True","False",74,3650,NA
"A1ZE87WEYCA44A","Wed Oct 28 2020 12:45:26 GMT-0400 (Eastern Daylight Time)","Wed Oct 28 2020 12:55:14 GMT-0400 (Eastern Daylight Time)","Mozilla/5.0 (Windows NT 6.1) AppleWebKit/537.36 (KHTML, like Gecko) Chrome/86.0.4240.111 Safari/537.36",54,"[0.9, 0.5, 0.1]","[0.8, 0.4, 0.2]","[u'red', u'blue', u'black']","[u'left', u'middle', u'right']","[0.9, 0.5, 0.1]","[u'low', u'medium', u'high']","black",51,"right","high","True","False",91,3750,NA
"A1ZE87WEYCA44A","Wed Oct 28 2020 12:45:26 GMT-0400 (Eastern Daylight Time)","Wed Oct 28 2020 12:55:14 GMT-0400 (Eastern Daylight Time)","Mozilla/5.0 (Windows NT 6.1) AppleWebKit/537.36 (KHTML, like Gecko) Chrome/86.0.4240.111 Safari/537.36",55,"[0.9, 0.5, 0.1]","[0.8, 0.4, 0.2]","[u'red', u'blue', u'black']","[u'left', u'middle', u'right']","[0.9, 0.5, 0.1]","[u'low', u'medium', u'high']","black",51,"right","high","True","False",556,3850,NA
"A1ZE87WEYCA44A","Wed Oct 28 2020 12:45:26 GMT-0400 (Eastern Daylight Time)","Wed Oct 28 2020 12:55:14 GMT-0400 (Eastern Daylight Time)","Mozilla/5.0 (Windows NT 6.1) AppleWebKit/537.36 (KHTML, like Gecko) Chrome/86.0.4240.111 Safari/537.36",56,"[0.9, 0.5, 0.1]","[0.8, 0.4, 0.2]","[u'red', u'blue', u'black']","[u'left', u'middle', u'right']","[0.9, 0.5, 0.1]","[u'low', u'medium', u'high']","black",51,"right","high","True","False",435,3950,NA
"A1ZE87WEYCA44A","Wed Oct 28 2020 12:45:26 GMT-0400 (Eastern Daylight Time)","Wed Oct 28 2020 12:55:14 GMT-0400 (Eastern Daylight Time)","Mozilla/5.0 (Windows NT 6.1) AppleWebKit/537.36 (KHTML, like Gecko) Chrome/86.0.4240.111 Safari/537.36",57,"[0.9, 0.5, 0.1]","[0.8, 0.4, 0.2]","[u'red', u'blue', u'black']","[u'left', u'middle', u'right']","[0.9, 0.5, 0.1]","[u'low', u'medium', u'high']","black",51,"right","high","True","False",372,4050,NA
"A1ZE87WEYCA44A","Wed Oct 28 2020 12:45:26 GMT-0400 (Eastern Daylight Time)","Wed Oct 28 2020 12:55:14 GMT-0400 (Eastern Daylight Time)","Mozilla/5.0 (Windows NT 6.1) AppleWebKit/537.36 (KHTML, like Gecko) Chrome/86.0.4240.111 Safari/537.36",58,"[0.9, 0.5, 0.1]","[0.8, 0.4, 0.2]","[u'red', u'blue', u'black']","[u'left', u'middle', u'right']","[0.9, 0.5, 0.1]","[u'low', u'medium', u'high']","black",51,"right","high","True","False",405,4150,NA
"A1ZE87WEYCA44A","Wed Oct 28 2020 12:45:26 GMT-0400 (Eastern Daylight Time)","Wed Oct 28 2020 12:55:14 GMT-0400 (Eastern Daylight Time)","Mozilla/5.0 (Windows NT 6.1) AppleWebKit/537.36 (KHTML, like Gecko) Chrome/86.0.4240.111 Safari/537.36",59,"[0.9, 0.5, 0.1]","[0.8, 0.4, 0.2]","[u'red', u'blue', u'black']","[u'left', u'middle', u'right']","[0.9, 0.5, 0.1]","[u'low', u'medium', u'high']","black",51,"right","high","False","False",371,4100,NA
"A1ZE87WEYCA44A","Wed Oct 28 2020 12:45:26 GMT-0400 (Eastern Daylight Time)","Wed Oct 28 2020 12:55:14 GMT-0400 (Eastern Daylight Time)","Mozilla/5.0 (Windows NT 6.1) AppleWebKit/537.36 (KHTML, like Gecko) Chrome/86.0.4240.111 Safari/537.36",60,"[0.9, 0.5, 0.1]","[0.8, 0.4, 0.2]","[u'red', u'blue', u'black']","[u'left', u'middle', u'right']","[0.9, 0.5, 0.1]","[u'low', u'medium', u'high']","red",49,"left","low","False","False",435,4050,NA
"A1ZE87WEYCA44A","Wed Oct 28 2020 12:45:26 GMT-0400 (Eastern Daylight Time)","Wed Oct 28 2020 12:55:14 GMT-0400 (Eastern Daylight Time)","Mozilla/5.0 (Windows NT 6.1) AppleWebKit/537.36 (KHTML, like Gecko) Chrome/86.0.4240.111 Safari/537.36",61,"[0.9, 0.5, 0.1]","[0.8, 0.4, 0.2]","[u'red', u'blue', u'black']","[u'left', u'middle', u'right']","[0.9, 0.5, 0.1]","[u'low', u'medium', u'high']","blue",50,"middle","medium","True","False",604,4150,NA
"A1ZE87WEYCA44A","Wed Oct 28 2020 12:45:26 GMT-0400 (Eastern Daylight Time)","Wed Oct 28 2020 12:55:14 GMT-0400 (Eastern Daylight Time)","Mozilla/5.0 (Windows NT 6.1) AppleWebKit/537.36 (KHTML, like Gecko) Chrome/86.0.4240.111 Safari/537.36",62,"[0.9, 0.5, 0.1]","[0.8, 0.4, 0.2]","[u'red', u'blue', u'black']","[u'left', u'middle', u'right']","[0.9, 0.5, 0.1]","[u'low', u'medium', u'high']","blue",50,"middle","medium","False","False",347,4100,NA
"A1ZE87WEYCA44A","Wed Oct 28 2020 12:45:26 GMT-0400 (Eastern Daylight Time)","Wed Oct 28 2020 12:55:14 GMT-0400 (Eastern Daylight Time)","Mozilla/5.0 (Windows NT 6.1) AppleWebKit/537.36 (KHTML, like Gecko) Chrome/86.0.4240.111 Safari/537.36",63,"[0.9, 0.5, 0.1]","[0.8, 0.4, 0.2]","[u'red', u'blue', u'black']","[u'left', u'middle', u'right']","[0.9, 0.5, 0.1]","[u'low', u'medium', u'high']","red",49,"left","low","False","False",355,4050,NA
"A1ZE87WEYCA44A","Wed Oct 28 2020 12:45:26 GMT-0400 (Eastern Daylight Time)","Wed Oct 28 2020 12:55:14 GMT-0400 (Eastern Daylight Time)","Mozilla/5.0 (Windows NT 6.1) AppleWebKit/537.36 (KHTML, like Gecko) Chrome/86.0.4240.111 Safari/537.36",64,"[0.9, 0.5, 0.1]","[0.8, 0.4, 0.2]","[u'red', u'blue', u'black']","[u'left', u'middle', u'right']","[0.9, 0.5, 0.1]","[u'low', u'medium', u'high']","black",51,"right","high","True","False",214,4150,NA
"A1ZE87WEYCA44A","Wed Oct 28 2020 12:45:26 GMT-0400 (Eastern Daylight Time)","Wed Oct 28 2020 12:55:14 GMT-0400 (Eastern Daylight Time)","Mozilla/5.0 (Windows NT 6.1) AppleWebKit/537.36 (KHTML, like Gecko) Chrome/86.0.4240.111 Safari/537.36",65,"[0.9, 0.5, 0.1]","[0.8, 0.4, 0.2]","[u'red', u'blue', u'black']","[u'left', u'middle', u'right']","[0.9, 0.5, 0.1]","[u'low', u'medium', u'high']","black",51,"right","high","True","False",306,4250,NA
"A1ZE87WEYCA44A","Wed Oct 28 2020 12:45:26 GMT-0400 (Eastern Daylight Time)","Wed Oct 28 2020 12:55:14 GMT-0400 (Eastern Daylight Time)","Mozilla/5.0 (Windows NT 6.1) AppleWebKit/537.36 (KHTML, like Gecko) Chrome/86.0.4240.111 Safari/537.36",66,"[0.9, 0.5, 0.1]","[0.8, 0.4, 0.2]","[u'red', u'blue', u'black']","[u'left', u'middle', u'right']","[0.9, 0.5, 0.1]","[u'low', u'medium', u'high']","black",51,"right","high","True","False",251,4350,NA
"A1ZE87WEYCA44A","Wed Oct 28 2020 12:45:26 GMT-0400 (Eastern Daylight Time)","Wed Oct 28 2020 12:55:14 GMT-0400 (Eastern Daylight Time)","Mozilla/5.0 (Windows NT 6.1) AppleWebKit/537.36 (KHTML, like Gecko) Chrome/86.0.4240.111 Safari/537.36",67,"[0.9, 0.5, 0.1]","[0.8, 0.4, 0.2]","[u'red', u'blue', u'black']","[u'left', u'middle', u'right']","[0.9, 0.5, 0.1]","[u'low', u'medium', u'high']","black",51,"right","high","True","False",148,4450,NA
"A1ZE87WEYCA44A","Wed Oct 28 2020 12:45:26 GMT-0400 (Eastern Daylight Time)","Wed Oct 28 2020 12:55:14 GMT-0400 (Eastern Daylight Time)","Mozilla/5.0 (Windows NT 6.1) AppleWebKit/537.36 (KHTML, like Gecko) Chrome/86.0.4240.111 Safari/537.36",68,"[0.9, 0.5, 0.1]","[0.8, 0.4, 0.2]","[u'red', u'blue', u'black']","[u'left', u'middle', u'right']","[0.9, 0.5, 0.1]","[u'low', u'medium', u'high']","black",51,"right","high","True","False",28,4550,NA
"A1ZE87WEYCA44A","Wed Oct 28 2020 12:45:26 GMT-0400 (Eastern Daylight Time)","Wed Oct 28 2020 12:55:14 GMT-0400 (Eastern Daylight Time)","Mozilla/5.0 (Windows NT 6.1) AppleWebKit/537.36 (KHTML, like Gecko) Chrome/86.0.4240.111 Safari/537.36",69,"[0.9, 0.5, 0.1]","[0.8, 0.4, 0.2]","[u'red', u'blue', u'black']","[u'left', u'middle', u'right']","[0.9, 0.5, 0.1]","[u'low', u'medium', u'high']","black",51,"right","high","True","False",292,4650,NA
"A1ZE87WEYCA44A","Wed Oct 28 2020 12:45:26 GMT-0400 (Eastern Daylight Time)","Wed Oct 28 2020 12:55:14 GMT-0400 (Eastern Daylight Time)","Mozilla/5.0 (Windows NT 6.1) AppleWebKit/537.36 (KHTML, like Gecko) Chrome/86.0.4240.111 Safari/537.36",70,"[0.9, 0.5, 0.1]","[0.8, 0.4, 0.2]","[u'red', u'blue', u'black']","[u'left', u'middle', u'right']","[0.9, 0.5, 0.1]","[u'low', u'medium', u'high']","black",51,"right","high","True","False",309,4750,NA
"A1ZE87WEYCA44A","Wed Oct 28 2020 12:45:26 GMT-0400 (Eastern Daylight Time)","Wed Oct 28 2020 12:55:14 GMT-0400 (Eastern Daylight Time)","Mozilla/5.0 (Windows NT 6.1) AppleWebKit/537.36 (KHTML, like Gecko) Chrome/86.0.4240.111 Safari/537.36",71,"[0.9, 0.5, 0.1]","[0.8, 0.4, 0.2]","[u'red', u'blue', u'black']","[u'left', u'middle', u'right']","[0.9, 0.5, 0.1]","[u'low', u'medium', u'high']","black",51,"right","high","False","False",251,4700,NA
"A1ZE87WEYCA44A","Wed Oct 28 2020 12:45:26 GMT-0400 (Eastern Daylight Time)","Wed Oct 28 2020 12:55:14 GMT-0400 (Eastern Daylight Time)","Mozilla/5.0 (Windows NT 6.1) AppleWebKit/537.36 (KHTML, like Gecko) Chrome/86.0.4240.111 Safari/537.36",72,"[0.9, 0.5, 0.1]","[0.8, 0.4, 0.2]","[u'red', u'blue', u'black']","[u'left', u'middle', u'right']","[0.9, 0.5, 0.1]","[u'low', u'medium', u'high']","blue",50,"middle","medium","True","False",275,4800,NA
"A1ZE87WEYCA44A","Wed Oct 28 2020 12:45:26 GMT-0400 (Eastern Daylight Time)","Wed Oct 28 2020 12:55:14 GMT-0400 (Eastern Daylight Time)","Mozilla/5.0 (Windows NT 6.1) AppleWebKit/537.36 (KHTML, like Gecko) Chrome/86.0.4240.111 Safari/537.36",73,"[0.9, 0.5, 0.1]","[0.8, 0.4, 0.2]","[u'red', u'blue', u'black']","[u'left', u'middle', u'right']","[0.9, 0.5, 0.1]","[u'low', u'medium', u'high']","blue",50,"middle","medium","True","False",211,4900,NA
"A1ZE87WEYCA44A","Wed Oct 28 2020 12:45:26 GMT-0400 (Eastern Daylight Time)","Wed Oct 28 2020 12:55:14 GMT-0400 (Eastern Daylight Time)","Mozilla/5.0 (Windows NT 6.1) AppleWebKit/537.36 (KHTML, like Gecko) Chrome/86.0.4240.111 Safari/537.36",74,"[0.9, 0.5, 0.1]","[0.8, 0.4, 0.2]","[u'red', u'blue', u'black']","[u'left', u'middle', u'right']","[0.9, 0.5, 0.1]","[u'low', u'medium', u'high']","blue",50,"middle","medium","False","False",324,4850,NA
"A1ZE87WEYCA44A","Wed Oct 28 2020 12:45:26 GMT-0400 (Eastern Daylight Time)","Wed Oct 28 2020 12:55:14 GMT-0400 (Eastern Daylight Time)","Mozilla/5.0 (Windows NT 6.1) AppleWebKit/537.36 (KHTML, like Gecko) Chrome/86.0.4240.111 Safari/537.36",75,"[0.9, 0.5, 0.1]","[0.8, 0.4, 0.2]","[u'red', u'blue', u'black']","[u'left', u'middle', u'right']","[0.9, 0.5, 0.1]","[u'low', u'medium', u'high']","black",51,"right","high","True","False",307,4950,NA
"A1ZE87WEYCA44A","Wed Oct 28 2020 12:45:26 GMT-0400 (Eastern Daylight Time)","Wed Oct 28 2020 12:55:14 GMT-0400 (Eastern Daylight Time)","Mozilla/5.0 (Windows NT 6.1) AppleWebKit/537.36 (KHTML, like Gecko) Chrome/86.0.4240.111 Safari/537.36",76,"[0.9, 0.5, 0.1]","[0.8, 0.4, 0.2]","[u'red', u'blue', u'black']","[u'left', u'middle', u'right']","[0.9, 0.5, 0.1]","[u'low', u'medium', u'high']","black",51,"right","high","True","False",284,5050,NA
"A1ZE87WEYCA44A","Wed Oct 28 2020 12:45:26 GMT-0400 (Eastern Daylight Time)","Wed Oct 28 2020 12:55:14 GMT-0400 (Eastern Daylight Time)","Mozilla/5.0 (Windows NT 6.1) AppleWebKit/537.36 (KHTML, like Gecko) Chrome/86.0.4240.111 Safari/537.36",77,"[0.9, 0.5, 0.1]","[0.8, 0.4, 0.2]","[u'red', u'blue', u'black']","[u'left', u'middle', u'right']","[0.9, 0.5, 0.1]","[u'low', u'medium', u'high']","black",51,"right","high","True","False",170,5150,NA
"A1ZE87WEYCA44A","Wed Oct 28 2020 12:45:26 GMT-0400 (Eastern Daylight Time)","Wed Oct 28 2020 12:55:14 GMT-0400 (Eastern Daylight Time)","Mozilla/5.0 (Windows NT 6.1) AppleWebKit/537.36 (KHTML, like Gecko) Chrome/86.0.4240.111 Safari/537.36",78,"[0.9, 0.5, 0.1]","[0.8, 0.4, 0.2]","[u'red', u'blue', u'black']","[u'left', u'middle', u'right']","[0.9, 0.5, 0.1]","[u'low', u'medium', u'high']","black",51,"right","high","True","False",76,5250,NA
"A1ZE87WEYCA44A","Wed Oct 28 2020 12:45:26 GMT-0400 (Eastern Daylight Time)","Wed Oct 28 2020 12:55:14 GMT-0400 (Eastern Daylight Time)","Mozilla/5.0 (Windows NT 6.1) AppleWebKit/537.36 (KHTML, like Gecko) Chrome/86.0.4240.111 Safari/537.36",79,"[0.9, 0.5, 0.1]","[0.8, 0.4, 0.2]","[u'red', u'blue', u'black']","[u'left', u'middle', u'right']","[0.9, 0.5, 0.1]","[u'low', u'medium', u'high']","black",51,"right","high","True","False",324,5350,NA
"A1ZE87WEYCA44A","Wed Oct 28 2020 12:45:26 GMT-0400 (Eastern Daylight Time)","Wed Oct 28 2020 12:55:14 GMT-0400 (Eastern Daylight Time)","Mozilla/5.0 (Windows NT 6.1) AppleWebKit/537.36 (KHTML, like Gecko) Chrome/86.0.4240.111 Safari/537.36",80,"[0.9, 0.5, 0.1]","[0.8, 0.4, 0.2]","[u'red', u'blue', u'black']","[u'left', u'middle', u'right']","[0.9, 0.5, 0.1]","[u'low', u'medium', u'high']","black",51,"right","high","True","False",244,5450,NA
"A1ZE87WEYCA44A","Wed Oct 28 2020 12:45:26 GMT-0400 (Eastern Daylight Time)","Wed Oct 28 2020 12:55:14 GMT-0400 (Eastern Daylight Time)","Mozilla/5.0 (Windows NT 6.1) AppleWebKit/537.36 (KHTML, like Gecko) Chrome/86.0.4240.111 Safari/537.36",81,"[0.9, 0.5, 0.1]","[0.8, 0.4, 0.2]","[u'red', u'blue', u'black']","[u'left', u'middle', u'right']","[0.8, 0.4, 0.2]","[u'high', u'low', u'medium']","black",51,"right","medium","False","False",2387,5400,NA
"A1ZE87WEYCA44A","Wed Oct 28 2020 12:45:26 GMT-0400 (Eastern Daylight Time)","Wed Oct 28 2020 12:55:14 GMT-0400 (Eastern Daylight Time)","Mozilla/5.0 (Windows NT 6.1) AppleWebKit/537.36 (KHTML, like Gecko) Chrome/86.0.4240.111 Safari/537.36",82,"[0.9, 0.5, 0.1]","[0.8, 0.4, 0.2]","[u'red', u'blue', u'black']","[u'left', u'middle', u'right']","[0.8, 0.4, 0.2]","[u'high', u'low', u'medium']","blue",50,"middle","low","False","False",387,5350,NA
"A1ZE87WEYCA44A","Wed Oct 28 2020 12:45:26 GMT-0400 (Eastern Daylight Time)","Wed Oct 28 2020 12:55:14 GMT-0400 (Eastern Daylight Time)","Mozilla/5.0 (Windows NT 6.1) AppleWebKit/537.36 (KHTML, like Gecko) Chrome/86.0.4240.111 Safari/537.36",83,"[0.9, 0.5, 0.1]","[0.8, 0.4, 0.2]","[u'red', u'blue', u'black']","[u'left', u'middle', u'right']","[0.8, 0.4, 0.2]","[u'high', u'low', u'medium']","red",49,"left","high","False","False",260,5300,NA
"A1ZE87WEYCA44A","Wed Oct 28 2020 12:45:26 GMT-0400 (Eastern Daylight Time)","Wed Oct 28 2020 12:55:14 GMT-0400 (Eastern Daylight Time)","Mozilla/5.0 (Windows NT 6.1) AppleWebKit/537.36 (KHTML, like Gecko) Chrome/86.0.4240.111 Safari/537.36",84,"[0.9, 0.5, 0.1]","[0.8, 0.4, 0.2]","[u'red', u'blue', u'black']","[u'left', u'middle', u'right']","[0.8, 0.4, 0.2]","[u'high', u'low', u'medium']","black",51,"right","medium","False","False",348,5250,NA
"A1ZE87WEYCA44A","Wed Oct 28 2020 12:45:26 GMT-0400 (Eastern Daylight Time)","Wed Oct 28 2020 12:55:14 GMT-0400 (Eastern Daylight Time)","Mozilla/5.0 (Windows NT 6.1) AppleWebKit/537.36 (KHTML, like Gecko) Chrome/86.0.4240.111 Safari/537.36",85,"[0.9, 0.5, 0.1]","[0.8, 0.4, 0.2]","[u'red', u'blue', u'black']","[u'left', u'middle', u'right']","[0.8, 0.4, 0.2]","[u'high', u'low', u'medium']","blue",50,"middle","low","False","False",157,5200,NA
"A1ZE87WEYCA44A","Wed Oct 28 2020 12:45:26 GMT-0400 (Eastern Daylight Time)","Wed Oct 28 2020 12:55:14 GMT-0400 (Eastern Daylight Time)","Mozilla/5.0 (Windows NT 6.1) AppleWebKit/537.36 (KHTML, like Gecko) Chrome/86.0.4240.111 Safari/537.36",86,"[0.9, 0.5, 0.1]","[0.8, 0.4, 0.2]","[u'red', u'blue', u'black']","[u'left', u'middle', u'right']","[0.8, 0.4, 0.2]","[u'high', u'low', u'medium']","red",49,"left","high","True","False",235,5300,NA
"A1ZE87WEYCA44A","Wed Oct 28 2020 12:45:26 GMT-0400 (Eastern Daylight Time)","Wed Oct 28 2020 12:55:14 GMT-0400 (Eastern Daylight Time)","Mozilla/5.0 (Windows NT 6.1) AppleWebKit/537.36 (KHTML, like Gecko) Chrome/86.0.4240.111 Safari/537.36",87,"[0.9, 0.5, 0.1]","[0.8, 0.4, 0.2]","[u'red', u'blue', u'black']","[u'left', u'middle', u'right']","[0.8, 0.4, 0.2]","[u'high', u'low', u'medium']","red",49,"left","high","True","False",572,5400,NA
"A1ZE87WEYCA44A","Wed Oct 28 2020 12:45:26 GMT-0400 (Eastern Daylight Time)","Wed Oct 28 2020 12:55:14 GMT-0400 (Eastern Daylight Time)","Mozilla/5.0 (Windows NT 6.1) AppleWebKit/537.36 (KHTML, like Gecko) Chrome/86.0.4240.111 Safari/537.36",88,"[0.9, 0.5, 0.1]","[0.8, 0.4, 0.2]","[u'red', u'blue', u'black']","[u'left', u'middle', u'right']","[0.8, 0.4, 0.2]","[u'high', u'low', u'medium']","red",49,"left","high","True","False",364,5500,NA
"A1ZE87WEYCA44A","Wed Oct 28 2020 12:45:26 GMT-0400 (Eastern Daylight Time)","Wed Oct 28 2020 12:55:14 GMT-0400 (Eastern Daylight Time)","Mozilla/5.0 (Windows NT 6.1) AppleWebKit/537.36 (KHTML, like Gecko) Chrome/86.0.4240.111 Safari/537.36",89,"[0.9, 0.5, 0.1]","[0.8, 0.4, 0.2]","[u'red', u'blue', u'black']","[u'left', u'middle', u'right']","[0.8, 0.4, 0.2]","[u'high', u'low', u'medium']","red",49,"left","high","True","False",459,5600,NA
"A1ZE87WEYCA44A","Wed Oct 28 2020 12:45:26 GMT-0400 (Eastern Daylight Time)","Wed Oct 28 2020 12:55:14 GMT-0400 (Eastern Daylight Time)","Mozilla/5.0 (Windows NT 6.1) AppleWebKit/537.36 (KHTML, like Gecko) Chrome/86.0.4240.111 Safari/537.36",90,"[0.9, 0.5, 0.1]","[0.8, 0.4, 0.2]","[u'red', u'blue', u'black']","[u'left', u'middle', u'right']","[0.8, 0.4, 0.2]","[u'high', u'low', u'medium']","red",49,"left","high","False","False",388,5550,NA
"A1ZE87WEYCA44A","Wed Oct 28 2020 12:45:26 GMT-0400 (Eastern Daylight Time)","Wed Oct 28 2020 12:55:14 GMT-0400 (Eastern Daylight Time)","Mozilla/5.0 (Windows NT 6.1) AppleWebKit/537.36 (KHTML, like Gecko) Chrome/86.0.4240.111 Safari/537.36",91,"[0.9, 0.5, 0.1]","[0.8, 0.4, 0.2]","[u'red', u'blue', u'black']","[u'left', u'middle', u'right']","[0.8, 0.4, 0.2]","[u'high', u'low', u'medium']","blue",50,"middle","low","False","False",420,5500,NA
"A1ZE87WEYCA44A","Wed Oct 28 2020 12:45:26 GMT-0400 (Eastern Daylight Time)","Wed Oct 28 2020 12:55:14 GMT-0400 (Eastern Daylight Time)","Mozilla/5.0 (Windows NT 6.1) AppleWebKit/537.36 (KHTML, like Gecko) Chrome/86.0.4240.111 Safari/537.36",92,"[0.9, 0.5, 0.1]","[0.8, 0.4, 0.2]","[u'red', u'blue', u'black']","[u'left', u'middle', u'right']","[0.8, 0.4, 0.2]","[u'high', u'low', u'medium']","black",51,"right","medium","False","False",339,5450,NA
"A1ZE87WEYCA44A","Wed Oct 28 2020 12:45:26 GMT-0400 (Eastern Daylight Time)","Wed Oct 28 2020 12:55:14 GMT-0400 (Eastern Daylight Time)","Mozilla/5.0 (Windows NT 6.1) AppleWebKit/537.36 (KHTML, like Gecko) Chrome/86.0.4240.111 Safari/537.36",93,"[0.9, 0.5, 0.1]","[0.8, 0.4, 0.2]","[u'red', u'blue', u'black']","[u'left', u'middle', u'right']","[0.8, 0.4, 0.2]","[u'high', u'low', u'medium']","red",49,"left","high","True","False",1436,5550,NA
"A1ZE87WEYCA44A","Wed Oct 28 2020 12:45:26 GMT-0400 (Eastern Daylight Time)","Wed Oct 28 2020 12:55:14 GMT-0400 (Eastern Daylight Time)","Mozilla/5.0 (Windows NT 6.1) AppleWebKit/537.36 (KHTML, like Gecko) Chrome/86.0.4240.111 Safari/537.36",94,"[0.9, 0.5, 0.1]","[0.8, 0.4, 0.2]","[u'red', u'blue', u'black']","[u'left', u'middle', u'right']","[0.8, 0.4, 0.2]","[u'high', u'low', u'medium']","red",49,"left","high","True","False",364,5650,NA
"A1ZE87WEYCA44A","Wed Oct 28 2020 12:45:26 GMT-0400 (Eastern Daylight Time)","Wed Oct 28 2020 12:55:14 GMT-0400 (Eastern Daylight Time)","Mozilla/5.0 (Windows NT 6.1) AppleWebKit/537.36 (KHTML, like Gecko) Chrome/86.0.4240.111 Safari/537.36",95,"[0.9, 0.5, 0.1]","[0.8, 0.4, 0.2]","[u'red', u'blue', u'black']","[u'left', u'middle', u'right']","[0.8, 0.4, 0.2]","[u'high', u'low', u'medium']","red",49,"left","high","True","False",724,5750,NA
"A1ZE87WEYCA44A","Wed Oct 28 2020 12:45:26 GMT-0400 (Eastern Daylight Time)","Wed Oct 28 2020 12:55:14 GMT-0400 (Eastern Daylight Time)","Mozilla/5.0 (Windows NT 6.1) AppleWebKit/537.36 (KHTML, like Gecko) Chrome/86.0.4240.111 Safari/537.36",96,"[0.9, 0.5, 0.1]","[0.8, 0.4, 0.2]","[u'red', u'blue', u'black']","[u'left', u'middle', u'right']","[0.8, 0.4, 0.2]","[u'high', u'low', u'medium']","red",49,"left","high","True","False",372,5850,NA
"A1ZE87WEYCA44A","Wed Oct 28 2020 12:45:26 GMT-0400 (Eastern Daylight Time)","Wed Oct 28 2020 12:55:14 GMT-0400 (Eastern Daylight Time)","Mozilla/5.0 (Windows NT 6.1) AppleWebKit/537.36 (KHTML, like Gecko) Chrome/86.0.4240.111 Safari/537.36",97,"[0.9, 0.5, 0.1]","[0.8, 0.4, 0.2]","[u'red', u'blue', u'black']","[u'left', u'middle', u'right']","[0.8, 0.4, 0.2]","[u'high', u'low', u'medium']","red",49,"left","high","False","False",354,5800,NA
"A1ZE87WEYCA44A","Wed Oct 28 2020 12:45:26 GMT-0400 (Eastern Daylight Time)","Wed Oct 28 2020 12:55:14 GMT-0400 (Eastern Daylight Time)","Mozilla/5.0 (Windows NT 6.1) AppleWebKit/537.36 (KHTML, like Gecko) Chrome/86.0.4240.111 Safari/537.36",98,"[0.9, 0.5, 0.1]","[0.8, 0.4, 0.2]","[u'red', u'blue', u'black']","[u'left', u'middle', u'right']","[0.8, 0.4, 0.2]","[u'high', u'low', u'medium']","black",51,"right","medium","True","False",747,5900,NA
"A1ZE87WEYCA44A","Wed Oct 28 2020 12:45:26 GMT-0400 (Eastern Daylight Time)","Wed Oct 28 2020 12:55:14 GMT-0400 (Eastern Daylight Time)","Mozilla/5.0 (Windows NT 6.1) AppleWebKit/537.36 (KHTML, like Gecko) Chrome/86.0.4240.111 Safari/537.36",99,"[0.9, 0.5, 0.1]","[0.8, 0.4, 0.2]","[u'red', u'blue', u'black']","[u'left', u'middle', u'right']","[0.8, 0.4, 0.2]","[u'high', u'low', u'medium']","black",51,"right","medium","True","False",356,6000,NA
"A1ZE87WEYCA44A","Wed Oct 28 2020 12:45:26 GMT-0400 (Eastern Daylight Time)","Wed Oct 28 2020 12:55:14 GMT-0400 (Eastern Daylight Time)","Mozilla/5.0 (Windows NT 6.1) AppleWebKit/537.36 (KHTML, like Gecko) Chrome/86.0.4240.111 Safari/537.36",100,"[0.9, 0.5, 0.1]","[0.8, 0.4, 0.2]","[u'red', u'blue', u'black']","[u'left', u'middle', u'right']","[0.8, 0.4, 0.2]","[u'high', u'low', u'medium']","black",51,"right","medium","False","False",291,5950,NA
"A1ZE87WEYCA44A","Wed Oct 28 2020 12:45:26 GMT-0400 (Eastern Daylight Time)","Wed Oct 28 2020 12:55:14 GMT-0400 (Eastern Daylight Time)","Mozilla/5.0 (Windows NT 6.1) AppleWebKit/537.36 (KHTML, like Gecko) Chrome/86.0.4240.111 Safari/537.36",101,"[0.9, 0.5, 0.1]","[0.8, 0.4, 0.2]","[u'red', u'blue', u'black']","[u'left', u'middle', u'right']","[0.8, 0.4, 0.2]","[u'high', u'low', u'medium']","red",49,"left","high","True","False",324,6050,NA
"A1ZE87WEYCA44A","Wed Oct 28 2020 12:45:26 GMT-0400 (Eastern Daylight Time)","Wed Oct 28 2020 12:55:14 GMT-0400 (Eastern Daylight Time)","Mozilla/5.0 (Windows NT 6.1) AppleWebKit/537.36 (KHTML, like Gecko) Chrome/86.0.4240.111 Safari/537.36",102,"[0.9, 0.5, 0.1]","[0.8, 0.4, 0.2]","[u'red', u'blue', u'black']","[u'left', u'middle', u'right']","[0.8, 0.4, 0.2]","[u'high', u'low', u'medium']","red",49,"left","high","True","False",381,6150,NA
"A1ZE87WEYCA44A","Wed Oct 28 2020 12:45:26 GMT-0400 (Eastern Daylight Time)","Wed Oct 28 2020 12:55:14 GMT-0400 (Eastern Daylight Time)","Mozilla/5.0 (Windows NT 6.1) AppleWebKit/537.36 (KHTML, like Gecko) Chrome/86.0.4240.111 Safari/537.36",103,"[0.9, 0.5, 0.1]","[0.8, 0.4, 0.2]","[u'red', u'blue', u'black']","[u'left', u'middle', u'right']","[0.8, 0.4, 0.2]","[u'high', u'low', u'medium']","red",49,"left","high","True","False",355,6250,NA
"A1ZE87WEYCA44A","Wed Oct 28 2020 12:45:26 GMT-0400 (Eastern Daylight Time)","Wed Oct 28 2020 12:55:14 GMT-0400 (Eastern Daylight Time)","Mozilla/5.0 (Windows NT 6.1) AppleWebKit/537.36 (KHTML, like Gecko) Chrome/86.0.4240.111 Safari/537.36",104,"[0.9, 0.5, 0.1]","[0.8, 0.4, 0.2]","[u'red', u'blue', u'black']","[u'left', u'middle', u'right']","[0.8, 0.4, 0.2]","[u'high', u'low', u'medium']","red",49,"left","high","True","False",388,6350,NA
"A1ZE87WEYCA44A","Wed Oct 28 2020 12:45:26 GMT-0400 (Eastern Daylight Time)","Wed Oct 28 2020 12:55:14 GMT-0400 (Eastern Daylight Time)","Mozilla/5.0 (Windows NT 6.1) AppleWebKit/537.36 (KHTML, like Gecko) Chrome/86.0.4240.111 Safari/537.36",105,"[0.9, 0.5, 0.1]","[0.8, 0.4, 0.2]","[u'red', u'blue', u'black']","[u'left', u'middle', u'right']","[0.8, 0.4, 0.2]","[u'high', u'low', u'medium']","red",49,"left","high","True","False",747,6450,NA
"A1ZE87WEYCA44A","Wed Oct 28 2020 12:45:26 GMT-0400 (Eastern Daylight Time)","Wed Oct 28 2020 12:55:14 GMT-0400 (Eastern Daylight Time)","Mozilla/5.0 (Windows NT 6.1) AppleWebKit/537.36 (KHTML, like Gecko) Chrome/86.0.4240.111 Safari/537.36",106,"[0.9, 0.5, 0.1]","[0.8, 0.4, 0.2]","[u'red', u'blue', u'black']","[u'left', u'middle', u'right']","[0.8, 0.4, 0.2]","[u'high', u'low', u'medium']","red",49,"left","high","True","False",235,6550,NA
"A1ZE87WEYCA44A","Wed Oct 28 2020 12:45:26 GMT-0400 (Eastern Daylight Time)","Wed Oct 28 2020 12:55:14 GMT-0400 (Eastern Daylight Time)","Mozilla/5.0 (Windows NT 6.1) AppleWebKit/537.36 (KHTML, like Gecko) Chrome/86.0.4240.111 Safari/537.36",107,"[0.9, 0.5, 0.1]","[0.8, 0.4, 0.2]","[u'red', u'blue', u'black']","[u'left', u'middle', u'right']","[0.8, 0.4, 0.2]","[u'high', u'low', u'medium']","red",49,"left","high","True","False",587,6650,NA
"A1ZE87WEYCA44A","Wed Oct 28 2020 12:45:26 GMT-0400 (Eastern Daylight Time)","Wed Oct 28 2020 12:55:14 GMT-0400 (Eastern Daylight Time)","Mozilla/5.0 (Windows NT 6.1) AppleWebKit/537.36 (KHTML, like Gecko) Chrome/86.0.4240.111 Safari/537.36",108,"[0.9, 0.5, 0.1]","[0.8, 0.4, 0.2]","[u'red', u'blue', u'black']","[u'left', u'middle', u'right']","[0.8, 0.4, 0.2]","[u'high', u'low', u'medium']","red",49,"left","high","True","False",525,6750,NA
"A1ZE87WEYCA44A","Wed Oct 28 2020 12:45:26 GMT-0400 (Eastern Daylight Time)","Wed Oct 28 2020 12:55:14 GMT-0400 (Eastern Daylight Time)","Mozilla/5.0 (Windows NT 6.1) AppleWebKit/537.36 (KHTML, like Gecko) Chrome/86.0.4240.111 Safari/537.36",109,"[0.9, 0.5, 0.1]","[0.8, 0.4, 0.2]","[u'red', u'blue', u'black']","[u'left', u'middle', u'right']","[0.8, 0.4, 0.2]","[u'high', u'low', u'medium']","red",49,"left","high","True","True",2746,6850,NA
"A1ZE87WEYCA44A","Wed Oct 28 2020 12:45:26 GMT-0400 (Eastern Daylight Time)","Wed Oct 28 2020 12:55:14 GMT-0400 (Eastern Daylight Time)","Mozilla/5.0 (Windows NT 6.1) AppleWebKit/537.36 (KHTML, like Gecko) Chrome/86.0.4240.111 Safari/537.36",110,"[0.9, 0.5, 0.1]","[0.8, 0.4, 0.2]","[u'red', u'blue', u'black']","[u'left', u'middle', u'right']","[0.8, 0.4, 0.2]","[u'medium', u'low', u'high']","red",49,"left","medium","False","False",1556,6800,NA
"A1ZE87WEYCA44A","Wed Oct 28 2020 12:45:26 GMT-0400 (Eastern Daylight Time)","Wed Oct 28 2020 12:55:14 GMT-0400 (Eastern Daylight Time)","Mozilla/5.0 (Windows NT 6.1) AppleWebKit/537.36 (KHTML, like Gecko) Chrome/86.0.4240.111 Safari/537.36",111,"[0.9, 0.5, 0.1]","[0.8, 0.4, 0.2]","[u'red', u'blue', u'black']","[u'left', u'middle', u'right']","[0.8, 0.4, 0.2]","[u'medium', u'low', u'high']","black",51,"right","high","True","False",28,6900,NA
"A1ZE87WEYCA44A","Wed Oct 28 2020 12:45:26 GMT-0400 (Eastern Daylight Time)","Wed Oct 28 2020 12:55:14 GMT-0400 (Eastern Daylight Time)","Mozilla/5.0 (Windows NT 6.1) AppleWebKit/537.36 (KHTML, like Gecko) Chrome/86.0.4240.111 Safari/537.36",112,"[0.9, 0.5, 0.1]","[0.8, 0.4, 0.2]","[u'red', u'blue', u'black']","[u'left', u'middle', u'right']","[0.8, 0.4, 0.2]","[u'medium', u'low', u'high']","black",51,"right","high","True","False",301,7000,NA
"A1ZE87WEYCA44A","Wed Oct 28 2020 12:45:26 GMT-0400 (Eastern Daylight Time)","Wed Oct 28 2020 12:55:14 GMT-0400 (Eastern Daylight Time)","Mozilla/5.0 (Windows NT 6.1) AppleWebKit/537.36 (KHTML, like Gecko) Chrome/86.0.4240.111 Safari/537.36",113,"[0.9, 0.5, 0.1]","[0.8, 0.4, 0.2]","[u'red', u'blue', u'black']","[u'left', u'middle', u'right']","[0.8, 0.4, 0.2]","[u'medium', u'low', u'high']","black",51,"right","high","False","False",50,6950,NA
"A1ZE87WEYCA44A","Wed Oct 28 2020 12:45:26 GMT-0400 (Eastern Daylight Time)","Wed Oct 28 2020 12:55:14 GMT-0400 (Eastern Daylight Time)","Mozilla/5.0 (Windows NT 6.1) AppleWebKit/537.36 (KHTML, like Gecko) Chrome/86.0.4240.111 Safari/537.36",114,"[0.9, 0.5, 0.1]","[0.8, 0.4, 0.2]","[u'red', u'blue', u'black']","[u'left', u'middle', u'right']","[0.8, 0.4, 0.2]","[u'medium', u'low', u'high']","red",49,"left","medium","False","False",523,6900,NA
"A1ZE87WEYCA44A","Wed Oct 28 2020 12:45:26 GMT-0400 (Eastern Daylight Time)","Wed Oct 28 2020 12:55:14 GMT-0400 (Eastern Daylight Time)","Mozilla/5.0 (Windows NT 6.1) AppleWebKit/537.36 (KHTML, like Gecko) Chrome/86.0.4240.111 Safari/537.36",115,"[0.9, 0.5, 0.1]","[0.8, 0.4, 0.2]","[u'red', u'blue', u'black']","[u'left', u'middle', u'right']","[0.8, 0.4, 0.2]","[u'medium', u'low', u'high']","blue",50,"middle","low","False","False",372,6850,NA
"A1ZE87WEYCA44A","Wed Oct 28 2020 12:45:26 GMT-0400 (Eastern Daylight Time)","Wed Oct 28 2020 12:55:14 GMT-0400 (Eastern Daylight Time)","Mozilla/5.0 (Windows NT 6.1) AppleWebKit/537.36 (KHTML, like Gecko) Chrome/86.0.4240.111 Safari/537.36",116,"[0.9, 0.5, 0.1]","[0.8, 0.4, 0.2]","[u'red', u'blue', u'black']","[u'left', u'middle', u'right']","[0.8, 0.4, 0.2]","[u'medium', u'low', u'high']","black",51,"right","high","False","False",307,6800,NA
"A1ZE87WEYCA44A","Wed Oct 28 2020 12:45:26 GMT-0400 (Eastern Daylight Time)","Wed Oct 28 2020 12:55:14 GMT-0400 (Eastern Daylight Time)","Mozilla/5.0 (Windows NT 6.1) AppleWebKit/537.36 (KHTML, like Gecko) Chrome/86.0.4240.111 Safari/537.36",117,"[0.9, 0.5, 0.1]","[0.8, 0.4, 0.2]","[u'red', u'blue', u'black']","[u'left', u'middle', u'right']","[0.8, 0.4, 0.2]","[u'medium', u'low', u'high']","red",49,"left","medium","False","False",323,6750,NA
"A1ZE87WEYCA44A","Wed Oct 28 2020 12:45:26 GMT-0400 (Eastern Daylight Time)","Wed Oct 28 2020 12:55:14 GMT-0400 (Eastern Daylight Time)","Mozilla/5.0 (Windows NT 6.1) AppleWebKit/537.36 (KHTML, like Gecko) Chrome/86.0.4240.111 Safari/537.36",118,"[0.9, 0.5, 0.1]","[0.8, 0.4, 0.2]","[u'red', u'blue', u'black']","[u'left', u'middle', u'right']","[0.8, 0.4, 0.2]","[u'medium', u'low', u'high']","black",51,"right","high","True","False",301,6850,NA
"A1ZE87WEYCA44A","Wed Oct 28 2020 12:45:26 GMT-0400 (Eastern Daylight Time)","Wed Oct 28 2020 12:55:14 GMT-0400 (Eastern Daylight Time)","Mozilla/5.0 (Windows NT 6.1) AppleWebKit/537.36 (KHTML, like Gecko) Chrome/86.0.4240.111 Safari/537.36",119,"[0.9, 0.5, 0.1]","[0.8, 0.4, 0.2]","[u'red', u'blue', u'black']","[u'left', u'middle', u'right']","[0.8, 0.4, 0.2]","[u'medium', u'low', u'high']","black",51,"right","high","False","False",147,6800,NA
"A1ZE87WEYCA44A","Wed Oct 28 2020 12:45:26 GMT-0400 (Eastern Daylight Time)","Wed Oct 28 2020 12:55:14 GMT-0400 (Eastern Daylight Time)","Mozilla/5.0 (Windows NT 6.1) AppleWebKit/537.36 (KHTML, like Gecko) Chrome/86.0.4240.111 Safari/537.36",120,"[0.9, 0.5, 0.1]","[0.8, 0.4, 0.2]","[u'red', u'blue', u'black']","[u'left', u'middle', u'right']","[0.8, 0.4, 0.2]","[u'medium', u'low', u'high']","black",51,"right","high","True","False",1796,6900,NA
"A1ZE87WEYCA44A","Wed Oct 28 2020 12:45:26 GMT-0400 (Eastern Daylight Time)","Wed Oct 28 2020 12:55:14 GMT-0400 (Eastern Daylight Time)","Mozilla/5.0 (Windows NT 6.1) AppleWebKit/537.36 (KHTML, like Gecko) Chrome/86.0.4240.111 Safari/537.36",121,"[0.9, 0.5, 0.1]","[0.8, 0.4, 0.2]","[u'red', u'blue', u'black']","[u'left', u'middle', u'right']","[0.8, 0.4, 0.2]","[u'medium', u'high', u'low']","black",51,"right","low","False","False",29228,6850,NA
"A1ZE87WEYCA44A","Wed Oct 28 2020 12:45:26 GMT-0400 (Eastern Daylight Time)","Wed Oct 28 2020 12:55:14 GMT-0400 (Eastern Daylight Time)","Mozilla/5.0 (Windows NT 6.1) AppleWebKit/537.36 (KHTML, like Gecko) Chrome/86.0.4240.111 Safari/537.36",122,"[0.9, 0.5, 0.1]","[0.8, 0.4, 0.2]","[u'red', u'blue', u'black']","[u'left', u'middle', u'right']","[0.8, 0.4, 0.2]","[u'medium', u'high', u'low']","red",49,"left","medium","True","False",474,6950,NA
"A1ZE87WEYCA44A","Wed Oct 28 2020 12:45:26 GMT-0400 (Eastern Daylight Time)","Wed Oct 28 2020 12:55:14 GMT-0400 (Eastern Daylight Time)","Mozilla/5.0 (Windows NT 6.1) AppleWebKit/537.36 (KHTML, like Gecko) Chrome/86.0.4240.111 Safari/537.36",123,"[0.9, 0.5, 0.1]","[0.8, 0.4, 0.2]","[u'red', u'blue', u'black']","[u'left', u'middle', u'right']","[0.8, 0.4, 0.2]","[u'medium', u'high', u'low']","red",49,"left","medium","False","False",531,6900,NA
"A1ZE87WEYCA44A","Wed Oct 28 2020 12:45:26 GMT-0400 (Eastern Daylight Time)","Wed Oct 28 2020 12:55:14 GMT-0400 (Eastern Daylight Time)","Mozilla/5.0 (Windows NT 6.1) AppleWebKit/537.36 (KHTML, like Gecko) Chrome/86.0.4240.111 Safari/537.36",124,"[0.9, 0.5, 0.1]","[0.8, 0.4, 0.2]","[u'red', u'blue', u'black']","[u'left', u'middle', u'right']","[0.8, 0.4, 0.2]","[u'medium', u'high', u'low']","blue",50,"middle","high","True","False",444,7000,NA
"A1ZE87WEYCA44A","Wed Oct 28 2020 12:45:26 GMT-0400 (Eastern Daylight Time)","Wed Oct 28 2020 12:55:14 GMT-0400 (Eastern Daylight Time)","Mozilla/5.0 (Windows NT 6.1) AppleWebKit/537.36 (KHTML, like Gecko) Chrome/86.0.4240.111 Safari/537.36",125,"[0.9, 0.5, 0.1]","[0.8, 0.4, 0.2]","[u'red', u'blue', u'black']","[u'left', u'middle', u'right']","[0.8, 0.4, 0.2]","[u'medium', u'high', u'low']","blue",50,"middle","high","True","False",347,7100,NA
"A1ZE87WEYCA44A","Wed Oct 28 2020 12:45:26 GMT-0400 (Eastern Daylight Time)","Wed Oct 28 2020 12:55:14 GMT-0400 (Eastern Daylight Time)","Mozilla/5.0 (Windows NT 6.1) AppleWebKit/537.36 (KHTML, like Gecko) Chrome/86.0.4240.111 Safari/537.36",126,"[0.9, 0.5, 0.1]","[0.8, 0.4, 0.2]","[u'red', u'blue', u'black']","[u'left', u'middle', u'right']","[0.8, 0.4, 0.2]","[u'medium', u'high', u'low']","blue",50,"middle","high","True","False",308,7200,NA
"A1ZE87WEYCA44A","Wed Oct 28 2020 12:45:26 GMT-0400 (Eastern Daylight Time)","Wed Oct 28 2020 12:55:14 GMT-0400 (Eastern Daylight Time)","Mozilla/5.0 (Windows NT 6.1) AppleWebKit/537.36 (KHTML, like Gecko) Chrome/86.0.4240.111 Safari/537.36",127,"[0.9, 0.5, 0.1]","[0.8, 0.4, 0.2]","[u'red', u'blue', u'black']","[u'left', u'middle', u'right']","[0.8, 0.4, 0.2]","[u'medium', u'high', u'low']","blue",50,"middle","high","True","False",357,7300,NA
"A1ZE87WEYCA44A","Wed Oct 28 2020 12:45:26 GMT-0400 (Eastern Daylight Time)","Wed Oct 28 2020 12:55:14 GMT-0400 (Eastern Daylight Time)","Mozilla/5.0 (Windows NT 6.1) AppleWebKit/537.36 (KHTML, like Gecko) Chrome/86.0.4240.111 Safari/537.36",128,"[0.9, 0.5, 0.1]","[0.8, 0.4, 0.2]","[u'red', u'blue', u'black']","[u'left', u'middle', u'right']","[0.8, 0.4, 0.2]","[u'medium', u'high', u'low']","blue",50,"middle","high","False","False",250,7250,NA
"A1ZE87WEYCA44A","Wed Oct 28 2020 12:45:26 GMT-0400 (Eastern Daylight Time)","Wed Oct 28 2020 12:55:14 GMT-0400 (Eastern Daylight Time)","Mozilla/5.0 (Windows NT 6.1) AppleWebKit/537.36 (KHTML, like Gecko) Chrome/86.0.4240.111 Safari/537.36",129,"[0.9, 0.5, 0.1]","[0.8, 0.4, 0.2]","[u'red', u'blue', u'black']","[u'left', u'middle', u'right']","[0.8, 0.4, 0.2]","[u'medium', u'high', u'low']","black",51,"right","low","False","False",332,7200,NA
"A1ZE87WEYCA44A","Wed Oct 28 2020 12:45:26 GMT-0400 (Eastern Daylight Time)","Wed Oct 28 2020 12:55:14 GMT-0400 (Eastern Daylight Time)","Mozilla/5.0 (Windows NT 6.1) AppleWebKit/537.36 (KHTML, like Gecko) Chrome/86.0.4240.111 Safari/537.36",130,"[0.9, 0.5, 0.1]","[0.8, 0.4, 0.2]","[u'red', u'blue', u'black']","[u'left', u'middle', u'right']","[0.8, 0.4, 0.2]","[u'medium', u'high', u'low']","blue",50,"middle","high","True","False",332,7300,NA
"A1ZE87WEYCA44A","Wed Oct 28 2020 12:45:26 GMT-0400 (Eastern Daylight Time)","Wed Oct 28 2020 12:55:14 GMT-0400 (Eastern Daylight Time)","Mozilla/5.0 (Windows NT 6.1) AppleWebKit/537.36 (KHTML, like Gecko) Chrome/86.0.4240.111 Safari/537.36",131,"[0.9, 0.5, 0.1]","[0.8, 0.4, 0.2]","[u'red', u'blue', u'black']","[u'left', u'middle', u'right']","[0.8, 0.4, 0.2]","[u'medium', u'high', u'low']","blue",50,"middle","high","True","False",307,7400,NA
"A1ZE87WEYCA44A","Wed Oct 28 2020 12:45:26 GMT-0400 (Eastern Daylight Time)","Wed Oct 28 2020 12:55:14 GMT-0400 (Eastern Daylight Time)","Mozilla/5.0 (Windows NT 6.1) AppleWebKit/537.36 (KHTML, like Gecko) Chrome/86.0.4240.111 Safari/537.36",132,"[0.9, 0.5, 0.1]","[0.8, 0.4, 0.2]","[u'red', u'blue', u'black']","[u'left', u'middle', u'right']","[0.8, 0.4, 0.2]","[u'medium', u'high', u'low']","blue",50,"middle","high","True","False",340,7500,NA
"A1ZE87WEYCA44A","Wed Oct 28 2020 12:45:26 GMT-0400 (Eastern Daylight Time)","Wed Oct 28 2020 12:55:14 GMT-0400 (Eastern Daylight Time)","Mozilla/5.0 (Windows NT 6.1) AppleWebKit/537.36 (KHTML, like Gecko) Chrome/86.0.4240.111 Safari/537.36",133,"[0.9, 0.5, 0.1]","[0.8, 0.4, 0.2]","[u'red', u'blue', u'black']","[u'left', u'middle', u'right']","[0.8, 0.4, 0.2]","[u'medium', u'high', u'low']","blue",50,"middle","high","True","True",204,7600,NA
"A1ZE87WEYCA44A","Wed Oct 28 2020 12:45:26 GMT-0400 (Eastern Daylight Time)","Wed Oct 28 2020 12:55:14 GMT-0400 (Eastern Daylight Time)","Mozilla/5.0 (Windows NT 6.1) AppleWebKit/537.36 (KHTML, like Gecko) Chrome/86.0.4240.111 Safari/537.36",134,"[0.9, 0.5, 0.1]","[0.8, 0.4, 0.2]","[u'red', u'blue', u'black']","[u'left', u'middle', u'right']","[0.8, 0.4, 0.2]","[u'low', u'medium', u'high']","blue",50,"middle","medium","False","False",283,7550,NA
"A1ZE87WEYCA44A","Wed Oct 28 2020 12:45:26 GMT-0400 (Eastern Daylight Time)","Wed Oct 28 2020 12:55:14 GMT-0400 (Eastern Daylight Time)","Mozilla/5.0 (Windows NT 6.1) AppleWebKit/537.36 (KHTML, like Gecko) Chrome/86.0.4240.111 Safari/537.36",135,"[0.9, 0.5, 0.1]","[0.8, 0.4, 0.2]","[u'red', u'blue', u'black']","[u'left', u'middle', u'right']","[0.8, 0.4, 0.2]","[u'low', u'medium', u'high']","black",51,"right","high","False","False",1691,7500,NA
"A1ZE87WEYCA44A","Wed Oct 28 2020 12:45:26 GMT-0400 (Eastern Daylight Time)","Wed Oct 28 2020 12:55:14 GMT-0400 (Eastern Daylight Time)","Mozilla/5.0 (Windows NT 6.1) AppleWebKit/537.36 (KHTML, like Gecko) Chrome/86.0.4240.111 Safari/537.36",136,"[0.9, 0.5, 0.1]","[0.8, 0.4, 0.2]","[u'red', u'blue', u'black']","[u'left', u'middle', u'right']","[0.8, 0.4, 0.2]","[u'low', u'medium', u'high']","blue",50,"middle","medium","False","False",316,7450,NA
"A1ZE87WEYCA44A","Wed Oct 28 2020 12:45:26 GMT-0400 (Eastern Daylight Time)","Wed Oct 28 2020 12:55:14 GMT-0400 (Eastern Daylight Time)","Mozilla/5.0 (Windows NT 6.1) AppleWebKit/537.36 (KHTML, like Gecko) Chrome/86.0.4240.111 Safari/537.36",137,"[0.9, 0.5, 0.1]","[0.8, 0.4, 0.2]","[u'red', u'blue', u'black']","[u'left', u'middle', u'right']","[0.8, 0.4, 0.2]","[u'low', u'medium', u'high']","red",49,"left","low","False","False",236,7400,NA
"A1ZE87WEYCA44A","Wed Oct 28 2020 12:45:26 GMT-0400 (Eastern Daylight Time)","Wed Oct 28 2020 12:55:14 GMT-0400 (Eastern Daylight Time)","Mozilla/5.0 (Windows NT 6.1) AppleWebKit/537.36 (KHTML, like Gecko) Chrome/86.0.4240.111 Safari/537.36",138,"[0.9, 0.5, 0.1]","[0.8, 0.4, 0.2]","[u'red', u'blue', u'black']","[u'left', u'middle', u'right']","[0.8, 0.4, 0.2]","[u'low', u'medium', u'high']","blue",50,"middle","medium","True","False",149,7500,NA
"A1ZE87WEYCA44A","Wed Oct 28 2020 12:45:26 GMT-0400 (Eastern Daylight Time)","Wed Oct 28 2020 12:55:14 GMT-0400 (Eastern Daylight Time)","Mozilla/5.0 (Windows NT 6.1) AppleWebKit/537.36 (KHTML, like Gecko) Chrome/86.0.4240.111 Safari/537.36",139,"[0.9, 0.5, 0.1]","[0.8, 0.4, 0.2]","[u'red', u'blue', u'black']","[u'left', u'middle', u'right']","[0.8, 0.4, 0.2]","[u'low', u'medium', u'high']","blue",50,"middle","medium","True","False",250,7600,NA
"A1ZE87WEYCA44A","Wed Oct 28 2020 12:45:26 GMT-0400 (Eastern Daylight Time)","Wed Oct 28 2020 12:55:14 GMT-0400 (Eastern Daylight Time)","Mozilla/5.0 (Windows NT 6.1) AppleWebKit/537.36 (KHTML, like Gecko) Chrome/86.0.4240.111 Safari/537.36",140,"[0.9, 0.5, 0.1]","[0.8, 0.4, 0.2]","[u'red', u'blue', u'black']","[u'left', u'middle', u'right']","[0.8, 0.4, 0.2]","[u'low', u'medium', u'high']","blue",50,"middle","medium","False","False",211,7550,NA
"A1ZE87WEYCA44A","Wed Oct 28 2020 12:45:26 GMT-0400 (Eastern Daylight Time)","Wed Oct 28 2020 12:55:14 GMT-0400 (Eastern Daylight Time)","Mozilla/5.0 (Windows NT 6.1) AppleWebKit/537.36 (KHTML, like Gecko) Chrome/86.0.4240.111 Safari/537.36",141,"[0.9, 0.5, 0.1]","[0.8, 0.4, 0.2]","[u'red', u'blue', u'black']","[u'left', u'middle', u'right']","[0.8, 0.4, 0.2]","[u'low', u'medium', u'high']","red",49,"left","low","False","False",267,7500,NA
"A1ZE87WEYCA44A","Wed Oct 28 2020 12:45:26 GMT-0400 (Eastern Daylight Time)","Wed Oct 28 2020 12:55:14 GMT-0400 (Eastern Daylight Time)","Mozilla/5.0 (Windows NT 6.1) AppleWebKit/537.36 (KHTML, like Gecko) Chrome/86.0.4240.111 Safari/537.36",142,"[0.9, 0.5, 0.1]","[0.8, 0.4, 0.2]","[u'red', u'blue', u'black']","[u'left', u'middle', u'right']","[0.8, 0.4, 0.2]","[u'low', u'medium', u'high']","blue",50,"middle","medium","False","False",307,7450,NA
"A1ZE87WEYCA44A","Wed Oct 28 2020 12:45:26 GMT-0400 (Eastern Daylight Time)","Wed Oct 28 2020 12:55:14 GMT-0400 (Eastern Daylight Time)","Mozilla/5.0 (Windows NT 6.1) AppleWebKit/537.36 (KHTML, like Gecko) Chrome/86.0.4240.111 Safari/537.36",143,"[0.9, 0.5, 0.1]","[0.8, 0.4, 0.2]","[u'red', u'blue', u'black']","[u'left', u'middle', u'right']","[0.8, 0.4, 0.2]","[u'low', u'medium', u'high']","black",51,"right","high","True","False",308,7550,NA
"A1ZE87WEYCA44A","Wed Oct 28 2020 12:45:26 GMT-0400 (Eastern Daylight Time)","Wed Oct 28 2020 12:55:14 GMT-0400 (Eastern Daylight Time)","Mozilla/5.0 (Windows NT 6.1) AppleWebKit/537.36 (KHTML, like Gecko) Chrome/86.0.4240.111 Safari/537.36",144,"[0.9, 0.5, 0.1]","[0.8, 0.4, 0.2]","[u'red', u'blue', u'black']","[u'left', u'middle', u'right']","[0.8, 0.4, 0.2]","[u'low', u'medium', u'high']","black",51,"right","high","True","False",100,7650,NA
"A1ZE87WEYCA44A","Wed Oct 28 2020 12:45:26 GMT-0400 (Eastern Daylight Time)","Wed Oct 28 2020 12:55:14 GMT-0400 (Eastern Daylight Time)","Mozilla/5.0 (Windows NT 6.1) AppleWebKit/537.36 (KHTML, like Gecko) Chrome/86.0.4240.111 Safari/537.36",145,"[0.9, 0.5, 0.1]","[0.8, 0.4, 0.2]","[u'red', u'blue', u'black']","[u'left', u'middle', u'right']","[0.8, 0.4, 0.2]","[u'low', u'medium', u'high']","black",51,"right","high","True","False",243,7750,NA
"A1ZE87WEYCA44A","Wed Oct 28 2020 12:45:26 GMT-0400 (Eastern Daylight Time)","Wed Oct 28 2020 12:55:14 GMT-0400 (Eastern Daylight Time)","Mozilla/5.0 (Windows NT 6.1) AppleWebKit/537.36 (KHTML, like Gecko) Chrome/86.0.4240.111 Safari/537.36",146,"[0.9, 0.5, 0.1]","[0.8, 0.4, 0.2]","[u'red', u'blue', u'black']","[u'left', u'middle', u'right']","[0.8, 0.4, 0.2]","[u'low', u'medium', u'high']","black",51,"right","high","True","False",156,7850,NA
"A1ZE87WEYCA44A","Wed Oct 28 2020 12:45:26 GMT-0400 (Eastern Daylight Time)","Wed Oct 28 2020 12:55:14 GMT-0400 (Eastern Daylight Time)","Mozilla/5.0 (Windows NT 6.1) AppleWebKit/537.36 (KHTML, like Gecko) Chrome/86.0.4240.111 Safari/537.36",147,"[0.9, 0.5, 0.1]","[0.8, 0.4, 0.2]","[u'red', u'blue', u'black']","[u'left', u'middle', u'right']","[0.8, 0.4, 0.2]","[u'low', u'medium', u'high']","black",51,"right","high","True","False",284,7950,NA
"A1ZE87WEYCA44A","Wed Oct 28 2020 12:45:26 GMT-0400 (Eastern Daylight Time)","Wed Oct 28 2020 12:55:14 GMT-0400 (Eastern Daylight Time)","Mozilla/5.0 (Windows NT 6.1) AppleWebKit/537.36 (KHTML, like Gecko) Chrome/86.0.4240.111 Safari/537.36",148,"[0.9, 0.5, 0.1]","[0.8, 0.4, 0.2]","[u'red', u'blue', u'black']","[u'left', u'middle', u'right']","[0.8, 0.4, 0.2]","[u'low', u'medium', u'high']","black",51,"right","high","False","False",260,7900,NA
"A1ZE87WEYCA44A","Wed Oct 28 2020 12:45:26 GMT-0400 (Eastern Daylight Time)","Wed Oct 28 2020 12:55:14 GMT-0400 (Eastern Daylight Time)","Mozilla/5.0 (Windows NT 6.1) AppleWebKit/537.36 (KHTML, like Gecko) Chrome/86.0.4240.111 Safari/537.36",149,"[0.9, 0.5, 0.1]","[0.8, 0.4, 0.2]","[u'red', u'blue', u'black']","[u'left', u'middle', u'right']","[0.8, 0.4, 0.2]","[u'low', u'medium', u'high']","blue",50,"middle","medium","True","False",268,8000,NA
"A1ZE87WEYCA44A","Wed Oct 28 2020 12:45:26 GMT-0400 (Eastern Daylight Time)","Wed Oct 28 2020 12:55:14 GMT-0400 (Eastern Daylight Time)","Mozilla/5.0 (Windows NT 6.1) AppleWebKit/537.36 (KHTML, like Gecko) Chrome/86.0.4240.111 Safari/537.36",150,"[0.9, 0.5, 0.1]","[0.8, 0.4, 0.2]","[u'red', u'blue', u'black']","[u'left', u'middle', u'right']","[0.8, 0.4, 0.2]","[u'low', u'medium', u'high']","blue",50,"middle","medium","True","False",53,8100,NA
"A1ZE87WEYCA44A","Wed Oct 28 2020 12:45:26 GMT-0400 (Eastern Daylight Time)","Wed Oct 28 2020 12:55:14 GMT-0400 (Eastern Daylight Time)","Mozilla/5.0 (Windows NT 6.1) AppleWebKit/537.36 (KHTML, like Gecko) Chrome/86.0.4240.111 Safari/537.36",151,"[0.9, 0.5, 0.1]","[0.8, 0.4, 0.2]","[u'red', u'blue', u'black']","[u'left', u'middle', u'right']","[0.8, 0.4, 0.2]","[u'low', u'medium', u'high']","blue",50,"middle","medium","False","False",82,8050,NA
"A1ZE87WEYCA44A","Wed Oct 28 2020 12:45:26 GMT-0400 (Eastern Daylight Time)","Wed Oct 28 2020 12:55:14 GMT-0400 (Eastern Daylight Time)","Mozilla/5.0 (Windows NT 6.1) AppleWebKit/537.36 (KHTML, like Gecko) Chrome/86.0.4240.111 Safari/537.36",152,"[0.9, 0.5, 0.1]","[0.8, 0.4, 0.2]","[u'red', u'blue', u'black']","[u'left', u'middle', u'right']","[0.8, 0.4, 0.2]","[u'low', u'medium', u'high']","blue",50,"middle","medium","False","False",12445,8000,NA
"A1ZE87WEYCA44A","Wed Oct 28 2020 12:45:26 GMT-0400 (Eastern Daylight Time)","Wed Oct 28 2020 12:55:14 GMT-0400 (Eastern Daylight Time)","Mozilla/5.0 (Windows NT 6.1) AppleWebKit/537.36 (KHTML, like Gecko) Chrome/86.0.4240.111 Safari/537.36",153,"[0.9, 0.5, 0.1]","[0.8, 0.4, 0.2]","[u'red', u'blue', u'black']","[u'left', u'middle', u'right']","[0.8, 0.4, 0.2]","[u'low', u'medium', u'high']","black",51,"right","high","True","False",539,8100,NA
"A1ZE87WEYCA44A","Wed Oct 28 2020 12:45:26 GMT-0400 (Eastern Daylight Time)","Wed Oct 28 2020 12:55:14 GMT-0400 (Eastern Daylight Time)","Mozilla/5.0 (Windows NT 6.1) AppleWebKit/537.36 (KHTML, like Gecko) Chrome/86.0.4240.111 Safari/537.36",154,"[0.9, 0.5, 0.1]","[0.8, 0.4, 0.2]","[u'red', u'blue', u'black']","[u'left', u'middle', u'right']","[0.8, 0.4, 0.2]","[u'low', u'medium', u'high']","black",51,"right","high","True","False",1003,8200,NA
"A1ZE87WEYCA44A","Wed Oct 28 2020 12:45:26 GMT-0400 (Eastern Daylight Time)","Wed Oct 28 2020 12:55:14 GMT-0400 (Eastern Daylight Time)","Mozilla/5.0 (Windows NT 6.1) AppleWebKit/537.36 (KHTML, like Gecko) Chrome/86.0.4240.111 Safari/537.36",155,"[0.9, 0.5, 0.1]","[0.8, 0.4, 0.2]","[u'red', u'blue', u'black']","[u'left', u'middle', u'right']","[0.8, 0.4, 0.2]","[u'low', u'medium', u'high']","black",51,"right","high","False","False",556,8150,NA
"A1ZE87WEYCA44A","Wed Oct 28 2020 12:45:26 GMT-0400 (Eastern Daylight Time)","Wed Oct 28 2020 12:55:14 GMT-0400 (Eastern Daylight Time)","Mozilla/5.0 (Windows NT 6.1) AppleWebKit/537.36 (KHTML, like Gecko) Chrome/86.0.4240.111 Safari/537.36",156,"[0.9, 0.5, 0.1]","[0.8, 0.4, 0.2]","[u'red', u'blue', u'black']","[u'left', u'middle', u'right']","[0.8, 0.4, 0.2]","[u'low', u'medium', u'high']","blue",50,"middle","medium","False","False",604,8100,NA
"A1ZE87WEYCA44A","Wed Oct 28 2020 12:45:26 GMT-0400 (Eastern Daylight Time)","Wed Oct 28 2020 12:55:14 GMT-0400 (Eastern Daylight Time)","Mozilla/5.0 (Windows NT 6.1) AppleWebKit/537.36 (KHTML, like Gecko) Chrome/86.0.4240.111 Safari/537.36",157,"[0.9, 0.5, 0.1]","[0.8, 0.4, 0.2]","[u'red', u'blue', u'black']","[u'left', u'middle', u'right']","[0.8, 0.4, 0.2]","[u'low', u'medium', u'high']","black",51,"right","high","True","False",1379,8200,NA
"A1ZE87WEYCA44A","Wed Oct 28 2020 12:45:26 GMT-0400 (Eastern Daylight Time)","Wed Oct 28 2020 12:55:14 GMT-0400 (Eastern Daylight Time)","Mozilla/5.0 (Windows NT 6.1) AppleWebKit/537.36 (KHTML, like Gecko) Chrome/86.0.4240.111 Safari/537.36",158,"[0.9, 0.5, 0.1]","[0.8, 0.4, 0.2]","[u'red', u'blue', u'black']","[u'left', u'middle', u'right']","[0.8, 0.4, 0.2]","[u'low', u'medium', u'high']","black",51,"right","high","True","False",555,8300,NA
"A1ZE87WEYCA44A","Wed Oct 28 2020 12:45:26 GMT-0400 (Eastern Daylight Time)","Wed Oct 28 2020 12:55:14 GMT-0400 (Eastern Daylight Time)","Mozilla/5.0 (Windows NT 6.1) AppleWebKit/537.36 (KHTML, like Gecko) Chrome/86.0.4240.111 Safari/537.36",159,"[0.9, 0.5, 0.1]","[0.8, 0.4, 0.2]","[u'red', u'blue', u'black']","[u'left', u'middle', u'right']","[0.8, 0.4, 0.2]","[u'low', u'medium', u'high']","black",51,"right","high","True","False",468,8400,NA
"A1ZE87WEYCA44A","Wed Oct 28 2020 12:45:26 GMT-0400 (Eastern Daylight Time)","Wed Oct 28 2020 12:55:14 GMT-0400 (Eastern Daylight Time)","Mozilla/5.0 (Windows NT 6.1) AppleWebKit/537.36 (KHTML, like Gecko) Chrome/86.0.4240.111 Safari/537.36",160,"[0.9, 0.5, 0.1]","[0.8, 0.4, 0.2]","[u'red', u'blue', u'black']","[u'left', u'middle', u'right']","[0.8, 0.4, 0.2]","[u'low', u'medium', u'high']","black",51,"right","high","False","False",468,8350,NA
