"src_subject_id","start_time","end_time","browser","index","first_half_probabilities","second_half_probabilities","deck_color","deck_position","deck_probabilities","deck_contingencies","response_color","key_press","response_position","response_probability","reward_type","trial_type","rt","reward_tally","exclusion_reason"
"ATHDQYUL5JEH4","Wed Oct 28 2020 09:51:08 GMT-0700 (Pacific Daylight Time)","Wed Oct 28 2020 10:01:30 GMT-0700 (Pacific Daylight Time)","Mozilla/5.0 (Windows NT 10.0; Win64; x64) AppleWebKit/537.36 (KHTML, like Gecko) Chrome/86.0.4240.111 Safari/537.36",1,"[0.9, 0.5, 0.1]","[0.8, 0.4, 0.2]","[u'black', u'red', u'blue']","[u'left', u'middle', u'right']","[0.9, 0.5, 0.1]","[u'medium', u'high', u'low']","red",50,"middle","high","True","False",1736,100,NA
"ATHDQYUL5JEH4","Wed Oct 28 2020 09:51:08 GMT-0700 (Pacific Daylight Time)","Wed Oct 28 2020 10:01:30 GMT-0700 (Pacific Daylight Time)","Mozilla/5.0 (Windows NT 10.0; Win64; x64) AppleWebKit/537.36 (KHTML, like Gecko) Chrome/86.0.4240.111 Safari/537.36",2,"[0.9, 0.5, 0.1]","[0.8, 0.4, 0.2]","[u'black', u'red', u'blue']","[u'left', u'middle', u'right']","[0.9, 0.5, 0.1]","[u'medium', u'high', u'low']","black",49,"left","medium","False","False",880,50,NA
"ATHDQYUL5JEH4","Wed Oct 28 2020 09:51:08 GMT-0700 (Pacific Daylight Time)","Wed Oct 28 2020 10:01:30 GMT-0700 (Pacific Daylight Time)","Mozilla/5.0 (Windows NT 10.0; Win64; x64) AppleWebKit/537.36 (KHTML, like Gecko) Chrome/86.0.4240.111 Safari/537.36",3,"[0.9, 0.5, 0.1]","[0.8, 0.4, 0.2]","[u'black', u'red', u'blue']","[u'left', u'middle', u'right']","[0.9, 0.5, 0.1]","[u'medium', u'high', u'low']","black",49,"left","medium","False","False",800,0,NA
"ATHDQYUL5JEH4","Wed Oct 28 2020 09:51:08 GMT-0700 (Pacific Daylight Time)","Wed Oct 28 2020 10:01:30 GMT-0700 (Pacific Daylight Time)","Mozilla/5.0 (Windows NT 10.0; Win64; x64) AppleWebKit/537.36 (KHTML, like Gecko) Chrome/86.0.4240.111 Safari/537.36",4,"[0.9, 0.5, 0.1]","[0.8, 0.4, 0.2]","[u'black', u'red', u'blue']","[u'left', u'middle', u'right']","[0.9, 0.5, 0.1]","[u'medium', u'high', u'low']","red",50,"middle","high","True","False",720,100,NA
"ATHDQYUL5JEH4","Wed Oct 28 2020 09:51:08 GMT-0700 (Pacific Daylight Time)","Wed Oct 28 2020 10:01:30 GMT-0700 (Pacific Daylight Time)","Mozilla/5.0 (Windows NT 10.0; Win64; x64) AppleWebKit/537.36 (KHTML, like Gecko) Chrome/86.0.4240.111 Safari/537.36",5,"[0.9, 0.5, 0.1]","[0.8, 0.4, 0.2]","[u'black', u'red', u'blue']","[u'left', u'middle', u'right']","[0.9, 0.5, 0.1]","[u'medium', u'high', u'low']","blue",51,"right","low","False","False",781,50,NA
"ATHDQYUL5JEH4","Wed Oct 28 2020 09:51:08 GMT-0700 (Pacific Daylight Time)","Wed Oct 28 2020 10:01:30 GMT-0700 (Pacific Daylight Time)","Mozilla/5.0 (Windows NT 10.0; Win64; x64) AppleWebKit/537.36 (KHTML, like Gecko) Chrome/86.0.4240.111 Safari/537.36",6,"[0.9, 0.5, 0.1]","[0.8, 0.4, 0.2]","[u'black', u'red', u'blue']","[u'left', u'middle', u'right']","[0.9, 0.5, 0.1]","[u'medium', u'high', u'low']","red",50,"middle","high","True","False",658,150,NA
"ATHDQYUL5JEH4","Wed Oct 28 2020 09:51:08 GMT-0700 (Pacific Daylight Time)","Wed Oct 28 2020 10:01:30 GMT-0700 (Pacific Daylight Time)","Mozilla/5.0 (Windows NT 10.0; Win64; x64) AppleWebKit/537.36 (KHTML, like Gecko) Chrome/86.0.4240.111 Safari/537.36",7,"[0.9, 0.5, 0.1]","[0.8, 0.4, 0.2]","[u'black', u'red', u'blue']","[u'left', u'middle', u'right']","[0.9, 0.5, 0.1]","[u'medium', u'high', u'low']","red",50,"middle","high","True","False",658,250,NA
"ATHDQYUL5JEH4","Wed Oct 28 2020 09:51:08 GMT-0700 (Pacific Daylight Time)","Wed Oct 28 2020 10:01:30 GMT-0700 (Pacific Daylight Time)","Mozilla/5.0 (Windows NT 10.0; Win64; x64) AppleWebKit/537.36 (KHTML, like Gecko) Chrome/86.0.4240.111 Safari/537.36",8,"[0.9, 0.5, 0.1]","[0.8, 0.4, 0.2]","[u'black', u'red', u'blue']","[u'left', u'middle', u'right']","[0.9, 0.5, 0.1]","[u'medium', u'high', u'low']","red",50,"middle","high","True","False",739,350,NA
"ATHDQYUL5JEH4","Wed Oct 28 2020 09:51:08 GMT-0700 (Pacific Daylight Time)","Wed Oct 28 2020 10:01:30 GMT-0700 (Pacific Daylight Time)","Mozilla/5.0 (Windows NT 10.0; Win64; x64) AppleWebKit/537.36 (KHTML, like Gecko) Chrome/86.0.4240.111 Safari/537.36",9,"[0.9, 0.5, 0.1]","[0.8, 0.4, 0.2]","[u'black', u'red', u'blue']","[u'left', u'middle', u'right']","[0.9, 0.5, 0.1]","[u'medium', u'high', u'low']","red",50,"middle","high","True","False",678,450,NA
"ATHDQYUL5JEH4","Wed Oct 28 2020 09:51:08 GMT-0700 (Pacific Daylight Time)","Wed Oct 28 2020 10:01:30 GMT-0700 (Pacific Daylight Time)","Mozilla/5.0 (Windows NT 10.0; Win64; x64) AppleWebKit/537.36 (KHTML, like Gecko) Chrome/86.0.4240.111 Safari/537.36",10,"[0.9, 0.5, 0.1]","[0.8, 0.4, 0.2]","[u'black', u'red', u'blue']","[u'left', u'middle', u'right']","[0.9, 0.5, 0.1]","[u'medium', u'high', u'low']","red",50,"middle","high","True","False",759,550,NA
"ATHDQYUL5JEH4","Wed Oct 28 2020 09:51:08 GMT-0700 (Pacific Daylight Time)","Wed Oct 28 2020 10:01:30 GMT-0700 (Pacific Daylight Time)","Mozilla/5.0 (Windows NT 10.0; Win64; x64) AppleWebKit/537.36 (KHTML, like Gecko) Chrome/86.0.4240.111 Safari/537.36",11,"[0.9, 0.5, 0.1]","[0.8, 0.4, 0.2]","[u'black', u'red', u'blue']","[u'left', u'middle', u'right']","[0.9, 0.5, 0.1]","[u'medium', u'high', u'low']","red",50,"middle","high","True","False",659,650,NA
"ATHDQYUL5JEH4","Wed Oct 28 2020 09:51:08 GMT-0700 (Pacific Daylight Time)","Wed Oct 28 2020 10:01:30 GMT-0700 (Pacific Daylight Time)","Mozilla/5.0 (Windows NT 10.0; Win64; x64) AppleWebKit/537.36 (KHTML, like Gecko) Chrome/86.0.4240.111 Safari/537.36",12,"[0.9, 0.5, 0.1]","[0.8, 0.4, 0.2]","[u'black', u'red', u'blue']","[u'left', u'middle', u'right']","[0.9, 0.5, 0.1]","[u'medium', u'high', u'low']","red",50,"middle","high","True","False",659,750,NA
"ATHDQYUL5JEH4","Wed Oct 28 2020 09:51:08 GMT-0700 (Pacific Daylight Time)","Wed Oct 28 2020 10:01:30 GMT-0700 (Pacific Daylight Time)","Mozilla/5.0 (Windows NT 10.0; Win64; x64) AppleWebKit/537.36 (KHTML, like Gecko) Chrome/86.0.4240.111 Safari/537.36",13,"[0.9, 0.5, 0.1]","[0.8, 0.4, 0.2]","[u'black', u'red', u'blue']","[u'left', u'middle', u'right']","[0.9, 0.5, 0.1]","[u'medium', u'high', u'low']","red",50,"middle","high","True","True",618,850,NA
"ATHDQYUL5JEH4","Wed Oct 28 2020 09:51:08 GMT-0700 (Pacific Daylight Time)","Wed Oct 28 2020 10:01:30 GMT-0700 (Pacific Daylight Time)","Mozilla/5.0 (Windows NT 10.0; Win64; x64) AppleWebKit/537.36 (KHTML, like Gecko) Chrome/86.0.4240.111 Safari/537.36",14,"[0.9, 0.5, 0.1]","[0.8, 0.4, 0.2]","[u'black', u'red', u'blue']","[u'left', u'middle', u'right']","[0.9, 0.5, 0.1]","[u'medium', u'low', u'high']","red",50,"middle","low","False","False",201,800,NA
"ATHDQYUL5JEH4","Wed Oct 28 2020 09:51:08 GMT-0700 (Pacific Daylight Time)","Wed Oct 28 2020 10:01:30 GMT-0700 (Pacific Daylight Time)","Mozilla/5.0 (Windows NT 10.0; Win64; x64) AppleWebKit/537.36 (KHTML, like Gecko) Chrome/86.0.4240.111 Safari/537.36",15,"[0.9, 0.5, 0.1]","[0.8, 0.4, 0.2]","[u'black', u'red', u'blue']","[u'left', u'middle', u'right']","[0.9, 0.5, 0.1]","[u'medium', u'low', u'high']","black",49,"left","medium","True","False",417,900,NA
"ATHDQYUL5JEH4","Wed Oct 28 2020 09:51:08 GMT-0700 (Pacific Daylight Time)","Wed Oct 28 2020 10:01:30 GMT-0700 (Pacific Daylight Time)","Mozilla/5.0 (Windows NT 10.0; Win64; x64) AppleWebKit/537.36 (KHTML, like Gecko) Chrome/86.0.4240.111 Safari/537.36",16,"[0.9, 0.5, 0.1]","[0.8, 0.4, 0.2]","[u'black', u'red', u'blue']","[u'left', u'middle', u'right']","[0.9, 0.5, 0.1]","[u'medium', u'low', u'high']","black",49,"left","medium","False","False",1098,850,NA
"ATHDQYUL5JEH4","Wed Oct 28 2020 09:51:08 GMT-0700 (Pacific Daylight Time)","Wed Oct 28 2020 10:01:30 GMT-0700 (Pacific Daylight Time)","Mozilla/5.0 (Windows NT 10.0; Win64; x64) AppleWebKit/537.36 (KHTML, like Gecko) Chrome/86.0.4240.111 Safari/537.36",17,"[0.9, 0.5, 0.1]","[0.8, 0.4, 0.2]","[u'black', u'red', u'blue']","[u'left', u'middle', u'right']","[0.9, 0.5, 0.1]","[u'medium', u'low', u'high']","blue",51,"right","high","False","False",758,800,NA
"ATHDQYUL5JEH4","Wed Oct 28 2020 09:51:08 GMT-0700 (Pacific Daylight Time)","Wed Oct 28 2020 10:01:30 GMT-0700 (Pacific Daylight Time)","Mozilla/5.0 (Windows NT 10.0; Win64; x64) AppleWebKit/537.36 (KHTML, like Gecko) Chrome/86.0.4240.111 Safari/537.36",18,"[0.9, 0.5, 0.1]","[0.8, 0.4, 0.2]","[u'black', u'red', u'blue']","[u'left', u'middle', u'right']","[0.9, 0.5, 0.1]","[u'medium', u'low', u'high']","red",50,"middle","low","False","False",641,750,NA
"ATHDQYUL5JEH4","Wed Oct 28 2020 09:51:08 GMT-0700 (Pacific Daylight Time)","Wed Oct 28 2020 10:01:30 GMT-0700 (Pacific Daylight Time)","Mozilla/5.0 (Windows NT 10.0; Win64; x64) AppleWebKit/537.36 (KHTML, like Gecko) Chrome/86.0.4240.111 Safari/537.36",19,"[0.9, 0.5, 0.1]","[0.8, 0.4, 0.2]","[u'black', u'red', u'blue']","[u'left', u'middle', u'right']","[0.9, 0.5, 0.1]","[u'medium', u'low', u'high']","black",49,"left","medium","False","False",636,700,NA
"ATHDQYUL5JEH4","Wed Oct 28 2020 09:51:08 GMT-0700 (Pacific Daylight Time)","Wed Oct 28 2020 10:01:30 GMT-0700 (Pacific Daylight Time)","Mozilla/5.0 (Windows NT 10.0; Win64; x64) AppleWebKit/537.36 (KHTML, like Gecko) Chrome/86.0.4240.111 Safari/537.36",20,"[0.9, 0.5, 0.1]","[0.8, 0.4, 0.2]","[u'black', u'red', u'blue']","[u'left', u'middle', u'right']","[0.9, 0.5, 0.1]","[u'medium', u'low', u'high']","black",49,"left","medium","False","False",778,650,NA
"ATHDQYUL5JEH4","Wed Oct 28 2020 09:51:08 GMT-0700 (Pacific Daylight Time)","Wed Oct 28 2020 10:01:30 GMT-0700 (Pacific Daylight Time)","Mozilla/5.0 (Windows NT 10.0; Win64; x64) AppleWebKit/537.36 (KHTML, like Gecko) Chrome/86.0.4240.111 Safari/537.36",21,"[0.9, 0.5, 0.1]","[0.8, 0.4, 0.2]","[u'black', u'red', u'blue']","[u'left', u'middle', u'right']","[0.9, 0.5, 0.1]","[u'medium', u'low', u'high']","red",50,"middle","low","False","False",658,600,NA
"ATHDQYUL5JEH4","Wed Oct 28 2020 09:51:08 GMT-0700 (Pacific Daylight Time)","Wed Oct 28 2020 10:01:30 GMT-0700 (Pacific Daylight Time)","Mozilla/5.0 (Windows NT 10.0; Win64; x64) AppleWebKit/537.36 (KHTML, like Gecko) Chrome/86.0.4240.111 Safari/537.36",22,"[0.9, 0.5, 0.1]","[0.8, 0.4, 0.2]","[u'black', u'red', u'blue']","[u'left', u'middle', u'right']","[0.9, 0.5, 0.1]","[u'medium', u'low', u'high']","blue",51,"right","high","False","False",559,550,NA
"ATHDQYUL5JEH4","Wed Oct 28 2020 09:51:08 GMT-0700 (Pacific Daylight Time)","Wed Oct 28 2020 10:01:30 GMT-0700 (Pacific Daylight Time)","Mozilla/5.0 (Windows NT 10.0; Win64; x64) AppleWebKit/537.36 (KHTML, like Gecko) Chrome/86.0.4240.111 Safari/537.36",23,"[0.9, 0.5, 0.1]","[0.8, 0.4, 0.2]","[u'black', u'red', u'blue']","[u'left', u'middle', u'right']","[0.9, 0.5, 0.1]","[u'medium', u'low', u'high']","black",49,"left","medium","False","False",618,500,NA
"ATHDQYUL5JEH4","Wed Oct 28 2020 09:51:08 GMT-0700 (Pacific Daylight Time)","Wed Oct 28 2020 10:01:30 GMT-0700 (Pacific Daylight Time)","Mozilla/5.0 (Windows NT 10.0; Win64; x64) AppleWebKit/537.36 (KHTML, like Gecko) Chrome/86.0.4240.111 Safari/537.36",24,"[0.9, 0.5, 0.1]","[0.8, 0.4, 0.2]","[u'black', u'red', u'blue']","[u'left', u'middle', u'right']","[0.9, 0.5, 0.1]","[u'medium', u'low', u'high']","red",50,"middle","low","False","False",301,450,NA
"ATHDQYUL5JEH4","Wed Oct 28 2020 09:51:08 GMT-0700 (Pacific Daylight Time)","Wed Oct 28 2020 10:01:30 GMT-0700 (Pacific Daylight Time)","Mozilla/5.0 (Windows NT 10.0; Win64; x64) AppleWebKit/537.36 (KHTML, like Gecko) Chrome/86.0.4240.111 Safari/537.36",25,"[0.9, 0.5, 0.1]","[0.8, 0.4, 0.2]","[u'black', u'red', u'blue']","[u'left', u'middle', u'right']","[0.9, 0.5, 0.1]","[u'medium', u'low', u'high']","black",49,"left","medium","True","False",1220,550,NA
"ATHDQYUL5JEH4","Wed Oct 28 2020 09:51:08 GMT-0700 (Pacific Daylight Time)","Wed Oct 28 2020 10:01:30 GMT-0700 (Pacific Daylight Time)","Mozilla/5.0 (Windows NT 10.0; Win64; x64) AppleWebKit/537.36 (KHTML, like Gecko) Chrome/86.0.4240.111 Safari/537.36",26,"[0.9, 0.5, 0.1]","[0.8, 0.4, 0.2]","[u'black', u'red', u'blue']","[u'left', u'middle', u'right']","[0.9, 0.5, 0.1]","[u'medium', u'low', u'high']","black",49,"left","medium","True","False",739,650,NA
"ATHDQYUL5JEH4","Wed Oct 28 2020 09:51:08 GMT-0700 (Pacific Daylight Time)","Wed Oct 28 2020 10:01:30 GMT-0700 (Pacific Daylight Time)","Mozilla/5.0 (Windows NT 10.0; Win64; x64) AppleWebKit/537.36 (KHTML, like Gecko) Chrome/86.0.4240.111 Safari/537.36",27,"[0.9, 0.5, 0.1]","[0.8, 0.4, 0.2]","[u'black', u'red', u'blue']","[u'left', u'middle', u'right']","[0.9, 0.5, 0.1]","[u'medium', u'low', u'high']","black",49,"left","medium","False","False",660,600,NA
"ATHDQYUL5JEH4","Wed Oct 28 2020 09:51:08 GMT-0700 (Pacific Daylight Time)","Wed Oct 28 2020 10:01:30 GMT-0700 (Pacific Daylight Time)","Mozilla/5.0 (Windows NT 10.0; Win64; x64) AppleWebKit/537.36 (KHTML, like Gecko) Chrome/86.0.4240.111 Safari/537.36",28,"[0.9, 0.5, 0.1]","[0.8, 0.4, 0.2]","[u'black', u'red', u'blue']","[u'left', u'middle', u'right']","[0.9, 0.5, 0.1]","[u'medium', u'low', u'high']","blue",51,"right","high","True","False",678,700,NA
"ATHDQYUL5JEH4","Wed Oct 28 2020 09:51:08 GMT-0700 (Pacific Daylight Time)","Wed Oct 28 2020 10:01:30 GMT-0700 (Pacific Daylight Time)","Mozilla/5.0 (Windows NT 10.0; Win64; x64) AppleWebKit/537.36 (KHTML, like Gecko) Chrome/86.0.4240.111 Safari/537.36",29,"[0.9, 0.5, 0.1]","[0.8, 0.4, 0.2]","[u'black', u'red', u'blue']","[u'left', u'middle', u'right']","[0.9, 0.5, 0.1]","[u'medium', u'low', u'high']","blue",51,"right","high","True","False",580,800,NA
"ATHDQYUL5JEH4","Wed Oct 28 2020 09:51:08 GMT-0700 (Pacific Daylight Time)","Wed Oct 28 2020 10:01:30 GMT-0700 (Pacific Daylight Time)","Mozilla/5.0 (Windows NT 10.0; Win64; x64) AppleWebKit/537.36 (KHTML, like Gecko) Chrome/86.0.4240.111 Safari/537.36",30,"[0.9, 0.5, 0.1]","[0.8, 0.4, 0.2]","[u'black', u'red', u'blue']","[u'left', u'middle', u'right']","[0.9, 0.5, 0.1]","[u'medium', u'low', u'high']","blue",51,"right","high","True","False",260,900,NA
"ATHDQYUL5JEH4","Wed Oct 28 2020 09:51:08 GMT-0700 (Pacific Daylight Time)","Wed Oct 28 2020 10:01:30 GMT-0700 (Pacific Daylight Time)","Mozilla/5.0 (Windows NT 10.0; Win64; x64) AppleWebKit/537.36 (KHTML, like Gecko) Chrome/86.0.4240.111 Safari/537.36",31,"[0.9, 0.5, 0.1]","[0.8, 0.4, 0.2]","[u'black', u'red', u'blue']","[u'left', u'middle', u'right']","[0.9, 0.5, 0.1]","[u'medium', u'low', u'high']","blue",51,"right","high","True","False",538,1000,NA
"ATHDQYUL5JEH4","Wed Oct 28 2020 09:51:08 GMT-0700 (Pacific Daylight Time)","Wed Oct 28 2020 10:01:30 GMT-0700 (Pacific Daylight Time)","Mozilla/5.0 (Windows NT 10.0; Win64; x64) AppleWebKit/537.36 (KHTML, like Gecko) Chrome/86.0.4240.111 Safari/537.36",32,"[0.9, 0.5, 0.1]","[0.8, 0.4, 0.2]","[u'black', u'red', u'blue']","[u'left', u'middle', u'right']","[0.9, 0.5, 0.1]","[u'medium', u'low', u'high']","blue",51,"right","high","True","False",491,1100,NA
"ATHDQYUL5JEH4","Wed Oct 28 2020 09:51:08 GMT-0700 (Pacific Daylight Time)","Wed Oct 28 2020 10:01:30 GMT-0700 (Pacific Daylight Time)","Mozilla/5.0 (Windows NT 10.0; Win64; x64) AppleWebKit/537.36 (KHTML, like Gecko) Chrome/86.0.4240.111 Safari/537.36",33,"[0.9, 0.5, 0.1]","[0.8, 0.4, 0.2]","[u'black', u'red', u'blue']","[u'left', u'middle', u'right']","[0.9, 0.5, 0.1]","[u'medium', u'low', u'high']","blue",51,"right","high","True","False",328,1200,NA
"ATHDQYUL5JEH4","Wed Oct 28 2020 09:51:08 GMT-0700 (Pacific Daylight Time)","Wed Oct 28 2020 10:01:30 GMT-0700 (Pacific Daylight Time)","Mozilla/5.0 (Windows NT 10.0; Win64; x64) AppleWebKit/537.36 (KHTML, like Gecko) Chrome/86.0.4240.111 Safari/537.36",34,"[0.9, 0.5, 0.1]","[0.8, 0.4, 0.2]","[u'black', u'red', u'blue']","[u'left', u'middle', u'right']","[0.9, 0.5, 0.1]","[u'medium', u'low', u'high']","blue",51,"right","high","True","False",408,1300,NA
"ATHDQYUL5JEH4","Wed Oct 28 2020 09:51:08 GMT-0700 (Pacific Daylight Time)","Wed Oct 28 2020 10:01:30 GMT-0700 (Pacific Daylight Time)","Mozilla/5.0 (Windows NT 10.0; Win64; x64) AppleWebKit/537.36 (KHTML, like Gecko) Chrome/86.0.4240.111 Safari/537.36",35,"[0.9, 0.5, 0.1]","[0.8, 0.4, 0.2]","[u'black', u'red', u'blue']","[u'left', u'middle', u'right']","[0.9, 0.5, 0.1]","[u'medium', u'low', u'high']","blue",51,"right","high","True","False",169,1400,NA
"ATHDQYUL5JEH4","Wed Oct 28 2020 09:51:08 GMT-0700 (Pacific Daylight Time)","Wed Oct 28 2020 10:01:30 GMT-0700 (Pacific Daylight Time)","Mozilla/5.0 (Windows NT 10.0; Win64; x64) AppleWebKit/537.36 (KHTML, like Gecko) Chrome/86.0.4240.111 Safari/537.36",36,"[0.9, 0.5, 0.1]","[0.8, 0.4, 0.2]","[u'black', u'red', u'blue']","[u'left', u'middle', u'right']","[0.9, 0.5, 0.1]","[u'medium', u'low', u'high']","blue",51,"right","high","True","True",439,1500,NA
"ATHDQYUL5JEH4","Wed Oct 28 2020 09:51:08 GMT-0700 (Pacific Daylight Time)","Wed Oct 28 2020 10:01:30 GMT-0700 (Pacific Daylight Time)","Mozilla/5.0 (Windows NT 10.0; Win64; x64) AppleWebKit/537.36 (KHTML, like Gecko) Chrome/86.0.4240.111 Safari/537.36",37,"[0.9, 0.5, 0.1]","[0.8, 0.4, 0.2]","[u'black', u'red', u'blue']","[u'left', u'middle', u'right']","[0.9, 0.5, 0.1]","[u'high', u'medium', u'low']","blue",51,"right","low","False","False",358,1450,NA
"ATHDQYUL5JEH4","Wed Oct 28 2020 09:51:08 GMT-0700 (Pacific Daylight Time)","Wed Oct 28 2020 10:01:30 GMT-0700 (Pacific Daylight Time)","Mozilla/5.0 (Windows NT 10.0; Win64; x64) AppleWebKit/537.36 (KHTML, like Gecko) Chrome/86.0.4240.111 Safari/537.36",38,"[0.9, 0.5, 0.1]","[0.8, 0.4, 0.2]","[u'black', u'red', u'blue']","[u'left', u'middle', u'right']","[0.9, 0.5, 0.1]","[u'high', u'medium', u'low']","black",49,"left","high","True","False",760,1550,NA
"ATHDQYUL5JEH4","Wed Oct 28 2020 09:51:08 GMT-0700 (Pacific Daylight Time)","Wed Oct 28 2020 10:01:30 GMT-0700 (Pacific Daylight Time)","Mozilla/5.0 (Windows NT 10.0; Win64; x64) AppleWebKit/537.36 (KHTML, like Gecko) Chrome/86.0.4240.111 Safari/537.36",39,"[0.9, 0.5, 0.1]","[0.8, 0.4, 0.2]","[u'black', u'red', u'blue']","[u'left', u'middle', u'right']","[0.9, 0.5, 0.1]","[u'high', u'medium', u'low']","black",49,"left","high","True","False",179,1650,NA
"ATHDQYUL5JEH4","Wed Oct 28 2020 09:51:08 GMT-0700 (Pacific Daylight Time)","Wed Oct 28 2020 10:01:30 GMT-0700 (Pacific Daylight Time)","Mozilla/5.0 (Windows NT 10.0; Win64; x64) AppleWebKit/537.36 (KHTML, like Gecko) Chrome/86.0.4240.111 Safari/537.36",40,"[0.9, 0.5, 0.1]","[0.8, 0.4, 0.2]","[u'black', u'red', u'blue']","[u'left', u'middle', u'right']","[0.9, 0.5, 0.1]","[u'high', u'medium', u'low']","black",49,"left","high","True","False",137,1750,NA
"ATHDQYUL5JEH4","Wed Oct 28 2020 09:51:08 GMT-0700 (Pacific Daylight Time)","Wed Oct 28 2020 10:01:30 GMT-0700 (Pacific Daylight Time)","Mozilla/5.0 (Windows NT 10.0; Win64; x64) AppleWebKit/537.36 (KHTML, like Gecko) Chrome/86.0.4240.111 Safari/537.36",41,"[0.9, 0.5, 0.1]","[0.8, 0.4, 0.2]","[u'black', u'red', u'blue']","[u'left', u'middle', u'right']","[0.9, 0.5, 0.1]","[u'medium', u'low', u'high']","black",49,"left","medium","True","False",918,1850,NA
"ATHDQYUL5JEH4","Wed Oct 28 2020 09:51:08 GMT-0700 (Pacific Daylight Time)","Wed Oct 28 2020 10:01:30 GMT-0700 (Pacific Daylight Time)","Mozilla/5.0 (Windows NT 10.0; Win64; x64) AppleWebKit/537.36 (KHTML, like Gecko) Chrome/86.0.4240.111 Safari/537.36",42,"[0.9, 0.5, 0.1]","[0.8, 0.4, 0.2]","[u'black', u'red', u'blue']","[u'left', u'middle', u'right']","[0.9, 0.5, 0.1]","[u'medium', u'low', u'high']","black",49,"left","medium","True","False",719,1950,NA
"ATHDQYUL5JEH4","Wed Oct 28 2020 09:51:08 GMT-0700 (Pacific Daylight Time)","Wed Oct 28 2020 10:01:30 GMT-0700 (Pacific Daylight Time)","Mozilla/5.0 (Windows NT 10.0; Win64; x64) AppleWebKit/537.36 (KHTML, like Gecko) Chrome/86.0.4240.111 Safari/537.36",43,"[0.9, 0.5, 0.1]","[0.8, 0.4, 0.2]","[u'black', u'red', u'blue']","[u'left', u'middle', u'right']","[0.9, 0.5, 0.1]","[u'medium', u'low', u'high']","black",49,"left","medium","True","False",399,2050,NA
"ATHDQYUL5JEH4","Wed Oct 28 2020 09:51:08 GMT-0700 (Pacific Daylight Time)","Wed Oct 28 2020 10:01:30 GMT-0700 (Pacific Daylight Time)","Mozilla/5.0 (Windows NT 10.0; Win64; x64) AppleWebKit/537.36 (KHTML, like Gecko) Chrome/86.0.4240.111 Safari/537.36",44,"[0.9, 0.5, 0.1]","[0.8, 0.4, 0.2]","[u'black', u'red', u'blue']","[u'left', u'middle', u'right']","[0.9, 0.5, 0.1]","[u'medium', u'low', u'high']","black",49,"left","medium","True","False",279,2150,NA
"ATHDQYUL5JEH4","Wed Oct 28 2020 09:51:08 GMT-0700 (Pacific Daylight Time)","Wed Oct 28 2020 10:01:30 GMT-0700 (Pacific Daylight Time)","Mozilla/5.0 (Windows NT 10.0; Win64; x64) AppleWebKit/537.36 (KHTML, like Gecko) Chrome/86.0.4240.111 Safari/537.36",45,"[0.9, 0.5, 0.1]","[0.8, 0.4, 0.2]","[u'black', u'red', u'blue']","[u'left', u'middle', u'right']","[0.9, 0.5, 0.1]","[u'medium', u'low', u'high']","black",49,"left","medium","True","False",638,2250,NA
"ATHDQYUL5JEH4","Wed Oct 28 2020 09:51:08 GMT-0700 (Pacific Daylight Time)","Wed Oct 28 2020 10:01:30 GMT-0700 (Pacific Daylight Time)","Mozilla/5.0 (Windows NT 10.0; Win64; x64) AppleWebKit/537.36 (KHTML, like Gecko) Chrome/86.0.4240.111 Safari/537.36",46,"[0.9, 0.5, 0.1]","[0.8, 0.4, 0.2]","[u'black', u'red', u'blue']","[u'left', u'middle', u'right']","[0.9, 0.5, 0.1]","[u'medium', u'low', u'high']","black",49,"left","medium","False","False",680,2200,NA
"ATHDQYUL5JEH4","Wed Oct 28 2020 09:51:08 GMT-0700 (Pacific Daylight Time)","Wed Oct 28 2020 10:01:30 GMT-0700 (Pacific Daylight Time)","Mozilla/5.0 (Windows NT 10.0; Win64; x64) AppleWebKit/537.36 (KHTML, like Gecko) Chrome/86.0.4240.111 Safari/537.36",47,"[0.9, 0.5, 0.1]","[0.8, 0.4, 0.2]","[u'black', u'red', u'blue']","[u'left', u'middle', u'right']","[0.9, 0.5, 0.1]","[u'medium', u'low', u'high']","red",50,"middle","low","False","False",399,2150,NA
"ATHDQYUL5JEH4","Wed Oct 28 2020 09:51:08 GMT-0700 (Pacific Daylight Time)","Wed Oct 28 2020 10:01:30 GMT-0700 (Pacific Daylight Time)","Mozilla/5.0 (Windows NT 10.0; Win64; x64) AppleWebKit/537.36 (KHTML, like Gecko) Chrome/86.0.4240.111 Safari/537.36",48,"[0.9, 0.5, 0.1]","[0.8, 0.4, 0.2]","[u'black', u'red', u'blue']","[u'left', u'middle', u'right']","[0.9, 0.5, 0.1]","[u'medium', u'low', u'high']","blue",51,"right","high","True","False",266,2250,NA
"ATHDQYUL5JEH4","Wed Oct 28 2020 09:51:08 GMT-0700 (Pacific Daylight Time)","Wed Oct 28 2020 10:01:30 GMT-0700 (Pacific Daylight Time)","Mozilla/5.0 (Windows NT 10.0; Win64; x64) AppleWebKit/537.36 (KHTML, like Gecko) Chrome/86.0.4240.111 Safari/537.36",49,"[0.9, 0.5, 0.1]","[0.8, 0.4, 0.2]","[u'black', u'red', u'blue']","[u'left', u'middle', u'right']","[0.9, 0.5, 0.1]","[u'medium', u'low', u'high']","blue",51,"right","high","True","False",380,2350,NA
"ATHDQYUL5JEH4","Wed Oct 28 2020 09:51:08 GMT-0700 (Pacific Daylight Time)","Wed Oct 28 2020 10:01:30 GMT-0700 (Pacific Daylight Time)","Mozilla/5.0 (Windows NT 10.0; Win64; x64) AppleWebKit/537.36 (KHTML, like Gecko) Chrome/86.0.4240.111 Safari/537.36",50,"[0.9, 0.5, 0.1]","[0.8, 0.4, 0.2]","[u'black', u'red', u'blue']","[u'left', u'middle', u'right']","[0.9, 0.5, 0.1]","[u'medium', u'low', u'high']","blue",51,"right","high","True","False",709,2450,NA
"ATHDQYUL5JEH4","Wed Oct 28 2020 09:51:08 GMT-0700 (Pacific Daylight Time)","Wed Oct 28 2020 10:01:30 GMT-0700 (Pacific Daylight Time)","Mozilla/5.0 (Windows NT 10.0; Win64; x64) AppleWebKit/537.36 (KHTML, like Gecko) Chrome/86.0.4240.111 Safari/537.36",51,"[0.9, 0.5, 0.1]","[0.8, 0.4, 0.2]","[u'black', u'red', u'blue']","[u'left', u'middle', u'right']","[0.9, 0.5, 0.1]","[u'medium', u'low', u'high']","blue",51,"right","high","True","False",899,2550,NA
"ATHDQYUL5JEH4","Wed Oct 28 2020 09:51:08 GMT-0700 (Pacific Daylight Time)","Wed Oct 28 2020 10:01:30 GMT-0700 (Pacific Daylight Time)","Mozilla/5.0 (Windows NT 10.0; Win64; x64) AppleWebKit/537.36 (KHTML, like Gecko) Chrome/86.0.4240.111 Safari/537.36",52,"[0.9, 0.5, 0.1]","[0.8, 0.4, 0.2]","[u'black', u'red', u'blue']","[u'left', u'middle', u'right']","[0.9, 0.5, 0.1]","[u'medium', u'low', u'high']","blue",51,"right","high","True","False",118,2650,NA
"ATHDQYUL5JEH4","Wed Oct 28 2020 09:51:08 GMT-0700 (Pacific Daylight Time)","Wed Oct 28 2020 10:01:30 GMT-0700 (Pacific Daylight Time)","Mozilla/5.0 (Windows NT 10.0; Win64; x64) AppleWebKit/537.36 (KHTML, like Gecko) Chrome/86.0.4240.111 Safari/537.36",53,"[0.9, 0.5, 0.1]","[0.8, 0.4, 0.2]","[u'black', u'red', u'blue']","[u'left', u'middle', u'right']","[0.9, 0.5, 0.1]","[u'medium', u'low', u'high']","blue",51,"right","high","True","False",159,2750,NA
"ATHDQYUL5JEH4","Wed Oct 28 2020 09:51:08 GMT-0700 (Pacific Daylight Time)","Wed Oct 28 2020 10:01:30 GMT-0700 (Pacific Daylight Time)","Mozilla/5.0 (Windows NT 10.0; Win64; x64) AppleWebKit/537.36 (KHTML, like Gecko) Chrome/86.0.4240.111 Safari/537.36",54,"[0.9, 0.5, 0.1]","[0.8, 0.4, 0.2]","[u'black', u'red', u'blue']","[u'left', u'middle', u'right']","[0.9, 0.5, 0.1]","[u'medium', u'low', u'high']","blue",51,"right","high","True","False",420,2850,NA
"ATHDQYUL5JEH4","Wed Oct 28 2020 09:51:08 GMT-0700 (Pacific Daylight Time)","Wed Oct 28 2020 10:01:30 GMT-0700 (Pacific Daylight Time)","Mozilla/5.0 (Windows NT 10.0; Win64; x64) AppleWebKit/537.36 (KHTML, like Gecko) Chrome/86.0.4240.111 Safari/537.36",55,"[0.9, 0.5, 0.1]","[0.8, 0.4, 0.2]","[u'black', u'red', u'blue']","[u'left', u'middle', u'right']","[0.9, 0.5, 0.1]","[u'medium', u'low', u'high']","blue",51,"right","high","True","False",89,2950,NA
"ATHDQYUL5JEH4","Wed Oct 28 2020 09:51:08 GMT-0700 (Pacific Daylight Time)","Wed Oct 28 2020 10:01:30 GMT-0700 (Pacific Daylight Time)","Mozilla/5.0 (Windows NT 10.0; Win64; x64) AppleWebKit/537.36 (KHTML, like Gecko) Chrome/86.0.4240.111 Safari/537.36",56,"[0.9, 0.5, 0.1]","[0.8, 0.4, 0.2]","[u'black', u'red', u'blue']","[u'left', u'middle', u'right']","[0.9, 0.5, 0.1]","[u'medium', u'low', u'high']","blue",51,"right","high","True","True",376,3050,NA
"ATHDQYUL5JEH4","Wed Oct 28 2020 09:51:08 GMT-0700 (Pacific Daylight Time)","Wed Oct 28 2020 10:01:30 GMT-0700 (Pacific Daylight Time)","Mozilla/5.0 (Windows NT 10.0; Win64; x64) AppleWebKit/537.36 (KHTML, like Gecko) Chrome/86.0.4240.111 Safari/537.36",57,"[0.9, 0.5, 0.1]","[0.8, 0.4, 0.2]","[u'black', u'red', u'blue']","[u'left', u'middle', u'right']","[0.9, 0.5, 0.1]","[u'medium', u'high', u'low']","blue",51,"right","low","False","False",153,3000,NA
"ATHDQYUL5JEH4","Wed Oct 28 2020 09:51:08 GMT-0700 (Pacific Daylight Time)","Wed Oct 28 2020 10:01:30 GMT-0700 (Pacific Daylight Time)","Mozilla/5.0 (Windows NT 10.0; Win64; x64) AppleWebKit/537.36 (KHTML, like Gecko) Chrome/86.0.4240.111 Safari/537.36",58,"[0.9, 0.5, 0.1]","[0.8, 0.4, 0.2]","[u'black', u'red', u'blue']","[u'left', u'middle', u'right']","[0.9, 0.5, 0.1]","[u'medium', u'high', u'low']","black",49,"left","medium","True","False",398,3100,NA
"ATHDQYUL5JEH4","Wed Oct 28 2020 09:51:08 GMT-0700 (Pacific Daylight Time)","Wed Oct 28 2020 10:01:30 GMT-0700 (Pacific Daylight Time)","Mozilla/5.0 (Windows NT 10.0; Win64; x64) AppleWebKit/537.36 (KHTML, like Gecko) Chrome/86.0.4240.111 Safari/537.36",59,"[0.9, 0.5, 0.1]","[0.8, 0.4, 0.2]","[u'black', u'red', u'blue']","[u'left', u'middle', u'right']","[0.9, 0.5, 0.1]","[u'medium', u'high', u'low']","black",49,"left","medium","False","False",439,3050,NA
"ATHDQYUL5JEH4","Wed Oct 28 2020 09:51:08 GMT-0700 (Pacific Daylight Time)","Wed Oct 28 2020 10:01:30 GMT-0700 (Pacific Daylight Time)","Mozilla/5.0 (Windows NT 10.0; Win64; x64) AppleWebKit/537.36 (KHTML, like Gecko) Chrome/86.0.4240.111 Safari/537.36",60,"[0.9, 0.5, 0.1]","[0.8, 0.4, 0.2]","[u'black', u'red', u'blue']","[u'left', u'middle', u'right']","[0.9, 0.5, 0.1]","[u'medium', u'high', u'low']","red",50,"middle","high","True","False",99,3150,NA
"ATHDQYUL5JEH4","Wed Oct 28 2020 09:51:08 GMT-0700 (Pacific Daylight Time)","Wed Oct 28 2020 10:01:30 GMT-0700 (Pacific Daylight Time)","Mozilla/5.0 (Windows NT 10.0; Win64; x64) AppleWebKit/537.36 (KHTML, like Gecko) Chrome/86.0.4240.111 Safari/537.36",61,"[0.9, 0.5, 0.1]","[0.8, 0.4, 0.2]","[u'black', u'red', u'blue']","[u'left', u'middle', u'right']","[0.9, 0.5, 0.1]","[u'medium', u'high', u'low']","red",50,"middle","high","True","False",338,3250,NA
"ATHDQYUL5JEH4","Wed Oct 28 2020 09:51:08 GMT-0700 (Pacific Daylight Time)","Wed Oct 28 2020 10:01:30 GMT-0700 (Pacific Daylight Time)","Mozilla/5.0 (Windows NT 10.0; Win64; x64) AppleWebKit/537.36 (KHTML, like Gecko) Chrome/86.0.4240.111 Safari/537.36",62,"[0.9, 0.5, 0.1]","[0.8, 0.4, 0.2]","[u'black', u'red', u'blue']","[u'left', u'middle', u'right']","[0.9, 0.5, 0.1]","[u'medium', u'high', u'low']","red",50,"middle","high","True","False",119,3350,NA
"ATHDQYUL5JEH4","Wed Oct 28 2020 09:51:08 GMT-0700 (Pacific Daylight Time)","Wed Oct 28 2020 10:01:30 GMT-0700 (Pacific Daylight Time)","Mozilla/5.0 (Windows NT 10.0; Win64; x64) AppleWebKit/537.36 (KHTML, like Gecko) Chrome/86.0.4240.111 Safari/537.36",63,"[0.9, 0.5, 0.1]","[0.8, 0.4, 0.2]","[u'black', u'red', u'blue']","[u'left', u'middle', u'right']","[0.9, 0.5, 0.1]","[u'medium', u'high', u'low']","red",50,"middle","high","True","False",100,3450,NA
"ATHDQYUL5JEH4","Wed Oct 28 2020 09:51:08 GMT-0700 (Pacific Daylight Time)","Wed Oct 28 2020 10:01:30 GMT-0700 (Pacific Daylight Time)","Mozilla/5.0 (Windows NT 10.0; Win64; x64) AppleWebKit/537.36 (KHTML, like Gecko) Chrome/86.0.4240.111 Safari/537.36",64,"[0.9, 0.5, 0.1]","[0.8, 0.4, 0.2]","[u'black', u'red', u'blue']","[u'left', u'middle', u'right']","[0.9, 0.5, 0.1]","[u'medium', u'high', u'low']","red",50,"middle","high","True","False",337,3550,NA
"ATHDQYUL5JEH4","Wed Oct 28 2020 09:51:08 GMT-0700 (Pacific Daylight Time)","Wed Oct 28 2020 10:01:30 GMT-0700 (Pacific Daylight Time)","Mozilla/5.0 (Windows NT 10.0; Win64; x64) AppleWebKit/537.36 (KHTML, like Gecko) Chrome/86.0.4240.111 Safari/537.36",65,"[0.9, 0.5, 0.1]","[0.8, 0.4, 0.2]","[u'black', u'red', u'blue']","[u'left', u'middle', u'right']","[0.9, 0.5, 0.1]","[u'medium', u'high', u'low']","red",50,"middle","high","True","False",167,3650,NA
"ATHDQYUL5JEH4","Wed Oct 28 2020 09:51:08 GMT-0700 (Pacific Daylight Time)","Wed Oct 28 2020 10:01:30 GMT-0700 (Pacific Daylight Time)","Mozilla/5.0 (Windows NT 10.0; Win64; x64) AppleWebKit/537.36 (KHTML, like Gecko) Chrome/86.0.4240.111 Safari/537.36",66,"[0.9, 0.5, 0.1]","[0.8, 0.4, 0.2]","[u'black', u'red', u'blue']","[u'left', u'middle', u'right']","[0.9, 0.5, 0.1]","[u'medium', u'high', u'low']","red",50,"middle","high","True","False",189,3750,NA
"ATHDQYUL5JEH4","Wed Oct 28 2020 09:51:08 GMT-0700 (Pacific Daylight Time)","Wed Oct 28 2020 10:01:30 GMT-0700 (Pacific Daylight Time)","Mozilla/5.0 (Windows NT 10.0; Win64; x64) AppleWebKit/537.36 (KHTML, like Gecko) Chrome/86.0.4240.111 Safari/537.36",67,"[0.9, 0.5, 0.1]","[0.8, 0.4, 0.2]","[u'black', u'red', u'blue']","[u'left', u'middle', u'right']","[0.9, 0.5, 0.1]","[u'medium', u'high', u'low']","red",50,"middle","high","True","False",219,3850,NA
"ATHDQYUL5JEH4","Wed Oct 28 2020 09:51:08 GMT-0700 (Pacific Daylight Time)","Wed Oct 28 2020 10:01:30 GMT-0700 (Pacific Daylight Time)","Mozilla/5.0 (Windows NT 10.0; Win64; x64) AppleWebKit/537.36 (KHTML, like Gecko) Chrome/86.0.4240.111 Safari/537.36",68,"[0.9, 0.5, 0.1]","[0.8, 0.4, 0.2]","[u'black', u'red', u'blue']","[u'left', u'middle', u'right']","[0.9, 0.5, 0.1]","[u'medium', u'high', u'low']","red",50,"middle","high","True","True",178,3950,NA
"ATHDQYUL5JEH4","Wed Oct 28 2020 09:51:08 GMT-0700 (Pacific Daylight Time)","Wed Oct 28 2020 10:01:30 GMT-0700 (Pacific Daylight Time)","Mozilla/5.0 (Windows NT 10.0; Win64; x64) AppleWebKit/537.36 (KHTML, like Gecko) Chrome/86.0.4240.111 Safari/537.36",69,"[0.9, 0.5, 0.1]","[0.8, 0.4, 0.2]","[u'black', u'red', u'blue']","[u'left', u'middle', u'right']","[0.9, 0.5, 0.1]","[u'medium', u'low', u'high']","red",50,"middle","low","False","False",121,3900,NA
"ATHDQYUL5JEH4","Wed Oct 28 2020 09:51:08 GMT-0700 (Pacific Daylight Time)","Wed Oct 28 2020 10:01:30 GMT-0700 (Pacific Daylight Time)","Mozilla/5.0 (Windows NT 10.0; Win64; x64) AppleWebKit/537.36 (KHTML, like Gecko) Chrome/86.0.4240.111 Safari/537.36",70,"[0.9, 0.5, 0.1]","[0.8, 0.4, 0.2]","[u'black', u'red', u'blue']","[u'left', u'middle', u'right']","[0.9, 0.5, 0.1]","[u'medium', u'low', u'high']","black",49,"left","medium","True","False",177,4000,NA
"ATHDQYUL5JEH4","Wed Oct 28 2020 09:51:08 GMT-0700 (Pacific Daylight Time)","Wed Oct 28 2020 10:01:30 GMT-0700 (Pacific Daylight Time)","Mozilla/5.0 (Windows NT 10.0; Win64; x64) AppleWebKit/537.36 (KHTML, like Gecko) Chrome/86.0.4240.111 Safari/537.36",71,"[0.9, 0.5, 0.1]","[0.8, 0.4, 0.2]","[u'black', u'red', u'blue']","[u'left', u'middle', u'right']","[0.9, 0.5, 0.1]","[u'medium', u'low', u'high']","black",49,"left","medium","False","False",139,3950,NA
"ATHDQYUL5JEH4","Wed Oct 28 2020 09:51:08 GMT-0700 (Pacific Daylight Time)","Wed Oct 28 2020 10:01:30 GMT-0700 (Pacific Daylight Time)","Mozilla/5.0 (Windows NT 10.0; Win64; x64) AppleWebKit/537.36 (KHTML, like Gecko) Chrome/86.0.4240.111 Safari/537.36",72,"[0.9, 0.5, 0.1]","[0.8, 0.4, 0.2]","[u'black', u'red', u'blue']","[u'left', u'middle', u'right']","[0.9, 0.5, 0.1]","[u'medium', u'low', u'high']","blue",51,"right","high","True","False",60,4050,NA
"ATHDQYUL5JEH4","Wed Oct 28 2020 09:51:08 GMT-0700 (Pacific Daylight Time)","Wed Oct 28 2020 10:01:30 GMT-0700 (Pacific Daylight Time)","Mozilla/5.0 (Windows NT 10.0; Win64; x64) AppleWebKit/537.36 (KHTML, like Gecko) Chrome/86.0.4240.111 Safari/537.36",73,"[0.9, 0.5, 0.1]","[0.8, 0.4, 0.2]","[u'black', u'red', u'blue']","[u'left', u'middle', u'right']","[0.9, 0.5, 0.1]","[u'medium', u'low', u'high']","blue",51,"right","high","True","False",99,4150,NA
"ATHDQYUL5JEH4","Wed Oct 28 2020 09:51:08 GMT-0700 (Pacific Daylight Time)","Wed Oct 28 2020 10:01:30 GMT-0700 (Pacific Daylight Time)","Mozilla/5.0 (Windows NT 10.0; Win64; x64) AppleWebKit/537.36 (KHTML, like Gecko) Chrome/86.0.4240.111 Safari/537.36",74,"[0.9, 0.5, 0.1]","[0.8, 0.4, 0.2]","[u'black', u'red', u'blue']","[u'left', u'middle', u'right']","[0.9, 0.5, 0.1]","[u'medium', u'low', u'high']","blue",51,"right","high","True","False",318,4250,NA
"ATHDQYUL5JEH4","Wed Oct 28 2020 09:51:08 GMT-0700 (Pacific Daylight Time)","Wed Oct 28 2020 10:01:30 GMT-0700 (Pacific Daylight Time)","Mozilla/5.0 (Windows NT 10.0; Win64; x64) AppleWebKit/537.36 (KHTML, like Gecko) Chrome/86.0.4240.111 Safari/537.36",75,"[0.9, 0.5, 0.1]","[0.8, 0.4, 0.2]","[u'black', u'red', u'blue']","[u'left', u'middle', u'right']","[0.9, 0.5, 0.1]","[u'medium', u'low', u'high']","blue",51,"right","high","True","False",361,4350,NA
"ATHDQYUL5JEH4","Wed Oct 28 2020 09:51:08 GMT-0700 (Pacific Daylight Time)","Wed Oct 28 2020 10:01:30 GMT-0700 (Pacific Daylight Time)","Mozilla/5.0 (Windows NT 10.0; Win64; x64) AppleWebKit/537.36 (KHTML, like Gecko) Chrome/86.0.4240.111 Safari/537.36",76,"[0.9, 0.5, 0.1]","[0.8, 0.4, 0.2]","[u'black', u'red', u'blue']","[u'left', u'middle', u'right']","[0.9, 0.5, 0.1]","[u'medium', u'low', u'high']","blue",51,"right","high","True","False",368,4450,NA
"ATHDQYUL5JEH4","Wed Oct 28 2020 09:51:08 GMT-0700 (Pacific Daylight Time)","Wed Oct 28 2020 10:01:30 GMT-0700 (Pacific Daylight Time)","Mozilla/5.0 (Windows NT 10.0; Win64; x64) AppleWebKit/537.36 (KHTML, like Gecko) Chrome/86.0.4240.111 Safari/537.36",77,"[0.9, 0.5, 0.1]","[0.8, 0.4, 0.2]","[u'black', u'red', u'blue']","[u'left', u'middle', u'right']","[0.9, 0.5, 0.1]","[u'medium', u'low', u'high']","blue",51,"right","high","True","False",329,4550,NA
"ATHDQYUL5JEH4","Wed Oct 28 2020 09:51:08 GMT-0700 (Pacific Daylight Time)","Wed Oct 28 2020 10:01:30 GMT-0700 (Pacific Daylight Time)","Mozilla/5.0 (Windows NT 10.0; Win64; x64) AppleWebKit/537.36 (KHTML, like Gecko) Chrome/86.0.4240.111 Safari/537.36",78,"[0.9, 0.5, 0.1]","[0.8, 0.4, 0.2]","[u'black', u'red', u'blue']","[u'left', u'middle', u'right']","[0.9, 0.5, 0.1]","[u'medium', u'low', u'high']","blue",51,"right","high","False","False",579,4500,NA
"ATHDQYUL5JEH4","Wed Oct 28 2020 09:51:08 GMT-0700 (Pacific Daylight Time)","Wed Oct 28 2020 10:01:30 GMT-0700 (Pacific Daylight Time)","Mozilla/5.0 (Windows NT 10.0; Win64; x64) AppleWebKit/537.36 (KHTML, like Gecko) Chrome/86.0.4240.111 Safari/537.36",79,"[0.9, 0.5, 0.1]","[0.8, 0.4, 0.2]","[u'black', u'red', u'blue']","[u'left', u'middle', u'right']","[0.9, 0.5, 0.1]","[u'medium', u'low', u'high']","red",50,"middle","low","False","False",459,4450,NA
"ATHDQYUL5JEH4","Wed Oct 28 2020 09:51:08 GMT-0700 (Pacific Daylight Time)","Wed Oct 28 2020 10:01:30 GMT-0700 (Pacific Daylight Time)","Mozilla/5.0 (Windows NT 10.0; Win64; x64) AppleWebKit/537.36 (KHTML, like Gecko) Chrome/86.0.4240.111 Safari/537.36",80,"[0.9, 0.5, 0.1]","[0.8, 0.4, 0.2]","[u'black', u'red', u'blue']","[u'left', u'middle', u'right']","[0.9, 0.5, 0.1]","[u'medium', u'low', u'high']","black",49,"left","medium","False","False",119,4400,NA
"ATHDQYUL5JEH4","Wed Oct 28 2020 09:51:08 GMT-0700 (Pacific Daylight Time)","Wed Oct 28 2020 10:01:30 GMT-0700 (Pacific Daylight Time)","Mozilla/5.0 (Windows NT 10.0; Win64; x64) AppleWebKit/537.36 (KHTML, like Gecko) Chrome/86.0.4240.111 Safari/537.36",81,"[0.9, 0.5, 0.1]","[0.8, 0.4, 0.2]","[u'black', u'red', u'blue']","[u'left', u'middle', u'right']","[0.8, 0.4, 0.2]","[u'high', u'low', u'medium']","red",50,"middle","low","False","False",958,4350,NA
"ATHDQYUL5JEH4","Wed Oct 28 2020 09:51:08 GMT-0700 (Pacific Daylight Time)","Wed Oct 28 2020 10:01:30 GMT-0700 (Pacific Daylight Time)","Mozilla/5.0 (Windows NT 10.0; Win64; x64) AppleWebKit/537.36 (KHTML, like Gecko) Chrome/86.0.4240.111 Safari/537.36",82,"[0.9, 0.5, 0.1]","[0.8, 0.4, 0.2]","[u'black', u'red', u'blue']","[u'left', u'middle', u'right']","[0.8, 0.4, 0.2]","[u'high', u'low', u'medium']","black",49,"left","high","True","False",378,4450,NA
"ATHDQYUL5JEH4","Wed Oct 28 2020 09:51:08 GMT-0700 (Pacific Daylight Time)","Wed Oct 28 2020 10:01:30 GMT-0700 (Pacific Daylight Time)","Mozilla/5.0 (Windows NT 10.0; Win64; x64) AppleWebKit/537.36 (KHTML, like Gecko) Chrome/86.0.4240.111 Safari/537.36",83,"[0.9, 0.5, 0.1]","[0.8, 0.4, 0.2]","[u'black', u'red', u'blue']","[u'left', u'middle', u'right']","[0.8, 0.4, 0.2]","[u'high', u'low', u'medium']","black",49,"left","high","True","False",398,4550,NA
"ATHDQYUL5JEH4","Wed Oct 28 2020 09:51:08 GMT-0700 (Pacific Daylight Time)","Wed Oct 28 2020 10:01:30 GMT-0700 (Pacific Daylight Time)","Mozilla/5.0 (Windows NT 10.0; Win64; x64) AppleWebKit/537.36 (KHTML, like Gecko) Chrome/86.0.4240.111 Safari/537.36",84,"[0.9, 0.5, 0.1]","[0.8, 0.4, 0.2]","[u'black', u'red', u'blue']","[u'left', u'middle', u'right']","[0.8, 0.4, 0.2]","[u'high', u'low', u'medium']","black",49,"left","high","False","False",599,4500,NA
"ATHDQYUL5JEH4","Wed Oct 28 2020 09:51:08 GMT-0700 (Pacific Daylight Time)","Wed Oct 28 2020 10:01:30 GMT-0700 (Pacific Daylight Time)","Mozilla/5.0 (Windows NT 10.0; Win64; x64) AppleWebKit/537.36 (KHTML, like Gecko) Chrome/86.0.4240.111 Safari/537.36",85,"[0.9, 0.5, 0.1]","[0.8, 0.4, 0.2]","[u'black', u'red', u'blue']","[u'left', u'middle', u'right']","[0.8, 0.4, 0.2]","[u'high', u'low', u'medium']","blue",51,"right","medium","True","False",581,4600,NA
"ATHDQYUL5JEH4","Wed Oct 28 2020 09:51:08 GMT-0700 (Pacific Daylight Time)","Wed Oct 28 2020 10:01:30 GMT-0700 (Pacific Daylight Time)","Mozilla/5.0 (Windows NT 10.0; Win64; x64) AppleWebKit/537.36 (KHTML, like Gecko) Chrome/86.0.4240.111 Safari/537.36",86,"[0.9, 0.5, 0.1]","[0.8, 0.4, 0.2]","[u'black', u'red', u'blue']","[u'left', u'middle', u'right']","[0.8, 0.4, 0.2]","[u'high', u'low', u'medium']","blue",51,"right","medium","False","False",319,4550,NA
"ATHDQYUL5JEH4","Wed Oct 28 2020 09:51:08 GMT-0700 (Pacific Daylight Time)","Wed Oct 28 2020 10:01:30 GMT-0700 (Pacific Daylight Time)","Mozilla/5.0 (Windows NT 10.0; Win64; x64) AppleWebKit/537.36 (KHTML, like Gecko) Chrome/86.0.4240.111 Safari/537.36",87,"[0.9, 0.5, 0.1]","[0.8, 0.4, 0.2]","[u'black', u'red', u'blue']","[u'left', u'middle', u'right']","[0.8, 0.4, 0.2]","[u'high', u'low', u'medium']","black",49,"left","high","False","False",557,4500,NA
"ATHDQYUL5JEH4","Wed Oct 28 2020 09:51:08 GMT-0700 (Pacific Daylight Time)","Wed Oct 28 2020 10:01:30 GMT-0700 (Pacific Daylight Time)","Mozilla/5.0 (Windows NT 10.0; Win64; x64) AppleWebKit/537.36 (KHTML, like Gecko) Chrome/86.0.4240.111 Safari/537.36",88,"[0.9, 0.5, 0.1]","[0.8, 0.4, 0.2]","[u'black', u'red', u'blue']","[u'left', u'middle', u'right']","[0.8, 0.4, 0.2]","[u'high', u'low', u'medium']","red",50,"middle","low","False","False",59,4450,NA
"ATHDQYUL5JEH4","Wed Oct 28 2020 09:51:08 GMT-0700 (Pacific Daylight Time)","Wed Oct 28 2020 10:01:30 GMT-0700 (Pacific Daylight Time)","Mozilla/5.0 (Windows NT 10.0; Win64; x64) AppleWebKit/537.36 (KHTML, like Gecko) Chrome/86.0.4240.111 Safari/537.36",89,"[0.9, 0.5, 0.1]","[0.8, 0.4, 0.2]","[u'black', u'red', u'blue']","[u'left', u'middle', u'right']","[0.8, 0.4, 0.2]","[u'high', u'low', u'medium']","blue",51,"right","medium","True","False",879,4550,NA
"ATHDQYUL5JEH4","Wed Oct 28 2020 09:51:08 GMT-0700 (Pacific Daylight Time)","Wed Oct 28 2020 10:01:30 GMT-0700 (Pacific Daylight Time)","Mozilla/5.0 (Windows NT 10.0; Win64; x64) AppleWebKit/537.36 (KHTML, like Gecko) Chrome/86.0.4240.111 Safari/537.36",90,"[0.9, 0.5, 0.1]","[0.8, 0.4, 0.2]","[u'black', u'red', u'blue']","[u'left', u'middle', u'right']","[0.8, 0.4, 0.2]","[u'high', u'low', u'medium']","blue",51,"right","medium","True","False",597,4650,NA
"ATHDQYUL5JEH4","Wed Oct 28 2020 09:51:08 GMT-0700 (Pacific Daylight Time)","Wed Oct 28 2020 10:01:30 GMT-0700 (Pacific Daylight Time)","Mozilla/5.0 (Windows NT 10.0; Win64; x64) AppleWebKit/537.36 (KHTML, like Gecko) Chrome/86.0.4240.111 Safari/537.36",91,"[0.9, 0.5, 0.1]","[0.8, 0.4, 0.2]","[u'black', u'red', u'blue']","[u'left', u'middle', u'right']","[0.8, 0.4, 0.2]","[u'high', u'low', u'medium']","blue",51,"right","medium","False","False",291,4600,NA
"ATHDQYUL5JEH4","Wed Oct 28 2020 09:51:08 GMT-0700 (Pacific Daylight Time)","Wed Oct 28 2020 10:01:30 GMT-0700 (Pacific Daylight Time)","Mozilla/5.0 (Windows NT 10.0; Win64; x64) AppleWebKit/537.36 (KHTML, like Gecko) Chrome/86.0.4240.111 Safari/537.36",92,"[0.9, 0.5, 0.1]","[0.8, 0.4, 0.2]","[u'black', u'red', u'blue']","[u'left', u'middle', u'right']","[0.8, 0.4, 0.2]","[u'high', u'low', u'medium']","black",49,"left","high","True","False",407,4700,NA
"ATHDQYUL5JEH4","Wed Oct 28 2020 09:51:08 GMT-0700 (Pacific Daylight Time)","Wed Oct 28 2020 10:01:30 GMT-0700 (Pacific Daylight Time)","Mozilla/5.0 (Windows NT 10.0; Win64; x64) AppleWebKit/537.36 (KHTML, like Gecko) Chrome/86.0.4240.111 Safari/537.36",93,"[0.9, 0.5, 0.1]","[0.8, 0.4, 0.2]","[u'black', u'red', u'blue']","[u'left', u'middle', u'right']","[0.8, 0.4, 0.2]","[u'high', u'low', u'medium']","black",49,"left","high","False","False",360,4650,NA
"ATHDQYUL5JEH4","Wed Oct 28 2020 09:51:08 GMT-0700 (Pacific Daylight Time)","Wed Oct 28 2020 10:01:30 GMT-0700 (Pacific Daylight Time)","Mozilla/5.0 (Windows NT 10.0; Win64; x64) AppleWebKit/537.36 (KHTML, like Gecko) Chrome/86.0.4240.111 Safari/537.36",94,"[0.9, 0.5, 0.1]","[0.8, 0.4, 0.2]","[u'black', u'red', u'blue']","[u'left', u'middle', u'right']","[0.8, 0.4, 0.2]","[u'high', u'low', u'medium']","red",50,"middle","low","False","False",129,4600,NA
"ATHDQYUL5JEH4","Wed Oct 28 2020 09:51:08 GMT-0700 (Pacific Daylight Time)","Wed Oct 28 2020 10:01:30 GMT-0700 (Pacific Daylight Time)","Mozilla/5.0 (Windows NT 10.0; Win64; x64) AppleWebKit/537.36 (KHTML, like Gecko) Chrome/86.0.4240.111 Safari/537.36",95,"[0.9, 0.5, 0.1]","[0.8, 0.4, 0.2]","[u'black', u'red', u'blue']","[u'left', u'middle', u'right']","[0.8, 0.4, 0.2]","[u'high', u'low', u'medium']","blue",51,"right","medium","False","False",910,4550,NA
"ATHDQYUL5JEH4","Wed Oct 28 2020 09:51:08 GMT-0700 (Pacific Daylight Time)","Wed Oct 28 2020 10:01:30 GMT-0700 (Pacific Daylight Time)","Mozilla/5.0 (Windows NT 10.0; Win64; x64) AppleWebKit/537.36 (KHTML, like Gecko) Chrome/86.0.4240.111 Safari/537.36",96,"[0.9, 0.5, 0.1]","[0.8, 0.4, 0.2]","[u'black', u'red', u'blue']","[u'left', u'middle', u'right']","[0.8, 0.4, 0.2]","[u'high', u'low', u'medium']","black",49,"left","high","True","False",1140,4650,NA
"ATHDQYUL5JEH4","Wed Oct 28 2020 09:51:08 GMT-0700 (Pacific Daylight Time)","Wed Oct 28 2020 10:01:30 GMT-0700 (Pacific Daylight Time)","Mozilla/5.0 (Windows NT 10.0; Win64; x64) AppleWebKit/537.36 (KHTML, like Gecko) Chrome/86.0.4240.111 Safari/537.36",97,"[0.9, 0.5, 0.1]","[0.8, 0.4, 0.2]","[u'black', u'red', u'blue']","[u'left', u'middle', u'right']","[0.8, 0.4, 0.2]","[u'high', u'low', u'medium']","black",49,"left","high","False","False",278,4600,NA
"ATHDQYUL5JEH4","Wed Oct 28 2020 09:51:08 GMT-0700 (Pacific Daylight Time)","Wed Oct 28 2020 10:01:30 GMT-0700 (Pacific Daylight Time)","Mozilla/5.0 (Windows NT 10.0; Win64; x64) AppleWebKit/537.36 (KHTML, like Gecko) Chrome/86.0.4240.111 Safari/537.36",98,"[0.9, 0.5, 0.1]","[0.8, 0.4, 0.2]","[u'black', u'red', u'blue']","[u'left', u'middle', u'right']","[0.8, 0.4, 0.2]","[u'high', u'low', u'medium']","red",50,"middle","low","False","False",180,4550,NA
"ATHDQYUL5JEH4","Wed Oct 28 2020 09:51:08 GMT-0700 (Pacific Daylight Time)","Wed Oct 28 2020 10:01:30 GMT-0700 (Pacific Daylight Time)","Mozilla/5.0 (Windows NT 10.0; Win64; x64) AppleWebKit/537.36 (KHTML, like Gecko) Chrome/86.0.4240.111 Safari/537.36",99,"[0.9, 0.5, 0.1]","[0.8, 0.4, 0.2]","[u'black', u'red', u'blue']","[u'left', u'middle', u'right']","[0.8, 0.4, 0.2]","[u'high', u'low', u'medium']","blue",51,"right","medium","False","False",398,4500,NA
"ATHDQYUL5JEH4","Wed Oct 28 2020 09:51:08 GMT-0700 (Pacific Daylight Time)","Wed Oct 28 2020 10:01:30 GMT-0700 (Pacific Daylight Time)","Mozilla/5.0 (Windows NT 10.0; Win64; x64) AppleWebKit/537.36 (KHTML, like Gecko) Chrome/86.0.4240.111 Safari/537.36",100,"[0.9, 0.5, 0.1]","[0.8, 0.4, 0.2]","[u'black', u'red', u'blue']","[u'left', u'middle', u'right']","[0.8, 0.4, 0.2]","[u'high', u'low', u'medium']","black",49,"left","high","True","False",437,4600,NA
"ATHDQYUL5JEH4","Wed Oct 28 2020 09:51:08 GMT-0700 (Pacific Daylight Time)","Wed Oct 28 2020 10:01:30 GMT-0700 (Pacific Daylight Time)","Mozilla/5.0 (Windows NT 10.0; Win64; x64) AppleWebKit/537.36 (KHTML, like Gecko) Chrome/86.0.4240.111 Safari/537.36",101,"[0.9, 0.5, 0.1]","[0.8, 0.4, 0.2]","[u'black', u'red', u'blue']","[u'left', u'middle', u'right']","[0.8, 0.4, 0.2]","[u'high', u'low', u'medium']","black",49,"left","high","True","False",419,4700,NA
"ATHDQYUL5JEH4","Wed Oct 28 2020 09:51:08 GMT-0700 (Pacific Daylight Time)","Wed Oct 28 2020 10:01:30 GMT-0700 (Pacific Daylight Time)","Mozilla/5.0 (Windows NT 10.0; Win64; x64) AppleWebKit/537.36 (KHTML, like Gecko) Chrome/86.0.4240.111 Safari/537.36",102,"[0.9, 0.5, 0.1]","[0.8, 0.4, 0.2]","[u'black', u'red', u'blue']","[u'left', u'middle', u'right']","[0.8, 0.4, 0.2]","[u'high', u'low', u'medium']","black",49,"left","high","True","False",220,4800,NA
"ATHDQYUL5JEH4","Wed Oct 28 2020 09:51:08 GMT-0700 (Pacific Daylight Time)","Wed Oct 28 2020 10:01:30 GMT-0700 (Pacific Daylight Time)","Mozilla/5.0 (Windows NT 10.0; Win64; x64) AppleWebKit/537.36 (KHTML, like Gecko) Chrome/86.0.4240.111 Safari/537.36",103,"[0.9, 0.5, 0.1]","[0.8, 0.4, 0.2]","[u'black', u'red', u'blue']","[u'left', u'middle', u'right']","[0.8, 0.4, 0.2]","[u'high', u'low', u'medium']","black",49,"left","high","True","False",179,4900,NA
"ATHDQYUL5JEH4","Wed Oct 28 2020 09:51:08 GMT-0700 (Pacific Daylight Time)","Wed Oct 28 2020 10:01:30 GMT-0700 (Pacific Daylight Time)","Mozilla/5.0 (Windows NT 10.0; Win64; x64) AppleWebKit/537.36 (KHTML, like Gecko) Chrome/86.0.4240.111 Safari/537.36",104,"[0.9, 0.5, 0.1]","[0.8, 0.4, 0.2]","[u'black', u'red', u'blue']","[u'left', u'middle', u'right']","[0.8, 0.4, 0.2]","[u'high', u'low', u'medium']","black",49,"left","high","True","False",217,5000,NA
"ATHDQYUL5JEH4","Wed Oct 28 2020 09:51:08 GMT-0700 (Pacific Daylight Time)","Wed Oct 28 2020 10:01:30 GMT-0700 (Pacific Daylight Time)","Mozilla/5.0 (Windows NT 10.0; Win64; x64) AppleWebKit/537.36 (KHTML, like Gecko) Chrome/86.0.4240.111 Safari/537.36",105,"[0.9, 0.5, 0.1]","[0.8, 0.4, 0.2]","[u'black', u'red', u'blue']","[u'left', u'middle', u'right']","[0.8, 0.4, 0.2]","[u'high', u'low', u'medium']","black",49,"left","high","True","False",180,5100,NA
"ATHDQYUL5JEH4","Wed Oct 28 2020 09:51:08 GMT-0700 (Pacific Daylight Time)","Wed Oct 28 2020 10:01:30 GMT-0700 (Pacific Daylight Time)","Mozilla/5.0 (Windows NT 10.0; Win64; x64) AppleWebKit/537.36 (KHTML, like Gecko) Chrome/86.0.4240.111 Safari/537.36",106,"[0.9, 0.5, 0.1]","[0.8, 0.4, 0.2]","[u'black', u'red', u'blue']","[u'left', u'middle', u'right']","[0.8, 0.4, 0.2]","[u'high', u'low', u'medium']","black",49,"left","high","True","False",119,5200,NA
"ATHDQYUL5JEH4","Wed Oct 28 2020 09:51:08 GMT-0700 (Pacific Daylight Time)","Wed Oct 28 2020 10:01:30 GMT-0700 (Pacific Daylight Time)","Mozilla/5.0 (Windows NT 10.0; Win64; x64) AppleWebKit/537.36 (KHTML, like Gecko) Chrome/86.0.4240.111 Safari/537.36",107,"[0.9, 0.5, 0.1]","[0.8, 0.4, 0.2]","[u'black', u'red', u'blue']","[u'left', u'middle', u'right']","[0.8, 0.4, 0.2]","[u'high', u'low', u'medium']","black",49,"left","high","True","False",118,5300,NA
"ATHDQYUL5JEH4","Wed Oct 28 2020 09:51:08 GMT-0700 (Pacific Daylight Time)","Wed Oct 28 2020 10:01:30 GMT-0700 (Pacific Daylight Time)","Mozilla/5.0 (Windows NT 10.0; Win64; x64) AppleWebKit/537.36 (KHTML, like Gecko) Chrome/86.0.4240.111 Safari/537.36",108,"[0.9, 0.5, 0.1]","[0.8, 0.4, 0.2]","[u'black', u'red', u'blue']","[u'left', u'middle', u'right']","[0.8, 0.4, 0.2]","[u'high', u'low', u'medium']","black",49,"left","high","True","True",118,5400,NA
"ATHDQYUL5JEH4","Wed Oct 28 2020 09:51:08 GMT-0700 (Pacific Daylight Time)","Wed Oct 28 2020 10:01:30 GMT-0700 (Pacific Daylight Time)","Mozilla/5.0 (Windows NT 10.0; Win64; x64) AppleWebKit/537.36 (KHTML, like Gecko) Chrome/86.0.4240.111 Safari/537.36",109,"[0.9, 0.5, 0.1]","[0.8, 0.4, 0.2]","[u'black', u'red', u'blue']","[u'left', u'middle', u'right']","[0.8, 0.4, 0.2]","[u'low', u'medium', u'high']","black",49,"left","low","False","False",139,5350,NA
"ATHDQYUL5JEH4","Wed Oct 28 2020 09:51:08 GMT-0700 (Pacific Daylight Time)","Wed Oct 28 2020 10:01:30 GMT-0700 (Pacific Daylight Time)","Mozilla/5.0 (Windows NT 10.0; Win64; x64) AppleWebKit/537.36 (KHTML, like Gecko) Chrome/86.0.4240.111 Safari/537.36",110,"[0.9, 0.5, 0.1]","[0.8, 0.4, 0.2]","[u'black', u'red', u'blue']","[u'left', u'middle', u'right']","[0.8, 0.4, 0.2]","[u'low', u'medium', u'high']","red",50,"middle","medium","True","False",1039,5450,NA
"ATHDQYUL5JEH4","Wed Oct 28 2020 09:51:08 GMT-0700 (Pacific Daylight Time)","Wed Oct 28 2020 10:01:30 GMT-0700 (Pacific Daylight Time)","Mozilla/5.0 (Windows NT 10.0; Win64; x64) AppleWebKit/537.36 (KHTML, like Gecko) Chrome/86.0.4240.111 Safari/537.36",111,"[0.9, 0.5, 0.1]","[0.8, 0.4, 0.2]","[u'black', u'red', u'blue']","[u'left', u'middle', u'right']","[0.8, 0.4, 0.2]","[u'low', u'medium', u'high']","red",50,"middle","medium","False","False",258,5400,NA
"ATHDQYUL5JEH4","Wed Oct 28 2020 09:51:08 GMT-0700 (Pacific Daylight Time)","Wed Oct 28 2020 10:01:30 GMT-0700 (Pacific Daylight Time)","Mozilla/5.0 (Windows NT 10.0; Win64; x64) AppleWebKit/537.36 (KHTML, like Gecko) Chrome/86.0.4240.111 Safari/537.36",112,"[0.9, 0.5, 0.1]","[0.8, 0.4, 0.2]","[u'black', u'red', u'blue']","[u'left', u'middle', u'right']","[0.8, 0.4, 0.2]","[u'low', u'medium', u'high']","red",50,"middle","medium","False","False",908,5350,NA
"ATHDQYUL5JEH4","Wed Oct 28 2020 09:51:08 GMT-0700 (Pacific Daylight Time)","Wed Oct 28 2020 10:01:30 GMT-0700 (Pacific Daylight Time)","Mozilla/5.0 (Windows NT 10.0; Win64; x64) AppleWebKit/537.36 (KHTML, like Gecko) Chrome/86.0.4240.111 Safari/537.36",113,"[0.9, 0.5, 0.1]","[0.8, 0.4, 0.2]","[u'black', u'red', u'blue']","[u'left', u'middle', u'right']","[0.8, 0.4, 0.2]","[u'low', u'medium', u'high']","blue",51,"right","high","True","False",390,5450,NA
"ATHDQYUL5JEH4","Wed Oct 28 2020 09:51:08 GMT-0700 (Pacific Daylight Time)","Wed Oct 28 2020 10:01:30 GMT-0700 (Pacific Daylight Time)","Mozilla/5.0 (Windows NT 10.0; Win64; x64) AppleWebKit/537.36 (KHTML, like Gecko) Chrome/86.0.4240.111 Safari/537.36",114,"[0.9, 0.5, 0.1]","[0.8, 0.4, 0.2]","[u'black', u'red', u'blue']","[u'left', u'middle', u'right']","[0.8, 0.4, 0.2]","[u'low', u'medium', u'high']","blue",51,"right","high","True","False",440,5550,NA
"ATHDQYUL5JEH4","Wed Oct 28 2020 09:51:08 GMT-0700 (Pacific Daylight Time)","Wed Oct 28 2020 10:01:30 GMT-0700 (Pacific Daylight Time)","Mozilla/5.0 (Windows NT 10.0; Win64; x64) AppleWebKit/537.36 (KHTML, like Gecko) Chrome/86.0.4240.111 Safari/537.36",115,"[0.9, 0.5, 0.1]","[0.8, 0.4, 0.2]","[u'black', u'red', u'blue']","[u'left', u'middle', u'right']","[0.8, 0.4, 0.2]","[u'low', u'medium', u'high']","blue",51,"right","high","True","False",136,5650,NA
"ATHDQYUL5JEH4","Wed Oct 28 2020 09:51:08 GMT-0700 (Pacific Daylight Time)","Wed Oct 28 2020 10:01:30 GMT-0700 (Pacific Daylight Time)","Mozilla/5.0 (Windows NT 10.0; Win64; x64) AppleWebKit/537.36 (KHTML, like Gecko) Chrome/86.0.4240.111 Safari/537.36",116,"[0.9, 0.5, 0.1]","[0.8, 0.4, 0.2]","[u'black', u'red', u'blue']","[u'left', u'middle', u'right']","[0.8, 0.4, 0.2]","[u'low', u'medium', u'high']","blue",51,"right","high","True","False",1339,5750,NA
"ATHDQYUL5JEH4","Wed Oct 28 2020 09:51:08 GMT-0700 (Pacific Daylight Time)","Wed Oct 28 2020 10:01:30 GMT-0700 (Pacific Daylight Time)","Mozilla/5.0 (Windows NT 10.0; Win64; x64) AppleWebKit/537.36 (KHTML, like Gecko) Chrome/86.0.4240.111 Safari/537.36",117,"[0.9, 0.5, 0.1]","[0.8, 0.4, 0.2]","[u'black', u'red', u'blue']","[u'left', u'middle', u'right']","[0.8, 0.4, 0.2]","[u'low', u'medium', u'high']","blue",51,"right","high","True","False",157,5850,NA
"ATHDQYUL5JEH4","Wed Oct 28 2020 09:51:08 GMT-0700 (Pacific Daylight Time)","Wed Oct 28 2020 10:01:30 GMT-0700 (Pacific Daylight Time)","Mozilla/5.0 (Windows NT 10.0; Win64; x64) AppleWebKit/537.36 (KHTML, like Gecko) Chrome/86.0.4240.111 Safari/537.36",118,"[0.9, 0.5, 0.1]","[0.8, 0.4, 0.2]","[u'black', u'red', u'blue']","[u'left', u'middle', u'right']","[0.8, 0.4, 0.2]","[u'low', u'medium', u'high']","blue",51,"right","high","True","False",212,5950,NA
"ATHDQYUL5JEH4","Wed Oct 28 2020 09:51:08 GMT-0700 (Pacific Daylight Time)","Wed Oct 28 2020 10:01:30 GMT-0700 (Pacific Daylight Time)","Mozilla/5.0 (Windows NT 10.0; Win64; x64) AppleWebKit/537.36 (KHTML, like Gecko) Chrome/86.0.4240.111 Safari/537.36",119,"[0.9, 0.5, 0.1]","[0.8, 0.4, 0.2]","[u'black', u'red', u'blue']","[u'left', u'middle', u'right']","[0.8, 0.4, 0.2]","[u'low', u'medium', u'high']","blue",51,"right","high","True","False",248,6050,NA
"ATHDQYUL5JEH4","Wed Oct 28 2020 09:51:08 GMT-0700 (Pacific Daylight Time)","Wed Oct 28 2020 10:01:30 GMT-0700 (Pacific Daylight Time)","Mozilla/5.0 (Windows NT 10.0; Win64; x64) AppleWebKit/537.36 (KHTML, like Gecko) Chrome/86.0.4240.111 Safari/537.36",120,"[0.9, 0.5, 0.1]","[0.8, 0.4, 0.2]","[u'black', u'red', u'blue']","[u'left', u'middle', u'right']","[0.8, 0.4, 0.2]","[u'low', u'medium', u'high']","blue",51,"right","high","True","False",219,6150,NA
"ATHDQYUL5JEH4","Wed Oct 28 2020 09:51:08 GMT-0700 (Pacific Daylight Time)","Wed Oct 28 2020 10:01:30 GMT-0700 (Pacific Daylight Time)","Mozilla/5.0 (Windows NT 10.0; Win64; x64) AppleWebKit/537.36 (KHTML, like Gecko) Chrome/86.0.4240.111 Safari/537.36",121,"[0.9, 0.5, 0.1]","[0.8, 0.4, 0.2]","[u'black', u'red', u'blue']","[u'left', u'middle', u'right']","[0.8, 0.4, 0.2]","[u'high', u'low', u'medium']","blue",51,"right","medium","False","False",1020,6100,NA
"ATHDQYUL5JEH4","Wed Oct 28 2020 09:51:08 GMT-0700 (Pacific Daylight Time)","Wed Oct 28 2020 10:01:30 GMT-0700 (Pacific Daylight Time)","Mozilla/5.0 (Windows NT 10.0; Win64; x64) AppleWebKit/537.36 (KHTML, like Gecko) Chrome/86.0.4240.111 Safari/537.36",122,"[0.9, 0.5, 0.1]","[0.8, 0.4, 0.2]","[u'black', u'red', u'blue']","[u'left', u'middle', u'right']","[0.8, 0.4, 0.2]","[u'high', u'low', u'medium']","black",49,"left","high","False","False",459,6050,NA
"ATHDQYUL5JEH4","Wed Oct 28 2020 09:51:08 GMT-0700 (Pacific Daylight Time)","Wed Oct 28 2020 10:01:30 GMT-0700 (Pacific Daylight Time)","Mozilla/5.0 (Windows NT 10.0; Win64; x64) AppleWebKit/537.36 (KHTML, like Gecko) Chrome/86.0.4240.111 Safari/537.36",123,"[0.9, 0.5, 0.1]","[0.8, 0.4, 0.2]","[u'black', u'red', u'blue']","[u'left', u'middle', u'right']","[0.8, 0.4, 0.2]","[u'high', u'low', u'medium']","red",50,"middle","low","False","False",1421,6000,NA
"ATHDQYUL5JEH4","Wed Oct 28 2020 09:51:08 GMT-0700 (Pacific Daylight Time)","Wed Oct 28 2020 10:01:30 GMT-0700 (Pacific Daylight Time)","Mozilla/5.0 (Windows NT 10.0; Win64; x64) AppleWebKit/537.36 (KHTML, like Gecko) Chrome/86.0.4240.111 Safari/537.36",124,"[0.9, 0.5, 0.1]","[0.8, 0.4, 0.2]","[u'black', u'red', u'blue']","[u'left', u'middle', u'right']","[0.8, 0.4, 0.2]","[u'high', u'low', u'medium']","blue",51,"right","medium","False","False",858,5950,NA
"ATHDQYUL5JEH4","Wed Oct 28 2020 09:51:08 GMT-0700 (Pacific Daylight Time)","Wed Oct 28 2020 10:01:30 GMT-0700 (Pacific Daylight Time)","Mozilla/5.0 (Windows NT 10.0; Win64; x64) AppleWebKit/537.36 (KHTML, like Gecko) Chrome/86.0.4240.111 Safari/537.36",125,"[0.9, 0.5, 0.1]","[0.8, 0.4, 0.2]","[u'black', u'red', u'blue']","[u'left', u'middle', u'right']","[0.8, 0.4, 0.2]","[u'high', u'low', u'medium']","black",49,"left","high","True","False",219,6050,NA
"ATHDQYUL5JEH4","Wed Oct 28 2020 09:51:08 GMT-0700 (Pacific Daylight Time)","Wed Oct 28 2020 10:01:30 GMT-0700 (Pacific Daylight Time)","Mozilla/5.0 (Windows NT 10.0; Win64; x64) AppleWebKit/537.36 (KHTML, like Gecko) Chrome/86.0.4240.111 Safari/537.36",126,"[0.9, 0.5, 0.1]","[0.8, 0.4, 0.2]","[u'black', u'red', u'blue']","[u'left', u'middle', u'right']","[0.8, 0.4, 0.2]","[u'high', u'low', u'medium']","black",49,"left","high","True","False",919,6150,NA
"ATHDQYUL5JEH4","Wed Oct 28 2020 09:51:08 GMT-0700 (Pacific Daylight Time)","Wed Oct 28 2020 10:01:30 GMT-0700 (Pacific Daylight Time)","Mozilla/5.0 (Windows NT 10.0; Win64; x64) AppleWebKit/537.36 (KHTML, like Gecko) Chrome/86.0.4240.111 Safari/537.36",127,"[0.9, 0.5, 0.1]","[0.8, 0.4, 0.2]","[u'black', u'red', u'blue']","[u'left', u'middle', u'right']","[0.8, 0.4, 0.2]","[u'high', u'low', u'medium']","black",49,"left","high","True","False",959,6250,NA
"ATHDQYUL5JEH4","Wed Oct 28 2020 09:51:08 GMT-0700 (Pacific Daylight Time)","Wed Oct 28 2020 10:01:30 GMT-0700 (Pacific Daylight Time)","Mozilla/5.0 (Windows NT 10.0; Win64; x64) AppleWebKit/537.36 (KHTML, like Gecko) Chrome/86.0.4240.111 Safari/537.36",128,"[0.9, 0.5, 0.1]","[0.8, 0.4, 0.2]","[u'black', u'red', u'blue']","[u'left', u'middle', u'right']","[0.8, 0.4, 0.2]","[u'high', u'low', u'medium']","black",49,"left","high","True","False",400,6350,NA
"ATHDQYUL5JEH4","Wed Oct 28 2020 09:51:08 GMT-0700 (Pacific Daylight Time)","Wed Oct 28 2020 10:01:30 GMT-0700 (Pacific Daylight Time)","Mozilla/5.0 (Windows NT 10.0; Win64; x64) AppleWebKit/537.36 (KHTML, like Gecko) Chrome/86.0.4240.111 Safari/537.36",129,"[0.9, 0.5, 0.1]","[0.8, 0.4, 0.2]","[u'black', u'red', u'blue']","[u'left', u'middle', u'right']","[0.8, 0.4, 0.2]","[u'high', u'low', u'medium']","black",49,"left","high","False","False",4778,6300,NA
"ATHDQYUL5JEH4","Wed Oct 28 2020 09:51:08 GMT-0700 (Pacific Daylight Time)","Wed Oct 28 2020 10:01:30 GMT-0700 (Pacific Daylight Time)","Mozilla/5.0 (Windows NT 10.0; Win64; x64) AppleWebKit/537.36 (KHTML, like Gecko) Chrome/86.0.4240.111 Safari/537.36",130,"[0.9, 0.5, 0.1]","[0.8, 0.4, 0.2]","[u'black', u'red', u'blue']","[u'left', u'middle', u'right']","[0.8, 0.4, 0.2]","[u'high', u'low', u'medium']","red",50,"middle","low","True","False",298,6400,NA
"ATHDQYUL5JEH4","Wed Oct 28 2020 09:51:08 GMT-0700 (Pacific Daylight Time)","Wed Oct 28 2020 10:01:30 GMT-0700 (Pacific Daylight Time)","Mozilla/5.0 (Windows NT 10.0; Win64; x64) AppleWebKit/537.36 (KHTML, like Gecko) Chrome/86.0.4240.111 Safari/537.36",131,"[0.9, 0.5, 0.1]","[0.8, 0.4, 0.2]","[u'black', u'red', u'blue']","[u'left', u'middle', u'right']","[0.8, 0.4, 0.2]","[u'high', u'low', u'medium']","red",50,"middle","low","False","False",2200,6350,NA
"ATHDQYUL5JEH4","Wed Oct 28 2020 09:51:08 GMT-0700 (Pacific Daylight Time)","Wed Oct 28 2020 10:01:30 GMT-0700 (Pacific Daylight Time)","Mozilla/5.0 (Windows NT 10.0; Win64; x64) AppleWebKit/537.36 (KHTML, like Gecko) Chrome/86.0.4240.111 Safari/537.36",132,"[0.9, 0.5, 0.1]","[0.8, 0.4, 0.2]","[u'black', u'red', u'blue']","[u'left', u'middle', u'right']","[0.8, 0.4, 0.2]","[u'high', u'low', u'medium']","blue",51,"right","medium","False","False",619,6300,NA
"ATHDQYUL5JEH4","Wed Oct 28 2020 09:51:08 GMT-0700 (Pacific Daylight Time)","Wed Oct 28 2020 10:01:30 GMT-0700 (Pacific Daylight Time)","Mozilla/5.0 (Windows NT 10.0; Win64; x64) AppleWebKit/537.36 (KHTML, like Gecko) Chrome/86.0.4240.111 Safari/537.36",133,"[0.9, 0.5, 0.1]","[0.8, 0.4, 0.2]","[u'black', u'red', u'blue']","[u'left', u'middle', u'right']","[0.8, 0.4, 0.2]","[u'high', u'low', u'medium']","black",49,"left","high","False","False",8421,6250,NA
"ATHDQYUL5JEH4","Wed Oct 28 2020 09:51:08 GMT-0700 (Pacific Daylight Time)","Wed Oct 28 2020 10:01:30 GMT-0700 (Pacific Daylight Time)","Mozilla/5.0 (Windows NT 10.0; Win64; x64) AppleWebKit/537.36 (KHTML, like Gecko) Chrome/86.0.4240.111 Safari/537.36",134,"[0.9, 0.5, 0.1]","[0.8, 0.4, 0.2]","[u'black', u'red', u'blue']","[u'left', u'middle', u'right']","[0.8, 0.4, 0.2]","[u'high', u'low', u'medium']","red",50,"middle","low","False","False",656,6200,NA
"ATHDQYUL5JEH4","Wed Oct 28 2020 09:51:08 GMT-0700 (Pacific Daylight Time)","Wed Oct 28 2020 10:01:30 GMT-0700 (Pacific Daylight Time)","Mozilla/5.0 (Windows NT 10.0; Win64; x64) AppleWebKit/537.36 (KHTML, like Gecko) Chrome/86.0.4240.111 Safari/537.36",135,"[0.9, 0.5, 0.1]","[0.8, 0.4, 0.2]","[u'black', u'red', u'blue']","[u'left', u'middle', u'right']","[0.8, 0.4, 0.2]","[u'high', u'low', u'medium']","blue",51,"right","medium","True","False",697,6300,NA
"ATHDQYUL5JEH4","Wed Oct 28 2020 09:51:08 GMT-0700 (Pacific Daylight Time)","Wed Oct 28 2020 10:01:30 GMT-0700 (Pacific Daylight Time)","Mozilla/5.0 (Windows NT 10.0; Win64; x64) AppleWebKit/537.36 (KHTML, like Gecko) Chrome/86.0.4240.111 Safari/537.36",136,"[0.9, 0.5, 0.1]","[0.8, 0.4, 0.2]","[u'black', u'red', u'blue']","[u'left', u'middle', u'right']","[0.8, 0.4, 0.2]","[u'high', u'low', u'medium']","blue",51,"right","medium","True","False",715,6400,NA
"ATHDQYUL5JEH4","Wed Oct 28 2020 09:51:08 GMT-0700 (Pacific Daylight Time)","Wed Oct 28 2020 10:01:30 GMT-0700 (Pacific Daylight Time)","Mozilla/5.0 (Windows NT 10.0; Win64; x64) AppleWebKit/537.36 (KHTML, like Gecko) Chrome/86.0.4240.111 Safari/537.36",137,"[0.9, 0.5, 0.1]","[0.8, 0.4, 0.2]","[u'black', u'red', u'blue']","[u'left', u'middle', u'right']","[0.8, 0.4, 0.2]","[u'high', u'low', u'medium']","blue",51,"right","medium","True","False",1686,6500,NA
"ATHDQYUL5JEH4","Wed Oct 28 2020 09:51:08 GMT-0700 (Pacific Daylight Time)","Wed Oct 28 2020 10:01:30 GMT-0700 (Pacific Daylight Time)","Mozilla/5.0 (Windows NT 10.0; Win64; x64) AppleWebKit/537.36 (KHTML, like Gecko) Chrome/86.0.4240.111 Safari/537.36",138,"[0.9, 0.5, 0.1]","[0.8, 0.4, 0.2]","[u'black', u'red', u'blue']","[u'left', u'middle', u'right']","[0.8, 0.4, 0.2]","[u'high', u'low', u'medium']","blue",51,"right","medium","False","False",4759,6450,NA
"ATHDQYUL5JEH4","Wed Oct 28 2020 09:51:08 GMT-0700 (Pacific Daylight Time)","Wed Oct 28 2020 10:01:30 GMT-0700 (Pacific Daylight Time)","Mozilla/5.0 (Windows NT 10.0; Win64; x64) AppleWebKit/537.36 (KHTML, like Gecko) Chrome/86.0.4240.111 Safari/537.36",139,"[0.9, 0.5, 0.1]","[0.8, 0.4, 0.2]","[u'black', u'red', u'blue']","[u'left', u'middle', u'right']","[0.8, 0.4, 0.2]","[u'high', u'low', u'medium']","red",50,"middle","low","True","False",11538,6550,NA
"ATHDQYUL5JEH4","Wed Oct 28 2020 09:51:08 GMT-0700 (Pacific Daylight Time)","Wed Oct 28 2020 10:01:30 GMT-0700 (Pacific Daylight Time)","Mozilla/5.0 (Windows NT 10.0; Win64; x64) AppleWebKit/537.36 (KHTML, like Gecko) Chrome/86.0.4240.111 Safari/537.36",140,"[0.9, 0.5, 0.1]","[0.8, 0.4, 0.2]","[u'black', u'red', u'blue']","[u'left', u'middle', u'right']","[0.8, 0.4, 0.2]","[u'high', u'low', u'medium']","red",50,"middle","low","False","False",667,6500,NA
"ATHDQYUL5JEH4","Wed Oct 28 2020 09:51:08 GMT-0700 (Pacific Daylight Time)","Wed Oct 28 2020 10:01:30 GMT-0700 (Pacific Daylight Time)","Mozilla/5.0 (Windows NT 10.0; Win64; x64) AppleWebKit/537.36 (KHTML, like Gecko) Chrome/86.0.4240.111 Safari/537.36",141,"[0.9, 0.5, 0.1]","[0.8, 0.4, 0.2]","[u'black', u'red', u'blue']","[u'left', u'middle', u'right']","[0.8, 0.4, 0.2]","[u'high', u'low', u'medium']","black",49,"left","high","True","False",627,6600,NA
"ATHDQYUL5JEH4","Wed Oct 28 2020 09:51:08 GMT-0700 (Pacific Daylight Time)","Wed Oct 28 2020 10:01:30 GMT-0700 (Pacific Daylight Time)","Mozilla/5.0 (Windows NT 10.0; Win64; x64) AppleWebKit/537.36 (KHTML, like Gecko) Chrome/86.0.4240.111 Safari/537.36",142,"[0.9, 0.5, 0.1]","[0.8, 0.4, 0.2]","[u'black', u'red', u'blue']","[u'left', u'middle', u'right']","[0.8, 0.4, 0.2]","[u'high', u'low', u'medium']","black",49,"left","high","True","False",639,6700,NA
"ATHDQYUL5JEH4","Wed Oct 28 2020 09:51:08 GMT-0700 (Pacific Daylight Time)","Wed Oct 28 2020 10:01:30 GMT-0700 (Pacific Daylight Time)","Mozilla/5.0 (Windows NT 10.0; Win64; x64) AppleWebKit/537.36 (KHTML, like Gecko) Chrome/86.0.4240.111 Safari/537.36",143,"[0.9, 0.5, 0.1]","[0.8, 0.4, 0.2]","[u'black', u'red', u'blue']","[u'left', u'middle', u'right']","[0.8, 0.4, 0.2]","[u'high', u'low', u'medium']","black",49,"left","high","True","False",578,6800,NA
"ATHDQYUL5JEH4","Wed Oct 28 2020 09:51:08 GMT-0700 (Pacific Daylight Time)","Wed Oct 28 2020 10:01:30 GMT-0700 (Pacific Daylight Time)","Mozilla/5.0 (Windows NT 10.0; Win64; x64) AppleWebKit/537.36 (KHTML, like Gecko) Chrome/86.0.4240.111 Safari/537.36",144,"[0.9, 0.5, 0.1]","[0.8, 0.4, 0.2]","[u'black', u'red', u'blue']","[u'left', u'middle', u'right']","[0.8, 0.4, 0.2]","[u'high', u'low', u'medium']","black",49,"left","high","True","False",343,6900,NA
"ATHDQYUL5JEH4","Wed Oct 28 2020 09:51:08 GMT-0700 (Pacific Daylight Time)","Wed Oct 28 2020 10:01:30 GMT-0700 (Pacific Daylight Time)","Mozilla/5.0 (Windows NT 10.0; Win64; x64) AppleWebKit/537.36 (KHTML, like Gecko) Chrome/86.0.4240.111 Safari/537.36",145,"[0.9, 0.5, 0.1]","[0.8, 0.4, 0.2]","[u'black', u'red', u'blue']","[u'left', u'middle', u'right']","[0.8, 0.4, 0.2]","[u'high', u'low', u'medium']","black",49,"left","high","True","False",537,7000,NA
"ATHDQYUL5JEH4","Wed Oct 28 2020 09:51:08 GMT-0700 (Pacific Daylight Time)","Wed Oct 28 2020 10:01:30 GMT-0700 (Pacific Daylight Time)","Mozilla/5.0 (Windows NT 10.0; Win64; x64) AppleWebKit/537.36 (KHTML, like Gecko) Chrome/86.0.4240.111 Safari/537.36",146,"[0.9, 0.5, 0.1]","[0.8, 0.4, 0.2]","[u'black', u'red', u'blue']","[u'left', u'middle', u'right']","[0.8, 0.4, 0.2]","[u'high', u'low', u'medium']","black",49,"left","high","True","False",3178,7100,NA
"ATHDQYUL5JEH4","Wed Oct 28 2020 09:51:08 GMT-0700 (Pacific Daylight Time)","Wed Oct 28 2020 10:01:30 GMT-0700 (Pacific Daylight Time)","Mozilla/5.0 (Windows NT 10.0; Win64; x64) AppleWebKit/537.36 (KHTML, like Gecko) Chrome/86.0.4240.111 Safari/537.36",147,"[0.9, 0.5, 0.1]","[0.8, 0.4, 0.2]","[u'black', u'red', u'blue']","[u'left', u'middle', u'right']","[0.8, 0.4, 0.2]","[u'high', u'low', u'medium']","black",49,"left","high","True","False",2890,7200,NA
"ATHDQYUL5JEH4","Wed Oct 28 2020 09:51:08 GMT-0700 (Pacific Daylight Time)","Wed Oct 28 2020 10:01:30 GMT-0700 (Pacific Daylight Time)","Mozilla/5.0 (Windows NT 10.0; Win64; x64) AppleWebKit/537.36 (KHTML, like Gecko) Chrome/86.0.4240.111 Safari/537.36",148,"[0.9, 0.5, 0.1]","[0.8, 0.4, 0.2]","[u'black', u'red', u'blue']","[u'left', u'middle', u'right']","[0.8, 0.4, 0.2]","[u'high', u'low', u'medium']","black",49,"left","high","True","False",188,7300,NA
"ATHDQYUL5JEH4","Wed Oct 28 2020 09:51:08 GMT-0700 (Pacific Daylight Time)","Wed Oct 28 2020 10:01:30 GMT-0700 (Pacific Daylight Time)","Mozilla/5.0 (Windows NT 10.0; Win64; x64) AppleWebKit/537.36 (KHTML, like Gecko) Chrome/86.0.4240.111 Safari/537.36",149,"[0.9, 0.5, 0.1]","[0.8, 0.4, 0.2]","[u'black', u'red', u'blue']","[u'left', u'middle', u'right']","[0.8, 0.4, 0.2]","[u'high', u'low', u'medium']","black",49,"left","high","True","True",2499,7400,NA
"ATHDQYUL5JEH4","Wed Oct 28 2020 09:51:08 GMT-0700 (Pacific Daylight Time)","Wed Oct 28 2020 10:01:30 GMT-0700 (Pacific Daylight Time)","Mozilla/5.0 (Windows NT 10.0; Win64; x64) AppleWebKit/537.36 (KHTML, like Gecko) Chrome/86.0.4240.111 Safari/537.36",150,"[0.9, 0.5, 0.1]","[0.8, 0.4, 0.2]","[u'black', u'red', u'blue']","[u'left', u'middle', u'right']","[0.8, 0.4, 0.2]","[u'medium', u'low', u'high']","black",49,"left","medium","True","False",300,7500,NA
"ATHDQYUL5JEH4","Wed Oct 28 2020 09:51:08 GMT-0700 (Pacific Daylight Time)","Wed Oct 28 2020 10:01:30 GMT-0700 (Pacific Daylight Time)","Mozilla/5.0 (Windows NT 10.0; Win64; x64) AppleWebKit/537.36 (KHTML, like Gecko) Chrome/86.0.4240.111 Safari/537.36",151,"[0.9, 0.5, 0.1]","[0.8, 0.4, 0.2]","[u'black', u'red', u'blue']","[u'left', u'middle', u'right']","[0.8, 0.4, 0.2]","[u'medium', u'low', u'high']","black",49,"left","medium","False","False",217,7450,NA
"ATHDQYUL5JEH4","Wed Oct 28 2020 09:51:08 GMT-0700 (Pacific Daylight Time)","Wed Oct 28 2020 10:01:30 GMT-0700 (Pacific Daylight Time)","Mozilla/5.0 (Windows NT 10.0; Win64; x64) AppleWebKit/537.36 (KHTML, like Gecko) Chrome/86.0.4240.111 Safari/537.36",152,"[0.9, 0.5, 0.1]","[0.8, 0.4, 0.2]","[u'black', u'red', u'blue']","[u'left', u'middle', u'right']","[0.8, 0.4, 0.2]","[u'medium', u'low', u'high']","blue",51,"right","high","True","False",860,7550,NA
"ATHDQYUL5JEH4","Wed Oct 28 2020 09:51:08 GMT-0700 (Pacific Daylight Time)","Wed Oct 28 2020 10:01:30 GMT-0700 (Pacific Daylight Time)","Mozilla/5.0 (Windows NT 10.0; Win64; x64) AppleWebKit/537.36 (KHTML, like Gecko) Chrome/86.0.4240.111 Safari/537.36",153,"[0.9, 0.5, 0.1]","[0.8, 0.4, 0.2]","[u'black', u'red', u'blue']","[u'left', u'middle', u'right']","[0.8, 0.4, 0.2]","[u'medium', u'low', u'high']","blue",51,"right","high","False","False",377,7500,NA
"ATHDQYUL5JEH4","Wed Oct 28 2020 09:51:08 GMT-0700 (Pacific Daylight Time)","Wed Oct 28 2020 10:01:30 GMT-0700 (Pacific Daylight Time)","Mozilla/5.0 (Windows NT 10.0; Win64; x64) AppleWebKit/537.36 (KHTML, like Gecko) Chrome/86.0.4240.111 Safari/537.36",154,"[0.9, 0.5, 0.1]","[0.8, 0.4, 0.2]","[u'black', u'red', u'blue']","[u'left', u'middle', u'right']","[0.8, 0.4, 0.2]","[u'medium', u'low', u'high']","red",50,"middle","low","True","False",578,7600,NA
"ATHDQYUL5JEH4","Wed Oct 28 2020 09:51:08 GMT-0700 (Pacific Daylight Time)","Wed Oct 28 2020 10:01:30 GMT-0700 (Pacific Daylight Time)","Mozilla/5.0 (Windows NT 10.0; Win64; x64) AppleWebKit/537.36 (KHTML, like Gecko) Chrome/86.0.4240.111 Safari/537.36",155,"[0.9, 0.5, 0.1]","[0.8, 0.4, 0.2]","[u'black', u'red', u'blue']","[u'left', u'middle', u'right']","[0.8, 0.4, 0.2]","[u'medium', u'low', u'high']","red",50,"middle","low","False","False",220,7550,NA
"ATHDQYUL5JEH4","Wed Oct 28 2020 09:51:08 GMT-0700 (Pacific Daylight Time)","Wed Oct 28 2020 10:01:30 GMT-0700 (Pacific Daylight Time)","Mozilla/5.0 (Windows NT 10.0; Win64; x64) AppleWebKit/537.36 (KHTML, like Gecko) Chrome/86.0.4240.111 Safari/537.36",156,"[0.9, 0.5, 0.1]","[0.8, 0.4, 0.2]","[u'black', u'red', u'blue']","[u'left', u'middle', u'right']","[0.8, 0.4, 0.2]","[u'medium', u'low', u'high']","blue",51,"right","high","True","False",408,7650,NA
"ATHDQYUL5JEH4","Wed Oct 28 2020 09:51:08 GMT-0700 (Pacific Daylight Time)","Wed Oct 28 2020 10:01:30 GMT-0700 (Pacific Daylight Time)","Mozilla/5.0 (Windows NT 10.0; Win64; x64) AppleWebKit/537.36 (KHTML, like Gecko) Chrome/86.0.4240.111 Safari/537.36",157,"[0.9, 0.5, 0.1]","[0.8, 0.4, 0.2]","[u'black', u'red', u'blue']","[u'left', u'middle', u'right']","[0.8, 0.4, 0.2]","[u'medium', u'low', u'high']","blue",51,"right","high","False","False",609,7600,NA
"ATHDQYUL5JEH4","Wed Oct 28 2020 09:51:08 GMT-0700 (Pacific Daylight Time)","Wed Oct 28 2020 10:01:30 GMT-0700 (Pacific Daylight Time)","Mozilla/5.0 (Windows NT 10.0; Win64; x64) AppleWebKit/537.36 (KHTML, like Gecko) Chrome/86.0.4240.111 Safari/537.36",158,"[0.9, 0.5, 0.1]","[0.8, 0.4, 0.2]","[u'black', u'red', u'blue']","[u'left', u'middle', u'right']","[0.8, 0.4, 0.2]","[u'medium', u'low', u'high']","red",50,"middle","low","False","False",200,7550,NA
"ATHDQYUL5JEH4","Wed Oct 28 2020 09:51:08 GMT-0700 (Pacific Daylight Time)","Wed Oct 28 2020 10:01:30 GMT-0700 (Pacific Daylight Time)","Mozilla/5.0 (Windows NT 10.0; Win64; x64) AppleWebKit/537.36 (KHTML, like Gecko) Chrome/86.0.4240.111 Safari/537.36",159,"[0.9, 0.5, 0.1]","[0.8, 0.4, 0.2]","[u'black', u'red', u'blue']","[u'left', u'middle', u'right']","[0.8, 0.4, 0.2]","[u'medium', u'low', u'high']","black",49,"left","medium","False","False",479,7500,NA
"ATHDQYUL5JEH4","Wed Oct 28 2020 09:51:08 GMT-0700 (Pacific Daylight Time)","Wed Oct 28 2020 10:01:30 GMT-0700 (Pacific Daylight Time)","Mozilla/5.0 (Windows NT 10.0; Win64; x64) AppleWebKit/537.36 (KHTML, like Gecko) Chrome/86.0.4240.111 Safari/537.36",160,"[0.9, 0.5, 0.1]","[0.8, 0.4, 0.2]","[u'black', u'red', u'blue']","[u'left', u'middle', u'right']","[0.8, 0.4, 0.2]","[u'medium', u'low', u'high']","blue",51,"right","high","False","False",599,7450,NA
