"src_subject_id","start_time","end_time","browser","index","first_half_probabilities","second_half_probabilities","deck_color","deck_position","deck_probabilities","deck_contingencies","response_color","key_press","response_position","response_probability","reward_type","trial_type","rt","reward_tally","exclusion_reason"
"A3CTXWISODY7D8","Wed Oct 28 2020 15:02:32 GMT-0400 (Eastern Daylight Time)","Wed Oct 28 2020 15:09:57 GMT-0400 (Eastern Daylight Time)","Mozilla/5.0 (Windows NT 6.1; Win64; x64) AppleWebKit/537.36 (KHTML, like Gecko) Chrome/86.0.4240.111 Safari/537.36    ",1,"[0.9, 0.5, 0.1]","[0.8, 0.4, 0.2]","[u'blue', u'red', u'black']","[u'left', u'middle', u'right']","[0.9, 0.5, 0.1]","[u'medium', u'low', u'high']","red",50,"middle","low","False","False",1298,-50,NA
"A3CTXWISODY7D8","Wed Oct 28 2020 15:02:32 GMT-0400 (Eastern Daylight Time)","Wed Oct 28 2020 15:09:57 GMT-0400 (Eastern Daylight Time)","Mozilla/5.0 (Windows NT 6.1; Win64; x64) AppleWebKit/537.36 (KHTML, like Gecko) Chrome/86.0.4240.111 Safari/537.36    ",2,"[0.9, 0.5, 0.1]","[0.8, 0.4, 0.2]","[u'blue', u'red', u'black']","[u'left', u'middle', u'right']","[0.9, 0.5, 0.1]","[u'medium', u'low', u'high']","blue",49,"left","medium","False","False",506,-100,NA
"A3CTXWISODY7D8","Wed Oct 28 2020 15:02:32 GMT-0400 (Eastern Daylight Time)","Wed Oct 28 2020 15:09:57 GMT-0400 (Eastern Daylight Time)","Mozilla/5.0 (Windows NT 6.1; Win64; x64) AppleWebKit/537.36 (KHTML, like Gecko) Chrome/86.0.4240.111 Safari/537.36    ",3,"[0.9, 0.5, 0.1]","[0.8, 0.4, 0.2]","[u'blue', u'red', u'black']","[u'left', u'middle', u'right']","[0.9, 0.5, 0.1]","[u'medium', u'low', u'high']","black",51,"right","high","True","False",503,0,NA
"A3CTXWISODY7D8","Wed Oct 28 2020 15:02:32 GMT-0400 (Eastern Daylight Time)","Wed Oct 28 2020 15:09:57 GMT-0400 (Eastern Daylight Time)","Mozilla/5.0 (Windows NT 6.1; Win64; x64) AppleWebKit/537.36 (KHTML, like Gecko) Chrome/86.0.4240.111 Safari/537.36    ",4,"[0.9, 0.5, 0.1]","[0.8, 0.4, 0.2]","[u'blue', u'red', u'black']","[u'left', u'middle', u'right']","[0.9, 0.5, 0.1]","[u'medium', u'low', u'high']","black",51,"right","high","True","False",422,100,NA
"A3CTXWISODY7D8","Wed Oct 28 2020 15:02:32 GMT-0400 (Eastern Daylight Time)","Wed Oct 28 2020 15:09:57 GMT-0400 (Eastern Daylight Time)","Mozilla/5.0 (Windows NT 6.1; Win64; x64) AppleWebKit/537.36 (KHTML, like Gecko) Chrome/86.0.4240.111 Safari/537.36    ",5,"[0.9, 0.5, 0.1]","[0.8, 0.4, 0.2]","[u'blue', u'red', u'black']","[u'left', u'middle', u'right']","[0.9, 0.5, 0.1]","[u'medium', u'low', u'high']","black",51,"right","high","True","False",617,200,NA
"A3CTXWISODY7D8","Wed Oct 28 2020 15:02:32 GMT-0400 (Eastern Daylight Time)","Wed Oct 28 2020 15:09:57 GMT-0400 (Eastern Daylight Time)","Mozilla/5.0 (Windows NT 6.1; Win64; x64) AppleWebKit/537.36 (KHTML, like Gecko) Chrome/86.0.4240.111 Safari/537.36    ",6,"[0.9, 0.5, 0.1]","[0.8, 0.4, 0.2]","[u'blue', u'red', u'black']","[u'left', u'middle', u'right']","[0.9, 0.5, 0.1]","[u'medium', u'low', u'high']","black",51,"right","high","True","False",695,300,NA
"A3CTXWISODY7D8","Wed Oct 28 2020 15:02:32 GMT-0400 (Eastern Daylight Time)","Wed Oct 28 2020 15:09:57 GMT-0400 (Eastern Daylight Time)","Mozilla/5.0 (Windows NT 6.1; Win64; x64) AppleWebKit/537.36 (KHTML, like Gecko) Chrome/86.0.4240.111 Safari/537.36    ",7,"[0.9, 0.5, 0.1]","[0.8, 0.4, 0.2]","[u'blue', u'red', u'black']","[u'left', u'middle', u'right']","[0.9, 0.5, 0.1]","[u'medium', u'low', u'high']","black",51,"right","high","True","False",545,400,NA
"A3CTXWISODY7D8","Wed Oct 28 2020 15:02:32 GMT-0400 (Eastern Daylight Time)","Wed Oct 28 2020 15:09:57 GMT-0400 (Eastern Daylight Time)","Mozilla/5.0 (Windows NT 6.1; Win64; x64) AppleWebKit/537.36 (KHTML, like Gecko) Chrome/86.0.4240.111 Safari/537.36    ",8,"[0.9, 0.5, 0.1]","[0.8, 0.4, 0.2]","[u'blue', u'red', u'black']","[u'left', u'middle', u'right']","[0.9, 0.5, 0.1]","[u'medium', u'low', u'high']","black",51,"right","high","True","False",424,500,NA
"A3CTXWISODY7D8","Wed Oct 28 2020 15:02:32 GMT-0400 (Eastern Daylight Time)","Wed Oct 28 2020 15:09:57 GMT-0400 (Eastern Daylight Time)","Mozilla/5.0 (Windows NT 6.1; Win64; x64) AppleWebKit/537.36 (KHTML, like Gecko) Chrome/86.0.4240.111 Safari/537.36    ",9,"[0.9, 0.5, 0.1]","[0.8, 0.4, 0.2]","[u'blue', u'red', u'black']","[u'left', u'middle', u'right']","[0.9, 0.5, 0.1]","[u'medium', u'low', u'high']","black",51,"right","high","True","False",427,600,NA
"A3CTXWISODY7D8","Wed Oct 28 2020 15:02:32 GMT-0400 (Eastern Daylight Time)","Wed Oct 28 2020 15:09:57 GMT-0400 (Eastern Daylight Time)","Mozilla/5.0 (Windows NT 6.1; Win64; x64) AppleWebKit/537.36 (KHTML, like Gecko) Chrome/86.0.4240.111 Safari/537.36    ",10,"[0.9, 0.5, 0.1]","[0.8, 0.4, 0.2]","[u'blue', u'red', u'black']","[u'left', u'middle', u'right']","[0.9, 0.5, 0.1]","[u'medium', u'low', u'high']","black",51,"right","high","True","False",399,700,NA
"A3CTXWISODY7D8","Wed Oct 28 2020 15:02:32 GMT-0400 (Eastern Daylight Time)","Wed Oct 28 2020 15:09:57 GMT-0400 (Eastern Daylight Time)","Mozilla/5.0 (Windows NT 6.1; Win64; x64) AppleWebKit/537.36 (KHTML, like Gecko) Chrome/86.0.4240.111 Safari/537.36    ",11,"[0.9, 0.5, 0.1]","[0.8, 0.4, 0.2]","[u'blue', u'red', u'black']","[u'left', u'middle', u'right']","[0.9, 0.5, 0.1]","[u'medium', u'low', u'high']","black",51,"right","high","True","True",379,800,NA
"A3CTXWISODY7D8","Wed Oct 28 2020 15:02:32 GMT-0400 (Eastern Daylight Time)","Wed Oct 28 2020 15:09:57 GMT-0400 (Eastern Daylight Time)","Mozilla/5.0 (Windows NT 6.1; Win64; x64) AppleWebKit/537.36 (KHTML, like Gecko) Chrome/86.0.4240.111 Safari/537.36    ",12,"[0.9, 0.5, 0.1]","[0.8, 0.4, 0.2]","[u'blue', u'red', u'black']","[u'left', u'middle', u'right']","[0.9, 0.5, 0.1]","[u'high', u'medium', u'low']","black",51,"right","low","False","False",484,750,NA
"A3CTXWISODY7D8","Wed Oct 28 2020 15:02:32 GMT-0400 (Eastern Daylight Time)","Wed Oct 28 2020 15:09:57 GMT-0400 (Eastern Daylight Time)","Mozilla/5.0 (Windows NT 6.1; Win64; x64) AppleWebKit/537.36 (KHTML, like Gecko) Chrome/86.0.4240.111 Safari/537.36    ",13,"[0.9, 0.5, 0.1]","[0.8, 0.4, 0.2]","[u'blue', u'red', u'black']","[u'left', u'middle', u'right']","[0.9, 0.5, 0.1]","[u'high', u'medium', u'low']","black",51,"right","low","False","False",344,700,NA
"A3CTXWISODY7D8","Wed Oct 28 2020 15:02:32 GMT-0400 (Eastern Daylight Time)","Wed Oct 28 2020 15:09:57 GMT-0400 (Eastern Daylight Time)","Mozilla/5.0 (Windows NT 6.1; Win64; x64) AppleWebKit/537.36 (KHTML, like Gecko) Chrome/86.0.4240.111 Safari/537.36    ",14,"[0.9, 0.5, 0.1]","[0.8, 0.4, 0.2]","[u'blue', u'red', u'black']","[u'left', u'middle', u'right']","[0.9, 0.5, 0.1]","[u'high', u'medium', u'low']","red",50,"middle","medium","False","False",305,650,NA
"A3CTXWISODY7D8","Wed Oct 28 2020 15:02:32 GMT-0400 (Eastern Daylight Time)","Wed Oct 28 2020 15:09:57 GMT-0400 (Eastern Daylight Time)","Mozilla/5.0 (Windows NT 6.1; Win64; x64) AppleWebKit/537.36 (KHTML, like Gecko) Chrome/86.0.4240.111 Safari/537.36    ",15,"[0.9, 0.5, 0.1]","[0.8, 0.4, 0.2]","[u'blue', u'red', u'black']","[u'left', u'middle', u'right']","[0.9, 0.5, 0.1]","[u'high', u'medium', u'low']","black",51,"right","low","False","False",256,600,NA
"A3CTXWISODY7D8","Wed Oct 28 2020 15:02:32 GMT-0400 (Eastern Daylight Time)","Wed Oct 28 2020 15:09:57 GMT-0400 (Eastern Daylight Time)","Mozilla/5.0 (Windows NT 6.1; Win64; x64) AppleWebKit/537.36 (KHTML, like Gecko) Chrome/86.0.4240.111 Safari/537.36    ",16,"[0.9, 0.5, 0.1]","[0.8, 0.4, 0.2]","[u'blue', u'red', u'black']","[u'left', u'middle', u'right']","[0.9, 0.5, 0.1]","[u'high', u'medium', u'low']","blue",49,"left","high","True","False",302,700,NA
"A3CTXWISODY7D8","Wed Oct 28 2020 15:02:32 GMT-0400 (Eastern Daylight Time)","Wed Oct 28 2020 15:09:57 GMT-0400 (Eastern Daylight Time)","Mozilla/5.0 (Windows NT 6.1; Win64; x64) AppleWebKit/537.36 (KHTML, like Gecko) Chrome/86.0.4240.111 Safari/537.36    ",17,"[0.9, 0.5, 0.1]","[0.8, 0.4, 0.2]","[u'blue', u'red', u'black']","[u'left', u'middle', u'right']","[0.9, 0.5, 0.1]","[u'high', u'medium', u'low']","blue",49,"left","high","True","False",320,800,NA
"A3CTXWISODY7D8","Wed Oct 28 2020 15:02:32 GMT-0400 (Eastern Daylight Time)","Wed Oct 28 2020 15:09:57 GMT-0400 (Eastern Daylight Time)","Mozilla/5.0 (Windows NT 6.1; Win64; x64) AppleWebKit/537.36 (KHTML, like Gecko) Chrome/86.0.4240.111 Safari/537.36    ",18,"[0.9, 0.5, 0.1]","[0.8, 0.4, 0.2]","[u'blue', u'red', u'black']","[u'left', u'middle', u'right']","[0.9, 0.5, 0.1]","[u'high', u'medium', u'low']","blue",49,"left","high","False","False",395,750,NA
"A3CTXWISODY7D8","Wed Oct 28 2020 15:02:32 GMT-0400 (Eastern Daylight Time)","Wed Oct 28 2020 15:09:57 GMT-0400 (Eastern Daylight Time)","Mozilla/5.0 (Windows NT 6.1; Win64; x64) AppleWebKit/537.36 (KHTML, like Gecko) Chrome/86.0.4240.111 Safari/537.36    ",19,"[0.9, 0.5, 0.1]","[0.8, 0.4, 0.2]","[u'blue', u'red', u'black']","[u'left', u'middle', u'right']","[0.9, 0.5, 0.1]","[u'high', u'medium', u'low']","red",50,"middle","medium","False","False",289,700,NA
"A3CTXWISODY7D8","Wed Oct 28 2020 15:02:32 GMT-0400 (Eastern Daylight Time)","Wed Oct 28 2020 15:09:57 GMT-0400 (Eastern Daylight Time)","Mozilla/5.0 (Windows NT 6.1; Win64; x64) AppleWebKit/537.36 (KHTML, like Gecko) Chrome/86.0.4240.111 Safari/537.36    ",20,"[0.9, 0.5, 0.1]","[0.8, 0.4, 0.2]","[u'blue', u'red', u'black']","[u'left', u'middle', u'right']","[0.9, 0.5, 0.1]","[u'high', u'medium', u'low']","blue",49,"left","high","True","False",298,800,NA
"A3CTXWISODY7D8","Wed Oct 28 2020 15:02:32 GMT-0400 (Eastern Daylight Time)","Wed Oct 28 2020 15:09:57 GMT-0400 (Eastern Daylight Time)","Mozilla/5.0 (Windows NT 6.1; Win64; x64) AppleWebKit/537.36 (KHTML, like Gecko) Chrome/86.0.4240.111 Safari/537.36    ",21,"[0.9, 0.5, 0.1]","[0.8, 0.4, 0.2]","[u'blue', u'red', u'black']","[u'left', u'middle', u'right']","[0.9, 0.5, 0.1]","[u'high', u'medium', u'low']","blue",49,"left","high","True","False",347,900,NA
"A3CTXWISODY7D8","Wed Oct 28 2020 15:02:32 GMT-0400 (Eastern Daylight Time)","Wed Oct 28 2020 15:09:57 GMT-0400 (Eastern Daylight Time)","Mozilla/5.0 (Windows NT 6.1; Win64; x64) AppleWebKit/537.36 (KHTML, like Gecko) Chrome/86.0.4240.111 Safari/537.36    ",22,"[0.9, 0.5, 0.1]","[0.8, 0.4, 0.2]","[u'blue', u'red', u'black']","[u'left', u'middle', u'right']","[0.9, 0.5, 0.1]","[u'high', u'medium', u'low']","blue",49,"left","high","True","False",359,1000,NA
"A3CTXWISODY7D8","Wed Oct 28 2020 15:02:32 GMT-0400 (Eastern Daylight Time)","Wed Oct 28 2020 15:09:57 GMT-0400 (Eastern Daylight Time)","Mozilla/5.0 (Windows NT 6.1; Win64; x64) AppleWebKit/537.36 (KHTML, like Gecko) Chrome/86.0.4240.111 Safari/537.36    ",23,"[0.9, 0.5, 0.1]","[0.8, 0.4, 0.2]","[u'blue', u'red', u'black']","[u'left', u'middle', u'right']","[0.9, 0.5, 0.1]","[u'high', u'medium', u'low']","blue",49,"left","high","True","False",413,1100,NA
"A3CTXWISODY7D8","Wed Oct 28 2020 15:02:32 GMT-0400 (Eastern Daylight Time)","Wed Oct 28 2020 15:09:57 GMT-0400 (Eastern Daylight Time)","Mozilla/5.0 (Windows NT 6.1; Win64; x64) AppleWebKit/537.36 (KHTML, like Gecko) Chrome/86.0.4240.111 Safari/537.36    ",24,"[0.9, 0.5, 0.1]","[0.8, 0.4, 0.2]","[u'blue', u'red', u'black']","[u'left', u'middle', u'right']","[0.9, 0.5, 0.1]","[u'high', u'medium', u'low']","blue",49,"left","high","True","False",358,1200,NA
"A3CTXWISODY7D8","Wed Oct 28 2020 15:02:32 GMT-0400 (Eastern Daylight Time)","Wed Oct 28 2020 15:09:57 GMT-0400 (Eastern Daylight Time)","Mozilla/5.0 (Windows NT 6.1; Win64; x64) AppleWebKit/537.36 (KHTML, like Gecko) Chrome/86.0.4240.111 Safari/537.36    ",25,"[0.9, 0.5, 0.1]","[0.8, 0.4, 0.2]","[u'blue', u'red', u'black']","[u'left', u'middle', u'right']","[0.9, 0.5, 0.1]","[u'high', u'medium', u'low']","blue",49,"left","high","False","True",416,1150,NA
"A3CTXWISODY7D8","Wed Oct 28 2020 15:02:32 GMT-0400 (Eastern Daylight Time)","Wed Oct 28 2020 15:09:57 GMT-0400 (Eastern Daylight Time)","Mozilla/5.0 (Windows NT 6.1; Win64; x64) AppleWebKit/537.36 (KHTML, like Gecko) Chrome/86.0.4240.111 Safari/537.36    ",26,"[0.9, 0.5, 0.1]","[0.8, 0.4, 0.2]","[u'blue', u'red', u'black']","[u'left', u'middle', u'right']","[0.9, 0.5, 0.1]","[u'medium', u'high', u'low']","black",51,"right","low","False","False",244,1100,NA
"A3CTXWISODY7D8","Wed Oct 28 2020 15:02:32 GMT-0400 (Eastern Daylight Time)","Wed Oct 28 2020 15:09:57 GMT-0400 (Eastern Daylight Time)","Mozilla/5.0 (Windows NT 6.1; Win64; x64) AppleWebKit/537.36 (KHTML, like Gecko) Chrome/86.0.4240.111 Safari/537.36    ",27,"[0.9, 0.5, 0.1]","[0.8, 0.4, 0.2]","[u'blue', u'red', u'black']","[u'left', u'middle', u'right']","[0.9, 0.5, 0.1]","[u'medium', u'high', u'low']","red",50,"middle","high","True","False",104,1200,NA
"A3CTXWISODY7D8","Wed Oct 28 2020 15:02:32 GMT-0400 (Eastern Daylight Time)","Wed Oct 28 2020 15:09:57 GMT-0400 (Eastern Daylight Time)","Mozilla/5.0 (Windows NT 6.1; Win64; x64) AppleWebKit/537.36 (KHTML, like Gecko) Chrome/86.0.4240.111 Safari/537.36    ",28,"[0.9, 0.5, 0.1]","[0.8, 0.4, 0.2]","[u'blue', u'red', u'black']","[u'left', u'middle', u'right']","[0.9, 0.5, 0.1]","[u'medium', u'high', u'low']","red",50,"middle","high","False","False",307,1150,NA
"A3CTXWISODY7D8","Wed Oct 28 2020 15:02:32 GMT-0400 (Eastern Daylight Time)","Wed Oct 28 2020 15:09:57 GMT-0400 (Eastern Daylight Time)","Mozilla/5.0 (Windows NT 6.1; Win64; x64) AppleWebKit/537.36 (KHTML, like Gecko) Chrome/86.0.4240.111 Safari/537.36    ",29,"[0.9, 0.5, 0.1]","[0.8, 0.4, 0.2]","[u'blue', u'red', u'black']","[u'left', u'middle', u'right']","[0.9, 0.5, 0.1]","[u'medium', u'high', u'low']","blue",49,"left","medium","True","False",118,1250,NA
"A3CTXWISODY7D8","Wed Oct 28 2020 15:02:32 GMT-0400 (Eastern Daylight Time)","Wed Oct 28 2020 15:09:57 GMT-0400 (Eastern Daylight Time)","Mozilla/5.0 (Windows NT 6.1; Win64; x64) AppleWebKit/537.36 (KHTML, like Gecko) Chrome/86.0.4240.111 Safari/537.36    ",30,"[0.9, 0.5, 0.1]","[0.8, 0.4, 0.2]","[u'blue', u'red', u'black']","[u'left', u'middle', u'right']","[0.9, 0.5, 0.1]","[u'medium', u'high', u'low']","blue",49,"left","medium","False","False",318,1200,NA
"A3CTXWISODY7D8","Wed Oct 28 2020 15:02:32 GMT-0400 (Eastern Daylight Time)","Wed Oct 28 2020 15:09:57 GMT-0400 (Eastern Daylight Time)","Mozilla/5.0 (Windows NT 6.1; Win64; x64) AppleWebKit/537.36 (KHTML, like Gecko) Chrome/86.0.4240.111 Safari/537.36    ",31,"[0.9, 0.5, 0.1]","[0.8, 0.4, 0.2]","[u'blue', u'red', u'black']","[u'left', u'middle', u'right']","[0.9, 0.5, 0.1]","[u'medium', u'high', u'low']","red",50,"middle","high","True","False",292,1300,NA
"A3CTXWISODY7D8","Wed Oct 28 2020 15:02:32 GMT-0400 (Eastern Daylight Time)","Wed Oct 28 2020 15:09:57 GMT-0400 (Eastern Daylight Time)","Mozilla/5.0 (Windows NT 6.1; Win64; x64) AppleWebKit/537.36 (KHTML, like Gecko) Chrome/86.0.4240.111 Safari/537.36    ",32,"[0.9, 0.5, 0.1]","[0.8, 0.4, 0.2]","[u'blue', u'red', u'black']","[u'left', u'middle', u'right']","[0.9, 0.5, 0.1]","[u'medium', u'high', u'low']","red",50,"middle","high","True","False",286,1400,NA
"A3CTXWISODY7D8","Wed Oct 28 2020 15:02:32 GMT-0400 (Eastern Daylight Time)","Wed Oct 28 2020 15:09:57 GMT-0400 (Eastern Daylight Time)","Mozilla/5.0 (Windows NT 6.1; Win64; x64) AppleWebKit/537.36 (KHTML, like Gecko) Chrome/86.0.4240.111 Safari/537.36    ",33,"[0.9, 0.5, 0.1]","[0.8, 0.4, 0.2]","[u'blue', u'red', u'black']","[u'left', u'middle', u'right']","[0.9, 0.5, 0.1]","[u'medium', u'high', u'low']","red",50,"middle","high","True","False",321,1500,NA
"A3CTXWISODY7D8","Wed Oct 28 2020 15:02:32 GMT-0400 (Eastern Daylight Time)","Wed Oct 28 2020 15:09:57 GMT-0400 (Eastern Daylight Time)","Mozilla/5.0 (Windows NT 6.1; Win64; x64) AppleWebKit/537.36 (KHTML, like Gecko) Chrome/86.0.4240.111 Safari/537.36    ",34,"[0.9, 0.5, 0.1]","[0.8, 0.4, 0.2]","[u'blue', u'red', u'black']","[u'left', u'middle', u'right']","[0.9, 0.5, 0.1]","[u'medium', u'high', u'low']","red",50,"middle","high","True","False",368,1600,NA
"A3CTXWISODY7D8","Wed Oct 28 2020 15:02:32 GMT-0400 (Eastern Daylight Time)","Wed Oct 28 2020 15:09:57 GMT-0400 (Eastern Daylight Time)","Mozilla/5.0 (Windows NT 6.1; Win64; x64) AppleWebKit/537.36 (KHTML, like Gecko) Chrome/86.0.4240.111 Safari/537.36    ",35,"[0.9, 0.5, 0.1]","[0.8, 0.4, 0.2]","[u'blue', u'red', u'black']","[u'left', u'middle', u'right']","[0.9, 0.5, 0.1]","[u'medium', u'high', u'low']","red",50,"middle","high","True","False",281,1700,NA
"A3CTXWISODY7D8","Wed Oct 28 2020 15:02:32 GMT-0400 (Eastern Daylight Time)","Wed Oct 28 2020 15:09:57 GMT-0400 (Eastern Daylight Time)","Mozilla/5.0 (Windows NT 6.1; Win64; x64) AppleWebKit/537.36 (KHTML, like Gecko) Chrome/86.0.4240.111 Safari/537.36    ",36,"[0.9, 0.5, 0.1]","[0.8, 0.4, 0.2]","[u'blue', u'red', u'black']","[u'left', u'middle', u'right']","[0.9, 0.5, 0.1]","[u'medium', u'high', u'low']","red",50,"middle","high","True","False",476,1800,NA
"A3CTXWISODY7D8","Wed Oct 28 2020 15:02:32 GMT-0400 (Eastern Daylight Time)","Wed Oct 28 2020 15:09:57 GMT-0400 (Eastern Daylight Time)","Mozilla/5.0 (Windows NT 6.1; Win64; x64) AppleWebKit/537.36 (KHTML, like Gecko) Chrome/86.0.4240.111 Safari/537.36    ",37,"[0.9, 0.5, 0.1]","[0.8, 0.4, 0.2]","[u'blue', u'red', u'black']","[u'left', u'middle', u'right']","[0.9, 0.5, 0.1]","[u'medium', u'high', u'low']","red",50,"middle","high","False","False",607,1750,NA
"A3CTXWISODY7D8","Wed Oct 28 2020 15:02:32 GMT-0400 (Eastern Daylight Time)","Wed Oct 28 2020 15:09:57 GMT-0400 (Eastern Daylight Time)","Mozilla/5.0 (Windows NT 6.1; Win64; x64) AppleWebKit/537.36 (KHTML, like Gecko) Chrome/86.0.4240.111 Safari/537.36    ",38,"[0.9, 0.5, 0.1]","[0.8, 0.4, 0.2]","[u'blue', u'red', u'black']","[u'left', u'middle', u'right']","[0.9, 0.5, 0.1]","[u'medium', u'high', u'low']","blue",49,"left","medium","True","False",624,1850,NA
"A3CTXWISODY7D8","Wed Oct 28 2020 15:02:32 GMT-0400 (Eastern Daylight Time)","Wed Oct 28 2020 15:09:57 GMT-0400 (Eastern Daylight Time)","Mozilla/5.0 (Windows NT 6.1; Win64; x64) AppleWebKit/537.36 (KHTML, like Gecko) Chrome/86.0.4240.111 Safari/537.36    ",39,"[0.9, 0.5, 0.1]","[0.8, 0.4, 0.2]","[u'blue', u'red', u'black']","[u'left', u'middle', u'right']","[0.9, 0.5, 0.1]","[u'medium', u'high', u'low']","blue",49,"left","medium","True","False",372,1950,NA
"A3CTXWISODY7D8","Wed Oct 28 2020 15:02:32 GMT-0400 (Eastern Daylight Time)","Wed Oct 28 2020 15:09:57 GMT-0400 (Eastern Daylight Time)","Mozilla/5.0 (Windows NT 6.1; Win64; x64) AppleWebKit/537.36 (KHTML, like Gecko) Chrome/86.0.4240.111 Safari/537.36    ",40,"[0.9, 0.5, 0.1]","[0.8, 0.4, 0.2]","[u'blue', u'red', u'black']","[u'left', u'middle', u'right']","[0.9, 0.5, 0.1]","[u'medium', u'high', u'low']","blue",49,"left","medium","False","False",322,1900,NA
"A3CTXWISODY7D8","Wed Oct 28 2020 15:02:32 GMT-0400 (Eastern Daylight Time)","Wed Oct 28 2020 15:09:57 GMT-0400 (Eastern Daylight Time)","Mozilla/5.0 (Windows NT 6.1; Win64; x64) AppleWebKit/537.36 (KHTML, like Gecko) Chrome/86.0.4240.111 Safari/537.36    ",41,"[0.9, 0.5, 0.1]","[0.8, 0.4, 0.2]","[u'blue', u'red', u'black']","[u'left', u'middle', u'right']","[0.9, 0.5, 0.1]","[u'high', u'medium', u'low']","red",50,"middle","medium","False","False",756,1850,NA
"A3CTXWISODY7D8","Wed Oct 28 2020 15:02:32 GMT-0400 (Eastern Daylight Time)","Wed Oct 28 2020 15:09:57 GMT-0400 (Eastern Daylight Time)","Mozilla/5.0 (Windows NT 6.1; Win64; x64) AppleWebKit/537.36 (KHTML, like Gecko) Chrome/86.0.4240.111 Safari/537.36    ",42,"[0.9, 0.5, 0.1]","[0.8, 0.4, 0.2]","[u'blue', u'red', u'black']","[u'left', u'middle', u'right']","[0.9, 0.5, 0.1]","[u'high', u'medium', u'low']","red",50,"middle","medium","False","False",344,1800,NA
"A3CTXWISODY7D8","Wed Oct 28 2020 15:02:32 GMT-0400 (Eastern Daylight Time)","Wed Oct 28 2020 15:09:57 GMT-0400 (Eastern Daylight Time)","Mozilla/5.0 (Windows NT 6.1; Win64; x64) AppleWebKit/537.36 (KHTML, like Gecko) Chrome/86.0.4240.111 Safari/537.36    ",43,"[0.9, 0.5, 0.1]","[0.8, 0.4, 0.2]","[u'blue', u'red', u'black']","[u'left', u'middle', u'right']","[0.9, 0.5, 0.1]","[u'high', u'medium', u'low']","blue",49,"left","high","True","False",186,1900,NA
"A3CTXWISODY7D8","Wed Oct 28 2020 15:02:32 GMT-0400 (Eastern Daylight Time)","Wed Oct 28 2020 15:09:57 GMT-0400 (Eastern Daylight Time)","Mozilla/5.0 (Windows NT 6.1; Win64; x64) AppleWebKit/537.36 (KHTML, like Gecko) Chrome/86.0.4240.111 Safari/537.36    ",44,"[0.9, 0.5, 0.1]","[0.8, 0.4, 0.2]","[u'blue', u'red', u'black']","[u'left', u'middle', u'right']","[0.9, 0.5, 0.1]","[u'high', u'medium', u'low']","blue",49,"left","high","True","False",294,2000,NA
"A3CTXWISODY7D8","Wed Oct 28 2020 15:02:32 GMT-0400 (Eastern Daylight Time)","Wed Oct 28 2020 15:09:57 GMT-0400 (Eastern Daylight Time)","Mozilla/5.0 (Windows NT 6.1; Win64; x64) AppleWebKit/537.36 (KHTML, like Gecko) Chrome/86.0.4240.111 Safari/537.36    ",45,"[0.9, 0.5, 0.1]","[0.8, 0.4, 0.2]","[u'blue', u'red', u'black']","[u'left', u'middle', u'right']","[0.9, 0.5, 0.1]","[u'high', u'medium', u'low']","blue",49,"left","high","False","False",265,1950,NA
"A3CTXWISODY7D8","Wed Oct 28 2020 15:02:32 GMT-0400 (Eastern Daylight Time)","Wed Oct 28 2020 15:09:57 GMT-0400 (Eastern Daylight Time)","Mozilla/5.0 (Windows NT 6.1; Win64; x64) AppleWebKit/537.36 (KHTML, like Gecko) Chrome/86.0.4240.111 Safari/537.36    ",46,"[0.9, 0.5, 0.1]","[0.8, 0.4, 0.2]","[u'blue', u'red', u'black']","[u'left', u'middle', u'right']","[0.9, 0.5, 0.1]","[u'high', u'medium', u'low']","black",51,"right","low","True","False",287,2050,NA
"A3CTXWISODY7D8","Wed Oct 28 2020 15:02:32 GMT-0400 (Eastern Daylight Time)","Wed Oct 28 2020 15:09:57 GMT-0400 (Eastern Daylight Time)","Mozilla/5.0 (Windows NT 6.1; Win64; x64) AppleWebKit/537.36 (KHTML, like Gecko) Chrome/86.0.4240.111 Safari/537.36    ",47,"[0.9, 0.5, 0.1]","[0.8, 0.4, 0.2]","[u'blue', u'red', u'black']","[u'left', u'middle', u'right']","[0.9, 0.5, 0.1]","[u'high', u'medium', u'low']","black",51,"right","low","False","False",165,2000,NA
"A3CTXWISODY7D8","Wed Oct 28 2020 15:02:32 GMT-0400 (Eastern Daylight Time)","Wed Oct 28 2020 15:09:57 GMT-0400 (Eastern Daylight Time)","Mozilla/5.0 (Windows NT 6.1; Win64; x64) AppleWebKit/537.36 (KHTML, like Gecko) Chrome/86.0.4240.111 Safari/537.36    ",48,"[0.9, 0.5, 0.1]","[0.8, 0.4, 0.2]","[u'blue', u'red', u'black']","[u'left', u'middle', u'right']","[0.9, 0.5, 0.1]","[u'high', u'medium', u'low']","red",50,"middle","medium","True","False",304,2100,NA
"A3CTXWISODY7D8","Wed Oct 28 2020 15:02:32 GMT-0400 (Eastern Daylight Time)","Wed Oct 28 2020 15:09:57 GMT-0400 (Eastern Daylight Time)","Mozilla/5.0 (Windows NT 6.1; Win64; x64) AppleWebKit/537.36 (KHTML, like Gecko) Chrome/86.0.4240.111 Safari/537.36    ",49,"[0.9, 0.5, 0.1]","[0.8, 0.4, 0.2]","[u'blue', u'red', u'black']","[u'left', u'middle', u'right']","[0.9, 0.5, 0.1]","[u'high', u'medium', u'low']","red",50,"middle","medium","True","False",245,2200,NA
"A3CTXWISODY7D8","Wed Oct 28 2020 15:02:32 GMT-0400 (Eastern Daylight Time)","Wed Oct 28 2020 15:09:57 GMT-0400 (Eastern Daylight Time)","Mozilla/5.0 (Windows NT 6.1; Win64; x64) AppleWebKit/537.36 (KHTML, like Gecko) Chrome/86.0.4240.111 Safari/537.36    ",50,"[0.9, 0.5, 0.1]","[0.8, 0.4, 0.2]","[u'blue', u'red', u'black']","[u'left', u'middle', u'right']","[0.9, 0.5, 0.1]","[u'high', u'medium', u'low']","red",50,"middle","medium","False","False",325,2150,NA
"A3CTXWISODY7D8","Wed Oct 28 2020 15:02:32 GMT-0400 (Eastern Daylight Time)","Wed Oct 28 2020 15:09:57 GMT-0400 (Eastern Daylight Time)","Mozilla/5.0 (Windows NT 6.1; Win64; x64) AppleWebKit/537.36 (KHTML, like Gecko) Chrome/86.0.4240.111 Safari/537.36    ",51,"[0.9, 0.5, 0.1]","[0.8, 0.4, 0.2]","[u'blue', u'red', u'black']","[u'left', u'middle', u'right']","[0.9, 0.5, 0.1]","[u'high', u'medium', u'low']","black",51,"right","low","False","False",273,2100,NA
"A3CTXWISODY7D8","Wed Oct 28 2020 15:02:32 GMT-0400 (Eastern Daylight Time)","Wed Oct 28 2020 15:09:57 GMT-0400 (Eastern Daylight Time)","Mozilla/5.0 (Windows NT 6.1; Win64; x64) AppleWebKit/537.36 (KHTML, like Gecko) Chrome/86.0.4240.111 Safari/537.36    ",52,"[0.9, 0.5, 0.1]","[0.8, 0.4, 0.2]","[u'blue', u'red', u'black']","[u'left', u'middle', u'right']","[0.9, 0.5, 0.1]","[u'high', u'medium', u'low']","blue",49,"left","high","True","False",275,2200,NA
"A3CTXWISODY7D8","Wed Oct 28 2020 15:02:32 GMT-0400 (Eastern Daylight Time)","Wed Oct 28 2020 15:09:57 GMT-0400 (Eastern Daylight Time)","Mozilla/5.0 (Windows NT 6.1; Win64; x64) AppleWebKit/537.36 (KHTML, like Gecko) Chrome/86.0.4240.111 Safari/537.36    ",53,"[0.9, 0.5, 0.1]","[0.8, 0.4, 0.2]","[u'blue', u'red', u'black']","[u'left', u'middle', u'right']","[0.9, 0.5, 0.1]","[u'high', u'medium', u'low']","blue",49,"left","high","True","False",316,2300,NA
"A3CTXWISODY7D8","Wed Oct 28 2020 15:02:32 GMT-0400 (Eastern Daylight Time)","Wed Oct 28 2020 15:09:57 GMT-0400 (Eastern Daylight Time)","Mozilla/5.0 (Windows NT 6.1; Win64; x64) AppleWebKit/537.36 (KHTML, like Gecko) Chrome/86.0.4240.111 Safari/537.36    ",54,"[0.9, 0.5, 0.1]","[0.8, 0.4, 0.2]","[u'blue', u'red', u'black']","[u'left', u'middle', u'right']","[0.9, 0.5, 0.1]","[u'high', u'medium', u'low']","blue",49,"left","high","False","False",352,2250,NA
"A3CTXWISODY7D8","Wed Oct 28 2020 15:02:32 GMT-0400 (Eastern Daylight Time)","Wed Oct 28 2020 15:09:57 GMT-0400 (Eastern Daylight Time)","Mozilla/5.0 (Windows NT 6.1; Win64; x64) AppleWebKit/537.36 (KHTML, like Gecko) Chrome/86.0.4240.111 Safari/537.36    ",55,"[0.9, 0.5, 0.1]","[0.8, 0.4, 0.2]","[u'blue', u'red', u'black']","[u'left', u'middle', u'right']","[0.9, 0.5, 0.1]","[u'high', u'medium', u'low']","blue",49,"left","high","True","False",295,2350,NA
"A3CTXWISODY7D8","Wed Oct 28 2020 15:02:32 GMT-0400 (Eastern Daylight Time)","Wed Oct 28 2020 15:09:57 GMT-0400 (Eastern Daylight Time)","Mozilla/5.0 (Windows NT 6.1; Win64; x64) AppleWebKit/537.36 (KHTML, like Gecko) Chrome/86.0.4240.111 Safari/537.36    ",56,"[0.9, 0.5, 0.1]","[0.8, 0.4, 0.2]","[u'blue', u'red', u'black']","[u'left', u'middle', u'right']","[0.9, 0.5, 0.1]","[u'high', u'medium', u'low']","blue",49,"left","high","True","False",348,2450,NA
"A3CTXWISODY7D8","Wed Oct 28 2020 15:02:32 GMT-0400 (Eastern Daylight Time)","Wed Oct 28 2020 15:09:57 GMT-0400 (Eastern Daylight Time)","Mozilla/5.0 (Windows NT 6.1; Win64; x64) AppleWebKit/537.36 (KHTML, like Gecko) Chrome/86.0.4240.111 Safari/537.36    ",57,"[0.9, 0.5, 0.1]","[0.8, 0.4, 0.2]","[u'blue', u'red', u'black']","[u'left', u'middle', u'right']","[0.9, 0.5, 0.1]","[u'high', u'medium', u'low']","blue",49,"left","high","True","False",265,2550,NA
"A3CTXWISODY7D8","Wed Oct 28 2020 15:02:32 GMT-0400 (Eastern Daylight Time)","Wed Oct 28 2020 15:09:57 GMT-0400 (Eastern Daylight Time)","Mozilla/5.0 (Windows NT 6.1; Win64; x64) AppleWebKit/537.36 (KHTML, like Gecko) Chrome/86.0.4240.111 Safari/537.36    ",58,"[0.9, 0.5, 0.1]","[0.8, 0.4, 0.2]","[u'blue', u'red', u'black']","[u'left', u'middle', u'right']","[0.9, 0.5, 0.1]","[u'high', u'medium', u'low']","red",50,"middle","medium","False","False",283,2500,NA
"A3CTXWISODY7D8","Wed Oct 28 2020 15:02:32 GMT-0400 (Eastern Daylight Time)","Wed Oct 28 2020 15:09:57 GMT-0400 (Eastern Daylight Time)","Mozilla/5.0 (Windows NT 6.1; Win64; x64) AppleWebKit/537.36 (KHTML, like Gecko) Chrome/86.0.4240.111 Safari/537.36    ",59,"[0.9, 0.5, 0.1]","[0.8, 0.4, 0.2]","[u'blue', u'red', u'black']","[u'left', u'middle', u'right']","[0.9, 0.5, 0.1]","[u'high', u'medium', u'low']","blue",49,"left","high","True","False",332,2600,NA
"A3CTXWISODY7D8","Wed Oct 28 2020 15:02:32 GMT-0400 (Eastern Daylight Time)","Wed Oct 28 2020 15:09:57 GMT-0400 (Eastern Daylight Time)","Mozilla/5.0 (Windows NT 6.1; Win64; x64) AppleWebKit/537.36 (KHTML, like Gecko) Chrome/86.0.4240.111 Safari/537.36    ",60,"[0.9, 0.5, 0.1]","[0.8, 0.4, 0.2]","[u'blue', u'red', u'black']","[u'left', u'middle', u'right']","[0.9, 0.5, 0.1]","[u'high', u'medium', u'low']","blue",49,"left","high","True","False",300,2700,NA
"A3CTXWISODY7D8","Wed Oct 28 2020 15:02:32 GMT-0400 (Eastern Daylight Time)","Wed Oct 28 2020 15:09:57 GMT-0400 (Eastern Daylight Time)","Mozilla/5.0 (Windows NT 6.1; Win64; x64) AppleWebKit/537.36 (KHTML, like Gecko) Chrome/86.0.4240.111 Safari/537.36    ",61,"[0.9, 0.5, 0.1]","[0.8, 0.4, 0.2]","[u'blue', u'red', u'black']","[u'left', u'middle', u'right']","[0.9, 0.5, 0.1]","[u'high', u'medium', u'low']","black",51,"right","low","True","False",287,2800,NA
"A3CTXWISODY7D8","Wed Oct 28 2020 15:02:32 GMT-0400 (Eastern Daylight Time)","Wed Oct 28 2020 15:09:57 GMT-0400 (Eastern Daylight Time)","Mozilla/5.0 (Windows NT 6.1; Win64; x64) AppleWebKit/537.36 (KHTML, like Gecko) Chrome/86.0.4240.111 Safari/537.36    ",62,"[0.9, 0.5, 0.1]","[0.8, 0.4, 0.2]","[u'blue', u'red', u'black']","[u'left', u'middle', u'right']","[0.9, 0.5, 0.1]","[u'high', u'medium', u'low']","blue",49,"left","high","True","False",256,2900,NA
"A3CTXWISODY7D8","Wed Oct 28 2020 15:02:32 GMT-0400 (Eastern Daylight Time)","Wed Oct 28 2020 15:09:57 GMT-0400 (Eastern Daylight Time)","Mozilla/5.0 (Windows NT 6.1; Win64; x64) AppleWebKit/537.36 (KHTML, like Gecko) Chrome/86.0.4240.111 Safari/537.36    ",63,"[0.9, 0.5, 0.1]","[0.8, 0.4, 0.2]","[u'blue', u'red', u'black']","[u'left', u'middle', u'right']","[0.9, 0.5, 0.1]","[u'high', u'medium', u'low']","blue",49,"left","high","True","False",322,3000,NA
"A3CTXWISODY7D8","Wed Oct 28 2020 15:02:32 GMT-0400 (Eastern Daylight Time)","Wed Oct 28 2020 15:09:57 GMT-0400 (Eastern Daylight Time)","Mozilla/5.0 (Windows NT 6.1; Win64; x64) AppleWebKit/537.36 (KHTML, like Gecko) Chrome/86.0.4240.111 Safari/537.36    ",64,"[0.9, 0.5, 0.1]","[0.8, 0.4, 0.2]","[u'blue', u'red', u'black']","[u'left', u'middle', u'right']","[0.9, 0.5, 0.1]","[u'high', u'medium', u'low']","blue",49,"left","high","False","False",353,2950,NA
"A3CTXWISODY7D8","Wed Oct 28 2020 15:02:32 GMT-0400 (Eastern Daylight Time)","Wed Oct 28 2020 15:09:57 GMT-0400 (Eastern Daylight Time)","Mozilla/5.0 (Windows NT 6.1; Win64; x64) AppleWebKit/537.36 (KHTML, like Gecko) Chrome/86.0.4240.111 Safari/537.36    ",65,"[0.9, 0.5, 0.1]","[0.8, 0.4, 0.2]","[u'blue', u'red', u'black']","[u'left', u'middle', u'right']","[0.9, 0.5, 0.1]","[u'high', u'medium', u'low']","red",50,"middle","medium","False","False",381,2900,NA
"A3CTXWISODY7D8","Wed Oct 28 2020 15:02:32 GMT-0400 (Eastern Daylight Time)","Wed Oct 28 2020 15:09:57 GMT-0400 (Eastern Daylight Time)","Mozilla/5.0 (Windows NT 6.1; Win64; x64) AppleWebKit/537.36 (KHTML, like Gecko) Chrome/86.0.4240.111 Safari/537.36    ",66,"[0.9, 0.5, 0.1]","[0.8, 0.4, 0.2]","[u'blue', u'red', u'black']","[u'left', u'middle', u'right']","[0.9, 0.5, 0.1]","[u'high', u'medium', u'low']","blue",49,"left","high","True","False",296,3000,NA
"A3CTXWISODY7D8","Wed Oct 28 2020 15:02:32 GMT-0400 (Eastern Daylight Time)","Wed Oct 28 2020 15:09:57 GMT-0400 (Eastern Daylight Time)","Mozilla/5.0 (Windows NT 6.1; Win64; x64) AppleWebKit/537.36 (KHTML, like Gecko) Chrome/86.0.4240.111 Safari/537.36    ",67,"[0.9, 0.5, 0.1]","[0.8, 0.4, 0.2]","[u'blue', u'red', u'black']","[u'left', u'middle', u'right']","[0.9, 0.5, 0.1]","[u'high', u'medium', u'low']","blue",49,"left","high","False","False",307,2950,NA
"A3CTXWISODY7D8","Wed Oct 28 2020 15:02:32 GMT-0400 (Eastern Daylight Time)","Wed Oct 28 2020 15:09:57 GMT-0400 (Eastern Daylight Time)","Mozilla/5.0 (Windows NT 6.1; Win64; x64) AppleWebKit/537.36 (KHTML, like Gecko) Chrome/86.0.4240.111 Safari/537.36    ",68,"[0.9, 0.5, 0.1]","[0.8, 0.4, 0.2]","[u'blue', u'red', u'black']","[u'left', u'middle', u'right']","[0.9, 0.5, 0.1]","[u'high', u'medium', u'low']","blue",49,"left","high","True","False",295,3050,NA
"A3CTXWISODY7D8","Wed Oct 28 2020 15:02:32 GMT-0400 (Eastern Daylight Time)","Wed Oct 28 2020 15:09:57 GMT-0400 (Eastern Daylight Time)","Mozilla/5.0 (Windows NT 6.1; Win64; x64) AppleWebKit/537.36 (KHTML, like Gecko) Chrome/86.0.4240.111 Safari/537.36    ",69,"[0.9, 0.5, 0.1]","[0.8, 0.4, 0.2]","[u'blue', u'red', u'black']","[u'left', u'middle', u'right']","[0.9, 0.5, 0.1]","[u'high', u'medium', u'low']","black",51,"right","low","False","False",273,3000,NA
"A3CTXWISODY7D8","Wed Oct 28 2020 15:02:32 GMT-0400 (Eastern Daylight Time)","Wed Oct 28 2020 15:09:57 GMT-0400 (Eastern Daylight Time)","Mozilla/5.0 (Windows NT 6.1; Win64; x64) AppleWebKit/537.36 (KHTML, like Gecko) Chrome/86.0.4240.111 Safari/537.36    ",70,"[0.9, 0.5, 0.1]","[0.8, 0.4, 0.2]","[u'blue', u'red', u'black']","[u'left', u'middle', u'right']","[0.9, 0.5, 0.1]","[u'high', u'medium', u'low']","blue",49,"left","high","True","False",204,3100,NA
"A3CTXWISODY7D8","Wed Oct 28 2020 15:02:32 GMT-0400 (Eastern Daylight Time)","Wed Oct 28 2020 15:09:57 GMT-0400 (Eastern Daylight Time)","Mozilla/5.0 (Windows NT 6.1; Win64; x64) AppleWebKit/537.36 (KHTML, like Gecko) Chrome/86.0.4240.111 Safari/537.36    ",71,"[0.9, 0.5, 0.1]","[0.8, 0.4, 0.2]","[u'blue', u'red', u'black']","[u'left', u'middle', u'right']","[0.9, 0.5, 0.1]","[u'high', u'medium', u'low']","red",50,"middle","medium","False","False",374,3050,NA
"A3CTXWISODY7D8","Wed Oct 28 2020 15:02:32 GMT-0400 (Eastern Daylight Time)","Wed Oct 28 2020 15:09:57 GMT-0400 (Eastern Daylight Time)","Mozilla/5.0 (Windows NT 6.1; Win64; x64) AppleWebKit/537.36 (KHTML, like Gecko) Chrome/86.0.4240.111 Safari/537.36    ",72,"[0.9, 0.5, 0.1]","[0.8, 0.4, 0.2]","[u'blue', u'red', u'black']","[u'left', u'middle', u'right']","[0.9, 0.5, 0.1]","[u'high', u'medium', u'low']","blue",49,"left","high","True","False",186,3150,NA
"A3CTXWISODY7D8","Wed Oct 28 2020 15:02:32 GMT-0400 (Eastern Daylight Time)","Wed Oct 28 2020 15:09:57 GMT-0400 (Eastern Daylight Time)","Mozilla/5.0 (Windows NT 6.1; Win64; x64) AppleWebKit/537.36 (KHTML, like Gecko) Chrome/86.0.4240.111 Safari/537.36    ",73,"[0.9, 0.5, 0.1]","[0.8, 0.4, 0.2]","[u'blue', u'red', u'black']","[u'left', u'middle', u'right']","[0.9, 0.5, 0.1]","[u'high', u'medium', u'low']","blue",49,"left","high","True","False",328,3250,NA
"A3CTXWISODY7D8","Wed Oct 28 2020 15:02:32 GMT-0400 (Eastern Daylight Time)","Wed Oct 28 2020 15:09:57 GMT-0400 (Eastern Daylight Time)","Mozilla/5.0 (Windows NT 6.1; Win64; x64) AppleWebKit/537.36 (KHTML, like Gecko) Chrome/86.0.4240.111 Safari/537.36    ",74,"[0.9, 0.5, 0.1]","[0.8, 0.4, 0.2]","[u'blue', u'red', u'black']","[u'left', u'middle', u'right']","[0.9, 0.5, 0.1]","[u'high', u'medium', u'low']","blue",49,"left","high","True","False",338,3350,NA
"A3CTXWISODY7D8","Wed Oct 28 2020 15:02:32 GMT-0400 (Eastern Daylight Time)","Wed Oct 28 2020 15:09:57 GMT-0400 (Eastern Daylight Time)","Mozilla/5.0 (Windows NT 6.1; Win64; x64) AppleWebKit/537.36 (KHTML, like Gecko) Chrome/86.0.4240.111 Safari/537.36    ",75,"[0.9, 0.5, 0.1]","[0.8, 0.4, 0.2]","[u'blue', u'red', u'black']","[u'left', u'middle', u'right']","[0.9, 0.5, 0.1]","[u'high', u'medium', u'low']","blue",49,"left","high","True","False",239,3450,NA
"A3CTXWISODY7D8","Wed Oct 28 2020 15:02:32 GMT-0400 (Eastern Daylight Time)","Wed Oct 28 2020 15:09:57 GMT-0400 (Eastern Daylight Time)","Mozilla/5.0 (Windows NT 6.1; Win64; x64) AppleWebKit/537.36 (KHTML, like Gecko) Chrome/86.0.4240.111 Safari/537.36    ",76,"[0.9, 0.5, 0.1]","[0.8, 0.4, 0.2]","[u'blue', u'red', u'black']","[u'left', u'middle', u'right']","[0.9, 0.5, 0.1]","[u'high', u'medium', u'low']","blue",49,"left","high","False","False",273,3400,NA
"A3CTXWISODY7D8","Wed Oct 28 2020 15:02:32 GMT-0400 (Eastern Daylight Time)","Wed Oct 28 2020 15:09:57 GMT-0400 (Eastern Daylight Time)","Mozilla/5.0 (Windows NT 6.1; Win64; x64) AppleWebKit/537.36 (KHTML, like Gecko) Chrome/86.0.4240.111 Safari/537.36    ",77,"[0.9, 0.5, 0.1]","[0.8, 0.4, 0.2]","[u'blue', u'red', u'black']","[u'left', u'middle', u'right']","[0.9, 0.5, 0.1]","[u'high', u'medium', u'low']","blue",49,"left","high","False","False",230,3350,NA
"A3CTXWISODY7D8","Wed Oct 28 2020 15:02:32 GMT-0400 (Eastern Daylight Time)","Wed Oct 28 2020 15:09:57 GMT-0400 (Eastern Daylight Time)","Mozilla/5.0 (Windows NT 6.1; Win64; x64) AppleWebKit/537.36 (KHTML, like Gecko) Chrome/86.0.4240.111 Safari/537.36    ",78,"[0.9, 0.5, 0.1]","[0.8, 0.4, 0.2]","[u'blue', u'red', u'black']","[u'left', u'middle', u'right']","[0.9, 0.5, 0.1]","[u'high', u'medium', u'low']","blue",49,"left","high","True","False",385,3450,NA
"A3CTXWISODY7D8","Wed Oct 28 2020 15:02:32 GMT-0400 (Eastern Daylight Time)","Wed Oct 28 2020 15:09:57 GMT-0400 (Eastern Daylight Time)","Mozilla/5.0 (Windows NT 6.1; Win64; x64) AppleWebKit/537.36 (KHTML, like Gecko) Chrome/86.0.4240.111 Safari/537.36    ",79,"[0.9, 0.5, 0.1]","[0.8, 0.4, 0.2]","[u'blue', u'red', u'black']","[u'left', u'middle', u'right']","[0.9, 0.5, 0.1]","[u'high', u'medium', u'low']","blue",49,"left","high","True","True",116,3550,NA
"A3CTXWISODY7D8","Wed Oct 28 2020 15:02:32 GMT-0400 (Eastern Daylight Time)","Wed Oct 28 2020 15:09:57 GMT-0400 (Eastern Daylight Time)","Mozilla/5.0 (Windows NT 6.1; Win64; x64) AppleWebKit/537.36 (KHTML, like Gecko) Chrome/86.0.4240.111 Safari/537.36    ",80,"[0.9, 0.5, 0.1]","[0.8, 0.4, 0.2]","[u'blue', u'red', u'black']","[u'left', u'middle', u'right']","[0.9, 0.5, 0.1]","[u'low', u'high', u'medium']","blue",49,"left","low","False","False",364,3500,NA
"A3CTXWISODY7D8","Wed Oct 28 2020 15:02:32 GMT-0400 (Eastern Daylight Time)","Wed Oct 28 2020 15:09:57 GMT-0400 (Eastern Daylight Time)","Mozilla/5.0 (Windows NT 6.1; Win64; x64) AppleWebKit/537.36 (KHTML, like Gecko) Chrome/86.0.4240.111 Safari/537.36    ",81,"[0.9, 0.5, 0.1]","[0.8, 0.4, 0.2]","[u'blue', u'red', u'black']","[u'left', u'middle', u'right']","[0.8, 0.4, 0.2]","[u'medium', u'low', u'high']","black",51,"right","high","True","False",817,3600,NA
"A3CTXWISODY7D8","Wed Oct 28 2020 15:02:32 GMT-0400 (Eastern Daylight Time)","Wed Oct 28 2020 15:09:57 GMT-0400 (Eastern Daylight Time)","Mozilla/5.0 (Windows NT 6.1; Win64; x64) AppleWebKit/537.36 (KHTML, like Gecko) Chrome/86.0.4240.111 Safari/537.36    ",82,"[0.9, 0.5, 0.1]","[0.8, 0.4, 0.2]","[u'blue', u'red', u'black']","[u'left', u'middle', u'right']","[0.8, 0.4, 0.2]","[u'medium', u'low', u'high']","black",51,"right","high","True","False",267,3700,NA
"A3CTXWISODY7D8","Wed Oct 28 2020 15:02:32 GMT-0400 (Eastern Daylight Time)","Wed Oct 28 2020 15:09:57 GMT-0400 (Eastern Daylight Time)","Mozilla/5.0 (Windows NT 6.1; Win64; x64) AppleWebKit/537.36 (KHTML, like Gecko) Chrome/86.0.4240.111 Safari/537.36    ",83,"[0.9, 0.5, 0.1]","[0.8, 0.4, 0.2]","[u'blue', u'red', u'black']","[u'left', u'middle', u'right']","[0.8, 0.4, 0.2]","[u'medium', u'low', u'high']","black",51,"right","high","True","False",298,3800,NA
"A3CTXWISODY7D8","Wed Oct 28 2020 15:02:32 GMT-0400 (Eastern Daylight Time)","Wed Oct 28 2020 15:09:57 GMT-0400 (Eastern Daylight Time)","Mozilla/5.0 (Windows NT 6.1; Win64; x64) AppleWebKit/537.36 (KHTML, like Gecko) Chrome/86.0.4240.111 Safari/537.36    ",84,"[0.9, 0.5, 0.1]","[0.8, 0.4, 0.2]","[u'blue', u'red', u'black']","[u'left', u'middle', u'right']","[0.8, 0.4, 0.2]","[u'medium', u'low', u'high']","red",50,"middle","low","False","False",139,3750,NA
"A3CTXWISODY7D8","Wed Oct 28 2020 15:02:32 GMT-0400 (Eastern Daylight Time)","Wed Oct 28 2020 15:09:57 GMT-0400 (Eastern Daylight Time)","Mozilla/5.0 (Windows NT 6.1; Win64; x64) AppleWebKit/537.36 (KHTML, like Gecko) Chrome/86.0.4240.111 Safari/537.36    ",85,"[0.9, 0.5, 0.1]","[0.8, 0.4, 0.2]","[u'blue', u'red', u'black']","[u'left', u'middle', u'right']","[0.8, 0.4, 0.2]","[u'medium', u'low', u'high']","red",50,"middle","low","False","False",183,3700,NA
"A3CTXWISODY7D8","Wed Oct 28 2020 15:02:32 GMT-0400 (Eastern Daylight Time)","Wed Oct 28 2020 15:09:57 GMT-0400 (Eastern Daylight Time)","Mozilla/5.0 (Windows NT 6.1; Win64; x64) AppleWebKit/537.36 (KHTML, like Gecko) Chrome/86.0.4240.111 Safari/537.36    ",86,"[0.9, 0.5, 0.1]","[0.8, 0.4, 0.2]","[u'blue', u'red', u'black']","[u'left', u'middle', u'right']","[0.8, 0.4, 0.2]","[u'medium', u'low', u'high']","black",51,"right","high","False","False",516,3650,NA
"A3CTXWISODY7D8","Wed Oct 28 2020 15:02:32 GMT-0400 (Eastern Daylight Time)","Wed Oct 28 2020 15:09:57 GMT-0400 (Eastern Daylight Time)","Mozilla/5.0 (Windows NT 6.1; Win64; x64) AppleWebKit/537.36 (KHTML, like Gecko) Chrome/86.0.4240.111 Safari/537.36    ",87,"[0.9, 0.5, 0.1]","[0.8, 0.4, 0.2]","[u'blue', u'red', u'black']","[u'left', u'middle', u'right']","[0.8, 0.4, 0.2]","[u'medium', u'low', u'high']","blue",49,"left","medium","False","False",197,3600,NA
"A3CTXWISODY7D8","Wed Oct 28 2020 15:02:32 GMT-0400 (Eastern Daylight Time)","Wed Oct 28 2020 15:09:57 GMT-0400 (Eastern Daylight Time)","Mozilla/5.0 (Windows NT 6.1; Win64; x64) AppleWebKit/537.36 (KHTML, like Gecko) Chrome/86.0.4240.111 Safari/537.36    ",88,"[0.9, 0.5, 0.1]","[0.8, 0.4, 0.2]","[u'blue', u'red', u'black']","[u'left', u'middle', u'right']","[0.8, 0.4, 0.2]","[u'medium', u'low', u'high']","black",51,"right","high","True","False",175,3700,NA
"A3CTXWISODY7D8","Wed Oct 28 2020 15:02:32 GMT-0400 (Eastern Daylight Time)","Wed Oct 28 2020 15:09:57 GMT-0400 (Eastern Daylight Time)","Mozilla/5.0 (Windows NT 6.1; Win64; x64) AppleWebKit/537.36 (KHTML, like Gecko) Chrome/86.0.4240.111 Safari/537.36    ",89,"[0.9, 0.5, 0.1]","[0.8, 0.4, 0.2]","[u'blue', u'red', u'black']","[u'left', u'middle', u'right']","[0.8, 0.4, 0.2]","[u'medium', u'low', u'high']","black",51,"right","high","True","False",225,3800,NA
"A3CTXWISODY7D8","Wed Oct 28 2020 15:02:32 GMT-0400 (Eastern Daylight Time)","Wed Oct 28 2020 15:09:57 GMT-0400 (Eastern Daylight Time)","Mozilla/5.0 (Windows NT 6.1; Win64; x64) AppleWebKit/537.36 (KHTML, like Gecko) Chrome/86.0.4240.111 Safari/537.36    ",90,"[0.9, 0.5, 0.1]","[0.8, 0.4, 0.2]","[u'blue', u'red', u'black']","[u'left', u'middle', u'right']","[0.8, 0.4, 0.2]","[u'medium', u'low', u'high']","black",51,"right","high","True","False",274,3900,NA
"A3CTXWISODY7D8","Wed Oct 28 2020 15:02:32 GMT-0400 (Eastern Daylight Time)","Wed Oct 28 2020 15:09:57 GMT-0400 (Eastern Daylight Time)","Mozilla/5.0 (Windows NT 6.1; Win64; x64) AppleWebKit/537.36 (KHTML, like Gecko) Chrome/86.0.4240.111 Safari/537.36    ",91,"[0.9, 0.5, 0.1]","[0.8, 0.4, 0.2]","[u'blue', u'red', u'black']","[u'left', u'middle', u'right']","[0.8, 0.4, 0.2]","[u'medium', u'low', u'high']","black",51,"right","high","True","False",339,4000,NA
"A3CTXWISODY7D8","Wed Oct 28 2020 15:02:32 GMT-0400 (Eastern Daylight Time)","Wed Oct 28 2020 15:09:57 GMT-0400 (Eastern Daylight Time)","Mozilla/5.0 (Windows NT 6.1; Win64; x64) AppleWebKit/537.36 (KHTML, like Gecko) Chrome/86.0.4240.111 Safari/537.36    ",92,"[0.9, 0.5, 0.1]","[0.8, 0.4, 0.2]","[u'blue', u'red', u'black']","[u'left', u'middle', u'right']","[0.8, 0.4, 0.2]","[u'medium', u'low', u'high']","black",51,"right","high","True","False",314,4100,NA
"A3CTXWISODY7D8","Wed Oct 28 2020 15:02:32 GMT-0400 (Eastern Daylight Time)","Wed Oct 28 2020 15:09:57 GMT-0400 (Eastern Daylight Time)","Mozilla/5.0 (Windows NT 6.1; Win64; x64) AppleWebKit/537.36 (KHTML, like Gecko) Chrome/86.0.4240.111 Safari/537.36    ",93,"[0.9, 0.5, 0.1]","[0.8, 0.4, 0.2]","[u'blue', u'red', u'black']","[u'left', u'middle', u'right']","[0.8, 0.4, 0.2]","[u'medium', u'low', u'high']","black",51,"right","high","True","False",314,4200,NA
"A3CTXWISODY7D8","Wed Oct 28 2020 15:02:32 GMT-0400 (Eastern Daylight Time)","Wed Oct 28 2020 15:09:57 GMT-0400 (Eastern Daylight Time)","Mozilla/5.0 (Windows NT 6.1; Win64; x64) AppleWebKit/537.36 (KHTML, like Gecko) Chrome/86.0.4240.111 Safari/537.36    ",94,"[0.9, 0.5, 0.1]","[0.8, 0.4, 0.2]","[u'blue', u'red', u'black']","[u'left', u'middle', u'right']","[0.8, 0.4, 0.2]","[u'medium', u'low', u'high']","black",51,"right","high","True","False",469,4300,NA
"A3CTXWISODY7D8","Wed Oct 28 2020 15:02:32 GMT-0400 (Eastern Daylight Time)","Wed Oct 28 2020 15:09:57 GMT-0400 (Eastern Daylight Time)","Mozilla/5.0 (Windows NT 6.1; Win64; x64) AppleWebKit/537.36 (KHTML, like Gecko) Chrome/86.0.4240.111 Safari/537.36    ",95,"[0.9, 0.5, 0.1]","[0.8, 0.4, 0.2]","[u'blue', u'red', u'black']","[u'left', u'middle', u'right']","[0.8, 0.4, 0.2]","[u'medium', u'low', u'high']","black",51,"right","high","True","True",655,4400,NA
"A3CTXWISODY7D8","Wed Oct 28 2020 15:02:32 GMT-0400 (Eastern Daylight Time)","Wed Oct 28 2020 15:09:57 GMT-0400 (Eastern Daylight Time)","Mozilla/5.0 (Windows NT 6.1; Win64; x64) AppleWebKit/537.36 (KHTML, like Gecko) Chrome/86.0.4240.111 Safari/537.36    ",96,"[0.9, 0.5, 0.1]","[0.8, 0.4, 0.2]","[u'blue', u'red', u'black']","[u'left', u'middle', u'right']","[0.8, 0.4, 0.2]","[u'low', u'high', u'medium']","black",51,"right","medium","True","False",320,4500,NA
"A3CTXWISODY7D8","Wed Oct 28 2020 15:02:32 GMT-0400 (Eastern Daylight Time)","Wed Oct 28 2020 15:09:57 GMT-0400 (Eastern Daylight Time)","Mozilla/5.0 (Windows NT 6.1; Win64; x64) AppleWebKit/537.36 (KHTML, like Gecko) Chrome/86.0.4240.111 Safari/537.36    ",97,"[0.9, 0.5, 0.1]","[0.8, 0.4, 0.2]","[u'blue', u'red', u'black']","[u'left', u'middle', u'right']","[0.8, 0.4, 0.2]","[u'low', u'high', u'medium']","black",51,"right","medium","False","False",399,4450,NA
"A3CTXWISODY7D8","Wed Oct 28 2020 15:02:32 GMT-0400 (Eastern Daylight Time)","Wed Oct 28 2020 15:09:57 GMT-0400 (Eastern Daylight Time)","Mozilla/5.0 (Windows NT 6.1; Win64; x64) AppleWebKit/537.36 (KHTML, like Gecko) Chrome/86.0.4240.111 Safari/537.36    ",98,"[0.9, 0.5, 0.1]","[0.8, 0.4, 0.2]","[u'blue', u'red', u'black']","[u'left', u'middle', u'right']","[0.8, 0.4, 0.2]","[u'low', u'high', u'medium']","black",51,"right","medium","True","False",83,4550,NA
"A3CTXWISODY7D8","Wed Oct 28 2020 15:02:32 GMT-0400 (Eastern Daylight Time)","Wed Oct 28 2020 15:09:57 GMT-0400 (Eastern Daylight Time)","Mozilla/5.0 (Windows NT 6.1; Win64; x64) AppleWebKit/537.36 (KHTML, like Gecko) Chrome/86.0.4240.111 Safari/537.36    ",99,"[0.9, 0.5, 0.1]","[0.8, 0.4, 0.2]","[u'blue', u'red', u'black']","[u'left', u'middle', u'right']","[0.8, 0.4, 0.2]","[u'low', u'high', u'medium']","black",51,"right","medium","True","False",394,4650,NA
"A3CTXWISODY7D8","Wed Oct 28 2020 15:02:32 GMT-0400 (Eastern Daylight Time)","Wed Oct 28 2020 15:09:57 GMT-0400 (Eastern Daylight Time)","Mozilla/5.0 (Windows NT 6.1; Win64; x64) AppleWebKit/537.36 (KHTML, like Gecko) Chrome/86.0.4240.111 Safari/537.36    ",100,"[0.9, 0.5, 0.1]","[0.8, 0.4, 0.2]","[u'blue', u'red', u'black']","[u'left', u'middle', u'right']","[0.8, 0.4, 0.2]","[u'low', u'high', u'medium']","black",51,"right","medium","False","False",336,4600,NA
"A3CTXWISODY7D8","Wed Oct 28 2020 15:02:32 GMT-0400 (Eastern Daylight Time)","Wed Oct 28 2020 15:09:57 GMT-0400 (Eastern Daylight Time)","Mozilla/5.0 (Windows NT 6.1; Win64; x64) AppleWebKit/537.36 (KHTML, like Gecko) Chrome/86.0.4240.111 Safari/537.36    ",101,"[0.9, 0.5, 0.1]","[0.8, 0.4, 0.2]","[u'blue', u'red', u'black']","[u'left', u'middle', u'right']","[0.8, 0.4, 0.2]","[u'low', u'high', u'medium']","black",51,"right","medium","False","False",313,4550,NA
"A3CTXWISODY7D8","Wed Oct 28 2020 15:02:32 GMT-0400 (Eastern Daylight Time)","Wed Oct 28 2020 15:09:57 GMT-0400 (Eastern Daylight Time)","Mozilla/5.0 (Windows NT 6.1; Win64; x64) AppleWebKit/537.36 (KHTML, like Gecko) Chrome/86.0.4240.111 Safari/537.36    ",102,"[0.9, 0.5, 0.1]","[0.8, 0.4, 0.2]","[u'blue', u'red', u'black']","[u'left', u'middle', u'right']","[0.8, 0.4, 0.2]","[u'low', u'high', u'medium']","blue",49,"left","low","False","False",179,4500,NA
"A3CTXWISODY7D8","Wed Oct 28 2020 15:02:32 GMT-0400 (Eastern Daylight Time)","Wed Oct 28 2020 15:09:57 GMT-0400 (Eastern Daylight Time)","Mozilla/5.0 (Windows NT 6.1; Win64; x64) AppleWebKit/537.36 (KHTML, like Gecko) Chrome/86.0.4240.111 Safari/537.36    ",103,"[0.9, 0.5, 0.1]","[0.8, 0.4, 0.2]","[u'blue', u'red', u'black']","[u'left', u'middle', u'right']","[0.8, 0.4, 0.2]","[u'low', u'high', u'medium']","red",50,"middle","high","True","False",180,4600,NA
"A3CTXWISODY7D8","Wed Oct 28 2020 15:02:32 GMT-0400 (Eastern Daylight Time)","Wed Oct 28 2020 15:09:57 GMT-0400 (Eastern Daylight Time)","Mozilla/5.0 (Windows NT 6.1; Win64; x64) AppleWebKit/537.36 (KHTML, like Gecko) Chrome/86.0.4240.111 Safari/537.36    ",104,"[0.9, 0.5, 0.1]","[0.8, 0.4, 0.2]","[u'blue', u'red', u'black']","[u'left', u'middle', u'right']","[0.8, 0.4, 0.2]","[u'low', u'high', u'medium']","red",50,"middle","high","True","False",270,4700,NA
"A3CTXWISODY7D8","Wed Oct 28 2020 15:02:32 GMT-0400 (Eastern Daylight Time)","Wed Oct 28 2020 15:09:57 GMT-0400 (Eastern Daylight Time)","Mozilla/5.0 (Windows NT 6.1; Win64; x64) AppleWebKit/537.36 (KHTML, like Gecko) Chrome/86.0.4240.111 Safari/537.36    ",105,"[0.9, 0.5, 0.1]","[0.8, 0.4, 0.2]","[u'blue', u'red', u'black']","[u'left', u'middle', u'right']","[0.8, 0.4, 0.2]","[u'low', u'high', u'medium']","red",50,"middle","high","True","False",283,4800,NA
"A3CTXWISODY7D8","Wed Oct 28 2020 15:02:32 GMT-0400 (Eastern Daylight Time)","Wed Oct 28 2020 15:09:57 GMT-0400 (Eastern Daylight Time)","Mozilla/5.0 (Windows NT 6.1; Win64; x64) AppleWebKit/537.36 (KHTML, like Gecko) Chrome/86.0.4240.111 Safari/537.36    ",106,"[0.9, 0.5, 0.1]","[0.8, 0.4, 0.2]","[u'blue', u'red', u'black']","[u'left', u'middle', u'right']","[0.8, 0.4, 0.2]","[u'low', u'high', u'medium']","red",50,"middle","high","True","False",285,4900,NA
"A3CTXWISODY7D8","Wed Oct 28 2020 15:02:32 GMT-0400 (Eastern Daylight Time)","Wed Oct 28 2020 15:09:57 GMT-0400 (Eastern Daylight Time)","Mozilla/5.0 (Windows NT 6.1; Win64; x64) AppleWebKit/537.36 (KHTML, like Gecko) Chrome/86.0.4240.111 Safari/537.36    ",107,"[0.9, 0.5, 0.1]","[0.8, 0.4, 0.2]","[u'blue', u'red', u'black']","[u'left', u'middle', u'right']","[0.8, 0.4, 0.2]","[u'low', u'high', u'medium']","blue",49,"left","low","False","False",300,4850,NA
"A3CTXWISODY7D8","Wed Oct 28 2020 15:02:32 GMT-0400 (Eastern Daylight Time)","Wed Oct 28 2020 15:09:57 GMT-0400 (Eastern Daylight Time)","Mozilla/5.0 (Windows NT 6.1; Win64; x64) AppleWebKit/537.36 (KHTML, like Gecko) Chrome/86.0.4240.111 Safari/537.36    ",108,"[0.9, 0.5, 0.1]","[0.8, 0.4, 0.2]","[u'blue', u'red', u'black']","[u'left', u'middle', u'right']","[0.8, 0.4, 0.2]","[u'low', u'high', u'medium']","red",50,"middle","high","False","False",264,4800,NA
"A3CTXWISODY7D8","Wed Oct 28 2020 15:02:32 GMT-0400 (Eastern Daylight Time)","Wed Oct 28 2020 15:09:57 GMT-0400 (Eastern Daylight Time)","Mozilla/5.0 (Windows NT 6.1; Win64; x64) AppleWebKit/537.36 (KHTML, like Gecko) Chrome/86.0.4240.111 Safari/537.36    ",109,"[0.9, 0.5, 0.1]","[0.8, 0.4, 0.2]","[u'blue', u'red', u'black']","[u'left', u'middle', u'right']","[0.8, 0.4, 0.2]","[u'low', u'high', u'medium']","blue",49,"left","low","False","False",232,4750,NA
"A3CTXWISODY7D8","Wed Oct 28 2020 15:02:32 GMT-0400 (Eastern Daylight Time)","Wed Oct 28 2020 15:09:57 GMT-0400 (Eastern Daylight Time)","Mozilla/5.0 (Windows NT 6.1; Win64; x64) AppleWebKit/537.36 (KHTML, like Gecko) Chrome/86.0.4240.111 Safari/537.36    ",110,"[0.9, 0.5, 0.1]","[0.8, 0.4, 0.2]","[u'blue', u'red', u'black']","[u'left', u'middle', u'right']","[0.8, 0.4, 0.2]","[u'low', u'high', u'medium']","red",50,"middle","high","True","False",181,4850,NA
"A3CTXWISODY7D8","Wed Oct 28 2020 15:02:32 GMT-0400 (Eastern Daylight Time)","Wed Oct 28 2020 15:09:57 GMT-0400 (Eastern Daylight Time)","Mozilla/5.0 (Windows NT 6.1; Win64; x64) AppleWebKit/537.36 (KHTML, like Gecko) Chrome/86.0.4240.111 Safari/537.36    ",111,"[0.9, 0.5, 0.1]","[0.8, 0.4, 0.2]","[u'blue', u'red', u'black']","[u'left', u'middle', u'right']","[0.8, 0.4, 0.2]","[u'low', u'high', u'medium']","red",50,"middle","high","False","False",188,4800,NA
"A3CTXWISODY7D8","Wed Oct 28 2020 15:02:32 GMT-0400 (Eastern Daylight Time)","Wed Oct 28 2020 15:09:57 GMT-0400 (Eastern Daylight Time)","Mozilla/5.0 (Windows NT 6.1; Win64; x64) AppleWebKit/537.36 (KHTML, like Gecko) Chrome/86.0.4240.111 Safari/537.36    ",112,"[0.9, 0.5, 0.1]","[0.8, 0.4, 0.2]","[u'blue', u'red', u'black']","[u'left', u'middle', u'right']","[0.8, 0.4, 0.2]","[u'low', u'high', u'medium']","black",51,"right","medium","True","False",51,4900,NA
"A3CTXWISODY7D8","Wed Oct 28 2020 15:02:32 GMT-0400 (Eastern Daylight Time)","Wed Oct 28 2020 15:09:57 GMT-0400 (Eastern Daylight Time)","Mozilla/5.0 (Windows NT 6.1; Win64; x64) AppleWebKit/537.36 (KHTML, like Gecko) Chrome/86.0.4240.111 Safari/537.36    ",113,"[0.9, 0.5, 0.1]","[0.8, 0.4, 0.2]","[u'blue', u'red', u'black']","[u'left', u'middle', u'right']","[0.8, 0.4, 0.2]","[u'low', u'high', u'medium']","black",51,"right","medium","True","False",263,5000,NA
"A3CTXWISODY7D8","Wed Oct 28 2020 15:02:32 GMT-0400 (Eastern Daylight Time)","Wed Oct 28 2020 15:09:57 GMT-0400 (Eastern Daylight Time)","Mozilla/5.0 (Windows NT 6.1; Win64; x64) AppleWebKit/537.36 (KHTML, like Gecko) Chrome/86.0.4240.111 Safari/537.36    ",114,"[0.9, 0.5, 0.1]","[0.8, 0.4, 0.2]","[u'blue', u'red', u'black']","[u'left', u'middle', u'right']","[0.8, 0.4, 0.2]","[u'low', u'high', u'medium']","black",51,"right","medium","False","False",181,4950,NA
"A3CTXWISODY7D8","Wed Oct 28 2020 15:02:32 GMT-0400 (Eastern Daylight Time)","Wed Oct 28 2020 15:09:57 GMT-0400 (Eastern Daylight Time)","Mozilla/5.0 (Windows NT 6.1; Win64; x64) AppleWebKit/537.36 (KHTML, like Gecko) Chrome/86.0.4240.111 Safari/537.36    ",115,"[0.9, 0.5, 0.1]","[0.8, 0.4, 0.2]","[u'blue', u'red', u'black']","[u'left', u'middle', u'right']","[0.8, 0.4, 0.2]","[u'low', u'high', u'medium']","black",51,"right","medium","True","False",245,5050,NA
"A3CTXWISODY7D8","Wed Oct 28 2020 15:02:32 GMT-0400 (Eastern Daylight Time)","Wed Oct 28 2020 15:09:57 GMT-0400 (Eastern Daylight Time)","Mozilla/5.0 (Windows NT 6.1; Win64; x64) AppleWebKit/537.36 (KHTML, like Gecko) Chrome/86.0.4240.111 Safari/537.36    ",116,"[0.9, 0.5, 0.1]","[0.8, 0.4, 0.2]","[u'blue', u'red', u'black']","[u'left', u'middle', u'right']","[0.8, 0.4, 0.2]","[u'low', u'high', u'medium']","black",51,"right","medium","True","False",255,5150,NA
"A3CTXWISODY7D8","Wed Oct 28 2020 15:02:32 GMT-0400 (Eastern Daylight Time)","Wed Oct 28 2020 15:09:57 GMT-0400 (Eastern Daylight Time)","Mozilla/5.0 (Windows NT 6.1; Win64; x64) AppleWebKit/537.36 (KHTML, like Gecko) Chrome/86.0.4240.111 Safari/537.36    ",117,"[0.9, 0.5, 0.1]","[0.8, 0.4, 0.2]","[u'blue', u'red', u'black']","[u'left', u'middle', u'right']","[0.8, 0.4, 0.2]","[u'low', u'high', u'medium']","black",51,"right","medium","True","False",212,5250,NA
"A3CTXWISODY7D8","Wed Oct 28 2020 15:02:32 GMT-0400 (Eastern Daylight Time)","Wed Oct 28 2020 15:09:57 GMT-0400 (Eastern Daylight Time)","Mozilla/5.0 (Windows NT 6.1; Win64; x64) AppleWebKit/537.36 (KHTML, like Gecko) Chrome/86.0.4240.111 Safari/537.36    ",118,"[0.9, 0.5, 0.1]","[0.8, 0.4, 0.2]","[u'blue', u'red', u'black']","[u'left', u'middle', u'right']","[0.8, 0.4, 0.2]","[u'low', u'high', u'medium']","black",51,"right","medium","False","False",202,5200,NA
"A3CTXWISODY7D8","Wed Oct 28 2020 15:02:32 GMT-0400 (Eastern Daylight Time)","Wed Oct 28 2020 15:09:57 GMT-0400 (Eastern Daylight Time)","Mozilla/5.0 (Windows NT 6.1; Win64; x64) AppleWebKit/537.36 (KHTML, like Gecko) Chrome/86.0.4240.111 Safari/537.36    ",119,"[0.9, 0.5, 0.1]","[0.8, 0.4, 0.2]","[u'blue', u'red', u'black']","[u'left', u'middle', u'right']","[0.8, 0.4, 0.2]","[u'low', u'high', u'medium']","black",51,"right","medium","True","False",147,5300,NA
"A3CTXWISODY7D8","Wed Oct 28 2020 15:02:32 GMT-0400 (Eastern Daylight Time)","Wed Oct 28 2020 15:09:57 GMT-0400 (Eastern Daylight Time)","Mozilla/5.0 (Windows NT 6.1; Win64; x64) AppleWebKit/537.36 (KHTML, like Gecko) Chrome/86.0.4240.111 Safari/537.36    ",120,"[0.9, 0.5, 0.1]","[0.8, 0.4, 0.2]","[u'blue', u'red', u'black']","[u'left', u'middle', u'right']","[0.8, 0.4, 0.2]","[u'low', u'high', u'medium']","red",50,"middle","high","True","False",201,5400,NA
"A3CTXWISODY7D8","Wed Oct 28 2020 15:02:32 GMT-0400 (Eastern Daylight Time)","Wed Oct 28 2020 15:09:57 GMT-0400 (Eastern Daylight Time)","Mozilla/5.0 (Windows NT 6.1; Win64; x64) AppleWebKit/537.36 (KHTML, like Gecko) Chrome/86.0.4240.111 Safari/537.36    ",121,"[0.9, 0.5, 0.1]","[0.8, 0.4, 0.2]","[u'blue', u'red', u'black']","[u'left', u'middle', u'right']","[0.8, 0.4, 0.2]","[u'high', u'medium', u'low']","red",50,"middle","medium","False","False",569,5350,NA
"A3CTXWISODY7D8","Wed Oct 28 2020 15:02:32 GMT-0400 (Eastern Daylight Time)","Wed Oct 28 2020 15:09:57 GMT-0400 (Eastern Daylight Time)","Mozilla/5.0 (Windows NT 6.1; Win64; x64) AppleWebKit/537.36 (KHTML, like Gecko) Chrome/86.0.4240.111 Safari/537.36    ",122,"[0.9, 0.5, 0.1]","[0.8, 0.4, 0.2]","[u'blue', u'red', u'black']","[u'left', u'middle', u'right']","[0.8, 0.4, 0.2]","[u'high', u'medium', u'low']","blue",49,"left","high","True","False",481,5450,NA
"A3CTXWISODY7D8","Wed Oct 28 2020 15:02:32 GMT-0400 (Eastern Daylight Time)","Wed Oct 28 2020 15:09:57 GMT-0400 (Eastern Daylight Time)","Mozilla/5.0 (Windows NT 6.1; Win64; x64) AppleWebKit/537.36 (KHTML, like Gecko) Chrome/86.0.4240.111 Safari/537.36    ",123,"[0.9, 0.5, 0.1]","[0.8, 0.4, 0.2]","[u'blue', u'red', u'black']","[u'left', u'middle', u'right']","[0.8, 0.4, 0.2]","[u'high', u'medium', u'low']","blue",49,"left","high","False","False",247,5400,NA
"A3CTXWISODY7D8","Wed Oct 28 2020 15:02:32 GMT-0400 (Eastern Daylight Time)","Wed Oct 28 2020 15:09:57 GMT-0400 (Eastern Daylight Time)","Mozilla/5.0 (Windows NT 6.1; Win64; x64) AppleWebKit/537.36 (KHTML, like Gecko) Chrome/86.0.4240.111 Safari/537.36    ",124,"[0.9, 0.5, 0.1]","[0.8, 0.4, 0.2]","[u'blue', u'red', u'black']","[u'left', u'middle', u'right']","[0.8, 0.4, 0.2]","[u'high', u'medium', u'low']","black",51,"right","low","False","False",759,5350,NA
"A3CTXWISODY7D8","Wed Oct 28 2020 15:02:32 GMT-0400 (Eastern Daylight Time)","Wed Oct 28 2020 15:09:57 GMT-0400 (Eastern Daylight Time)","Mozilla/5.0 (Windows NT 6.1; Win64; x64) AppleWebKit/537.36 (KHTML, like Gecko) Chrome/86.0.4240.111 Safari/537.36    ",125,"[0.9, 0.5, 0.1]","[0.8, 0.4, 0.2]","[u'blue', u'red', u'black']","[u'left', u'middle', u'right']","[0.8, 0.4, 0.2]","[u'high', u'medium', u'low']","black",51,"right","low","True","False",137,5450,NA
"A3CTXWISODY7D8","Wed Oct 28 2020 15:02:32 GMT-0400 (Eastern Daylight Time)","Wed Oct 28 2020 15:09:57 GMT-0400 (Eastern Daylight Time)","Mozilla/5.0 (Windows NT 6.1; Win64; x64) AppleWebKit/537.36 (KHTML, like Gecko) Chrome/86.0.4240.111 Safari/537.36    ",126,"[0.9, 0.5, 0.1]","[0.8, 0.4, 0.2]","[u'blue', u'red', u'black']","[u'left', u'middle', u'right']","[0.8, 0.4, 0.2]","[u'high', u'medium', u'low']","black",51,"right","low","False","False",176,5400,NA
"A3CTXWISODY7D8","Wed Oct 28 2020 15:02:32 GMT-0400 (Eastern Daylight Time)","Wed Oct 28 2020 15:09:57 GMT-0400 (Eastern Daylight Time)","Mozilla/5.0 (Windows NT 6.1; Win64; x64) AppleWebKit/537.36 (KHTML, like Gecko) Chrome/86.0.4240.111 Safari/537.36    ",127,"[0.9, 0.5, 0.1]","[0.8, 0.4, 0.2]","[u'blue', u'red', u'black']","[u'left', u'middle', u'right']","[0.8, 0.4, 0.2]","[u'high', u'medium', u'low']","black",51,"right","low","False","False",27,5350,NA
"A3CTXWISODY7D8","Wed Oct 28 2020 15:02:32 GMT-0400 (Eastern Daylight Time)","Wed Oct 28 2020 15:09:57 GMT-0400 (Eastern Daylight Time)","Mozilla/5.0 (Windows NT 6.1; Win64; x64) AppleWebKit/537.36 (KHTML, like Gecko) Chrome/86.0.4240.111 Safari/537.36    ",128,"[0.9, 0.5, 0.1]","[0.8, 0.4, 0.2]","[u'blue', u'red', u'black']","[u'left', u'middle', u'right']","[0.8, 0.4, 0.2]","[u'high', u'medium', u'low']","blue",49,"left","high","True","False",26,5450,NA
"A3CTXWISODY7D8","Wed Oct 28 2020 15:02:32 GMT-0400 (Eastern Daylight Time)","Wed Oct 28 2020 15:09:57 GMT-0400 (Eastern Daylight Time)","Mozilla/5.0 (Windows NT 6.1; Win64; x64) AppleWebKit/537.36 (KHTML, like Gecko) Chrome/86.0.4240.111 Safari/537.36    ",129,"[0.9, 0.5, 0.1]","[0.8, 0.4, 0.2]","[u'blue', u'red', u'black']","[u'left', u'middle', u'right']","[0.8, 0.4, 0.2]","[u'high', u'medium', u'low']","blue",49,"left","high","True","False",127,5550,NA
"A3CTXWISODY7D8","Wed Oct 28 2020 15:02:32 GMT-0400 (Eastern Daylight Time)","Wed Oct 28 2020 15:09:57 GMT-0400 (Eastern Daylight Time)","Mozilla/5.0 (Windows NT 6.1; Win64; x64) AppleWebKit/537.36 (KHTML, like Gecko) Chrome/86.0.4240.111 Safari/537.36    ",130,"[0.9, 0.5, 0.1]","[0.8, 0.4, 0.2]","[u'blue', u'red', u'black']","[u'left', u'middle', u'right']","[0.8, 0.4, 0.2]","[u'high', u'medium', u'low']","blue",49,"left","high","True","False",316,5650,NA
"A3CTXWISODY7D8","Wed Oct 28 2020 15:02:32 GMT-0400 (Eastern Daylight Time)","Wed Oct 28 2020 15:09:57 GMT-0400 (Eastern Daylight Time)","Mozilla/5.0 (Windows NT 6.1; Win64; x64) AppleWebKit/537.36 (KHTML, like Gecko) Chrome/86.0.4240.111 Safari/537.36    ",131,"[0.9, 0.5, 0.1]","[0.8, 0.4, 0.2]","[u'blue', u'red', u'black']","[u'left', u'middle', u'right']","[0.8, 0.4, 0.2]","[u'high', u'medium', u'low']","blue",49,"left","high","True","False",307,5750,NA
"A3CTXWISODY7D8","Wed Oct 28 2020 15:02:32 GMT-0400 (Eastern Daylight Time)","Wed Oct 28 2020 15:09:57 GMT-0400 (Eastern Daylight Time)","Mozilla/5.0 (Windows NT 6.1; Win64; x64) AppleWebKit/537.36 (KHTML, like Gecko) Chrome/86.0.4240.111 Safari/537.36    ",132,"[0.9, 0.5, 0.1]","[0.8, 0.4, 0.2]","[u'blue', u'red', u'black']","[u'left', u'middle', u'right']","[0.8, 0.4, 0.2]","[u'high', u'medium', u'low']","blue",49,"left","high","True","False",222,5850,NA
"A3CTXWISODY7D8","Wed Oct 28 2020 15:02:32 GMT-0400 (Eastern Daylight Time)","Wed Oct 28 2020 15:09:57 GMT-0400 (Eastern Daylight Time)","Mozilla/5.0 (Windows NT 6.1; Win64; x64) AppleWebKit/537.36 (KHTML, like Gecko) Chrome/86.0.4240.111 Safari/537.36    ",133,"[0.9, 0.5, 0.1]","[0.8, 0.4, 0.2]","[u'blue', u'red', u'black']","[u'left', u'middle', u'right']","[0.8, 0.4, 0.2]","[u'high', u'medium', u'low']","blue",49,"left","high","False","False",126,5800,NA
"A3CTXWISODY7D8","Wed Oct 28 2020 15:02:32 GMT-0400 (Eastern Daylight Time)","Wed Oct 28 2020 15:09:57 GMT-0400 (Eastern Daylight Time)","Mozilla/5.0 (Windows NT 6.1; Win64; x64) AppleWebKit/537.36 (KHTML, like Gecko) Chrome/86.0.4240.111 Safari/537.36    ",134,"[0.9, 0.5, 0.1]","[0.8, 0.4, 0.2]","[u'blue', u'red', u'black']","[u'left', u'middle', u'right']","[0.8, 0.4, 0.2]","[u'high', u'medium', u'low']","blue",49,"left","high","False","False",239,5750,NA
"A3CTXWISODY7D8","Wed Oct 28 2020 15:02:32 GMT-0400 (Eastern Daylight Time)","Wed Oct 28 2020 15:09:57 GMT-0400 (Eastern Daylight Time)","Mozilla/5.0 (Windows NT 6.1; Win64; x64) AppleWebKit/537.36 (KHTML, like Gecko) Chrome/86.0.4240.111 Safari/537.36    ",135,"[0.9, 0.5, 0.1]","[0.8, 0.4, 0.2]","[u'blue', u'red', u'black']","[u'left', u'middle', u'right']","[0.8, 0.4, 0.2]","[u'high', u'medium', u'low']","blue",49,"left","high","True","False",415,5850,NA
"A3CTXWISODY7D8","Wed Oct 28 2020 15:02:32 GMT-0400 (Eastern Daylight Time)","Wed Oct 28 2020 15:09:57 GMT-0400 (Eastern Daylight Time)","Mozilla/5.0 (Windows NT 6.1; Win64; x64) AppleWebKit/537.36 (KHTML, like Gecko) Chrome/86.0.4240.111 Safari/537.36    ",136,"[0.9, 0.5, 0.1]","[0.8, 0.4, 0.2]","[u'blue', u'red', u'black']","[u'left', u'middle', u'right']","[0.8, 0.4, 0.2]","[u'high', u'medium', u'low']","blue",49,"left","high","False","True",268,5800,NA
"A3CTXWISODY7D8","Wed Oct 28 2020 15:02:32 GMT-0400 (Eastern Daylight Time)","Wed Oct 28 2020 15:09:57 GMT-0400 (Eastern Daylight Time)","Mozilla/5.0 (Windows NT 6.1; Win64; x64) AppleWebKit/537.36 (KHTML, like Gecko) Chrome/86.0.4240.111 Safari/537.36    ",137,"[0.9, 0.5, 0.1]","[0.8, 0.4, 0.2]","[u'blue', u'red', u'black']","[u'left', u'middle', u'right']","[0.8, 0.4, 0.2]","[u'low', u'high', u'medium']","red",50,"middle","high","False","False",192,5750,NA
"A3CTXWISODY7D8","Wed Oct 28 2020 15:02:32 GMT-0400 (Eastern Daylight Time)","Wed Oct 28 2020 15:09:57 GMT-0400 (Eastern Daylight Time)","Mozilla/5.0 (Windows NT 6.1; Win64; x64) AppleWebKit/537.36 (KHTML, like Gecko) Chrome/86.0.4240.111 Safari/537.36    ",138,"[0.9, 0.5, 0.1]","[0.8, 0.4, 0.2]","[u'blue', u'red', u'black']","[u'left', u'middle', u'right']","[0.8, 0.4, 0.2]","[u'low', u'high', u'medium']","black",51,"right","medium","False","False",152,5700,NA
"A3CTXWISODY7D8","Wed Oct 28 2020 15:02:32 GMT-0400 (Eastern Daylight Time)","Wed Oct 28 2020 15:09:57 GMT-0400 (Eastern Daylight Time)","Mozilla/5.0 (Windows NT 6.1; Win64; x64) AppleWebKit/537.36 (KHTML, like Gecko) Chrome/86.0.4240.111 Safari/537.36    ",139,"[0.9, 0.5, 0.1]","[0.8, 0.4, 0.2]","[u'blue', u'red', u'black']","[u'left', u'middle', u'right']","[0.8, 0.4, 0.2]","[u'low', u'high', u'medium']","red",50,"middle","high","True","False",248,5800,NA
"A3CTXWISODY7D8","Wed Oct 28 2020 15:02:32 GMT-0400 (Eastern Daylight Time)","Wed Oct 28 2020 15:09:57 GMT-0400 (Eastern Daylight Time)","Mozilla/5.0 (Windows NT 6.1; Win64; x64) AppleWebKit/537.36 (KHTML, like Gecko) Chrome/86.0.4240.111 Safari/537.36    ",140,"[0.9, 0.5, 0.1]","[0.8, 0.4, 0.2]","[u'blue', u'red', u'black']","[u'left', u'middle', u'right']","[0.8, 0.4, 0.2]","[u'low', u'high', u'medium']","red",50,"middle","high","False","False",271,5750,NA
"A3CTXWISODY7D8","Wed Oct 28 2020 15:02:32 GMT-0400 (Eastern Daylight Time)","Wed Oct 28 2020 15:09:57 GMT-0400 (Eastern Daylight Time)","Mozilla/5.0 (Windows NT 6.1; Win64; x64) AppleWebKit/537.36 (KHTML, like Gecko) Chrome/86.0.4240.111 Safari/537.36    ",141,"[0.9, 0.5, 0.1]","[0.8, 0.4, 0.2]","[u'blue', u'red', u'black']","[u'left', u'middle', u'right']","[0.8, 0.4, 0.2]","[u'low', u'high', u'medium']","blue",49,"left","low","True","False",158,5850,NA
"A3CTXWISODY7D8","Wed Oct 28 2020 15:02:32 GMT-0400 (Eastern Daylight Time)","Wed Oct 28 2020 15:09:57 GMT-0400 (Eastern Daylight Time)","Mozilla/5.0 (Windows NT 6.1; Win64; x64) AppleWebKit/537.36 (KHTML, like Gecko) Chrome/86.0.4240.111 Safari/537.36    ",142,"[0.9, 0.5, 0.1]","[0.8, 0.4, 0.2]","[u'blue', u'red', u'black']","[u'left', u'middle', u'right']","[0.8, 0.4, 0.2]","[u'low', u'high', u'medium']","blue",49,"left","low","True","False",308,5950,NA
"A3CTXWISODY7D8","Wed Oct 28 2020 15:02:32 GMT-0400 (Eastern Daylight Time)","Wed Oct 28 2020 15:09:57 GMT-0400 (Eastern Daylight Time)","Mozilla/5.0 (Windows NT 6.1; Win64; x64) AppleWebKit/537.36 (KHTML, like Gecko) Chrome/86.0.4240.111 Safari/537.36    ",143,"[0.9, 0.5, 0.1]","[0.8, 0.4, 0.2]","[u'blue', u'red', u'black']","[u'left', u'middle', u'right']","[0.8, 0.4, 0.2]","[u'low', u'high', u'medium']","blue",49,"left","low","True","False",325,6050,NA
"A3CTXWISODY7D8","Wed Oct 28 2020 15:02:32 GMT-0400 (Eastern Daylight Time)","Wed Oct 28 2020 15:09:57 GMT-0400 (Eastern Daylight Time)","Mozilla/5.0 (Windows NT 6.1; Win64; x64) AppleWebKit/537.36 (KHTML, like Gecko) Chrome/86.0.4240.111 Safari/537.36    ",144,"[0.9, 0.5, 0.1]","[0.8, 0.4, 0.2]","[u'blue', u'red', u'black']","[u'left', u'middle', u'right']","[0.8, 0.4, 0.2]","[u'low', u'high', u'medium']","blue",49,"left","low","False","False",293,6000,NA
"A3CTXWISODY7D8","Wed Oct 28 2020 15:02:32 GMT-0400 (Eastern Daylight Time)","Wed Oct 28 2020 15:09:57 GMT-0400 (Eastern Daylight Time)","Mozilla/5.0 (Windows NT 6.1; Win64; x64) AppleWebKit/537.36 (KHTML, like Gecko) Chrome/86.0.4240.111 Safari/537.36    ",145,"[0.9, 0.5, 0.1]","[0.8, 0.4, 0.2]","[u'blue', u'red', u'black']","[u'left', u'middle', u'right']","[0.8, 0.4, 0.2]","[u'low', u'high', u'medium']","blue",49,"left","low","True","False",282,6100,NA
"A3CTXWISODY7D8","Wed Oct 28 2020 15:02:32 GMT-0400 (Eastern Daylight Time)","Wed Oct 28 2020 15:09:57 GMT-0400 (Eastern Daylight Time)","Mozilla/5.0 (Windows NT 6.1; Win64; x64) AppleWebKit/537.36 (KHTML, like Gecko) Chrome/86.0.4240.111 Safari/537.36    ",146,"[0.9, 0.5, 0.1]","[0.8, 0.4, 0.2]","[u'blue', u'red', u'black']","[u'left', u'middle', u'right']","[0.8, 0.4, 0.2]","[u'low', u'high', u'medium']","blue",49,"left","low","False","False",310,6050,NA
"A3CTXWISODY7D8","Wed Oct 28 2020 15:02:32 GMT-0400 (Eastern Daylight Time)","Wed Oct 28 2020 15:09:57 GMT-0400 (Eastern Daylight Time)","Mozilla/5.0 (Windows NT 6.1; Win64; x64) AppleWebKit/537.36 (KHTML, like Gecko) Chrome/86.0.4240.111 Safari/537.36    ",147,"[0.9, 0.5, 0.1]","[0.8, 0.4, 0.2]","[u'blue', u'red', u'black']","[u'left', u'middle', u'right']","[0.8, 0.4, 0.2]","[u'low', u'high', u'medium']","black",51,"right","medium","True","False",177,6150,NA
"A3CTXWISODY7D8","Wed Oct 28 2020 15:02:32 GMT-0400 (Eastern Daylight Time)","Wed Oct 28 2020 15:09:57 GMT-0400 (Eastern Daylight Time)","Mozilla/5.0 (Windows NT 6.1; Win64; x64) AppleWebKit/537.36 (KHTML, like Gecko) Chrome/86.0.4240.111 Safari/537.36    ",148,"[0.9, 0.5, 0.1]","[0.8, 0.4, 0.2]","[u'blue', u'red', u'black']","[u'left', u'middle', u'right']","[0.8, 0.4, 0.2]","[u'low', u'high', u'medium']","black",51,"right","medium","False","False",82,6100,NA
"A3CTXWISODY7D8","Wed Oct 28 2020 15:02:32 GMT-0400 (Eastern Daylight Time)","Wed Oct 28 2020 15:09:57 GMT-0400 (Eastern Daylight Time)","Mozilla/5.0 (Windows NT 6.1; Win64; x64) AppleWebKit/537.36 (KHTML, like Gecko) Chrome/86.0.4240.111 Safari/537.36    ",149,"[0.9, 0.5, 0.1]","[0.8, 0.4, 0.2]","[u'blue', u'red', u'black']","[u'left', u'middle', u'right']","[0.8, 0.4, 0.2]","[u'low', u'high', u'medium']","blue",49,"left","low","False","False",185,6050,NA
"A3CTXWISODY7D8","Wed Oct 28 2020 15:02:32 GMT-0400 (Eastern Daylight Time)","Wed Oct 28 2020 15:09:57 GMT-0400 (Eastern Daylight Time)","Mozilla/5.0 (Windows NT 6.1; Win64; x64) AppleWebKit/537.36 (KHTML, like Gecko) Chrome/86.0.4240.111 Safari/537.36    ",150,"[0.9, 0.5, 0.1]","[0.8, 0.4, 0.2]","[u'blue', u'red', u'black']","[u'left', u'middle', u'right']","[0.8, 0.4, 0.2]","[u'low', u'high', u'medium']","red",50,"middle","high","False","False",93,6000,NA
"A3CTXWISODY7D8","Wed Oct 28 2020 15:02:32 GMT-0400 (Eastern Daylight Time)","Wed Oct 28 2020 15:09:57 GMT-0400 (Eastern Daylight Time)","Mozilla/5.0 (Windows NT 6.1; Win64; x64) AppleWebKit/537.36 (KHTML, like Gecko) Chrome/86.0.4240.111 Safari/537.36    ",151,"[0.9, 0.5, 0.1]","[0.8, 0.4, 0.2]","[u'blue', u'red', u'black']","[u'left', u'middle', u'right']","[0.8, 0.4, 0.2]","[u'low', u'high', u'medium']","blue",49,"left","low","False","False",439,5950,NA
"A3CTXWISODY7D8","Wed Oct 28 2020 15:02:32 GMT-0400 (Eastern Daylight Time)","Wed Oct 28 2020 15:09:57 GMT-0400 (Eastern Daylight Time)","Mozilla/5.0 (Windows NT 6.1; Win64; x64) AppleWebKit/537.36 (KHTML, like Gecko) Chrome/86.0.4240.111 Safari/537.36    ",152,"[0.9, 0.5, 0.1]","[0.8, 0.4, 0.2]","[u'blue', u'red', u'black']","[u'left', u'middle', u'right']","[0.8, 0.4, 0.2]","[u'low', u'high', u'medium']","black",51,"right","medium","False","False",189,5900,NA
"A3CTXWISODY7D8","Wed Oct 28 2020 15:02:32 GMT-0400 (Eastern Daylight Time)","Wed Oct 28 2020 15:09:57 GMT-0400 (Eastern Daylight Time)","Mozilla/5.0 (Windows NT 6.1; Win64; x64) AppleWebKit/537.36 (KHTML, like Gecko) Chrome/86.0.4240.111 Safari/537.36    ",153,"[0.9, 0.5, 0.1]","[0.8, 0.4, 0.2]","[u'blue', u'red', u'black']","[u'left', u'middle', u'right']","[0.8, 0.4, 0.2]","[u'low', u'high', u'medium']","black",51,"right","medium","False","False",226,5850,NA
"A3CTXWISODY7D8","Wed Oct 28 2020 15:02:32 GMT-0400 (Eastern Daylight Time)","Wed Oct 28 2020 15:09:57 GMT-0400 (Eastern Daylight Time)","Mozilla/5.0 (Windows NT 6.1; Win64; x64) AppleWebKit/537.36 (KHTML, like Gecko) Chrome/86.0.4240.111 Safari/537.36    ",154,"[0.9, 0.5, 0.1]","[0.8, 0.4, 0.2]","[u'blue', u'red', u'black']","[u'left', u'middle', u'right']","[0.8, 0.4, 0.2]","[u'low', u'high', u'medium']","blue",49,"left","low","True","False",252,5950,NA
"A3CTXWISODY7D8","Wed Oct 28 2020 15:02:32 GMT-0400 (Eastern Daylight Time)","Wed Oct 28 2020 15:09:57 GMT-0400 (Eastern Daylight Time)","Mozilla/5.0 (Windows NT 6.1; Win64; x64) AppleWebKit/537.36 (KHTML, like Gecko) Chrome/86.0.4240.111 Safari/537.36    ",155,"[0.9, 0.5, 0.1]","[0.8, 0.4, 0.2]","[u'blue', u'red', u'black']","[u'left', u'middle', u'right']","[0.8, 0.4, 0.2]","[u'low', u'high', u'medium']","blue",49,"left","low","False","False",308,5900,NA
"A3CTXWISODY7D8","Wed Oct 28 2020 15:02:32 GMT-0400 (Eastern Daylight Time)","Wed Oct 28 2020 15:09:57 GMT-0400 (Eastern Daylight Time)","Mozilla/5.0 (Windows NT 6.1; Win64; x64) AppleWebKit/537.36 (KHTML, like Gecko) Chrome/86.0.4240.111 Safari/537.36    ",156,"[0.9, 0.5, 0.1]","[0.8, 0.4, 0.2]","[u'blue', u'red', u'black']","[u'left', u'middle', u'right']","[0.8, 0.4, 0.2]","[u'low', u'high', u'medium']","red",50,"middle","high","True","False",324,6000,NA
"A3CTXWISODY7D8","Wed Oct 28 2020 15:02:32 GMT-0400 (Eastern Daylight Time)","Wed Oct 28 2020 15:09:57 GMT-0400 (Eastern Daylight Time)","Mozilla/5.0 (Windows NT 6.1; Win64; x64) AppleWebKit/537.36 (KHTML, like Gecko) Chrome/86.0.4240.111 Safari/537.36    ",157,"[0.9, 0.5, 0.1]","[0.8, 0.4, 0.2]","[u'blue', u'red', u'black']","[u'left', u'middle', u'right']","[0.8, 0.4, 0.2]","[u'low', u'high', u'medium']","red",50,"middle","high","True","False",177,6100,NA
"A3CTXWISODY7D8","Wed Oct 28 2020 15:02:32 GMT-0400 (Eastern Daylight Time)","Wed Oct 28 2020 15:09:57 GMT-0400 (Eastern Daylight Time)","Mozilla/5.0 (Windows NT 6.1; Win64; x64) AppleWebKit/537.36 (KHTML, like Gecko) Chrome/86.0.4240.111 Safari/537.36    ",158,"[0.9, 0.5, 0.1]","[0.8, 0.4, 0.2]","[u'blue', u'red', u'black']","[u'left', u'middle', u'right']","[0.8, 0.4, 0.2]","[u'low', u'high', u'medium']","red",50,"middle","high","True","False",248,6200,NA
"A3CTXWISODY7D8","Wed Oct 28 2020 15:02:32 GMT-0400 (Eastern Daylight Time)","Wed Oct 28 2020 15:09:57 GMT-0400 (Eastern Daylight Time)","Mozilla/5.0 (Windows NT 6.1; Win64; x64) AppleWebKit/537.36 (KHTML, like Gecko) Chrome/86.0.4240.111 Safari/537.36    ",159,"[0.9, 0.5, 0.1]","[0.8, 0.4, 0.2]","[u'blue', u'red', u'black']","[u'left', u'middle', u'right']","[0.8, 0.4, 0.2]","[u'low', u'high', u'medium']","red",50,"middle","high","True","False",261,6300,NA
"A3CTXWISODY7D8","Wed Oct 28 2020 15:02:32 GMT-0400 (Eastern Daylight Time)","Wed Oct 28 2020 15:09:57 GMT-0400 (Eastern Daylight Time)","Mozilla/5.0 (Windows NT 6.1; Win64; x64) AppleWebKit/537.36 (KHTML, like Gecko) Chrome/86.0.4240.111 Safari/537.36    ",160,"[0.9, 0.5, 0.1]","[0.8, 0.4, 0.2]","[u'blue', u'red', u'black']","[u'left', u'middle', u'right']","[0.8, 0.4, 0.2]","[u'low', u'high', u'medium']","red",50,"middle","high","False","False",260,6250,NA
