"src_subject_id","start_time","end_time","browser","index","first_half_probabilities","second_half_probabilities","deck_color","deck_position","deck_probabilities","deck_contingencies","response_color","key_press","response_position","response_probability","reward_type","trial_type","rt","reward_tally","exclusion_reason"
"A1ESLDCYJIENVI","Wed Oct 28 2020 20:36:07 GMT-0400 (Eastern Daylight Time)","Wed Oct 28 2020 20:44:36 GMT-0400 (Eastern Daylight Time)","Mozilla/5.0 (X11; Linux x86_64) AppleWebKit/537.36 (KHTML, like Gecko) Chrome/85.0.4183.121 Safari/537.36",1,"[0.9, 0.5, 0.1]","[0.8, 0.4, 0.2]","[u'red', u'black', u'blue']","[u'left', u'middle', u'right']","[0.9, 0.5, 0.1]","[u'high', u'low', u'medium']","black",50,"middle","low","False","False",544,-50,NA
"A1ESLDCYJIENVI","Wed Oct 28 2020 20:36:07 GMT-0400 (Eastern Daylight Time)","Wed Oct 28 2020 20:44:36 GMT-0400 (Eastern Daylight Time)","Mozilla/5.0 (X11; Linux x86_64) AppleWebKit/537.36 (KHTML, like Gecko) Chrome/85.0.4183.121 Safari/537.36",2,"[0.9, 0.5, 0.1]","[0.8, 0.4, 0.2]","[u'red', u'black', u'blue']","[u'left', u'middle', u'right']","[0.9, 0.5, 0.1]","[u'high', u'low', u'medium']","blue",51,"right","medium","True","False",442,50,NA
"A1ESLDCYJIENVI","Wed Oct 28 2020 20:36:07 GMT-0400 (Eastern Daylight Time)","Wed Oct 28 2020 20:44:36 GMT-0400 (Eastern Daylight Time)","Mozilla/5.0 (X11; Linux x86_64) AppleWebKit/537.36 (KHTML, like Gecko) Chrome/85.0.4183.121 Safari/537.36",3,"[0.9, 0.5, 0.1]","[0.8, 0.4, 0.2]","[u'red', u'black', u'blue']","[u'left', u'middle', u'right']","[0.9, 0.5, 0.1]","[u'high', u'low', u'medium']","blue",51,"right","medium","False","False",314,0,NA
"A1ESLDCYJIENVI","Wed Oct 28 2020 20:36:07 GMT-0400 (Eastern Daylight Time)","Wed Oct 28 2020 20:44:36 GMT-0400 (Eastern Daylight Time)","Mozilla/5.0 (X11; Linux x86_64) AppleWebKit/537.36 (KHTML, like Gecko) Chrome/85.0.4183.121 Safari/537.36",4,"[0.9, 0.5, 0.1]","[0.8, 0.4, 0.2]","[u'red', u'black', u'blue']","[u'left', u'middle', u'right']","[0.9, 0.5, 0.1]","[u'high', u'low', u'medium']","red",49,"left","high","True","False",436,100,NA
"A1ESLDCYJIENVI","Wed Oct 28 2020 20:36:07 GMT-0400 (Eastern Daylight Time)","Wed Oct 28 2020 20:44:36 GMT-0400 (Eastern Daylight Time)","Mozilla/5.0 (X11; Linux x86_64) AppleWebKit/537.36 (KHTML, like Gecko) Chrome/85.0.4183.121 Safari/537.36",5,"[0.9, 0.5, 0.1]","[0.8, 0.4, 0.2]","[u'red', u'black', u'blue']","[u'left', u'middle', u'right']","[0.9, 0.5, 0.1]","[u'high', u'low', u'medium']","red",49,"left","high","True","False",403,200,NA
"A1ESLDCYJIENVI","Wed Oct 28 2020 20:36:07 GMT-0400 (Eastern Daylight Time)","Wed Oct 28 2020 20:44:36 GMT-0400 (Eastern Daylight Time)","Mozilla/5.0 (X11; Linux x86_64) AppleWebKit/537.36 (KHTML, like Gecko) Chrome/85.0.4183.121 Safari/537.36",6,"[0.9, 0.5, 0.1]","[0.8, 0.4, 0.2]","[u'red', u'black', u'blue']","[u'left', u'middle', u'right']","[0.9, 0.5, 0.1]","[u'high', u'low', u'medium']","red",49,"left","high","True","False",451,300,NA
"A1ESLDCYJIENVI","Wed Oct 28 2020 20:36:07 GMT-0400 (Eastern Daylight Time)","Wed Oct 28 2020 20:44:36 GMT-0400 (Eastern Daylight Time)","Mozilla/5.0 (X11; Linux x86_64) AppleWebKit/537.36 (KHTML, like Gecko) Chrome/85.0.4183.121 Safari/537.36",7,"[0.9, 0.5, 0.1]","[0.8, 0.4, 0.2]","[u'red', u'black', u'blue']","[u'left', u'middle', u'right']","[0.9, 0.5, 0.1]","[u'high', u'low', u'medium']","red",49,"left","high","True","False",635,400,NA
"A1ESLDCYJIENVI","Wed Oct 28 2020 20:36:07 GMT-0400 (Eastern Daylight Time)","Wed Oct 28 2020 20:44:36 GMT-0400 (Eastern Daylight Time)","Mozilla/5.0 (X11; Linux x86_64) AppleWebKit/537.36 (KHTML, like Gecko) Chrome/85.0.4183.121 Safari/537.36",8,"[0.9, 0.5, 0.1]","[0.8, 0.4, 0.2]","[u'red', u'black', u'blue']","[u'left', u'middle', u'right']","[0.9, 0.5, 0.1]","[u'high', u'low', u'medium']","red",49,"left","high","True","False",563,500,NA
"A1ESLDCYJIENVI","Wed Oct 28 2020 20:36:07 GMT-0400 (Eastern Daylight Time)","Wed Oct 28 2020 20:44:36 GMT-0400 (Eastern Daylight Time)","Mozilla/5.0 (X11; Linux x86_64) AppleWebKit/537.36 (KHTML, like Gecko) Chrome/85.0.4183.121 Safari/537.36",9,"[0.9, 0.5, 0.1]","[0.8, 0.4, 0.2]","[u'red', u'black', u'blue']","[u'left', u'middle', u'right']","[0.9, 0.5, 0.1]","[u'high', u'low', u'medium']","red",49,"left","high","True","False",475,600,NA
"A1ESLDCYJIENVI","Wed Oct 28 2020 20:36:07 GMT-0400 (Eastern Daylight Time)","Wed Oct 28 2020 20:44:36 GMT-0400 (Eastern Daylight Time)","Mozilla/5.0 (X11; Linux x86_64) AppleWebKit/537.36 (KHTML, like Gecko) Chrome/85.0.4183.121 Safari/537.36",10,"[0.9, 0.5, 0.1]","[0.8, 0.4, 0.2]","[u'red', u'black', u'blue']","[u'left', u'middle', u'right']","[0.9, 0.5, 0.1]","[u'high', u'low', u'medium']","red",49,"left","high","True","False",435,700,NA
"A1ESLDCYJIENVI","Wed Oct 28 2020 20:36:07 GMT-0400 (Eastern Daylight Time)","Wed Oct 28 2020 20:44:36 GMT-0400 (Eastern Daylight Time)","Mozilla/5.0 (X11; Linux x86_64) AppleWebKit/537.36 (KHTML, like Gecko) Chrome/85.0.4183.121 Safari/537.36",11,"[0.9, 0.5, 0.1]","[0.8, 0.4, 0.2]","[u'red', u'black', u'blue']","[u'left', u'middle', u'right']","[0.9, 0.5, 0.1]","[u'high', u'low', u'medium']","red",49,"left","high","True","False",468,800,NA
"A1ESLDCYJIENVI","Wed Oct 28 2020 20:36:07 GMT-0400 (Eastern Daylight Time)","Wed Oct 28 2020 20:44:36 GMT-0400 (Eastern Daylight Time)","Mozilla/5.0 (X11; Linux x86_64) AppleWebKit/537.36 (KHTML, like Gecko) Chrome/85.0.4183.121 Safari/537.36",12,"[0.9, 0.5, 0.1]","[0.8, 0.4, 0.2]","[u'red', u'black', u'blue']","[u'left', u'middle', u'right']","[0.9, 0.5, 0.1]","[u'high', u'low', u'medium']","red",49,"left","high","False","True",442,750,NA
"A1ESLDCYJIENVI","Wed Oct 28 2020 20:36:07 GMT-0400 (Eastern Daylight Time)","Wed Oct 28 2020 20:44:36 GMT-0400 (Eastern Daylight Time)","Mozilla/5.0 (X11; Linux x86_64) AppleWebKit/537.36 (KHTML, like Gecko) Chrome/85.0.4183.121 Safari/537.36",13,"[0.9, 0.5, 0.1]","[0.8, 0.4, 0.2]","[u'red', u'black', u'blue']","[u'left', u'middle', u'right']","[0.9, 0.5, 0.1]","[u'low', u'high', u'medium']","blue",51,"right","medium","True","False",499,850,NA
"A1ESLDCYJIENVI","Wed Oct 28 2020 20:36:07 GMT-0400 (Eastern Daylight Time)","Wed Oct 28 2020 20:44:36 GMT-0400 (Eastern Daylight Time)","Mozilla/5.0 (X11; Linux x86_64) AppleWebKit/537.36 (KHTML, like Gecko) Chrome/85.0.4183.121 Safari/537.36",14,"[0.9, 0.5, 0.1]","[0.8, 0.4, 0.2]","[u'red', u'black', u'blue']","[u'left', u'middle', u'right']","[0.9, 0.5, 0.1]","[u'low', u'high', u'medium']","blue",51,"right","medium","True","False",371,950,NA
"A1ESLDCYJIENVI","Wed Oct 28 2020 20:36:07 GMT-0400 (Eastern Daylight Time)","Wed Oct 28 2020 20:44:36 GMT-0400 (Eastern Daylight Time)","Mozilla/5.0 (X11; Linux x86_64) AppleWebKit/537.36 (KHTML, like Gecko) Chrome/85.0.4183.121 Safari/537.36",15,"[0.9, 0.5, 0.1]","[0.8, 0.4, 0.2]","[u'red', u'black', u'blue']","[u'left', u'middle', u'right']","[0.9, 0.5, 0.1]","[u'low', u'high', u'medium']","blue",51,"right","medium","True","False",331,1050,NA
"A1ESLDCYJIENVI","Wed Oct 28 2020 20:36:07 GMT-0400 (Eastern Daylight Time)","Wed Oct 28 2020 20:44:36 GMT-0400 (Eastern Daylight Time)","Mozilla/5.0 (X11; Linux x86_64) AppleWebKit/537.36 (KHTML, like Gecko) Chrome/85.0.4183.121 Safari/537.36",16,"[0.9, 0.5, 0.1]","[0.8, 0.4, 0.2]","[u'red', u'black', u'blue']","[u'left', u'middle', u'right']","[0.9, 0.5, 0.1]","[u'low', u'high', u'medium']","blue",51,"right","medium","True","False",363,1150,NA
"A1ESLDCYJIENVI","Wed Oct 28 2020 20:36:07 GMT-0400 (Eastern Daylight Time)","Wed Oct 28 2020 20:44:36 GMT-0400 (Eastern Daylight Time)","Mozilla/5.0 (X11; Linux x86_64) AppleWebKit/537.36 (KHTML, like Gecko) Chrome/85.0.4183.121 Safari/537.36",17,"[0.9, 0.5, 0.1]","[0.8, 0.4, 0.2]","[u'red', u'black', u'blue']","[u'left', u'middle', u'right']","[0.9, 0.5, 0.1]","[u'low', u'high', u'medium']","blue",51,"right","medium","False","False",420,1100,NA
"A1ESLDCYJIENVI","Wed Oct 28 2020 20:36:07 GMT-0400 (Eastern Daylight Time)","Wed Oct 28 2020 20:44:36 GMT-0400 (Eastern Daylight Time)","Mozilla/5.0 (X11; Linux x86_64) AppleWebKit/537.36 (KHTML, like Gecko) Chrome/85.0.4183.121 Safari/537.36",18,"[0.9, 0.5, 0.1]","[0.8, 0.4, 0.2]","[u'red', u'black', u'blue']","[u'left', u'middle', u'right']","[0.9, 0.5, 0.1]","[u'low', u'high', u'medium']","black",50,"middle","high","True","False",282,1200,NA
"A1ESLDCYJIENVI","Wed Oct 28 2020 20:36:07 GMT-0400 (Eastern Daylight Time)","Wed Oct 28 2020 20:44:36 GMT-0400 (Eastern Daylight Time)","Mozilla/5.0 (X11; Linux x86_64) AppleWebKit/537.36 (KHTML, like Gecko) Chrome/85.0.4183.121 Safari/537.36",19,"[0.9, 0.5, 0.1]","[0.8, 0.4, 0.2]","[u'red', u'black', u'blue']","[u'left', u'middle', u'right']","[0.9, 0.5, 0.1]","[u'low', u'high', u'medium']","black",50,"middle","high","True","False",299,1300,NA
"A1ESLDCYJIENVI","Wed Oct 28 2020 20:36:07 GMT-0400 (Eastern Daylight Time)","Wed Oct 28 2020 20:44:36 GMT-0400 (Eastern Daylight Time)","Mozilla/5.0 (X11; Linux x86_64) AppleWebKit/537.36 (KHTML, like Gecko) Chrome/85.0.4183.121 Safari/537.36",20,"[0.9, 0.5, 0.1]","[0.8, 0.4, 0.2]","[u'red', u'black', u'blue']","[u'left', u'middle', u'right']","[0.9, 0.5, 0.1]","[u'low', u'high', u'medium']","black",50,"middle","high","True","False",388,1400,NA
"A1ESLDCYJIENVI","Wed Oct 28 2020 20:36:07 GMT-0400 (Eastern Daylight Time)","Wed Oct 28 2020 20:44:36 GMT-0400 (Eastern Daylight Time)","Mozilla/5.0 (X11; Linux x86_64) AppleWebKit/537.36 (KHTML, like Gecko) Chrome/85.0.4183.121 Safari/537.36",21,"[0.9, 0.5, 0.1]","[0.8, 0.4, 0.2]","[u'red', u'black', u'blue']","[u'left', u'middle', u'right']","[0.9, 0.5, 0.1]","[u'low', u'high', u'medium']","black",50,"middle","high","True","False",395,1500,NA
"A1ESLDCYJIENVI","Wed Oct 28 2020 20:36:07 GMT-0400 (Eastern Daylight Time)","Wed Oct 28 2020 20:44:36 GMT-0400 (Eastern Daylight Time)","Mozilla/5.0 (X11; Linux x86_64) AppleWebKit/537.36 (KHTML, like Gecko) Chrome/85.0.4183.121 Safari/537.36",22,"[0.9, 0.5, 0.1]","[0.8, 0.4, 0.2]","[u'red', u'black', u'blue']","[u'left', u'middle', u'right']","[0.9, 0.5, 0.1]","[u'low', u'high', u'medium']","black",50,"middle","high","True","False",444,1600,NA
"A1ESLDCYJIENVI","Wed Oct 28 2020 20:36:07 GMT-0400 (Eastern Daylight Time)","Wed Oct 28 2020 20:44:36 GMT-0400 (Eastern Daylight Time)","Mozilla/5.0 (X11; Linux x86_64) AppleWebKit/537.36 (KHTML, like Gecko) Chrome/85.0.4183.121 Safari/537.36",23,"[0.9, 0.5, 0.1]","[0.8, 0.4, 0.2]","[u'red', u'black', u'blue']","[u'left', u'middle', u'right']","[0.9, 0.5, 0.1]","[u'low', u'high', u'medium']","black",50,"middle","high","True","False",355,1700,NA
"A1ESLDCYJIENVI","Wed Oct 28 2020 20:36:07 GMT-0400 (Eastern Daylight Time)","Wed Oct 28 2020 20:44:36 GMT-0400 (Eastern Daylight Time)","Mozilla/5.0 (X11; Linux x86_64) AppleWebKit/537.36 (KHTML, like Gecko) Chrome/85.0.4183.121 Safari/537.36",24,"[0.9, 0.5, 0.1]","[0.8, 0.4, 0.2]","[u'red', u'black', u'blue']","[u'left', u'middle', u'right']","[0.9, 0.5, 0.1]","[u'low', u'high', u'medium']","black",50,"middle","high","True","False",348,1800,NA
"A1ESLDCYJIENVI","Wed Oct 28 2020 20:36:07 GMT-0400 (Eastern Daylight Time)","Wed Oct 28 2020 20:44:36 GMT-0400 (Eastern Daylight Time)","Mozilla/5.0 (X11; Linux x86_64) AppleWebKit/537.36 (KHTML, like Gecko) Chrome/85.0.4183.121 Safari/537.36",25,"[0.9, 0.5, 0.1]","[0.8, 0.4, 0.2]","[u'red', u'black', u'blue']","[u'left', u'middle', u'right']","[0.9, 0.5, 0.1]","[u'low', u'high', u'medium']","black",50,"middle","high","True","False",291,1900,NA
"A1ESLDCYJIENVI","Wed Oct 28 2020 20:36:07 GMT-0400 (Eastern Daylight Time)","Wed Oct 28 2020 20:44:36 GMT-0400 (Eastern Daylight Time)","Mozilla/5.0 (X11; Linux x86_64) AppleWebKit/537.36 (KHTML, like Gecko) Chrome/85.0.4183.121 Safari/537.36",26,"[0.9, 0.5, 0.1]","[0.8, 0.4, 0.2]","[u'red', u'black', u'blue']","[u'left', u'middle', u'right']","[0.9, 0.5, 0.1]","[u'low', u'high', u'medium']","black",50,"middle","high","True","True",306,2000,NA
"A1ESLDCYJIENVI","Wed Oct 28 2020 20:36:07 GMT-0400 (Eastern Daylight Time)","Wed Oct 28 2020 20:44:36 GMT-0400 (Eastern Daylight Time)","Mozilla/5.0 (X11; Linux x86_64) AppleWebKit/537.36 (KHTML, like Gecko) Chrome/85.0.4183.121 Safari/537.36",27,"[0.9, 0.5, 0.1]","[0.8, 0.4, 0.2]","[u'red', u'black', u'blue']","[u'left', u'middle', u'right']","[0.9, 0.5, 0.1]","[u'medium', u'low', u'high']","black",50,"middle","low","False","False",76,1950,NA
"A1ESLDCYJIENVI","Wed Oct 28 2020 20:36:07 GMT-0400 (Eastern Daylight Time)","Wed Oct 28 2020 20:44:36 GMT-0400 (Eastern Daylight Time)","Mozilla/5.0 (X11; Linux x86_64) AppleWebKit/537.36 (KHTML, like Gecko) Chrome/85.0.4183.121 Safari/537.36",28,"[0.9, 0.5, 0.1]","[0.8, 0.4, 0.2]","[u'red', u'black', u'blue']","[u'left', u'middle', u'right']","[0.9, 0.5, 0.1]","[u'medium', u'low', u'high']","red",49,"left","medium","False","False",187,1900,NA
"A1ESLDCYJIENVI","Wed Oct 28 2020 20:36:07 GMT-0400 (Eastern Daylight Time)","Wed Oct 28 2020 20:44:36 GMT-0400 (Eastern Daylight Time)","Mozilla/5.0 (X11; Linux x86_64) AppleWebKit/537.36 (KHTML, like Gecko) Chrome/85.0.4183.121 Safari/537.36",29,"[0.9, 0.5, 0.1]","[0.8, 0.4, 0.2]","[u'red', u'black', u'blue']","[u'left', u'middle', u'right']","[0.9, 0.5, 0.1]","[u'medium', u'low', u'high']","blue",51,"right","high","True","False",276,2000,NA
"A1ESLDCYJIENVI","Wed Oct 28 2020 20:36:07 GMT-0400 (Eastern Daylight Time)","Wed Oct 28 2020 20:44:36 GMT-0400 (Eastern Daylight Time)","Mozilla/5.0 (X11; Linux x86_64) AppleWebKit/537.36 (KHTML, like Gecko) Chrome/85.0.4183.121 Safari/537.36",30,"[0.9, 0.5, 0.1]","[0.8, 0.4, 0.2]","[u'red', u'black', u'blue']","[u'left', u'middle', u'right']","[0.9, 0.5, 0.1]","[u'medium', u'low', u'high']","blue",51,"right","high","True","False",11,2100,NA
"A1ESLDCYJIENVI","Wed Oct 28 2020 20:36:07 GMT-0400 (Eastern Daylight Time)","Wed Oct 28 2020 20:44:36 GMT-0400 (Eastern Daylight Time)","Mozilla/5.0 (X11; Linux x86_64) AppleWebKit/537.36 (KHTML, like Gecko) Chrome/85.0.4183.121 Safari/537.36",31,"[0.9, 0.5, 0.1]","[0.8, 0.4, 0.2]","[u'red', u'black', u'blue']","[u'left', u'middle', u'right']","[0.9, 0.5, 0.1]","[u'medium', u'low', u'high']","blue",51,"right","high","True","False",362,2200,NA
"A1ESLDCYJIENVI","Wed Oct 28 2020 20:36:07 GMT-0400 (Eastern Daylight Time)","Wed Oct 28 2020 20:44:36 GMT-0400 (Eastern Daylight Time)","Mozilla/5.0 (X11; Linux x86_64) AppleWebKit/537.36 (KHTML, like Gecko) Chrome/85.0.4183.121 Safari/537.36",32,"[0.9, 0.5, 0.1]","[0.8, 0.4, 0.2]","[u'red', u'black', u'blue']","[u'left', u'middle', u'right']","[0.9, 0.5, 0.1]","[u'medium', u'low', u'high']","blue",51,"right","high","True","False",387,2300,NA
"A1ESLDCYJIENVI","Wed Oct 28 2020 20:36:07 GMT-0400 (Eastern Daylight Time)","Wed Oct 28 2020 20:44:36 GMT-0400 (Eastern Daylight Time)","Mozilla/5.0 (X11; Linux x86_64) AppleWebKit/537.36 (KHTML, like Gecko) Chrome/85.0.4183.121 Safari/537.36",33,"[0.9, 0.5, 0.1]","[0.8, 0.4, 0.2]","[u'red', u'black', u'blue']","[u'left', u'middle', u'right']","[0.9, 0.5, 0.1]","[u'medium', u'low', u'high']","blue",51,"right","high","True","False",363,2400,NA
"A1ESLDCYJIENVI","Wed Oct 28 2020 20:36:07 GMT-0400 (Eastern Daylight Time)","Wed Oct 28 2020 20:44:36 GMT-0400 (Eastern Daylight Time)","Mozilla/5.0 (X11; Linux x86_64) AppleWebKit/537.36 (KHTML, like Gecko) Chrome/85.0.4183.121 Safari/537.36",34,"[0.9, 0.5, 0.1]","[0.8, 0.4, 0.2]","[u'red', u'black', u'blue']","[u'left', u'middle', u'right']","[0.9, 0.5, 0.1]","[u'medium', u'low', u'high']","blue",51,"right","high","False","False",291,2350,NA
"A1ESLDCYJIENVI","Wed Oct 28 2020 20:36:07 GMT-0400 (Eastern Daylight Time)","Wed Oct 28 2020 20:44:36 GMT-0400 (Eastern Daylight Time)","Mozilla/5.0 (X11; Linux x86_64) AppleWebKit/537.36 (KHTML, like Gecko) Chrome/85.0.4183.121 Safari/537.36",35,"[0.9, 0.5, 0.1]","[0.8, 0.4, 0.2]","[u'red', u'black', u'blue']","[u'left', u'middle', u'right']","[0.9, 0.5, 0.1]","[u'medium', u'low', u'high']","black",50,"middle","low","False","False",28,2300,NA
"A1ESLDCYJIENVI","Wed Oct 28 2020 20:36:07 GMT-0400 (Eastern Daylight Time)","Wed Oct 28 2020 20:44:36 GMT-0400 (Eastern Daylight Time)","Mozilla/5.0 (X11; Linux x86_64) AppleWebKit/537.36 (KHTML, like Gecko) Chrome/85.0.4183.121 Safari/537.36",36,"[0.9, 0.5, 0.1]","[0.8, 0.4, 0.2]","[u'red', u'black', u'blue']","[u'left', u'middle', u'right']","[0.9, 0.5, 0.1]","[u'medium', u'low', u'high']","red",49,"left","medium","False","False",386,2250,NA
"A1ESLDCYJIENVI","Wed Oct 28 2020 20:36:07 GMT-0400 (Eastern Daylight Time)","Wed Oct 28 2020 20:44:36 GMT-0400 (Eastern Daylight Time)","Mozilla/5.0 (X11; Linux x86_64) AppleWebKit/537.36 (KHTML, like Gecko) Chrome/85.0.4183.121 Safari/537.36",37,"[0.9, 0.5, 0.1]","[0.8, 0.4, 0.2]","[u'red', u'black', u'blue']","[u'left', u'middle', u'right']","[0.9, 0.5, 0.1]","[u'medium', u'low', u'high']","blue",51,"right","high","True","False",220,2350,NA
"A1ESLDCYJIENVI","Wed Oct 28 2020 20:36:07 GMT-0400 (Eastern Daylight Time)","Wed Oct 28 2020 20:44:36 GMT-0400 (Eastern Daylight Time)","Mozilla/5.0 (X11; Linux x86_64) AppleWebKit/537.36 (KHTML, like Gecko) Chrome/85.0.4183.121 Safari/537.36",38,"[0.9, 0.5, 0.1]","[0.8, 0.4, 0.2]","[u'red', u'black', u'blue']","[u'left', u'middle', u'right']","[0.9, 0.5, 0.1]","[u'medium', u'low', u'high']","blue",51,"right","high","True","False",300,2450,NA
"A1ESLDCYJIENVI","Wed Oct 28 2020 20:36:07 GMT-0400 (Eastern Daylight Time)","Wed Oct 28 2020 20:44:36 GMT-0400 (Eastern Daylight Time)","Mozilla/5.0 (X11; Linux x86_64) AppleWebKit/537.36 (KHTML, like Gecko) Chrome/85.0.4183.121 Safari/537.36",39,"[0.9, 0.5, 0.1]","[0.8, 0.4, 0.2]","[u'red', u'black', u'blue']","[u'left', u'middle', u'right']","[0.9, 0.5, 0.1]","[u'medium', u'low', u'high']","blue",51,"right","high","True","False",347,2550,NA
"A1ESLDCYJIENVI","Wed Oct 28 2020 20:36:07 GMT-0400 (Eastern Daylight Time)","Wed Oct 28 2020 20:44:36 GMT-0400 (Eastern Daylight Time)","Mozilla/5.0 (X11; Linux x86_64) AppleWebKit/537.36 (KHTML, like Gecko) Chrome/85.0.4183.121 Safari/537.36",40,"[0.9, 0.5, 0.1]","[0.8, 0.4, 0.2]","[u'red', u'black', u'blue']","[u'left', u'middle', u'right']","[0.9, 0.5, 0.1]","[u'medium', u'low', u'high']","blue",51,"right","high","True","False",339,2650,NA
"A1ESLDCYJIENVI","Wed Oct 28 2020 20:36:07 GMT-0400 (Eastern Daylight Time)","Wed Oct 28 2020 20:44:36 GMT-0400 (Eastern Daylight Time)","Mozilla/5.0 (X11; Linux x86_64) AppleWebKit/537.36 (KHTML, like Gecko) Chrome/85.0.4183.121 Safari/537.36",41,"[0.9, 0.5, 0.1]","[0.8, 0.4, 0.2]","[u'red', u'black', u'blue']","[u'left', u'middle', u'right']","[0.9, 0.5, 0.1]","[u'low', u'high', u'medium']","black",50,"middle","high","True","False",491,2750,NA
"A1ESLDCYJIENVI","Wed Oct 28 2020 20:36:07 GMT-0400 (Eastern Daylight Time)","Wed Oct 28 2020 20:44:36 GMT-0400 (Eastern Daylight Time)","Mozilla/5.0 (X11; Linux x86_64) AppleWebKit/537.36 (KHTML, like Gecko) Chrome/85.0.4183.121 Safari/537.36",42,"[0.9, 0.5, 0.1]","[0.8, 0.4, 0.2]","[u'red', u'black', u'blue']","[u'left', u'middle', u'right']","[0.9, 0.5, 0.1]","[u'low', u'high', u'medium']","black",50,"middle","high","True","False",275,2850,NA
"A1ESLDCYJIENVI","Wed Oct 28 2020 20:36:07 GMT-0400 (Eastern Daylight Time)","Wed Oct 28 2020 20:44:36 GMT-0400 (Eastern Daylight Time)","Mozilla/5.0 (X11; Linux x86_64) AppleWebKit/537.36 (KHTML, like Gecko) Chrome/85.0.4183.121 Safari/537.36",43,"[0.9, 0.5, 0.1]","[0.8, 0.4, 0.2]","[u'red', u'black', u'blue']","[u'left', u'middle', u'right']","[0.9, 0.5, 0.1]","[u'low', u'high', u'medium']","black",50,"middle","high","True","False",307,2950,NA
"A1ESLDCYJIENVI","Wed Oct 28 2020 20:36:07 GMT-0400 (Eastern Daylight Time)","Wed Oct 28 2020 20:44:36 GMT-0400 (Eastern Daylight Time)","Mozilla/5.0 (X11; Linux x86_64) AppleWebKit/537.36 (KHTML, like Gecko) Chrome/85.0.4183.121 Safari/537.36",44,"[0.9, 0.5, 0.1]","[0.8, 0.4, 0.2]","[u'red', u'black', u'blue']","[u'left', u'middle', u'right']","[0.9, 0.5, 0.1]","[u'low', u'high', u'medium']","black",50,"middle","high","True","False",290,3050,NA
"A1ESLDCYJIENVI","Wed Oct 28 2020 20:36:07 GMT-0400 (Eastern Daylight Time)","Wed Oct 28 2020 20:44:36 GMT-0400 (Eastern Daylight Time)","Mozilla/5.0 (X11; Linux x86_64) AppleWebKit/537.36 (KHTML, like Gecko) Chrome/85.0.4183.121 Safari/537.36",45,"[0.9, 0.5, 0.1]","[0.8, 0.4, 0.2]","[u'red', u'black', u'blue']","[u'left', u'middle', u'right']","[0.9, 0.5, 0.1]","[u'low', u'high', u'medium']","black",50,"middle","high","True","False",316,3150,NA
"A1ESLDCYJIENVI","Wed Oct 28 2020 20:36:07 GMT-0400 (Eastern Daylight Time)","Wed Oct 28 2020 20:44:36 GMT-0400 (Eastern Daylight Time)","Mozilla/5.0 (X11; Linux x86_64) AppleWebKit/537.36 (KHTML, like Gecko) Chrome/85.0.4183.121 Safari/537.36",46,"[0.9, 0.5, 0.1]","[0.8, 0.4, 0.2]","[u'red', u'black', u'blue']","[u'left', u'middle', u'right']","[0.9, 0.5, 0.1]","[u'low', u'high', u'medium']","black",50,"middle","high","True","False",356,3250,NA
"A1ESLDCYJIENVI","Wed Oct 28 2020 20:36:07 GMT-0400 (Eastern Daylight Time)","Wed Oct 28 2020 20:44:36 GMT-0400 (Eastern Daylight Time)","Mozilla/5.0 (X11; Linux x86_64) AppleWebKit/537.36 (KHTML, like Gecko) Chrome/85.0.4183.121 Safari/537.36",47,"[0.9, 0.5, 0.1]","[0.8, 0.4, 0.2]","[u'red', u'black', u'blue']","[u'left', u'middle', u'right']","[0.9, 0.5, 0.1]","[u'low', u'high', u'medium']","black",50,"middle","high","False","False",306,3200,NA
"A1ESLDCYJIENVI","Wed Oct 28 2020 20:36:07 GMT-0400 (Eastern Daylight Time)","Wed Oct 28 2020 20:44:36 GMT-0400 (Eastern Daylight Time)","Mozilla/5.0 (X11; Linux x86_64) AppleWebKit/537.36 (KHTML, like Gecko) Chrome/85.0.4183.121 Safari/537.36",48,"[0.9, 0.5, 0.1]","[0.8, 0.4, 0.2]","[u'red', u'black', u'blue']","[u'left', u'middle', u'right']","[0.9, 0.5, 0.1]","[u'low', u'high', u'medium']","blue",51,"right","medium","False","False",371,3150,NA
"A1ESLDCYJIENVI","Wed Oct 28 2020 20:36:07 GMT-0400 (Eastern Daylight Time)","Wed Oct 28 2020 20:44:36 GMT-0400 (Eastern Daylight Time)","Mozilla/5.0 (X11; Linux x86_64) AppleWebKit/537.36 (KHTML, like Gecko) Chrome/85.0.4183.121 Safari/537.36",49,"[0.9, 0.5, 0.1]","[0.8, 0.4, 0.2]","[u'red', u'black', u'blue']","[u'left', u'middle', u'right']","[0.9, 0.5, 0.1]","[u'low', u'high', u'medium']","black",50,"middle","high","True","False",163,3250,NA
"A1ESLDCYJIENVI","Wed Oct 28 2020 20:36:07 GMT-0400 (Eastern Daylight Time)","Wed Oct 28 2020 20:44:36 GMT-0400 (Eastern Daylight Time)","Mozilla/5.0 (X11; Linux x86_64) AppleWebKit/537.36 (KHTML, like Gecko) Chrome/85.0.4183.121 Safari/537.36",50,"[0.9, 0.5, 0.1]","[0.8, 0.4, 0.2]","[u'red', u'black', u'blue']","[u'left', u'middle', u'right']","[0.9, 0.5, 0.1]","[u'low', u'high', u'medium']","black",50,"middle","high","False","True",260,3200,NA
"A1ESLDCYJIENVI","Wed Oct 28 2020 20:36:07 GMT-0400 (Eastern Daylight Time)","Wed Oct 28 2020 20:44:36 GMT-0400 (Eastern Daylight Time)","Mozilla/5.0 (X11; Linux x86_64) AppleWebKit/537.36 (KHTML, like Gecko) Chrome/85.0.4183.121 Safari/537.36",51,"[0.9, 0.5, 0.1]","[0.8, 0.4, 0.2]","[u'red', u'black', u'blue']","[u'left', u'middle', u'right']","[0.9, 0.5, 0.1]","[u'medium', u'low', u'high']","red",49,"left","medium","False","False",235,3150,NA
"A1ESLDCYJIENVI","Wed Oct 28 2020 20:36:07 GMT-0400 (Eastern Daylight Time)","Wed Oct 28 2020 20:44:36 GMT-0400 (Eastern Daylight Time)","Mozilla/5.0 (X11; Linux x86_64) AppleWebKit/537.36 (KHTML, like Gecko) Chrome/85.0.4183.121 Safari/537.36",52,"[0.9, 0.5, 0.1]","[0.8, 0.4, 0.2]","[u'red', u'black', u'blue']","[u'left', u'middle', u'right']","[0.9, 0.5, 0.1]","[u'medium', u'low', u'high']","blue",51,"right","high","False","False",316,3100,NA
"A1ESLDCYJIENVI","Wed Oct 28 2020 20:36:07 GMT-0400 (Eastern Daylight Time)","Wed Oct 28 2020 20:44:36 GMT-0400 (Eastern Daylight Time)","Mozilla/5.0 (X11; Linux x86_64) AppleWebKit/537.36 (KHTML, like Gecko) Chrome/85.0.4183.121 Safari/537.36",53,"[0.9, 0.5, 0.1]","[0.8, 0.4, 0.2]","[u'red', u'black', u'blue']","[u'left', u'middle', u'right']","[0.9, 0.5, 0.1]","[u'medium', u'low', u'high']","blue",51,"right","high","True","False",146,3200,NA
"A1ESLDCYJIENVI","Wed Oct 28 2020 20:36:07 GMT-0400 (Eastern Daylight Time)","Wed Oct 28 2020 20:44:36 GMT-0400 (Eastern Daylight Time)","Mozilla/5.0 (X11; Linux x86_64) AppleWebKit/537.36 (KHTML, like Gecko) Chrome/85.0.4183.121 Safari/537.36",54,"[0.9, 0.5, 0.1]","[0.8, 0.4, 0.2]","[u'red', u'black', u'blue']","[u'left', u'middle', u'right']","[0.9, 0.5, 0.1]","[u'medium', u'low', u'high']","blue",51,"right","high","True","False",292,3300,NA
"A1ESLDCYJIENVI","Wed Oct 28 2020 20:36:07 GMT-0400 (Eastern Daylight Time)","Wed Oct 28 2020 20:44:36 GMT-0400 (Eastern Daylight Time)","Mozilla/5.0 (X11; Linux x86_64) AppleWebKit/537.36 (KHTML, like Gecko) Chrome/85.0.4183.121 Safari/537.36",55,"[0.9, 0.5, 0.1]","[0.8, 0.4, 0.2]","[u'red', u'black', u'blue']","[u'left', u'middle', u'right']","[0.9, 0.5, 0.1]","[u'medium', u'low', u'high']","blue",51,"right","high","True","False",348,3400,NA
"A1ESLDCYJIENVI","Wed Oct 28 2020 20:36:07 GMT-0400 (Eastern Daylight Time)","Wed Oct 28 2020 20:44:36 GMT-0400 (Eastern Daylight Time)","Mozilla/5.0 (X11; Linux x86_64) AppleWebKit/537.36 (KHTML, like Gecko) Chrome/85.0.4183.121 Safari/537.36",56,"[0.9, 0.5, 0.1]","[0.8, 0.4, 0.2]","[u'red', u'black', u'blue']","[u'left', u'middle', u'right']","[0.9, 0.5, 0.1]","[u'medium', u'low', u'high']","blue",51,"right","high","True","False",268,3500,NA
"A1ESLDCYJIENVI","Wed Oct 28 2020 20:36:07 GMT-0400 (Eastern Daylight Time)","Wed Oct 28 2020 20:44:36 GMT-0400 (Eastern Daylight Time)","Mozilla/5.0 (X11; Linux x86_64) AppleWebKit/537.36 (KHTML, like Gecko) Chrome/85.0.4183.121 Safari/537.36",57,"[0.9, 0.5, 0.1]","[0.8, 0.4, 0.2]","[u'red', u'black', u'blue']","[u'left', u'middle', u'right']","[0.9, 0.5, 0.1]","[u'medium', u'low', u'high']","blue",51,"right","high","True","False",275,3600,NA
"A1ESLDCYJIENVI","Wed Oct 28 2020 20:36:07 GMT-0400 (Eastern Daylight Time)","Wed Oct 28 2020 20:44:36 GMT-0400 (Eastern Daylight Time)","Mozilla/5.0 (X11; Linux x86_64) AppleWebKit/537.36 (KHTML, like Gecko) Chrome/85.0.4183.121 Safari/537.36",58,"[0.9, 0.5, 0.1]","[0.8, 0.4, 0.2]","[u'red', u'black', u'blue']","[u'left', u'middle', u'right']","[0.9, 0.5, 0.1]","[u'medium', u'low', u'high']","blue",51,"right","high","True","False",252,3700,NA
"A1ESLDCYJIENVI","Wed Oct 28 2020 20:36:07 GMT-0400 (Eastern Daylight Time)","Wed Oct 28 2020 20:44:36 GMT-0400 (Eastern Daylight Time)","Mozilla/5.0 (X11; Linux x86_64) AppleWebKit/537.36 (KHTML, like Gecko) Chrome/85.0.4183.121 Safari/537.36",59,"[0.9, 0.5, 0.1]","[0.8, 0.4, 0.2]","[u'red', u'black', u'blue']","[u'left', u'middle', u'right']","[0.9, 0.5, 0.1]","[u'medium', u'low', u'high']","blue",51,"right","high","True","False",331,3800,NA
"A1ESLDCYJIENVI","Wed Oct 28 2020 20:36:07 GMT-0400 (Eastern Daylight Time)","Wed Oct 28 2020 20:44:36 GMT-0400 (Eastern Daylight Time)","Mozilla/5.0 (X11; Linux x86_64) AppleWebKit/537.36 (KHTML, like Gecko) Chrome/85.0.4183.121 Safari/537.36",60,"[0.9, 0.5, 0.1]","[0.8, 0.4, 0.2]","[u'red', u'black', u'blue']","[u'left', u'middle', u'right']","[0.9, 0.5, 0.1]","[u'medium', u'low', u'high']","blue",51,"right","high","True","True",339,3900,NA
"A1ESLDCYJIENVI","Wed Oct 28 2020 20:36:07 GMT-0400 (Eastern Daylight Time)","Wed Oct 28 2020 20:44:36 GMT-0400 (Eastern Daylight Time)","Mozilla/5.0 (X11; Linux x86_64) AppleWebKit/537.36 (KHTML, like Gecko) Chrome/85.0.4183.121 Safari/537.36",61,"[0.9, 0.5, 0.1]","[0.8, 0.4, 0.2]","[u'red', u'black', u'blue']","[u'left', u'middle', u'right']","[0.9, 0.5, 0.1]","[u'medium', u'high', u'low']","blue",51,"right","low","False","False",299,3850,NA
"A1ESLDCYJIENVI","Wed Oct 28 2020 20:36:07 GMT-0400 (Eastern Daylight Time)","Wed Oct 28 2020 20:44:36 GMT-0400 (Eastern Daylight Time)","Mozilla/5.0 (X11; Linux x86_64) AppleWebKit/537.36 (KHTML, like Gecko) Chrome/85.0.4183.121 Safari/537.36",62,"[0.9, 0.5, 0.1]","[0.8, 0.4, 0.2]","[u'red', u'black', u'blue']","[u'left', u'middle', u'right']","[0.9, 0.5, 0.1]","[u'medium', u'high', u'low']","black",50,"middle","high","True","False",259,3950,NA
"A1ESLDCYJIENVI","Wed Oct 28 2020 20:36:07 GMT-0400 (Eastern Daylight Time)","Wed Oct 28 2020 20:44:36 GMT-0400 (Eastern Daylight Time)","Mozilla/5.0 (X11; Linux x86_64) AppleWebKit/537.36 (KHTML, like Gecko) Chrome/85.0.4183.121 Safari/537.36",63,"[0.9, 0.5, 0.1]","[0.8, 0.4, 0.2]","[u'red', u'black', u'blue']","[u'left', u'middle', u'right']","[0.9, 0.5, 0.1]","[u'medium', u'high', u'low']","black",50,"middle","high","True","False",307,4050,NA
"A1ESLDCYJIENVI","Wed Oct 28 2020 20:36:07 GMT-0400 (Eastern Daylight Time)","Wed Oct 28 2020 20:44:36 GMT-0400 (Eastern Daylight Time)","Mozilla/5.0 (X11; Linux x86_64) AppleWebKit/537.36 (KHTML, like Gecko) Chrome/85.0.4183.121 Safari/537.36",64,"[0.9, 0.5, 0.1]","[0.8, 0.4, 0.2]","[u'red', u'black', u'blue']","[u'left', u'middle', u'right']","[0.9, 0.5, 0.1]","[u'medium', u'high', u'low']","black",50,"middle","high","True","False",340,4150,NA
"A1ESLDCYJIENVI","Wed Oct 28 2020 20:36:07 GMT-0400 (Eastern Daylight Time)","Wed Oct 28 2020 20:44:36 GMT-0400 (Eastern Daylight Time)","Mozilla/5.0 (X11; Linux x86_64) AppleWebKit/537.36 (KHTML, like Gecko) Chrome/85.0.4183.121 Safari/537.36",65,"[0.9, 0.5, 0.1]","[0.8, 0.4, 0.2]","[u'red', u'black', u'blue']","[u'left', u'middle', u'right']","[0.9, 0.5, 0.1]","[u'medium', u'high', u'low']","black",50,"middle","high","True","False",314,4250,NA
"A1ESLDCYJIENVI","Wed Oct 28 2020 20:36:07 GMT-0400 (Eastern Daylight Time)","Wed Oct 28 2020 20:44:36 GMT-0400 (Eastern Daylight Time)","Mozilla/5.0 (X11; Linux x86_64) AppleWebKit/537.36 (KHTML, like Gecko) Chrome/85.0.4183.121 Safari/537.36",66,"[0.9, 0.5, 0.1]","[0.8, 0.4, 0.2]","[u'red', u'black', u'blue']","[u'left', u'middle', u'right']","[0.9, 0.5, 0.1]","[u'medium', u'high', u'low']","black",50,"middle","high","True","False",267,4350,NA
"A1ESLDCYJIENVI","Wed Oct 28 2020 20:36:07 GMT-0400 (Eastern Daylight Time)","Wed Oct 28 2020 20:44:36 GMT-0400 (Eastern Daylight Time)","Mozilla/5.0 (X11; Linux x86_64) AppleWebKit/537.36 (KHTML, like Gecko) Chrome/85.0.4183.121 Safari/537.36",67,"[0.9, 0.5, 0.1]","[0.8, 0.4, 0.2]","[u'red', u'black', u'blue']","[u'left', u'middle', u'right']","[0.9, 0.5, 0.1]","[u'medium', u'high', u'low']","black",50,"middle","high","True","False",291,4450,NA
"A1ESLDCYJIENVI","Wed Oct 28 2020 20:36:07 GMT-0400 (Eastern Daylight Time)","Wed Oct 28 2020 20:44:36 GMT-0400 (Eastern Daylight Time)","Mozilla/5.0 (X11; Linux x86_64) AppleWebKit/537.36 (KHTML, like Gecko) Chrome/85.0.4183.121 Safari/537.36",68,"[0.9, 0.5, 0.1]","[0.8, 0.4, 0.2]","[u'red', u'black', u'blue']","[u'left', u'middle', u'right']","[0.9, 0.5, 0.1]","[u'medium', u'high', u'low']","black",50,"middle","high","True","False",315,4550,NA
"A1ESLDCYJIENVI","Wed Oct 28 2020 20:36:07 GMT-0400 (Eastern Daylight Time)","Wed Oct 28 2020 20:44:36 GMT-0400 (Eastern Daylight Time)","Mozilla/5.0 (X11; Linux x86_64) AppleWebKit/537.36 (KHTML, like Gecko) Chrome/85.0.4183.121 Safari/537.36",69,"[0.9, 0.5, 0.1]","[0.8, 0.4, 0.2]","[u'red', u'black', u'blue']","[u'left', u'middle', u'right']","[0.9, 0.5, 0.1]","[u'medium', u'high', u'low']","black",50,"middle","high","False","False",147,4500,NA
"A1ESLDCYJIENVI","Wed Oct 28 2020 20:36:07 GMT-0400 (Eastern Daylight Time)","Wed Oct 28 2020 20:44:36 GMT-0400 (Eastern Daylight Time)","Mozilla/5.0 (X11; Linux x86_64) AppleWebKit/537.36 (KHTML, like Gecko) Chrome/85.0.4183.121 Safari/537.36",70,"[0.9, 0.5, 0.1]","[0.8, 0.4, 0.2]","[u'red', u'black', u'blue']","[u'left', u'middle', u'right']","[0.9, 0.5, 0.1]","[u'medium', u'high', u'low']","red",49,"left","medium","False","False",260,4450,NA
"A1ESLDCYJIENVI","Wed Oct 28 2020 20:36:07 GMT-0400 (Eastern Daylight Time)","Wed Oct 28 2020 20:44:36 GMT-0400 (Eastern Daylight Time)","Mozilla/5.0 (X11; Linux x86_64) AppleWebKit/537.36 (KHTML, like Gecko) Chrome/85.0.4183.121 Safari/537.36",71,"[0.9, 0.5, 0.1]","[0.8, 0.4, 0.2]","[u'red', u'black', u'blue']","[u'left', u'middle', u'right']","[0.9, 0.5, 0.1]","[u'medium', u'high', u'low']","blue",51,"right","low","False","False",405,4400,NA
"A1ESLDCYJIENVI","Wed Oct 28 2020 20:36:07 GMT-0400 (Eastern Daylight Time)","Wed Oct 28 2020 20:44:36 GMT-0400 (Eastern Daylight Time)","Mozilla/5.0 (X11; Linux x86_64) AppleWebKit/537.36 (KHTML, like Gecko) Chrome/85.0.4183.121 Safari/537.36",72,"[0.9, 0.5, 0.1]","[0.8, 0.4, 0.2]","[u'red', u'black', u'blue']","[u'left', u'middle', u'right']","[0.9, 0.5, 0.1]","[u'medium', u'high', u'low']","black",50,"middle","high","True","False",476,4500,NA
"A1ESLDCYJIENVI","Wed Oct 28 2020 20:36:07 GMT-0400 (Eastern Daylight Time)","Wed Oct 28 2020 20:44:36 GMT-0400 (Eastern Daylight Time)","Mozilla/5.0 (X11; Linux x86_64) AppleWebKit/537.36 (KHTML, like Gecko) Chrome/85.0.4183.121 Safari/537.36",73,"[0.9, 0.5, 0.1]","[0.8, 0.4, 0.2]","[u'red', u'black', u'blue']","[u'left', u'middle', u'right']","[0.9, 0.5, 0.1]","[u'medium', u'high', u'low']","black",50,"middle","high","True","False",300,4600,NA
"A1ESLDCYJIENVI","Wed Oct 28 2020 20:36:07 GMT-0400 (Eastern Daylight Time)","Wed Oct 28 2020 20:44:36 GMT-0400 (Eastern Daylight Time)","Mozilla/5.0 (X11; Linux x86_64) AppleWebKit/537.36 (KHTML, like Gecko) Chrome/85.0.4183.121 Safari/537.36",74,"[0.9, 0.5, 0.1]","[0.8, 0.4, 0.2]","[u'red', u'black', u'blue']","[u'left', u'middle', u'right']","[0.9, 0.5, 0.1]","[u'medium', u'high', u'low']","black",50,"middle","high","True","False",275,4700,NA
"A1ESLDCYJIENVI","Wed Oct 28 2020 20:36:07 GMT-0400 (Eastern Daylight Time)","Wed Oct 28 2020 20:44:36 GMT-0400 (Eastern Daylight Time)","Mozilla/5.0 (X11; Linux x86_64) AppleWebKit/537.36 (KHTML, like Gecko) Chrome/85.0.4183.121 Safari/537.36",75,"[0.9, 0.5, 0.1]","[0.8, 0.4, 0.2]","[u'red', u'black', u'blue']","[u'left', u'middle', u'right']","[0.9, 0.5, 0.1]","[u'medium', u'high', u'low']","black",50,"middle","high","True","False",267,4800,NA
"A1ESLDCYJIENVI","Wed Oct 28 2020 20:36:07 GMT-0400 (Eastern Daylight Time)","Wed Oct 28 2020 20:44:36 GMT-0400 (Eastern Daylight Time)","Mozilla/5.0 (X11; Linux x86_64) AppleWebKit/537.36 (KHTML, like Gecko) Chrome/85.0.4183.121 Safari/537.36",76,"[0.9, 0.5, 0.1]","[0.8, 0.4, 0.2]","[u'red', u'black', u'blue']","[u'left', u'middle', u'right']","[0.9, 0.5, 0.1]","[u'medium', u'high', u'low']","black",50,"middle","high","True","False",68,4900,NA
"A1ESLDCYJIENVI","Wed Oct 28 2020 20:36:07 GMT-0400 (Eastern Daylight Time)","Wed Oct 28 2020 20:44:36 GMT-0400 (Eastern Daylight Time)","Mozilla/5.0 (X11; Linux x86_64) AppleWebKit/537.36 (KHTML, like Gecko) Chrome/85.0.4183.121 Safari/537.36",77,"[0.9, 0.5, 0.1]","[0.8, 0.4, 0.2]","[u'red', u'black', u'blue']","[u'left', u'middle', u'right']","[0.9, 0.5, 0.1]","[u'medium', u'high', u'low']","black",50,"middle","high","True","False",274,5000,NA
"A1ESLDCYJIENVI","Wed Oct 28 2020 20:36:07 GMT-0400 (Eastern Daylight Time)","Wed Oct 28 2020 20:44:36 GMT-0400 (Eastern Daylight Time)","Mozilla/5.0 (X11; Linux x86_64) AppleWebKit/537.36 (KHTML, like Gecko) Chrome/85.0.4183.121 Safari/537.36",78,"[0.9, 0.5, 0.1]","[0.8, 0.4, 0.2]","[u'red', u'black', u'blue']","[u'left', u'middle', u'right']","[0.9, 0.5, 0.1]","[u'medium', u'high', u'low']","black",50,"middle","high","False","False",251,4950,NA
"A1ESLDCYJIENVI","Wed Oct 28 2020 20:36:07 GMT-0400 (Eastern Daylight Time)","Wed Oct 28 2020 20:44:36 GMT-0400 (Eastern Daylight Time)","Mozilla/5.0 (X11; Linux x86_64) AppleWebKit/537.36 (KHTML, like Gecko) Chrome/85.0.4183.121 Safari/537.36",79,"[0.9, 0.5, 0.1]","[0.8, 0.4, 0.2]","[u'red', u'black', u'blue']","[u'left', u'middle', u'right']","[0.9, 0.5, 0.1]","[u'medium', u'high', u'low']","blue",51,"right","low","False","False",251,4900,NA
"A1ESLDCYJIENVI","Wed Oct 28 2020 20:36:07 GMT-0400 (Eastern Daylight Time)","Wed Oct 28 2020 20:44:36 GMT-0400 (Eastern Daylight Time)","Mozilla/5.0 (X11; Linux x86_64) AppleWebKit/537.36 (KHTML, like Gecko) Chrome/85.0.4183.121 Safari/537.36",80,"[0.9, 0.5, 0.1]","[0.8, 0.4, 0.2]","[u'red', u'black', u'blue']","[u'left', u'middle', u'right']","[0.9, 0.5, 0.1]","[u'medium', u'high', u'low']","red",49,"left","medium","True","False",459,5000,NA
"A1ESLDCYJIENVI","Wed Oct 28 2020 20:36:07 GMT-0400 (Eastern Daylight Time)","Wed Oct 28 2020 20:44:36 GMT-0400 (Eastern Daylight Time)","Mozilla/5.0 (X11; Linux x86_64) AppleWebKit/537.36 (KHTML, like Gecko) Chrome/85.0.4183.121 Safari/537.36",81,"[0.9, 0.5, 0.1]","[0.8, 0.4, 0.2]","[u'red', u'black', u'blue']","[u'left', u'middle', u'right']","[0.8, 0.4, 0.2]","[u'medium', u'low', u'high']","red",49,"left","medium","False","False",498,4950,NA
"A1ESLDCYJIENVI","Wed Oct 28 2020 20:36:07 GMT-0400 (Eastern Daylight Time)","Wed Oct 28 2020 20:44:36 GMT-0400 (Eastern Daylight Time)","Mozilla/5.0 (X11; Linux x86_64) AppleWebKit/537.36 (KHTML, like Gecko) Chrome/85.0.4183.121 Safari/537.36",82,"[0.9, 0.5, 0.1]","[0.8, 0.4, 0.2]","[u'red', u'black', u'blue']","[u'left', u'middle', u'right']","[0.8, 0.4, 0.2]","[u'medium', u'low', u'high']","blue",51,"right","high","False","False",307,4900,NA
"A1ESLDCYJIENVI","Wed Oct 28 2020 20:36:07 GMT-0400 (Eastern Daylight Time)","Wed Oct 28 2020 20:44:36 GMT-0400 (Eastern Daylight Time)","Mozilla/5.0 (X11; Linux x86_64) AppleWebKit/537.36 (KHTML, like Gecko) Chrome/85.0.4183.121 Safari/537.36",83,"[0.9, 0.5, 0.1]","[0.8, 0.4, 0.2]","[u'red', u'black', u'blue']","[u'left', u'middle', u'right']","[0.8, 0.4, 0.2]","[u'medium', u'low', u'high']","black",50,"middle","low","False","False",267,4850,NA
"A1ESLDCYJIENVI","Wed Oct 28 2020 20:36:07 GMT-0400 (Eastern Daylight Time)","Wed Oct 28 2020 20:44:36 GMT-0400 (Eastern Daylight Time)","Mozilla/5.0 (X11; Linux x86_64) AppleWebKit/537.36 (KHTML, like Gecko) Chrome/85.0.4183.121 Safari/537.36",84,"[0.9, 0.5, 0.1]","[0.8, 0.4, 0.2]","[u'red', u'black', u'blue']","[u'left', u'middle', u'right']","[0.8, 0.4, 0.2]","[u'medium', u'low', u'high']","black",50,"middle","low","False","False",227,4800,NA
"A1ESLDCYJIENVI","Wed Oct 28 2020 20:36:07 GMT-0400 (Eastern Daylight Time)","Wed Oct 28 2020 20:44:36 GMT-0400 (Eastern Daylight Time)","Mozilla/5.0 (X11; Linux x86_64) AppleWebKit/537.36 (KHTML, like Gecko) Chrome/85.0.4183.121 Safari/537.36",85,"[0.9, 0.5, 0.1]","[0.8, 0.4, 0.2]","[u'red', u'black', u'blue']","[u'left', u'middle', u'right']","[0.8, 0.4, 0.2]","[u'medium', u'low', u'high']","blue",51,"right","high","True","False",243,4900,NA
"A1ESLDCYJIENVI","Wed Oct 28 2020 20:36:07 GMT-0400 (Eastern Daylight Time)","Wed Oct 28 2020 20:44:36 GMT-0400 (Eastern Daylight Time)","Mozilla/5.0 (X11; Linux x86_64) AppleWebKit/537.36 (KHTML, like Gecko) Chrome/85.0.4183.121 Safari/537.36",86,"[0.9, 0.5, 0.1]","[0.8, 0.4, 0.2]","[u'red', u'black', u'blue']","[u'left', u'middle', u'right']","[0.8, 0.4, 0.2]","[u'medium', u'low', u'high']","blue",51,"right","high","True","False",228,5000,NA
"A1ESLDCYJIENVI","Wed Oct 28 2020 20:36:07 GMT-0400 (Eastern Daylight Time)","Wed Oct 28 2020 20:44:36 GMT-0400 (Eastern Daylight Time)","Mozilla/5.0 (X11; Linux x86_64) AppleWebKit/537.36 (KHTML, like Gecko) Chrome/85.0.4183.121 Safari/537.36",87,"[0.9, 0.5, 0.1]","[0.8, 0.4, 0.2]","[u'red', u'black', u'blue']","[u'left', u'middle', u'right']","[0.8, 0.4, 0.2]","[u'medium', u'low', u'high']","blue",51,"right","high","True","False",316,5100,NA
"A1ESLDCYJIENVI","Wed Oct 28 2020 20:36:07 GMT-0400 (Eastern Daylight Time)","Wed Oct 28 2020 20:44:36 GMT-0400 (Eastern Daylight Time)","Mozilla/5.0 (X11; Linux x86_64) AppleWebKit/537.36 (KHTML, like Gecko) Chrome/85.0.4183.121 Safari/537.36",88,"[0.9, 0.5, 0.1]","[0.8, 0.4, 0.2]","[u'red', u'black', u'blue']","[u'left', u'middle', u'right']","[0.8, 0.4, 0.2]","[u'medium', u'low', u'high']","blue",51,"right","high","False","False",331,5050,NA
"A1ESLDCYJIENVI","Wed Oct 28 2020 20:36:07 GMT-0400 (Eastern Daylight Time)","Wed Oct 28 2020 20:44:36 GMT-0400 (Eastern Daylight Time)","Mozilla/5.0 (X11; Linux x86_64) AppleWebKit/537.36 (KHTML, like Gecko) Chrome/85.0.4183.121 Safari/537.36",89,"[0.9, 0.5, 0.1]","[0.8, 0.4, 0.2]","[u'red', u'black', u'blue']","[u'left', u'middle', u'right']","[0.8, 0.4, 0.2]","[u'medium', u'low', u'high']","blue",51,"right","high","True","False",260,5150,NA
"A1ESLDCYJIENVI","Wed Oct 28 2020 20:36:07 GMT-0400 (Eastern Daylight Time)","Wed Oct 28 2020 20:44:36 GMT-0400 (Eastern Daylight Time)","Mozilla/5.0 (X11; Linux x86_64) AppleWebKit/537.36 (KHTML, like Gecko) Chrome/85.0.4183.121 Safari/537.36",90,"[0.9, 0.5, 0.1]","[0.8, 0.4, 0.2]","[u'red', u'black', u'blue']","[u'left', u'middle', u'right']","[0.8, 0.4, 0.2]","[u'medium', u'low', u'high']","blue",51,"right","high","True","False",243,5250,NA
"A1ESLDCYJIENVI","Wed Oct 28 2020 20:36:07 GMT-0400 (Eastern Daylight Time)","Wed Oct 28 2020 20:44:36 GMT-0400 (Eastern Daylight Time)","Mozilla/5.0 (X11; Linux x86_64) AppleWebKit/537.36 (KHTML, like Gecko) Chrome/85.0.4183.121 Safari/537.36",91,"[0.9, 0.5, 0.1]","[0.8, 0.4, 0.2]","[u'red', u'black', u'blue']","[u'left', u'middle', u'right']","[0.8, 0.4, 0.2]","[u'medium', u'low', u'high']","blue",51,"right","high","False","False",323,5200,NA
"A1ESLDCYJIENVI","Wed Oct 28 2020 20:36:07 GMT-0400 (Eastern Daylight Time)","Wed Oct 28 2020 20:44:36 GMT-0400 (Eastern Daylight Time)","Mozilla/5.0 (X11; Linux x86_64) AppleWebKit/537.36 (KHTML, like Gecko) Chrome/85.0.4183.121 Safari/537.36",92,"[0.9, 0.5, 0.1]","[0.8, 0.4, 0.2]","[u'red', u'black', u'blue']","[u'left', u'middle', u'right']","[0.8, 0.4, 0.2]","[u'medium', u'low', u'high']","red",49,"left","medium","False","False",267,5150,NA
"A1ESLDCYJIENVI","Wed Oct 28 2020 20:36:07 GMT-0400 (Eastern Daylight Time)","Wed Oct 28 2020 20:44:36 GMT-0400 (Eastern Daylight Time)","Mozilla/5.0 (X11; Linux x86_64) AppleWebKit/537.36 (KHTML, like Gecko) Chrome/85.0.4183.121 Safari/537.36",93,"[0.9, 0.5, 0.1]","[0.8, 0.4, 0.2]","[u'red', u'black', u'blue']","[u'left', u'middle', u'right']","[0.8, 0.4, 0.2]","[u'medium', u'low', u'high']","black",50,"middle","low","False","False",435,5100,NA
"A1ESLDCYJIENVI","Wed Oct 28 2020 20:36:07 GMT-0400 (Eastern Daylight Time)","Wed Oct 28 2020 20:44:36 GMT-0400 (Eastern Daylight Time)","Mozilla/5.0 (X11; Linux x86_64) AppleWebKit/537.36 (KHTML, like Gecko) Chrome/85.0.4183.121 Safari/537.36",94,"[0.9, 0.5, 0.1]","[0.8, 0.4, 0.2]","[u'red', u'black', u'blue']","[u'left', u'middle', u'right']","[0.8, 0.4, 0.2]","[u'medium', u'low', u'high']","red",49,"left","medium","True","False",355,5200,NA
"A1ESLDCYJIENVI","Wed Oct 28 2020 20:36:07 GMT-0400 (Eastern Daylight Time)","Wed Oct 28 2020 20:44:36 GMT-0400 (Eastern Daylight Time)","Mozilla/5.0 (X11; Linux x86_64) AppleWebKit/537.36 (KHTML, like Gecko) Chrome/85.0.4183.121 Safari/537.36",95,"[0.9, 0.5, 0.1]","[0.8, 0.4, 0.2]","[u'red', u'black', u'blue']","[u'left', u'middle', u'right']","[0.8, 0.4, 0.2]","[u'medium', u'low', u'high']","red",49,"left","medium","True","False",339,5300,NA
"A1ESLDCYJIENVI","Wed Oct 28 2020 20:36:07 GMT-0400 (Eastern Daylight Time)","Wed Oct 28 2020 20:44:36 GMT-0400 (Eastern Daylight Time)","Mozilla/5.0 (X11; Linux x86_64) AppleWebKit/537.36 (KHTML, like Gecko) Chrome/85.0.4183.121 Safari/537.36",96,"[0.9, 0.5, 0.1]","[0.8, 0.4, 0.2]","[u'red', u'black', u'blue']","[u'left', u'middle', u'right']","[0.8, 0.4, 0.2]","[u'medium', u'low', u'high']","red",49,"left","medium","False","False",299,5250,NA
"A1ESLDCYJIENVI","Wed Oct 28 2020 20:36:07 GMT-0400 (Eastern Daylight Time)","Wed Oct 28 2020 20:44:36 GMT-0400 (Eastern Daylight Time)","Mozilla/5.0 (X11; Linux x86_64) AppleWebKit/537.36 (KHTML, like Gecko) Chrome/85.0.4183.121 Safari/537.36",97,"[0.9, 0.5, 0.1]","[0.8, 0.4, 0.2]","[u'red', u'black', u'blue']","[u'left', u'middle', u'right']","[0.8, 0.4, 0.2]","[u'medium', u'low', u'high']","black",50,"middle","low","False","False",347,5200,NA
"A1ESLDCYJIENVI","Wed Oct 28 2020 20:36:07 GMT-0400 (Eastern Daylight Time)","Wed Oct 28 2020 20:44:36 GMT-0400 (Eastern Daylight Time)","Mozilla/5.0 (X11; Linux x86_64) AppleWebKit/537.36 (KHTML, like Gecko) Chrome/85.0.4183.121 Safari/537.36",98,"[0.9, 0.5, 0.1]","[0.8, 0.4, 0.2]","[u'red', u'black', u'blue']","[u'left', u'middle', u'right']","[0.8, 0.4, 0.2]","[u'medium', u'low', u'high']","blue",51,"right","high","False","False",267,5150,NA
"A1ESLDCYJIENVI","Wed Oct 28 2020 20:36:07 GMT-0400 (Eastern Daylight Time)","Wed Oct 28 2020 20:44:36 GMT-0400 (Eastern Daylight Time)","Mozilla/5.0 (X11; Linux x86_64) AppleWebKit/537.36 (KHTML, like Gecko) Chrome/85.0.4183.121 Safari/537.36",99,"[0.9, 0.5, 0.1]","[0.8, 0.4, 0.2]","[u'red', u'black', u'blue']","[u'left', u'middle', u'right']","[0.8, 0.4, 0.2]","[u'medium', u'low', u'high']","black",50,"middle","low","True","False",284,5250,NA
"A1ESLDCYJIENVI","Wed Oct 28 2020 20:36:07 GMT-0400 (Eastern Daylight Time)","Wed Oct 28 2020 20:44:36 GMT-0400 (Eastern Daylight Time)","Mozilla/5.0 (X11; Linux x86_64) AppleWebKit/537.36 (KHTML, like Gecko) Chrome/85.0.4183.121 Safari/537.36",100,"[0.9, 0.5, 0.1]","[0.8, 0.4, 0.2]","[u'red', u'black', u'blue']","[u'left', u'middle', u'right']","[0.8, 0.4, 0.2]","[u'medium', u'low', u'high']","black",50,"middle","low","False","False",178,5200,NA
"A1ESLDCYJIENVI","Wed Oct 28 2020 20:36:07 GMT-0400 (Eastern Daylight Time)","Wed Oct 28 2020 20:44:36 GMT-0400 (Eastern Daylight Time)","Mozilla/5.0 (X11; Linux x86_64) AppleWebKit/537.36 (KHTML, like Gecko) Chrome/85.0.4183.121 Safari/537.36",101,"[0.9, 0.5, 0.1]","[0.8, 0.4, 0.2]","[u'red', u'black', u'blue']","[u'left', u'middle', u'right']","[0.8, 0.4, 0.2]","[u'medium', u'low', u'high']","black",50,"middle","low","False","False",683,5150,NA
"A1ESLDCYJIENVI","Wed Oct 28 2020 20:36:07 GMT-0400 (Eastern Daylight Time)","Wed Oct 28 2020 20:44:36 GMT-0400 (Eastern Daylight Time)","Mozilla/5.0 (X11; Linux x86_64) AppleWebKit/537.36 (KHTML, like Gecko) Chrome/85.0.4183.121 Safari/537.36",102,"[0.9, 0.5, 0.1]","[0.8, 0.4, 0.2]","[u'red', u'black', u'blue']","[u'left', u'middle', u'right']","[0.8, 0.4, 0.2]","[u'medium', u'low', u'high']","red",49,"left","medium","False","False",564,5100,NA
"A1ESLDCYJIENVI","Wed Oct 28 2020 20:36:07 GMT-0400 (Eastern Daylight Time)","Wed Oct 28 2020 20:44:36 GMT-0400 (Eastern Daylight Time)","Mozilla/5.0 (X11; Linux x86_64) AppleWebKit/537.36 (KHTML, like Gecko) Chrome/85.0.4183.121 Safari/537.36",103,"[0.9, 0.5, 0.1]","[0.8, 0.4, 0.2]","[u'red', u'black', u'blue']","[u'left', u'middle', u'right']","[0.8, 0.4, 0.2]","[u'medium', u'low', u'high']","red",49,"left","medium","False","False",291,5050,NA
"A1ESLDCYJIENVI","Wed Oct 28 2020 20:36:07 GMT-0400 (Eastern Daylight Time)","Wed Oct 28 2020 20:44:36 GMT-0400 (Eastern Daylight Time)","Mozilla/5.0 (X11; Linux x86_64) AppleWebKit/537.36 (KHTML, like Gecko) Chrome/85.0.4183.121 Safari/537.36",104,"[0.9, 0.5, 0.1]","[0.8, 0.4, 0.2]","[u'red', u'black', u'blue']","[u'left', u'middle', u'right']","[0.8, 0.4, 0.2]","[u'medium', u'low', u'high']","blue",51,"right","high","True","False",291,5150,NA
"A1ESLDCYJIENVI","Wed Oct 28 2020 20:36:07 GMT-0400 (Eastern Daylight Time)","Wed Oct 28 2020 20:44:36 GMT-0400 (Eastern Daylight Time)","Mozilla/5.0 (X11; Linux x86_64) AppleWebKit/537.36 (KHTML, like Gecko) Chrome/85.0.4183.121 Safari/537.36",105,"[0.9, 0.5, 0.1]","[0.8, 0.4, 0.2]","[u'red', u'black', u'blue']","[u'left', u'middle', u'right']","[0.8, 0.4, 0.2]","[u'medium', u'low', u'high']","blue",51,"right","high","True","False",244,5250,NA
"A1ESLDCYJIENVI","Wed Oct 28 2020 20:36:07 GMT-0400 (Eastern Daylight Time)","Wed Oct 28 2020 20:44:36 GMT-0400 (Eastern Daylight Time)","Mozilla/5.0 (X11; Linux x86_64) AppleWebKit/537.36 (KHTML, like Gecko) Chrome/85.0.4183.121 Safari/537.36",106,"[0.9, 0.5, 0.1]","[0.8, 0.4, 0.2]","[u'red', u'black', u'blue']","[u'left', u'middle', u'right']","[0.8, 0.4, 0.2]","[u'medium', u'low', u'high']","blue",51,"right","high","True","False",307,5350,NA
"A1ESLDCYJIENVI","Wed Oct 28 2020 20:36:07 GMT-0400 (Eastern Daylight Time)","Wed Oct 28 2020 20:44:36 GMT-0400 (Eastern Daylight Time)","Mozilla/5.0 (X11; Linux x86_64) AppleWebKit/537.36 (KHTML, like Gecko) Chrome/85.0.4183.121 Safari/537.36",107,"[0.9, 0.5, 0.1]","[0.8, 0.4, 0.2]","[u'red', u'black', u'blue']","[u'left', u'middle', u'right']","[0.8, 0.4, 0.2]","[u'medium', u'low', u'high']","blue",51,"right","high","False","False",356,5300,NA
"A1ESLDCYJIENVI","Wed Oct 28 2020 20:36:07 GMT-0400 (Eastern Daylight Time)","Wed Oct 28 2020 20:44:36 GMT-0400 (Eastern Daylight Time)","Mozilla/5.0 (X11; Linux x86_64) AppleWebKit/537.36 (KHTML, like Gecko) Chrome/85.0.4183.121 Safari/537.36",108,"[0.9, 0.5, 0.1]","[0.8, 0.4, 0.2]","[u'red', u'black', u'blue']","[u'left', u'middle', u'right']","[0.8, 0.4, 0.2]","[u'medium', u'low', u'high']","blue",51,"right","high","True","False",115,5400,NA
"A1ESLDCYJIENVI","Wed Oct 28 2020 20:36:07 GMT-0400 (Eastern Daylight Time)","Wed Oct 28 2020 20:44:36 GMT-0400 (Eastern Daylight Time)","Mozilla/5.0 (X11; Linux x86_64) AppleWebKit/537.36 (KHTML, like Gecko) Chrome/85.0.4183.121 Safari/537.36",109,"[0.9, 0.5, 0.1]","[0.8, 0.4, 0.2]","[u'red', u'black', u'blue']","[u'left', u'middle', u'right']","[0.8, 0.4, 0.2]","[u'medium', u'low', u'high']","blue",51,"right","high","True","False",340,5500,NA
"A1ESLDCYJIENVI","Wed Oct 28 2020 20:36:07 GMT-0400 (Eastern Daylight Time)","Wed Oct 28 2020 20:44:36 GMT-0400 (Eastern Daylight Time)","Mozilla/5.0 (X11; Linux x86_64) AppleWebKit/537.36 (KHTML, like Gecko) Chrome/85.0.4183.121 Safari/537.36",110,"[0.9, 0.5, 0.1]","[0.8, 0.4, 0.2]","[u'red', u'black', u'blue']","[u'left', u'middle', u'right']","[0.8, 0.4, 0.2]","[u'medium', u'low', u'high']","blue",51,"right","high","True","False",307,5600,NA
"A1ESLDCYJIENVI","Wed Oct 28 2020 20:36:07 GMT-0400 (Eastern Daylight Time)","Wed Oct 28 2020 20:44:36 GMT-0400 (Eastern Daylight Time)","Mozilla/5.0 (X11; Linux x86_64) AppleWebKit/537.36 (KHTML, like Gecko) Chrome/85.0.4183.121 Safari/537.36",111,"[0.9, 0.5, 0.1]","[0.8, 0.4, 0.2]","[u'red', u'black', u'blue']","[u'left', u'middle', u'right']","[0.8, 0.4, 0.2]","[u'medium', u'low', u'high']","blue",51,"right","high","True","False",276,5700,NA
"A1ESLDCYJIENVI","Wed Oct 28 2020 20:36:07 GMT-0400 (Eastern Daylight Time)","Wed Oct 28 2020 20:44:36 GMT-0400 (Eastern Daylight Time)","Mozilla/5.0 (X11; Linux x86_64) AppleWebKit/537.36 (KHTML, like Gecko) Chrome/85.0.4183.121 Safari/537.36",112,"[0.9, 0.5, 0.1]","[0.8, 0.4, 0.2]","[u'red', u'black', u'blue']","[u'left', u'middle', u'right']","[0.8, 0.4, 0.2]","[u'medium', u'low', u'high']","blue",51,"right","high","True","True",355,5800,NA
"A1ESLDCYJIENVI","Wed Oct 28 2020 20:36:07 GMT-0400 (Eastern Daylight Time)","Wed Oct 28 2020 20:44:36 GMT-0400 (Eastern Daylight Time)","Mozilla/5.0 (X11; Linux x86_64) AppleWebKit/537.36 (KHTML, like Gecko) Chrome/85.0.4183.121 Safari/537.36",113,"[0.9, 0.5, 0.1]","[0.8, 0.4, 0.2]","[u'red', u'black', u'blue']","[u'left', u'middle', u'right']","[0.8, 0.4, 0.2]","[u'medium', u'high', u'low']","blue",51,"right","low","False","False",299,5750,NA
"A1ESLDCYJIENVI","Wed Oct 28 2020 20:36:07 GMT-0400 (Eastern Daylight Time)","Wed Oct 28 2020 20:44:36 GMT-0400 (Eastern Daylight Time)","Mozilla/5.0 (X11; Linux x86_64) AppleWebKit/537.36 (KHTML, like Gecko) Chrome/85.0.4183.121 Safari/537.36",114,"[0.9, 0.5, 0.1]","[0.8, 0.4, 0.2]","[u'red', u'black', u'blue']","[u'left', u'middle', u'right']","[0.8, 0.4, 0.2]","[u'medium', u'high', u'low']","blue",51,"right","low","False","False",299,5700,NA
"A1ESLDCYJIENVI","Wed Oct 28 2020 20:36:07 GMT-0400 (Eastern Daylight Time)","Wed Oct 28 2020 20:44:36 GMT-0400 (Eastern Daylight Time)","Mozilla/5.0 (X11; Linux x86_64) AppleWebKit/537.36 (KHTML, like Gecko) Chrome/85.0.4183.121 Safari/537.36",115,"[0.9, 0.5, 0.1]","[0.8, 0.4, 0.2]","[u'red', u'black', u'blue']","[u'left', u'middle', u'right']","[0.8, 0.4, 0.2]","[u'medium', u'high', u'low']","red",49,"left","medium","True","False",243,5800,NA
"A1ESLDCYJIENVI","Wed Oct 28 2020 20:36:07 GMT-0400 (Eastern Daylight Time)","Wed Oct 28 2020 20:44:36 GMT-0400 (Eastern Daylight Time)","Mozilla/5.0 (X11; Linux x86_64) AppleWebKit/537.36 (KHTML, like Gecko) Chrome/85.0.4183.121 Safari/537.36",116,"[0.9, 0.5, 0.1]","[0.8, 0.4, 0.2]","[u'red', u'black', u'blue']","[u'left', u'middle', u'right']","[0.8, 0.4, 0.2]","[u'medium', u'high', u'low']","red",49,"left","medium","False","False",251,5750,NA
"A1ESLDCYJIENVI","Wed Oct 28 2020 20:36:07 GMT-0400 (Eastern Daylight Time)","Wed Oct 28 2020 20:44:36 GMT-0400 (Eastern Daylight Time)","Mozilla/5.0 (X11; Linux x86_64) AppleWebKit/537.36 (KHTML, like Gecko) Chrome/85.0.4183.121 Safari/537.36",117,"[0.9, 0.5, 0.1]","[0.8, 0.4, 0.2]","[u'red', u'black', u'blue']","[u'left', u'middle', u'right']","[0.8, 0.4, 0.2]","[u'medium', u'high', u'low']","black",50,"middle","high","False","False",236,5700,NA
"A1ESLDCYJIENVI","Wed Oct 28 2020 20:36:07 GMT-0400 (Eastern Daylight Time)","Wed Oct 28 2020 20:44:36 GMT-0400 (Eastern Daylight Time)","Mozilla/5.0 (X11; Linux x86_64) AppleWebKit/537.36 (KHTML, like Gecko) Chrome/85.0.4183.121 Safari/537.36",118,"[0.9, 0.5, 0.1]","[0.8, 0.4, 0.2]","[u'red', u'black', u'blue']","[u'left', u'middle', u'right']","[0.8, 0.4, 0.2]","[u'medium', u'high', u'low']","red",49,"left","medium","False","False",250,5650,NA
"A1ESLDCYJIENVI","Wed Oct 28 2020 20:36:07 GMT-0400 (Eastern Daylight Time)","Wed Oct 28 2020 20:44:36 GMT-0400 (Eastern Daylight Time)","Mozilla/5.0 (X11; Linux x86_64) AppleWebKit/537.36 (KHTML, like Gecko) Chrome/85.0.4183.121 Safari/537.36",119,"[0.9, 0.5, 0.1]","[0.8, 0.4, 0.2]","[u'red', u'black', u'blue']","[u'left', u'middle', u'right']","[0.8, 0.4, 0.2]","[u'medium', u'high', u'low']","blue",51,"right","low","False","False",483,5600,NA
"A1ESLDCYJIENVI","Wed Oct 28 2020 20:36:07 GMT-0400 (Eastern Daylight Time)","Wed Oct 28 2020 20:44:36 GMT-0400 (Eastern Daylight Time)","Mozilla/5.0 (X11; Linux x86_64) AppleWebKit/537.36 (KHTML, like Gecko) Chrome/85.0.4183.121 Safari/537.36",120,"[0.9, 0.5, 0.1]","[0.8, 0.4, 0.2]","[u'red', u'black', u'blue']","[u'left', u'middle', u'right']","[0.8, 0.4, 0.2]","[u'medium', u'high', u'low']","black",50,"middle","high","True","False",388,5700,NA
"A1ESLDCYJIENVI","Wed Oct 28 2020 20:36:07 GMT-0400 (Eastern Daylight Time)","Wed Oct 28 2020 20:44:36 GMT-0400 (Eastern Daylight Time)","Mozilla/5.0 (X11; Linux x86_64) AppleWebKit/537.36 (KHTML, like Gecko) Chrome/85.0.4183.121 Safari/537.36",121,"[0.9, 0.5, 0.1]","[0.8, 0.4, 0.2]","[u'red', u'black', u'blue']","[u'left', u'middle', u'right']","[0.8, 0.4, 0.2]","[u'high', u'low', u'medium']","black",50,"middle","low","False","False",540,5650,NA
"A1ESLDCYJIENVI","Wed Oct 28 2020 20:36:07 GMT-0400 (Eastern Daylight Time)","Wed Oct 28 2020 20:44:36 GMT-0400 (Eastern Daylight Time)","Mozilla/5.0 (X11; Linux x86_64) AppleWebKit/537.36 (KHTML, like Gecko) Chrome/85.0.4183.121 Safari/537.36",122,"[0.9, 0.5, 0.1]","[0.8, 0.4, 0.2]","[u'red', u'black', u'blue']","[u'left', u'middle', u'right']","[0.8, 0.4, 0.2]","[u'high', u'low', u'medium']","blue",51,"right","medium","False","False",410,5600,NA
"A1ESLDCYJIENVI","Wed Oct 28 2020 20:36:07 GMT-0400 (Eastern Daylight Time)","Wed Oct 28 2020 20:44:36 GMT-0400 (Eastern Daylight Time)","Mozilla/5.0 (X11; Linux x86_64) AppleWebKit/537.36 (KHTML, like Gecko) Chrome/85.0.4183.121 Safari/537.36",123,"[0.9, 0.5, 0.1]","[0.8, 0.4, 0.2]","[u'red', u'black', u'blue']","[u'left', u'middle', u'right']","[0.8, 0.4, 0.2]","[u'high', u'low', u'medium']","red",49,"left","high","True","False",227,5700,NA
"A1ESLDCYJIENVI","Wed Oct 28 2020 20:36:07 GMT-0400 (Eastern Daylight Time)","Wed Oct 28 2020 20:44:36 GMT-0400 (Eastern Daylight Time)","Mozilla/5.0 (X11; Linux x86_64) AppleWebKit/537.36 (KHTML, like Gecko) Chrome/85.0.4183.121 Safari/537.36",124,"[0.9, 0.5, 0.1]","[0.8, 0.4, 0.2]","[u'red', u'black', u'blue']","[u'left', u'middle', u'right']","[0.8, 0.4, 0.2]","[u'high', u'low', u'medium']","red",49,"left","high","True","False",260,5800,NA
"A1ESLDCYJIENVI","Wed Oct 28 2020 20:36:07 GMT-0400 (Eastern Daylight Time)","Wed Oct 28 2020 20:44:36 GMT-0400 (Eastern Daylight Time)","Mozilla/5.0 (X11; Linux x86_64) AppleWebKit/537.36 (KHTML, like Gecko) Chrome/85.0.4183.121 Safari/537.36",125,"[0.9, 0.5, 0.1]","[0.8, 0.4, 0.2]","[u'red', u'black', u'blue']","[u'left', u'middle', u'right']","[0.8, 0.4, 0.2]","[u'high', u'low', u'medium']","red",49,"left","high","True","False",259,5900,NA
"A1ESLDCYJIENVI","Wed Oct 28 2020 20:36:07 GMT-0400 (Eastern Daylight Time)","Wed Oct 28 2020 20:44:36 GMT-0400 (Eastern Daylight Time)","Mozilla/5.0 (X11; Linux x86_64) AppleWebKit/537.36 (KHTML, like Gecko) Chrome/85.0.4183.121 Safari/537.36",126,"[0.9, 0.5, 0.1]","[0.8, 0.4, 0.2]","[u'red', u'black', u'blue']","[u'left', u'middle', u'right']","[0.8, 0.4, 0.2]","[u'high', u'low', u'medium']","red",49,"left","high","True","False",347,6000,NA
"A1ESLDCYJIENVI","Wed Oct 28 2020 20:36:07 GMT-0400 (Eastern Daylight Time)","Wed Oct 28 2020 20:44:36 GMT-0400 (Eastern Daylight Time)","Mozilla/5.0 (X11; Linux x86_64) AppleWebKit/537.36 (KHTML, like Gecko) Chrome/85.0.4183.121 Safari/537.36",127,"[0.9, 0.5, 0.1]","[0.8, 0.4, 0.2]","[u'red', u'black', u'blue']","[u'left', u'middle', u'right']","[0.8, 0.4, 0.2]","[u'high', u'low', u'medium']","red",49,"left","high","True","False",363,6100,NA
"A1ESLDCYJIENVI","Wed Oct 28 2020 20:36:07 GMT-0400 (Eastern Daylight Time)","Wed Oct 28 2020 20:44:36 GMT-0400 (Eastern Daylight Time)","Mozilla/5.0 (X11; Linux x86_64) AppleWebKit/537.36 (KHTML, like Gecko) Chrome/85.0.4183.121 Safari/537.36",128,"[0.9, 0.5, 0.1]","[0.8, 0.4, 0.2]","[u'red', u'black', u'blue']","[u'left', u'middle', u'right']","[0.8, 0.4, 0.2]","[u'high', u'low', u'medium']","red",49,"left","high","True","False",331,6200,NA
"A1ESLDCYJIENVI","Wed Oct 28 2020 20:36:07 GMT-0400 (Eastern Daylight Time)","Wed Oct 28 2020 20:44:36 GMT-0400 (Eastern Daylight Time)","Mozilla/5.0 (X11; Linux x86_64) AppleWebKit/537.36 (KHTML, like Gecko) Chrome/85.0.4183.121 Safari/537.36",129,"[0.9, 0.5, 0.1]","[0.8, 0.4, 0.2]","[u'red', u'black', u'blue']","[u'left', u'middle', u'right']","[0.8, 0.4, 0.2]","[u'high', u'low', u'medium']","red",49,"left","high","False","False",283,6150,NA
"A1ESLDCYJIENVI","Wed Oct 28 2020 20:36:07 GMT-0400 (Eastern Daylight Time)","Wed Oct 28 2020 20:44:36 GMT-0400 (Eastern Daylight Time)","Mozilla/5.0 (X11; Linux x86_64) AppleWebKit/537.36 (KHTML, like Gecko) Chrome/85.0.4183.121 Safari/537.36",130,"[0.9, 0.5, 0.1]","[0.8, 0.4, 0.2]","[u'red', u'black', u'blue']","[u'left', u'middle', u'right']","[0.8, 0.4, 0.2]","[u'high', u'low', u'medium']","black",50,"middle","low","False","False",467,6100,NA
"A1ESLDCYJIENVI","Wed Oct 28 2020 20:36:07 GMT-0400 (Eastern Daylight Time)","Wed Oct 28 2020 20:44:36 GMT-0400 (Eastern Daylight Time)","Mozilla/5.0 (X11; Linux x86_64) AppleWebKit/537.36 (KHTML, like Gecko) Chrome/85.0.4183.121 Safari/537.36",131,"[0.9, 0.5, 0.1]","[0.8, 0.4, 0.2]","[u'red', u'black', u'blue']","[u'left', u'middle', u'right']","[0.8, 0.4, 0.2]","[u'high', u'low', u'medium']","red",49,"left","high","True","False",275,6200,NA
"A1ESLDCYJIENVI","Wed Oct 28 2020 20:36:07 GMT-0400 (Eastern Daylight Time)","Wed Oct 28 2020 20:44:36 GMT-0400 (Eastern Daylight Time)","Mozilla/5.0 (X11; Linux x86_64) AppleWebKit/537.36 (KHTML, like Gecko) Chrome/85.0.4183.121 Safari/537.36",132,"[0.9, 0.5, 0.1]","[0.8, 0.4, 0.2]","[u'red', u'black', u'blue']","[u'left', u'middle', u'right']","[0.8, 0.4, 0.2]","[u'high', u'low', u'medium']","red",49,"left","high","True","True",131,6300,NA
"A1ESLDCYJIENVI","Wed Oct 28 2020 20:36:07 GMT-0400 (Eastern Daylight Time)","Wed Oct 28 2020 20:44:36 GMT-0400 (Eastern Daylight Time)","Mozilla/5.0 (X11; Linux x86_64) AppleWebKit/537.36 (KHTML, like Gecko) Chrome/85.0.4183.121 Safari/537.36",133,"[0.9, 0.5, 0.1]","[0.8, 0.4, 0.2]","[u'red', u'black', u'blue']","[u'left', u'middle', u'right']","[0.8, 0.4, 0.2]","[u'low', u'medium', u'high']","red",49,"left","low","False","False",276,6250,NA
"A1ESLDCYJIENVI","Wed Oct 28 2020 20:36:07 GMT-0400 (Eastern Daylight Time)","Wed Oct 28 2020 20:44:36 GMT-0400 (Eastern Daylight Time)","Mozilla/5.0 (X11; Linux x86_64) AppleWebKit/537.36 (KHTML, like Gecko) Chrome/85.0.4183.121 Safari/537.36",134,"[0.9, 0.5, 0.1]","[0.8, 0.4, 0.2]","[u'red', u'black', u'blue']","[u'left', u'middle', u'right']","[0.8, 0.4, 0.2]","[u'low', u'medium', u'high']","red",49,"left","low","False","False",154,6200,NA
"A1ESLDCYJIENVI","Wed Oct 28 2020 20:36:07 GMT-0400 (Eastern Daylight Time)","Wed Oct 28 2020 20:44:36 GMT-0400 (Eastern Daylight Time)","Mozilla/5.0 (X11; Linux x86_64) AppleWebKit/537.36 (KHTML, like Gecko) Chrome/85.0.4183.121 Safari/537.36",135,"[0.9, 0.5, 0.1]","[0.8, 0.4, 0.2]","[u'red', u'black', u'blue']","[u'left', u'middle', u'right']","[0.8, 0.4, 0.2]","[u'low', u'medium', u'high']","blue",51,"right","high","False","False",283,6150,NA
"A1ESLDCYJIENVI","Wed Oct 28 2020 20:36:07 GMT-0400 (Eastern Daylight Time)","Wed Oct 28 2020 20:44:36 GMT-0400 (Eastern Daylight Time)","Mozilla/5.0 (X11; Linux x86_64) AppleWebKit/537.36 (KHTML, like Gecko) Chrome/85.0.4183.121 Safari/537.36",136,"[0.9, 0.5, 0.1]","[0.8, 0.4, 0.2]","[u'red', u'black', u'blue']","[u'left', u'middle', u'right']","[0.8, 0.4, 0.2]","[u'low', u'medium', u'high']","black",50,"middle","medium","False","False",8,6100,NA
"A1ESLDCYJIENVI","Wed Oct 28 2020 20:36:07 GMT-0400 (Eastern Daylight Time)","Wed Oct 28 2020 20:44:36 GMT-0400 (Eastern Daylight Time)","Mozilla/5.0 (X11; Linux x86_64) AppleWebKit/537.36 (KHTML, like Gecko) Chrome/85.0.4183.121 Safari/537.36",137,"[0.9, 0.5, 0.1]","[0.8, 0.4, 0.2]","[u'red', u'black', u'blue']","[u'left', u'middle', u'right']","[0.8, 0.4, 0.2]","[u'low', u'medium', u'high']","blue",51,"right","high","True","False",246,6200,NA
"A1ESLDCYJIENVI","Wed Oct 28 2020 20:36:07 GMT-0400 (Eastern Daylight Time)","Wed Oct 28 2020 20:44:36 GMT-0400 (Eastern Daylight Time)","Mozilla/5.0 (X11; Linux x86_64) AppleWebKit/537.36 (KHTML, like Gecko) Chrome/85.0.4183.121 Safari/537.36",138,"[0.9, 0.5, 0.1]","[0.8, 0.4, 0.2]","[u'red', u'black', u'blue']","[u'left', u'middle', u'right']","[0.8, 0.4, 0.2]","[u'low', u'medium', u'high']","blue",51,"right","high","False","False",140,6150,NA
"A1ESLDCYJIENVI","Wed Oct 28 2020 20:36:07 GMT-0400 (Eastern Daylight Time)","Wed Oct 28 2020 20:44:36 GMT-0400 (Eastern Daylight Time)","Mozilla/5.0 (X11; Linux x86_64) AppleWebKit/537.36 (KHTML, like Gecko) Chrome/85.0.4183.121 Safari/537.36",139,"[0.9, 0.5, 0.1]","[0.8, 0.4, 0.2]","[u'red', u'black', u'blue']","[u'left', u'middle', u'right']","[0.8, 0.4, 0.2]","[u'low', u'medium', u'high']","blue",51,"right","high","True","False",276,6250,NA
"A1ESLDCYJIENVI","Wed Oct 28 2020 20:36:07 GMT-0400 (Eastern Daylight Time)","Wed Oct 28 2020 20:44:36 GMT-0400 (Eastern Daylight Time)","Mozilla/5.0 (X11; Linux x86_64) AppleWebKit/537.36 (KHTML, like Gecko) Chrome/85.0.4183.121 Safari/537.36",140,"[0.9, 0.5, 0.1]","[0.8, 0.4, 0.2]","[u'red', u'black', u'blue']","[u'left', u'middle', u'right']","[0.8, 0.4, 0.2]","[u'low', u'medium', u'high']","blue",51,"right","high","True","False",307,6350,NA
"A1ESLDCYJIENVI","Wed Oct 28 2020 20:36:07 GMT-0400 (Eastern Daylight Time)","Wed Oct 28 2020 20:44:36 GMT-0400 (Eastern Daylight Time)","Mozilla/5.0 (X11; Linux x86_64) AppleWebKit/537.36 (KHTML, like Gecko) Chrome/85.0.4183.121 Safari/537.36",141,"[0.9, 0.5, 0.1]","[0.8, 0.4, 0.2]","[u'red', u'black', u'blue']","[u'left', u'middle', u'right']","[0.8, 0.4, 0.2]","[u'low', u'medium', u'high']","blue",51,"right","high","False","False",283,6300,NA
"A1ESLDCYJIENVI","Wed Oct 28 2020 20:36:07 GMT-0400 (Eastern Daylight Time)","Wed Oct 28 2020 20:44:36 GMT-0400 (Eastern Daylight Time)","Mozilla/5.0 (X11; Linux x86_64) AppleWebKit/537.36 (KHTML, like Gecko) Chrome/85.0.4183.121 Safari/537.36",142,"[0.9, 0.5, 0.1]","[0.8, 0.4, 0.2]","[u'red', u'black', u'blue']","[u'left', u'middle', u'right']","[0.8, 0.4, 0.2]","[u'low', u'medium', u'high']","black",50,"middle","medium","False","False",276,6250,NA
"A1ESLDCYJIENVI","Wed Oct 28 2020 20:36:07 GMT-0400 (Eastern Daylight Time)","Wed Oct 28 2020 20:44:36 GMT-0400 (Eastern Daylight Time)","Mozilla/5.0 (X11; Linux x86_64) AppleWebKit/537.36 (KHTML, like Gecko) Chrome/85.0.4183.121 Safari/537.36",143,"[0.9, 0.5, 0.1]","[0.8, 0.4, 0.2]","[u'red', u'black', u'blue']","[u'left', u'middle', u'right']","[0.8, 0.4, 0.2]","[u'low', u'medium', u'high']","black",50,"middle","medium","True","False",273,6350,NA
"A1ESLDCYJIENVI","Wed Oct 28 2020 20:36:07 GMT-0400 (Eastern Daylight Time)","Wed Oct 28 2020 20:44:36 GMT-0400 (Eastern Daylight Time)","Mozilla/5.0 (X11; Linux x86_64) AppleWebKit/537.36 (KHTML, like Gecko) Chrome/85.0.4183.121 Safari/537.36",144,"[0.9, 0.5, 0.1]","[0.8, 0.4, 0.2]","[u'red', u'black', u'blue']","[u'left', u'middle', u'right']","[0.8, 0.4, 0.2]","[u'low', u'medium', u'high']","black",50,"middle","medium","False","False",99,6300,NA
"A1ESLDCYJIENVI","Wed Oct 28 2020 20:36:07 GMT-0400 (Eastern Daylight Time)","Wed Oct 28 2020 20:44:36 GMT-0400 (Eastern Daylight Time)","Mozilla/5.0 (X11; Linux x86_64) AppleWebKit/537.36 (KHTML, like Gecko) Chrome/85.0.4183.121 Safari/537.36",145,"[0.9, 0.5, 0.1]","[0.8, 0.4, 0.2]","[u'red', u'black', u'blue']","[u'left', u'middle', u'right']","[0.8, 0.4, 0.2]","[u'low', u'medium', u'high']","blue",51,"right","high","True","False",308,6400,NA
"A1ESLDCYJIENVI","Wed Oct 28 2020 20:36:07 GMT-0400 (Eastern Daylight Time)","Wed Oct 28 2020 20:44:36 GMT-0400 (Eastern Daylight Time)","Mozilla/5.0 (X11; Linux x86_64) AppleWebKit/537.36 (KHTML, like Gecko) Chrome/85.0.4183.121 Safari/537.36",146,"[0.9, 0.5, 0.1]","[0.8, 0.4, 0.2]","[u'red', u'black', u'blue']","[u'left', u'middle', u'right']","[0.8, 0.4, 0.2]","[u'low', u'medium', u'high']","blue",51,"right","high","True","False",234,6500,NA
"A1ESLDCYJIENVI","Wed Oct 28 2020 20:36:07 GMT-0400 (Eastern Daylight Time)","Wed Oct 28 2020 20:44:36 GMT-0400 (Eastern Daylight Time)","Mozilla/5.0 (X11; Linux x86_64) AppleWebKit/537.36 (KHTML, like Gecko) Chrome/85.0.4183.121 Safari/537.36",147,"[0.9, 0.5, 0.1]","[0.8, 0.4, 0.2]","[u'red', u'black', u'blue']","[u'left', u'middle', u'right']","[0.8, 0.4, 0.2]","[u'low', u'medium', u'high']","blue",51,"right","high","True","False",235,6600,NA
"A1ESLDCYJIENVI","Wed Oct 28 2020 20:36:07 GMT-0400 (Eastern Daylight Time)","Wed Oct 28 2020 20:44:36 GMT-0400 (Eastern Daylight Time)","Mozilla/5.0 (X11; Linux x86_64) AppleWebKit/537.36 (KHTML, like Gecko) Chrome/85.0.4183.121 Safari/537.36",148,"[0.9, 0.5, 0.1]","[0.8, 0.4, 0.2]","[u'red', u'black', u'blue']","[u'left', u'middle', u'right']","[0.8, 0.4, 0.2]","[u'low', u'medium', u'high']","blue",51,"right","high","True","False",300,6700,NA
"A1ESLDCYJIENVI","Wed Oct 28 2020 20:36:07 GMT-0400 (Eastern Daylight Time)","Wed Oct 28 2020 20:44:36 GMT-0400 (Eastern Daylight Time)","Mozilla/5.0 (X11; Linux x86_64) AppleWebKit/537.36 (KHTML, like Gecko) Chrome/85.0.4183.121 Safari/537.36",149,"[0.9, 0.5, 0.1]","[0.8, 0.4, 0.2]","[u'red', u'black', u'blue']","[u'left', u'middle', u'right']","[0.8, 0.4, 0.2]","[u'low', u'medium', u'high']","blue",51,"right","high","False","False",412,6650,NA
"A1ESLDCYJIENVI","Wed Oct 28 2020 20:36:07 GMT-0400 (Eastern Daylight Time)","Wed Oct 28 2020 20:44:36 GMT-0400 (Eastern Daylight Time)","Mozilla/5.0 (X11; Linux x86_64) AppleWebKit/537.36 (KHTML, like Gecko) Chrome/85.0.4183.121 Safari/537.36",150,"[0.9, 0.5, 0.1]","[0.8, 0.4, 0.2]","[u'red', u'black', u'blue']","[u'left', u'middle', u'right']","[0.8, 0.4, 0.2]","[u'low', u'medium', u'high']","blue",51,"right","high","True","False",443,6750,NA
"A1ESLDCYJIENVI","Wed Oct 28 2020 20:36:07 GMT-0400 (Eastern Daylight Time)","Wed Oct 28 2020 20:44:36 GMT-0400 (Eastern Daylight Time)","Mozilla/5.0 (X11; Linux x86_64) AppleWebKit/537.36 (KHTML, like Gecko) Chrome/85.0.4183.121 Safari/537.36",151,"[0.9, 0.5, 0.1]","[0.8, 0.4, 0.2]","[u'red', u'black', u'blue']","[u'left', u'middle', u'right']","[0.8, 0.4, 0.2]","[u'low', u'medium', u'high']","blue",51,"right","high","True","False",251,6850,NA
"A1ESLDCYJIENVI","Wed Oct 28 2020 20:36:07 GMT-0400 (Eastern Daylight Time)","Wed Oct 28 2020 20:44:36 GMT-0400 (Eastern Daylight Time)","Mozilla/5.0 (X11; Linux x86_64) AppleWebKit/537.36 (KHTML, like Gecko) Chrome/85.0.4183.121 Safari/537.36",152,"[0.9, 0.5, 0.1]","[0.8, 0.4, 0.2]","[u'red', u'black', u'blue']","[u'left', u'middle', u'right']","[0.8, 0.4, 0.2]","[u'low', u'medium', u'high']","blue",51,"right","high","True","False",314,6950,NA
"A1ESLDCYJIENVI","Wed Oct 28 2020 20:36:07 GMT-0400 (Eastern Daylight Time)","Wed Oct 28 2020 20:44:36 GMT-0400 (Eastern Daylight Time)","Mozilla/5.0 (X11; Linux x86_64) AppleWebKit/537.36 (KHTML, like Gecko) Chrome/85.0.4183.121 Safari/537.36",153,"[0.9, 0.5, 0.1]","[0.8, 0.4, 0.2]","[u'red', u'black', u'blue']","[u'left', u'middle', u'right']","[0.8, 0.4, 0.2]","[u'low', u'medium', u'high']","blue",51,"right","high","True","True",283,7050,NA
"A1ESLDCYJIENVI","Wed Oct 28 2020 20:36:07 GMT-0400 (Eastern Daylight Time)","Wed Oct 28 2020 20:44:36 GMT-0400 (Eastern Daylight Time)","Mozilla/5.0 (X11; Linux x86_64) AppleWebKit/537.36 (KHTML, like Gecko) Chrome/85.0.4183.121 Safari/537.36",154,"[0.9, 0.5, 0.1]","[0.8, 0.4, 0.2]","[u'red', u'black', u'blue']","[u'left', u'middle', u'right']","[0.8, 0.4, 0.2]","[u'low', u'high', u'medium']","blue",51,"right","medium","True","False",243,7150,NA
"A1ESLDCYJIENVI","Wed Oct 28 2020 20:36:07 GMT-0400 (Eastern Daylight Time)","Wed Oct 28 2020 20:44:36 GMT-0400 (Eastern Daylight Time)","Mozilla/5.0 (X11; Linux x86_64) AppleWebKit/537.36 (KHTML, like Gecko) Chrome/85.0.4183.121 Safari/537.36",155,"[0.9, 0.5, 0.1]","[0.8, 0.4, 0.2]","[u'red', u'black', u'blue']","[u'left', u'middle', u'right']","[0.8, 0.4, 0.2]","[u'low', u'high', u'medium']","blue",51,"right","medium","True","False",244,7250,NA
"A1ESLDCYJIENVI","Wed Oct 28 2020 20:36:07 GMT-0400 (Eastern Daylight Time)","Wed Oct 28 2020 20:44:36 GMT-0400 (Eastern Daylight Time)","Mozilla/5.0 (X11; Linux x86_64) AppleWebKit/537.36 (KHTML, like Gecko) Chrome/85.0.4183.121 Safari/537.36",156,"[0.9, 0.5, 0.1]","[0.8, 0.4, 0.2]","[u'red', u'black', u'blue']","[u'left', u'middle', u'right']","[0.8, 0.4, 0.2]","[u'low', u'high', u'medium']","blue",51,"right","medium","False","False",283,7200,NA
"A1ESLDCYJIENVI","Wed Oct 28 2020 20:36:07 GMT-0400 (Eastern Daylight Time)","Wed Oct 28 2020 20:44:36 GMT-0400 (Eastern Daylight Time)","Mozilla/5.0 (X11; Linux x86_64) AppleWebKit/537.36 (KHTML, like Gecko) Chrome/85.0.4183.121 Safari/537.36",157,"[0.9, 0.5, 0.1]","[0.8, 0.4, 0.2]","[u'red', u'black', u'blue']","[u'left', u'middle', u'right']","[0.8, 0.4, 0.2]","[u'low', u'high', u'medium']","blue",51,"right","medium","True","False",100,7300,NA
"A1ESLDCYJIENVI","Wed Oct 28 2020 20:36:07 GMT-0400 (Eastern Daylight Time)","Wed Oct 28 2020 20:44:36 GMT-0400 (Eastern Daylight Time)","Mozilla/5.0 (X11; Linux x86_64) AppleWebKit/537.36 (KHTML, like Gecko) Chrome/85.0.4183.121 Safari/537.36",158,"[0.9, 0.5, 0.1]","[0.8, 0.4, 0.2]","[u'red', u'black', u'blue']","[u'left', u'middle', u'right']","[0.8, 0.4, 0.2]","[u'low', u'high', u'medium']","blue",51,"right","medium","False","False",282,7250,NA
"A1ESLDCYJIENVI","Wed Oct 28 2020 20:36:07 GMT-0400 (Eastern Daylight Time)","Wed Oct 28 2020 20:44:36 GMT-0400 (Eastern Daylight Time)","Mozilla/5.0 (X11; Linux x86_64) AppleWebKit/537.36 (KHTML, like Gecko) Chrome/85.0.4183.121 Safari/537.36",159,"[0.9, 0.5, 0.1]","[0.8, 0.4, 0.2]","[u'red', u'black', u'blue']","[u'left', u'middle', u'right']","[0.8, 0.4, 0.2]","[u'low', u'high', u'medium']","red",49,"left","low","False","False",284,7200,NA
"A1ESLDCYJIENVI","Wed Oct 28 2020 20:36:07 GMT-0400 (Eastern Daylight Time)","Wed Oct 28 2020 20:44:36 GMT-0400 (Eastern Daylight Time)","Mozilla/5.0 (X11; Linux x86_64) AppleWebKit/537.36 (KHTML, like Gecko) Chrome/85.0.4183.121 Safari/537.36",160,"[0.9, 0.5, 0.1]","[0.8, 0.4, 0.2]","[u'red', u'black', u'blue']","[u'left', u'middle', u'right']","[0.8, 0.4, 0.2]","[u'low', u'high', u'medium']","black",50,"middle","high","False","False",339,7150,NA
