"src_subject_id","start_time","end_time","browser","index","first_half_probabilities","second_half_probabilities","deck_color","deck_position","deck_probabilities","deck_contingencies","response_color","key_press","response_position","response_probability","reward_type","trial_type","rt","reward_tally","exclusion_reason"
"A3UD7T1L80TCR3","Thu Oct 29 2020 11:29:57 GMT-0500 (Central Daylight Time)","Thu Oct 29 2020 11:37:44 GMT-0500 (Central Daylight Time)","Mozilla/5.0 (X11; CrOS x86_64 13421.73.0) AppleWebKit/537.36 (KHTML, like Gecko) Chrome/86.0.4240.112 Safari/537.36",1,"[0.9, 0.5, 0.1]","[0.8, 0.4, 0.2]","[u'red', u'blue', u'black']","[u'left', u'middle', u'right']","[0.9, 0.5, 0.1]","[u'high', u'low', u'medium']","blue",50,"middle","low","True","False",1100,100,NA
"A3UD7T1L80TCR3","Thu Oct 29 2020 11:29:57 GMT-0500 (Central Daylight Time)","Thu Oct 29 2020 11:37:44 GMT-0500 (Central Daylight Time)","Mozilla/5.0 (X11; CrOS x86_64 13421.73.0) AppleWebKit/537.36 (KHTML, like Gecko) Chrome/86.0.4240.112 Safari/537.36",2,"[0.9, 0.5, 0.1]","[0.8, 0.4, 0.2]","[u'red', u'blue', u'black']","[u'left', u'middle', u'right']","[0.9, 0.5, 0.1]","[u'high', u'low', u'medium']","blue",50,"middle","low","False","False",1118,50,NA
"A3UD7T1L80TCR3","Thu Oct 29 2020 11:29:57 GMT-0500 (Central Daylight Time)","Thu Oct 29 2020 11:37:44 GMT-0500 (Central Daylight Time)","Mozilla/5.0 (X11; CrOS x86_64 13421.73.0) AppleWebKit/537.36 (KHTML, like Gecko) Chrome/86.0.4240.112 Safari/537.36",3,"[0.9, 0.5, 0.1]","[0.8, 0.4, 0.2]","[u'red', u'blue', u'black']","[u'left', u'middle', u'right']","[0.9, 0.5, 0.1]","[u'high', u'low', u'medium']","black",51,"right","medium","True","False",658,150,NA
"A3UD7T1L80TCR3","Thu Oct 29 2020 11:29:57 GMT-0500 (Central Daylight Time)","Thu Oct 29 2020 11:37:44 GMT-0500 (Central Daylight Time)","Mozilla/5.0 (X11; CrOS x86_64 13421.73.0) AppleWebKit/537.36 (KHTML, like Gecko) Chrome/86.0.4240.112 Safari/537.36",4,"[0.9, 0.5, 0.1]","[0.8, 0.4, 0.2]","[u'red', u'blue', u'black']","[u'left', u'middle', u'right']","[0.9, 0.5, 0.1]","[u'high', u'low', u'medium']","red",49,"left","high","True","False",1080,250,NA
"A3UD7T1L80TCR3","Thu Oct 29 2020 11:29:57 GMT-0500 (Central Daylight Time)","Thu Oct 29 2020 11:37:44 GMT-0500 (Central Daylight Time)","Mozilla/5.0 (X11; CrOS x86_64 13421.73.0) AppleWebKit/537.36 (KHTML, like Gecko) Chrome/86.0.4240.112 Safari/537.36",5,"[0.9, 0.5, 0.1]","[0.8, 0.4, 0.2]","[u'red', u'blue', u'black']","[u'left', u'middle', u'right']","[0.9, 0.5, 0.1]","[u'high', u'low', u'medium']","blue",50,"middle","low","False","False",1103,200,NA
"A3UD7T1L80TCR3","Thu Oct 29 2020 11:29:57 GMT-0500 (Central Daylight Time)","Thu Oct 29 2020 11:37:44 GMT-0500 (Central Daylight Time)","Mozilla/5.0 (X11; CrOS x86_64 13421.73.0) AppleWebKit/537.36 (KHTML, like Gecko) Chrome/86.0.4240.112 Safari/537.36",6,"[0.9, 0.5, 0.1]","[0.8, 0.4, 0.2]","[u'red', u'blue', u'black']","[u'left', u'middle', u'right']","[0.9, 0.5, 0.1]","[u'high', u'low', u'medium']","black",51,"right","medium","True","False",597,300,NA
"A3UD7T1L80TCR3","Thu Oct 29 2020 11:29:57 GMT-0500 (Central Daylight Time)","Thu Oct 29 2020 11:37:44 GMT-0500 (Central Daylight Time)","Mozilla/5.0 (X11; CrOS x86_64 13421.73.0) AppleWebKit/537.36 (KHTML, like Gecko) Chrome/86.0.4240.112 Safari/537.36",7,"[0.9, 0.5, 0.1]","[0.8, 0.4, 0.2]","[u'red', u'blue', u'black']","[u'left', u'middle', u'right']","[0.9, 0.5, 0.1]","[u'high', u'low', u'medium']","black",51,"right","medium","True","False",608,400,NA
"A3UD7T1L80TCR3","Thu Oct 29 2020 11:29:57 GMT-0500 (Central Daylight Time)","Thu Oct 29 2020 11:37:44 GMT-0500 (Central Daylight Time)","Mozilla/5.0 (X11; CrOS x86_64 13421.73.0) AppleWebKit/537.36 (KHTML, like Gecko) Chrome/86.0.4240.112 Safari/537.36",8,"[0.9, 0.5, 0.1]","[0.8, 0.4, 0.2]","[u'red', u'blue', u'black']","[u'left', u'middle', u'right']","[0.9, 0.5, 0.1]","[u'high', u'low', u'medium']","black",51,"right","medium","False","False",913,350,NA
"A3UD7T1L80TCR3","Thu Oct 29 2020 11:29:57 GMT-0500 (Central Daylight Time)","Thu Oct 29 2020 11:37:44 GMT-0500 (Central Daylight Time)","Mozilla/5.0 (X11; CrOS x86_64 13421.73.0) AppleWebKit/537.36 (KHTML, like Gecko) Chrome/86.0.4240.112 Safari/537.36",9,"[0.9, 0.5, 0.1]","[0.8, 0.4, 0.2]","[u'red', u'blue', u'black']","[u'left', u'middle', u'right']","[0.9, 0.5, 0.1]","[u'high', u'low', u'medium']","red",49,"left","high","True","False",579,450,NA
"A3UD7T1L80TCR3","Thu Oct 29 2020 11:29:57 GMT-0500 (Central Daylight Time)","Thu Oct 29 2020 11:37:44 GMT-0500 (Central Daylight Time)","Mozilla/5.0 (X11; CrOS x86_64 13421.73.0) AppleWebKit/537.36 (KHTML, like Gecko) Chrome/86.0.4240.112 Safari/537.36",10,"[0.9, 0.5, 0.1]","[0.8, 0.4, 0.2]","[u'red', u'blue', u'black']","[u'left', u'middle', u'right']","[0.9, 0.5, 0.1]","[u'high', u'low', u'medium']","red",49,"left","high","True","False",648,550,NA
"A3UD7T1L80TCR3","Thu Oct 29 2020 11:29:57 GMT-0500 (Central Daylight Time)","Thu Oct 29 2020 11:37:44 GMT-0500 (Central Daylight Time)","Mozilla/5.0 (X11; CrOS x86_64 13421.73.0) AppleWebKit/537.36 (KHTML, like Gecko) Chrome/86.0.4240.112 Safari/537.36",11,"[0.9, 0.5, 0.1]","[0.8, 0.4, 0.2]","[u'red', u'blue', u'black']","[u'left', u'middle', u'right']","[0.9, 0.5, 0.1]","[u'high', u'low', u'medium']","red",49,"left","high","True","False",596,650,NA
"A3UD7T1L80TCR3","Thu Oct 29 2020 11:29:57 GMT-0500 (Central Daylight Time)","Thu Oct 29 2020 11:37:44 GMT-0500 (Central Daylight Time)","Mozilla/5.0 (X11; CrOS x86_64 13421.73.0) AppleWebKit/537.36 (KHTML, like Gecko) Chrome/86.0.4240.112 Safari/537.36",12,"[0.9, 0.5, 0.1]","[0.8, 0.4, 0.2]","[u'red', u'blue', u'black']","[u'left', u'middle', u'right']","[0.9, 0.5, 0.1]","[u'high', u'low', u'medium']","red",49,"left","high","True","False",1147,750,NA
"A3UD7T1L80TCR3","Thu Oct 29 2020 11:29:57 GMT-0500 (Central Daylight Time)","Thu Oct 29 2020 11:37:44 GMT-0500 (Central Daylight Time)","Mozilla/5.0 (X11; CrOS x86_64 13421.73.0) AppleWebKit/537.36 (KHTML, like Gecko) Chrome/86.0.4240.112 Safari/537.36",13,"[0.9, 0.5, 0.1]","[0.8, 0.4, 0.2]","[u'red', u'blue', u'black']","[u'left', u'middle', u'right']","[0.9, 0.5, 0.1]","[u'high', u'low', u'medium']","red",49,"left","high","False","False",989,700,NA
"A3UD7T1L80TCR3","Thu Oct 29 2020 11:29:57 GMT-0500 (Central Daylight Time)","Thu Oct 29 2020 11:37:44 GMT-0500 (Central Daylight Time)","Mozilla/5.0 (X11; CrOS x86_64 13421.73.0) AppleWebKit/537.36 (KHTML, like Gecko) Chrome/86.0.4240.112 Safari/537.36",14,"[0.9, 0.5, 0.1]","[0.8, 0.4, 0.2]","[u'red', u'blue', u'black']","[u'left', u'middle', u'right']","[0.9, 0.5, 0.1]","[u'high', u'low', u'medium']","blue",50,"middle","low","False","False",352,650,NA
"A3UD7T1L80TCR3","Thu Oct 29 2020 11:29:57 GMT-0500 (Central Daylight Time)","Thu Oct 29 2020 11:37:44 GMT-0500 (Central Daylight Time)","Mozilla/5.0 (X11; CrOS x86_64 13421.73.0) AppleWebKit/537.36 (KHTML, like Gecko) Chrome/86.0.4240.112 Safari/537.36",15,"[0.9, 0.5, 0.1]","[0.8, 0.4, 0.2]","[u'red', u'blue', u'black']","[u'left', u'middle', u'right']","[0.9, 0.5, 0.1]","[u'high', u'low', u'medium']","black",51,"right","medium","True","False",551,750,NA
"A3UD7T1L80TCR3","Thu Oct 29 2020 11:29:57 GMT-0500 (Central Daylight Time)","Thu Oct 29 2020 11:37:44 GMT-0500 (Central Daylight Time)","Mozilla/5.0 (X11; CrOS x86_64 13421.73.0) AppleWebKit/537.36 (KHTML, like Gecko) Chrome/86.0.4240.112 Safari/537.36",16,"[0.9, 0.5, 0.1]","[0.8, 0.4, 0.2]","[u'red', u'blue', u'black']","[u'left', u'middle', u'right']","[0.9, 0.5, 0.1]","[u'high', u'low', u'medium']","black",51,"right","medium","True","False",653,850,NA
"A3UD7T1L80TCR3","Thu Oct 29 2020 11:29:57 GMT-0500 (Central Daylight Time)","Thu Oct 29 2020 11:37:44 GMT-0500 (Central Daylight Time)","Mozilla/5.0 (X11; CrOS x86_64 13421.73.0) AppleWebKit/537.36 (KHTML, like Gecko) Chrome/86.0.4240.112 Safari/537.36",17,"[0.9, 0.5, 0.1]","[0.8, 0.4, 0.2]","[u'red', u'blue', u'black']","[u'left', u'middle', u'right']","[0.9, 0.5, 0.1]","[u'high', u'low', u'medium']","black",51,"right","medium","True","False",529,950,NA
"A3UD7T1L80TCR3","Thu Oct 29 2020 11:29:57 GMT-0500 (Central Daylight Time)","Thu Oct 29 2020 11:37:44 GMT-0500 (Central Daylight Time)","Mozilla/5.0 (X11; CrOS x86_64 13421.73.0) AppleWebKit/537.36 (KHTML, like Gecko) Chrome/86.0.4240.112 Safari/537.36",18,"[0.9, 0.5, 0.1]","[0.8, 0.4, 0.2]","[u'red', u'blue', u'black']","[u'left', u'middle', u'right']","[0.9, 0.5, 0.1]","[u'high', u'low', u'medium']","red",49,"left","high","False","False",1613,900,NA
"A3UD7T1L80TCR3","Thu Oct 29 2020 11:29:57 GMT-0500 (Central Daylight Time)","Thu Oct 29 2020 11:37:44 GMT-0500 (Central Daylight Time)","Mozilla/5.0 (X11; CrOS x86_64 13421.73.0) AppleWebKit/537.36 (KHTML, like Gecko) Chrome/86.0.4240.112 Safari/537.36",19,"[0.9, 0.5, 0.1]","[0.8, 0.4, 0.2]","[u'red', u'blue', u'black']","[u'left', u'middle', u'right']","[0.9, 0.5, 0.1]","[u'high', u'low', u'medium']","black",51,"right","medium","False","False",402,850,NA
"A3UD7T1L80TCR3","Thu Oct 29 2020 11:29:57 GMT-0500 (Central Daylight Time)","Thu Oct 29 2020 11:37:44 GMT-0500 (Central Daylight Time)","Mozilla/5.0 (X11; CrOS x86_64 13421.73.0) AppleWebKit/537.36 (KHTML, like Gecko) Chrome/86.0.4240.112 Safari/537.36",20,"[0.9, 0.5, 0.1]","[0.8, 0.4, 0.2]","[u'red', u'blue', u'black']","[u'left', u'middle', u'right']","[0.9, 0.5, 0.1]","[u'high', u'low', u'medium']","blue",50,"middle","low","False","False",623,800,NA
"A3UD7T1L80TCR3","Thu Oct 29 2020 11:29:57 GMT-0500 (Central Daylight Time)","Thu Oct 29 2020 11:37:44 GMT-0500 (Central Daylight Time)","Mozilla/5.0 (X11; CrOS x86_64 13421.73.0) AppleWebKit/537.36 (KHTML, like Gecko) Chrome/86.0.4240.112 Safari/537.36",21,"[0.9, 0.5, 0.1]","[0.8, 0.4, 0.2]","[u'red', u'blue', u'black']","[u'left', u'middle', u'right']","[0.9, 0.5, 0.1]","[u'high', u'low', u'medium']","red",49,"left","high","True","False",403,900,NA
"A3UD7T1L80TCR3","Thu Oct 29 2020 11:29:57 GMT-0500 (Central Daylight Time)","Thu Oct 29 2020 11:37:44 GMT-0500 (Central Daylight Time)","Mozilla/5.0 (X11; CrOS x86_64 13421.73.0) AppleWebKit/537.36 (KHTML, like Gecko) Chrome/86.0.4240.112 Safari/537.36",22,"[0.9, 0.5, 0.1]","[0.8, 0.4, 0.2]","[u'red', u'blue', u'black']","[u'left', u'middle', u'right']","[0.9, 0.5, 0.1]","[u'high', u'low', u'medium']","red",49,"left","high","True","False",437,1000,NA
"A3UD7T1L80TCR3","Thu Oct 29 2020 11:29:57 GMT-0500 (Central Daylight Time)","Thu Oct 29 2020 11:37:44 GMT-0500 (Central Daylight Time)","Mozilla/5.0 (X11; CrOS x86_64 13421.73.0) AppleWebKit/537.36 (KHTML, like Gecko) Chrome/86.0.4240.112 Safari/537.36",23,"[0.9, 0.5, 0.1]","[0.8, 0.4, 0.2]","[u'red', u'blue', u'black']","[u'left', u'middle', u'right']","[0.9, 0.5, 0.1]","[u'high', u'low', u'medium']","red",49,"left","high","True","False",866,1100,NA
"A3UD7T1L80TCR3","Thu Oct 29 2020 11:29:57 GMT-0500 (Central Daylight Time)","Thu Oct 29 2020 11:37:44 GMT-0500 (Central Daylight Time)","Mozilla/5.0 (X11; CrOS x86_64 13421.73.0) AppleWebKit/537.36 (KHTML, like Gecko) Chrome/86.0.4240.112 Safari/537.36",24,"[0.9, 0.5, 0.1]","[0.8, 0.4, 0.2]","[u'red', u'blue', u'black']","[u'left', u'middle', u'right']","[0.9, 0.5, 0.1]","[u'high', u'low', u'medium']","red",49,"left","high","True","False",903,1200,NA
"A3UD7T1L80TCR3","Thu Oct 29 2020 11:29:57 GMT-0500 (Central Daylight Time)","Thu Oct 29 2020 11:37:44 GMT-0500 (Central Daylight Time)","Mozilla/5.0 (X11; CrOS x86_64 13421.73.0) AppleWebKit/537.36 (KHTML, like Gecko) Chrome/86.0.4240.112 Safari/537.36",25,"[0.9, 0.5, 0.1]","[0.8, 0.4, 0.2]","[u'red', u'blue', u'black']","[u'left', u'middle', u'right']","[0.9, 0.5, 0.1]","[u'high', u'low', u'medium']","red",49,"left","high","True","False",885,1300,NA
"A3UD7T1L80TCR3","Thu Oct 29 2020 11:29:57 GMT-0500 (Central Daylight Time)","Thu Oct 29 2020 11:37:44 GMT-0500 (Central Daylight Time)","Mozilla/5.0 (X11; CrOS x86_64 13421.73.0) AppleWebKit/537.36 (KHTML, like Gecko) Chrome/86.0.4240.112 Safari/537.36",26,"[0.9, 0.5, 0.1]","[0.8, 0.4, 0.2]","[u'red', u'blue', u'black']","[u'left', u'middle', u'right']","[0.9, 0.5, 0.1]","[u'high', u'low', u'medium']","red",49,"left","high","True","False",660,1400,NA
"A3UD7T1L80TCR3","Thu Oct 29 2020 11:29:57 GMT-0500 (Central Daylight Time)","Thu Oct 29 2020 11:37:44 GMT-0500 (Central Daylight Time)","Mozilla/5.0 (X11; CrOS x86_64 13421.73.0) AppleWebKit/537.36 (KHTML, like Gecko) Chrome/86.0.4240.112 Safari/537.36",27,"[0.9, 0.5, 0.1]","[0.8, 0.4, 0.2]","[u'red', u'blue', u'black']","[u'left', u'middle', u'right']","[0.9, 0.5, 0.1]","[u'high', u'low', u'medium']","red",49,"left","high","True","False",533,1500,NA
"A3UD7T1L80TCR3","Thu Oct 29 2020 11:29:57 GMT-0500 (Central Daylight Time)","Thu Oct 29 2020 11:37:44 GMT-0500 (Central Daylight Time)","Mozilla/5.0 (X11; CrOS x86_64 13421.73.0) AppleWebKit/537.36 (KHTML, like Gecko) Chrome/86.0.4240.112 Safari/537.36",28,"[0.9, 0.5, 0.1]","[0.8, 0.4, 0.2]","[u'red', u'blue', u'black']","[u'left', u'middle', u'right']","[0.9, 0.5, 0.1]","[u'high', u'low', u'medium']","red",49,"left","high","True","False",522,1600,NA
"A3UD7T1L80TCR3","Thu Oct 29 2020 11:29:57 GMT-0500 (Central Daylight Time)","Thu Oct 29 2020 11:37:44 GMT-0500 (Central Daylight Time)","Mozilla/5.0 (X11; CrOS x86_64 13421.73.0) AppleWebKit/537.36 (KHTML, like Gecko) Chrome/86.0.4240.112 Safari/537.36",29,"[0.9, 0.5, 0.1]","[0.8, 0.4, 0.2]","[u'red', u'blue', u'black']","[u'left', u'middle', u'right']","[0.9, 0.5, 0.1]","[u'high', u'low', u'medium']","red",49,"left","high","True","True",601,1700,NA
"A3UD7T1L80TCR3","Thu Oct 29 2020 11:29:57 GMT-0500 (Central Daylight Time)","Thu Oct 29 2020 11:37:44 GMT-0500 (Central Daylight Time)","Mozilla/5.0 (X11; CrOS x86_64 13421.73.0) AppleWebKit/537.36 (KHTML, like Gecko) Chrome/86.0.4240.112 Safari/537.36",30,"[0.9, 0.5, 0.1]","[0.8, 0.4, 0.2]","[u'red', u'blue', u'black']","[u'left', u'middle', u'right']","[0.9, 0.5, 0.1]","[u'low', u'medium', u'high']","red",49,"left","low","False","False",553,1650,NA
"A3UD7T1L80TCR3","Thu Oct 29 2020 11:29:57 GMT-0500 (Central Daylight Time)","Thu Oct 29 2020 11:37:44 GMT-0500 (Central Daylight Time)","Mozilla/5.0 (X11; CrOS x86_64 13421.73.0) AppleWebKit/537.36 (KHTML, like Gecko) Chrome/86.0.4240.112 Safari/537.36",31,"[0.9, 0.5, 0.1]","[0.8, 0.4, 0.2]","[u'red', u'blue', u'black']","[u'left', u'middle', u'right']","[0.9, 0.5, 0.1]","[u'low', u'medium', u'high']","blue",50,"middle","medium","False","False",575,1600,NA
"A3UD7T1L80TCR3","Thu Oct 29 2020 11:29:57 GMT-0500 (Central Daylight Time)","Thu Oct 29 2020 11:37:44 GMT-0500 (Central Daylight Time)","Mozilla/5.0 (X11; CrOS x86_64 13421.73.0) AppleWebKit/537.36 (KHTML, like Gecko) Chrome/86.0.4240.112 Safari/537.36",32,"[0.9, 0.5, 0.1]","[0.8, 0.4, 0.2]","[u'red', u'blue', u'black']","[u'left', u'middle', u'right']","[0.9, 0.5, 0.1]","[u'low', u'medium', u'high']","black",51,"right","high","True","False",435,1700,NA
"A3UD7T1L80TCR3","Thu Oct 29 2020 11:29:57 GMT-0500 (Central Daylight Time)","Thu Oct 29 2020 11:37:44 GMT-0500 (Central Daylight Time)","Mozilla/5.0 (X11; CrOS x86_64 13421.73.0) AppleWebKit/537.36 (KHTML, like Gecko) Chrome/86.0.4240.112 Safari/537.36",33,"[0.9, 0.5, 0.1]","[0.8, 0.4, 0.2]","[u'red', u'blue', u'black']","[u'left', u'middle', u'right']","[0.9, 0.5, 0.1]","[u'low', u'medium', u'high']","black",51,"right","high","True","False",427,1800,NA
"A3UD7T1L80TCR3","Thu Oct 29 2020 11:29:57 GMT-0500 (Central Daylight Time)","Thu Oct 29 2020 11:37:44 GMT-0500 (Central Daylight Time)","Mozilla/5.0 (X11; CrOS x86_64 13421.73.0) AppleWebKit/537.36 (KHTML, like Gecko) Chrome/86.0.4240.112 Safari/537.36",34,"[0.9, 0.5, 0.1]","[0.8, 0.4, 0.2]","[u'red', u'blue', u'black']","[u'left', u'middle', u'right']","[0.9, 0.5, 0.1]","[u'low', u'medium', u'high']","black",51,"right","high","True","False",536,1900,NA
"A3UD7T1L80TCR3","Thu Oct 29 2020 11:29:57 GMT-0500 (Central Daylight Time)","Thu Oct 29 2020 11:37:44 GMT-0500 (Central Daylight Time)","Mozilla/5.0 (X11; CrOS x86_64 13421.73.0) AppleWebKit/537.36 (KHTML, like Gecko) Chrome/86.0.4240.112 Safari/537.36",35,"[0.9, 0.5, 0.1]","[0.8, 0.4, 0.2]","[u'red', u'blue', u'black']","[u'left', u'middle', u'right']","[0.9, 0.5, 0.1]","[u'low', u'medium', u'high']","black",51,"right","high","True","False",415,2000,NA
"A3UD7T1L80TCR3","Thu Oct 29 2020 11:29:57 GMT-0500 (Central Daylight Time)","Thu Oct 29 2020 11:37:44 GMT-0500 (Central Daylight Time)","Mozilla/5.0 (X11; CrOS x86_64 13421.73.0) AppleWebKit/537.36 (KHTML, like Gecko) Chrome/86.0.4240.112 Safari/537.36",36,"[0.9, 0.5, 0.1]","[0.8, 0.4, 0.2]","[u'red', u'blue', u'black']","[u'left', u'middle', u'right']","[0.9, 0.5, 0.1]","[u'low', u'medium', u'high']","black",51,"right","high","True","False",447,2100,NA
"A3UD7T1L80TCR3","Thu Oct 29 2020 11:29:57 GMT-0500 (Central Daylight Time)","Thu Oct 29 2020 11:37:44 GMT-0500 (Central Daylight Time)","Mozilla/5.0 (X11; CrOS x86_64 13421.73.0) AppleWebKit/537.36 (KHTML, like Gecko) Chrome/86.0.4240.112 Safari/537.36",37,"[0.9, 0.5, 0.1]","[0.8, 0.4, 0.2]","[u'red', u'blue', u'black']","[u'left', u'middle', u'right']","[0.9, 0.5, 0.1]","[u'low', u'medium', u'high']","black",51,"right","high","True","False",515,2200,NA
"A3UD7T1L80TCR3","Thu Oct 29 2020 11:29:57 GMT-0500 (Central Daylight Time)","Thu Oct 29 2020 11:37:44 GMT-0500 (Central Daylight Time)","Mozilla/5.0 (X11; CrOS x86_64 13421.73.0) AppleWebKit/537.36 (KHTML, like Gecko) Chrome/86.0.4240.112 Safari/537.36",38,"[0.9, 0.5, 0.1]","[0.8, 0.4, 0.2]","[u'red', u'blue', u'black']","[u'left', u'middle', u'right']","[0.9, 0.5, 0.1]","[u'low', u'medium', u'high']","black",51,"right","high","True","False",454,2300,NA
"A3UD7T1L80TCR3","Thu Oct 29 2020 11:29:57 GMT-0500 (Central Daylight Time)","Thu Oct 29 2020 11:37:44 GMT-0500 (Central Daylight Time)","Mozilla/5.0 (X11; CrOS x86_64 13421.73.0) AppleWebKit/537.36 (KHTML, like Gecko) Chrome/86.0.4240.112 Safari/537.36",39,"[0.9, 0.5, 0.1]","[0.8, 0.4, 0.2]","[u'red', u'blue', u'black']","[u'left', u'middle', u'right']","[0.9, 0.5, 0.1]","[u'low', u'medium', u'high']","black",51,"right","high","True","False",383,2400,NA
"A3UD7T1L80TCR3","Thu Oct 29 2020 11:29:57 GMT-0500 (Central Daylight Time)","Thu Oct 29 2020 11:37:44 GMT-0500 (Central Daylight Time)","Mozilla/5.0 (X11; CrOS x86_64 13421.73.0) AppleWebKit/537.36 (KHTML, like Gecko) Chrome/86.0.4240.112 Safari/537.36",40,"[0.9, 0.5, 0.1]","[0.8, 0.4, 0.2]","[u'red', u'blue', u'black']","[u'left', u'middle', u'right']","[0.9, 0.5, 0.1]","[u'low', u'medium', u'high']","black",51,"right","high","True","True",467,2500,NA
"A3UD7T1L80TCR3","Thu Oct 29 2020 11:29:57 GMT-0500 (Central Daylight Time)","Thu Oct 29 2020 11:37:44 GMT-0500 (Central Daylight Time)","Mozilla/5.0 (X11; CrOS x86_64 13421.73.0) AppleWebKit/537.36 (KHTML, like Gecko) Chrome/86.0.4240.112 Safari/537.36",41,"[0.9, 0.5, 0.1]","[0.8, 0.4, 0.2]","[u'red', u'blue', u'black']","[u'left', u'middle', u'right']","[0.9, 0.5, 0.1]","[u'medium', u'high', u'low']","black",51,"right","low","False","False",1133,2450,NA
"A3UD7T1L80TCR3","Thu Oct 29 2020 11:29:57 GMT-0500 (Central Daylight Time)","Thu Oct 29 2020 11:37:44 GMT-0500 (Central Daylight Time)","Mozilla/5.0 (X11; CrOS x86_64 13421.73.0) AppleWebKit/537.36 (KHTML, like Gecko) Chrome/86.0.4240.112 Safari/537.36",42,"[0.9, 0.5, 0.1]","[0.8, 0.4, 0.2]","[u'red', u'blue', u'black']","[u'left', u'middle', u'right']","[0.9, 0.5, 0.1]","[u'medium', u'high', u'low']","blue",50,"middle","high","True","False",317,2550,NA
"A3UD7T1L80TCR3","Thu Oct 29 2020 11:29:57 GMT-0500 (Central Daylight Time)","Thu Oct 29 2020 11:37:44 GMT-0500 (Central Daylight Time)","Mozilla/5.0 (X11; CrOS x86_64 13421.73.0) AppleWebKit/537.36 (KHTML, like Gecko) Chrome/86.0.4240.112 Safari/537.36",43,"[0.9, 0.5, 0.1]","[0.8, 0.4, 0.2]","[u'red', u'blue', u'black']","[u'left', u'middle', u'right']","[0.9, 0.5, 0.1]","[u'medium', u'high', u'low']","blue",50,"middle","high","True","False",460,2650,NA
"A3UD7T1L80TCR3","Thu Oct 29 2020 11:29:57 GMT-0500 (Central Daylight Time)","Thu Oct 29 2020 11:37:44 GMT-0500 (Central Daylight Time)","Mozilla/5.0 (X11; CrOS x86_64 13421.73.0) AppleWebKit/537.36 (KHTML, like Gecko) Chrome/86.0.4240.112 Safari/537.36",44,"[0.9, 0.5, 0.1]","[0.8, 0.4, 0.2]","[u'red', u'blue', u'black']","[u'left', u'middle', u'right']","[0.9, 0.5, 0.1]","[u'medium', u'high', u'low']","black",51,"right","low","False","False",1060,2600,NA
"A3UD7T1L80TCR3","Thu Oct 29 2020 11:29:57 GMT-0500 (Central Daylight Time)","Thu Oct 29 2020 11:37:44 GMT-0500 (Central Daylight Time)","Mozilla/5.0 (X11; CrOS x86_64 13421.73.0) AppleWebKit/537.36 (KHTML, like Gecko) Chrome/86.0.4240.112 Safari/537.36",45,"[0.9, 0.5, 0.1]","[0.8, 0.4, 0.2]","[u'red', u'blue', u'black']","[u'left', u'middle', u'right']","[0.9, 0.5, 0.1]","[u'medium', u'high', u'low']","blue",50,"middle","high","True","False",313,2700,NA
"A3UD7T1L80TCR3","Thu Oct 29 2020 11:29:57 GMT-0500 (Central Daylight Time)","Thu Oct 29 2020 11:37:44 GMT-0500 (Central Daylight Time)","Mozilla/5.0 (X11; CrOS x86_64 13421.73.0) AppleWebKit/537.36 (KHTML, like Gecko) Chrome/86.0.4240.112 Safari/537.36",46,"[0.9, 0.5, 0.1]","[0.8, 0.4, 0.2]","[u'red', u'blue', u'black']","[u'left', u'middle', u'right']","[0.9, 0.5, 0.1]","[u'medium', u'high', u'low']","blue",50,"middle","high","True","False",353,2800,NA
"A3UD7T1L80TCR3","Thu Oct 29 2020 11:29:57 GMT-0500 (Central Daylight Time)","Thu Oct 29 2020 11:37:44 GMT-0500 (Central Daylight Time)","Mozilla/5.0 (X11; CrOS x86_64 13421.73.0) AppleWebKit/537.36 (KHTML, like Gecko) Chrome/86.0.4240.112 Safari/537.36",47,"[0.9, 0.5, 0.1]","[0.8, 0.4, 0.2]","[u'red', u'blue', u'black']","[u'left', u'middle', u'right']","[0.9, 0.5, 0.1]","[u'medium', u'high', u'low']","blue",50,"middle","high","True","False",553,2900,NA
"A3UD7T1L80TCR3","Thu Oct 29 2020 11:29:57 GMT-0500 (Central Daylight Time)","Thu Oct 29 2020 11:37:44 GMT-0500 (Central Daylight Time)","Mozilla/5.0 (X11; CrOS x86_64 13421.73.0) AppleWebKit/537.36 (KHTML, like Gecko) Chrome/86.0.4240.112 Safari/537.36",48,"[0.9, 0.5, 0.1]","[0.8, 0.4, 0.2]","[u'red', u'blue', u'black']","[u'left', u'middle', u'right']","[0.9, 0.5, 0.1]","[u'medium', u'high', u'low']","blue",50,"middle","high","True","False",522,3000,NA
"A3UD7T1L80TCR3","Thu Oct 29 2020 11:29:57 GMT-0500 (Central Daylight Time)","Thu Oct 29 2020 11:37:44 GMT-0500 (Central Daylight Time)","Mozilla/5.0 (X11; CrOS x86_64 13421.73.0) AppleWebKit/537.36 (KHTML, like Gecko) Chrome/86.0.4240.112 Safari/537.36",49,"[0.9, 0.5, 0.1]","[0.8, 0.4, 0.2]","[u'red', u'blue', u'black']","[u'left', u'middle', u'right']","[0.9, 0.5, 0.1]","[u'medium', u'high', u'low']","blue",50,"middle","high","True","False",422,3100,NA
"A3UD7T1L80TCR3","Thu Oct 29 2020 11:29:57 GMT-0500 (Central Daylight Time)","Thu Oct 29 2020 11:37:44 GMT-0500 (Central Daylight Time)","Mozilla/5.0 (X11; CrOS x86_64 13421.73.0) AppleWebKit/537.36 (KHTML, like Gecko) Chrome/86.0.4240.112 Safari/537.36",50,"[0.9, 0.5, 0.1]","[0.8, 0.4, 0.2]","[u'red', u'blue', u'black']","[u'left', u'middle', u'right']","[0.9, 0.5, 0.1]","[u'medium', u'high', u'low']","blue",50,"middle","high","True","False",480,3200,NA
"A3UD7T1L80TCR3","Thu Oct 29 2020 11:29:57 GMT-0500 (Central Daylight Time)","Thu Oct 29 2020 11:37:44 GMT-0500 (Central Daylight Time)","Mozilla/5.0 (X11; CrOS x86_64 13421.73.0) AppleWebKit/537.36 (KHTML, like Gecko) Chrome/86.0.4240.112 Safari/537.36",51,"[0.9, 0.5, 0.1]","[0.8, 0.4, 0.2]","[u'red', u'blue', u'black']","[u'left', u'middle', u'right']","[0.9, 0.5, 0.1]","[u'medium', u'high', u'low']","blue",50,"middle","high","True","True",358,3300,NA
"A3UD7T1L80TCR3","Thu Oct 29 2020 11:29:57 GMT-0500 (Central Daylight Time)","Thu Oct 29 2020 11:37:44 GMT-0500 (Central Daylight Time)","Mozilla/5.0 (X11; CrOS x86_64 13421.73.0) AppleWebKit/537.36 (KHTML, like Gecko) Chrome/86.0.4240.112 Safari/537.36",52,"[0.9, 0.5, 0.1]","[0.8, 0.4, 0.2]","[u'red', u'blue', u'black']","[u'left', u'middle', u'right']","[0.9, 0.5, 0.1]","[u'high', u'medium', u'low']","blue",50,"middle","medium","False","False",603,3250,NA
"A3UD7T1L80TCR3","Thu Oct 29 2020 11:29:57 GMT-0500 (Central Daylight Time)","Thu Oct 29 2020 11:37:44 GMT-0500 (Central Daylight Time)","Mozilla/5.0 (X11; CrOS x86_64 13421.73.0) AppleWebKit/537.36 (KHTML, like Gecko) Chrome/86.0.4240.112 Safari/537.36",53,"[0.9, 0.5, 0.1]","[0.8, 0.4, 0.2]","[u'red', u'blue', u'black']","[u'left', u'middle', u'right']","[0.9, 0.5, 0.1]","[u'high', u'medium', u'low']","red",49,"left","high","False","False",331,3200,NA
"A3UD7T1L80TCR3","Thu Oct 29 2020 11:29:57 GMT-0500 (Central Daylight Time)","Thu Oct 29 2020 11:37:44 GMT-0500 (Central Daylight Time)","Mozilla/5.0 (X11; CrOS x86_64 13421.73.0) AppleWebKit/537.36 (KHTML, like Gecko) Chrome/86.0.4240.112 Safari/537.36",54,"[0.9, 0.5, 0.1]","[0.8, 0.4, 0.2]","[u'red', u'blue', u'black']","[u'left', u'middle', u'right']","[0.9, 0.5, 0.1]","[u'high', u'medium', u'low']","black",51,"right","low","False","False",261,3150,NA
"A3UD7T1L80TCR3","Thu Oct 29 2020 11:29:57 GMT-0500 (Central Daylight Time)","Thu Oct 29 2020 11:37:44 GMT-0500 (Central Daylight Time)","Mozilla/5.0 (X11; CrOS x86_64 13421.73.0) AppleWebKit/537.36 (KHTML, like Gecko) Chrome/86.0.4240.112 Safari/537.36",55,"[0.9, 0.5, 0.1]","[0.8, 0.4, 0.2]","[u'red', u'blue', u'black']","[u'left', u'middle', u'right']","[0.9, 0.5, 0.1]","[u'high', u'medium', u'low']","blue",50,"middle","medium","False","False",557,3100,NA
"A3UD7T1L80TCR3","Thu Oct 29 2020 11:29:57 GMT-0500 (Central Daylight Time)","Thu Oct 29 2020 11:37:44 GMT-0500 (Central Daylight Time)","Mozilla/5.0 (X11; CrOS x86_64 13421.73.0) AppleWebKit/537.36 (KHTML, like Gecko) Chrome/86.0.4240.112 Safari/537.36",56,"[0.9, 0.5, 0.1]","[0.8, 0.4, 0.2]","[u'red', u'blue', u'black']","[u'left', u'middle', u'right']","[0.9, 0.5, 0.1]","[u'high', u'medium', u'low']","red",49,"left","high","False","False",304,3050,NA
"A3UD7T1L80TCR3","Thu Oct 29 2020 11:29:57 GMT-0500 (Central Daylight Time)","Thu Oct 29 2020 11:37:44 GMT-0500 (Central Daylight Time)","Mozilla/5.0 (X11; CrOS x86_64 13421.73.0) AppleWebKit/537.36 (KHTML, like Gecko) Chrome/86.0.4240.112 Safari/537.36",57,"[0.9, 0.5, 0.1]","[0.8, 0.4, 0.2]","[u'red', u'blue', u'black']","[u'left', u'middle', u'right']","[0.9, 0.5, 0.1]","[u'high', u'medium', u'low']","blue",50,"middle","medium","True","False",1200,3150,NA
"A3UD7T1L80TCR3","Thu Oct 29 2020 11:29:57 GMT-0500 (Central Daylight Time)","Thu Oct 29 2020 11:37:44 GMT-0500 (Central Daylight Time)","Mozilla/5.0 (X11; CrOS x86_64 13421.73.0) AppleWebKit/537.36 (KHTML, like Gecko) Chrome/86.0.4240.112 Safari/537.36",58,"[0.9, 0.5, 0.1]","[0.8, 0.4, 0.2]","[u'red', u'blue', u'black']","[u'left', u'middle', u'right']","[0.9, 0.5, 0.1]","[u'high', u'medium', u'low']","blue",50,"middle","medium","True","False",372,3250,NA
"A3UD7T1L80TCR3","Thu Oct 29 2020 11:29:57 GMT-0500 (Central Daylight Time)","Thu Oct 29 2020 11:37:44 GMT-0500 (Central Daylight Time)","Mozilla/5.0 (X11; CrOS x86_64 13421.73.0) AppleWebKit/537.36 (KHTML, like Gecko) Chrome/86.0.4240.112 Safari/537.36",59,"[0.9, 0.5, 0.1]","[0.8, 0.4, 0.2]","[u'red', u'blue', u'black']","[u'left', u'middle', u'right']","[0.9, 0.5, 0.1]","[u'high', u'medium', u'low']","blue",50,"middle","medium","False","False",383,3200,NA
"A3UD7T1L80TCR3","Thu Oct 29 2020 11:29:57 GMT-0500 (Central Daylight Time)","Thu Oct 29 2020 11:37:44 GMT-0500 (Central Daylight Time)","Mozilla/5.0 (X11; CrOS x86_64 13421.73.0) AppleWebKit/537.36 (KHTML, like Gecko) Chrome/86.0.4240.112 Safari/537.36",60,"[0.9, 0.5, 0.1]","[0.8, 0.4, 0.2]","[u'red', u'blue', u'black']","[u'left', u'middle', u'right']","[0.9, 0.5, 0.1]","[u'high', u'medium', u'low']","black",51,"right","low","False","False",647,3150,NA
"A3UD7T1L80TCR3","Thu Oct 29 2020 11:29:57 GMT-0500 (Central Daylight Time)","Thu Oct 29 2020 11:37:44 GMT-0500 (Central Daylight Time)","Mozilla/5.0 (X11; CrOS x86_64 13421.73.0) AppleWebKit/537.36 (KHTML, like Gecko) Chrome/86.0.4240.112 Safari/537.36",61,"[0.9, 0.5, 0.1]","[0.8, 0.4, 0.2]","[u'red', u'blue', u'black']","[u'left', u'middle', u'right']","[0.9, 0.5, 0.1]","[u'high', u'medium', u'low']","red",49,"left","high","True","False",774,3250,NA
"A3UD7T1L80TCR3","Thu Oct 29 2020 11:29:57 GMT-0500 (Central Daylight Time)","Thu Oct 29 2020 11:37:44 GMT-0500 (Central Daylight Time)","Mozilla/5.0 (X11; CrOS x86_64 13421.73.0) AppleWebKit/537.36 (KHTML, like Gecko) Chrome/86.0.4240.112 Safari/537.36",62,"[0.9, 0.5, 0.1]","[0.8, 0.4, 0.2]","[u'red', u'blue', u'black']","[u'left', u'middle', u'right']","[0.9, 0.5, 0.1]","[u'high', u'medium', u'low']","red",49,"left","high","True","False",309,3350,NA
"A3UD7T1L80TCR3","Thu Oct 29 2020 11:29:57 GMT-0500 (Central Daylight Time)","Thu Oct 29 2020 11:37:44 GMT-0500 (Central Daylight Time)","Mozilla/5.0 (X11; CrOS x86_64 13421.73.0) AppleWebKit/537.36 (KHTML, like Gecko) Chrome/86.0.4240.112 Safari/537.36",63,"[0.9, 0.5, 0.1]","[0.8, 0.4, 0.2]","[u'red', u'blue', u'black']","[u'left', u'middle', u'right']","[0.9, 0.5, 0.1]","[u'high', u'medium', u'low']","red",49,"left","high","False","False",454,3300,NA
"A3UD7T1L80TCR3","Thu Oct 29 2020 11:29:57 GMT-0500 (Central Daylight Time)","Thu Oct 29 2020 11:37:44 GMT-0500 (Central Daylight Time)","Mozilla/5.0 (X11; CrOS x86_64 13421.73.0) AppleWebKit/537.36 (KHTML, like Gecko) Chrome/86.0.4240.112 Safari/537.36",64,"[0.9, 0.5, 0.1]","[0.8, 0.4, 0.2]","[u'red', u'blue', u'black']","[u'left', u'middle', u'right']","[0.9, 0.5, 0.1]","[u'high', u'medium', u'low']","blue",50,"middle","medium","False","False",565,3250,NA
"A3UD7T1L80TCR3","Thu Oct 29 2020 11:29:57 GMT-0500 (Central Daylight Time)","Thu Oct 29 2020 11:37:44 GMT-0500 (Central Daylight Time)","Mozilla/5.0 (X11; CrOS x86_64 13421.73.0) AppleWebKit/537.36 (KHTML, like Gecko) Chrome/86.0.4240.112 Safari/537.36",65,"[0.9, 0.5, 0.1]","[0.8, 0.4, 0.2]","[u'red', u'blue', u'black']","[u'left', u'middle', u'right']","[0.9, 0.5, 0.1]","[u'high', u'medium', u'low']","black",51,"right","low","False","False",364,3200,NA
"A3UD7T1L80TCR3","Thu Oct 29 2020 11:29:57 GMT-0500 (Central Daylight Time)","Thu Oct 29 2020 11:37:44 GMT-0500 (Central Daylight Time)","Mozilla/5.0 (X11; CrOS x86_64 13421.73.0) AppleWebKit/537.36 (KHTML, like Gecko) Chrome/86.0.4240.112 Safari/537.36",66,"[0.9, 0.5, 0.1]","[0.8, 0.4, 0.2]","[u'red', u'blue', u'black']","[u'left', u'middle', u'right']","[0.9, 0.5, 0.1]","[u'high', u'medium', u'low']","red",49,"left","high","True","False",242,3300,NA
"A3UD7T1L80TCR3","Thu Oct 29 2020 11:29:57 GMT-0500 (Central Daylight Time)","Thu Oct 29 2020 11:37:44 GMT-0500 (Central Daylight Time)","Mozilla/5.0 (X11; CrOS x86_64 13421.73.0) AppleWebKit/537.36 (KHTML, like Gecko) Chrome/86.0.4240.112 Safari/537.36",67,"[0.9, 0.5, 0.1]","[0.8, 0.4, 0.2]","[u'red', u'blue', u'black']","[u'left', u'middle', u'right']","[0.9, 0.5, 0.1]","[u'high', u'medium', u'low']","red",49,"left","high","True","False",331,3400,NA
"A3UD7T1L80TCR3","Thu Oct 29 2020 11:29:57 GMT-0500 (Central Daylight Time)","Thu Oct 29 2020 11:37:44 GMT-0500 (Central Daylight Time)","Mozilla/5.0 (X11; CrOS x86_64 13421.73.0) AppleWebKit/537.36 (KHTML, like Gecko) Chrome/86.0.4240.112 Safari/537.36",68,"[0.9, 0.5, 0.1]","[0.8, 0.4, 0.2]","[u'red', u'blue', u'black']","[u'left', u'middle', u'right']","[0.9, 0.5, 0.1]","[u'high', u'medium', u'low']","red",49,"left","high","False","False",462,3350,NA
"A3UD7T1L80TCR3","Thu Oct 29 2020 11:29:57 GMT-0500 (Central Daylight Time)","Thu Oct 29 2020 11:37:44 GMT-0500 (Central Daylight Time)","Mozilla/5.0 (X11; CrOS x86_64 13421.73.0) AppleWebKit/537.36 (KHTML, like Gecko) Chrome/86.0.4240.112 Safari/537.36",69,"[0.9, 0.5, 0.1]","[0.8, 0.4, 0.2]","[u'red', u'blue', u'black']","[u'left', u'middle', u'right']","[0.9, 0.5, 0.1]","[u'high', u'medium', u'low']","blue",50,"middle","medium","False","False",2963,3300,NA
"A3UD7T1L80TCR3","Thu Oct 29 2020 11:29:57 GMT-0500 (Central Daylight Time)","Thu Oct 29 2020 11:37:44 GMT-0500 (Central Daylight Time)","Mozilla/5.0 (X11; CrOS x86_64 13421.73.0) AppleWebKit/537.36 (KHTML, like Gecko) Chrome/86.0.4240.112 Safari/537.36",70,"[0.9, 0.5, 0.1]","[0.8, 0.4, 0.2]","[u'red', u'blue', u'black']","[u'left', u'middle', u'right']","[0.9, 0.5, 0.1]","[u'high', u'medium', u'low']","black",51,"right","low","False","False",705,3250,NA
"A3UD7T1L80TCR3","Thu Oct 29 2020 11:29:57 GMT-0500 (Central Daylight Time)","Thu Oct 29 2020 11:37:44 GMT-0500 (Central Daylight Time)","Mozilla/5.0 (X11; CrOS x86_64 13421.73.0) AppleWebKit/537.36 (KHTML, like Gecko) Chrome/86.0.4240.112 Safari/537.36",71,"[0.9, 0.5, 0.1]","[0.8, 0.4, 0.2]","[u'red', u'blue', u'black']","[u'left', u'middle', u'right']","[0.9, 0.5, 0.1]","[u'high', u'medium', u'low']","blue",50,"middle","medium","True","False",657,3350,NA
"A3UD7T1L80TCR3","Thu Oct 29 2020 11:29:57 GMT-0500 (Central Daylight Time)","Thu Oct 29 2020 11:37:44 GMT-0500 (Central Daylight Time)","Mozilla/5.0 (X11; CrOS x86_64 13421.73.0) AppleWebKit/537.36 (KHTML, like Gecko) Chrome/86.0.4240.112 Safari/537.36",72,"[0.9, 0.5, 0.1]","[0.8, 0.4, 0.2]","[u'red', u'blue', u'black']","[u'left', u'middle', u'right']","[0.9, 0.5, 0.1]","[u'high', u'medium', u'low']","blue",50,"middle","medium","False","False",446,3300,NA
"A3UD7T1L80TCR3","Thu Oct 29 2020 11:29:57 GMT-0500 (Central Daylight Time)","Thu Oct 29 2020 11:37:44 GMT-0500 (Central Daylight Time)","Mozilla/5.0 (X11; CrOS x86_64 13421.73.0) AppleWebKit/537.36 (KHTML, like Gecko) Chrome/86.0.4240.112 Safari/537.36",73,"[0.9, 0.5, 0.1]","[0.8, 0.4, 0.2]","[u'red', u'blue', u'black']","[u'left', u'middle', u'right']","[0.9, 0.5, 0.1]","[u'high', u'medium', u'low']","red",49,"left","high","True","False",271,3400,NA
"A3UD7T1L80TCR3","Thu Oct 29 2020 11:29:57 GMT-0500 (Central Daylight Time)","Thu Oct 29 2020 11:37:44 GMT-0500 (Central Daylight Time)","Mozilla/5.0 (X11; CrOS x86_64 13421.73.0) AppleWebKit/537.36 (KHTML, like Gecko) Chrome/86.0.4240.112 Safari/537.36",74,"[0.9, 0.5, 0.1]","[0.8, 0.4, 0.2]","[u'red', u'blue', u'black']","[u'left', u'middle', u'right']","[0.9, 0.5, 0.1]","[u'high', u'medium', u'low']","red",49,"left","high","True","False",315,3500,NA
"A3UD7T1L80TCR3","Thu Oct 29 2020 11:29:57 GMT-0500 (Central Daylight Time)","Thu Oct 29 2020 11:37:44 GMT-0500 (Central Daylight Time)","Mozilla/5.0 (X11; CrOS x86_64 13421.73.0) AppleWebKit/537.36 (KHTML, like Gecko) Chrome/86.0.4240.112 Safari/537.36",75,"[0.9, 0.5, 0.1]","[0.8, 0.4, 0.2]","[u'red', u'blue', u'black']","[u'left', u'middle', u'right']","[0.9, 0.5, 0.1]","[u'high', u'medium', u'low']","red",49,"left","high","True","False",303,3600,NA
"A3UD7T1L80TCR3","Thu Oct 29 2020 11:29:57 GMT-0500 (Central Daylight Time)","Thu Oct 29 2020 11:37:44 GMT-0500 (Central Daylight Time)","Mozilla/5.0 (X11; CrOS x86_64 13421.73.0) AppleWebKit/537.36 (KHTML, like Gecko) Chrome/86.0.4240.112 Safari/537.36",76,"[0.9, 0.5, 0.1]","[0.8, 0.4, 0.2]","[u'red', u'blue', u'black']","[u'left', u'middle', u'right']","[0.9, 0.5, 0.1]","[u'high', u'medium', u'low']","red",49,"left","high","True","False",337,3700,NA
"A3UD7T1L80TCR3","Thu Oct 29 2020 11:29:57 GMT-0500 (Central Daylight Time)","Thu Oct 29 2020 11:37:44 GMT-0500 (Central Daylight Time)","Mozilla/5.0 (X11; CrOS x86_64 13421.73.0) AppleWebKit/537.36 (KHTML, like Gecko) Chrome/86.0.4240.112 Safari/537.36",77,"[0.9, 0.5, 0.1]","[0.8, 0.4, 0.2]","[u'red', u'blue', u'black']","[u'left', u'middle', u'right']","[0.9, 0.5, 0.1]","[u'high', u'medium', u'low']","red",49,"left","high","True","False",489,3800,NA
"A3UD7T1L80TCR3","Thu Oct 29 2020 11:29:57 GMT-0500 (Central Daylight Time)","Thu Oct 29 2020 11:37:44 GMT-0500 (Central Daylight Time)","Mozilla/5.0 (X11; CrOS x86_64 13421.73.0) AppleWebKit/537.36 (KHTML, like Gecko) Chrome/86.0.4240.112 Safari/537.36",78,"[0.9, 0.5, 0.1]","[0.8, 0.4, 0.2]","[u'red', u'blue', u'black']","[u'left', u'middle', u'right']","[0.9, 0.5, 0.1]","[u'high', u'medium', u'low']","red",49,"left","high","True","False",406,3900,NA
"A3UD7T1L80TCR3","Thu Oct 29 2020 11:29:57 GMT-0500 (Central Daylight Time)","Thu Oct 29 2020 11:37:44 GMT-0500 (Central Daylight Time)","Mozilla/5.0 (X11; CrOS x86_64 13421.73.0) AppleWebKit/537.36 (KHTML, like Gecko) Chrome/86.0.4240.112 Safari/537.36",79,"[0.9, 0.5, 0.1]","[0.8, 0.4, 0.2]","[u'red', u'blue', u'black']","[u'left', u'middle', u'right']","[0.9, 0.5, 0.1]","[u'high', u'medium', u'low']","red",49,"left","high","True","False",407,4000,NA
"A3UD7T1L80TCR3","Thu Oct 29 2020 11:29:57 GMT-0500 (Central Daylight Time)","Thu Oct 29 2020 11:37:44 GMT-0500 (Central Daylight Time)","Mozilla/5.0 (X11; CrOS x86_64 13421.73.0) AppleWebKit/537.36 (KHTML, like Gecko) Chrome/86.0.4240.112 Safari/537.36",80,"[0.9, 0.5, 0.1]","[0.8, 0.4, 0.2]","[u'red', u'blue', u'black']","[u'left', u'middle', u'right']","[0.9, 0.5, 0.1]","[u'high', u'medium', u'low']","red",49,"left","high","True","False",698,4100,NA
"A3UD7T1L80TCR3","Thu Oct 29 2020 11:29:57 GMT-0500 (Central Daylight Time)","Thu Oct 29 2020 11:37:44 GMT-0500 (Central Daylight Time)","Mozilla/5.0 (X11; CrOS x86_64 13421.73.0) AppleWebKit/537.36 (KHTML, like Gecko) Chrome/86.0.4240.112 Safari/537.36",81,"[0.9, 0.5, 0.1]","[0.8, 0.4, 0.2]","[u'red', u'blue', u'black']","[u'left', u'middle', u'right']","[0.8, 0.4, 0.2]","[u'medium', u'low', u'high']","blue",50,"middle","low","False","False",1956,4050,NA
"A3UD7T1L80TCR3","Thu Oct 29 2020 11:29:57 GMT-0500 (Central Daylight Time)","Thu Oct 29 2020 11:37:44 GMT-0500 (Central Daylight Time)","Mozilla/5.0 (X11; CrOS x86_64 13421.73.0) AppleWebKit/537.36 (KHTML, like Gecko) Chrome/86.0.4240.112 Safari/537.36",82,"[0.9, 0.5, 0.1]","[0.8, 0.4, 0.2]","[u'red', u'blue', u'black']","[u'left', u'middle', u'right']","[0.8, 0.4, 0.2]","[u'medium', u'low', u'high']","red",49,"left","medium","True","False",315,4150,NA
"A3UD7T1L80TCR3","Thu Oct 29 2020 11:29:57 GMT-0500 (Central Daylight Time)","Thu Oct 29 2020 11:37:44 GMT-0500 (Central Daylight Time)","Mozilla/5.0 (X11; CrOS x86_64 13421.73.0) AppleWebKit/537.36 (KHTML, like Gecko) Chrome/86.0.4240.112 Safari/537.36",83,"[0.9, 0.5, 0.1]","[0.8, 0.4, 0.2]","[u'red', u'blue', u'black']","[u'left', u'middle', u'right']","[0.8, 0.4, 0.2]","[u'medium', u'low', u'high']","red",49,"left","medium","True","False",423,4250,NA
"A3UD7T1L80TCR3","Thu Oct 29 2020 11:29:57 GMT-0500 (Central Daylight Time)","Thu Oct 29 2020 11:37:44 GMT-0500 (Central Daylight Time)","Mozilla/5.0 (X11; CrOS x86_64 13421.73.0) AppleWebKit/537.36 (KHTML, like Gecko) Chrome/86.0.4240.112 Safari/537.36",84,"[0.9, 0.5, 0.1]","[0.8, 0.4, 0.2]","[u'red', u'blue', u'black']","[u'left', u'middle', u'right']","[0.8, 0.4, 0.2]","[u'medium', u'low', u'high']","red",49,"left","medium","True","False",2234,4350,NA
"A3UD7T1L80TCR3","Thu Oct 29 2020 11:29:57 GMT-0500 (Central Daylight Time)","Thu Oct 29 2020 11:37:44 GMT-0500 (Central Daylight Time)","Mozilla/5.0 (X11; CrOS x86_64 13421.73.0) AppleWebKit/537.36 (KHTML, like Gecko) Chrome/86.0.4240.112 Safari/537.36",85,"[0.9, 0.5, 0.1]","[0.8, 0.4, 0.2]","[u'red', u'blue', u'black']","[u'left', u'middle', u'right']","[0.8, 0.4, 0.2]","[u'medium', u'low', u'high']","red",49,"left","medium","False","False",383,4300,NA
"A3UD7T1L80TCR3","Thu Oct 29 2020 11:29:57 GMT-0500 (Central Daylight Time)","Thu Oct 29 2020 11:37:44 GMT-0500 (Central Daylight Time)","Mozilla/5.0 (X11; CrOS x86_64 13421.73.0) AppleWebKit/537.36 (KHTML, like Gecko) Chrome/86.0.4240.112 Safari/537.36",86,"[0.9, 0.5, 0.1]","[0.8, 0.4, 0.2]","[u'red', u'blue', u'black']","[u'left', u'middle', u'right']","[0.8, 0.4, 0.2]","[u'medium', u'low', u'high']","blue",50,"middle","low","False","False",280,4250,NA
"A3UD7T1L80TCR3","Thu Oct 29 2020 11:29:57 GMT-0500 (Central Daylight Time)","Thu Oct 29 2020 11:37:44 GMT-0500 (Central Daylight Time)","Mozilla/5.0 (X11; CrOS x86_64 13421.73.0) AppleWebKit/537.36 (KHTML, like Gecko) Chrome/86.0.4240.112 Safari/537.36",87,"[0.9, 0.5, 0.1]","[0.8, 0.4, 0.2]","[u'red', u'blue', u'black']","[u'left', u'middle', u'right']","[0.8, 0.4, 0.2]","[u'medium', u'low', u'high']","black",51,"right","high","True","False",397,4350,NA
"A3UD7T1L80TCR3","Thu Oct 29 2020 11:29:57 GMT-0500 (Central Daylight Time)","Thu Oct 29 2020 11:37:44 GMT-0500 (Central Daylight Time)","Mozilla/5.0 (X11; CrOS x86_64 13421.73.0) AppleWebKit/537.36 (KHTML, like Gecko) Chrome/86.0.4240.112 Safari/537.36",88,"[0.9, 0.5, 0.1]","[0.8, 0.4, 0.2]","[u'red', u'blue', u'black']","[u'left', u'middle', u'right']","[0.8, 0.4, 0.2]","[u'medium', u'low', u'high']","black",51,"right","high","True","False",354,4450,NA
"A3UD7T1L80TCR3","Thu Oct 29 2020 11:29:57 GMT-0500 (Central Daylight Time)","Thu Oct 29 2020 11:37:44 GMT-0500 (Central Daylight Time)","Mozilla/5.0 (X11; CrOS x86_64 13421.73.0) AppleWebKit/537.36 (KHTML, like Gecko) Chrome/86.0.4240.112 Safari/537.36",89,"[0.9, 0.5, 0.1]","[0.8, 0.4, 0.2]","[u'red', u'blue', u'black']","[u'left', u'middle', u'right']","[0.8, 0.4, 0.2]","[u'medium', u'low', u'high']","black",51,"right","high","True","False",473,4550,NA
"A3UD7T1L80TCR3","Thu Oct 29 2020 11:29:57 GMT-0500 (Central Daylight Time)","Thu Oct 29 2020 11:37:44 GMT-0500 (Central Daylight Time)","Mozilla/5.0 (X11; CrOS x86_64 13421.73.0) AppleWebKit/537.36 (KHTML, like Gecko) Chrome/86.0.4240.112 Safari/537.36",90,"[0.9, 0.5, 0.1]","[0.8, 0.4, 0.2]","[u'red', u'blue', u'black']","[u'left', u'middle', u'right']","[0.8, 0.4, 0.2]","[u'medium', u'low', u'high']","black",51,"right","high","False","False",433,4500,NA
"A3UD7T1L80TCR3","Thu Oct 29 2020 11:29:57 GMT-0500 (Central Daylight Time)","Thu Oct 29 2020 11:37:44 GMT-0500 (Central Daylight Time)","Mozilla/5.0 (X11; CrOS x86_64 13421.73.0) AppleWebKit/537.36 (KHTML, like Gecko) Chrome/86.0.4240.112 Safari/537.36",91,"[0.9, 0.5, 0.1]","[0.8, 0.4, 0.2]","[u'red', u'blue', u'black']","[u'left', u'middle', u'right']","[0.8, 0.4, 0.2]","[u'medium', u'low', u'high']","red",49,"left","medium","True","False",294,4600,NA
"A3UD7T1L80TCR3","Thu Oct 29 2020 11:29:57 GMT-0500 (Central Daylight Time)","Thu Oct 29 2020 11:37:44 GMT-0500 (Central Daylight Time)","Mozilla/5.0 (X11; CrOS x86_64 13421.73.0) AppleWebKit/537.36 (KHTML, like Gecko) Chrome/86.0.4240.112 Safari/537.36",92,"[0.9, 0.5, 0.1]","[0.8, 0.4, 0.2]","[u'red', u'blue', u'black']","[u'left', u'middle', u'right']","[0.8, 0.4, 0.2]","[u'medium', u'low', u'high']","red",49,"left","medium","False","False",311,4550,NA
"A3UD7T1L80TCR3","Thu Oct 29 2020 11:29:57 GMT-0500 (Central Daylight Time)","Thu Oct 29 2020 11:37:44 GMT-0500 (Central Daylight Time)","Mozilla/5.0 (X11; CrOS x86_64 13421.73.0) AppleWebKit/537.36 (KHTML, like Gecko) Chrome/86.0.4240.112 Safari/537.36",93,"[0.9, 0.5, 0.1]","[0.8, 0.4, 0.2]","[u'red', u'blue', u'black']","[u'left', u'middle', u'right']","[0.8, 0.4, 0.2]","[u'medium', u'low', u'high']","black",51,"right","high","False","False",764,4500,NA
"A3UD7T1L80TCR3","Thu Oct 29 2020 11:29:57 GMT-0500 (Central Daylight Time)","Thu Oct 29 2020 11:37:44 GMT-0500 (Central Daylight Time)","Mozilla/5.0 (X11; CrOS x86_64 13421.73.0) AppleWebKit/537.36 (KHTML, like Gecko) Chrome/86.0.4240.112 Safari/537.36",94,"[0.9, 0.5, 0.1]","[0.8, 0.4, 0.2]","[u'red', u'blue', u'black']","[u'left', u'middle', u'right']","[0.8, 0.4, 0.2]","[u'medium', u'low', u'high']","blue",50,"middle","low","False","False",267,4450,NA
"A3UD7T1L80TCR3","Thu Oct 29 2020 11:29:57 GMT-0500 (Central Daylight Time)","Thu Oct 29 2020 11:37:44 GMT-0500 (Central Daylight Time)","Mozilla/5.0 (X11; CrOS x86_64 13421.73.0) AppleWebKit/537.36 (KHTML, like Gecko) Chrome/86.0.4240.112 Safari/537.36",95,"[0.9, 0.5, 0.1]","[0.8, 0.4, 0.2]","[u'red', u'blue', u'black']","[u'left', u'middle', u'right']","[0.8, 0.4, 0.2]","[u'medium', u'low', u'high']","red",49,"left","medium","False","False",335,4400,NA
"A3UD7T1L80TCR3","Thu Oct 29 2020 11:29:57 GMT-0500 (Central Daylight Time)","Thu Oct 29 2020 11:37:44 GMT-0500 (Central Daylight Time)","Mozilla/5.0 (X11; CrOS x86_64 13421.73.0) AppleWebKit/537.36 (KHTML, like Gecko) Chrome/86.0.4240.112 Safari/537.36",96,"[0.9, 0.5, 0.1]","[0.8, 0.4, 0.2]","[u'red', u'blue', u'black']","[u'left', u'middle', u'right']","[0.8, 0.4, 0.2]","[u'medium', u'low', u'high']","red",49,"left","medium","False","False",935,4350,NA
"A3UD7T1L80TCR3","Thu Oct 29 2020 11:29:57 GMT-0500 (Central Daylight Time)","Thu Oct 29 2020 11:37:44 GMT-0500 (Central Daylight Time)","Mozilla/5.0 (X11; CrOS x86_64 13421.73.0) AppleWebKit/537.36 (KHTML, like Gecko) Chrome/86.0.4240.112 Safari/537.36",97,"[0.9, 0.5, 0.1]","[0.8, 0.4, 0.2]","[u'red', u'blue', u'black']","[u'left', u'middle', u'right']","[0.8, 0.4, 0.2]","[u'medium', u'low', u'high']","blue",50,"middle","low","False","False",422,4300,NA
"A3UD7T1L80TCR3","Thu Oct 29 2020 11:29:57 GMT-0500 (Central Daylight Time)","Thu Oct 29 2020 11:37:44 GMT-0500 (Central Daylight Time)","Mozilla/5.0 (X11; CrOS x86_64 13421.73.0) AppleWebKit/537.36 (KHTML, like Gecko) Chrome/86.0.4240.112 Safari/537.36",98,"[0.9, 0.5, 0.1]","[0.8, 0.4, 0.2]","[u'red', u'blue', u'black']","[u'left', u'middle', u'right']","[0.8, 0.4, 0.2]","[u'medium', u'low', u'high']","black",51,"right","high","False","False",320,4250,NA
"A3UD7T1L80TCR3","Thu Oct 29 2020 11:29:57 GMT-0500 (Central Daylight Time)","Thu Oct 29 2020 11:37:44 GMT-0500 (Central Daylight Time)","Mozilla/5.0 (X11; CrOS x86_64 13421.73.0) AppleWebKit/537.36 (KHTML, like Gecko) Chrome/86.0.4240.112 Safari/537.36",99,"[0.9, 0.5, 0.1]","[0.8, 0.4, 0.2]","[u'red', u'blue', u'black']","[u'left', u'middle', u'right']","[0.8, 0.4, 0.2]","[u'medium', u'low', u'high']","blue",50,"middle","low","False","False",407,4200,NA
"A3UD7T1L80TCR3","Thu Oct 29 2020 11:29:57 GMT-0500 (Central Daylight Time)","Thu Oct 29 2020 11:37:44 GMT-0500 (Central Daylight Time)","Mozilla/5.0 (X11; CrOS x86_64 13421.73.0) AppleWebKit/537.36 (KHTML, like Gecko) Chrome/86.0.4240.112 Safari/537.36",100,"[0.9, 0.5, 0.1]","[0.8, 0.4, 0.2]","[u'red', u'blue', u'black']","[u'left', u'middle', u'right']","[0.8, 0.4, 0.2]","[u'medium', u'low', u'high']","red",49,"left","medium","True","False",314,4300,NA
"A3UD7T1L80TCR3","Thu Oct 29 2020 11:29:57 GMT-0500 (Central Daylight Time)","Thu Oct 29 2020 11:37:44 GMT-0500 (Central Daylight Time)","Mozilla/5.0 (X11; CrOS x86_64 13421.73.0) AppleWebKit/537.36 (KHTML, like Gecko) Chrome/86.0.4240.112 Safari/537.36",101,"[0.9, 0.5, 0.1]","[0.8, 0.4, 0.2]","[u'red', u'blue', u'black']","[u'left', u'middle', u'right']","[0.8, 0.4, 0.2]","[u'medium', u'low', u'high']","red",49,"left","medium","False","False",298,4250,NA
"A3UD7T1L80TCR3","Thu Oct 29 2020 11:29:57 GMT-0500 (Central Daylight Time)","Thu Oct 29 2020 11:37:44 GMT-0500 (Central Daylight Time)","Mozilla/5.0 (X11; CrOS x86_64 13421.73.0) AppleWebKit/537.36 (KHTML, like Gecko) Chrome/86.0.4240.112 Safari/537.36",102,"[0.9, 0.5, 0.1]","[0.8, 0.4, 0.2]","[u'red', u'blue', u'black']","[u'left', u'middle', u'right']","[0.8, 0.4, 0.2]","[u'medium', u'low', u'high']","black",51,"right","high","False","False",363,4200,NA
"A3UD7T1L80TCR3","Thu Oct 29 2020 11:29:57 GMT-0500 (Central Daylight Time)","Thu Oct 29 2020 11:37:44 GMT-0500 (Central Daylight Time)","Mozilla/5.0 (X11; CrOS x86_64 13421.73.0) AppleWebKit/537.36 (KHTML, like Gecko) Chrome/86.0.4240.112 Safari/537.36",103,"[0.9, 0.5, 0.1]","[0.8, 0.4, 0.2]","[u'red', u'blue', u'black']","[u'left', u'middle', u'right']","[0.8, 0.4, 0.2]","[u'medium', u'low', u'high']","blue",50,"middle","low","False","False",295,4150,NA
"A3UD7T1L80TCR3","Thu Oct 29 2020 11:29:57 GMT-0500 (Central Daylight Time)","Thu Oct 29 2020 11:37:44 GMT-0500 (Central Daylight Time)","Mozilla/5.0 (X11; CrOS x86_64 13421.73.0) AppleWebKit/537.36 (KHTML, like Gecko) Chrome/86.0.4240.112 Safari/537.36",104,"[0.9, 0.5, 0.1]","[0.8, 0.4, 0.2]","[u'red', u'blue', u'black']","[u'left', u'middle', u'right']","[0.8, 0.4, 0.2]","[u'medium', u'low', u'high']","red",49,"left","medium","True","False",228,4250,NA
"A3UD7T1L80TCR3","Thu Oct 29 2020 11:29:57 GMT-0500 (Central Daylight Time)","Thu Oct 29 2020 11:37:44 GMT-0500 (Central Daylight Time)","Mozilla/5.0 (X11; CrOS x86_64 13421.73.0) AppleWebKit/537.36 (KHTML, like Gecko) Chrome/86.0.4240.112 Safari/537.36",105,"[0.9, 0.5, 0.1]","[0.8, 0.4, 0.2]","[u'red', u'blue', u'black']","[u'left', u'middle', u'right']","[0.8, 0.4, 0.2]","[u'medium', u'low', u'high']","red",49,"left","medium","False","False",287,4200,NA
"A3UD7T1L80TCR3","Thu Oct 29 2020 11:29:57 GMT-0500 (Central Daylight Time)","Thu Oct 29 2020 11:37:44 GMT-0500 (Central Daylight Time)","Mozilla/5.0 (X11; CrOS x86_64 13421.73.0) AppleWebKit/537.36 (KHTML, like Gecko) Chrome/86.0.4240.112 Safari/537.36",106,"[0.9, 0.5, 0.1]","[0.8, 0.4, 0.2]","[u'red', u'blue', u'black']","[u'left', u'middle', u'right']","[0.8, 0.4, 0.2]","[u'medium', u'low', u'high']","blue",50,"middle","low","False","False",476,4150,NA
"A3UD7T1L80TCR3","Thu Oct 29 2020 11:29:57 GMT-0500 (Central Daylight Time)","Thu Oct 29 2020 11:37:44 GMT-0500 (Central Daylight Time)","Mozilla/5.0 (X11; CrOS x86_64 13421.73.0) AppleWebKit/537.36 (KHTML, like Gecko) Chrome/86.0.4240.112 Safari/537.36",107,"[0.9, 0.5, 0.1]","[0.8, 0.4, 0.2]","[u'red', u'blue', u'black']","[u'left', u'middle', u'right']","[0.8, 0.4, 0.2]","[u'medium', u'low', u'high']","black",51,"right","high","True","False",711,4250,NA
"A3UD7T1L80TCR3","Thu Oct 29 2020 11:29:57 GMT-0500 (Central Daylight Time)","Thu Oct 29 2020 11:37:44 GMT-0500 (Central Daylight Time)","Mozilla/5.0 (X11; CrOS x86_64 13421.73.0) AppleWebKit/537.36 (KHTML, like Gecko) Chrome/86.0.4240.112 Safari/537.36",108,"[0.9, 0.5, 0.1]","[0.8, 0.4, 0.2]","[u'red', u'blue', u'black']","[u'left', u'middle', u'right']","[0.8, 0.4, 0.2]","[u'medium', u'low', u'high']","black",51,"right","high","False","False",353,4200,NA
"A3UD7T1L80TCR3","Thu Oct 29 2020 11:29:57 GMT-0500 (Central Daylight Time)","Thu Oct 29 2020 11:37:44 GMT-0500 (Central Daylight Time)","Mozilla/5.0 (X11; CrOS x86_64 13421.73.0) AppleWebKit/537.36 (KHTML, like Gecko) Chrome/86.0.4240.112 Safari/537.36",109,"[0.9, 0.5, 0.1]","[0.8, 0.4, 0.2]","[u'red', u'blue', u'black']","[u'left', u'middle', u'right']","[0.8, 0.4, 0.2]","[u'medium', u'low', u'high']","red",49,"left","medium","True","False",243,4300,NA
"A3UD7T1L80TCR3","Thu Oct 29 2020 11:29:57 GMT-0500 (Central Daylight Time)","Thu Oct 29 2020 11:37:44 GMT-0500 (Central Daylight Time)","Mozilla/5.0 (X11; CrOS x86_64 13421.73.0) AppleWebKit/537.36 (KHTML, like Gecko) Chrome/86.0.4240.112 Safari/537.36",110,"[0.9, 0.5, 0.1]","[0.8, 0.4, 0.2]","[u'red', u'blue', u'black']","[u'left', u'middle', u'right']","[0.8, 0.4, 0.2]","[u'medium', u'low', u'high']","red",49,"left","medium","True","False",461,4400,NA
"A3UD7T1L80TCR3","Thu Oct 29 2020 11:29:57 GMT-0500 (Central Daylight Time)","Thu Oct 29 2020 11:37:44 GMT-0500 (Central Daylight Time)","Mozilla/5.0 (X11; CrOS x86_64 13421.73.0) AppleWebKit/537.36 (KHTML, like Gecko) Chrome/86.0.4240.112 Safari/537.36",111,"[0.9, 0.5, 0.1]","[0.8, 0.4, 0.2]","[u'red', u'blue', u'black']","[u'left', u'middle', u'right']","[0.8, 0.4, 0.2]","[u'medium', u'low', u'high']","red",49,"left","medium","True","False",356,4500,NA
"A3UD7T1L80TCR3","Thu Oct 29 2020 11:29:57 GMT-0500 (Central Daylight Time)","Thu Oct 29 2020 11:37:44 GMT-0500 (Central Daylight Time)","Mozilla/5.0 (X11; CrOS x86_64 13421.73.0) AppleWebKit/537.36 (KHTML, like Gecko) Chrome/86.0.4240.112 Safari/537.36",112,"[0.9, 0.5, 0.1]","[0.8, 0.4, 0.2]","[u'red', u'blue', u'black']","[u'left', u'middle', u'right']","[0.8, 0.4, 0.2]","[u'medium', u'low', u'high']","red",49,"left","medium","True","False",347,4600,NA
"A3UD7T1L80TCR3","Thu Oct 29 2020 11:29:57 GMT-0500 (Central Daylight Time)","Thu Oct 29 2020 11:37:44 GMT-0500 (Central Daylight Time)","Mozilla/5.0 (X11; CrOS x86_64 13421.73.0) AppleWebKit/537.36 (KHTML, like Gecko) Chrome/86.0.4240.112 Safari/537.36",113,"[0.9, 0.5, 0.1]","[0.8, 0.4, 0.2]","[u'red', u'blue', u'black']","[u'left', u'middle', u'right']","[0.8, 0.4, 0.2]","[u'medium', u'low', u'high']","red",49,"left","medium","True","False",472,4700,NA
"A3UD7T1L80TCR3","Thu Oct 29 2020 11:29:57 GMT-0500 (Central Daylight Time)","Thu Oct 29 2020 11:37:44 GMT-0500 (Central Daylight Time)","Mozilla/5.0 (X11; CrOS x86_64 13421.73.0) AppleWebKit/537.36 (KHTML, like Gecko) Chrome/86.0.4240.112 Safari/537.36",114,"[0.9, 0.5, 0.1]","[0.8, 0.4, 0.2]","[u'red', u'blue', u'black']","[u'left', u'middle', u'right']","[0.8, 0.4, 0.2]","[u'medium', u'low', u'high']","red",49,"left","medium","True","False",417,4800,NA
"A3UD7T1L80TCR3","Thu Oct 29 2020 11:29:57 GMT-0500 (Central Daylight Time)","Thu Oct 29 2020 11:37:44 GMT-0500 (Central Daylight Time)","Mozilla/5.0 (X11; CrOS x86_64 13421.73.0) AppleWebKit/537.36 (KHTML, like Gecko) Chrome/86.0.4240.112 Safari/537.36",115,"[0.9, 0.5, 0.1]","[0.8, 0.4, 0.2]","[u'red', u'blue', u'black']","[u'left', u'middle', u'right']","[0.8, 0.4, 0.2]","[u'medium', u'low', u'high']","red",49,"left","medium","True","False",300,4900,NA
"A3UD7T1L80TCR3","Thu Oct 29 2020 11:29:57 GMT-0500 (Central Daylight Time)","Thu Oct 29 2020 11:37:44 GMT-0500 (Central Daylight Time)","Mozilla/5.0 (X11; CrOS x86_64 13421.73.0) AppleWebKit/537.36 (KHTML, like Gecko) Chrome/86.0.4240.112 Safari/537.36",116,"[0.9, 0.5, 0.1]","[0.8, 0.4, 0.2]","[u'red', u'blue', u'black']","[u'left', u'middle', u'right']","[0.8, 0.4, 0.2]","[u'medium', u'low', u'high']","red",49,"left","medium","False","False",354,4850,NA
"A3UD7T1L80TCR3","Thu Oct 29 2020 11:29:57 GMT-0500 (Central Daylight Time)","Thu Oct 29 2020 11:37:44 GMT-0500 (Central Daylight Time)","Mozilla/5.0 (X11; CrOS x86_64 13421.73.0) AppleWebKit/537.36 (KHTML, like Gecko) Chrome/86.0.4240.112 Safari/537.36",117,"[0.9, 0.5, 0.1]","[0.8, 0.4, 0.2]","[u'red', u'blue', u'black']","[u'left', u'middle', u'right']","[0.8, 0.4, 0.2]","[u'medium', u'low', u'high']","black",51,"right","high","True","False",546,4950,NA
"A3UD7T1L80TCR3","Thu Oct 29 2020 11:29:57 GMT-0500 (Central Daylight Time)","Thu Oct 29 2020 11:37:44 GMT-0500 (Central Daylight Time)","Mozilla/5.0 (X11; CrOS x86_64 13421.73.0) AppleWebKit/537.36 (KHTML, like Gecko) Chrome/86.0.4240.112 Safari/537.36",118,"[0.9, 0.5, 0.1]","[0.8, 0.4, 0.2]","[u'red', u'blue', u'black']","[u'left', u'middle', u'right']","[0.8, 0.4, 0.2]","[u'medium', u'low', u'high']","black",51,"right","high","False","False",335,4900,NA
"A3UD7T1L80TCR3","Thu Oct 29 2020 11:29:57 GMT-0500 (Central Daylight Time)","Thu Oct 29 2020 11:37:44 GMT-0500 (Central Daylight Time)","Mozilla/5.0 (X11; CrOS x86_64 13421.73.0) AppleWebKit/537.36 (KHTML, like Gecko) Chrome/86.0.4240.112 Safari/537.36",119,"[0.9, 0.5, 0.1]","[0.8, 0.4, 0.2]","[u'red', u'blue', u'black']","[u'left', u'middle', u'right']","[0.8, 0.4, 0.2]","[u'medium', u'low', u'high']","blue",50,"middle","low","False","False",402,4850,NA
"A3UD7T1L80TCR3","Thu Oct 29 2020 11:29:57 GMT-0500 (Central Daylight Time)","Thu Oct 29 2020 11:37:44 GMT-0500 (Central Daylight Time)","Mozilla/5.0 (X11; CrOS x86_64 13421.73.0) AppleWebKit/537.36 (KHTML, like Gecko) Chrome/86.0.4240.112 Safari/537.36",120,"[0.9, 0.5, 0.1]","[0.8, 0.4, 0.2]","[u'red', u'blue', u'black']","[u'left', u'middle', u'right']","[0.8, 0.4, 0.2]","[u'medium', u'low', u'high']","red",49,"left","medium","True","False",277,4950,NA
"A3UD7T1L80TCR3","Thu Oct 29 2020 11:29:57 GMT-0500 (Central Daylight Time)","Thu Oct 29 2020 11:37:44 GMT-0500 (Central Daylight Time)","Mozilla/5.0 (X11; CrOS x86_64 13421.73.0) AppleWebKit/537.36 (KHTML, like Gecko) Chrome/86.0.4240.112 Safari/537.36",121,"[0.9, 0.5, 0.1]","[0.8, 0.4, 0.2]","[u'red', u'blue', u'black']","[u'left', u'middle', u'right']","[0.8, 0.4, 0.2]","[u'medium', u'high', u'low']","red",49,"left","medium","True","False",893,5050,NA
"A3UD7T1L80TCR3","Thu Oct 29 2020 11:29:57 GMT-0500 (Central Daylight Time)","Thu Oct 29 2020 11:37:44 GMT-0500 (Central Daylight Time)","Mozilla/5.0 (X11; CrOS x86_64 13421.73.0) AppleWebKit/537.36 (KHTML, like Gecko) Chrome/86.0.4240.112 Safari/537.36",122,"[0.9, 0.5, 0.1]","[0.8, 0.4, 0.2]","[u'red', u'blue', u'black']","[u'left', u'middle', u'right']","[0.8, 0.4, 0.2]","[u'medium', u'high', u'low']","red",49,"left","medium","False","False",335,5000,NA
"A3UD7T1L80TCR3","Thu Oct 29 2020 11:29:57 GMT-0500 (Central Daylight Time)","Thu Oct 29 2020 11:37:44 GMT-0500 (Central Daylight Time)","Mozilla/5.0 (X11; CrOS x86_64 13421.73.0) AppleWebKit/537.36 (KHTML, like Gecko) Chrome/86.0.4240.112 Safari/537.36",123,"[0.9, 0.5, 0.1]","[0.8, 0.4, 0.2]","[u'red', u'blue', u'black']","[u'left', u'middle', u'right']","[0.8, 0.4, 0.2]","[u'medium', u'high', u'low']","black",51,"right","low","False","False",826,4950,NA
"A3UD7T1L80TCR3","Thu Oct 29 2020 11:29:57 GMT-0500 (Central Daylight Time)","Thu Oct 29 2020 11:37:44 GMT-0500 (Central Daylight Time)","Mozilla/5.0 (X11; CrOS x86_64 13421.73.0) AppleWebKit/537.36 (KHTML, like Gecko) Chrome/86.0.4240.112 Safari/537.36",124,"[0.9, 0.5, 0.1]","[0.8, 0.4, 0.2]","[u'red', u'blue', u'black']","[u'left', u'middle', u'right']","[0.8, 0.4, 0.2]","[u'medium', u'high', u'low']","blue",50,"middle","high","True","False",664,5050,NA
"A3UD7T1L80TCR3","Thu Oct 29 2020 11:29:57 GMT-0500 (Central Daylight Time)","Thu Oct 29 2020 11:37:44 GMT-0500 (Central Daylight Time)","Mozilla/5.0 (X11; CrOS x86_64 13421.73.0) AppleWebKit/537.36 (KHTML, like Gecko) Chrome/86.0.4240.112 Safari/537.36",125,"[0.9, 0.5, 0.1]","[0.8, 0.4, 0.2]","[u'red', u'blue', u'black']","[u'left', u'middle', u'right']","[0.8, 0.4, 0.2]","[u'medium', u'high', u'low']","blue",50,"middle","high","False","False",389,5000,NA
"A3UD7T1L80TCR3","Thu Oct 29 2020 11:29:57 GMT-0500 (Central Daylight Time)","Thu Oct 29 2020 11:37:44 GMT-0500 (Central Daylight Time)","Mozilla/5.0 (X11; CrOS x86_64 13421.73.0) AppleWebKit/537.36 (KHTML, like Gecko) Chrome/86.0.4240.112 Safari/537.36",126,"[0.9, 0.5, 0.1]","[0.8, 0.4, 0.2]","[u'red', u'blue', u'black']","[u'left', u'middle', u'right']","[0.8, 0.4, 0.2]","[u'medium', u'high', u'low']","red",49,"left","medium","False","False",378,4950,NA
"A3UD7T1L80TCR3","Thu Oct 29 2020 11:29:57 GMT-0500 (Central Daylight Time)","Thu Oct 29 2020 11:37:44 GMT-0500 (Central Daylight Time)","Mozilla/5.0 (X11; CrOS x86_64 13421.73.0) AppleWebKit/537.36 (KHTML, like Gecko) Chrome/86.0.4240.112 Safari/537.36",127,"[0.9, 0.5, 0.1]","[0.8, 0.4, 0.2]","[u'red', u'blue', u'black']","[u'left', u'middle', u'right']","[0.8, 0.4, 0.2]","[u'medium', u'high', u'low']","black",51,"right","low","False","False",472,4900,NA
"A3UD7T1L80TCR3","Thu Oct 29 2020 11:29:57 GMT-0500 (Central Daylight Time)","Thu Oct 29 2020 11:37:44 GMT-0500 (Central Daylight Time)","Mozilla/5.0 (X11; CrOS x86_64 13421.73.0) AppleWebKit/537.36 (KHTML, like Gecko) Chrome/86.0.4240.112 Safari/537.36",128,"[0.9, 0.5, 0.1]","[0.8, 0.4, 0.2]","[u'red', u'blue', u'black']","[u'left', u'middle', u'right']","[0.8, 0.4, 0.2]","[u'medium', u'high', u'low']","blue",50,"middle","high","True","False",363,5000,NA
"A3UD7T1L80TCR3","Thu Oct 29 2020 11:29:57 GMT-0500 (Central Daylight Time)","Thu Oct 29 2020 11:37:44 GMT-0500 (Central Daylight Time)","Mozilla/5.0 (X11; CrOS x86_64 13421.73.0) AppleWebKit/537.36 (KHTML, like Gecko) Chrome/86.0.4240.112 Safari/537.36",129,"[0.9, 0.5, 0.1]","[0.8, 0.4, 0.2]","[u'red', u'blue', u'black']","[u'left', u'middle', u'right']","[0.8, 0.4, 0.2]","[u'medium', u'high', u'low']","blue",50,"middle","high","True","False",372,5100,NA
"A3UD7T1L80TCR3","Thu Oct 29 2020 11:29:57 GMT-0500 (Central Daylight Time)","Thu Oct 29 2020 11:37:44 GMT-0500 (Central Daylight Time)","Mozilla/5.0 (X11; CrOS x86_64 13421.73.0) AppleWebKit/537.36 (KHTML, like Gecko) Chrome/86.0.4240.112 Safari/537.36",130,"[0.9, 0.5, 0.1]","[0.8, 0.4, 0.2]","[u'red', u'blue', u'black']","[u'left', u'middle', u'right']","[0.8, 0.4, 0.2]","[u'medium', u'high', u'low']","blue",50,"middle","high","False","False",435,5050,NA
"A3UD7T1L80TCR3","Thu Oct 29 2020 11:29:57 GMT-0500 (Central Daylight Time)","Thu Oct 29 2020 11:37:44 GMT-0500 (Central Daylight Time)","Mozilla/5.0 (X11; CrOS x86_64 13421.73.0) AppleWebKit/537.36 (KHTML, like Gecko) Chrome/86.0.4240.112 Safari/537.36",131,"[0.9, 0.5, 0.1]","[0.8, 0.4, 0.2]","[u'red', u'blue', u'black']","[u'left', u'middle', u'right']","[0.8, 0.4, 0.2]","[u'medium', u'high', u'low']","red",49,"left","medium","False","False",250,5000,NA
"A3UD7T1L80TCR3","Thu Oct 29 2020 11:29:57 GMT-0500 (Central Daylight Time)","Thu Oct 29 2020 11:37:44 GMT-0500 (Central Daylight Time)","Mozilla/5.0 (X11; CrOS x86_64 13421.73.0) AppleWebKit/537.36 (KHTML, like Gecko) Chrome/86.0.4240.112 Safari/537.36",132,"[0.9, 0.5, 0.1]","[0.8, 0.4, 0.2]","[u'red', u'blue', u'black']","[u'left', u'middle', u'right']","[0.8, 0.4, 0.2]","[u'medium', u'high', u'low']","black",51,"right","low","False","False",774,4950,NA
"A3UD7T1L80TCR3","Thu Oct 29 2020 11:29:57 GMT-0500 (Central Daylight Time)","Thu Oct 29 2020 11:37:44 GMT-0500 (Central Daylight Time)","Mozilla/5.0 (X11; CrOS x86_64 13421.73.0) AppleWebKit/537.36 (KHTML, like Gecko) Chrome/86.0.4240.112 Safari/537.36",133,"[0.9, 0.5, 0.1]","[0.8, 0.4, 0.2]","[u'red', u'blue', u'black']","[u'left', u'middle', u'right']","[0.8, 0.4, 0.2]","[u'medium', u'high', u'low']","blue",50,"middle","high","True","False",302,5050,NA
"A3UD7T1L80TCR3","Thu Oct 29 2020 11:29:57 GMT-0500 (Central Daylight Time)","Thu Oct 29 2020 11:37:44 GMT-0500 (Central Daylight Time)","Mozilla/5.0 (X11; CrOS x86_64 13421.73.0) AppleWebKit/537.36 (KHTML, like Gecko) Chrome/86.0.4240.112 Safari/537.36",134,"[0.9, 0.5, 0.1]","[0.8, 0.4, 0.2]","[u'red', u'blue', u'black']","[u'left', u'middle', u'right']","[0.8, 0.4, 0.2]","[u'medium', u'high', u'low']","blue",50,"middle","high","True","False",405,5150,NA
"A3UD7T1L80TCR3","Thu Oct 29 2020 11:29:57 GMT-0500 (Central Daylight Time)","Thu Oct 29 2020 11:37:44 GMT-0500 (Central Daylight Time)","Mozilla/5.0 (X11; CrOS x86_64 13421.73.0) AppleWebKit/537.36 (KHTML, like Gecko) Chrome/86.0.4240.112 Safari/537.36",135,"[0.9, 0.5, 0.1]","[0.8, 0.4, 0.2]","[u'red', u'blue', u'black']","[u'left', u'middle', u'right']","[0.8, 0.4, 0.2]","[u'medium', u'high', u'low']","blue",50,"middle","high","False","False",377,5100,NA
"A3UD7T1L80TCR3","Thu Oct 29 2020 11:29:57 GMT-0500 (Central Daylight Time)","Thu Oct 29 2020 11:37:44 GMT-0500 (Central Daylight Time)","Mozilla/5.0 (X11; CrOS x86_64 13421.73.0) AppleWebKit/537.36 (KHTML, like Gecko) Chrome/86.0.4240.112 Safari/537.36",136,"[0.9, 0.5, 0.1]","[0.8, 0.4, 0.2]","[u'red', u'blue', u'black']","[u'left', u'middle', u'right']","[0.8, 0.4, 0.2]","[u'medium', u'high', u'low']","red",49,"left","medium","False","False",374,5050,NA
"A3UD7T1L80TCR3","Thu Oct 29 2020 11:29:57 GMT-0500 (Central Daylight Time)","Thu Oct 29 2020 11:37:44 GMT-0500 (Central Daylight Time)","Mozilla/5.0 (X11; CrOS x86_64 13421.73.0) AppleWebKit/537.36 (KHTML, like Gecko) Chrome/86.0.4240.112 Safari/537.36",137,"[0.9, 0.5, 0.1]","[0.8, 0.4, 0.2]","[u'red', u'blue', u'black']","[u'left', u'middle', u'right']","[0.8, 0.4, 0.2]","[u'medium', u'high', u'low']","red",49,"left","medium","False","False",683,5000,NA
"A3UD7T1L80TCR3","Thu Oct 29 2020 11:29:57 GMT-0500 (Central Daylight Time)","Thu Oct 29 2020 11:37:44 GMT-0500 (Central Daylight Time)","Mozilla/5.0 (X11; CrOS x86_64 13421.73.0) AppleWebKit/537.36 (KHTML, like Gecko) Chrome/86.0.4240.112 Safari/537.36",138,"[0.9, 0.5, 0.1]","[0.8, 0.4, 0.2]","[u'red', u'blue', u'black']","[u'left', u'middle', u'right']","[0.8, 0.4, 0.2]","[u'medium', u'high', u'low']","black",51,"right","low","False","False",363,4950,NA
"A3UD7T1L80TCR3","Thu Oct 29 2020 11:29:57 GMT-0500 (Central Daylight Time)","Thu Oct 29 2020 11:37:44 GMT-0500 (Central Daylight Time)","Mozilla/5.0 (X11; CrOS x86_64 13421.73.0) AppleWebKit/537.36 (KHTML, like Gecko) Chrome/86.0.4240.112 Safari/537.36",139,"[0.9, 0.5, 0.1]","[0.8, 0.4, 0.2]","[u'red', u'blue', u'black']","[u'left', u'middle', u'right']","[0.8, 0.4, 0.2]","[u'medium', u'high', u'low']","blue",50,"middle","high","False","False",247,4900,NA
"A3UD7T1L80TCR3","Thu Oct 29 2020 11:29:57 GMT-0500 (Central Daylight Time)","Thu Oct 29 2020 11:37:44 GMT-0500 (Central Daylight Time)","Mozilla/5.0 (X11; CrOS x86_64 13421.73.0) AppleWebKit/537.36 (KHTML, like Gecko) Chrome/86.0.4240.112 Safari/537.36",140,"[0.9, 0.5, 0.1]","[0.8, 0.4, 0.2]","[u'red', u'blue', u'black']","[u'left', u'middle', u'right']","[0.8, 0.4, 0.2]","[u'medium', u'high', u'low']","red",49,"left","medium","False","False",347,4850,NA
"A3UD7T1L80TCR3","Thu Oct 29 2020 11:29:57 GMT-0500 (Central Daylight Time)","Thu Oct 29 2020 11:37:44 GMT-0500 (Central Daylight Time)","Mozilla/5.0 (X11; CrOS x86_64 13421.73.0) AppleWebKit/537.36 (KHTML, like Gecko) Chrome/86.0.4240.112 Safari/537.36",141,"[0.9, 0.5, 0.1]","[0.8, 0.4, 0.2]","[u'red', u'blue', u'black']","[u'left', u'middle', u'right']","[0.8, 0.4, 0.2]","[u'medium', u'high', u'low']","blue",50,"middle","high","True","False",310,4950,NA
"A3UD7T1L80TCR3","Thu Oct 29 2020 11:29:57 GMT-0500 (Central Daylight Time)","Thu Oct 29 2020 11:37:44 GMT-0500 (Central Daylight Time)","Mozilla/5.0 (X11; CrOS x86_64 13421.73.0) AppleWebKit/537.36 (KHTML, like Gecko) Chrome/86.0.4240.112 Safari/537.36",142,"[0.9, 0.5, 0.1]","[0.8, 0.4, 0.2]","[u'red', u'blue', u'black']","[u'left', u'middle', u'right']","[0.8, 0.4, 0.2]","[u'medium', u'high', u'low']","blue",50,"middle","high","False","False",323,4900,NA
"A3UD7T1L80TCR3","Thu Oct 29 2020 11:29:57 GMT-0500 (Central Daylight Time)","Thu Oct 29 2020 11:37:44 GMT-0500 (Central Daylight Time)","Mozilla/5.0 (X11; CrOS x86_64 13421.73.0) AppleWebKit/537.36 (KHTML, like Gecko) Chrome/86.0.4240.112 Safari/537.36",143,"[0.9, 0.5, 0.1]","[0.8, 0.4, 0.2]","[u'red', u'blue', u'black']","[u'left', u'middle', u'right']","[0.8, 0.4, 0.2]","[u'medium', u'high', u'low']","red",49,"left","medium","True","False",269,5000,NA
"A3UD7T1L80TCR3","Thu Oct 29 2020 11:29:57 GMT-0500 (Central Daylight Time)","Thu Oct 29 2020 11:37:44 GMT-0500 (Central Daylight Time)","Mozilla/5.0 (X11; CrOS x86_64 13421.73.0) AppleWebKit/537.36 (KHTML, like Gecko) Chrome/86.0.4240.112 Safari/537.36",144,"[0.9, 0.5, 0.1]","[0.8, 0.4, 0.2]","[u'red', u'blue', u'black']","[u'left', u'middle', u'right']","[0.8, 0.4, 0.2]","[u'medium', u'high', u'low']","red",49,"left","medium","False","False",354,4950,NA
"A3UD7T1L80TCR3","Thu Oct 29 2020 11:29:57 GMT-0500 (Central Daylight Time)","Thu Oct 29 2020 11:37:44 GMT-0500 (Central Daylight Time)","Mozilla/5.0 (X11; CrOS x86_64 13421.73.0) AppleWebKit/537.36 (KHTML, like Gecko) Chrome/86.0.4240.112 Safari/537.36",145,"[0.9, 0.5, 0.1]","[0.8, 0.4, 0.2]","[u'red', u'blue', u'black']","[u'left', u'middle', u'right']","[0.8, 0.4, 0.2]","[u'medium', u'high', u'low']","blue",50,"middle","high","False","False",609,4900,NA
"A3UD7T1L80TCR3","Thu Oct 29 2020 11:29:57 GMT-0500 (Central Daylight Time)","Thu Oct 29 2020 11:37:44 GMT-0500 (Central Daylight Time)","Mozilla/5.0 (X11; CrOS x86_64 13421.73.0) AppleWebKit/537.36 (KHTML, like Gecko) Chrome/86.0.4240.112 Safari/537.36",146,"[0.9, 0.5, 0.1]","[0.8, 0.4, 0.2]","[u'red', u'blue', u'black']","[u'left', u'middle', u'right']","[0.8, 0.4, 0.2]","[u'medium', u'high', u'low']","black",51,"right","low","False","False",608,4850,NA
"A3UD7T1L80TCR3","Thu Oct 29 2020 11:29:57 GMT-0500 (Central Daylight Time)","Thu Oct 29 2020 11:37:44 GMT-0500 (Central Daylight Time)","Mozilla/5.0 (X11; CrOS x86_64 13421.73.0) AppleWebKit/537.36 (KHTML, like Gecko) Chrome/86.0.4240.112 Safari/537.36",147,"[0.9, 0.5, 0.1]","[0.8, 0.4, 0.2]","[u'red', u'blue', u'black']","[u'left', u'middle', u'right']","[0.8, 0.4, 0.2]","[u'medium', u'high', u'low']","black",51,"right","low","False","False",312,4800,NA
"A3UD7T1L80TCR3","Thu Oct 29 2020 11:29:57 GMT-0500 (Central Daylight Time)","Thu Oct 29 2020 11:37:44 GMT-0500 (Central Daylight Time)","Mozilla/5.0 (X11; CrOS x86_64 13421.73.0) AppleWebKit/537.36 (KHTML, like Gecko) Chrome/86.0.4240.112 Safari/537.36",148,"[0.9, 0.5, 0.1]","[0.8, 0.4, 0.2]","[u'red', u'blue', u'black']","[u'left', u'middle', u'right']","[0.8, 0.4, 0.2]","[u'medium', u'high', u'low']","blue",50,"middle","high","True","False",420,4900,NA
"A3UD7T1L80TCR3","Thu Oct 29 2020 11:29:57 GMT-0500 (Central Daylight Time)","Thu Oct 29 2020 11:37:44 GMT-0500 (Central Daylight Time)","Mozilla/5.0 (X11; CrOS x86_64 13421.73.0) AppleWebKit/537.36 (KHTML, like Gecko) Chrome/86.0.4240.112 Safari/537.36",149,"[0.9, 0.5, 0.1]","[0.8, 0.4, 0.2]","[u'red', u'blue', u'black']","[u'left', u'middle', u'right']","[0.8, 0.4, 0.2]","[u'medium', u'high', u'low']","blue",50,"middle","high","True","False",312,5000,NA
"A3UD7T1L80TCR3","Thu Oct 29 2020 11:29:57 GMT-0500 (Central Daylight Time)","Thu Oct 29 2020 11:37:44 GMT-0500 (Central Daylight Time)","Mozilla/5.0 (X11; CrOS x86_64 13421.73.0) AppleWebKit/537.36 (KHTML, like Gecko) Chrome/86.0.4240.112 Safari/537.36",150,"[0.9, 0.5, 0.1]","[0.8, 0.4, 0.2]","[u'red', u'blue', u'black']","[u'left', u'middle', u'right']","[0.8, 0.4, 0.2]","[u'medium', u'high', u'low']","blue",50,"middle","high","True","False",356,5100,NA
"A3UD7T1L80TCR3","Thu Oct 29 2020 11:29:57 GMT-0500 (Central Daylight Time)","Thu Oct 29 2020 11:37:44 GMT-0500 (Central Daylight Time)","Mozilla/5.0 (X11; CrOS x86_64 13421.73.0) AppleWebKit/537.36 (KHTML, like Gecko) Chrome/86.0.4240.112 Safari/537.36",151,"[0.9, 0.5, 0.1]","[0.8, 0.4, 0.2]","[u'red', u'blue', u'black']","[u'left', u'middle', u'right']","[0.8, 0.4, 0.2]","[u'medium', u'high', u'low']","blue",50,"middle","high","True","False",328,5200,NA
"A3UD7T1L80TCR3","Thu Oct 29 2020 11:29:57 GMT-0500 (Central Daylight Time)","Thu Oct 29 2020 11:37:44 GMT-0500 (Central Daylight Time)","Mozilla/5.0 (X11; CrOS x86_64 13421.73.0) AppleWebKit/537.36 (KHTML, like Gecko) Chrome/86.0.4240.112 Safari/537.36",152,"[0.9, 0.5, 0.1]","[0.8, 0.4, 0.2]","[u'red', u'blue', u'black']","[u'left', u'middle', u'right']","[0.8, 0.4, 0.2]","[u'medium', u'high', u'low']","blue",50,"middle","high","True","False",349,5300,NA
"A3UD7T1L80TCR3","Thu Oct 29 2020 11:29:57 GMT-0500 (Central Daylight Time)","Thu Oct 29 2020 11:37:44 GMT-0500 (Central Daylight Time)","Mozilla/5.0 (X11; CrOS x86_64 13421.73.0) AppleWebKit/537.36 (KHTML, like Gecko) Chrome/86.0.4240.112 Safari/537.36",153,"[0.9, 0.5, 0.1]","[0.8, 0.4, 0.2]","[u'red', u'blue', u'black']","[u'left', u'middle', u'right']","[0.8, 0.4, 0.2]","[u'medium', u'high', u'low']","blue",50,"middle","high","True","False",394,5400,NA
"A3UD7T1L80TCR3","Thu Oct 29 2020 11:29:57 GMT-0500 (Central Daylight Time)","Thu Oct 29 2020 11:37:44 GMT-0500 (Central Daylight Time)","Mozilla/5.0 (X11; CrOS x86_64 13421.73.0) AppleWebKit/537.36 (KHTML, like Gecko) Chrome/86.0.4240.112 Safari/537.36",154,"[0.9, 0.5, 0.1]","[0.8, 0.4, 0.2]","[u'red', u'blue', u'black']","[u'left', u'middle', u'right']","[0.8, 0.4, 0.2]","[u'medium', u'high', u'low']","blue",50,"middle","high","True","False",447,5500,NA
"A3UD7T1L80TCR3","Thu Oct 29 2020 11:29:57 GMT-0500 (Central Daylight Time)","Thu Oct 29 2020 11:37:44 GMT-0500 (Central Daylight Time)","Mozilla/5.0 (X11; CrOS x86_64 13421.73.0) AppleWebKit/537.36 (KHTML, like Gecko) Chrome/86.0.4240.112 Safari/537.36",155,"[0.9, 0.5, 0.1]","[0.8, 0.4, 0.2]","[u'red', u'blue', u'black']","[u'left', u'middle', u'right']","[0.8, 0.4, 0.2]","[u'medium', u'high', u'low']","blue",50,"middle","high","True","False",435,5600,NA
"A3UD7T1L80TCR3","Thu Oct 29 2020 11:29:57 GMT-0500 (Central Daylight Time)","Thu Oct 29 2020 11:37:44 GMT-0500 (Central Daylight Time)","Mozilla/5.0 (X11; CrOS x86_64 13421.73.0) AppleWebKit/537.36 (KHTML, like Gecko) Chrome/86.0.4240.112 Safari/537.36",156,"[0.9, 0.5, 0.1]","[0.8, 0.4, 0.2]","[u'red', u'blue', u'black']","[u'left', u'middle', u'right']","[0.8, 0.4, 0.2]","[u'medium', u'high', u'low']","blue",50,"middle","high","True","True",372,5700,NA
"A3UD7T1L80TCR3","Thu Oct 29 2020 11:29:57 GMT-0500 (Central Daylight Time)","Thu Oct 29 2020 11:37:44 GMT-0500 (Central Daylight Time)","Mozilla/5.0 (X11; CrOS x86_64 13421.73.0) AppleWebKit/537.36 (KHTML, like Gecko) Chrome/86.0.4240.112 Safari/537.36",157,"[0.9, 0.5, 0.1]","[0.8, 0.4, 0.2]","[u'red', u'blue', u'black']","[u'left', u'middle', u'right']","[0.8, 0.4, 0.2]","[u'medium', u'low', u'high']","blue",50,"middle","low","False","False",319,5650,NA
"A3UD7T1L80TCR3","Thu Oct 29 2020 11:29:57 GMT-0500 (Central Daylight Time)","Thu Oct 29 2020 11:37:44 GMT-0500 (Central Daylight Time)","Mozilla/5.0 (X11; CrOS x86_64 13421.73.0) AppleWebKit/537.36 (KHTML, like Gecko) Chrome/86.0.4240.112 Safari/537.36",158,"[0.9, 0.5, 0.1]","[0.8, 0.4, 0.2]","[u'red', u'blue', u'black']","[u'left', u'middle', u'right']","[0.8, 0.4, 0.2]","[u'medium', u'low', u'high']","red",49,"left","medium","False","False",271,5600,NA
"A3UD7T1L80TCR3","Thu Oct 29 2020 11:29:57 GMT-0500 (Central Daylight Time)","Thu Oct 29 2020 11:37:44 GMT-0500 (Central Daylight Time)","Mozilla/5.0 (X11; CrOS x86_64 13421.73.0) AppleWebKit/537.36 (KHTML, like Gecko) Chrome/86.0.4240.112 Safari/537.36",159,"[0.9, 0.5, 0.1]","[0.8, 0.4, 0.2]","[u'red', u'blue', u'black']","[u'left', u'middle', u'right']","[0.8, 0.4, 0.2]","[u'medium', u'low', u'high']","black",51,"right","high","False","False",378,5550,NA
"A3UD7T1L80TCR3","Thu Oct 29 2020 11:29:57 GMT-0500 (Central Daylight Time)","Thu Oct 29 2020 11:37:44 GMT-0500 (Central Daylight Time)","Mozilla/5.0 (X11; CrOS x86_64 13421.73.0) AppleWebKit/537.36 (KHTML, like Gecko) Chrome/86.0.4240.112 Safari/537.36",160,"[0.9, 0.5, 0.1]","[0.8, 0.4, 0.2]","[u'red', u'blue', u'black']","[u'left', u'middle', u'right']","[0.8, 0.4, 0.2]","[u'medium', u'low', u'high']","blue",50,"middle","low","True","False",396,5650,NA
