"src_subject_id","start_time","end_time","browser","index","first_half_probabilities","second_half_probabilities","deck_color","deck_position","deck_probabilities","deck_contingencies","response_color","key_press","response_position","response_probability","reward_type","trial_type","rt","reward_tally","exclusion_reason"
"A3FBC5W56LKQXL","Thu Oct 29 2020 15:46:00 GMT-0400 (Eastern Daylight Time)","Thu Oct 29 2020 15:53:21 GMT-0400 (Eastern Daylight Time)","Mozilla/5.0 (Windows NT 6.1; Win64; x64) AppleWebKit/537.36 (KHTML, like Gecko) Chrome/86.0.4240.111 Safari/537.36",1,"[0.9, 0.5, 0.1]","[0.8, 0.4, 0.2]","[u'black', u'red', u'blue']","[u'left', u'middle', u'right']","[0.9, 0.5, 0.1]","[u'low', u'high', u'medium']","black",49,"left","low","False","False",677,-50,NA
"A3FBC5W56LKQXL","Thu Oct 29 2020 15:46:00 GMT-0400 (Eastern Daylight Time)","Thu Oct 29 2020 15:53:21 GMT-0400 (Eastern Daylight Time)","Mozilla/5.0 (Windows NT 6.1; Win64; x64) AppleWebKit/537.36 (KHTML, like Gecko) Chrome/86.0.4240.111 Safari/537.36",2,"[0.9, 0.5, 0.1]","[0.8, 0.4, 0.2]","[u'black', u'red', u'blue']","[u'left', u'middle', u'right']","[0.9, 0.5, 0.1]","[u'low', u'high', u'medium']","blue",51,"right","medium","False","False",432,-100,NA
"A3FBC5W56LKQXL","Thu Oct 29 2020 15:46:00 GMT-0400 (Eastern Daylight Time)","Thu Oct 29 2020 15:53:21 GMT-0400 (Eastern Daylight Time)","Mozilla/5.0 (Windows NT 6.1; Win64; x64) AppleWebKit/537.36 (KHTML, like Gecko) Chrome/86.0.4240.111 Safari/537.36",3,"[0.9, 0.5, 0.1]","[0.8, 0.4, 0.2]","[u'black', u'red', u'blue']","[u'left', u'middle', u'right']","[0.9, 0.5, 0.1]","[u'low', u'high', u'medium']","red",50,"middle","high","True","False",421,0,NA
"A3FBC5W56LKQXL","Thu Oct 29 2020 15:46:00 GMT-0400 (Eastern Daylight Time)","Thu Oct 29 2020 15:53:21 GMT-0400 (Eastern Daylight Time)","Mozilla/5.0 (Windows NT 6.1; Win64; x64) AppleWebKit/537.36 (KHTML, like Gecko) Chrome/86.0.4240.111 Safari/537.36",4,"[0.9, 0.5, 0.1]","[0.8, 0.4, 0.2]","[u'black', u'red', u'blue']","[u'left', u'middle', u'right']","[0.9, 0.5, 0.1]","[u'low', u'high', u'medium']","red",50,"middle","high","True","False",420,100,NA
"A3FBC5W56LKQXL","Thu Oct 29 2020 15:46:00 GMT-0400 (Eastern Daylight Time)","Thu Oct 29 2020 15:53:21 GMT-0400 (Eastern Daylight Time)","Mozilla/5.0 (Windows NT 6.1; Win64; x64) AppleWebKit/537.36 (KHTML, like Gecko) Chrome/86.0.4240.111 Safari/537.36",5,"[0.9, 0.5, 0.1]","[0.8, 0.4, 0.2]","[u'black', u'red', u'blue']","[u'left', u'middle', u'right']","[0.9, 0.5, 0.1]","[u'low', u'high', u'medium']","red",50,"middle","high","True","False",609,200,NA
"A3FBC5W56LKQXL","Thu Oct 29 2020 15:46:00 GMT-0400 (Eastern Daylight Time)","Thu Oct 29 2020 15:53:21 GMT-0400 (Eastern Daylight Time)","Mozilla/5.0 (Windows NT 6.1; Win64; x64) AppleWebKit/537.36 (KHTML, like Gecko) Chrome/86.0.4240.111 Safari/537.36",6,"[0.9, 0.5, 0.1]","[0.8, 0.4, 0.2]","[u'black', u'red', u'blue']","[u'left', u'middle', u'right']","[0.9, 0.5, 0.1]","[u'low', u'high', u'medium']","red",50,"middle","high","True","False",447,300,NA
"A3FBC5W56LKQXL","Thu Oct 29 2020 15:46:00 GMT-0400 (Eastern Daylight Time)","Thu Oct 29 2020 15:53:21 GMT-0400 (Eastern Daylight Time)","Mozilla/5.0 (Windows NT 6.1; Win64; x64) AppleWebKit/537.36 (KHTML, like Gecko) Chrome/86.0.4240.111 Safari/537.36",7,"[0.9, 0.5, 0.1]","[0.8, 0.4, 0.2]","[u'black', u'red', u'blue']","[u'left', u'middle', u'right']","[0.9, 0.5, 0.1]","[u'low', u'high', u'medium']","red",50,"middle","high","True","False",441,400,NA
"A3FBC5W56LKQXL","Thu Oct 29 2020 15:46:00 GMT-0400 (Eastern Daylight Time)","Thu Oct 29 2020 15:53:21 GMT-0400 (Eastern Daylight Time)","Mozilla/5.0 (Windows NT 6.1; Win64; x64) AppleWebKit/537.36 (KHTML, like Gecko) Chrome/86.0.4240.111 Safari/537.36",8,"[0.9, 0.5, 0.1]","[0.8, 0.4, 0.2]","[u'black', u'red', u'blue']","[u'left', u'middle', u'right']","[0.9, 0.5, 0.1]","[u'low', u'high', u'medium']","red",50,"middle","high","True","False",451,500,NA
"A3FBC5W56LKQXL","Thu Oct 29 2020 15:46:00 GMT-0400 (Eastern Daylight Time)","Thu Oct 29 2020 15:53:21 GMT-0400 (Eastern Daylight Time)","Mozilla/5.0 (Windows NT 6.1; Win64; x64) AppleWebKit/537.36 (KHTML, like Gecko) Chrome/86.0.4240.111 Safari/537.36",9,"[0.9, 0.5, 0.1]","[0.8, 0.4, 0.2]","[u'black', u'red', u'blue']","[u'left', u'middle', u'right']","[0.9, 0.5, 0.1]","[u'low', u'high', u'medium']","red",50,"middle","high","True","False",400,600,NA
"A3FBC5W56LKQXL","Thu Oct 29 2020 15:46:00 GMT-0400 (Eastern Daylight Time)","Thu Oct 29 2020 15:53:21 GMT-0400 (Eastern Daylight Time)","Mozilla/5.0 (Windows NT 6.1; Win64; x64) AppleWebKit/537.36 (KHTML, like Gecko) Chrome/86.0.4240.111 Safari/537.36",10,"[0.9, 0.5, 0.1]","[0.8, 0.4, 0.2]","[u'black', u'red', u'blue']","[u'left', u'middle', u'right']","[0.9, 0.5, 0.1]","[u'low', u'high', u'medium']","red",50,"middle","high","True","False",442,700,NA
"A3FBC5W56LKQXL","Thu Oct 29 2020 15:46:00 GMT-0400 (Eastern Daylight Time)","Thu Oct 29 2020 15:53:21 GMT-0400 (Eastern Daylight Time)","Mozilla/5.0 (Windows NT 6.1; Win64; x64) AppleWebKit/537.36 (KHTML, like Gecko) Chrome/86.0.4240.111 Safari/537.36",11,"[0.9, 0.5, 0.1]","[0.8, 0.4, 0.2]","[u'black', u'red', u'blue']","[u'left', u'middle', u'right']","[0.9, 0.5, 0.1]","[u'low', u'high', u'medium']","red",50,"middle","high","True","True",362,800,NA
"A3FBC5W56LKQXL","Thu Oct 29 2020 15:46:00 GMT-0400 (Eastern Daylight Time)","Thu Oct 29 2020 15:53:21 GMT-0400 (Eastern Daylight Time)","Mozilla/5.0 (Windows NT 6.1; Win64; x64) AppleWebKit/537.36 (KHTML, like Gecko) Chrome/86.0.4240.111 Safari/537.36",12,"[0.9, 0.5, 0.1]","[0.8, 0.4, 0.2]","[u'black', u'red', u'blue']","[u'left', u'middle', u'right']","[0.9, 0.5, 0.1]","[u'high', u'medium', u'low']","red",50,"middle","medium","False","False",344,750,NA
"A3FBC5W56LKQXL","Thu Oct 29 2020 15:46:00 GMT-0400 (Eastern Daylight Time)","Thu Oct 29 2020 15:53:21 GMT-0400 (Eastern Daylight Time)","Mozilla/5.0 (Windows NT 6.1; Win64; x64) AppleWebKit/537.36 (KHTML, like Gecko) Chrome/86.0.4240.111 Safari/537.36",13,"[0.9, 0.5, 0.1]","[0.8, 0.4, 0.2]","[u'black', u'red', u'blue']","[u'left', u'middle', u'right']","[0.9, 0.5, 0.1]","[u'high', u'medium', u'low']","black",49,"left","high","True","False",374,850,NA
"A3FBC5W56LKQXL","Thu Oct 29 2020 15:46:00 GMT-0400 (Eastern Daylight Time)","Thu Oct 29 2020 15:53:21 GMT-0400 (Eastern Daylight Time)","Mozilla/5.0 (Windows NT 6.1; Win64; x64) AppleWebKit/537.36 (KHTML, like Gecko) Chrome/86.0.4240.111 Safari/537.36",14,"[0.9, 0.5, 0.1]","[0.8, 0.4, 0.2]","[u'black', u'red', u'blue']","[u'left', u'middle', u'right']","[0.9, 0.5, 0.1]","[u'high', u'medium', u'low']","black",49,"left","high","True","False",345,950,NA
"A3FBC5W56LKQXL","Thu Oct 29 2020 15:46:00 GMT-0400 (Eastern Daylight Time)","Thu Oct 29 2020 15:53:21 GMT-0400 (Eastern Daylight Time)","Mozilla/5.0 (Windows NT 6.1; Win64; x64) AppleWebKit/537.36 (KHTML, like Gecko) Chrome/86.0.4240.111 Safari/537.36",15,"[0.9, 0.5, 0.1]","[0.8, 0.4, 0.2]","[u'black', u'red', u'blue']","[u'left', u'middle', u'right']","[0.9, 0.5, 0.1]","[u'high', u'medium', u'low']","black",49,"left","high","True","False",372,1050,NA
"A3FBC5W56LKQXL","Thu Oct 29 2020 15:46:00 GMT-0400 (Eastern Daylight Time)","Thu Oct 29 2020 15:53:21 GMT-0400 (Eastern Daylight Time)","Mozilla/5.0 (Windows NT 6.1; Win64; x64) AppleWebKit/537.36 (KHTML, like Gecko) Chrome/86.0.4240.111 Safari/537.36",16,"[0.9, 0.5, 0.1]","[0.8, 0.4, 0.2]","[u'black', u'red', u'blue']","[u'left', u'middle', u'right']","[0.9, 0.5, 0.1]","[u'high', u'medium', u'low']","black",49,"left","high","True","False",471,1150,NA
"A3FBC5W56LKQXL","Thu Oct 29 2020 15:46:00 GMT-0400 (Eastern Daylight Time)","Thu Oct 29 2020 15:53:21 GMT-0400 (Eastern Daylight Time)","Mozilla/5.0 (Windows NT 6.1; Win64; x64) AppleWebKit/537.36 (KHTML, like Gecko) Chrome/86.0.4240.111 Safari/537.36",17,"[0.9, 0.5, 0.1]","[0.8, 0.4, 0.2]","[u'black', u'red', u'blue']","[u'left', u'middle', u'right']","[0.9, 0.5, 0.1]","[u'high', u'medium', u'low']","black",49,"left","high","True","False",407,1250,NA
"A3FBC5W56LKQXL","Thu Oct 29 2020 15:46:00 GMT-0400 (Eastern Daylight Time)","Thu Oct 29 2020 15:53:21 GMT-0400 (Eastern Daylight Time)","Mozilla/5.0 (Windows NT 6.1; Win64; x64) AppleWebKit/537.36 (KHTML, like Gecko) Chrome/86.0.4240.111 Safari/537.36",18,"[0.9, 0.5, 0.1]","[0.8, 0.4, 0.2]","[u'black', u'red', u'blue']","[u'left', u'middle', u'right']","[0.9, 0.5, 0.1]","[u'high', u'medium', u'low']","black",49,"left","high","True","False",452,1350,NA
"A3FBC5W56LKQXL","Thu Oct 29 2020 15:46:00 GMT-0400 (Eastern Daylight Time)","Thu Oct 29 2020 15:53:21 GMT-0400 (Eastern Daylight Time)","Mozilla/5.0 (Windows NT 6.1; Win64; x64) AppleWebKit/537.36 (KHTML, like Gecko) Chrome/86.0.4240.111 Safari/537.36",19,"[0.9, 0.5, 0.1]","[0.8, 0.4, 0.2]","[u'black', u'red', u'blue']","[u'left', u'middle', u'right']","[0.9, 0.5, 0.1]","[u'high', u'medium', u'low']","black",49,"left","high","True","False",515,1450,NA
"A3FBC5W56LKQXL","Thu Oct 29 2020 15:46:00 GMT-0400 (Eastern Daylight Time)","Thu Oct 29 2020 15:53:21 GMT-0400 (Eastern Daylight Time)","Mozilla/5.0 (Windows NT 6.1; Win64; x64) AppleWebKit/537.36 (KHTML, like Gecko) Chrome/86.0.4240.111 Safari/537.36",20,"[0.9, 0.5, 0.1]","[0.8, 0.4, 0.2]","[u'black', u'red', u'blue']","[u'left', u'middle', u'right']","[0.9, 0.5, 0.1]","[u'high', u'medium', u'low']","black",49,"left","high","True","False",437,1550,NA
"A3FBC5W56LKQXL","Thu Oct 29 2020 15:46:00 GMT-0400 (Eastern Daylight Time)","Thu Oct 29 2020 15:53:21 GMT-0400 (Eastern Daylight Time)","Mozilla/5.0 (Windows NT 6.1; Win64; x64) AppleWebKit/537.36 (KHTML, like Gecko) Chrome/86.0.4240.111 Safari/537.36",21,"[0.9, 0.5, 0.1]","[0.8, 0.4, 0.2]","[u'black', u'red', u'blue']","[u'left', u'middle', u'right']","[0.9, 0.5, 0.1]","[u'high', u'medium', u'low']","black",49,"left","high","True","True",427,1650,NA
"A3FBC5W56LKQXL","Thu Oct 29 2020 15:46:00 GMT-0400 (Eastern Daylight Time)","Thu Oct 29 2020 15:53:21 GMT-0400 (Eastern Daylight Time)","Mozilla/5.0 (Windows NT 6.1; Win64; x64) AppleWebKit/537.36 (KHTML, like Gecko) Chrome/86.0.4240.111 Safari/537.36",22,"[0.9, 0.5, 0.1]","[0.8, 0.4, 0.2]","[u'black', u'red', u'blue']","[u'left', u'middle', u'right']","[0.9, 0.5, 0.1]","[u'low', u'high', u'medium']","black",49,"left","low","False","False",443,1600,NA
"A3FBC5W56LKQXL","Thu Oct 29 2020 15:46:00 GMT-0400 (Eastern Daylight Time)","Thu Oct 29 2020 15:53:21 GMT-0400 (Eastern Daylight Time)","Mozilla/5.0 (Windows NT 6.1; Win64; x64) AppleWebKit/537.36 (KHTML, like Gecko) Chrome/86.0.4240.111 Safari/537.36",23,"[0.9, 0.5, 0.1]","[0.8, 0.4, 0.2]","[u'black', u'red', u'blue']","[u'left', u'middle', u'right']","[0.9, 0.5, 0.1]","[u'low', u'high', u'medium']","blue",51,"right","medium","False","False",368,1550,NA
"A3FBC5W56LKQXL","Thu Oct 29 2020 15:46:00 GMT-0400 (Eastern Daylight Time)","Thu Oct 29 2020 15:53:21 GMT-0400 (Eastern Daylight Time)","Mozilla/5.0 (Windows NT 6.1; Win64; x64) AppleWebKit/537.36 (KHTML, like Gecko) Chrome/86.0.4240.111 Safari/537.36",24,"[0.9, 0.5, 0.1]","[0.8, 0.4, 0.2]","[u'black', u'red', u'blue']","[u'left', u'middle', u'right']","[0.9, 0.5, 0.1]","[u'low', u'high', u'medium']","red",50,"middle","high","True","False",407,1650,NA
"A3FBC5W56LKQXL","Thu Oct 29 2020 15:46:00 GMT-0400 (Eastern Daylight Time)","Thu Oct 29 2020 15:53:21 GMT-0400 (Eastern Daylight Time)","Mozilla/5.0 (Windows NT 6.1; Win64; x64) AppleWebKit/537.36 (KHTML, like Gecko) Chrome/86.0.4240.111 Safari/537.36",25,"[0.9, 0.5, 0.1]","[0.8, 0.4, 0.2]","[u'black', u'red', u'blue']","[u'left', u'middle', u'right']","[0.9, 0.5, 0.1]","[u'low', u'high', u'medium']","red",50,"middle","high","True","False",335,1750,NA
"A3FBC5W56LKQXL","Thu Oct 29 2020 15:46:00 GMT-0400 (Eastern Daylight Time)","Thu Oct 29 2020 15:53:21 GMT-0400 (Eastern Daylight Time)","Mozilla/5.0 (Windows NT 6.1; Win64; x64) AppleWebKit/537.36 (KHTML, like Gecko) Chrome/86.0.4240.111 Safari/537.36",26,"[0.9, 0.5, 0.1]","[0.8, 0.4, 0.2]","[u'black', u'red', u'blue']","[u'left', u'middle', u'right']","[0.9, 0.5, 0.1]","[u'low', u'high', u'medium']","red",50,"middle","high","True","False",460,1850,NA
"A3FBC5W56LKQXL","Thu Oct 29 2020 15:46:00 GMT-0400 (Eastern Daylight Time)","Thu Oct 29 2020 15:53:21 GMT-0400 (Eastern Daylight Time)","Mozilla/5.0 (Windows NT 6.1; Win64; x64) AppleWebKit/537.36 (KHTML, like Gecko) Chrome/86.0.4240.111 Safari/537.36",27,"[0.9, 0.5, 0.1]","[0.8, 0.4, 0.2]","[u'black', u'red', u'blue']","[u'left', u'middle', u'right']","[0.9, 0.5, 0.1]","[u'low', u'high', u'medium']","red",50,"middle","high","True","False",335,1950,NA
"A3FBC5W56LKQXL","Thu Oct 29 2020 15:46:00 GMT-0400 (Eastern Daylight Time)","Thu Oct 29 2020 15:53:21 GMT-0400 (Eastern Daylight Time)","Mozilla/5.0 (Windows NT 6.1; Win64; x64) AppleWebKit/537.36 (KHTML, like Gecko) Chrome/86.0.4240.111 Safari/537.36",28,"[0.9, 0.5, 0.1]","[0.8, 0.4, 0.2]","[u'black', u'red', u'blue']","[u'left', u'middle', u'right']","[0.9, 0.5, 0.1]","[u'low', u'high', u'medium']","red",50,"middle","high","True","False",480,2050,NA
"A3FBC5W56LKQXL","Thu Oct 29 2020 15:46:00 GMT-0400 (Eastern Daylight Time)","Thu Oct 29 2020 15:53:21 GMT-0400 (Eastern Daylight Time)","Mozilla/5.0 (Windows NT 6.1; Win64; x64) AppleWebKit/537.36 (KHTML, like Gecko) Chrome/86.0.4240.111 Safari/537.36",29,"[0.9, 0.5, 0.1]","[0.8, 0.4, 0.2]","[u'black', u'red', u'blue']","[u'left', u'middle', u'right']","[0.9, 0.5, 0.1]","[u'low', u'high', u'medium']","red",50,"middle","high","True","False",361,2150,NA
"A3FBC5W56LKQXL","Thu Oct 29 2020 15:46:00 GMT-0400 (Eastern Daylight Time)","Thu Oct 29 2020 15:53:21 GMT-0400 (Eastern Daylight Time)","Mozilla/5.0 (Windows NT 6.1; Win64; x64) AppleWebKit/537.36 (KHTML, like Gecko) Chrome/86.0.4240.111 Safari/537.36",30,"[0.9, 0.5, 0.1]","[0.8, 0.4, 0.2]","[u'black', u'red', u'blue']","[u'left', u'middle', u'right']","[0.9, 0.5, 0.1]","[u'low', u'high', u'medium']","red",50,"middle","high","False","False",520,2100,NA
"A3FBC5W56LKQXL","Thu Oct 29 2020 15:46:00 GMT-0400 (Eastern Daylight Time)","Thu Oct 29 2020 15:53:21 GMT-0400 (Eastern Daylight Time)","Mozilla/5.0 (Windows NT 6.1; Win64; x64) AppleWebKit/537.36 (KHTML, like Gecko) Chrome/86.0.4240.111 Safari/537.36",31,"[0.9, 0.5, 0.1]","[0.8, 0.4, 0.2]","[u'black', u'red', u'blue']","[u'left', u'middle', u'right']","[0.9, 0.5, 0.1]","[u'low', u'high', u'medium']","blue",51,"right","medium","False","False",345,2050,NA
"A3FBC5W56LKQXL","Thu Oct 29 2020 15:46:00 GMT-0400 (Eastern Daylight Time)","Thu Oct 29 2020 15:53:21 GMT-0400 (Eastern Daylight Time)","Mozilla/5.0 (Windows NT 6.1; Win64; x64) AppleWebKit/537.36 (KHTML, like Gecko) Chrome/86.0.4240.111 Safari/537.36",32,"[0.9, 0.5, 0.1]","[0.8, 0.4, 0.2]","[u'black', u'red', u'blue']","[u'left', u'middle', u'right']","[0.9, 0.5, 0.1]","[u'low', u'high', u'medium']","black",49,"left","low","False","False",315,2000,NA
"A3FBC5W56LKQXL","Thu Oct 29 2020 15:46:00 GMT-0400 (Eastern Daylight Time)","Thu Oct 29 2020 15:53:21 GMT-0400 (Eastern Daylight Time)","Mozilla/5.0 (Windows NT 6.1; Win64; x64) AppleWebKit/537.36 (KHTML, like Gecko) Chrome/86.0.4240.111 Safari/537.36",33,"[0.9, 0.5, 0.1]","[0.8, 0.4, 0.2]","[u'black', u'red', u'blue']","[u'left', u'middle', u'right']","[0.9, 0.5, 0.1]","[u'low', u'high', u'medium']","red",50,"middle","high","True","False",300,2100,NA
"A3FBC5W56LKQXL","Thu Oct 29 2020 15:46:00 GMT-0400 (Eastern Daylight Time)","Thu Oct 29 2020 15:53:21 GMT-0400 (Eastern Daylight Time)","Mozilla/5.0 (Windows NT 6.1; Win64; x64) AppleWebKit/537.36 (KHTML, like Gecko) Chrome/86.0.4240.111 Safari/537.36",34,"[0.9, 0.5, 0.1]","[0.8, 0.4, 0.2]","[u'black', u'red', u'blue']","[u'left', u'middle', u'right']","[0.9, 0.5, 0.1]","[u'low', u'high', u'medium']","red",50,"middle","high","True","False",351,2200,NA
"A3FBC5W56LKQXL","Thu Oct 29 2020 15:46:00 GMT-0400 (Eastern Daylight Time)","Thu Oct 29 2020 15:53:21 GMT-0400 (Eastern Daylight Time)","Mozilla/5.0 (Windows NT 6.1; Win64; x64) AppleWebKit/537.36 (KHTML, like Gecko) Chrome/86.0.4240.111 Safari/537.36",35,"[0.9, 0.5, 0.1]","[0.8, 0.4, 0.2]","[u'black', u'red', u'blue']","[u'left', u'middle', u'right']","[0.9, 0.5, 0.1]","[u'low', u'high', u'medium']","red",50,"middle","high","True","False",327,2300,NA
"A3FBC5W56LKQXL","Thu Oct 29 2020 15:46:00 GMT-0400 (Eastern Daylight Time)","Thu Oct 29 2020 15:53:21 GMT-0400 (Eastern Daylight Time)","Mozilla/5.0 (Windows NT 6.1; Win64; x64) AppleWebKit/537.36 (KHTML, like Gecko) Chrome/86.0.4240.111 Safari/537.36",36,"[0.9, 0.5, 0.1]","[0.8, 0.4, 0.2]","[u'black', u'red', u'blue']","[u'left', u'middle', u'right']","[0.9, 0.5, 0.1]","[u'low', u'high', u'medium']","red",50,"middle","high","True","False",416,2400,NA
"A3FBC5W56LKQXL","Thu Oct 29 2020 15:46:00 GMT-0400 (Eastern Daylight Time)","Thu Oct 29 2020 15:53:21 GMT-0400 (Eastern Daylight Time)","Mozilla/5.0 (Windows NT 6.1; Win64; x64) AppleWebKit/537.36 (KHTML, like Gecko) Chrome/86.0.4240.111 Safari/537.36",37,"[0.9, 0.5, 0.1]","[0.8, 0.4, 0.2]","[u'black', u'red', u'blue']","[u'left', u'middle', u'right']","[0.9, 0.5, 0.1]","[u'low', u'high', u'medium']","red",50,"middle","high","True","False",281,2500,NA
"A3FBC5W56LKQXL","Thu Oct 29 2020 15:46:00 GMT-0400 (Eastern Daylight Time)","Thu Oct 29 2020 15:53:21 GMT-0400 (Eastern Daylight Time)","Mozilla/5.0 (Windows NT 6.1; Win64; x64) AppleWebKit/537.36 (KHTML, like Gecko) Chrome/86.0.4240.111 Safari/537.36",38,"[0.9, 0.5, 0.1]","[0.8, 0.4, 0.2]","[u'black', u'red', u'blue']","[u'left', u'middle', u'right']","[0.9, 0.5, 0.1]","[u'low', u'high', u'medium']","red",50,"middle","high","True","False",297,2600,NA
"A3FBC5W56LKQXL","Thu Oct 29 2020 15:46:00 GMT-0400 (Eastern Daylight Time)","Thu Oct 29 2020 15:53:21 GMT-0400 (Eastern Daylight Time)","Mozilla/5.0 (Windows NT 6.1; Win64; x64) AppleWebKit/537.36 (KHTML, like Gecko) Chrome/86.0.4240.111 Safari/537.36",39,"[0.9, 0.5, 0.1]","[0.8, 0.4, 0.2]","[u'black', u'red', u'blue']","[u'left', u'middle', u'right']","[0.9, 0.5, 0.1]","[u'low', u'high', u'medium']","red",50,"middle","high","True","False",291,2700,NA
"A3FBC5W56LKQXL","Thu Oct 29 2020 15:46:00 GMT-0400 (Eastern Daylight Time)","Thu Oct 29 2020 15:53:21 GMT-0400 (Eastern Daylight Time)","Mozilla/5.0 (Windows NT 6.1; Win64; x64) AppleWebKit/537.36 (KHTML, like Gecko) Chrome/86.0.4240.111 Safari/537.36",40,"[0.9, 0.5, 0.1]","[0.8, 0.4, 0.2]","[u'black', u'red', u'blue']","[u'left', u'middle', u'right']","[0.9, 0.5, 0.1]","[u'low', u'high', u'medium']","red",50,"middle","high","True","False",297,2800,NA
"A3FBC5W56LKQXL","Thu Oct 29 2020 15:46:00 GMT-0400 (Eastern Daylight Time)","Thu Oct 29 2020 15:53:21 GMT-0400 (Eastern Daylight Time)","Mozilla/5.0 (Windows NT 6.1; Win64; x64) AppleWebKit/537.36 (KHTML, like Gecko) Chrome/86.0.4240.111 Safari/537.36",41,"[0.9, 0.5, 0.1]","[0.8, 0.4, 0.2]","[u'black', u'red', u'blue']","[u'left', u'middle', u'right']","[0.9, 0.5, 0.1]","[u'medium', u'low', u'high']","red",50,"middle","low","False","False",719,2750,NA
"A3FBC5W56LKQXL","Thu Oct 29 2020 15:46:00 GMT-0400 (Eastern Daylight Time)","Thu Oct 29 2020 15:53:21 GMT-0400 (Eastern Daylight Time)","Mozilla/5.0 (Windows NT 6.1; Win64; x64) AppleWebKit/537.36 (KHTML, like Gecko) Chrome/86.0.4240.111 Safari/537.36",42,"[0.9, 0.5, 0.1]","[0.8, 0.4, 0.2]","[u'black', u'red', u'blue']","[u'left', u'middle', u'right']","[0.9, 0.5, 0.1]","[u'medium', u'low', u'high']","blue",51,"right","high","True","False",329,2850,NA
"A3FBC5W56LKQXL","Thu Oct 29 2020 15:46:00 GMT-0400 (Eastern Daylight Time)","Thu Oct 29 2020 15:53:21 GMT-0400 (Eastern Daylight Time)","Mozilla/5.0 (Windows NT 6.1; Win64; x64) AppleWebKit/537.36 (KHTML, like Gecko) Chrome/86.0.4240.111 Safari/537.36",43,"[0.9, 0.5, 0.1]","[0.8, 0.4, 0.2]","[u'black', u'red', u'blue']","[u'left', u'middle', u'right']","[0.9, 0.5, 0.1]","[u'medium', u'low', u'high']","blue",51,"right","high","True","False",313,2950,NA
"A3FBC5W56LKQXL","Thu Oct 29 2020 15:46:00 GMT-0400 (Eastern Daylight Time)","Thu Oct 29 2020 15:53:21 GMT-0400 (Eastern Daylight Time)","Mozilla/5.0 (Windows NT 6.1; Win64; x64) AppleWebKit/537.36 (KHTML, like Gecko) Chrome/86.0.4240.111 Safari/537.36",44,"[0.9, 0.5, 0.1]","[0.8, 0.4, 0.2]","[u'black', u'red', u'blue']","[u'left', u'middle', u'right']","[0.9, 0.5, 0.1]","[u'medium', u'low', u'high']","blue",51,"right","high","True","False",407,3050,NA
"A3FBC5W56LKQXL","Thu Oct 29 2020 15:46:00 GMT-0400 (Eastern Daylight Time)","Thu Oct 29 2020 15:53:21 GMT-0400 (Eastern Daylight Time)","Mozilla/5.0 (Windows NT 6.1; Win64; x64) AppleWebKit/537.36 (KHTML, like Gecko) Chrome/86.0.4240.111 Safari/537.36",45,"[0.9, 0.5, 0.1]","[0.8, 0.4, 0.2]","[u'black', u'red', u'blue']","[u'left', u'middle', u'right']","[0.9, 0.5, 0.1]","[u'medium', u'low', u'high']","blue",51,"right","high","True","False",360,3150,NA
"A3FBC5W56LKQXL","Thu Oct 29 2020 15:46:00 GMT-0400 (Eastern Daylight Time)","Thu Oct 29 2020 15:53:21 GMT-0400 (Eastern Daylight Time)","Mozilla/5.0 (Windows NT 6.1; Win64; x64) AppleWebKit/537.36 (KHTML, like Gecko) Chrome/86.0.4240.111 Safari/537.36",46,"[0.9, 0.5, 0.1]","[0.8, 0.4, 0.2]","[u'black', u'red', u'blue']","[u'left', u'middle', u'right']","[0.9, 0.5, 0.1]","[u'medium', u'low', u'high']","blue",51,"right","high","True","False",360,3250,NA
"A3FBC5W56LKQXL","Thu Oct 29 2020 15:46:00 GMT-0400 (Eastern Daylight Time)","Thu Oct 29 2020 15:53:21 GMT-0400 (Eastern Daylight Time)","Mozilla/5.0 (Windows NT 6.1; Win64; x64) AppleWebKit/537.36 (KHTML, like Gecko) Chrome/86.0.4240.111 Safari/537.36",47,"[0.9, 0.5, 0.1]","[0.8, 0.4, 0.2]","[u'black', u'red', u'blue']","[u'left', u'middle', u'right']","[0.9, 0.5, 0.1]","[u'medium', u'low', u'high']","blue",51,"right","high","True","False",362,3350,NA
"A3FBC5W56LKQXL","Thu Oct 29 2020 15:46:00 GMT-0400 (Eastern Daylight Time)","Thu Oct 29 2020 15:53:21 GMT-0400 (Eastern Daylight Time)","Mozilla/5.0 (Windows NT 6.1; Win64; x64) AppleWebKit/537.36 (KHTML, like Gecko) Chrome/86.0.4240.111 Safari/537.36",48,"[0.9, 0.5, 0.1]","[0.8, 0.4, 0.2]","[u'black', u'red', u'blue']","[u'left', u'middle', u'right']","[0.9, 0.5, 0.1]","[u'medium', u'low', u'high']","blue",51,"right","high","True","False",378,3450,NA
"A3FBC5W56LKQXL","Thu Oct 29 2020 15:46:00 GMT-0400 (Eastern Daylight Time)","Thu Oct 29 2020 15:53:21 GMT-0400 (Eastern Daylight Time)","Mozilla/5.0 (Windows NT 6.1; Win64; x64) AppleWebKit/537.36 (KHTML, like Gecko) Chrome/86.0.4240.111 Safari/537.36",49,"[0.9, 0.5, 0.1]","[0.8, 0.4, 0.2]","[u'black', u'red', u'blue']","[u'left', u'middle', u'right']","[0.9, 0.5, 0.1]","[u'medium', u'low', u'high']","blue",51,"right","high","True","False",376,3550,NA
"A3FBC5W56LKQXL","Thu Oct 29 2020 15:46:00 GMT-0400 (Eastern Daylight Time)","Thu Oct 29 2020 15:53:21 GMT-0400 (Eastern Daylight Time)","Mozilla/5.0 (Windows NT 6.1; Win64; x64) AppleWebKit/537.36 (KHTML, like Gecko) Chrome/86.0.4240.111 Safari/537.36",50,"[0.9, 0.5, 0.1]","[0.8, 0.4, 0.2]","[u'black', u'red', u'blue']","[u'left', u'middle', u'right']","[0.9, 0.5, 0.1]","[u'medium', u'low', u'high']","blue",51,"right","high","True","True",359,3650,NA
"A3FBC5W56LKQXL","Thu Oct 29 2020 15:46:00 GMT-0400 (Eastern Daylight Time)","Thu Oct 29 2020 15:53:21 GMT-0400 (Eastern Daylight Time)","Mozilla/5.0 (Windows NT 6.1; Win64; x64) AppleWebKit/537.36 (KHTML, like Gecko) Chrome/86.0.4240.111 Safari/537.36",51,"[0.9, 0.5, 0.1]","[0.8, 0.4, 0.2]","[u'black', u'red', u'blue']","[u'left', u'middle', u'right']","[0.9, 0.5, 0.1]","[u'high', u'low', u'medium']","blue",51,"right","medium","False","False",360,3600,NA
"A3FBC5W56LKQXL","Thu Oct 29 2020 15:46:00 GMT-0400 (Eastern Daylight Time)","Thu Oct 29 2020 15:53:21 GMT-0400 (Eastern Daylight Time)","Mozilla/5.0 (Windows NT 6.1; Win64; x64) AppleWebKit/537.36 (KHTML, like Gecko) Chrome/86.0.4240.111 Safari/537.36",52,"[0.9, 0.5, 0.1]","[0.8, 0.4, 0.2]","[u'black', u'red', u'blue']","[u'left', u'middle', u'right']","[0.9, 0.5, 0.1]","[u'high', u'low', u'medium']","red",50,"middle","low","False","False",328,3550,NA
"A3FBC5W56LKQXL","Thu Oct 29 2020 15:46:00 GMT-0400 (Eastern Daylight Time)","Thu Oct 29 2020 15:53:21 GMT-0400 (Eastern Daylight Time)","Mozilla/5.0 (Windows NT 6.1; Win64; x64) AppleWebKit/537.36 (KHTML, like Gecko) Chrome/86.0.4240.111 Safari/537.36",53,"[0.9, 0.5, 0.1]","[0.8, 0.4, 0.2]","[u'black', u'red', u'blue']","[u'left', u'middle', u'right']","[0.9, 0.5, 0.1]","[u'high', u'low', u'medium']","black",49,"left","high","True","False",297,3650,NA
"A3FBC5W56LKQXL","Thu Oct 29 2020 15:46:00 GMT-0400 (Eastern Daylight Time)","Thu Oct 29 2020 15:53:21 GMT-0400 (Eastern Daylight Time)","Mozilla/5.0 (Windows NT 6.1; Win64; x64) AppleWebKit/537.36 (KHTML, like Gecko) Chrome/86.0.4240.111 Safari/537.36",54,"[0.9, 0.5, 0.1]","[0.8, 0.4, 0.2]","[u'black', u'red', u'blue']","[u'left', u'middle', u'right']","[0.9, 0.5, 0.1]","[u'high', u'low', u'medium']","black",49,"left","high","True","False",324,3750,NA
"A3FBC5W56LKQXL","Thu Oct 29 2020 15:46:00 GMT-0400 (Eastern Daylight Time)","Thu Oct 29 2020 15:53:21 GMT-0400 (Eastern Daylight Time)","Mozilla/5.0 (Windows NT 6.1; Win64; x64) AppleWebKit/537.36 (KHTML, like Gecko) Chrome/86.0.4240.111 Safari/537.36",55,"[0.9, 0.5, 0.1]","[0.8, 0.4, 0.2]","[u'black', u'red', u'blue']","[u'left', u'middle', u'right']","[0.9, 0.5, 0.1]","[u'high', u'low', u'medium']","black",49,"left","high","True","False",313,3850,NA
"A3FBC5W56LKQXL","Thu Oct 29 2020 15:46:00 GMT-0400 (Eastern Daylight Time)","Thu Oct 29 2020 15:53:21 GMT-0400 (Eastern Daylight Time)","Mozilla/5.0 (Windows NT 6.1; Win64; x64) AppleWebKit/537.36 (KHTML, like Gecko) Chrome/86.0.4240.111 Safari/537.36",56,"[0.9, 0.5, 0.1]","[0.8, 0.4, 0.2]","[u'black', u'red', u'blue']","[u'left', u'middle', u'right']","[0.9, 0.5, 0.1]","[u'high', u'low', u'medium']","black",49,"left","high","True","False",345,3950,NA
"A3FBC5W56LKQXL","Thu Oct 29 2020 15:46:00 GMT-0400 (Eastern Daylight Time)","Thu Oct 29 2020 15:53:21 GMT-0400 (Eastern Daylight Time)","Mozilla/5.0 (Windows NT 6.1; Win64; x64) AppleWebKit/537.36 (KHTML, like Gecko) Chrome/86.0.4240.111 Safari/537.36",57,"[0.9, 0.5, 0.1]","[0.8, 0.4, 0.2]","[u'black', u'red', u'blue']","[u'left', u'middle', u'right']","[0.9, 0.5, 0.1]","[u'high', u'low', u'medium']","black",49,"left","high","True","False",344,4050,NA
"A3FBC5W56LKQXL","Thu Oct 29 2020 15:46:00 GMT-0400 (Eastern Daylight Time)","Thu Oct 29 2020 15:53:21 GMT-0400 (Eastern Daylight Time)","Mozilla/5.0 (Windows NT 6.1; Win64; x64) AppleWebKit/537.36 (KHTML, like Gecko) Chrome/86.0.4240.111 Safari/537.36",58,"[0.9, 0.5, 0.1]","[0.8, 0.4, 0.2]","[u'black', u'red', u'blue']","[u'left', u'middle', u'right']","[0.9, 0.5, 0.1]","[u'high', u'low', u'medium']","black",49,"left","high","True","False",313,4150,NA
"A3FBC5W56LKQXL","Thu Oct 29 2020 15:46:00 GMT-0400 (Eastern Daylight Time)","Thu Oct 29 2020 15:53:21 GMT-0400 (Eastern Daylight Time)","Mozilla/5.0 (Windows NT 6.1; Win64; x64) AppleWebKit/537.36 (KHTML, like Gecko) Chrome/86.0.4240.111 Safari/537.36",59,"[0.9, 0.5, 0.1]","[0.8, 0.4, 0.2]","[u'black', u'red', u'blue']","[u'left', u'middle', u'right']","[0.9, 0.5, 0.1]","[u'high', u'low', u'medium']","black",49,"left","high","True","False",358,4250,NA
"A3FBC5W56LKQXL","Thu Oct 29 2020 15:46:00 GMT-0400 (Eastern Daylight Time)","Thu Oct 29 2020 15:53:21 GMT-0400 (Eastern Daylight Time)","Mozilla/5.0 (Windows NT 6.1; Win64; x64) AppleWebKit/537.36 (KHTML, like Gecko) Chrome/86.0.4240.111 Safari/537.36",60,"[0.9, 0.5, 0.1]","[0.8, 0.4, 0.2]","[u'black', u'red', u'blue']","[u'left', u'middle', u'right']","[0.9, 0.5, 0.1]","[u'high', u'low', u'medium']","black",49,"left","high","True","False",452,4350,NA
"A3FBC5W56LKQXL","Thu Oct 29 2020 15:46:00 GMT-0400 (Eastern Daylight Time)","Thu Oct 29 2020 15:53:21 GMT-0400 (Eastern Daylight Time)","Mozilla/5.0 (Windows NT 6.1; Win64; x64) AppleWebKit/537.36 (KHTML, like Gecko) Chrome/86.0.4240.111 Safari/537.36",61,"[0.9, 0.5, 0.1]","[0.8, 0.4, 0.2]","[u'black', u'red', u'blue']","[u'left', u'middle', u'right']","[0.9, 0.5, 0.1]","[u'high', u'low', u'medium']","black",49,"left","high","True","True",361,4450,NA
"A3FBC5W56LKQXL","Thu Oct 29 2020 15:46:00 GMT-0400 (Eastern Daylight Time)","Thu Oct 29 2020 15:53:21 GMT-0400 (Eastern Daylight Time)","Mozilla/5.0 (Windows NT 6.1; Win64; x64) AppleWebKit/537.36 (KHTML, like Gecko) Chrome/86.0.4240.111 Safari/537.36",62,"[0.9, 0.5, 0.1]","[0.8, 0.4, 0.2]","[u'black', u'red', u'blue']","[u'left', u'middle', u'right']","[0.9, 0.5, 0.1]","[u'medium', u'low', u'high']","black",49,"left","medium","False","False",376,4400,NA
"A3FBC5W56LKQXL","Thu Oct 29 2020 15:46:00 GMT-0400 (Eastern Daylight Time)","Thu Oct 29 2020 15:53:21 GMT-0400 (Eastern Daylight Time)","Mozilla/5.0 (Windows NT 6.1; Win64; x64) AppleWebKit/537.36 (KHTML, like Gecko) Chrome/86.0.4240.111 Safari/537.36",63,"[0.9, 0.5, 0.1]","[0.8, 0.4, 0.2]","[u'black', u'red', u'blue']","[u'left', u'middle', u'right']","[0.9, 0.5, 0.1]","[u'medium', u'low', u'high']","red",50,"middle","low","False","False",348,4350,NA
"A3FBC5W56LKQXL","Thu Oct 29 2020 15:46:00 GMT-0400 (Eastern Daylight Time)","Thu Oct 29 2020 15:53:21 GMT-0400 (Eastern Daylight Time)","Mozilla/5.0 (Windows NT 6.1; Win64; x64) AppleWebKit/537.36 (KHTML, like Gecko) Chrome/86.0.4240.111 Safari/537.36",64,"[0.9, 0.5, 0.1]","[0.8, 0.4, 0.2]","[u'black', u'red', u'blue']","[u'left', u'middle', u'right']","[0.9, 0.5, 0.1]","[u'medium', u'low', u'high']","blue",51,"right","high","True","False",328,4450,NA
"A3FBC5W56LKQXL","Thu Oct 29 2020 15:46:00 GMT-0400 (Eastern Daylight Time)","Thu Oct 29 2020 15:53:21 GMT-0400 (Eastern Daylight Time)","Mozilla/5.0 (Windows NT 6.1; Win64; x64) AppleWebKit/537.36 (KHTML, like Gecko) Chrome/86.0.4240.111 Safari/537.36",65,"[0.9, 0.5, 0.1]","[0.8, 0.4, 0.2]","[u'black', u'red', u'blue']","[u'left', u'middle', u'right']","[0.9, 0.5, 0.1]","[u'medium', u'low', u'high']","blue",51,"right","high","True","False",422,4550,NA
"A3FBC5W56LKQXL","Thu Oct 29 2020 15:46:00 GMT-0400 (Eastern Daylight Time)","Thu Oct 29 2020 15:53:21 GMT-0400 (Eastern Daylight Time)","Mozilla/5.0 (Windows NT 6.1; Win64; x64) AppleWebKit/537.36 (KHTML, like Gecko) Chrome/86.0.4240.111 Safari/537.36",66,"[0.9, 0.5, 0.1]","[0.8, 0.4, 0.2]","[u'black', u'red', u'blue']","[u'left', u'middle', u'right']","[0.9, 0.5, 0.1]","[u'medium', u'low', u'high']","blue",51,"right","high","True","False",438,4650,NA
"A3FBC5W56LKQXL","Thu Oct 29 2020 15:46:00 GMT-0400 (Eastern Daylight Time)","Thu Oct 29 2020 15:53:21 GMT-0400 (Eastern Daylight Time)","Mozilla/5.0 (Windows NT 6.1; Win64; x64) AppleWebKit/537.36 (KHTML, like Gecko) Chrome/86.0.4240.111 Safari/537.36",67,"[0.9, 0.5, 0.1]","[0.8, 0.4, 0.2]","[u'black', u'red', u'blue']","[u'left', u'middle', u'right']","[0.9, 0.5, 0.1]","[u'medium', u'low', u'high']","blue",51,"right","high","True","False",423,4750,NA
"A3FBC5W56LKQXL","Thu Oct 29 2020 15:46:00 GMT-0400 (Eastern Daylight Time)","Thu Oct 29 2020 15:53:21 GMT-0400 (Eastern Daylight Time)","Mozilla/5.0 (Windows NT 6.1; Win64; x64) AppleWebKit/537.36 (KHTML, like Gecko) Chrome/86.0.4240.111 Safari/537.36",68,"[0.9, 0.5, 0.1]","[0.8, 0.4, 0.2]","[u'black', u'red', u'blue']","[u'left', u'middle', u'right']","[0.9, 0.5, 0.1]","[u'medium', u'low', u'high']","blue",51,"right","high","True","False",408,4850,NA
"A3FBC5W56LKQXL","Thu Oct 29 2020 15:46:00 GMT-0400 (Eastern Daylight Time)","Thu Oct 29 2020 15:53:21 GMT-0400 (Eastern Daylight Time)","Mozilla/5.0 (Windows NT 6.1; Win64; x64) AppleWebKit/537.36 (KHTML, like Gecko) Chrome/86.0.4240.111 Safari/537.36",69,"[0.9, 0.5, 0.1]","[0.8, 0.4, 0.2]","[u'black', u'red', u'blue']","[u'left', u'middle', u'right']","[0.9, 0.5, 0.1]","[u'medium', u'low', u'high']","blue",51,"right","high","True","False",498,4950,NA
"A3FBC5W56LKQXL","Thu Oct 29 2020 15:46:00 GMT-0400 (Eastern Daylight Time)","Thu Oct 29 2020 15:53:21 GMT-0400 (Eastern Daylight Time)","Mozilla/5.0 (Windows NT 6.1; Win64; x64) AppleWebKit/537.36 (KHTML, like Gecko) Chrome/86.0.4240.111 Safari/537.36",70,"[0.9, 0.5, 0.1]","[0.8, 0.4, 0.2]","[u'black', u'red', u'blue']","[u'left', u'middle', u'right']","[0.9, 0.5, 0.1]","[u'medium', u'low', u'high']","blue",51,"right","high","True","False",406,5050,NA
"A3FBC5W56LKQXL","Thu Oct 29 2020 15:46:00 GMT-0400 (Eastern Daylight Time)","Thu Oct 29 2020 15:53:21 GMT-0400 (Eastern Daylight Time)","Mozilla/5.0 (Windows NT 6.1; Win64; x64) AppleWebKit/537.36 (KHTML, like Gecko) Chrome/86.0.4240.111 Safari/537.36",71,"[0.9, 0.5, 0.1]","[0.8, 0.4, 0.2]","[u'black', u'red', u'blue']","[u'left', u'middle', u'right']","[0.9, 0.5, 0.1]","[u'medium', u'low', u'high']","blue",51,"right","high","True","False",384,5150,NA
"A3FBC5W56LKQXL","Thu Oct 29 2020 15:46:00 GMT-0400 (Eastern Daylight Time)","Thu Oct 29 2020 15:53:21 GMT-0400 (Eastern Daylight Time)","Mozilla/5.0 (Windows NT 6.1; Win64; x64) AppleWebKit/537.36 (KHTML, like Gecko) Chrome/86.0.4240.111 Safari/537.36",72,"[0.9, 0.5, 0.1]","[0.8, 0.4, 0.2]","[u'black', u'red', u'blue']","[u'left', u'middle', u'right']","[0.9, 0.5, 0.1]","[u'medium', u'low', u'high']","blue",51,"right","high","True","True",369,5250,NA
"A3FBC5W56LKQXL","Thu Oct 29 2020 15:46:00 GMT-0400 (Eastern Daylight Time)","Thu Oct 29 2020 15:53:21 GMT-0400 (Eastern Daylight Time)","Mozilla/5.0 (Windows NT 6.1; Win64; x64) AppleWebKit/537.36 (KHTML, like Gecko) Chrome/86.0.4240.111 Safari/537.36",73,"[0.9, 0.5, 0.1]","[0.8, 0.4, 0.2]","[u'black', u'red', u'blue']","[u'left', u'middle', u'right']","[0.9, 0.5, 0.1]","[u'high', u'medium', u'low']","blue",51,"right","low","False","False",380,5200,NA
"A3FBC5W56LKQXL","Thu Oct 29 2020 15:46:00 GMT-0400 (Eastern Daylight Time)","Thu Oct 29 2020 15:53:21 GMT-0400 (Eastern Daylight Time)","Mozilla/5.0 (Windows NT 6.1; Win64; x64) AppleWebKit/537.36 (KHTML, like Gecko) Chrome/86.0.4240.111 Safari/537.36",74,"[0.9, 0.5, 0.1]","[0.8, 0.4, 0.2]","[u'black', u'red', u'blue']","[u'left', u'middle', u'right']","[0.9, 0.5, 0.1]","[u'high', u'medium', u'low']","red",50,"middle","medium","True","False",376,5300,NA
"A3FBC5W56LKQXL","Thu Oct 29 2020 15:46:00 GMT-0400 (Eastern Daylight Time)","Thu Oct 29 2020 15:53:21 GMT-0400 (Eastern Daylight Time)","Mozilla/5.0 (Windows NT 6.1; Win64; x64) AppleWebKit/537.36 (KHTML, like Gecko) Chrome/86.0.4240.111 Safari/537.36",75,"[0.9, 0.5, 0.1]","[0.8, 0.4, 0.2]","[u'black', u'red', u'blue']","[u'left', u'middle', u'right']","[0.9, 0.5, 0.1]","[u'high', u'medium', u'low']","red",50,"middle","medium","False","False",378,5250,NA
"A3FBC5W56LKQXL","Thu Oct 29 2020 15:46:00 GMT-0400 (Eastern Daylight Time)","Thu Oct 29 2020 15:53:21 GMT-0400 (Eastern Daylight Time)","Mozilla/5.0 (Windows NT 6.1; Win64; x64) AppleWebKit/537.36 (KHTML, like Gecko) Chrome/86.0.4240.111 Safari/537.36",76,"[0.9, 0.5, 0.1]","[0.8, 0.4, 0.2]","[u'black', u'red', u'blue']","[u'left', u'middle', u'right']","[0.9, 0.5, 0.1]","[u'high', u'medium', u'low']","black",49,"left","high","True","False",314,5350,NA
"A3FBC5W56LKQXL","Thu Oct 29 2020 15:46:00 GMT-0400 (Eastern Daylight Time)","Thu Oct 29 2020 15:53:21 GMT-0400 (Eastern Daylight Time)","Mozilla/5.0 (Windows NT 6.1; Win64; x64) AppleWebKit/537.36 (KHTML, like Gecko) Chrome/86.0.4240.111 Safari/537.36",77,"[0.9, 0.5, 0.1]","[0.8, 0.4, 0.2]","[u'black', u'red', u'blue']","[u'left', u'middle', u'right']","[0.9, 0.5, 0.1]","[u'high', u'medium', u'low']","black",49,"left","high","True","False",354,5450,NA
"A3FBC5W56LKQXL","Thu Oct 29 2020 15:46:00 GMT-0400 (Eastern Daylight Time)","Thu Oct 29 2020 15:53:21 GMT-0400 (Eastern Daylight Time)","Mozilla/5.0 (Windows NT 6.1; Win64; x64) AppleWebKit/537.36 (KHTML, like Gecko) Chrome/86.0.4240.111 Safari/537.36",78,"[0.9, 0.5, 0.1]","[0.8, 0.4, 0.2]","[u'black', u'red', u'blue']","[u'left', u'middle', u'right']","[0.9, 0.5, 0.1]","[u'high', u'medium', u'low']","black",49,"left","high","True","False",360,5550,NA
"A3FBC5W56LKQXL","Thu Oct 29 2020 15:46:00 GMT-0400 (Eastern Daylight Time)","Thu Oct 29 2020 15:53:21 GMT-0400 (Eastern Daylight Time)","Mozilla/5.0 (Windows NT 6.1; Win64; x64) AppleWebKit/537.36 (KHTML, like Gecko) Chrome/86.0.4240.111 Safari/537.36",79,"[0.9, 0.5, 0.1]","[0.8, 0.4, 0.2]","[u'black', u'red', u'blue']","[u'left', u'middle', u'right']","[0.9, 0.5, 0.1]","[u'high', u'medium', u'low']","black",49,"left","high","True","False",406,5650,NA
"A3FBC5W56LKQXL","Thu Oct 29 2020 15:46:00 GMT-0400 (Eastern Daylight Time)","Thu Oct 29 2020 15:53:21 GMT-0400 (Eastern Daylight Time)","Mozilla/5.0 (Windows NT 6.1; Win64; x64) AppleWebKit/537.36 (KHTML, like Gecko) Chrome/86.0.4240.111 Safari/537.36",80,"[0.9, 0.5, 0.1]","[0.8, 0.4, 0.2]","[u'black', u'red', u'blue']","[u'left', u'middle', u'right']","[0.9, 0.5, 0.1]","[u'high', u'medium', u'low']","black",49,"left","high","True","False",413,5750,NA
"A3FBC5W56LKQXL","Thu Oct 29 2020 15:46:00 GMT-0400 (Eastern Daylight Time)","Thu Oct 29 2020 15:53:21 GMT-0400 (Eastern Daylight Time)","Mozilla/5.0 (Windows NT 6.1; Win64; x64) AppleWebKit/537.36 (KHTML, like Gecko) Chrome/86.0.4240.111 Safari/537.36",81,"[0.9, 0.5, 0.1]","[0.8, 0.4, 0.2]","[u'black', u'red', u'blue']","[u'left', u'middle', u'right']","[0.8, 0.4, 0.2]","[u'low', u'medium', u'high']","red",50,"middle","medium","True","False",798,5850,NA
"A3FBC5W56LKQXL","Thu Oct 29 2020 15:46:00 GMT-0400 (Eastern Daylight Time)","Thu Oct 29 2020 15:53:21 GMT-0400 (Eastern Daylight Time)","Mozilla/5.0 (Windows NT 6.1; Win64; x64) AppleWebKit/537.36 (KHTML, like Gecko) Chrome/86.0.4240.111 Safari/537.36",82,"[0.9, 0.5, 0.1]","[0.8, 0.4, 0.2]","[u'black', u'red', u'blue']","[u'left', u'middle', u'right']","[0.8, 0.4, 0.2]","[u'low', u'medium', u'high']","red",50,"middle","medium","True","False",359,5950,NA
"A3FBC5W56LKQXL","Thu Oct 29 2020 15:46:00 GMT-0400 (Eastern Daylight Time)","Thu Oct 29 2020 15:53:21 GMT-0400 (Eastern Daylight Time)","Mozilla/5.0 (Windows NT 6.1; Win64; x64) AppleWebKit/537.36 (KHTML, like Gecko) Chrome/86.0.4240.111 Safari/537.36",83,"[0.9, 0.5, 0.1]","[0.8, 0.4, 0.2]","[u'black', u'red', u'blue']","[u'left', u'middle', u'right']","[0.8, 0.4, 0.2]","[u'low', u'medium', u'high']","red",50,"middle","medium","True","False",367,6050,NA
"A3FBC5W56LKQXL","Thu Oct 29 2020 15:46:00 GMT-0400 (Eastern Daylight Time)","Thu Oct 29 2020 15:53:21 GMT-0400 (Eastern Daylight Time)","Mozilla/5.0 (Windows NT 6.1; Win64; x64) AppleWebKit/537.36 (KHTML, like Gecko) Chrome/86.0.4240.111 Safari/537.36",84,"[0.9, 0.5, 0.1]","[0.8, 0.4, 0.2]","[u'black', u'red', u'blue']","[u'left', u'middle', u'right']","[0.8, 0.4, 0.2]","[u'low', u'medium', u'high']","red",50,"middle","medium","True","False",469,6150,NA
"A3FBC5W56LKQXL","Thu Oct 29 2020 15:46:00 GMT-0400 (Eastern Daylight Time)","Thu Oct 29 2020 15:53:21 GMT-0400 (Eastern Daylight Time)","Mozilla/5.0 (Windows NT 6.1; Win64; x64) AppleWebKit/537.36 (KHTML, like Gecko) Chrome/86.0.4240.111 Safari/537.36",85,"[0.9, 0.5, 0.1]","[0.8, 0.4, 0.2]","[u'black', u'red', u'blue']","[u'left', u'middle', u'right']","[0.8, 0.4, 0.2]","[u'low', u'medium', u'high']","red",50,"middle","medium","True","False",452,6250,NA
"A3FBC5W56LKQXL","Thu Oct 29 2020 15:46:00 GMT-0400 (Eastern Daylight Time)","Thu Oct 29 2020 15:53:21 GMT-0400 (Eastern Daylight Time)","Mozilla/5.0 (Windows NT 6.1; Win64; x64) AppleWebKit/537.36 (KHTML, like Gecko) Chrome/86.0.4240.111 Safari/537.36",86,"[0.9, 0.5, 0.1]","[0.8, 0.4, 0.2]","[u'black', u'red', u'blue']","[u'left', u'middle', u'right']","[0.8, 0.4, 0.2]","[u'low', u'medium', u'high']","red",50,"middle","medium","True","False",344,6350,NA
"A3FBC5W56LKQXL","Thu Oct 29 2020 15:46:00 GMT-0400 (Eastern Daylight Time)","Thu Oct 29 2020 15:53:21 GMT-0400 (Eastern Daylight Time)","Mozilla/5.0 (Windows NT 6.1; Win64; x64) AppleWebKit/537.36 (KHTML, like Gecko) Chrome/86.0.4240.111 Safari/537.36",87,"[0.9, 0.5, 0.1]","[0.8, 0.4, 0.2]","[u'black', u'red', u'blue']","[u'left', u'middle', u'right']","[0.8, 0.4, 0.2]","[u'low', u'medium', u'high']","red",50,"middle","medium","True","False",344,6450,NA
"A3FBC5W56LKQXL","Thu Oct 29 2020 15:46:00 GMT-0400 (Eastern Daylight Time)","Thu Oct 29 2020 15:53:21 GMT-0400 (Eastern Daylight Time)","Mozilla/5.0 (Windows NT 6.1; Win64; x64) AppleWebKit/537.36 (KHTML, like Gecko) Chrome/86.0.4240.111 Safari/537.36",88,"[0.9, 0.5, 0.1]","[0.8, 0.4, 0.2]","[u'black', u'red', u'blue']","[u'left', u'middle', u'right']","[0.8, 0.4, 0.2]","[u'low', u'medium', u'high']","red",50,"middle","medium","False","False",387,6400,NA
"A3FBC5W56LKQXL","Thu Oct 29 2020 15:46:00 GMT-0400 (Eastern Daylight Time)","Thu Oct 29 2020 15:53:21 GMT-0400 (Eastern Daylight Time)","Mozilla/5.0 (Windows NT 6.1; Win64; x64) AppleWebKit/537.36 (KHTML, like Gecko) Chrome/86.0.4240.111 Safari/537.36",89,"[0.9, 0.5, 0.1]","[0.8, 0.4, 0.2]","[u'black', u'red', u'blue']","[u'left', u'middle', u'right']","[0.8, 0.4, 0.2]","[u'low', u'medium', u'high']","black",49,"left","low","False","False",330,6350,NA
"A3FBC5W56LKQXL","Thu Oct 29 2020 15:46:00 GMT-0400 (Eastern Daylight Time)","Thu Oct 29 2020 15:53:21 GMT-0400 (Eastern Daylight Time)","Mozilla/5.0 (Windows NT 6.1; Win64; x64) AppleWebKit/537.36 (KHTML, like Gecko) Chrome/86.0.4240.111 Safari/537.36",90,"[0.9, 0.5, 0.1]","[0.8, 0.4, 0.2]","[u'black', u'red', u'blue']","[u'left', u'middle', u'right']","[0.8, 0.4, 0.2]","[u'low', u'medium', u'high']","blue",51,"right","high","True","False",313,6450,NA
"A3FBC5W56LKQXL","Thu Oct 29 2020 15:46:00 GMT-0400 (Eastern Daylight Time)","Thu Oct 29 2020 15:53:21 GMT-0400 (Eastern Daylight Time)","Mozilla/5.0 (Windows NT 6.1; Win64; x64) AppleWebKit/537.36 (KHTML, like Gecko) Chrome/86.0.4240.111 Safari/537.36",91,"[0.9, 0.5, 0.1]","[0.8, 0.4, 0.2]","[u'black', u'red', u'blue']","[u'left', u'middle', u'right']","[0.8, 0.4, 0.2]","[u'low', u'medium', u'high']","blue",51,"right","high","True","False",373,6550,NA
"A3FBC5W56LKQXL","Thu Oct 29 2020 15:46:00 GMT-0400 (Eastern Daylight Time)","Thu Oct 29 2020 15:53:21 GMT-0400 (Eastern Daylight Time)","Mozilla/5.0 (Windows NT 6.1; Win64; x64) AppleWebKit/537.36 (KHTML, like Gecko) Chrome/86.0.4240.111 Safari/537.36",92,"[0.9, 0.5, 0.1]","[0.8, 0.4, 0.2]","[u'black', u'red', u'blue']","[u'left', u'middle', u'right']","[0.8, 0.4, 0.2]","[u'low', u'medium', u'high']","blue",51,"right","high","True","False",406,6650,NA
"A3FBC5W56LKQXL","Thu Oct 29 2020 15:46:00 GMT-0400 (Eastern Daylight Time)","Thu Oct 29 2020 15:53:21 GMT-0400 (Eastern Daylight Time)","Mozilla/5.0 (Windows NT 6.1; Win64; x64) AppleWebKit/537.36 (KHTML, like Gecko) Chrome/86.0.4240.111 Safari/537.36",93,"[0.9, 0.5, 0.1]","[0.8, 0.4, 0.2]","[u'black', u'red', u'blue']","[u'left', u'middle', u'right']","[0.8, 0.4, 0.2]","[u'low', u'medium', u'high']","blue",51,"right","high","False","False",437,6600,NA
"A3FBC5W56LKQXL","Thu Oct 29 2020 15:46:00 GMT-0400 (Eastern Daylight Time)","Thu Oct 29 2020 15:53:21 GMT-0400 (Eastern Daylight Time)","Mozilla/5.0 (Windows NT 6.1; Win64; x64) AppleWebKit/537.36 (KHTML, like Gecko) Chrome/86.0.4240.111 Safari/537.36",94,"[0.9, 0.5, 0.1]","[0.8, 0.4, 0.2]","[u'black', u'red', u'blue']","[u'left', u'middle', u'right']","[0.8, 0.4, 0.2]","[u'low', u'medium', u'high']","red",50,"middle","medium","False","False",318,6550,NA
"A3FBC5W56LKQXL","Thu Oct 29 2020 15:46:00 GMT-0400 (Eastern Daylight Time)","Thu Oct 29 2020 15:53:21 GMT-0400 (Eastern Daylight Time)","Mozilla/5.0 (Windows NT 6.1; Win64; x64) AppleWebKit/537.36 (KHTML, like Gecko) Chrome/86.0.4240.111 Safari/537.36",95,"[0.9, 0.5, 0.1]","[0.8, 0.4, 0.2]","[u'black', u'red', u'blue']","[u'left', u'middle', u'right']","[0.8, 0.4, 0.2]","[u'low', u'medium', u'high']","black",49,"left","low","False","False",346,6500,NA
"A3FBC5W56LKQXL","Thu Oct 29 2020 15:46:00 GMT-0400 (Eastern Daylight Time)","Thu Oct 29 2020 15:53:21 GMT-0400 (Eastern Daylight Time)","Mozilla/5.0 (Windows NT 6.1; Win64; x64) AppleWebKit/537.36 (KHTML, like Gecko) Chrome/86.0.4240.111 Safari/537.36",96,"[0.9, 0.5, 0.1]","[0.8, 0.4, 0.2]","[u'black', u'red', u'blue']","[u'left', u'middle', u'right']","[0.8, 0.4, 0.2]","[u'low', u'medium', u'high']","red",50,"middle","medium","False","False",335,6450,NA
"A3FBC5W56LKQXL","Thu Oct 29 2020 15:46:00 GMT-0400 (Eastern Daylight Time)","Thu Oct 29 2020 15:53:21 GMT-0400 (Eastern Daylight Time)","Mozilla/5.0 (Windows NT 6.1; Win64; x64) AppleWebKit/537.36 (KHTML, like Gecko) Chrome/86.0.4240.111 Safari/537.36",97,"[0.9, 0.5, 0.1]","[0.8, 0.4, 0.2]","[u'black', u'red', u'blue']","[u'left', u'middle', u'right']","[0.8, 0.4, 0.2]","[u'low', u'medium', u'high']","blue",51,"right","high","True","False",330,6550,NA
"A3FBC5W56LKQXL","Thu Oct 29 2020 15:46:00 GMT-0400 (Eastern Daylight Time)","Thu Oct 29 2020 15:53:21 GMT-0400 (Eastern Daylight Time)","Mozilla/5.0 (Windows NT 6.1; Win64; x64) AppleWebKit/537.36 (KHTML, like Gecko) Chrome/86.0.4240.111 Safari/537.36",98,"[0.9, 0.5, 0.1]","[0.8, 0.4, 0.2]","[u'black', u'red', u'blue']","[u'left', u'middle', u'right']","[0.8, 0.4, 0.2]","[u'low', u'medium', u'high']","blue",51,"right","high","True","False",367,6650,NA
"A3FBC5W56LKQXL","Thu Oct 29 2020 15:46:00 GMT-0400 (Eastern Daylight Time)","Thu Oct 29 2020 15:53:21 GMT-0400 (Eastern Daylight Time)","Mozilla/5.0 (Windows NT 6.1; Win64; x64) AppleWebKit/537.36 (KHTML, like Gecko) Chrome/86.0.4240.111 Safari/537.36",99,"[0.9, 0.5, 0.1]","[0.8, 0.4, 0.2]","[u'black', u'red', u'blue']","[u'left', u'middle', u'right']","[0.8, 0.4, 0.2]","[u'low', u'medium', u'high']","blue",51,"right","high","False","False",389,6600,NA
"A3FBC5W56LKQXL","Thu Oct 29 2020 15:46:00 GMT-0400 (Eastern Daylight Time)","Thu Oct 29 2020 15:53:21 GMT-0400 (Eastern Daylight Time)","Mozilla/5.0 (Windows NT 6.1; Win64; x64) AppleWebKit/537.36 (KHTML, like Gecko) Chrome/86.0.4240.111 Safari/537.36",100,"[0.9, 0.5, 0.1]","[0.8, 0.4, 0.2]","[u'black', u'red', u'blue']","[u'left', u'middle', u'right']","[0.8, 0.4, 0.2]","[u'low', u'medium', u'high']","red",50,"middle","medium","False","False",300,6550,NA
"A3FBC5W56LKQXL","Thu Oct 29 2020 15:46:00 GMT-0400 (Eastern Daylight Time)","Thu Oct 29 2020 15:53:21 GMT-0400 (Eastern Daylight Time)","Mozilla/5.0 (Windows NT 6.1; Win64; x64) AppleWebKit/537.36 (KHTML, like Gecko) Chrome/86.0.4240.111 Safari/537.36",101,"[0.9, 0.5, 0.1]","[0.8, 0.4, 0.2]","[u'black', u'red', u'blue']","[u'left', u'middle', u'right']","[0.8, 0.4, 0.2]","[u'low', u'medium', u'high']","black",49,"left","low","False","False",280,6500,NA
"A3FBC5W56LKQXL","Thu Oct 29 2020 15:46:00 GMT-0400 (Eastern Daylight Time)","Thu Oct 29 2020 15:53:21 GMT-0400 (Eastern Daylight Time)","Mozilla/5.0 (Windows NT 6.1; Win64; x64) AppleWebKit/537.36 (KHTML, like Gecko) Chrome/86.0.4240.111 Safari/537.36",102,"[0.9, 0.5, 0.1]","[0.8, 0.4, 0.2]","[u'black', u'red', u'blue']","[u'left', u'middle', u'right']","[0.8, 0.4, 0.2]","[u'low', u'medium', u'high']","blue",51,"right","high","True","False",312,6600,NA
"A3FBC5W56LKQXL","Thu Oct 29 2020 15:46:00 GMT-0400 (Eastern Daylight Time)","Thu Oct 29 2020 15:53:21 GMT-0400 (Eastern Daylight Time)","Mozilla/5.0 (Windows NT 6.1; Win64; x64) AppleWebKit/537.36 (KHTML, like Gecko) Chrome/86.0.4240.111 Safari/537.36",103,"[0.9, 0.5, 0.1]","[0.8, 0.4, 0.2]","[u'black', u'red', u'blue']","[u'left', u'middle', u'right']","[0.8, 0.4, 0.2]","[u'low', u'medium', u'high']","blue",51,"right","high","False","False",329,6550,NA
"A3FBC5W56LKQXL","Thu Oct 29 2020 15:46:00 GMT-0400 (Eastern Daylight Time)","Thu Oct 29 2020 15:53:21 GMT-0400 (Eastern Daylight Time)","Mozilla/5.0 (Windows NT 6.1; Win64; x64) AppleWebKit/537.36 (KHTML, like Gecko) Chrome/86.0.4240.111 Safari/537.36",104,"[0.9, 0.5, 0.1]","[0.8, 0.4, 0.2]","[u'black', u'red', u'blue']","[u'left', u'middle', u'right']","[0.8, 0.4, 0.2]","[u'low', u'medium', u'high']","red",50,"middle","medium","True","False",39,6650,NA
"A3FBC5W56LKQXL","Thu Oct 29 2020 15:46:00 GMT-0400 (Eastern Daylight Time)","Thu Oct 29 2020 15:53:21 GMT-0400 (Eastern Daylight Time)","Mozilla/5.0 (Windows NT 6.1; Win64; x64) AppleWebKit/537.36 (KHTML, like Gecko) Chrome/86.0.4240.111 Safari/537.36",105,"[0.9, 0.5, 0.1]","[0.8, 0.4, 0.2]","[u'black', u'red', u'blue']","[u'left', u'middle', u'right']","[0.8, 0.4, 0.2]","[u'low', u'medium', u'high']","red",50,"middle","medium","False","False",375,6600,NA
"A3FBC5W56LKQXL","Thu Oct 29 2020 15:46:00 GMT-0400 (Eastern Daylight Time)","Thu Oct 29 2020 15:53:21 GMT-0400 (Eastern Daylight Time)","Mozilla/5.0 (Windows NT 6.1; Win64; x64) AppleWebKit/537.36 (KHTML, like Gecko) Chrome/86.0.4240.111 Safari/537.36",106,"[0.9, 0.5, 0.1]","[0.8, 0.4, 0.2]","[u'black', u'red', u'blue']","[u'left', u'middle', u'right']","[0.8, 0.4, 0.2]","[u'low', u'medium', u'high']","black",49,"left","low","False","False",95,6550,NA
"A3FBC5W56LKQXL","Thu Oct 29 2020 15:46:00 GMT-0400 (Eastern Daylight Time)","Thu Oct 29 2020 15:53:21 GMT-0400 (Eastern Daylight Time)","Mozilla/5.0 (Windows NT 6.1; Win64; x64) AppleWebKit/537.36 (KHTML, like Gecko) Chrome/86.0.4240.111 Safari/537.36",107,"[0.9, 0.5, 0.1]","[0.8, 0.4, 0.2]","[u'black', u'red', u'blue']","[u'left', u'middle', u'right']","[0.8, 0.4, 0.2]","[u'low', u'medium', u'high']","blue",51,"right","high","True","False",47,6650,NA
"A3FBC5W56LKQXL","Thu Oct 29 2020 15:46:00 GMT-0400 (Eastern Daylight Time)","Thu Oct 29 2020 15:53:21 GMT-0400 (Eastern Daylight Time)","Mozilla/5.0 (Windows NT 6.1; Win64; x64) AppleWebKit/537.36 (KHTML, like Gecko) Chrome/86.0.4240.111 Safari/537.36",108,"[0.9, 0.5, 0.1]","[0.8, 0.4, 0.2]","[u'black', u'red', u'blue']","[u'left', u'middle', u'right']","[0.8, 0.4, 0.2]","[u'low', u'medium', u'high']","blue",51,"right","high","True","False",344,6750,NA
"A3FBC5W56LKQXL","Thu Oct 29 2020 15:46:00 GMT-0400 (Eastern Daylight Time)","Thu Oct 29 2020 15:53:21 GMT-0400 (Eastern Daylight Time)","Mozilla/5.0 (Windows NT 6.1; Win64; x64) AppleWebKit/537.36 (KHTML, like Gecko) Chrome/86.0.4240.111 Safari/537.36",109,"[0.9, 0.5, 0.1]","[0.8, 0.4, 0.2]","[u'black', u'red', u'blue']","[u'left', u'middle', u'right']","[0.8, 0.4, 0.2]","[u'low', u'medium', u'high']","blue",51,"right","high","True","False",341,6850,NA
"A3FBC5W56LKQXL","Thu Oct 29 2020 15:46:00 GMT-0400 (Eastern Daylight Time)","Thu Oct 29 2020 15:53:21 GMT-0400 (Eastern Daylight Time)","Mozilla/5.0 (Windows NT 6.1; Win64; x64) AppleWebKit/537.36 (KHTML, like Gecko) Chrome/86.0.4240.111 Safari/537.36",110,"[0.9, 0.5, 0.1]","[0.8, 0.4, 0.2]","[u'black', u'red', u'blue']","[u'left', u'middle', u'right']","[0.8, 0.4, 0.2]","[u'low', u'medium', u'high']","blue",51,"right","high","True","False",375,6950,NA
"A3FBC5W56LKQXL","Thu Oct 29 2020 15:46:00 GMT-0400 (Eastern Daylight Time)","Thu Oct 29 2020 15:53:21 GMT-0400 (Eastern Daylight Time)","Mozilla/5.0 (Windows NT 6.1; Win64; x64) AppleWebKit/537.36 (KHTML, like Gecko) Chrome/86.0.4240.111 Safari/537.36",111,"[0.9, 0.5, 0.1]","[0.8, 0.4, 0.2]","[u'black', u'red', u'blue']","[u'left', u'middle', u'right']","[0.8, 0.4, 0.2]","[u'low', u'medium', u'high']","blue",51,"right","high","True","False",313,7050,NA
"A3FBC5W56LKQXL","Thu Oct 29 2020 15:46:00 GMT-0400 (Eastern Daylight Time)","Thu Oct 29 2020 15:53:21 GMT-0400 (Eastern Daylight Time)","Mozilla/5.0 (Windows NT 6.1; Win64; x64) AppleWebKit/537.36 (KHTML, like Gecko) Chrome/86.0.4240.111 Safari/537.36",112,"[0.9, 0.5, 0.1]","[0.8, 0.4, 0.2]","[u'black', u'red', u'blue']","[u'left', u'middle', u'right']","[0.8, 0.4, 0.2]","[u'low', u'medium', u'high']","blue",51,"right","high","True","False",283,7150,NA
"A3FBC5W56LKQXL","Thu Oct 29 2020 15:46:00 GMT-0400 (Eastern Daylight Time)","Thu Oct 29 2020 15:53:21 GMT-0400 (Eastern Daylight Time)","Mozilla/5.0 (Windows NT 6.1; Win64; x64) AppleWebKit/537.36 (KHTML, like Gecko) Chrome/86.0.4240.111 Safari/537.36",113,"[0.9, 0.5, 0.1]","[0.8, 0.4, 0.2]","[u'black', u'red', u'blue']","[u'left', u'middle', u'right']","[0.8, 0.4, 0.2]","[u'low', u'medium', u'high']","blue",51,"right","high","False","False",334,7100,NA
"A3FBC5W56LKQXL","Thu Oct 29 2020 15:46:00 GMT-0400 (Eastern Daylight Time)","Thu Oct 29 2020 15:53:21 GMT-0400 (Eastern Daylight Time)","Mozilla/5.0 (Windows NT 6.1; Win64; x64) AppleWebKit/537.36 (KHTML, like Gecko) Chrome/86.0.4240.111 Safari/537.36",114,"[0.9, 0.5, 0.1]","[0.8, 0.4, 0.2]","[u'black', u'red', u'blue']","[u'left', u'middle', u'right']","[0.8, 0.4, 0.2]","[u'low', u'medium', u'high']","red",50,"middle","medium","False","False",530,7050,NA
"A3FBC5W56LKQXL","Thu Oct 29 2020 15:46:00 GMT-0400 (Eastern Daylight Time)","Thu Oct 29 2020 15:53:21 GMT-0400 (Eastern Daylight Time)","Mozilla/5.0 (Windows NT 6.1; Win64; x64) AppleWebKit/537.36 (KHTML, like Gecko) Chrome/86.0.4240.111 Safari/537.36",115,"[0.9, 0.5, 0.1]","[0.8, 0.4, 0.2]","[u'black', u'red', u'blue']","[u'left', u'middle', u'right']","[0.8, 0.4, 0.2]","[u'low', u'medium', u'high']","blue",51,"right","high","True","False",375,7150,NA
"A3FBC5W56LKQXL","Thu Oct 29 2020 15:46:00 GMT-0400 (Eastern Daylight Time)","Thu Oct 29 2020 15:53:21 GMT-0400 (Eastern Daylight Time)","Mozilla/5.0 (Windows NT 6.1; Win64; x64) AppleWebKit/537.36 (KHTML, like Gecko) Chrome/86.0.4240.111 Safari/537.36",116,"[0.9, 0.5, 0.1]","[0.8, 0.4, 0.2]","[u'black', u'red', u'blue']","[u'left', u'middle', u'right']","[0.8, 0.4, 0.2]","[u'low', u'medium', u'high']","blue",51,"right","high","False","True",418,7100,NA
"A3FBC5W56LKQXL","Thu Oct 29 2020 15:46:00 GMT-0400 (Eastern Daylight Time)","Thu Oct 29 2020 15:53:21 GMT-0400 (Eastern Daylight Time)","Mozilla/5.0 (Windows NT 6.1; Win64; x64) AppleWebKit/537.36 (KHTML, like Gecko) Chrome/86.0.4240.111 Safari/537.36",117,"[0.9, 0.5, 0.1]","[0.8, 0.4, 0.2]","[u'black', u'red', u'blue']","[u'left', u'middle', u'right']","[0.8, 0.4, 0.2]","[u'medium', u'high', u'low']","black",49,"left","medium","False","False",313,7050,NA
"A3FBC5W56LKQXL","Thu Oct 29 2020 15:46:00 GMT-0400 (Eastern Daylight Time)","Thu Oct 29 2020 15:53:21 GMT-0400 (Eastern Daylight Time)","Mozilla/5.0 (Windows NT 6.1; Win64; x64) AppleWebKit/537.36 (KHTML, like Gecko) Chrome/86.0.4240.111 Safari/537.36",118,"[0.9, 0.5, 0.1]","[0.8, 0.4, 0.2]","[u'black', u'red', u'blue']","[u'left', u'middle', u'right']","[0.8, 0.4, 0.2]","[u'medium', u'high', u'low']","red",50,"middle","high","True","False",296,7150,NA
"A3FBC5W56LKQXL","Thu Oct 29 2020 15:46:00 GMT-0400 (Eastern Daylight Time)","Thu Oct 29 2020 15:53:21 GMT-0400 (Eastern Daylight Time)","Mozilla/5.0 (Windows NT 6.1; Win64; x64) AppleWebKit/537.36 (KHTML, like Gecko) Chrome/86.0.4240.111 Safari/537.36",119,"[0.9, 0.5, 0.1]","[0.8, 0.4, 0.2]","[u'black', u'red', u'blue']","[u'left', u'middle', u'right']","[0.8, 0.4, 0.2]","[u'medium', u'high', u'low']","red",50,"middle","high","True","False",376,7250,NA
"A3FBC5W56LKQXL","Thu Oct 29 2020 15:46:00 GMT-0400 (Eastern Daylight Time)","Thu Oct 29 2020 15:53:21 GMT-0400 (Eastern Daylight Time)","Mozilla/5.0 (Windows NT 6.1; Win64; x64) AppleWebKit/537.36 (KHTML, like Gecko) Chrome/86.0.4240.111 Safari/537.36",120,"[0.9, 0.5, 0.1]","[0.8, 0.4, 0.2]","[u'black', u'red', u'blue']","[u'left', u'middle', u'right']","[0.8, 0.4, 0.2]","[u'medium', u'high', u'low']","red",50,"middle","high","True","False",376,7350,NA
"A3FBC5W56LKQXL","Thu Oct 29 2020 15:46:00 GMT-0400 (Eastern Daylight Time)","Thu Oct 29 2020 15:53:21 GMT-0400 (Eastern Daylight Time)","Mozilla/5.0 (Windows NT 6.1; Win64; x64) AppleWebKit/537.36 (KHTML, like Gecko) Chrome/86.0.4240.111 Safari/537.36",121,"[0.9, 0.5, 0.1]","[0.8, 0.4, 0.2]","[u'black', u'red', u'blue']","[u'left', u'middle', u'right']","[0.8, 0.4, 0.2]","[u'low', u'medium', u'high']","red",50,"middle","medium","False","False",610,7300,NA
"A3FBC5W56LKQXL","Thu Oct 29 2020 15:46:00 GMT-0400 (Eastern Daylight Time)","Thu Oct 29 2020 15:53:21 GMT-0400 (Eastern Daylight Time)","Mozilla/5.0 (Windows NT 6.1; Win64; x64) AppleWebKit/537.36 (KHTML, like Gecko) Chrome/86.0.4240.111 Safari/537.36",122,"[0.9, 0.5, 0.1]","[0.8, 0.4, 0.2]","[u'black', u'red', u'blue']","[u'left', u'middle', u'right']","[0.8, 0.4, 0.2]","[u'low', u'medium', u'high']","blue",51,"right","high","True","False",356,7400,NA
"A3FBC5W56LKQXL","Thu Oct 29 2020 15:46:00 GMT-0400 (Eastern Daylight Time)","Thu Oct 29 2020 15:53:21 GMT-0400 (Eastern Daylight Time)","Mozilla/5.0 (Windows NT 6.1; Win64; x64) AppleWebKit/537.36 (KHTML, like Gecko) Chrome/86.0.4240.111 Safari/537.36",123,"[0.9, 0.5, 0.1]","[0.8, 0.4, 0.2]","[u'black', u'red', u'blue']","[u'left', u'middle', u'right']","[0.8, 0.4, 0.2]","[u'low', u'medium', u'high']","blue",51,"right","high","True","False",406,7500,NA
"A3FBC5W56LKQXL","Thu Oct 29 2020 15:46:00 GMT-0400 (Eastern Daylight Time)","Thu Oct 29 2020 15:53:21 GMT-0400 (Eastern Daylight Time)","Mozilla/5.0 (Windows NT 6.1; Win64; x64) AppleWebKit/537.36 (KHTML, like Gecko) Chrome/86.0.4240.111 Safari/537.36",124,"[0.9, 0.5, 0.1]","[0.8, 0.4, 0.2]","[u'black', u'red', u'blue']","[u'left', u'middle', u'right']","[0.8, 0.4, 0.2]","[u'low', u'medium', u'high']","blue",51,"right","high","False","False",344,7450,NA
"A3FBC5W56LKQXL","Thu Oct 29 2020 15:46:00 GMT-0400 (Eastern Daylight Time)","Thu Oct 29 2020 15:53:21 GMT-0400 (Eastern Daylight Time)","Mozilla/5.0 (Windows NT 6.1; Win64; x64) AppleWebKit/537.36 (KHTML, like Gecko) Chrome/86.0.4240.111 Safari/537.36",125,"[0.9, 0.5, 0.1]","[0.8, 0.4, 0.2]","[u'black', u'red', u'blue']","[u'left', u'middle', u'right']","[0.8, 0.4, 0.2]","[u'low', u'medium', u'high']","red",50,"middle","medium","False","False",308,7400,NA
"A3FBC5W56LKQXL","Thu Oct 29 2020 15:46:00 GMT-0400 (Eastern Daylight Time)","Thu Oct 29 2020 15:53:21 GMT-0400 (Eastern Daylight Time)","Mozilla/5.0 (Windows NT 6.1; Win64; x64) AppleWebKit/537.36 (KHTML, like Gecko) Chrome/86.0.4240.111 Safari/537.36",126,"[0.9, 0.5, 0.1]","[0.8, 0.4, 0.2]","[u'black', u'red', u'blue']","[u'left', u'middle', u'right']","[0.8, 0.4, 0.2]","[u'low', u'medium', u'high']","black",49,"left","low","False","False",344,7350,NA
"A3FBC5W56LKQXL","Thu Oct 29 2020 15:46:00 GMT-0400 (Eastern Daylight Time)","Thu Oct 29 2020 15:53:21 GMT-0400 (Eastern Daylight Time)","Mozilla/5.0 (Windows NT 6.1; Win64; x64) AppleWebKit/537.36 (KHTML, like Gecko) Chrome/86.0.4240.111 Safari/537.36",127,"[0.9, 0.5, 0.1]","[0.8, 0.4, 0.2]","[u'black', u'red', u'blue']","[u'left', u'middle', u'right']","[0.8, 0.4, 0.2]","[u'low', u'medium', u'high']","blue",51,"right","high","True","False",266,7450,NA
"A3FBC5W56LKQXL","Thu Oct 29 2020 15:46:00 GMT-0400 (Eastern Daylight Time)","Thu Oct 29 2020 15:53:21 GMT-0400 (Eastern Daylight Time)","Mozilla/5.0 (Windows NT 6.1; Win64; x64) AppleWebKit/537.36 (KHTML, like Gecko) Chrome/86.0.4240.111 Safari/537.36",128,"[0.9, 0.5, 0.1]","[0.8, 0.4, 0.2]","[u'black', u'red', u'blue']","[u'left', u'middle', u'right']","[0.8, 0.4, 0.2]","[u'low', u'medium', u'high']","blue",51,"right","high","False","False",328,7400,NA
"A3FBC5W56LKQXL","Thu Oct 29 2020 15:46:00 GMT-0400 (Eastern Daylight Time)","Thu Oct 29 2020 15:53:21 GMT-0400 (Eastern Daylight Time)","Mozilla/5.0 (Windows NT 6.1; Win64; x64) AppleWebKit/537.36 (KHTML, like Gecko) Chrome/86.0.4240.111 Safari/537.36",129,"[0.9, 0.5, 0.1]","[0.8, 0.4, 0.2]","[u'black', u'red', u'blue']","[u'left', u'middle', u'right']","[0.8, 0.4, 0.2]","[u'low', u'medium', u'high']","red",50,"middle","medium","True","False",294,7500,NA
"A3FBC5W56LKQXL","Thu Oct 29 2020 15:46:00 GMT-0400 (Eastern Daylight Time)","Thu Oct 29 2020 15:53:21 GMT-0400 (Eastern Daylight Time)","Mozilla/5.0 (Windows NT 6.1; Win64; x64) AppleWebKit/537.36 (KHTML, like Gecko) Chrome/86.0.4240.111 Safari/537.36",130,"[0.9, 0.5, 0.1]","[0.8, 0.4, 0.2]","[u'black', u'red', u'blue']","[u'left', u'middle', u'right']","[0.8, 0.4, 0.2]","[u'low', u'medium', u'high']","red",50,"middle","medium","False","False",312,7450,NA
"A3FBC5W56LKQXL","Thu Oct 29 2020 15:46:00 GMT-0400 (Eastern Daylight Time)","Thu Oct 29 2020 15:53:21 GMT-0400 (Eastern Daylight Time)","Mozilla/5.0 (Windows NT 6.1; Win64; x64) AppleWebKit/537.36 (KHTML, like Gecko) Chrome/86.0.4240.111 Safari/537.36",131,"[0.9, 0.5, 0.1]","[0.8, 0.4, 0.2]","[u'black', u'red', u'blue']","[u'left', u'middle', u'right']","[0.8, 0.4, 0.2]","[u'low', u'medium', u'high']","blue",51,"right","high","True","False",274,7550,NA
"A3FBC5W56LKQXL","Thu Oct 29 2020 15:46:00 GMT-0400 (Eastern Daylight Time)","Thu Oct 29 2020 15:53:21 GMT-0400 (Eastern Daylight Time)","Mozilla/5.0 (Windows NT 6.1; Win64; x64) AppleWebKit/537.36 (KHTML, like Gecko) Chrome/86.0.4240.111 Safari/537.36",132,"[0.9, 0.5, 0.1]","[0.8, 0.4, 0.2]","[u'black', u'red', u'blue']","[u'left', u'middle', u'right']","[0.8, 0.4, 0.2]","[u'low', u'medium', u'high']","blue",51,"right","high","False","False",259,7500,NA
"A3FBC5W56LKQXL","Thu Oct 29 2020 15:46:00 GMT-0400 (Eastern Daylight Time)","Thu Oct 29 2020 15:53:21 GMT-0400 (Eastern Daylight Time)","Mozilla/5.0 (Windows NT 6.1; Win64; x64) AppleWebKit/537.36 (KHTML, like Gecko) Chrome/86.0.4240.111 Safari/537.36",133,"[0.9, 0.5, 0.1]","[0.8, 0.4, 0.2]","[u'black', u'red', u'blue']","[u'left', u'middle', u'right']","[0.8, 0.4, 0.2]","[u'low', u'medium', u'high']","black",49,"left","low","False","False",243,7450,NA
"A3FBC5W56LKQXL","Thu Oct 29 2020 15:46:00 GMT-0400 (Eastern Daylight Time)","Thu Oct 29 2020 15:53:21 GMT-0400 (Eastern Daylight Time)","Mozilla/5.0 (Windows NT 6.1; Win64; x64) AppleWebKit/537.36 (KHTML, like Gecko) Chrome/86.0.4240.111 Safari/537.36",134,"[0.9, 0.5, 0.1]","[0.8, 0.4, 0.2]","[u'black', u'red', u'blue']","[u'left', u'middle', u'right']","[0.8, 0.4, 0.2]","[u'low', u'medium', u'high']","red",50,"middle","medium","False","False",204,7400,NA
"A3FBC5W56LKQXL","Thu Oct 29 2020 15:46:00 GMT-0400 (Eastern Daylight Time)","Thu Oct 29 2020 15:53:21 GMT-0400 (Eastern Daylight Time)","Mozilla/5.0 (Windows NT 6.1; Win64; x64) AppleWebKit/537.36 (KHTML, like Gecko) Chrome/86.0.4240.111 Safari/537.36",135,"[0.9, 0.5, 0.1]","[0.8, 0.4, 0.2]","[u'black', u'red', u'blue']","[u'left', u'middle', u'right']","[0.8, 0.4, 0.2]","[u'low', u'medium', u'high']","black",49,"left","low","False","False",531,7350,NA
"A3FBC5W56LKQXL","Thu Oct 29 2020 15:46:00 GMT-0400 (Eastern Daylight Time)","Thu Oct 29 2020 15:53:21 GMT-0400 (Eastern Daylight Time)","Mozilla/5.0 (Windows NT 6.1; Win64; x64) AppleWebKit/537.36 (KHTML, like Gecko) Chrome/86.0.4240.111 Safari/537.36",136,"[0.9, 0.5, 0.1]","[0.8, 0.4, 0.2]","[u'black', u'red', u'blue']","[u'left', u'middle', u'right']","[0.8, 0.4, 0.2]","[u'low', u'medium', u'high']","blue",51,"right","high","True","False",335,7450,NA
"A3FBC5W56LKQXL","Thu Oct 29 2020 15:46:00 GMT-0400 (Eastern Daylight Time)","Thu Oct 29 2020 15:53:21 GMT-0400 (Eastern Daylight Time)","Mozilla/5.0 (Windows NT 6.1; Win64; x64) AppleWebKit/537.36 (KHTML, like Gecko) Chrome/86.0.4240.111 Safari/537.36",137,"[0.9, 0.5, 0.1]","[0.8, 0.4, 0.2]","[u'black', u'red', u'blue']","[u'left', u'middle', u'right']","[0.8, 0.4, 0.2]","[u'low', u'medium', u'high']","blue",51,"right","high","True","False",360,7550,NA
"A3FBC5W56LKQXL","Thu Oct 29 2020 15:46:00 GMT-0400 (Eastern Daylight Time)","Thu Oct 29 2020 15:53:21 GMT-0400 (Eastern Daylight Time)","Mozilla/5.0 (Windows NT 6.1; Win64; x64) AppleWebKit/537.36 (KHTML, like Gecko) Chrome/86.0.4240.111 Safari/537.36",138,"[0.9, 0.5, 0.1]","[0.8, 0.4, 0.2]","[u'black', u'red', u'blue']","[u'left', u'middle', u'right']","[0.8, 0.4, 0.2]","[u'low', u'medium', u'high']","blue",51,"right","high","True","False",431,7650,NA
"A3FBC5W56LKQXL","Thu Oct 29 2020 15:46:00 GMT-0400 (Eastern Daylight Time)","Thu Oct 29 2020 15:53:21 GMT-0400 (Eastern Daylight Time)","Mozilla/5.0 (Windows NT 6.1; Win64; x64) AppleWebKit/537.36 (KHTML, like Gecko) Chrome/86.0.4240.111 Safari/537.36",139,"[0.9, 0.5, 0.1]","[0.8, 0.4, 0.2]","[u'black', u'red', u'blue']","[u'left', u'middle', u'right']","[0.8, 0.4, 0.2]","[u'low', u'medium', u'high']","blue",51,"right","high","True","False",345,7750,NA
"A3FBC5W56LKQXL","Thu Oct 29 2020 15:46:00 GMT-0400 (Eastern Daylight Time)","Thu Oct 29 2020 15:53:21 GMT-0400 (Eastern Daylight Time)","Mozilla/5.0 (Windows NT 6.1; Win64; x64) AppleWebKit/537.36 (KHTML, like Gecko) Chrome/86.0.4240.111 Safari/537.36",140,"[0.9, 0.5, 0.1]","[0.8, 0.4, 0.2]","[u'black', u'red', u'blue']","[u'left', u'middle', u'right']","[0.8, 0.4, 0.2]","[u'low', u'medium', u'high']","blue",51,"right","high","True","False",400,7850,NA
"A3FBC5W56LKQXL","Thu Oct 29 2020 15:46:00 GMT-0400 (Eastern Daylight Time)","Thu Oct 29 2020 15:53:21 GMT-0400 (Eastern Daylight Time)","Mozilla/5.0 (Windows NT 6.1; Win64; x64) AppleWebKit/537.36 (KHTML, like Gecko) Chrome/86.0.4240.111 Safari/537.36",141,"[0.9, 0.5, 0.1]","[0.8, 0.4, 0.2]","[u'black', u'red', u'blue']","[u'left', u'middle', u'right']","[0.8, 0.4, 0.2]","[u'low', u'medium', u'high']","blue",51,"right","high","True","False",448,7950,NA
"A3FBC5W56LKQXL","Thu Oct 29 2020 15:46:00 GMT-0400 (Eastern Daylight Time)","Thu Oct 29 2020 15:53:21 GMT-0400 (Eastern Daylight Time)","Mozilla/5.0 (Windows NT 6.1; Win64; x64) AppleWebKit/537.36 (KHTML, like Gecko) Chrome/86.0.4240.111 Safari/537.36",142,"[0.9, 0.5, 0.1]","[0.8, 0.4, 0.2]","[u'black', u'red', u'blue']","[u'left', u'middle', u'right']","[0.8, 0.4, 0.2]","[u'low', u'medium', u'high']","blue",51,"right","high","True","False",391,8050,NA
"A3FBC5W56LKQXL","Thu Oct 29 2020 15:46:00 GMT-0400 (Eastern Daylight Time)","Thu Oct 29 2020 15:53:21 GMT-0400 (Eastern Daylight Time)","Mozilla/5.0 (Windows NT 6.1; Win64; x64) AppleWebKit/537.36 (KHTML, like Gecko) Chrome/86.0.4240.111 Safari/537.36",143,"[0.9, 0.5, 0.1]","[0.8, 0.4, 0.2]","[u'black', u'red', u'blue']","[u'left', u'middle', u'right']","[0.8, 0.4, 0.2]","[u'low', u'medium', u'high']","blue",51,"right","high","True","False",406,8150,NA
"A3FBC5W56LKQXL","Thu Oct 29 2020 15:46:00 GMT-0400 (Eastern Daylight Time)","Thu Oct 29 2020 15:53:21 GMT-0400 (Eastern Daylight Time)","Mozilla/5.0 (Windows NT 6.1; Win64; x64) AppleWebKit/537.36 (KHTML, like Gecko) Chrome/86.0.4240.111 Safari/537.36",144,"[0.9, 0.5, 0.1]","[0.8, 0.4, 0.2]","[u'black', u'red', u'blue']","[u'left', u'middle', u'right']","[0.8, 0.4, 0.2]","[u'low', u'medium', u'high']","blue",51,"right","high","True","True",407,8250,NA
"A3FBC5W56LKQXL","Thu Oct 29 2020 15:46:00 GMT-0400 (Eastern Daylight Time)","Thu Oct 29 2020 15:53:21 GMT-0400 (Eastern Daylight Time)","Mozilla/5.0 (Windows NT 6.1; Win64; x64) AppleWebKit/537.36 (KHTML, like Gecko) Chrome/86.0.4240.111 Safari/537.36",145,"[0.9, 0.5, 0.1]","[0.8, 0.4, 0.2]","[u'black', u'red', u'blue']","[u'left', u'middle', u'right']","[0.8, 0.4, 0.2]","[u'medium', u'high', u'low']","blue",51,"right","low","False","False",532,8200,NA
"A3FBC5W56LKQXL","Thu Oct 29 2020 15:46:00 GMT-0400 (Eastern Daylight Time)","Thu Oct 29 2020 15:53:21 GMT-0400 (Eastern Daylight Time)","Mozilla/5.0 (Windows NT 6.1; Win64; x64) AppleWebKit/537.36 (KHTML, like Gecko) Chrome/86.0.4240.111 Safari/537.36",146,"[0.9, 0.5, 0.1]","[0.8, 0.4, 0.2]","[u'black', u'red', u'blue']","[u'left', u'middle', u'right']","[0.8, 0.4, 0.2]","[u'medium', u'high', u'low']","red",50,"middle","high","True","False",343,8300,NA
"A3FBC5W56LKQXL","Thu Oct 29 2020 15:46:00 GMT-0400 (Eastern Daylight Time)","Thu Oct 29 2020 15:53:21 GMT-0400 (Eastern Daylight Time)","Mozilla/5.0 (Windows NT 6.1; Win64; x64) AppleWebKit/537.36 (KHTML, like Gecko) Chrome/86.0.4240.111 Safari/537.36",147,"[0.9, 0.5, 0.1]","[0.8, 0.4, 0.2]","[u'black', u'red', u'blue']","[u'left', u'middle', u'right']","[0.8, 0.4, 0.2]","[u'medium', u'high', u'low']","red",50,"middle","high","True","False",346,8400,NA
"A3FBC5W56LKQXL","Thu Oct 29 2020 15:46:00 GMT-0400 (Eastern Daylight Time)","Thu Oct 29 2020 15:53:21 GMT-0400 (Eastern Daylight Time)","Mozilla/5.0 (Windows NT 6.1; Win64; x64) AppleWebKit/537.36 (KHTML, like Gecko) Chrome/86.0.4240.111 Safari/537.36",148,"[0.9, 0.5, 0.1]","[0.8, 0.4, 0.2]","[u'black', u'red', u'blue']","[u'left', u'middle', u'right']","[0.8, 0.4, 0.2]","[u'medium', u'high', u'low']","red",50,"middle","high","True","False",737,8500,NA
"A3FBC5W56LKQXL","Thu Oct 29 2020 15:46:00 GMT-0400 (Eastern Daylight Time)","Thu Oct 29 2020 15:53:21 GMT-0400 (Eastern Daylight Time)","Mozilla/5.0 (Windows NT 6.1; Win64; x64) AppleWebKit/537.36 (KHTML, like Gecko) Chrome/86.0.4240.111 Safari/537.36",149,"[0.9, 0.5, 0.1]","[0.8, 0.4, 0.2]","[u'black', u'red', u'blue']","[u'left', u'middle', u'right']","[0.8, 0.4, 0.2]","[u'medium', u'high', u'low']","red",50,"middle","high","True","False",392,8600,NA
"A3FBC5W56LKQXL","Thu Oct 29 2020 15:46:00 GMT-0400 (Eastern Daylight Time)","Thu Oct 29 2020 15:53:21 GMT-0400 (Eastern Daylight Time)","Mozilla/5.0 (Windows NT 6.1; Win64; x64) AppleWebKit/537.36 (KHTML, like Gecko) Chrome/86.0.4240.111 Safari/537.36",150,"[0.9, 0.5, 0.1]","[0.8, 0.4, 0.2]","[u'black', u'red', u'blue']","[u'left', u'middle', u'right']","[0.8, 0.4, 0.2]","[u'medium', u'high', u'low']","red",50,"middle","high","True","False",375,8700,NA
"A3FBC5W56LKQXL","Thu Oct 29 2020 15:46:00 GMT-0400 (Eastern Daylight Time)","Thu Oct 29 2020 15:53:21 GMT-0400 (Eastern Daylight Time)","Mozilla/5.0 (Windows NT 6.1; Win64; x64) AppleWebKit/537.36 (KHTML, like Gecko) Chrome/86.0.4240.111 Safari/537.36",151,"[0.9, 0.5, 0.1]","[0.8, 0.4, 0.2]","[u'black', u'red', u'blue']","[u'left', u'middle', u'right']","[0.8, 0.4, 0.2]","[u'medium', u'high', u'low']","red",50,"middle","high","True","False",328,8800,NA
"A3FBC5W56LKQXL","Thu Oct 29 2020 15:46:00 GMT-0400 (Eastern Daylight Time)","Thu Oct 29 2020 15:53:21 GMT-0400 (Eastern Daylight Time)","Mozilla/5.0 (Windows NT 6.1; Win64; x64) AppleWebKit/537.36 (KHTML, like Gecko) Chrome/86.0.4240.111 Safari/537.36",152,"[0.9, 0.5, 0.1]","[0.8, 0.4, 0.2]","[u'black', u'red', u'blue']","[u'left', u'middle', u'right']","[0.8, 0.4, 0.2]","[u'medium', u'high', u'low']","red",50,"middle","high","True","False",375,8900,NA
"A3FBC5W56LKQXL","Thu Oct 29 2020 15:46:00 GMT-0400 (Eastern Daylight Time)","Thu Oct 29 2020 15:53:21 GMT-0400 (Eastern Daylight Time)","Mozilla/5.0 (Windows NT 6.1; Win64; x64) AppleWebKit/537.36 (KHTML, like Gecko) Chrome/86.0.4240.111 Safari/537.36",153,"[0.9, 0.5, 0.1]","[0.8, 0.4, 0.2]","[u'black', u'red', u'blue']","[u'left', u'middle', u'right']","[0.8, 0.4, 0.2]","[u'medium', u'high', u'low']","red",50,"middle","high","True","False",344,9000,NA
"A3FBC5W56LKQXL","Thu Oct 29 2020 15:46:00 GMT-0400 (Eastern Daylight Time)","Thu Oct 29 2020 15:53:21 GMT-0400 (Eastern Daylight Time)","Mozilla/5.0 (Windows NT 6.1; Win64; x64) AppleWebKit/537.36 (KHTML, like Gecko) Chrome/86.0.4240.111 Safari/537.36",154,"[0.9, 0.5, 0.1]","[0.8, 0.4, 0.2]","[u'black', u'red', u'blue']","[u'left', u'middle', u'right']","[0.8, 0.4, 0.2]","[u'medium', u'high', u'low']","red",50,"middle","high","True","True",477,9100,NA
"A3FBC5W56LKQXL","Thu Oct 29 2020 15:46:00 GMT-0400 (Eastern Daylight Time)","Thu Oct 29 2020 15:53:21 GMT-0400 (Eastern Daylight Time)","Mozilla/5.0 (Windows NT 6.1; Win64; x64) AppleWebKit/537.36 (KHTML, like Gecko) Chrome/86.0.4240.111 Safari/537.36",155,"[0.9, 0.5, 0.1]","[0.8, 0.4, 0.2]","[u'black', u'red', u'blue']","[u'left', u'middle', u'right']","[0.8, 0.4, 0.2]","[u'high', u'low', u'medium']","red",50,"middle","low","False","False",313,9050,NA
"A3FBC5W56LKQXL","Thu Oct 29 2020 15:46:00 GMT-0400 (Eastern Daylight Time)","Thu Oct 29 2020 15:53:21 GMT-0400 (Eastern Daylight Time)","Mozilla/5.0 (Windows NT 6.1; Win64; x64) AppleWebKit/537.36 (KHTML, like Gecko) Chrome/86.0.4240.111 Safari/537.36",156,"[0.9, 0.5, 0.1]","[0.8, 0.4, 0.2]","[u'black', u'red', u'blue']","[u'left', u'middle', u'right']","[0.8, 0.4, 0.2]","[u'high', u'low', u'medium']","blue",51,"right","medium","False","False",297,9000,NA
"A3FBC5W56LKQXL","Thu Oct 29 2020 15:46:00 GMT-0400 (Eastern Daylight Time)","Thu Oct 29 2020 15:53:21 GMT-0400 (Eastern Daylight Time)","Mozilla/5.0 (Windows NT 6.1; Win64; x64) AppleWebKit/537.36 (KHTML, like Gecko) Chrome/86.0.4240.111 Safari/537.36",157,"[0.9, 0.5, 0.1]","[0.8, 0.4, 0.2]","[u'black', u'red', u'blue']","[u'left', u'middle', u'right']","[0.8, 0.4, 0.2]","[u'high', u'low', u'medium']","red",50,"middle","low","False","False",295,8950,NA
"A3FBC5W56LKQXL","Thu Oct 29 2020 15:46:00 GMT-0400 (Eastern Daylight Time)","Thu Oct 29 2020 15:53:21 GMT-0400 (Eastern Daylight Time)","Mozilla/5.0 (Windows NT 6.1; Win64; x64) AppleWebKit/537.36 (KHTML, like Gecko) Chrome/86.0.4240.111 Safari/537.36",158,"[0.9, 0.5, 0.1]","[0.8, 0.4, 0.2]","[u'black', u'red', u'blue']","[u'left', u'middle', u'right']","[0.8, 0.4, 0.2]","[u'high', u'low', u'medium']","black",49,"left","high","True","False",376,9050,NA
"A3FBC5W56LKQXL","Thu Oct 29 2020 15:46:00 GMT-0400 (Eastern Daylight Time)","Thu Oct 29 2020 15:53:21 GMT-0400 (Eastern Daylight Time)","Mozilla/5.0 (Windows NT 6.1; Win64; x64) AppleWebKit/537.36 (KHTML, like Gecko) Chrome/86.0.4240.111 Safari/537.36",159,"[0.9, 0.5, 0.1]","[0.8, 0.4, 0.2]","[u'black', u'red', u'blue']","[u'left', u'middle', u'right']","[0.8, 0.4, 0.2]","[u'high', u'low', u'medium']","black",49,"left","high","False","False",359,9000,NA
"A3FBC5W56LKQXL","Thu Oct 29 2020 15:46:00 GMT-0400 (Eastern Daylight Time)","Thu Oct 29 2020 15:53:21 GMT-0400 (Eastern Daylight Time)","Mozilla/5.0 (Windows NT 6.1; Win64; x64) AppleWebKit/537.36 (KHTML, like Gecko) Chrome/86.0.4240.111 Safari/537.36",160,"[0.9, 0.5, 0.1]","[0.8, 0.4, 0.2]","[u'black', u'red', u'blue']","[u'left', u'middle', u'right']","[0.8, 0.4, 0.2]","[u'high', u'low', u'medium']","red",50,"middle","low","False","False",266,8950,NA
