"src_subject_id","start_time","end_time","browser","index","first_half_probabilities","second_half_probabilities","deck_color","deck_position","deck_probabilities","deck_contingencies","response_color","key_press","response_position","response_probability","reward_type","trial_type","rt","reward_tally","exclusion_reason"
"A3RKG5PZN97RD5","Fri Oct 30 2020 09:37:56 GMT-0500 (Central Daylight Time)","Fri Oct 30 2020 09:44:30 GMT-0500 (Central Daylight Time)","Mozilla/5.0 (Windows NT 6.1; Win64; x64) AppleWebKit/537.36 (KHTML, like Gecko) Chrome/86.0.4240.111 Safari/537.36",1,"[0.9, 0.5, 0.1]","[0.8, 0.4, 0.2]","[u'black', u'red', u'blue']","[u'left', u'middle', u'right']","[0.9, 0.5, 0.1]","[u'medium', u'low', u'high']","blue",51,"right","high","True","False",815,100,NA
"A3RKG5PZN97RD5","Fri Oct 30 2020 09:37:56 GMT-0500 (Central Daylight Time)","Fri Oct 30 2020 09:44:30 GMT-0500 (Central Daylight Time)","Mozilla/5.0 (Windows NT 6.1; Win64; x64) AppleWebKit/537.36 (KHTML, like Gecko) Chrome/86.0.4240.111 Safari/537.36",2,"[0.9, 0.5, 0.1]","[0.8, 0.4, 0.2]","[u'black', u'red', u'blue']","[u'left', u'middle', u'right']","[0.9, 0.5, 0.1]","[u'medium', u'low', u'high']","black",49,"left","medium","True","False",450,200,NA
"A3RKG5PZN97RD5","Fri Oct 30 2020 09:37:56 GMT-0500 (Central Daylight Time)","Fri Oct 30 2020 09:44:30 GMT-0500 (Central Daylight Time)","Mozilla/5.0 (Windows NT 6.1; Win64; x64) AppleWebKit/537.36 (KHTML, like Gecko) Chrome/86.0.4240.111 Safari/537.36",3,"[0.9, 0.5, 0.1]","[0.8, 0.4, 0.2]","[u'black', u'red', u'blue']","[u'left', u'middle', u'right']","[0.9, 0.5, 0.1]","[u'medium', u'low', u'high']","blue",51,"right","high","True","False",248,300,NA
"A3RKG5PZN97RD5","Fri Oct 30 2020 09:37:56 GMT-0500 (Central Daylight Time)","Fri Oct 30 2020 09:44:30 GMT-0500 (Central Daylight Time)","Mozilla/5.0 (Windows NT 6.1; Win64; x64) AppleWebKit/537.36 (KHTML, like Gecko) Chrome/86.0.4240.111 Safari/537.36",4,"[0.9, 0.5, 0.1]","[0.8, 0.4, 0.2]","[u'black', u'red', u'blue']","[u'left', u'middle', u'right']","[0.9, 0.5, 0.1]","[u'medium', u'low', u'high']","red",50,"middle","low","False","False",233,250,NA
"A3RKG5PZN97RD5","Fri Oct 30 2020 09:37:56 GMT-0500 (Central Daylight Time)","Fri Oct 30 2020 09:44:30 GMT-0500 (Central Daylight Time)","Mozilla/5.0 (Windows NT 6.1; Win64; x64) AppleWebKit/537.36 (KHTML, like Gecko) Chrome/86.0.4240.111 Safari/537.36",5,"[0.9, 0.5, 0.1]","[0.8, 0.4, 0.2]","[u'black', u'red', u'blue']","[u'left', u'middle', u'right']","[0.9, 0.5, 0.1]","[u'medium', u'low', u'high']","blue",51,"right","high","True","False",235,350,NA
"A3RKG5PZN97RD5","Fri Oct 30 2020 09:37:56 GMT-0500 (Central Daylight Time)","Fri Oct 30 2020 09:44:30 GMT-0500 (Central Daylight Time)","Mozilla/5.0 (Windows NT 6.1; Win64; x64) AppleWebKit/537.36 (KHTML, like Gecko) Chrome/86.0.4240.111 Safari/537.36",6,"[0.9, 0.5, 0.1]","[0.8, 0.4, 0.2]","[u'black', u'red', u'blue']","[u'left', u'middle', u'right']","[0.9, 0.5, 0.1]","[u'medium', u'low', u'high']","blue",51,"right","high","True","False",353,450,NA
"A3RKG5PZN97RD5","Fri Oct 30 2020 09:37:56 GMT-0500 (Central Daylight Time)","Fri Oct 30 2020 09:44:30 GMT-0500 (Central Daylight Time)","Mozilla/5.0 (Windows NT 6.1; Win64; x64) AppleWebKit/537.36 (KHTML, like Gecko) Chrome/86.0.4240.111 Safari/537.36",7,"[0.9, 0.5, 0.1]","[0.8, 0.4, 0.2]","[u'black', u'red', u'blue']","[u'left', u'middle', u'right']","[0.9, 0.5, 0.1]","[u'medium', u'low', u'high']","black",49,"left","medium","True","False",275,550,NA
"A3RKG5PZN97RD5","Fri Oct 30 2020 09:37:56 GMT-0500 (Central Daylight Time)","Fri Oct 30 2020 09:44:30 GMT-0500 (Central Daylight Time)","Mozilla/5.0 (Windows NT 6.1; Win64; x64) AppleWebKit/537.36 (KHTML, like Gecko) Chrome/86.0.4240.111 Safari/537.36",8,"[0.9, 0.5, 0.1]","[0.8, 0.4, 0.2]","[u'black', u'red', u'blue']","[u'left', u'middle', u'right']","[0.9, 0.5, 0.1]","[u'medium', u'low', u'high']","blue",51,"right","high","True","False",350,650,NA
"A3RKG5PZN97RD5","Fri Oct 30 2020 09:37:56 GMT-0500 (Central Daylight Time)","Fri Oct 30 2020 09:44:30 GMT-0500 (Central Daylight Time)","Mozilla/5.0 (Windows NT 6.1; Win64; x64) AppleWebKit/537.36 (KHTML, like Gecko) Chrome/86.0.4240.111 Safari/537.36",9,"[0.9, 0.5, 0.1]","[0.8, 0.4, 0.2]","[u'black', u'red', u'blue']","[u'left', u'middle', u'right']","[0.9, 0.5, 0.1]","[u'medium', u'low', u'high']","blue",51,"right","high","True","False",542,750,NA
"A3RKG5PZN97RD5","Fri Oct 30 2020 09:37:56 GMT-0500 (Central Daylight Time)","Fri Oct 30 2020 09:44:30 GMT-0500 (Central Daylight Time)","Mozilla/5.0 (Windows NT 6.1; Win64; x64) AppleWebKit/537.36 (KHTML, like Gecko) Chrome/86.0.4240.111 Safari/537.36",10,"[0.9, 0.5, 0.1]","[0.8, 0.4, 0.2]","[u'black', u'red', u'blue']","[u'left', u'middle', u'right']","[0.9, 0.5, 0.1]","[u'medium', u'low', u'high']","black",49,"left","medium","True","False",135,850,NA
"A3RKG5PZN97RD5","Fri Oct 30 2020 09:37:56 GMT-0500 (Central Daylight Time)","Fri Oct 30 2020 09:44:30 GMT-0500 (Central Daylight Time)","Mozilla/5.0 (Windows NT 6.1; Win64; x64) AppleWebKit/537.36 (KHTML, like Gecko) Chrome/86.0.4240.111 Safari/537.36",11,"[0.9, 0.5, 0.1]","[0.8, 0.4, 0.2]","[u'black', u'red', u'blue']","[u'left', u'middle', u'right']","[0.9, 0.5, 0.1]","[u'medium', u'low', u'high']","black",49,"left","medium","True","False",432,950,NA
"A3RKG5PZN97RD5","Fri Oct 30 2020 09:37:56 GMT-0500 (Central Daylight Time)","Fri Oct 30 2020 09:44:30 GMT-0500 (Central Daylight Time)","Mozilla/5.0 (Windows NT 6.1; Win64; x64) AppleWebKit/537.36 (KHTML, like Gecko) Chrome/86.0.4240.111 Safari/537.36",12,"[0.9, 0.5, 0.1]","[0.8, 0.4, 0.2]","[u'black', u'red', u'blue']","[u'left', u'middle', u'right']","[0.9, 0.5, 0.1]","[u'medium', u'low', u'high']","black",49,"left","medium","False","False",227,900,NA
"A3RKG5PZN97RD5","Fri Oct 30 2020 09:37:56 GMT-0500 (Central Daylight Time)","Fri Oct 30 2020 09:44:30 GMT-0500 (Central Daylight Time)","Mozilla/5.0 (Windows NT 6.1; Win64; x64) AppleWebKit/537.36 (KHTML, like Gecko) Chrome/86.0.4240.111 Safari/537.36",13,"[0.9, 0.5, 0.1]","[0.8, 0.4, 0.2]","[u'black', u'red', u'blue']","[u'left', u'middle', u'right']","[0.9, 0.5, 0.1]","[u'medium', u'low', u'high']","red",50,"middle","low","False","False",334,850,NA
"A3RKG5PZN97RD5","Fri Oct 30 2020 09:37:56 GMT-0500 (Central Daylight Time)","Fri Oct 30 2020 09:44:30 GMT-0500 (Central Daylight Time)","Mozilla/5.0 (Windows NT 6.1; Win64; x64) AppleWebKit/537.36 (KHTML, like Gecko) Chrome/86.0.4240.111 Safari/537.36",14,"[0.9, 0.5, 0.1]","[0.8, 0.4, 0.2]","[u'black', u'red', u'blue']","[u'left', u'middle', u'right']","[0.9, 0.5, 0.1]","[u'medium', u'low', u'high']","black",49,"left","medium","False","False",256,800,NA
"A3RKG5PZN97RD5","Fri Oct 30 2020 09:37:56 GMT-0500 (Central Daylight Time)","Fri Oct 30 2020 09:44:30 GMT-0500 (Central Daylight Time)","Mozilla/5.0 (Windows NT 6.1; Win64; x64) AppleWebKit/537.36 (KHTML, like Gecko) Chrome/86.0.4240.111 Safari/537.36",15,"[0.9, 0.5, 0.1]","[0.8, 0.4, 0.2]","[u'black', u'red', u'blue']","[u'left', u'middle', u'right']","[0.9, 0.5, 0.1]","[u'medium', u'low', u'high']","blue",51,"right","high","True","False",249,900,NA
"A3RKG5PZN97RD5","Fri Oct 30 2020 09:37:56 GMT-0500 (Central Daylight Time)","Fri Oct 30 2020 09:44:30 GMT-0500 (Central Daylight Time)","Mozilla/5.0 (Windows NT 6.1; Win64; x64) AppleWebKit/537.36 (KHTML, like Gecko) Chrome/86.0.4240.111 Safari/537.36",16,"[0.9, 0.5, 0.1]","[0.8, 0.4, 0.2]","[u'black', u'red', u'blue']","[u'left', u'middle', u'right']","[0.9, 0.5, 0.1]","[u'medium', u'low', u'high']","blue",51,"right","high","True","False",392,1000,NA
"A3RKG5PZN97RD5","Fri Oct 30 2020 09:37:56 GMT-0500 (Central Daylight Time)","Fri Oct 30 2020 09:44:30 GMT-0500 (Central Daylight Time)","Mozilla/5.0 (Windows NT 6.1; Win64; x64) AppleWebKit/537.36 (KHTML, like Gecko) Chrome/86.0.4240.111 Safari/537.36",17,"[0.9, 0.5, 0.1]","[0.8, 0.4, 0.2]","[u'black', u'red', u'blue']","[u'left', u'middle', u'right']","[0.9, 0.5, 0.1]","[u'medium', u'low', u'high']","blue",51,"right","high","True","False",335,1100,NA
"A3RKG5PZN97RD5","Fri Oct 30 2020 09:37:56 GMT-0500 (Central Daylight Time)","Fri Oct 30 2020 09:44:30 GMT-0500 (Central Daylight Time)","Mozilla/5.0 (Windows NT 6.1; Win64; x64) AppleWebKit/537.36 (KHTML, like Gecko) Chrome/86.0.4240.111 Safari/537.36",18,"[0.9, 0.5, 0.1]","[0.8, 0.4, 0.2]","[u'black', u'red', u'blue']","[u'left', u'middle', u'right']","[0.9, 0.5, 0.1]","[u'medium', u'low', u'high']","blue",51,"right","high","True","False",298,1200,NA
"A3RKG5PZN97RD5","Fri Oct 30 2020 09:37:56 GMT-0500 (Central Daylight Time)","Fri Oct 30 2020 09:44:30 GMT-0500 (Central Daylight Time)","Mozilla/5.0 (Windows NT 6.1; Win64; x64) AppleWebKit/537.36 (KHTML, like Gecko) Chrome/86.0.4240.111 Safari/537.36",19,"[0.9, 0.5, 0.1]","[0.8, 0.4, 0.2]","[u'black', u'red', u'blue']","[u'left', u'middle', u'right']","[0.9, 0.5, 0.1]","[u'medium', u'low', u'high']","blue",51,"right","high","True","False",385,1300,NA
"A3RKG5PZN97RD5","Fri Oct 30 2020 09:37:56 GMT-0500 (Central Daylight Time)","Fri Oct 30 2020 09:44:30 GMT-0500 (Central Daylight Time)","Mozilla/5.0 (Windows NT 6.1; Win64; x64) AppleWebKit/537.36 (KHTML, like Gecko) Chrome/86.0.4240.111 Safari/537.36",20,"[0.9, 0.5, 0.1]","[0.8, 0.4, 0.2]","[u'black', u'red', u'blue']","[u'left', u'middle', u'right']","[0.9, 0.5, 0.1]","[u'medium', u'low', u'high']","blue",51,"right","high","True","False",372,1400,NA
"A3RKG5PZN97RD5","Fri Oct 30 2020 09:37:56 GMT-0500 (Central Daylight Time)","Fri Oct 30 2020 09:44:30 GMT-0500 (Central Daylight Time)","Mozilla/5.0 (Windows NT 6.1; Win64; x64) AppleWebKit/537.36 (KHTML, like Gecko) Chrome/86.0.4240.111 Safari/537.36",21,"[0.9, 0.5, 0.1]","[0.8, 0.4, 0.2]","[u'black', u'red', u'blue']","[u'left', u'middle', u'right']","[0.9, 0.5, 0.1]","[u'medium', u'low', u'high']","blue",51,"right","high","True","False",508,1500,NA
"A3RKG5PZN97RD5","Fri Oct 30 2020 09:37:56 GMT-0500 (Central Daylight Time)","Fri Oct 30 2020 09:44:30 GMT-0500 (Central Daylight Time)","Mozilla/5.0 (Windows NT 6.1; Win64; x64) AppleWebKit/537.36 (KHTML, like Gecko) Chrome/86.0.4240.111 Safari/537.36",22,"[0.9, 0.5, 0.1]","[0.8, 0.4, 0.2]","[u'black', u'red', u'blue']","[u'left', u'middle', u'right']","[0.9, 0.5, 0.1]","[u'medium', u'low', u'high']","blue",51,"right","high","True","False",325,1600,NA
"A3RKG5PZN97RD5","Fri Oct 30 2020 09:37:56 GMT-0500 (Central Daylight Time)","Fri Oct 30 2020 09:44:30 GMT-0500 (Central Daylight Time)","Mozilla/5.0 (Windows NT 6.1; Win64; x64) AppleWebKit/537.36 (KHTML, like Gecko) Chrome/86.0.4240.111 Safari/537.36",23,"[0.9, 0.5, 0.1]","[0.8, 0.4, 0.2]","[u'black', u'red', u'blue']","[u'left', u'middle', u'right']","[0.9, 0.5, 0.1]","[u'medium', u'low', u'high']","blue",51,"right","high","True","True",359,1700,NA
"A3RKG5PZN97RD5","Fri Oct 30 2020 09:37:56 GMT-0500 (Central Daylight Time)","Fri Oct 30 2020 09:44:30 GMT-0500 (Central Daylight Time)","Mozilla/5.0 (Windows NT 6.1; Win64; x64) AppleWebKit/537.36 (KHTML, like Gecko) Chrome/86.0.4240.111 Safari/537.36",24,"[0.9, 0.5, 0.1]","[0.8, 0.4, 0.2]","[u'black', u'red', u'blue']","[u'left', u'middle', u'right']","[0.9, 0.5, 0.1]","[u'low', u'high', u'medium']","blue",51,"right","medium","False","False",358,1650,NA
"A3RKG5PZN97RD5","Fri Oct 30 2020 09:37:56 GMT-0500 (Central Daylight Time)","Fri Oct 30 2020 09:44:30 GMT-0500 (Central Daylight Time)","Mozilla/5.0 (Windows NT 6.1; Win64; x64) AppleWebKit/537.36 (KHTML, like Gecko) Chrome/86.0.4240.111 Safari/537.36",25,"[0.9, 0.5, 0.1]","[0.8, 0.4, 0.2]","[u'black', u'red', u'blue']","[u'left', u'middle', u'right']","[0.9, 0.5, 0.1]","[u'low', u'high', u'medium']","red",50,"middle","high","True","False",287,1750,NA
"A3RKG5PZN97RD5","Fri Oct 30 2020 09:37:56 GMT-0500 (Central Daylight Time)","Fri Oct 30 2020 09:44:30 GMT-0500 (Central Daylight Time)","Mozilla/5.0 (Windows NT 6.1; Win64; x64) AppleWebKit/537.36 (KHTML, like Gecko) Chrome/86.0.4240.111 Safari/537.36",26,"[0.9, 0.5, 0.1]","[0.8, 0.4, 0.2]","[u'black', u'red', u'blue']","[u'left', u'middle', u'right']","[0.9, 0.5, 0.1]","[u'low', u'high', u'medium']","red",50,"middle","high","True","False",258,1850,NA
"A3RKG5PZN97RD5","Fri Oct 30 2020 09:37:56 GMT-0500 (Central Daylight Time)","Fri Oct 30 2020 09:44:30 GMT-0500 (Central Daylight Time)","Mozilla/5.0 (Windows NT 6.1; Win64; x64) AppleWebKit/537.36 (KHTML, like Gecko) Chrome/86.0.4240.111 Safari/537.36",27,"[0.9, 0.5, 0.1]","[0.8, 0.4, 0.2]","[u'black', u'red', u'blue']","[u'left', u'middle', u'right']","[0.9, 0.5, 0.1]","[u'low', u'high', u'medium']","red",50,"middle","high","True","False",337,1950,NA
"A3RKG5PZN97RD5","Fri Oct 30 2020 09:37:56 GMT-0500 (Central Daylight Time)","Fri Oct 30 2020 09:44:30 GMT-0500 (Central Daylight Time)","Mozilla/5.0 (Windows NT 6.1; Win64; x64) AppleWebKit/537.36 (KHTML, like Gecko) Chrome/86.0.4240.111 Safari/537.36",28,"[0.9, 0.5, 0.1]","[0.8, 0.4, 0.2]","[u'black', u'red', u'blue']","[u'left', u'middle', u'right']","[0.9, 0.5, 0.1]","[u'low', u'high', u'medium']","red",50,"middle","high","True","False",311,2050,NA
"A3RKG5PZN97RD5","Fri Oct 30 2020 09:37:56 GMT-0500 (Central Daylight Time)","Fri Oct 30 2020 09:44:30 GMT-0500 (Central Daylight Time)","Mozilla/5.0 (Windows NT 6.1; Win64; x64) AppleWebKit/537.36 (KHTML, like Gecko) Chrome/86.0.4240.111 Safari/537.36",29,"[0.9, 0.5, 0.1]","[0.8, 0.4, 0.2]","[u'black', u'red', u'blue']","[u'left', u'middle', u'right']","[0.9, 0.5, 0.1]","[u'low', u'high', u'medium']","red",50,"middle","high","True","False",306,2150,NA
"A3RKG5PZN97RD5","Fri Oct 30 2020 09:37:56 GMT-0500 (Central Daylight Time)","Fri Oct 30 2020 09:44:30 GMT-0500 (Central Daylight Time)","Mozilla/5.0 (Windows NT 6.1; Win64; x64) AppleWebKit/537.36 (KHTML, like Gecko) Chrome/86.0.4240.111 Safari/537.36",30,"[0.9, 0.5, 0.1]","[0.8, 0.4, 0.2]","[u'black', u'red', u'blue']","[u'left', u'middle', u'right']","[0.9, 0.5, 0.1]","[u'low', u'high', u'medium']","red",50,"middle","high","True","False",272,2250,NA
"A3RKG5PZN97RD5","Fri Oct 30 2020 09:37:56 GMT-0500 (Central Daylight Time)","Fri Oct 30 2020 09:44:30 GMT-0500 (Central Daylight Time)","Mozilla/5.0 (Windows NT 6.1; Win64; x64) AppleWebKit/537.36 (KHTML, like Gecko) Chrome/86.0.4240.111 Safari/537.36",31,"[0.9, 0.5, 0.1]","[0.8, 0.4, 0.2]","[u'black', u'red', u'blue']","[u'left', u'middle', u'right']","[0.9, 0.5, 0.1]","[u'low', u'high', u'medium']","red",50,"middle","high","True","False",351,2350,NA
"A3RKG5PZN97RD5","Fri Oct 30 2020 09:37:56 GMT-0500 (Central Daylight Time)","Fri Oct 30 2020 09:44:30 GMT-0500 (Central Daylight Time)","Mozilla/5.0 (Windows NT 6.1; Win64; x64) AppleWebKit/537.36 (KHTML, like Gecko) Chrome/86.0.4240.111 Safari/537.36",32,"[0.9, 0.5, 0.1]","[0.8, 0.4, 0.2]","[u'black', u'red', u'blue']","[u'left', u'middle', u'right']","[0.9, 0.5, 0.1]","[u'low', u'high', u'medium']","red",50,"middle","high","True","False",323,2450,NA
"A3RKG5PZN97RD5","Fri Oct 30 2020 09:37:56 GMT-0500 (Central Daylight Time)","Fri Oct 30 2020 09:44:30 GMT-0500 (Central Daylight Time)","Mozilla/5.0 (Windows NT 6.1; Win64; x64) AppleWebKit/537.36 (KHTML, like Gecko) Chrome/86.0.4240.111 Safari/537.36",33,"[0.9, 0.5, 0.1]","[0.8, 0.4, 0.2]","[u'black', u'red', u'blue']","[u'left', u'middle', u'right']","[0.9, 0.5, 0.1]","[u'low', u'high', u'medium']","red",50,"middle","high","True","True",304,2550,NA
"A3RKG5PZN97RD5","Fri Oct 30 2020 09:37:56 GMT-0500 (Central Daylight Time)","Fri Oct 30 2020 09:44:30 GMT-0500 (Central Daylight Time)","Mozilla/5.0 (Windows NT 6.1; Win64; x64) AppleWebKit/537.36 (KHTML, like Gecko) Chrome/86.0.4240.111 Safari/537.36",34,"[0.9, 0.5, 0.1]","[0.8, 0.4, 0.2]","[u'black', u'red', u'blue']","[u'left', u'middle', u'right']","[0.9, 0.5, 0.1]","[u'low', u'medium', u'high']","red",50,"middle","medium","True","False",321,2650,NA
"A3RKG5PZN97RD5","Fri Oct 30 2020 09:37:56 GMT-0500 (Central Daylight Time)","Fri Oct 30 2020 09:44:30 GMT-0500 (Central Daylight Time)","Mozilla/5.0 (Windows NT 6.1; Win64; x64) AppleWebKit/537.36 (KHTML, like Gecko) Chrome/86.0.4240.111 Safari/537.36",35,"[0.9, 0.5, 0.1]","[0.8, 0.4, 0.2]","[u'black', u'red', u'blue']","[u'left', u'middle', u'right']","[0.9, 0.5, 0.1]","[u'low', u'medium', u'high']","red",50,"middle","medium","True","False",311,2750,NA
"A3RKG5PZN97RD5","Fri Oct 30 2020 09:37:56 GMT-0500 (Central Daylight Time)","Fri Oct 30 2020 09:44:30 GMT-0500 (Central Daylight Time)","Mozilla/5.0 (Windows NT 6.1; Win64; x64) AppleWebKit/537.36 (KHTML, like Gecko) Chrome/86.0.4240.111 Safari/537.36",36,"[0.9, 0.5, 0.1]","[0.8, 0.4, 0.2]","[u'black', u'red', u'blue']","[u'left', u'middle', u'right']","[0.9, 0.5, 0.1]","[u'low', u'medium', u'high']","red",50,"middle","medium","False","False",247,2700,NA
"A3RKG5PZN97RD5","Fri Oct 30 2020 09:37:56 GMT-0500 (Central Daylight Time)","Fri Oct 30 2020 09:44:30 GMT-0500 (Central Daylight Time)","Mozilla/5.0 (Windows NT 6.1; Win64; x64) AppleWebKit/537.36 (KHTML, like Gecko) Chrome/86.0.4240.111 Safari/537.36",37,"[0.9, 0.5, 0.1]","[0.8, 0.4, 0.2]","[u'black', u'red', u'blue']","[u'left', u'middle', u'right']","[0.9, 0.5, 0.1]","[u'low', u'medium', u'high']","black",49,"left","low","False","False",483,2650,NA
"A3RKG5PZN97RD5","Fri Oct 30 2020 09:37:56 GMT-0500 (Central Daylight Time)","Fri Oct 30 2020 09:44:30 GMT-0500 (Central Daylight Time)","Mozilla/5.0 (Windows NT 6.1; Win64; x64) AppleWebKit/537.36 (KHTML, like Gecko) Chrome/86.0.4240.111 Safari/537.36",38,"[0.9, 0.5, 0.1]","[0.8, 0.4, 0.2]","[u'black', u'red', u'blue']","[u'left', u'middle', u'right']","[0.9, 0.5, 0.1]","[u'low', u'medium', u'high']","blue",51,"right","high","True","False",246,2750,NA
"A3RKG5PZN97RD5","Fri Oct 30 2020 09:37:56 GMT-0500 (Central Daylight Time)","Fri Oct 30 2020 09:44:30 GMT-0500 (Central Daylight Time)","Mozilla/5.0 (Windows NT 6.1; Win64; x64) AppleWebKit/537.36 (KHTML, like Gecko) Chrome/86.0.4240.111 Safari/537.36",39,"[0.9, 0.5, 0.1]","[0.8, 0.4, 0.2]","[u'black', u'red', u'blue']","[u'left', u'middle', u'right']","[0.9, 0.5, 0.1]","[u'low', u'medium', u'high']","blue",51,"right","high","False","False",308,2700,NA
"A3RKG5PZN97RD5","Fri Oct 30 2020 09:37:56 GMT-0500 (Central Daylight Time)","Fri Oct 30 2020 09:44:30 GMT-0500 (Central Daylight Time)","Mozilla/5.0 (Windows NT 6.1; Win64; x64) AppleWebKit/537.36 (KHTML, like Gecko) Chrome/86.0.4240.111 Safari/537.36",40,"[0.9, 0.5, 0.1]","[0.8, 0.4, 0.2]","[u'black', u'red', u'blue']","[u'left', u'middle', u'right']","[0.9, 0.5, 0.1]","[u'low', u'medium', u'high']","blue",51,"right","high","True","False",351,2800,NA
"A3RKG5PZN97RD5","Fri Oct 30 2020 09:37:56 GMT-0500 (Central Daylight Time)","Fri Oct 30 2020 09:44:30 GMT-0500 (Central Daylight Time)","Mozilla/5.0 (Windows NT 6.1; Win64; x64) AppleWebKit/537.36 (KHTML, like Gecko) Chrome/86.0.4240.111 Safari/537.36",41,"[0.9, 0.5, 0.1]","[0.8, 0.4, 0.2]","[u'black', u'red', u'blue']","[u'left', u'middle', u'right']","[0.9, 0.5, 0.1]","[u'high', u'low', u'medium']","red",50,"middle","low","False","False",751,2750,NA
"A3RKG5PZN97RD5","Fri Oct 30 2020 09:37:56 GMT-0500 (Central Daylight Time)","Fri Oct 30 2020 09:44:30 GMT-0500 (Central Daylight Time)","Mozilla/5.0 (Windows NT 6.1; Win64; x64) AppleWebKit/537.36 (KHTML, like Gecko) Chrome/86.0.4240.111 Safari/537.36",42,"[0.9, 0.5, 0.1]","[0.8, 0.4, 0.2]","[u'black', u'red', u'blue']","[u'left', u'middle', u'right']","[0.9, 0.5, 0.1]","[u'high', u'low', u'medium']","black",49,"left","high","True","False",502,2850,NA
"A3RKG5PZN97RD5","Fri Oct 30 2020 09:37:56 GMT-0500 (Central Daylight Time)","Fri Oct 30 2020 09:44:30 GMT-0500 (Central Daylight Time)","Mozilla/5.0 (Windows NT 6.1; Win64; x64) AppleWebKit/537.36 (KHTML, like Gecko) Chrome/86.0.4240.111 Safari/537.36",43,"[0.9, 0.5, 0.1]","[0.8, 0.4, 0.2]","[u'black', u'red', u'blue']","[u'left', u'middle', u'right']","[0.9, 0.5, 0.1]","[u'high', u'low', u'medium']","black",49,"left","high","True","False",326,2950,NA
"A3RKG5PZN97RD5","Fri Oct 30 2020 09:37:56 GMT-0500 (Central Daylight Time)","Fri Oct 30 2020 09:44:30 GMT-0500 (Central Daylight Time)","Mozilla/5.0 (Windows NT 6.1; Win64; x64) AppleWebKit/537.36 (KHTML, like Gecko) Chrome/86.0.4240.111 Safari/537.36",44,"[0.9, 0.5, 0.1]","[0.8, 0.4, 0.2]","[u'black', u'red', u'blue']","[u'left', u'middle', u'right']","[0.9, 0.5, 0.1]","[u'high', u'low', u'medium']","black",49,"left","high","True","False",294,3050,NA
"A3RKG5PZN97RD5","Fri Oct 30 2020 09:37:56 GMT-0500 (Central Daylight Time)","Fri Oct 30 2020 09:44:30 GMT-0500 (Central Daylight Time)","Mozilla/5.0 (Windows NT 6.1; Win64; x64) AppleWebKit/537.36 (KHTML, like Gecko) Chrome/86.0.4240.111 Safari/537.36",45,"[0.9, 0.5, 0.1]","[0.8, 0.4, 0.2]","[u'black', u'red', u'blue']","[u'left', u'middle', u'right']","[0.9, 0.5, 0.1]","[u'high', u'low', u'medium']","black",49,"left","high","True","False",416,3150,NA
"A3RKG5PZN97RD5","Fri Oct 30 2020 09:37:56 GMT-0500 (Central Daylight Time)","Fri Oct 30 2020 09:44:30 GMT-0500 (Central Daylight Time)","Mozilla/5.0 (Windows NT 6.1; Win64; x64) AppleWebKit/537.36 (KHTML, like Gecko) Chrome/86.0.4240.111 Safari/537.36",46,"[0.9, 0.5, 0.1]","[0.8, 0.4, 0.2]","[u'black', u'red', u'blue']","[u'left', u'middle', u'right']","[0.9, 0.5, 0.1]","[u'high', u'low', u'medium']","black",49,"left","high","False","False",270,3100,NA
"A3RKG5PZN97RD5","Fri Oct 30 2020 09:37:56 GMT-0500 (Central Daylight Time)","Fri Oct 30 2020 09:44:30 GMT-0500 (Central Daylight Time)","Mozilla/5.0 (Windows NT 6.1; Win64; x64) AppleWebKit/537.36 (KHTML, like Gecko) Chrome/86.0.4240.111 Safari/537.36",47,"[0.9, 0.5, 0.1]","[0.8, 0.4, 0.2]","[u'black', u'red', u'blue']","[u'left', u'middle', u'right']","[0.9, 0.5, 0.1]","[u'high', u'low', u'medium']","blue",51,"right","medium","False","False",297,3050,NA
"A3RKG5PZN97RD5","Fri Oct 30 2020 09:37:56 GMT-0500 (Central Daylight Time)","Fri Oct 30 2020 09:44:30 GMT-0500 (Central Daylight Time)","Mozilla/5.0 (Windows NT 6.1; Win64; x64) AppleWebKit/537.36 (KHTML, like Gecko) Chrome/86.0.4240.111 Safari/537.36",48,"[0.9, 0.5, 0.1]","[0.8, 0.4, 0.2]","[u'black', u'red', u'blue']","[u'left', u'middle', u'right']","[0.9, 0.5, 0.1]","[u'high', u'low', u'medium']","red",50,"middle","low","False","False",263,3000,NA
"A3RKG5PZN97RD5","Fri Oct 30 2020 09:37:56 GMT-0500 (Central Daylight Time)","Fri Oct 30 2020 09:44:30 GMT-0500 (Central Daylight Time)","Mozilla/5.0 (Windows NT 6.1; Win64; x64) AppleWebKit/537.36 (KHTML, like Gecko) Chrome/86.0.4240.111 Safari/537.36",49,"[0.9, 0.5, 0.1]","[0.8, 0.4, 0.2]","[u'black', u'red', u'blue']","[u'left', u'middle', u'right']","[0.9, 0.5, 0.1]","[u'high', u'low', u'medium']","blue",51,"right","medium","False","False",267,2950,NA
"A3RKG5PZN97RD5","Fri Oct 30 2020 09:37:56 GMT-0500 (Central Daylight Time)","Fri Oct 30 2020 09:44:30 GMT-0500 (Central Daylight Time)","Mozilla/5.0 (Windows NT 6.1; Win64; x64) AppleWebKit/537.36 (KHTML, like Gecko) Chrome/86.0.4240.111 Safari/537.36",50,"[0.9, 0.5, 0.1]","[0.8, 0.4, 0.2]","[u'black', u'red', u'blue']","[u'left', u'middle', u'right']","[0.9, 0.5, 0.1]","[u'high', u'low', u'medium']","black",49,"left","high","True","False",165,3050,NA
"A3RKG5PZN97RD5","Fri Oct 30 2020 09:37:56 GMT-0500 (Central Daylight Time)","Fri Oct 30 2020 09:44:30 GMT-0500 (Central Daylight Time)","Mozilla/5.0 (Windows NT 6.1; Win64; x64) AppleWebKit/537.36 (KHTML, like Gecko) Chrome/86.0.4240.111 Safari/537.36",51,"[0.9, 0.5, 0.1]","[0.8, 0.4, 0.2]","[u'black', u'red', u'blue']","[u'left', u'middle', u'right']","[0.9, 0.5, 0.1]","[u'high', u'low', u'medium']","black",49,"left","high","True","False",221,3150,NA
"A3RKG5PZN97RD5","Fri Oct 30 2020 09:37:56 GMT-0500 (Central Daylight Time)","Fri Oct 30 2020 09:44:30 GMT-0500 (Central Daylight Time)","Mozilla/5.0 (Windows NT 6.1; Win64; x64) AppleWebKit/537.36 (KHTML, like Gecko) Chrome/86.0.4240.111 Safari/537.36",52,"[0.9, 0.5, 0.1]","[0.8, 0.4, 0.2]","[u'black', u'red', u'blue']","[u'left', u'middle', u'right']","[0.9, 0.5, 0.1]","[u'high', u'low', u'medium']","black",49,"left","high","False","False",278,3100,NA
"A3RKG5PZN97RD5","Fri Oct 30 2020 09:37:56 GMT-0500 (Central Daylight Time)","Fri Oct 30 2020 09:44:30 GMT-0500 (Central Daylight Time)","Mozilla/5.0 (Windows NT 6.1; Win64; x64) AppleWebKit/537.36 (KHTML, like Gecko) Chrome/86.0.4240.111 Safari/537.36",53,"[0.9, 0.5, 0.1]","[0.8, 0.4, 0.2]","[u'black', u'red', u'blue']","[u'left', u'middle', u'right']","[0.9, 0.5, 0.1]","[u'high', u'low', u'medium']","blue",51,"right","medium","False","False",164,3050,NA
"A3RKG5PZN97RD5","Fri Oct 30 2020 09:37:56 GMT-0500 (Central Daylight Time)","Fri Oct 30 2020 09:44:30 GMT-0500 (Central Daylight Time)","Mozilla/5.0 (Windows NT 6.1; Win64; x64) AppleWebKit/537.36 (KHTML, like Gecko) Chrome/86.0.4240.111 Safari/537.36",54,"[0.9, 0.5, 0.1]","[0.8, 0.4, 0.2]","[u'black', u'red', u'blue']","[u'left', u'middle', u'right']","[0.9, 0.5, 0.1]","[u'high', u'low', u'medium']","black",49,"left","high","True","False",194,3150,NA
"A3RKG5PZN97RD5","Fri Oct 30 2020 09:37:56 GMT-0500 (Central Daylight Time)","Fri Oct 30 2020 09:44:30 GMT-0500 (Central Daylight Time)","Mozilla/5.0 (Windows NT 6.1; Win64; x64) AppleWebKit/537.36 (KHTML, like Gecko) Chrome/86.0.4240.111 Safari/537.36",55,"[0.9, 0.5, 0.1]","[0.8, 0.4, 0.2]","[u'black', u'red', u'blue']","[u'left', u'middle', u'right']","[0.9, 0.5, 0.1]","[u'high', u'low', u'medium']","black",49,"left","high","True","False",268,3250,NA
"A3RKG5PZN97RD5","Fri Oct 30 2020 09:37:56 GMT-0500 (Central Daylight Time)","Fri Oct 30 2020 09:44:30 GMT-0500 (Central Daylight Time)","Mozilla/5.0 (Windows NT 6.1; Win64; x64) AppleWebKit/537.36 (KHTML, like Gecko) Chrome/86.0.4240.111 Safari/537.36",56,"[0.9, 0.5, 0.1]","[0.8, 0.4, 0.2]","[u'black', u'red', u'blue']","[u'left', u'middle', u'right']","[0.9, 0.5, 0.1]","[u'high', u'low', u'medium']","black",49,"left","high","True","False",272,3350,NA
"A3RKG5PZN97RD5","Fri Oct 30 2020 09:37:56 GMT-0500 (Central Daylight Time)","Fri Oct 30 2020 09:44:30 GMT-0500 (Central Daylight Time)","Mozilla/5.0 (Windows NT 6.1; Win64; x64) AppleWebKit/537.36 (KHTML, like Gecko) Chrome/86.0.4240.111 Safari/537.36",57,"[0.9, 0.5, 0.1]","[0.8, 0.4, 0.2]","[u'black', u'red', u'blue']","[u'left', u'middle', u'right']","[0.9, 0.5, 0.1]","[u'high', u'low', u'medium']","black",49,"left","high","True","False",235,3450,NA
"A3RKG5PZN97RD5","Fri Oct 30 2020 09:37:56 GMT-0500 (Central Daylight Time)","Fri Oct 30 2020 09:44:30 GMT-0500 (Central Daylight Time)","Mozilla/5.0 (Windows NT 6.1; Win64; x64) AppleWebKit/537.36 (KHTML, like Gecko) Chrome/86.0.4240.111 Safari/537.36",58,"[0.9, 0.5, 0.1]","[0.8, 0.4, 0.2]","[u'black', u'red', u'blue']","[u'left', u'middle', u'right']","[0.9, 0.5, 0.1]","[u'high', u'low', u'medium']","black",49,"left","high","True","False",268,3550,NA
"A3RKG5PZN97RD5","Fri Oct 30 2020 09:37:56 GMT-0500 (Central Daylight Time)","Fri Oct 30 2020 09:44:30 GMT-0500 (Central Daylight Time)","Mozilla/5.0 (Windows NT 6.1; Win64; x64) AppleWebKit/537.36 (KHTML, like Gecko) Chrome/86.0.4240.111 Safari/537.36",59,"[0.9, 0.5, 0.1]","[0.8, 0.4, 0.2]","[u'black', u'red', u'blue']","[u'left', u'middle', u'right']","[0.9, 0.5, 0.1]","[u'high', u'low', u'medium']","black",49,"left","high","True","True",269,3650,NA
"A3RKG5PZN97RD5","Fri Oct 30 2020 09:37:56 GMT-0500 (Central Daylight Time)","Fri Oct 30 2020 09:44:30 GMT-0500 (Central Daylight Time)","Mozilla/5.0 (Windows NT 6.1; Win64; x64) AppleWebKit/537.36 (KHTML, like Gecko) Chrome/86.0.4240.111 Safari/537.36",60,"[0.9, 0.5, 0.1]","[0.8, 0.4, 0.2]","[u'black', u'red', u'blue']","[u'left', u'middle', u'right']","[0.9, 0.5, 0.1]","[u'medium', u'high', u'low']","black",49,"left","medium","False","False",303,3600,NA
"A3RKG5PZN97RD5","Fri Oct 30 2020 09:37:56 GMT-0500 (Central Daylight Time)","Fri Oct 30 2020 09:44:30 GMT-0500 (Central Daylight Time)","Mozilla/5.0 (Windows NT 6.1; Win64; x64) AppleWebKit/537.36 (KHTML, like Gecko) Chrome/86.0.4240.111 Safari/537.36",61,"[0.9, 0.5, 0.1]","[0.8, 0.4, 0.2]","[u'black', u'red', u'blue']","[u'left', u'middle', u'right']","[0.9, 0.5, 0.1]","[u'medium', u'high', u'low']","red",50,"middle","high","True","False",273,3700,NA
"A3RKG5PZN97RD5","Fri Oct 30 2020 09:37:56 GMT-0500 (Central Daylight Time)","Fri Oct 30 2020 09:44:30 GMT-0500 (Central Daylight Time)","Mozilla/5.0 (Windows NT 6.1; Win64; x64) AppleWebKit/537.36 (KHTML, like Gecko) Chrome/86.0.4240.111 Safari/537.36",62,"[0.9, 0.5, 0.1]","[0.8, 0.4, 0.2]","[u'black', u'red', u'blue']","[u'left', u'middle', u'right']","[0.9, 0.5, 0.1]","[u'medium', u'high', u'low']","red",50,"middle","high","True","False",339,3800,NA
"A3RKG5PZN97RD5","Fri Oct 30 2020 09:37:56 GMT-0500 (Central Daylight Time)","Fri Oct 30 2020 09:44:30 GMT-0500 (Central Daylight Time)","Mozilla/5.0 (Windows NT 6.1; Win64; x64) AppleWebKit/537.36 (KHTML, like Gecko) Chrome/86.0.4240.111 Safari/537.36",63,"[0.9, 0.5, 0.1]","[0.8, 0.4, 0.2]","[u'black', u'red', u'blue']","[u'left', u'middle', u'right']","[0.9, 0.5, 0.1]","[u'medium', u'high', u'low']","red",50,"middle","high","True","False",269,3900,NA
"A3RKG5PZN97RD5","Fri Oct 30 2020 09:37:56 GMT-0500 (Central Daylight Time)","Fri Oct 30 2020 09:44:30 GMT-0500 (Central Daylight Time)","Mozilla/5.0 (Windows NT 6.1; Win64; x64) AppleWebKit/537.36 (KHTML, like Gecko) Chrome/86.0.4240.111 Safari/537.36",64,"[0.9, 0.5, 0.1]","[0.8, 0.4, 0.2]","[u'black', u'red', u'blue']","[u'left', u'middle', u'right']","[0.9, 0.5, 0.1]","[u'medium', u'high', u'low']","red",50,"middle","high","True","False",275,4000,NA
"A3RKG5PZN97RD5","Fri Oct 30 2020 09:37:56 GMT-0500 (Central Daylight Time)","Fri Oct 30 2020 09:44:30 GMT-0500 (Central Daylight Time)","Mozilla/5.0 (Windows NT 6.1; Win64; x64) AppleWebKit/537.36 (KHTML, like Gecko) Chrome/86.0.4240.111 Safari/537.36",65,"[0.9, 0.5, 0.1]","[0.8, 0.4, 0.2]","[u'black', u'red', u'blue']","[u'left', u'middle', u'right']","[0.9, 0.5, 0.1]","[u'medium', u'high', u'low']","red",50,"middle","high","True","False",268,4100,NA
"A3RKG5PZN97RD5","Fri Oct 30 2020 09:37:56 GMT-0500 (Central Daylight Time)","Fri Oct 30 2020 09:44:30 GMT-0500 (Central Daylight Time)","Mozilla/5.0 (Windows NT 6.1; Win64; x64) AppleWebKit/537.36 (KHTML, like Gecko) Chrome/86.0.4240.111 Safari/537.36",66,"[0.9, 0.5, 0.1]","[0.8, 0.4, 0.2]","[u'black', u'red', u'blue']","[u'left', u'middle', u'right']","[0.9, 0.5, 0.1]","[u'medium', u'high', u'low']","red",50,"middle","high","True","False",245,4200,NA
"A3RKG5PZN97RD5","Fri Oct 30 2020 09:37:56 GMT-0500 (Central Daylight Time)","Fri Oct 30 2020 09:44:30 GMT-0500 (Central Daylight Time)","Mozilla/5.0 (Windows NT 6.1; Win64; x64) AppleWebKit/537.36 (KHTML, like Gecko) Chrome/86.0.4240.111 Safari/537.36",67,"[0.9, 0.5, 0.1]","[0.8, 0.4, 0.2]","[u'black', u'red', u'blue']","[u'left', u'middle', u'right']","[0.9, 0.5, 0.1]","[u'medium', u'high', u'low']","red",50,"middle","high","True","False",267,4300,NA
"A3RKG5PZN97RD5","Fri Oct 30 2020 09:37:56 GMT-0500 (Central Daylight Time)","Fri Oct 30 2020 09:44:30 GMT-0500 (Central Daylight Time)","Mozilla/5.0 (Windows NT 6.1; Win64; x64) AppleWebKit/537.36 (KHTML, like Gecko) Chrome/86.0.4240.111 Safari/537.36",68,"[0.9, 0.5, 0.1]","[0.8, 0.4, 0.2]","[u'black', u'red', u'blue']","[u'left', u'middle', u'right']","[0.9, 0.5, 0.1]","[u'medium', u'high', u'low']","blue",51,"right","low","False","False",568,4250,NA
"A3RKG5PZN97RD5","Fri Oct 30 2020 09:37:56 GMT-0500 (Central Daylight Time)","Fri Oct 30 2020 09:44:30 GMT-0500 (Central Daylight Time)","Mozilla/5.0 (Windows NT 6.1; Win64; x64) AppleWebKit/537.36 (KHTML, like Gecko) Chrome/86.0.4240.111 Safari/537.36",69,"[0.9, 0.5, 0.1]","[0.8, 0.4, 0.2]","[u'black', u'red', u'blue']","[u'left', u'middle', u'right']","[0.9, 0.5, 0.1]","[u'medium', u'high', u'low']","blue",51,"right","low","False","False",304,4200,NA
"A3RKG5PZN97RD5","Fri Oct 30 2020 09:37:56 GMT-0500 (Central Daylight Time)","Fri Oct 30 2020 09:44:30 GMT-0500 (Central Daylight Time)","Mozilla/5.0 (Windows NT 6.1; Win64; x64) AppleWebKit/537.36 (KHTML, like Gecko) Chrome/86.0.4240.111 Safari/537.36",70,"[0.9, 0.5, 0.1]","[0.8, 0.4, 0.2]","[u'black', u'red', u'blue']","[u'left', u'middle', u'right']","[0.9, 0.5, 0.1]","[u'medium', u'high', u'low']","red",50,"middle","high","True","False",286,4300,NA
"A3RKG5PZN97RD5","Fri Oct 30 2020 09:37:56 GMT-0500 (Central Daylight Time)","Fri Oct 30 2020 09:44:30 GMT-0500 (Central Daylight Time)","Mozilla/5.0 (Windows NT 6.1; Win64; x64) AppleWebKit/537.36 (KHTML, like Gecko) Chrome/86.0.4240.111 Safari/537.36",71,"[0.9, 0.5, 0.1]","[0.8, 0.4, 0.2]","[u'black', u'red', u'blue']","[u'left', u'middle', u'right']","[0.9, 0.5, 0.1]","[u'medium', u'high', u'low']","red",50,"middle","high","False","False",307,4250,NA
"A3RKG5PZN97RD5","Fri Oct 30 2020 09:37:56 GMT-0500 (Central Daylight Time)","Fri Oct 30 2020 09:44:30 GMT-0500 (Central Daylight Time)","Mozilla/5.0 (Windows NT 6.1; Win64; x64) AppleWebKit/537.36 (KHTML, like Gecko) Chrome/86.0.4240.111 Safari/537.36",72,"[0.9, 0.5, 0.1]","[0.8, 0.4, 0.2]","[u'black', u'red', u'blue']","[u'left', u'middle', u'right']","[0.9, 0.5, 0.1]","[u'medium', u'high', u'low']","blue",51,"right","low","False","False",297,4200,NA
"A3RKG5PZN97RD5","Fri Oct 30 2020 09:37:56 GMT-0500 (Central Daylight Time)","Fri Oct 30 2020 09:44:30 GMT-0500 (Central Daylight Time)","Mozilla/5.0 (Windows NT 6.1; Win64; x64) AppleWebKit/537.36 (KHTML, like Gecko) Chrome/86.0.4240.111 Safari/537.36",73,"[0.9, 0.5, 0.1]","[0.8, 0.4, 0.2]","[u'black', u'red', u'blue']","[u'left', u'middle', u'right']","[0.9, 0.5, 0.1]","[u'medium', u'high', u'low']","black",49,"left","medium","True","False",241,4300,NA
"A3RKG5PZN97RD5","Fri Oct 30 2020 09:37:56 GMT-0500 (Central Daylight Time)","Fri Oct 30 2020 09:44:30 GMT-0500 (Central Daylight Time)","Mozilla/5.0 (Windows NT 6.1; Win64; x64) AppleWebKit/537.36 (KHTML, like Gecko) Chrome/86.0.4240.111 Safari/537.36",74,"[0.9, 0.5, 0.1]","[0.8, 0.4, 0.2]","[u'black', u'red', u'blue']","[u'left', u'middle', u'right']","[0.9, 0.5, 0.1]","[u'medium', u'high', u'low']","black",49,"left","medium","False","False",201,4250,NA
"A3RKG5PZN97RD5","Fri Oct 30 2020 09:37:56 GMT-0500 (Central Daylight Time)","Fri Oct 30 2020 09:44:30 GMT-0500 (Central Daylight Time)","Mozilla/5.0 (Windows NT 6.1; Win64; x64) AppleWebKit/537.36 (KHTML, like Gecko) Chrome/86.0.4240.111 Safari/537.36",75,"[0.9, 0.5, 0.1]","[0.8, 0.4, 0.2]","[u'black', u'red', u'blue']","[u'left', u'middle', u'right']","[0.9, 0.5, 0.1]","[u'medium', u'high', u'low']","black",49,"left","medium","True","False",185,4350,NA
"A3RKG5PZN97RD5","Fri Oct 30 2020 09:37:56 GMT-0500 (Central Daylight Time)","Fri Oct 30 2020 09:44:30 GMT-0500 (Central Daylight Time)","Mozilla/5.0 (Windows NT 6.1; Win64; x64) AppleWebKit/537.36 (KHTML, like Gecko) Chrome/86.0.4240.111 Safari/537.36",76,"[0.9, 0.5, 0.1]","[0.8, 0.4, 0.2]","[u'black', u'red', u'blue']","[u'left', u'middle', u'right']","[0.9, 0.5, 0.1]","[u'medium', u'high', u'low']","black",49,"left","medium","True","False",276,4450,NA
"A3RKG5PZN97RD5","Fri Oct 30 2020 09:37:56 GMT-0500 (Central Daylight Time)","Fri Oct 30 2020 09:44:30 GMT-0500 (Central Daylight Time)","Mozilla/5.0 (Windows NT 6.1; Win64; x64) AppleWebKit/537.36 (KHTML, like Gecko) Chrome/86.0.4240.111 Safari/537.36",77,"[0.9, 0.5, 0.1]","[0.8, 0.4, 0.2]","[u'black', u'red', u'blue']","[u'left', u'middle', u'right']","[0.9, 0.5, 0.1]","[u'medium', u'high', u'low']","black",49,"left","medium","False","False",234,4400,NA
"A3RKG5PZN97RD5","Fri Oct 30 2020 09:37:56 GMT-0500 (Central Daylight Time)","Fri Oct 30 2020 09:44:30 GMT-0500 (Central Daylight Time)","Mozilla/5.0 (Windows NT 6.1; Win64; x64) AppleWebKit/537.36 (KHTML, like Gecko) Chrome/86.0.4240.111 Safari/537.36",78,"[0.9, 0.5, 0.1]","[0.8, 0.4, 0.2]","[u'black', u'red', u'blue']","[u'left', u'middle', u'right']","[0.9, 0.5, 0.1]","[u'medium', u'high', u'low']","red",50,"middle","high","True","False",224,4500,NA
"A3RKG5PZN97RD5","Fri Oct 30 2020 09:37:56 GMT-0500 (Central Daylight Time)","Fri Oct 30 2020 09:44:30 GMT-0500 (Central Daylight Time)","Mozilla/5.0 (Windows NT 6.1; Win64; x64) AppleWebKit/537.36 (KHTML, like Gecko) Chrome/86.0.4240.111 Safari/537.36",79,"[0.9, 0.5, 0.1]","[0.8, 0.4, 0.2]","[u'black', u'red', u'blue']","[u'left', u'middle', u'right']","[0.9, 0.5, 0.1]","[u'medium', u'high', u'low']","red",50,"middle","high","True","False",280,4600,NA
"A3RKG5PZN97RD5","Fri Oct 30 2020 09:37:56 GMT-0500 (Central Daylight Time)","Fri Oct 30 2020 09:44:30 GMT-0500 (Central Daylight Time)","Mozilla/5.0 (Windows NT 6.1; Win64; x64) AppleWebKit/537.36 (KHTML, like Gecko) Chrome/86.0.4240.111 Safari/537.36",80,"[0.9, 0.5, 0.1]","[0.8, 0.4, 0.2]","[u'black', u'red', u'blue']","[u'left', u'middle', u'right']","[0.9, 0.5, 0.1]","[u'medium', u'high', u'low']","red",50,"middle","high","True","False",286,4700,NA
"A3RKG5PZN97RD5","Fri Oct 30 2020 09:37:56 GMT-0500 (Central Daylight Time)","Fri Oct 30 2020 09:44:30 GMT-0500 (Central Daylight Time)","Mozilla/5.0 (Windows NT 6.1; Win64; x64) AppleWebKit/537.36 (KHTML, like Gecko) Chrome/86.0.4240.111 Safari/537.36",81,"[0.9, 0.5, 0.1]","[0.8, 0.4, 0.2]","[u'black', u'red', u'blue']","[u'left', u'middle', u'right']","[0.8, 0.4, 0.2]","[u'medium', u'low', u'high']","red",50,"middle","low","False","False",961,4650,NA
"A3RKG5PZN97RD5","Fri Oct 30 2020 09:37:56 GMT-0500 (Central Daylight Time)","Fri Oct 30 2020 09:44:30 GMT-0500 (Central Daylight Time)","Mozilla/5.0 (Windows NT 6.1; Win64; x64) AppleWebKit/537.36 (KHTML, like Gecko) Chrome/86.0.4240.111 Safari/537.36",82,"[0.9, 0.5, 0.1]","[0.8, 0.4, 0.2]","[u'black', u'red', u'blue']","[u'left', u'middle', u'right']","[0.8, 0.4, 0.2]","[u'medium', u'low', u'high']","black",49,"left","medium","True","False",369,4750,NA
"A3RKG5PZN97RD5","Fri Oct 30 2020 09:37:56 GMT-0500 (Central Daylight Time)","Fri Oct 30 2020 09:44:30 GMT-0500 (Central Daylight Time)","Mozilla/5.0 (Windows NT 6.1; Win64; x64) AppleWebKit/537.36 (KHTML, like Gecko) Chrome/86.0.4240.111 Safari/537.36",83,"[0.9, 0.5, 0.1]","[0.8, 0.4, 0.2]","[u'black', u'red', u'blue']","[u'left', u'middle', u'right']","[0.8, 0.4, 0.2]","[u'medium', u'low', u'high']","black",49,"left","medium","False","False",260,4700,NA
"A3RKG5PZN97RD5","Fri Oct 30 2020 09:37:56 GMT-0500 (Central Daylight Time)","Fri Oct 30 2020 09:44:30 GMT-0500 (Central Daylight Time)","Mozilla/5.0 (Windows NT 6.1; Win64; x64) AppleWebKit/537.36 (KHTML, like Gecko) Chrome/86.0.4240.111 Safari/537.36",84,"[0.9, 0.5, 0.1]","[0.8, 0.4, 0.2]","[u'black', u'red', u'blue']","[u'left', u'middle', u'right']","[0.8, 0.4, 0.2]","[u'medium', u'low', u'high']","blue",51,"right","high","True","False",228,4800,NA
"A3RKG5PZN97RD5","Fri Oct 30 2020 09:37:56 GMT-0500 (Central Daylight Time)","Fri Oct 30 2020 09:44:30 GMT-0500 (Central Daylight Time)","Mozilla/5.0 (Windows NT 6.1; Win64; x64) AppleWebKit/537.36 (KHTML, like Gecko) Chrome/86.0.4240.111 Safari/537.36",85,"[0.9, 0.5, 0.1]","[0.8, 0.4, 0.2]","[u'black', u'red', u'blue']","[u'left', u'middle', u'right']","[0.8, 0.4, 0.2]","[u'medium', u'low', u'high']","blue",51,"right","high","True","False",246,4900,NA
"A3RKG5PZN97RD5","Fri Oct 30 2020 09:37:56 GMT-0500 (Central Daylight Time)","Fri Oct 30 2020 09:44:30 GMT-0500 (Central Daylight Time)","Mozilla/5.0 (Windows NT 6.1; Win64; x64) AppleWebKit/537.36 (KHTML, like Gecko) Chrome/86.0.4240.111 Safari/537.36",86,"[0.9, 0.5, 0.1]","[0.8, 0.4, 0.2]","[u'black', u'red', u'blue']","[u'left', u'middle', u'right']","[0.8, 0.4, 0.2]","[u'medium', u'low', u'high']","blue",51,"right","high","True","False",297,5000,NA
"A3RKG5PZN97RD5","Fri Oct 30 2020 09:37:56 GMT-0500 (Central Daylight Time)","Fri Oct 30 2020 09:44:30 GMT-0500 (Central Daylight Time)","Mozilla/5.0 (Windows NT 6.1; Win64; x64) AppleWebKit/537.36 (KHTML, like Gecko) Chrome/86.0.4240.111 Safari/537.36",87,"[0.9, 0.5, 0.1]","[0.8, 0.4, 0.2]","[u'black', u'red', u'blue']","[u'left', u'middle', u'right']","[0.8, 0.4, 0.2]","[u'medium', u'low', u'high']","blue",51,"right","high","True","False",263,5100,NA
"A3RKG5PZN97RD5","Fri Oct 30 2020 09:37:56 GMT-0500 (Central Daylight Time)","Fri Oct 30 2020 09:44:30 GMT-0500 (Central Daylight Time)","Mozilla/5.0 (Windows NT 6.1; Win64; x64) AppleWebKit/537.36 (KHTML, like Gecko) Chrome/86.0.4240.111 Safari/537.36",88,"[0.9, 0.5, 0.1]","[0.8, 0.4, 0.2]","[u'black', u'red', u'blue']","[u'left', u'middle', u'right']","[0.8, 0.4, 0.2]","[u'medium', u'low', u'high']","blue",51,"right","high","True","False",275,5200,NA
"A3RKG5PZN97RD5","Fri Oct 30 2020 09:37:56 GMT-0500 (Central Daylight Time)","Fri Oct 30 2020 09:44:30 GMT-0500 (Central Daylight Time)","Mozilla/5.0 (Windows NT 6.1; Win64; x64) AppleWebKit/537.36 (KHTML, like Gecko) Chrome/86.0.4240.111 Safari/537.36",89,"[0.9, 0.5, 0.1]","[0.8, 0.4, 0.2]","[u'black', u'red', u'blue']","[u'left', u'middle', u'right']","[0.8, 0.4, 0.2]","[u'medium', u'low', u'high']","blue",51,"right","high","True","False",256,5300,NA
"A3RKG5PZN97RD5","Fri Oct 30 2020 09:37:56 GMT-0500 (Central Daylight Time)","Fri Oct 30 2020 09:44:30 GMT-0500 (Central Daylight Time)","Mozilla/5.0 (Windows NT 6.1; Win64; x64) AppleWebKit/537.36 (KHTML, like Gecko) Chrome/86.0.4240.111 Safari/537.36",90,"[0.9, 0.5, 0.1]","[0.8, 0.4, 0.2]","[u'black', u'red', u'blue']","[u'left', u'middle', u'right']","[0.8, 0.4, 0.2]","[u'medium', u'low', u'high']","blue",51,"right","high","False","False",264,5250,NA
"A3RKG5PZN97RD5","Fri Oct 30 2020 09:37:56 GMT-0500 (Central Daylight Time)","Fri Oct 30 2020 09:44:30 GMT-0500 (Central Daylight Time)","Mozilla/5.0 (Windows NT 6.1; Win64; x64) AppleWebKit/537.36 (KHTML, like Gecko) Chrome/86.0.4240.111 Safari/537.36",91,"[0.9, 0.5, 0.1]","[0.8, 0.4, 0.2]","[u'black', u'red', u'blue']","[u'left', u'middle', u'right']","[0.8, 0.4, 0.2]","[u'medium', u'low', u'high']","red",50,"middle","low","False","False",253,5200,NA
"A3RKG5PZN97RD5","Fri Oct 30 2020 09:37:56 GMT-0500 (Central Daylight Time)","Fri Oct 30 2020 09:44:30 GMT-0500 (Central Daylight Time)","Mozilla/5.0 (Windows NT 6.1; Win64; x64) AppleWebKit/537.36 (KHTML, like Gecko) Chrome/86.0.4240.111 Safari/537.36",92,"[0.9, 0.5, 0.1]","[0.8, 0.4, 0.2]","[u'black', u'red', u'blue']","[u'left', u'middle', u'right']","[0.8, 0.4, 0.2]","[u'medium', u'low', u'high']","blue",51,"right","high","False","False",270,5150,NA
"A3RKG5PZN97RD5","Fri Oct 30 2020 09:37:56 GMT-0500 (Central Daylight Time)","Fri Oct 30 2020 09:44:30 GMT-0500 (Central Daylight Time)","Mozilla/5.0 (Windows NT 6.1; Win64; x64) AppleWebKit/537.36 (KHTML, like Gecko) Chrome/86.0.4240.111 Safari/537.36",93,"[0.9, 0.5, 0.1]","[0.8, 0.4, 0.2]","[u'black', u'red', u'blue']","[u'left', u'middle', u'right']","[0.8, 0.4, 0.2]","[u'medium', u'low', u'high']","red",50,"middle","low","True","False",270,5250,NA
"A3RKG5PZN97RD5","Fri Oct 30 2020 09:37:56 GMT-0500 (Central Daylight Time)","Fri Oct 30 2020 09:44:30 GMT-0500 (Central Daylight Time)","Mozilla/5.0 (Windows NT 6.1; Win64; x64) AppleWebKit/537.36 (KHTML, like Gecko) Chrome/86.0.4240.111 Safari/537.36",94,"[0.9, 0.5, 0.1]","[0.8, 0.4, 0.2]","[u'black', u'red', u'blue']","[u'left', u'middle', u'right']","[0.8, 0.4, 0.2]","[u'medium', u'low', u'high']","red",50,"middle","low","False","False",294,5200,NA
"A3RKG5PZN97RD5","Fri Oct 30 2020 09:37:56 GMT-0500 (Central Daylight Time)","Fri Oct 30 2020 09:44:30 GMT-0500 (Central Daylight Time)","Mozilla/5.0 (Windows NT 6.1; Win64; x64) AppleWebKit/537.36 (KHTML, like Gecko) Chrome/86.0.4240.111 Safari/537.36",95,"[0.9, 0.5, 0.1]","[0.8, 0.4, 0.2]","[u'black', u'red', u'blue']","[u'left', u'middle', u'right']","[0.8, 0.4, 0.2]","[u'medium', u'low', u'high']","black",49,"left","medium","False","False",197,5150,NA
"A3RKG5PZN97RD5","Fri Oct 30 2020 09:37:56 GMT-0500 (Central Daylight Time)","Fri Oct 30 2020 09:44:30 GMT-0500 (Central Daylight Time)","Mozilla/5.0 (Windows NT 6.1; Win64; x64) AppleWebKit/537.36 (KHTML, like Gecko) Chrome/86.0.4240.111 Safari/537.36",96,"[0.9, 0.5, 0.1]","[0.8, 0.4, 0.2]","[u'black', u'red', u'blue']","[u'left', u'middle', u'right']","[0.8, 0.4, 0.2]","[u'medium', u'low', u'high']","red",50,"middle","low","False","False",150,5100,NA
"A3RKG5PZN97RD5","Fri Oct 30 2020 09:37:56 GMT-0500 (Central Daylight Time)","Fri Oct 30 2020 09:44:30 GMT-0500 (Central Daylight Time)","Mozilla/5.0 (Windows NT 6.1; Win64; x64) AppleWebKit/537.36 (KHTML, like Gecko) Chrome/86.0.4240.111 Safari/537.36",97,"[0.9, 0.5, 0.1]","[0.8, 0.4, 0.2]","[u'black', u'red', u'blue']","[u'left', u'middle', u'right']","[0.8, 0.4, 0.2]","[u'medium', u'low', u'high']","black",49,"left","medium","True","False",288,5200,NA
"A3RKG5PZN97RD5","Fri Oct 30 2020 09:37:56 GMT-0500 (Central Daylight Time)","Fri Oct 30 2020 09:44:30 GMT-0500 (Central Daylight Time)","Mozilla/5.0 (Windows NT 6.1; Win64; x64) AppleWebKit/537.36 (KHTML, like Gecko) Chrome/86.0.4240.111 Safari/537.36",98,"[0.9, 0.5, 0.1]","[0.8, 0.4, 0.2]","[u'black', u'red', u'blue']","[u'left', u'middle', u'right']","[0.8, 0.4, 0.2]","[u'medium', u'low', u'high']","black",49,"left","medium","False","False",138,5150,NA
"A3RKG5PZN97RD5","Fri Oct 30 2020 09:37:56 GMT-0500 (Central Daylight Time)","Fri Oct 30 2020 09:44:30 GMT-0500 (Central Daylight Time)","Mozilla/5.0 (Windows NT 6.1; Win64; x64) AppleWebKit/537.36 (KHTML, like Gecko) Chrome/86.0.4240.111 Safari/537.36",99,"[0.9, 0.5, 0.1]","[0.8, 0.4, 0.2]","[u'black', u'red', u'blue']","[u'left', u'middle', u'right']","[0.8, 0.4, 0.2]","[u'medium', u'low', u'high']","blue",51,"right","high","True","False",19,5250,NA
"A3RKG5PZN97RD5","Fri Oct 30 2020 09:37:56 GMT-0500 (Central Daylight Time)","Fri Oct 30 2020 09:44:30 GMT-0500 (Central Daylight Time)","Mozilla/5.0 (Windows NT 6.1; Win64; x64) AppleWebKit/537.36 (KHTML, like Gecko) Chrome/86.0.4240.111 Safari/537.36",100,"[0.9, 0.5, 0.1]","[0.8, 0.4, 0.2]","[u'black', u'red', u'blue']","[u'left', u'middle', u'right']","[0.8, 0.4, 0.2]","[u'medium', u'low', u'high']","blue",51,"right","high","False","False",266,5200,NA
"A3RKG5PZN97RD5","Fri Oct 30 2020 09:37:56 GMT-0500 (Central Daylight Time)","Fri Oct 30 2020 09:44:30 GMT-0500 (Central Daylight Time)","Mozilla/5.0 (Windows NT 6.1; Win64; x64) AppleWebKit/537.36 (KHTML, like Gecko) Chrome/86.0.4240.111 Safari/537.36",101,"[0.9, 0.5, 0.1]","[0.8, 0.4, 0.2]","[u'black', u'red', u'blue']","[u'left', u'middle', u'right']","[0.8, 0.4, 0.2]","[u'medium', u'low', u'high']","blue",51,"right","high","True","False",264,5300,NA
"A3RKG5PZN97RD5","Fri Oct 30 2020 09:37:56 GMT-0500 (Central Daylight Time)","Fri Oct 30 2020 09:44:30 GMT-0500 (Central Daylight Time)","Mozilla/5.0 (Windows NT 6.1; Win64; x64) AppleWebKit/537.36 (KHTML, like Gecko) Chrome/86.0.4240.111 Safari/537.36",102,"[0.9, 0.5, 0.1]","[0.8, 0.4, 0.2]","[u'black', u'red', u'blue']","[u'left', u'middle', u'right']","[0.8, 0.4, 0.2]","[u'medium', u'low', u'high']","blue",51,"right","high","True","False",293,5400,NA
"A3RKG5PZN97RD5","Fri Oct 30 2020 09:37:56 GMT-0500 (Central Daylight Time)","Fri Oct 30 2020 09:44:30 GMT-0500 (Central Daylight Time)","Mozilla/5.0 (Windows NT 6.1; Win64; x64) AppleWebKit/537.36 (KHTML, like Gecko) Chrome/86.0.4240.111 Safari/537.36",103,"[0.9, 0.5, 0.1]","[0.8, 0.4, 0.2]","[u'black', u'red', u'blue']","[u'left', u'middle', u'right']","[0.8, 0.4, 0.2]","[u'medium', u'low', u'high']","blue",51,"right","high","True","False",383,5500,NA
"A3RKG5PZN97RD5","Fri Oct 30 2020 09:37:56 GMT-0500 (Central Daylight Time)","Fri Oct 30 2020 09:44:30 GMT-0500 (Central Daylight Time)","Mozilla/5.0 (Windows NT 6.1; Win64; x64) AppleWebKit/537.36 (KHTML, like Gecko) Chrome/86.0.4240.111 Safari/537.36",104,"[0.9, 0.5, 0.1]","[0.8, 0.4, 0.2]","[u'black', u'red', u'blue']","[u'left', u'middle', u'right']","[0.8, 0.4, 0.2]","[u'medium', u'low', u'high']","blue",51,"right","high","True","False",340,5600,NA
"A3RKG5PZN97RD5","Fri Oct 30 2020 09:37:56 GMT-0500 (Central Daylight Time)","Fri Oct 30 2020 09:44:30 GMT-0500 (Central Daylight Time)","Mozilla/5.0 (Windows NT 6.1; Win64; x64) AppleWebKit/537.36 (KHTML, like Gecko) Chrome/86.0.4240.111 Safari/537.36",105,"[0.9, 0.5, 0.1]","[0.8, 0.4, 0.2]","[u'black', u'red', u'blue']","[u'left', u'middle', u'right']","[0.8, 0.4, 0.2]","[u'medium', u'low', u'high']","blue",51,"right","high","True","False",347,5700,NA
"A3RKG5PZN97RD5","Fri Oct 30 2020 09:37:56 GMT-0500 (Central Daylight Time)","Fri Oct 30 2020 09:44:30 GMT-0500 (Central Daylight Time)","Mozilla/5.0 (Windows NT 6.1; Win64; x64) AppleWebKit/537.36 (KHTML, like Gecko) Chrome/86.0.4240.111 Safari/537.36",106,"[0.9, 0.5, 0.1]","[0.8, 0.4, 0.2]","[u'black', u'red', u'blue']","[u'left', u'middle', u'right']","[0.8, 0.4, 0.2]","[u'medium', u'low', u'high']","blue",51,"right","high","True","False",321,5800,NA
"A3RKG5PZN97RD5","Fri Oct 30 2020 09:37:56 GMT-0500 (Central Daylight Time)","Fri Oct 30 2020 09:44:30 GMT-0500 (Central Daylight Time)","Mozilla/5.0 (Windows NT 6.1; Win64; x64) AppleWebKit/537.36 (KHTML, like Gecko) Chrome/86.0.4240.111 Safari/537.36",107,"[0.9, 0.5, 0.1]","[0.8, 0.4, 0.2]","[u'black', u'red', u'blue']","[u'left', u'middle', u'right']","[0.8, 0.4, 0.2]","[u'medium', u'low', u'high']","blue",51,"right","high","False","True",304,5750,NA
"A3RKG5PZN97RD5","Fri Oct 30 2020 09:37:56 GMT-0500 (Central Daylight Time)","Fri Oct 30 2020 09:44:30 GMT-0500 (Central Daylight Time)","Mozilla/5.0 (Windows NT 6.1; Win64; x64) AppleWebKit/537.36 (KHTML, like Gecko) Chrome/86.0.4240.111 Safari/537.36",108,"[0.9, 0.5, 0.1]","[0.8, 0.4, 0.2]","[u'black', u'red', u'blue']","[u'left', u'middle', u'right']","[0.8, 0.4, 0.2]","[u'low', u'high', u'medium']","red",50,"middle","high","True","False",310,5850,NA
"A3RKG5PZN97RD5","Fri Oct 30 2020 09:37:56 GMT-0500 (Central Daylight Time)","Fri Oct 30 2020 09:44:30 GMT-0500 (Central Daylight Time)","Mozilla/5.0 (Windows NT 6.1; Win64; x64) AppleWebKit/537.36 (KHTML, like Gecko) Chrome/86.0.4240.111 Safari/537.36",109,"[0.9, 0.5, 0.1]","[0.8, 0.4, 0.2]","[u'black', u'red', u'blue']","[u'left', u'middle', u'right']","[0.8, 0.4, 0.2]","[u'low', u'high', u'medium']","red",50,"middle","high","True","False",264,5950,NA
"A3RKG5PZN97RD5","Fri Oct 30 2020 09:37:56 GMT-0500 (Central Daylight Time)","Fri Oct 30 2020 09:44:30 GMT-0500 (Central Daylight Time)","Mozilla/5.0 (Windows NT 6.1; Win64; x64) AppleWebKit/537.36 (KHTML, like Gecko) Chrome/86.0.4240.111 Safari/537.36",110,"[0.9, 0.5, 0.1]","[0.8, 0.4, 0.2]","[u'black', u'red', u'blue']","[u'left', u'middle', u'right']","[0.8, 0.4, 0.2]","[u'low', u'high', u'medium']","red",50,"middle","high","True","False",238,6050,NA
"A3RKG5PZN97RD5","Fri Oct 30 2020 09:37:56 GMT-0500 (Central Daylight Time)","Fri Oct 30 2020 09:44:30 GMT-0500 (Central Daylight Time)","Mozilla/5.0 (Windows NT 6.1; Win64; x64) AppleWebKit/537.36 (KHTML, like Gecko) Chrome/86.0.4240.111 Safari/537.36",111,"[0.9, 0.5, 0.1]","[0.8, 0.4, 0.2]","[u'black', u'red', u'blue']","[u'left', u'middle', u'right']","[0.8, 0.4, 0.2]","[u'low', u'high', u'medium']","red",50,"middle","high","False","False",246,6000,NA
"A3RKG5PZN97RD5","Fri Oct 30 2020 09:37:56 GMT-0500 (Central Daylight Time)","Fri Oct 30 2020 09:44:30 GMT-0500 (Central Daylight Time)","Mozilla/5.0 (Windows NT 6.1; Win64; x64) AppleWebKit/537.36 (KHTML, like Gecko) Chrome/86.0.4240.111 Safari/537.36",112,"[0.9, 0.5, 0.1]","[0.8, 0.4, 0.2]","[u'black', u'red', u'blue']","[u'left', u'middle', u'right']","[0.8, 0.4, 0.2]","[u'low', u'high', u'medium']","blue",51,"right","medium","False","False",415,5950,NA
"A3RKG5PZN97RD5","Fri Oct 30 2020 09:37:56 GMT-0500 (Central Daylight Time)","Fri Oct 30 2020 09:44:30 GMT-0500 (Central Daylight Time)","Mozilla/5.0 (Windows NT 6.1; Win64; x64) AppleWebKit/537.36 (KHTML, like Gecko) Chrome/86.0.4240.111 Safari/537.36",113,"[0.9, 0.5, 0.1]","[0.8, 0.4, 0.2]","[u'black', u'red', u'blue']","[u'left', u'middle', u'right']","[0.8, 0.4, 0.2]","[u'low', u'high', u'medium']","black",49,"left","low","True","False",287,6050,NA
"A3RKG5PZN97RD5","Fri Oct 30 2020 09:37:56 GMT-0500 (Central Daylight Time)","Fri Oct 30 2020 09:44:30 GMT-0500 (Central Daylight Time)","Mozilla/5.0 (Windows NT 6.1; Win64; x64) AppleWebKit/537.36 (KHTML, like Gecko) Chrome/86.0.4240.111 Safari/537.36",114,"[0.9, 0.5, 0.1]","[0.8, 0.4, 0.2]","[u'black', u'red', u'blue']","[u'left', u'middle', u'right']","[0.8, 0.4, 0.2]","[u'low', u'high', u'medium']","black",49,"left","low","False","False",280,6000,NA
"A3RKG5PZN97RD5","Fri Oct 30 2020 09:37:56 GMT-0500 (Central Daylight Time)","Fri Oct 30 2020 09:44:30 GMT-0500 (Central Daylight Time)","Mozilla/5.0 (Windows NT 6.1; Win64; x64) AppleWebKit/537.36 (KHTML, like Gecko) Chrome/86.0.4240.111 Safari/537.36",115,"[0.9, 0.5, 0.1]","[0.8, 0.4, 0.2]","[u'black', u'red', u'blue']","[u'left', u'middle', u'right']","[0.8, 0.4, 0.2]","[u'low', u'high', u'medium']","red",50,"middle","high","True","False",262,6100,NA
"A3RKG5PZN97RD5","Fri Oct 30 2020 09:37:56 GMT-0500 (Central Daylight Time)","Fri Oct 30 2020 09:44:30 GMT-0500 (Central Daylight Time)","Mozilla/5.0 (Windows NT 6.1; Win64; x64) AppleWebKit/537.36 (KHTML, like Gecko) Chrome/86.0.4240.111 Safari/537.36",116,"[0.9, 0.5, 0.1]","[0.8, 0.4, 0.2]","[u'black', u'red', u'blue']","[u'left', u'middle', u'right']","[0.8, 0.4, 0.2]","[u'low', u'high', u'medium']","red",50,"middle","high","True","False",573,6200,NA
"A3RKG5PZN97RD5","Fri Oct 30 2020 09:37:56 GMT-0500 (Central Daylight Time)","Fri Oct 30 2020 09:44:30 GMT-0500 (Central Daylight Time)","Mozilla/5.0 (Windows NT 6.1; Win64; x64) AppleWebKit/537.36 (KHTML, like Gecko) Chrome/86.0.4240.111 Safari/537.36",117,"[0.9, 0.5, 0.1]","[0.8, 0.4, 0.2]","[u'black', u'red', u'blue']","[u'left', u'middle', u'right']","[0.8, 0.4, 0.2]","[u'low', u'high', u'medium']","red",50,"middle","high","False","False",262,6150,NA
"A3RKG5PZN97RD5","Fri Oct 30 2020 09:37:56 GMT-0500 (Central Daylight Time)","Fri Oct 30 2020 09:44:30 GMT-0500 (Central Daylight Time)","Mozilla/5.0 (Windows NT 6.1; Win64; x64) AppleWebKit/537.36 (KHTML, like Gecko) Chrome/86.0.4240.111 Safari/537.36",118,"[0.9, 0.5, 0.1]","[0.8, 0.4, 0.2]","[u'black', u'red', u'blue']","[u'left', u'middle', u'right']","[0.8, 0.4, 0.2]","[u'low', u'high', u'medium']","blue",51,"right","medium","False","False",992,6100,NA
"A3RKG5PZN97RD5","Fri Oct 30 2020 09:37:56 GMT-0500 (Central Daylight Time)","Fri Oct 30 2020 09:44:30 GMT-0500 (Central Daylight Time)","Mozilla/5.0 (Windows NT 6.1; Win64; x64) AppleWebKit/537.36 (KHTML, like Gecko) Chrome/86.0.4240.111 Safari/537.36",119,"[0.9, 0.5, 0.1]","[0.8, 0.4, 0.2]","[u'black', u'red', u'blue']","[u'left', u'middle', u'right']","[0.8, 0.4, 0.2]","[u'low', u'high', u'medium']","black",49,"left","low","False","False",206,6050,NA
"A3RKG5PZN97RD5","Fri Oct 30 2020 09:37:56 GMT-0500 (Central Daylight Time)","Fri Oct 30 2020 09:44:30 GMT-0500 (Central Daylight Time)","Mozilla/5.0 (Windows NT 6.1; Win64; x64) AppleWebKit/537.36 (KHTML, like Gecko) Chrome/86.0.4240.111 Safari/537.36",120,"[0.9, 0.5, 0.1]","[0.8, 0.4, 0.2]","[u'black', u'red', u'blue']","[u'left', u'middle', u'right']","[0.8, 0.4, 0.2]","[u'low', u'high', u'medium']","black",49,"left","low","False","False",238,6000,NA
"A3RKG5PZN97RD5","Fri Oct 30 2020 09:37:56 GMT-0500 (Central Daylight Time)","Fri Oct 30 2020 09:44:30 GMT-0500 (Central Daylight Time)","Mozilla/5.0 (Windows NT 6.1; Win64; x64) AppleWebKit/537.36 (KHTML, like Gecko) Chrome/86.0.4240.111 Safari/537.36",121,"[0.9, 0.5, 0.1]","[0.8, 0.4, 0.2]","[u'black', u'red', u'blue']","[u'left', u'middle', u'right']","[0.8, 0.4, 0.2]","[u'medium', u'low', u'high']","red",50,"middle","low","False","False",572,5950,NA
"A3RKG5PZN97RD5","Fri Oct 30 2020 09:37:56 GMT-0500 (Central Daylight Time)","Fri Oct 30 2020 09:44:30 GMT-0500 (Central Daylight Time)","Mozilla/5.0 (Windows NT 6.1; Win64; x64) AppleWebKit/537.36 (KHTML, like Gecko) Chrome/86.0.4240.111 Safari/537.36",122,"[0.9, 0.5, 0.1]","[0.8, 0.4, 0.2]","[u'black', u'red', u'blue']","[u'left', u'middle', u'right']","[0.8, 0.4, 0.2]","[u'medium', u'low', u'high']","black",49,"left","medium","False","False",287,5900,NA
"A3RKG5PZN97RD5","Fri Oct 30 2020 09:37:56 GMT-0500 (Central Daylight Time)","Fri Oct 30 2020 09:44:30 GMT-0500 (Central Daylight Time)","Mozilla/5.0 (Windows NT 6.1; Win64; x64) AppleWebKit/537.36 (KHTML, like Gecko) Chrome/86.0.4240.111 Safari/537.36",123,"[0.9, 0.5, 0.1]","[0.8, 0.4, 0.2]","[u'black', u'red', u'blue']","[u'left', u'middle', u'right']","[0.8, 0.4, 0.2]","[u'medium', u'low', u'high']","black",49,"left","medium","False","False",143,5850,NA
"A3RKG5PZN97RD5","Fri Oct 30 2020 09:37:56 GMT-0500 (Central Daylight Time)","Fri Oct 30 2020 09:44:30 GMT-0500 (Central Daylight Time)","Mozilla/5.0 (Windows NT 6.1; Win64; x64) AppleWebKit/537.36 (KHTML, like Gecko) Chrome/86.0.4240.111 Safari/537.36",124,"[0.9, 0.5, 0.1]","[0.8, 0.4, 0.2]","[u'black', u'red', u'blue']","[u'left', u'middle', u'right']","[0.8, 0.4, 0.2]","[u'medium', u'low', u'high']","blue",51,"right","high","True","False",171,5950,NA
"A3RKG5PZN97RD5","Fri Oct 30 2020 09:37:56 GMT-0500 (Central Daylight Time)","Fri Oct 30 2020 09:44:30 GMT-0500 (Central Daylight Time)","Mozilla/5.0 (Windows NT 6.1; Win64; x64) AppleWebKit/537.36 (KHTML, like Gecko) Chrome/86.0.4240.111 Safari/537.36",125,"[0.9, 0.5, 0.1]","[0.8, 0.4, 0.2]","[u'black', u'red', u'blue']","[u'left', u'middle', u'right']","[0.8, 0.4, 0.2]","[u'medium', u'low', u'high']","blue",51,"right","high","True","False",266,6050,NA
"A3RKG5PZN97RD5","Fri Oct 30 2020 09:37:56 GMT-0500 (Central Daylight Time)","Fri Oct 30 2020 09:44:30 GMT-0500 (Central Daylight Time)","Mozilla/5.0 (Windows NT 6.1; Win64; x64) AppleWebKit/537.36 (KHTML, like Gecko) Chrome/86.0.4240.111 Safari/537.36",126,"[0.9, 0.5, 0.1]","[0.8, 0.4, 0.2]","[u'black', u'red', u'blue']","[u'left', u'middle', u'right']","[0.8, 0.4, 0.2]","[u'medium', u'low', u'high']","blue",51,"right","high","True","False",250,6150,NA
"A3RKG5PZN97RD5","Fri Oct 30 2020 09:37:56 GMT-0500 (Central Daylight Time)","Fri Oct 30 2020 09:44:30 GMT-0500 (Central Daylight Time)","Mozilla/5.0 (Windows NT 6.1; Win64; x64) AppleWebKit/537.36 (KHTML, like Gecko) Chrome/86.0.4240.111 Safari/537.36",127,"[0.9, 0.5, 0.1]","[0.8, 0.4, 0.2]","[u'black', u'red', u'blue']","[u'left', u'middle', u'right']","[0.8, 0.4, 0.2]","[u'medium', u'low', u'high']","blue",51,"right","high","True","False",458,6250,NA
"A3RKG5PZN97RD5","Fri Oct 30 2020 09:37:56 GMT-0500 (Central Daylight Time)","Fri Oct 30 2020 09:44:30 GMT-0500 (Central Daylight Time)","Mozilla/5.0 (Windows NT 6.1; Win64; x64) AppleWebKit/537.36 (KHTML, like Gecko) Chrome/86.0.4240.111 Safari/537.36",128,"[0.9, 0.5, 0.1]","[0.8, 0.4, 0.2]","[u'black', u'red', u'blue']","[u'left', u'middle', u'right']","[0.8, 0.4, 0.2]","[u'medium', u'low', u'high']","blue",51,"right","high","True","False",419,6350,NA
"A3RKG5PZN97RD5","Fri Oct 30 2020 09:37:56 GMT-0500 (Central Daylight Time)","Fri Oct 30 2020 09:44:30 GMT-0500 (Central Daylight Time)","Mozilla/5.0 (Windows NT 6.1; Win64; x64) AppleWebKit/537.36 (KHTML, like Gecko) Chrome/86.0.4240.111 Safari/537.36",129,"[0.9, 0.5, 0.1]","[0.8, 0.4, 0.2]","[u'black', u'red', u'blue']","[u'left', u'middle', u'right']","[0.8, 0.4, 0.2]","[u'medium', u'low', u'high']","blue",51,"right","high","False","False",465,6300,NA
"A3RKG5PZN97RD5","Fri Oct 30 2020 09:37:56 GMT-0500 (Central Daylight Time)","Fri Oct 30 2020 09:44:30 GMT-0500 (Central Daylight Time)","Mozilla/5.0 (Windows NT 6.1; Win64; x64) AppleWebKit/537.36 (KHTML, like Gecko) Chrome/86.0.4240.111 Safari/537.36",130,"[0.9, 0.5, 0.1]","[0.8, 0.4, 0.2]","[u'black', u'red', u'blue']","[u'left', u'middle', u'right']","[0.8, 0.4, 0.2]","[u'medium', u'low', u'high']","red",50,"middle","low","False","False",327,6250,NA
"A3RKG5PZN97RD5","Fri Oct 30 2020 09:37:56 GMT-0500 (Central Daylight Time)","Fri Oct 30 2020 09:44:30 GMT-0500 (Central Daylight Time)","Mozilla/5.0 (Windows NT 6.1; Win64; x64) AppleWebKit/537.36 (KHTML, like Gecko) Chrome/86.0.4240.111 Safari/537.36",131,"[0.9, 0.5, 0.1]","[0.8, 0.4, 0.2]","[u'black', u'red', u'blue']","[u'left', u'middle', u'right']","[0.8, 0.4, 0.2]","[u'medium', u'low', u'high']","red",50,"middle","low","False","False",353,6200,NA
"A3RKG5PZN97RD5","Fri Oct 30 2020 09:37:56 GMT-0500 (Central Daylight Time)","Fri Oct 30 2020 09:44:30 GMT-0500 (Central Daylight Time)","Mozilla/5.0 (Windows NT 6.1; Win64; x64) AppleWebKit/537.36 (KHTML, like Gecko) Chrome/86.0.4240.111 Safari/537.36",132,"[0.9, 0.5, 0.1]","[0.8, 0.4, 0.2]","[u'black', u'red', u'blue']","[u'left', u'middle', u'right']","[0.8, 0.4, 0.2]","[u'medium', u'low', u'high']","red",50,"middle","low","False","False",323,6150,NA
"A3RKG5PZN97RD5","Fri Oct 30 2020 09:37:56 GMT-0500 (Central Daylight Time)","Fri Oct 30 2020 09:44:30 GMT-0500 (Central Daylight Time)","Mozilla/5.0 (Windows NT 6.1; Win64; x64) AppleWebKit/537.36 (KHTML, like Gecko) Chrome/86.0.4240.111 Safari/537.36",133,"[0.9, 0.5, 0.1]","[0.8, 0.4, 0.2]","[u'black', u'red', u'blue']","[u'left', u'middle', u'right']","[0.8, 0.4, 0.2]","[u'medium', u'low', u'high']","black",49,"left","medium","True","False",581,6250,NA
"A3RKG5PZN97RD5","Fri Oct 30 2020 09:37:56 GMT-0500 (Central Daylight Time)","Fri Oct 30 2020 09:44:30 GMT-0500 (Central Daylight Time)","Mozilla/5.0 (Windows NT 6.1; Win64; x64) AppleWebKit/537.36 (KHTML, like Gecko) Chrome/86.0.4240.111 Safari/537.36",134,"[0.9, 0.5, 0.1]","[0.8, 0.4, 0.2]","[u'black', u'red', u'blue']","[u'left', u'middle', u'right']","[0.8, 0.4, 0.2]","[u'medium', u'low', u'high']","black",49,"left","medium","False","False",340,6200,NA
"A3RKG5PZN97RD5","Fri Oct 30 2020 09:37:56 GMT-0500 (Central Daylight Time)","Fri Oct 30 2020 09:44:30 GMT-0500 (Central Daylight Time)","Mozilla/5.0 (Windows NT 6.1; Win64; x64) AppleWebKit/537.36 (KHTML, like Gecko) Chrome/86.0.4240.111 Safari/537.36",135,"[0.9, 0.5, 0.1]","[0.8, 0.4, 0.2]","[u'black', u'red', u'blue']","[u'left', u'middle', u'right']","[0.8, 0.4, 0.2]","[u'medium', u'low', u'high']","blue",51,"right","high","True","False",366,6300,NA
"A3RKG5PZN97RD5","Fri Oct 30 2020 09:37:56 GMT-0500 (Central Daylight Time)","Fri Oct 30 2020 09:44:30 GMT-0500 (Central Daylight Time)","Mozilla/5.0 (Windows NT 6.1; Win64; x64) AppleWebKit/537.36 (KHTML, like Gecko) Chrome/86.0.4240.111 Safari/537.36",136,"[0.9, 0.5, 0.1]","[0.8, 0.4, 0.2]","[u'black', u'red', u'blue']","[u'left', u'middle', u'right']","[0.8, 0.4, 0.2]","[u'medium', u'low', u'high']","blue",51,"right","high","False","False",378,6250,NA
"A3RKG5PZN97RD5","Fri Oct 30 2020 09:37:56 GMT-0500 (Central Daylight Time)","Fri Oct 30 2020 09:44:30 GMT-0500 (Central Daylight Time)","Mozilla/5.0 (Windows NT 6.1; Win64; x64) AppleWebKit/537.36 (KHTML, like Gecko) Chrome/86.0.4240.111 Safari/537.36",137,"[0.9, 0.5, 0.1]","[0.8, 0.4, 0.2]","[u'black', u'red', u'blue']","[u'left', u'middle', u'right']","[0.8, 0.4, 0.2]","[u'medium', u'low', u'high']","red",50,"middle","low","False","False",317,6200,NA
"A3RKG5PZN97RD5","Fri Oct 30 2020 09:37:56 GMT-0500 (Central Daylight Time)","Fri Oct 30 2020 09:44:30 GMT-0500 (Central Daylight Time)","Mozilla/5.0 (Windows NT 6.1; Win64; x64) AppleWebKit/537.36 (KHTML, like Gecko) Chrome/86.0.4240.111 Safari/537.36",138,"[0.9, 0.5, 0.1]","[0.8, 0.4, 0.2]","[u'black', u'red', u'blue']","[u'left', u'middle', u'right']","[0.8, 0.4, 0.2]","[u'medium', u'low', u'high']","black",49,"left","medium","True","False",324,6300,NA
"A3RKG5PZN97RD5","Fri Oct 30 2020 09:37:56 GMT-0500 (Central Daylight Time)","Fri Oct 30 2020 09:44:30 GMT-0500 (Central Daylight Time)","Mozilla/5.0 (Windows NT 6.1; Win64; x64) AppleWebKit/537.36 (KHTML, like Gecko) Chrome/86.0.4240.111 Safari/537.36",139,"[0.9, 0.5, 0.1]","[0.8, 0.4, 0.2]","[u'black', u'red', u'blue']","[u'left', u'middle', u'right']","[0.8, 0.4, 0.2]","[u'medium', u'low', u'high']","black",49,"left","medium","False","False",379,6250,NA
"A3RKG5PZN97RD5","Fri Oct 30 2020 09:37:56 GMT-0500 (Central Daylight Time)","Fri Oct 30 2020 09:44:30 GMT-0500 (Central Daylight Time)","Mozilla/5.0 (Windows NT 6.1; Win64; x64) AppleWebKit/537.36 (KHTML, like Gecko) Chrome/86.0.4240.111 Safari/537.36",140,"[0.9, 0.5, 0.1]","[0.8, 0.4, 0.2]","[u'black', u'red', u'blue']","[u'left', u'middle', u'right']","[0.8, 0.4, 0.2]","[u'medium', u'low', u'high']","black",49,"left","medium","True","False",394,6350,NA
"A3RKG5PZN97RD5","Fri Oct 30 2020 09:37:56 GMT-0500 (Central Daylight Time)","Fri Oct 30 2020 09:44:30 GMT-0500 (Central Daylight Time)","Mozilla/5.0 (Windows NT 6.1; Win64; x64) AppleWebKit/537.36 (KHTML, like Gecko) Chrome/86.0.4240.111 Safari/537.36",141,"[0.9, 0.5, 0.1]","[0.8, 0.4, 0.2]","[u'black', u'red', u'blue']","[u'left', u'middle', u'right']","[0.8, 0.4, 0.2]","[u'medium', u'low', u'high']","black",49,"left","medium","False","False",464,6300,NA
"A3RKG5PZN97RD5","Fri Oct 30 2020 09:37:56 GMT-0500 (Central Daylight Time)","Fri Oct 30 2020 09:44:30 GMT-0500 (Central Daylight Time)","Mozilla/5.0 (Windows NT 6.1; Win64; x64) AppleWebKit/537.36 (KHTML, like Gecko) Chrome/86.0.4240.111 Safari/537.36",142,"[0.9, 0.5, 0.1]","[0.8, 0.4, 0.2]","[u'black', u'red', u'blue']","[u'left', u'middle', u'right']","[0.8, 0.4, 0.2]","[u'medium', u'low', u'high']","red",50,"middle","low","False","False",309,6250,NA
"A3RKG5PZN97RD5","Fri Oct 30 2020 09:37:56 GMT-0500 (Central Daylight Time)","Fri Oct 30 2020 09:44:30 GMT-0500 (Central Daylight Time)","Mozilla/5.0 (Windows NT 6.1; Win64; x64) AppleWebKit/537.36 (KHTML, like Gecko) Chrome/86.0.4240.111 Safari/537.36",143,"[0.9, 0.5, 0.1]","[0.8, 0.4, 0.2]","[u'black', u'red', u'blue']","[u'left', u'middle', u'right']","[0.8, 0.4, 0.2]","[u'medium', u'low', u'high']","black",49,"left","medium","True","False",362,6350,NA
"A3RKG5PZN97RD5","Fri Oct 30 2020 09:37:56 GMT-0500 (Central Daylight Time)","Fri Oct 30 2020 09:44:30 GMT-0500 (Central Daylight Time)","Mozilla/5.0 (Windows NT 6.1; Win64; x64) AppleWebKit/537.36 (KHTML, like Gecko) Chrome/86.0.4240.111 Safari/537.36",144,"[0.9, 0.5, 0.1]","[0.8, 0.4, 0.2]","[u'black', u'red', u'blue']","[u'left', u'middle', u'right']","[0.8, 0.4, 0.2]","[u'medium', u'low', u'high']","black",49,"left","medium","True","False",461,6450,NA
"A3RKG5PZN97RD5","Fri Oct 30 2020 09:37:56 GMT-0500 (Central Daylight Time)","Fri Oct 30 2020 09:44:30 GMT-0500 (Central Daylight Time)","Mozilla/5.0 (Windows NT 6.1; Win64; x64) AppleWebKit/537.36 (KHTML, like Gecko) Chrome/86.0.4240.111 Safari/537.36",145,"[0.9, 0.5, 0.1]","[0.8, 0.4, 0.2]","[u'black', u'red', u'blue']","[u'left', u'middle', u'right']","[0.8, 0.4, 0.2]","[u'medium', u'low', u'high']","black",49,"left","medium","False","False",381,6400,NA
"A3RKG5PZN97RD5","Fri Oct 30 2020 09:37:56 GMT-0500 (Central Daylight Time)","Fri Oct 30 2020 09:44:30 GMT-0500 (Central Daylight Time)","Mozilla/5.0 (Windows NT 6.1; Win64; x64) AppleWebKit/537.36 (KHTML, like Gecko) Chrome/86.0.4240.111 Safari/537.36",146,"[0.9, 0.5, 0.1]","[0.8, 0.4, 0.2]","[u'black', u'red', u'blue']","[u'left', u'middle', u'right']","[0.8, 0.4, 0.2]","[u'medium', u'low', u'high']","blue",51,"right","high","True","False",352,6500,NA
"A3RKG5PZN97RD5","Fri Oct 30 2020 09:37:56 GMT-0500 (Central Daylight Time)","Fri Oct 30 2020 09:44:30 GMT-0500 (Central Daylight Time)","Mozilla/5.0 (Windows NT 6.1; Win64; x64) AppleWebKit/537.36 (KHTML, like Gecko) Chrome/86.0.4240.111 Safari/537.36",147,"[0.9, 0.5, 0.1]","[0.8, 0.4, 0.2]","[u'black', u'red', u'blue']","[u'left', u'middle', u'right']","[0.8, 0.4, 0.2]","[u'medium', u'low', u'high']","blue",51,"right","high","False","False",422,6450,NA
"A3RKG5PZN97RD5","Fri Oct 30 2020 09:37:56 GMT-0500 (Central Daylight Time)","Fri Oct 30 2020 09:44:30 GMT-0500 (Central Daylight Time)","Mozilla/5.0 (Windows NT 6.1; Win64; x64) AppleWebKit/537.36 (KHTML, like Gecko) Chrome/86.0.4240.111 Safari/537.36",148,"[0.9, 0.5, 0.1]","[0.8, 0.4, 0.2]","[u'black', u'red', u'blue']","[u'left', u'middle', u'right']","[0.8, 0.4, 0.2]","[u'medium', u'low', u'high']","red",50,"middle","low","False","False",251,6400,NA
"A3RKG5PZN97RD5","Fri Oct 30 2020 09:37:56 GMT-0500 (Central Daylight Time)","Fri Oct 30 2020 09:44:30 GMT-0500 (Central Daylight Time)","Mozilla/5.0 (Windows NT 6.1; Win64; x64) AppleWebKit/537.36 (KHTML, like Gecko) Chrome/86.0.4240.111 Safari/537.36",149,"[0.9, 0.5, 0.1]","[0.8, 0.4, 0.2]","[u'black', u'red', u'blue']","[u'left', u'middle', u'right']","[0.8, 0.4, 0.2]","[u'medium', u'low', u'high']","black",49,"left","medium","False","False",366,6350,NA
"A3RKG5PZN97RD5","Fri Oct 30 2020 09:37:56 GMT-0500 (Central Daylight Time)","Fri Oct 30 2020 09:44:30 GMT-0500 (Central Daylight Time)","Mozilla/5.0 (Windows NT 6.1; Win64; x64) AppleWebKit/537.36 (KHTML, like Gecko) Chrome/86.0.4240.111 Safari/537.36",150,"[0.9, 0.5, 0.1]","[0.8, 0.4, 0.2]","[u'black', u'red', u'blue']","[u'left', u'middle', u'right']","[0.8, 0.4, 0.2]","[u'medium', u'low', u'high']","blue",51,"right","high","True","False",178,6450,NA
"A3RKG5PZN97RD5","Fri Oct 30 2020 09:37:56 GMT-0500 (Central Daylight Time)","Fri Oct 30 2020 09:44:30 GMT-0500 (Central Daylight Time)","Mozilla/5.0 (Windows NT 6.1; Win64; x64) AppleWebKit/537.36 (KHTML, like Gecko) Chrome/86.0.4240.111 Safari/537.36",151,"[0.9, 0.5, 0.1]","[0.8, 0.4, 0.2]","[u'black', u'red', u'blue']","[u'left', u'middle', u'right']","[0.8, 0.4, 0.2]","[u'medium', u'low', u'high']","blue",51,"right","high","True","False",505,6550,NA
"A3RKG5PZN97RD5","Fri Oct 30 2020 09:37:56 GMT-0500 (Central Daylight Time)","Fri Oct 30 2020 09:44:30 GMT-0500 (Central Daylight Time)","Mozilla/5.0 (Windows NT 6.1; Win64; x64) AppleWebKit/537.36 (KHTML, like Gecko) Chrome/86.0.4240.111 Safari/537.36",152,"[0.9, 0.5, 0.1]","[0.8, 0.4, 0.2]","[u'black', u'red', u'blue']","[u'left', u'middle', u'right']","[0.8, 0.4, 0.2]","[u'medium', u'low', u'high']","blue",51,"right","high","True","False",508,6650,NA
"A3RKG5PZN97RD5","Fri Oct 30 2020 09:37:56 GMT-0500 (Central Daylight Time)","Fri Oct 30 2020 09:44:30 GMT-0500 (Central Daylight Time)","Mozilla/5.0 (Windows NT 6.1; Win64; x64) AppleWebKit/537.36 (KHTML, like Gecko) Chrome/86.0.4240.111 Safari/537.36",153,"[0.9, 0.5, 0.1]","[0.8, 0.4, 0.2]","[u'black', u'red', u'blue']","[u'left', u'middle', u'right']","[0.8, 0.4, 0.2]","[u'medium', u'low', u'high']","blue",51,"right","high","False","False",358,6600,NA
"A3RKG5PZN97RD5","Fri Oct 30 2020 09:37:56 GMT-0500 (Central Daylight Time)","Fri Oct 30 2020 09:44:30 GMT-0500 (Central Daylight Time)","Mozilla/5.0 (Windows NT 6.1; Win64; x64) AppleWebKit/537.36 (KHTML, like Gecko) Chrome/86.0.4240.111 Safari/537.36",154,"[0.9, 0.5, 0.1]","[0.8, 0.4, 0.2]","[u'black', u'red', u'blue']","[u'left', u'middle', u'right']","[0.8, 0.4, 0.2]","[u'medium', u'low', u'high']","red",50,"middle","low","False","False",357,6550,NA
"A3RKG5PZN97RD5","Fri Oct 30 2020 09:37:56 GMT-0500 (Central Daylight Time)","Fri Oct 30 2020 09:44:30 GMT-0500 (Central Daylight Time)","Mozilla/5.0 (Windows NT 6.1; Win64; x64) AppleWebKit/537.36 (KHTML, like Gecko) Chrome/86.0.4240.111 Safari/537.36",155,"[0.9, 0.5, 0.1]","[0.8, 0.4, 0.2]","[u'black', u'red', u'blue']","[u'left', u'middle', u'right']","[0.8, 0.4, 0.2]","[u'medium', u'low', u'high']","red",50,"middle","low","True","False",206,6650,NA
"A3RKG5PZN97RD5","Fri Oct 30 2020 09:37:56 GMT-0500 (Central Daylight Time)","Fri Oct 30 2020 09:44:30 GMT-0500 (Central Daylight Time)","Mozilla/5.0 (Windows NT 6.1; Win64; x64) AppleWebKit/537.36 (KHTML, like Gecko) Chrome/86.0.4240.111 Safari/537.36",156,"[0.9, 0.5, 0.1]","[0.8, 0.4, 0.2]","[u'black', u'red', u'blue']","[u'left', u'middle', u'right']","[0.8, 0.4, 0.2]","[u'medium', u'low', u'high']","red",50,"middle","low","False","False",303,6600,NA
"A3RKG5PZN97RD5","Fri Oct 30 2020 09:37:56 GMT-0500 (Central Daylight Time)","Fri Oct 30 2020 09:44:30 GMT-0500 (Central Daylight Time)","Mozilla/5.0 (Windows NT 6.1; Win64; x64) AppleWebKit/537.36 (KHTML, like Gecko) Chrome/86.0.4240.111 Safari/537.36",157,"[0.9, 0.5, 0.1]","[0.8, 0.4, 0.2]","[u'black', u'red', u'blue']","[u'left', u'middle', u'right']","[0.8, 0.4, 0.2]","[u'medium', u'low', u'high']","red",50,"middle","low","False","False",271,6550,NA
"A3RKG5PZN97RD5","Fri Oct 30 2020 09:37:56 GMT-0500 (Central Daylight Time)","Fri Oct 30 2020 09:44:30 GMT-0500 (Central Daylight Time)","Mozilla/5.0 (Windows NT 6.1; Win64; x64) AppleWebKit/537.36 (KHTML, like Gecko) Chrome/86.0.4240.111 Safari/537.36",158,"[0.9, 0.5, 0.1]","[0.8, 0.4, 0.2]","[u'black', u'red', u'blue']","[u'left', u'middle', u'right']","[0.8, 0.4, 0.2]","[u'medium', u'low', u'high']","black",49,"left","medium","False","False",251,6500,NA
"A3RKG5PZN97RD5","Fri Oct 30 2020 09:37:56 GMT-0500 (Central Daylight Time)","Fri Oct 30 2020 09:44:30 GMT-0500 (Central Daylight Time)","Mozilla/5.0 (Windows NT 6.1; Win64; x64) AppleWebKit/537.36 (KHTML, like Gecko) Chrome/86.0.4240.111 Safari/537.36",159,"[0.9, 0.5, 0.1]","[0.8, 0.4, 0.2]","[u'black', u'red', u'blue']","[u'left', u'middle', u'right']","[0.8, 0.4, 0.2]","[u'medium', u'low', u'high']","black",49,"left","medium","True","False",271,6600,NA
"A3RKG5PZN97RD5","Fri Oct 30 2020 09:37:56 GMT-0500 (Central Daylight Time)","Fri Oct 30 2020 09:44:30 GMT-0500 (Central Daylight Time)","Mozilla/5.0 (Windows NT 6.1; Win64; x64) AppleWebKit/537.36 (KHTML, like Gecko) Chrome/86.0.4240.111 Safari/537.36",160,"[0.9, 0.5, 0.1]","[0.8, 0.4, 0.2]","[u'black', u'red', u'blue']","[u'left', u'middle', u'right']","[0.8, 0.4, 0.2]","[u'medium', u'low', u'high']","black",49,"left","medium","False","False",311,6550,NA
