"src_subject_id","start_time","end_time","browser","index","first_half_probabilities","second_half_probabilities","deck_color","deck_position","deck_probabilities","deck_contingencies","response_color","key_press","response_position","response_probability","reward_type","trial_type","rt","reward_tally","exclusion_reason"
"AIGUVMQQYYKMN","Fri Oct 30 2020 11:33:18 GMT-0400 (Eastern Daylight Time)","Fri Oct 30 2020 11:40:17 GMT-0400 (Eastern Daylight Time)","Mozilla/5.0 (Windows NT 10.0; Win64; x64) AppleWebKit/537.36 (KHTML, like Gecko) Chrome/86.0.4240.111 Safari/537.36",1,"[0.9, 0.5, 0.1]","[0.8, 0.4, 0.2]","[u'black', u'blue', u'red']","[u'left', u'middle', u'right']","[0.9, 0.5, 0.1]","[u'low', u'medium', u'high']","black",49,"left","low","False","False",815,-50,NA
"AIGUVMQQYYKMN","Fri Oct 30 2020 11:33:18 GMT-0400 (Eastern Daylight Time)","Fri Oct 30 2020 11:40:17 GMT-0400 (Eastern Daylight Time)","Mozilla/5.0 (Windows NT 10.0; Win64; x64) AppleWebKit/537.36 (KHTML, like Gecko) Chrome/86.0.4240.111 Safari/537.36",2,"[0.9, 0.5, 0.1]","[0.8, 0.4, 0.2]","[u'black', u'blue', u'red']","[u'left', u'middle', u'right']","[0.9, 0.5, 0.1]","[u'low', u'medium', u'high']","blue",50,"middle","medium","False","False",487,-100,NA
"AIGUVMQQYYKMN","Fri Oct 30 2020 11:33:18 GMT-0400 (Eastern Daylight Time)","Fri Oct 30 2020 11:40:17 GMT-0400 (Eastern Daylight Time)","Mozilla/5.0 (Windows NT 10.0; Win64; x64) AppleWebKit/537.36 (KHTML, like Gecko) Chrome/86.0.4240.111 Safari/537.36",3,"[0.9, 0.5, 0.1]","[0.8, 0.4, 0.2]","[u'black', u'blue', u'red']","[u'left', u'middle', u'right']","[0.9, 0.5, 0.1]","[u'low', u'medium', u'high']","red",51,"right","high","True","False",353,0,NA
"AIGUVMQQYYKMN","Fri Oct 30 2020 11:33:18 GMT-0400 (Eastern Daylight Time)","Fri Oct 30 2020 11:40:17 GMT-0400 (Eastern Daylight Time)","Mozilla/5.0 (Windows NT 10.0; Win64; x64) AppleWebKit/537.36 (KHTML, like Gecko) Chrome/86.0.4240.111 Safari/537.36",4,"[0.9, 0.5, 0.1]","[0.8, 0.4, 0.2]","[u'black', u'blue', u'red']","[u'left', u'middle', u'right']","[0.9, 0.5, 0.1]","[u'low', u'medium', u'high']","red",51,"right","high","True","False",412,100,NA
"AIGUVMQQYYKMN","Fri Oct 30 2020 11:33:18 GMT-0400 (Eastern Daylight Time)","Fri Oct 30 2020 11:40:17 GMT-0400 (Eastern Daylight Time)","Mozilla/5.0 (Windows NT 10.0; Win64; x64) AppleWebKit/537.36 (KHTML, like Gecko) Chrome/86.0.4240.111 Safari/537.36",5,"[0.9, 0.5, 0.1]","[0.8, 0.4, 0.2]","[u'black', u'blue', u'red']","[u'left', u'middle', u'right']","[0.9, 0.5, 0.1]","[u'low', u'medium', u'high']","red",51,"right","high","True","False",354,200,NA
"AIGUVMQQYYKMN","Fri Oct 30 2020 11:33:18 GMT-0400 (Eastern Daylight Time)","Fri Oct 30 2020 11:40:17 GMT-0400 (Eastern Daylight Time)","Mozilla/5.0 (Windows NT 10.0; Win64; x64) AppleWebKit/537.36 (KHTML, like Gecko) Chrome/86.0.4240.111 Safari/537.36",6,"[0.9, 0.5, 0.1]","[0.8, 0.4, 0.2]","[u'black', u'blue', u'red']","[u'left', u'middle', u'right']","[0.9, 0.5, 0.1]","[u'low', u'medium', u'high']","red",51,"right","high","True","False",235,300,NA
"AIGUVMQQYYKMN","Fri Oct 30 2020 11:33:18 GMT-0400 (Eastern Daylight Time)","Fri Oct 30 2020 11:40:17 GMT-0400 (Eastern Daylight Time)","Mozilla/5.0 (Windows NT 10.0; Win64; x64) AppleWebKit/537.36 (KHTML, like Gecko) Chrome/86.0.4240.111 Safari/537.36",7,"[0.9, 0.5, 0.1]","[0.8, 0.4, 0.2]","[u'black', u'blue', u'red']","[u'left', u'middle', u'right']","[0.9, 0.5, 0.1]","[u'low', u'medium', u'high']","red",51,"right","high","True","False",276,400,NA
"AIGUVMQQYYKMN","Fri Oct 30 2020 11:33:18 GMT-0400 (Eastern Daylight Time)","Fri Oct 30 2020 11:40:17 GMT-0400 (Eastern Daylight Time)","Mozilla/5.0 (Windows NT 10.0; Win64; x64) AppleWebKit/537.36 (KHTML, like Gecko) Chrome/86.0.4240.111 Safari/537.36",8,"[0.9, 0.5, 0.1]","[0.8, 0.4, 0.2]","[u'black', u'blue', u'red']","[u'left', u'middle', u'right']","[0.9, 0.5, 0.1]","[u'low', u'medium', u'high']","red",51,"right","high","True","False",246,500,NA
"AIGUVMQQYYKMN","Fri Oct 30 2020 11:33:18 GMT-0400 (Eastern Daylight Time)","Fri Oct 30 2020 11:40:17 GMT-0400 (Eastern Daylight Time)","Mozilla/5.0 (Windows NT 10.0; Win64; x64) AppleWebKit/537.36 (KHTML, like Gecko) Chrome/86.0.4240.111 Safari/537.36",9,"[0.9, 0.5, 0.1]","[0.8, 0.4, 0.2]","[u'black', u'blue', u'red']","[u'left', u'middle', u'right']","[0.9, 0.5, 0.1]","[u'low', u'medium', u'high']","red",51,"right","high","True","False",412,600,NA
"AIGUVMQQYYKMN","Fri Oct 30 2020 11:33:18 GMT-0400 (Eastern Daylight Time)","Fri Oct 30 2020 11:40:17 GMT-0400 (Eastern Daylight Time)","Mozilla/5.0 (Windows NT 10.0; Win64; x64) AppleWebKit/537.36 (KHTML, like Gecko) Chrome/86.0.4240.111 Safari/537.36",10,"[0.9, 0.5, 0.1]","[0.8, 0.4, 0.2]","[u'black', u'blue', u'red']","[u'left', u'middle', u'right']","[0.9, 0.5, 0.1]","[u'low', u'medium', u'high']","red",51,"right","high","True","False",326,700,NA
"AIGUVMQQYYKMN","Fri Oct 30 2020 11:33:18 GMT-0400 (Eastern Daylight Time)","Fri Oct 30 2020 11:40:17 GMT-0400 (Eastern Daylight Time)","Mozilla/5.0 (Windows NT 10.0; Win64; x64) AppleWebKit/537.36 (KHTML, like Gecko) Chrome/86.0.4240.111 Safari/537.36",11,"[0.9, 0.5, 0.1]","[0.8, 0.4, 0.2]","[u'black', u'blue', u'red']","[u'left', u'middle', u'right']","[0.9, 0.5, 0.1]","[u'low', u'medium', u'high']","red",51,"right","high","True","True",335,800,NA
"AIGUVMQQYYKMN","Fri Oct 30 2020 11:33:18 GMT-0400 (Eastern Daylight Time)","Fri Oct 30 2020 11:40:17 GMT-0400 (Eastern Daylight Time)","Mozilla/5.0 (Windows NT 10.0; Win64; x64) AppleWebKit/537.36 (KHTML, like Gecko) Chrome/86.0.4240.111 Safari/537.36",12,"[0.9, 0.5, 0.1]","[0.8, 0.4, 0.2]","[u'black', u'blue', u'red']","[u'left', u'middle', u'right']","[0.9, 0.5, 0.1]","[u'low', u'high', u'medium']","red",51,"right","medium","True","False",366,900,NA
"AIGUVMQQYYKMN","Fri Oct 30 2020 11:33:18 GMT-0400 (Eastern Daylight Time)","Fri Oct 30 2020 11:40:17 GMT-0400 (Eastern Daylight Time)","Mozilla/5.0 (Windows NT 10.0; Win64; x64) AppleWebKit/537.36 (KHTML, like Gecko) Chrome/86.0.4240.111 Safari/537.36",13,"[0.9, 0.5, 0.1]","[0.8, 0.4, 0.2]","[u'black', u'blue', u'red']","[u'left', u'middle', u'right']","[0.9, 0.5, 0.1]","[u'low', u'high', u'medium']","red",51,"right","medium","False","False",341,850,NA
"AIGUVMQQYYKMN","Fri Oct 30 2020 11:33:18 GMT-0400 (Eastern Daylight Time)","Fri Oct 30 2020 11:40:17 GMT-0400 (Eastern Daylight Time)","Mozilla/5.0 (Windows NT 10.0; Win64; x64) AppleWebKit/537.36 (KHTML, like Gecko) Chrome/86.0.4240.111 Safari/537.36",14,"[0.9, 0.5, 0.1]","[0.8, 0.4, 0.2]","[u'black', u'blue', u'red']","[u'left', u'middle', u'right']","[0.9, 0.5, 0.1]","[u'low', u'high', u'medium']","blue",50,"middle","high","True","False",286,950,NA
"AIGUVMQQYYKMN","Fri Oct 30 2020 11:33:18 GMT-0400 (Eastern Daylight Time)","Fri Oct 30 2020 11:40:17 GMT-0400 (Eastern Daylight Time)","Mozilla/5.0 (Windows NT 10.0; Win64; x64) AppleWebKit/537.36 (KHTML, like Gecko) Chrome/86.0.4240.111 Safari/537.36",15,"[0.9, 0.5, 0.1]","[0.8, 0.4, 0.2]","[u'black', u'blue', u'red']","[u'left', u'middle', u'right']","[0.9, 0.5, 0.1]","[u'low', u'high', u'medium']","blue",50,"middle","high","True","False",300,1050,NA
"AIGUVMQQYYKMN","Fri Oct 30 2020 11:33:18 GMT-0400 (Eastern Daylight Time)","Fri Oct 30 2020 11:40:17 GMT-0400 (Eastern Daylight Time)","Mozilla/5.0 (Windows NT 10.0; Win64; x64) AppleWebKit/537.36 (KHTML, like Gecko) Chrome/86.0.4240.111 Safari/537.36",16,"[0.9, 0.5, 0.1]","[0.8, 0.4, 0.2]","[u'black', u'blue', u'red']","[u'left', u'middle', u'right']","[0.9, 0.5, 0.1]","[u'low', u'high', u'medium']","blue",50,"middle","high","True","False",293,1150,NA
"AIGUVMQQYYKMN","Fri Oct 30 2020 11:33:18 GMT-0400 (Eastern Daylight Time)","Fri Oct 30 2020 11:40:17 GMT-0400 (Eastern Daylight Time)","Mozilla/5.0 (Windows NT 10.0; Win64; x64) AppleWebKit/537.36 (KHTML, like Gecko) Chrome/86.0.4240.111 Safari/537.36",17,"[0.9, 0.5, 0.1]","[0.8, 0.4, 0.2]","[u'black', u'blue', u'red']","[u'left', u'middle', u'right']","[0.9, 0.5, 0.1]","[u'low', u'high', u'medium']","blue",50,"middle","high","False","False",328,1100,NA
"AIGUVMQQYYKMN","Fri Oct 30 2020 11:33:18 GMT-0400 (Eastern Daylight Time)","Fri Oct 30 2020 11:40:17 GMT-0400 (Eastern Daylight Time)","Mozilla/5.0 (Windows NT 10.0; Win64; x64) AppleWebKit/537.36 (KHTML, like Gecko) Chrome/86.0.4240.111 Safari/537.36",18,"[0.9, 0.5, 0.1]","[0.8, 0.4, 0.2]","[u'black', u'blue', u'red']","[u'left', u'middle', u'right']","[0.9, 0.5, 0.1]","[u'low', u'high', u'medium']","black",49,"left","low","False","False",305,1050,NA
"AIGUVMQQYYKMN","Fri Oct 30 2020 11:33:18 GMT-0400 (Eastern Daylight Time)","Fri Oct 30 2020 11:40:17 GMT-0400 (Eastern Daylight Time)","Mozilla/5.0 (Windows NT 10.0; Win64; x64) AppleWebKit/537.36 (KHTML, like Gecko) Chrome/86.0.4240.111 Safari/537.36",19,"[0.9, 0.5, 0.1]","[0.8, 0.4, 0.2]","[u'black', u'blue', u'red']","[u'left', u'middle', u'right']","[0.9, 0.5, 0.1]","[u'low', u'high', u'medium']","red",51,"right","medium","True","False",346,1150,NA
"AIGUVMQQYYKMN","Fri Oct 30 2020 11:33:18 GMT-0400 (Eastern Daylight Time)","Fri Oct 30 2020 11:40:17 GMT-0400 (Eastern Daylight Time)","Mozilla/5.0 (Windows NT 10.0; Win64; x64) AppleWebKit/537.36 (KHTML, like Gecko) Chrome/86.0.4240.111 Safari/537.36",20,"[0.9, 0.5, 0.1]","[0.8, 0.4, 0.2]","[u'black', u'blue', u'red']","[u'left', u'middle', u'right']","[0.9, 0.5, 0.1]","[u'low', u'high', u'medium']","red",51,"right","medium","False","False",337,1100,NA
"AIGUVMQQYYKMN","Fri Oct 30 2020 11:33:18 GMT-0400 (Eastern Daylight Time)","Fri Oct 30 2020 11:40:17 GMT-0400 (Eastern Daylight Time)","Mozilla/5.0 (Windows NT 10.0; Win64; x64) AppleWebKit/537.36 (KHTML, like Gecko) Chrome/86.0.4240.111 Safari/537.36",21,"[0.9, 0.5, 0.1]","[0.8, 0.4, 0.2]","[u'black', u'blue', u'red']","[u'left', u'middle', u'right']","[0.9, 0.5, 0.1]","[u'low', u'high', u'medium']","red",51,"right","medium","True","False",234,1200,NA
"AIGUVMQQYYKMN","Fri Oct 30 2020 11:33:18 GMT-0400 (Eastern Daylight Time)","Fri Oct 30 2020 11:40:17 GMT-0400 (Eastern Daylight Time)","Mozilla/5.0 (Windows NT 10.0; Win64; x64) AppleWebKit/537.36 (KHTML, like Gecko) Chrome/86.0.4240.111 Safari/537.36",22,"[0.9, 0.5, 0.1]","[0.8, 0.4, 0.2]","[u'black', u'blue', u'red']","[u'left', u'middle', u'right']","[0.9, 0.5, 0.1]","[u'low', u'high', u'medium']","red",51,"right","medium","True","False",287,1300,NA
"AIGUVMQQYYKMN","Fri Oct 30 2020 11:33:18 GMT-0400 (Eastern Daylight Time)","Fri Oct 30 2020 11:40:17 GMT-0400 (Eastern Daylight Time)","Mozilla/5.0 (Windows NT 10.0; Win64; x64) AppleWebKit/537.36 (KHTML, like Gecko) Chrome/86.0.4240.111 Safari/537.36",23,"[0.9, 0.5, 0.1]","[0.8, 0.4, 0.2]","[u'black', u'blue', u'red']","[u'left', u'middle', u'right']","[0.9, 0.5, 0.1]","[u'low', u'high', u'medium']","red",51,"right","medium","False","False",339,1250,NA
"AIGUVMQQYYKMN","Fri Oct 30 2020 11:33:18 GMT-0400 (Eastern Daylight Time)","Fri Oct 30 2020 11:40:17 GMT-0400 (Eastern Daylight Time)","Mozilla/5.0 (Windows NT 10.0; Win64; x64) AppleWebKit/537.36 (KHTML, like Gecko) Chrome/86.0.4240.111 Safari/537.36",24,"[0.9, 0.5, 0.1]","[0.8, 0.4, 0.2]","[u'black', u'blue', u'red']","[u'left', u'middle', u'right']","[0.9, 0.5, 0.1]","[u'low', u'high', u'medium']","blue",50,"middle","high","True","False",466,1350,NA
"AIGUVMQQYYKMN","Fri Oct 30 2020 11:33:18 GMT-0400 (Eastern Daylight Time)","Fri Oct 30 2020 11:40:17 GMT-0400 (Eastern Daylight Time)","Mozilla/5.0 (Windows NT 10.0; Win64; x64) AppleWebKit/537.36 (KHTML, like Gecko) Chrome/86.0.4240.111 Safari/537.36",25,"[0.9, 0.5, 0.1]","[0.8, 0.4, 0.2]","[u'black', u'blue', u'red']","[u'left', u'middle', u'right']","[0.9, 0.5, 0.1]","[u'low', u'high', u'medium']","blue",50,"middle","high","True","False",324,1450,NA
"AIGUVMQQYYKMN","Fri Oct 30 2020 11:33:18 GMT-0400 (Eastern Daylight Time)","Fri Oct 30 2020 11:40:17 GMT-0400 (Eastern Daylight Time)","Mozilla/5.0 (Windows NT 10.0; Win64; x64) AppleWebKit/537.36 (KHTML, like Gecko) Chrome/86.0.4240.111 Safari/537.36",26,"[0.9, 0.5, 0.1]","[0.8, 0.4, 0.2]","[u'black', u'blue', u'red']","[u'left', u'middle', u'right']","[0.9, 0.5, 0.1]","[u'low', u'high', u'medium']","blue",50,"middle","high","True","False",295,1550,NA
"AIGUVMQQYYKMN","Fri Oct 30 2020 11:33:18 GMT-0400 (Eastern Daylight Time)","Fri Oct 30 2020 11:40:17 GMT-0400 (Eastern Daylight Time)","Mozilla/5.0 (Windows NT 10.0; Win64; x64) AppleWebKit/537.36 (KHTML, like Gecko) Chrome/86.0.4240.111 Safari/537.36",27,"[0.9, 0.5, 0.1]","[0.8, 0.4, 0.2]","[u'black', u'blue', u'red']","[u'left', u'middle', u'right']","[0.9, 0.5, 0.1]","[u'low', u'high', u'medium']","blue",50,"middle","high","False","False",344,1500,NA
"AIGUVMQQYYKMN","Fri Oct 30 2020 11:33:18 GMT-0400 (Eastern Daylight Time)","Fri Oct 30 2020 11:40:17 GMT-0400 (Eastern Daylight Time)","Mozilla/5.0 (Windows NT 10.0; Win64; x64) AppleWebKit/537.36 (KHTML, like Gecko) Chrome/86.0.4240.111 Safari/537.36",28,"[0.9, 0.5, 0.1]","[0.8, 0.4, 0.2]","[u'black', u'blue', u'red']","[u'left', u'middle', u'right']","[0.9, 0.5, 0.1]","[u'low', u'high', u'medium']","red",51,"right","medium","False","False",445,1450,NA
"AIGUVMQQYYKMN","Fri Oct 30 2020 11:33:18 GMT-0400 (Eastern Daylight Time)","Fri Oct 30 2020 11:40:17 GMT-0400 (Eastern Daylight Time)","Mozilla/5.0 (Windows NT 10.0; Win64; x64) AppleWebKit/537.36 (KHTML, like Gecko) Chrome/86.0.4240.111 Safari/537.36",29,"[0.9, 0.5, 0.1]","[0.8, 0.4, 0.2]","[u'black', u'blue', u'red']","[u'left', u'middle', u'right']","[0.9, 0.5, 0.1]","[u'low', u'high', u'medium']","black",49,"left","low","False","False",398,1400,NA
"AIGUVMQQYYKMN","Fri Oct 30 2020 11:33:18 GMT-0400 (Eastern Daylight Time)","Fri Oct 30 2020 11:40:17 GMT-0400 (Eastern Daylight Time)","Mozilla/5.0 (Windows NT 10.0; Win64; x64) AppleWebKit/537.36 (KHTML, like Gecko) Chrome/86.0.4240.111 Safari/537.36",30,"[0.9, 0.5, 0.1]","[0.8, 0.4, 0.2]","[u'black', u'blue', u'red']","[u'left', u'middle', u'right']","[0.9, 0.5, 0.1]","[u'low', u'high', u'medium']","blue",50,"middle","high","True","False",338,1500,NA
"AIGUVMQQYYKMN","Fri Oct 30 2020 11:33:18 GMT-0400 (Eastern Daylight Time)","Fri Oct 30 2020 11:40:17 GMT-0400 (Eastern Daylight Time)","Mozilla/5.0 (Windows NT 10.0; Win64; x64) AppleWebKit/537.36 (KHTML, like Gecko) Chrome/86.0.4240.111 Safari/537.36",31,"[0.9, 0.5, 0.1]","[0.8, 0.4, 0.2]","[u'black', u'blue', u'red']","[u'left', u'middle', u'right']","[0.9, 0.5, 0.1]","[u'low', u'high', u'medium']","blue",50,"middle","high","True","False",303,1600,NA
"AIGUVMQQYYKMN","Fri Oct 30 2020 11:33:18 GMT-0400 (Eastern Daylight Time)","Fri Oct 30 2020 11:40:17 GMT-0400 (Eastern Daylight Time)","Mozilla/5.0 (Windows NT 10.0; Win64; x64) AppleWebKit/537.36 (KHTML, like Gecko) Chrome/86.0.4240.111 Safari/537.36",32,"[0.9, 0.5, 0.1]","[0.8, 0.4, 0.2]","[u'black', u'blue', u'red']","[u'left', u'middle', u'right']","[0.9, 0.5, 0.1]","[u'low', u'high', u'medium']","blue",50,"middle","high","True","False",416,1700,NA
"AIGUVMQQYYKMN","Fri Oct 30 2020 11:33:18 GMT-0400 (Eastern Daylight Time)","Fri Oct 30 2020 11:40:17 GMT-0400 (Eastern Daylight Time)","Mozilla/5.0 (Windows NT 10.0; Win64; x64) AppleWebKit/537.36 (KHTML, like Gecko) Chrome/86.0.4240.111 Safari/537.36",33,"[0.9, 0.5, 0.1]","[0.8, 0.4, 0.2]","[u'black', u'blue', u'red']","[u'left', u'middle', u'right']","[0.9, 0.5, 0.1]","[u'low', u'high', u'medium']","blue",50,"middle","high","True","False",425,1800,NA
"AIGUVMQQYYKMN","Fri Oct 30 2020 11:33:18 GMT-0400 (Eastern Daylight Time)","Fri Oct 30 2020 11:40:17 GMT-0400 (Eastern Daylight Time)","Mozilla/5.0 (Windows NT 10.0; Win64; x64) AppleWebKit/537.36 (KHTML, like Gecko) Chrome/86.0.4240.111 Safari/537.36",34,"[0.9, 0.5, 0.1]","[0.8, 0.4, 0.2]","[u'black', u'blue', u'red']","[u'left', u'middle', u'right']","[0.9, 0.5, 0.1]","[u'low', u'high', u'medium']","blue",50,"middle","high","True","False",684,1900,NA
"AIGUVMQQYYKMN","Fri Oct 30 2020 11:33:18 GMT-0400 (Eastern Daylight Time)","Fri Oct 30 2020 11:40:17 GMT-0400 (Eastern Daylight Time)","Mozilla/5.0 (Windows NT 10.0; Win64; x64) AppleWebKit/537.36 (KHTML, like Gecko) Chrome/86.0.4240.111 Safari/537.36",35,"[0.9, 0.5, 0.1]","[0.8, 0.4, 0.2]","[u'black', u'blue', u'red']","[u'left', u'middle', u'right']","[0.9, 0.5, 0.1]","[u'low', u'high', u'medium']","blue",50,"middle","high","False","False",589,1850,NA
"AIGUVMQQYYKMN","Fri Oct 30 2020 11:33:18 GMT-0400 (Eastern Daylight Time)","Fri Oct 30 2020 11:40:17 GMT-0400 (Eastern Daylight Time)","Mozilla/5.0 (Windows NT 10.0; Win64; x64) AppleWebKit/537.36 (KHTML, like Gecko) Chrome/86.0.4240.111 Safari/537.36",36,"[0.9, 0.5, 0.1]","[0.8, 0.4, 0.2]","[u'black', u'blue', u'red']","[u'left', u'middle', u'right']","[0.9, 0.5, 0.1]","[u'low', u'high', u'medium']","red",51,"right","medium","True","False",700,1950,NA
"AIGUVMQQYYKMN","Fri Oct 30 2020 11:33:18 GMT-0400 (Eastern Daylight Time)","Fri Oct 30 2020 11:40:17 GMT-0400 (Eastern Daylight Time)","Mozilla/5.0 (Windows NT 10.0; Win64; x64) AppleWebKit/537.36 (KHTML, like Gecko) Chrome/86.0.4240.111 Safari/537.36",37,"[0.9, 0.5, 0.1]","[0.8, 0.4, 0.2]","[u'black', u'blue', u'red']","[u'left', u'middle', u'right']","[0.9, 0.5, 0.1]","[u'low', u'high', u'medium']","red",51,"right","medium","True","False",289,2050,NA
"AIGUVMQQYYKMN","Fri Oct 30 2020 11:33:18 GMT-0400 (Eastern Daylight Time)","Fri Oct 30 2020 11:40:17 GMT-0400 (Eastern Daylight Time)","Mozilla/5.0 (Windows NT 10.0; Win64; x64) AppleWebKit/537.36 (KHTML, like Gecko) Chrome/86.0.4240.111 Safari/537.36",38,"[0.9, 0.5, 0.1]","[0.8, 0.4, 0.2]","[u'black', u'blue', u'red']","[u'left', u'middle', u'right']","[0.9, 0.5, 0.1]","[u'low', u'high', u'medium']","red",51,"right","medium","False","False",416,2000,NA
"AIGUVMQQYYKMN","Fri Oct 30 2020 11:33:18 GMT-0400 (Eastern Daylight Time)","Fri Oct 30 2020 11:40:17 GMT-0400 (Eastern Daylight Time)","Mozilla/5.0 (Windows NT 10.0; Win64; x64) AppleWebKit/537.36 (KHTML, like Gecko) Chrome/86.0.4240.111 Safari/537.36",39,"[0.9, 0.5, 0.1]","[0.8, 0.4, 0.2]","[u'black', u'blue', u'red']","[u'left', u'middle', u'right']","[0.9, 0.5, 0.1]","[u'low', u'high', u'medium']","blue",50,"middle","high","True","False",279,2100,NA
"AIGUVMQQYYKMN","Fri Oct 30 2020 11:33:18 GMT-0400 (Eastern Daylight Time)","Fri Oct 30 2020 11:40:17 GMT-0400 (Eastern Daylight Time)","Mozilla/5.0 (Windows NT 10.0; Win64; x64) AppleWebKit/537.36 (KHTML, like Gecko) Chrome/86.0.4240.111 Safari/537.36",40,"[0.9, 0.5, 0.1]","[0.8, 0.4, 0.2]","[u'black', u'blue', u'red']","[u'left', u'middle', u'right']","[0.9, 0.5, 0.1]","[u'low', u'high', u'medium']","blue",50,"middle","high","False","False",290,2050,NA
"AIGUVMQQYYKMN","Fri Oct 30 2020 11:33:18 GMT-0400 (Eastern Daylight Time)","Fri Oct 30 2020 11:40:17 GMT-0400 (Eastern Daylight Time)","Mozilla/5.0 (Windows NT 10.0; Win64; x64) AppleWebKit/537.36 (KHTML, like Gecko) Chrome/86.0.4240.111 Safari/537.36",41,"[0.9, 0.5, 0.1]","[0.8, 0.4, 0.2]","[u'black', u'blue', u'red']","[u'left', u'middle', u'right']","[0.9, 0.5, 0.1]","[u'high', u'low', u'medium']","red",51,"right","medium","True","False",414,2150,NA
"AIGUVMQQYYKMN","Fri Oct 30 2020 11:33:18 GMT-0400 (Eastern Daylight Time)","Fri Oct 30 2020 11:40:17 GMT-0400 (Eastern Daylight Time)","Mozilla/5.0 (Windows NT 10.0; Win64; x64) AppleWebKit/537.36 (KHTML, like Gecko) Chrome/86.0.4240.111 Safari/537.36",42,"[0.9, 0.5, 0.1]","[0.8, 0.4, 0.2]","[u'black', u'blue', u'red']","[u'left', u'middle', u'right']","[0.9, 0.5, 0.1]","[u'high', u'low', u'medium']","red",51,"right","medium","False","False",489,2100,NA
"AIGUVMQQYYKMN","Fri Oct 30 2020 11:33:18 GMT-0400 (Eastern Daylight Time)","Fri Oct 30 2020 11:40:17 GMT-0400 (Eastern Daylight Time)","Mozilla/5.0 (Windows NT 10.0; Win64; x64) AppleWebKit/537.36 (KHTML, like Gecko) Chrome/86.0.4240.111 Safari/537.36",43,"[0.9, 0.5, 0.1]","[0.8, 0.4, 0.2]","[u'black', u'blue', u'red']","[u'left', u'middle', u'right']","[0.9, 0.5, 0.1]","[u'high', u'low', u'medium']","blue",50,"middle","low","False","False",349,2050,NA
"AIGUVMQQYYKMN","Fri Oct 30 2020 11:33:18 GMT-0400 (Eastern Daylight Time)","Fri Oct 30 2020 11:40:17 GMT-0400 (Eastern Daylight Time)","Mozilla/5.0 (Windows NT 10.0; Win64; x64) AppleWebKit/537.36 (KHTML, like Gecko) Chrome/86.0.4240.111 Safari/537.36",44,"[0.9, 0.5, 0.1]","[0.8, 0.4, 0.2]","[u'black', u'blue', u'red']","[u'left', u'middle', u'right']","[0.9, 0.5, 0.1]","[u'high', u'low', u'medium']","black",49,"left","high","True","False",76,2150,NA
"AIGUVMQQYYKMN","Fri Oct 30 2020 11:33:18 GMT-0400 (Eastern Daylight Time)","Fri Oct 30 2020 11:40:17 GMT-0400 (Eastern Daylight Time)","Mozilla/5.0 (Windows NT 10.0; Win64; x64) AppleWebKit/537.36 (KHTML, like Gecko) Chrome/86.0.4240.111 Safari/537.36",45,"[0.9, 0.5, 0.1]","[0.8, 0.4, 0.2]","[u'black', u'blue', u'red']","[u'left', u'middle', u'right']","[0.9, 0.5, 0.1]","[u'high', u'low', u'medium']","black",49,"left","high","True","False",475,2250,NA
"AIGUVMQQYYKMN","Fri Oct 30 2020 11:33:18 GMT-0400 (Eastern Daylight Time)","Fri Oct 30 2020 11:40:17 GMT-0400 (Eastern Daylight Time)","Mozilla/5.0 (Windows NT 10.0; Win64; x64) AppleWebKit/537.36 (KHTML, like Gecko) Chrome/86.0.4240.111 Safari/537.36",46,"[0.9, 0.5, 0.1]","[0.8, 0.4, 0.2]","[u'black', u'blue', u'red']","[u'left', u'middle', u'right']","[0.9, 0.5, 0.1]","[u'high', u'low', u'medium']","black",49,"left","high","True","False",345,2350,NA
"AIGUVMQQYYKMN","Fri Oct 30 2020 11:33:18 GMT-0400 (Eastern Daylight Time)","Fri Oct 30 2020 11:40:17 GMT-0400 (Eastern Daylight Time)","Mozilla/5.0 (Windows NT 10.0; Win64; x64) AppleWebKit/537.36 (KHTML, like Gecko) Chrome/86.0.4240.111 Safari/537.36",47,"[0.9, 0.5, 0.1]","[0.8, 0.4, 0.2]","[u'black', u'blue', u'red']","[u'left', u'middle', u'right']","[0.9, 0.5, 0.1]","[u'high', u'low', u'medium']","black",49,"left","high","True","False",306,2450,NA
"AIGUVMQQYYKMN","Fri Oct 30 2020 11:33:18 GMT-0400 (Eastern Daylight Time)","Fri Oct 30 2020 11:40:17 GMT-0400 (Eastern Daylight Time)","Mozilla/5.0 (Windows NT 10.0; Win64; x64) AppleWebKit/537.36 (KHTML, like Gecko) Chrome/86.0.4240.111 Safari/537.36",48,"[0.9, 0.5, 0.1]","[0.8, 0.4, 0.2]","[u'black', u'blue', u'red']","[u'left', u'middle', u'right']","[0.9, 0.5, 0.1]","[u'high', u'low', u'medium']","black",49,"left","high","True","False",443,2550,NA
"AIGUVMQQYYKMN","Fri Oct 30 2020 11:33:18 GMT-0400 (Eastern Daylight Time)","Fri Oct 30 2020 11:40:17 GMT-0400 (Eastern Daylight Time)","Mozilla/5.0 (Windows NT 10.0; Win64; x64) AppleWebKit/537.36 (KHTML, like Gecko) Chrome/86.0.4240.111 Safari/537.36",49,"[0.9, 0.5, 0.1]","[0.8, 0.4, 0.2]","[u'black', u'blue', u'red']","[u'left', u'middle', u'right']","[0.9, 0.5, 0.1]","[u'high', u'low', u'medium']","black",49,"left","high","False","False",326,2500,NA
"AIGUVMQQYYKMN","Fri Oct 30 2020 11:33:18 GMT-0400 (Eastern Daylight Time)","Fri Oct 30 2020 11:40:17 GMT-0400 (Eastern Daylight Time)","Mozilla/5.0 (Windows NT 10.0; Win64; x64) AppleWebKit/537.36 (KHTML, like Gecko) Chrome/86.0.4240.111 Safari/537.36",50,"[0.9, 0.5, 0.1]","[0.8, 0.4, 0.2]","[u'black', u'blue', u'red']","[u'left', u'middle', u'right']","[0.9, 0.5, 0.1]","[u'high', u'low', u'medium']","black",49,"left","high","True","False",287,2600,NA
"AIGUVMQQYYKMN","Fri Oct 30 2020 11:33:18 GMT-0400 (Eastern Daylight Time)","Fri Oct 30 2020 11:40:17 GMT-0400 (Eastern Daylight Time)","Mozilla/5.0 (Windows NT 10.0; Win64; x64) AppleWebKit/537.36 (KHTML, like Gecko) Chrome/86.0.4240.111 Safari/537.36",51,"[0.9, 0.5, 0.1]","[0.8, 0.4, 0.2]","[u'black', u'blue', u'red']","[u'left', u'middle', u'right']","[0.9, 0.5, 0.1]","[u'high', u'low', u'medium']","black",49,"left","high","True","False",288,2700,NA
"AIGUVMQQYYKMN","Fri Oct 30 2020 11:33:18 GMT-0400 (Eastern Daylight Time)","Fri Oct 30 2020 11:40:17 GMT-0400 (Eastern Daylight Time)","Mozilla/5.0 (Windows NT 10.0; Win64; x64) AppleWebKit/537.36 (KHTML, like Gecko) Chrome/86.0.4240.111 Safari/537.36",52,"[0.9, 0.5, 0.1]","[0.8, 0.4, 0.2]","[u'black', u'blue', u'red']","[u'left', u'middle', u'right']","[0.9, 0.5, 0.1]","[u'high', u'low', u'medium']","black",49,"left","high","True","True",184,2800,NA
"AIGUVMQQYYKMN","Fri Oct 30 2020 11:33:18 GMT-0400 (Eastern Daylight Time)","Fri Oct 30 2020 11:40:17 GMT-0400 (Eastern Daylight Time)","Mozilla/5.0 (Windows NT 10.0; Win64; x64) AppleWebKit/537.36 (KHTML, like Gecko) Chrome/86.0.4240.111 Safari/537.36",53,"[0.9, 0.5, 0.1]","[0.8, 0.4, 0.2]","[u'black', u'blue', u'red']","[u'left', u'middle', u'right']","[0.9, 0.5, 0.1]","[u'low', u'high', u'medium']","black",49,"left","low","False","False",663,2750,NA
"AIGUVMQQYYKMN","Fri Oct 30 2020 11:33:18 GMT-0400 (Eastern Daylight Time)","Fri Oct 30 2020 11:40:17 GMT-0400 (Eastern Daylight Time)","Mozilla/5.0 (Windows NT 10.0; Win64; x64) AppleWebKit/537.36 (KHTML, like Gecko) Chrome/86.0.4240.111 Safari/537.36",54,"[0.9, 0.5, 0.1]","[0.8, 0.4, 0.2]","[u'black', u'blue', u'red']","[u'left', u'middle', u'right']","[0.9, 0.5, 0.1]","[u'low', u'high', u'medium']","black",49,"left","low","False","False",886,2700,NA
"AIGUVMQQYYKMN","Fri Oct 30 2020 11:33:18 GMT-0400 (Eastern Daylight Time)","Fri Oct 30 2020 11:40:17 GMT-0400 (Eastern Daylight Time)","Mozilla/5.0 (Windows NT 10.0; Win64; x64) AppleWebKit/537.36 (KHTML, like Gecko) Chrome/86.0.4240.111 Safari/537.36",55,"[0.9, 0.5, 0.1]","[0.8, 0.4, 0.2]","[u'black', u'blue', u'red']","[u'left', u'middle', u'right']","[0.9, 0.5, 0.1]","[u'low', u'high', u'medium']","blue",50,"middle","high","False","False",281,2650,NA
"AIGUVMQQYYKMN","Fri Oct 30 2020 11:33:18 GMT-0400 (Eastern Daylight Time)","Fri Oct 30 2020 11:40:17 GMT-0400 (Eastern Daylight Time)","Mozilla/5.0 (Windows NT 10.0; Win64; x64) AppleWebKit/537.36 (KHTML, like Gecko) Chrome/86.0.4240.111 Safari/537.36",56,"[0.9, 0.5, 0.1]","[0.8, 0.4, 0.2]","[u'black', u'blue', u'red']","[u'left', u'middle', u'right']","[0.9, 0.5, 0.1]","[u'low', u'high', u'medium']","red",51,"right","medium","True","False",275,2750,NA
"AIGUVMQQYYKMN","Fri Oct 30 2020 11:33:18 GMT-0400 (Eastern Daylight Time)","Fri Oct 30 2020 11:40:17 GMT-0400 (Eastern Daylight Time)","Mozilla/5.0 (Windows NT 10.0; Win64; x64) AppleWebKit/537.36 (KHTML, like Gecko) Chrome/86.0.4240.111 Safari/537.36",57,"[0.9, 0.5, 0.1]","[0.8, 0.4, 0.2]","[u'black', u'blue', u'red']","[u'left', u'middle', u'right']","[0.9, 0.5, 0.1]","[u'low', u'high', u'medium']","red",51,"right","medium","False","False",56,2700,NA
"AIGUVMQQYYKMN","Fri Oct 30 2020 11:33:18 GMT-0400 (Eastern Daylight Time)","Fri Oct 30 2020 11:40:17 GMT-0400 (Eastern Daylight Time)","Mozilla/5.0 (Windows NT 10.0; Win64; x64) AppleWebKit/537.36 (KHTML, like Gecko) Chrome/86.0.4240.111 Safari/537.36",58,"[0.9, 0.5, 0.1]","[0.8, 0.4, 0.2]","[u'black', u'blue', u'red']","[u'left', u'middle', u'right']","[0.9, 0.5, 0.1]","[u'low', u'high', u'medium']","black",49,"left","low","False","False",322,2650,NA
"AIGUVMQQYYKMN","Fri Oct 30 2020 11:33:18 GMT-0400 (Eastern Daylight Time)","Fri Oct 30 2020 11:40:17 GMT-0400 (Eastern Daylight Time)","Mozilla/5.0 (Windows NT 10.0; Win64; x64) AppleWebKit/537.36 (KHTML, like Gecko) Chrome/86.0.4240.111 Safari/537.36",59,"[0.9, 0.5, 0.1]","[0.8, 0.4, 0.2]","[u'black', u'blue', u'red']","[u'left', u'middle', u'right']","[0.9, 0.5, 0.1]","[u'low', u'high', u'medium']","red",51,"right","medium","False","False",300,2600,NA
"AIGUVMQQYYKMN","Fri Oct 30 2020 11:33:18 GMT-0400 (Eastern Daylight Time)","Fri Oct 30 2020 11:40:17 GMT-0400 (Eastern Daylight Time)","Mozilla/5.0 (Windows NT 10.0; Win64; x64) AppleWebKit/537.36 (KHTML, like Gecko) Chrome/86.0.4240.111 Safari/537.36",60,"[0.9, 0.5, 0.1]","[0.8, 0.4, 0.2]","[u'black', u'blue', u'red']","[u'left', u'middle', u'right']","[0.9, 0.5, 0.1]","[u'low', u'high', u'medium']","blue",50,"middle","high","True","False",276,2700,NA
"AIGUVMQQYYKMN","Fri Oct 30 2020 11:33:18 GMT-0400 (Eastern Daylight Time)","Fri Oct 30 2020 11:40:17 GMT-0400 (Eastern Daylight Time)","Mozilla/5.0 (Windows NT 10.0; Win64; x64) AppleWebKit/537.36 (KHTML, like Gecko) Chrome/86.0.4240.111 Safari/537.36",61,"[0.9, 0.5, 0.1]","[0.8, 0.4, 0.2]","[u'black', u'blue', u'red']","[u'left', u'middle', u'right']","[0.9, 0.5, 0.1]","[u'low', u'high', u'medium']","blue",50,"middle","high","True","False",263,2800,NA
"AIGUVMQQYYKMN","Fri Oct 30 2020 11:33:18 GMT-0400 (Eastern Daylight Time)","Fri Oct 30 2020 11:40:17 GMT-0400 (Eastern Daylight Time)","Mozilla/5.0 (Windows NT 10.0; Win64; x64) AppleWebKit/537.36 (KHTML, like Gecko) Chrome/86.0.4240.111 Safari/537.36",62,"[0.9, 0.5, 0.1]","[0.8, 0.4, 0.2]","[u'black', u'blue', u'red']","[u'left', u'middle', u'right']","[0.9, 0.5, 0.1]","[u'low', u'high', u'medium']","blue",50,"middle","high","True","False",303,2900,NA
"AIGUVMQQYYKMN","Fri Oct 30 2020 11:33:18 GMT-0400 (Eastern Daylight Time)","Fri Oct 30 2020 11:40:17 GMT-0400 (Eastern Daylight Time)","Mozilla/5.0 (Windows NT 10.0; Win64; x64) AppleWebKit/537.36 (KHTML, like Gecko) Chrome/86.0.4240.111 Safari/537.36",63,"[0.9, 0.5, 0.1]","[0.8, 0.4, 0.2]","[u'black', u'blue', u'red']","[u'left', u'middle', u'right']","[0.9, 0.5, 0.1]","[u'low', u'high', u'medium']","blue",50,"middle","high","True","False",313,3000,NA
"AIGUVMQQYYKMN","Fri Oct 30 2020 11:33:18 GMT-0400 (Eastern Daylight Time)","Fri Oct 30 2020 11:40:17 GMT-0400 (Eastern Daylight Time)","Mozilla/5.0 (Windows NT 10.0; Win64; x64) AppleWebKit/537.36 (KHTML, like Gecko) Chrome/86.0.4240.111 Safari/537.36",64,"[0.9, 0.5, 0.1]","[0.8, 0.4, 0.2]","[u'black', u'blue', u'red']","[u'left', u'middle', u'right']","[0.9, 0.5, 0.1]","[u'low', u'high', u'medium']","blue",50,"middle","high","True","False",11,3100,NA
"AIGUVMQQYYKMN","Fri Oct 30 2020 11:33:18 GMT-0400 (Eastern Daylight Time)","Fri Oct 30 2020 11:40:17 GMT-0400 (Eastern Daylight Time)","Mozilla/5.0 (Windows NT 10.0; Win64; x64) AppleWebKit/537.36 (KHTML, like Gecko) Chrome/86.0.4240.111 Safari/537.36",65,"[0.9, 0.5, 0.1]","[0.8, 0.4, 0.2]","[u'black', u'blue', u'red']","[u'left', u'middle', u'right']","[0.9, 0.5, 0.1]","[u'low', u'high', u'medium']","blue",50,"middle","high","False","False",258,3050,NA
"AIGUVMQQYYKMN","Fri Oct 30 2020 11:33:18 GMT-0400 (Eastern Daylight Time)","Fri Oct 30 2020 11:40:17 GMT-0400 (Eastern Daylight Time)","Mozilla/5.0 (Windows NT 10.0; Win64; x64) AppleWebKit/537.36 (KHTML, like Gecko) Chrome/86.0.4240.111 Safari/537.36",66,"[0.9, 0.5, 0.1]","[0.8, 0.4, 0.2]","[u'black', u'blue', u'red']","[u'left', u'middle', u'right']","[0.9, 0.5, 0.1]","[u'low', u'high', u'medium']","blue",50,"middle","high","True","False",96,3150,NA
"AIGUVMQQYYKMN","Fri Oct 30 2020 11:33:18 GMT-0400 (Eastern Daylight Time)","Fri Oct 30 2020 11:40:17 GMT-0400 (Eastern Daylight Time)","Mozilla/5.0 (Windows NT 10.0; Win64; x64) AppleWebKit/537.36 (KHTML, like Gecko) Chrome/86.0.4240.111 Safari/537.36",67,"[0.9, 0.5, 0.1]","[0.8, 0.4, 0.2]","[u'black', u'blue', u'red']","[u'left', u'middle', u'right']","[0.9, 0.5, 0.1]","[u'low', u'high', u'medium']","blue",50,"middle","high","True","False",278,3250,NA
"AIGUVMQQYYKMN","Fri Oct 30 2020 11:33:18 GMT-0400 (Eastern Daylight Time)","Fri Oct 30 2020 11:40:17 GMT-0400 (Eastern Daylight Time)","Mozilla/5.0 (Windows NT 10.0; Win64; x64) AppleWebKit/537.36 (KHTML, like Gecko) Chrome/86.0.4240.111 Safari/537.36",68,"[0.9, 0.5, 0.1]","[0.8, 0.4, 0.2]","[u'black', u'blue', u'red']","[u'left', u'middle', u'right']","[0.9, 0.5, 0.1]","[u'low', u'high', u'medium']","blue",50,"middle","high","True","True",159,3350,NA
"AIGUVMQQYYKMN","Fri Oct 30 2020 11:33:18 GMT-0400 (Eastern Daylight Time)","Fri Oct 30 2020 11:40:17 GMT-0400 (Eastern Daylight Time)","Mozilla/5.0 (Windows NT 10.0; Win64; x64) AppleWebKit/537.36 (KHTML, like Gecko) Chrome/86.0.4240.111 Safari/537.36",69,"[0.9, 0.5, 0.1]","[0.8, 0.4, 0.2]","[u'black', u'blue', u'red']","[u'left', u'middle', u'right']","[0.9, 0.5, 0.1]","[u'medium', u'low', u'high']","blue",50,"middle","low","False","False",242,3300,NA
"AIGUVMQQYYKMN","Fri Oct 30 2020 11:33:18 GMT-0400 (Eastern Daylight Time)","Fri Oct 30 2020 11:40:17 GMT-0400 (Eastern Daylight Time)","Mozilla/5.0 (Windows NT 10.0; Win64; x64) AppleWebKit/537.36 (KHTML, like Gecko) Chrome/86.0.4240.111 Safari/537.36",70,"[0.9, 0.5, 0.1]","[0.8, 0.4, 0.2]","[u'black', u'blue', u'red']","[u'left', u'middle', u'right']","[0.9, 0.5, 0.1]","[u'medium', u'low', u'high']","blue",50,"middle","low","False","False",293,3250,NA
"AIGUVMQQYYKMN","Fri Oct 30 2020 11:33:18 GMT-0400 (Eastern Daylight Time)","Fri Oct 30 2020 11:40:17 GMT-0400 (Eastern Daylight Time)","Mozilla/5.0 (Windows NT 10.0; Win64; x64) AppleWebKit/537.36 (KHTML, like Gecko) Chrome/86.0.4240.111 Safari/537.36",71,"[0.9, 0.5, 0.1]","[0.8, 0.4, 0.2]","[u'black', u'blue', u'red']","[u'left', u'middle', u'right']","[0.9, 0.5, 0.1]","[u'medium', u'low', u'high']","black",49,"left","medium","True","False",401,3350,NA
"AIGUVMQQYYKMN","Fri Oct 30 2020 11:33:18 GMT-0400 (Eastern Daylight Time)","Fri Oct 30 2020 11:40:17 GMT-0400 (Eastern Daylight Time)","Mozilla/5.0 (Windows NT 10.0; Win64; x64) AppleWebKit/537.36 (KHTML, like Gecko) Chrome/86.0.4240.111 Safari/537.36",72,"[0.9, 0.5, 0.1]","[0.8, 0.4, 0.2]","[u'black', u'blue', u'red']","[u'left', u'middle', u'right']","[0.9, 0.5, 0.1]","[u'medium', u'low', u'high']","black",49,"left","medium","False","False",333,3300,NA
"AIGUVMQQYYKMN","Fri Oct 30 2020 11:33:18 GMT-0400 (Eastern Daylight Time)","Fri Oct 30 2020 11:40:17 GMT-0400 (Eastern Daylight Time)","Mozilla/5.0 (Windows NT 10.0; Win64; x64) AppleWebKit/537.36 (KHTML, like Gecko) Chrome/86.0.4240.111 Safari/537.36",73,"[0.9, 0.5, 0.1]","[0.8, 0.4, 0.2]","[u'black', u'blue', u'red']","[u'left', u'middle', u'right']","[0.9, 0.5, 0.1]","[u'medium', u'low', u'high']","red",51,"right","high","True","False",276,3400,NA
"AIGUVMQQYYKMN","Fri Oct 30 2020 11:33:18 GMT-0400 (Eastern Daylight Time)","Fri Oct 30 2020 11:40:17 GMT-0400 (Eastern Daylight Time)","Mozilla/5.0 (Windows NT 10.0; Win64; x64) AppleWebKit/537.36 (KHTML, like Gecko) Chrome/86.0.4240.111 Safari/537.36",74,"[0.9, 0.5, 0.1]","[0.8, 0.4, 0.2]","[u'black', u'blue', u'red']","[u'left', u'middle', u'right']","[0.9, 0.5, 0.1]","[u'medium', u'low', u'high']","red",51,"right","high","True","False",353,3500,NA
"AIGUVMQQYYKMN","Fri Oct 30 2020 11:33:18 GMT-0400 (Eastern Daylight Time)","Fri Oct 30 2020 11:40:17 GMT-0400 (Eastern Daylight Time)","Mozilla/5.0 (Windows NT 10.0; Win64; x64) AppleWebKit/537.36 (KHTML, like Gecko) Chrome/86.0.4240.111 Safari/537.36",75,"[0.9, 0.5, 0.1]","[0.8, 0.4, 0.2]","[u'black', u'blue', u'red']","[u'left', u'middle', u'right']","[0.9, 0.5, 0.1]","[u'medium', u'low', u'high']","red",51,"right","high","True","False",237,3600,NA
"AIGUVMQQYYKMN","Fri Oct 30 2020 11:33:18 GMT-0400 (Eastern Daylight Time)","Fri Oct 30 2020 11:40:17 GMT-0400 (Eastern Daylight Time)","Mozilla/5.0 (Windows NT 10.0; Win64; x64) AppleWebKit/537.36 (KHTML, like Gecko) Chrome/86.0.4240.111 Safari/537.36",76,"[0.9, 0.5, 0.1]","[0.8, 0.4, 0.2]","[u'black', u'blue', u'red']","[u'left', u'middle', u'right']","[0.9, 0.5, 0.1]","[u'medium', u'low', u'high']","red",51,"right","high","True","False",319,3700,NA
"AIGUVMQQYYKMN","Fri Oct 30 2020 11:33:18 GMT-0400 (Eastern Daylight Time)","Fri Oct 30 2020 11:40:17 GMT-0400 (Eastern Daylight Time)","Mozilla/5.0 (Windows NT 10.0; Win64; x64) AppleWebKit/537.36 (KHTML, like Gecko) Chrome/86.0.4240.111 Safari/537.36",77,"[0.9, 0.5, 0.1]","[0.8, 0.4, 0.2]","[u'black', u'blue', u'red']","[u'left', u'middle', u'right']","[0.9, 0.5, 0.1]","[u'medium', u'low', u'high']","red",51,"right","high","False","False",337,3650,NA
"AIGUVMQQYYKMN","Fri Oct 30 2020 11:33:18 GMT-0400 (Eastern Daylight Time)","Fri Oct 30 2020 11:40:17 GMT-0400 (Eastern Daylight Time)","Mozilla/5.0 (Windows NT 10.0; Win64; x64) AppleWebKit/537.36 (KHTML, like Gecko) Chrome/86.0.4240.111 Safari/537.36",78,"[0.9, 0.5, 0.1]","[0.8, 0.4, 0.2]","[u'black', u'blue', u'red']","[u'left', u'middle', u'right']","[0.9, 0.5, 0.1]","[u'medium', u'low', u'high']","blue",50,"middle","low","False","False",331,3600,NA
"AIGUVMQQYYKMN","Fri Oct 30 2020 11:33:18 GMT-0400 (Eastern Daylight Time)","Fri Oct 30 2020 11:40:17 GMT-0400 (Eastern Daylight Time)","Mozilla/5.0 (Windows NT 10.0; Win64; x64) AppleWebKit/537.36 (KHTML, like Gecko) Chrome/86.0.4240.111 Safari/537.36",79,"[0.9, 0.5, 0.1]","[0.8, 0.4, 0.2]","[u'black', u'blue', u'red']","[u'left', u'middle', u'right']","[0.9, 0.5, 0.1]","[u'medium', u'low', u'high']","black",49,"left","medium","True","False",271,3700,NA
"AIGUVMQQYYKMN","Fri Oct 30 2020 11:33:18 GMT-0400 (Eastern Daylight Time)","Fri Oct 30 2020 11:40:17 GMT-0400 (Eastern Daylight Time)","Mozilla/5.0 (Windows NT 10.0; Win64; x64) AppleWebKit/537.36 (KHTML, like Gecko) Chrome/86.0.4240.111 Safari/537.36",80,"[0.9, 0.5, 0.1]","[0.8, 0.4, 0.2]","[u'black', u'blue', u'red']","[u'left', u'middle', u'right']","[0.9, 0.5, 0.1]","[u'medium', u'low', u'high']","black",49,"left","medium","False","False",290,3650,NA
"AIGUVMQQYYKMN","Fri Oct 30 2020 11:33:18 GMT-0400 (Eastern Daylight Time)","Fri Oct 30 2020 11:40:17 GMT-0400 (Eastern Daylight Time)","Mozilla/5.0 (Windows NT 10.0; Win64; x64) AppleWebKit/537.36 (KHTML, like Gecko) Chrome/86.0.4240.111 Safari/537.36",81,"[0.9, 0.5, 0.1]","[0.8, 0.4, 0.2]","[u'black', u'blue', u'red']","[u'left', u'middle', u'right']","[0.8, 0.4, 0.2]","[u'medium', u'high', u'low']","black",49,"left","medium","False","False",267,3600,NA
"AIGUVMQQYYKMN","Fri Oct 30 2020 11:33:18 GMT-0400 (Eastern Daylight Time)","Fri Oct 30 2020 11:40:17 GMT-0400 (Eastern Daylight Time)","Mozilla/5.0 (Windows NT 10.0; Win64; x64) AppleWebKit/537.36 (KHTML, like Gecko) Chrome/86.0.4240.111 Safari/537.36",82,"[0.9, 0.5, 0.1]","[0.8, 0.4, 0.2]","[u'black', u'blue', u'red']","[u'left', u'middle', u'right']","[0.8, 0.4, 0.2]","[u'medium', u'high', u'low']","blue",50,"middle","high","True","False",305,3700,NA
"AIGUVMQQYYKMN","Fri Oct 30 2020 11:33:18 GMT-0400 (Eastern Daylight Time)","Fri Oct 30 2020 11:40:17 GMT-0400 (Eastern Daylight Time)","Mozilla/5.0 (Windows NT 10.0; Win64; x64) AppleWebKit/537.36 (KHTML, like Gecko) Chrome/86.0.4240.111 Safari/537.36",83,"[0.9, 0.5, 0.1]","[0.8, 0.4, 0.2]","[u'black', u'blue', u'red']","[u'left', u'middle', u'right']","[0.8, 0.4, 0.2]","[u'medium', u'high', u'low']","blue",50,"middle","high","True","False",336,3800,NA
"AIGUVMQQYYKMN","Fri Oct 30 2020 11:33:18 GMT-0400 (Eastern Daylight Time)","Fri Oct 30 2020 11:40:17 GMT-0400 (Eastern Daylight Time)","Mozilla/5.0 (Windows NT 10.0; Win64; x64) AppleWebKit/537.36 (KHTML, like Gecko) Chrome/86.0.4240.111 Safari/537.36",84,"[0.9, 0.5, 0.1]","[0.8, 0.4, 0.2]","[u'black', u'blue', u'red']","[u'left', u'middle', u'right']","[0.8, 0.4, 0.2]","[u'medium', u'high', u'low']","blue",50,"middle","high","True","False",241,3900,NA
"AIGUVMQQYYKMN","Fri Oct 30 2020 11:33:18 GMT-0400 (Eastern Daylight Time)","Fri Oct 30 2020 11:40:17 GMT-0400 (Eastern Daylight Time)","Mozilla/5.0 (Windows NT 10.0; Win64; x64) AppleWebKit/537.36 (KHTML, like Gecko) Chrome/86.0.4240.111 Safari/537.36",85,"[0.9, 0.5, 0.1]","[0.8, 0.4, 0.2]","[u'black', u'blue', u'red']","[u'left', u'middle', u'right']","[0.8, 0.4, 0.2]","[u'medium', u'high', u'low']","blue",50,"middle","high","False","False",253,3850,NA
"AIGUVMQQYYKMN","Fri Oct 30 2020 11:33:18 GMT-0400 (Eastern Daylight Time)","Fri Oct 30 2020 11:40:17 GMT-0400 (Eastern Daylight Time)","Mozilla/5.0 (Windows NT 10.0; Win64; x64) AppleWebKit/537.36 (KHTML, like Gecko) Chrome/86.0.4240.111 Safari/537.36",86,"[0.9, 0.5, 0.1]","[0.8, 0.4, 0.2]","[u'black', u'blue', u'red']","[u'left', u'middle', u'right']","[0.8, 0.4, 0.2]","[u'medium', u'high', u'low']","blue",50,"middle","high","True","False",255,3950,NA
"AIGUVMQQYYKMN","Fri Oct 30 2020 11:33:18 GMT-0400 (Eastern Daylight Time)","Fri Oct 30 2020 11:40:17 GMT-0400 (Eastern Daylight Time)","Mozilla/5.0 (Windows NT 10.0; Win64; x64) AppleWebKit/537.36 (KHTML, like Gecko) Chrome/86.0.4240.111 Safari/537.36",87,"[0.9, 0.5, 0.1]","[0.8, 0.4, 0.2]","[u'black', u'blue', u'red']","[u'left', u'middle', u'right']","[0.8, 0.4, 0.2]","[u'medium', u'high', u'low']","blue",50,"middle","high","True","False",360,4050,NA
"AIGUVMQQYYKMN","Fri Oct 30 2020 11:33:18 GMT-0400 (Eastern Daylight Time)","Fri Oct 30 2020 11:40:17 GMT-0400 (Eastern Daylight Time)","Mozilla/5.0 (Windows NT 10.0; Win64; x64) AppleWebKit/537.36 (KHTML, like Gecko) Chrome/86.0.4240.111 Safari/537.36",88,"[0.9, 0.5, 0.1]","[0.8, 0.4, 0.2]","[u'black', u'blue', u'red']","[u'left', u'middle', u'right']","[0.8, 0.4, 0.2]","[u'medium', u'high', u'low']","blue",50,"middle","high","False","False",252,4000,NA
"AIGUVMQQYYKMN","Fri Oct 30 2020 11:33:18 GMT-0400 (Eastern Daylight Time)","Fri Oct 30 2020 11:40:17 GMT-0400 (Eastern Daylight Time)","Mozilla/5.0 (Windows NT 10.0; Win64; x64) AppleWebKit/537.36 (KHTML, like Gecko) Chrome/86.0.4240.111 Safari/537.36",89,"[0.9, 0.5, 0.1]","[0.8, 0.4, 0.2]","[u'black', u'blue', u'red']","[u'left', u'middle', u'right']","[0.8, 0.4, 0.2]","[u'medium', u'high', u'low']","blue",50,"middle","high","True","False",147,4100,NA
"AIGUVMQQYYKMN","Fri Oct 30 2020 11:33:18 GMT-0400 (Eastern Daylight Time)","Fri Oct 30 2020 11:40:17 GMT-0400 (Eastern Daylight Time)","Mozilla/5.0 (Windows NT 10.0; Win64; x64) AppleWebKit/537.36 (KHTML, like Gecko) Chrome/86.0.4240.111 Safari/537.36",90,"[0.9, 0.5, 0.1]","[0.8, 0.4, 0.2]","[u'black', u'blue', u'red']","[u'left', u'middle', u'right']","[0.8, 0.4, 0.2]","[u'medium', u'high', u'low']","blue",50,"middle","high","True","True",271,4200,NA
"AIGUVMQQYYKMN","Fri Oct 30 2020 11:33:18 GMT-0400 (Eastern Daylight Time)","Fri Oct 30 2020 11:40:17 GMT-0400 (Eastern Daylight Time)","Mozilla/5.0 (Windows NT 10.0; Win64; x64) AppleWebKit/537.36 (KHTML, like Gecko) Chrome/86.0.4240.111 Safari/537.36",91,"[0.9, 0.5, 0.1]","[0.8, 0.4, 0.2]","[u'black', u'blue', u'red']","[u'left', u'middle', u'right']","[0.8, 0.4, 0.2]","[u'medium', u'low', u'high']","blue",50,"middle","low","False","False",300,4150,NA
"AIGUVMQQYYKMN","Fri Oct 30 2020 11:33:18 GMT-0400 (Eastern Daylight Time)","Fri Oct 30 2020 11:40:17 GMT-0400 (Eastern Daylight Time)","Mozilla/5.0 (Windows NT 10.0; Win64; x64) AppleWebKit/537.36 (KHTML, like Gecko) Chrome/86.0.4240.111 Safari/537.36",92,"[0.9, 0.5, 0.1]","[0.8, 0.4, 0.2]","[u'black', u'blue', u'red']","[u'left', u'middle', u'right']","[0.8, 0.4, 0.2]","[u'medium', u'low', u'high']","blue",50,"middle","low","False","False",270,4100,NA
"AIGUVMQQYYKMN","Fri Oct 30 2020 11:33:18 GMT-0400 (Eastern Daylight Time)","Fri Oct 30 2020 11:40:17 GMT-0400 (Eastern Daylight Time)","Mozilla/5.0 (Windows NT 10.0; Win64; x64) AppleWebKit/537.36 (KHTML, like Gecko) Chrome/86.0.4240.111 Safari/537.36",93,"[0.9, 0.5, 0.1]","[0.8, 0.4, 0.2]","[u'black', u'blue', u'red']","[u'left', u'middle', u'right']","[0.8, 0.4, 0.2]","[u'medium', u'low', u'high']","red",51,"right","high","False","False",300,4050,NA
"AIGUVMQQYYKMN","Fri Oct 30 2020 11:33:18 GMT-0400 (Eastern Daylight Time)","Fri Oct 30 2020 11:40:17 GMT-0400 (Eastern Daylight Time)","Mozilla/5.0 (Windows NT 10.0; Win64; x64) AppleWebKit/537.36 (KHTML, like Gecko) Chrome/86.0.4240.111 Safari/537.36",94,"[0.9, 0.5, 0.1]","[0.8, 0.4, 0.2]","[u'black', u'blue', u'red']","[u'left', u'middle', u'right']","[0.8, 0.4, 0.2]","[u'medium', u'low', u'high']","black",49,"left","medium","False","False",211,4000,NA
"AIGUVMQQYYKMN","Fri Oct 30 2020 11:33:18 GMT-0400 (Eastern Daylight Time)","Fri Oct 30 2020 11:40:17 GMT-0400 (Eastern Daylight Time)","Mozilla/5.0 (Windows NT 10.0; Win64; x64) AppleWebKit/537.36 (KHTML, like Gecko) Chrome/86.0.4240.111 Safari/537.36",95,"[0.9, 0.5, 0.1]","[0.8, 0.4, 0.2]","[u'black', u'blue', u'red']","[u'left', u'middle', u'right']","[0.8, 0.4, 0.2]","[u'medium', u'low', u'high']","blue",50,"middle","low","False","False",286,3950,NA
"AIGUVMQQYYKMN","Fri Oct 30 2020 11:33:18 GMT-0400 (Eastern Daylight Time)","Fri Oct 30 2020 11:40:17 GMT-0400 (Eastern Daylight Time)","Mozilla/5.0 (Windows NT 10.0; Win64; x64) AppleWebKit/537.36 (KHTML, like Gecko) Chrome/86.0.4240.111 Safari/537.36",96,"[0.9, 0.5, 0.1]","[0.8, 0.4, 0.2]","[u'black', u'blue', u'red']","[u'left', u'middle', u'right']","[0.8, 0.4, 0.2]","[u'medium', u'low', u'high']","red",51,"right","high","True","False",194,4050,NA
"AIGUVMQQYYKMN","Fri Oct 30 2020 11:33:18 GMT-0400 (Eastern Daylight Time)","Fri Oct 30 2020 11:40:17 GMT-0400 (Eastern Daylight Time)","Mozilla/5.0 (Windows NT 10.0; Win64; x64) AppleWebKit/537.36 (KHTML, like Gecko) Chrome/86.0.4240.111 Safari/537.36",97,"[0.9, 0.5, 0.1]","[0.8, 0.4, 0.2]","[u'black', u'blue', u'red']","[u'left', u'middle', u'right']","[0.8, 0.4, 0.2]","[u'medium', u'low', u'high']","red",51,"right","high","False","False",160,4000,NA
"AIGUVMQQYYKMN","Fri Oct 30 2020 11:33:18 GMT-0400 (Eastern Daylight Time)","Fri Oct 30 2020 11:40:17 GMT-0400 (Eastern Daylight Time)","Mozilla/5.0 (Windows NT 10.0; Win64; x64) AppleWebKit/537.36 (KHTML, like Gecko) Chrome/86.0.4240.111 Safari/537.36",98,"[0.9, 0.5, 0.1]","[0.8, 0.4, 0.2]","[u'black', u'blue', u'red']","[u'left', u'middle', u'right']","[0.8, 0.4, 0.2]","[u'medium', u'low', u'high']","black",49,"left","medium","False","False",109,3950,NA
"AIGUVMQQYYKMN","Fri Oct 30 2020 11:33:18 GMT-0400 (Eastern Daylight Time)","Fri Oct 30 2020 11:40:17 GMT-0400 (Eastern Daylight Time)","Mozilla/5.0 (Windows NT 10.0; Win64; x64) AppleWebKit/537.36 (KHTML, like Gecko) Chrome/86.0.4240.111 Safari/537.36",99,"[0.9, 0.5, 0.1]","[0.8, 0.4, 0.2]","[u'black', u'blue', u'red']","[u'left', u'middle', u'right']","[0.8, 0.4, 0.2]","[u'medium', u'low', u'high']","red",51,"right","high","True","False",433,4050,NA
"AIGUVMQQYYKMN","Fri Oct 30 2020 11:33:18 GMT-0400 (Eastern Daylight Time)","Fri Oct 30 2020 11:40:17 GMT-0400 (Eastern Daylight Time)","Mozilla/5.0 (Windows NT 10.0; Win64; x64) AppleWebKit/537.36 (KHTML, like Gecko) Chrome/86.0.4240.111 Safari/537.36",100,"[0.9, 0.5, 0.1]","[0.8, 0.4, 0.2]","[u'black', u'blue', u'red']","[u'left', u'middle', u'right']","[0.8, 0.4, 0.2]","[u'medium', u'low', u'high']","red",51,"right","high","True","False",448,4150,NA
"AIGUVMQQYYKMN","Fri Oct 30 2020 11:33:18 GMT-0400 (Eastern Daylight Time)","Fri Oct 30 2020 11:40:17 GMT-0400 (Eastern Daylight Time)","Mozilla/5.0 (Windows NT 10.0; Win64; x64) AppleWebKit/537.36 (KHTML, like Gecko) Chrome/86.0.4240.111 Safari/537.36",101,"[0.9, 0.5, 0.1]","[0.8, 0.4, 0.2]","[u'black', u'blue', u'red']","[u'left', u'middle', u'right']","[0.8, 0.4, 0.2]","[u'medium', u'low', u'high']","red",51,"right","high","True","False",261,4250,NA
"AIGUVMQQYYKMN","Fri Oct 30 2020 11:33:18 GMT-0400 (Eastern Daylight Time)","Fri Oct 30 2020 11:40:17 GMT-0400 (Eastern Daylight Time)","Mozilla/5.0 (Windows NT 10.0; Win64; x64) AppleWebKit/537.36 (KHTML, like Gecko) Chrome/86.0.4240.111 Safari/537.36",102,"[0.9, 0.5, 0.1]","[0.8, 0.4, 0.2]","[u'black', u'blue', u'red']","[u'left', u'middle', u'right']","[0.8, 0.4, 0.2]","[u'medium', u'low', u'high']","red",51,"right","high","False","False",903,4200,NA
"AIGUVMQQYYKMN","Fri Oct 30 2020 11:33:18 GMT-0400 (Eastern Daylight Time)","Fri Oct 30 2020 11:40:17 GMT-0400 (Eastern Daylight Time)","Mozilla/5.0 (Windows NT 10.0; Win64; x64) AppleWebKit/537.36 (KHTML, like Gecko) Chrome/86.0.4240.111 Safari/537.36",103,"[0.9, 0.5, 0.1]","[0.8, 0.4, 0.2]","[u'black', u'blue', u'red']","[u'left', u'middle', u'right']","[0.8, 0.4, 0.2]","[u'medium', u'low', u'high']","blue",50,"middle","low","False","False",321,4150,NA
"AIGUVMQQYYKMN","Fri Oct 30 2020 11:33:18 GMT-0400 (Eastern Daylight Time)","Fri Oct 30 2020 11:40:17 GMT-0400 (Eastern Daylight Time)","Mozilla/5.0 (Windows NT 10.0; Win64; x64) AppleWebKit/537.36 (KHTML, like Gecko) Chrome/86.0.4240.111 Safari/537.36",104,"[0.9, 0.5, 0.1]","[0.8, 0.4, 0.2]","[u'black', u'blue', u'red']","[u'left', u'middle', u'right']","[0.8, 0.4, 0.2]","[u'medium', u'low', u'high']","black",49,"left","medium","True","False",348,4250,NA
"AIGUVMQQYYKMN","Fri Oct 30 2020 11:33:18 GMT-0400 (Eastern Daylight Time)","Fri Oct 30 2020 11:40:17 GMT-0400 (Eastern Daylight Time)","Mozilla/5.0 (Windows NT 10.0; Win64; x64) AppleWebKit/537.36 (KHTML, like Gecko) Chrome/86.0.4240.111 Safari/537.36",105,"[0.9, 0.5, 0.1]","[0.8, 0.4, 0.2]","[u'black', u'blue', u'red']","[u'left', u'middle', u'right']","[0.8, 0.4, 0.2]","[u'medium', u'low', u'high']","black",49,"left","medium","False","False",297,4200,NA
"AIGUVMQQYYKMN","Fri Oct 30 2020 11:33:18 GMT-0400 (Eastern Daylight Time)","Fri Oct 30 2020 11:40:17 GMT-0400 (Eastern Daylight Time)","Mozilla/5.0 (Windows NT 10.0; Win64; x64) AppleWebKit/537.36 (KHTML, like Gecko) Chrome/86.0.4240.111 Safari/537.36",106,"[0.9, 0.5, 0.1]","[0.8, 0.4, 0.2]","[u'black', u'blue', u'red']","[u'left', u'middle', u'right']","[0.8, 0.4, 0.2]","[u'medium', u'low', u'high']","red",51,"right","high","True","False",80,4300,NA
"AIGUVMQQYYKMN","Fri Oct 30 2020 11:33:18 GMT-0400 (Eastern Daylight Time)","Fri Oct 30 2020 11:40:17 GMT-0400 (Eastern Daylight Time)","Mozilla/5.0 (Windows NT 10.0; Win64; x64) AppleWebKit/537.36 (KHTML, like Gecko) Chrome/86.0.4240.111 Safari/537.36",107,"[0.9, 0.5, 0.1]","[0.8, 0.4, 0.2]","[u'black', u'blue', u'red']","[u'left', u'middle', u'right']","[0.8, 0.4, 0.2]","[u'medium', u'low', u'high']","red",51,"right","high","True","False",250,4400,NA
"AIGUVMQQYYKMN","Fri Oct 30 2020 11:33:18 GMT-0400 (Eastern Daylight Time)","Fri Oct 30 2020 11:40:17 GMT-0400 (Eastern Daylight Time)","Mozilla/5.0 (Windows NT 10.0; Win64; x64) AppleWebKit/537.36 (KHTML, like Gecko) Chrome/86.0.4240.111 Safari/537.36",108,"[0.9, 0.5, 0.1]","[0.8, 0.4, 0.2]","[u'black', u'blue', u'red']","[u'left', u'middle', u'right']","[0.8, 0.4, 0.2]","[u'medium', u'low', u'high']","red",51,"right","high","True","False",291,4500,NA
"AIGUVMQQYYKMN","Fri Oct 30 2020 11:33:18 GMT-0400 (Eastern Daylight Time)","Fri Oct 30 2020 11:40:17 GMT-0400 (Eastern Daylight Time)","Mozilla/5.0 (Windows NT 10.0; Win64; x64) AppleWebKit/537.36 (KHTML, like Gecko) Chrome/86.0.4240.111 Safari/537.36",109,"[0.9, 0.5, 0.1]","[0.8, 0.4, 0.2]","[u'black', u'blue', u'red']","[u'left', u'middle', u'right']","[0.8, 0.4, 0.2]","[u'medium', u'low', u'high']","red",51,"right","high","True","False",281,4600,NA
"AIGUVMQQYYKMN","Fri Oct 30 2020 11:33:18 GMT-0400 (Eastern Daylight Time)","Fri Oct 30 2020 11:40:17 GMT-0400 (Eastern Daylight Time)","Mozilla/5.0 (Windows NT 10.0; Win64; x64) AppleWebKit/537.36 (KHTML, like Gecko) Chrome/86.0.4240.111 Safari/537.36",110,"[0.9, 0.5, 0.1]","[0.8, 0.4, 0.2]","[u'black', u'blue', u'red']","[u'left', u'middle', u'right']","[0.8, 0.4, 0.2]","[u'medium', u'low', u'high']","red",51,"right","high","False","False",247,4550,NA
"AIGUVMQQYYKMN","Fri Oct 30 2020 11:33:18 GMT-0400 (Eastern Daylight Time)","Fri Oct 30 2020 11:40:17 GMT-0400 (Eastern Daylight Time)","Mozilla/5.0 (Windows NT 10.0; Win64; x64) AppleWebKit/537.36 (KHTML, like Gecko) Chrome/86.0.4240.111 Safari/537.36",111,"[0.9, 0.5, 0.1]","[0.8, 0.4, 0.2]","[u'black', u'blue', u'red']","[u'left', u'middle', u'right']","[0.8, 0.4, 0.2]","[u'medium', u'low', u'high']","red",51,"right","high","False","False",257,4500,NA
"AIGUVMQQYYKMN","Fri Oct 30 2020 11:33:18 GMT-0400 (Eastern Daylight Time)","Fri Oct 30 2020 11:40:17 GMT-0400 (Eastern Daylight Time)","Mozilla/5.0 (Windows NT 10.0; Win64; x64) AppleWebKit/537.36 (KHTML, like Gecko) Chrome/86.0.4240.111 Safari/537.36",112,"[0.9, 0.5, 0.1]","[0.8, 0.4, 0.2]","[u'black', u'blue', u'red']","[u'left', u'middle', u'right']","[0.8, 0.4, 0.2]","[u'medium', u'low', u'high']","blue",50,"middle","low","True","False",145,4600,NA
"AIGUVMQQYYKMN","Fri Oct 30 2020 11:33:18 GMT-0400 (Eastern Daylight Time)","Fri Oct 30 2020 11:40:17 GMT-0400 (Eastern Daylight Time)","Mozilla/5.0 (Windows NT 10.0; Win64; x64) AppleWebKit/537.36 (KHTML, like Gecko) Chrome/86.0.4240.111 Safari/537.36",113,"[0.9, 0.5, 0.1]","[0.8, 0.4, 0.2]","[u'black', u'blue', u'red']","[u'left', u'middle', u'right']","[0.8, 0.4, 0.2]","[u'medium', u'low', u'high']","blue",50,"middle","low","True","False",252,4700,NA
"AIGUVMQQYYKMN","Fri Oct 30 2020 11:33:18 GMT-0400 (Eastern Daylight Time)","Fri Oct 30 2020 11:40:17 GMT-0400 (Eastern Daylight Time)","Mozilla/5.0 (Windows NT 10.0; Win64; x64) AppleWebKit/537.36 (KHTML, like Gecko) Chrome/86.0.4240.111 Safari/537.36",114,"[0.9, 0.5, 0.1]","[0.8, 0.4, 0.2]","[u'black', u'blue', u'red']","[u'left', u'middle', u'right']","[0.8, 0.4, 0.2]","[u'medium', u'low', u'high']","blue",50,"middle","low","False","False",126,4650,NA
"AIGUVMQQYYKMN","Fri Oct 30 2020 11:33:18 GMT-0400 (Eastern Daylight Time)","Fri Oct 30 2020 11:40:17 GMT-0400 (Eastern Daylight Time)","Mozilla/5.0 (Windows NT 10.0; Win64; x64) AppleWebKit/537.36 (KHTML, like Gecko) Chrome/86.0.4240.111 Safari/537.36",115,"[0.9, 0.5, 0.1]","[0.8, 0.4, 0.2]","[u'black', u'blue', u'red']","[u'left', u'middle', u'right']","[0.8, 0.4, 0.2]","[u'medium', u'low', u'high']","black",49,"left","medium","False","False",16,4600,NA
"AIGUVMQQYYKMN","Fri Oct 30 2020 11:33:18 GMT-0400 (Eastern Daylight Time)","Fri Oct 30 2020 11:40:17 GMT-0400 (Eastern Daylight Time)","Mozilla/5.0 (Windows NT 10.0; Win64; x64) AppleWebKit/537.36 (KHTML, like Gecko) Chrome/86.0.4240.111 Safari/537.36",116,"[0.9, 0.5, 0.1]","[0.8, 0.4, 0.2]","[u'black', u'blue', u'red']","[u'left', u'middle', u'right']","[0.8, 0.4, 0.2]","[u'medium', u'low', u'high']","blue",50,"middle","low","False","False",324,4550,NA
"AIGUVMQQYYKMN","Fri Oct 30 2020 11:33:18 GMT-0400 (Eastern Daylight Time)","Fri Oct 30 2020 11:40:17 GMT-0400 (Eastern Daylight Time)","Mozilla/5.0 (Windows NT 10.0; Win64; x64) AppleWebKit/537.36 (KHTML, like Gecko) Chrome/86.0.4240.111 Safari/537.36",117,"[0.9, 0.5, 0.1]","[0.8, 0.4, 0.2]","[u'black', u'blue', u'red']","[u'left', u'middle', u'right']","[0.8, 0.4, 0.2]","[u'medium', u'low', u'high']","red",51,"right","high","False","False",370,4500,NA
"AIGUVMQQYYKMN","Fri Oct 30 2020 11:33:18 GMT-0400 (Eastern Daylight Time)","Fri Oct 30 2020 11:40:17 GMT-0400 (Eastern Daylight Time)","Mozilla/5.0 (Windows NT 10.0; Win64; x64) AppleWebKit/537.36 (KHTML, like Gecko) Chrome/86.0.4240.111 Safari/537.36",118,"[0.9, 0.5, 0.1]","[0.8, 0.4, 0.2]","[u'black', u'blue', u'red']","[u'left', u'middle', u'right']","[0.8, 0.4, 0.2]","[u'medium', u'low', u'high']","black",49,"left","medium","True","False",287,4600,NA
"AIGUVMQQYYKMN","Fri Oct 30 2020 11:33:18 GMT-0400 (Eastern Daylight Time)","Fri Oct 30 2020 11:40:17 GMT-0400 (Eastern Daylight Time)","Mozilla/5.0 (Windows NT 10.0; Win64; x64) AppleWebKit/537.36 (KHTML, like Gecko) Chrome/86.0.4240.111 Safari/537.36",119,"[0.9, 0.5, 0.1]","[0.8, 0.4, 0.2]","[u'black', u'blue', u'red']","[u'left', u'middle', u'right']","[0.8, 0.4, 0.2]","[u'medium', u'low', u'high']","black",49,"left","medium","False","False",328,4550,NA
"AIGUVMQQYYKMN","Fri Oct 30 2020 11:33:18 GMT-0400 (Eastern Daylight Time)","Fri Oct 30 2020 11:40:17 GMT-0400 (Eastern Daylight Time)","Mozilla/5.0 (Windows NT 10.0; Win64; x64) AppleWebKit/537.36 (KHTML, like Gecko) Chrome/86.0.4240.111 Safari/537.36",120,"[0.9, 0.5, 0.1]","[0.8, 0.4, 0.2]","[u'black', u'blue', u'red']","[u'left', u'middle', u'right']","[0.8, 0.4, 0.2]","[u'medium', u'low', u'high']","blue",50,"middle","low","False","False",419,4500,NA
"AIGUVMQQYYKMN","Fri Oct 30 2020 11:33:18 GMT-0400 (Eastern Daylight Time)","Fri Oct 30 2020 11:40:17 GMT-0400 (Eastern Daylight Time)","Mozilla/5.0 (Windows NT 10.0; Win64; x64) AppleWebKit/537.36 (KHTML, like Gecko) Chrome/86.0.4240.111 Safari/537.36",121,"[0.9, 0.5, 0.1]","[0.8, 0.4, 0.2]","[u'black', u'blue', u'red']","[u'left', u'middle', u'right']","[0.8, 0.4, 0.2]","[u'medium', u'high', u'low']","red",51,"right","low","True","False",309,4600,NA
"AIGUVMQQYYKMN","Fri Oct 30 2020 11:33:18 GMT-0400 (Eastern Daylight Time)","Fri Oct 30 2020 11:40:17 GMT-0400 (Eastern Daylight Time)","Mozilla/5.0 (Windows NT 10.0; Win64; x64) AppleWebKit/537.36 (KHTML, like Gecko) Chrome/86.0.4240.111 Safari/537.36",122,"[0.9, 0.5, 0.1]","[0.8, 0.4, 0.2]","[u'black', u'blue', u'red']","[u'left', u'middle', u'right']","[0.8, 0.4, 0.2]","[u'medium', u'high', u'low']","red",51,"right","low","False","False",262,4550,NA
"AIGUVMQQYYKMN","Fri Oct 30 2020 11:33:18 GMT-0400 (Eastern Daylight Time)","Fri Oct 30 2020 11:40:17 GMT-0400 (Eastern Daylight Time)","Mozilla/5.0 (Windows NT 10.0; Win64; x64) AppleWebKit/537.36 (KHTML, like Gecko) Chrome/86.0.4240.111 Safari/537.36",123,"[0.9, 0.5, 0.1]","[0.8, 0.4, 0.2]","[u'black', u'blue', u'red']","[u'left', u'middle', u'right']","[0.8, 0.4, 0.2]","[u'medium', u'high', u'low']","red",51,"right","low","False","False",214,4500,NA
"AIGUVMQQYYKMN","Fri Oct 30 2020 11:33:18 GMT-0400 (Eastern Daylight Time)","Fri Oct 30 2020 11:40:17 GMT-0400 (Eastern Daylight Time)","Mozilla/5.0 (Windows NT 10.0; Win64; x64) AppleWebKit/537.36 (KHTML, like Gecko) Chrome/86.0.4240.111 Safari/537.36",124,"[0.9, 0.5, 0.1]","[0.8, 0.4, 0.2]","[u'black', u'blue', u'red']","[u'left', u'middle', u'right']","[0.8, 0.4, 0.2]","[u'medium', u'high', u'low']","black",49,"left","medium","False","False",221,4450,NA
"AIGUVMQQYYKMN","Fri Oct 30 2020 11:33:18 GMT-0400 (Eastern Daylight Time)","Fri Oct 30 2020 11:40:17 GMT-0400 (Eastern Daylight Time)","Mozilla/5.0 (Windows NT 10.0; Win64; x64) AppleWebKit/537.36 (KHTML, like Gecko) Chrome/86.0.4240.111 Safari/537.36",125,"[0.9, 0.5, 0.1]","[0.8, 0.4, 0.2]","[u'black', u'blue', u'red']","[u'left', u'middle', u'right']","[0.8, 0.4, 0.2]","[u'medium', u'high', u'low']","blue",50,"middle","high","True","False",558,4550,NA
"AIGUVMQQYYKMN","Fri Oct 30 2020 11:33:18 GMT-0400 (Eastern Daylight Time)","Fri Oct 30 2020 11:40:17 GMT-0400 (Eastern Daylight Time)","Mozilla/5.0 (Windows NT 10.0; Win64; x64) AppleWebKit/537.36 (KHTML, like Gecko) Chrome/86.0.4240.111 Safari/537.36",126,"[0.9, 0.5, 0.1]","[0.8, 0.4, 0.2]","[u'black', u'blue', u'red']","[u'left', u'middle', u'right']","[0.8, 0.4, 0.2]","[u'medium', u'high', u'low']","blue",50,"middle","high","True","False",282,4650,NA
"AIGUVMQQYYKMN","Fri Oct 30 2020 11:33:18 GMT-0400 (Eastern Daylight Time)","Fri Oct 30 2020 11:40:17 GMT-0400 (Eastern Daylight Time)","Mozilla/5.0 (Windows NT 10.0; Win64; x64) AppleWebKit/537.36 (KHTML, like Gecko) Chrome/86.0.4240.111 Safari/537.36",127,"[0.9, 0.5, 0.1]","[0.8, 0.4, 0.2]","[u'black', u'blue', u'red']","[u'left', u'middle', u'right']","[0.8, 0.4, 0.2]","[u'medium', u'high', u'low']","blue",50,"middle","high","True","False",253,4750,NA
"AIGUVMQQYYKMN","Fri Oct 30 2020 11:33:18 GMT-0400 (Eastern Daylight Time)","Fri Oct 30 2020 11:40:17 GMT-0400 (Eastern Daylight Time)","Mozilla/5.0 (Windows NT 10.0; Win64; x64) AppleWebKit/537.36 (KHTML, like Gecko) Chrome/86.0.4240.111 Safari/537.36",128,"[0.9, 0.5, 0.1]","[0.8, 0.4, 0.2]","[u'black', u'blue', u'red']","[u'left', u'middle', u'right']","[0.8, 0.4, 0.2]","[u'medium', u'high', u'low']","blue",50,"middle","high","False","False",133,4700,NA
"AIGUVMQQYYKMN","Fri Oct 30 2020 11:33:18 GMT-0400 (Eastern Daylight Time)","Fri Oct 30 2020 11:40:17 GMT-0400 (Eastern Daylight Time)","Mozilla/5.0 (Windows NT 10.0; Win64; x64) AppleWebKit/537.36 (KHTML, like Gecko) Chrome/86.0.4240.111 Safari/537.36",129,"[0.9, 0.5, 0.1]","[0.8, 0.4, 0.2]","[u'black', u'blue', u'red']","[u'left', u'middle', u'right']","[0.8, 0.4, 0.2]","[u'medium', u'high', u'low']","red",51,"right","low","False","False",38,4650,NA
"AIGUVMQQYYKMN","Fri Oct 30 2020 11:33:18 GMT-0400 (Eastern Daylight Time)","Fri Oct 30 2020 11:40:17 GMT-0400 (Eastern Daylight Time)","Mozilla/5.0 (Windows NT 10.0; Win64; x64) AppleWebKit/537.36 (KHTML, like Gecko) Chrome/86.0.4240.111 Safari/537.36",130,"[0.9, 0.5, 0.1]","[0.8, 0.4, 0.2]","[u'black', u'blue', u'red']","[u'left', u'middle', u'right']","[0.8, 0.4, 0.2]","[u'medium', u'high', u'low']","blue",50,"middle","high","True","False",235,4750,NA
"AIGUVMQQYYKMN","Fri Oct 30 2020 11:33:18 GMT-0400 (Eastern Daylight Time)","Fri Oct 30 2020 11:40:17 GMT-0400 (Eastern Daylight Time)","Mozilla/5.0 (Windows NT 10.0; Win64; x64) AppleWebKit/537.36 (KHTML, like Gecko) Chrome/86.0.4240.111 Safari/537.36",131,"[0.9, 0.5, 0.1]","[0.8, 0.4, 0.2]","[u'black', u'blue', u'red']","[u'left', u'middle', u'right']","[0.8, 0.4, 0.2]","[u'medium', u'high', u'low']","blue",50,"middle","high","True","False",333,4850,NA
"AIGUVMQQYYKMN","Fri Oct 30 2020 11:33:18 GMT-0400 (Eastern Daylight Time)","Fri Oct 30 2020 11:40:17 GMT-0400 (Eastern Daylight Time)","Mozilla/5.0 (Windows NT 10.0; Win64; x64) AppleWebKit/537.36 (KHTML, like Gecko) Chrome/86.0.4240.111 Safari/537.36",132,"[0.9, 0.5, 0.1]","[0.8, 0.4, 0.2]","[u'black', u'blue', u'red']","[u'left', u'middle', u'right']","[0.8, 0.4, 0.2]","[u'medium', u'high', u'low']","blue",50,"middle","high","True","False",298,4950,NA
"AIGUVMQQYYKMN","Fri Oct 30 2020 11:33:18 GMT-0400 (Eastern Daylight Time)","Fri Oct 30 2020 11:40:17 GMT-0400 (Eastern Daylight Time)","Mozilla/5.0 (Windows NT 10.0; Win64; x64) AppleWebKit/537.36 (KHTML, like Gecko) Chrome/86.0.4240.111 Safari/537.36",133,"[0.9, 0.5, 0.1]","[0.8, 0.4, 0.2]","[u'black', u'blue', u'red']","[u'left', u'middle', u'right']","[0.8, 0.4, 0.2]","[u'medium', u'high', u'low']","blue",50,"middle","high","True","False",272,5050,NA
"AIGUVMQQYYKMN","Fri Oct 30 2020 11:33:18 GMT-0400 (Eastern Daylight Time)","Fri Oct 30 2020 11:40:17 GMT-0400 (Eastern Daylight Time)","Mozilla/5.0 (Windows NT 10.0; Win64; x64) AppleWebKit/537.36 (KHTML, like Gecko) Chrome/86.0.4240.111 Safari/537.36",134,"[0.9, 0.5, 0.1]","[0.8, 0.4, 0.2]","[u'black', u'blue', u'red']","[u'left', u'middle', u'right']","[0.8, 0.4, 0.2]","[u'medium', u'high', u'low']","blue",50,"middle","high","True","True",307,5150,NA
"AIGUVMQQYYKMN","Fri Oct 30 2020 11:33:18 GMT-0400 (Eastern Daylight Time)","Fri Oct 30 2020 11:40:17 GMT-0400 (Eastern Daylight Time)","Mozilla/5.0 (Windows NT 10.0; Win64; x64) AppleWebKit/537.36 (KHTML, like Gecko) Chrome/86.0.4240.111 Safari/537.36",135,"[0.9, 0.5, 0.1]","[0.8, 0.4, 0.2]","[u'black', u'blue', u'red']","[u'left', u'middle', u'right']","[0.8, 0.4, 0.2]","[u'high', u'medium', u'low']","blue",50,"middle","medium","False","False",341,5100,NA
"AIGUVMQQYYKMN","Fri Oct 30 2020 11:33:18 GMT-0400 (Eastern Daylight Time)","Fri Oct 30 2020 11:40:17 GMT-0400 (Eastern Daylight Time)","Mozilla/5.0 (Windows NT 10.0; Win64; x64) AppleWebKit/537.36 (KHTML, like Gecko) Chrome/86.0.4240.111 Safari/537.36",136,"[0.9, 0.5, 0.1]","[0.8, 0.4, 0.2]","[u'black', u'blue', u'red']","[u'left', u'middle', u'right']","[0.8, 0.4, 0.2]","[u'high', u'medium', u'low']","blue",50,"middle","medium","True","False",287,5200,NA
"AIGUVMQQYYKMN","Fri Oct 30 2020 11:33:18 GMT-0400 (Eastern Daylight Time)","Fri Oct 30 2020 11:40:17 GMT-0400 (Eastern Daylight Time)","Mozilla/5.0 (Windows NT 10.0; Win64; x64) AppleWebKit/537.36 (KHTML, like Gecko) Chrome/86.0.4240.111 Safari/537.36",137,"[0.9, 0.5, 0.1]","[0.8, 0.4, 0.2]","[u'black', u'blue', u'red']","[u'left', u'middle', u'right']","[0.8, 0.4, 0.2]","[u'high', u'medium', u'low']","blue",50,"middle","medium","True","False",400,5300,NA
"AIGUVMQQYYKMN","Fri Oct 30 2020 11:33:18 GMT-0400 (Eastern Daylight Time)","Fri Oct 30 2020 11:40:17 GMT-0400 (Eastern Daylight Time)","Mozilla/5.0 (Windows NT 10.0; Win64; x64) AppleWebKit/537.36 (KHTML, like Gecko) Chrome/86.0.4240.111 Safari/537.36",138,"[0.9, 0.5, 0.1]","[0.8, 0.4, 0.2]","[u'black', u'blue', u'red']","[u'left', u'middle', u'right']","[0.8, 0.4, 0.2]","[u'high', u'medium', u'low']","blue",50,"middle","medium","True","False",305,5400,NA
"AIGUVMQQYYKMN","Fri Oct 30 2020 11:33:18 GMT-0400 (Eastern Daylight Time)","Fri Oct 30 2020 11:40:17 GMT-0400 (Eastern Daylight Time)","Mozilla/5.0 (Windows NT 10.0; Win64; x64) AppleWebKit/537.36 (KHTML, like Gecko) Chrome/86.0.4240.111 Safari/537.36",139,"[0.9, 0.5, 0.1]","[0.8, 0.4, 0.2]","[u'black', u'blue', u'red']","[u'left', u'middle', u'right']","[0.8, 0.4, 0.2]","[u'high', u'medium', u'low']","blue",50,"middle","medium","False","False",245,5350,NA
"AIGUVMQQYYKMN","Fri Oct 30 2020 11:33:18 GMT-0400 (Eastern Daylight Time)","Fri Oct 30 2020 11:40:17 GMT-0400 (Eastern Daylight Time)","Mozilla/5.0 (Windows NT 10.0; Win64; x64) AppleWebKit/537.36 (KHTML, like Gecko) Chrome/86.0.4240.111 Safari/537.36",140,"[0.9, 0.5, 0.1]","[0.8, 0.4, 0.2]","[u'black', u'blue', u'red']","[u'left', u'middle', u'right']","[0.8, 0.4, 0.2]","[u'high', u'medium', u'low']","black",49,"left","high","True","False",243,5450,NA
"AIGUVMQQYYKMN","Fri Oct 30 2020 11:33:18 GMT-0400 (Eastern Daylight Time)","Fri Oct 30 2020 11:40:17 GMT-0400 (Eastern Daylight Time)","Mozilla/5.0 (Windows NT 10.0; Win64; x64) AppleWebKit/537.36 (KHTML, like Gecko) Chrome/86.0.4240.111 Safari/537.36",141,"[0.9, 0.5, 0.1]","[0.8, 0.4, 0.2]","[u'black', u'blue', u'red']","[u'left', u'middle', u'right']","[0.8, 0.4, 0.2]","[u'high', u'medium', u'low']","black",49,"left","high","True","False",245,5550,NA
"AIGUVMQQYYKMN","Fri Oct 30 2020 11:33:18 GMT-0400 (Eastern Daylight Time)","Fri Oct 30 2020 11:40:17 GMT-0400 (Eastern Daylight Time)","Mozilla/5.0 (Windows NT 10.0; Win64; x64) AppleWebKit/537.36 (KHTML, like Gecko) Chrome/86.0.4240.111 Safari/537.36",142,"[0.9, 0.5, 0.1]","[0.8, 0.4, 0.2]","[u'black', u'blue', u'red']","[u'left', u'middle', u'right']","[0.8, 0.4, 0.2]","[u'high', u'medium', u'low']","black",49,"left","high","True","False",320,5650,NA
"AIGUVMQQYYKMN","Fri Oct 30 2020 11:33:18 GMT-0400 (Eastern Daylight Time)","Fri Oct 30 2020 11:40:17 GMT-0400 (Eastern Daylight Time)","Mozilla/5.0 (Windows NT 10.0; Win64; x64) AppleWebKit/537.36 (KHTML, like Gecko) Chrome/86.0.4240.111 Safari/537.36",143,"[0.9, 0.5, 0.1]","[0.8, 0.4, 0.2]","[u'black', u'blue', u'red']","[u'left', u'middle', u'right']","[0.8, 0.4, 0.2]","[u'high', u'medium', u'low']","black",49,"left","high","True","False",265,5750,NA
"AIGUVMQQYYKMN","Fri Oct 30 2020 11:33:18 GMT-0400 (Eastern Daylight Time)","Fri Oct 30 2020 11:40:17 GMT-0400 (Eastern Daylight Time)","Mozilla/5.0 (Windows NT 10.0; Win64; x64) AppleWebKit/537.36 (KHTML, like Gecko) Chrome/86.0.4240.111 Safari/537.36",144,"[0.9, 0.5, 0.1]","[0.8, 0.4, 0.2]","[u'black', u'blue', u'red']","[u'left', u'middle', u'right']","[0.8, 0.4, 0.2]","[u'high', u'medium', u'low']","black",49,"left","high","True","False",247,5850,NA
"AIGUVMQQYYKMN","Fri Oct 30 2020 11:33:18 GMT-0400 (Eastern Daylight Time)","Fri Oct 30 2020 11:40:17 GMT-0400 (Eastern Daylight Time)","Mozilla/5.0 (Windows NT 10.0; Win64; x64) AppleWebKit/537.36 (KHTML, like Gecko) Chrome/86.0.4240.111 Safari/537.36",145,"[0.9, 0.5, 0.1]","[0.8, 0.4, 0.2]","[u'black', u'blue', u'red']","[u'left', u'middle', u'right']","[0.8, 0.4, 0.2]","[u'high', u'medium', u'low']","black",49,"left","high","False","False",286,5800,NA
"AIGUVMQQYYKMN","Fri Oct 30 2020 11:33:18 GMT-0400 (Eastern Daylight Time)","Fri Oct 30 2020 11:40:17 GMT-0400 (Eastern Daylight Time)","Mozilla/5.0 (Windows NT 10.0; Win64; x64) AppleWebKit/537.36 (KHTML, like Gecko) Chrome/86.0.4240.111 Safari/537.36",146,"[0.9, 0.5, 0.1]","[0.8, 0.4, 0.2]","[u'black', u'blue', u'red']","[u'left', u'middle', u'right']","[0.8, 0.4, 0.2]","[u'high', u'medium', u'low']","black",49,"left","high","True","False",382,5900,NA
"AIGUVMQQYYKMN","Fri Oct 30 2020 11:33:18 GMT-0400 (Eastern Daylight Time)","Fri Oct 30 2020 11:40:17 GMT-0400 (Eastern Daylight Time)","Mozilla/5.0 (Windows NT 10.0; Win64; x64) AppleWebKit/537.36 (KHTML, like Gecko) Chrome/86.0.4240.111 Safari/537.36",147,"[0.9, 0.5, 0.1]","[0.8, 0.4, 0.2]","[u'black', u'blue', u'red']","[u'left', u'middle', u'right']","[0.8, 0.4, 0.2]","[u'high', u'medium', u'low']","black",49,"left","high","True","False",397,6000,NA
"AIGUVMQQYYKMN","Fri Oct 30 2020 11:33:18 GMT-0400 (Eastern Daylight Time)","Fri Oct 30 2020 11:40:17 GMT-0400 (Eastern Daylight Time)","Mozilla/5.0 (Windows NT 10.0; Win64; x64) AppleWebKit/537.36 (KHTML, like Gecko) Chrome/86.0.4240.111 Safari/537.36",148,"[0.9, 0.5, 0.1]","[0.8, 0.4, 0.2]","[u'black', u'blue', u'red']","[u'left', u'middle', u'right']","[0.8, 0.4, 0.2]","[u'high', u'medium', u'low']","black",49,"left","high","True","True",331,6100,NA
"AIGUVMQQYYKMN","Fri Oct 30 2020 11:33:18 GMT-0400 (Eastern Daylight Time)","Fri Oct 30 2020 11:40:17 GMT-0400 (Eastern Daylight Time)","Mozilla/5.0 (Windows NT 10.0; Win64; x64) AppleWebKit/537.36 (KHTML, like Gecko) Chrome/86.0.4240.111 Safari/537.36",149,"[0.9, 0.5, 0.1]","[0.8, 0.4, 0.2]","[u'black', u'blue', u'red']","[u'left', u'middle', u'right']","[0.8, 0.4, 0.2]","[u'medium', u'low', u'high']","black",49,"left","medium","True","False",340,6200,NA
"AIGUVMQQYYKMN","Fri Oct 30 2020 11:33:18 GMT-0400 (Eastern Daylight Time)","Fri Oct 30 2020 11:40:17 GMT-0400 (Eastern Daylight Time)","Mozilla/5.0 (Windows NT 10.0; Win64; x64) AppleWebKit/537.36 (KHTML, like Gecko) Chrome/86.0.4240.111 Safari/537.36",150,"[0.9, 0.5, 0.1]","[0.8, 0.4, 0.2]","[u'black', u'blue', u'red']","[u'left', u'middle', u'right']","[0.8, 0.4, 0.2]","[u'medium', u'low', u'high']","black",49,"left","medium","True","False",309,6300,NA
"AIGUVMQQYYKMN","Fri Oct 30 2020 11:33:18 GMT-0400 (Eastern Daylight Time)","Fri Oct 30 2020 11:40:17 GMT-0400 (Eastern Daylight Time)","Mozilla/5.0 (Windows NT 10.0; Win64; x64) AppleWebKit/537.36 (KHTML, like Gecko) Chrome/86.0.4240.111 Safari/537.36",151,"[0.9, 0.5, 0.1]","[0.8, 0.4, 0.2]","[u'black', u'blue', u'red']","[u'left', u'middle', u'right']","[0.8, 0.4, 0.2]","[u'medium', u'low', u'high']","black",49,"left","medium","False","False",198,6250,NA
"AIGUVMQQYYKMN","Fri Oct 30 2020 11:33:18 GMT-0400 (Eastern Daylight Time)","Fri Oct 30 2020 11:40:17 GMT-0400 (Eastern Daylight Time)","Mozilla/5.0 (Windows NT 10.0; Win64; x64) AppleWebKit/537.36 (KHTML, like Gecko) Chrome/86.0.4240.111 Safari/537.36",152,"[0.9, 0.5, 0.1]","[0.8, 0.4, 0.2]","[u'black', u'blue', u'red']","[u'left', u'middle', u'right']","[0.8, 0.4, 0.2]","[u'medium', u'low', u'high']","black",49,"left","medium","True","False",156,6350,NA
"AIGUVMQQYYKMN","Fri Oct 30 2020 11:33:18 GMT-0400 (Eastern Daylight Time)","Fri Oct 30 2020 11:40:17 GMT-0400 (Eastern Daylight Time)","Mozilla/5.0 (Windows NT 10.0; Win64; x64) AppleWebKit/537.36 (KHTML, like Gecko) Chrome/86.0.4240.111 Safari/537.36",153,"[0.9, 0.5, 0.1]","[0.8, 0.4, 0.2]","[u'black', u'blue', u'red']","[u'left', u'middle', u'right']","[0.8, 0.4, 0.2]","[u'medium', u'low', u'high']","black",49,"left","medium","False","False",135,6300,NA
"AIGUVMQQYYKMN","Fri Oct 30 2020 11:33:18 GMT-0400 (Eastern Daylight Time)","Fri Oct 30 2020 11:40:17 GMT-0400 (Eastern Daylight Time)","Mozilla/5.0 (Windows NT 10.0; Win64; x64) AppleWebKit/537.36 (KHTML, like Gecko) Chrome/86.0.4240.111 Safari/537.36",154,"[0.9, 0.5, 0.1]","[0.8, 0.4, 0.2]","[u'black', u'blue', u'red']","[u'left', u'middle', u'right']","[0.8, 0.4, 0.2]","[u'medium', u'low', u'high']","black",49,"left","medium","True","False",167,6400,NA
"AIGUVMQQYYKMN","Fri Oct 30 2020 11:33:18 GMT-0400 (Eastern Daylight Time)","Fri Oct 30 2020 11:40:17 GMT-0400 (Eastern Daylight Time)","Mozilla/5.0 (Windows NT 10.0; Win64; x64) AppleWebKit/537.36 (KHTML, like Gecko) Chrome/86.0.4240.111 Safari/537.36",155,"[0.9, 0.5, 0.1]","[0.8, 0.4, 0.2]","[u'black', u'blue', u'red']","[u'left', u'middle', u'right']","[0.8, 0.4, 0.2]","[u'medium', u'low', u'high']","black",49,"left","medium","False","False",81,6350,NA
"AIGUVMQQYYKMN","Fri Oct 30 2020 11:33:18 GMT-0400 (Eastern Daylight Time)","Fri Oct 30 2020 11:40:17 GMT-0400 (Eastern Daylight Time)","Mozilla/5.0 (Windows NT 10.0; Win64; x64) AppleWebKit/537.36 (KHTML, like Gecko) Chrome/86.0.4240.111 Safari/537.36",156,"[0.9, 0.5, 0.1]","[0.8, 0.4, 0.2]","[u'black', u'blue', u'red']","[u'left', u'middle', u'right']","[0.8, 0.4, 0.2]","[u'medium', u'low', u'high']","black",49,"left","medium","False","False",176,6300,NA
"AIGUVMQQYYKMN","Fri Oct 30 2020 11:33:18 GMT-0400 (Eastern Daylight Time)","Fri Oct 30 2020 11:40:17 GMT-0400 (Eastern Daylight Time)","Mozilla/5.0 (Windows NT 10.0; Win64; x64) AppleWebKit/537.36 (KHTML, like Gecko) Chrome/86.0.4240.111 Safari/537.36",157,"[0.9, 0.5, 0.1]","[0.8, 0.4, 0.2]","[u'black', u'blue', u'red']","[u'left', u'middle', u'right']","[0.8, 0.4, 0.2]","[u'medium', u'low', u'high']","red",51,"right","high","True","False",12,6400,NA
"AIGUVMQQYYKMN","Fri Oct 30 2020 11:33:18 GMT-0400 (Eastern Daylight Time)","Fri Oct 30 2020 11:40:17 GMT-0400 (Eastern Daylight Time)","Mozilla/5.0 (Windows NT 10.0; Win64; x64) AppleWebKit/537.36 (KHTML, like Gecko) Chrome/86.0.4240.111 Safari/537.36",158,"[0.9, 0.5, 0.1]","[0.8, 0.4, 0.2]","[u'black', u'blue', u'red']","[u'left', u'middle', u'right']","[0.8, 0.4, 0.2]","[u'medium', u'low', u'high']","red",51,"right","high","True","False",197,6500,NA
"AIGUVMQQYYKMN","Fri Oct 30 2020 11:33:18 GMT-0400 (Eastern Daylight Time)","Fri Oct 30 2020 11:40:17 GMT-0400 (Eastern Daylight Time)","Mozilla/5.0 (Windows NT 10.0; Win64; x64) AppleWebKit/537.36 (KHTML, like Gecko) Chrome/86.0.4240.111 Safari/537.36",159,"[0.9, 0.5, 0.1]","[0.8, 0.4, 0.2]","[u'black', u'blue', u'red']","[u'left', u'middle', u'right']","[0.8, 0.4, 0.2]","[u'medium', u'low', u'high']","red",51,"right","high","True","False",63,6600,NA
"AIGUVMQQYYKMN","Fri Oct 30 2020 11:33:18 GMT-0400 (Eastern Daylight Time)","Fri Oct 30 2020 11:40:17 GMT-0400 (Eastern Daylight Time)","Mozilla/5.0 (Windows NT 10.0; Win64; x64) AppleWebKit/537.36 (KHTML, like Gecko) Chrome/86.0.4240.111 Safari/537.36",160,"[0.9, 0.5, 0.1]","[0.8, 0.4, 0.2]","[u'black', u'blue', u'red']","[u'left', u'middle', u'right']","[0.8, 0.4, 0.2]","[u'medium', u'low', u'high']","red",51,"right","high","True","False",183,6700,NA
