"src_subject_id","start_time","end_time","browser","index","first_half_probabilities","second_half_probabilities","deck_color","deck_position","deck_probabilities","deck_contingencies","response_color","key_press","response_position","response_probability","reward_type","trial_type","rt","reward_tally","exclusion_reason"
"A2IC4IMH7G9UKU","Fri Oct 30 2020 11:45:24 GMT-0500 (Central Daylight Time)","Fri Oct 30 2020 11:52:49 GMT-0500 (Central Daylight Time)","Mozilla/5.0 (Windows NT 6.1; Win64; x64) AppleWebKit/537.36 (KHTML, like Gecko) Chrome/86.0.4240.111 Safari/537.36",1,"[0.9, 0.5, 0.1]","[0.8, 0.4, 0.2]","[u'black', u'blue', u'red']","[u'left', u'middle', u'right']","[0.9, 0.5, 0.1]","[u'high', u'low', u'medium']","red",51,"right","medium","False","False",847,-50,NA
"A2IC4IMH7G9UKU","Fri Oct 30 2020 11:45:24 GMT-0500 (Central Daylight Time)","Fri Oct 30 2020 11:52:49 GMT-0500 (Central Daylight Time)","Mozilla/5.0 (Windows NT 6.1; Win64; x64) AppleWebKit/537.36 (KHTML, like Gecko) Chrome/86.0.4240.111 Safari/537.36",2,"[0.9, 0.5, 0.1]","[0.8, 0.4, 0.2]","[u'black', u'blue', u'red']","[u'left', u'middle', u'right']","[0.9, 0.5, 0.1]","[u'high', u'low', u'medium']","black",49,"left","high","True","False",387,50,NA
"A2IC4IMH7G9UKU","Fri Oct 30 2020 11:45:24 GMT-0500 (Central Daylight Time)","Fri Oct 30 2020 11:52:49 GMT-0500 (Central Daylight Time)","Mozilla/5.0 (Windows NT 6.1; Win64; x64) AppleWebKit/537.36 (KHTML, like Gecko) Chrome/86.0.4240.111 Safari/537.36",3,"[0.9, 0.5, 0.1]","[0.8, 0.4, 0.2]","[u'black', u'blue', u'red']","[u'left', u'middle', u'right']","[0.9, 0.5, 0.1]","[u'high', u'low', u'medium']","black",49,"left","high","True","False",331,150,NA
"A2IC4IMH7G9UKU","Fri Oct 30 2020 11:45:24 GMT-0500 (Central Daylight Time)","Fri Oct 30 2020 11:52:49 GMT-0500 (Central Daylight Time)","Mozilla/5.0 (Windows NT 6.1; Win64; x64) AppleWebKit/537.36 (KHTML, like Gecko) Chrome/86.0.4240.111 Safari/537.36",4,"[0.9, 0.5, 0.1]","[0.8, 0.4, 0.2]","[u'black', u'blue', u'red']","[u'left', u'middle', u'right']","[0.9, 0.5, 0.1]","[u'high', u'low', u'medium']","black",49,"left","high","True","False",478,250,NA
"A2IC4IMH7G9UKU","Fri Oct 30 2020 11:45:24 GMT-0500 (Central Daylight Time)","Fri Oct 30 2020 11:52:49 GMT-0500 (Central Daylight Time)","Mozilla/5.0 (Windows NT 6.1; Win64; x64) AppleWebKit/537.36 (KHTML, like Gecko) Chrome/86.0.4240.111 Safari/537.36",5,"[0.9, 0.5, 0.1]","[0.8, 0.4, 0.2]","[u'black', u'blue', u'red']","[u'left', u'middle', u'right']","[0.9, 0.5, 0.1]","[u'high', u'low', u'medium']","black",49,"left","high","True","False",464,350,NA
"A2IC4IMH7G9UKU","Fri Oct 30 2020 11:45:24 GMT-0500 (Central Daylight Time)","Fri Oct 30 2020 11:52:49 GMT-0500 (Central Daylight Time)","Mozilla/5.0 (Windows NT 6.1; Win64; x64) AppleWebKit/537.36 (KHTML, like Gecko) Chrome/86.0.4240.111 Safari/537.36",6,"[0.9, 0.5, 0.1]","[0.8, 0.4, 0.2]","[u'black', u'blue', u'red']","[u'left', u'middle', u'right']","[0.9, 0.5, 0.1]","[u'high', u'low', u'medium']","black",49,"left","high","True","False",563,450,NA
"A2IC4IMH7G9UKU","Fri Oct 30 2020 11:45:24 GMT-0500 (Central Daylight Time)","Fri Oct 30 2020 11:52:49 GMT-0500 (Central Daylight Time)","Mozilla/5.0 (Windows NT 6.1; Win64; x64) AppleWebKit/537.36 (KHTML, like Gecko) Chrome/86.0.4240.111 Safari/537.36",7,"[0.9, 0.5, 0.1]","[0.8, 0.4, 0.2]","[u'black', u'blue', u'red']","[u'left', u'middle', u'right']","[0.9, 0.5, 0.1]","[u'high', u'low', u'medium']","blue",50,"middle","low","False","False",402,400,NA
"A2IC4IMH7G9UKU","Fri Oct 30 2020 11:45:24 GMT-0500 (Central Daylight Time)","Fri Oct 30 2020 11:52:49 GMT-0500 (Central Daylight Time)","Mozilla/5.0 (Windows NT 6.1; Win64; x64) AppleWebKit/537.36 (KHTML, like Gecko) Chrome/86.0.4240.111 Safari/537.36",8,"[0.9, 0.5, 0.1]","[0.8, 0.4, 0.2]","[u'black', u'blue', u'red']","[u'left', u'middle', u'right']","[0.9, 0.5, 0.1]","[u'high', u'low', u'medium']","red",51,"right","medium","True","False",436,500,NA
"A2IC4IMH7G9UKU","Fri Oct 30 2020 11:45:24 GMT-0500 (Central Daylight Time)","Fri Oct 30 2020 11:52:49 GMT-0500 (Central Daylight Time)","Mozilla/5.0 (Windows NT 6.1; Win64; x64) AppleWebKit/537.36 (KHTML, like Gecko) Chrome/86.0.4240.111 Safari/537.36",9,"[0.9, 0.5, 0.1]","[0.8, 0.4, 0.2]","[u'black', u'blue', u'red']","[u'left', u'middle', u'right']","[0.9, 0.5, 0.1]","[u'high', u'low', u'medium']","red",51,"right","medium","False","False",275,450,NA
"A2IC4IMH7G9UKU","Fri Oct 30 2020 11:45:24 GMT-0500 (Central Daylight Time)","Fri Oct 30 2020 11:52:49 GMT-0500 (Central Daylight Time)","Mozilla/5.0 (Windows NT 6.1; Win64; x64) AppleWebKit/537.36 (KHTML, like Gecko) Chrome/86.0.4240.111 Safari/537.36",10,"[0.9, 0.5, 0.1]","[0.8, 0.4, 0.2]","[u'black', u'blue', u'red']","[u'left', u'middle', u'right']","[0.9, 0.5, 0.1]","[u'high', u'low', u'medium']","black",49,"left","high","True","False",58,550,NA
"A2IC4IMH7G9UKU","Fri Oct 30 2020 11:45:24 GMT-0500 (Central Daylight Time)","Fri Oct 30 2020 11:52:49 GMT-0500 (Central Daylight Time)","Mozilla/5.0 (Windows NT 6.1; Win64; x64) AppleWebKit/537.36 (KHTML, like Gecko) Chrome/86.0.4240.111 Safari/537.36",11,"[0.9, 0.5, 0.1]","[0.8, 0.4, 0.2]","[u'black', u'blue', u'red']","[u'left', u'middle', u'right']","[0.9, 0.5, 0.1]","[u'high', u'low', u'medium']","black",49,"left","high","True","False",363,650,NA
"A2IC4IMH7G9UKU","Fri Oct 30 2020 11:45:24 GMT-0500 (Central Daylight Time)","Fri Oct 30 2020 11:52:49 GMT-0500 (Central Daylight Time)","Mozilla/5.0 (Windows NT 6.1; Win64; x64) AppleWebKit/537.36 (KHTML, like Gecko) Chrome/86.0.4240.111 Safari/537.36",12,"[0.9, 0.5, 0.1]","[0.8, 0.4, 0.2]","[u'black', u'blue', u'red']","[u'left', u'middle', u'right']","[0.9, 0.5, 0.1]","[u'high', u'low', u'medium']","black",49,"left","high","True","False",67,750,NA
"A2IC4IMH7G9UKU","Fri Oct 30 2020 11:45:24 GMT-0500 (Central Daylight Time)","Fri Oct 30 2020 11:52:49 GMT-0500 (Central Daylight Time)","Mozilla/5.0 (Windows NT 6.1; Win64; x64) AppleWebKit/537.36 (KHTML, like Gecko) Chrome/86.0.4240.111 Safari/537.36",13,"[0.9, 0.5, 0.1]","[0.8, 0.4, 0.2]","[u'black', u'blue', u'red']","[u'left', u'middle', u'right']","[0.9, 0.5, 0.1]","[u'high', u'low', u'medium']","black",49,"left","high","True","False",299,850,NA
"A2IC4IMH7G9UKU","Fri Oct 30 2020 11:45:24 GMT-0500 (Central Daylight Time)","Fri Oct 30 2020 11:52:49 GMT-0500 (Central Daylight Time)","Mozilla/5.0 (Windows NT 6.1; Win64; x64) AppleWebKit/537.36 (KHTML, like Gecko) Chrome/86.0.4240.111 Safari/537.36",14,"[0.9, 0.5, 0.1]","[0.8, 0.4, 0.2]","[u'black', u'blue', u'red']","[u'left', u'middle', u'right']","[0.9, 0.5, 0.1]","[u'high', u'low', u'medium']","black",49,"left","high","True","False",243,950,NA
"A2IC4IMH7G9UKU","Fri Oct 30 2020 11:45:24 GMT-0500 (Central Daylight Time)","Fri Oct 30 2020 11:52:49 GMT-0500 (Central Daylight Time)","Mozilla/5.0 (Windows NT 6.1; Win64; x64) AppleWebKit/537.36 (KHTML, like Gecko) Chrome/86.0.4240.111 Safari/537.36",15,"[0.9, 0.5, 0.1]","[0.8, 0.4, 0.2]","[u'black', u'blue', u'red']","[u'left', u'middle', u'right']","[0.9, 0.5, 0.1]","[u'high', u'low', u'medium']","black",49,"left","high","True","False",307,1050,NA
"A2IC4IMH7G9UKU","Fri Oct 30 2020 11:45:24 GMT-0500 (Central Daylight Time)","Fri Oct 30 2020 11:52:49 GMT-0500 (Central Daylight Time)","Mozilla/5.0 (Windows NT 6.1; Win64; x64) AppleWebKit/537.36 (KHTML, like Gecko) Chrome/86.0.4240.111 Safari/537.36",16,"[0.9, 0.5, 0.1]","[0.8, 0.4, 0.2]","[u'black', u'blue', u'red']","[u'left', u'middle', u'right']","[0.9, 0.5, 0.1]","[u'high', u'low', u'medium']","black",49,"left","high","True","False",309,1150,NA
"A2IC4IMH7G9UKU","Fri Oct 30 2020 11:45:24 GMT-0500 (Central Daylight Time)","Fri Oct 30 2020 11:52:49 GMT-0500 (Central Daylight Time)","Mozilla/5.0 (Windows NT 6.1; Win64; x64) AppleWebKit/537.36 (KHTML, like Gecko) Chrome/86.0.4240.111 Safari/537.36",17,"[0.9, 0.5, 0.1]","[0.8, 0.4, 0.2]","[u'black', u'blue', u'red']","[u'left', u'middle', u'right']","[0.9, 0.5, 0.1]","[u'high', u'low', u'medium']","black",49,"left","high","False","False",393,1100,NA
"A2IC4IMH7G9UKU","Fri Oct 30 2020 11:45:24 GMT-0500 (Central Daylight Time)","Fri Oct 30 2020 11:52:49 GMT-0500 (Central Daylight Time)","Mozilla/5.0 (Windows NT 6.1; Win64; x64) AppleWebKit/537.36 (KHTML, like Gecko) Chrome/86.0.4240.111 Safari/537.36",18,"[0.9, 0.5, 0.1]","[0.8, 0.4, 0.2]","[u'black', u'blue', u'red']","[u'left', u'middle', u'right']","[0.9, 0.5, 0.1]","[u'high', u'low', u'medium']","blue",50,"middle","low","False","False",506,1050,NA
"A2IC4IMH7G9UKU","Fri Oct 30 2020 11:45:24 GMT-0500 (Central Daylight Time)","Fri Oct 30 2020 11:52:49 GMT-0500 (Central Daylight Time)","Mozilla/5.0 (Windows NT 6.1; Win64; x64) AppleWebKit/537.36 (KHTML, like Gecko) Chrome/86.0.4240.111 Safari/537.36",19,"[0.9, 0.5, 0.1]","[0.8, 0.4, 0.2]","[u'black', u'blue', u'red']","[u'left', u'middle', u'right']","[0.9, 0.5, 0.1]","[u'high', u'low', u'medium']","red",51,"right","medium","True","False",414,1150,NA
"A2IC4IMH7G9UKU","Fri Oct 30 2020 11:45:24 GMT-0500 (Central Daylight Time)","Fri Oct 30 2020 11:52:49 GMT-0500 (Central Daylight Time)","Mozilla/5.0 (Windows NT 6.1; Win64; x64) AppleWebKit/537.36 (KHTML, like Gecko) Chrome/86.0.4240.111 Safari/537.36",20,"[0.9, 0.5, 0.1]","[0.8, 0.4, 0.2]","[u'black', u'blue', u'red']","[u'left', u'middle', u'right']","[0.9, 0.5, 0.1]","[u'high', u'low', u'medium']","red",51,"right","medium","True","False",467,1250,NA
"A2IC4IMH7G9UKU","Fri Oct 30 2020 11:45:24 GMT-0500 (Central Daylight Time)","Fri Oct 30 2020 11:52:49 GMT-0500 (Central Daylight Time)","Mozilla/5.0 (Windows NT 6.1; Win64; x64) AppleWebKit/537.36 (KHTML, like Gecko) Chrome/86.0.4240.111 Safari/537.36",21,"[0.9, 0.5, 0.1]","[0.8, 0.4, 0.2]","[u'black', u'blue', u'red']","[u'left', u'middle', u'right']","[0.9, 0.5, 0.1]","[u'high', u'low', u'medium']","red",51,"right","medium","True","False",324,1350,NA
"A2IC4IMH7G9UKU","Fri Oct 30 2020 11:45:24 GMT-0500 (Central Daylight Time)","Fri Oct 30 2020 11:52:49 GMT-0500 (Central Daylight Time)","Mozilla/5.0 (Windows NT 6.1; Win64; x64) AppleWebKit/537.36 (KHTML, like Gecko) Chrome/86.0.4240.111 Safari/537.36",22,"[0.9, 0.5, 0.1]","[0.8, 0.4, 0.2]","[u'black', u'blue', u'red']","[u'left', u'middle', u'right']","[0.9, 0.5, 0.1]","[u'high', u'low', u'medium']","red",51,"right","medium","False","False",340,1300,NA
"A2IC4IMH7G9UKU","Fri Oct 30 2020 11:45:24 GMT-0500 (Central Daylight Time)","Fri Oct 30 2020 11:52:49 GMT-0500 (Central Daylight Time)","Mozilla/5.0 (Windows NT 6.1; Win64; x64) AppleWebKit/537.36 (KHTML, like Gecko) Chrome/86.0.4240.111 Safari/537.36",23,"[0.9, 0.5, 0.1]","[0.8, 0.4, 0.2]","[u'black', u'blue', u'red']","[u'left', u'middle', u'right']","[0.9, 0.5, 0.1]","[u'high', u'low', u'medium']","black",49,"left","high","True","False",507,1400,NA
"A2IC4IMH7G9UKU","Fri Oct 30 2020 11:45:24 GMT-0500 (Central Daylight Time)","Fri Oct 30 2020 11:52:49 GMT-0500 (Central Daylight Time)","Mozilla/5.0 (Windows NT 6.1; Win64; x64) AppleWebKit/537.36 (KHTML, like Gecko) Chrome/86.0.4240.111 Safari/537.36",24,"[0.9, 0.5, 0.1]","[0.8, 0.4, 0.2]","[u'black', u'blue', u'red']","[u'left', u'middle', u'right']","[0.9, 0.5, 0.1]","[u'high', u'low', u'medium']","black",49,"left","high","False","False",323,1350,NA
"A2IC4IMH7G9UKU","Fri Oct 30 2020 11:45:24 GMT-0500 (Central Daylight Time)","Fri Oct 30 2020 11:52:49 GMT-0500 (Central Daylight Time)","Mozilla/5.0 (Windows NT 6.1; Win64; x64) AppleWebKit/537.36 (KHTML, like Gecko) Chrome/86.0.4240.111 Safari/537.36",25,"[0.9, 0.5, 0.1]","[0.8, 0.4, 0.2]","[u'black', u'blue', u'red']","[u'left', u'middle', u'right']","[0.9, 0.5, 0.1]","[u'high', u'low', u'medium']","red",51,"right","medium","False","False",307,1300,NA
"A2IC4IMH7G9UKU","Fri Oct 30 2020 11:45:24 GMT-0500 (Central Daylight Time)","Fri Oct 30 2020 11:52:49 GMT-0500 (Central Daylight Time)","Mozilla/5.0 (Windows NT 6.1; Win64; x64) AppleWebKit/537.36 (KHTML, like Gecko) Chrome/86.0.4240.111 Safari/537.36",26,"[0.9, 0.5, 0.1]","[0.8, 0.4, 0.2]","[u'black', u'blue', u'red']","[u'left', u'middle', u'right']","[0.9, 0.5, 0.1]","[u'high', u'low', u'medium']","black",49,"left","high","True","False",443,1400,NA
"A2IC4IMH7G9UKU","Fri Oct 30 2020 11:45:24 GMT-0500 (Central Daylight Time)","Fri Oct 30 2020 11:52:49 GMT-0500 (Central Daylight Time)","Mozilla/5.0 (Windows NT 6.1; Win64; x64) AppleWebKit/537.36 (KHTML, like Gecko) Chrome/86.0.4240.111 Safari/537.36",27,"[0.9, 0.5, 0.1]","[0.8, 0.4, 0.2]","[u'black', u'blue', u'red']","[u'left', u'middle', u'right']","[0.9, 0.5, 0.1]","[u'high', u'low', u'medium']","black",49,"left","high","True","False",451,1500,NA
"A2IC4IMH7G9UKU","Fri Oct 30 2020 11:45:24 GMT-0500 (Central Daylight Time)","Fri Oct 30 2020 11:52:49 GMT-0500 (Central Daylight Time)","Mozilla/5.0 (Windows NT 6.1; Win64; x64) AppleWebKit/537.36 (KHTML, like Gecko) Chrome/86.0.4240.111 Safari/537.36",28,"[0.9, 0.5, 0.1]","[0.8, 0.4, 0.2]","[u'black', u'blue', u'red']","[u'left', u'middle', u'right']","[0.9, 0.5, 0.1]","[u'high', u'low', u'medium']","black",49,"left","high","True","False",446,1600,NA
"A2IC4IMH7G9UKU","Fri Oct 30 2020 11:45:24 GMT-0500 (Central Daylight Time)","Fri Oct 30 2020 11:52:49 GMT-0500 (Central Daylight Time)","Mozilla/5.0 (Windows NT 6.1; Win64; x64) AppleWebKit/537.36 (KHTML, like Gecko) Chrome/86.0.4240.111 Safari/537.36",29,"[0.9, 0.5, 0.1]","[0.8, 0.4, 0.2]","[u'black', u'blue', u'red']","[u'left', u'middle', u'right']","[0.9, 0.5, 0.1]","[u'high', u'low', u'medium']","black",49,"left","high","True","False",200,1700,NA
"A2IC4IMH7G9UKU","Fri Oct 30 2020 11:45:24 GMT-0500 (Central Daylight Time)","Fri Oct 30 2020 11:52:49 GMT-0500 (Central Daylight Time)","Mozilla/5.0 (Windows NT 6.1; Win64; x64) AppleWebKit/537.36 (KHTML, like Gecko) Chrome/86.0.4240.111 Safari/537.36",30,"[0.9, 0.5, 0.1]","[0.8, 0.4, 0.2]","[u'black', u'blue', u'red']","[u'left', u'middle', u'right']","[0.9, 0.5, 0.1]","[u'high', u'low', u'medium']","black",49,"left","high","True","False",651,1800,NA
"A2IC4IMH7G9UKU","Fri Oct 30 2020 11:45:24 GMT-0500 (Central Daylight Time)","Fri Oct 30 2020 11:52:49 GMT-0500 (Central Daylight Time)","Mozilla/5.0 (Windows NT 6.1; Win64; x64) AppleWebKit/537.36 (KHTML, like Gecko) Chrome/86.0.4240.111 Safari/537.36",31,"[0.9, 0.5, 0.1]","[0.8, 0.4, 0.2]","[u'black', u'blue', u'red']","[u'left', u'middle', u'right']","[0.9, 0.5, 0.1]","[u'high', u'low', u'medium']","red",51,"right","medium","False","False",450,1750,NA
"A2IC4IMH7G9UKU","Fri Oct 30 2020 11:45:24 GMT-0500 (Central Daylight Time)","Fri Oct 30 2020 11:52:49 GMT-0500 (Central Daylight Time)","Mozilla/5.0 (Windows NT 6.1; Win64; x64) AppleWebKit/537.36 (KHTML, like Gecko) Chrome/86.0.4240.111 Safari/537.36",32,"[0.9, 0.5, 0.1]","[0.8, 0.4, 0.2]","[u'black', u'blue', u'red']","[u'left', u'middle', u'right']","[0.9, 0.5, 0.1]","[u'high', u'low', u'medium']","black",49,"left","high","True","False",316,1850,NA
"A2IC4IMH7G9UKU","Fri Oct 30 2020 11:45:24 GMT-0500 (Central Daylight Time)","Fri Oct 30 2020 11:52:49 GMT-0500 (Central Daylight Time)","Mozilla/5.0 (Windows NT 6.1; Win64; x64) AppleWebKit/537.36 (KHTML, like Gecko) Chrome/86.0.4240.111 Safari/537.36",33,"[0.9, 0.5, 0.1]","[0.8, 0.4, 0.2]","[u'black', u'blue', u'red']","[u'left', u'middle', u'right']","[0.9, 0.5, 0.1]","[u'high', u'low', u'medium']","black",49,"left","high","True","False",1269,1950,NA
"A2IC4IMH7G9UKU","Fri Oct 30 2020 11:45:24 GMT-0500 (Central Daylight Time)","Fri Oct 30 2020 11:52:49 GMT-0500 (Central Daylight Time)","Mozilla/5.0 (Windows NT 6.1; Win64; x64) AppleWebKit/537.36 (KHTML, like Gecko) Chrome/86.0.4240.111 Safari/537.36",34,"[0.9, 0.5, 0.1]","[0.8, 0.4, 0.2]","[u'black', u'blue', u'red']","[u'left', u'middle', u'right']","[0.9, 0.5, 0.1]","[u'high', u'low', u'medium']","black",49,"left","high","True","False",1793,2050,NA
"A2IC4IMH7G9UKU","Fri Oct 30 2020 11:45:24 GMT-0500 (Central Daylight Time)","Fri Oct 30 2020 11:52:49 GMT-0500 (Central Daylight Time)","Mozilla/5.0 (Windows NT 6.1; Win64; x64) AppleWebKit/537.36 (KHTML, like Gecko) Chrome/86.0.4240.111 Safari/537.36",35,"[0.9, 0.5, 0.1]","[0.8, 0.4, 0.2]","[u'black', u'blue', u'red']","[u'left', u'middle', u'right']","[0.9, 0.5, 0.1]","[u'high', u'low', u'medium']","black",49,"left","high","True","False",2691,2150,NA
"A2IC4IMH7G9UKU","Fri Oct 30 2020 11:45:24 GMT-0500 (Central Daylight Time)","Fri Oct 30 2020 11:52:49 GMT-0500 (Central Daylight Time)","Mozilla/5.0 (Windows NT 6.1; Win64; x64) AppleWebKit/537.36 (KHTML, like Gecko) Chrome/86.0.4240.111 Safari/537.36",36,"[0.9, 0.5, 0.1]","[0.8, 0.4, 0.2]","[u'black', u'blue', u'red']","[u'left', u'middle', u'right']","[0.9, 0.5, 0.1]","[u'high', u'low', u'medium']","black",49,"left","high","False","False",1190,2100,NA
"A2IC4IMH7G9UKU","Fri Oct 30 2020 11:45:24 GMT-0500 (Central Daylight Time)","Fri Oct 30 2020 11:52:49 GMT-0500 (Central Daylight Time)","Mozilla/5.0 (Windows NT 6.1; Win64; x64) AppleWebKit/537.36 (KHTML, like Gecko) Chrome/86.0.4240.111 Safari/537.36",37,"[0.9, 0.5, 0.1]","[0.8, 0.4, 0.2]","[u'black', u'blue', u'red']","[u'left', u'middle', u'right']","[0.9, 0.5, 0.1]","[u'high', u'low', u'medium']","red",51,"right","medium","True","False",280,2200,NA
"A2IC4IMH7G9UKU","Fri Oct 30 2020 11:45:24 GMT-0500 (Central Daylight Time)","Fri Oct 30 2020 11:52:49 GMT-0500 (Central Daylight Time)","Mozilla/5.0 (Windows NT 6.1; Win64; x64) AppleWebKit/537.36 (KHTML, like Gecko) Chrome/86.0.4240.111 Safari/537.36",38,"[0.9, 0.5, 0.1]","[0.8, 0.4, 0.2]","[u'black', u'blue', u'red']","[u'left', u'middle', u'right']","[0.9, 0.5, 0.1]","[u'high', u'low', u'medium']","red",51,"right","medium","True","False",2186,2300,NA
"A2IC4IMH7G9UKU","Fri Oct 30 2020 11:45:24 GMT-0500 (Central Daylight Time)","Fri Oct 30 2020 11:52:49 GMT-0500 (Central Daylight Time)","Mozilla/5.0 (Windows NT 6.1; Win64; x64) AppleWebKit/537.36 (KHTML, like Gecko) Chrome/86.0.4240.111 Safari/537.36",39,"[0.9, 0.5, 0.1]","[0.8, 0.4, 0.2]","[u'black', u'blue', u'red']","[u'left', u'middle', u'right']","[0.9, 0.5, 0.1]","[u'high', u'low', u'medium']","red",51,"right","medium","True","False",500,2400,NA
"A2IC4IMH7G9UKU","Fri Oct 30 2020 11:45:24 GMT-0500 (Central Daylight Time)","Fri Oct 30 2020 11:52:49 GMT-0500 (Central Daylight Time)","Mozilla/5.0 (Windows NT 6.1; Win64; x64) AppleWebKit/537.36 (KHTML, like Gecko) Chrome/86.0.4240.111 Safari/537.36",40,"[0.9, 0.5, 0.1]","[0.8, 0.4, 0.2]","[u'black', u'blue', u'red']","[u'left', u'middle', u'right']","[0.9, 0.5, 0.1]","[u'high', u'low', u'medium']","red",51,"right","medium","False","False",139,2350,NA
"A2IC4IMH7G9UKU","Fri Oct 30 2020 11:45:24 GMT-0500 (Central Daylight Time)","Fri Oct 30 2020 11:52:49 GMT-0500 (Central Daylight Time)","Mozilla/5.0 (Windows NT 6.1; Win64; x64) AppleWebKit/537.36 (KHTML, like Gecko) Chrome/86.0.4240.111 Safari/537.36",41,"[0.9, 0.5, 0.1]","[0.8, 0.4, 0.2]","[u'black', u'blue', u'red']","[u'left', u'middle', u'right']","[0.9, 0.5, 0.1]","[u'medium', u'high', u'low']","blue",50,"middle","high","True","False",364,2450,NA
"A2IC4IMH7G9UKU","Fri Oct 30 2020 11:45:24 GMT-0500 (Central Daylight Time)","Fri Oct 30 2020 11:52:49 GMT-0500 (Central Daylight Time)","Mozilla/5.0 (Windows NT 6.1; Win64; x64) AppleWebKit/537.36 (KHTML, like Gecko) Chrome/86.0.4240.111 Safari/537.36",42,"[0.9, 0.5, 0.1]","[0.8, 0.4, 0.2]","[u'black', u'blue', u'red']","[u'left', u'middle', u'right']","[0.9, 0.5, 0.1]","[u'medium', u'high', u'low']","blue",50,"middle","high","True","False",477,2550,NA
"A2IC4IMH7G9UKU","Fri Oct 30 2020 11:45:24 GMT-0500 (Central Daylight Time)","Fri Oct 30 2020 11:52:49 GMT-0500 (Central Daylight Time)","Mozilla/5.0 (Windows NT 6.1; Win64; x64) AppleWebKit/537.36 (KHTML, like Gecko) Chrome/86.0.4240.111 Safari/537.36",43,"[0.9, 0.5, 0.1]","[0.8, 0.4, 0.2]","[u'black', u'blue', u'red']","[u'left', u'middle', u'right']","[0.9, 0.5, 0.1]","[u'medium', u'high', u'low']","blue",50,"middle","high","True","False",392,2650,NA
"A2IC4IMH7G9UKU","Fri Oct 30 2020 11:45:24 GMT-0500 (Central Daylight Time)","Fri Oct 30 2020 11:52:49 GMT-0500 (Central Daylight Time)","Mozilla/5.0 (Windows NT 6.1; Win64; x64) AppleWebKit/537.36 (KHTML, like Gecko) Chrome/86.0.4240.111 Safari/537.36",44,"[0.9, 0.5, 0.1]","[0.8, 0.4, 0.2]","[u'black', u'blue', u'red']","[u'left', u'middle', u'right']","[0.9, 0.5, 0.1]","[u'medium', u'high', u'low']","blue",50,"middle","high","True","False",298,2750,NA
"A2IC4IMH7G9UKU","Fri Oct 30 2020 11:45:24 GMT-0500 (Central Daylight Time)","Fri Oct 30 2020 11:52:49 GMT-0500 (Central Daylight Time)","Mozilla/5.0 (Windows NT 6.1; Win64; x64) AppleWebKit/537.36 (KHTML, like Gecko) Chrome/86.0.4240.111 Safari/537.36",45,"[0.9, 0.5, 0.1]","[0.8, 0.4, 0.2]","[u'black', u'blue', u'red']","[u'left', u'middle', u'right']","[0.9, 0.5, 0.1]","[u'medium', u'high', u'low']","blue",50,"middle","high","True","False",310,2850,NA
"A2IC4IMH7G9UKU","Fri Oct 30 2020 11:45:24 GMT-0500 (Central Daylight Time)","Fri Oct 30 2020 11:52:49 GMT-0500 (Central Daylight Time)","Mozilla/5.0 (Windows NT 6.1; Win64; x64) AppleWebKit/537.36 (KHTML, like Gecko) Chrome/86.0.4240.111 Safari/537.36",46,"[0.9, 0.5, 0.1]","[0.8, 0.4, 0.2]","[u'black', u'blue', u'red']","[u'left', u'middle', u'right']","[0.9, 0.5, 0.1]","[u'medium', u'high', u'low']","blue",50,"middle","high","True","False",297,2950,NA
"A2IC4IMH7G9UKU","Fri Oct 30 2020 11:45:24 GMT-0500 (Central Daylight Time)","Fri Oct 30 2020 11:52:49 GMT-0500 (Central Daylight Time)","Mozilla/5.0 (Windows NT 6.1; Win64; x64) AppleWebKit/537.36 (KHTML, like Gecko) Chrome/86.0.4240.111 Safari/537.36",47,"[0.9, 0.5, 0.1]","[0.8, 0.4, 0.2]","[u'black', u'blue', u'red']","[u'left', u'middle', u'right']","[0.9, 0.5, 0.1]","[u'medium', u'high', u'low']","blue",50,"middle","high","True","False",508,3050,NA
"A2IC4IMH7G9UKU","Fri Oct 30 2020 11:45:24 GMT-0500 (Central Daylight Time)","Fri Oct 30 2020 11:52:49 GMT-0500 (Central Daylight Time)","Mozilla/5.0 (Windows NT 6.1; Win64; x64) AppleWebKit/537.36 (KHTML, like Gecko) Chrome/86.0.4240.111 Safari/537.36",48,"[0.9, 0.5, 0.1]","[0.8, 0.4, 0.2]","[u'black', u'blue', u'red']","[u'left', u'middle', u'right']","[0.9, 0.5, 0.1]","[u'medium', u'high', u'low']","blue",50,"middle","high","False","False",250,3000,NA
"A2IC4IMH7G9UKU","Fri Oct 30 2020 11:45:24 GMT-0500 (Central Daylight Time)","Fri Oct 30 2020 11:52:49 GMT-0500 (Central Daylight Time)","Mozilla/5.0 (Windows NT 6.1; Win64; x64) AppleWebKit/537.36 (KHTML, like Gecko) Chrome/86.0.4240.111 Safari/537.36",49,"[0.9, 0.5, 0.1]","[0.8, 0.4, 0.2]","[u'black', u'blue', u'red']","[u'left', u'middle', u'right']","[0.9, 0.5, 0.1]","[u'medium', u'high', u'low']","blue",50,"middle","high","True","True",268,3100,NA
"A2IC4IMH7G9UKU","Fri Oct 30 2020 11:45:24 GMT-0500 (Central Daylight Time)","Fri Oct 30 2020 11:52:49 GMT-0500 (Central Daylight Time)","Mozilla/5.0 (Windows NT 6.1; Win64; x64) AppleWebKit/537.36 (KHTML, like Gecko) Chrome/86.0.4240.111 Safari/537.36",50,"[0.9, 0.5, 0.1]","[0.8, 0.4, 0.2]","[u'black', u'blue', u'red']","[u'left', u'middle', u'right']","[0.9, 0.5, 0.1]","[u'low', u'medium', u'high']","blue",50,"middle","medium","True","False",346,3200,NA
"A2IC4IMH7G9UKU","Fri Oct 30 2020 11:45:24 GMT-0500 (Central Daylight Time)","Fri Oct 30 2020 11:52:49 GMT-0500 (Central Daylight Time)","Mozilla/5.0 (Windows NT 6.1; Win64; x64) AppleWebKit/537.36 (KHTML, like Gecko) Chrome/86.0.4240.111 Safari/537.36",51,"[0.9, 0.5, 0.1]","[0.8, 0.4, 0.2]","[u'black', u'blue', u'red']","[u'left', u'middle', u'right']","[0.9, 0.5, 0.1]","[u'low', u'medium', u'high']","blue",50,"middle","medium","True","False",332,3300,NA
"A2IC4IMH7G9UKU","Fri Oct 30 2020 11:45:24 GMT-0500 (Central Daylight Time)","Fri Oct 30 2020 11:52:49 GMT-0500 (Central Daylight Time)","Mozilla/5.0 (Windows NT 6.1; Win64; x64) AppleWebKit/537.36 (KHTML, like Gecko) Chrome/86.0.4240.111 Safari/537.36",52,"[0.9, 0.5, 0.1]","[0.8, 0.4, 0.2]","[u'black', u'blue', u'red']","[u'left', u'middle', u'right']","[0.9, 0.5, 0.1]","[u'low', u'medium', u'high']","blue",50,"middle","medium","True","False",274,3400,NA
"A2IC4IMH7G9UKU","Fri Oct 30 2020 11:45:24 GMT-0500 (Central Daylight Time)","Fri Oct 30 2020 11:52:49 GMT-0500 (Central Daylight Time)","Mozilla/5.0 (Windows NT 6.1; Win64; x64) AppleWebKit/537.36 (KHTML, like Gecko) Chrome/86.0.4240.111 Safari/537.36",53,"[0.9, 0.5, 0.1]","[0.8, 0.4, 0.2]","[u'black', u'blue', u'red']","[u'left', u'middle', u'right']","[0.9, 0.5, 0.1]","[u'low', u'medium', u'high']","blue",50,"middle","medium","False","False",300,3350,NA
"A2IC4IMH7G9UKU","Fri Oct 30 2020 11:45:24 GMT-0500 (Central Daylight Time)","Fri Oct 30 2020 11:52:49 GMT-0500 (Central Daylight Time)","Mozilla/5.0 (Windows NT 6.1; Win64; x64) AppleWebKit/537.36 (KHTML, like Gecko) Chrome/86.0.4240.111 Safari/537.36",54,"[0.9, 0.5, 0.1]","[0.8, 0.4, 0.2]","[u'black', u'blue', u'red']","[u'left', u'middle', u'right']","[0.9, 0.5, 0.1]","[u'low', u'medium', u'high']","black",49,"left","low","False","False",235,3300,NA
"A2IC4IMH7G9UKU","Fri Oct 30 2020 11:45:24 GMT-0500 (Central Daylight Time)","Fri Oct 30 2020 11:52:49 GMT-0500 (Central Daylight Time)","Mozilla/5.0 (Windows NT 6.1; Win64; x64) AppleWebKit/537.36 (KHTML, like Gecko) Chrome/86.0.4240.111 Safari/537.36",55,"[0.9, 0.5, 0.1]","[0.8, 0.4, 0.2]","[u'black', u'blue', u'red']","[u'left', u'middle', u'right']","[0.9, 0.5, 0.1]","[u'low', u'medium', u'high']","red",51,"right","high","True","False",282,3400,NA
"A2IC4IMH7G9UKU","Fri Oct 30 2020 11:45:24 GMT-0500 (Central Daylight Time)","Fri Oct 30 2020 11:52:49 GMT-0500 (Central Daylight Time)","Mozilla/5.0 (Windows NT 6.1; Win64; x64) AppleWebKit/537.36 (KHTML, like Gecko) Chrome/86.0.4240.111 Safari/537.36",56,"[0.9, 0.5, 0.1]","[0.8, 0.4, 0.2]","[u'black', u'blue', u'red']","[u'left', u'middle', u'right']","[0.9, 0.5, 0.1]","[u'low', u'medium', u'high']","red",51,"right","high","True","False",323,3500,NA
"A2IC4IMH7G9UKU","Fri Oct 30 2020 11:45:24 GMT-0500 (Central Daylight Time)","Fri Oct 30 2020 11:52:49 GMT-0500 (Central Daylight Time)","Mozilla/5.0 (Windows NT 6.1; Win64; x64) AppleWebKit/537.36 (KHTML, like Gecko) Chrome/86.0.4240.111 Safari/537.36",57,"[0.9, 0.5, 0.1]","[0.8, 0.4, 0.2]","[u'black', u'blue', u'red']","[u'left', u'middle', u'right']","[0.9, 0.5, 0.1]","[u'low', u'medium', u'high']","red",51,"right","high","False","False",309,3450,NA
"A2IC4IMH7G9UKU","Fri Oct 30 2020 11:45:24 GMT-0500 (Central Daylight Time)","Fri Oct 30 2020 11:52:49 GMT-0500 (Central Daylight Time)","Mozilla/5.0 (Windows NT 6.1; Win64; x64) AppleWebKit/537.36 (KHTML, like Gecko) Chrome/86.0.4240.111 Safari/537.36",58,"[0.9, 0.5, 0.1]","[0.8, 0.4, 0.2]","[u'black', u'blue', u'red']","[u'left', u'middle', u'right']","[0.9, 0.5, 0.1]","[u'low', u'medium', u'high']","blue",50,"middle","medium","False","False",274,3400,NA
"A2IC4IMH7G9UKU","Fri Oct 30 2020 11:45:24 GMT-0500 (Central Daylight Time)","Fri Oct 30 2020 11:52:49 GMT-0500 (Central Daylight Time)","Mozilla/5.0 (Windows NT 6.1; Win64; x64) AppleWebKit/537.36 (KHTML, like Gecko) Chrome/86.0.4240.111 Safari/537.36",59,"[0.9, 0.5, 0.1]","[0.8, 0.4, 0.2]","[u'black', u'blue', u'red']","[u'left', u'middle', u'right']","[0.9, 0.5, 0.1]","[u'low', u'medium', u'high']","blue",50,"middle","medium","True","False",252,3500,NA
"A2IC4IMH7G9UKU","Fri Oct 30 2020 11:45:24 GMT-0500 (Central Daylight Time)","Fri Oct 30 2020 11:52:49 GMT-0500 (Central Daylight Time)","Mozilla/5.0 (Windows NT 6.1; Win64; x64) AppleWebKit/537.36 (KHTML, like Gecko) Chrome/86.0.4240.111 Safari/537.36",60,"[0.9, 0.5, 0.1]","[0.8, 0.4, 0.2]","[u'black', u'blue', u'red']","[u'left', u'middle', u'right']","[0.9, 0.5, 0.1]","[u'low', u'medium', u'high']","blue",50,"middle","medium","True","False",323,3600,NA
"A2IC4IMH7G9UKU","Fri Oct 30 2020 11:45:24 GMT-0500 (Central Daylight Time)","Fri Oct 30 2020 11:52:49 GMT-0500 (Central Daylight Time)","Mozilla/5.0 (Windows NT 6.1; Win64; x64) AppleWebKit/537.36 (KHTML, like Gecko) Chrome/86.0.4240.111 Safari/537.36",61,"[0.9, 0.5, 0.1]","[0.8, 0.4, 0.2]","[u'black', u'blue', u'red']","[u'left', u'middle', u'right']","[0.9, 0.5, 0.1]","[u'low', u'medium', u'high']","blue",50,"middle","medium","False","False",300,3550,NA
"A2IC4IMH7G9UKU","Fri Oct 30 2020 11:45:24 GMT-0500 (Central Daylight Time)","Fri Oct 30 2020 11:52:49 GMT-0500 (Central Daylight Time)","Mozilla/5.0 (Windows NT 6.1; Win64; x64) AppleWebKit/537.36 (KHTML, like Gecko) Chrome/86.0.4240.111 Safari/537.36",62,"[0.9, 0.5, 0.1]","[0.8, 0.4, 0.2]","[u'black', u'blue', u'red']","[u'left', u'middle', u'right']","[0.9, 0.5, 0.1]","[u'low', u'medium', u'high']","black",49,"left","low","False","False",380,3500,NA
"A2IC4IMH7G9UKU","Fri Oct 30 2020 11:45:24 GMT-0500 (Central Daylight Time)","Fri Oct 30 2020 11:52:49 GMT-0500 (Central Daylight Time)","Mozilla/5.0 (Windows NT 6.1; Win64; x64) AppleWebKit/537.36 (KHTML, like Gecko) Chrome/86.0.4240.111 Safari/537.36",63,"[0.9, 0.5, 0.1]","[0.8, 0.4, 0.2]","[u'black', u'blue', u'red']","[u'left', u'middle', u'right']","[0.9, 0.5, 0.1]","[u'low', u'medium', u'high']","red",51,"right","high","True","False",366,3600,NA
"A2IC4IMH7G9UKU","Fri Oct 30 2020 11:45:24 GMT-0500 (Central Daylight Time)","Fri Oct 30 2020 11:52:49 GMT-0500 (Central Daylight Time)","Mozilla/5.0 (Windows NT 6.1; Win64; x64) AppleWebKit/537.36 (KHTML, like Gecko) Chrome/86.0.4240.111 Safari/537.36",64,"[0.9, 0.5, 0.1]","[0.8, 0.4, 0.2]","[u'black', u'blue', u'red']","[u'left', u'middle', u'right']","[0.9, 0.5, 0.1]","[u'low', u'medium', u'high']","red",51,"right","high","True","False",529,3700,NA
"A2IC4IMH7G9UKU","Fri Oct 30 2020 11:45:24 GMT-0500 (Central Daylight Time)","Fri Oct 30 2020 11:52:49 GMT-0500 (Central Daylight Time)","Mozilla/5.0 (Windows NT 6.1; Win64; x64) AppleWebKit/537.36 (KHTML, like Gecko) Chrome/86.0.4240.111 Safari/537.36",65,"[0.9, 0.5, 0.1]","[0.8, 0.4, 0.2]","[u'black', u'blue', u'red']","[u'left', u'middle', u'right']","[0.9, 0.5, 0.1]","[u'low', u'medium', u'high']","red",51,"right","high","True","False",332,3800,NA
"A2IC4IMH7G9UKU","Fri Oct 30 2020 11:45:24 GMT-0500 (Central Daylight Time)","Fri Oct 30 2020 11:52:49 GMT-0500 (Central Daylight Time)","Mozilla/5.0 (Windows NT 6.1; Win64; x64) AppleWebKit/537.36 (KHTML, like Gecko) Chrome/86.0.4240.111 Safari/537.36",66,"[0.9, 0.5, 0.1]","[0.8, 0.4, 0.2]","[u'black', u'blue', u'red']","[u'left', u'middle', u'right']","[0.9, 0.5, 0.1]","[u'low', u'medium', u'high']","red",51,"right","high","True","False",371,3900,NA
"A2IC4IMH7G9UKU","Fri Oct 30 2020 11:45:24 GMT-0500 (Central Daylight Time)","Fri Oct 30 2020 11:52:49 GMT-0500 (Central Daylight Time)","Mozilla/5.0 (Windows NT 6.1; Win64; x64) AppleWebKit/537.36 (KHTML, like Gecko) Chrome/86.0.4240.111 Safari/537.36",67,"[0.9, 0.5, 0.1]","[0.8, 0.4, 0.2]","[u'black', u'blue', u'red']","[u'left', u'middle', u'right']","[0.9, 0.5, 0.1]","[u'low', u'medium', u'high']","red",51,"right","high","True","False",515,4000,NA
"A2IC4IMH7G9UKU","Fri Oct 30 2020 11:45:24 GMT-0500 (Central Daylight Time)","Fri Oct 30 2020 11:52:49 GMT-0500 (Central Daylight Time)","Mozilla/5.0 (Windows NT 6.1; Win64; x64) AppleWebKit/537.36 (KHTML, like Gecko) Chrome/86.0.4240.111 Safari/537.36",68,"[0.9, 0.5, 0.1]","[0.8, 0.4, 0.2]","[u'black', u'blue', u'red']","[u'left', u'middle', u'right']","[0.9, 0.5, 0.1]","[u'low', u'medium', u'high']","blue",50,"middle","medium","True","False",1269,4100,NA
"A2IC4IMH7G9UKU","Fri Oct 30 2020 11:45:24 GMT-0500 (Central Daylight Time)","Fri Oct 30 2020 11:52:49 GMT-0500 (Central Daylight Time)","Mozilla/5.0 (Windows NT 6.1; Win64; x64) AppleWebKit/537.36 (KHTML, like Gecko) Chrome/86.0.4240.111 Safari/537.36",69,"[0.9, 0.5, 0.1]","[0.8, 0.4, 0.2]","[u'black', u'blue', u'red']","[u'left', u'middle', u'right']","[0.9, 0.5, 0.1]","[u'low', u'medium', u'high']","blue",50,"middle","medium","False","False",977,4050,NA
"A2IC4IMH7G9UKU","Fri Oct 30 2020 11:45:24 GMT-0500 (Central Daylight Time)","Fri Oct 30 2020 11:52:49 GMT-0500 (Central Daylight Time)","Mozilla/5.0 (Windows NT 6.1; Win64; x64) AppleWebKit/537.36 (KHTML, like Gecko) Chrome/86.0.4240.111 Safari/537.36",70,"[0.9, 0.5, 0.1]","[0.8, 0.4, 0.2]","[u'black', u'blue', u'red']","[u'left', u'middle', u'right']","[0.9, 0.5, 0.1]","[u'low', u'medium', u'high']","blue",50,"middle","medium","False","False",338,4000,NA
"A2IC4IMH7G9UKU","Fri Oct 30 2020 11:45:24 GMT-0500 (Central Daylight Time)","Fri Oct 30 2020 11:52:49 GMT-0500 (Central Daylight Time)","Mozilla/5.0 (Windows NT 6.1; Win64; x64) AppleWebKit/537.36 (KHTML, like Gecko) Chrome/86.0.4240.111 Safari/537.36",71,"[0.9, 0.5, 0.1]","[0.8, 0.4, 0.2]","[u'black', u'blue', u'red']","[u'left', u'middle', u'right']","[0.9, 0.5, 0.1]","[u'low', u'medium', u'high']","black",49,"left","low","False","False",75,3950,NA
"A2IC4IMH7G9UKU","Fri Oct 30 2020 11:45:24 GMT-0500 (Central Daylight Time)","Fri Oct 30 2020 11:52:49 GMT-0500 (Central Daylight Time)","Mozilla/5.0 (Windows NT 6.1; Win64; x64) AppleWebKit/537.36 (KHTML, like Gecko) Chrome/86.0.4240.111 Safari/537.36",72,"[0.9, 0.5, 0.1]","[0.8, 0.4, 0.2]","[u'black', u'blue', u'red']","[u'left', u'middle', u'right']","[0.9, 0.5, 0.1]","[u'low', u'medium', u'high']","red",51,"right","high","True","False",140,4050,NA
"A2IC4IMH7G9UKU","Fri Oct 30 2020 11:45:24 GMT-0500 (Central Daylight Time)","Fri Oct 30 2020 11:52:49 GMT-0500 (Central Daylight Time)","Mozilla/5.0 (Windows NT 6.1; Win64; x64) AppleWebKit/537.36 (KHTML, like Gecko) Chrome/86.0.4240.111 Safari/537.36",73,"[0.9, 0.5, 0.1]","[0.8, 0.4, 0.2]","[u'black', u'blue', u'red']","[u'left', u'middle', u'right']","[0.9, 0.5, 0.1]","[u'low', u'medium', u'high']","red",51,"right","high","True","False",2430,4150,NA
"A2IC4IMH7G9UKU","Fri Oct 30 2020 11:45:24 GMT-0500 (Central Daylight Time)","Fri Oct 30 2020 11:52:49 GMT-0500 (Central Daylight Time)","Mozilla/5.0 (Windows NT 6.1; Win64; x64) AppleWebKit/537.36 (KHTML, like Gecko) Chrome/86.0.4240.111 Safari/537.36",74,"[0.9, 0.5, 0.1]","[0.8, 0.4, 0.2]","[u'black', u'blue', u'red']","[u'left', u'middle', u'right']","[0.9, 0.5, 0.1]","[u'low', u'medium', u'high']","red",51,"right","high","True","False",442,4250,NA
"A2IC4IMH7G9UKU","Fri Oct 30 2020 11:45:24 GMT-0500 (Central Daylight Time)","Fri Oct 30 2020 11:52:49 GMT-0500 (Central Daylight Time)","Mozilla/5.0 (Windows NT 6.1; Win64; x64) AppleWebKit/537.36 (KHTML, like Gecko) Chrome/86.0.4240.111 Safari/537.36",75,"[0.9, 0.5, 0.1]","[0.8, 0.4, 0.2]","[u'black', u'blue', u'red']","[u'left', u'middle', u'right']","[0.9, 0.5, 0.1]","[u'low', u'medium', u'high']","red",51,"right","high","True","False",491,4350,NA
"A2IC4IMH7G9UKU","Fri Oct 30 2020 11:45:24 GMT-0500 (Central Daylight Time)","Fri Oct 30 2020 11:52:49 GMT-0500 (Central Daylight Time)","Mozilla/5.0 (Windows NT 6.1; Win64; x64) AppleWebKit/537.36 (KHTML, like Gecko) Chrome/86.0.4240.111 Safari/537.36",76,"[0.9, 0.5, 0.1]","[0.8, 0.4, 0.2]","[u'black', u'blue', u'red']","[u'left', u'middle', u'right']","[0.9, 0.5, 0.1]","[u'low', u'medium', u'high']","red",51,"right","high","True","False",1771,4450,NA
"A2IC4IMH7G9UKU","Fri Oct 30 2020 11:45:24 GMT-0500 (Central Daylight Time)","Fri Oct 30 2020 11:52:49 GMT-0500 (Central Daylight Time)","Mozilla/5.0 (Windows NT 6.1; Win64; x64) AppleWebKit/537.36 (KHTML, like Gecko) Chrome/86.0.4240.111 Safari/537.36",77,"[0.9, 0.5, 0.1]","[0.8, 0.4, 0.2]","[u'black', u'blue', u'red']","[u'left', u'middle', u'right']","[0.9, 0.5, 0.1]","[u'low', u'medium', u'high']","red",51,"right","high","True","False",955,4550,NA
"A2IC4IMH7G9UKU","Fri Oct 30 2020 11:45:24 GMT-0500 (Central Daylight Time)","Fri Oct 30 2020 11:52:49 GMT-0500 (Central Daylight Time)","Mozilla/5.0 (Windows NT 6.1; Win64; x64) AppleWebKit/537.36 (KHTML, like Gecko) Chrome/86.0.4240.111 Safari/537.36",78,"[0.9, 0.5, 0.1]","[0.8, 0.4, 0.2]","[u'black', u'blue', u'red']","[u'left', u'middle', u'right']","[0.9, 0.5, 0.1]","[u'low', u'medium', u'high']","red",51,"right","high","False","False",973,4500,NA
"A2IC4IMH7G9UKU","Fri Oct 30 2020 11:45:24 GMT-0500 (Central Daylight Time)","Fri Oct 30 2020 11:52:49 GMT-0500 (Central Daylight Time)","Mozilla/5.0 (Windows NT 6.1; Win64; x64) AppleWebKit/537.36 (KHTML, like Gecko) Chrome/86.0.4240.111 Safari/537.36",79,"[0.9, 0.5, 0.1]","[0.8, 0.4, 0.2]","[u'black', u'blue', u'red']","[u'left', u'middle', u'right']","[0.9, 0.5, 0.1]","[u'low', u'medium', u'high']","blue",50,"middle","medium","True","False",296,4600,NA
"A2IC4IMH7G9UKU","Fri Oct 30 2020 11:45:24 GMT-0500 (Central Daylight Time)","Fri Oct 30 2020 11:52:49 GMT-0500 (Central Daylight Time)","Mozilla/5.0 (Windows NT 6.1; Win64; x64) AppleWebKit/537.36 (KHTML, like Gecko) Chrome/86.0.4240.111 Safari/537.36",80,"[0.9, 0.5, 0.1]","[0.8, 0.4, 0.2]","[u'black', u'blue', u'red']","[u'left', u'middle', u'right']","[0.9, 0.5, 0.1]","[u'low', u'medium', u'high']","blue",50,"middle","medium","True","False",1995,4700,NA
"A2IC4IMH7G9UKU","Fri Oct 30 2020 11:45:24 GMT-0500 (Central Daylight Time)","Fri Oct 30 2020 11:52:49 GMT-0500 (Central Daylight Time)","Mozilla/5.0 (Windows NT 6.1; Win64; x64) AppleWebKit/537.36 (KHTML, like Gecko) Chrome/86.0.4240.111 Safari/537.36",81,"[0.9, 0.5, 0.1]","[0.8, 0.4, 0.2]","[u'black', u'blue', u'red']","[u'left', u'middle', u'right']","[0.8, 0.4, 0.2]","[u'high', u'medium', u'low']","blue",50,"middle","medium","True","False",458,4800,NA
"A2IC4IMH7G9UKU","Fri Oct 30 2020 11:45:24 GMT-0500 (Central Daylight Time)","Fri Oct 30 2020 11:52:49 GMT-0500 (Central Daylight Time)","Mozilla/5.0 (Windows NT 6.1; Win64; x64) AppleWebKit/537.36 (KHTML, like Gecko) Chrome/86.0.4240.111 Safari/537.36",82,"[0.9, 0.5, 0.1]","[0.8, 0.4, 0.2]","[u'black', u'blue', u'red']","[u'left', u'middle', u'right']","[0.8, 0.4, 0.2]","[u'high', u'medium', u'low']","blue",50,"middle","medium","False","False",38,4750,NA
"A2IC4IMH7G9UKU","Fri Oct 30 2020 11:45:24 GMT-0500 (Central Daylight Time)","Fri Oct 30 2020 11:52:49 GMT-0500 (Central Daylight Time)","Mozilla/5.0 (Windows NT 6.1; Win64; x64) AppleWebKit/537.36 (KHTML, like Gecko) Chrome/86.0.4240.111 Safari/537.36",83,"[0.9, 0.5, 0.1]","[0.8, 0.4, 0.2]","[u'black', u'blue', u'red']","[u'left', u'middle', u'right']","[0.8, 0.4, 0.2]","[u'high', u'medium', u'low']","black",49,"left","high","False","False",385,4700,NA
"A2IC4IMH7G9UKU","Fri Oct 30 2020 11:45:24 GMT-0500 (Central Daylight Time)","Fri Oct 30 2020 11:52:49 GMT-0500 (Central Daylight Time)","Mozilla/5.0 (Windows NT 6.1; Win64; x64) AppleWebKit/537.36 (KHTML, like Gecko) Chrome/86.0.4240.111 Safari/537.36",84,"[0.9, 0.5, 0.1]","[0.8, 0.4, 0.2]","[u'black', u'blue', u'red']","[u'left', u'middle', u'right']","[0.8, 0.4, 0.2]","[u'high', u'medium', u'low']","red",51,"right","low","False","False",459,4650,NA
"A2IC4IMH7G9UKU","Fri Oct 30 2020 11:45:24 GMT-0500 (Central Daylight Time)","Fri Oct 30 2020 11:52:49 GMT-0500 (Central Daylight Time)","Mozilla/5.0 (Windows NT 6.1; Win64; x64) AppleWebKit/537.36 (KHTML, like Gecko) Chrome/86.0.4240.111 Safari/537.36",85,"[0.9, 0.5, 0.1]","[0.8, 0.4, 0.2]","[u'black', u'blue', u'red']","[u'left', u'middle', u'right']","[0.8, 0.4, 0.2]","[u'high', u'medium', u'low']","red",51,"right","low","False","False",67,4600,NA
"A2IC4IMH7G9UKU","Fri Oct 30 2020 11:45:24 GMT-0500 (Central Daylight Time)","Fri Oct 30 2020 11:52:49 GMT-0500 (Central Daylight Time)","Mozilla/5.0 (Windows NT 6.1; Win64; x64) AppleWebKit/537.36 (KHTML, like Gecko) Chrome/86.0.4240.111 Safari/537.36",86,"[0.9, 0.5, 0.1]","[0.8, 0.4, 0.2]","[u'black', u'blue', u'red']","[u'left', u'middle', u'right']","[0.8, 0.4, 0.2]","[u'high', u'medium', u'low']","blue",50,"middle","medium","True","False",98,4700,NA
"A2IC4IMH7G9UKU","Fri Oct 30 2020 11:45:24 GMT-0500 (Central Daylight Time)","Fri Oct 30 2020 11:52:49 GMT-0500 (Central Daylight Time)","Mozilla/5.0 (Windows NT 6.1; Win64; x64) AppleWebKit/537.36 (KHTML, like Gecko) Chrome/86.0.4240.111 Safari/537.36",87,"[0.9, 0.5, 0.1]","[0.8, 0.4, 0.2]","[u'black', u'blue', u'red']","[u'left', u'middle', u'right']","[0.8, 0.4, 0.2]","[u'high', u'medium', u'low']","blue",50,"middle","medium","False","False",844,4650,NA
"A2IC4IMH7G9UKU","Fri Oct 30 2020 11:45:24 GMT-0500 (Central Daylight Time)","Fri Oct 30 2020 11:52:49 GMT-0500 (Central Daylight Time)","Mozilla/5.0 (Windows NT 6.1; Win64; x64) AppleWebKit/537.36 (KHTML, like Gecko) Chrome/86.0.4240.111 Safari/537.36",88,"[0.9, 0.5, 0.1]","[0.8, 0.4, 0.2]","[u'black', u'blue', u'red']","[u'left', u'middle', u'right']","[0.8, 0.4, 0.2]","[u'high', u'medium', u'low']","black",49,"left","high","True","False",309,4750,NA
"A2IC4IMH7G9UKU","Fri Oct 30 2020 11:45:24 GMT-0500 (Central Daylight Time)","Fri Oct 30 2020 11:52:49 GMT-0500 (Central Daylight Time)","Mozilla/5.0 (Windows NT 6.1; Win64; x64) AppleWebKit/537.36 (KHTML, like Gecko) Chrome/86.0.4240.111 Safari/537.36",89,"[0.9, 0.5, 0.1]","[0.8, 0.4, 0.2]","[u'black', u'blue', u'red']","[u'left', u'middle', u'right']","[0.8, 0.4, 0.2]","[u'high', u'medium', u'low']","black",49,"left","high","True","False",361,4850,NA
"A2IC4IMH7G9UKU","Fri Oct 30 2020 11:45:24 GMT-0500 (Central Daylight Time)","Fri Oct 30 2020 11:52:49 GMT-0500 (Central Daylight Time)","Mozilla/5.0 (Windows NT 6.1; Win64; x64) AppleWebKit/537.36 (KHTML, like Gecko) Chrome/86.0.4240.111 Safari/537.36",90,"[0.9, 0.5, 0.1]","[0.8, 0.4, 0.2]","[u'black', u'blue', u'red']","[u'left', u'middle', u'right']","[0.8, 0.4, 0.2]","[u'high', u'medium', u'low']","black",49,"left","high","True","False",410,4950,NA
"A2IC4IMH7G9UKU","Fri Oct 30 2020 11:45:24 GMT-0500 (Central Daylight Time)","Fri Oct 30 2020 11:52:49 GMT-0500 (Central Daylight Time)","Mozilla/5.0 (Windows NT 6.1; Win64; x64) AppleWebKit/537.36 (KHTML, like Gecko) Chrome/86.0.4240.111 Safari/537.36",91,"[0.9, 0.5, 0.1]","[0.8, 0.4, 0.2]","[u'black', u'blue', u'red']","[u'left', u'middle', u'right']","[0.8, 0.4, 0.2]","[u'high', u'medium', u'low']","black",49,"left","high","True","False",436,5050,NA
"A2IC4IMH7G9UKU","Fri Oct 30 2020 11:45:24 GMT-0500 (Central Daylight Time)","Fri Oct 30 2020 11:52:49 GMT-0500 (Central Daylight Time)","Mozilla/5.0 (Windows NT 6.1; Win64; x64) AppleWebKit/537.36 (KHTML, like Gecko) Chrome/86.0.4240.111 Safari/537.36",92,"[0.9, 0.5, 0.1]","[0.8, 0.4, 0.2]","[u'black', u'blue', u'red']","[u'left', u'middle', u'right']","[0.8, 0.4, 0.2]","[u'high', u'medium', u'low']","black",49,"left","high","True","False",346,5150,NA
"A2IC4IMH7G9UKU","Fri Oct 30 2020 11:45:24 GMT-0500 (Central Daylight Time)","Fri Oct 30 2020 11:52:49 GMT-0500 (Central Daylight Time)","Mozilla/5.0 (Windows NT 6.1; Win64; x64) AppleWebKit/537.36 (KHTML, like Gecko) Chrome/86.0.4240.111 Safari/537.36",93,"[0.9, 0.5, 0.1]","[0.8, 0.4, 0.2]","[u'black', u'blue', u'red']","[u'left', u'middle', u'right']","[0.8, 0.4, 0.2]","[u'high', u'medium', u'low']","black",49,"left","high","True","False",347,5250,NA
"A2IC4IMH7G9UKU","Fri Oct 30 2020 11:45:24 GMT-0500 (Central Daylight Time)","Fri Oct 30 2020 11:52:49 GMT-0500 (Central Daylight Time)","Mozilla/5.0 (Windows NT 6.1; Win64; x64) AppleWebKit/537.36 (KHTML, like Gecko) Chrome/86.0.4240.111 Safari/537.36",94,"[0.9, 0.5, 0.1]","[0.8, 0.4, 0.2]","[u'black', u'blue', u'red']","[u'left', u'middle', u'right']","[0.8, 0.4, 0.2]","[u'high', u'medium', u'low']","black",49,"left","high","True","False",399,5350,NA
"A2IC4IMH7G9UKU","Fri Oct 30 2020 11:45:24 GMT-0500 (Central Daylight Time)","Fri Oct 30 2020 11:52:49 GMT-0500 (Central Daylight Time)","Mozilla/5.0 (Windows NT 6.1; Win64; x64) AppleWebKit/537.36 (KHTML, like Gecko) Chrome/86.0.4240.111 Safari/537.36",95,"[0.9, 0.5, 0.1]","[0.8, 0.4, 0.2]","[u'black', u'blue', u'red']","[u'left', u'middle', u'right']","[0.8, 0.4, 0.2]","[u'high', u'medium', u'low']","black",49,"left","high","True","False",391,5450,NA
"A2IC4IMH7G9UKU","Fri Oct 30 2020 11:45:24 GMT-0500 (Central Daylight Time)","Fri Oct 30 2020 11:52:49 GMT-0500 (Central Daylight Time)","Mozilla/5.0 (Windows NT 6.1; Win64; x64) AppleWebKit/537.36 (KHTML, like Gecko) Chrome/86.0.4240.111 Safari/537.36",96,"[0.9, 0.5, 0.1]","[0.8, 0.4, 0.2]","[u'black', u'blue', u'red']","[u'left', u'middle', u'right']","[0.8, 0.4, 0.2]","[u'high', u'medium', u'low']","black",49,"left","high","False","True",891,5400,NA
"A2IC4IMH7G9UKU","Fri Oct 30 2020 11:45:24 GMT-0500 (Central Daylight Time)","Fri Oct 30 2020 11:52:49 GMT-0500 (Central Daylight Time)","Mozilla/5.0 (Windows NT 6.1; Win64; x64) AppleWebKit/537.36 (KHTML, like Gecko) Chrome/86.0.4240.111 Safari/537.36",97,"[0.9, 0.5, 0.1]","[0.8, 0.4, 0.2]","[u'black', u'blue', u'red']","[u'left', u'middle', u'right']","[0.8, 0.4, 0.2]","[u'medium', u'high', u'low']","red",51,"right","low","True","False",396,5500,NA
"A2IC4IMH7G9UKU","Fri Oct 30 2020 11:45:24 GMT-0500 (Central Daylight Time)","Fri Oct 30 2020 11:52:49 GMT-0500 (Central Daylight Time)","Mozilla/5.0 (Windows NT 6.1; Win64; x64) AppleWebKit/537.36 (KHTML, like Gecko) Chrome/86.0.4240.111 Safari/537.36",98,"[0.9, 0.5, 0.1]","[0.8, 0.4, 0.2]","[u'black', u'blue', u'red']","[u'left', u'middle', u'right']","[0.8, 0.4, 0.2]","[u'medium', u'high', u'low']","blue",50,"middle","high","True","False",387,5600,NA
"A2IC4IMH7G9UKU","Fri Oct 30 2020 11:45:24 GMT-0500 (Central Daylight Time)","Fri Oct 30 2020 11:52:49 GMT-0500 (Central Daylight Time)","Mozilla/5.0 (Windows NT 6.1; Win64; x64) AppleWebKit/537.36 (KHTML, like Gecko) Chrome/86.0.4240.111 Safari/537.36",99,"[0.9, 0.5, 0.1]","[0.8, 0.4, 0.2]","[u'black', u'blue', u'red']","[u'left', u'middle', u'right']","[0.8, 0.4, 0.2]","[u'medium', u'high', u'low']","blue",50,"middle","high","True","False",496,5700,NA
"A2IC4IMH7G9UKU","Fri Oct 30 2020 11:45:24 GMT-0500 (Central Daylight Time)","Fri Oct 30 2020 11:52:49 GMT-0500 (Central Daylight Time)","Mozilla/5.0 (Windows NT 6.1; Win64; x64) AppleWebKit/537.36 (KHTML, like Gecko) Chrome/86.0.4240.111 Safari/537.36",100,"[0.9, 0.5, 0.1]","[0.8, 0.4, 0.2]","[u'black', u'blue', u'red']","[u'left', u'middle', u'right']","[0.8, 0.4, 0.2]","[u'medium', u'high', u'low']","blue",50,"middle","high","True","False",376,5800,NA
"A2IC4IMH7G9UKU","Fri Oct 30 2020 11:45:24 GMT-0500 (Central Daylight Time)","Fri Oct 30 2020 11:52:49 GMT-0500 (Central Daylight Time)","Mozilla/5.0 (Windows NT 6.1; Win64; x64) AppleWebKit/537.36 (KHTML, like Gecko) Chrome/86.0.4240.111 Safari/537.36",101,"[0.9, 0.5, 0.1]","[0.8, 0.4, 0.2]","[u'black', u'blue', u'red']","[u'left', u'middle', u'right']","[0.8, 0.4, 0.2]","[u'medium', u'high', u'low']","red",51,"right","low","True","False",515,5900,NA
"A2IC4IMH7G9UKU","Fri Oct 30 2020 11:45:24 GMT-0500 (Central Daylight Time)","Fri Oct 30 2020 11:52:49 GMT-0500 (Central Daylight Time)","Mozilla/5.0 (Windows NT 6.1; Win64; x64) AppleWebKit/537.36 (KHTML, like Gecko) Chrome/86.0.4240.111 Safari/537.36",102,"[0.9, 0.5, 0.1]","[0.8, 0.4, 0.2]","[u'black', u'blue', u'red']","[u'left', u'middle', u'right']","[0.8, 0.4, 0.2]","[u'medium', u'high', u'low']","red",51,"right","low","True","False",748,6000,NA
"A2IC4IMH7G9UKU","Fri Oct 30 2020 11:45:24 GMT-0500 (Central Daylight Time)","Fri Oct 30 2020 11:52:49 GMT-0500 (Central Daylight Time)","Mozilla/5.0 (Windows NT 6.1; Win64; x64) AppleWebKit/537.36 (KHTML, like Gecko) Chrome/86.0.4240.111 Safari/537.36",103,"[0.9, 0.5, 0.1]","[0.8, 0.4, 0.2]","[u'black', u'blue', u'red']","[u'left', u'middle', u'right']","[0.8, 0.4, 0.2]","[u'medium', u'high', u'low']","red",51,"right","low","True","False",403,6100,NA
"A2IC4IMH7G9UKU","Fri Oct 30 2020 11:45:24 GMT-0500 (Central Daylight Time)","Fri Oct 30 2020 11:52:49 GMT-0500 (Central Daylight Time)","Mozilla/5.0 (Windows NT 6.1; Win64; x64) AppleWebKit/537.36 (KHTML, like Gecko) Chrome/86.0.4240.111 Safari/537.36",104,"[0.9, 0.5, 0.1]","[0.8, 0.4, 0.2]","[u'black', u'blue', u'red']","[u'left', u'middle', u'right']","[0.8, 0.4, 0.2]","[u'medium', u'high', u'low']","red",51,"right","low","False","False",395,6050,NA
"A2IC4IMH7G9UKU","Fri Oct 30 2020 11:45:24 GMT-0500 (Central Daylight Time)","Fri Oct 30 2020 11:52:49 GMT-0500 (Central Daylight Time)","Mozilla/5.0 (Windows NT 6.1; Win64; x64) AppleWebKit/537.36 (KHTML, like Gecko) Chrome/86.0.4240.111 Safari/537.36",105,"[0.9, 0.5, 0.1]","[0.8, 0.4, 0.2]","[u'black', u'blue', u'red']","[u'left', u'middle', u'right']","[0.8, 0.4, 0.2]","[u'medium', u'high', u'low']","blue",50,"middle","high","True","False",142,6150,NA
"A2IC4IMH7G9UKU","Fri Oct 30 2020 11:45:24 GMT-0500 (Central Daylight Time)","Fri Oct 30 2020 11:52:49 GMT-0500 (Central Daylight Time)","Mozilla/5.0 (Windows NT 6.1; Win64; x64) AppleWebKit/537.36 (KHTML, like Gecko) Chrome/86.0.4240.111 Safari/537.36",106,"[0.9, 0.5, 0.1]","[0.8, 0.4, 0.2]","[u'black', u'blue', u'red']","[u'left', u'middle', u'right']","[0.8, 0.4, 0.2]","[u'medium', u'high', u'low']","blue",50,"middle","high","True","False",360,6250,NA
"A2IC4IMH7G9UKU","Fri Oct 30 2020 11:45:24 GMT-0500 (Central Daylight Time)","Fri Oct 30 2020 11:52:49 GMT-0500 (Central Daylight Time)","Mozilla/5.0 (Windows NT 6.1; Win64; x64) AppleWebKit/537.36 (KHTML, like Gecko) Chrome/86.0.4240.111 Safari/537.36",107,"[0.9, 0.5, 0.1]","[0.8, 0.4, 0.2]","[u'black', u'blue', u'red']","[u'left', u'middle', u'right']","[0.8, 0.4, 0.2]","[u'medium', u'high', u'low']","black",49,"left","medium","True","False",715,6350,NA
"A2IC4IMH7G9UKU","Fri Oct 30 2020 11:45:24 GMT-0500 (Central Daylight Time)","Fri Oct 30 2020 11:52:49 GMT-0500 (Central Daylight Time)","Mozilla/5.0 (Windows NT 6.1; Win64; x64) AppleWebKit/537.36 (KHTML, like Gecko) Chrome/86.0.4240.111 Safari/537.36",108,"[0.9, 0.5, 0.1]","[0.8, 0.4, 0.2]","[u'black', u'blue', u'red']","[u'left', u'middle', u'right']","[0.8, 0.4, 0.2]","[u'medium', u'high', u'low']","black",49,"left","medium","True","False",1004,6450,NA
"A2IC4IMH7G9UKU","Fri Oct 30 2020 11:45:24 GMT-0500 (Central Daylight Time)","Fri Oct 30 2020 11:52:49 GMT-0500 (Central Daylight Time)","Mozilla/5.0 (Windows NT 6.1; Win64; x64) AppleWebKit/537.36 (KHTML, like Gecko) Chrome/86.0.4240.111 Safari/537.36",109,"[0.9, 0.5, 0.1]","[0.8, 0.4, 0.2]","[u'black', u'blue', u'red']","[u'left', u'middle', u'right']","[0.8, 0.4, 0.2]","[u'medium', u'high', u'low']","black",49,"left","medium","False","False",766,6400,NA
"A2IC4IMH7G9UKU","Fri Oct 30 2020 11:45:24 GMT-0500 (Central Daylight Time)","Fri Oct 30 2020 11:52:49 GMT-0500 (Central Daylight Time)","Mozilla/5.0 (Windows NT 6.1; Win64; x64) AppleWebKit/537.36 (KHTML, like Gecko) Chrome/86.0.4240.111 Safari/537.36",110,"[0.9, 0.5, 0.1]","[0.8, 0.4, 0.2]","[u'black', u'blue', u'red']","[u'left', u'middle', u'right']","[0.8, 0.4, 0.2]","[u'medium', u'high', u'low']","red",51,"right","low","False","False",463,6350,NA
"A2IC4IMH7G9UKU","Fri Oct 30 2020 11:45:24 GMT-0500 (Central Daylight Time)","Fri Oct 30 2020 11:52:49 GMT-0500 (Central Daylight Time)","Mozilla/5.0 (Windows NT 6.1; Win64; x64) AppleWebKit/537.36 (KHTML, like Gecko) Chrome/86.0.4240.111 Safari/537.36",111,"[0.9, 0.5, 0.1]","[0.8, 0.4, 0.2]","[u'black', u'blue', u'red']","[u'left', u'middle', u'right']","[0.8, 0.4, 0.2]","[u'medium', u'high', u'low']","blue",50,"middle","high","True","False",332,6450,NA
"A2IC4IMH7G9UKU","Fri Oct 30 2020 11:45:24 GMT-0500 (Central Daylight Time)","Fri Oct 30 2020 11:52:49 GMT-0500 (Central Daylight Time)","Mozilla/5.0 (Windows NT 6.1; Win64; x64) AppleWebKit/537.36 (KHTML, like Gecko) Chrome/86.0.4240.111 Safari/537.36",112,"[0.9, 0.5, 0.1]","[0.8, 0.4, 0.2]","[u'black', u'blue', u'red']","[u'left', u'middle', u'right']","[0.8, 0.4, 0.2]","[u'medium', u'high', u'low']","blue",50,"middle","high","True","False",538,6550,NA
"A2IC4IMH7G9UKU","Fri Oct 30 2020 11:45:24 GMT-0500 (Central Daylight Time)","Fri Oct 30 2020 11:52:49 GMT-0500 (Central Daylight Time)","Mozilla/5.0 (Windows NT 6.1; Win64; x64) AppleWebKit/537.36 (KHTML, like Gecko) Chrome/86.0.4240.111 Safari/537.36",113,"[0.9, 0.5, 0.1]","[0.8, 0.4, 0.2]","[u'black', u'blue', u'red']","[u'left', u'middle', u'right']","[0.8, 0.4, 0.2]","[u'medium', u'high', u'low']","blue",50,"middle","high","True","False",451,6650,NA
"A2IC4IMH7G9UKU","Fri Oct 30 2020 11:45:24 GMT-0500 (Central Daylight Time)","Fri Oct 30 2020 11:52:49 GMT-0500 (Central Daylight Time)","Mozilla/5.0 (Windows NT 6.1; Win64; x64) AppleWebKit/537.36 (KHTML, like Gecko) Chrome/86.0.4240.111 Safari/537.36",114,"[0.9, 0.5, 0.1]","[0.8, 0.4, 0.2]","[u'black', u'blue', u'red']","[u'left', u'middle', u'right']","[0.8, 0.4, 0.2]","[u'medium', u'high', u'low']","blue",50,"middle","high","True","False",283,6750,NA
"A2IC4IMH7G9UKU","Fri Oct 30 2020 11:45:24 GMT-0500 (Central Daylight Time)","Fri Oct 30 2020 11:52:49 GMT-0500 (Central Daylight Time)","Mozilla/5.0 (Windows NT 6.1; Win64; x64) AppleWebKit/537.36 (KHTML, like Gecko) Chrome/86.0.4240.111 Safari/537.36",115,"[0.9, 0.5, 0.1]","[0.8, 0.4, 0.2]","[u'black', u'blue', u'red']","[u'left', u'middle', u'right']","[0.8, 0.4, 0.2]","[u'medium', u'high', u'low']","blue",50,"middle","high","True","False",294,6850,NA
"A2IC4IMH7G9UKU","Fri Oct 30 2020 11:45:24 GMT-0500 (Central Daylight Time)","Fri Oct 30 2020 11:52:49 GMT-0500 (Central Daylight Time)","Mozilla/5.0 (Windows NT 6.1; Win64; x64) AppleWebKit/537.36 (KHTML, like Gecko) Chrome/86.0.4240.111 Safari/537.36",116,"[0.9, 0.5, 0.1]","[0.8, 0.4, 0.2]","[u'black', u'blue', u'red']","[u'left', u'middle', u'right']","[0.8, 0.4, 0.2]","[u'medium', u'high', u'low']","blue",50,"middle","high","True","False",368,6950,NA
"A2IC4IMH7G9UKU","Fri Oct 30 2020 11:45:24 GMT-0500 (Central Daylight Time)","Fri Oct 30 2020 11:52:49 GMT-0500 (Central Daylight Time)","Mozilla/5.0 (Windows NT 6.1; Win64; x64) AppleWebKit/537.36 (KHTML, like Gecko) Chrome/86.0.4240.111 Safari/537.36",117,"[0.9, 0.5, 0.1]","[0.8, 0.4, 0.2]","[u'black', u'blue', u'red']","[u'left', u'middle', u'right']","[0.8, 0.4, 0.2]","[u'medium', u'high', u'low']","blue",50,"middle","high","True","False",291,7050,NA
"A2IC4IMH7G9UKU","Fri Oct 30 2020 11:45:24 GMT-0500 (Central Daylight Time)","Fri Oct 30 2020 11:52:49 GMT-0500 (Central Daylight Time)","Mozilla/5.0 (Windows NT 6.1; Win64; x64) AppleWebKit/537.36 (KHTML, like Gecko) Chrome/86.0.4240.111 Safari/537.36",118,"[0.9, 0.5, 0.1]","[0.8, 0.4, 0.2]","[u'black', u'blue', u'red']","[u'left', u'middle', u'right']","[0.8, 0.4, 0.2]","[u'medium', u'high', u'low']","blue",50,"middle","high","True","False",346,7150,NA
"A2IC4IMH7G9UKU","Fri Oct 30 2020 11:45:24 GMT-0500 (Central Daylight Time)","Fri Oct 30 2020 11:52:49 GMT-0500 (Central Daylight Time)","Mozilla/5.0 (Windows NT 6.1; Win64; x64) AppleWebKit/537.36 (KHTML, like Gecko) Chrome/86.0.4240.111 Safari/537.36",119,"[0.9, 0.5, 0.1]","[0.8, 0.4, 0.2]","[u'black', u'blue', u'red']","[u'left', u'middle', u'right']","[0.8, 0.4, 0.2]","[u'medium', u'high', u'low']","blue",50,"middle","high","True","True",539,7250,NA
"A2IC4IMH7G9UKU","Fri Oct 30 2020 11:45:24 GMT-0500 (Central Daylight Time)","Fri Oct 30 2020 11:52:49 GMT-0500 (Central Daylight Time)","Mozilla/5.0 (Windows NT 6.1; Win64; x64) AppleWebKit/537.36 (KHTML, like Gecko) Chrome/86.0.4240.111 Safari/537.36",120,"[0.9, 0.5, 0.1]","[0.8, 0.4, 0.2]","[u'black', u'blue', u'red']","[u'left', u'middle', u'right']","[0.8, 0.4, 0.2]","[u'high', u'low', u'medium']","blue",50,"middle","low","False","False",957,7200,NA
"A2IC4IMH7G9UKU","Fri Oct 30 2020 11:45:24 GMT-0500 (Central Daylight Time)","Fri Oct 30 2020 11:52:49 GMT-0500 (Central Daylight Time)","Mozilla/5.0 (Windows NT 6.1; Win64; x64) AppleWebKit/537.36 (KHTML, like Gecko) Chrome/86.0.4240.111 Safari/537.36",121,"[0.9, 0.5, 0.1]","[0.8, 0.4, 0.2]","[u'black', u'blue', u'red']","[u'left', u'middle', u'right']","[0.8, 0.4, 0.2]","[u'medium', u'high', u'low']","red",51,"right","low","False","False",306,7150,NA
"A2IC4IMH7G9UKU","Fri Oct 30 2020 11:45:24 GMT-0500 (Central Daylight Time)","Fri Oct 30 2020 11:52:49 GMT-0500 (Central Daylight Time)","Mozilla/5.0 (Windows NT 6.1; Win64; x64) AppleWebKit/537.36 (KHTML, like Gecko) Chrome/86.0.4240.111 Safari/537.36",122,"[0.9, 0.5, 0.1]","[0.8, 0.4, 0.2]","[u'black', u'blue', u'red']","[u'left', u'middle', u'right']","[0.8, 0.4, 0.2]","[u'medium', u'high', u'low']","black",49,"left","medium","True","False",379,7250,NA
"A2IC4IMH7G9UKU","Fri Oct 30 2020 11:45:24 GMT-0500 (Central Daylight Time)","Fri Oct 30 2020 11:52:49 GMT-0500 (Central Daylight Time)","Mozilla/5.0 (Windows NT 6.1; Win64; x64) AppleWebKit/537.36 (KHTML, like Gecko) Chrome/86.0.4240.111 Safari/537.36",123,"[0.9, 0.5, 0.1]","[0.8, 0.4, 0.2]","[u'black', u'blue', u'red']","[u'left', u'middle', u'right']","[0.8, 0.4, 0.2]","[u'medium', u'high', u'low']","black",49,"left","medium","False","False",379,7200,NA
"A2IC4IMH7G9UKU","Fri Oct 30 2020 11:45:24 GMT-0500 (Central Daylight Time)","Fri Oct 30 2020 11:52:49 GMT-0500 (Central Daylight Time)","Mozilla/5.0 (Windows NT 6.1; Win64; x64) AppleWebKit/537.36 (KHTML, like Gecko) Chrome/86.0.4240.111 Safari/537.36",124,"[0.9, 0.5, 0.1]","[0.8, 0.4, 0.2]","[u'black', u'blue', u'red']","[u'left', u'middle', u'right']","[0.8, 0.4, 0.2]","[u'medium', u'high', u'low']","blue",50,"middle","high","True","False",355,7300,NA
"A2IC4IMH7G9UKU","Fri Oct 30 2020 11:45:24 GMT-0500 (Central Daylight Time)","Fri Oct 30 2020 11:52:49 GMT-0500 (Central Daylight Time)","Mozilla/5.0 (Windows NT 6.1; Win64; x64) AppleWebKit/537.36 (KHTML, like Gecko) Chrome/86.0.4240.111 Safari/537.36",125,"[0.9, 0.5, 0.1]","[0.8, 0.4, 0.2]","[u'black', u'blue', u'red']","[u'left', u'middle', u'right']","[0.8, 0.4, 0.2]","[u'medium', u'high', u'low']","blue",50,"middle","high","False","False",981,7250,NA
"A2IC4IMH7G9UKU","Fri Oct 30 2020 11:45:24 GMT-0500 (Central Daylight Time)","Fri Oct 30 2020 11:52:49 GMT-0500 (Central Daylight Time)","Mozilla/5.0 (Windows NT 6.1; Win64; x64) AppleWebKit/537.36 (KHTML, like Gecko) Chrome/86.0.4240.111 Safari/537.36",126,"[0.9, 0.5, 0.1]","[0.8, 0.4, 0.2]","[u'black', u'blue', u'red']","[u'left', u'middle', u'right']","[0.8, 0.4, 0.2]","[u'medium', u'high', u'low']","red",51,"right","low","True","False",736,7350,NA
"A2IC4IMH7G9UKU","Fri Oct 30 2020 11:45:24 GMT-0500 (Central Daylight Time)","Fri Oct 30 2020 11:52:49 GMT-0500 (Central Daylight Time)","Mozilla/5.0 (Windows NT 6.1; Win64; x64) AppleWebKit/537.36 (KHTML, like Gecko) Chrome/86.0.4240.111 Safari/537.36",127,"[0.9, 0.5, 0.1]","[0.8, 0.4, 0.2]","[u'black', u'blue', u'red']","[u'left', u'middle', u'right']","[0.8, 0.4, 0.2]","[u'medium', u'high', u'low']","red",51,"right","low","True","False",1164,7450,NA
"A2IC4IMH7G9UKU","Fri Oct 30 2020 11:45:24 GMT-0500 (Central Daylight Time)","Fri Oct 30 2020 11:52:49 GMT-0500 (Central Daylight Time)","Mozilla/5.0 (Windows NT 6.1; Win64; x64) AppleWebKit/537.36 (KHTML, like Gecko) Chrome/86.0.4240.111 Safari/537.36",128,"[0.9, 0.5, 0.1]","[0.8, 0.4, 0.2]","[u'black', u'blue', u'red']","[u'left', u'middle', u'right']","[0.8, 0.4, 0.2]","[u'medium', u'high', u'low']","red",51,"right","low","True","False",1595,7550,NA
"A2IC4IMH7G9UKU","Fri Oct 30 2020 11:45:24 GMT-0500 (Central Daylight Time)","Fri Oct 30 2020 11:52:49 GMT-0500 (Central Daylight Time)","Mozilla/5.0 (Windows NT 6.1; Win64; x64) AppleWebKit/537.36 (KHTML, like Gecko) Chrome/86.0.4240.111 Safari/537.36",129,"[0.9, 0.5, 0.1]","[0.8, 0.4, 0.2]","[u'black', u'blue', u'red']","[u'left', u'middle', u'right']","[0.8, 0.4, 0.2]","[u'medium', u'high', u'low']","red",51,"right","low","False","False",244,7500,NA
"A2IC4IMH7G9UKU","Fri Oct 30 2020 11:45:24 GMT-0500 (Central Daylight Time)","Fri Oct 30 2020 11:52:49 GMT-0500 (Central Daylight Time)","Mozilla/5.0 (Windows NT 6.1; Win64; x64) AppleWebKit/537.36 (KHTML, like Gecko) Chrome/86.0.4240.111 Safari/537.36",130,"[0.9, 0.5, 0.1]","[0.8, 0.4, 0.2]","[u'black', u'blue', u'red']","[u'left', u'middle', u'right']","[0.8, 0.4, 0.2]","[u'medium', u'high', u'low']","black",49,"left","medium","False","False",279,7450,NA
"A2IC4IMH7G9UKU","Fri Oct 30 2020 11:45:24 GMT-0500 (Central Daylight Time)","Fri Oct 30 2020 11:52:49 GMT-0500 (Central Daylight Time)","Mozilla/5.0 (Windows NT 6.1; Win64; x64) AppleWebKit/537.36 (KHTML, like Gecko) Chrome/86.0.4240.111 Safari/537.36",131,"[0.9, 0.5, 0.1]","[0.8, 0.4, 0.2]","[u'black', u'blue', u'red']","[u'left', u'middle', u'right']","[0.8, 0.4, 0.2]","[u'medium', u'high', u'low']","blue",50,"middle","high","True","False",255,7550,NA
"A2IC4IMH7G9UKU","Fri Oct 30 2020 11:45:24 GMT-0500 (Central Daylight Time)","Fri Oct 30 2020 11:52:49 GMT-0500 (Central Daylight Time)","Mozilla/5.0 (Windows NT 6.1; Win64; x64) AppleWebKit/537.36 (KHTML, like Gecko) Chrome/86.0.4240.111 Safari/537.36",132,"[0.9, 0.5, 0.1]","[0.8, 0.4, 0.2]","[u'black', u'blue', u'red']","[u'left', u'middle', u'right']","[0.8, 0.4, 0.2]","[u'medium', u'high', u'low']","blue",50,"middle","high","False","False",515,7500,NA
"A2IC4IMH7G9UKU","Fri Oct 30 2020 11:45:24 GMT-0500 (Central Daylight Time)","Fri Oct 30 2020 11:52:49 GMT-0500 (Central Daylight Time)","Mozilla/5.0 (Windows NT 6.1; Win64; x64) AppleWebKit/537.36 (KHTML, like Gecko) Chrome/86.0.4240.111 Safari/537.36",133,"[0.9, 0.5, 0.1]","[0.8, 0.4, 0.2]","[u'black', u'blue', u'red']","[u'left', u'middle', u'right']","[0.8, 0.4, 0.2]","[u'medium', u'high', u'low']","red",51,"right","low","False","False",331,7450,NA
"A2IC4IMH7G9UKU","Fri Oct 30 2020 11:45:24 GMT-0500 (Central Daylight Time)","Fri Oct 30 2020 11:52:49 GMT-0500 (Central Daylight Time)","Mozilla/5.0 (Windows NT 6.1; Win64; x64) AppleWebKit/537.36 (KHTML, like Gecko) Chrome/86.0.4240.111 Safari/537.36",134,"[0.9, 0.5, 0.1]","[0.8, 0.4, 0.2]","[u'black', u'blue', u'red']","[u'left', u'middle', u'right']","[0.8, 0.4, 0.2]","[u'medium', u'high', u'low']","black",49,"left","medium","True","False",475,7550,NA
"A2IC4IMH7G9UKU","Fri Oct 30 2020 11:45:24 GMT-0500 (Central Daylight Time)","Fri Oct 30 2020 11:52:49 GMT-0500 (Central Daylight Time)","Mozilla/5.0 (Windows NT 6.1; Win64; x64) AppleWebKit/537.36 (KHTML, like Gecko) Chrome/86.0.4240.111 Safari/537.36",135,"[0.9, 0.5, 0.1]","[0.8, 0.4, 0.2]","[u'black', u'blue', u'red']","[u'left', u'middle', u'right']","[0.8, 0.4, 0.2]","[u'medium', u'high', u'low']","black",49,"left","medium","False","False",763,7500,NA
"A2IC4IMH7G9UKU","Fri Oct 30 2020 11:45:24 GMT-0500 (Central Daylight Time)","Fri Oct 30 2020 11:52:49 GMT-0500 (Central Daylight Time)","Mozilla/5.0 (Windows NT 6.1; Win64; x64) AppleWebKit/537.36 (KHTML, like Gecko) Chrome/86.0.4240.111 Safari/537.36",136,"[0.9, 0.5, 0.1]","[0.8, 0.4, 0.2]","[u'black', u'blue', u'red']","[u'left', u'middle', u'right']","[0.8, 0.4, 0.2]","[u'medium', u'high', u'low']","blue",50,"middle","high","True","False",206,7600,NA
"A2IC4IMH7G9UKU","Fri Oct 30 2020 11:45:24 GMT-0500 (Central Daylight Time)","Fri Oct 30 2020 11:52:49 GMT-0500 (Central Daylight Time)","Mozilla/5.0 (Windows NT 6.1; Win64; x64) AppleWebKit/537.36 (KHTML, like Gecko) Chrome/86.0.4240.111 Safari/537.36",137,"[0.9, 0.5, 0.1]","[0.8, 0.4, 0.2]","[u'black', u'blue', u'red']","[u'left', u'middle', u'right']","[0.8, 0.4, 0.2]","[u'medium', u'high', u'low']","red",51,"right","low","False","False",1577,7550,NA
"A2IC4IMH7G9UKU","Fri Oct 30 2020 11:45:24 GMT-0500 (Central Daylight Time)","Fri Oct 30 2020 11:52:49 GMT-0500 (Central Daylight Time)","Mozilla/5.0 (Windows NT 6.1; Win64; x64) AppleWebKit/537.36 (KHTML, like Gecko) Chrome/86.0.4240.111 Safari/537.36",138,"[0.9, 0.5, 0.1]","[0.8, 0.4, 0.2]","[u'black', u'blue', u'red']","[u'left', u'middle', u'right']","[0.8, 0.4, 0.2]","[u'medium', u'high', u'low']","blue",50,"middle","high","True","False",202,7650,NA
"A2IC4IMH7G9UKU","Fri Oct 30 2020 11:45:24 GMT-0500 (Central Daylight Time)","Fri Oct 30 2020 11:52:49 GMT-0500 (Central Daylight Time)","Mozilla/5.0 (Windows NT 6.1; Win64; x64) AppleWebKit/537.36 (KHTML, like Gecko) Chrome/86.0.4240.111 Safari/537.36",139,"[0.9, 0.5, 0.1]","[0.8, 0.4, 0.2]","[u'black', u'blue', u'red']","[u'left', u'middle', u'right']","[0.8, 0.4, 0.2]","[u'medium', u'high', u'low']","blue",50,"middle","high","True","False",1348,7750,NA
"A2IC4IMH7G9UKU","Fri Oct 30 2020 11:45:24 GMT-0500 (Central Daylight Time)","Fri Oct 30 2020 11:52:49 GMT-0500 (Central Daylight Time)","Mozilla/5.0 (Windows NT 6.1; Win64; x64) AppleWebKit/537.36 (KHTML, like Gecko) Chrome/86.0.4240.111 Safari/537.36",140,"[0.9, 0.5, 0.1]","[0.8, 0.4, 0.2]","[u'black', u'blue', u'red']","[u'left', u'middle', u'right']","[0.8, 0.4, 0.2]","[u'medium', u'high', u'low']","blue",50,"middle","high","True","False",427,7850,NA
"A2IC4IMH7G9UKU","Fri Oct 30 2020 11:45:24 GMT-0500 (Central Daylight Time)","Fri Oct 30 2020 11:52:49 GMT-0500 (Central Daylight Time)","Mozilla/5.0 (Windows NT 6.1; Win64; x64) AppleWebKit/537.36 (KHTML, like Gecko) Chrome/86.0.4240.111 Safari/537.36",141,"[0.9, 0.5, 0.1]","[0.8, 0.4, 0.2]","[u'black', u'blue', u'red']","[u'left', u'middle', u'right']","[0.8, 0.4, 0.2]","[u'medium', u'high', u'low']","blue",50,"middle","high","True","False",350,7950,NA
"A2IC4IMH7G9UKU","Fri Oct 30 2020 11:45:24 GMT-0500 (Central Daylight Time)","Fri Oct 30 2020 11:52:49 GMT-0500 (Central Daylight Time)","Mozilla/5.0 (Windows NT 6.1; Win64; x64) AppleWebKit/537.36 (KHTML, like Gecko) Chrome/86.0.4240.111 Safari/537.36",142,"[0.9, 0.5, 0.1]","[0.8, 0.4, 0.2]","[u'black', u'blue', u'red']","[u'left', u'middle', u'right']","[0.8, 0.4, 0.2]","[u'medium', u'high', u'low']","blue",50,"middle","high","False","False",361,7900,NA
"A2IC4IMH7G9UKU","Fri Oct 30 2020 11:45:24 GMT-0500 (Central Daylight Time)","Fri Oct 30 2020 11:52:49 GMT-0500 (Central Daylight Time)","Mozilla/5.0 (Windows NT 6.1; Win64; x64) AppleWebKit/537.36 (KHTML, like Gecko) Chrome/86.0.4240.111 Safari/537.36",143,"[0.9, 0.5, 0.1]","[0.8, 0.4, 0.2]","[u'black', u'blue', u'red']","[u'left', u'middle', u'right']","[0.8, 0.4, 0.2]","[u'medium', u'high', u'low']","black",49,"left","medium","True","False",755,8000,NA
"A2IC4IMH7G9UKU","Fri Oct 30 2020 11:45:24 GMT-0500 (Central Daylight Time)","Fri Oct 30 2020 11:52:49 GMT-0500 (Central Daylight Time)","Mozilla/5.0 (Windows NT 6.1; Win64; x64) AppleWebKit/537.36 (KHTML, like Gecko) Chrome/86.0.4240.111 Safari/537.36",144,"[0.9, 0.5, 0.1]","[0.8, 0.4, 0.2]","[u'black', u'blue', u'red']","[u'left', u'middle', u'right']","[0.8, 0.4, 0.2]","[u'medium', u'high', u'low']","black",49,"left","medium","True","False",499,8100,NA
"A2IC4IMH7G9UKU","Fri Oct 30 2020 11:45:24 GMT-0500 (Central Daylight Time)","Fri Oct 30 2020 11:52:49 GMT-0500 (Central Daylight Time)","Mozilla/5.0 (Windows NT 6.1; Win64; x64) AppleWebKit/537.36 (KHTML, like Gecko) Chrome/86.0.4240.111 Safari/537.36",145,"[0.9, 0.5, 0.1]","[0.8, 0.4, 0.2]","[u'black', u'blue', u'red']","[u'left', u'middle', u'right']","[0.8, 0.4, 0.2]","[u'medium', u'high', u'low']","black",49,"left","medium","False","False",323,8050,NA
"A2IC4IMH7G9UKU","Fri Oct 30 2020 11:45:24 GMT-0500 (Central Daylight Time)","Fri Oct 30 2020 11:52:49 GMT-0500 (Central Daylight Time)","Mozilla/5.0 (Windows NT 6.1; Win64; x64) AppleWebKit/537.36 (KHTML, like Gecko) Chrome/86.0.4240.111 Safari/537.36",146,"[0.9, 0.5, 0.1]","[0.8, 0.4, 0.2]","[u'black', u'blue', u'red']","[u'left', u'middle', u'right']","[0.8, 0.4, 0.2]","[u'medium', u'high', u'low']","blue",50,"middle","high","True","False",451,8150,NA
"A2IC4IMH7G9UKU","Fri Oct 30 2020 11:45:24 GMT-0500 (Central Daylight Time)","Fri Oct 30 2020 11:52:49 GMT-0500 (Central Daylight Time)","Mozilla/5.0 (Windows NT 6.1; Win64; x64) AppleWebKit/537.36 (KHTML, like Gecko) Chrome/86.0.4240.111 Safari/537.36",147,"[0.9, 0.5, 0.1]","[0.8, 0.4, 0.2]","[u'black', u'blue', u'red']","[u'left', u'middle', u'right']","[0.8, 0.4, 0.2]","[u'medium', u'high', u'low']","red",51,"right","low","True","False",421,8250,NA
"A2IC4IMH7G9UKU","Fri Oct 30 2020 11:45:24 GMT-0500 (Central Daylight Time)","Fri Oct 30 2020 11:52:49 GMT-0500 (Central Daylight Time)","Mozilla/5.0 (Windows NT 6.1; Win64; x64) AppleWebKit/537.36 (KHTML, like Gecko) Chrome/86.0.4240.111 Safari/537.36",148,"[0.9, 0.5, 0.1]","[0.8, 0.4, 0.2]","[u'black', u'blue', u'red']","[u'left', u'middle', u'right']","[0.8, 0.4, 0.2]","[u'medium', u'high', u'low']","blue",50,"middle","high","True","False",265,8350,NA
"A2IC4IMH7G9UKU","Fri Oct 30 2020 11:45:24 GMT-0500 (Central Daylight Time)","Fri Oct 30 2020 11:52:49 GMT-0500 (Central Daylight Time)","Mozilla/5.0 (Windows NT 6.1; Win64; x64) AppleWebKit/537.36 (KHTML, like Gecko) Chrome/86.0.4240.111 Safari/537.36",149,"[0.9, 0.5, 0.1]","[0.8, 0.4, 0.2]","[u'black', u'blue', u'red']","[u'left', u'middle', u'right']","[0.8, 0.4, 0.2]","[u'medium', u'high', u'low']","blue",50,"middle","high","True","False",250,8450,NA
"A2IC4IMH7G9UKU","Fri Oct 30 2020 11:45:24 GMT-0500 (Central Daylight Time)","Fri Oct 30 2020 11:52:49 GMT-0500 (Central Daylight Time)","Mozilla/5.0 (Windows NT 6.1; Win64; x64) AppleWebKit/537.36 (KHTML, like Gecko) Chrome/86.0.4240.111 Safari/537.36",150,"[0.9, 0.5, 0.1]","[0.8, 0.4, 0.2]","[u'black', u'blue', u'red']","[u'left', u'middle', u'right']","[0.8, 0.4, 0.2]","[u'medium', u'high', u'low']","blue",50,"middle","high","True","False",347,8550,NA
"A2IC4IMH7G9UKU","Fri Oct 30 2020 11:45:24 GMT-0500 (Central Daylight Time)","Fri Oct 30 2020 11:52:49 GMT-0500 (Central Daylight Time)","Mozilla/5.0 (Windows NT 6.1; Win64; x64) AppleWebKit/537.36 (KHTML, like Gecko) Chrome/86.0.4240.111 Safari/537.36",151,"[0.9, 0.5, 0.1]","[0.8, 0.4, 0.2]","[u'black', u'blue', u'red']","[u'left', u'middle', u'right']","[0.8, 0.4, 0.2]","[u'medium', u'high', u'low']","blue",50,"middle","high","True","False",451,8650,NA
"A2IC4IMH7G9UKU","Fri Oct 30 2020 11:45:24 GMT-0500 (Central Daylight Time)","Fri Oct 30 2020 11:52:49 GMT-0500 (Central Daylight Time)","Mozilla/5.0 (Windows NT 6.1; Win64; x64) AppleWebKit/537.36 (KHTML, like Gecko) Chrome/86.0.4240.111 Safari/537.36",152,"[0.9, 0.5, 0.1]","[0.8, 0.4, 0.2]","[u'black', u'blue', u'red']","[u'left', u'middle', u'right']","[0.8, 0.4, 0.2]","[u'medium', u'high', u'low']","red",51,"right","low","False","False",387,8600,NA
"A2IC4IMH7G9UKU","Fri Oct 30 2020 11:45:24 GMT-0500 (Central Daylight Time)","Fri Oct 30 2020 11:52:49 GMT-0500 (Central Daylight Time)","Mozilla/5.0 (Windows NT 6.1; Win64; x64) AppleWebKit/537.36 (KHTML, like Gecko) Chrome/86.0.4240.111 Safari/537.36",153,"[0.9, 0.5, 0.1]","[0.8, 0.4, 0.2]","[u'black', u'blue', u'red']","[u'left', u'middle', u'right']","[0.8, 0.4, 0.2]","[u'medium', u'high', u'low']","blue",50,"middle","high","False","False",349,8550,NA
"A2IC4IMH7G9UKU","Fri Oct 30 2020 11:45:24 GMT-0500 (Central Daylight Time)","Fri Oct 30 2020 11:52:49 GMT-0500 (Central Daylight Time)","Mozilla/5.0 (Windows NT 6.1; Win64; x64) AppleWebKit/537.36 (KHTML, like Gecko) Chrome/86.0.4240.111 Safari/537.36",154,"[0.9, 0.5, 0.1]","[0.8, 0.4, 0.2]","[u'black', u'blue', u'red']","[u'left', u'middle', u'right']","[0.8, 0.4, 0.2]","[u'medium', u'high', u'low']","blue",50,"middle","high","True","False",154,8650,NA
"A2IC4IMH7G9UKU","Fri Oct 30 2020 11:45:24 GMT-0500 (Central Daylight Time)","Fri Oct 30 2020 11:52:49 GMT-0500 (Central Daylight Time)","Mozilla/5.0 (Windows NT 6.1; Win64; x64) AppleWebKit/537.36 (KHTML, like Gecko) Chrome/86.0.4240.111 Safari/537.36",155,"[0.9, 0.5, 0.1]","[0.8, 0.4, 0.2]","[u'black', u'blue', u'red']","[u'left', u'middle', u'right']","[0.8, 0.4, 0.2]","[u'medium', u'high', u'low']","blue",50,"middle","high","True","False",298,8750,NA
"A2IC4IMH7G9UKU","Fri Oct 30 2020 11:45:24 GMT-0500 (Central Daylight Time)","Fri Oct 30 2020 11:52:49 GMT-0500 (Central Daylight Time)","Mozilla/5.0 (Windows NT 6.1; Win64; x64) AppleWebKit/537.36 (KHTML, like Gecko) Chrome/86.0.4240.111 Safari/537.36",156,"[0.9, 0.5, 0.1]","[0.8, 0.4, 0.2]","[u'black', u'blue', u'red']","[u'left', u'middle', u'right']","[0.8, 0.4, 0.2]","[u'medium', u'high', u'low']","blue",50,"middle","high","False","False",515,8700,NA
"A2IC4IMH7G9UKU","Fri Oct 30 2020 11:45:24 GMT-0500 (Central Daylight Time)","Fri Oct 30 2020 11:52:49 GMT-0500 (Central Daylight Time)","Mozilla/5.0 (Windows NT 6.1; Win64; x64) AppleWebKit/537.36 (KHTML, like Gecko) Chrome/86.0.4240.111 Safari/537.36",157,"[0.9, 0.5, 0.1]","[0.8, 0.4, 0.2]","[u'black', u'blue', u'red']","[u'left', u'middle', u'right']","[0.8, 0.4, 0.2]","[u'medium', u'high', u'low']","black",49,"left","medium","False","False",315,8650,NA
"A2IC4IMH7G9UKU","Fri Oct 30 2020 11:45:24 GMT-0500 (Central Daylight Time)","Fri Oct 30 2020 11:52:49 GMT-0500 (Central Daylight Time)","Mozilla/5.0 (Windows NT 6.1; Win64; x64) AppleWebKit/537.36 (KHTML, like Gecko) Chrome/86.0.4240.111 Safari/537.36",158,"[0.9, 0.5, 0.1]","[0.8, 0.4, 0.2]","[u'black', u'blue', u'red']","[u'left', u'middle', u'right']","[0.8, 0.4, 0.2]","[u'medium', u'high', u'low']","black",49,"left","medium","True","False",266,8750,NA
"A2IC4IMH7G9UKU","Fri Oct 30 2020 11:45:24 GMT-0500 (Central Daylight Time)","Fri Oct 30 2020 11:52:49 GMT-0500 (Central Daylight Time)","Mozilla/5.0 (Windows NT 6.1; Win64; x64) AppleWebKit/537.36 (KHTML, like Gecko) Chrome/86.0.4240.111 Safari/537.36",159,"[0.9, 0.5, 0.1]","[0.8, 0.4, 0.2]","[u'black', u'blue', u'red']","[u'left', u'middle', u'right']","[0.8, 0.4, 0.2]","[u'medium', u'high', u'low']","black",49,"left","medium","False","False",294,8700,NA
"A2IC4IMH7G9UKU","Fri Oct 30 2020 11:45:24 GMT-0500 (Central Daylight Time)","Fri Oct 30 2020 11:52:49 GMT-0500 (Central Daylight Time)","Mozilla/5.0 (Windows NT 6.1; Win64; x64) AppleWebKit/537.36 (KHTML, like Gecko) Chrome/86.0.4240.111 Safari/537.36",160,"[0.9, 0.5, 0.1]","[0.8, 0.4, 0.2]","[u'black', u'blue', u'red']","[u'left', u'middle', u'right']","[0.8, 0.4, 0.2]","[u'medium', u'high', u'low']","red",51,"right","low","False","False",136,8650,NA
