"src_subject_id","start_time","end_time","browser","index","first_half_probabilities","second_half_probabilities","deck_color","deck_position","deck_probabilities","deck_contingencies","response_color","key_press","response_position","response_probability","reward_type","trial_type","rt","reward_tally","exclusion_reason"
"A5OT4KL6H0A9L","Sat Oct 31 2020 11:08:43 GMT-0400 (Eastern Daylight Time)","Sat Oct 31 2020 11:20:12 GMT-0400 (Eastern Daylight Time)","Mozilla/5.0 (Windows NT 6.3; Win64; x64) AppleWebKit/537.36 (KHTML, like Gecko) Chrome/85.0.4183.102 Safari/537.36",1,"[0.9, 0.5, 0.1]","[0.8, 0.4, 0.2]","[u'blue', u'red', u'black']","[u'left', u'middle', u'right']","[0.9, 0.5, 0.1]","[u'medium', u'low', u'high']","black",51,"right","high","True","False",1171,100,NA
"A5OT4KL6H0A9L","Sat Oct 31 2020 11:08:43 GMT-0400 (Eastern Daylight Time)","Sat Oct 31 2020 11:20:12 GMT-0400 (Eastern Daylight Time)","Mozilla/5.0 (Windows NT 6.3; Win64; x64) AppleWebKit/537.36 (KHTML, like Gecko) Chrome/85.0.4183.102 Safari/537.36",2,"[0.9, 0.5, 0.1]","[0.8, 0.4, 0.2]","[u'blue', u'red', u'black']","[u'left', u'middle', u'right']","[0.9, 0.5, 0.1]","[u'medium', u'low', u'high']","black",51,"right","high","True","False",715,200,NA
"A5OT4KL6H0A9L","Sat Oct 31 2020 11:08:43 GMT-0400 (Eastern Daylight Time)","Sat Oct 31 2020 11:20:12 GMT-0400 (Eastern Daylight Time)","Mozilla/5.0 (Windows NT 6.3; Win64; x64) AppleWebKit/537.36 (KHTML, like Gecko) Chrome/85.0.4183.102 Safari/537.36",3,"[0.9, 0.5, 0.1]","[0.8, 0.4, 0.2]","[u'blue', u'red', u'black']","[u'left', u'middle', u'right']","[0.9, 0.5, 0.1]","[u'medium', u'low', u'high']","black",51,"right","high","True","False",739,300,NA
"A5OT4KL6H0A9L","Sat Oct 31 2020 11:08:43 GMT-0400 (Eastern Daylight Time)","Sat Oct 31 2020 11:20:12 GMT-0400 (Eastern Daylight Time)","Mozilla/5.0 (Windows NT 6.3; Win64; x64) AppleWebKit/537.36 (KHTML, like Gecko) Chrome/85.0.4183.102 Safari/537.36",4,"[0.9, 0.5, 0.1]","[0.8, 0.4, 0.2]","[u'blue', u'red', u'black']","[u'left', u'middle', u'right']","[0.9, 0.5, 0.1]","[u'medium', u'low', u'high']","black",51,"right","high","True","False",801,400,NA
"A5OT4KL6H0A9L","Sat Oct 31 2020 11:08:43 GMT-0400 (Eastern Daylight Time)","Sat Oct 31 2020 11:20:12 GMT-0400 (Eastern Daylight Time)","Mozilla/5.0 (Windows NT 6.3; Win64; x64) AppleWebKit/537.36 (KHTML, like Gecko) Chrome/85.0.4183.102 Safari/537.36",5,"[0.9, 0.5, 0.1]","[0.8, 0.4, 0.2]","[u'blue', u'red', u'black']","[u'left', u'middle', u'right']","[0.9, 0.5, 0.1]","[u'medium', u'low', u'high']","black",51,"right","high","True","False",436,500,NA
"A5OT4KL6H0A9L","Sat Oct 31 2020 11:08:43 GMT-0400 (Eastern Daylight Time)","Sat Oct 31 2020 11:20:12 GMT-0400 (Eastern Daylight Time)","Mozilla/5.0 (Windows NT 6.3; Win64; x64) AppleWebKit/537.36 (KHTML, like Gecko) Chrome/85.0.4183.102 Safari/537.36",6,"[0.9, 0.5, 0.1]","[0.8, 0.4, 0.2]","[u'blue', u'red', u'black']","[u'left', u'middle', u'right']","[0.9, 0.5, 0.1]","[u'medium', u'low', u'high']","black",51,"right","high","True","False",520,600,NA
"A5OT4KL6H0A9L","Sat Oct 31 2020 11:08:43 GMT-0400 (Eastern Daylight Time)","Sat Oct 31 2020 11:20:12 GMT-0400 (Eastern Daylight Time)","Mozilla/5.0 (Windows NT 6.3; Win64; x64) AppleWebKit/537.36 (KHTML, like Gecko) Chrome/85.0.4183.102 Safari/537.36",7,"[0.9, 0.5, 0.1]","[0.8, 0.4, 0.2]","[u'blue', u'red', u'black']","[u'left', u'middle', u'right']","[0.9, 0.5, 0.1]","[u'medium', u'low', u'high']","black",51,"right","high","True","False",303,700,NA
"A5OT4KL6H0A9L","Sat Oct 31 2020 11:08:43 GMT-0400 (Eastern Daylight Time)","Sat Oct 31 2020 11:20:12 GMT-0400 (Eastern Daylight Time)","Mozilla/5.0 (Windows NT 6.3; Win64; x64) AppleWebKit/537.36 (KHTML, like Gecko) Chrome/85.0.4183.102 Safari/537.36",8,"[0.9, 0.5, 0.1]","[0.8, 0.4, 0.2]","[u'blue', u'red', u'black']","[u'left', u'middle', u'right']","[0.9, 0.5, 0.1]","[u'medium', u'low', u'high']","black",51,"right","high","True","False",178,800,NA
"A5OT4KL6H0A9L","Sat Oct 31 2020 11:08:43 GMT-0400 (Eastern Daylight Time)","Sat Oct 31 2020 11:20:12 GMT-0400 (Eastern Daylight Time)","Mozilla/5.0 (Windows NT 6.3; Win64; x64) AppleWebKit/537.36 (KHTML, like Gecko) Chrome/85.0.4183.102 Safari/537.36",9,"[0.9, 0.5, 0.1]","[0.8, 0.4, 0.2]","[u'blue', u'red', u'black']","[u'left', u'middle', u'right']","[0.9, 0.5, 0.1]","[u'medium', u'low', u'high']","black",51,"right","high","False","True",454,750,NA
"A5OT4KL6H0A9L","Sat Oct 31 2020 11:08:43 GMT-0400 (Eastern Daylight Time)","Sat Oct 31 2020 11:20:12 GMT-0400 (Eastern Daylight Time)","Mozilla/5.0 (Windows NT 6.3; Win64; x64) AppleWebKit/537.36 (KHTML, like Gecko) Chrome/85.0.4183.102 Safari/537.36",10,"[0.9, 0.5, 0.1]","[0.8, 0.4, 0.2]","[u'blue', u'red', u'black']","[u'left', u'middle', u'right']","[0.9, 0.5, 0.1]","[u'medium', u'high', u'low']","red",50,"middle","high","True","False",623,850,NA
"A5OT4KL6H0A9L","Sat Oct 31 2020 11:08:43 GMT-0400 (Eastern Daylight Time)","Sat Oct 31 2020 11:20:12 GMT-0400 (Eastern Daylight Time)","Mozilla/5.0 (Windows NT 6.3; Win64; x64) AppleWebKit/537.36 (KHTML, like Gecko) Chrome/85.0.4183.102 Safari/537.36",11,"[0.9, 0.5, 0.1]","[0.8, 0.4, 0.2]","[u'blue', u'red', u'black']","[u'left', u'middle', u'right']","[0.9, 0.5, 0.1]","[u'medium', u'high', u'low']","red",50,"middle","high","True","False",696,950,NA
"A5OT4KL6H0A9L","Sat Oct 31 2020 11:08:43 GMT-0400 (Eastern Daylight Time)","Sat Oct 31 2020 11:20:12 GMT-0400 (Eastern Daylight Time)","Mozilla/5.0 (Windows NT 6.3; Win64; x64) AppleWebKit/537.36 (KHTML, like Gecko) Chrome/85.0.4183.102 Safari/537.36",12,"[0.9, 0.5, 0.1]","[0.8, 0.4, 0.2]","[u'blue', u'red', u'black']","[u'left', u'middle', u'right']","[0.9, 0.5, 0.1]","[u'medium', u'high', u'low']","red",50,"middle","high","True","False",559,1050,NA
"A5OT4KL6H0A9L","Sat Oct 31 2020 11:08:43 GMT-0400 (Eastern Daylight Time)","Sat Oct 31 2020 11:20:12 GMT-0400 (Eastern Daylight Time)","Mozilla/5.0 (Windows NT 6.3; Win64; x64) AppleWebKit/537.36 (KHTML, like Gecko) Chrome/85.0.4183.102 Safari/537.36",13,"[0.9, 0.5, 0.1]","[0.8, 0.4, 0.2]","[u'blue', u'red', u'black']","[u'left', u'middle', u'right']","[0.9, 0.5, 0.1]","[u'medium', u'high', u'low']","red",50,"middle","high","True","False",817,1150,NA
"A5OT4KL6H0A9L","Sat Oct 31 2020 11:08:43 GMT-0400 (Eastern Daylight Time)","Sat Oct 31 2020 11:20:12 GMT-0400 (Eastern Daylight Time)","Mozilla/5.0 (Windows NT 6.3; Win64; x64) AppleWebKit/537.36 (KHTML, like Gecko) Chrome/85.0.4183.102 Safari/537.36",14,"[0.9, 0.5, 0.1]","[0.8, 0.4, 0.2]","[u'blue', u'red', u'black']","[u'left', u'middle', u'right']","[0.9, 0.5, 0.1]","[u'medium', u'high', u'low']","blue",49,"left","medium","False","False",260,1100,NA
"A5OT4KL6H0A9L","Sat Oct 31 2020 11:08:43 GMT-0400 (Eastern Daylight Time)","Sat Oct 31 2020 11:20:12 GMT-0400 (Eastern Daylight Time)","Mozilla/5.0 (Windows NT 6.3; Win64; x64) AppleWebKit/537.36 (KHTML, like Gecko) Chrome/85.0.4183.102 Safari/537.36",15,"[0.9, 0.5, 0.1]","[0.8, 0.4, 0.2]","[u'blue', u'red', u'black']","[u'left', u'middle', u'right']","[0.9, 0.5, 0.1]","[u'medium', u'high', u'low']","red",50,"middle","high","True","False",145,1200,NA
"A5OT4KL6H0A9L","Sat Oct 31 2020 11:08:43 GMT-0400 (Eastern Daylight Time)","Sat Oct 31 2020 11:20:12 GMT-0400 (Eastern Daylight Time)","Mozilla/5.0 (Windows NT 6.3; Win64; x64) AppleWebKit/537.36 (KHTML, like Gecko) Chrome/85.0.4183.102 Safari/537.36",16,"[0.9, 0.5, 0.1]","[0.8, 0.4, 0.2]","[u'blue', u'red', u'black']","[u'left', u'middle', u'right']","[0.9, 0.5, 0.1]","[u'medium', u'high', u'low']","red",50,"middle","high","True","False",769,1300,NA
"A5OT4KL6H0A9L","Sat Oct 31 2020 11:08:43 GMT-0400 (Eastern Daylight Time)","Sat Oct 31 2020 11:20:12 GMT-0400 (Eastern Daylight Time)","Mozilla/5.0 (Windows NT 6.3; Win64; x64) AppleWebKit/537.36 (KHTML, like Gecko) Chrome/85.0.4183.102 Safari/537.36",17,"[0.9, 0.5, 0.1]","[0.8, 0.4, 0.2]","[u'blue', u'red', u'black']","[u'left', u'middle', u'right']","[0.9, 0.5, 0.1]","[u'medium', u'high', u'low']","red",50,"middle","high","True","False",721,1400,NA
"A5OT4KL6H0A9L","Sat Oct 31 2020 11:08:43 GMT-0400 (Eastern Daylight Time)","Sat Oct 31 2020 11:20:12 GMT-0400 (Eastern Daylight Time)","Mozilla/5.0 (Windows NT 6.3; Win64; x64) AppleWebKit/537.36 (KHTML, like Gecko) Chrome/85.0.4183.102 Safari/537.36",18,"[0.9, 0.5, 0.1]","[0.8, 0.4, 0.2]","[u'blue', u'red', u'black']","[u'left', u'middle', u'right']","[0.9, 0.5, 0.1]","[u'medium', u'high', u'low']","red",50,"middle","high","True","False",277,1500,NA
"A5OT4KL6H0A9L","Sat Oct 31 2020 11:08:43 GMT-0400 (Eastern Daylight Time)","Sat Oct 31 2020 11:20:12 GMT-0400 (Eastern Daylight Time)","Mozilla/5.0 (Windows NT 6.3; Win64; x64) AppleWebKit/537.36 (KHTML, like Gecko) Chrome/85.0.4183.102 Safari/537.36",19,"[0.9, 0.5, 0.1]","[0.8, 0.4, 0.2]","[u'blue', u'red', u'black']","[u'left', u'middle', u'right']","[0.9, 0.5, 0.1]","[u'medium', u'high', u'low']","red",50,"middle","high","True","True",820,1600,NA
"A5OT4KL6H0A9L","Sat Oct 31 2020 11:08:43 GMT-0400 (Eastern Daylight Time)","Sat Oct 31 2020 11:20:12 GMT-0400 (Eastern Daylight Time)","Mozilla/5.0 (Windows NT 6.3; Win64; x64) AppleWebKit/537.36 (KHTML, like Gecko) Chrome/85.0.4183.102 Safari/537.36",20,"[0.9, 0.5, 0.1]","[0.8, 0.4, 0.2]","[u'blue', u'red', u'black']","[u'left', u'middle', u'right']","[0.9, 0.5, 0.1]","[u'low', u'medium', u'high']","red",50,"middle","medium","True","False",717,1700,NA
"A5OT4KL6H0A9L","Sat Oct 31 2020 11:08:43 GMT-0400 (Eastern Daylight Time)","Sat Oct 31 2020 11:20:12 GMT-0400 (Eastern Daylight Time)","Mozilla/5.0 (Windows NT 6.3; Win64; x64) AppleWebKit/537.36 (KHTML, like Gecko) Chrome/85.0.4183.102 Safari/537.36",21,"[0.9, 0.5, 0.1]","[0.8, 0.4, 0.2]","[u'blue', u'red', u'black']","[u'left', u'middle', u'right']","[0.9, 0.5, 0.1]","[u'low', u'medium', u'high']","red",50,"middle","medium","True","False",11737,1800,NA
"A5OT4KL6H0A9L","Sat Oct 31 2020 11:08:43 GMT-0400 (Eastern Daylight Time)","Sat Oct 31 2020 11:20:12 GMT-0400 (Eastern Daylight Time)","Mozilla/5.0 (Windows NT 6.3; Win64; x64) AppleWebKit/537.36 (KHTML, like Gecko) Chrome/85.0.4183.102 Safari/537.36",22,"[0.9, 0.5, 0.1]","[0.8, 0.4, 0.2]","[u'blue', u'red', u'black']","[u'left', u'middle', u'right']","[0.9, 0.5, 0.1]","[u'low', u'medium', u'high']","red",50,"middle","medium","False","False",655,1750,NA
"A5OT4KL6H0A9L","Sat Oct 31 2020 11:08:43 GMT-0400 (Eastern Daylight Time)","Sat Oct 31 2020 11:20:12 GMT-0400 (Eastern Daylight Time)","Mozilla/5.0 (Windows NT 6.3; Win64; x64) AppleWebKit/537.36 (KHTML, like Gecko) Chrome/85.0.4183.102 Safari/537.36",23,"[0.9, 0.5, 0.1]","[0.8, 0.4, 0.2]","[u'blue', u'red', u'black']","[u'left', u'middle', u'right']","[0.9, 0.5, 0.1]","[u'low', u'medium', u'high']","blue",49,"left","low","False","False",323,1700,NA
"A5OT4KL6H0A9L","Sat Oct 31 2020 11:08:43 GMT-0400 (Eastern Daylight Time)","Sat Oct 31 2020 11:20:12 GMT-0400 (Eastern Daylight Time)","Mozilla/5.0 (Windows NT 6.3; Win64; x64) AppleWebKit/537.36 (KHTML, like Gecko) Chrome/85.0.4183.102 Safari/537.36",24,"[0.9, 0.5, 0.1]","[0.8, 0.4, 0.2]","[u'blue', u'red', u'black']","[u'left', u'middle', u'right']","[0.9, 0.5, 0.1]","[u'low', u'medium', u'high']","black",51,"right","high","True","False",182,1800,NA
"A5OT4KL6H0A9L","Sat Oct 31 2020 11:08:43 GMT-0400 (Eastern Daylight Time)","Sat Oct 31 2020 11:20:12 GMT-0400 (Eastern Daylight Time)","Mozilla/5.0 (Windows NT 6.3; Win64; x64) AppleWebKit/537.36 (KHTML, like Gecko) Chrome/85.0.4183.102 Safari/537.36",25,"[0.9, 0.5, 0.1]","[0.8, 0.4, 0.2]","[u'blue', u'red', u'black']","[u'left', u'middle', u'right']","[0.9, 0.5, 0.1]","[u'low', u'medium', u'high']","black",51,"right","high","True","False",156,1900,NA
"A5OT4KL6H0A9L","Sat Oct 31 2020 11:08:43 GMT-0400 (Eastern Daylight Time)","Sat Oct 31 2020 11:20:12 GMT-0400 (Eastern Daylight Time)","Mozilla/5.0 (Windows NT 6.3; Win64; x64) AppleWebKit/537.36 (KHTML, like Gecko) Chrome/85.0.4183.102 Safari/537.36",26,"[0.9, 0.5, 0.1]","[0.8, 0.4, 0.2]","[u'blue', u'red', u'black']","[u'left', u'middle', u'right']","[0.9, 0.5, 0.1]","[u'low', u'medium', u'high']","black",51,"right","high","True","False",476,2000,NA
"A5OT4KL6H0A9L","Sat Oct 31 2020 11:08:43 GMT-0400 (Eastern Daylight Time)","Sat Oct 31 2020 11:20:12 GMT-0400 (Eastern Daylight Time)","Mozilla/5.0 (Windows NT 6.3; Win64; x64) AppleWebKit/537.36 (KHTML, like Gecko) Chrome/85.0.4183.102 Safari/537.36",27,"[0.9, 0.5, 0.1]","[0.8, 0.4, 0.2]","[u'blue', u'red', u'black']","[u'left', u'middle', u'right']","[0.9, 0.5, 0.1]","[u'low', u'medium', u'high']","black",51,"right","high","True","False",799,2100,NA
"A5OT4KL6H0A9L","Sat Oct 31 2020 11:08:43 GMT-0400 (Eastern Daylight Time)","Sat Oct 31 2020 11:20:12 GMT-0400 (Eastern Daylight Time)","Mozilla/5.0 (Windows NT 6.3; Win64; x64) AppleWebKit/537.36 (KHTML, like Gecko) Chrome/85.0.4183.102 Safari/537.36",28,"[0.9, 0.5, 0.1]","[0.8, 0.4, 0.2]","[u'blue', u'red', u'black']","[u'left', u'middle', u'right']","[0.9, 0.5, 0.1]","[u'low', u'medium', u'high']","black",51,"right","high","True","False",718,2200,NA
"A5OT4KL6H0A9L","Sat Oct 31 2020 11:08:43 GMT-0400 (Eastern Daylight Time)","Sat Oct 31 2020 11:20:12 GMT-0400 (Eastern Daylight Time)","Mozilla/5.0 (Windows NT 6.3; Win64; x64) AppleWebKit/537.36 (KHTML, like Gecko) Chrome/85.0.4183.102 Safari/537.36",29,"[0.9, 0.5, 0.1]","[0.8, 0.4, 0.2]","[u'blue', u'red', u'black']","[u'left', u'middle', u'right']","[0.9, 0.5, 0.1]","[u'low', u'medium', u'high']","black",51,"right","high","True","False",642,2300,NA
"A5OT4KL6H0A9L","Sat Oct 31 2020 11:08:43 GMT-0400 (Eastern Daylight Time)","Sat Oct 31 2020 11:20:12 GMT-0400 (Eastern Daylight Time)","Mozilla/5.0 (Windows NT 6.3; Win64; x64) AppleWebKit/537.36 (KHTML, like Gecko) Chrome/85.0.4183.102 Safari/537.36",30,"[0.9, 0.5, 0.1]","[0.8, 0.4, 0.2]","[u'blue', u'red', u'black']","[u'left', u'middle', u'right']","[0.9, 0.5, 0.1]","[u'low', u'medium', u'high']","black",51,"right","high","True","False",589,2400,NA
"A5OT4KL6H0A9L","Sat Oct 31 2020 11:08:43 GMT-0400 (Eastern Daylight Time)","Sat Oct 31 2020 11:20:12 GMT-0400 (Eastern Daylight Time)","Mozilla/5.0 (Windows NT 6.3; Win64; x64) AppleWebKit/537.36 (KHTML, like Gecko) Chrome/85.0.4183.102 Safari/537.36",31,"[0.9, 0.5, 0.1]","[0.8, 0.4, 0.2]","[u'blue', u'red', u'black']","[u'left', u'middle', u'right']","[0.9, 0.5, 0.1]","[u'low', u'medium', u'high']","black",51,"right","high","True","False",605,2500,NA
"A5OT4KL6H0A9L","Sat Oct 31 2020 11:08:43 GMT-0400 (Eastern Daylight Time)","Sat Oct 31 2020 11:20:12 GMT-0400 (Eastern Daylight Time)","Mozilla/5.0 (Windows NT 6.3; Win64; x64) AppleWebKit/537.36 (KHTML, like Gecko) Chrome/85.0.4183.102 Safari/537.36",32,"[0.9, 0.5, 0.1]","[0.8, 0.4, 0.2]","[u'blue', u'red', u'black']","[u'left', u'middle', u'right']","[0.9, 0.5, 0.1]","[u'low', u'medium', u'high']","black",51,"right","high","True","True",782,2600,NA
"A5OT4KL6H0A9L","Sat Oct 31 2020 11:08:43 GMT-0400 (Eastern Daylight Time)","Sat Oct 31 2020 11:20:12 GMT-0400 (Eastern Daylight Time)","Mozilla/5.0 (Windows NT 6.3; Win64; x64) AppleWebKit/537.36 (KHTML, like Gecko) Chrome/85.0.4183.102 Safari/537.36",33,"[0.9, 0.5, 0.1]","[0.8, 0.4, 0.2]","[u'blue', u'red', u'black']","[u'left', u'middle', u'right']","[0.9, 0.5, 0.1]","[u'high', u'medium', u'low']","black",51,"right","low","True","False",1056,2700,NA
"A5OT4KL6H0A9L","Sat Oct 31 2020 11:08:43 GMT-0400 (Eastern Daylight Time)","Sat Oct 31 2020 11:20:12 GMT-0400 (Eastern Daylight Time)","Mozilla/5.0 (Windows NT 6.3; Win64; x64) AppleWebKit/537.36 (KHTML, like Gecko) Chrome/85.0.4183.102 Safari/537.36",34,"[0.9, 0.5, 0.1]","[0.8, 0.4, 0.2]","[u'blue', u'red', u'black']","[u'left', u'middle', u'right']","[0.9, 0.5, 0.1]","[u'high', u'medium', u'low']","black",51,"right","low","False","False",1359,2650,NA
"A5OT4KL6H0A9L","Sat Oct 31 2020 11:08:43 GMT-0400 (Eastern Daylight Time)","Sat Oct 31 2020 11:20:12 GMT-0400 (Eastern Daylight Time)","Mozilla/5.0 (Windows NT 6.3; Win64; x64) AppleWebKit/537.36 (KHTML, like Gecko) Chrome/85.0.4183.102 Safari/537.36",35,"[0.9, 0.5, 0.1]","[0.8, 0.4, 0.2]","[u'blue', u'red', u'black']","[u'left', u'middle', u'right']","[0.9, 0.5, 0.1]","[u'high', u'medium', u'low']","red",50,"middle","medium","False","False",124,2600,NA
"A5OT4KL6H0A9L","Sat Oct 31 2020 11:08:43 GMT-0400 (Eastern Daylight Time)","Sat Oct 31 2020 11:20:12 GMT-0400 (Eastern Daylight Time)","Mozilla/5.0 (Windows NT 6.3; Win64; x64) AppleWebKit/537.36 (KHTML, like Gecko) Chrome/85.0.4183.102 Safari/537.36",36,"[0.9, 0.5, 0.1]","[0.8, 0.4, 0.2]","[u'blue', u'red', u'black']","[u'left', u'middle', u'right']","[0.9, 0.5, 0.1]","[u'high', u'medium', u'low']","blue",49,"left","high","True","False",598,2700,NA
"A5OT4KL6H0A9L","Sat Oct 31 2020 11:08:43 GMT-0400 (Eastern Daylight Time)","Sat Oct 31 2020 11:20:12 GMT-0400 (Eastern Daylight Time)","Mozilla/5.0 (Windows NT 6.3; Win64; x64) AppleWebKit/537.36 (KHTML, like Gecko) Chrome/85.0.4183.102 Safari/537.36",37,"[0.9, 0.5, 0.1]","[0.8, 0.4, 0.2]","[u'blue', u'red', u'black']","[u'left', u'middle', u'right']","[0.9, 0.5, 0.1]","[u'high', u'medium', u'low']","blue",49,"left","high","True","False",531,2800,NA
"A5OT4KL6H0A9L","Sat Oct 31 2020 11:08:43 GMT-0400 (Eastern Daylight Time)","Sat Oct 31 2020 11:20:12 GMT-0400 (Eastern Daylight Time)","Mozilla/5.0 (Windows NT 6.3; Win64; x64) AppleWebKit/537.36 (KHTML, like Gecko) Chrome/85.0.4183.102 Safari/537.36",38,"[0.9, 0.5, 0.1]","[0.8, 0.4, 0.2]","[u'blue', u'red', u'black']","[u'left', u'middle', u'right']","[0.9, 0.5, 0.1]","[u'high', u'medium', u'low']","blue",49,"left","high","True","False",1039,2900,NA
"A5OT4KL6H0A9L","Sat Oct 31 2020 11:08:43 GMT-0400 (Eastern Daylight Time)","Sat Oct 31 2020 11:20:12 GMT-0400 (Eastern Daylight Time)","Mozilla/5.0 (Windows NT 6.3; Win64; x64) AppleWebKit/537.36 (KHTML, like Gecko) Chrome/85.0.4183.102 Safari/537.36",39,"[0.9, 0.5, 0.1]","[0.8, 0.4, 0.2]","[u'blue', u'red', u'black']","[u'left', u'middle', u'right']","[0.9, 0.5, 0.1]","[u'high', u'medium', u'low']","blue",49,"left","high","True","False",1135,3000,NA
"A5OT4KL6H0A9L","Sat Oct 31 2020 11:08:43 GMT-0400 (Eastern Daylight Time)","Sat Oct 31 2020 11:20:12 GMT-0400 (Eastern Daylight Time)","Mozilla/5.0 (Windows NT 6.3; Win64; x64) AppleWebKit/537.36 (KHTML, like Gecko) Chrome/85.0.4183.102 Safari/537.36",40,"[0.9, 0.5, 0.1]","[0.8, 0.4, 0.2]","[u'blue', u'red', u'black']","[u'left', u'middle', u'right']","[0.9, 0.5, 0.1]","[u'high', u'medium', u'low']","blue",49,"left","high","True","False",622,3100,NA
"A5OT4KL6H0A9L","Sat Oct 31 2020 11:08:43 GMT-0400 (Eastern Daylight Time)","Sat Oct 31 2020 11:20:12 GMT-0400 (Eastern Daylight Time)","Mozilla/5.0 (Windows NT 6.3; Win64; x64) AppleWebKit/537.36 (KHTML, like Gecko) Chrome/85.0.4183.102 Safari/537.36",41,"[0.9, 0.5, 0.1]","[0.8, 0.4, 0.2]","[u'blue', u'red', u'black']","[u'left', u'middle', u'right']","[0.9, 0.5, 0.1]","[u'medium', u'low', u'high']","blue",49,"left","medium","False","False",980,3050,NA
"A5OT4KL6H0A9L","Sat Oct 31 2020 11:08:43 GMT-0400 (Eastern Daylight Time)","Sat Oct 31 2020 11:20:12 GMT-0400 (Eastern Daylight Time)","Mozilla/5.0 (Windows NT 6.3; Win64; x64) AppleWebKit/537.36 (KHTML, like Gecko) Chrome/85.0.4183.102 Safari/537.36",42,"[0.9, 0.5, 0.1]","[0.8, 0.4, 0.2]","[u'blue', u'red', u'black']","[u'left', u'middle', u'right']","[0.9, 0.5, 0.1]","[u'medium', u'low', u'high']","red",50,"middle","low","False","False",661,3000,NA
"A5OT4KL6H0A9L","Sat Oct 31 2020 11:08:43 GMT-0400 (Eastern Daylight Time)","Sat Oct 31 2020 11:20:12 GMT-0400 (Eastern Daylight Time)","Mozilla/5.0 (Windows NT 6.3; Win64; x64) AppleWebKit/537.36 (KHTML, like Gecko) Chrome/85.0.4183.102 Safari/537.36",43,"[0.9, 0.5, 0.1]","[0.8, 0.4, 0.2]","[u'blue', u'red', u'black']","[u'left', u'middle', u'right']","[0.9, 0.5, 0.1]","[u'medium', u'low', u'high']","black",51,"right","high","True","False",1017,3100,NA
"A5OT4KL6H0A9L","Sat Oct 31 2020 11:08:43 GMT-0400 (Eastern Daylight Time)","Sat Oct 31 2020 11:20:12 GMT-0400 (Eastern Daylight Time)","Mozilla/5.0 (Windows NT 6.3; Win64; x64) AppleWebKit/537.36 (KHTML, like Gecko) Chrome/85.0.4183.102 Safari/537.36",44,"[0.9, 0.5, 0.1]","[0.8, 0.4, 0.2]","[u'blue', u'red', u'black']","[u'left', u'middle', u'right']","[0.9, 0.5, 0.1]","[u'medium', u'low', u'high']","black",51,"right","high","False","False",485,3050,NA
"A5OT4KL6H0A9L","Sat Oct 31 2020 11:08:43 GMT-0400 (Eastern Daylight Time)","Sat Oct 31 2020 11:20:12 GMT-0400 (Eastern Daylight Time)","Mozilla/5.0 (Windows NT 6.3; Win64; x64) AppleWebKit/537.36 (KHTML, like Gecko) Chrome/85.0.4183.102 Safari/537.36",45,"[0.9, 0.5, 0.1]","[0.8, 0.4, 0.2]","[u'blue', u'red', u'black']","[u'left', u'middle', u'right']","[0.9, 0.5, 0.1]","[u'medium', u'low', u'high']","blue",49,"left","medium","False","False",328,3000,NA
"A5OT4KL6H0A9L","Sat Oct 31 2020 11:08:43 GMT-0400 (Eastern Daylight Time)","Sat Oct 31 2020 11:20:12 GMT-0400 (Eastern Daylight Time)","Mozilla/5.0 (Windows NT 6.3; Win64; x64) AppleWebKit/537.36 (KHTML, like Gecko) Chrome/85.0.4183.102 Safari/537.36",46,"[0.9, 0.5, 0.1]","[0.8, 0.4, 0.2]","[u'blue', u'red', u'black']","[u'left', u'middle', u'right']","[0.9, 0.5, 0.1]","[u'medium', u'low', u'high']","red",50,"middle","low","False","False",562,2950,NA
"A5OT4KL6H0A9L","Sat Oct 31 2020 11:08:43 GMT-0400 (Eastern Daylight Time)","Sat Oct 31 2020 11:20:12 GMT-0400 (Eastern Daylight Time)","Mozilla/5.0 (Windows NT 6.3; Win64; x64) AppleWebKit/537.36 (KHTML, like Gecko) Chrome/85.0.4183.102 Safari/537.36",47,"[0.9, 0.5, 0.1]","[0.8, 0.4, 0.2]","[u'blue', u'red', u'black']","[u'left', u'middle', u'right']","[0.9, 0.5, 0.1]","[u'medium', u'low', u'high']","blue",49,"left","medium","True","False",177,3050,NA
"A5OT4KL6H0A9L","Sat Oct 31 2020 11:08:43 GMT-0400 (Eastern Daylight Time)","Sat Oct 31 2020 11:20:12 GMT-0400 (Eastern Daylight Time)","Mozilla/5.0 (Windows NT 6.3; Win64; x64) AppleWebKit/537.36 (KHTML, like Gecko) Chrome/85.0.4183.102 Safari/537.36",48,"[0.9, 0.5, 0.1]","[0.8, 0.4, 0.2]","[u'blue', u'red', u'black']","[u'left', u'middle', u'right']","[0.9, 0.5, 0.1]","[u'medium', u'low', u'high']","red",50,"middle","low","False","False",340,3000,NA
"A5OT4KL6H0A9L","Sat Oct 31 2020 11:08:43 GMT-0400 (Eastern Daylight Time)","Sat Oct 31 2020 11:20:12 GMT-0400 (Eastern Daylight Time)","Mozilla/5.0 (Windows NT 6.3; Win64; x64) AppleWebKit/537.36 (KHTML, like Gecko) Chrome/85.0.4183.102 Safari/537.36",49,"[0.9, 0.5, 0.1]","[0.8, 0.4, 0.2]","[u'blue', u'red', u'black']","[u'left', u'middle', u'right']","[0.9, 0.5, 0.1]","[u'medium', u'low', u'high']","blue",49,"left","medium","True","False",331,3100,NA
"A5OT4KL6H0A9L","Sat Oct 31 2020 11:08:43 GMT-0400 (Eastern Daylight Time)","Sat Oct 31 2020 11:20:12 GMT-0400 (Eastern Daylight Time)","Mozilla/5.0 (Windows NT 6.3; Win64; x64) AppleWebKit/537.36 (KHTML, like Gecko) Chrome/85.0.4183.102 Safari/537.36",50,"[0.9, 0.5, 0.1]","[0.8, 0.4, 0.2]","[u'blue', u'red', u'black']","[u'left', u'middle', u'right']","[0.9, 0.5, 0.1]","[u'medium', u'low', u'high']","blue",49,"left","medium","True","False",190,3200,NA
"A5OT4KL6H0A9L","Sat Oct 31 2020 11:08:43 GMT-0400 (Eastern Daylight Time)","Sat Oct 31 2020 11:20:12 GMT-0400 (Eastern Daylight Time)","Mozilla/5.0 (Windows NT 6.3; Win64; x64) AppleWebKit/537.36 (KHTML, like Gecko) Chrome/85.0.4183.102 Safari/537.36",51,"[0.9, 0.5, 0.1]","[0.8, 0.4, 0.2]","[u'blue', u'red', u'black']","[u'left', u'middle', u'right']","[0.9, 0.5, 0.1]","[u'medium', u'low', u'high']","blue",49,"left","medium","False","False",324,3150,NA
"A5OT4KL6H0A9L","Sat Oct 31 2020 11:08:43 GMT-0400 (Eastern Daylight Time)","Sat Oct 31 2020 11:20:12 GMT-0400 (Eastern Daylight Time)","Mozilla/5.0 (Windows NT 6.3; Win64; x64) AppleWebKit/537.36 (KHTML, like Gecko) Chrome/85.0.4183.102 Safari/537.36",52,"[0.9, 0.5, 0.1]","[0.8, 0.4, 0.2]","[u'blue', u'red', u'black']","[u'left', u'middle', u'right']","[0.9, 0.5, 0.1]","[u'medium', u'low', u'high']","black",51,"right","high","True","False",535,3250,NA
"A5OT4KL6H0A9L","Sat Oct 31 2020 11:08:43 GMT-0400 (Eastern Daylight Time)","Sat Oct 31 2020 11:20:12 GMT-0400 (Eastern Daylight Time)","Mozilla/5.0 (Windows NT 6.3; Win64; x64) AppleWebKit/537.36 (KHTML, like Gecko) Chrome/85.0.4183.102 Safari/537.36",53,"[0.9, 0.5, 0.1]","[0.8, 0.4, 0.2]","[u'blue', u'red', u'black']","[u'left', u'middle', u'right']","[0.9, 0.5, 0.1]","[u'medium', u'low', u'high']","black",51,"right","high","True","False",78,3350,NA
"A5OT4KL6H0A9L","Sat Oct 31 2020 11:08:43 GMT-0400 (Eastern Daylight Time)","Sat Oct 31 2020 11:20:12 GMT-0400 (Eastern Daylight Time)","Mozilla/5.0 (Windows NT 6.3; Win64; x64) AppleWebKit/537.36 (KHTML, like Gecko) Chrome/85.0.4183.102 Safari/537.36",54,"[0.9, 0.5, 0.1]","[0.8, 0.4, 0.2]","[u'blue', u'red', u'black']","[u'left', u'middle', u'right']","[0.9, 0.5, 0.1]","[u'medium', u'low', u'high']","red",50,"middle","low","False","False",198,3300,NA
"A5OT4KL6H0A9L","Sat Oct 31 2020 11:08:43 GMT-0400 (Eastern Daylight Time)","Sat Oct 31 2020 11:20:12 GMT-0400 (Eastern Daylight Time)","Mozilla/5.0 (Windows NT 6.3; Win64; x64) AppleWebKit/537.36 (KHTML, like Gecko) Chrome/85.0.4183.102 Safari/537.36",55,"[0.9, 0.5, 0.1]","[0.8, 0.4, 0.2]","[u'blue', u'red', u'black']","[u'left', u'middle', u'right']","[0.9, 0.5, 0.1]","[u'medium', u'low', u'high']","black",51,"right","high","True","False",773,3400,NA
"A5OT4KL6H0A9L","Sat Oct 31 2020 11:08:43 GMT-0400 (Eastern Daylight Time)","Sat Oct 31 2020 11:20:12 GMT-0400 (Eastern Daylight Time)","Mozilla/5.0 (Windows NT 6.3; Win64; x64) AppleWebKit/537.36 (KHTML, like Gecko) Chrome/85.0.4183.102 Safari/537.36",56,"[0.9, 0.5, 0.1]","[0.8, 0.4, 0.2]","[u'blue', u'red', u'black']","[u'left', u'middle', u'right']","[0.9, 0.5, 0.1]","[u'medium', u'low', u'high']","black",51,"right","high","True","False",303,3500,NA
"A5OT4KL6H0A9L","Sat Oct 31 2020 11:08:43 GMT-0400 (Eastern Daylight Time)","Sat Oct 31 2020 11:20:12 GMT-0400 (Eastern Daylight Time)","Mozilla/5.0 (Windows NT 6.3; Win64; x64) AppleWebKit/537.36 (KHTML, like Gecko) Chrome/85.0.4183.102 Safari/537.36",57,"[0.9, 0.5, 0.1]","[0.8, 0.4, 0.2]","[u'blue', u'red', u'black']","[u'left', u'middle', u'right']","[0.9, 0.5, 0.1]","[u'medium', u'low', u'high']","black",51,"right","high","True","False",159,3600,NA
"A5OT4KL6H0A9L","Sat Oct 31 2020 11:08:43 GMT-0400 (Eastern Daylight Time)","Sat Oct 31 2020 11:20:12 GMT-0400 (Eastern Daylight Time)","Mozilla/5.0 (Windows NT 6.3; Win64; x64) AppleWebKit/537.36 (KHTML, like Gecko) Chrome/85.0.4183.102 Safari/537.36",58,"[0.9, 0.5, 0.1]","[0.8, 0.4, 0.2]","[u'blue', u'red', u'black']","[u'left', u'middle', u'right']","[0.9, 0.5, 0.1]","[u'medium', u'low', u'high']","black",51,"right","high","True","False",160,3700,NA
"A5OT4KL6H0A9L","Sat Oct 31 2020 11:08:43 GMT-0400 (Eastern Daylight Time)","Sat Oct 31 2020 11:20:12 GMT-0400 (Eastern Daylight Time)","Mozilla/5.0 (Windows NT 6.3; Win64; x64) AppleWebKit/537.36 (KHTML, like Gecko) Chrome/85.0.4183.102 Safari/537.36",59,"[0.9, 0.5, 0.1]","[0.8, 0.4, 0.2]","[u'blue', u'red', u'black']","[u'left', u'middle', u'right']","[0.9, 0.5, 0.1]","[u'medium', u'low', u'high']","black",51,"right","high","True","False",19,3800,NA
"A5OT4KL6H0A9L","Sat Oct 31 2020 11:08:43 GMT-0400 (Eastern Daylight Time)","Sat Oct 31 2020 11:20:12 GMT-0400 (Eastern Daylight Time)","Mozilla/5.0 (Windows NT 6.3; Win64; x64) AppleWebKit/537.36 (KHTML, like Gecko) Chrome/85.0.4183.102 Safari/537.36",60,"[0.9, 0.5, 0.1]","[0.8, 0.4, 0.2]","[u'blue', u'red', u'black']","[u'left', u'middle', u'right']","[0.9, 0.5, 0.1]","[u'medium', u'low', u'high']","black",51,"right","high","False","False",146,3750,NA
"A5OT4KL6H0A9L","Sat Oct 31 2020 11:08:43 GMT-0400 (Eastern Daylight Time)","Sat Oct 31 2020 11:20:12 GMT-0400 (Eastern Daylight Time)","Mozilla/5.0 (Windows NT 6.3; Win64; x64) AppleWebKit/537.36 (KHTML, like Gecko) Chrome/85.0.4183.102 Safari/537.36",61,"[0.9, 0.5, 0.1]","[0.8, 0.4, 0.2]","[u'blue', u'red', u'black']","[u'left', u'middle', u'right']","[0.9, 0.5, 0.1]","[u'medium', u'low', u'high']","blue",49,"left","medium","False","False",327,3700,NA
"A5OT4KL6H0A9L","Sat Oct 31 2020 11:08:43 GMT-0400 (Eastern Daylight Time)","Sat Oct 31 2020 11:20:12 GMT-0400 (Eastern Daylight Time)","Mozilla/5.0 (Windows NT 6.3; Win64; x64) AppleWebKit/537.36 (KHTML, like Gecko) Chrome/85.0.4183.102 Safari/537.36",62,"[0.9, 0.5, 0.1]","[0.8, 0.4, 0.2]","[u'blue', u'red', u'black']","[u'left', u'middle', u'right']","[0.9, 0.5, 0.1]","[u'medium', u'low', u'high']","red",50,"middle","low","False","False",762,3650,NA
"A5OT4KL6H0A9L","Sat Oct 31 2020 11:08:43 GMT-0400 (Eastern Daylight Time)","Sat Oct 31 2020 11:20:12 GMT-0400 (Eastern Daylight Time)","Mozilla/5.0 (Windows NT 6.3; Win64; x64) AppleWebKit/537.36 (KHTML, like Gecko) Chrome/85.0.4183.102 Safari/537.36",63,"[0.9, 0.5, 0.1]","[0.8, 0.4, 0.2]","[u'blue', u'red', u'black']","[u'left', u'middle', u'right']","[0.9, 0.5, 0.1]","[u'medium', u'low', u'high']","black",51,"right","high","True","False",319,3750,NA
"A5OT4KL6H0A9L","Sat Oct 31 2020 11:08:43 GMT-0400 (Eastern Daylight Time)","Sat Oct 31 2020 11:20:12 GMT-0400 (Eastern Daylight Time)","Mozilla/5.0 (Windows NT 6.3; Win64; x64) AppleWebKit/537.36 (KHTML, like Gecko) Chrome/85.0.4183.102 Safari/537.36",64,"[0.9, 0.5, 0.1]","[0.8, 0.4, 0.2]","[u'blue', u'red', u'black']","[u'left', u'middle', u'right']","[0.9, 0.5, 0.1]","[u'medium', u'low', u'high']","black",51,"right","high","True","False",41,3850,NA
"A5OT4KL6H0A9L","Sat Oct 31 2020 11:08:43 GMT-0400 (Eastern Daylight Time)","Sat Oct 31 2020 11:20:12 GMT-0400 (Eastern Daylight Time)","Mozilla/5.0 (Windows NT 6.3; Win64; x64) AppleWebKit/537.36 (KHTML, like Gecko) Chrome/85.0.4183.102 Safari/537.36",65,"[0.9, 0.5, 0.1]","[0.8, 0.4, 0.2]","[u'blue', u'red', u'black']","[u'left', u'middle', u'right']","[0.9, 0.5, 0.1]","[u'medium', u'low', u'high']","black",51,"right","high","True","False",141,3950,NA
"A5OT4KL6H0A9L","Sat Oct 31 2020 11:08:43 GMT-0400 (Eastern Daylight Time)","Sat Oct 31 2020 11:20:12 GMT-0400 (Eastern Daylight Time)","Mozilla/5.0 (Windows NT 6.3; Win64; x64) AppleWebKit/537.36 (KHTML, like Gecko) Chrome/85.0.4183.102 Safari/537.36",66,"[0.9, 0.5, 0.1]","[0.8, 0.4, 0.2]","[u'blue', u'red', u'black']","[u'left', u'middle', u'right']","[0.9, 0.5, 0.1]","[u'medium', u'low', u'high']","black",51,"right","high","True","False",398,4050,NA
"A5OT4KL6H0A9L","Sat Oct 31 2020 11:08:43 GMT-0400 (Eastern Daylight Time)","Sat Oct 31 2020 11:20:12 GMT-0400 (Eastern Daylight Time)","Mozilla/5.0 (Windows NT 6.3; Win64; x64) AppleWebKit/537.36 (KHTML, like Gecko) Chrome/85.0.4183.102 Safari/537.36",67,"[0.9, 0.5, 0.1]","[0.8, 0.4, 0.2]","[u'blue', u'red', u'black']","[u'left', u'middle', u'right']","[0.9, 0.5, 0.1]","[u'medium', u'low', u'high']","black",51,"right","high","True","False",996,4150,NA
"A5OT4KL6H0A9L","Sat Oct 31 2020 11:08:43 GMT-0400 (Eastern Daylight Time)","Sat Oct 31 2020 11:20:12 GMT-0400 (Eastern Daylight Time)","Mozilla/5.0 (Windows NT 6.3; Win64; x64) AppleWebKit/537.36 (KHTML, like Gecko) Chrome/85.0.4183.102 Safari/537.36",68,"[0.9, 0.5, 0.1]","[0.8, 0.4, 0.2]","[u'blue', u'red', u'black']","[u'left', u'middle', u'right']","[0.9, 0.5, 0.1]","[u'medium', u'low', u'high']","black",51,"right","high","True","False",659,4250,NA
"A5OT4KL6H0A9L","Sat Oct 31 2020 11:08:43 GMT-0400 (Eastern Daylight Time)","Sat Oct 31 2020 11:20:12 GMT-0400 (Eastern Daylight Time)","Mozilla/5.0 (Windows NT 6.3; Win64; x64) AppleWebKit/537.36 (KHTML, like Gecko) Chrome/85.0.4183.102 Safari/537.36",69,"[0.9, 0.5, 0.1]","[0.8, 0.4, 0.2]","[u'blue', u'red', u'black']","[u'left', u'middle', u'right']","[0.9, 0.5, 0.1]","[u'medium', u'low', u'high']","black",51,"right","high","True","False",136,4350,NA
"A5OT4KL6H0A9L","Sat Oct 31 2020 11:08:43 GMT-0400 (Eastern Daylight Time)","Sat Oct 31 2020 11:20:12 GMT-0400 (Eastern Daylight Time)","Mozilla/5.0 (Windows NT 6.3; Win64; x64) AppleWebKit/537.36 (KHTML, like Gecko) Chrome/85.0.4183.102 Safari/537.36",70,"[0.9, 0.5, 0.1]","[0.8, 0.4, 0.2]","[u'blue', u'red', u'black']","[u'left', u'middle', u'right']","[0.9, 0.5, 0.1]","[u'medium', u'low', u'high']","black",51,"right","high","True","False",179,4450,NA
"A5OT4KL6H0A9L","Sat Oct 31 2020 11:08:43 GMT-0400 (Eastern Daylight Time)","Sat Oct 31 2020 11:20:12 GMT-0400 (Eastern Daylight Time)","Mozilla/5.0 (Windows NT 6.3; Win64; x64) AppleWebKit/537.36 (KHTML, like Gecko) Chrome/85.0.4183.102 Safari/537.36",71,"[0.9, 0.5, 0.1]","[0.8, 0.4, 0.2]","[u'blue', u'red', u'black']","[u'left', u'middle', u'right']","[0.9, 0.5, 0.1]","[u'medium', u'low', u'high']","black",51,"right","high","True","True",201,4550,NA
"A5OT4KL6H0A9L","Sat Oct 31 2020 11:08:43 GMT-0400 (Eastern Daylight Time)","Sat Oct 31 2020 11:20:12 GMT-0400 (Eastern Daylight Time)","Mozilla/5.0 (Windows NT 6.3; Win64; x64) AppleWebKit/537.36 (KHTML, like Gecko) Chrome/85.0.4183.102 Safari/537.36",72,"[0.9, 0.5, 0.1]","[0.8, 0.4, 0.2]","[u'blue', u'red', u'black']","[u'left', u'middle', u'right']","[0.9, 0.5, 0.1]","[u'high', u'medium', u'low']","black",51,"right","low","False","False",137,4500,NA
"A5OT4KL6H0A9L","Sat Oct 31 2020 11:08:43 GMT-0400 (Eastern Daylight Time)","Sat Oct 31 2020 11:20:12 GMT-0400 (Eastern Daylight Time)","Mozilla/5.0 (Windows NT 6.3; Win64; x64) AppleWebKit/537.36 (KHTML, like Gecko) Chrome/85.0.4183.102 Safari/537.36",73,"[0.9, 0.5, 0.1]","[0.8, 0.4, 0.2]","[u'blue', u'red', u'black']","[u'left', u'middle', u'right']","[0.9, 0.5, 0.1]","[u'high', u'medium', u'low']","red",50,"middle","medium","True","False",160,4600,NA
"A5OT4KL6H0A9L","Sat Oct 31 2020 11:08:43 GMT-0400 (Eastern Daylight Time)","Sat Oct 31 2020 11:20:12 GMT-0400 (Eastern Daylight Time)","Mozilla/5.0 (Windows NT 6.3; Win64; x64) AppleWebKit/537.36 (KHTML, like Gecko) Chrome/85.0.4183.102 Safari/537.36",74,"[0.9, 0.5, 0.1]","[0.8, 0.4, 0.2]","[u'blue', u'red', u'black']","[u'left', u'middle', u'right']","[0.9, 0.5, 0.1]","[u'high', u'medium', u'low']","red",50,"middle","medium","False","False",216,4550,NA
"A5OT4KL6H0A9L","Sat Oct 31 2020 11:08:43 GMT-0400 (Eastern Daylight Time)","Sat Oct 31 2020 11:20:12 GMT-0400 (Eastern Daylight Time)","Mozilla/5.0 (Windows NT 6.3; Win64; x64) AppleWebKit/537.36 (KHTML, like Gecko) Chrome/85.0.4183.102 Safari/537.36",75,"[0.9, 0.5, 0.1]","[0.8, 0.4, 0.2]","[u'blue', u'red', u'black']","[u'left', u'middle', u'right']","[0.9, 0.5, 0.1]","[u'high', u'medium', u'low']","blue",49,"left","high","True","False",460,4650,NA
"A5OT4KL6H0A9L","Sat Oct 31 2020 11:08:43 GMT-0400 (Eastern Daylight Time)","Sat Oct 31 2020 11:20:12 GMT-0400 (Eastern Daylight Time)","Mozilla/5.0 (Windows NT 6.3; Win64; x64) AppleWebKit/537.36 (KHTML, like Gecko) Chrome/85.0.4183.102 Safari/537.36",76,"[0.9, 0.5, 0.1]","[0.8, 0.4, 0.2]","[u'blue', u'red', u'black']","[u'left', u'middle', u'right']","[0.9, 0.5, 0.1]","[u'high', u'medium', u'low']","blue",49,"left","high","False","False",879,4600,NA
"A5OT4KL6H0A9L","Sat Oct 31 2020 11:08:43 GMT-0400 (Eastern Daylight Time)","Sat Oct 31 2020 11:20:12 GMT-0400 (Eastern Daylight Time)","Mozilla/5.0 (Windows NT 6.3; Win64; x64) AppleWebKit/537.36 (KHTML, like Gecko) Chrome/85.0.4183.102 Safari/537.36",77,"[0.9, 0.5, 0.1]","[0.8, 0.4, 0.2]","[u'blue', u'red', u'black']","[u'left', u'middle', u'right']","[0.9, 0.5, 0.1]","[u'high', u'medium', u'low']","red",50,"middle","medium","True","False",676,4700,NA
"A5OT4KL6H0A9L","Sat Oct 31 2020 11:08:43 GMT-0400 (Eastern Daylight Time)","Sat Oct 31 2020 11:20:12 GMT-0400 (Eastern Daylight Time)","Mozilla/5.0 (Windows NT 6.3; Win64; x64) AppleWebKit/537.36 (KHTML, like Gecko) Chrome/85.0.4183.102 Safari/537.36",78,"[0.9, 0.5, 0.1]","[0.8, 0.4, 0.2]","[u'blue', u'red', u'black']","[u'left', u'middle', u'right']","[0.9, 0.5, 0.1]","[u'high', u'medium', u'low']","red",50,"middle","medium","False","False",181780,4650,NA
"A5OT4KL6H0A9L","Sat Oct 31 2020 11:08:43 GMT-0400 (Eastern Daylight Time)","Sat Oct 31 2020 11:20:12 GMT-0400 (Eastern Daylight Time)","Mozilla/5.0 (Windows NT 6.3; Win64; x64) AppleWebKit/537.36 (KHTML, like Gecko) Chrome/85.0.4183.102 Safari/537.36",79,"[0.9, 0.5, 0.1]","[0.8, 0.4, 0.2]","[u'blue', u'red', u'black']","[u'left', u'middle', u'right']","[0.9, 0.5, 0.1]","[u'high', u'medium', u'low']","blue",49,"left","high","True","False",740,4750,NA
"A5OT4KL6H0A9L","Sat Oct 31 2020 11:08:43 GMT-0400 (Eastern Daylight Time)","Sat Oct 31 2020 11:20:12 GMT-0400 (Eastern Daylight Time)","Mozilla/5.0 (Windows NT 6.3; Win64; x64) AppleWebKit/537.36 (KHTML, like Gecko) Chrome/85.0.4183.102 Safari/537.36",80,"[0.9, 0.5, 0.1]","[0.8, 0.4, 0.2]","[u'blue', u'red', u'black']","[u'left', u'middle', u'right']","[0.9, 0.5, 0.1]","[u'high', u'medium', u'low']","blue",49,"left","high","False","False",2439,4700,NA
"A5OT4KL6H0A9L","Sat Oct 31 2020 11:08:43 GMT-0400 (Eastern Daylight Time)","Sat Oct 31 2020 11:20:12 GMT-0400 (Eastern Daylight Time)","Mozilla/5.0 (Windows NT 6.3; Win64; x64) AppleWebKit/537.36 (KHTML, like Gecko) Chrome/85.0.4183.102 Safari/537.36",81,"[0.9, 0.5, 0.1]","[0.8, 0.4, 0.2]","[u'blue', u'red', u'black']","[u'left', u'middle', u'right']","[0.8, 0.4, 0.2]","[u'low', u'high', u'medium']","black",51,"right","medium","True","False",2241,4800,NA
"A5OT4KL6H0A9L","Sat Oct 31 2020 11:08:43 GMT-0400 (Eastern Daylight Time)","Sat Oct 31 2020 11:20:12 GMT-0400 (Eastern Daylight Time)","Mozilla/5.0 (Windows NT 6.3; Win64; x64) AppleWebKit/537.36 (KHTML, like Gecko) Chrome/85.0.4183.102 Safari/537.36",82,"[0.9, 0.5, 0.1]","[0.8, 0.4, 0.2]","[u'blue', u'red', u'black']","[u'left', u'middle', u'right']","[0.8, 0.4, 0.2]","[u'low', u'high', u'medium']","black",51,"right","medium","False","False",204,4750,NA
"A5OT4KL6H0A9L","Sat Oct 31 2020 11:08:43 GMT-0400 (Eastern Daylight Time)","Sat Oct 31 2020 11:20:12 GMT-0400 (Eastern Daylight Time)","Mozilla/5.0 (Windows NT 6.3; Win64; x64) AppleWebKit/537.36 (KHTML, like Gecko) Chrome/85.0.4183.102 Safari/537.36",83,"[0.9, 0.5, 0.1]","[0.8, 0.4, 0.2]","[u'blue', u'red', u'black']","[u'left', u'middle', u'right']","[0.8, 0.4, 0.2]","[u'low', u'high', u'medium']","red",50,"middle","high","True","False",269,4850,NA
"A5OT4KL6H0A9L","Sat Oct 31 2020 11:08:43 GMT-0400 (Eastern Daylight Time)","Sat Oct 31 2020 11:20:12 GMT-0400 (Eastern Daylight Time)","Mozilla/5.0 (Windows NT 6.3; Win64; x64) AppleWebKit/537.36 (KHTML, like Gecko) Chrome/85.0.4183.102 Safari/537.36",84,"[0.9, 0.5, 0.1]","[0.8, 0.4, 0.2]","[u'blue', u'red', u'black']","[u'left', u'middle', u'right']","[0.8, 0.4, 0.2]","[u'low', u'high', u'medium']","red",50,"middle","high","True","False",450,4950,NA
"A5OT4KL6H0A9L","Sat Oct 31 2020 11:08:43 GMT-0400 (Eastern Daylight Time)","Sat Oct 31 2020 11:20:12 GMT-0400 (Eastern Daylight Time)","Mozilla/5.0 (Windows NT 6.3; Win64; x64) AppleWebKit/537.36 (KHTML, like Gecko) Chrome/85.0.4183.102 Safari/537.36",85,"[0.9, 0.5, 0.1]","[0.8, 0.4, 0.2]","[u'blue', u'red', u'black']","[u'left', u'middle', u'right']","[0.8, 0.4, 0.2]","[u'low', u'high', u'medium']","red",50,"middle","high","True","False",610,5050,NA
"A5OT4KL6H0A9L","Sat Oct 31 2020 11:08:43 GMT-0400 (Eastern Daylight Time)","Sat Oct 31 2020 11:20:12 GMT-0400 (Eastern Daylight Time)","Mozilla/5.0 (Windows NT 6.3; Win64; x64) AppleWebKit/537.36 (KHTML, like Gecko) Chrome/85.0.4183.102 Safari/537.36",86,"[0.9, 0.5, 0.1]","[0.8, 0.4, 0.2]","[u'blue', u'red', u'black']","[u'left', u'middle', u'right']","[0.8, 0.4, 0.2]","[u'low', u'high', u'medium']","red",50,"middle","high","True","False",556,5150,NA
"A5OT4KL6H0A9L","Sat Oct 31 2020 11:08:43 GMT-0400 (Eastern Daylight Time)","Sat Oct 31 2020 11:20:12 GMT-0400 (Eastern Daylight Time)","Mozilla/5.0 (Windows NT 6.3; Win64; x64) AppleWebKit/537.36 (KHTML, like Gecko) Chrome/85.0.4183.102 Safari/537.36",87,"[0.9, 0.5, 0.1]","[0.8, 0.4, 0.2]","[u'blue', u'red', u'black']","[u'left', u'middle', u'right']","[0.8, 0.4, 0.2]","[u'low', u'high', u'medium']","red",50,"middle","high","True","False",599,5250,NA
"A5OT4KL6H0A9L","Sat Oct 31 2020 11:08:43 GMT-0400 (Eastern Daylight Time)","Sat Oct 31 2020 11:20:12 GMT-0400 (Eastern Daylight Time)","Mozilla/5.0 (Windows NT 6.3; Win64; x64) AppleWebKit/537.36 (KHTML, like Gecko) Chrome/85.0.4183.102 Safari/537.36",88,"[0.9, 0.5, 0.1]","[0.8, 0.4, 0.2]","[u'blue', u'red', u'black']","[u'left', u'middle', u'right']","[0.8, 0.4, 0.2]","[u'low', u'high', u'medium']","red",50,"middle","high","False","False",540,5200,NA
"A5OT4KL6H0A9L","Sat Oct 31 2020 11:08:43 GMT-0400 (Eastern Daylight Time)","Sat Oct 31 2020 11:20:12 GMT-0400 (Eastern Daylight Time)","Mozilla/5.0 (Windows NT 6.3; Win64; x64) AppleWebKit/537.36 (KHTML, like Gecko) Chrome/85.0.4183.102 Safari/537.36",89,"[0.9, 0.5, 0.1]","[0.8, 0.4, 0.2]","[u'blue', u'red', u'black']","[u'left', u'middle', u'right']","[0.8, 0.4, 0.2]","[u'low', u'high', u'medium']","blue",49,"left","low","False","False",497,5150,NA
"A5OT4KL6H0A9L","Sat Oct 31 2020 11:08:43 GMT-0400 (Eastern Daylight Time)","Sat Oct 31 2020 11:20:12 GMT-0400 (Eastern Daylight Time)","Mozilla/5.0 (Windows NT 6.3; Win64; x64) AppleWebKit/537.36 (KHTML, like Gecko) Chrome/85.0.4183.102 Safari/537.36",90,"[0.9, 0.5, 0.1]","[0.8, 0.4, 0.2]","[u'blue', u'red', u'black']","[u'left', u'middle', u'right']","[0.8, 0.4, 0.2]","[u'low', u'high', u'medium']","black",51,"right","medium","False","False",160,5100,NA
"A5OT4KL6H0A9L","Sat Oct 31 2020 11:08:43 GMT-0400 (Eastern Daylight Time)","Sat Oct 31 2020 11:20:12 GMT-0400 (Eastern Daylight Time)","Mozilla/5.0 (Windows NT 6.3; Win64; x64) AppleWebKit/537.36 (KHTML, like Gecko) Chrome/85.0.4183.102 Safari/537.36",91,"[0.9, 0.5, 0.1]","[0.8, 0.4, 0.2]","[u'blue', u'red', u'black']","[u'left', u'middle', u'right']","[0.8, 0.4, 0.2]","[u'low', u'high', u'medium']","red",50,"middle","high","True","False",337,5200,NA
"A5OT4KL6H0A9L","Sat Oct 31 2020 11:08:43 GMT-0400 (Eastern Daylight Time)","Sat Oct 31 2020 11:20:12 GMT-0400 (Eastern Daylight Time)","Mozilla/5.0 (Windows NT 6.3; Win64; x64) AppleWebKit/537.36 (KHTML, like Gecko) Chrome/85.0.4183.102 Safari/537.36",92,"[0.9, 0.5, 0.1]","[0.8, 0.4, 0.2]","[u'blue', u'red', u'black']","[u'left', u'middle', u'right']","[0.8, 0.4, 0.2]","[u'low', u'high', u'medium']","red",50,"middle","high","True","False",536,5300,NA
"A5OT4KL6H0A9L","Sat Oct 31 2020 11:08:43 GMT-0400 (Eastern Daylight Time)","Sat Oct 31 2020 11:20:12 GMT-0400 (Eastern Daylight Time)","Mozilla/5.0 (Windows NT 6.3; Win64; x64) AppleWebKit/537.36 (KHTML, like Gecko) Chrome/85.0.4183.102 Safari/537.36",93,"[0.9, 0.5, 0.1]","[0.8, 0.4, 0.2]","[u'blue', u'red', u'black']","[u'left', u'middle', u'right']","[0.8, 0.4, 0.2]","[u'low', u'high', u'medium']","red",50,"middle","high","True","False",153,5400,NA
"A5OT4KL6H0A9L","Sat Oct 31 2020 11:08:43 GMT-0400 (Eastern Daylight Time)","Sat Oct 31 2020 11:20:12 GMT-0400 (Eastern Daylight Time)","Mozilla/5.0 (Windows NT 6.3; Win64; x64) AppleWebKit/537.36 (KHTML, like Gecko) Chrome/85.0.4183.102 Safari/537.36",94,"[0.9, 0.5, 0.1]","[0.8, 0.4, 0.2]","[u'blue', u'red', u'black']","[u'left', u'middle', u'right']","[0.8, 0.4, 0.2]","[u'low', u'high', u'medium']","red",50,"middle","high","False","False",169,5350,NA
"A5OT4KL6H0A9L","Sat Oct 31 2020 11:08:43 GMT-0400 (Eastern Daylight Time)","Sat Oct 31 2020 11:20:12 GMT-0400 (Eastern Daylight Time)","Mozilla/5.0 (Windows NT 6.3; Win64; x64) AppleWebKit/537.36 (KHTML, like Gecko) Chrome/85.0.4183.102 Safari/537.36",95,"[0.9, 0.5, 0.1]","[0.8, 0.4, 0.2]","[u'blue', u'red', u'black']","[u'left', u'middle', u'right']","[0.8, 0.4, 0.2]","[u'low', u'high', u'medium']","blue",49,"left","low","False","False",299,5300,NA
"A5OT4KL6H0A9L","Sat Oct 31 2020 11:08:43 GMT-0400 (Eastern Daylight Time)","Sat Oct 31 2020 11:20:12 GMT-0400 (Eastern Daylight Time)","Mozilla/5.0 (Windows NT 6.3; Win64; x64) AppleWebKit/537.36 (KHTML, like Gecko) Chrome/85.0.4183.102 Safari/537.36",96,"[0.9, 0.5, 0.1]","[0.8, 0.4, 0.2]","[u'blue', u'red', u'black']","[u'left', u'middle', u'right']","[0.8, 0.4, 0.2]","[u'low', u'high', u'medium']","black",51,"right","medium","True","False",347,5400,NA
"A5OT4KL6H0A9L","Sat Oct 31 2020 11:08:43 GMT-0400 (Eastern Daylight Time)","Sat Oct 31 2020 11:20:12 GMT-0400 (Eastern Daylight Time)","Mozilla/5.0 (Windows NT 6.3; Win64; x64) AppleWebKit/537.36 (KHTML, like Gecko) Chrome/85.0.4183.102 Safari/537.36",97,"[0.9, 0.5, 0.1]","[0.8, 0.4, 0.2]","[u'blue', u'red', u'black']","[u'left', u'middle', u'right']","[0.8, 0.4, 0.2]","[u'low', u'high', u'medium']","black",51,"right","medium","True","False",545,5500,NA
"A5OT4KL6H0A9L","Sat Oct 31 2020 11:08:43 GMT-0400 (Eastern Daylight Time)","Sat Oct 31 2020 11:20:12 GMT-0400 (Eastern Daylight Time)","Mozilla/5.0 (Windows NT 6.3; Win64; x64) AppleWebKit/537.36 (KHTML, like Gecko) Chrome/85.0.4183.102 Safari/537.36",98,"[0.9, 0.5, 0.1]","[0.8, 0.4, 0.2]","[u'blue', u'red', u'black']","[u'left', u'middle', u'right']","[0.8, 0.4, 0.2]","[u'low', u'high', u'medium']","black",51,"right","medium","False","False",540,5450,NA
"A5OT4KL6H0A9L","Sat Oct 31 2020 11:08:43 GMT-0400 (Eastern Daylight Time)","Sat Oct 31 2020 11:20:12 GMT-0400 (Eastern Daylight Time)","Mozilla/5.0 (Windows NT 6.3; Win64; x64) AppleWebKit/537.36 (KHTML, like Gecko) Chrome/85.0.4183.102 Safari/537.36",99,"[0.9, 0.5, 0.1]","[0.8, 0.4, 0.2]","[u'blue', u'red', u'black']","[u'left', u'middle', u'right']","[0.8, 0.4, 0.2]","[u'low', u'high', u'medium']","blue",49,"left","low","True","False",291,5550,NA
"A5OT4KL6H0A9L","Sat Oct 31 2020 11:08:43 GMT-0400 (Eastern Daylight Time)","Sat Oct 31 2020 11:20:12 GMT-0400 (Eastern Daylight Time)","Mozilla/5.0 (Windows NT 6.3; Win64; x64) AppleWebKit/537.36 (KHTML, like Gecko) Chrome/85.0.4183.102 Safari/537.36",100,"[0.9, 0.5, 0.1]","[0.8, 0.4, 0.2]","[u'blue', u'red', u'black']","[u'left', u'middle', u'right']","[0.8, 0.4, 0.2]","[u'low', u'high', u'medium']","red",50,"middle","high","False","False",77,5500,NA
"A5OT4KL6H0A9L","Sat Oct 31 2020 11:08:43 GMT-0400 (Eastern Daylight Time)","Sat Oct 31 2020 11:20:12 GMT-0400 (Eastern Daylight Time)","Mozilla/5.0 (Windows NT 6.3; Win64; x64) AppleWebKit/537.36 (KHTML, like Gecko) Chrome/85.0.4183.102 Safari/537.36",101,"[0.9, 0.5, 0.1]","[0.8, 0.4, 0.2]","[u'blue', u'red', u'black']","[u'left', u'middle', u'right']","[0.8, 0.4, 0.2]","[u'low', u'high', u'medium']","red",50,"middle","high","False","False",2129,5450,NA
"A5OT4KL6H0A9L","Sat Oct 31 2020 11:08:43 GMT-0400 (Eastern Daylight Time)","Sat Oct 31 2020 11:20:12 GMT-0400 (Eastern Daylight Time)","Mozilla/5.0 (Windows NT 6.3; Win64; x64) AppleWebKit/537.36 (KHTML, like Gecko) Chrome/85.0.4183.102 Safari/537.36",102,"[0.9, 0.5, 0.1]","[0.8, 0.4, 0.2]","[u'blue', u'red', u'black']","[u'left', u'middle', u'right']","[0.8, 0.4, 0.2]","[u'low', u'high', u'medium']","black",51,"right","medium","True","False",500,5550,NA
"A5OT4KL6H0A9L","Sat Oct 31 2020 11:08:43 GMT-0400 (Eastern Daylight Time)","Sat Oct 31 2020 11:20:12 GMT-0400 (Eastern Daylight Time)","Mozilla/5.0 (Windows NT 6.3; Win64; x64) AppleWebKit/537.36 (KHTML, like Gecko) Chrome/85.0.4183.102 Safari/537.36",103,"[0.9, 0.5, 0.1]","[0.8, 0.4, 0.2]","[u'blue', u'red', u'black']","[u'left', u'middle', u'right']","[0.8, 0.4, 0.2]","[u'low', u'high', u'medium']","black",51,"right","medium","False","False",779,5500,NA
"A5OT4KL6H0A9L","Sat Oct 31 2020 11:08:43 GMT-0400 (Eastern Daylight Time)","Sat Oct 31 2020 11:20:12 GMT-0400 (Eastern Daylight Time)","Mozilla/5.0 (Windows NT 6.3; Win64; x64) AppleWebKit/537.36 (KHTML, like Gecko) Chrome/85.0.4183.102 Safari/537.36",104,"[0.9, 0.5, 0.1]","[0.8, 0.4, 0.2]","[u'blue', u'red', u'black']","[u'left', u'middle', u'right']","[0.8, 0.4, 0.2]","[u'low', u'high', u'medium']","red",50,"middle","high","True","False",679,5600,NA
"A5OT4KL6H0A9L","Sat Oct 31 2020 11:08:43 GMT-0400 (Eastern Daylight Time)","Sat Oct 31 2020 11:20:12 GMT-0400 (Eastern Daylight Time)","Mozilla/5.0 (Windows NT 6.3; Win64; x64) AppleWebKit/537.36 (KHTML, like Gecko) Chrome/85.0.4183.102 Safari/537.36",105,"[0.9, 0.5, 0.1]","[0.8, 0.4, 0.2]","[u'blue', u'red', u'black']","[u'left', u'middle', u'right']","[0.8, 0.4, 0.2]","[u'low', u'high', u'medium']","red",50,"middle","high","True","False",621,5700,NA
"A5OT4KL6H0A9L","Sat Oct 31 2020 11:08:43 GMT-0400 (Eastern Daylight Time)","Sat Oct 31 2020 11:20:12 GMT-0400 (Eastern Daylight Time)","Mozilla/5.0 (Windows NT 6.3; Win64; x64) AppleWebKit/537.36 (KHTML, like Gecko) Chrome/85.0.4183.102 Safari/537.36",106,"[0.9, 0.5, 0.1]","[0.8, 0.4, 0.2]","[u'blue', u'red', u'black']","[u'left', u'middle', u'right']","[0.8, 0.4, 0.2]","[u'low', u'high', u'medium']","red",50,"middle","high","True","False",527,5800,NA
"A5OT4KL6H0A9L","Sat Oct 31 2020 11:08:43 GMT-0400 (Eastern Daylight Time)","Sat Oct 31 2020 11:20:12 GMT-0400 (Eastern Daylight Time)","Mozilla/5.0 (Windows NT 6.3; Win64; x64) AppleWebKit/537.36 (KHTML, like Gecko) Chrome/85.0.4183.102 Safari/537.36",107,"[0.9, 0.5, 0.1]","[0.8, 0.4, 0.2]","[u'blue', u'red', u'black']","[u'left', u'middle', u'right']","[0.8, 0.4, 0.2]","[u'low', u'high', u'medium']","red",50,"middle","high","True","False",267,5900,NA
"A5OT4KL6H0A9L","Sat Oct 31 2020 11:08:43 GMT-0400 (Eastern Daylight Time)","Sat Oct 31 2020 11:20:12 GMT-0400 (Eastern Daylight Time)","Mozilla/5.0 (Windows NT 6.3; Win64; x64) AppleWebKit/537.36 (KHTML, like Gecko) Chrome/85.0.4183.102 Safari/537.36",108,"[0.9, 0.5, 0.1]","[0.8, 0.4, 0.2]","[u'blue', u'red', u'black']","[u'left', u'middle', u'right']","[0.8, 0.4, 0.2]","[u'low', u'high', u'medium']","red",50,"middle","high","False","False",503,5850,NA
"A5OT4KL6H0A9L","Sat Oct 31 2020 11:08:43 GMT-0400 (Eastern Daylight Time)","Sat Oct 31 2020 11:20:12 GMT-0400 (Eastern Daylight Time)","Mozilla/5.0 (Windows NT 6.3; Win64; x64) AppleWebKit/537.36 (KHTML, like Gecko) Chrome/85.0.4183.102 Safari/537.36",109,"[0.9, 0.5, 0.1]","[0.8, 0.4, 0.2]","[u'blue', u'red', u'black']","[u'left', u'middle', u'right']","[0.8, 0.4, 0.2]","[u'low', u'high', u'medium']","blue",49,"left","low","False","False",514,5800,NA
"A5OT4KL6H0A9L","Sat Oct 31 2020 11:08:43 GMT-0400 (Eastern Daylight Time)","Sat Oct 31 2020 11:20:12 GMT-0400 (Eastern Daylight Time)","Mozilla/5.0 (Windows NT 6.3; Win64; x64) AppleWebKit/537.36 (KHTML, like Gecko) Chrome/85.0.4183.102 Safari/537.36",110,"[0.9, 0.5, 0.1]","[0.8, 0.4, 0.2]","[u'blue', u'red', u'black']","[u'left', u'middle', u'right']","[0.8, 0.4, 0.2]","[u'low', u'high', u'medium']","red",50,"middle","high","False","False",2839,5750,NA
"A5OT4KL6H0A9L","Sat Oct 31 2020 11:08:43 GMT-0400 (Eastern Daylight Time)","Sat Oct 31 2020 11:20:12 GMT-0400 (Eastern Daylight Time)","Mozilla/5.0 (Windows NT 6.3; Win64; x64) AppleWebKit/537.36 (KHTML, like Gecko) Chrome/85.0.4183.102 Safari/537.36",111,"[0.9, 0.5, 0.1]","[0.8, 0.4, 0.2]","[u'blue', u'red', u'black']","[u'left', u'middle', u'right']","[0.8, 0.4, 0.2]","[u'low', u'high', u'medium']","black",51,"right","medium","True","False",627,5850,NA
"A5OT4KL6H0A9L","Sat Oct 31 2020 11:08:43 GMT-0400 (Eastern Daylight Time)","Sat Oct 31 2020 11:20:12 GMT-0400 (Eastern Daylight Time)","Mozilla/5.0 (Windows NT 6.3; Win64; x64) AppleWebKit/537.36 (KHTML, like Gecko) Chrome/85.0.4183.102 Safari/537.36",112,"[0.9, 0.5, 0.1]","[0.8, 0.4, 0.2]","[u'blue', u'red', u'black']","[u'left', u'middle', u'right']","[0.8, 0.4, 0.2]","[u'low', u'high', u'medium']","black",51,"right","medium","True","False",2027,5950,NA
"A5OT4KL6H0A9L","Sat Oct 31 2020 11:08:43 GMT-0400 (Eastern Daylight Time)","Sat Oct 31 2020 11:20:12 GMT-0400 (Eastern Daylight Time)","Mozilla/5.0 (Windows NT 6.3; Win64; x64) AppleWebKit/537.36 (KHTML, like Gecko) Chrome/85.0.4183.102 Safari/537.36",113,"[0.9, 0.5, 0.1]","[0.8, 0.4, 0.2]","[u'blue', u'red', u'black']","[u'left', u'middle', u'right']","[0.8, 0.4, 0.2]","[u'low', u'high', u'medium']","black",51,"right","medium","False","False",683,5900,NA
"A5OT4KL6H0A9L","Sat Oct 31 2020 11:08:43 GMT-0400 (Eastern Daylight Time)","Sat Oct 31 2020 11:20:12 GMT-0400 (Eastern Daylight Time)","Mozilla/5.0 (Windows NT 6.3; Win64; x64) AppleWebKit/537.36 (KHTML, like Gecko) Chrome/85.0.4183.102 Safari/537.36",114,"[0.9, 0.5, 0.1]","[0.8, 0.4, 0.2]","[u'blue', u'red', u'black']","[u'left', u'middle', u'right']","[0.8, 0.4, 0.2]","[u'low', u'high', u'medium']","red",50,"middle","high","True","False",554,6000,NA
"A5OT4KL6H0A9L","Sat Oct 31 2020 11:08:43 GMT-0400 (Eastern Daylight Time)","Sat Oct 31 2020 11:20:12 GMT-0400 (Eastern Daylight Time)","Mozilla/5.0 (Windows NT 6.3; Win64; x64) AppleWebKit/537.36 (KHTML, like Gecko) Chrome/85.0.4183.102 Safari/537.36",115,"[0.9, 0.5, 0.1]","[0.8, 0.4, 0.2]","[u'blue', u'red', u'black']","[u'left', u'middle', u'right']","[0.8, 0.4, 0.2]","[u'low', u'high', u'medium']","red",50,"middle","high","True","False",316,6100,NA
"A5OT4KL6H0A9L","Sat Oct 31 2020 11:08:43 GMT-0400 (Eastern Daylight Time)","Sat Oct 31 2020 11:20:12 GMT-0400 (Eastern Daylight Time)","Mozilla/5.0 (Windows NT 6.3; Win64; x64) AppleWebKit/537.36 (KHTML, like Gecko) Chrome/85.0.4183.102 Safari/537.36",116,"[0.9, 0.5, 0.1]","[0.8, 0.4, 0.2]","[u'blue', u'red', u'black']","[u'left', u'middle', u'right']","[0.8, 0.4, 0.2]","[u'low', u'high', u'medium']","red",50,"middle","high","True","False",3742,6200,NA
"A5OT4KL6H0A9L","Sat Oct 31 2020 11:08:43 GMT-0400 (Eastern Daylight Time)","Sat Oct 31 2020 11:20:12 GMT-0400 (Eastern Daylight Time)","Mozilla/5.0 (Windows NT 6.3; Win64; x64) AppleWebKit/537.36 (KHTML, like Gecko) Chrome/85.0.4183.102 Safari/537.36",117,"[0.9, 0.5, 0.1]","[0.8, 0.4, 0.2]","[u'blue', u'red', u'black']","[u'left', u'middle', u'right']","[0.8, 0.4, 0.2]","[u'low', u'high', u'medium']","blue",49,"left","low","False","False",496,6150,NA
"A5OT4KL6H0A9L","Sat Oct 31 2020 11:08:43 GMT-0400 (Eastern Daylight Time)","Sat Oct 31 2020 11:20:12 GMT-0400 (Eastern Daylight Time)","Mozilla/5.0 (Windows NT 6.3; Win64; x64) AppleWebKit/537.36 (KHTML, like Gecko) Chrome/85.0.4183.102 Safari/537.36",118,"[0.9, 0.5, 0.1]","[0.8, 0.4, 0.2]","[u'blue', u'red', u'black']","[u'left', u'middle', u'right']","[0.8, 0.4, 0.2]","[u'low', u'high', u'medium']","red",50,"middle","high","True","False",297,6250,NA
"A5OT4KL6H0A9L","Sat Oct 31 2020 11:08:43 GMT-0400 (Eastern Daylight Time)","Sat Oct 31 2020 11:20:12 GMT-0400 (Eastern Daylight Time)","Mozilla/5.0 (Windows NT 6.3; Win64; x64) AppleWebKit/537.36 (KHTML, like Gecko) Chrome/85.0.4183.102 Safari/537.36",119,"[0.9, 0.5, 0.1]","[0.8, 0.4, 0.2]","[u'blue', u'red', u'black']","[u'left', u'middle', u'right']","[0.8, 0.4, 0.2]","[u'low', u'high', u'medium']","red",50,"middle","high","False","False",636,6200,NA
"A5OT4KL6H0A9L","Sat Oct 31 2020 11:08:43 GMT-0400 (Eastern Daylight Time)","Sat Oct 31 2020 11:20:12 GMT-0400 (Eastern Daylight Time)","Mozilla/5.0 (Windows NT 6.3; Win64; x64) AppleWebKit/537.36 (KHTML, like Gecko) Chrome/85.0.4183.102 Safari/537.36",120,"[0.9, 0.5, 0.1]","[0.8, 0.4, 0.2]","[u'blue', u'red', u'black']","[u'left', u'middle', u'right']","[0.8, 0.4, 0.2]","[u'low', u'high', u'medium']","black",51,"right","medium","True","False",567,6300,NA
"A5OT4KL6H0A9L","Sat Oct 31 2020 11:08:43 GMT-0400 (Eastern Daylight Time)","Sat Oct 31 2020 11:20:12 GMT-0400 (Eastern Daylight Time)","Mozilla/5.0 (Windows NT 6.3; Win64; x64) AppleWebKit/537.36 (KHTML, like Gecko) Chrome/85.0.4183.102 Safari/537.36",121,"[0.9, 0.5, 0.1]","[0.8, 0.4, 0.2]","[u'blue', u'red', u'black']","[u'left', u'middle', u'right']","[0.8, 0.4, 0.2]","[u'low', u'medium', u'high']","black",51,"right","high","True","False",931,6400,NA
"A5OT4KL6H0A9L","Sat Oct 31 2020 11:08:43 GMT-0400 (Eastern Daylight Time)","Sat Oct 31 2020 11:20:12 GMT-0400 (Eastern Daylight Time)","Mozilla/5.0 (Windows NT 6.3; Win64; x64) AppleWebKit/537.36 (KHTML, like Gecko) Chrome/85.0.4183.102 Safari/537.36",122,"[0.9, 0.5, 0.1]","[0.8, 0.4, 0.2]","[u'blue', u'red', u'black']","[u'left', u'middle', u'right']","[0.8, 0.4, 0.2]","[u'low', u'medium', u'high']","black",51,"right","high","False","False",326,6350,NA
"A5OT4KL6H0A9L","Sat Oct 31 2020 11:08:43 GMT-0400 (Eastern Daylight Time)","Sat Oct 31 2020 11:20:12 GMT-0400 (Eastern Daylight Time)","Mozilla/5.0 (Windows NT 6.3; Win64; x64) AppleWebKit/537.36 (KHTML, like Gecko) Chrome/85.0.4183.102 Safari/537.36",123,"[0.9, 0.5, 0.1]","[0.8, 0.4, 0.2]","[u'blue', u'red', u'black']","[u'left', u'middle', u'right']","[0.8, 0.4, 0.2]","[u'low', u'medium', u'high']","red",50,"middle","medium","False","False",265,6300,NA
"A5OT4KL6H0A9L","Sat Oct 31 2020 11:08:43 GMT-0400 (Eastern Daylight Time)","Sat Oct 31 2020 11:20:12 GMT-0400 (Eastern Daylight Time)","Mozilla/5.0 (Windows NT 6.3; Win64; x64) AppleWebKit/537.36 (KHTML, like Gecko) Chrome/85.0.4183.102 Safari/537.36",124,"[0.9, 0.5, 0.1]","[0.8, 0.4, 0.2]","[u'blue', u'red', u'black']","[u'left', u'middle', u'right']","[0.8, 0.4, 0.2]","[u'low', u'medium', u'high']","blue",49,"left","low","False","False",111,6250,NA
"A5OT4KL6H0A9L","Sat Oct 31 2020 11:08:43 GMT-0400 (Eastern Daylight Time)","Sat Oct 31 2020 11:20:12 GMT-0400 (Eastern Daylight Time)","Mozilla/5.0 (Windows NT 6.3; Win64; x64) AppleWebKit/537.36 (KHTML, like Gecko) Chrome/85.0.4183.102 Safari/537.36",125,"[0.9, 0.5, 0.1]","[0.8, 0.4, 0.2]","[u'blue', u'red', u'black']","[u'left', u'middle', u'right']","[0.8, 0.4, 0.2]","[u'low', u'medium', u'high']","black",51,"right","high","True","False",499,6350,NA
"A5OT4KL6H0A9L","Sat Oct 31 2020 11:08:43 GMT-0400 (Eastern Daylight Time)","Sat Oct 31 2020 11:20:12 GMT-0400 (Eastern Daylight Time)","Mozilla/5.0 (Windows NT 6.3; Win64; x64) AppleWebKit/537.36 (KHTML, like Gecko) Chrome/85.0.4183.102 Safari/537.36",126,"[0.9, 0.5, 0.1]","[0.8, 0.4, 0.2]","[u'blue', u'red', u'black']","[u'left', u'middle', u'right']","[0.8, 0.4, 0.2]","[u'low', u'medium', u'high']","black",51,"right","high","True","False",450,6450,NA
"A5OT4KL6H0A9L","Sat Oct 31 2020 11:08:43 GMT-0400 (Eastern Daylight Time)","Sat Oct 31 2020 11:20:12 GMT-0400 (Eastern Daylight Time)","Mozilla/5.0 (Windows NT 6.3; Win64; x64) AppleWebKit/537.36 (KHTML, like Gecko) Chrome/85.0.4183.102 Safari/537.36",127,"[0.9, 0.5, 0.1]","[0.8, 0.4, 0.2]","[u'blue', u'red', u'black']","[u'left', u'middle', u'right']","[0.8, 0.4, 0.2]","[u'low', u'medium', u'high']","black",51,"right","high","True","False",819,6550,NA
"A5OT4KL6H0A9L","Sat Oct 31 2020 11:08:43 GMT-0400 (Eastern Daylight Time)","Sat Oct 31 2020 11:20:12 GMT-0400 (Eastern Daylight Time)","Mozilla/5.0 (Windows NT 6.3; Win64; x64) AppleWebKit/537.36 (KHTML, like Gecko) Chrome/85.0.4183.102 Safari/537.36",128,"[0.9, 0.5, 0.1]","[0.8, 0.4, 0.2]","[u'blue', u'red', u'black']","[u'left', u'middle', u'right']","[0.8, 0.4, 0.2]","[u'low', u'medium', u'high']","black",51,"right","high","True","False",709,6650,NA
"A5OT4KL6H0A9L","Sat Oct 31 2020 11:08:43 GMT-0400 (Eastern Daylight Time)","Sat Oct 31 2020 11:20:12 GMT-0400 (Eastern Daylight Time)","Mozilla/5.0 (Windows NT 6.3; Win64; x64) AppleWebKit/537.36 (KHTML, like Gecko) Chrome/85.0.4183.102 Safari/537.36",129,"[0.9, 0.5, 0.1]","[0.8, 0.4, 0.2]","[u'blue', u'red', u'black']","[u'left', u'middle', u'right']","[0.8, 0.4, 0.2]","[u'low', u'medium', u'high']","black",51,"right","high","True","False",1039,6750,NA
"A5OT4KL6H0A9L","Sat Oct 31 2020 11:08:43 GMT-0400 (Eastern Daylight Time)","Sat Oct 31 2020 11:20:12 GMT-0400 (Eastern Daylight Time)","Mozilla/5.0 (Windows NT 6.3; Win64; x64) AppleWebKit/537.36 (KHTML, like Gecko) Chrome/85.0.4183.102 Safari/537.36",130,"[0.9, 0.5, 0.1]","[0.8, 0.4, 0.2]","[u'blue', u'red', u'black']","[u'left', u'middle', u'right']","[0.8, 0.4, 0.2]","[u'low', u'medium', u'high']","black",51,"right","high","True","False",1799,6850,NA
"A5OT4KL6H0A9L","Sat Oct 31 2020 11:08:43 GMT-0400 (Eastern Daylight Time)","Sat Oct 31 2020 11:20:12 GMT-0400 (Eastern Daylight Time)","Mozilla/5.0 (Windows NT 6.3; Win64; x64) AppleWebKit/537.36 (KHTML, like Gecko) Chrome/85.0.4183.102 Safari/537.36",131,"[0.9, 0.5, 0.1]","[0.8, 0.4, 0.2]","[u'blue', u'red', u'black']","[u'left', u'middle', u'right']","[0.8, 0.4, 0.2]","[u'low', u'medium', u'high']","black",51,"right","high","True","False",3572,6950,NA
"A5OT4KL6H0A9L","Sat Oct 31 2020 11:08:43 GMT-0400 (Eastern Daylight Time)","Sat Oct 31 2020 11:20:12 GMT-0400 (Eastern Daylight Time)","Mozilla/5.0 (Windows NT 6.3; Win64; x64) AppleWebKit/537.36 (KHTML, like Gecko) Chrome/85.0.4183.102 Safari/537.36",132,"[0.9, 0.5, 0.1]","[0.8, 0.4, 0.2]","[u'blue', u'red', u'black']","[u'left', u'middle', u'right']","[0.8, 0.4, 0.2]","[u'low', u'medium', u'high']","black",51,"right","high","True","False",5585,7050,NA
"A5OT4KL6H0A9L","Sat Oct 31 2020 11:08:43 GMT-0400 (Eastern Daylight Time)","Sat Oct 31 2020 11:20:12 GMT-0400 (Eastern Daylight Time)","Mozilla/5.0 (Windows NT 6.3; Win64; x64) AppleWebKit/537.36 (KHTML, like Gecko) Chrome/85.0.4183.102 Safari/537.36",133,"[0.9, 0.5, 0.1]","[0.8, 0.4, 0.2]","[u'blue', u'red', u'black']","[u'left', u'middle', u'right']","[0.8, 0.4, 0.2]","[u'low', u'medium', u'high']","black",51,"right","high","True","True",1470,7150,NA
"A5OT4KL6H0A9L","Sat Oct 31 2020 11:08:43 GMT-0400 (Eastern Daylight Time)","Sat Oct 31 2020 11:20:12 GMT-0400 (Eastern Daylight Time)","Mozilla/5.0 (Windows NT 6.3; Win64; x64) AppleWebKit/537.36 (KHTML, like Gecko) Chrome/85.0.4183.102 Safari/537.36",134,"[0.9, 0.5, 0.1]","[0.8, 0.4, 0.2]","[u'blue', u'red', u'black']","[u'left', u'middle', u'right']","[0.8, 0.4, 0.2]","[u'high', u'low', u'medium']","black",51,"right","medium","True","False",1108,7250,NA
"A5OT4KL6H0A9L","Sat Oct 31 2020 11:08:43 GMT-0400 (Eastern Daylight Time)","Sat Oct 31 2020 11:20:12 GMT-0400 (Eastern Daylight Time)","Mozilla/5.0 (Windows NT 6.3; Win64; x64) AppleWebKit/537.36 (KHTML, like Gecko) Chrome/85.0.4183.102 Safari/537.36",135,"[0.9, 0.5, 0.1]","[0.8, 0.4, 0.2]","[u'blue', u'red', u'black']","[u'left', u'middle', u'right']","[0.8, 0.4, 0.2]","[u'high', u'low', u'medium']","black",51,"right","medium","False","False",2380,7200,NA
"A5OT4KL6H0A9L","Sat Oct 31 2020 11:08:43 GMT-0400 (Eastern Daylight Time)","Sat Oct 31 2020 11:20:12 GMT-0400 (Eastern Daylight Time)","Mozilla/5.0 (Windows NT 6.3; Win64; x64) AppleWebKit/537.36 (KHTML, like Gecko) Chrome/85.0.4183.102 Safari/537.36",136,"[0.9, 0.5, 0.1]","[0.8, 0.4, 0.2]","[u'blue', u'red', u'black']","[u'left', u'middle', u'right']","[0.8, 0.4, 0.2]","[u'high', u'low', u'medium']","red",50,"middle","low","False","False",639,7150,NA
"A5OT4KL6H0A9L","Sat Oct 31 2020 11:08:43 GMT-0400 (Eastern Daylight Time)","Sat Oct 31 2020 11:20:12 GMT-0400 (Eastern Daylight Time)","Mozilla/5.0 (Windows NT 6.3; Win64; x64) AppleWebKit/537.36 (KHTML, like Gecko) Chrome/85.0.4183.102 Safari/537.36",137,"[0.9, 0.5, 0.1]","[0.8, 0.4, 0.2]","[u'blue', u'red', u'black']","[u'left', u'middle', u'right']","[0.8, 0.4, 0.2]","[u'high', u'low', u'medium']","blue",49,"left","high","True","False",1631,7250,NA
"A5OT4KL6H0A9L","Sat Oct 31 2020 11:08:43 GMT-0400 (Eastern Daylight Time)","Sat Oct 31 2020 11:20:12 GMT-0400 (Eastern Daylight Time)","Mozilla/5.0 (Windows NT 6.3; Win64; x64) AppleWebKit/537.36 (KHTML, like Gecko) Chrome/85.0.4183.102 Safari/537.36",138,"[0.9, 0.5, 0.1]","[0.8, 0.4, 0.2]","[u'blue', u'red', u'black']","[u'left', u'middle', u'right']","[0.8, 0.4, 0.2]","[u'high', u'low', u'medium']","blue",49,"left","high","True","False",1744,7350,NA
"A5OT4KL6H0A9L","Sat Oct 31 2020 11:08:43 GMT-0400 (Eastern Daylight Time)","Sat Oct 31 2020 11:20:12 GMT-0400 (Eastern Daylight Time)","Mozilla/5.0 (Windows NT 6.3; Win64; x64) AppleWebKit/537.36 (KHTML, like Gecko) Chrome/85.0.4183.102 Safari/537.36",139,"[0.9, 0.5, 0.1]","[0.8, 0.4, 0.2]","[u'blue', u'red', u'black']","[u'left', u'middle', u'right']","[0.8, 0.4, 0.2]","[u'high', u'low', u'medium']","blue",49,"left","high","True","False",1439,7450,NA
"A5OT4KL6H0A9L","Sat Oct 31 2020 11:08:43 GMT-0400 (Eastern Daylight Time)","Sat Oct 31 2020 11:20:12 GMT-0400 (Eastern Daylight Time)","Mozilla/5.0 (Windows NT 6.3; Win64; x64) AppleWebKit/537.36 (KHTML, like Gecko) Chrome/85.0.4183.102 Safari/537.36",140,"[0.9, 0.5, 0.1]","[0.8, 0.4, 0.2]","[u'blue', u'red', u'black']","[u'left', u'middle', u'right']","[0.8, 0.4, 0.2]","[u'high', u'low', u'medium']","blue",49,"left","high","True","False",671,7550,NA
"A5OT4KL6H0A9L","Sat Oct 31 2020 11:08:43 GMT-0400 (Eastern Daylight Time)","Sat Oct 31 2020 11:20:12 GMT-0400 (Eastern Daylight Time)","Mozilla/5.0 (Windows NT 6.3; Win64; x64) AppleWebKit/537.36 (KHTML, like Gecko) Chrome/85.0.4183.102 Safari/537.36",141,"[0.9, 0.5, 0.1]","[0.8, 0.4, 0.2]","[u'blue', u'red', u'black']","[u'left', u'middle', u'right']","[0.8, 0.4, 0.2]","[u'high', u'low', u'medium']","blue",49,"left","high","True","False",187,7650,NA
"A5OT4KL6H0A9L","Sat Oct 31 2020 11:08:43 GMT-0400 (Eastern Daylight Time)","Sat Oct 31 2020 11:20:12 GMT-0400 (Eastern Daylight Time)","Mozilla/5.0 (Windows NT 6.3; Win64; x64) AppleWebKit/537.36 (KHTML, like Gecko) Chrome/85.0.4183.102 Safari/537.36",142,"[0.9, 0.5, 0.1]","[0.8, 0.4, 0.2]","[u'blue', u'red', u'black']","[u'left', u'middle', u'right']","[0.8, 0.4, 0.2]","[u'high', u'low', u'medium']","red",50,"middle","low","False","False",1357,7600,NA
"A5OT4KL6H0A9L","Sat Oct 31 2020 11:08:43 GMT-0400 (Eastern Daylight Time)","Sat Oct 31 2020 11:20:12 GMT-0400 (Eastern Daylight Time)","Mozilla/5.0 (Windows NT 6.3; Win64; x64) AppleWebKit/537.36 (KHTML, like Gecko) Chrome/85.0.4183.102 Safari/537.36",143,"[0.9, 0.5, 0.1]","[0.8, 0.4, 0.2]","[u'blue', u'red', u'black']","[u'left', u'middle', u'right']","[0.8, 0.4, 0.2]","[u'high', u'low', u'medium']","blue",49,"left","high","True","False",239,7700,NA
"A5OT4KL6H0A9L","Sat Oct 31 2020 11:08:43 GMT-0400 (Eastern Daylight Time)","Sat Oct 31 2020 11:20:12 GMT-0400 (Eastern Daylight Time)","Mozilla/5.0 (Windows NT 6.3; Win64; x64) AppleWebKit/537.36 (KHTML, like Gecko) Chrome/85.0.4183.102 Safari/537.36",144,"[0.9, 0.5, 0.1]","[0.8, 0.4, 0.2]","[u'blue', u'red', u'black']","[u'left', u'middle', u'right']","[0.8, 0.4, 0.2]","[u'high', u'low', u'medium']","blue",49,"left","high","True","False",460,7800,NA
"A5OT4KL6H0A9L","Sat Oct 31 2020 11:08:43 GMT-0400 (Eastern Daylight Time)","Sat Oct 31 2020 11:20:12 GMT-0400 (Eastern Daylight Time)","Mozilla/5.0 (Windows NT 6.3; Win64; x64) AppleWebKit/537.36 (KHTML, like Gecko) Chrome/85.0.4183.102 Safari/537.36",145,"[0.9, 0.5, 0.1]","[0.8, 0.4, 0.2]","[u'blue', u'red', u'black']","[u'left', u'middle', u'right']","[0.8, 0.4, 0.2]","[u'high', u'low', u'medium']","blue",49,"left","high","True","False",996,7900,NA
"A5OT4KL6H0A9L","Sat Oct 31 2020 11:08:43 GMT-0400 (Eastern Daylight Time)","Sat Oct 31 2020 11:20:12 GMT-0400 (Eastern Daylight Time)","Mozilla/5.0 (Windows NT 6.3; Win64; x64) AppleWebKit/537.36 (KHTML, like Gecko) Chrome/85.0.4183.102 Safari/537.36",146,"[0.9, 0.5, 0.1]","[0.8, 0.4, 0.2]","[u'blue', u'red', u'black']","[u'left', u'middle', u'right']","[0.8, 0.4, 0.2]","[u'high', u'low', u'medium']","black",51,"right","medium","False","False",1272,7850,NA
"A5OT4KL6H0A9L","Sat Oct 31 2020 11:08:43 GMT-0400 (Eastern Daylight Time)","Sat Oct 31 2020 11:20:12 GMT-0400 (Eastern Daylight Time)","Mozilla/5.0 (Windows NT 6.3; Win64; x64) AppleWebKit/537.36 (KHTML, like Gecko) Chrome/85.0.4183.102 Safari/537.36",147,"[0.9, 0.5, 0.1]","[0.8, 0.4, 0.2]","[u'blue', u'red', u'black']","[u'left', u'middle', u'right']","[0.8, 0.4, 0.2]","[u'high', u'low', u'medium']","red",50,"middle","low","False","False",1006,7800,NA
"A5OT4KL6H0A9L","Sat Oct 31 2020 11:08:43 GMT-0400 (Eastern Daylight Time)","Sat Oct 31 2020 11:20:12 GMT-0400 (Eastern Daylight Time)","Mozilla/5.0 (Windows NT 6.3; Win64; x64) AppleWebKit/537.36 (KHTML, like Gecko) Chrome/85.0.4183.102 Safari/537.36",148,"[0.9, 0.5, 0.1]","[0.8, 0.4, 0.2]","[u'blue', u'red', u'black']","[u'left', u'middle', u'right']","[0.8, 0.4, 0.2]","[u'high', u'low', u'medium']","blue",49,"left","high","False","False",767,7750,NA
"A5OT4KL6H0A9L","Sat Oct 31 2020 11:08:43 GMT-0400 (Eastern Daylight Time)","Sat Oct 31 2020 11:20:12 GMT-0400 (Eastern Daylight Time)","Mozilla/5.0 (Windows NT 6.3; Win64; x64) AppleWebKit/537.36 (KHTML, like Gecko) Chrome/85.0.4183.102 Safari/537.36",149,"[0.9, 0.5, 0.1]","[0.8, 0.4, 0.2]","[u'blue', u'red', u'black']","[u'left', u'middle', u'right']","[0.8, 0.4, 0.2]","[u'high', u'low', u'medium']","red",50,"middle","low","False","False",855,7700,NA
"A5OT4KL6H0A9L","Sat Oct 31 2020 11:08:43 GMT-0400 (Eastern Daylight Time)","Sat Oct 31 2020 11:20:12 GMT-0400 (Eastern Daylight Time)","Mozilla/5.0 (Windows NT 6.3; Win64; x64) AppleWebKit/537.36 (KHTML, like Gecko) Chrome/85.0.4183.102 Safari/537.36",150,"[0.9, 0.5, 0.1]","[0.8, 0.4, 0.2]","[u'blue', u'red', u'black']","[u'left', u'middle', u'right']","[0.8, 0.4, 0.2]","[u'high', u'low', u'medium']","black",51,"right","medium","False","False",181,7650,NA
"A5OT4KL6H0A9L","Sat Oct 31 2020 11:08:43 GMT-0400 (Eastern Daylight Time)","Sat Oct 31 2020 11:20:12 GMT-0400 (Eastern Daylight Time)","Mozilla/5.0 (Windows NT 6.3; Win64; x64) AppleWebKit/537.36 (KHTML, like Gecko) Chrome/85.0.4183.102 Safari/537.36",151,"[0.9, 0.5, 0.1]","[0.8, 0.4, 0.2]","[u'blue', u'red', u'black']","[u'left', u'middle', u'right']","[0.8, 0.4, 0.2]","[u'high', u'low', u'medium']","red",50,"middle","low","True","False",837,7750,NA
"A5OT4KL6H0A9L","Sat Oct 31 2020 11:08:43 GMT-0400 (Eastern Daylight Time)","Sat Oct 31 2020 11:20:12 GMT-0400 (Eastern Daylight Time)","Mozilla/5.0 (Windows NT 6.3; Win64; x64) AppleWebKit/537.36 (KHTML, like Gecko) Chrome/85.0.4183.102 Safari/537.36",152,"[0.9, 0.5, 0.1]","[0.8, 0.4, 0.2]","[u'blue', u'red', u'black']","[u'left', u'middle', u'right']","[0.8, 0.4, 0.2]","[u'high', u'low', u'medium']","red",50,"middle","low","True","False",4016,7850,NA
"A5OT4KL6H0A9L","Sat Oct 31 2020 11:08:43 GMT-0400 (Eastern Daylight Time)","Sat Oct 31 2020 11:20:12 GMT-0400 (Eastern Daylight Time)","Mozilla/5.0 (Windows NT 6.3; Win64; x64) AppleWebKit/537.36 (KHTML, like Gecko) Chrome/85.0.4183.102 Safari/537.36",153,"[0.9, 0.5, 0.1]","[0.8, 0.4, 0.2]","[u'blue', u'red', u'black']","[u'left', u'middle', u'right']","[0.8, 0.4, 0.2]","[u'high', u'low', u'medium']","red",50,"middle","low","False","False",536,7800,NA
"A5OT4KL6H0A9L","Sat Oct 31 2020 11:08:43 GMT-0400 (Eastern Daylight Time)","Sat Oct 31 2020 11:20:12 GMT-0400 (Eastern Daylight Time)","Mozilla/5.0 (Windows NT 6.3; Win64; x64) AppleWebKit/537.36 (KHTML, like Gecko) Chrome/85.0.4183.102 Safari/537.36",154,"[0.9, 0.5, 0.1]","[0.8, 0.4, 0.2]","[u'blue', u'red', u'black']","[u'left', u'middle', u'right']","[0.8, 0.4, 0.2]","[u'high', u'low', u'medium']","blue",49,"left","high","True","False",936,7900,NA
"A5OT4KL6H0A9L","Sat Oct 31 2020 11:08:43 GMT-0400 (Eastern Daylight Time)","Sat Oct 31 2020 11:20:12 GMT-0400 (Eastern Daylight Time)","Mozilla/5.0 (Windows NT 6.3; Win64; x64) AppleWebKit/537.36 (KHTML, like Gecko) Chrome/85.0.4183.102 Safari/537.36",155,"[0.9, 0.5, 0.1]","[0.8, 0.4, 0.2]","[u'blue', u'red', u'black']","[u'left', u'middle', u'right']","[0.8, 0.4, 0.2]","[u'high', u'low', u'medium']","blue",49,"left","high","False","False",858,7850,NA
"A5OT4KL6H0A9L","Sat Oct 31 2020 11:08:43 GMT-0400 (Eastern Daylight Time)","Sat Oct 31 2020 11:20:12 GMT-0400 (Eastern Daylight Time)","Mozilla/5.0 (Windows NT 6.3; Win64; x64) AppleWebKit/537.36 (KHTML, like Gecko) Chrome/85.0.4183.102 Safari/537.36",156,"[0.9, 0.5, 0.1]","[0.8, 0.4, 0.2]","[u'blue', u'red', u'black']","[u'left', u'middle', u'right']","[0.8, 0.4, 0.2]","[u'high', u'low', u'medium']","blue",49,"left","high","True","False",764,7950,NA
"A5OT4KL6H0A9L","Sat Oct 31 2020 11:08:43 GMT-0400 (Eastern Daylight Time)","Sat Oct 31 2020 11:20:12 GMT-0400 (Eastern Daylight Time)","Mozilla/5.0 (Windows NT 6.3; Win64; x64) AppleWebKit/537.36 (KHTML, like Gecko) Chrome/85.0.4183.102 Safari/537.36",157,"[0.9, 0.5, 0.1]","[0.8, 0.4, 0.2]","[u'blue', u'red', u'black']","[u'left', u'middle', u'right']","[0.8, 0.4, 0.2]","[u'high', u'low', u'medium']","blue",49,"left","high","True","False",216,8050,NA
"A5OT4KL6H0A9L","Sat Oct 31 2020 11:08:43 GMT-0400 (Eastern Daylight Time)","Sat Oct 31 2020 11:20:12 GMT-0400 (Eastern Daylight Time)","Mozilla/5.0 (Windows NT 6.3; Win64; x64) AppleWebKit/537.36 (KHTML, like Gecko) Chrome/85.0.4183.102 Safari/537.36",158,"[0.9, 0.5, 0.1]","[0.8, 0.4, 0.2]","[u'blue', u'red', u'black']","[u'left', u'middle', u'right']","[0.8, 0.4, 0.2]","[u'high', u'low', u'medium']","blue",49,"left","high","True","False",577,8150,NA
"A5OT4KL6H0A9L","Sat Oct 31 2020 11:08:43 GMT-0400 (Eastern Daylight Time)","Sat Oct 31 2020 11:20:12 GMT-0400 (Eastern Daylight Time)","Mozilla/5.0 (Windows NT 6.3; Win64; x64) AppleWebKit/537.36 (KHTML, like Gecko) Chrome/85.0.4183.102 Safari/537.36",159,"[0.9, 0.5, 0.1]","[0.8, 0.4, 0.2]","[u'blue', u'red', u'black']","[u'left', u'middle', u'right']","[0.8, 0.4, 0.2]","[u'high', u'low', u'medium']","blue",49,"left","high","False","False",2374,8100,NA
"A5OT4KL6H0A9L","Sat Oct 31 2020 11:08:43 GMT-0400 (Eastern Daylight Time)","Sat Oct 31 2020 11:20:12 GMT-0400 (Eastern Daylight Time)","Mozilla/5.0 (Windows NT 6.3; Win64; x64) AppleWebKit/537.36 (KHTML, like Gecko) Chrome/85.0.4183.102 Safari/537.36",160,"[0.9, 0.5, 0.1]","[0.8, 0.4, 0.2]","[u'blue', u'red', u'black']","[u'left', u'middle', u'right']","[0.8, 0.4, 0.2]","[u'high', u'low', u'medium']","red",50,"middle","low","False","False",705,8050,NA
