"src_subject_id","start_time","end_time","browser","index","first_half_probabilities","second_half_probabilities","deck_color","deck_position","deck_probabilities","deck_contingencies","response_color","key_press","response_position","response_probability","reward_type","trial_type","rt","reward_tally","exclusion_reason"
"A2ASTDMWBCFIP0","Sat Oct 31 2020 11:16:49 GMT-0400 (Eastern Daylight Time)","Sat Oct 31 2020 11:24:26 GMT-0400 (Eastern Daylight Time)","Mozilla/5.0 (Windows NT 10.0) AppleWebKit/537.36 (KHTML, like Gecko) Chrome/86.0.4240.111 Safari/537.36",1,"[0.9, 0.5, 0.1]","[0.8, 0.4, 0.2]","[u'red', u'blue', u'black']","[u'left', u'middle', u'right']","[0.9, 0.5, 0.1]","[u'low', u'high', u'medium']","blue",50,"middle","high","True","False",1054,100,NA
"A2ASTDMWBCFIP0","Sat Oct 31 2020 11:16:49 GMT-0400 (Eastern Daylight Time)","Sat Oct 31 2020 11:24:26 GMT-0400 (Eastern Daylight Time)","Mozilla/5.0 (Windows NT 10.0) AppleWebKit/537.36 (KHTML, like Gecko) Chrome/86.0.4240.111 Safari/537.36",2,"[0.9, 0.5, 0.1]","[0.8, 0.4, 0.2]","[u'red', u'blue', u'black']","[u'left', u'middle', u'right']","[0.9, 0.5, 0.1]","[u'low', u'high', u'medium']","blue",50,"middle","high","True","False",466,200,NA
"A2ASTDMWBCFIP0","Sat Oct 31 2020 11:16:49 GMT-0400 (Eastern Daylight Time)","Sat Oct 31 2020 11:24:26 GMT-0400 (Eastern Daylight Time)","Mozilla/5.0 (Windows NT 10.0) AppleWebKit/537.36 (KHTML, like Gecko) Chrome/86.0.4240.111 Safari/537.36",3,"[0.9, 0.5, 0.1]","[0.8, 0.4, 0.2]","[u'red', u'blue', u'black']","[u'left', u'middle', u'right']","[0.9, 0.5, 0.1]","[u'low', u'high', u'medium']","blue",50,"middle","high","True","False",434,300,NA
"A2ASTDMWBCFIP0","Sat Oct 31 2020 11:16:49 GMT-0400 (Eastern Daylight Time)","Sat Oct 31 2020 11:24:26 GMT-0400 (Eastern Daylight Time)","Mozilla/5.0 (Windows NT 10.0) AppleWebKit/537.36 (KHTML, like Gecko) Chrome/86.0.4240.111 Safari/537.36",4,"[0.9, 0.5, 0.1]","[0.8, 0.4, 0.2]","[u'red', u'blue', u'black']","[u'left', u'middle', u'right']","[0.9, 0.5, 0.1]","[u'low', u'high', u'medium']","blue",50,"middle","high","True","False",387,400,NA
"A2ASTDMWBCFIP0","Sat Oct 31 2020 11:16:49 GMT-0400 (Eastern Daylight Time)","Sat Oct 31 2020 11:24:26 GMT-0400 (Eastern Daylight Time)","Mozilla/5.0 (Windows NT 10.0) AppleWebKit/537.36 (KHTML, like Gecko) Chrome/86.0.4240.111 Safari/537.36",5,"[0.9, 0.5, 0.1]","[0.8, 0.4, 0.2]","[u'red', u'blue', u'black']","[u'left', u'middle', u'right']","[0.9, 0.5, 0.1]","[u'low', u'high', u'medium']","blue",50,"middle","high","True","False",434,500,NA
"A2ASTDMWBCFIP0","Sat Oct 31 2020 11:16:49 GMT-0400 (Eastern Daylight Time)","Sat Oct 31 2020 11:24:26 GMT-0400 (Eastern Daylight Time)","Mozilla/5.0 (Windows NT 10.0) AppleWebKit/537.36 (KHTML, like Gecko) Chrome/86.0.4240.111 Safari/537.36",6,"[0.9, 0.5, 0.1]","[0.8, 0.4, 0.2]","[u'red', u'blue', u'black']","[u'left', u'middle', u'right']","[0.9, 0.5, 0.1]","[u'low', u'high', u'medium']","blue",50,"middle","high","True","False",436,600,NA
"A2ASTDMWBCFIP0","Sat Oct 31 2020 11:16:49 GMT-0400 (Eastern Daylight Time)","Sat Oct 31 2020 11:24:26 GMT-0400 (Eastern Daylight Time)","Mozilla/5.0 (Windows NT 10.0) AppleWebKit/537.36 (KHTML, like Gecko) Chrome/86.0.4240.111 Safari/537.36",7,"[0.9, 0.5, 0.1]","[0.8, 0.4, 0.2]","[u'red', u'blue', u'black']","[u'left', u'middle', u'right']","[0.9, 0.5, 0.1]","[u'low', u'high', u'medium']","blue",50,"middle","high","True","False",401,700,NA
"A2ASTDMWBCFIP0","Sat Oct 31 2020 11:16:49 GMT-0400 (Eastern Daylight Time)","Sat Oct 31 2020 11:24:26 GMT-0400 (Eastern Daylight Time)","Mozilla/5.0 (Windows NT 10.0) AppleWebKit/537.36 (KHTML, like Gecko) Chrome/86.0.4240.111 Safari/537.36",8,"[0.9, 0.5, 0.1]","[0.8, 0.4, 0.2]","[u'red', u'blue', u'black']","[u'left', u'middle', u'right']","[0.9, 0.5, 0.1]","[u'low', u'high', u'medium']","blue",50,"middle","high","True","False",354,800,NA
"A2ASTDMWBCFIP0","Sat Oct 31 2020 11:16:49 GMT-0400 (Eastern Daylight Time)","Sat Oct 31 2020 11:24:26 GMT-0400 (Eastern Daylight Time)","Mozilla/5.0 (Windows NT 10.0) AppleWebKit/537.36 (KHTML, like Gecko) Chrome/86.0.4240.111 Safari/537.36",9,"[0.9, 0.5, 0.1]","[0.8, 0.4, 0.2]","[u'red', u'blue', u'black']","[u'left', u'middle', u'right']","[0.9, 0.5, 0.1]","[u'low', u'high', u'medium']","blue",50,"middle","high","True","True",354,900,NA
"A2ASTDMWBCFIP0","Sat Oct 31 2020 11:16:49 GMT-0400 (Eastern Daylight Time)","Sat Oct 31 2020 11:24:26 GMT-0400 (Eastern Daylight Time)","Mozilla/5.0 (Windows NT 10.0) AppleWebKit/537.36 (KHTML, like Gecko) Chrome/86.0.4240.111 Safari/537.36",10,"[0.9, 0.5, 0.1]","[0.8, 0.4, 0.2]","[u'red', u'blue', u'black']","[u'left', u'middle', u'right']","[0.9, 0.5, 0.1]","[u'medium', u'low', u'high']","blue",50,"middle","low","False","False",290,850,NA
"A2ASTDMWBCFIP0","Sat Oct 31 2020 11:16:49 GMT-0400 (Eastern Daylight Time)","Sat Oct 31 2020 11:24:26 GMT-0400 (Eastern Daylight Time)","Mozilla/5.0 (Windows NT 10.0) AppleWebKit/537.36 (KHTML, like Gecko) Chrome/86.0.4240.111 Safari/537.36",11,"[0.9, 0.5, 0.1]","[0.8, 0.4, 0.2]","[u'red', u'blue', u'black']","[u'left', u'middle', u'right']","[0.9, 0.5, 0.1]","[u'medium', u'low', u'high']","blue",50,"middle","low","False","False",354,800,NA
"A2ASTDMWBCFIP0","Sat Oct 31 2020 11:16:49 GMT-0400 (Eastern Daylight Time)","Sat Oct 31 2020 11:24:26 GMT-0400 (Eastern Daylight Time)","Mozilla/5.0 (Windows NT 10.0) AppleWebKit/537.36 (KHTML, like Gecko) Chrome/86.0.4240.111 Safari/537.36",12,"[0.9, 0.5, 0.1]","[0.8, 0.4, 0.2]","[u'red', u'blue', u'black']","[u'left', u'middle', u'right']","[0.9, 0.5, 0.1]","[u'medium', u'low', u'high']","black",51,"right","high","True","False",340,900,NA
"A2ASTDMWBCFIP0","Sat Oct 31 2020 11:16:49 GMT-0400 (Eastern Daylight Time)","Sat Oct 31 2020 11:24:26 GMT-0400 (Eastern Daylight Time)","Mozilla/5.0 (Windows NT 10.0) AppleWebKit/537.36 (KHTML, like Gecko) Chrome/86.0.4240.111 Safari/537.36",13,"[0.9, 0.5, 0.1]","[0.8, 0.4, 0.2]","[u'red', u'blue', u'black']","[u'left', u'middle', u'right']","[0.9, 0.5, 0.1]","[u'medium', u'low', u'high']","black",51,"right","high","True","False",369,1000,NA
"A2ASTDMWBCFIP0","Sat Oct 31 2020 11:16:49 GMT-0400 (Eastern Daylight Time)","Sat Oct 31 2020 11:24:26 GMT-0400 (Eastern Daylight Time)","Mozilla/5.0 (Windows NT 10.0) AppleWebKit/537.36 (KHTML, like Gecko) Chrome/86.0.4240.111 Safari/537.36",14,"[0.9, 0.5, 0.1]","[0.8, 0.4, 0.2]","[u'red', u'blue', u'black']","[u'left', u'middle', u'right']","[0.9, 0.5, 0.1]","[u'medium', u'low', u'high']","black",51,"right","high","True","False",490,1100,NA
"A2ASTDMWBCFIP0","Sat Oct 31 2020 11:16:49 GMT-0400 (Eastern Daylight Time)","Sat Oct 31 2020 11:24:26 GMT-0400 (Eastern Daylight Time)","Mozilla/5.0 (Windows NT 10.0) AppleWebKit/537.36 (KHTML, like Gecko) Chrome/86.0.4240.111 Safari/537.36",15,"[0.9, 0.5, 0.1]","[0.8, 0.4, 0.2]","[u'red', u'blue', u'black']","[u'left', u'middle', u'right']","[0.9, 0.5, 0.1]","[u'medium', u'low', u'high']","black",51,"right","high","True","False",402,1200,NA
"A2ASTDMWBCFIP0","Sat Oct 31 2020 11:16:49 GMT-0400 (Eastern Daylight Time)","Sat Oct 31 2020 11:24:26 GMT-0400 (Eastern Daylight Time)","Mozilla/5.0 (Windows NT 10.0) AppleWebKit/537.36 (KHTML, like Gecko) Chrome/86.0.4240.111 Safari/537.36",16,"[0.9, 0.5, 0.1]","[0.8, 0.4, 0.2]","[u'red', u'blue', u'black']","[u'left', u'middle', u'right']","[0.9, 0.5, 0.1]","[u'medium', u'low', u'high']","black",51,"right","high","True","False",307,1300,NA
"A2ASTDMWBCFIP0","Sat Oct 31 2020 11:16:49 GMT-0400 (Eastern Daylight Time)","Sat Oct 31 2020 11:24:26 GMT-0400 (Eastern Daylight Time)","Mozilla/5.0 (Windows NT 10.0) AppleWebKit/537.36 (KHTML, like Gecko) Chrome/86.0.4240.111 Safari/537.36",17,"[0.9, 0.5, 0.1]","[0.8, 0.4, 0.2]","[u'red', u'blue', u'black']","[u'left', u'middle', u'right']","[0.9, 0.5, 0.1]","[u'medium', u'low', u'high']","black",51,"right","high","True","False",354,1400,NA
"A2ASTDMWBCFIP0","Sat Oct 31 2020 11:16:49 GMT-0400 (Eastern Daylight Time)","Sat Oct 31 2020 11:24:26 GMT-0400 (Eastern Daylight Time)","Mozilla/5.0 (Windows NT 10.0) AppleWebKit/537.36 (KHTML, like Gecko) Chrome/86.0.4240.111 Safari/537.36",18,"[0.9, 0.5, 0.1]","[0.8, 0.4, 0.2]","[u'red', u'blue', u'black']","[u'left', u'middle', u'right']","[0.9, 0.5, 0.1]","[u'medium', u'low', u'high']","black",51,"right","high","True","False",371,1500,NA
"A2ASTDMWBCFIP0","Sat Oct 31 2020 11:16:49 GMT-0400 (Eastern Daylight Time)","Sat Oct 31 2020 11:24:26 GMT-0400 (Eastern Daylight Time)","Mozilla/5.0 (Windows NT 10.0) AppleWebKit/537.36 (KHTML, like Gecko) Chrome/86.0.4240.111 Safari/537.36",19,"[0.9, 0.5, 0.1]","[0.8, 0.4, 0.2]","[u'red', u'blue', u'black']","[u'left', u'middle', u'right']","[0.9, 0.5, 0.1]","[u'medium', u'low', u'high']","black",51,"right","high","True","False",305,1600,NA
"A2ASTDMWBCFIP0","Sat Oct 31 2020 11:16:49 GMT-0400 (Eastern Daylight Time)","Sat Oct 31 2020 11:24:26 GMT-0400 (Eastern Daylight Time)","Mozilla/5.0 (Windows NT 10.0) AppleWebKit/537.36 (KHTML, like Gecko) Chrome/86.0.4240.111 Safari/537.36",20,"[0.9, 0.5, 0.1]","[0.8, 0.4, 0.2]","[u'red', u'blue', u'black']","[u'left', u'middle', u'right']","[0.9, 0.5, 0.1]","[u'medium', u'low', u'high']","black",51,"right","high","True","True",354,1700,NA
"A2ASTDMWBCFIP0","Sat Oct 31 2020 11:16:49 GMT-0400 (Eastern Daylight Time)","Sat Oct 31 2020 11:24:26 GMT-0400 (Eastern Daylight Time)","Mozilla/5.0 (Windows NT 10.0) AppleWebKit/537.36 (KHTML, like Gecko) Chrome/86.0.4240.111 Safari/537.36",21,"[0.9, 0.5, 0.1]","[0.8, 0.4, 0.2]","[u'red', u'blue', u'black']","[u'left', u'middle', u'right']","[0.9, 0.5, 0.1]","[u'low', u'high', u'medium']","black",51,"right","medium","False","False",258,1650,NA
"A2ASTDMWBCFIP0","Sat Oct 31 2020 11:16:49 GMT-0400 (Eastern Daylight Time)","Sat Oct 31 2020 11:24:26 GMT-0400 (Eastern Daylight Time)","Mozilla/5.0 (Windows NT 10.0) AppleWebKit/537.36 (KHTML, like Gecko) Chrome/86.0.4240.111 Safari/537.36",22,"[0.9, 0.5, 0.1]","[0.8, 0.4, 0.2]","[u'red', u'blue', u'black']","[u'left', u'middle', u'right']","[0.9, 0.5, 0.1]","[u'low', u'high', u'medium']","red",49,"left","low","False","False",226,1600,NA
"A2ASTDMWBCFIP0","Sat Oct 31 2020 11:16:49 GMT-0400 (Eastern Daylight Time)","Sat Oct 31 2020 11:24:26 GMT-0400 (Eastern Daylight Time)","Mozilla/5.0 (Windows NT 10.0) AppleWebKit/537.36 (KHTML, like Gecko) Chrome/86.0.4240.111 Safari/537.36",23,"[0.9, 0.5, 0.1]","[0.8, 0.4, 0.2]","[u'red', u'blue', u'black']","[u'left', u'middle', u'right']","[0.9, 0.5, 0.1]","[u'low', u'high', u'medium']","blue",50,"middle","high","True","False",34,1700,NA
"A2ASTDMWBCFIP0","Sat Oct 31 2020 11:16:49 GMT-0400 (Eastern Daylight Time)","Sat Oct 31 2020 11:24:26 GMT-0400 (Eastern Daylight Time)","Mozilla/5.0 (Windows NT 10.0) AppleWebKit/537.36 (KHTML, like Gecko) Chrome/86.0.4240.111 Safari/537.36",24,"[0.9, 0.5, 0.1]","[0.8, 0.4, 0.2]","[u'red', u'blue', u'black']","[u'left', u'middle', u'right']","[0.9, 0.5, 0.1]","[u'low', u'high', u'medium']","blue",50,"middle","high","True","False",260,1800,NA
"A2ASTDMWBCFIP0","Sat Oct 31 2020 11:16:49 GMT-0400 (Eastern Daylight Time)","Sat Oct 31 2020 11:24:26 GMT-0400 (Eastern Daylight Time)","Mozilla/5.0 (Windows NT 10.0) AppleWebKit/537.36 (KHTML, like Gecko) Chrome/86.0.4240.111 Safari/537.36",25,"[0.9, 0.5, 0.1]","[0.8, 0.4, 0.2]","[u'red', u'blue', u'black']","[u'left', u'middle', u'right']","[0.9, 0.5, 0.1]","[u'low', u'high', u'medium']","blue",50,"middle","high","True","False",337,1900,NA
"A2ASTDMWBCFIP0","Sat Oct 31 2020 11:16:49 GMT-0400 (Eastern Daylight Time)","Sat Oct 31 2020 11:24:26 GMT-0400 (Eastern Daylight Time)","Mozilla/5.0 (Windows NT 10.0) AppleWebKit/537.36 (KHTML, like Gecko) Chrome/86.0.4240.111 Safari/537.36",26,"[0.9, 0.5, 0.1]","[0.8, 0.4, 0.2]","[u'red', u'blue', u'black']","[u'left', u'middle', u'right']","[0.9, 0.5, 0.1]","[u'low', u'high', u'medium']","blue",50,"middle","high","True","False",323,2000,NA
"A2ASTDMWBCFIP0","Sat Oct 31 2020 11:16:49 GMT-0400 (Eastern Daylight Time)","Sat Oct 31 2020 11:24:26 GMT-0400 (Eastern Daylight Time)","Mozilla/5.0 (Windows NT 10.0) AppleWebKit/537.36 (KHTML, like Gecko) Chrome/86.0.4240.111 Safari/537.36",27,"[0.9, 0.5, 0.1]","[0.8, 0.4, 0.2]","[u'red', u'blue', u'black']","[u'left', u'middle', u'right']","[0.9, 0.5, 0.1]","[u'low', u'high', u'medium']","blue",50,"middle","high","True","False",291,2100,NA
"A2ASTDMWBCFIP0","Sat Oct 31 2020 11:16:49 GMT-0400 (Eastern Daylight Time)","Sat Oct 31 2020 11:24:26 GMT-0400 (Eastern Daylight Time)","Mozilla/5.0 (Windows NT 10.0) AppleWebKit/537.36 (KHTML, like Gecko) Chrome/86.0.4240.111 Safari/537.36",28,"[0.9, 0.5, 0.1]","[0.8, 0.4, 0.2]","[u'red', u'blue', u'black']","[u'left', u'middle', u'right']","[0.9, 0.5, 0.1]","[u'low', u'high', u'medium']","blue",50,"middle","high","True","False",114,2200,NA
"A2ASTDMWBCFIP0","Sat Oct 31 2020 11:16:49 GMT-0400 (Eastern Daylight Time)","Sat Oct 31 2020 11:24:26 GMT-0400 (Eastern Daylight Time)","Mozilla/5.0 (Windows NT 10.0) AppleWebKit/537.36 (KHTML, like Gecko) Chrome/86.0.4240.111 Safari/537.36",29,"[0.9, 0.5, 0.1]","[0.8, 0.4, 0.2]","[u'red', u'blue', u'black']","[u'left', u'middle', u'right']","[0.9, 0.5, 0.1]","[u'low', u'high', u'medium']","blue",50,"middle","high","False","False",307,2150,NA
"A2ASTDMWBCFIP0","Sat Oct 31 2020 11:16:49 GMT-0400 (Eastern Daylight Time)","Sat Oct 31 2020 11:24:26 GMT-0400 (Eastern Daylight Time)","Mozilla/5.0 (Windows NT 10.0) AppleWebKit/537.36 (KHTML, like Gecko) Chrome/86.0.4240.111 Safari/537.36",30,"[0.9, 0.5, 0.1]","[0.8, 0.4, 0.2]","[u'red', u'blue', u'black']","[u'left', u'middle', u'right']","[0.9, 0.5, 0.1]","[u'low', u'high', u'medium']","black",51,"right","medium","True","False",227,2250,NA
"A2ASTDMWBCFIP0","Sat Oct 31 2020 11:16:49 GMT-0400 (Eastern Daylight Time)","Sat Oct 31 2020 11:24:26 GMT-0400 (Eastern Daylight Time)","Mozilla/5.0 (Windows NT 10.0) AppleWebKit/537.36 (KHTML, like Gecko) Chrome/86.0.4240.111 Safari/537.36",31,"[0.9, 0.5, 0.1]","[0.8, 0.4, 0.2]","[u'red', u'blue', u'black']","[u'left', u'middle', u'right']","[0.9, 0.5, 0.1]","[u'low', u'high', u'medium']","black",51,"right","medium","False","False",258,2200,NA
"A2ASTDMWBCFIP0","Sat Oct 31 2020 11:16:49 GMT-0400 (Eastern Daylight Time)","Sat Oct 31 2020 11:24:26 GMT-0400 (Eastern Daylight Time)","Mozilla/5.0 (Windows NT 10.0) AppleWebKit/537.36 (KHTML, like Gecko) Chrome/86.0.4240.111 Safari/537.36",32,"[0.9, 0.5, 0.1]","[0.8, 0.4, 0.2]","[u'red', u'blue', u'black']","[u'left', u'middle', u'right']","[0.9, 0.5, 0.1]","[u'low', u'high', u'medium']","blue",50,"middle","high","True","False",257,2300,NA
"A2ASTDMWBCFIP0","Sat Oct 31 2020 11:16:49 GMT-0400 (Eastern Daylight Time)","Sat Oct 31 2020 11:24:26 GMT-0400 (Eastern Daylight Time)","Mozilla/5.0 (Windows NT 10.0) AppleWebKit/537.36 (KHTML, like Gecko) Chrome/86.0.4240.111 Safari/537.36",33,"[0.9, 0.5, 0.1]","[0.8, 0.4, 0.2]","[u'red', u'blue', u'black']","[u'left', u'middle', u'right']","[0.9, 0.5, 0.1]","[u'low', u'high', u'medium']","blue",50,"middle","high","True","False",291,2400,NA
"A2ASTDMWBCFIP0","Sat Oct 31 2020 11:16:49 GMT-0400 (Eastern Daylight Time)","Sat Oct 31 2020 11:24:26 GMT-0400 (Eastern Daylight Time)","Mozilla/5.0 (Windows NT 10.0) AppleWebKit/537.36 (KHTML, like Gecko) Chrome/86.0.4240.111 Safari/537.36",34,"[0.9, 0.5, 0.1]","[0.8, 0.4, 0.2]","[u'red', u'blue', u'black']","[u'left', u'middle', u'right']","[0.9, 0.5, 0.1]","[u'low', u'high', u'medium']","blue",50,"middle","high","True","False",274,2500,NA
"A2ASTDMWBCFIP0","Sat Oct 31 2020 11:16:49 GMT-0400 (Eastern Daylight Time)","Sat Oct 31 2020 11:24:26 GMT-0400 (Eastern Daylight Time)","Mozilla/5.0 (Windows NT 10.0) AppleWebKit/537.36 (KHTML, like Gecko) Chrome/86.0.4240.111 Safari/537.36",35,"[0.9, 0.5, 0.1]","[0.8, 0.4, 0.2]","[u'red', u'blue', u'black']","[u'left', u'middle', u'right']","[0.9, 0.5, 0.1]","[u'low', u'high', u'medium']","blue",50,"middle","high","True","False",242,2600,NA
"A2ASTDMWBCFIP0","Sat Oct 31 2020 11:16:49 GMT-0400 (Eastern Daylight Time)","Sat Oct 31 2020 11:24:26 GMT-0400 (Eastern Daylight Time)","Mozilla/5.0 (Windows NT 10.0) AppleWebKit/537.36 (KHTML, like Gecko) Chrome/86.0.4240.111 Safari/537.36",36,"[0.9, 0.5, 0.1]","[0.8, 0.4, 0.2]","[u'red', u'blue', u'black']","[u'left', u'middle', u'right']","[0.9, 0.5, 0.1]","[u'low', u'high', u'medium']","blue",50,"middle","high","True","False",275,2700,NA
"A2ASTDMWBCFIP0","Sat Oct 31 2020 11:16:49 GMT-0400 (Eastern Daylight Time)","Sat Oct 31 2020 11:24:26 GMT-0400 (Eastern Daylight Time)","Mozilla/5.0 (Windows NT 10.0) AppleWebKit/537.36 (KHTML, like Gecko) Chrome/86.0.4240.111 Safari/537.36",37,"[0.9, 0.5, 0.1]","[0.8, 0.4, 0.2]","[u'red', u'blue', u'black']","[u'left', u'middle', u'right']","[0.9, 0.5, 0.1]","[u'low', u'high', u'medium']","blue",50,"middle","high","True","False",345,2800,NA
"A2ASTDMWBCFIP0","Sat Oct 31 2020 11:16:49 GMT-0400 (Eastern Daylight Time)","Sat Oct 31 2020 11:24:26 GMT-0400 (Eastern Daylight Time)","Mozilla/5.0 (Windows NT 10.0) AppleWebKit/537.36 (KHTML, like Gecko) Chrome/86.0.4240.111 Safari/537.36",38,"[0.9, 0.5, 0.1]","[0.8, 0.4, 0.2]","[u'red', u'blue', u'black']","[u'left', u'middle', u'right']","[0.9, 0.5, 0.1]","[u'low', u'high', u'medium']","blue",50,"middle","high","True","False",291,2900,NA
"A2ASTDMWBCFIP0","Sat Oct 31 2020 11:16:49 GMT-0400 (Eastern Daylight Time)","Sat Oct 31 2020 11:24:26 GMT-0400 (Eastern Daylight Time)","Mozilla/5.0 (Windows NT 10.0) AppleWebKit/537.36 (KHTML, like Gecko) Chrome/86.0.4240.111 Safari/537.36",39,"[0.9, 0.5, 0.1]","[0.8, 0.4, 0.2]","[u'red', u'blue', u'black']","[u'left', u'middle', u'right']","[0.9, 0.5, 0.1]","[u'low', u'high', u'medium']","blue",50,"middle","high","True","False",291,3000,NA
"A2ASTDMWBCFIP0","Sat Oct 31 2020 11:16:49 GMT-0400 (Eastern Daylight Time)","Sat Oct 31 2020 11:24:26 GMT-0400 (Eastern Daylight Time)","Mozilla/5.0 (Windows NT 10.0) AppleWebKit/537.36 (KHTML, like Gecko) Chrome/86.0.4240.111 Safari/537.36",40,"[0.9, 0.5, 0.1]","[0.8, 0.4, 0.2]","[u'red', u'blue', u'black']","[u'left', u'middle', u'right']","[0.9, 0.5, 0.1]","[u'low', u'high', u'medium']","blue",50,"middle","high","True","True",291,3100,NA
"A2ASTDMWBCFIP0","Sat Oct 31 2020 11:16:49 GMT-0400 (Eastern Daylight Time)","Sat Oct 31 2020 11:24:26 GMT-0400 (Eastern Daylight Time)","Mozilla/5.0 (Windows NT 10.0) AppleWebKit/537.36 (KHTML, like Gecko) Chrome/86.0.4240.111 Safari/537.36",41,"[0.9, 0.5, 0.1]","[0.8, 0.4, 0.2]","[u'red', u'blue', u'black']","[u'left', u'middle', u'right']","[0.9, 0.5, 0.1]","[u'medium', u'low', u'high']","blue",50,"middle","low","False","False",1098,3050,NA
"A2ASTDMWBCFIP0","Sat Oct 31 2020 11:16:49 GMT-0400 (Eastern Daylight Time)","Sat Oct 31 2020 11:24:26 GMT-0400 (Eastern Daylight Time)","Mozilla/5.0 (Windows NT 10.0) AppleWebKit/537.36 (KHTML, like Gecko) Chrome/86.0.4240.111 Safari/537.36",42,"[0.9, 0.5, 0.1]","[0.8, 0.4, 0.2]","[u'red', u'blue', u'black']","[u'left', u'middle', u'right']","[0.9, 0.5, 0.1]","[u'medium', u'low', u'high']","black",51,"right","high","True","False",258,3150,NA
"A2ASTDMWBCFIP0","Sat Oct 31 2020 11:16:49 GMT-0400 (Eastern Daylight Time)","Sat Oct 31 2020 11:24:26 GMT-0400 (Eastern Daylight Time)","Mozilla/5.0 (Windows NT 10.0) AppleWebKit/537.36 (KHTML, like Gecko) Chrome/86.0.4240.111 Safari/537.36",43,"[0.9, 0.5, 0.1]","[0.8, 0.4, 0.2]","[u'red', u'blue', u'black']","[u'left', u'middle', u'right']","[0.9, 0.5, 0.1]","[u'medium', u'low', u'high']","black",51,"right","high","True","False",306,3250,NA
"A2ASTDMWBCFIP0","Sat Oct 31 2020 11:16:49 GMT-0400 (Eastern Daylight Time)","Sat Oct 31 2020 11:24:26 GMT-0400 (Eastern Daylight Time)","Mozilla/5.0 (Windows NT 10.0) AppleWebKit/537.36 (KHTML, like Gecko) Chrome/86.0.4240.111 Safari/537.36",44,"[0.9, 0.5, 0.1]","[0.8, 0.4, 0.2]","[u'red', u'blue', u'black']","[u'left', u'middle', u'right']","[0.9, 0.5, 0.1]","[u'medium', u'low', u'high']","black",51,"right","high","True","False",258,3350,NA
"A2ASTDMWBCFIP0","Sat Oct 31 2020 11:16:49 GMT-0400 (Eastern Daylight Time)","Sat Oct 31 2020 11:24:26 GMT-0400 (Eastern Daylight Time)","Mozilla/5.0 (Windows NT 10.0) AppleWebKit/537.36 (KHTML, like Gecko) Chrome/86.0.4240.111 Safari/537.36",45,"[0.9, 0.5, 0.1]","[0.8, 0.4, 0.2]","[u'red', u'blue', u'black']","[u'left', u'middle', u'right']","[0.9, 0.5, 0.1]","[u'medium', u'low', u'high']","black",51,"right","high","True","False",337,3450,NA
"A2ASTDMWBCFIP0","Sat Oct 31 2020 11:16:49 GMT-0400 (Eastern Daylight Time)","Sat Oct 31 2020 11:24:26 GMT-0400 (Eastern Daylight Time)","Mozilla/5.0 (Windows NT 10.0) AppleWebKit/537.36 (KHTML, like Gecko) Chrome/86.0.4240.111 Safari/537.36",46,"[0.9, 0.5, 0.1]","[0.8, 0.4, 0.2]","[u'red', u'blue', u'black']","[u'left', u'middle', u'right']","[0.9, 0.5, 0.1]","[u'medium', u'low', u'high']","black",51,"right","high","True","False",339,3550,NA
"A2ASTDMWBCFIP0","Sat Oct 31 2020 11:16:49 GMT-0400 (Eastern Daylight Time)","Sat Oct 31 2020 11:24:26 GMT-0400 (Eastern Daylight Time)","Mozilla/5.0 (Windows NT 10.0) AppleWebKit/537.36 (KHTML, like Gecko) Chrome/86.0.4240.111 Safari/537.36",47,"[0.9, 0.5, 0.1]","[0.8, 0.4, 0.2]","[u'red', u'blue', u'black']","[u'left', u'middle', u'right']","[0.9, 0.5, 0.1]","[u'medium', u'low', u'high']","black",51,"right","high","True","False",337,3650,NA
"A2ASTDMWBCFIP0","Sat Oct 31 2020 11:16:49 GMT-0400 (Eastern Daylight Time)","Sat Oct 31 2020 11:24:26 GMT-0400 (Eastern Daylight Time)","Mozilla/5.0 (Windows NT 10.0) AppleWebKit/537.36 (KHTML, like Gecko) Chrome/86.0.4240.111 Safari/537.36",48,"[0.9, 0.5, 0.1]","[0.8, 0.4, 0.2]","[u'red', u'blue', u'black']","[u'left', u'middle', u'right']","[0.9, 0.5, 0.1]","[u'medium', u'low', u'high']","black",51,"right","high","True","False",338,3750,NA
"A2ASTDMWBCFIP0","Sat Oct 31 2020 11:16:49 GMT-0400 (Eastern Daylight Time)","Sat Oct 31 2020 11:24:26 GMT-0400 (Eastern Daylight Time)","Mozilla/5.0 (Windows NT 10.0) AppleWebKit/537.36 (KHTML, like Gecko) Chrome/86.0.4240.111 Safari/537.36",49,"[0.9, 0.5, 0.1]","[0.8, 0.4, 0.2]","[u'red', u'blue', u'black']","[u'left', u'middle', u'right']","[0.9, 0.5, 0.1]","[u'medium', u'low', u'high']","black",51,"right","high","True","False",306,3850,NA
"A2ASTDMWBCFIP0","Sat Oct 31 2020 11:16:49 GMT-0400 (Eastern Daylight Time)","Sat Oct 31 2020 11:24:26 GMT-0400 (Eastern Daylight Time)","Mozilla/5.0 (Windows NT 10.0) AppleWebKit/537.36 (KHTML, like Gecko) Chrome/86.0.4240.111 Safari/537.36",50,"[0.9, 0.5, 0.1]","[0.8, 0.4, 0.2]","[u'red', u'blue', u'black']","[u'left', u'middle', u'right']","[0.9, 0.5, 0.1]","[u'medium', u'low', u'high']","black",51,"right","high","True","True",306,3950,NA
"A2ASTDMWBCFIP0","Sat Oct 31 2020 11:16:49 GMT-0400 (Eastern Daylight Time)","Sat Oct 31 2020 11:24:26 GMT-0400 (Eastern Daylight Time)","Mozilla/5.0 (Windows NT 10.0) AppleWebKit/537.36 (KHTML, like Gecko) Chrome/86.0.4240.111 Safari/537.36",51,"[0.9, 0.5, 0.1]","[0.8, 0.4, 0.2]","[u'red', u'blue', u'black']","[u'left', u'middle', u'right']","[0.9, 0.5, 0.1]","[u'high', u'medium', u'low']","black",51,"right","low","False","False",307,3900,NA
"A2ASTDMWBCFIP0","Sat Oct 31 2020 11:16:49 GMT-0400 (Eastern Daylight Time)","Sat Oct 31 2020 11:24:26 GMT-0400 (Eastern Daylight Time)","Mozilla/5.0 (Windows NT 10.0) AppleWebKit/537.36 (KHTML, like Gecko) Chrome/86.0.4240.111 Safari/537.36",52,"[0.9, 0.5, 0.1]","[0.8, 0.4, 0.2]","[u'red', u'blue', u'black']","[u'left', u'middle', u'right']","[0.9, 0.5, 0.1]","[u'high', u'medium', u'low']","blue",50,"middle","medium","True","False",228,4000,NA
"A2ASTDMWBCFIP0","Sat Oct 31 2020 11:16:49 GMT-0400 (Eastern Daylight Time)","Sat Oct 31 2020 11:24:26 GMT-0400 (Eastern Daylight Time)","Mozilla/5.0 (Windows NT 10.0) AppleWebKit/537.36 (KHTML, like Gecko) Chrome/86.0.4240.111 Safari/537.36",53,"[0.9, 0.5, 0.1]","[0.8, 0.4, 0.2]","[u'red', u'blue', u'black']","[u'left', u'middle', u'right']","[0.9, 0.5, 0.1]","[u'high', u'medium', u'low']","blue",50,"middle","medium","True","False",257,4100,NA
"A2ASTDMWBCFIP0","Sat Oct 31 2020 11:16:49 GMT-0400 (Eastern Daylight Time)","Sat Oct 31 2020 11:24:26 GMT-0400 (Eastern Daylight Time)","Mozilla/5.0 (Windows NT 10.0) AppleWebKit/537.36 (KHTML, like Gecko) Chrome/86.0.4240.111 Safari/537.36",54,"[0.9, 0.5, 0.1]","[0.8, 0.4, 0.2]","[u'red', u'blue', u'black']","[u'left', u'middle', u'right']","[0.9, 0.5, 0.1]","[u'high', u'medium', u'low']","blue",50,"middle","medium","False","False",226,4050,NA
"A2ASTDMWBCFIP0","Sat Oct 31 2020 11:16:49 GMT-0400 (Eastern Daylight Time)","Sat Oct 31 2020 11:24:26 GMT-0400 (Eastern Daylight Time)","Mozilla/5.0 (Windows NT 10.0) AppleWebKit/537.36 (KHTML, like Gecko) Chrome/86.0.4240.111 Safari/537.36",55,"[0.9, 0.5, 0.1]","[0.8, 0.4, 0.2]","[u'red', u'blue', u'black']","[u'left', u'middle', u'right']","[0.9, 0.5, 0.1]","[u'high', u'medium', u'low']","black",51,"right","low","False","False",242,4000,NA
"A2ASTDMWBCFIP0","Sat Oct 31 2020 11:16:49 GMT-0400 (Eastern Daylight Time)","Sat Oct 31 2020 11:24:26 GMT-0400 (Eastern Daylight Time)","Mozilla/5.0 (Windows NT 10.0) AppleWebKit/537.36 (KHTML, like Gecko) Chrome/86.0.4240.111 Safari/537.36",56,"[0.9, 0.5, 0.1]","[0.8, 0.4, 0.2]","[u'red', u'blue', u'black']","[u'left', u'middle', u'right']","[0.9, 0.5, 0.1]","[u'high', u'medium', u'low']","blue",50,"middle","medium","True","False",162,4100,NA
"A2ASTDMWBCFIP0","Sat Oct 31 2020 11:16:49 GMT-0400 (Eastern Daylight Time)","Sat Oct 31 2020 11:24:26 GMT-0400 (Eastern Daylight Time)","Mozilla/5.0 (Windows NT 10.0) AppleWebKit/537.36 (KHTML, like Gecko) Chrome/86.0.4240.111 Safari/537.36",57,"[0.9, 0.5, 0.1]","[0.8, 0.4, 0.2]","[u'red', u'blue', u'black']","[u'left', u'middle', u'right']","[0.9, 0.5, 0.1]","[u'high', u'medium', u'low']","blue",50,"middle","medium","True","False",282,4200,NA
"A2ASTDMWBCFIP0","Sat Oct 31 2020 11:16:49 GMT-0400 (Eastern Daylight Time)","Sat Oct 31 2020 11:24:26 GMT-0400 (Eastern Daylight Time)","Mozilla/5.0 (Windows NT 10.0) AppleWebKit/537.36 (KHTML, like Gecko) Chrome/86.0.4240.111 Safari/537.36",58,"[0.9, 0.5, 0.1]","[0.8, 0.4, 0.2]","[u'red', u'blue', u'black']","[u'left', u'middle', u'right']","[0.9, 0.5, 0.1]","[u'high', u'medium', u'low']","blue",50,"middle","medium","True","False",243,4300,NA
"A2ASTDMWBCFIP0","Sat Oct 31 2020 11:16:49 GMT-0400 (Eastern Daylight Time)","Sat Oct 31 2020 11:24:26 GMT-0400 (Eastern Daylight Time)","Mozilla/5.0 (Windows NT 10.0) AppleWebKit/537.36 (KHTML, like Gecko) Chrome/86.0.4240.111 Safari/537.36",59,"[0.9, 0.5, 0.1]","[0.8, 0.4, 0.2]","[u'red', u'blue', u'black']","[u'left', u'middle', u'right']","[0.9, 0.5, 0.1]","[u'high', u'medium', u'low']","blue",50,"middle","medium","True","False",209,4400,NA
"A2ASTDMWBCFIP0","Sat Oct 31 2020 11:16:49 GMT-0400 (Eastern Daylight Time)","Sat Oct 31 2020 11:24:26 GMT-0400 (Eastern Daylight Time)","Mozilla/5.0 (Windows NT 10.0) AppleWebKit/537.36 (KHTML, like Gecko) Chrome/86.0.4240.111 Safari/537.36",60,"[0.9, 0.5, 0.1]","[0.8, 0.4, 0.2]","[u'red', u'blue', u'black']","[u'left', u'middle', u'right']","[0.9, 0.5, 0.1]","[u'high', u'medium', u'low']","blue",50,"middle","medium","False","False",258,4350,NA
"A2ASTDMWBCFIP0","Sat Oct 31 2020 11:16:49 GMT-0400 (Eastern Daylight Time)","Sat Oct 31 2020 11:24:26 GMT-0400 (Eastern Daylight Time)","Mozilla/5.0 (Windows NT 10.0) AppleWebKit/537.36 (KHTML, like Gecko) Chrome/86.0.4240.111 Safari/537.36",61,"[0.9, 0.5, 0.1]","[0.8, 0.4, 0.2]","[u'red', u'blue', u'black']","[u'left', u'middle', u'right']","[0.9, 0.5, 0.1]","[u'high', u'medium', u'low']","blue",50,"middle","medium","False","False",210,4300,NA
"A2ASTDMWBCFIP0","Sat Oct 31 2020 11:16:49 GMT-0400 (Eastern Daylight Time)","Sat Oct 31 2020 11:24:26 GMT-0400 (Eastern Daylight Time)","Mozilla/5.0 (Windows NT 10.0) AppleWebKit/537.36 (KHTML, like Gecko) Chrome/86.0.4240.111 Safari/537.36",62,"[0.9, 0.5, 0.1]","[0.8, 0.4, 0.2]","[u'red', u'blue', u'black']","[u'left', u'middle', u'right']","[0.9, 0.5, 0.1]","[u'high', u'medium', u'low']","black",51,"right","low","False","False",242,4250,NA
"A2ASTDMWBCFIP0","Sat Oct 31 2020 11:16:49 GMT-0400 (Eastern Daylight Time)","Sat Oct 31 2020 11:24:26 GMT-0400 (Eastern Daylight Time)","Mozilla/5.0 (Windows NT 10.0) AppleWebKit/537.36 (KHTML, like Gecko) Chrome/86.0.4240.111 Safari/537.36",63,"[0.9, 0.5, 0.1]","[0.8, 0.4, 0.2]","[u'red', u'blue', u'black']","[u'left', u'middle', u'right']","[0.9, 0.5, 0.1]","[u'high', u'medium', u'low']","blue",50,"middle","medium","True","False",323,4350,NA
"A2ASTDMWBCFIP0","Sat Oct 31 2020 11:16:49 GMT-0400 (Eastern Daylight Time)","Sat Oct 31 2020 11:24:26 GMT-0400 (Eastern Daylight Time)","Mozilla/5.0 (Windows NT 10.0) AppleWebKit/537.36 (KHTML, like Gecko) Chrome/86.0.4240.111 Safari/537.36",64,"[0.9, 0.5, 0.1]","[0.8, 0.4, 0.2]","[u'red', u'blue', u'black']","[u'left', u'middle', u'right']","[0.9, 0.5, 0.1]","[u'high', u'medium', u'low']","blue",50,"middle","medium","False","False",356,4300,NA
"A2ASTDMWBCFIP0","Sat Oct 31 2020 11:16:49 GMT-0400 (Eastern Daylight Time)","Sat Oct 31 2020 11:24:26 GMT-0400 (Eastern Daylight Time)","Mozilla/5.0 (Windows NT 10.0) AppleWebKit/537.36 (KHTML, like Gecko) Chrome/86.0.4240.111 Safari/537.36",65,"[0.9, 0.5, 0.1]","[0.8, 0.4, 0.2]","[u'red', u'blue', u'black']","[u'left', u'middle', u'right']","[0.9, 0.5, 0.1]","[u'high', u'medium', u'low']","blue",50,"middle","medium","True","False",226,4400,NA
"A2ASTDMWBCFIP0","Sat Oct 31 2020 11:16:49 GMT-0400 (Eastern Daylight Time)","Sat Oct 31 2020 11:24:26 GMT-0400 (Eastern Daylight Time)","Mozilla/5.0 (Windows NT 10.0) AppleWebKit/537.36 (KHTML, like Gecko) Chrome/86.0.4240.111 Safari/537.36",66,"[0.9, 0.5, 0.1]","[0.8, 0.4, 0.2]","[u'red', u'blue', u'black']","[u'left', u'middle', u'right']","[0.9, 0.5, 0.1]","[u'high', u'medium', u'low']","blue",50,"middle","medium","True","False",323,4500,NA
"A2ASTDMWBCFIP0","Sat Oct 31 2020 11:16:49 GMT-0400 (Eastern Daylight Time)","Sat Oct 31 2020 11:24:26 GMT-0400 (Eastern Daylight Time)","Mozilla/5.0 (Windows NT 10.0) AppleWebKit/537.36 (KHTML, like Gecko) Chrome/86.0.4240.111 Safari/537.36",67,"[0.9, 0.5, 0.1]","[0.8, 0.4, 0.2]","[u'red', u'blue', u'black']","[u'left', u'middle', u'right']","[0.9, 0.5, 0.1]","[u'high', u'medium', u'low']","blue",50,"middle","medium","True","False",292,4600,NA
"A2ASTDMWBCFIP0","Sat Oct 31 2020 11:16:49 GMT-0400 (Eastern Daylight Time)","Sat Oct 31 2020 11:24:26 GMT-0400 (Eastern Daylight Time)","Mozilla/5.0 (Windows NT 10.0) AppleWebKit/537.36 (KHTML, like Gecko) Chrome/86.0.4240.111 Safari/537.36",68,"[0.9, 0.5, 0.1]","[0.8, 0.4, 0.2]","[u'red', u'blue', u'black']","[u'left', u'middle', u'right']","[0.9, 0.5, 0.1]","[u'high', u'medium', u'low']","blue",50,"middle","medium","True","False",243,4700,NA
"A2ASTDMWBCFIP0","Sat Oct 31 2020 11:16:49 GMT-0400 (Eastern Daylight Time)","Sat Oct 31 2020 11:24:26 GMT-0400 (Eastern Daylight Time)","Mozilla/5.0 (Windows NT 10.0) AppleWebKit/537.36 (KHTML, like Gecko) Chrome/86.0.4240.111 Safari/537.36",69,"[0.9, 0.5, 0.1]","[0.8, 0.4, 0.2]","[u'red', u'blue', u'black']","[u'left', u'middle', u'right']","[0.9, 0.5, 0.1]","[u'high', u'medium', u'low']","blue",50,"middle","medium","False","False",339,4650,NA
"A2ASTDMWBCFIP0","Sat Oct 31 2020 11:16:49 GMT-0400 (Eastern Daylight Time)","Sat Oct 31 2020 11:24:26 GMT-0400 (Eastern Daylight Time)","Mozilla/5.0 (Windows NT 10.0) AppleWebKit/537.36 (KHTML, like Gecko) Chrome/86.0.4240.111 Safari/537.36",70,"[0.9, 0.5, 0.1]","[0.8, 0.4, 0.2]","[u'red', u'blue', u'black']","[u'left', u'middle', u'right']","[0.9, 0.5, 0.1]","[u'high', u'medium', u'low']","black",51,"right","low","False","False",308,4600,NA
"A2ASTDMWBCFIP0","Sat Oct 31 2020 11:16:49 GMT-0400 (Eastern Daylight Time)","Sat Oct 31 2020 11:24:26 GMT-0400 (Eastern Daylight Time)","Mozilla/5.0 (Windows NT 10.0) AppleWebKit/537.36 (KHTML, like Gecko) Chrome/86.0.4240.111 Safari/537.36",71,"[0.9, 0.5, 0.1]","[0.8, 0.4, 0.2]","[u'red', u'blue', u'black']","[u'left', u'middle', u'right']","[0.9, 0.5, 0.1]","[u'high', u'medium', u'low']","blue",50,"middle","medium","False","False",242,4550,NA
"A2ASTDMWBCFIP0","Sat Oct 31 2020 11:16:49 GMT-0400 (Eastern Daylight Time)","Sat Oct 31 2020 11:24:26 GMT-0400 (Eastern Daylight Time)","Mozilla/5.0 (Windows NT 10.0) AppleWebKit/537.36 (KHTML, like Gecko) Chrome/86.0.4240.111 Safari/537.36",72,"[0.9, 0.5, 0.1]","[0.8, 0.4, 0.2]","[u'red', u'blue', u'black']","[u'left', u'middle', u'right']","[0.9, 0.5, 0.1]","[u'high', u'medium', u'low']","blue",50,"middle","medium","True","False",307,4650,NA
"A2ASTDMWBCFIP0","Sat Oct 31 2020 11:16:49 GMT-0400 (Eastern Daylight Time)","Sat Oct 31 2020 11:24:26 GMT-0400 (Eastern Daylight Time)","Mozilla/5.0 (Windows NT 10.0) AppleWebKit/537.36 (KHTML, like Gecko) Chrome/86.0.4240.111 Safari/537.36",73,"[0.9, 0.5, 0.1]","[0.8, 0.4, 0.2]","[u'red', u'blue', u'black']","[u'left', u'middle', u'right']","[0.9, 0.5, 0.1]","[u'high', u'medium', u'low']","blue",50,"middle","medium","False","False",321,4600,NA
"A2ASTDMWBCFIP0","Sat Oct 31 2020 11:16:49 GMT-0400 (Eastern Daylight Time)","Sat Oct 31 2020 11:24:26 GMT-0400 (Eastern Daylight Time)","Mozilla/5.0 (Windows NT 10.0) AppleWebKit/537.36 (KHTML, like Gecko) Chrome/86.0.4240.111 Safari/537.36",74,"[0.9, 0.5, 0.1]","[0.8, 0.4, 0.2]","[u'red', u'blue', u'black']","[u'left', u'middle', u'right']","[0.9, 0.5, 0.1]","[u'high', u'medium', u'low']","red",49,"left","high","True","False",323,4700,NA
"A2ASTDMWBCFIP0","Sat Oct 31 2020 11:16:49 GMT-0400 (Eastern Daylight Time)","Sat Oct 31 2020 11:24:26 GMT-0400 (Eastern Daylight Time)","Mozilla/5.0 (Windows NT 10.0) AppleWebKit/537.36 (KHTML, like Gecko) Chrome/86.0.4240.111 Safari/537.36",75,"[0.9, 0.5, 0.1]","[0.8, 0.4, 0.2]","[u'red', u'blue', u'black']","[u'left', u'middle', u'right']","[0.9, 0.5, 0.1]","[u'high', u'medium', u'low']","red",49,"left","high","False","False",259,4650,NA
"A2ASTDMWBCFIP0","Sat Oct 31 2020 11:16:49 GMT-0400 (Eastern Daylight Time)","Sat Oct 31 2020 11:24:26 GMT-0400 (Eastern Daylight Time)","Mozilla/5.0 (Windows NT 10.0) AppleWebKit/537.36 (KHTML, like Gecko) Chrome/86.0.4240.111 Safari/537.36",76,"[0.9, 0.5, 0.1]","[0.8, 0.4, 0.2]","[u'red', u'blue', u'black']","[u'left', u'middle', u'right']","[0.9, 0.5, 0.1]","[u'high', u'medium', u'low']","blue",50,"middle","medium","True","False",244,4750,NA
"A2ASTDMWBCFIP0","Sat Oct 31 2020 11:16:49 GMT-0400 (Eastern Daylight Time)","Sat Oct 31 2020 11:24:26 GMT-0400 (Eastern Daylight Time)","Mozilla/5.0 (Windows NT 10.0) AppleWebKit/537.36 (KHTML, like Gecko) Chrome/86.0.4240.111 Safari/537.36",77,"[0.9, 0.5, 0.1]","[0.8, 0.4, 0.2]","[u'red', u'blue', u'black']","[u'left', u'middle', u'right']","[0.9, 0.5, 0.1]","[u'high', u'medium', u'low']","blue",50,"middle","medium","False","False",305,4700,NA
"A2ASTDMWBCFIP0","Sat Oct 31 2020 11:16:49 GMT-0400 (Eastern Daylight Time)","Sat Oct 31 2020 11:24:26 GMT-0400 (Eastern Daylight Time)","Mozilla/5.0 (Windows NT 10.0) AppleWebKit/537.36 (KHTML, like Gecko) Chrome/86.0.4240.111 Safari/537.36",78,"[0.9, 0.5, 0.1]","[0.8, 0.4, 0.2]","[u'red', u'blue', u'black']","[u'left', u'middle', u'right']","[0.9, 0.5, 0.1]","[u'high', u'medium', u'low']","black",51,"right","low","False","False",242,4650,NA
"A2ASTDMWBCFIP0","Sat Oct 31 2020 11:16:49 GMT-0400 (Eastern Daylight Time)","Sat Oct 31 2020 11:24:26 GMT-0400 (Eastern Daylight Time)","Mozilla/5.0 (Windows NT 10.0) AppleWebKit/537.36 (KHTML, like Gecko) Chrome/86.0.4240.111 Safari/537.36",79,"[0.9, 0.5, 0.1]","[0.8, 0.4, 0.2]","[u'red', u'blue', u'black']","[u'left', u'middle', u'right']","[0.9, 0.5, 0.1]","[u'high', u'medium', u'low']","blue",50,"middle","medium","True","False",243,4750,NA
"A2ASTDMWBCFIP0","Sat Oct 31 2020 11:16:49 GMT-0400 (Eastern Daylight Time)","Sat Oct 31 2020 11:24:26 GMT-0400 (Eastern Daylight Time)","Mozilla/5.0 (Windows NT 10.0) AppleWebKit/537.36 (KHTML, like Gecko) Chrome/86.0.4240.111 Safari/537.36",80,"[0.9, 0.5, 0.1]","[0.8, 0.4, 0.2]","[u'red', u'blue', u'black']","[u'left', u'middle', u'right']","[0.9, 0.5, 0.1]","[u'high', u'medium', u'low']","blue",50,"middle","medium","True","False",154,4850,NA
"A2ASTDMWBCFIP0","Sat Oct 31 2020 11:16:49 GMT-0400 (Eastern Daylight Time)","Sat Oct 31 2020 11:24:26 GMT-0400 (Eastern Daylight Time)","Mozilla/5.0 (Windows NT 10.0) AppleWebKit/537.36 (KHTML, like Gecko) Chrome/86.0.4240.111 Safari/537.36",81,"[0.9, 0.5, 0.1]","[0.8, 0.4, 0.2]","[u'red', u'blue', u'black']","[u'left', u'middle', u'right']","[0.8, 0.4, 0.2]","[u'medium', u'high', u'low']","blue",50,"middle","high","True","False",554,4950,NA
"A2ASTDMWBCFIP0","Sat Oct 31 2020 11:16:49 GMT-0400 (Eastern Daylight Time)","Sat Oct 31 2020 11:24:26 GMT-0400 (Eastern Daylight Time)","Mozilla/5.0 (Windows NT 10.0) AppleWebKit/537.36 (KHTML, like Gecko) Chrome/86.0.4240.111 Safari/537.36",82,"[0.9, 0.5, 0.1]","[0.8, 0.4, 0.2]","[u'red', u'blue', u'black']","[u'left', u'middle', u'right']","[0.8, 0.4, 0.2]","[u'medium', u'high', u'low']","blue",50,"middle","high","False","False",258,4900,NA
"A2ASTDMWBCFIP0","Sat Oct 31 2020 11:16:49 GMT-0400 (Eastern Daylight Time)","Sat Oct 31 2020 11:24:26 GMT-0400 (Eastern Daylight Time)","Mozilla/5.0 (Windows NT 10.0) AppleWebKit/537.36 (KHTML, like Gecko) Chrome/86.0.4240.111 Safari/537.36",83,"[0.9, 0.5, 0.1]","[0.8, 0.4, 0.2]","[u'red', u'blue', u'black']","[u'left', u'middle', u'right']","[0.8, 0.4, 0.2]","[u'medium', u'high', u'low']","blue",50,"middle","high","False","False",242,4850,NA
"A2ASTDMWBCFIP0","Sat Oct 31 2020 11:16:49 GMT-0400 (Eastern Daylight Time)","Sat Oct 31 2020 11:24:26 GMT-0400 (Eastern Daylight Time)","Mozilla/5.0 (Windows NT 10.0) AppleWebKit/537.36 (KHTML, like Gecko) Chrome/86.0.4240.111 Safari/537.36",84,"[0.9, 0.5, 0.1]","[0.8, 0.4, 0.2]","[u'red', u'blue', u'black']","[u'left', u'middle', u'right']","[0.8, 0.4, 0.2]","[u'medium', u'high', u'low']","blue",50,"middle","high","False","False",322,4800,NA
"A2ASTDMWBCFIP0","Sat Oct 31 2020 11:16:49 GMT-0400 (Eastern Daylight Time)","Sat Oct 31 2020 11:24:26 GMT-0400 (Eastern Daylight Time)","Mozilla/5.0 (Windows NT 10.0) AppleWebKit/537.36 (KHTML, like Gecko) Chrome/86.0.4240.111 Safari/537.36",85,"[0.9, 0.5, 0.1]","[0.8, 0.4, 0.2]","[u'red', u'blue', u'black']","[u'left', u'middle', u'right']","[0.8, 0.4, 0.2]","[u'medium', u'high', u'low']","black",51,"right","low","False","False",274,4750,NA
"A2ASTDMWBCFIP0","Sat Oct 31 2020 11:16:49 GMT-0400 (Eastern Daylight Time)","Sat Oct 31 2020 11:24:26 GMT-0400 (Eastern Daylight Time)","Mozilla/5.0 (Windows NT 10.0) AppleWebKit/537.36 (KHTML, like Gecko) Chrome/86.0.4240.111 Safari/537.36",86,"[0.9, 0.5, 0.1]","[0.8, 0.4, 0.2]","[u'red', u'blue', u'black']","[u'left', u'middle', u'right']","[0.8, 0.4, 0.2]","[u'medium', u'high', u'low']","red",49,"left","medium","True","False",242,4850,NA
"A2ASTDMWBCFIP0","Sat Oct 31 2020 11:16:49 GMT-0400 (Eastern Daylight Time)","Sat Oct 31 2020 11:24:26 GMT-0400 (Eastern Daylight Time)","Mozilla/5.0 (Windows NT 10.0) AppleWebKit/537.36 (KHTML, like Gecko) Chrome/86.0.4240.111 Safari/537.36",87,"[0.9, 0.5, 0.1]","[0.8, 0.4, 0.2]","[u'red', u'blue', u'black']","[u'left', u'middle', u'right']","[0.8, 0.4, 0.2]","[u'medium', u'high', u'low']","red",49,"left","medium","True","False",259,4950,NA
"A2ASTDMWBCFIP0","Sat Oct 31 2020 11:16:49 GMT-0400 (Eastern Daylight Time)","Sat Oct 31 2020 11:24:26 GMT-0400 (Eastern Daylight Time)","Mozilla/5.0 (Windows NT 10.0) AppleWebKit/537.36 (KHTML, like Gecko) Chrome/86.0.4240.111 Safari/537.36",88,"[0.9, 0.5, 0.1]","[0.8, 0.4, 0.2]","[u'red', u'blue', u'black']","[u'left', u'middle', u'right']","[0.8, 0.4, 0.2]","[u'medium', u'high', u'low']","red",49,"left","medium","False","False",289,4900,NA
"A2ASTDMWBCFIP0","Sat Oct 31 2020 11:16:49 GMT-0400 (Eastern Daylight Time)","Sat Oct 31 2020 11:24:26 GMT-0400 (Eastern Daylight Time)","Mozilla/5.0 (Windows NT 10.0) AppleWebKit/537.36 (KHTML, like Gecko) Chrome/86.0.4240.111 Safari/537.36",89,"[0.9, 0.5, 0.1]","[0.8, 0.4, 0.2]","[u'red', u'blue', u'black']","[u'left', u'middle', u'right']","[0.8, 0.4, 0.2]","[u'medium', u'high', u'low']","blue",50,"middle","high","False","False",243,4850,NA
"A2ASTDMWBCFIP0","Sat Oct 31 2020 11:16:49 GMT-0400 (Eastern Daylight Time)","Sat Oct 31 2020 11:24:26 GMT-0400 (Eastern Daylight Time)","Mozilla/5.0 (Windows NT 10.0) AppleWebKit/537.36 (KHTML, like Gecko) Chrome/86.0.4240.111 Safari/537.36",90,"[0.9, 0.5, 0.1]","[0.8, 0.4, 0.2]","[u'red', u'blue', u'black']","[u'left', u'middle', u'right']","[0.8, 0.4, 0.2]","[u'medium', u'high', u'low']","red",49,"left","medium","False","False",306,4800,NA
"A2ASTDMWBCFIP0","Sat Oct 31 2020 11:16:49 GMT-0400 (Eastern Daylight Time)","Sat Oct 31 2020 11:24:26 GMT-0400 (Eastern Daylight Time)","Mozilla/5.0 (Windows NT 10.0) AppleWebKit/537.36 (KHTML, like Gecko) Chrome/86.0.4240.111 Safari/537.36",91,"[0.9, 0.5, 0.1]","[0.8, 0.4, 0.2]","[u'red', u'blue', u'black']","[u'left', u'middle', u'right']","[0.8, 0.4, 0.2]","[u'medium', u'high', u'low']","black",51,"right","low","True","False",290,4900,NA
"A2ASTDMWBCFIP0","Sat Oct 31 2020 11:16:49 GMT-0400 (Eastern Daylight Time)","Sat Oct 31 2020 11:24:26 GMT-0400 (Eastern Daylight Time)","Mozilla/5.0 (Windows NT 10.0) AppleWebKit/537.36 (KHTML, like Gecko) Chrome/86.0.4240.111 Safari/537.36",92,"[0.9, 0.5, 0.1]","[0.8, 0.4, 0.2]","[u'red', u'blue', u'black']","[u'left', u'middle', u'right']","[0.8, 0.4, 0.2]","[u'medium', u'high', u'low']","black",51,"right","low","False","False",290,4850,NA
"A2ASTDMWBCFIP0","Sat Oct 31 2020 11:16:49 GMT-0400 (Eastern Daylight Time)","Sat Oct 31 2020 11:24:26 GMT-0400 (Eastern Daylight Time)","Mozilla/5.0 (Windows NT 10.0) AppleWebKit/537.36 (KHTML, like Gecko) Chrome/86.0.4240.111 Safari/537.36",93,"[0.9, 0.5, 0.1]","[0.8, 0.4, 0.2]","[u'red', u'blue', u'black']","[u'left', u'middle', u'right']","[0.8, 0.4, 0.2]","[u'medium', u'high', u'low']","blue",50,"middle","high","True","False",195,4950,NA
"A2ASTDMWBCFIP0","Sat Oct 31 2020 11:16:49 GMT-0400 (Eastern Daylight Time)","Sat Oct 31 2020 11:24:26 GMT-0400 (Eastern Daylight Time)","Mozilla/5.0 (Windows NT 10.0) AppleWebKit/537.36 (KHTML, like Gecko) Chrome/86.0.4240.111 Safari/537.36",94,"[0.9, 0.5, 0.1]","[0.8, 0.4, 0.2]","[u'red', u'blue', u'black']","[u'left', u'middle', u'right']","[0.8, 0.4, 0.2]","[u'medium', u'high', u'low']","blue",50,"middle","high","True","False",242,5050,NA
"A2ASTDMWBCFIP0","Sat Oct 31 2020 11:16:49 GMT-0400 (Eastern Daylight Time)","Sat Oct 31 2020 11:24:26 GMT-0400 (Eastern Daylight Time)","Mozilla/5.0 (Windows NT 10.0) AppleWebKit/537.36 (KHTML, like Gecko) Chrome/86.0.4240.111 Safari/537.36",95,"[0.9, 0.5, 0.1]","[0.8, 0.4, 0.2]","[u'red', u'blue', u'black']","[u'left', u'middle', u'right']","[0.8, 0.4, 0.2]","[u'medium', u'high', u'low']","blue",50,"middle","high","True","False",227,5150,NA
"A2ASTDMWBCFIP0","Sat Oct 31 2020 11:16:49 GMT-0400 (Eastern Daylight Time)","Sat Oct 31 2020 11:24:26 GMT-0400 (Eastern Daylight Time)","Mozilla/5.0 (Windows NT 10.0) AppleWebKit/537.36 (KHTML, like Gecko) Chrome/86.0.4240.111 Safari/537.36",96,"[0.9, 0.5, 0.1]","[0.8, 0.4, 0.2]","[u'red', u'blue', u'black']","[u'left', u'middle', u'right']","[0.8, 0.4, 0.2]","[u'medium', u'high', u'low']","blue",50,"middle","high","True","False",226,5250,NA
"A2ASTDMWBCFIP0","Sat Oct 31 2020 11:16:49 GMT-0400 (Eastern Daylight Time)","Sat Oct 31 2020 11:24:26 GMT-0400 (Eastern Daylight Time)","Mozilla/5.0 (Windows NT 10.0) AppleWebKit/537.36 (KHTML, like Gecko) Chrome/86.0.4240.111 Safari/537.36",97,"[0.9, 0.5, 0.1]","[0.8, 0.4, 0.2]","[u'red', u'blue', u'black']","[u'left', u'middle', u'right']","[0.8, 0.4, 0.2]","[u'medium', u'high', u'low']","blue",50,"middle","high","True","False",275,5350,NA
"A2ASTDMWBCFIP0","Sat Oct 31 2020 11:16:49 GMT-0400 (Eastern Daylight Time)","Sat Oct 31 2020 11:24:26 GMT-0400 (Eastern Daylight Time)","Mozilla/5.0 (Windows NT 10.0) AppleWebKit/537.36 (KHTML, like Gecko) Chrome/86.0.4240.111 Safari/537.36",98,"[0.9, 0.5, 0.1]","[0.8, 0.4, 0.2]","[u'red', u'blue', u'black']","[u'left', u'middle', u'right']","[0.8, 0.4, 0.2]","[u'medium', u'high', u'low']","blue",50,"middle","high","False","False",195,5300,NA
"A2ASTDMWBCFIP0","Sat Oct 31 2020 11:16:49 GMT-0400 (Eastern Daylight Time)","Sat Oct 31 2020 11:24:26 GMT-0400 (Eastern Daylight Time)","Mozilla/5.0 (Windows NT 10.0) AppleWebKit/537.36 (KHTML, like Gecko) Chrome/86.0.4240.111 Safari/537.36",99,"[0.9, 0.5, 0.1]","[0.8, 0.4, 0.2]","[u'red', u'blue', u'black']","[u'left', u'middle', u'right']","[0.8, 0.4, 0.2]","[u'medium', u'high', u'low']","black",51,"right","low","False","False",195,5250,NA
"A2ASTDMWBCFIP0","Sat Oct 31 2020 11:16:49 GMT-0400 (Eastern Daylight Time)","Sat Oct 31 2020 11:24:26 GMT-0400 (Eastern Daylight Time)","Mozilla/5.0 (Windows NT 10.0) AppleWebKit/537.36 (KHTML, like Gecko) Chrome/86.0.4240.111 Safari/537.36",100,"[0.9, 0.5, 0.1]","[0.8, 0.4, 0.2]","[u'red', u'blue', u'black']","[u'left', u'middle', u'right']","[0.8, 0.4, 0.2]","[u'medium', u'high', u'low']","blue",50,"middle","high","True","False",225,5350,NA
"A2ASTDMWBCFIP0","Sat Oct 31 2020 11:16:49 GMT-0400 (Eastern Daylight Time)","Sat Oct 31 2020 11:24:26 GMT-0400 (Eastern Daylight Time)","Mozilla/5.0 (Windows NT 10.0) AppleWebKit/537.36 (KHTML, like Gecko) Chrome/86.0.4240.111 Safari/537.36",101,"[0.9, 0.5, 0.1]","[0.8, 0.4, 0.2]","[u'red', u'blue', u'black']","[u'left', u'middle', u'right']","[0.8, 0.4, 0.2]","[u'medium', u'high', u'low']","blue",50,"middle","high","False","False",322,5300,NA
"A2ASTDMWBCFIP0","Sat Oct 31 2020 11:16:49 GMT-0400 (Eastern Daylight Time)","Sat Oct 31 2020 11:24:26 GMT-0400 (Eastern Daylight Time)","Mozilla/5.0 (Windows NT 10.0) AppleWebKit/537.36 (KHTML, like Gecko) Chrome/86.0.4240.111 Safari/537.36",102,"[0.9, 0.5, 0.1]","[0.8, 0.4, 0.2]","[u'red', u'blue', u'black']","[u'left', u'middle', u'right']","[0.8, 0.4, 0.2]","[u'medium', u'high', u'low']","black",51,"right","low","True","False",91,5400,NA
"A2ASTDMWBCFIP0","Sat Oct 31 2020 11:16:49 GMT-0400 (Eastern Daylight Time)","Sat Oct 31 2020 11:24:26 GMT-0400 (Eastern Daylight Time)","Mozilla/5.0 (Windows NT 10.0) AppleWebKit/537.36 (KHTML, like Gecko) Chrome/86.0.4240.111 Safari/537.36",103,"[0.9, 0.5, 0.1]","[0.8, 0.4, 0.2]","[u'red', u'blue', u'black']","[u'left', u'middle', u'right']","[0.8, 0.4, 0.2]","[u'medium', u'high', u'low']","black",51,"right","low","False","False",258,5350,NA
"A2ASTDMWBCFIP0","Sat Oct 31 2020 11:16:49 GMT-0400 (Eastern Daylight Time)","Sat Oct 31 2020 11:24:26 GMT-0400 (Eastern Daylight Time)","Mozilla/5.0 (Windows NT 10.0) AppleWebKit/537.36 (KHTML, like Gecko) Chrome/86.0.4240.111 Safari/537.36",104,"[0.9, 0.5, 0.1]","[0.8, 0.4, 0.2]","[u'red', u'blue', u'black']","[u'left', u'middle', u'right']","[0.8, 0.4, 0.2]","[u'medium', u'high', u'low']","blue",50,"middle","high","True","False",243,5450,NA
"A2ASTDMWBCFIP0","Sat Oct 31 2020 11:16:49 GMT-0400 (Eastern Daylight Time)","Sat Oct 31 2020 11:24:26 GMT-0400 (Eastern Daylight Time)","Mozilla/5.0 (Windows NT 10.0) AppleWebKit/537.36 (KHTML, like Gecko) Chrome/86.0.4240.111 Safari/537.36",105,"[0.9, 0.5, 0.1]","[0.8, 0.4, 0.2]","[u'red', u'blue', u'black']","[u'left', u'middle', u'right']","[0.8, 0.4, 0.2]","[u'medium', u'high', u'low']","blue",50,"middle","high","True","False",196,5550,NA
"A2ASTDMWBCFIP0","Sat Oct 31 2020 11:16:49 GMT-0400 (Eastern Daylight Time)","Sat Oct 31 2020 11:24:26 GMT-0400 (Eastern Daylight Time)","Mozilla/5.0 (Windows NT 10.0) AppleWebKit/537.36 (KHTML, like Gecko) Chrome/86.0.4240.111 Safari/537.36",106,"[0.9, 0.5, 0.1]","[0.8, 0.4, 0.2]","[u'red', u'blue', u'black']","[u'left', u'middle', u'right']","[0.8, 0.4, 0.2]","[u'medium', u'high', u'low']","blue",50,"middle","high","False","False",242,5500,NA
"A2ASTDMWBCFIP0","Sat Oct 31 2020 11:16:49 GMT-0400 (Eastern Daylight Time)","Sat Oct 31 2020 11:24:26 GMT-0400 (Eastern Daylight Time)","Mozilla/5.0 (Windows NT 10.0) AppleWebKit/537.36 (KHTML, like Gecko) Chrome/86.0.4240.111 Safari/537.36",107,"[0.9, 0.5, 0.1]","[0.8, 0.4, 0.2]","[u'red', u'blue', u'black']","[u'left', u'middle', u'right']","[0.8, 0.4, 0.2]","[u'medium', u'high', u'low']","black",51,"right","low","False","False",211,5450,NA
"A2ASTDMWBCFIP0","Sat Oct 31 2020 11:16:49 GMT-0400 (Eastern Daylight Time)","Sat Oct 31 2020 11:24:26 GMT-0400 (Eastern Daylight Time)","Mozilla/5.0 (Windows NT 10.0) AppleWebKit/537.36 (KHTML, like Gecko) Chrome/86.0.4240.111 Safari/537.36",108,"[0.9, 0.5, 0.1]","[0.8, 0.4, 0.2]","[u'red', u'blue', u'black']","[u'left', u'middle', u'right']","[0.8, 0.4, 0.2]","[u'medium', u'high', u'low']","blue",50,"middle","high","True","False",259,5550,NA
"A2ASTDMWBCFIP0","Sat Oct 31 2020 11:16:49 GMT-0400 (Eastern Daylight Time)","Sat Oct 31 2020 11:24:26 GMT-0400 (Eastern Daylight Time)","Mozilla/5.0 (Windows NT 10.0) AppleWebKit/537.36 (KHTML, like Gecko) Chrome/86.0.4240.111 Safari/537.36",109,"[0.9, 0.5, 0.1]","[0.8, 0.4, 0.2]","[u'red', u'blue', u'black']","[u'left', u'middle', u'right']","[0.8, 0.4, 0.2]","[u'medium', u'high', u'low']","blue",50,"middle","high","True","False",195,5650,NA
"A2ASTDMWBCFIP0","Sat Oct 31 2020 11:16:49 GMT-0400 (Eastern Daylight Time)","Sat Oct 31 2020 11:24:26 GMT-0400 (Eastern Daylight Time)","Mozilla/5.0 (Windows NT 10.0) AppleWebKit/537.36 (KHTML, like Gecko) Chrome/86.0.4240.111 Safari/537.36",110,"[0.9, 0.5, 0.1]","[0.8, 0.4, 0.2]","[u'red', u'blue', u'black']","[u'left', u'middle', u'right']","[0.8, 0.4, 0.2]","[u'medium', u'high', u'low']","blue",50,"middle","high","True","False",290,5750,NA
"A2ASTDMWBCFIP0","Sat Oct 31 2020 11:16:49 GMT-0400 (Eastern Daylight Time)","Sat Oct 31 2020 11:24:26 GMT-0400 (Eastern Daylight Time)","Mozilla/5.0 (Windows NT 10.0) AppleWebKit/537.36 (KHTML, like Gecko) Chrome/86.0.4240.111 Safari/537.36",111,"[0.9, 0.5, 0.1]","[0.8, 0.4, 0.2]","[u'red', u'blue', u'black']","[u'left', u'middle', u'right']","[0.8, 0.4, 0.2]","[u'medium', u'high', u'low']","blue",50,"middle","high","True","False",308,5850,NA
"A2ASTDMWBCFIP0","Sat Oct 31 2020 11:16:49 GMT-0400 (Eastern Daylight Time)","Sat Oct 31 2020 11:24:26 GMT-0400 (Eastern Daylight Time)","Mozilla/5.0 (Windows NT 10.0) AppleWebKit/537.36 (KHTML, like Gecko) Chrome/86.0.4240.111 Safari/537.36",112,"[0.9, 0.5, 0.1]","[0.8, 0.4, 0.2]","[u'red', u'blue', u'black']","[u'left', u'middle', u'right']","[0.8, 0.4, 0.2]","[u'medium', u'high', u'low']","blue",50,"middle","high","True","False",257,5950,NA
"A2ASTDMWBCFIP0","Sat Oct 31 2020 11:16:49 GMT-0400 (Eastern Daylight Time)","Sat Oct 31 2020 11:24:26 GMT-0400 (Eastern Daylight Time)","Mozilla/5.0 (Windows NT 10.0) AppleWebKit/537.36 (KHTML, like Gecko) Chrome/86.0.4240.111 Safari/537.36",113,"[0.9, 0.5, 0.1]","[0.8, 0.4, 0.2]","[u'red', u'blue', u'black']","[u'left', u'middle', u'right']","[0.8, 0.4, 0.2]","[u'medium', u'high', u'low']","blue",50,"middle","high","False","True",323,5900,NA
"A2ASTDMWBCFIP0","Sat Oct 31 2020 11:16:49 GMT-0400 (Eastern Daylight Time)","Sat Oct 31 2020 11:24:26 GMT-0400 (Eastern Daylight Time)","Mozilla/5.0 (Windows NT 10.0) AppleWebKit/537.36 (KHTML, like Gecko) Chrome/86.0.4240.111 Safari/537.36",114,"[0.9, 0.5, 0.1]","[0.8, 0.4, 0.2]","[u'red', u'blue', u'black']","[u'left', u'middle', u'right']","[0.8, 0.4, 0.2]","[u'high', u'medium', u'low']","black",51,"right","low","False","False",291,5850,NA
"A2ASTDMWBCFIP0","Sat Oct 31 2020 11:16:49 GMT-0400 (Eastern Daylight Time)","Sat Oct 31 2020 11:24:26 GMT-0400 (Eastern Daylight Time)","Mozilla/5.0 (Windows NT 10.0) AppleWebKit/537.36 (KHTML, like Gecko) Chrome/86.0.4240.111 Safari/537.36",115,"[0.9, 0.5, 0.1]","[0.8, 0.4, 0.2]","[u'red', u'blue', u'black']","[u'left', u'middle', u'right']","[0.8, 0.4, 0.2]","[u'high', u'medium', u'low']","blue",50,"middle","medium","True","False",227,5950,NA
"A2ASTDMWBCFIP0","Sat Oct 31 2020 11:16:49 GMT-0400 (Eastern Daylight Time)","Sat Oct 31 2020 11:24:26 GMT-0400 (Eastern Daylight Time)","Mozilla/5.0 (Windows NT 10.0) AppleWebKit/537.36 (KHTML, like Gecko) Chrome/86.0.4240.111 Safari/537.36",116,"[0.9, 0.5, 0.1]","[0.8, 0.4, 0.2]","[u'red', u'blue', u'black']","[u'left', u'middle', u'right']","[0.8, 0.4, 0.2]","[u'high', u'medium', u'low']","blue",50,"middle","medium","False","False",355,5900,NA
"A2ASTDMWBCFIP0","Sat Oct 31 2020 11:16:49 GMT-0400 (Eastern Daylight Time)","Sat Oct 31 2020 11:24:26 GMT-0400 (Eastern Daylight Time)","Mozilla/5.0 (Windows NT 10.0) AppleWebKit/537.36 (KHTML, like Gecko) Chrome/86.0.4240.111 Safari/537.36",117,"[0.9, 0.5, 0.1]","[0.8, 0.4, 0.2]","[u'red', u'blue', u'black']","[u'left', u'middle', u'right']","[0.8, 0.4, 0.2]","[u'high', u'medium', u'low']","black",51,"right","low","False","False",275,5850,NA
"A2ASTDMWBCFIP0","Sat Oct 31 2020 11:16:49 GMT-0400 (Eastern Daylight Time)","Sat Oct 31 2020 11:24:26 GMT-0400 (Eastern Daylight Time)","Mozilla/5.0 (Windows NT 10.0) AppleWebKit/537.36 (KHTML, like Gecko) Chrome/86.0.4240.111 Safari/537.36",118,"[0.9, 0.5, 0.1]","[0.8, 0.4, 0.2]","[u'red', u'blue', u'black']","[u'left', u'middle', u'right']","[0.8, 0.4, 0.2]","[u'high', u'medium', u'low']","blue",50,"middle","medium","True","False",306,5950,NA
"A2ASTDMWBCFIP0","Sat Oct 31 2020 11:16:49 GMT-0400 (Eastern Daylight Time)","Sat Oct 31 2020 11:24:26 GMT-0400 (Eastern Daylight Time)","Mozilla/5.0 (Windows NT 10.0) AppleWebKit/537.36 (KHTML, like Gecko) Chrome/86.0.4240.111 Safari/537.36",119,"[0.9, 0.5, 0.1]","[0.8, 0.4, 0.2]","[u'red', u'blue', u'black']","[u'left', u'middle', u'right']","[0.8, 0.4, 0.2]","[u'high', u'medium', u'low']","blue",50,"middle","medium","False","False",259,5900,NA
"A2ASTDMWBCFIP0","Sat Oct 31 2020 11:16:49 GMT-0400 (Eastern Daylight Time)","Sat Oct 31 2020 11:24:26 GMT-0400 (Eastern Daylight Time)","Mozilla/5.0 (Windows NT 10.0) AppleWebKit/537.36 (KHTML, like Gecko) Chrome/86.0.4240.111 Safari/537.36",120,"[0.9, 0.5, 0.1]","[0.8, 0.4, 0.2]","[u'red', u'blue', u'black']","[u'left', u'middle', u'right']","[0.8, 0.4, 0.2]","[u'high', u'medium', u'low']","red",49,"left","high","True","False",227,6000,NA
"A2ASTDMWBCFIP0","Sat Oct 31 2020 11:16:49 GMT-0400 (Eastern Daylight Time)","Sat Oct 31 2020 11:24:26 GMT-0400 (Eastern Daylight Time)","Mozilla/5.0 (Windows NT 10.0) AppleWebKit/537.36 (KHTML, like Gecko) Chrome/86.0.4240.111 Safari/537.36",121,"[0.9, 0.5, 0.1]","[0.8, 0.4, 0.2]","[u'red', u'blue', u'black']","[u'left', u'middle', u'right']","[0.8, 0.4, 0.2]","[u'medium', u'high', u'low']","blue",50,"middle","high","True","False",492,6100,NA
"A2ASTDMWBCFIP0","Sat Oct 31 2020 11:16:49 GMT-0400 (Eastern Daylight Time)","Sat Oct 31 2020 11:24:26 GMT-0400 (Eastern Daylight Time)","Mozilla/5.0 (Windows NT 10.0) AppleWebKit/537.36 (KHTML, like Gecko) Chrome/86.0.4240.111 Safari/537.36",122,"[0.9, 0.5, 0.1]","[0.8, 0.4, 0.2]","[u'red', u'blue', u'black']","[u'left', u'middle', u'right']","[0.8, 0.4, 0.2]","[u'medium', u'high', u'low']","blue",50,"middle","high","True","False",196,6200,NA
"A2ASTDMWBCFIP0","Sat Oct 31 2020 11:16:49 GMT-0400 (Eastern Daylight Time)","Sat Oct 31 2020 11:24:26 GMT-0400 (Eastern Daylight Time)","Mozilla/5.0 (Windows NT 10.0) AppleWebKit/537.36 (KHTML, like Gecko) Chrome/86.0.4240.111 Safari/537.36",123,"[0.9, 0.5, 0.1]","[0.8, 0.4, 0.2]","[u'red', u'blue', u'black']","[u'left', u'middle', u'right']","[0.8, 0.4, 0.2]","[u'medium', u'high', u'low']","blue",50,"middle","high","False","False",194,6150,NA
"A2ASTDMWBCFIP0","Sat Oct 31 2020 11:16:49 GMT-0400 (Eastern Daylight Time)","Sat Oct 31 2020 11:24:26 GMT-0400 (Eastern Daylight Time)","Mozilla/5.0 (Windows NT 10.0) AppleWebKit/537.36 (KHTML, like Gecko) Chrome/86.0.4240.111 Safari/537.36",124,"[0.9, 0.5, 0.1]","[0.8, 0.4, 0.2]","[u'red', u'blue', u'black']","[u'left', u'middle', u'right']","[0.8, 0.4, 0.2]","[u'medium', u'high', u'low']","black",51,"right","low","False","False",186,6100,NA
"A2ASTDMWBCFIP0","Sat Oct 31 2020 11:16:49 GMT-0400 (Eastern Daylight Time)","Sat Oct 31 2020 11:24:26 GMT-0400 (Eastern Daylight Time)","Mozilla/5.0 (Windows NT 10.0) AppleWebKit/537.36 (KHTML, like Gecko) Chrome/86.0.4240.111 Safari/537.36",125,"[0.9, 0.5, 0.1]","[0.8, 0.4, 0.2]","[u'red', u'blue', u'black']","[u'left', u'middle', u'right']","[0.8, 0.4, 0.2]","[u'medium', u'high', u'low']","blue",50,"middle","high","True","False",161,6200,NA
"A2ASTDMWBCFIP0","Sat Oct 31 2020 11:16:49 GMT-0400 (Eastern Daylight Time)","Sat Oct 31 2020 11:24:26 GMT-0400 (Eastern Daylight Time)","Mozilla/5.0 (Windows NT 10.0) AppleWebKit/537.36 (KHTML, like Gecko) Chrome/86.0.4240.111 Safari/537.36",126,"[0.9, 0.5, 0.1]","[0.8, 0.4, 0.2]","[u'red', u'blue', u'black']","[u'left', u'middle', u'right']","[0.8, 0.4, 0.2]","[u'medium', u'high', u'low']","blue",50,"middle","high","True","False",306,6300,NA
"A2ASTDMWBCFIP0","Sat Oct 31 2020 11:16:49 GMT-0400 (Eastern Daylight Time)","Sat Oct 31 2020 11:24:26 GMT-0400 (Eastern Daylight Time)","Mozilla/5.0 (Windows NT 10.0) AppleWebKit/537.36 (KHTML, like Gecko) Chrome/86.0.4240.111 Safari/537.36",127,"[0.9, 0.5, 0.1]","[0.8, 0.4, 0.2]","[u'red', u'blue', u'black']","[u'left', u'middle', u'right']","[0.8, 0.4, 0.2]","[u'medium', u'high', u'low']","blue",50,"middle","high","True","False",210,6400,NA
"A2ASTDMWBCFIP0","Sat Oct 31 2020 11:16:49 GMT-0400 (Eastern Daylight Time)","Sat Oct 31 2020 11:24:26 GMT-0400 (Eastern Daylight Time)","Mozilla/5.0 (Windows NT 10.0) AppleWebKit/537.36 (KHTML, like Gecko) Chrome/86.0.4240.111 Safari/537.36",128,"[0.9, 0.5, 0.1]","[0.8, 0.4, 0.2]","[u'red', u'blue', u'black']","[u'left', u'middle', u'right']","[0.8, 0.4, 0.2]","[u'medium', u'high', u'low']","blue",50,"middle","high","True","False",180,6500,NA
"A2ASTDMWBCFIP0","Sat Oct 31 2020 11:16:49 GMT-0400 (Eastern Daylight Time)","Sat Oct 31 2020 11:24:26 GMT-0400 (Eastern Daylight Time)","Mozilla/5.0 (Windows NT 10.0) AppleWebKit/537.36 (KHTML, like Gecko) Chrome/86.0.4240.111 Safari/537.36",129,"[0.9, 0.5, 0.1]","[0.8, 0.4, 0.2]","[u'red', u'blue', u'black']","[u'left', u'middle', u'right']","[0.8, 0.4, 0.2]","[u'medium', u'high', u'low']","blue",50,"middle","high","False","False",177,6450,NA
"A2ASTDMWBCFIP0","Sat Oct 31 2020 11:16:49 GMT-0400 (Eastern Daylight Time)","Sat Oct 31 2020 11:24:26 GMT-0400 (Eastern Daylight Time)","Mozilla/5.0 (Windows NT 10.0) AppleWebKit/537.36 (KHTML, like Gecko) Chrome/86.0.4240.111 Safari/537.36",130,"[0.9, 0.5, 0.1]","[0.8, 0.4, 0.2]","[u'red', u'blue', u'black']","[u'left', u'middle', u'right']","[0.8, 0.4, 0.2]","[u'medium', u'high', u'low']","red",49,"left","medium","False","False",146,6400,NA
"A2ASTDMWBCFIP0","Sat Oct 31 2020 11:16:49 GMT-0400 (Eastern Daylight Time)","Sat Oct 31 2020 11:24:26 GMT-0400 (Eastern Daylight Time)","Mozilla/5.0 (Windows NT 10.0) AppleWebKit/537.36 (KHTML, like Gecko) Chrome/86.0.4240.111 Safari/537.36",131,"[0.9, 0.5, 0.1]","[0.8, 0.4, 0.2]","[u'red', u'blue', u'black']","[u'left', u'middle', u'right']","[0.8, 0.4, 0.2]","[u'medium', u'high', u'low']","blue",50,"middle","high","True","False",242,6500,NA
"A2ASTDMWBCFIP0","Sat Oct 31 2020 11:16:49 GMT-0400 (Eastern Daylight Time)","Sat Oct 31 2020 11:24:26 GMT-0400 (Eastern Daylight Time)","Mozilla/5.0 (Windows NT 10.0) AppleWebKit/537.36 (KHTML, like Gecko) Chrome/86.0.4240.111 Safari/537.36",132,"[0.9, 0.5, 0.1]","[0.8, 0.4, 0.2]","[u'red', u'blue', u'black']","[u'left', u'middle', u'right']","[0.8, 0.4, 0.2]","[u'medium', u'high', u'low']","blue",50,"middle","high","True","False",258,6600,NA
"A2ASTDMWBCFIP0","Sat Oct 31 2020 11:16:49 GMT-0400 (Eastern Daylight Time)","Sat Oct 31 2020 11:24:26 GMT-0400 (Eastern Daylight Time)","Mozilla/5.0 (Windows NT 10.0) AppleWebKit/537.36 (KHTML, like Gecko) Chrome/86.0.4240.111 Safari/537.36",133,"[0.9, 0.5, 0.1]","[0.8, 0.4, 0.2]","[u'red', u'blue', u'black']","[u'left', u'middle', u'right']","[0.8, 0.4, 0.2]","[u'medium', u'high', u'low']","blue",50,"middle","high","False","False",163,6550,NA
"A2ASTDMWBCFIP0","Sat Oct 31 2020 11:16:49 GMT-0400 (Eastern Daylight Time)","Sat Oct 31 2020 11:24:26 GMT-0400 (Eastern Daylight Time)","Mozilla/5.0 (Windows NT 10.0) AppleWebKit/537.36 (KHTML, like Gecko) Chrome/86.0.4240.111 Safari/537.36",134,"[0.9, 0.5, 0.1]","[0.8, 0.4, 0.2]","[u'red', u'blue', u'black']","[u'left', u'middle', u'right']","[0.8, 0.4, 0.2]","[u'medium', u'high', u'low']","black",51,"right","low","False","False",259,6500,NA
"A2ASTDMWBCFIP0","Sat Oct 31 2020 11:16:49 GMT-0400 (Eastern Daylight Time)","Sat Oct 31 2020 11:24:26 GMT-0400 (Eastern Daylight Time)","Mozilla/5.0 (Windows NT 10.0) AppleWebKit/537.36 (KHTML, like Gecko) Chrome/86.0.4240.111 Safari/537.36",135,"[0.9, 0.5, 0.1]","[0.8, 0.4, 0.2]","[u'red', u'blue', u'black']","[u'left', u'middle', u'right']","[0.8, 0.4, 0.2]","[u'medium', u'high', u'low']","blue",50,"middle","high","True","False",177,6600,NA
"A2ASTDMWBCFIP0","Sat Oct 31 2020 11:16:49 GMT-0400 (Eastern Daylight Time)","Sat Oct 31 2020 11:24:26 GMT-0400 (Eastern Daylight Time)","Mozilla/5.0 (Windows NT 10.0) AppleWebKit/537.36 (KHTML, like Gecko) Chrome/86.0.4240.111 Safari/537.36",136,"[0.9, 0.5, 0.1]","[0.8, 0.4, 0.2]","[u'red', u'blue', u'black']","[u'left', u'middle', u'right']","[0.8, 0.4, 0.2]","[u'medium', u'high', u'low']","blue",50,"middle","high","True","False",210,6700,NA
"A2ASTDMWBCFIP0","Sat Oct 31 2020 11:16:49 GMT-0400 (Eastern Daylight Time)","Sat Oct 31 2020 11:24:26 GMT-0400 (Eastern Daylight Time)","Mozilla/5.0 (Windows NT 10.0) AppleWebKit/537.36 (KHTML, like Gecko) Chrome/86.0.4240.111 Safari/537.36",137,"[0.9, 0.5, 0.1]","[0.8, 0.4, 0.2]","[u'red', u'blue', u'black']","[u'left', u'middle', u'right']","[0.8, 0.4, 0.2]","[u'medium', u'high', u'low']","blue",50,"middle","high","True","False",194,6800,NA
"A2ASTDMWBCFIP0","Sat Oct 31 2020 11:16:49 GMT-0400 (Eastern Daylight Time)","Sat Oct 31 2020 11:24:26 GMT-0400 (Eastern Daylight Time)","Mozilla/5.0 (Windows NT 10.0) AppleWebKit/537.36 (KHTML, like Gecko) Chrome/86.0.4240.111 Safari/537.36",138,"[0.9, 0.5, 0.1]","[0.8, 0.4, 0.2]","[u'red', u'blue', u'black']","[u'left', u'middle', u'right']","[0.8, 0.4, 0.2]","[u'medium', u'high', u'low']","blue",50,"middle","high","False","False",227,6750,NA
"A2ASTDMWBCFIP0","Sat Oct 31 2020 11:16:49 GMT-0400 (Eastern Daylight Time)","Sat Oct 31 2020 11:24:26 GMT-0400 (Eastern Daylight Time)","Mozilla/5.0 (Windows NT 10.0) AppleWebKit/537.36 (KHTML, like Gecko) Chrome/86.0.4240.111 Safari/537.36",139,"[0.9, 0.5, 0.1]","[0.8, 0.4, 0.2]","[u'red', u'blue', u'black']","[u'left', u'middle', u'right']","[0.8, 0.4, 0.2]","[u'medium', u'high', u'low']","black",51,"right","low","False","False",242,6700,NA
"A2ASTDMWBCFIP0","Sat Oct 31 2020 11:16:49 GMT-0400 (Eastern Daylight Time)","Sat Oct 31 2020 11:24:26 GMT-0400 (Eastern Daylight Time)","Mozilla/5.0 (Windows NT 10.0) AppleWebKit/537.36 (KHTML, like Gecko) Chrome/86.0.4240.111 Safari/537.36",140,"[0.9, 0.5, 0.1]","[0.8, 0.4, 0.2]","[u'red', u'blue', u'black']","[u'left', u'middle', u'right']","[0.8, 0.4, 0.2]","[u'medium', u'high', u'low']","blue",50,"middle","high","True","False",227,6800,NA
"A2ASTDMWBCFIP0","Sat Oct 31 2020 11:16:49 GMT-0400 (Eastern Daylight Time)","Sat Oct 31 2020 11:24:26 GMT-0400 (Eastern Daylight Time)","Mozilla/5.0 (Windows NT 10.0) AppleWebKit/537.36 (KHTML, like Gecko) Chrome/86.0.4240.111 Safari/537.36",141,"[0.9, 0.5, 0.1]","[0.8, 0.4, 0.2]","[u'red', u'blue', u'black']","[u'left', u'middle', u'right']","[0.8, 0.4, 0.2]","[u'medium', u'high', u'low']","blue",50,"middle","high","False","False",273,6750,NA
"A2ASTDMWBCFIP0","Sat Oct 31 2020 11:16:49 GMT-0400 (Eastern Daylight Time)","Sat Oct 31 2020 11:24:26 GMT-0400 (Eastern Daylight Time)","Mozilla/5.0 (Windows NT 10.0) AppleWebKit/537.36 (KHTML, like Gecko) Chrome/86.0.4240.111 Safari/537.36",142,"[0.9, 0.5, 0.1]","[0.8, 0.4, 0.2]","[u'red', u'blue', u'black']","[u'left', u'middle', u'right']","[0.8, 0.4, 0.2]","[u'medium', u'high', u'low']","red",49,"left","medium","False","False",274,6700,NA
"A2ASTDMWBCFIP0","Sat Oct 31 2020 11:16:49 GMT-0400 (Eastern Daylight Time)","Sat Oct 31 2020 11:24:26 GMT-0400 (Eastern Daylight Time)","Mozilla/5.0 (Windows NT 10.0) AppleWebKit/537.36 (KHTML, like Gecko) Chrome/86.0.4240.111 Safari/537.36",143,"[0.9, 0.5, 0.1]","[0.8, 0.4, 0.2]","[u'red', u'blue', u'black']","[u'left', u'middle', u'right']","[0.8, 0.4, 0.2]","[u'medium', u'high', u'low']","blue",50,"middle","high","False","False",322,6650,NA
"A2ASTDMWBCFIP0","Sat Oct 31 2020 11:16:49 GMT-0400 (Eastern Daylight Time)","Sat Oct 31 2020 11:24:26 GMT-0400 (Eastern Daylight Time)","Mozilla/5.0 (Windows NT 10.0) AppleWebKit/537.36 (KHTML, like Gecko) Chrome/86.0.4240.111 Safari/537.36",144,"[0.9, 0.5, 0.1]","[0.8, 0.4, 0.2]","[u'red', u'blue', u'black']","[u'left', u'middle', u'right']","[0.8, 0.4, 0.2]","[u'medium', u'high', u'low']","blue",50,"middle","high","True","False",322,6750,NA
"A2ASTDMWBCFIP0","Sat Oct 31 2020 11:16:49 GMT-0400 (Eastern Daylight Time)","Sat Oct 31 2020 11:24:26 GMT-0400 (Eastern Daylight Time)","Mozilla/5.0 (Windows NT 10.0) AppleWebKit/537.36 (KHTML, like Gecko) Chrome/86.0.4240.111 Safari/537.36",145,"[0.9, 0.5, 0.1]","[0.8, 0.4, 0.2]","[u'red', u'blue', u'black']","[u'left', u'middle', u'right']","[0.8, 0.4, 0.2]","[u'medium', u'high', u'low']","blue",50,"middle","high","True","False",369,6850,NA
"A2ASTDMWBCFIP0","Sat Oct 31 2020 11:16:49 GMT-0400 (Eastern Daylight Time)","Sat Oct 31 2020 11:24:26 GMT-0400 (Eastern Daylight Time)","Mozilla/5.0 (Windows NT 10.0) AppleWebKit/537.36 (KHTML, like Gecko) Chrome/86.0.4240.111 Safari/537.36",146,"[0.9, 0.5, 0.1]","[0.8, 0.4, 0.2]","[u'red', u'blue', u'black']","[u'left', u'middle', u'right']","[0.8, 0.4, 0.2]","[u'medium', u'high', u'low']","blue",50,"middle","high","True","False",196,6950,NA
"A2ASTDMWBCFIP0","Sat Oct 31 2020 11:16:49 GMT-0400 (Eastern Daylight Time)","Sat Oct 31 2020 11:24:26 GMT-0400 (Eastern Daylight Time)","Mozilla/5.0 (Windows NT 10.0) AppleWebKit/537.36 (KHTML, like Gecko) Chrome/86.0.4240.111 Safari/537.36",147,"[0.9, 0.5, 0.1]","[0.8, 0.4, 0.2]","[u'red', u'blue', u'black']","[u'left', u'middle', u'right']","[0.8, 0.4, 0.2]","[u'medium', u'high', u'low']","blue",50,"middle","high","False","False",18,6900,NA
"A2ASTDMWBCFIP0","Sat Oct 31 2020 11:16:49 GMT-0400 (Eastern Daylight Time)","Sat Oct 31 2020 11:24:26 GMT-0400 (Eastern Daylight Time)","Mozilla/5.0 (Windows NT 10.0) AppleWebKit/537.36 (KHTML, like Gecko) Chrome/86.0.4240.111 Safari/537.36",148,"[0.9, 0.5, 0.1]","[0.8, 0.4, 0.2]","[u'red', u'blue', u'black']","[u'left', u'middle', u'right']","[0.8, 0.4, 0.2]","[u'medium', u'high', u'low']","blue",50,"middle","high","True","False",202,7000,NA
"A2ASTDMWBCFIP0","Sat Oct 31 2020 11:16:49 GMT-0400 (Eastern Daylight Time)","Sat Oct 31 2020 11:24:26 GMT-0400 (Eastern Daylight Time)","Mozilla/5.0 (Windows NT 10.0) AppleWebKit/537.36 (KHTML, like Gecko) Chrome/86.0.4240.111 Safari/537.36",149,"[0.9, 0.5, 0.1]","[0.8, 0.4, 0.2]","[u'red', u'blue', u'black']","[u'left', u'middle', u'right']","[0.8, 0.4, 0.2]","[u'medium', u'high', u'low']","blue",50,"middle","high","True","True",274,7100,NA
"A2ASTDMWBCFIP0","Sat Oct 31 2020 11:16:49 GMT-0400 (Eastern Daylight Time)","Sat Oct 31 2020 11:24:26 GMT-0400 (Eastern Daylight Time)","Mozilla/5.0 (Windows NT 10.0) AppleWebKit/537.36 (KHTML, like Gecko) Chrome/86.0.4240.111 Safari/537.36",150,"[0.9, 0.5, 0.1]","[0.8, 0.4, 0.2]","[u'red', u'blue', u'black']","[u'left', u'middle', u'right']","[0.8, 0.4, 0.2]","[u'high', u'medium', u'low']","blue",50,"middle","medium","True","False",162,7200,NA
"A2ASTDMWBCFIP0","Sat Oct 31 2020 11:16:49 GMT-0400 (Eastern Daylight Time)","Sat Oct 31 2020 11:24:26 GMT-0400 (Eastern Daylight Time)","Mozilla/5.0 (Windows NT 10.0) AppleWebKit/537.36 (KHTML, like Gecko) Chrome/86.0.4240.111 Safari/537.36",151,"[0.9, 0.5, 0.1]","[0.8, 0.4, 0.2]","[u'red', u'blue', u'black']","[u'left', u'middle', u'right']","[0.8, 0.4, 0.2]","[u'high', u'medium', u'low']","blue",50,"middle","medium","False","False",146,7150,NA
"A2ASTDMWBCFIP0","Sat Oct 31 2020 11:16:49 GMT-0400 (Eastern Daylight Time)","Sat Oct 31 2020 11:24:26 GMT-0400 (Eastern Daylight Time)","Mozilla/5.0 (Windows NT 10.0) AppleWebKit/537.36 (KHTML, like Gecko) Chrome/86.0.4240.111 Safari/537.36",152,"[0.9, 0.5, 0.1]","[0.8, 0.4, 0.2]","[u'red', u'blue', u'black']","[u'left', u'middle', u'right']","[0.8, 0.4, 0.2]","[u'high', u'medium', u'low']","blue",50,"middle","medium","False","False",130,7100,NA
"A2ASTDMWBCFIP0","Sat Oct 31 2020 11:16:49 GMT-0400 (Eastern Daylight Time)","Sat Oct 31 2020 11:24:26 GMT-0400 (Eastern Daylight Time)","Mozilla/5.0 (Windows NT 10.0) AppleWebKit/537.36 (KHTML, like Gecko) Chrome/86.0.4240.111 Safari/537.36",153,"[0.9, 0.5, 0.1]","[0.8, 0.4, 0.2]","[u'red', u'blue', u'black']","[u'left', u'middle', u'right']","[0.8, 0.4, 0.2]","[u'high', u'medium', u'low']","blue",50,"middle","medium","True","False",211,7200,NA
"A2ASTDMWBCFIP0","Sat Oct 31 2020 11:16:49 GMT-0400 (Eastern Daylight Time)","Sat Oct 31 2020 11:24:26 GMT-0400 (Eastern Daylight Time)","Mozilla/5.0 (Windows NT 10.0) AppleWebKit/537.36 (KHTML, like Gecko) Chrome/86.0.4240.111 Safari/537.36",154,"[0.9, 0.5, 0.1]","[0.8, 0.4, 0.2]","[u'red', u'blue', u'black']","[u'left', u'middle', u'right']","[0.8, 0.4, 0.2]","[u'high', u'medium', u'low']","blue",50,"middle","medium","True","False",241,7300,NA
"A2ASTDMWBCFIP0","Sat Oct 31 2020 11:16:49 GMT-0400 (Eastern Daylight Time)","Sat Oct 31 2020 11:24:26 GMT-0400 (Eastern Daylight Time)","Mozilla/5.0 (Windows NT 10.0) AppleWebKit/537.36 (KHTML, like Gecko) Chrome/86.0.4240.111 Safari/537.36",155,"[0.9, 0.5, 0.1]","[0.8, 0.4, 0.2]","[u'red', u'blue', u'black']","[u'left', u'middle', u'right']","[0.8, 0.4, 0.2]","[u'high', u'medium', u'low']","blue",50,"middle","medium","False","False",194,7250,NA
"A2ASTDMWBCFIP0","Sat Oct 31 2020 11:16:49 GMT-0400 (Eastern Daylight Time)","Sat Oct 31 2020 11:24:26 GMT-0400 (Eastern Daylight Time)","Mozilla/5.0 (Windows NT 10.0) AppleWebKit/537.36 (KHTML, like Gecko) Chrome/86.0.4240.111 Safari/537.36",156,"[0.9, 0.5, 0.1]","[0.8, 0.4, 0.2]","[u'red', u'blue', u'black']","[u'left', u'middle', u'right']","[0.8, 0.4, 0.2]","[u'high', u'medium', u'low']","blue",50,"middle","medium","False","False",210,7200,NA
"A2ASTDMWBCFIP0","Sat Oct 31 2020 11:16:49 GMT-0400 (Eastern Daylight Time)","Sat Oct 31 2020 11:24:26 GMT-0400 (Eastern Daylight Time)","Mozilla/5.0 (Windows NT 10.0) AppleWebKit/537.36 (KHTML, like Gecko) Chrome/86.0.4240.111 Safari/537.36",157,"[0.9, 0.5, 0.1]","[0.8, 0.4, 0.2]","[u'red', u'blue', u'black']","[u'left', u'middle', u'right']","[0.8, 0.4, 0.2]","[u'high', u'medium', u'low']","blue",50,"middle","medium","False","False",210,7150,NA
"A2ASTDMWBCFIP0","Sat Oct 31 2020 11:16:49 GMT-0400 (Eastern Daylight Time)","Sat Oct 31 2020 11:24:26 GMT-0400 (Eastern Daylight Time)","Mozilla/5.0 (Windows NT 10.0) AppleWebKit/537.36 (KHTML, like Gecko) Chrome/86.0.4240.111 Safari/537.36",158,"[0.9, 0.5, 0.1]","[0.8, 0.4, 0.2]","[u'red', u'blue', u'black']","[u'left', u'middle', u'right']","[0.8, 0.4, 0.2]","[u'high', u'medium', u'low']","blue",50,"middle","medium","False","False",227,7100,NA
"A2ASTDMWBCFIP0","Sat Oct 31 2020 11:16:49 GMT-0400 (Eastern Daylight Time)","Sat Oct 31 2020 11:24:26 GMT-0400 (Eastern Daylight Time)","Mozilla/5.0 (Windows NT 10.0) AppleWebKit/537.36 (KHTML, like Gecko) Chrome/86.0.4240.111 Safari/537.36",159,"[0.9, 0.5, 0.1]","[0.8, 0.4, 0.2]","[u'red', u'blue', u'black']","[u'left', u'middle', u'right']","[0.8, 0.4, 0.2]","[u'high', u'medium', u'low']","black",51,"right","low","True","False",307,7200,NA
"A2ASTDMWBCFIP0","Sat Oct 31 2020 11:16:49 GMT-0400 (Eastern Daylight Time)","Sat Oct 31 2020 11:24:26 GMT-0400 (Eastern Daylight Time)","Mozilla/5.0 (Windows NT 10.0) AppleWebKit/537.36 (KHTML, like Gecko) Chrome/86.0.4240.111 Safari/537.36",160,"[0.9, 0.5, 0.1]","[0.8, 0.4, 0.2]","[u'red', u'blue', u'black']","[u'left', u'middle', u'right']","[0.8, 0.4, 0.2]","[u'high', u'medium', u'low']","black",51,"right","low","False","False",290,7150,NA
