"src_subject_id","start_time","end_time","browser","index","first_half_probabilities","second_half_probabilities","deck_color","deck_position","deck_probabilities","deck_contingencies","response_color","key_press","response_position","response_probability","reward_type","trial_type","rt","reward_tally","exclusion_reason"
"A3FGT6EU39C6S4","Sat Oct 31 2020 13:00:29 GMT-0500 (Central Daylight Time)","Sat Oct 31 2020 13:07:44 GMT-0500 (Central Daylight Time)","Mozilla/5.0 (Windows NT 6.3; Win64; x64) AppleWebKit/537.36 (KHTML, like Gecko) Chrome/86.0.4240.111 Safari/537.36",1,"[0.9, 0.5, 0.1]","[0.8, 0.4, 0.2]","[u'red', u'blue', u'black']","[u'left', u'middle', u'right']","[0.9, 0.5, 0.1]","[u'medium', u'high', u'low']","black",51,"right","low","False","False",402,-50,NA
"A3FGT6EU39C6S4","Sat Oct 31 2020 13:00:29 GMT-0500 (Central Daylight Time)","Sat Oct 31 2020 13:07:44 GMT-0500 (Central Daylight Time)","Mozilla/5.0 (Windows NT 6.3; Win64; x64) AppleWebKit/537.36 (KHTML, like Gecko) Chrome/86.0.4240.111 Safari/537.36",2,"[0.9, 0.5, 0.1]","[0.8, 0.4, 0.2]","[u'red', u'blue', u'black']","[u'left', u'middle', u'right']","[0.9, 0.5, 0.1]","[u'medium', u'high', u'low']","blue",50,"middle","high","False","False",275,-100,NA
"A3FGT6EU39C6S4","Sat Oct 31 2020 13:00:29 GMT-0500 (Central Daylight Time)","Sat Oct 31 2020 13:07:44 GMT-0500 (Central Daylight Time)","Mozilla/5.0 (Windows NT 6.3; Win64; x64) AppleWebKit/537.36 (KHTML, like Gecko) Chrome/86.0.4240.111 Safari/537.36",3,"[0.9, 0.5, 0.1]","[0.8, 0.4, 0.2]","[u'red', u'blue', u'black']","[u'left', u'middle', u'right']","[0.9, 0.5, 0.1]","[u'medium', u'high', u'low']","red",49,"left","medium","True","False",770,0,NA
"A3FGT6EU39C6S4","Sat Oct 31 2020 13:00:29 GMT-0500 (Central Daylight Time)","Sat Oct 31 2020 13:07:44 GMT-0500 (Central Daylight Time)","Mozilla/5.0 (Windows NT 6.3; Win64; x64) AppleWebKit/537.36 (KHTML, like Gecko) Chrome/86.0.4240.111 Safari/537.36",4,"[0.9, 0.5, 0.1]","[0.8, 0.4, 0.2]","[u'red', u'blue', u'black']","[u'left', u'middle', u'right']","[0.9, 0.5, 0.1]","[u'medium', u'high', u'low']","red",49,"left","medium","True","False",229,100,NA
"A3FGT6EU39C6S4","Sat Oct 31 2020 13:00:29 GMT-0500 (Central Daylight Time)","Sat Oct 31 2020 13:07:44 GMT-0500 (Central Daylight Time)","Mozilla/5.0 (Windows NT 6.3; Win64; x64) AppleWebKit/537.36 (KHTML, like Gecko) Chrome/86.0.4240.111 Safari/537.36",5,"[0.9, 0.5, 0.1]","[0.8, 0.4, 0.2]","[u'red', u'blue', u'black']","[u'left', u'middle', u'right']","[0.9, 0.5, 0.1]","[u'medium', u'high', u'low']","red",49,"left","medium","False","False",223,50,NA
"A3FGT6EU39C6S4","Sat Oct 31 2020 13:00:29 GMT-0500 (Central Daylight Time)","Sat Oct 31 2020 13:07:44 GMT-0500 (Central Daylight Time)","Mozilla/5.0 (Windows NT 6.3; Win64; x64) AppleWebKit/537.36 (KHTML, like Gecko) Chrome/86.0.4240.111 Safari/537.36",6,"[0.9, 0.5, 0.1]","[0.8, 0.4, 0.2]","[u'red', u'blue', u'black']","[u'left', u'middle', u'right']","[0.9, 0.5, 0.1]","[u'medium', u'high', u'low']","black",51,"right","low","False","False",244,0,NA
"A3FGT6EU39C6S4","Sat Oct 31 2020 13:00:29 GMT-0500 (Central Daylight Time)","Sat Oct 31 2020 13:07:44 GMT-0500 (Central Daylight Time)","Mozilla/5.0 (Windows NT 6.3; Win64; x64) AppleWebKit/537.36 (KHTML, like Gecko) Chrome/86.0.4240.111 Safari/537.36",7,"[0.9, 0.5, 0.1]","[0.8, 0.4, 0.2]","[u'red', u'blue', u'black']","[u'left', u'middle', u'right']","[0.9, 0.5, 0.1]","[u'medium', u'high', u'low']","blue",50,"middle","high","True","False",207,100,NA
"A3FGT6EU39C6S4","Sat Oct 31 2020 13:00:29 GMT-0500 (Central Daylight Time)","Sat Oct 31 2020 13:07:44 GMT-0500 (Central Daylight Time)","Mozilla/5.0 (Windows NT 6.3; Win64; x64) AppleWebKit/537.36 (KHTML, like Gecko) Chrome/86.0.4240.111 Safari/537.36",8,"[0.9, 0.5, 0.1]","[0.8, 0.4, 0.2]","[u'red', u'blue', u'black']","[u'left', u'middle', u'right']","[0.9, 0.5, 0.1]","[u'medium', u'high', u'low']","blue",50,"middle","high","True","False",440,200,NA
"A3FGT6EU39C6S4","Sat Oct 31 2020 13:00:29 GMT-0500 (Central Daylight Time)","Sat Oct 31 2020 13:07:44 GMT-0500 (Central Daylight Time)","Mozilla/5.0 (Windows NT 6.3; Win64; x64) AppleWebKit/537.36 (KHTML, like Gecko) Chrome/86.0.4240.111 Safari/537.36",9,"[0.9, 0.5, 0.1]","[0.8, 0.4, 0.2]","[u'red', u'blue', u'black']","[u'left', u'middle', u'right']","[0.9, 0.5, 0.1]","[u'medium', u'high', u'low']","blue",50,"middle","high","True","False",204,300,NA
"A3FGT6EU39C6S4","Sat Oct 31 2020 13:00:29 GMT-0500 (Central Daylight Time)","Sat Oct 31 2020 13:07:44 GMT-0500 (Central Daylight Time)","Mozilla/5.0 (Windows NT 6.3; Win64; x64) AppleWebKit/537.36 (KHTML, like Gecko) Chrome/86.0.4240.111 Safari/537.36",10,"[0.9, 0.5, 0.1]","[0.8, 0.4, 0.2]","[u'red', u'blue', u'black']","[u'left', u'middle', u'right']","[0.9, 0.5, 0.1]","[u'medium', u'high', u'low']","blue",50,"middle","high","True","False",232,400,NA
"A3FGT6EU39C6S4","Sat Oct 31 2020 13:00:29 GMT-0500 (Central Daylight Time)","Sat Oct 31 2020 13:07:44 GMT-0500 (Central Daylight Time)","Mozilla/5.0 (Windows NT 6.3; Win64; x64) AppleWebKit/537.36 (KHTML, like Gecko) Chrome/86.0.4240.111 Safari/537.36",11,"[0.9, 0.5, 0.1]","[0.8, 0.4, 0.2]","[u'red', u'blue', u'black']","[u'left', u'middle', u'right']","[0.9, 0.5, 0.1]","[u'medium', u'high', u'low']","blue",50,"middle","high","False","False",197,350,NA
"A3FGT6EU39C6S4","Sat Oct 31 2020 13:00:29 GMT-0500 (Central Daylight Time)","Sat Oct 31 2020 13:07:44 GMT-0500 (Central Daylight Time)","Mozilla/5.0 (Windows NT 6.3; Win64; x64) AppleWebKit/537.36 (KHTML, like Gecko) Chrome/86.0.4240.111 Safari/537.36",12,"[0.9, 0.5, 0.1]","[0.8, 0.4, 0.2]","[u'red', u'blue', u'black']","[u'left', u'middle', u'right']","[0.9, 0.5, 0.1]","[u'medium', u'high', u'low']","red",49,"left","medium","False","False",224,300,NA
"A3FGT6EU39C6S4","Sat Oct 31 2020 13:00:29 GMT-0500 (Central Daylight Time)","Sat Oct 31 2020 13:07:44 GMT-0500 (Central Daylight Time)","Mozilla/5.0 (Windows NT 6.3; Win64; x64) AppleWebKit/537.36 (KHTML, like Gecko) Chrome/86.0.4240.111 Safari/537.36",13,"[0.9, 0.5, 0.1]","[0.8, 0.4, 0.2]","[u'red', u'blue', u'black']","[u'left', u'middle', u'right']","[0.9, 0.5, 0.1]","[u'medium', u'high', u'low']","black",51,"right","low","False","False",986,250,NA
"A3FGT6EU39C6S4","Sat Oct 31 2020 13:00:29 GMT-0500 (Central Daylight Time)","Sat Oct 31 2020 13:07:44 GMT-0500 (Central Daylight Time)","Mozilla/5.0 (Windows NT 6.3; Win64; x64) AppleWebKit/537.36 (KHTML, like Gecko) Chrome/86.0.4240.111 Safari/537.36",14,"[0.9, 0.5, 0.1]","[0.8, 0.4, 0.2]","[u'red', u'blue', u'black']","[u'left', u'middle', u'right']","[0.9, 0.5, 0.1]","[u'medium', u'high', u'low']","black",51,"right","low","False","False",228,200,NA
"A3FGT6EU39C6S4","Sat Oct 31 2020 13:00:29 GMT-0500 (Central Daylight Time)","Sat Oct 31 2020 13:07:44 GMT-0500 (Central Daylight Time)","Mozilla/5.0 (Windows NT 6.3; Win64; x64) AppleWebKit/537.36 (KHTML, like Gecko) Chrome/86.0.4240.111 Safari/537.36",15,"[0.9, 0.5, 0.1]","[0.8, 0.4, 0.2]","[u'red', u'blue', u'black']","[u'left', u'middle', u'right']","[0.9, 0.5, 0.1]","[u'medium', u'high', u'low']","red",49,"left","medium","False","False",293,150,NA
"A3FGT6EU39C6S4","Sat Oct 31 2020 13:00:29 GMT-0500 (Central Daylight Time)","Sat Oct 31 2020 13:07:44 GMT-0500 (Central Daylight Time)","Mozilla/5.0 (Windows NT 6.3; Win64; x64) AppleWebKit/537.36 (KHTML, like Gecko) Chrome/86.0.4240.111 Safari/537.36",16,"[0.9, 0.5, 0.1]","[0.8, 0.4, 0.2]","[u'red', u'blue', u'black']","[u'left', u'middle', u'right']","[0.9, 0.5, 0.1]","[u'medium', u'high', u'low']","blue",50,"middle","high","True","False",189,250,NA
"A3FGT6EU39C6S4","Sat Oct 31 2020 13:00:29 GMT-0500 (Central Daylight Time)","Sat Oct 31 2020 13:07:44 GMT-0500 (Central Daylight Time)","Mozilla/5.0 (Windows NT 6.3; Win64; x64) AppleWebKit/537.36 (KHTML, like Gecko) Chrome/86.0.4240.111 Safari/537.36",17,"[0.9, 0.5, 0.1]","[0.8, 0.4, 0.2]","[u'red', u'blue', u'black']","[u'left', u'middle', u'right']","[0.9, 0.5, 0.1]","[u'medium', u'high', u'low']","blue",50,"middle","high","True","False",179,350,NA
"A3FGT6EU39C6S4","Sat Oct 31 2020 13:00:29 GMT-0500 (Central Daylight Time)","Sat Oct 31 2020 13:07:44 GMT-0500 (Central Daylight Time)","Mozilla/5.0 (Windows NT 6.3; Win64; x64) AppleWebKit/537.36 (KHTML, like Gecko) Chrome/86.0.4240.111 Safari/537.36",18,"[0.9, 0.5, 0.1]","[0.8, 0.4, 0.2]","[u'red', u'blue', u'black']","[u'left', u'middle', u'right']","[0.9, 0.5, 0.1]","[u'medium', u'high', u'low']","blue",50,"middle","high","True","False",277,450,NA
"A3FGT6EU39C6S4","Sat Oct 31 2020 13:00:29 GMT-0500 (Central Daylight Time)","Sat Oct 31 2020 13:07:44 GMT-0500 (Central Daylight Time)","Mozilla/5.0 (Windows NT 6.3; Win64; x64) AppleWebKit/537.36 (KHTML, like Gecko) Chrome/86.0.4240.111 Safari/537.36",19,"[0.9, 0.5, 0.1]","[0.8, 0.4, 0.2]","[u'red', u'blue', u'black']","[u'left', u'middle', u'right']","[0.9, 0.5, 0.1]","[u'medium', u'high', u'low']","blue",50,"middle","high","True","False",260,550,NA
"A3FGT6EU39C6S4","Sat Oct 31 2020 13:00:29 GMT-0500 (Central Daylight Time)","Sat Oct 31 2020 13:07:44 GMT-0500 (Central Daylight Time)","Mozilla/5.0 (Windows NT 6.3; Win64; x64) AppleWebKit/537.36 (KHTML, like Gecko) Chrome/86.0.4240.111 Safari/537.36",20,"[0.9, 0.5, 0.1]","[0.8, 0.4, 0.2]","[u'red', u'blue', u'black']","[u'left', u'middle', u'right']","[0.9, 0.5, 0.1]","[u'medium', u'high', u'low']","blue",50,"middle","high","True","False",158,650,NA
"A3FGT6EU39C6S4","Sat Oct 31 2020 13:00:29 GMT-0500 (Central Daylight Time)","Sat Oct 31 2020 13:07:44 GMT-0500 (Central Daylight Time)","Mozilla/5.0 (Windows NT 6.3; Win64; x64) AppleWebKit/537.36 (KHTML, like Gecko) Chrome/86.0.4240.111 Safari/537.36",21,"[0.9, 0.5, 0.1]","[0.8, 0.4, 0.2]","[u'red', u'blue', u'black']","[u'left', u'middle', u'right']","[0.9, 0.5, 0.1]","[u'medium', u'high', u'low']","blue",50,"middle","high","False","False",298,600,NA
"A3FGT6EU39C6S4","Sat Oct 31 2020 13:00:29 GMT-0500 (Central Daylight Time)","Sat Oct 31 2020 13:07:44 GMT-0500 (Central Daylight Time)","Mozilla/5.0 (Windows NT 6.3; Win64; x64) AppleWebKit/537.36 (KHTML, like Gecko) Chrome/86.0.4240.111 Safari/537.36",22,"[0.9, 0.5, 0.1]","[0.8, 0.4, 0.2]","[u'red', u'blue', u'black']","[u'left', u'middle', u'right']","[0.9, 0.5, 0.1]","[u'medium', u'high', u'low']","blue",50,"middle","high","True","False",111,700,NA
"A3FGT6EU39C6S4","Sat Oct 31 2020 13:00:29 GMT-0500 (Central Daylight Time)","Sat Oct 31 2020 13:07:44 GMT-0500 (Central Daylight Time)","Mozilla/5.0 (Windows NT 6.3; Win64; x64) AppleWebKit/537.36 (KHTML, like Gecko) Chrome/86.0.4240.111 Safari/537.36",23,"[0.9, 0.5, 0.1]","[0.8, 0.4, 0.2]","[u'red', u'blue', u'black']","[u'left', u'middle', u'right']","[0.9, 0.5, 0.1]","[u'medium', u'high', u'low']","blue",50,"middle","high","True","False",1173,800,NA
"A3FGT6EU39C6S4","Sat Oct 31 2020 13:00:29 GMT-0500 (Central Daylight Time)","Sat Oct 31 2020 13:07:44 GMT-0500 (Central Daylight Time)","Mozilla/5.0 (Windows NT 6.3; Win64; x64) AppleWebKit/537.36 (KHTML, like Gecko) Chrome/86.0.4240.111 Safari/537.36",24,"[0.9, 0.5, 0.1]","[0.8, 0.4, 0.2]","[u'red', u'blue', u'black']","[u'left', u'middle', u'right']","[0.9, 0.5, 0.1]","[u'medium', u'high', u'low']","blue",50,"middle","high","True","True",218,900,NA
"A3FGT6EU39C6S4","Sat Oct 31 2020 13:00:29 GMT-0500 (Central Daylight Time)","Sat Oct 31 2020 13:07:44 GMT-0500 (Central Daylight Time)","Mozilla/5.0 (Windows NT 6.3; Win64; x64) AppleWebKit/537.36 (KHTML, like Gecko) Chrome/86.0.4240.111 Safari/537.36",25,"[0.9, 0.5, 0.1]","[0.8, 0.4, 0.2]","[u'red', u'blue', u'black']","[u'left', u'middle', u'right']","[0.9, 0.5, 0.1]","[u'medium', u'low', u'high']","blue",50,"middle","low","False","False",233,850,NA
"A3FGT6EU39C6S4","Sat Oct 31 2020 13:00:29 GMT-0500 (Central Daylight Time)","Sat Oct 31 2020 13:07:44 GMT-0500 (Central Daylight Time)","Mozilla/5.0 (Windows NT 6.3; Win64; x64) AppleWebKit/537.36 (KHTML, like Gecko) Chrome/86.0.4240.111 Safari/537.36",26,"[0.9, 0.5, 0.1]","[0.8, 0.4, 0.2]","[u'red', u'blue', u'black']","[u'left', u'middle', u'right']","[0.9, 0.5, 0.1]","[u'medium', u'low', u'high']","blue",50,"middle","low","False","False",371,800,NA
"A3FGT6EU39C6S4","Sat Oct 31 2020 13:00:29 GMT-0500 (Central Daylight Time)","Sat Oct 31 2020 13:07:44 GMT-0500 (Central Daylight Time)","Mozilla/5.0 (Windows NT 6.3; Win64; x64) AppleWebKit/537.36 (KHTML, like Gecko) Chrome/86.0.4240.111 Safari/537.36",27,"[0.9, 0.5, 0.1]","[0.8, 0.4, 0.2]","[u'red', u'blue', u'black']","[u'left', u'middle', u'right']","[0.9, 0.5, 0.1]","[u'medium', u'low', u'high']","blue",50,"middle","low","False","False",226,750,NA
"A3FGT6EU39C6S4","Sat Oct 31 2020 13:00:29 GMT-0500 (Central Daylight Time)","Sat Oct 31 2020 13:07:44 GMT-0500 (Central Daylight Time)","Mozilla/5.0 (Windows NT 6.3; Win64; x64) AppleWebKit/537.36 (KHTML, like Gecko) Chrome/86.0.4240.111 Safari/537.36",28,"[0.9, 0.5, 0.1]","[0.8, 0.4, 0.2]","[u'red', u'blue', u'black']","[u'left', u'middle', u'right']","[0.9, 0.5, 0.1]","[u'medium', u'low', u'high']","blue",50,"middle","low","False","False",601,700,NA
"A3FGT6EU39C6S4","Sat Oct 31 2020 13:00:29 GMT-0500 (Central Daylight Time)","Sat Oct 31 2020 13:07:44 GMT-0500 (Central Daylight Time)","Mozilla/5.0 (Windows NT 6.3; Win64; x64) AppleWebKit/537.36 (KHTML, like Gecko) Chrome/86.0.4240.111 Safari/537.36",29,"[0.9, 0.5, 0.1]","[0.8, 0.4, 0.2]","[u'red', u'blue', u'black']","[u'left', u'middle', u'right']","[0.9, 0.5, 0.1]","[u'medium', u'low', u'high']","red",49,"left","medium","True","False",235,800,NA
"A3FGT6EU39C6S4","Sat Oct 31 2020 13:00:29 GMT-0500 (Central Daylight Time)","Sat Oct 31 2020 13:07:44 GMT-0500 (Central Daylight Time)","Mozilla/5.0 (Windows NT 6.3; Win64; x64) AppleWebKit/537.36 (KHTML, like Gecko) Chrome/86.0.4240.111 Safari/537.36",30,"[0.9, 0.5, 0.1]","[0.8, 0.4, 0.2]","[u'red', u'blue', u'black']","[u'left', u'middle', u'right']","[0.9, 0.5, 0.1]","[u'medium', u'low', u'high']","red",49,"left","medium","False","False",254,750,NA
"A3FGT6EU39C6S4","Sat Oct 31 2020 13:00:29 GMT-0500 (Central Daylight Time)","Sat Oct 31 2020 13:07:44 GMT-0500 (Central Daylight Time)","Mozilla/5.0 (Windows NT 6.3; Win64; x64) AppleWebKit/537.36 (KHTML, like Gecko) Chrome/86.0.4240.111 Safari/537.36",31,"[0.9, 0.5, 0.1]","[0.8, 0.4, 0.2]","[u'red', u'blue', u'black']","[u'left', u'middle', u'right']","[0.9, 0.5, 0.1]","[u'medium', u'low', u'high']","blue",50,"middle","low","False","False",519,700,NA
"A3FGT6EU39C6S4","Sat Oct 31 2020 13:00:29 GMT-0500 (Central Daylight Time)","Sat Oct 31 2020 13:07:44 GMT-0500 (Central Daylight Time)","Mozilla/5.0 (Windows NT 6.3; Win64; x64) AppleWebKit/537.36 (KHTML, like Gecko) Chrome/86.0.4240.111 Safari/537.36",32,"[0.9, 0.5, 0.1]","[0.8, 0.4, 0.2]","[u'red', u'blue', u'black']","[u'left', u'middle', u'right']","[0.9, 0.5, 0.1]","[u'medium', u'low', u'high']","red",49,"left","medium","True","False",267,800,NA
"A3FGT6EU39C6S4","Sat Oct 31 2020 13:00:29 GMT-0500 (Central Daylight Time)","Sat Oct 31 2020 13:07:44 GMT-0500 (Central Daylight Time)","Mozilla/5.0 (Windows NT 6.3; Win64; x64) AppleWebKit/537.36 (KHTML, like Gecko) Chrome/86.0.4240.111 Safari/537.36",33,"[0.9, 0.5, 0.1]","[0.8, 0.4, 0.2]","[u'red', u'blue', u'black']","[u'left', u'middle', u'right']","[0.9, 0.5, 0.1]","[u'medium', u'low', u'high']","red",49,"left","medium","False","False",364,750,NA
"A3FGT6EU39C6S4","Sat Oct 31 2020 13:00:29 GMT-0500 (Central Daylight Time)","Sat Oct 31 2020 13:07:44 GMT-0500 (Central Daylight Time)","Mozilla/5.0 (Windows NT 6.3; Win64; x64) AppleWebKit/537.36 (KHTML, like Gecko) Chrome/86.0.4240.111 Safari/537.36",34,"[0.9, 0.5, 0.1]","[0.8, 0.4, 0.2]","[u'red', u'blue', u'black']","[u'left', u'middle', u'right']","[0.9, 0.5, 0.1]","[u'medium', u'low', u'high']","red",49,"left","medium","False","False",273,700,NA
"A3FGT6EU39C6S4","Sat Oct 31 2020 13:00:29 GMT-0500 (Central Daylight Time)","Sat Oct 31 2020 13:07:44 GMT-0500 (Central Daylight Time)","Mozilla/5.0 (Windows NT 6.3; Win64; x64) AppleWebKit/537.36 (KHTML, like Gecko) Chrome/86.0.4240.111 Safari/537.36",35,"[0.9, 0.5, 0.1]","[0.8, 0.4, 0.2]","[u'red', u'blue', u'black']","[u'left', u'middle', u'right']","[0.9, 0.5, 0.1]","[u'medium', u'low', u'high']","blue",50,"middle","low","False","False",186,650,NA
"A3FGT6EU39C6S4","Sat Oct 31 2020 13:00:29 GMT-0500 (Central Daylight Time)","Sat Oct 31 2020 13:07:44 GMT-0500 (Central Daylight Time)","Mozilla/5.0 (Windows NT 6.3; Win64; x64) AppleWebKit/537.36 (KHTML, like Gecko) Chrome/86.0.4240.111 Safari/537.36",36,"[0.9, 0.5, 0.1]","[0.8, 0.4, 0.2]","[u'red', u'blue', u'black']","[u'left', u'middle', u'right']","[0.9, 0.5, 0.1]","[u'medium', u'low', u'high']","black",51,"right","high","True","False",254,750,NA
"A3FGT6EU39C6S4","Sat Oct 31 2020 13:00:29 GMT-0500 (Central Daylight Time)","Sat Oct 31 2020 13:07:44 GMT-0500 (Central Daylight Time)","Mozilla/5.0 (Windows NT 6.3; Win64; x64) AppleWebKit/537.36 (KHTML, like Gecko) Chrome/86.0.4240.111 Safari/537.36",37,"[0.9, 0.5, 0.1]","[0.8, 0.4, 0.2]","[u'red', u'blue', u'black']","[u'left', u'middle', u'right']","[0.9, 0.5, 0.1]","[u'medium', u'low', u'high']","black",51,"right","high","True","False",282,850,NA
"A3FGT6EU39C6S4","Sat Oct 31 2020 13:00:29 GMT-0500 (Central Daylight Time)","Sat Oct 31 2020 13:07:44 GMT-0500 (Central Daylight Time)","Mozilla/5.0 (Windows NT 6.3; Win64; x64) AppleWebKit/537.36 (KHTML, like Gecko) Chrome/86.0.4240.111 Safari/537.36",38,"[0.9, 0.5, 0.1]","[0.8, 0.4, 0.2]","[u'red', u'blue', u'black']","[u'left', u'middle', u'right']","[0.9, 0.5, 0.1]","[u'medium', u'low', u'high']","black",51,"right","high","True","False",263,950,NA
"A3FGT6EU39C6S4","Sat Oct 31 2020 13:00:29 GMT-0500 (Central Daylight Time)","Sat Oct 31 2020 13:07:44 GMT-0500 (Central Daylight Time)","Mozilla/5.0 (Windows NT 6.3; Win64; x64) AppleWebKit/537.36 (KHTML, like Gecko) Chrome/86.0.4240.111 Safari/537.36",39,"[0.9, 0.5, 0.1]","[0.8, 0.4, 0.2]","[u'red', u'blue', u'black']","[u'left', u'middle', u'right']","[0.9, 0.5, 0.1]","[u'medium', u'low', u'high']","black",51,"right","high","True","False",270,1050,NA
"A3FGT6EU39C6S4","Sat Oct 31 2020 13:00:29 GMT-0500 (Central Daylight Time)","Sat Oct 31 2020 13:07:44 GMT-0500 (Central Daylight Time)","Mozilla/5.0 (Windows NT 6.3; Win64; x64) AppleWebKit/537.36 (KHTML, like Gecko) Chrome/86.0.4240.111 Safari/537.36",40,"[0.9, 0.5, 0.1]","[0.8, 0.4, 0.2]","[u'red', u'blue', u'black']","[u'left', u'middle', u'right']","[0.9, 0.5, 0.1]","[u'medium', u'low', u'high']","black",51,"right","high","True","False",259,1150,NA
"A3FGT6EU39C6S4","Sat Oct 31 2020 13:00:29 GMT-0500 (Central Daylight Time)","Sat Oct 31 2020 13:07:44 GMT-0500 (Central Daylight Time)","Mozilla/5.0 (Windows NT 6.3; Win64; x64) AppleWebKit/537.36 (KHTML, like Gecko) Chrome/86.0.4240.111 Safari/537.36",41,"[0.9, 0.5, 0.1]","[0.8, 0.4, 0.2]","[u'red', u'blue', u'black']","[u'left', u'middle', u'right']","[0.9, 0.5, 0.1]","[u'low', u'high', u'medium']","blue",50,"middle","high","True","False",1966,1250,NA
"A3FGT6EU39C6S4","Sat Oct 31 2020 13:00:29 GMT-0500 (Central Daylight Time)","Sat Oct 31 2020 13:07:44 GMT-0500 (Central Daylight Time)","Mozilla/5.0 (Windows NT 6.3; Win64; x64) AppleWebKit/537.36 (KHTML, like Gecko) Chrome/86.0.4240.111 Safari/537.36",42,"[0.9, 0.5, 0.1]","[0.8, 0.4, 0.2]","[u'red', u'blue', u'black']","[u'left', u'middle', u'right']","[0.9, 0.5, 0.1]","[u'low', u'high', u'medium']","blue",50,"middle","high","True","False",321,1350,NA
"A3FGT6EU39C6S4","Sat Oct 31 2020 13:00:29 GMT-0500 (Central Daylight Time)","Sat Oct 31 2020 13:07:44 GMT-0500 (Central Daylight Time)","Mozilla/5.0 (Windows NT 6.3; Win64; x64) AppleWebKit/537.36 (KHTML, like Gecko) Chrome/86.0.4240.111 Safari/537.36",43,"[0.9, 0.5, 0.1]","[0.8, 0.4, 0.2]","[u'red', u'blue', u'black']","[u'left', u'middle', u'right']","[0.9, 0.5, 0.1]","[u'low', u'high', u'medium']","blue",50,"middle","high","True","False",293,1450,NA
"A3FGT6EU39C6S4","Sat Oct 31 2020 13:00:29 GMT-0500 (Central Daylight Time)","Sat Oct 31 2020 13:07:44 GMT-0500 (Central Daylight Time)","Mozilla/5.0 (Windows NT 6.3; Win64; x64) AppleWebKit/537.36 (KHTML, like Gecko) Chrome/86.0.4240.111 Safari/537.36",44,"[0.9, 0.5, 0.1]","[0.8, 0.4, 0.2]","[u'red', u'blue', u'black']","[u'left', u'middle', u'right']","[0.9, 0.5, 0.1]","[u'low', u'high', u'medium']","blue",50,"middle","high","True","False",238,1550,NA
"A3FGT6EU39C6S4","Sat Oct 31 2020 13:00:29 GMT-0500 (Central Daylight Time)","Sat Oct 31 2020 13:07:44 GMT-0500 (Central Daylight Time)","Mozilla/5.0 (Windows NT 6.3; Win64; x64) AppleWebKit/537.36 (KHTML, like Gecko) Chrome/86.0.4240.111 Safari/537.36",45,"[0.9, 0.5, 0.1]","[0.8, 0.4, 0.2]","[u'red', u'blue', u'black']","[u'left', u'middle', u'right']","[0.9, 0.5, 0.1]","[u'low', u'high', u'medium']","blue",50,"middle","high","True","False",263,1650,NA
"A3FGT6EU39C6S4","Sat Oct 31 2020 13:00:29 GMT-0500 (Central Daylight Time)","Sat Oct 31 2020 13:07:44 GMT-0500 (Central Daylight Time)","Mozilla/5.0 (Windows NT 6.3; Win64; x64) AppleWebKit/537.36 (KHTML, like Gecko) Chrome/86.0.4240.111 Safari/537.36",46,"[0.9, 0.5, 0.1]","[0.8, 0.4, 0.2]","[u'red', u'blue', u'black']","[u'left', u'middle', u'right']","[0.9, 0.5, 0.1]","[u'low', u'high', u'medium']","blue",50,"middle","high","True","False",218,1750,NA
"A3FGT6EU39C6S4","Sat Oct 31 2020 13:00:29 GMT-0500 (Central Daylight Time)","Sat Oct 31 2020 13:07:44 GMT-0500 (Central Daylight Time)","Mozilla/5.0 (Windows NT 6.3; Win64; x64) AppleWebKit/537.36 (KHTML, like Gecko) Chrome/86.0.4240.111 Safari/537.36",47,"[0.9, 0.5, 0.1]","[0.8, 0.4, 0.2]","[u'red', u'blue', u'black']","[u'left', u'middle', u'right']","[0.9, 0.5, 0.1]","[u'low', u'high', u'medium']","blue",50,"middle","high","False","False",288,1700,NA
"A3FGT6EU39C6S4","Sat Oct 31 2020 13:00:29 GMT-0500 (Central Daylight Time)","Sat Oct 31 2020 13:07:44 GMT-0500 (Central Daylight Time)","Mozilla/5.0 (Windows NT 6.3; Win64; x64) AppleWebKit/537.36 (KHTML, like Gecko) Chrome/86.0.4240.111 Safari/537.36",48,"[0.9, 0.5, 0.1]","[0.8, 0.4, 0.2]","[u'red', u'blue', u'black']","[u'left', u'middle', u'right']","[0.9, 0.5, 0.1]","[u'low', u'high', u'medium']","red",49,"left","low","False","False",639,1650,NA
"A3FGT6EU39C6S4","Sat Oct 31 2020 13:00:29 GMT-0500 (Central Daylight Time)","Sat Oct 31 2020 13:07:44 GMT-0500 (Central Daylight Time)","Mozilla/5.0 (Windows NT 6.3; Win64; x64) AppleWebKit/537.36 (KHTML, like Gecko) Chrome/86.0.4240.111 Safari/537.36",49,"[0.9, 0.5, 0.1]","[0.8, 0.4, 0.2]","[u'red', u'blue', u'black']","[u'left', u'middle', u'right']","[0.9, 0.5, 0.1]","[u'low', u'high', u'medium']","black",51,"right","medium","False","False",258,1600,NA
"A3FGT6EU39C6S4","Sat Oct 31 2020 13:00:29 GMT-0500 (Central Daylight Time)","Sat Oct 31 2020 13:07:44 GMT-0500 (Central Daylight Time)","Mozilla/5.0 (Windows NT 6.3; Win64; x64) AppleWebKit/537.36 (KHTML, like Gecko) Chrome/86.0.4240.111 Safari/537.36",50,"[0.9, 0.5, 0.1]","[0.8, 0.4, 0.2]","[u'red', u'blue', u'black']","[u'left', u'middle', u'right']","[0.9, 0.5, 0.1]","[u'low', u'high', u'medium']","blue",50,"middle","high","True","False",237,1700,NA
"A3FGT6EU39C6S4","Sat Oct 31 2020 13:00:29 GMT-0500 (Central Daylight Time)","Sat Oct 31 2020 13:07:44 GMT-0500 (Central Daylight Time)","Mozilla/5.0 (Windows NT 6.3; Win64; x64) AppleWebKit/537.36 (KHTML, like Gecko) Chrome/86.0.4240.111 Safari/537.36",51,"[0.9, 0.5, 0.1]","[0.8, 0.4, 0.2]","[u'red', u'blue', u'black']","[u'left', u'middle', u'right']","[0.9, 0.5, 0.1]","[u'low', u'high', u'medium']","blue",50,"middle","high","True","False",264,1800,NA
"A3FGT6EU39C6S4","Sat Oct 31 2020 13:00:29 GMT-0500 (Central Daylight Time)","Sat Oct 31 2020 13:07:44 GMT-0500 (Central Daylight Time)","Mozilla/5.0 (Windows NT 6.3; Win64; x64) AppleWebKit/537.36 (KHTML, like Gecko) Chrome/86.0.4240.111 Safari/537.36",52,"[0.9, 0.5, 0.1]","[0.8, 0.4, 0.2]","[u'red', u'blue', u'black']","[u'left', u'middle', u'right']","[0.9, 0.5, 0.1]","[u'low', u'high', u'medium']","blue",50,"middle","high","True","False",227,1900,NA
"A3FGT6EU39C6S4","Sat Oct 31 2020 13:00:29 GMT-0500 (Central Daylight Time)","Sat Oct 31 2020 13:07:44 GMT-0500 (Central Daylight Time)","Mozilla/5.0 (Windows NT 6.3; Win64; x64) AppleWebKit/537.36 (KHTML, like Gecko) Chrome/86.0.4240.111 Safari/537.36",53,"[0.9, 0.5, 0.1]","[0.8, 0.4, 0.2]","[u'red', u'blue', u'black']","[u'left', u'middle', u'right']","[0.9, 0.5, 0.1]","[u'low', u'high', u'medium']","blue",50,"middle","high","True","False",229,2000,NA
"A3FGT6EU39C6S4","Sat Oct 31 2020 13:00:29 GMT-0500 (Central Daylight Time)","Sat Oct 31 2020 13:07:44 GMT-0500 (Central Daylight Time)","Mozilla/5.0 (Windows NT 6.3; Win64; x64) AppleWebKit/537.36 (KHTML, like Gecko) Chrome/86.0.4240.111 Safari/537.36",54,"[0.9, 0.5, 0.1]","[0.8, 0.4, 0.2]","[u'red', u'blue', u'black']","[u'left', u'middle', u'right']","[0.9, 0.5, 0.1]","[u'low', u'high', u'medium']","blue",50,"middle","high","True","False",286,2100,NA
"A3FGT6EU39C6S4","Sat Oct 31 2020 13:00:29 GMT-0500 (Central Daylight Time)","Sat Oct 31 2020 13:07:44 GMT-0500 (Central Daylight Time)","Mozilla/5.0 (Windows NT 6.3; Win64; x64) AppleWebKit/537.36 (KHTML, like Gecko) Chrome/86.0.4240.111 Safari/537.36",55,"[0.9, 0.5, 0.1]","[0.8, 0.4, 0.2]","[u'red', u'blue', u'black']","[u'left', u'middle', u'right']","[0.9, 0.5, 0.1]","[u'low', u'high', u'medium']","blue",50,"middle","high","True","False",227,2200,NA
"A3FGT6EU39C6S4","Sat Oct 31 2020 13:00:29 GMT-0500 (Central Daylight Time)","Sat Oct 31 2020 13:07:44 GMT-0500 (Central Daylight Time)","Mozilla/5.0 (Windows NT 6.3; Win64; x64) AppleWebKit/537.36 (KHTML, like Gecko) Chrome/86.0.4240.111 Safari/537.36",56,"[0.9, 0.5, 0.1]","[0.8, 0.4, 0.2]","[u'red', u'blue', u'black']","[u'left', u'middle', u'right']","[0.9, 0.5, 0.1]","[u'low', u'high', u'medium']","blue",50,"middle","high","False","False",146,2150,NA
"A3FGT6EU39C6S4","Sat Oct 31 2020 13:00:29 GMT-0500 (Central Daylight Time)","Sat Oct 31 2020 13:07:44 GMT-0500 (Central Daylight Time)","Mozilla/5.0 (Windows NT 6.3; Win64; x64) AppleWebKit/537.36 (KHTML, like Gecko) Chrome/86.0.4240.111 Safari/537.36",57,"[0.9, 0.5, 0.1]","[0.8, 0.4, 0.2]","[u'red', u'blue', u'black']","[u'left', u'middle', u'right']","[0.9, 0.5, 0.1]","[u'low', u'high', u'medium']","red",49,"left","low","False","False",393,2100,NA
"A3FGT6EU39C6S4","Sat Oct 31 2020 13:00:29 GMT-0500 (Central Daylight Time)","Sat Oct 31 2020 13:07:44 GMT-0500 (Central Daylight Time)","Mozilla/5.0 (Windows NT 6.3; Win64; x64) AppleWebKit/537.36 (KHTML, like Gecko) Chrome/86.0.4240.111 Safari/537.36",58,"[0.9, 0.5, 0.1]","[0.8, 0.4, 0.2]","[u'red', u'blue', u'black']","[u'left', u'middle', u'right']","[0.9, 0.5, 0.1]","[u'low', u'high', u'medium']","black",51,"right","medium","False","False",94,2050,NA
"A3FGT6EU39C6S4","Sat Oct 31 2020 13:00:29 GMT-0500 (Central Daylight Time)","Sat Oct 31 2020 13:07:44 GMT-0500 (Central Daylight Time)","Mozilla/5.0 (Windows NT 6.3; Win64; x64) AppleWebKit/537.36 (KHTML, like Gecko) Chrome/86.0.4240.111 Safari/537.36",59,"[0.9, 0.5, 0.1]","[0.8, 0.4, 0.2]","[u'red', u'blue', u'black']","[u'left', u'middle', u'right']","[0.9, 0.5, 0.1]","[u'low', u'high', u'medium']","blue",50,"middle","high","True","False",96,2150,NA
"A3FGT6EU39C6S4","Sat Oct 31 2020 13:00:29 GMT-0500 (Central Daylight Time)","Sat Oct 31 2020 13:07:44 GMT-0500 (Central Daylight Time)","Mozilla/5.0 (Windows NT 6.3; Win64; x64) AppleWebKit/537.36 (KHTML, like Gecko) Chrome/86.0.4240.111 Safari/537.36",60,"[0.9, 0.5, 0.1]","[0.8, 0.4, 0.2]","[u'red', u'blue', u'black']","[u'left', u'middle', u'right']","[0.9, 0.5, 0.1]","[u'low', u'high', u'medium']","blue",50,"middle","high","True","False",148,2250,NA
"A3FGT6EU39C6S4","Sat Oct 31 2020 13:00:29 GMT-0500 (Central Daylight Time)","Sat Oct 31 2020 13:07:44 GMT-0500 (Central Daylight Time)","Mozilla/5.0 (Windows NT 6.3; Win64; x64) AppleWebKit/537.36 (KHTML, like Gecko) Chrome/86.0.4240.111 Safari/537.36",61,"[0.9, 0.5, 0.1]","[0.8, 0.4, 0.2]","[u'red', u'blue', u'black']","[u'left', u'middle', u'right']","[0.9, 0.5, 0.1]","[u'low', u'high', u'medium']","blue",50,"middle","high","True","False",238,2350,NA
"A3FGT6EU39C6S4","Sat Oct 31 2020 13:00:29 GMT-0500 (Central Daylight Time)","Sat Oct 31 2020 13:07:44 GMT-0500 (Central Daylight Time)","Mozilla/5.0 (Windows NT 6.3; Win64; x64) AppleWebKit/537.36 (KHTML, like Gecko) Chrome/86.0.4240.111 Safari/537.36",62,"[0.9, 0.5, 0.1]","[0.8, 0.4, 0.2]","[u'red', u'blue', u'black']","[u'left', u'middle', u'right']","[0.9, 0.5, 0.1]","[u'low', u'high', u'medium']","blue",50,"middle","high","True","False",224,2450,NA
"A3FGT6EU39C6S4","Sat Oct 31 2020 13:00:29 GMT-0500 (Central Daylight Time)","Sat Oct 31 2020 13:07:44 GMT-0500 (Central Daylight Time)","Mozilla/5.0 (Windows NT 6.3; Win64; x64) AppleWebKit/537.36 (KHTML, like Gecko) Chrome/86.0.4240.111 Safari/537.36",63,"[0.9, 0.5, 0.1]","[0.8, 0.4, 0.2]","[u'red', u'blue', u'black']","[u'left', u'middle', u'right']","[0.9, 0.5, 0.1]","[u'low', u'high', u'medium']","blue",50,"middle","high","True","False",220,2550,NA
"A3FGT6EU39C6S4","Sat Oct 31 2020 13:00:29 GMT-0500 (Central Daylight Time)","Sat Oct 31 2020 13:07:44 GMT-0500 (Central Daylight Time)","Mozilla/5.0 (Windows NT 6.3; Win64; x64) AppleWebKit/537.36 (KHTML, like Gecko) Chrome/86.0.4240.111 Safari/537.36",64,"[0.9, 0.5, 0.1]","[0.8, 0.4, 0.2]","[u'red', u'blue', u'black']","[u'left', u'middle', u'right']","[0.9, 0.5, 0.1]","[u'low', u'high', u'medium']","blue",50,"middle","high","True","False",208,2650,NA
"A3FGT6EU39C6S4","Sat Oct 31 2020 13:00:29 GMT-0500 (Central Daylight Time)","Sat Oct 31 2020 13:07:44 GMT-0500 (Central Daylight Time)","Mozilla/5.0 (Windows NT 6.3; Win64; x64) AppleWebKit/537.36 (KHTML, like Gecko) Chrome/86.0.4240.111 Safari/537.36",65,"[0.9, 0.5, 0.1]","[0.8, 0.4, 0.2]","[u'red', u'blue', u'black']","[u'left', u'middle', u'right']","[0.9, 0.5, 0.1]","[u'low', u'high', u'medium']","blue",50,"middle","high","True","False",316,2750,NA
"A3FGT6EU39C6S4","Sat Oct 31 2020 13:00:29 GMT-0500 (Central Daylight Time)","Sat Oct 31 2020 13:07:44 GMT-0500 (Central Daylight Time)","Mozilla/5.0 (Windows NT 6.3; Win64; x64) AppleWebKit/537.36 (KHTML, like Gecko) Chrome/86.0.4240.111 Safari/537.36",66,"[0.9, 0.5, 0.1]","[0.8, 0.4, 0.2]","[u'red', u'blue', u'black']","[u'left', u'middle', u'right']","[0.9, 0.5, 0.1]","[u'low', u'high', u'medium']","blue",50,"middle","high","True","False",229,2850,NA
"A3FGT6EU39C6S4","Sat Oct 31 2020 13:00:29 GMT-0500 (Central Daylight Time)","Sat Oct 31 2020 13:07:44 GMT-0500 (Central Daylight Time)","Mozilla/5.0 (Windows NT 6.3; Win64; x64) AppleWebKit/537.36 (KHTML, like Gecko) Chrome/86.0.4240.111 Safari/537.36",67,"[0.9, 0.5, 0.1]","[0.8, 0.4, 0.2]","[u'red', u'blue', u'black']","[u'left', u'middle', u'right']","[0.9, 0.5, 0.1]","[u'low', u'high', u'medium']","blue",50,"middle","high","True","True",264,2950,NA
"A3FGT6EU39C6S4","Sat Oct 31 2020 13:00:29 GMT-0500 (Central Daylight Time)","Sat Oct 31 2020 13:07:44 GMT-0500 (Central Daylight Time)","Mozilla/5.0 (Windows NT 6.3; Win64; x64) AppleWebKit/537.36 (KHTML, like Gecko) Chrome/86.0.4240.111 Safari/537.36",68,"[0.9, 0.5, 0.1]","[0.8, 0.4, 0.2]","[u'red', u'blue', u'black']","[u'left', u'middle', u'right']","[0.9, 0.5, 0.1]","[u'low', u'medium', u'high']","blue",50,"middle","medium","False","False",275,2900,NA
"A3FGT6EU39C6S4","Sat Oct 31 2020 13:00:29 GMT-0500 (Central Daylight Time)","Sat Oct 31 2020 13:07:44 GMT-0500 (Central Daylight Time)","Mozilla/5.0 (Windows NT 6.3; Win64; x64) AppleWebKit/537.36 (KHTML, like Gecko) Chrome/86.0.4240.111 Safari/537.36",69,"[0.9, 0.5, 0.1]","[0.8, 0.4, 0.2]","[u'red', u'blue', u'black']","[u'left', u'middle', u'right']","[0.9, 0.5, 0.1]","[u'low', u'medium', u'high']","red",49,"left","low","False","False",82,2850,NA
"A3FGT6EU39C6S4","Sat Oct 31 2020 13:00:29 GMT-0500 (Central Daylight Time)","Sat Oct 31 2020 13:07:44 GMT-0500 (Central Daylight Time)","Mozilla/5.0 (Windows NT 6.3; Win64; x64) AppleWebKit/537.36 (KHTML, like Gecko) Chrome/86.0.4240.111 Safari/537.36",70,"[0.9, 0.5, 0.1]","[0.8, 0.4, 0.2]","[u'red', u'blue', u'black']","[u'left', u'middle', u'right']","[0.9, 0.5, 0.1]","[u'low', u'medium', u'high']","black",51,"right","high","False","False",142,2800,NA
"A3FGT6EU39C6S4","Sat Oct 31 2020 13:00:29 GMT-0500 (Central Daylight Time)","Sat Oct 31 2020 13:07:44 GMT-0500 (Central Daylight Time)","Mozilla/5.0 (Windows NT 6.3; Win64; x64) AppleWebKit/537.36 (KHTML, like Gecko) Chrome/86.0.4240.111 Safari/537.36",71,"[0.9, 0.5, 0.1]","[0.8, 0.4, 0.2]","[u'red', u'blue', u'black']","[u'left', u'middle', u'right']","[0.9, 0.5, 0.1]","[u'low', u'medium', u'high']","blue",50,"middle","medium","False","False",192,2750,NA
"A3FGT6EU39C6S4","Sat Oct 31 2020 13:00:29 GMT-0500 (Central Daylight Time)","Sat Oct 31 2020 13:07:44 GMT-0500 (Central Daylight Time)","Mozilla/5.0 (Windows NT 6.3; Win64; x64) AppleWebKit/537.36 (KHTML, like Gecko) Chrome/86.0.4240.111 Safari/537.36",72,"[0.9, 0.5, 0.1]","[0.8, 0.4, 0.2]","[u'red', u'blue', u'black']","[u'left', u'middle', u'right']","[0.9, 0.5, 0.1]","[u'low', u'medium', u'high']","blue",50,"middle","medium","False","False",365,2700,NA
"A3FGT6EU39C6S4","Sat Oct 31 2020 13:00:29 GMT-0500 (Central Daylight Time)","Sat Oct 31 2020 13:07:44 GMT-0500 (Central Daylight Time)","Mozilla/5.0 (Windows NT 6.3; Win64; x64) AppleWebKit/537.36 (KHTML, like Gecko) Chrome/86.0.4240.111 Safari/537.36",73,"[0.9, 0.5, 0.1]","[0.8, 0.4, 0.2]","[u'red', u'blue', u'black']","[u'left', u'middle', u'right']","[0.9, 0.5, 0.1]","[u'low', u'medium', u'high']","black",51,"right","high","True","False",273,2800,NA
"A3FGT6EU39C6S4","Sat Oct 31 2020 13:00:29 GMT-0500 (Central Daylight Time)","Sat Oct 31 2020 13:07:44 GMT-0500 (Central Daylight Time)","Mozilla/5.0 (Windows NT 6.3; Win64; x64) AppleWebKit/537.36 (KHTML, like Gecko) Chrome/86.0.4240.111 Safari/537.36",74,"[0.9, 0.5, 0.1]","[0.8, 0.4, 0.2]","[u'red', u'blue', u'black']","[u'left', u'middle', u'right']","[0.9, 0.5, 0.1]","[u'low', u'medium', u'high']","black",51,"right","high","True","False",205,2900,NA
"A3FGT6EU39C6S4","Sat Oct 31 2020 13:00:29 GMT-0500 (Central Daylight Time)","Sat Oct 31 2020 13:07:44 GMT-0500 (Central Daylight Time)","Mozilla/5.0 (Windows NT 6.3; Win64; x64) AppleWebKit/537.36 (KHTML, like Gecko) Chrome/86.0.4240.111 Safari/537.36",75,"[0.9, 0.5, 0.1]","[0.8, 0.4, 0.2]","[u'red', u'blue', u'black']","[u'left', u'middle', u'right']","[0.9, 0.5, 0.1]","[u'low', u'medium', u'high']","black",51,"right","high","True","False",226,3000,NA
"A3FGT6EU39C6S4","Sat Oct 31 2020 13:00:29 GMT-0500 (Central Daylight Time)","Sat Oct 31 2020 13:07:44 GMT-0500 (Central Daylight Time)","Mozilla/5.0 (Windows NT 6.3; Win64; x64) AppleWebKit/537.36 (KHTML, like Gecko) Chrome/86.0.4240.111 Safari/537.36",76,"[0.9, 0.5, 0.1]","[0.8, 0.4, 0.2]","[u'red', u'blue', u'black']","[u'left', u'middle', u'right']","[0.9, 0.5, 0.1]","[u'low', u'medium', u'high']","black",51,"right","high","True","False",382,3100,NA
"A3FGT6EU39C6S4","Sat Oct 31 2020 13:00:29 GMT-0500 (Central Daylight Time)","Sat Oct 31 2020 13:07:44 GMT-0500 (Central Daylight Time)","Mozilla/5.0 (Windows NT 6.3; Win64; x64) AppleWebKit/537.36 (KHTML, like Gecko) Chrome/86.0.4240.111 Safari/537.36",77,"[0.9, 0.5, 0.1]","[0.8, 0.4, 0.2]","[u'red', u'blue', u'black']","[u'left', u'middle', u'right']","[0.9, 0.5, 0.1]","[u'low', u'medium', u'high']","black",51,"right","high","True","False",449,3200,NA
"A3FGT6EU39C6S4","Sat Oct 31 2020 13:00:29 GMT-0500 (Central Daylight Time)","Sat Oct 31 2020 13:07:44 GMT-0500 (Central Daylight Time)","Mozilla/5.0 (Windows NT 6.3; Win64; x64) AppleWebKit/537.36 (KHTML, like Gecko) Chrome/86.0.4240.111 Safari/537.36",78,"[0.9, 0.5, 0.1]","[0.8, 0.4, 0.2]","[u'red', u'blue', u'black']","[u'left', u'middle', u'right']","[0.9, 0.5, 0.1]","[u'low', u'medium', u'high']","black",51,"right","high","True","False",249,3300,NA
"A3FGT6EU39C6S4","Sat Oct 31 2020 13:00:29 GMT-0500 (Central Daylight Time)","Sat Oct 31 2020 13:07:44 GMT-0500 (Central Daylight Time)","Mozilla/5.0 (Windows NT 6.3; Win64; x64) AppleWebKit/537.36 (KHTML, like Gecko) Chrome/86.0.4240.111 Safari/537.36",79,"[0.9, 0.5, 0.1]","[0.8, 0.4, 0.2]","[u'red', u'blue', u'black']","[u'left', u'middle', u'right']","[0.9, 0.5, 0.1]","[u'low', u'medium', u'high']","black",51,"right","high","True","False",278,3400,NA
"A3FGT6EU39C6S4","Sat Oct 31 2020 13:00:29 GMT-0500 (Central Daylight Time)","Sat Oct 31 2020 13:07:44 GMT-0500 (Central Daylight Time)","Mozilla/5.0 (Windows NT 6.3; Win64; x64) AppleWebKit/537.36 (KHTML, like Gecko) Chrome/86.0.4240.111 Safari/537.36",80,"[0.9, 0.5, 0.1]","[0.8, 0.4, 0.2]","[u'red', u'blue', u'black']","[u'left', u'middle', u'right']","[0.9, 0.5, 0.1]","[u'low', u'medium', u'high']","black",51,"right","high","True","False",298,3500,NA
"A3FGT6EU39C6S4","Sat Oct 31 2020 13:00:29 GMT-0500 (Central Daylight Time)","Sat Oct 31 2020 13:07:44 GMT-0500 (Central Daylight Time)","Mozilla/5.0 (Windows NT 6.3; Win64; x64) AppleWebKit/537.36 (KHTML, like Gecko) Chrome/86.0.4240.111 Safari/537.36",81,"[0.9, 0.5, 0.1]","[0.8, 0.4, 0.2]","[u'red', u'blue', u'black']","[u'left', u'middle', u'right']","[0.8, 0.4, 0.2]","[u'high', u'medium', u'low']","blue",50,"middle","medium","False","False",379,3450,NA
"A3FGT6EU39C6S4","Sat Oct 31 2020 13:00:29 GMT-0500 (Central Daylight Time)","Sat Oct 31 2020 13:07:44 GMT-0500 (Central Daylight Time)","Mozilla/5.0 (Windows NT 6.3; Win64; x64) AppleWebKit/537.36 (KHTML, like Gecko) Chrome/86.0.4240.111 Safari/537.36",82,"[0.9, 0.5, 0.1]","[0.8, 0.4, 0.2]","[u'red', u'blue', u'black']","[u'left', u'middle', u'right']","[0.8, 0.4, 0.2]","[u'high', u'medium', u'low']","red",49,"left","high","False","False",374,3400,NA
"A3FGT6EU39C6S4","Sat Oct 31 2020 13:00:29 GMT-0500 (Central Daylight Time)","Sat Oct 31 2020 13:07:44 GMT-0500 (Central Daylight Time)","Mozilla/5.0 (Windows NT 6.3; Win64; x64) AppleWebKit/537.36 (KHTML, like Gecko) Chrome/86.0.4240.111 Safari/537.36",83,"[0.9, 0.5, 0.1]","[0.8, 0.4, 0.2]","[u'red', u'blue', u'black']","[u'left', u'middle', u'right']","[0.8, 0.4, 0.2]","[u'high', u'medium', u'low']","black",51,"right","low","True","False",227,3500,NA
"A3FGT6EU39C6S4","Sat Oct 31 2020 13:00:29 GMT-0500 (Central Daylight Time)","Sat Oct 31 2020 13:07:44 GMT-0500 (Central Daylight Time)","Mozilla/5.0 (Windows NT 6.3; Win64; x64) AppleWebKit/537.36 (KHTML, like Gecko) Chrome/86.0.4240.111 Safari/537.36",84,"[0.9, 0.5, 0.1]","[0.8, 0.4, 0.2]","[u'red', u'blue', u'black']","[u'left', u'middle', u'right']","[0.8, 0.4, 0.2]","[u'high', u'medium', u'low']","black",51,"right","low","False","False",201,3450,NA
"A3FGT6EU39C6S4","Sat Oct 31 2020 13:00:29 GMT-0500 (Central Daylight Time)","Sat Oct 31 2020 13:07:44 GMT-0500 (Central Daylight Time)","Mozilla/5.0 (Windows NT 6.3; Win64; x64) AppleWebKit/537.36 (KHTML, like Gecko) Chrome/86.0.4240.111 Safari/537.36",85,"[0.9, 0.5, 0.1]","[0.8, 0.4, 0.2]","[u'red', u'blue', u'black']","[u'left', u'middle', u'right']","[0.8, 0.4, 0.2]","[u'high', u'medium', u'low']","blue",50,"middle","medium","False","False",171,3400,NA
"A3FGT6EU39C6S4","Sat Oct 31 2020 13:00:29 GMT-0500 (Central Daylight Time)","Sat Oct 31 2020 13:07:44 GMT-0500 (Central Daylight Time)","Mozilla/5.0 (Windows NT 6.3; Win64; x64) AppleWebKit/537.36 (KHTML, like Gecko) Chrome/86.0.4240.111 Safari/537.36",86,"[0.9, 0.5, 0.1]","[0.8, 0.4, 0.2]","[u'red', u'blue', u'black']","[u'left', u'middle', u'right']","[0.8, 0.4, 0.2]","[u'high', u'medium', u'low']","red",49,"left","high","True","False",295,3500,NA
"A3FGT6EU39C6S4","Sat Oct 31 2020 13:00:29 GMT-0500 (Central Daylight Time)","Sat Oct 31 2020 13:07:44 GMT-0500 (Central Daylight Time)","Mozilla/5.0 (Windows NT 6.3; Win64; x64) AppleWebKit/537.36 (KHTML, like Gecko) Chrome/86.0.4240.111 Safari/537.36",87,"[0.9, 0.5, 0.1]","[0.8, 0.4, 0.2]","[u'red', u'blue', u'black']","[u'left', u'middle', u'right']","[0.8, 0.4, 0.2]","[u'high', u'medium', u'low']","red",49,"left","high","True","False",183,3600,NA
"A3FGT6EU39C6S4","Sat Oct 31 2020 13:00:29 GMT-0500 (Central Daylight Time)","Sat Oct 31 2020 13:07:44 GMT-0500 (Central Daylight Time)","Mozilla/5.0 (Windows NT 6.3; Win64; x64) AppleWebKit/537.36 (KHTML, like Gecko) Chrome/86.0.4240.111 Safari/537.36",88,"[0.9, 0.5, 0.1]","[0.8, 0.4, 0.2]","[u'red', u'blue', u'black']","[u'left', u'middle', u'right']","[0.8, 0.4, 0.2]","[u'high', u'medium', u'low']","red",49,"left","high","True","False",203,3700,NA
"A3FGT6EU39C6S4","Sat Oct 31 2020 13:00:29 GMT-0500 (Central Daylight Time)","Sat Oct 31 2020 13:07:44 GMT-0500 (Central Daylight Time)","Mozilla/5.0 (Windows NT 6.3; Win64; x64) AppleWebKit/537.36 (KHTML, like Gecko) Chrome/86.0.4240.111 Safari/537.36",89,"[0.9, 0.5, 0.1]","[0.8, 0.4, 0.2]","[u'red', u'blue', u'black']","[u'left', u'middle', u'right']","[0.8, 0.4, 0.2]","[u'high', u'medium', u'low']","red",49,"left","high","True","False",224,3800,NA
"A3FGT6EU39C6S4","Sat Oct 31 2020 13:00:29 GMT-0500 (Central Daylight Time)","Sat Oct 31 2020 13:07:44 GMT-0500 (Central Daylight Time)","Mozilla/5.0 (Windows NT 6.3; Win64; x64) AppleWebKit/537.36 (KHTML, like Gecko) Chrome/86.0.4240.111 Safari/537.36",90,"[0.9, 0.5, 0.1]","[0.8, 0.4, 0.2]","[u'red', u'blue', u'black']","[u'left', u'middle', u'right']","[0.8, 0.4, 0.2]","[u'high', u'medium', u'low']","red",49,"left","high","False","False",227,3750,NA
"A3FGT6EU39C6S4","Sat Oct 31 2020 13:00:29 GMT-0500 (Central Daylight Time)","Sat Oct 31 2020 13:07:44 GMT-0500 (Central Daylight Time)","Mozilla/5.0 (Windows NT 6.3; Win64; x64) AppleWebKit/537.36 (KHTML, like Gecko) Chrome/86.0.4240.111 Safari/537.36",91,"[0.9, 0.5, 0.1]","[0.8, 0.4, 0.2]","[u'red', u'blue', u'black']","[u'left', u'middle', u'right']","[0.8, 0.4, 0.2]","[u'high', u'medium', u'low']","red",49,"left","high","False","False",419,3700,NA
"A3FGT6EU39C6S4","Sat Oct 31 2020 13:00:29 GMT-0500 (Central Daylight Time)","Sat Oct 31 2020 13:07:44 GMT-0500 (Central Daylight Time)","Mozilla/5.0 (Windows NT 6.3; Win64; x64) AppleWebKit/537.36 (KHTML, like Gecko) Chrome/86.0.4240.111 Safari/537.36",92,"[0.9, 0.5, 0.1]","[0.8, 0.4, 0.2]","[u'red', u'blue', u'black']","[u'left', u'middle', u'right']","[0.8, 0.4, 0.2]","[u'high', u'medium', u'low']","red",49,"left","high","True","False",158,3800,NA
"A3FGT6EU39C6S4","Sat Oct 31 2020 13:00:29 GMT-0500 (Central Daylight Time)","Sat Oct 31 2020 13:07:44 GMT-0500 (Central Daylight Time)","Mozilla/5.0 (Windows NT 6.3; Win64; x64) AppleWebKit/537.36 (KHTML, like Gecko) Chrome/86.0.4240.111 Safari/537.36",93,"[0.9, 0.5, 0.1]","[0.8, 0.4, 0.2]","[u'red', u'blue', u'black']","[u'left', u'middle', u'right']","[0.8, 0.4, 0.2]","[u'high', u'medium', u'low']","red",49,"left","high","True","False",210,3900,NA
"A3FGT6EU39C6S4","Sat Oct 31 2020 13:00:29 GMT-0500 (Central Daylight Time)","Sat Oct 31 2020 13:07:44 GMT-0500 (Central Daylight Time)","Mozilla/5.0 (Windows NT 6.3; Win64; x64) AppleWebKit/537.36 (KHTML, like Gecko) Chrome/86.0.4240.111 Safari/537.36",94,"[0.9, 0.5, 0.1]","[0.8, 0.4, 0.2]","[u'red', u'blue', u'black']","[u'left', u'middle', u'right']","[0.8, 0.4, 0.2]","[u'high', u'medium', u'low']","red",49,"left","high","True","True",199,4000,NA
"A3FGT6EU39C6S4","Sat Oct 31 2020 13:00:29 GMT-0500 (Central Daylight Time)","Sat Oct 31 2020 13:07:44 GMT-0500 (Central Daylight Time)","Mozilla/5.0 (Windows NT 6.3; Win64; x64) AppleWebKit/537.36 (KHTML, like Gecko) Chrome/86.0.4240.111 Safari/537.36",95,"[0.9, 0.5, 0.1]","[0.8, 0.4, 0.2]","[u'red', u'blue', u'black']","[u'left', u'middle', u'right']","[0.8, 0.4, 0.2]","[u'low', u'high', u'medium']","red",49,"left","low","False","False",268,3950,NA
"A3FGT6EU39C6S4","Sat Oct 31 2020 13:00:29 GMT-0500 (Central Daylight Time)","Sat Oct 31 2020 13:07:44 GMT-0500 (Central Daylight Time)","Mozilla/5.0 (Windows NT 6.3; Win64; x64) AppleWebKit/537.36 (KHTML, like Gecko) Chrome/86.0.4240.111 Safari/537.36",96,"[0.9, 0.5, 0.1]","[0.8, 0.4, 0.2]","[u'red', u'blue', u'black']","[u'left', u'middle', u'right']","[0.8, 0.4, 0.2]","[u'low', u'high', u'medium']","red",49,"left","low","False","False",1090,3900,NA
"A3FGT6EU39C6S4","Sat Oct 31 2020 13:00:29 GMT-0500 (Central Daylight Time)","Sat Oct 31 2020 13:07:44 GMT-0500 (Central Daylight Time)","Mozilla/5.0 (Windows NT 6.3; Win64; x64) AppleWebKit/537.36 (KHTML, like Gecko) Chrome/86.0.4240.111 Safari/537.36",97,"[0.9, 0.5, 0.1]","[0.8, 0.4, 0.2]","[u'red', u'blue', u'black']","[u'left', u'middle', u'right']","[0.8, 0.4, 0.2]","[u'low', u'high', u'medium']","red",49,"left","low","False","False",198,3850,NA
"A3FGT6EU39C6S4","Sat Oct 31 2020 13:00:29 GMT-0500 (Central Daylight Time)","Sat Oct 31 2020 13:07:44 GMT-0500 (Central Daylight Time)","Mozilla/5.0 (Windows NT 6.3; Win64; x64) AppleWebKit/537.36 (KHTML, like Gecko) Chrome/86.0.4240.111 Safari/537.36",98,"[0.9, 0.5, 0.1]","[0.8, 0.4, 0.2]","[u'red', u'blue', u'black']","[u'left', u'middle', u'right']","[0.8, 0.4, 0.2]","[u'low', u'high', u'medium']","red",49,"left","low","True","False",105,3950,NA
"A3FGT6EU39C6S4","Sat Oct 31 2020 13:00:29 GMT-0500 (Central Daylight Time)","Sat Oct 31 2020 13:07:44 GMT-0500 (Central Daylight Time)","Mozilla/5.0 (Windows NT 6.3; Win64; x64) AppleWebKit/537.36 (KHTML, like Gecko) Chrome/86.0.4240.111 Safari/537.36",99,"[0.9, 0.5, 0.1]","[0.8, 0.4, 0.2]","[u'red', u'blue', u'black']","[u'left', u'middle', u'right']","[0.8, 0.4, 0.2]","[u'low', u'high', u'medium']","red",49,"left","low","False","False",233,3900,NA
"A3FGT6EU39C6S4","Sat Oct 31 2020 13:00:29 GMT-0500 (Central Daylight Time)","Sat Oct 31 2020 13:07:44 GMT-0500 (Central Daylight Time)","Mozilla/5.0 (Windows NT 6.3; Win64; x64) AppleWebKit/537.36 (KHTML, like Gecko) Chrome/86.0.4240.111 Safari/537.36",100,"[0.9, 0.5, 0.1]","[0.8, 0.4, 0.2]","[u'red', u'blue', u'black']","[u'left', u'middle', u'right']","[0.8, 0.4, 0.2]","[u'low', u'high', u'medium']","black",51,"right","medium","False","False",707,3850,NA
"A3FGT6EU39C6S4","Sat Oct 31 2020 13:00:29 GMT-0500 (Central Daylight Time)","Sat Oct 31 2020 13:07:44 GMT-0500 (Central Daylight Time)","Mozilla/5.0 (Windows NT 6.3; Win64; x64) AppleWebKit/537.36 (KHTML, like Gecko) Chrome/86.0.4240.111 Safari/537.36",101,"[0.9, 0.5, 0.1]","[0.8, 0.4, 0.2]","[u'red', u'blue', u'black']","[u'left', u'middle', u'right']","[0.8, 0.4, 0.2]","[u'low', u'high', u'medium']","blue",50,"middle","high","True","False",212,3950,NA
"A3FGT6EU39C6S4","Sat Oct 31 2020 13:00:29 GMT-0500 (Central Daylight Time)","Sat Oct 31 2020 13:07:44 GMT-0500 (Central Daylight Time)","Mozilla/5.0 (Windows NT 6.3; Win64; x64) AppleWebKit/537.36 (KHTML, like Gecko) Chrome/86.0.4240.111 Safari/537.36",102,"[0.9, 0.5, 0.1]","[0.8, 0.4, 0.2]","[u'red', u'blue', u'black']","[u'left', u'middle', u'right']","[0.8, 0.4, 0.2]","[u'low', u'high', u'medium']","blue",50,"middle","high","True","False",247,4050,NA
"A3FGT6EU39C6S4","Sat Oct 31 2020 13:00:29 GMT-0500 (Central Daylight Time)","Sat Oct 31 2020 13:07:44 GMT-0500 (Central Daylight Time)","Mozilla/5.0 (Windows NT 6.3; Win64; x64) AppleWebKit/537.36 (KHTML, like Gecko) Chrome/86.0.4240.111 Safari/537.36",103,"[0.9, 0.5, 0.1]","[0.8, 0.4, 0.2]","[u'red', u'blue', u'black']","[u'left', u'middle', u'right']","[0.8, 0.4, 0.2]","[u'low', u'high', u'medium']","blue",50,"middle","high","True","False",260,4150,NA
"A3FGT6EU39C6S4","Sat Oct 31 2020 13:00:29 GMT-0500 (Central Daylight Time)","Sat Oct 31 2020 13:07:44 GMT-0500 (Central Daylight Time)","Mozilla/5.0 (Windows NT 6.3; Win64; x64) AppleWebKit/537.36 (KHTML, like Gecko) Chrome/86.0.4240.111 Safari/537.36",104,"[0.9, 0.5, 0.1]","[0.8, 0.4, 0.2]","[u'red', u'blue', u'black']","[u'left', u'middle', u'right']","[0.8, 0.4, 0.2]","[u'low', u'high', u'medium']","blue",50,"middle","high","True","False",240,4250,NA
"A3FGT6EU39C6S4","Sat Oct 31 2020 13:00:29 GMT-0500 (Central Daylight Time)","Sat Oct 31 2020 13:07:44 GMT-0500 (Central Daylight Time)","Mozilla/5.0 (Windows NT 6.3; Win64; x64) AppleWebKit/537.36 (KHTML, like Gecko) Chrome/86.0.4240.111 Safari/537.36",105,"[0.9, 0.5, 0.1]","[0.8, 0.4, 0.2]","[u'red', u'blue', u'black']","[u'left', u'middle', u'right']","[0.8, 0.4, 0.2]","[u'low', u'high', u'medium']","blue",50,"middle","high","False","False",249,4200,NA
"A3FGT6EU39C6S4","Sat Oct 31 2020 13:00:29 GMT-0500 (Central Daylight Time)","Sat Oct 31 2020 13:07:44 GMT-0500 (Central Daylight Time)","Mozilla/5.0 (Windows NT 6.3; Win64; x64) AppleWebKit/537.36 (KHTML, like Gecko) Chrome/86.0.4240.111 Safari/537.36",106,"[0.9, 0.5, 0.1]","[0.8, 0.4, 0.2]","[u'red', u'blue', u'black']","[u'left', u'middle', u'right']","[0.8, 0.4, 0.2]","[u'low', u'high', u'medium']","red",49,"left","low","False","False",1537,4150,NA
"A3FGT6EU39C6S4","Sat Oct 31 2020 13:00:29 GMT-0500 (Central Daylight Time)","Sat Oct 31 2020 13:07:44 GMT-0500 (Central Daylight Time)","Mozilla/5.0 (Windows NT 6.3; Win64; x64) AppleWebKit/537.36 (KHTML, like Gecko) Chrome/86.0.4240.111 Safari/537.36",107,"[0.9, 0.5, 0.1]","[0.8, 0.4, 0.2]","[u'red', u'blue', u'black']","[u'left', u'middle', u'right']","[0.8, 0.4, 0.2]","[u'low', u'high', u'medium']","black",51,"right","medium","False","False",254,4100,NA
"A3FGT6EU39C6S4","Sat Oct 31 2020 13:00:29 GMT-0500 (Central Daylight Time)","Sat Oct 31 2020 13:07:44 GMT-0500 (Central Daylight Time)","Mozilla/5.0 (Windows NT 6.3; Win64; x64) AppleWebKit/537.36 (KHTML, like Gecko) Chrome/86.0.4240.111 Safari/537.36",108,"[0.9, 0.5, 0.1]","[0.8, 0.4, 0.2]","[u'red', u'blue', u'black']","[u'left', u'middle', u'right']","[0.8, 0.4, 0.2]","[u'low', u'high', u'medium']","blue",50,"middle","high","False","False",767,4050,NA
"A3FGT6EU39C6S4","Sat Oct 31 2020 13:00:29 GMT-0500 (Central Daylight Time)","Sat Oct 31 2020 13:07:44 GMT-0500 (Central Daylight Time)","Mozilla/5.0 (Windows NT 6.3; Win64; x64) AppleWebKit/537.36 (KHTML, like Gecko) Chrome/86.0.4240.111 Safari/537.36",109,"[0.9, 0.5, 0.1]","[0.8, 0.4, 0.2]","[u'red', u'blue', u'black']","[u'left', u'middle', u'right']","[0.8, 0.4, 0.2]","[u'low', u'high', u'medium']","red",49,"left","low","False","False",92,4000,NA
"A3FGT6EU39C6S4","Sat Oct 31 2020 13:00:29 GMT-0500 (Central Daylight Time)","Sat Oct 31 2020 13:07:44 GMT-0500 (Central Daylight Time)","Mozilla/5.0 (Windows NT 6.3; Win64; x64) AppleWebKit/537.36 (KHTML, like Gecko) Chrome/86.0.4240.111 Safari/537.36",110,"[0.9, 0.5, 0.1]","[0.8, 0.4, 0.2]","[u'red', u'blue', u'black']","[u'left', u'middle', u'right']","[0.8, 0.4, 0.2]","[u'low', u'high', u'medium']","red",49,"left","low","False","False",578,3950,NA
"A3FGT6EU39C6S4","Sat Oct 31 2020 13:00:29 GMT-0500 (Central Daylight Time)","Sat Oct 31 2020 13:07:44 GMT-0500 (Central Daylight Time)","Mozilla/5.0 (Windows NT 6.3; Win64; x64) AppleWebKit/537.36 (KHTML, like Gecko) Chrome/86.0.4240.111 Safari/537.36",111,"[0.9, 0.5, 0.1]","[0.8, 0.4, 0.2]","[u'red', u'blue', u'black']","[u'left', u'middle', u'right']","[0.8, 0.4, 0.2]","[u'low', u'high', u'medium']","blue",50,"middle","high","True","False",170,4050,NA
"A3FGT6EU39C6S4","Sat Oct 31 2020 13:00:29 GMT-0500 (Central Daylight Time)","Sat Oct 31 2020 13:07:44 GMT-0500 (Central Daylight Time)","Mozilla/5.0 (Windows NT 6.3; Win64; x64) AppleWebKit/537.36 (KHTML, like Gecko) Chrome/86.0.4240.111 Safari/537.36",112,"[0.9, 0.5, 0.1]","[0.8, 0.4, 0.2]","[u'red', u'blue', u'black']","[u'left', u'middle', u'right']","[0.8, 0.4, 0.2]","[u'low', u'high', u'medium']","blue",50,"middle","high","True","False",197,4150,NA
"A3FGT6EU39C6S4","Sat Oct 31 2020 13:00:29 GMT-0500 (Central Daylight Time)","Sat Oct 31 2020 13:07:44 GMT-0500 (Central Daylight Time)","Mozilla/5.0 (Windows NT 6.3; Win64; x64) AppleWebKit/537.36 (KHTML, like Gecko) Chrome/86.0.4240.111 Safari/537.36",113,"[0.9, 0.5, 0.1]","[0.8, 0.4, 0.2]","[u'red', u'blue', u'black']","[u'left', u'middle', u'right']","[0.8, 0.4, 0.2]","[u'low', u'high', u'medium']","blue",50,"middle","high","True","False",230,4250,NA
"A3FGT6EU39C6S4","Sat Oct 31 2020 13:00:29 GMT-0500 (Central Daylight Time)","Sat Oct 31 2020 13:07:44 GMT-0500 (Central Daylight Time)","Mozilla/5.0 (Windows NT 6.3; Win64; x64) AppleWebKit/537.36 (KHTML, like Gecko) Chrome/86.0.4240.111 Safari/537.36",114,"[0.9, 0.5, 0.1]","[0.8, 0.4, 0.2]","[u'red', u'blue', u'black']","[u'left', u'middle', u'right']","[0.8, 0.4, 0.2]","[u'low', u'high', u'medium']","blue",50,"middle","high","False","False",255,4200,NA
"A3FGT6EU39C6S4","Sat Oct 31 2020 13:00:29 GMT-0500 (Central Daylight Time)","Sat Oct 31 2020 13:07:44 GMT-0500 (Central Daylight Time)","Mozilla/5.0 (Windows NT 6.3; Win64; x64) AppleWebKit/537.36 (KHTML, like Gecko) Chrome/86.0.4240.111 Safari/537.36",115,"[0.9, 0.5, 0.1]","[0.8, 0.4, 0.2]","[u'red', u'blue', u'black']","[u'left', u'middle', u'right']","[0.8, 0.4, 0.2]","[u'low', u'high', u'medium']","blue",50,"middle","high","True","False",303,4300,NA
"A3FGT6EU39C6S4","Sat Oct 31 2020 13:00:29 GMT-0500 (Central Daylight Time)","Sat Oct 31 2020 13:07:44 GMT-0500 (Central Daylight Time)","Mozilla/5.0 (Windows NT 6.3; Win64; x64) AppleWebKit/537.36 (KHTML, like Gecko) Chrome/86.0.4240.111 Safari/537.36",116,"[0.9, 0.5, 0.1]","[0.8, 0.4, 0.2]","[u'red', u'blue', u'black']","[u'left', u'middle', u'right']","[0.8, 0.4, 0.2]","[u'low', u'high', u'medium']","blue",50,"middle","high","True","False",239,4400,NA
"A3FGT6EU39C6S4","Sat Oct 31 2020 13:00:29 GMT-0500 (Central Daylight Time)","Sat Oct 31 2020 13:07:44 GMT-0500 (Central Daylight Time)","Mozilla/5.0 (Windows NT 6.3; Win64; x64) AppleWebKit/537.36 (KHTML, like Gecko) Chrome/86.0.4240.111 Safari/537.36",117,"[0.9, 0.5, 0.1]","[0.8, 0.4, 0.2]","[u'red', u'blue', u'black']","[u'left', u'middle', u'right']","[0.8, 0.4, 0.2]","[u'low', u'high', u'medium']","blue",50,"middle","high","True","False",332,4500,NA
"A3FGT6EU39C6S4","Sat Oct 31 2020 13:00:29 GMT-0500 (Central Daylight Time)","Sat Oct 31 2020 13:07:44 GMT-0500 (Central Daylight Time)","Mozilla/5.0 (Windows NT 6.3; Win64; x64) AppleWebKit/537.36 (KHTML, like Gecko) Chrome/86.0.4240.111 Safari/537.36",118,"[0.9, 0.5, 0.1]","[0.8, 0.4, 0.2]","[u'red', u'blue', u'black']","[u'left', u'middle', u'right']","[0.8, 0.4, 0.2]","[u'low', u'high', u'medium']","blue",50,"middle","high","True","False",282,4600,NA
"A3FGT6EU39C6S4","Sat Oct 31 2020 13:00:29 GMT-0500 (Central Daylight Time)","Sat Oct 31 2020 13:07:44 GMT-0500 (Central Daylight Time)","Mozilla/5.0 (Windows NT 6.3; Win64; x64) AppleWebKit/537.36 (KHTML, like Gecko) Chrome/86.0.4240.111 Safari/537.36",119,"[0.9, 0.5, 0.1]","[0.8, 0.4, 0.2]","[u'red', u'blue', u'black']","[u'left', u'middle', u'right']","[0.8, 0.4, 0.2]","[u'low', u'high', u'medium']","blue",50,"middle","high","True","True",227,4700,NA
"A3FGT6EU39C6S4","Sat Oct 31 2020 13:00:29 GMT-0500 (Central Daylight Time)","Sat Oct 31 2020 13:07:44 GMT-0500 (Central Daylight Time)","Mozilla/5.0 (Windows NT 6.3; Win64; x64) AppleWebKit/537.36 (KHTML, like Gecko) Chrome/86.0.4240.111 Safari/537.36",120,"[0.9, 0.5, 0.1]","[0.8, 0.4, 0.2]","[u'red', u'blue', u'black']","[u'left', u'middle', u'right']","[0.8, 0.4, 0.2]","[u'high', u'medium', u'low']","blue",50,"middle","medium","True","False",229,4800,NA
"A3FGT6EU39C6S4","Sat Oct 31 2020 13:00:29 GMT-0500 (Central Daylight Time)","Sat Oct 31 2020 13:07:44 GMT-0500 (Central Daylight Time)","Mozilla/5.0 (Windows NT 6.3; Win64; x64) AppleWebKit/537.36 (KHTML, like Gecko) Chrome/86.0.4240.111 Safari/537.36",121,"[0.9, 0.5, 0.1]","[0.8, 0.4, 0.2]","[u'red', u'blue', u'black']","[u'left', u'middle', u'right']","[0.8, 0.4, 0.2]","[u'low', u'medium', u'high']","blue",50,"middle","medium","False","False",562,4750,NA
"A3FGT6EU39C6S4","Sat Oct 31 2020 13:00:29 GMT-0500 (Central Daylight Time)","Sat Oct 31 2020 13:07:44 GMT-0500 (Central Daylight Time)","Mozilla/5.0 (Windows NT 6.3; Win64; x64) AppleWebKit/537.36 (KHTML, like Gecko) Chrome/86.0.4240.111 Safari/537.36",122,"[0.9, 0.5, 0.1]","[0.8, 0.4, 0.2]","[u'red', u'blue', u'black']","[u'left', u'middle', u'right']","[0.8, 0.4, 0.2]","[u'low', u'medium', u'high']","red",49,"left","low","True","False",455,4850,NA
"A3FGT6EU39C6S4","Sat Oct 31 2020 13:00:29 GMT-0500 (Central Daylight Time)","Sat Oct 31 2020 13:07:44 GMT-0500 (Central Daylight Time)","Mozilla/5.0 (Windows NT 6.3; Win64; x64) AppleWebKit/537.36 (KHTML, like Gecko) Chrome/86.0.4240.111 Safari/537.36",123,"[0.9, 0.5, 0.1]","[0.8, 0.4, 0.2]","[u'red', u'blue', u'black']","[u'left', u'middle', u'right']","[0.8, 0.4, 0.2]","[u'low', u'medium', u'high']","red",49,"left","low","False","False",166,4800,NA
"A3FGT6EU39C6S4","Sat Oct 31 2020 13:00:29 GMT-0500 (Central Daylight Time)","Sat Oct 31 2020 13:07:44 GMT-0500 (Central Daylight Time)","Mozilla/5.0 (Windows NT 6.3; Win64; x64) AppleWebKit/537.36 (KHTML, like Gecko) Chrome/86.0.4240.111 Safari/537.36",124,"[0.9, 0.5, 0.1]","[0.8, 0.4, 0.2]","[u'red', u'blue', u'black']","[u'left', u'middle', u'right']","[0.8, 0.4, 0.2]","[u'low', u'medium', u'high']","blue",50,"middle","medium","True","False",274,4900,NA
"A3FGT6EU39C6S4","Sat Oct 31 2020 13:00:29 GMT-0500 (Central Daylight Time)","Sat Oct 31 2020 13:07:44 GMT-0500 (Central Daylight Time)","Mozilla/5.0 (Windows NT 6.3; Win64; x64) AppleWebKit/537.36 (KHTML, like Gecko) Chrome/86.0.4240.111 Safari/537.36",125,"[0.9, 0.5, 0.1]","[0.8, 0.4, 0.2]","[u'red', u'blue', u'black']","[u'left', u'middle', u'right']","[0.8, 0.4, 0.2]","[u'low', u'medium', u'high']","blue",50,"middle","medium","False","False",205,4850,NA
"A3FGT6EU39C6S4","Sat Oct 31 2020 13:00:29 GMT-0500 (Central Daylight Time)","Sat Oct 31 2020 13:07:44 GMT-0500 (Central Daylight Time)","Mozilla/5.0 (Windows NT 6.3; Win64; x64) AppleWebKit/537.36 (KHTML, like Gecko) Chrome/86.0.4240.111 Safari/537.36",126,"[0.9, 0.5, 0.1]","[0.8, 0.4, 0.2]","[u'red', u'blue', u'black']","[u'left', u'middle', u'right']","[0.8, 0.4, 0.2]","[u'low', u'medium', u'high']","red",49,"left","low","True","False",591,4950,NA
"A3FGT6EU39C6S4","Sat Oct 31 2020 13:00:29 GMT-0500 (Central Daylight Time)","Sat Oct 31 2020 13:07:44 GMT-0500 (Central Daylight Time)","Mozilla/5.0 (Windows NT 6.3; Win64; x64) AppleWebKit/537.36 (KHTML, like Gecko) Chrome/86.0.4240.111 Safari/537.36",127,"[0.9, 0.5, 0.1]","[0.8, 0.4, 0.2]","[u'red', u'blue', u'black']","[u'left', u'middle', u'right']","[0.8, 0.4, 0.2]","[u'low', u'medium', u'high']","blue",50,"middle","medium","True","False",199,5050,NA
"A3FGT6EU39C6S4","Sat Oct 31 2020 13:00:29 GMT-0500 (Central Daylight Time)","Sat Oct 31 2020 13:07:44 GMT-0500 (Central Daylight Time)","Mozilla/5.0 (Windows NT 6.3; Win64; x64) AppleWebKit/537.36 (KHTML, like Gecko) Chrome/86.0.4240.111 Safari/537.36",128,"[0.9, 0.5, 0.1]","[0.8, 0.4, 0.2]","[u'red', u'blue', u'black']","[u'left', u'middle', u'right']","[0.8, 0.4, 0.2]","[u'low', u'medium', u'high']","red",49,"left","low","False","False",278,5000,NA
"A3FGT6EU39C6S4","Sat Oct 31 2020 13:00:29 GMT-0500 (Central Daylight Time)","Sat Oct 31 2020 13:07:44 GMT-0500 (Central Daylight Time)","Mozilla/5.0 (Windows NT 6.3; Win64; x64) AppleWebKit/537.36 (KHTML, like Gecko) Chrome/86.0.4240.111 Safari/537.36",129,"[0.9, 0.5, 0.1]","[0.8, 0.4, 0.2]","[u'red', u'blue', u'black']","[u'left', u'middle', u'right']","[0.8, 0.4, 0.2]","[u'low', u'medium', u'high']","red",49,"left","low","True","False",176,5100,NA
"A3FGT6EU39C6S4","Sat Oct 31 2020 13:00:29 GMT-0500 (Central Daylight Time)","Sat Oct 31 2020 13:07:44 GMT-0500 (Central Daylight Time)","Mozilla/5.0 (Windows NT 6.3; Win64; x64) AppleWebKit/537.36 (KHTML, like Gecko) Chrome/86.0.4240.111 Safari/537.36",130,"[0.9, 0.5, 0.1]","[0.8, 0.4, 0.2]","[u'red', u'blue', u'black']","[u'left', u'middle', u'right']","[0.8, 0.4, 0.2]","[u'low', u'medium', u'high']","red",49,"left","low","False","False",1218,5050,NA
"A3FGT6EU39C6S4","Sat Oct 31 2020 13:00:29 GMT-0500 (Central Daylight Time)","Sat Oct 31 2020 13:07:44 GMT-0500 (Central Daylight Time)","Mozilla/5.0 (Windows NT 6.3; Win64; x64) AppleWebKit/537.36 (KHTML, like Gecko) Chrome/86.0.4240.111 Safari/537.36",131,"[0.9, 0.5, 0.1]","[0.8, 0.4, 0.2]","[u'red', u'blue', u'black']","[u'left', u'middle', u'right']","[0.8, 0.4, 0.2]","[u'low', u'medium', u'high']","red",49,"left","low","False","False",195,5000,NA
"A3FGT6EU39C6S4","Sat Oct 31 2020 13:00:29 GMT-0500 (Central Daylight Time)","Sat Oct 31 2020 13:07:44 GMT-0500 (Central Daylight Time)","Mozilla/5.0 (Windows NT 6.3; Win64; x64) AppleWebKit/537.36 (KHTML, like Gecko) Chrome/86.0.4240.111 Safari/537.36",132,"[0.9, 0.5, 0.1]","[0.8, 0.4, 0.2]","[u'red', u'blue', u'black']","[u'left', u'middle', u'right']","[0.8, 0.4, 0.2]","[u'low', u'medium', u'high']","blue",50,"middle","medium","False","False",286,4950,NA
"A3FGT6EU39C6S4","Sat Oct 31 2020 13:00:29 GMT-0500 (Central Daylight Time)","Sat Oct 31 2020 13:07:44 GMT-0500 (Central Daylight Time)","Mozilla/5.0 (Windows NT 6.3; Win64; x64) AppleWebKit/537.36 (KHTML, like Gecko) Chrome/86.0.4240.111 Safari/537.36",133,"[0.9, 0.5, 0.1]","[0.8, 0.4, 0.2]","[u'red', u'blue', u'black']","[u'left', u'middle', u'right']","[0.8, 0.4, 0.2]","[u'low', u'medium', u'high']","black",51,"right","high","True","False",194,5050,NA
"A3FGT6EU39C6S4","Sat Oct 31 2020 13:00:29 GMT-0500 (Central Daylight Time)","Sat Oct 31 2020 13:07:44 GMT-0500 (Central Daylight Time)","Mozilla/5.0 (Windows NT 6.3; Win64; x64) AppleWebKit/537.36 (KHTML, like Gecko) Chrome/86.0.4240.111 Safari/537.36",134,"[0.9, 0.5, 0.1]","[0.8, 0.4, 0.2]","[u'red', u'blue', u'black']","[u'left', u'middle', u'right']","[0.8, 0.4, 0.2]","[u'low', u'medium', u'high']","black",51,"right","high","False","False",254,5000,NA
"A3FGT6EU39C6S4","Sat Oct 31 2020 13:00:29 GMT-0500 (Central Daylight Time)","Sat Oct 31 2020 13:07:44 GMT-0500 (Central Daylight Time)","Mozilla/5.0 (Windows NT 6.3; Win64; x64) AppleWebKit/537.36 (KHTML, like Gecko) Chrome/86.0.4240.111 Safari/537.36",135,"[0.9, 0.5, 0.1]","[0.8, 0.4, 0.2]","[u'red', u'blue', u'black']","[u'left', u'middle', u'right']","[0.8, 0.4, 0.2]","[u'low', u'medium', u'high']","blue",50,"middle","medium","False","False",227,4950,NA
"A3FGT6EU39C6S4","Sat Oct 31 2020 13:00:29 GMT-0500 (Central Daylight Time)","Sat Oct 31 2020 13:07:44 GMT-0500 (Central Daylight Time)","Mozilla/5.0 (Windows NT 6.3; Win64; x64) AppleWebKit/537.36 (KHTML, like Gecko) Chrome/86.0.4240.111 Safari/537.36",136,"[0.9, 0.5, 0.1]","[0.8, 0.4, 0.2]","[u'red', u'blue', u'black']","[u'left', u'middle', u'right']","[0.8, 0.4, 0.2]","[u'low', u'medium', u'high']","red",49,"left","low","False","False",248,4900,NA
"A3FGT6EU39C6S4","Sat Oct 31 2020 13:00:29 GMT-0500 (Central Daylight Time)","Sat Oct 31 2020 13:07:44 GMT-0500 (Central Daylight Time)","Mozilla/5.0 (Windows NT 6.3; Win64; x64) AppleWebKit/537.36 (KHTML, like Gecko) Chrome/86.0.4240.111 Safari/537.36",137,"[0.9, 0.5, 0.1]","[0.8, 0.4, 0.2]","[u'red', u'blue', u'black']","[u'left', u'middle', u'right']","[0.8, 0.4, 0.2]","[u'low', u'medium', u'high']","blue",50,"middle","medium","False","False",182,4850,NA
"A3FGT6EU39C6S4","Sat Oct 31 2020 13:00:29 GMT-0500 (Central Daylight Time)","Sat Oct 31 2020 13:07:44 GMT-0500 (Central Daylight Time)","Mozilla/5.0 (Windows NT 6.3; Win64; x64) AppleWebKit/537.36 (KHTML, like Gecko) Chrome/86.0.4240.111 Safari/537.36",138,"[0.9, 0.5, 0.1]","[0.8, 0.4, 0.2]","[u'red', u'blue', u'black']","[u'left', u'middle', u'right']","[0.8, 0.4, 0.2]","[u'low', u'medium', u'high']","blue",50,"middle","medium","False","False",99,4800,NA
"A3FGT6EU39C6S4","Sat Oct 31 2020 13:00:29 GMT-0500 (Central Daylight Time)","Sat Oct 31 2020 13:07:44 GMT-0500 (Central Daylight Time)","Mozilla/5.0 (Windows NT 6.3; Win64; x64) AppleWebKit/537.36 (KHTML, like Gecko) Chrome/86.0.4240.111 Safari/537.36",139,"[0.9, 0.5, 0.1]","[0.8, 0.4, 0.2]","[u'red', u'blue', u'black']","[u'left', u'middle', u'right']","[0.8, 0.4, 0.2]","[u'low', u'medium', u'high']","black",51,"right","high","True","False",230,4900,NA
"A3FGT6EU39C6S4","Sat Oct 31 2020 13:00:29 GMT-0500 (Central Daylight Time)","Sat Oct 31 2020 13:07:44 GMT-0500 (Central Daylight Time)","Mozilla/5.0 (Windows NT 6.3; Win64; x64) AppleWebKit/537.36 (KHTML, like Gecko) Chrome/86.0.4240.111 Safari/537.36",140,"[0.9, 0.5, 0.1]","[0.8, 0.4, 0.2]","[u'red', u'blue', u'black']","[u'left', u'middle', u'right']","[0.8, 0.4, 0.2]","[u'low', u'medium', u'high']","black",51,"right","high","True","False",203,5000,NA
"A3FGT6EU39C6S4","Sat Oct 31 2020 13:00:29 GMT-0500 (Central Daylight Time)","Sat Oct 31 2020 13:07:44 GMT-0500 (Central Daylight Time)","Mozilla/5.0 (Windows NT 6.3; Win64; x64) AppleWebKit/537.36 (KHTML, like Gecko) Chrome/86.0.4240.111 Safari/537.36",141,"[0.9, 0.5, 0.1]","[0.8, 0.4, 0.2]","[u'red', u'blue', u'black']","[u'left', u'middle', u'right']","[0.8, 0.4, 0.2]","[u'low', u'medium', u'high']","black",51,"right","high","False","False",246,4950,NA
"A3FGT6EU39C6S4","Sat Oct 31 2020 13:00:29 GMT-0500 (Central Daylight Time)","Sat Oct 31 2020 13:07:44 GMT-0500 (Central Daylight Time)","Mozilla/5.0 (Windows NT 6.3; Win64; x64) AppleWebKit/537.36 (KHTML, like Gecko) Chrome/86.0.4240.111 Safari/537.36",142,"[0.9, 0.5, 0.1]","[0.8, 0.4, 0.2]","[u'red', u'blue', u'black']","[u'left', u'middle', u'right']","[0.8, 0.4, 0.2]","[u'low', u'medium', u'high']","black",51,"right","high","True","False",125,5050,NA
"A3FGT6EU39C6S4","Sat Oct 31 2020 13:00:29 GMT-0500 (Central Daylight Time)","Sat Oct 31 2020 13:07:44 GMT-0500 (Central Daylight Time)","Mozilla/5.0 (Windows NT 6.3; Win64; x64) AppleWebKit/537.36 (KHTML, like Gecko) Chrome/86.0.4240.111 Safari/537.36",143,"[0.9, 0.5, 0.1]","[0.8, 0.4, 0.2]","[u'red', u'blue', u'black']","[u'left', u'middle', u'right']","[0.8, 0.4, 0.2]","[u'low', u'medium', u'high']","black",51,"right","high","True","False",179,5150,NA
"A3FGT6EU39C6S4","Sat Oct 31 2020 13:00:29 GMT-0500 (Central Daylight Time)","Sat Oct 31 2020 13:07:44 GMT-0500 (Central Daylight Time)","Mozilla/5.0 (Windows NT 6.3; Win64; x64) AppleWebKit/537.36 (KHTML, like Gecko) Chrome/86.0.4240.111 Safari/537.36",144,"[0.9, 0.5, 0.1]","[0.8, 0.4, 0.2]","[u'red', u'blue', u'black']","[u'left', u'middle', u'right']","[0.8, 0.4, 0.2]","[u'low', u'medium', u'high']","black",51,"right","high","True","False",244,5250,NA
"A3FGT6EU39C6S4","Sat Oct 31 2020 13:00:29 GMT-0500 (Central Daylight Time)","Sat Oct 31 2020 13:07:44 GMT-0500 (Central Daylight Time)","Mozilla/5.0 (Windows NT 6.3; Win64; x64) AppleWebKit/537.36 (KHTML, like Gecko) Chrome/86.0.4240.111 Safari/537.36",145,"[0.9, 0.5, 0.1]","[0.8, 0.4, 0.2]","[u'red', u'blue', u'black']","[u'left', u'middle', u'right']","[0.8, 0.4, 0.2]","[u'low', u'medium', u'high']","black",51,"right","high","True","False",306,5350,NA
"A3FGT6EU39C6S4","Sat Oct 31 2020 13:00:29 GMT-0500 (Central Daylight Time)","Sat Oct 31 2020 13:07:44 GMT-0500 (Central Daylight Time)","Mozilla/5.0 (Windows NT 6.3; Win64; x64) AppleWebKit/537.36 (KHTML, like Gecko) Chrome/86.0.4240.111 Safari/537.36",146,"[0.9, 0.5, 0.1]","[0.8, 0.4, 0.2]","[u'red', u'blue', u'black']","[u'left', u'middle', u'right']","[0.8, 0.4, 0.2]","[u'low', u'medium', u'high']","black",51,"right","high","True","False",232,5450,NA
"A3FGT6EU39C6S4","Sat Oct 31 2020 13:00:29 GMT-0500 (Central Daylight Time)","Sat Oct 31 2020 13:07:44 GMT-0500 (Central Daylight Time)","Mozilla/5.0 (Windows NT 6.3; Win64; x64) AppleWebKit/537.36 (KHTML, like Gecko) Chrome/86.0.4240.111 Safari/537.36",147,"[0.9, 0.5, 0.1]","[0.8, 0.4, 0.2]","[u'red', u'blue', u'black']","[u'left', u'middle', u'right']","[0.8, 0.4, 0.2]","[u'low', u'medium', u'high']","black",51,"right","high","False","True",298,5400,NA
"A3FGT6EU39C6S4","Sat Oct 31 2020 13:00:29 GMT-0500 (Central Daylight Time)","Sat Oct 31 2020 13:07:44 GMT-0500 (Central Daylight Time)","Mozilla/5.0 (Windows NT 6.3; Win64; x64) AppleWebKit/537.36 (KHTML, like Gecko) Chrome/86.0.4240.111 Safari/537.36",148,"[0.9, 0.5, 0.1]","[0.8, 0.4, 0.2]","[u'red', u'blue', u'black']","[u'left', u'middle', u'right']","[0.8, 0.4, 0.2]","[u'high', u'low', u'medium']","black",51,"right","medium","False","False",161,5350,NA
"A3FGT6EU39C6S4","Sat Oct 31 2020 13:00:29 GMT-0500 (Central Daylight Time)","Sat Oct 31 2020 13:07:44 GMT-0500 (Central Daylight Time)","Mozilla/5.0 (Windows NT 6.3; Win64; x64) AppleWebKit/537.36 (KHTML, like Gecko) Chrome/86.0.4240.111 Safari/537.36",149,"[0.9, 0.5, 0.1]","[0.8, 0.4, 0.2]","[u'red', u'blue', u'black']","[u'left', u'middle', u'right']","[0.8, 0.4, 0.2]","[u'high', u'low', u'medium']","black",51,"right","medium","False","False",216,5300,NA
"A3FGT6EU39C6S4","Sat Oct 31 2020 13:00:29 GMT-0500 (Central Daylight Time)","Sat Oct 31 2020 13:07:44 GMT-0500 (Central Daylight Time)","Mozilla/5.0 (Windows NT 6.3; Win64; x64) AppleWebKit/537.36 (KHTML, like Gecko) Chrome/86.0.4240.111 Safari/537.36",150,"[0.9, 0.5, 0.1]","[0.8, 0.4, 0.2]","[u'red', u'blue', u'black']","[u'left', u'middle', u'right']","[0.8, 0.4, 0.2]","[u'high', u'low', u'medium']","blue",50,"middle","low","False","False",519,5250,NA
"A3FGT6EU39C6S4","Sat Oct 31 2020 13:00:29 GMT-0500 (Central Daylight Time)","Sat Oct 31 2020 13:07:44 GMT-0500 (Central Daylight Time)","Mozilla/5.0 (Windows NT 6.3; Win64; x64) AppleWebKit/537.36 (KHTML, like Gecko) Chrome/86.0.4240.111 Safari/537.36",151,"[0.9, 0.5, 0.1]","[0.8, 0.4, 0.2]","[u'red', u'blue', u'black']","[u'left', u'middle', u'right']","[0.8, 0.4, 0.2]","[u'high', u'low', u'medium']","black",51,"right","medium","True","False",834,5350,NA
"A3FGT6EU39C6S4","Sat Oct 31 2020 13:00:29 GMT-0500 (Central Daylight Time)","Sat Oct 31 2020 13:07:44 GMT-0500 (Central Daylight Time)","Mozilla/5.0 (Windows NT 6.3; Win64; x64) AppleWebKit/537.36 (KHTML, like Gecko) Chrome/86.0.4240.111 Safari/537.36",152,"[0.9, 0.5, 0.1]","[0.8, 0.4, 0.2]","[u'red', u'blue', u'black']","[u'left', u'middle', u'right']","[0.8, 0.4, 0.2]","[u'high', u'low', u'medium']","black",51,"right","medium","True","False",189,5450,NA
"A3FGT6EU39C6S4","Sat Oct 31 2020 13:00:29 GMT-0500 (Central Daylight Time)","Sat Oct 31 2020 13:07:44 GMT-0500 (Central Daylight Time)","Mozilla/5.0 (Windows NT 6.3; Win64; x64) AppleWebKit/537.36 (KHTML, like Gecko) Chrome/86.0.4240.111 Safari/537.36",153,"[0.9, 0.5, 0.1]","[0.8, 0.4, 0.2]","[u'red', u'blue', u'black']","[u'left', u'middle', u'right']","[0.8, 0.4, 0.2]","[u'high', u'low', u'medium']","black",51,"right","medium","True","False",204,5550,NA
"A3FGT6EU39C6S4","Sat Oct 31 2020 13:00:29 GMT-0500 (Central Daylight Time)","Sat Oct 31 2020 13:07:44 GMT-0500 (Central Daylight Time)","Mozilla/5.0 (Windows NT 6.3; Win64; x64) AppleWebKit/537.36 (KHTML, like Gecko) Chrome/86.0.4240.111 Safari/537.36",154,"[0.9, 0.5, 0.1]","[0.8, 0.4, 0.2]","[u'red', u'blue', u'black']","[u'left', u'middle', u'right']","[0.8, 0.4, 0.2]","[u'high', u'low', u'medium']","black",51,"right","medium","True","False",215,5650,NA
"A3FGT6EU39C6S4","Sat Oct 31 2020 13:00:29 GMT-0500 (Central Daylight Time)","Sat Oct 31 2020 13:07:44 GMT-0500 (Central Daylight Time)","Mozilla/5.0 (Windows NT 6.3; Win64; x64) AppleWebKit/537.36 (KHTML, like Gecko) Chrome/86.0.4240.111 Safari/537.36",155,"[0.9, 0.5, 0.1]","[0.8, 0.4, 0.2]","[u'red', u'blue', u'black']","[u'left', u'middle', u'right']","[0.8, 0.4, 0.2]","[u'high', u'low', u'medium']","black",51,"right","medium","False","False",206,5600,NA
"A3FGT6EU39C6S4","Sat Oct 31 2020 13:00:29 GMT-0500 (Central Daylight Time)","Sat Oct 31 2020 13:07:44 GMT-0500 (Central Daylight Time)","Mozilla/5.0 (Windows NT 6.3; Win64; x64) AppleWebKit/537.36 (KHTML, like Gecko) Chrome/86.0.4240.111 Safari/537.36",156,"[0.9, 0.5, 0.1]","[0.8, 0.4, 0.2]","[u'red', u'blue', u'black']","[u'left', u'middle', u'right']","[0.8, 0.4, 0.2]","[u'high', u'low', u'medium']","red",49,"left","high","False","False",427,5550,NA
"A3FGT6EU39C6S4","Sat Oct 31 2020 13:00:29 GMT-0500 (Central Daylight Time)","Sat Oct 31 2020 13:07:44 GMT-0500 (Central Daylight Time)","Mozilla/5.0 (Windows NT 6.3; Win64; x64) AppleWebKit/537.36 (KHTML, like Gecko) Chrome/86.0.4240.111 Safari/537.36",157,"[0.9, 0.5, 0.1]","[0.8, 0.4, 0.2]","[u'red', u'blue', u'black']","[u'left', u'middle', u'right']","[0.8, 0.4, 0.2]","[u'high', u'low', u'medium']","black",51,"right","medium","False","False",750,5500,NA
"A3FGT6EU39C6S4","Sat Oct 31 2020 13:00:29 GMT-0500 (Central Daylight Time)","Sat Oct 31 2020 13:07:44 GMT-0500 (Central Daylight Time)","Mozilla/5.0 (Windows NT 6.3; Win64; x64) AppleWebKit/537.36 (KHTML, like Gecko) Chrome/86.0.4240.111 Safari/537.36",158,"[0.9, 0.5, 0.1]","[0.8, 0.4, 0.2]","[u'red', u'blue', u'black']","[u'left', u'middle', u'right']","[0.8, 0.4, 0.2]","[u'high', u'low', u'medium']","black",51,"right","medium","False","False",222,5450,NA
"A3FGT6EU39C6S4","Sat Oct 31 2020 13:00:29 GMT-0500 (Central Daylight Time)","Sat Oct 31 2020 13:07:44 GMT-0500 (Central Daylight Time)","Mozilla/5.0 (Windows NT 6.3; Win64; x64) AppleWebKit/537.36 (KHTML, like Gecko) Chrome/86.0.4240.111 Safari/537.36",159,"[0.9, 0.5, 0.1]","[0.8, 0.4, 0.2]","[u'red', u'blue', u'black']","[u'left', u'middle', u'right']","[0.8, 0.4, 0.2]","[u'high', u'low', u'medium']","blue",50,"middle","low","False","False",183,5400,NA
"A3FGT6EU39C6S4","Sat Oct 31 2020 13:00:29 GMT-0500 (Central Daylight Time)","Sat Oct 31 2020 13:07:44 GMT-0500 (Central Daylight Time)","Mozilla/5.0 (Windows NT 6.3; Win64; x64) AppleWebKit/537.36 (KHTML, like Gecko) Chrome/86.0.4240.111 Safari/537.36",160,"[0.9, 0.5, 0.1]","[0.8, 0.4, 0.2]","[u'red', u'blue', u'black']","[u'left', u'middle', u'right']","[0.8, 0.4, 0.2]","[u'high', u'low', u'medium']","black",51,"right","medium","False","False",178,5350,NA
