"src_subject_id","start_time","end_time","browser","index","first_half_probabilities","second_half_probabilities","deck_color","deck_position","deck_probabilities","deck_contingencies","response_color","key_press","response_position","response_probability","reward_type","trial_type","rt","reward_tally","exclusion_reason"
"AGNYQM1O874LT","Sat Oct 31 2020 17:10:15 GMT-0400 (Eastern Daylight Time)","Sat Oct 31 2020 21:02:27 GMT-0400 (Eastern Daylight Time)","Mozilla/5.0 (Windows NT 10.0; WOW64) AppleWebKit/537.36 (KHTML, like Gecko) Chrome/86.0.4240.111 Safari/537.36",1,"[0.9, 0.5, 0.1]","[0.8, 0.4, 0.2]","[u'red', u'blue', u'black']","[u'left', u'middle', u'right']","[0.9, 0.5, 0.1]","[u'low', u'high', u'medium']","black",51,"right","medium","False","False",817,-50,NA
"AGNYQM1O874LT","Sat Oct 31 2020 17:10:15 GMT-0400 (Eastern Daylight Time)","Sat Oct 31 2020 21:02:27 GMT-0400 (Eastern Daylight Time)","Mozilla/5.0 (Windows NT 10.0; WOW64) AppleWebKit/537.36 (KHTML, like Gecko) Chrome/86.0.4240.111 Safari/537.36",2,"[0.9, 0.5, 0.1]","[0.8, 0.4, 0.2]","[u'red', u'blue', u'black']","[u'left', u'middle', u'right']","[0.9, 0.5, 0.1]","[u'low', u'high', u'medium']","red",49,"left","low","False","False",543,-100,NA
"AGNYQM1O874LT","Sat Oct 31 2020 17:10:15 GMT-0400 (Eastern Daylight Time)","Sat Oct 31 2020 21:02:27 GMT-0400 (Eastern Daylight Time)","Mozilla/5.0 (Windows NT 10.0; WOW64) AppleWebKit/537.36 (KHTML, like Gecko) Chrome/86.0.4240.111 Safari/537.36",3,"[0.9, 0.5, 0.1]","[0.8, 0.4, 0.2]","[u'red', u'blue', u'black']","[u'left', u'middle', u'right']","[0.9, 0.5, 0.1]","[u'low', u'high', u'medium']","red",49,"left","low","False","False",620,-150,NA
"AGNYQM1O874LT","Sat Oct 31 2020 17:10:15 GMT-0400 (Eastern Daylight Time)","Sat Oct 31 2020 21:02:27 GMT-0400 (Eastern Daylight Time)","Mozilla/5.0 (Windows NT 10.0; WOW64) AppleWebKit/537.36 (KHTML, like Gecko) Chrome/86.0.4240.111 Safari/537.36",4,"[0.9, 0.5, 0.1]","[0.8, 0.4, 0.2]","[u'red', u'blue', u'black']","[u'left', u'middle', u'right']","[0.9, 0.5, 0.1]","[u'low', u'high', u'medium']","black",51,"right","medium","True","False",468,-50,NA
"AGNYQM1O874LT","Sat Oct 31 2020 17:10:15 GMT-0400 (Eastern Daylight Time)","Sat Oct 31 2020 21:02:27 GMT-0400 (Eastern Daylight Time)","Mozilla/5.0 (Windows NT 10.0; WOW64) AppleWebKit/537.36 (KHTML, like Gecko) Chrome/86.0.4240.111 Safari/537.36",5,"[0.9, 0.5, 0.1]","[0.8, 0.4, 0.2]","[u'red', u'blue', u'black']","[u'left', u'middle', u'right']","[0.9, 0.5, 0.1]","[u'low', u'high', u'medium']","black",51,"right","medium","False","False",495,-100,NA
"AGNYQM1O874LT","Sat Oct 31 2020 17:10:15 GMT-0400 (Eastern Daylight Time)","Sat Oct 31 2020 21:02:27 GMT-0400 (Eastern Daylight Time)","Mozilla/5.0 (Windows NT 10.0; WOW64) AppleWebKit/537.36 (KHTML, like Gecko) Chrome/86.0.4240.111 Safari/537.36",6,"[0.9, 0.5, 0.1]","[0.8, 0.4, 0.2]","[u'red', u'blue', u'black']","[u'left', u'middle', u'right']","[0.9, 0.5, 0.1]","[u'low', u'high', u'medium']","black",51,"right","medium","True","False",416,0,NA
"AGNYQM1O874LT","Sat Oct 31 2020 17:10:15 GMT-0400 (Eastern Daylight Time)","Sat Oct 31 2020 21:02:27 GMT-0400 (Eastern Daylight Time)","Mozilla/5.0 (Windows NT 10.0; WOW64) AppleWebKit/537.36 (KHTML, like Gecko) Chrome/86.0.4240.111 Safari/537.36",7,"[0.9, 0.5, 0.1]","[0.8, 0.4, 0.2]","[u'red', u'blue', u'black']","[u'left', u'middle', u'right']","[0.9, 0.5, 0.1]","[u'low', u'high', u'medium']","blue",50,"middle","high","True","False",724,100,NA
"AGNYQM1O874LT","Sat Oct 31 2020 17:10:15 GMT-0400 (Eastern Daylight Time)","Sat Oct 31 2020 21:02:27 GMT-0400 (Eastern Daylight Time)","Mozilla/5.0 (Windows NT 10.0; WOW64) AppleWebKit/537.36 (KHTML, like Gecko) Chrome/86.0.4240.111 Safari/537.36",8,"[0.9, 0.5, 0.1]","[0.8, 0.4, 0.2]","[u'red', u'blue', u'black']","[u'left', u'middle', u'right']","[0.9, 0.5, 0.1]","[u'low', u'high', u'medium']","black",51,"right","medium","True","False",1060,200,NA
"AGNYQM1O874LT","Sat Oct 31 2020 17:10:15 GMT-0400 (Eastern Daylight Time)","Sat Oct 31 2020 21:02:27 GMT-0400 (Eastern Daylight Time)","Mozilla/5.0 (Windows NT 10.0; WOW64) AppleWebKit/537.36 (KHTML, like Gecko) Chrome/86.0.4240.111 Safari/537.36",9,"[0.9, 0.5, 0.1]","[0.8, 0.4, 0.2]","[u'red', u'blue', u'black']","[u'left', u'middle', u'right']","[0.9, 0.5, 0.1]","[u'low', u'high', u'medium']","red",49,"left","low","False","False",587,150,NA
"AGNYQM1O874LT","Sat Oct 31 2020 17:10:15 GMT-0400 (Eastern Daylight Time)","Sat Oct 31 2020 21:02:27 GMT-0400 (Eastern Daylight Time)","Mozilla/5.0 (Windows NT 10.0; WOW64) AppleWebKit/537.36 (KHTML, like Gecko) Chrome/86.0.4240.111 Safari/537.36",10,"[0.9, 0.5, 0.1]","[0.8, 0.4, 0.2]","[u'red', u'blue', u'black']","[u'left', u'middle', u'right']","[0.9, 0.5, 0.1]","[u'low', u'high', u'medium']","black",51,"right","medium","False","False",450,100,NA
"AGNYQM1O874LT","Sat Oct 31 2020 17:10:15 GMT-0400 (Eastern Daylight Time)","Sat Oct 31 2020 21:02:27 GMT-0400 (Eastern Daylight Time)","Mozilla/5.0 (Windows NT 10.0; WOW64) AppleWebKit/537.36 (KHTML, like Gecko) Chrome/86.0.4240.111 Safari/537.36",11,"[0.9, 0.5, 0.1]","[0.8, 0.4, 0.2]","[u'red', u'blue', u'black']","[u'left', u'middle', u'right']","[0.9, 0.5, 0.1]","[u'low', u'high', u'medium']","black",51,"right","medium","False","False",366,50,NA
"AGNYQM1O874LT","Sat Oct 31 2020 17:10:15 GMT-0400 (Eastern Daylight Time)","Sat Oct 31 2020 21:02:27 GMT-0400 (Eastern Daylight Time)","Mozilla/5.0 (Windows NT 10.0; WOW64) AppleWebKit/537.36 (KHTML, like Gecko) Chrome/86.0.4240.111 Safari/537.36",12,"[0.9, 0.5, 0.1]","[0.8, 0.4, 0.2]","[u'red', u'blue', u'black']","[u'left', u'middle', u'right']","[0.9, 0.5, 0.1]","[u'low', u'high', u'medium']","blue",50,"middle","high","True","False",446,150,NA
"AGNYQM1O874LT","Sat Oct 31 2020 17:10:15 GMT-0400 (Eastern Daylight Time)","Sat Oct 31 2020 21:02:27 GMT-0400 (Eastern Daylight Time)","Mozilla/5.0 (Windows NT 10.0; WOW64) AppleWebKit/537.36 (KHTML, like Gecko) Chrome/86.0.4240.111 Safari/537.36",13,"[0.9, 0.5, 0.1]","[0.8, 0.4, 0.2]","[u'red', u'blue', u'black']","[u'left', u'middle', u'right']","[0.9, 0.5, 0.1]","[u'low', u'high', u'medium']","red",49,"left","low","False","False",226,100,NA
"AGNYQM1O874LT","Sat Oct 31 2020 17:10:15 GMT-0400 (Eastern Daylight Time)","Sat Oct 31 2020 21:02:27 GMT-0400 (Eastern Daylight Time)","Mozilla/5.0 (Windows NT 10.0; WOW64) AppleWebKit/537.36 (KHTML, like Gecko) Chrome/86.0.4240.111 Safari/537.36",14,"[0.9, 0.5, 0.1]","[0.8, 0.4, 0.2]","[u'red', u'blue', u'black']","[u'left', u'middle', u'right']","[0.9, 0.5, 0.1]","[u'low', u'high', u'medium']","blue",50,"middle","high","True","False",1061,200,NA
"AGNYQM1O874LT","Sat Oct 31 2020 17:10:15 GMT-0400 (Eastern Daylight Time)","Sat Oct 31 2020 21:02:27 GMT-0400 (Eastern Daylight Time)","Mozilla/5.0 (Windows NT 10.0; WOW64) AppleWebKit/537.36 (KHTML, like Gecko) Chrome/86.0.4240.111 Safari/537.36",15,"[0.9, 0.5, 0.1]","[0.8, 0.4, 0.2]","[u'red', u'blue', u'black']","[u'left', u'middle', u'right']","[0.9, 0.5, 0.1]","[u'low', u'high', u'medium']","black",51,"right","medium","False","False",613,150,NA
"AGNYQM1O874LT","Sat Oct 31 2020 17:10:15 GMT-0400 (Eastern Daylight Time)","Sat Oct 31 2020 21:02:27 GMT-0400 (Eastern Daylight Time)","Mozilla/5.0 (Windows NT 10.0; WOW64) AppleWebKit/537.36 (KHTML, like Gecko) Chrome/86.0.4240.111 Safari/537.36",16,"[0.9, 0.5, 0.1]","[0.8, 0.4, 0.2]","[u'red', u'blue', u'black']","[u'left', u'middle', u'right']","[0.9, 0.5, 0.1]","[u'low', u'high', u'medium']","blue",50,"middle","high","True","False",245,250,NA
"AGNYQM1O874LT","Sat Oct 31 2020 17:10:15 GMT-0400 (Eastern Daylight Time)","Sat Oct 31 2020 21:02:27 GMT-0400 (Eastern Daylight Time)","Mozilla/5.0 (Windows NT 10.0; WOW64) AppleWebKit/537.36 (KHTML, like Gecko) Chrome/86.0.4240.111 Safari/537.36",17,"[0.9, 0.5, 0.1]","[0.8, 0.4, 0.2]","[u'red', u'blue', u'black']","[u'left', u'middle', u'right']","[0.9, 0.5, 0.1]","[u'low', u'high', u'medium']","blue",50,"middle","high","True","False",589,350,NA
"AGNYQM1O874LT","Sat Oct 31 2020 17:10:15 GMT-0400 (Eastern Daylight Time)","Sat Oct 31 2020 21:02:27 GMT-0400 (Eastern Daylight Time)","Mozilla/5.0 (Windows NT 10.0; WOW64) AppleWebKit/537.36 (KHTML, like Gecko) Chrome/86.0.4240.111 Safari/537.36",18,"[0.9, 0.5, 0.1]","[0.8, 0.4, 0.2]","[u'red', u'blue', u'black']","[u'left', u'middle', u'right']","[0.9, 0.5, 0.1]","[u'low', u'high', u'medium']","blue",50,"middle","high","True","False",560,450,NA
"AGNYQM1O874LT","Sat Oct 31 2020 17:10:15 GMT-0400 (Eastern Daylight Time)","Sat Oct 31 2020 21:02:27 GMT-0400 (Eastern Daylight Time)","Mozilla/5.0 (Windows NT 10.0; WOW64) AppleWebKit/537.36 (KHTML, like Gecko) Chrome/86.0.4240.111 Safari/537.36",19,"[0.9, 0.5, 0.1]","[0.8, 0.4, 0.2]","[u'red', u'blue', u'black']","[u'left', u'middle', u'right']","[0.9, 0.5, 0.1]","[u'low', u'high', u'medium']","blue",50,"middle","high","False","False",693,400,NA
"AGNYQM1O874LT","Sat Oct 31 2020 17:10:15 GMT-0400 (Eastern Daylight Time)","Sat Oct 31 2020 21:02:27 GMT-0400 (Eastern Daylight Time)","Mozilla/5.0 (Windows NT 10.0; WOW64) AppleWebKit/537.36 (KHTML, like Gecko) Chrome/86.0.4240.111 Safari/537.36",20,"[0.9, 0.5, 0.1]","[0.8, 0.4, 0.2]","[u'red', u'blue', u'black']","[u'left', u'middle', u'right']","[0.9, 0.5, 0.1]","[u'low', u'high', u'medium']","blue",50,"middle","high","True","False",603,500,NA
"AGNYQM1O874LT","Sat Oct 31 2020 17:10:15 GMT-0400 (Eastern Daylight Time)","Sat Oct 31 2020 21:02:27 GMT-0400 (Eastern Daylight Time)","Mozilla/5.0 (Windows NT 10.0; WOW64) AppleWebKit/537.36 (KHTML, like Gecko) Chrome/86.0.4240.111 Safari/537.36",21,"[0.9, 0.5, 0.1]","[0.8, 0.4, 0.2]","[u'red', u'blue', u'black']","[u'left', u'middle', u'right']","[0.9, 0.5, 0.1]","[u'low', u'high', u'medium']","blue",50,"middle","high","False","False",890,450,NA
"AGNYQM1O874LT","Sat Oct 31 2020 17:10:15 GMT-0400 (Eastern Daylight Time)","Sat Oct 31 2020 21:02:27 GMT-0400 (Eastern Daylight Time)","Mozilla/5.0 (Windows NT 10.0; WOW64) AppleWebKit/537.36 (KHTML, like Gecko) Chrome/86.0.4240.111 Safari/537.36",22,"[0.9, 0.5, 0.1]","[0.8, 0.4, 0.2]","[u'red', u'blue', u'black']","[u'left', u'middle', u'right']","[0.9, 0.5, 0.1]","[u'low', u'high', u'medium']","red",49,"left","low","False","False",611,400,NA
"AGNYQM1O874LT","Sat Oct 31 2020 17:10:15 GMT-0400 (Eastern Daylight Time)","Sat Oct 31 2020 21:02:27 GMT-0400 (Eastern Daylight Time)","Mozilla/5.0 (Windows NT 10.0; WOW64) AppleWebKit/537.36 (KHTML, like Gecko) Chrome/86.0.4240.111 Safari/537.36",23,"[0.9, 0.5, 0.1]","[0.8, 0.4, 0.2]","[u'red', u'blue', u'black']","[u'left', u'middle', u'right']","[0.9, 0.5, 0.1]","[u'low', u'high', u'medium']","black",51,"right","medium","False","False",720,350,NA
"AGNYQM1O874LT","Sat Oct 31 2020 17:10:15 GMT-0400 (Eastern Daylight Time)","Sat Oct 31 2020 21:02:27 GMT-0400 (Eastern Daylight Time)","Mozilla/5.0 (Windows NT 10.0; WOW64) AppleWebKit/537.36 (KHTML, like Gecko) Chrome/86.0.4240.111 Safari/537.36",24,"[0.9, 0.5, 0.1]","[0.8, 0.4, 0.2]","[u'red', u'blue', u'black']","[u'left', u'middle', u'right']","[0.9, 0.5, 0.1]","[u'low', u'high', u'medium']","blue",50,"middle","high","False","False",535,300,NA
"AGNYQM1O874LT","Sat Oct 31 2020 17:10:15 GMT-0400 (Eastern Daylight Time)","Sat Oct 31 2020 21:02:27 GMT-0400 (Eastern Daylight Time)","Mozilla/5.0 (Windows NT 10.0; WOW64) AppleWebKit/537.36 (KHTML, like Gecko) Chrome/86.0.4240.111 Safari/537.36",25,"[0.9, 0.5, 0.1]","[0.8, 0.4, 0.2]","[u'red', u'blue', u'black']","[u'left', u'middle', u'right']","[0.9, 0.5, 0.1]","[u'low', u'high', u'medium']","red",49,"left","low","False","False",367,250,NA
"AGNYQM1O874LT","Sat Oct 31 2020 17:10:15 GMT-0400 (Eastern Daylight Time)","Sat Oct 31 2020 21:02:27 GMT-0400 (Eastern Daylight Time)","Mozilla/5.0 (Windows NT 10.0; WOW64) AppleWebKit/537.36 (KHTML, like Gecko) Chrome/86.0.4240.111 Safari/537.36",26,"[0.9, 0.5, 0.1]","[0.8, 0.4, 0.2]","[u'red', u'blue', u'black']","[u'left', u'middle', u'right']","[0.9, 0.5, 0.1]","[u'low', u'high', u'medium']","blue",50,"middle","high","True","False",638,350,NA
"AGNYQM1O874LT","Sat Oct 31 2020 17:10:15 GMT-0400 (Eastern Daylight Time)","Sat Oct 31 2020 21:02:27 GMT-0400 (Eastern Daylight Time)","Mozilla/5.0 (Windows NT 10.0; WOW64) AppleWebKit/537.36 (KHTML, like Gecko) Chrome/86.0.4240.111 Safari/537.36",27,"[0.9, 0.5, 0.1]","[0.8, 0.4, 0.2]","[u'red', u'blue', u'black']","[u'left', u'middle', u'right']","[0.9, 0.5, 0.1]","[u'low', u'high', u'medium']","black",51,"right","medium","False","False",392,300,NA
"AGNYQM1O874LT","Sat Oct 31 2020 17:10:15 GMT-0400 (Eastern Daylight Time)","Sat Oct 31 2020 21:02:27 GMT-0400 (Eastern Daylight Time)","Mozilla/5.0 (Windows NT 10.0; WOW64) AppleWebKit/537.36 (KHTML, like Gecko) Chrome/86.0.4240.111 Safari/537.36",28,"[0.9, 0.5, 0.1]","[0.8, 0.4, 0.2]","[u'red', u'blue', u'black']","[u'left', u'middle', u'right']","[0.9, 0.5, 0.1]","[u'low', u'high', u'medium']","blue",50,"middle","high","True","False",707,400,NA
"AGNYQM1O874LT","Sat Oct 31 2020 17:10:15 GMT-0400 (Eastern Daylight Time)","Sat Oct 31 2020 21:02:27 GMT-0400 (Eastern Daylight Time)","Mozilla/5.0 (Windows NT 10.0; WOW64) AppleWebKit/537.36 (KHTML, like Gecko) Chrome/86.0.4240.111 Safari/537.36",29,"[0.9, 0.5, 0.1]","[0.8, 0.4, 0.2]","[u'red', u'blue', u'black']","[u'left', u'middle', u'right']","[0.9, 0.5, 0.1]","[u'low', u'high', u'medium']","blue",50,"middle","high","True","False",204,500,NA
"AGNYQM1O874LT","Sat Oct 31 2020 17:10:15 GMT-0400 (Eastern Daylight Time)","Sat Oct 31 2020 21:02:27 GMT-0400 (Eastern Daylight Time)","Mozilla/5.0 (Windows NT 10.0; WOW64) AppleWebKit/537.36 (KHTML, like Gecko) Chrome/86.0.4240.111 Safari/537.36",30,"[0.9, 0.5, 0.1]","[0.8, 0.4, 0.2]","[u'red', u'blue', u'black']","[u'left', u'middle', u'right']","[0.9, 0.5, 0.1]","[u'low', u'high', u'medium']","red",49,"left","low","False","False",294,450,NA
"AGNYQM1O874LT","Sat Oct 31 2020 17:10:15 GMT-0400 (Eastern Daylight Time)","Sat Oct 31 2020 21:02:27 GMT-0400 (Eastern Daylight Time)","Mozilla/5.0 (Windows NT 10.0; WOW64) AppleWebKit/537.36 (KHTML, like Gecko) Chrome/86.0.4240.111 Safari/537.36",31,"[0.9, 0.5, 0.1]","[0.8, 0.4, 0.2]","[u'red', u'blue', u'black']","[u'left', u'middle', u'right']","[0.9, 0.5, 0.1]","[u'low', u'high', u'medium']","blue",50,"middle","high","True","False",399,550,NA
"AGNYQM1O874LT","Sat Oct 31 2020 17:10:15 GMT-0400 (Eastern Daylight Time)","Sat Oct 31 2020 21:02:27 GMT-0400 (Eastern Daylight Time)","Mozilla/5.0 (Windows NT 10.0; WOW64) AppleWebKit/537.36 (KHTML, like Gecko) Chrome/86.0.4240.111 Safari/537.36",32,"[0.9, 0.5, 0.1]","[0.8, 0.4, 0.2]","[u'red', u'blue', u'black']","[u'left', u'middle', u'right']","[0.9, 0.5, 0.1]","[u'low', u'high', u'medium']","blue",50,"middle","high","True","False",672,650,NA
"AGNYQM1O874LT","Sat Oct 31 2020 17:10:15 GMT-0400 (Eastern Daylight Time)","Sat Oct 31 2020 21:02:27 GMT-0400 (Eastern Daylight Time)","Mozilla/5.0 (Windows NT 10.0; WOW64) AppleWebKit/537.36 (KHTML, like Gecko) Chrome/86.0.4240.111 Safari/537.36",33,"[0.9, 0.5, 0.1]","[0.8, 0.4, 0.2]","[u'red', u'blue', u'black']","[u'left', u'middle', u'right']","[0.9, 0.5, 0.1]","[u'low', u'high', u'medium']","blue",50,"middle","high","True","False",600,750,NA
"AGNYQM1O874LT","Sat Oct 31 2020 17:10:15 GMT-0400 (Eastern Daylight Time)","Sat Oct 31 2020 21:02:27 GMT-0400 (Eastern Daylight Time)","Mozilla/5.0 (Windows NT 10.0; WOW64) AppleWebKit/537.36 (KHTML, like Gecko) Chrome/86.0.4240.111 Safari/537.36",34,"[0.9, 0.5, 0.1]","[0.8, 0.4, 0.2]","[u'red', u'blue', u'black']","[u'left', u'middle', u'right']","[0.9, 0.5, 0.1]","[u'low', u'high', u'medium']","blue",50,"middle","high","True","False",673,850,NA
"AGNYQM1O874LT","Sat Oct 31 2020 17:10:15 GMT-0400 (Eastern Daylight Time)","Sat Oct 31 2020 21:02:27 GMT-0400 (Eastern Daylight Time)","Mozilla/5.0 (Windows NT 10.0; WOW64) AppleWebKit/537.36 (KHTML, like Gecko) Chrome/86.0.4240.111 Safari/537.36",35,"[0.9, 0.5, 0.1]","[0.8, 0.4, 0.2]","[u'red', u'blue', u'black']","[u'left', u'middle', u'right']","[0.9, 0.5, 0.1]","[u'low', u'high', u'medium']","black",51,"right","medium","True","False",492,950,NA
"AGNYQM1O874LT","Sat Oct 31 2020 17:10:15 GMT-0400 (Eastern Daylight Time)","Sat Oct 31 2020 21:02:27 GMT-0400 (Eastern Daylight Time)","Mozilla/5.0 (Windows NT 10.0; WOW64) AppleWebKit/537.36 (KHTML, like Gecko) Chrome/86.0.4240.111 Safari/537.36",36,"[0.9, 0.5, 0.1]","[0.8, 0.4, 0.2]","[u'red', u'blue', u'black']","[u'left', u'middle', u'right']","[0.9, 0.5, 0.1]","[u'low', u'high', u'medium']","blue",50,"middle","high","True","False",599,1050,NA
"AGNYQM1O874LT","Sat Oct 31 2020 17:10:15 GMT-0400 (Eastern Daylight Time)","Sat Oct 31 2020 21:02:27 GMT-0400 (Eastern Daylight Time)","Mozilla/5.0 (Windows NT 10.0; WOW64) AppleWebKit/537.36 (KHTML, like Gecko) Chrome/86.0.4240.111 Safari/537.36",37,"[0.9, 0.5, 0.1]","[0.8, 0.4, 0.2]","[u'red', u'blue', u'black']","[u'left', u'middle', u'right']","[0.9, 0.5, 0.1]","[u'low', u'high', u'medium']","black",51,"right","medium","True","False",241,1150,NA
"AGNYQM1O874LT","Sat Oct 31 2020 17:10:15 GMT-0400 (Eastern Daylight Time)","Sat Oct 31 2020 21:02:27 GMT-0400 (Eastern Daylight Time)","Mozilla/5.0 (Windows NT 10.0; WOW64) AppleWebKit/537.36 (KHTML, like Gecko) Chrome/86.0.4240.111 Safari/537.36",38,"[0.9, 0.5, 0.1]","[0.8, 0.4, 0.2]","[u'red', u'blue', u'black']","[u'left', u'middle', u'right']","[0.9, 0.5, 0.1]","[u'low', u'high', u'medium']","red",49,"left","low","False","False",615,1100,NA
"AGNYQM1O874LT","Sat Oct 31 2020 17:10:15 GMT-0400 (Eastern Daylight Time)","Sat Oct 31 2020 21:02:27 GMT-0400 (Eastern Daylight Time)","Mozilla/5.0 (Windows NT 10.0; WOW64) AppleWebKit/537.36 (KHTML, like Gecko) Chrome/86.0.4240.111 Safari/537.36",39,"[0.9, 0.5, 0.1]","[0.8, 0.4, 0.2]","[u'red', u'blue', u'black']","[u'left', u'middle', u'right']","[0.9, 0.5, 0.1]","[u'low', u'high', u'medium']","blue",50,"middle","high","True","False",355,1200,NA
"AGNYQM1O874LT","Sat Oct 31 2020 17:10:15 GMT-0400 (Eastern Daylight Time)","Sat Oct 31 2020 21:02:27 GMT-0400 (Eastern Daylight Time)","Mozilla/5.0 (Windows NT 10.0; WOW64) AppleWebKit/537.36 (KHTML, like Gecko) Chrome/86.0.4240.111 Safari/537.36",40,"[0.9, 0.5, 0.1]","[0.8, 0.4, 0.2]","[u'red', u'blue', u'black']","[u'left', u'middle', u'right']","[0.9, 0.5, 0.1]","[u'low', u'high', u'medium']","black",51,"right","medium","True","False",193,1300,NA
"AGNYQM1O874LT","Sat Oct 31 2020 17:10:15 GMT-0400 (Eastern Daylight Time)","Sat Oct 31 2020 21:02:27 GMT-0400 (Eastern Daylight Time)","Mozilla/5.0 (Windows NT 10.0; WOW64) AppleWebKit/537.36 (KHTML, like Gecko) Chrome/86.0.4240.111 Safari/537.36",41,"[0.9, 0.5, 0.1]","[0.8, 0.4, 0.2]","[u'red', u'blue', u'black']","[u'left', u'middle', u'right']","[0.9, 0.5, 0.1]","[u'low', u'medium', u'high']","blue",50,"middle","medium","False","False",1073,1250,NA
"AGNYQM1O874LT","Sat Oct 31 2020 17:10:15 GMT-0400 (Eastern Daylight Time)","Sat Oct 31 2020 21:02:27 GMT-0400 (Eastern Daylight Time)","Mozilla/5.0 (Windows NT 10.0; WOW64) AppleWebKit/537.36 (KHTML, like Gecko) Chrome/86.0.4240.111 Safari/537.36",42,"[0.9, 0.5, 0.1]","[0.8, 0.4, 0.2]","[u'red', u'blue', u'black']","[u'left', u'middle', u'right']","[0.9, 0.5, 0.1]","[u'low', u'medium', u'high']","black",51,"right","high","True","False",402,1350,NA
"AGNYQM1O874LT","Sat Oct 31 2020 17:10:15 GMT-0400 (Eastern Daylight Time)","Sat Oct 31 2020 21:02:27 GMT-0400 (Eastern Daylight Time)","Mozilla/5.0 (Windows NT 10.0; WOW64) AppleWebKit/537.36 (KHTML, like Gecko) Chrome/86.0.4240.111 Safari/537.36",43,"[0.9, 0.5, 0.1]","[0.8, 0.4, 0.2]","[u'red', u'blue', u'black']","[u'left', u'middle', u'right']","[0.9, 0.5, 0.1]","[u'low', u'medium', u'high']","red",49,"left","low","False","False",460,1300,NA
"AGNYQM1O874LT","Sat Oct 31 2020 17:10:15 GMT-0400 (Eastern Daylight Time)","Sat Oct 31 2020 21:02:27 GMT-0400 (Eastern Daylight Time)","Mozilla/5.0 (Windows NT 10.0; WOW64) AppleWebKit/537.36 (KHTML, like Gecko) Chrome/86.0.4240.111 Safari/537.36",44,"[0.9, 0.5, 0.1]","[0.8, 0.4, 0.2]","[u'red', u'blue', u'black']","[u'left', u'middle', u'right']","[0.9, 0.5, 0.1]","[u'low', u'medium', u'high']","blue",50,"middle","medium","True","False",397,1400,NA
"AGNYQM1O874LT","Sat Oct 31 2020 17:10:15 GMT-0400 (Eastern Daylight Time)","Sat Oct 31 2020 21:02:27 GMT-0400 (Eastern Daylight Time)","Mozilla/5.0 (Windows NT 10.0; WOW64) AppleWebKit/537.36 (KHTML, like Gecko) Chrome/86.0.4240.111 Safari/537.36",45,"[0.9, 0.5, 0.1]","[0.8, 0.4, 0.2]","[u'red', u'blue', u'black']","[u'left', u'middle', u'right']","[0.9, 0.5, 0.1]","[u'low', u'medium', u'high']","black",51,"right","high","True","False",409,1500,NA
"AGNYQM1O874LT","Sat Oct 31 2020 17:10:15 GMT-0400 (Eastern Daylight Time)","Sat Oct 31 2020 21:02:27 GMT-0400 (Eastern Daylight Time)","Mozilla/5.0 (Windows NT 10.0; WOW64) AppleWebKit/537.36 (KHTML, like Gecko) Chrome/86.0.4240.111 Safari/537.36",46,"[0.9, 0.5, 0.1]","[0.8, 0.4, 0.2]","[u'red', u'blue', u'black']","[u'left', u'middle', u'right']","[0.9, 0.5, 0.1]","[u'low', u'medium', u'high']","blue",50,"middle","medium","False","False",59,1450,NA
"AGNYQM1O874LT","Sat Oct 31 2020 17:10:15 GMT-0400 (Eastern Daylight Time)","Sat Oct 31 2020 21:02:27 GMT-0400 (Eastern Daylight Time)","Mozilla/5.0 (Windows NT 10.0; WOW64) AppleWebKit/537.36 (KHTML, like Gecko) Chrome/86.0.4240.111 Safari/537.36",47,"[0.9, 0.5, 0.1]","[0.8, 0.4, 0.2]","[u'red', u'blue', u'black']","[u'left', u'middle', u'right']","[0.9, 0.5, 0.1]","[u'low', u'medium', u'high']","black",51,"right","high","True","False",787,1550,NA
"AGNYQM1O874LT","Sat Oct 31 2020 17:10:15 GMT-0400 (Eastern Daylight Time)","Sat Oct 31 2020 21:02:27 GMT-0400 (Eastern Daylight Time)","Mozilla/5.0 (Windows NT 10.0; WOW64) AppleWebKit/537.36 (KHTML, like Gecko) Chrome/86.0.4240.111 Safari/537.36",48,"[0.9, 0.5, 0.1]","[0.8, 0.4, 0.2]","[u'red', u'blue', u'black']","[u'left', u'middle', u'right']","[0.9, 0.5, 0.1]","[u'low', u'medium', u'high']","black",51,"right","high","True","False",185,1650,NA
"AGNYQM1O874LT","Sat Oct 31 2020 17:10:15 GMT-0400 (Eastern Daylight Time)","Sat Oct 31 2020 21:02:27 GMT-0400 (Eastern Daylight Time)","Mozilla/5.0 (Windows NT 10.0; WOW64) AppleWebKit/537.36 (KHTML, like Gecko) Chrome/86.0.4240.111 Safari/537.36",49,"[0.9, 0.5, 0.1]","[0.8, 0.4, 0.2]","[u'red', u'blue', u'black']","[u'left', u'middle', u'right']","[0.9, 0.5, 0.1]","[u'low', u'medium', u'high']","black",51,"right","high","True","False",605,1750,NA
"AGNYQM1O874LT","Sat Oct 31 2020 17:10:15 GMT-0400 (Eastern Daylight Time)","Sat Oct 31 2020 21:02:27 GMT-0400 (Eastern Daylight Time)","Mozilla/5.0 (Windows NT 10.0; WOW64) AppleWebKit/537.36 (KHTML, like Gecko) Chrome/86.0.4240.111 Safari/537.36",50,"[0.9, 0.5, 0.1]","[0.8, 0.4, 0.2]","[u'red', u'blue', u'black']","[u'left', u'middle', u'right']","[0.9, 0.5, 0.1]","[u'low', u'medium', u'high']","black",51,"right","high","True","False",548,1850,NA
"AGNYQM1O874LT","Sat Oct 31 2020 17:10:15 GMT-0400 (Eastern Daylight Time)","Sat Oct 31 2020 21:02:27 GMT-0400 (Eastern Daylight Time)","Mozilla/5.0 (Windows NT 10.0; WOW64) AppleWebKit/537.36 (KHTML, like Gecko) Chrome/86.0.4240.111 Safari/537.36",51,"[0.9, 0.5, 0.1]","[0.8, 0.4, 0.2]","[u'red', u'blue', u'black']","[u'left', u'middle', u'right']","[0.9, 0.5, 0.1]","[u'low', u'medium', u'high']","red",49,"left","low","True","False",270,1950,NA
"AGNYQM1O874LT","Sat Oct 31 2020 17:10:15 GMT-0400 (Eastern Daylight Time)","Sat Oct 31 2020 21:02:27 GMT-0400 (Eastern Daylight Time)","Mozilla/5.0 (Windows NT 10.0; WOW64) AppleWebKit/537.36 (KHTML, like Gecko) Chrome/86.0.4240.111 Safari/537.36",52,"[0.9, 0.5, 0.1]","[0.8, 0.4, 0.2]","[u'red', u'blue', u'black']","[u'left', u'middle', u'right']","[0.9, 0.5, 0.1]","[u'low', u'medium', u'high']","red",49,"left","low","False","False",780,1900,NA
"AGNYQM1O874LT","Sat Oct 31 2020 17:10:15 GMT-0400 (Eastern Daylight Time)","Sat Oct 31 2020 21:02:27 GMT-0400 (Eastern Daylight Time)","Mozilla/5.0 (Windows NT 10.0; WOW64) AppleWebKit/537.36 (KHTML, like Gecko) Chrome/86.0.4240.111 Safari/537.36",53,"[0.9, 0.5, 0.1]","[0.8, 0.4, 0.2]","[u'red', u'blue', u'black']","[u'left', u'middle', u'right']","[0.9, 0.5, 0.1]","[u'low', u'medium', u'high']","blue",50,"middle","medium","True","False",300,2000,NA
"AGNYQM1O874LT","Sat Oct 31 2020 17:10:15 GMT-0400 (Eastern Daylight Time)","Sat Oct 31 2020 21:02:27 GMT-0400 (Eastern Daylight Time)","Mozilla/5.0 (Windows NT 10.0; WOW64) AppleWebKit/537.36 (KHTML, like Gecko) Chrome/86.0.4240.111 Safari/537.36",54,"[0.9, 0.5, 0.1]","[0.8, 0.4, 0.2]","[u'red', u'blue', u'black']","[u'left', u'middle', u'right']","[0.9, 0.5, 0.1]","[u'low', u'medium', u'high']","black",51,"right","high","False","False",681,1950,NA
"AGNYQM1O874LT","Sat Oct 31 2020 17:10:15 GMT-0400 (Eastern Daylight Time)","Sat Oct 31 2020 21:02:27 GMT-0400 (Eastern Daylight Time)","Mozilla/5.0 (Windows NT 10.0; WOW64) AppleWebKit/537.36 (KHTML, like Gecko) Chrome/86.0.4240.111 Safari/537.36",55,"[0.9, 0.5, 0.1]","[0.8, 0.4, 0.2]","[u'red', u'blue', u'black']","[u'left', u'middle', u'right']","[0.9, 0.5, 0.1]","[u'low', u'medium', u'high']","blue",50,"middle","medium","True","False",995,2050,NA
"AGNYQM1O874LT","Sat Oct 31 2020 17:10:15 GMT-0400 (Eastern Daylight Time)","Sat Oct 31 2020 21:02:27 GMT-0400 (Eastern Daylight Time)","Mozilla/5.0 (Windows NT 10.0; WOW64) AppleWebKit/537.36 (KHTML, like Gecko) Chrome/86.0.4240.111 Safari/537.36",56,"[0.9, 0.5, 0.1]","[0.8, 0.4, 0.2]","[u'red', u'blue', u'black']","[u'left', u'middle', u'right']","[0.9, 0.5, 0.1]","[u'low', u'medium', u'high']","black",51,"right","high","True","False",603,2150,NA
"AGNYQM1O874LT","Sat Oct 31 2020 17:10:15 GMT-0400 (Eastern Daylight Time)","Sat Oct 31 2020 21:02:27 GMT-0400 (Eastern Daylight Time)","Mozilla/5.0 (Windows NT 10.0; WOW64) AppleWebKit/537.36 (KHTML, like Gecko) Chrome/86.0.4240.111 Safari/537.36",57,"[0.9, 0.5, 0.1]","[0.8, 0.4, 0.2]","[u'red', u'blue', u'black']","[u'left', u'middle', u'right']","[0.9, 0.5, 0.1]","[u'low', u'medium', u'high']","blue",50,"middle","medium","True","False",180,2250,NA
"AGNYQM1O874LT","Sat Oct 31 2020 17:10:15 GMT-0400 (Eastern Daylight Time)","Sat Oct 31 2020 21:02:27 GMT-0400 (Eastern Daylight Time)","Mozilla/5.0 (Windows NT 10.0; WOW64) AppleWebKit/537.36 (KHTML, like Gecko) Chrome/86.0.4240.111 Safari/537.36",58,"[0.9, 0.5, 0.1]","[0.8, 0.4, 0.2]","[u'red', u'blue', u'black']","[u'left', u'middle', u'right']","[0.9, 0.5, 0.1]","[u'low', u'medium', u'high']","red",49,"left","low","False","False",915,2200,NA
"AGNYQM1O874LT","Sat Oct 31 2020 17:10:15 GMT-0400 (Eastern Daylight Time)","Sat Oct 31 2020 21:02:27 GMT-0400 (Eastern Daylight Time)","Mozilla/5.0 (Windows NT 10.0; WOW64) AppleWebKit/537.36 (KHTML, like Gecko) Chrome/86.0.4240.111 Safari/537.36",59,"[0.9, 0.5, 0.1]","[0.8, 0.4, 0.2]","[u'red', u'blue', u'black']","[u'left', u'middle', u'right']","[0.9, 0.5, 0.1]","[u'low', u'medium', u'high']","black",51,"right","high","True","False",710,2300,NA
"AGNYQM1O874LT","Sat Oct 31 2020 17:10:15 GMT-0400 (Eastern Daylight Time)","Sat Oct 31 2020 21:02:27 GMT-0400 (Eastern Daylight Time)","Mozilla/5.0 (Windows NT 10.0; WOW64) AppleWebKit/537.36 (KHTML, like Gecko) Chrome/86.0.4240.111 Safari/537.36",60,"[0.9, 0.5, 0.1]","[0.8, 0.4, 0.2]","[u'red', u'blue', u'black']","[u'left', u'middle', u'right']","[0.9, 0.5, 0.1]","[u'low', u'medium', u'high']","black",51,"right","high","False","False",3440,2250,NA
"AGNYQM1O874LT","Sat Oct 31 2020 17:10:15 GMT-0400 (Eastern Daylight Time)","Sat Oct 31 2020 21:02:27 GMT-0400 (Eastern Daylight Time)","Mozilla/5.0 (Windows NT 10.0; WOW64) AppleWebKit/537.36 (KHTML, like Gecko) Chrome/86.0.4240.111 Safari/537.36",61,"[0.9, 0.5, 0.1]","[0.8, 0.4, 0.2]","[u'red', u'blue', u'black']","[u'left', u'middle', u'right']","[0.9, 0.5, 0.1]","[u'low', u'medium', u'high']","red",49,"left","low","False","False",1251,2200,NA
"AGNYQM1O874LT","Sat Oct 31 2020 17:10:15 GMT-0400 (Eastern Daylight Time)","Sat Oct 31 2020 21:02:27 GMT-0400 (Eastern Daylight Time)","Mozilla/5.0 (Windows NT 10.0; WOW64) AppleWebKit/537.36 (KHTML, like Gecko) Chrome/86.0.4240.111 Safari/537.36",62,"[0.9, 0.5, 0.1]","[0.8, 0.4, 0.2]","[u'red', u'blue', u'black']","[u'left', u'middle', u'right']","[0.9, 0.5, 0.1]","[u'low', u'medium', u'high']","blue",50,"middle","medium","False","False",523,2150,NA
"AGNYQM1O874LT","Sat Oct 31 2020 17:10:15 GMT-0400 (Eastern Daylight Time)","Sat Oct 31 2020 21:02:27 GMT-0400 (Eastern Daylight Time)","Mozilla/5.0 (Windows NT 10.0; WOW64) AppleWebKit/537.36 (KHTML, like Gecko) Chrome/86.0.4240.111 Safari/537.36",63,"[0.9, 0.5, 0.1]","[0.8, 0.4, 0.2]","[u'red', u'blue', u'black']","[u'left', u'middle', u'right']","[0.9, 0.5, 0.1]","[u'low', u'medium', u'high']","blue",50,"middle","medium","True","False",3145,2250,NA
"AGNYQM1O874LT","Sat Oct 31 2020 17:10:15 GMT-0400 (Eastern Daylight Time)","Sat Oct 31 2020 21:02:27 GMT-0400 (Eastern Daylight Time)","Mozilla/5.0 (Windows NT 10.0; WOW64) AppleWebKit/537.36 (KHTML, like Gecko) Chrome/86.0.4240.111 Safari/537.36",64,"[0.9, 0.5, 0.1]","[0.8, 0.4, 0.2]","[u'red', u'blue', u'black']","[u'left', u'middle', u'right']","[0.9, 0.5, 0.1]","[u'low', u'medium', u'high']","blue",50,"middle","medium","False","False",855,2200,NA
"AGNYQM1O874LT","Sat Oct 31 2020 17:10:15 GMT-0400 (Eastern Daylight Time)","Sat Oct 31 2020 21:02:27 GMT-0400 (Eastern Daylight Time)","Mozilla/5.0 (Windows NT 10.0; WOW64) AppleWebKit/537.36 (KHTML, like Gecko) Chrome/86.0.4240.111 Safari/537.36",65,"[0.9, 0.5, 0.1]","[0.8, 0.4, 0.2]","[u'red', u'blue', u'black']","[u'left', u'middle', u'right']","[0.9, 0.5, 0.1]","[u'low', u'medium', u'high']","blue",50,"middle","medium","False","False",1824,2150,NA
"AGNYQM1O874LT","Sat Oct 31 2020 17:10:15 GMT-0400 (Eastern Daylight Time)","Sat Oct 31 2020 21:02:27 GMT-0400 (Eastern Daylight Time)","Mozilla/5.0 (Windows NT 10.0; WOW64) AppleWebKit/537.36 (KHTML, like Gecko) Chrome/86.0.4240.111 Safari/537.36",66,"[0.9, 0.5, 0.1]","[0.8, 0.4, 0.2]","[u'red', u'blue', u'black']","[u'left', u'middle', u'right']","[0.9, 0.5, 0.1]","[u'low', u'medium', u'high']","black",51,"right","high","True","False",1418,2250,NA
"AGNYQM1O874LT","Sat Oct 31 2020 17:10:15 GMT-0400 (Eastern Daylight Time)","Sat Oct 31 2020 21:02:27 GMT-0400 (Eastern Daylight Time)","Mozilla/5.0 (Windows NT 10.0; WOW64) AppleWebKit/537.36 (KHTML, like Gecko) Chrome/86.0.4240.111 Safari/537.36",67,"[0.9, 0.5, 0.1]","[0.8, 0.4, 0.2]","[u'red', u'blue', u'black']","[u'left', u'middle', u'right']","[0.9, 0.5, 0.1]","[u'low', u'medium', u'high']","red",49,"left","low","False","False",1566,2200,NA
"AGNYQM1O874LT","Sat Oct 31 2020 17:10:15 GMT-0400 (Eastern Daylight Time)","Sat Oct 31 2020 21:02:27 GMT-0400 (Eastern Daylight Time)","Mozilla/5.0 (Windows NT 10.0; WOW64) AppleWebKit/537.36 (KHTML, like Gecko) Chrome/86.0.4240.111 Safari/537.36",68,"[0.9, 0.5, 0.1]","[0.8, 0.4, 0.2]","[u'red', u'blue', u'black']","[u'left', u'middle', u'right']","[0.9, 0.5, 0.1]","[u'low', u'medium', u'high']","blue",50,"middle","medium","False","False",3667,2150,NA
"AGNYQM1O874LT","Sat Oct 31 2020 17:10:15 GMT-0400 (Eastern Daylight Time)","Sat Oct 31 2020 21:02:27 GMT-0400 (Eastern Daylight Time)","Mozilla/5.0 (Windows NT 10.0; WOW64) AppleWebKit/537.36 (KHTML, like Gecko) Chrome/86.0.4240.111 Safari/537.36",69,"[0.9, 0.5, 0.1]","[0.8, 0.4, 0.2]","[u'red', u'blue', u'black']","[u'left', u'middle', u'right']","[0.9, 0.5, 0.1]","[u'low', u'medium', u'high']","blue",50,"middle","medium","False","False",2211,2100,NA
"AGNYQM1O874LT","Sat Oct 31 2020 17:10:15 GMT-0400 (Eastern Daylight Time)","Sat Oct 31 2020 21:02:27 GMT-0400 (Eastern Daylight Time)","Mozilla/5.0 (Windows NT 10.0; WOW64) AppleWebKit/537.36 (KHTML, like Gecko) Chrome/86.0.4240.111 Safari/537.36",70,"[0.9, 0.5, 0.1]","[0.8, 0.4, 0.2]","[u'red', u'blue', u'black']","[u'left', u'middle', u'right']","[0.9, 0.5, 0.1]","[u'low', u'medium', u'high']","blue",50,"middle","medium","False","False",2828,2050,NA
"AGNYQM1O874LT","Sat Oct 31 2020 17:10:15 GMT-0400 (Eastern Daylight Time)","Sat Oct 31 2020 21:02:27 GMT-0400 (Eastern Daylight Time)","Mozilla/5.0 (Windows NT 10.0; WOW64) AppleWebKit/537.36 (KHTML, like Gecko) Chrome/86.0.4240.111 Safari/537.36",71,"[0.9, 0.5, 0.1]","[0.8, 0.4, 0.2]","[u'red', u'blue', u'black']","[u'left', u'middle', u'right']","[0.9, 0.5, 0.1]","[u'low', u'medium', u'high']","red",49,"left","low","False","False",3696,2000,NA
"AGNYQM1O874LT","Sat Oct 31 2020 17:10:15 GMT-0400 (Eastern Daylight Time)","Sat Oct 31 2020 21:02:27 GMT-0400 (Eastern Daylight Time)","Mozilla/5.0 (Windows NT 10.0; WOW64) AppleWebKit/537.36 (KHTML, like Gecko) Chrome/86.0.4240.111 Safari/537.36",72,"[0.9, 0.5, 0.1]","[0.8, 0.4, 0.2]","[u'red', u'blue', u'black']","[u'left', u'middle', u'right']","[0.9, 0.5, 0.1]","[u'low', u'medium', u'high']","black",51,"right","high","True","False",651,2100,NA
"AGNYQM1O874LT","Sat Oct 31 2020 17:10:15 GMT-0400 (Eastern Daylight Time)","Sat Oct 31 2020 21:02:27 GMT-0400 (Eastern Daylight Time)","Mozilla/5.0 (Windows NT 10.0; WOW64) AppleWebKit/537.36 (KHTML, like Gecko) Chrome/86.0.4240.111 Safari/537.36",73,"[0.9, 0.5, 0.1]","[0.8, 0.4, 0.2]","[u'red', u'blue', u'black']","[u'left', u'middle', u'right']","[0.9, 0.5, 0.1]","[u'low', u'medium', u'high']","blue",50,"middle","medium","True","False",564,2200,NA
"AGNYQM1O874LT","Sat Oct 31 2020 17:10:15 GMT-0400 (Eastern Daylight Time)","Sat Oct 31 2020 21:02:27 GMT-0400 (Eastern Daylight Time)","Mozilla/5.0 (Windows NT 10.0; WOW64) AppleWebKit/537.36 (KHTML, like Gecko) Chrome/86.0.4240.111 Safari/537.36",74,"[0.9, 0.5, 0.1]","[0.8, 0.4, 0.2]","[u'red', u'blue', u'black']","[u'left', u'middle', u'right']","[0.9, 0.5, 0.1]","[u'low', u'medium', u'high']","blue",50,"middle","medium","False","False",85,2150,NA
"AGNYQM1O874LT","Sat Oct 31 2020 17:10:15 GMT-0400 (Eastern Daylight Time)","Sat Oct 31 2020 21:02:27 GMT-0400 (Eastern Daylight Time)","Mozilla/5.0 (Windows NT 10.0; WOW64) AppleWebKit/537.36 (KHTML, like Gecko) Chrome/86.0.4240.111 Safari/537.36",75,"[0.9, 0.5, 0.1]","[0.8, 0.4, 0.2]","[u'red', u'blue', u'black']","[u'left', u'middle', u'right']","[0.9, 0.5, 0.1]","[u'low', u'medium', u'high']","black",51,"right","high","True","False",49,2250,NA
"AGNYQM1O874LT","Sat Oct 31 2020 17:10:15 GMT-0400 (Eastern Daylight Time)","Sat Oct 31 2020 21:02:27 GMT-0400 (Eastern Daylight Time)","Mozilla/5.0 (Windows NT 10.0; WOW64) AppleWebKit/537.36 (KHTML, like Gecko) Chrome/86.0.4240.111 Safari/537.36",76,"[0.9, 0.5, 0.1]","[0.8, 0.4, 0.2]","[u'red', u'blue', u'black']","[u'left', u'middle', u'right']","[0.9, 0.5, 0.1]","[u'low', u'medium', u'high']","black",51,"right","high","True","False",99,2350,NA
"AGNYQM1O874LT","Sat Oct 31 2020 17:10:15 GMT-0400 (Eastern Daylight Time)","Sat Oct 31 2020 21:02:27 GMT-0400 (Eastern Daylight Time)","Mozilla/5.0 (Windows NT 10.0; WOW64) AppleWebKit/537.36 (KHTML, like Gecko) Chrome/86.0.4240.111 Safari/537.36",77,"[0.9, 0.5, 0.1]","[0.8, 0.4, 0.2]","[u'red', u'blue', u'black']","[u'left', u'middle', u'right']","[0.9, 0.5, 0.1]","[u'low', u'medium', u'high']","black",51,"right","high","True","False",116,2450,NA
"AGNYQM1O874LT","Sat Oct 31 2020 17:10:15 GMT-0400 (Eastern Daylight Time)","Sat Oct 31 2020 21:02:27 GMT-0400 (Eastern Daylight Time)","Mozilla/5.0 (Windows NT 10.0; WOW64) AppleWebKit/537.36 (KHTML, like Gecko) Chrome/86.0.4240.111 Safari/537.36",78,"[0.9, 0.5, 0.1]","[0.8, 0.4, 0.2]","[u'red', u'blue', u'black']","[u'left', u'middle', u'right']","[0.9, 0.5, 0.1]","[u'low', u'medium', u'high']","black",51,"right","high","True","False",122,2550,NA
"AGNYQM1O874LT","Sat Oct 31 2020 17:10:15 GMT-0400 (Eastern Daylight Time)","Sat Oct 31 2020 21:02:27 GMT-0400 (Eastern Daylight Time)","Mozilla/5.0 (Windows NT 10.0; WOW64) AppleWebKit/537.36 (KHTML, like Gecko) Chrome/86.0.4240.111 Safari/537.36",79,"[0.9, 0.5, 0.1]","[0.8, 0.4, 0.2]","[u'red', u'blue', u'black']","[u'left', u'middle', u'right']","[0.9, 0.5, 0.1]","[u'low', u'medium', u'high']","black",51,"right","high","False","False",76,2500,NA
"AGNYQM1O874LT","Sat Oct 31 2020 17:10:15 GMT-0400 (Eastern Daylight Time)","Sat Oct 31 2020 21:02:27 GMT-0400 (Eastern Daylight Time)","Mozilla/5.0 (Windows NT 10.0; WOW64) AppleWebKit/537.36 (KHTML, like Gecko) Chrome/86.0.4240.111 Safari/537.36",80,"[0.9, 0.5, 0.1]","[0.8, 0.4, 0.2]","[u'red', u'blue', u'black']","[u'left', u'middle', u'right']","[0.9, 0.5, 0.1]","[u'low', u'medium', u'high']","black",51,"right","high","True","False",109,2600,NA
"AGNYQM1O874LT","Sat Oct 31 2020 17:10:15 GMT-0400 (Eastern Daylight Time)","Sat Oct 31 2020 21:02:27 GMT-0400 (Eastern Daylight Time)","Mozilla/5.0 (Windows NT 10.0; WOW64) AppleWebKit/537.36 (KHTML, like Gecko) Chrome/86.0.4240.111 Safari/537.36",81,"[0.9, 0.5, 0.1]","[0.8, 0.4, 0.2]","[u'red', u'blue', u'black']","[u'left', u'middle', u'right']","[0.8, 0.4, 0.2]","[u'high', u'medium', u'low']","blue",50,"middle","medium","True","False",482,2700,NA
"AGNYQM1O874LT","Sat Oct 31 2020 17:10:15 GMT-0400 (Eastern Daylight Time)","Sat Oct 31 2020 21:02:27 GMT-0400 (Eastern Daylight Time)","Mozilla/5.0 (Windows NT 10.0; WOW64) AppleWebKit/537.36 (KHTML, like Gecko) Chrome/86.0.4240.111 Safari/537.36",82,"[0.9, 0.5, 0.1]","[0.8, 0.4, 0.2]","[u'red', u'blue', u'black']","[u'left', u'middle', u'right']","[0.8, 0.4, 0.2]","[u'high', u'medium', u'low']","red",49,"left","high","True","False",8,2800,NA
"AGNYQM1O874LT","Sat Oct 31 2020 17:10:15 GMT-0400 (Eastern Daylight Time)","Sat Oct 31 2020 21:02:27 GMT-0400 (Eastern Daylight Time)","Mozilla/5.0 (Windows NT 10.0; WOW64) AppleWebKit/537.36 (KHTML, like Gecko) Chrome/86.0.4240.111 Safari/537.36",83,"[0.9, 0.5, 0.1]","[0.8, 0.4, 0.2]","[u'red', u'blue', u'black']","[u'left', u'middle', u'right']","[0.8, 0.4, 0.2]","[u'high', u'medium', u'low']","red",49,"left","high","True","False",798,2900,NA
"AGNYQM1O874LT","Sat Oct 31 2020 17:10:15 GMT-0400 (Eastern Daylight Time)","Sat Oct 31 2020 21:02:27 GMT-0400 (Eastern Daylight Time)","Mozilla/5.0 (Windows NT 10.0; WOW64) AppleWebKit/537.36 (KHTML, like Gecko) Chrome/86.0.4240.111 Safari/537.36",84,"[0.9, 0.5, 0.1]","[0.8, 0.4, 0.2]","[u'red', u'blue', u'black']","[u'left', u'middle', u'right']","[0.8, 0.4, 0.2]","[u'high', u'medium', u'low']","red",49,"left","high","True","False",462,3000,NA
"AGNYQM1O874LT","Sat Oct 31 2020 17:10:15 GMT-0400 (Eastern Daylight Time)","Sat Oct 31 2020 21:02:27 GMT-0400 (Eastern Daylight Time)","Mozilla/5.0 (Windows NT 10.0; WOW64) AppleWebKit/537.36 (KHTML, like Gecko) Chrome/86.0.4240.111 Safari/537.36",85,"[0.9, 0.5, 0.1]","[0.8, 0.4, 0.2]","[u'red', u'blue', u'black']","[u'left', u'middle', u'right']","[0.8, 0.4, 0.2]","[u'high', u'medium', u'low']","red",49,"left","high","True","False",380,3100,NA
"AGNYQM1O874LT","Sat Oct 31 2020 17:10:15 GMT-0400 (Eastern Daylight Time)","Sat Oct 31 2020 21:02:27 GMT-0400 (Eastern Daylight Time)","Mozilla/5.0 (Windows NT 10.0; WOW64) AppleWebKit/537.36 (KHTML, like Gecko) Chrome/86.0.4240.111 Safari/537.36",86,"[0.9, 0.5, 0.1]","[0.8, 0.4, 0.2]","[u'red', u'blue', u'black']","[u'left', u'middle', u'right']","[0.8, 0.4, 0.2]","[u'high', u'medium', u'low']","black",51,"right","low","False","False",32,3050,NA
"AGNYQM1O874LT","Sat Oct 31 2020 17:10:15 GMT-0400 (Eastern Daylight Time)","Sat Oct 31 2020 21:02:27 GMT-0400 (Eastern Daylight Time)","Mozilla/5.0 (Windows NT 10.0; WOW64) AppleWebKit/537.36 (KHTML, like Gecko) Chrome/86.0.4240.111 Safari/537.36",87,"[0.9, 0.5, 0.1]","[0.8, 0.4, 0.2]","[u'red', u'blue', u'black']","[u'left', u'middle', u'right']","[0.8, 0.4, 0.2]","[u'high', u'medium', u'low']","blue",50,"middle","medium","False","False",732,3000,NA
"AGNYQM1O874LT","Sat Oct 31 2020 17:10:15 GMT-0400 (Eastern Daylight Time)","Sat Oct 31 2020 21:02:27 GMT-0400 (Eastern Daylight Time)","Mozilla/5.0 (Windows NT 10.0; WOW64) AppleWebKit/537.36 (KHTML, like Gecko) Chrome/86.0.4240.111 Safari/537.36",88,"[0.9, 0.5, 0.1]","[0.8, 0.4, 0.2]","[u'red', u'blue', u'black']","[u'left', u'middle', u'right']","[0.8, 0.4, 0.2]","[u'high', u'medium', u'low']","red",49,"left","high","True","False",0,3100,NA
"AGNYQM1O874LT","Sat Oct 31 2020 17:10:15 GMT-0400 (Eastern Daylight Time)","Sat Oct 31 2020 21:02:27 GMT-0400 (Eastern Daylight Time)","Mozilla/5.0 (Windows NT 10.0; WOW64) AppleWebKit/537.36 (KHTML, like Gecko) Chrome/86.0.4240.111 Safari/537.36",89,"[0.9, 0.5, 0.1]","[0.8, 0.4, 0.2]","[u'red', u'blue', u'black']","[u'left', u'middle', u'right']","[0.8, 0.4, 0.2]","[u'high', u'medium', u'low']","red",49,"left","high","True","False",229,3200,NA
"AGNYQM1O874LT","Sat Oct 31 2020 17:10:15 GMT-0400 (Eastern Daylight Time)","Sat Oct 31 2020 21:02:27 GMT-0400 (Eastern Daylight Time)","Mozilla/5.0 (Windows NT 10.0; WOW64) AppleWebKit/537.36 (KHTML, like Gecko) Chrome/86.0.4240.111 Safari/537.36",90,"[0.9, 0.5, 0.1]","[0.8, 0.4, 0.2]","[u'red', u'blue', u'black']","[u'left', u'middle', u'right']","[0.8, 0.4, 0.2]","[u'high', u'medium', u'low']","red",49,"left","high","True","False",689,3300,NA
"AGNYQM1O874LT","Sat Oct 31 2020 17:10:15 GMT-0400 (Eastern Daylight Time)","Sat Oct 31 2020 21:02:27 GMT-0400 (Eastern Daylight Time)","Mozilla/5.0 (Windows NT 10.0; WOW64) AppleWebKit/537.36 (KHTML, like Gecko) Chrome/86.0.4240.111 Safari/537.36",91,"[0.9, 0.5, 0.1]","[0.8, 0.4, 0.2]","[u'red', u'blue', u'black']","[u'left', u'middle', u'right']","[0.8, 0.4, 0.2]","[u'high', u'medium', u'low']","red",49,"left","high","True","False",528,3400,NA
"AGNYQM1O874LT","Sat Oct 31 2020 17:10:15 GMT-0400 (Eastern Daylight Time)","Sat Oct 31 2020 21:02:27 GMT-0400 (Eastern Daylight Time)","Mozilla/5.0 (Windows NT 10.0; WOW64) AppleWebKit/537.36 (KHTML, like Gecko) Chrome/86.0.4240.111 Safari/537.36",92,"[0.9, 0.5, 0.1]","[0.8, 0.4, 0.2]","[u'red', u'blue', u'black']","[u'left', u'middle', u'right']","[0.8, 0.4, 0.2]","[u'high', u'medium', u'low']","red",49,"left","high","True","False",558,3500,NA
"AGNYQM1O874LT","Sat Oct 31 2020 17:10:15 GMT-0400 (Eastern Daylight Time)","Sat Oct 31 2020 21:02:27 GMT-0400 (Eastern Daylight Time)","Mozilla/5.0 (Windows NT 10.0; WOW64) AppleWebKit/537.36 (KHTML, like Gecko) Chrome/86.0.4240.111 Safari/537.36",93,"[0.9, 0.5, 0.1]","[0.8, 0.4, 0.2]","[u'red', u'blue', u'black']","[u'left', u'middle', u'right']","[0.8, 0.4, 0.2]","[u'high', u'medium', u'low']","red",49,"left","high","False","False",746,3450,NA
"AGNYQM1O874LT","Sat Oct 31 2020 17:10:15 GMT-0400 (Eastern Daylight Time)","Sat Oct 31 2020 21:02:27 GMT-0400 (Eastern Daylight Time)","Mozilla/5.0 (Windows NT 10.0; WOW64) AppleWebKit/537.36 (KHTML, like Gecko) Chrome/86.0.4240.111 Safari/537.36",94,"[0.9, 0.5, 0.1]","[0.8, 0.4, 0.2]","[u'red', u'blue', u'black']","[u'left', u'middle', u'right']","[0.8, 0.4, 0.2]","[u'high', u'medium', u'low']","black",51,"right","low","False","False",608,3400,NA
"AGNYQM1O874LT","Sat Oct 31 2020 17:10:15 GMT-0400 (Eastern Daylight Time)","Sat Oct 31 2020 21:02:27 GMT-0400 (Eastern Daylight Time)","Mozilla/5.0 (Windows NT 10.0; WOW64) AppleWebKit/537.36 (KHTML, like Gecko) Chrome/86.0.4240.111 Safari/537.36",95,"[0.9, 0.5, 0.1]","[0.8, 0.4, 0.2]","[u'red', u'blue', u'black']","[u'left', u'middle', u'right']","[0.8, 0.4, 0.2]","[u'high', u'medium', u'low']","blue",50,"middle","medium","True","False",45,3500,NA
"AGNYQM1O874LT","Sat Oct 31 2020 17:10:15 GMT-0400 (Eastern Daylight Time)","Sat Oct 31 2020 21:02:27 GMT-0400 (Eastern Daylight Time)","Mozilla/5.0 (Windows NT 10.0; WOW64) AppleWebKit/537.36 (KHTML, like Gecko) Chrome/86.0.4240.111 Safari/537.36",96,"[0.9, 0.5, 0.1]","[0.8, 0.4, 0.2]","[u'red', u'blue', u'black']","[u'left', u'middle', u'right']","[0.8, 0.4, 0.2]","[u'high', u'medium', u'low']","blue",50,"middle","medium","True","False",219,3600,NA
"AGNYQM1O874LT","Sat Oct 31 2020 17:10:15 GMT-0400 (Eastern Daylight Time)","Sat Oct 31 2020 21:02:27 GMT-0400 (Eastern Daylight Time)","Mozilla/5.0 (Windows NT 10.0; WOW64) AppleWebKit/537.36 (KHTML, like Gecko) Chrome/86.0.4240.111 Safari/537.36",97,"[0.9, 0.5, 0.1]","[0.8, 0.4, 0.2]","[u'red', u'blue', u'black']","[u'left', u'middle', u'right']","[0.8, 0.4, 0.2]","[u'high', u'medium', u'low']","blue",50,"middle","medium","False","False",601,3550,NA
"AGNYQM1O874LT","Sat Oct 31 2020 17:10:15 GMT-0400 (Eastern Daylight Time)","Sat Oct 31 2020 21:02:27 GMT-0400 (Eastern Daylight Time)","Mozilla/5.0 (Windows NT 10.0; WOW64) AppleWebKit/537.36 (KHTML, like Gecko) Chrome/86.0.4240.111 Safari/537.36",98,"[0.9, 0.5, 0.1]","[0.8, 0.4, 0.2]","[u'red', u'blue', u'black']","[u'left', u'middle', u'right']","[0.8, 0.4, 0.2]","[u'high', u'medium', u'low']","black",51,"right","low","True","False",589,3650,NA
"AGNYQM1O874LT","Sat Oct 31 2020 17:10:15 GMT-0400 (Eastern Daylight Time)","Sat Oct 31 2020 21:02:27 GMT-0400 (Eastern Daylight Time)","Mozilla/5.0 (Windows NT 10.0; WOW64) AppleWebKit/537.36 (KHTML, like Gecko) Chrome/86.0.4240.111 Safari/537.36",99,"[0.9, 0.5, 0.1]","[0.8, 0.4, 0.2]","[u'red', u'blue', u'black']","[u'left', u'middle', u'right']","[0.8, 0.4, 0.2]","[u'high', u'medium', u'low']","black",51,"right","low","False","False",587,3600,NA
"AGNYQM1O874LT","Sat Oct 31 2020 17:10:15 GMT-0400 (Eastern Daylight Time)","Sat Oct 31 2020 21:02:27 GMT-0400 (Eastern Daylight Time)","Mozilla/5.0 (Windows NT 10.0; WOW64) AppleWebKit/537.36 (KHTML, like Gecko) Chrome/86.0.4240.111 Safari/537.36",100,"[0.9, 0.5, 0.1]","[0.8, 0.4, 0.2]","[u'red', u'blue', u'black']","[u'left', u'middle', u'right']","[0.8, 0.4, 0.2]","[u'high', u'medium', u'low']","red",49,"left","high","True","False",551,3700,NA
"AGNYQM1O874LT","Sat Oct 31 2020 17:10:15 GMT-0400 (Eastern Daylight Time)","Sat Oct 31 2020 21:02:27 GMT-0400 (Eastern Daylight Time)","Mozilla/5.0 (Windows NT 10.0; WOW64) AppleWebKit/537.36 (KHTML, like Gecko) Chrome/86.0.4240.111 Safari/537.36",101,"[0.9, 0.5, 0.1]","[0.8, 0.4, 0.2]","[u'red', u'blue', u'black']","[u'left', u'middle', u'right']","[0.8, 0.4, 0.2]","[u'high', u'medium', u'low']","red",49,"left","high","False","False",7010,3650,NA
"AGNYQM1O874LT","Sat Oct 31 2020 17:10:15 GMT-0400 (Eastern Daylight Time)","Sat Oct 31 2020 21:02:27 GMT-0400 (Eastern Daylight Time)","Mozilla/5.0 (Windows NT 10.0; WOW64) AppleWebKit/537.36 (KHTML, like Gecko) Chrome/86.0.4240.111 Safari/537.36",102,"[0.9, 0.5, 0.1]","[0.8, 0.4, 0.2]","[u'red', u'blue', u'black']","[u'left', u'middle', u'right']","[0.8, 0.4, 0.2]","[u'high', u'medium', u'low']","red",49,"left","high","True","False",18472,3750,NA
"AGNYQM1O874LT","Sat Oct 31 2020 17:10:15 GMT-0400 (Eastern Daylight Time)","Sat Oct 31 2020 21:02:27 GMT-0400 (Eastern Daylight Time)","Mozilla/5.0 (Windows NT 10.0; WOW64) AppleWebKit/537.36 (KHTML, like Gecko) Chrome/86.0.4240.111 Safari/537.36",103,"[0.9, 0.5, 0.1]","[0.8, 0.4, 0.2]","[u'red', u'blue', u'black']","[u'left', u'middle', u'right']","[0.8, 0.4, 0.2]","[u'high', u'medium', u'low']","red",49,"left","high","True","False",590,3850,NA
"AGNYQM1O874LT","Sat Oct 31 2020 17:10:15 GMT-0400 (Eastern Daylight Time)","Sat Oct 31 2020 21:02:27 GMT-0400 (Eastern Daylight Time)","Mozilla/5.0 (Windows NT 10.0; WOW64) AppleWebKit/537.36 (KHTML, like Gecko) Chrome/86.0.4240.111 Safari/537.36",104,"[0.9, 0.5, 0.1]","[0.8, 0.4, 0.2]","[u'red', u'blue', u'black']","[u'left', u'middle', u'right']","[0.8, 0.4, 0.2]","[u'high', u'medium', u'low']","red",49,"left","high","True","False",679,3950,NA
"AGNYQM1O874LT","Sat Oct 31 2020 17:10:15 GMT-0400 (Eastern Daylight Time)","Sat Oct 31 2020 21:02:27 GMT-0400 (Eastern Daylight Time)","Mozilla/5.0 (Windows NT 10.0; WOW64) AppleWebKit/537.36 (KHTML, like Gecko) Chrome/86.0.4240.111 Safari/537.36",105,"[0.9, 0.5, 0.1]","[0.8, 0.4, 0.2]","[u'red', u'blue', u'black']","[u'left', u'middle', u'right']","[0.8, 0.4, 0.2]","[u'high', u'medium', u'low']","red",49,"left","high","False","False",533,3900,NA
"AGNYQM1O874LT","Sat Oct 31 2020 17:10:15 GMT-0400 (Eastern Daylight Time)","Sat Oct 31 2020 21:02:27 GMT-0400 (Eastern Daylight Time)","Mozilla/5.0 (Windows NT 10.0; WOW64) AppleWebKit/537.36 (KHTML, like Gecko) Chrome/86.0.4240.111 Safari/537.36",106,"[0.9, 0.5, 0.1]","[0.8, 0.4, 0.2]","[u'red', u'blue', u'black']","[u'left', u'middle', u'right']","[0.8, 0.4, 0.2]","[u'high', u'medium', u'low']","blue",50,"middle","medium","True","False",160,4000,NA
"AGNYQM1O874LT","Sat Oct 31 2020 17:10:15 GMT-0400 (Eastern Daylight Time)","Sat Oct 31 2020 21:02:27 GMT-0400 (Eastern Daylight Time)","Mozilla/5.0 (Windows NT 10.0; WOW64) AppleWebKit/537.36 (KHTML, like Gecko) Chrome/86.0.4240.111 Safari/537.36",107,"[0.9, 0.5, 0.1]","[0.8, 0.4, 0.2]","[u'red', u'blue', u'black']","[u'left', u'middle', u'right']","[0.8, 0.4, 0.2]","[u'high', u'medium', u'low']","red",49,"left","high","True","False",22860,4100,NA
"AGNYQM1O874LT","Sat Oct 31 2020 17:10:15 GMT-0400 (Eastern Daylight Time)","Sat Oct 31 2020 21:02:27 GMT-0400 (Eastern Daylight Time)","Mozilla/5.0 (Windows NT 10.0; WOW64) AppleWebKit/537.36 (KHTML, like Gecko) Chrome/86.0.4240.111 Safari/537.36",108,"[0.9, 0.5, 0.1]","[0.8, 0.4, 0.2]","[u'red', u'blue', u'black']","[u'left', u'middle', u'right']","[0.8, 0.4, 0.2]","[u'high', u'medium', u'low']","red",49,"left","high","True","False",6875,4200,NA
"AGNYQM1O874LT","Sat Oct 31 2020 17:10:15 GMT-0400 (Eastern Daylight Time)","Sat Oct 31 2020 21:02:27 GMT-0400 (Eastern Daylight Time)","Mozilla/5.0 (Windows NT 10.0; WOW64) AppleWebKit/537.36 (KHTML, like Gecko) Chrome/86.0.4240.111 Safari/537.36",109,"[0.9, 0.5, 0.1]","[0.8, 0.4, 0.2]","[u'red', u'blue', u'black']","[u'left', u'middle', u'right']","[0.8, 0.4, 0.2]","[u'high', u'medium', u'low']","red",49,"left","high","False","True",259,4150,NA
"AGNYQM1O874LT","Sat Oct 31 2020 17:10:15 GMT-0400 (Eastern Daylight Time)","Sat Oct 31 2020 21:02:27 GMT-0400 (Eastern Daylight Time)","Mozilla/5.0 (Windows NT 10.0; WOW64) AppleWebKit/537.36 (KHTML, like Gecko) Chrome/86.0.4240.111 Safari/537.36",110,"[0.9, 0.5, 0.1]","[0.8, 0.4, 0.2]","[u'red', u'blue', u'black']","[u'left', u'middle', u'right']","[0.8, 0.4, 0.2]","[u'low', u'medium', u'high']","red",49,"left","low","False","False",4007,4100,NA
"AGNYQM1O874LT","Sat Oct 31 2020 17:10:15 GMT-0400 (Eastern Daylight Time)","Sat Oct 31 2020 21:02:27 GMT-0400 (Eastern Daylight Time)","Mozilla/5.0 (Windows NT 10.0; WOW64) AppleWebKit/537.36 (KHTML, like Gecko) Chrome/86.0.4240.111 Safari/537.36",111,"[0.9, 0.5, 0.1]","[0.8, 0.4, 0.2]","[u'red', u'blue', u'black']","[u'left', u'middle', u'right']","[0.8, 0.4, 0.2]","[u'low', u'medium', u'high']","red",49,"left","low","False","False",3783,4050,NA
"AGNYQM1O874LT","Sat Oct 31 2020 17:10:15 GMT-0400 (Eastern Daylight Time)","Sat Oct 31 2020 21:02:27 GMT-0400 (Eastern Daylight Time)","Mozilla/5.0 (Windows NT 10.0; WOW64) AppleWebKit/537.36 (KHTML, like Gecko) Chrome/86.0.4240.111 Safari/537.36",112,"[0.9, 0.5, 0.1]","[0.8, 0.4, 0.2]","[u'red', u'blue', u'black']","[u'left', u'middle', u'right']","[0.8, 0.4, 0.2]","[u'low', u'medium', u'high']","red",49,"left","low","False","False",2208,4000,NA
"AGNYQM1O874LT","Sat Oct 31 2020 17:10:15 GMT-0400 (Eastern Daylight Time)","Sat Oct 31 2020 21:02:27 GMT-0400 (Eastern Daylight Time)","Mozilla/5.0 (Windows NT 10.0; WOW64) AppleWebKit/537.36 (KHTML, like Gecko) Chrome/86.0.4240.111 Safari/537.36",113,"[0.9, 0.5, 0.1]","[0.8, 0.4, 0.2]","[u'red', u'blue', u'black']","[u'left', u'middle', u'right']","[0.8, 0.4, 0.2]","[u'low', u'medium', u'high']","red",49,"left","low","False","False",1446,3950,NA
"AGNYQM1O874LT","Sat Oct 31 2020 17:10:15 GMT-0400 (Eastern Daylight Time)","Sat Oct 31 2020 21:02:27 GMT-0400 (Eastern Daylight Time)","Mozilla/5.0 (Windows NT 10.0; WOW64) AppleWebKit/537.36 (KHTML, like Gecko) Chrome/86.0.4240.111 Safari/537.36",114,"[0.9, 0.5, 0.1]","[0.8, 0.4, 0.2]","[u'red', u'blue', u'black']","[u'left', u'middle', u'right']","[0.8, 0.4, 0.2]","[u'low', u'medium', u'high']","red",49,"left","low","False","False",1719,3900,NA
"AGNYQM1O874LT","Sat Oct 31 2020 17:10:15 GMT-0400 (Eastern Daylight Time)","Sat Oct 31 2020 21:02:27 GMT-0400 (Eastern Daylight Time)","Mozilla/5.0 (Windows NT 10.0; WOW64) AppleWebKit/537.36 (KHTML, like Gecko) Chrome/86.0.4240.111 Safari/537.36",115,"[0.9, 0.5, 0.1]","[0.8, 0.4, 0.2]","[u'red', u'blue', u'black']","[u'left', u'middle', u'right']","[0.8, 0.4, 0.2]","[u'low', u'medium', u'high']","red",49,"left","low","False","False",60880,3850,NA
"AGNYQM1O874LT","Sat Oct 31 2020 17:10:15 GMT-0400 (Eastern Daylight Time)","Sat Oct 31 2020 21:02:27 GMT-0400 (Eastern Daylight Time)","Mozilla/5.0 (Windows NT 10.0; WOW64) AppleWebKit/537.36 (KHTML, like Gecko) Chrome/86.0.4240.111 Safari/537.36",116,"[0.9, 0.5, 0.1]","[0.8, 0.4, 0.2]","[u'red', u'blue', u'black']","[u'left', u'middle', u'right']","[0.8, 0.4, 0.2]","[u'low', u'medium', u'high']","red",49,"left","low","False","False",4198,3800,NA
"AGNYQM1O874LT","Sat Oct 31 2020 17:10:15 GMT-0400 (Eastern Daylight Time)","Sat Oct 31 2020 21:02:27 GMT-0400 (Eastern Daylight Time)","Mozilla/5.0 (Windows NT 10.0; WOW64) AppleWebKit/537.36 (KHTML, like Gecko) Chrome/86.0.4240.111 Safari/537.36",117,"[0.9, 0.5, 0.1]","[0.8, 0.4, 0.2]","[u'red', u'blue', u'black']","[u'left', u'middle', u'right']","[0.8, 0.4, 0.2]","[u'low', u'medium', u'high']","red",49,"left","low","True","False",27667,3900,NA
"AGNYQM1O874LT","Sat Oct 31 2020 17:10:15 GMT-0400 (Eastern Daylight Time)","Sat Oct 31 2020 21:02:27 GMT-0400 (Eastern Daylight Time)","Mozilla/5.0 (Windows NT 10.0; WOW64) AppleWebKit/537.36 (KHTML, like Gecko) Chrome/86.0.4240.111 Safari/537.36",118,"[0.9, 0.5, 0.1]","[0.8, 0.4, 0.2]","[u'red', u'blue', u'black']","[u'left', u'middle', u'right']","[0.8, 0.4, 0.2]","[u'low', u'medium', u'high']","red",49,"left","low","False","False",3297,3850,NA
"AGNYQM1O874LT","Sat Oct 31 2020 17:10:15 GMT-0400 (Eastern Daylight Time)","Sat Oct 31 2020 21:02:27 GMT-0400 (Eastern Daylight Time)","Mozilla/5.0 (Windows NT 10.0; WOW64) AppleWebKit/537.36 (KHTML, like Gecko) Chrome/86.0.4240.111 Safari/537.36",119,"[0.9, 0.5, 0.1]","[0.8, 0.4, 0.2]","[u'red', u'blue', u'black']","[u'left', u'middle', u'right']","[0.8, 0.4, 0.2]","[u'low', u'medium', u'high']","red",49,"left","low","False","False",12247,3800,NA
"AGNYQM1O874LT","Sat Oct 31 2020 17:10:15 GMT-0400 (Eastern Daylight Time)","Sat Oct 31 2020 21:02:27 GMT-0400 (Eastern Daylight Time)","Mozilla/5.0 (Windows NT 10.0; WOW64) AppleWebKit/537.36 (KHTML, like Gecko) Chrome/86.0.4240.111 Safari/537.36",120,"[0.9, 0.5, 0.1]","[0.8, 0.4, 0.2]","[u'red', u'blue', u'black']","[u'left', u'middle', u'right']","[0.8, 0.4, 0.2]","[u'low', u'medium', u'high']","red",49,"left","low","False","False",26549,3750,NA
"AGNYQM1O874LT","Sat Oct 31 2020 17:10:15 GMT-0400 (Eastern Daylight Time)","Sat Oct 31 2020 21:02:27 GMT-0400 (Eastern Daylight Time)","Mozilla/5.0 (Windows NT 10.0; WOW64) AppleWebKit/537.36 (KHTML, like Gecko) Chrome/86.0.4240.111 Safari/537.36",121,"[0.9, 0.5, 0.1]","[0.8, 0.4, 0.2]","[u'red', u'blue', u'black']","[u'left', u'middle', u'right']","[0.8, 0.4, 0.2]","[u'medium', u'high', u'low']","red",49,"left","medium","False","False",13043,3700,NA
"AGNYQM1O874LT","Sat Oct 31 2020 17:10:15 GMT-0400 (Eastern Daylight Time)","Sat Oct 31 2020 21:02:27 GMT-0400 (Eastern Daylight Time)","Mozilla/5.0 (Windows NT 10.0; WOW64) AppleWebKit/537.36 (KHTML, like Gecko) Chrome/86.0.4240.111 Safari/537.36",122,"[0.9, 0.5, 0.1]","[0.8, 0.4, 0.2]","[u'red', u'blue', u'black']","[u'left', u'middle', u'right']","[0.8, 0.4, 0.2]","[u'medium', u'high', u'low']","blue",50,"middle","high","False","False",259,3650,NA
"AGNYQM1O874LT","Sat Oct 31 2020 17:10:15 GMT-0400 (Eastern Daylight Time)","Sat Oct 31 2020 21:02:27 GMT-0400 (Eastern Daylight Time)","Mozilla/5.0 (Windows NT 10.0; WOW64) AppleWebKit/537.36 (KHTML, like Gecko) Chrome/86.0.4240.111 Safari/537.36",123,"[0.9, 0.5, 0.1]","[0.8, 0.4, 0.2]","[u'red', u'blue', u'black']","[u'left', u'middle', u'right']","[0.8, 0.4, 0.2]","[u'medium', u'high', u'low']","red",49,"left","medium","True","False",1007,3750,NA
"AGNYQM1O874LT","Sat Oct 31 2020 17:10:15 GMT-0400 (Eastern Daylight Time)","Sat Oct 31 2020 21:02:27 GMT-0400 (Eastern Daylight Time)","Mozilla/5.0 (Windows NT 10.0; WOW64) AppleWebKit/537.36 (KHTML, like Gecko) Chrome/86.0.4240.111 Safari/537.36",124,"[0.9, 0.5, 0.1]","[0.8, 0.4, 0.2]","[u'red', u'blue', u'black']","[u'left', u'middle', u'right']","[0.8, 0.4, 0.2]","[u'medium', u'high', u'low']","blue",50,"middle","high","False","False",101,3700,NA
"AGNYQM1O874LT","Sat Oct 31 2020 17:10:15 GMT-0400 (Eastern Daylight Time)","Sat Oct 31 2020 21:02:27 GMT-0400 (Eastern Daylight Time)","Mozilla/5.0 (Windows NT 10.0; WOW64) AppleWebKit/537.36 (KHTML, like Gecko) Chrome/86.0.4240.111 Safari/537.36",125,"[0.9, 0.5, 0.1]","[0.8, 0.4, 0.2]","[u'red', u'blue', u'black']","[u'left', u'middle', u'right']","[0.8, 0.4, 0.2]","[u'medium', u'high', u'low']","red",49,"left","medium","False","False",169,3650,NA
"AGNYQM1O874LT","Sat Oct 31 2020 17:10:15 GMT-0400 (Eastern Daylight Time)","Sat Oct 31 2020 21:02:27 GMT-0400 (Eastern Daylight Time)","Mozilla/5.0 (Windows NT 10.0; WOW64) AppleWebKit/537.36 (KHTML, like Gecko) Chrome/86.0.4240.111 Safari/537.36",126,"[0.9, 0.5, 0.1]","[0.8, 0.4, 0.2]","[u'red', u'blue', u'black']","[u'left', u'middle', u'right']","[0.8, 0.4, 0.2]","[u'medium', u'high', u'low']","black",51,"right","low","False","False",945,3600,NA
"AGNYQM1O874LT","Sat Oct 31 2020 17:10:15 GMT-0400 (Eastern Daylight Time)","Sat Oct 31 2020 21:02:27 GMT-0400 (Eastern Daylight Time)","Mozilla/5.0 (Windows NT 10.0; WOW64) AppleWebKit/537.36 (KHTML, like Gecko) Chrome/86.0.4240.111 Safari/537.36",127,"[0.9, 0.5, 0.1]","[0.8, 0.4, 0.2]","[u'red', u'blue', u'black']","[u'left', u'middle', u'right']","[0.8, 0.4, 0.2]","[u'medium', u'high', u'low']","red",49,"left","medium","False","False",1022,3550,NA
"AGNYQM1O874LT","Sat Oct 31 2020 17:10:15 GMT-0400 (Eastern Daylight Time)","Sat Oct 31 2020 21:02:27 GMT-0400 (Eastern Daylight Time)","Mozilla/5.0 (Windows NT 10.0; WOW64) AppleWebKit/537.36 (KHTML, like Gecko) Chrome/86.0.4240.111 Safari/537.36",128,"[0.9, 0.5, 0.1]","[0.8, 0.4, 0.2]","[u'red', u'blue', u'black']","[u'left', u'middle', u'right']","[0.8, 0.4, 0.2]","[u'medium', u'high', u'low']","blue",50,"middle","high","True","False",266,3650,NA
"AGNYQM1O874LT","Sat Oct 31 2020 17:10:15 GMT-0400 (Eastern Daylight Time)","Sat Oct 31 2020 21:02:27 GMT-0400 (Eastern Daylight Time)","Mozilla/5.0 (Windows NT 10.0; WOW64) AppleWebKit/537.36 (KHTML, like Gecko) Chrome/86.0.4240.111 Safari/537.36",129,"[0.9, 0.5, 0.1]","[0.8, 0.4, 0.2]","[u'red', u'blue', u'black']","[u'left', u'middle', u'right']","[0.8, 0.4, 0.2]","[u'medium', u'high', u'low']","blue",50,"middle","high","True","False",263,3750,NA
"AGNYQM1O874LT","Sat Oct 31 2020 17:10:15 GMT-0400 (Eastern Daylight Time)","Sat Oct 31 2020 21:02:27 GMT-0400 (Eastern Daylight Time)","Mozilla/5.0 (Windows NT 10.0; WOW64) AppleWebKit/537.36 (KHTML, like Gecko) Chrome/86.0.4240.111 Safari/537.36",130,"[0.9, 0.5, 0.1]","[0.8, 0.4, 0.2]","[u'red', u'blue', u'black']","[u'left', u'middle', u'right']","[0.8, 0.4, 0.2]","[u'medium', u'high', u'low']","blue",50,"middle","high","True","False",728,3850,NA
"AGNYQM1O874LT","Sat Oct 31 2020 17:10:15 GMT-0400 (Eastern Daylight Time)","Sat Oct 31 2020 21:02:27 GMT-0400 (Eastern Daylight Time)","Mozilla/5.0 (Windows NT 10.0; WOW64) AppleWebKit/537.36 (KHTML, like Gecko) Chrome/86.0.4240.111 Safari/537.36",131,"[0.9, 0.5, 0.1]","[0.8, 0.4, 0.2]","[u'red', u'blue', u'black']","[u'left', u'middle', u'right']","[0.8, 0.4, 0.2]","[u'medium', u'high', u'low']","blue",50,"middle","high","True","False",63,3950,NA
"AGNYQM1O874LT","Sat Oct 31 2020 17:10:15 GMT-0400 (Eastern Daylight Time)","Sat Oct 31 2020 21:02:27 GMT-0400 (Eastern Daylight Time)","Mozilla/5.0 (Windows NT 10.0; WOW64) AppleWebKit/537.36 (KHTML, like Gecko) Chrome/86.0.4240.111 Safari/537.36",132,"[0.9, 0.5, 0.1]","[0.8, 0.4, 0.2]","[u'red', u'blue', u'black']","[u'left', u'middle', u'right']","[0.8, 0.4, 0.2]","[u'medium', u'high', u'low']","blue",50,"middle","high","False","False",91,3900,NA
"AGNYQM1O874LT","Sat Oct 31 2020 17:10:15 GMT-0400 (Eastern Daylight Time)","Sat Oct 31 2020 21:02:27 GMT-0400 (Eastern Daylight Time)","Mozilla/5.0 (Windows NT 10.0; WOW64) AppleWebKit/537.36 (KHTML, like Gecko) Chrome/86.0.4240.111 Safari/537.36",133,"[0.9, 0.5, 0.1]","[0.8, 0.4, 0.2]","[u'red', u'blue', u'black']","[u'left', u'middle', u'right']","[0.8, 0.4, 0.2]","[u'medium', u'high', u'low']","red",49,"left","medium","False","False",252,3850,NA
"AGNYQM1O874LT","Sat Oct 31 2020 17:10:15 GMT-0400 (Eastern Daylight Time)","Sat Oct 31 2020 21:02:27 GMT-0400 (Eastern Daylight Time)","Mozilla/5.0 (Windows NT 10.0; WOW64) AppleWebKit/537.36 (KHTML, like Gecko) Chrome/86.0.4240.111 Safari/537.36",134,"[0.9, 0.5, 0.1]","[0.8, 0.4, 0.2]","[u'red', u'blue', u'black']","[u'left', u'middle', u'right']","[0.8, 0.4, 0.2]","[u'medium', u'high', u'low']","black",51,"right","low","False","False",1176,3800,NA
"AGNYQM1O874LT","Sat Oct 31 2020 17:10:15 GMT-0400 (Eastern Daylight Time)","Sat Oct 31 2020 21:02:27 GMT-0400 (Eastern Daylight Time)","Mozilla/5.0 (Windows NT 10.0; WOW64) AppleWebKit/537.36 (KHTML, like Gecko) Chrome/86.0.4240.111 Safari/537.36",135,"[0.9, 0.5, 0.1]","[0.8, 0.4, 0.2]","[u'red', u'blue', u'black']","[u'left', u'middle', u'right']","[0.8, 0.4, 0.2]","[u'medium', u'high', u'low']","blue",50,"middle","high","True","False",100,3900,NA
"AGNYQM1O874LT","Sat Oct 31 2020 17:10:15 GMT-0400 (Eastern Daylight Time)","Sat Oct 31 2020 21:02:27 GMT-0400 (Eastern Daylight Time)","Mozilla/5.0 (Windows NT 10.0; WOW64) AppleWebKit/537.36 (KHTML, like Gecko) Chrome/86.0.4240.111 Safari/537.36",136,"[0.9, 0.5, 0.1]","[0.8, 0.4, 0.2]","[u'red', u'blue', u'black']","[u'left', u'middle', u'right']","[0.8, 0.4, 0.2]","[u'medium', u'high', u'low']","blue",50,"middle","high","True","False",481,4000,NA
"AGNYQM1O874LT","Sat Oct 31 2020 17:10:15 GMT-0400 (Eastern Daylight Time)","Sat Oct 31 2020 21:02:27 GMT-0400 (Eastern Daylight Time)","Mozilla/5.0 (Windows NT 10.0; WOW64) AppleWebKit/537.36 (KHTML, like Gecko) Chrome/86.0.4240.111 Safari/537.36",137,"[0.9, 0.5, 0.1]","[0.8, 0.4, 0.2]","[u'red', u'blue', u'black']","[u'left', u'middle', u'right']","[0.8, 0.4, 0.2]","[u'medium', u'high', u'low']","blue",50,"middle","high","True","False",16,4100,NA
"AGNYQM1O874LT","Sat Oct 31 2020 17:10:15 GMT-0400 (Eastern Daylight Time)","Sat Oct 31 2020 21:02:27 GMT-0400 (Eastern Daylight Time)","Mozilla/5.0 (Windows NT 10.0; WOW64) AppleWebKit/537.36 (KHTML, like Gecko) Chrome/86.0.4240.111 Safari/537.36",138,"[0.9, 0.5, 0.1]","[0.8, 0.4, 0.2]","[u'red', u'blue', u'black']","[u'left', u'middle', u'right']","[0.8, 0.4, 0.2]","[u'medium', u'high', u'low']","blue",50,"middle","high","True","False",861,4200,NA
"AGNYQM1O874LT","Sat Oct 31 2020 17:10:15 GMT-0400 (Eastern Daylight Time)","Sat Oct 31 2020 21:02:27 GMT-0400 (Eastern Daylight Time)","Mozilla/5.0 (Windows NT 10.0; WOW64) AppleWebKit/537.36 (KHTML, like Gecko) Chrome/86.0.4240.111 Safari/537.36",139,"[0.9, 0.5, 0.1]","[0.8, 0.4, 0.2]","[u'red', u'blue', u'black']","[u'left', u'middle', u'right']","[0.8, 0.4, 0.2]","[u'medium', u'high', u'low']","blue",50,"middle","high","True","False",773,4300,NA
"AGNYQM1O874LT","Sat Oct 31 2020 17:10:15 GMT-0400 (Eastern Daylight Time)","Sat Oct 31 2020 21:02:27 GMT-0400 (Eastern Daylight Time)","Mozilla/5.0 (Windows NT 10.0; WOW64) AppleWebKit/537.36 (KHTML, like Gecko) Chrome/86.0.4240.111 Safari/537.36",140,"[0.9, 0.5, 0.1]","[0.8, 0.4, 0.2]","[u'red', u'blue', u'black']","[u'left', u'middle', u'right']","[0.8, 0.4, 0.2]","[u'medium', u'high', u'low']","blue",50,"middle","high","True","False",209,4400,NA
"AGNYQM1O874LT","Sat Oct 31 2020 17:10:15 GMT-0400 (Eastern Daylight Time)","Sat Oct 31 2020 21:02:27 GMT-0400 (Eastern Daylight Time)","Mozilla/5.0 (Windows NT 10.0; WOW64) AppleWebKit/537.36 (KHTML, like Gecko) Chrome/86.0.4240.111 Safari/537.36",141,"[0.9, 0.5, 0.1]","[0.8, 0.4, 0.2]","[u'red', u'blue', u'black']","[u'left', u'middle', u'right']","[0.8, 0.4, 0.2]","[u'medium', u'high', u'low']","blue",50,"middle","high","True","False",430,4500,NA
"AGNYQM1O874LT","Sat Oct 31 2020 17:10:15 GMT-0400 (Eastern Daylight Time)","Sat Oct 31 2020 21:02:27 GMT-0400 (Eastern Daylight Time)","Mozilla/5.0 (Windows NT 10.0; WOW64) AppleWebKit/537.36 (KHTML, like Gecko) Chrome/86.0.4240.111 Safari/537.36",142,"[0.9, 0.5, 0.1]","[0.8, 0.4, 0.2]","[u'red', u'blue', u'black']","[u'left', u'middle', u'right']","[0.8, 0.4, 0.2]","[u'medium', u'high', u'low']","blue",50,"middle","high","True","False",209,4600,NA
"AGNYQM1O874LT","Sat Oct 31 2020 17:10:15 GMT-0400 (Eastern Daylight Time)","Sat Oct 31 2020 21:02:27 GMT-0400 (Eastern Daylight Time)","Mozilla/5.0 (Windows NT 10.0; WOW64) AppleWebKit/537.36 (KHTML, like Gecko) Chrome/86.0.4240.111 Safari/537.36",143,"[0.9, 0.5, 0.1]","[0.8, 0.4, 0.2]","[u'red', u'blue', u'black']","[u'left', u'middle', u'right']","[0.8, 0.4, 0.2]","[u'medium', u'high', u'low']","blue",50,"middle","high","True","True",64,4700,NA
"AGNYQM1O874LT","Sat Oct 31 2020 17:10:15 GMT-0400 (Eastern Daylight Time)","Sat Oct 31 2020 21:02:27 GMT-0400 (Eastern Daylight Time)","Mozilla/5.0 (Windows NT 10.0; WOW64) AppleWebKit/537.36 (KHTML, like Gecko) Chrome/86.0.4240.111 Safari/537.36",144,"[0.9, 0.5, 0.1]","[0.8, 0.4, 0.2]","[u'red', u'blue', u'black']","[u'left', u'middle', u'right']","[0.8, 0.4, 0.2]","[u'medium', u'low', u'high']","blue",50,"middle","low","False","False",93,4650,NA
"AGNYQM1O874LT","Sat Oct 31 2020 17:10:15 GMT-0400 (Eastern Daylight Time)","Sat Oct 31 2020 21:02:27 GMT-0400 (Eastern Daylight Time)","Mozilla/5.0 (Windows NT 10.0; WOW64) AppleWebKit/537.36 (KHTML, like Gecko) Chrome/86.0.4240.111 Safari/537.36",145,"[0.9, 0.5, 0.1]","[0.8, 0.4, 0.2]","[u'red', u'blue', u'black']","[u'left', u'middle', u'right']","[0.8, 0.4, 0.2]","[u'medium', u'low', u'high']","blue",50,"middle","low","False","False",527,4600,NA
"AGNYQM1O874LT","Sat Oct 31 2020 17:10:15 GMT-0400 (Eastern Daylight Time)","Sat Oct 31 2020 21:02:27 GMT-0400 (Eastern Daylight Time)","Mozilla/5.0 (Windows NT 10.0; WOW64) AppleWebKit/537.36 (KHTML, like Gecko) Chrome/86.0.4240.111 Safari/537.36",146,"[0.9, 0.5, 0.1]","[0.8, 0.4, 0.2]","[u'red', u'blue', u'black']","[u'left', u'middle', u'right']","[0.8, 0.4, 0.2]","[u'medium', u'low', u'high']","red",49,"left","medium","True","False",314,4700,NA
"AGNYQM1O874LT","Sat Oct 31 2020 17:10:15 GMT-0400 (Eastern Daylight Time)","Sat Oct 31 2020 21:02:27 GMT-0400 (Eastern Daylight Time)","Mozilla/5.0 (Windows NT 10.0; WOW64) AppleWebKit/537.36 (KHTML, like Gecko) Chrome/86.0.4240.111 Safari/537.36",147,"[0.9, 0.5, 0.1]","[0.8, 0.4, 0.2]","[u'red', u'blue', u'black']","[u'left', u'middle', u'right']","[0.8, 0.4, 0.2]","[u'medium', u'low', u'high']","red",49,"left","medium","False","False",307,4650,NA
"AGNYQM1O874LT","Sat Oct 31 2020 17:10:15 GMT-0400 (Eastern Daylight Time)","Sat Oct 31 2020 21:02:27 GMT-0400 (Eastern Daylight Time)","Mozilla/5.0 (Windows NT 10.0; WOW64) AppleWebKit/537.36 (KHTML, like Gecko) Chrome/86.0.4240.111 Safari/537.36",148,"[0.9, 0.5, 0.1]","[0.8, 0.4, 0.2]","[u'red', u'blue', u'black']","[u'left', u'middle', u'right']","[0.8, 0.4, 0.2]","[u'medium', u'low', u'high']","red",49,"left","medium","False","False",68,4600,NA
"AGNYQM1O874LT","Sat Oct 31 2020 17:10:15 GMT-0400 (Eastern Daylight Time)","Sat Oct 31 2020 21:02:27 GMT-0400 (Eastern Daylight Time)","Mozilla/5.0 (Windows NT 10.0; WOW64) AppleWebKit/537.36 (KHTML, like Gecko) Chrome/86.0.4240.111 Safari/537.36",149,"[0.9, 0.5, 0.1]","[0.8, 0.4, 0.2]","[u'red', u'blue', u'black']","[u'left', u'middle', u'right']","[0.8, 0.4, 0.2]","[u'medium', u'low', u'high']","black",51,"right","high","True","False",59,4700,NA
"AGNYQM1O874LT","Sat Oct 31 2020 17:10:15 GMT-0400 (Eastern Daylight Time)","Sat Oct 31 2020 21:02:27 GMT-0400 (Eastern Daylight Time)","Mozilla/5.0 (Windows NT 10.0; WOW64) AppleWebKit/537.36 (KHTML, like Gecko) Chrome/86.0.4240.111 Safari/537.36",150,"[0.9, 0.5, 0.1]","[0.8, 0.4, 0.2]","[u'red', u'blue', u'black']","[u'left', u'middle', u'right']","[0.8, 0.4, 0.2]","[u'medium', u'low', u'high']","black",51,"right","high","True","False",64,4800,NA
"AGNYQM1O874LT","Sat Oct 31 2020 17:10:15 GMT-0400 (Eastern Daylight Time)","Sat Oct 31 2020 21:02:27 GMT-0400 (Eastern Daylight Time)","Mozilla/5.0 (Windows NT 10.0; WOW64) AppleWebKit/537.36 (KHTML, like Gecko) Chrome/86.0.4240.111 Safari/537.36",151,"[0.9, 0.5, 0.1]","[0.8, 0.4, 0.2]","[u'red', u'blue', u'black']","[u'left', u'middle', u'right']","[0.8, 0.4, 0.2]","[u'medium', u'low', u'high']","black",51,"right","high","True","False",74,4900,NA
"AGNYQM1O874LT","Sat Oct 31 2020 17:10:15 GMT-0400 (Eastern Daylight Time)","Sat Oct 31 2020 21:02:27 GMT-0400 (Eastern Daylight Time)","Mozilla/5.0 (Windows NT 10.0; WOW64) AppleWebKit/537.36 (KHTML, like Gecko) Chrome/86.0.4240.111 Safari/537.36",152,"[0.9, 0.5, 0.1]","[0.8, 0.4, 0.2]","[u'red', u'blue', u'black']","[u'left', u'middle', u'right']","[0.8, 0.4, 0.2]","[u'medium', u'low', u'high']","black",51,"right","high","True","False",64,5000,NA
"AGNYQM1O874LT","Sat Oct 31 2020 17:10:15 GMT-0400 (Eastern Daylight Time)","Sat Oct 31 2020 21:02:27 GMT-0400 (Eastern Daylight Time)","Mozilla/5.0 (Windows NT 10.0; WOW64) AppleWebKit/537.36 (KHTML, like Gecko) Chrome/86.0.4240.111 Safari/537.36",153,"[0.9, 0.5, 0.1]","[0.8, 0.4, 0.2]","[u'red', u'blue', u'black']","[u'left', u'middle', u'right']","[0.8, 0.4, 0.2]","[u'medium', u'low', u'high']","black",51,"right","high","False","False",569,4950,NA
"AGNYQM1O874LT","Sat Oct 31 2020 17:10:15 GMT-0400 (Eastern Daylight Time)","Sat Oct 31 2020 21:02:27 GMT-0400 (Eastern Daylight Time)","Mozilla/5.0 (Windows NT 10.0; WOW64) AppleWebKit/537.36 (KHTML, like Gecko) Chrome/86.0.4240.111 Safari/537.36",154,"[0.9, 0.5, 0.1]","[0.8, 0.4, 0.2]","[u'red', u'blue', u'black']","[u'left', u'middle', u'right']","[0.8, 0.4, 0.2]","[u'medium', u'low', u'high']","blue",50,"middle","low","False","False",457,4900,NA
"AGNYQM1O874LT","Sat Oct 31 2020 17:10:15 GMT-0400 (Eastern Daylight Time)","Sat Oct 31 2020 21:02:27 GMT-0400 (Eastern Daylight Time)","Mozilla/5.0 (Windows NT 10.0; WOW64) AppleWebKit/537.36 (KHTML, like Gecko) Chrome/86.0.4240.111 Safari/537.36",155,"[0.9, 0.5, 0.1]","[0.8, 0.4, 0.2]","[u'red', u'blue', u'black']","[u'left', u'middle', u'right']","[0.8, 0.4, 0.2]","[u'medium', u'low', u'high']","red",49,"left","medium","False","False",171,4850,NA
"AGNYQM1O874LT","Sat Oct 31 2020 17:10:15 GMT-0400 (Eastern Daylight Time)","Sat Oct 31 2020 21:02:27 GMT-0400 (Eastern Daylight Time)","Mozilla/5.0 (Windows NT 10.0; WOW64) AppleWebKit/537.36 (KHTML, like Gecko) Chrome/86.0.4240.111 Safari/537.36",156,"[0.9, 0.5, 0.1]","[0.8, 0.4, 0.2]","[u'red', u'blue', u'black']","[u'left', u'middle', u'right']","[0.8, 0.4, 0.2]","[u'medium', u'low', u'high']","black",51,"right","high","True","False",426,4950,NA
"AGNYQM1O874LT","Sat Oct 31 2020 17:10:15 GMT-0400 (Eastern Daylight Time)","Sat Oct 31 2020 21:02:27 GMT-0400 (Eastern Daylight Time)","Mozilla/5.0 (Windows NT 10.0; WOW64) AppleWebKit/537.36 (KHTML, like Gecko) Chrome/86.0.4240.111 Safari/537.36",157,"[0.9, 0.5, 0.1]","[0.8, 0.4, 0.2]","[u'red', u'blue', u'black']","[u'left', u'middle', u'right']","[0.8, 0.4, 0.2]","[u'medium', u'low', u'high']","black",51,"right","high","True","False",586,5050,NA
"AGNYQM1O874LT","Sat Oct 31 2020 17:10:15 GMT-0400 (Eastern Daylight Time)","Sat Oct 31 2020 21:02:27 GMT-0400 (Eastern Daylight Time)","Mozilla/5.0 (Windows NT 10.0; WOW64) AppleWebKit/537.36 (KHTML, like Gecko) Chrome/86.0.4240.111 Safari/537.36",158,"[0.9, 0.5, 0.1]","[0.8, 0.4, 0.2]","[u'red', u'blue', u'black']","[u'left', u'middle', u'right']","[0.8, 0.4, 0.2]","[u'medium', u'low', u'high']","black",51,"right","high","True","False",161,5150,NA
"AGNYQM1O874LT","Sat Oct 31 2020 17:10:15 GMT-0400 (Eastern Daylight Time)","Sat Oct 31 2020 21:02:27 GMT-0400 (Eastern Daylight Time)","Mozilla/5.0 (Windows NT 10.0; WOW64) AppleWebKit/537.36 (KHTML, like Gecko) Chrome/86.0.4240.111 Safari/537.36",159,"[0.9, 0.5, 0.1]","[0.8, 0.4, 0.2]","[u'red', u'blue', u'black']","[u'left', u'middle', u'right']","[0.8, 0.4, 0.2]","[u'medium', u'low', u'high']","black",51,"right","high","True","False",347,5250,NA
"AGNYQM1O874LT","Sat Oct 31 2020 17:10:15 GMT-0400 (Eastern Daylight Time)","Sat Oct 31 2020 21:02:27 GMT-0400 (Eastern Daylight Time)","Mozilla/5.0 (Windows NT 10.0; WOW64) AppleWebKit/537.36 (KHTML, like Gecko) Chrome/86.0.4240.111 Safari/537.36",160,"[0.9, 0.5, 0.1]","[0.8, 0.4, 0.2]","[u'red', u'blue', u'black']","[u'left', u'middle', u'right']","[0.8, 0.4, 0.2]","[u'medium', u'low', u'high']","black",51,"right","high","True","False",225,5350,NA
