"src_subject_id","start_time","end_time","browser","index","first_half_probabilities","second_half_probabilities","deck_color","deck_position","deck_probabilities","deck_contingencies","response_color","key_press","response_position","response_probability","reward_type","trial_type","rt","reward_tally","exclusion_reason"
"AK4P9U9NS9DQF","Sun Nov 01 2020 10:11:52 GMT-0600 (Central Standard Time)","Sun Nov 01 2020 10:18:50 GMT-0600 (Central Standard Time)","Mozilla/5.0 (Windows NT 6.2; Win64; x64; rv:82.0) Gecko/20100101 Firefox/82.0",1,"[0.9, 0.5, 0.1]","[0.8, 0.4, 0.2]","[u'black', u'blue', u'red']","[u'left', u'middle', u'right']","[0.9, 0.5, 0.1]","[u'low', u'high', u'medium']","black",49,"left","low","False","False",914,-50,NA
"AK4P9U9NS9DQF","Sun Nov 01 2020 10:11:52 GMT-0600 (Central Standard Time)","Sun Nov 01 2020 10:18:50 GMT-0600 (Central Standard Time)","Mozilla/5.0 (Windows NT 6.2; Win64; x64; rv:82.0) Gecko/20100101 Firefox/82.0",2,"[0.9, 0.5, 0.1]","[0.8, 0.4, 0.2]","[u'black', u'blue', u'red']","[u'left', u'middle', u'right']","[0.9, 0.5, 0.1]","[u'low', u'high', u'medium']","red",51,"right","medium","False","False",322,-100,NA
"AK4P9U9NS9DQF","Sun Nov 01 2020 10:11:52 GMT-0600 (Central Standard Time)","Sun Nov 01 2020 10:18:50 GMT-0600 (Central Standard Time)","Mozilla/5.0 (Windows NT 6.2; Win64; x64; rv:82.0) Gecko/20100101 Firefox/82.0",3,"[0.9, 0.5, 0.1]","[0.8, 0.4, 0.2]","[u'black', u'blue', u'red']","[u'left', u'middle', u'right']","[0.9, 0.5, 0.1]","[u'low', u'high', u'medium']","blue",50,"middle","high","True","False",351,0,NA
"AK4P9U9NS9DQF","Sun Nov 01 2020 10:11:52 GMT-0600 (Central Standard Time)","Sun Nov 01 2020 10:18:50 GMT-0600 (Central Standard Time)","Mozilla/5.0 (Windows NT 6.2; Win64; x64; rv:82.0) Gecko/20100101 Firefox/82.0",4,"[0.9, 0.5, 0.1]","[0.8, 0.4, 0.2]","[u'black', u'blue', u'red']","[u'left', u'middle', u'right']","[0.9, 0.5, 0.1]","[u'low', u'high', u'medium']","blue",50,"middle","high","True","False",322,100,NA
"AK4P9U9NS9DQF","Sun Nov 01 2020 10:11:52 GMT-0600 (Central Standard Time)","Sun Nov 01 2020 10:18:50 GMT-0600 (Central Standard Time)","Mozilla/5.0 (Windows NT 6.2; Win64; x64; rv:82.0) Gecko/20100101 Firefox/82.0",5,"[0.9, 0.5, 0.1]","[0.8, 0.4, 0.2]","[u'black', u'blue', u'red']","[u'left', u'middle', u'right']","[0.9, 0.5, 0.1]","[u'low', u'high', u'medium']","blue",50,"middle","high","False","False",351,50,NA
"AK4P9U9NS9DQF","Sun Nov 01 2020 10:11:52 GMT-0600 (Central Standard Time)","Sun Nov 01 2020 10:18:50 GMT-0600 (Central Standard Time)","Mozilla/5.0 (Windows NT 6.2; Win64; x64; rv:82.0) Gecko/20100101 Firefox/82.0",6,"[0.9, 0.5, 0.1]","[0.8, 0.4, 0.2]","[u'black', u'blue', u'red']","[u'left', u'middle', u'right']","[0.9, 0.5, 0.1]","[u'low', u'high', u'medium']","red",51,"right","medium","True","False",267,150,NA
"AK4P9U9NS9DQF","Sun Nov 01 2020 10:11:52 GMT-0600 (Central Standard Time)","Sun Nov 01 2020 10:18:50 GMT-0600 (Central Standard Time)","Mozilla/5.0 (Windows NT 6.2; Win64; x64; rv:82.0) Gecko/20100101 Firefox/82.0",7,"[0.9, 0.5, 0.1]","[0.8, 0.4, 0.2]","[u'black', u'blue', u'red']","[u'left', u'middle', u'right']","[0.9, 0.5, 0.1]","[u'low', u'high', u'medium']","red",51,"right","medium","False","False",390,100,NA
"AK4P9U9NS9DQF","Sun Nov 01 2020 10:11:52 GMT-0600 (Central Standard Time)","Sun Nov 01 2020 10:18:50 GMT-0600 (Central Standard Time)","Mozilla/5.0 (Windows NT 6.2; Win64; x64; rv:82.0) Gecko/20100101 Firefox/82.0",8,"[0.9, 0.5, 0.1]","[0.8, 0.4, 0.2]","[u'black', u'blue', u'red']","[u'left', u'middle', u'right']","[0.9, 0.5, 0.1]","[u'low', u'high', u'medium']","black",49,"left","low","True","False",276,200,NA
"AK4P9U9NS9DQF","Sun Nov 01 2020 10:11:52 GMT-0600 (Central Standard Time)","Sun Nov 01 2020 10:18:50 GMT-0600 (Central Standard Time)","Mozilla/5.0 (Windows NT 6.2; Win64; x64; rv:82.0) Gecko/20100101 Firefox/82.0",9,"[0.9, 0.5, 0.1]","[0.8, 0.4, 0.2]","[u'black', u'blue', u'red']","[u'left', u'middle', u'right']","[0.9, 0.5, 0.1]","[u'low', u'high', u'medium']","black",49,"left","low","False","False",408,150,NA
"AK4P9U9NS9DQF","Sun Nov 01 2020 10:11:52 GMT-0600 (Central Standard Time)","Sun Nov 01 2020 10:18:50 GMT-0600 (Central Standard Time)","Mozilla/5.0 (Windows NT 6.2; Win64; x64; rv:82.0) Gecko/20100101 Firefox/82.0",10,"[0.9, 0.5, 0.1]","[0.8, 0.4, 0.2]","[u'black', u'blue', u'red']","[u'left', u'middle', u'right']","[0.9, 0.5, 0.1]","[u'low', u'high', u'medium']","blue",50,"middle","high","True","False",269,250,NA
"AK4P9U9NS9DQF","Sun Nov 01 2020 10:11:52 GMT-0600 (Central Standard Time)","Sun Nov 01 2020 10:18:50 GMT-0600 (Central Standard Time)","Mozilla/5.0 (Windows NT 6.2; Win64; x64; rv:82.0) Gecko/20100101 Firefox/82.0",11,"[0.9, 0.5, 0.1]","[0.8, 0.4, 0.2]","[u'black', u'blue', u'red']","[u'left', u'middle', u'right']","[0.9, 0.5, 0.1]","[u'low', u'high', u'medium']","blue",50,"middle","high","True","False",399,350,NA
"AK4P9U9NS9DQF","Sun Nov 01 2020 10:11:52 GMT-0600 (Central Standard Time)","Sun Nov 01 2020 10:18:50 GMT-0600 (Central Standard Time)","Mozilla/5.0 (Windows NT 6.2; Win64; x64; rv:82.0) Gecko/20100101 Firefox/82.0",12,"[0.9, 0.5, 0.1]","[0.8, 0.4, 0.2]","[u'black', u'blue', u'red']","[u'left', u'middle', u'right']","[0.9, 0.5, 0.1]","[u'low', u'high', u'medium']","blue",50,"middle","high","True","False",211,450,NA
"AK4P9U9NS9DQF","Sun Nov 01 2020 10:11:52 GMT-0600 (Central Standard Time)","Sun Nov 01 2020 10:18:50 GMT-0600 (Central Standard Time)","Mozilla/5.0 (Windows NT 6.2; Win64; x64; rv:82.0) Gecko/20100101 Firefox/82.0",13,"[0.9, 0.5, 0.1]","[0.8, 0.4, 0.2]","[u'black', u'blue', u'red']","[u'left', u'middle', u'right']","[0.9, 0.5, 0.1]","[u'low', u'high', u'medium']","blue",50,"middle","high","True","False",334,550,NA
"AK4P9U9NS9DQF","Sun Nov 01 2020 10:11:52 GMT-0600 (Central Standard Time)","Sun Nov 01 2020 10:18:50 GMT-0600 (Central Standard Time)","Mozilla/5.0 (Windows NT 6.2; Win64; x64; rv:82.0) Gecko/20100101 Firefox/82.0",14,"[0.9, 0.5, 0.1]","[0.8, 0.4, 0.2]","[u'black', u'blue', u'red']","[u'left', u'middle', u'right']","[0.9, 0.5, 0.1]","[u'low', u'high', u'medium']","blue",50,"middle","high","True","False",290,650,NA
"AK4P9U9NS9DQF","Sun Nov 01 2020 10:11:52 GMT-0600 (Central Standard Time)","Sun Nov 01 2020 10:18:50 GMT-0600 (Central Standard Time)","Mozilla/5.0 (Windows NT 6.2; Win64; x64; rv:82.0) Gecko/20100101 Firefox/82.0",15,"[0.9, 0.5, 0.1]","[0.8, 0.4, 0.2]","[u'black', u'blue', u'red']","[u'left', u'middle', u'right']","[0.9, 0.5, 0.1]","[u'low', u'high', u'medium']","blue",50,"middle","high","True","False",252,750,NA
"AK4P9U9NS9DQF","Sun Nov 01 2020 10:11:52 GMT-0600 (Central Standard Time)","Sun Nov 01 2020 10:18:50 GMT-0600 (Central Standard Time)","Mozilla/5.0 (Windows NT 6.2; Win64; x64; rv:82.0) Gecko/20100101 Firefox/82.0",16,"[0.9, 0.5, 0.1]","[0.8, 0.4, 0.2]","[u'black', u'blue', u'red']","[u'left', u'middle', u'right']","[0.9, 0.5, 0.1]","[u'low', u'high', u'medium']","blue",50,"middle","high","True","False",241,850,NA
"AK4P9U9NS9DQF","Sun Nov 01 2020 10:11:52 GMT-0600 (Central Standard Time)","Sun Nov 01 2020 10:18:50 GMT-0600 (Central Standard Time)","Mozilla/5.0 (Windows NT 6.2; Win64; x64; rv:82.0) Gecko/20100101 Firefox/82.0",17,"[0.9, 0.5, 0.1]","[0.8, 0.4, 0.2]","[u'black', u'blue', u'red']","[u'left', u'middle', u'right']","[0.9, 0.5, 0.1]","[u'low', u'high', u'medium']","blue",50,"middle","high","True","False",241,950,NA
"AK4P9U9NS9DQF","Sun Nov 01 2020 10:11:52 GMT-0600 (Central Standard Time)","Sun Nov 01 2020 10:18:50 GMT-0600 (Central Standard Time)","Mozilla/5.0 (Windows NT 6.2; Win64; x64; rv:82.0) Gecko/20100101 Firefox/82.0",18,"[0.9, 0.5, 0.1]","[0.8, 0.4, 0.2]","[u'black', u'blue', u'red']","[u'left', u'middle', u'right']","[0.9, 0.5, 0.1]","[u'low', u'high', u'medium']","blue",50,"middle","high","True","True",147,1050,NA
"AK4P9U9NS9DQF","Sun Nov 01 2020 10:11:52 GMT-0600 (Central Standard Time)","Sun Nov 01 2020 10:18:50 GMT-0600 (Central Standard Time)","Mozilla/5.0 (Windows NT 6.2; Win64; x64; rv:82.0) Gecko/20100101 Firefox/82.0",19,"[0.9, 0.5, 0.1]","[0.8, 0.4, 0.2]","[u'black', u'blue', u'red']","[u'left', u'middle', u'right']","[0.9, 0.5, 0.1]","[u'low', u'medium', u'high']","blue",50,"middle","medium","False","False",306,1000,NA
"AK4P9U9NS9DQF","Sun Nov 01 2020 10:11:52 GMT-0600 (Central Standard Time)","Sun Nov 01 2020 10:18:50 GMT-0600 (Central Standard Time)","Mozilla/5.0 (Windows NT 6.2; Win64; x64; rv:82.0) Gecko/20100101 Firefox/82.0",20,"[0.9, 0.5, 0.1]","[0.8, 0.4, 0.2]","[u'black', u'blue', u'red']","[u'left', u'middle', u'right']","[0.9, 0.5, 0.1]","[u'low', u'medium', u'high']","red",51,"right","high","True","False",189,1100,NA
"AK4P9U9NS9DQF","Sun Nov 01 2020 10:11:52 GMT-0600 (Central Standard Time)","Sun Nov 01 2020 10:18:50 GMT-0600 (Central Standard Time)","Mozilla/5.0 (Windows NT 6.2; Win64; x64; rv:82.0) Gecko/20100101 Firefox/82.0",21,"[0.9, 0.5, 0.1]","[0.8, 0.4, 0.2]","[u'black', u'blue', u'red']","[u'left', u'middle', u'right']","[0.9, 0.5, 0.1]","[u'low', u'medium', u'high']","red",51,"right","high","True","False",183,1200,NA
"AK4P9U9NS9DQF","Sun Nov 01 2020 10:11:52 GMT-0600 (Central Standard Time)","Sun Nov 01 2020 10:18:50 GMT-0600 (Central Standard Time)","Mozilla/5.0 (Windows NT 6.2; Win64; x64; rv:82.0) Gecko/20100101 Firefox/82.0",22,"[0.9, 0.5, 0.1]","[0.8, 0.4, 0.2]","[u'black', u'blue', u'red']","[u'left', u'middle', u'right']","[0.9, 0.5, 0.1]","[u'low', u'medium', u'high']","red",51,"right","high","True","False",206,1300,NA
"AK4P9U9NS9DQF","Sun Nov 01 2020 10:11:52 GMT-0600 (Central Standard Time)","Sun Nov 01 2020 10:18:50 GMT-0600 (Central Standard Time)","Mozilla/5.0 (Windows NT 6.2; Win64; x64; rv:82.0) Gecko/20100101 Firefox/82.0",23,"[0.9, 0.5, 0.1]","[0.8, 0.4, 0.2]","[u'black', u'blue', u'red']","[u'left', u'middle', u'right']","[0.9, 0.5, 0.1]","[u'low', u'medium', u'high']","red",51,"right","high","False","False",208,1250,NA
"AK4P9U9NS9DQF","Sun Nov 01 2020 10:11:52 GMT-0600 (Central Standard Time)","Sun Nov 01 2020 10:18:50 GMT-0600 (Central Standard Time)","Mozilla/5.0 (Windows NT 6.2; Win64; x64; rv:82.0) Gecko/20100101 Firefox/82.0",24,"[0.9, 0.5, 0.1]","[0.8, 0.4, 0.2]","[u'black', u'blue', u'red']","[u'left', u'middle', u'right']","[0.9, 0.5, 0.1]","[u'low', u'medium', u'high']","black",49,"left","low","False","False",169,1200,NA
"AK4P9U9NS9DQF","Sun Nov 01 2020 10:11:52 GMT-0600 (Central Standard Time)","Sun Nov 01 2020 10:18:50 GMT-0600 (Central Standard Time)","Mozilla/5.0 (Windows NT 6.2; Win64; x64; rv:82.0) Gecko/20100101 Firefox/82.0",25,"[0.9, 0.5, 0.1]","[0.8, 0.4, 0.2]","[u'black', u'blue', u'red']","[u'left', u'middle', u'right']","[0.9, 0.5, 0.1]","[u'low', u'medium', u'high']","blue",50,"middle","medium","True","False",105,1300,NA
"AK4P9U9NS9DQF","Sun Nov 01 2020 10:11:52 GMT-0600 (Central Standard Time)","Sun Nov 01 2020 10:18:50 GMT-0600 (Central Standard Time)","Mozilla/5.0 (Windows NT 6.2; Win64; x64; rv:82.0) Gecko/20100101 Firefox/82.0",26,"[0.9, 0.5, 0.1]","[0.8, 0.4, 0.2]","[u'black', u'blue', u'red']","[u'left', u'middle', u'right']","[0.9, 0.5, 0.1]","[u'low', u'medium', u'high']","blue",50,"middle","medium","False","False",88,1250,NA
"AK4P9U9NS9DQF","Sun Nov 01 2020 10:11:52 GMT-0600 (Central Standard Time)","Sun Nov 01 2020 10:18:50 GMT-0600 (Central Standard Time)","Mozilla/5.0 (Windows NT 6.2; Win64; x64; rv:82.0) Gecko/20100101 Firefox/82.0",27,"[0.9, 0.5, 0.1]","[0.8, 0.4, 0.2]","[u'black', u'blue', u'red']","[u'left', u'middle', u'right']","[0.9, 0.5, 0.1]","[u'low', u'medium', u'high']","black",49,"left","low","False","False",159,1200,NA
"AK4P9U9NS9DQF","Sun Nov 01 2020 10:11:52 GMT-0600 (Central Standard Time)","Sun Nov 01 2020 10:18:50 GMT-0600 (Central Standard Time)","Mozilla/5.0 (Windows NT 6.2; Win64; x64; rv:82.0) Gecko/20100101 Firefox/82.0",28,"[0.9, 0.5, 0.1]","[0.8, 0.4, 0.2]","[u'black', u'blue', u'red']","[u'left', u'middle', u'right']","[0.9, 0.5, 0.1]","[u'low', u'medium', u'high']","red",51,"right","high","True","False",269,1300,NA
"AK4P9U9NS9DQF","Sun Nov 01 2020 10:11:52 GMT-0600 (Central Standard Time)","Sun Nov 01 2020 10:18:50 GMT-0600 (Central Standard Time)","Mozilla/5.0 (Windows NT 6.2; Win64; x64; rv:82.0) Gecko/20100101 Firefox/82.0",29,"[0.9, 0.5, 0.1]","[0.8, 0.4, 0.2]","[u'black', u'blue', u'red']","[u'left', u'middle', u'right']","[0.9, 0.5, 0.1]","[u'low', u'medium', u'high']","red",51,"right","high","True","False",137,1400,NA
"AK4P9U9NS9DQF","Sun Nov 01 2020 10:11:52 GMT-0600 (Central Standard Time)","Sun Nov 01 2020 10:18:50 GMT-0600 (Central Standard Time)","Mozilla/5.0 (Windows NT 6.2; Win64; x64; rv:82.0) Gecko/20100101 Firefox/82.0",30,"[0.9, 0.5, 0.1]","[0.8, 0.4, 0.2]","[u'black', u'blue', u'red']","[u'left', u'middle', u'right']","[0.9, 0.5, 0.1]","[u'low', u'medium', u'high']","red",51,"right","high","True","False",225,1500,NA
"AK4P9U9NS9DQF","Sun Nov 01 2020 10:11:52 GMT-0600 (Central Standard Time)","Sun Nov 01 2020 10:18:50 GMT-0600 (Central Standard Time)","Mozilla/5.0 (Windows NT 6.2; Win64; x64; rv:82.0) Gecko/20100101 Firefox/82.0",31,"[0.9, 0.5, 0.1]","[0.8, 0.4, 0.2]","[u'black', u'blue', u'red']","[u'left', u'middle', u'right']","[0.9, 0.5, 0.1]","[u'low', u'medium', u'high']","red",51,"right","high","True","False",241,1600,NA
"AK4P9U9NS9DQF","Sun Nov 01 2020 10:11:52 GMT-0600 (Central Standard Time)","Sun Nov 01 2020 10:18:50 GMT-0600 (Central Standard Time)","Mozilla/5.0 (Windows NT 6.2; Win64; x64; rv:82.0) Gecko/20100101 Firefox/82.0",32,"[0.9, 0.5, 0.1]","[0.8, 0.4, 0.2]","[u'black', u'blue', u'red']","[u'left', u'middle', u'right']","[0.9, 0.5, 0.1]","[u'low', u'medium', u'high']","red",51,"right","high","True","False",194,1700,NA
"AK4P9U9NS9DQF","Sun Nov 01 2020 10:11:52 GMT-0600 (Central Standard Time)","Sun Nov 01 2020 10:18:50 GMT-0600 (Central Standard Time)","Mozilla/5.0 (Windows NT 6.2; Win64; x64; rv:82.0) Gecko/20100101 Firefox/82.0",33,"[0.9, 0.5, 0.1]","[0.8, 0.4, 0.2]","[u'black', u'blue', u'red']","[u'left', u'middle', u'right']","[0.9, 0.5, 0.1]","[u'low', u'medium', u'high']","red",51,"right","high","True","False",218,1800,NA
"AK4P9U9NS9DQF","Sun Nov 01 2020 10:11:52 GMT-0600 (Central Standard Time)","Sun Nov 01 2020 10:18:50 GMT-0600 (Central Standard Time)","Mozilla/5.0 (Windows NT 6.2; Win64; x64; rv:82.0) Gecko/20100101 Firefox/82.0",34,"[0.9, 0.5, 0.1]","[0.8, 0.4, 0.2]","[u'black', u'blue', u'red']","[u'left', u'middle', u'right']","[0.9, 0.5, 0.1]","[u'low', u'medium', u'high']","red",51,"right","high","True","False",221,1900,NA
"AK4P9U9NS9DQF","Sun Nov 01 2020 10:11:52 GMT-0600 (Central Standard Time)","Sun Nov 01 2020 10:18:50 GMT-0600 (Central Standard Time)","Mozilla/5.0 (Windows NT 6.2; Win64; x64; rv:82.0) Gecko/20100101 Firefox/82.0",35,"[0.9, 0.5, 0.1]","[0.8, 0.4, 0.2]","[u'black', u'blue', u'red']","[u'left', u'middle', u'right']","[0.9, 0.5, 0.1]","[u'low', u'medium', u'high']","red",51,"right","high","False","False",199,1850,NA
"AK4P9U9NS9DQF","Sun Nov 01 2020 10:11:52 GMT-0600 (Central Standard Time)","Sun Nov 01 2020 10:18:50 GMT-0600 (Central Standard Time)","Mozilla/5.0 (Windows NT 6.2; Win64; x64; rv:82.0) Gecko/20100101 Firefox/82.0",36,"[0.9, 0.5, 0.1]","[0.8, 0.4, 0.2]","[u'black', u'blue', u'red']","[u'left', u'middle', u'right']","[0.9, 0.5, 0.1]","[u'low', u'medium', u'high']","blue",50,"middle","medium","True","False",111,1950,NA
"AK4P9U9NS9DQF","Sun Nov 01 2020 10:11:52 GMT-0600 (Central Standard Time)","Sun Nov 01 2020 10:18:50 GMT-0600 (Central Standard Time)","Mozilla/5.0 (Windows NT 6.2; Win64; x64; rv:82.0) Gecko/20100101 Firefox/82.0",37,"[0.9, 0.5, 0.1]","[0.8, 0.4, 0.2]","[u'black', u'blue', u'red']","[u'left', u'middle', u'right']","[0.9, 0.5, 0.1]","[u'low', u'medium', u'high']","blue",50,"middle","medium","True","False",110,2050,NA
"AK4P9U9NS9DQF","Sun Nov 01 2020 10:11:52 GMT-0600 (Central Standard Time)","Sun Nov 01 2020 10:18:50 GMT-0600 (Central Standard Time)","Mozilla/5.0 (Windows NT 6.2; Win64; x64; rv:82.0) Gecko/20100101 Firefox/82.0",38,"[0.9, 0.5, 0.1]","[0.8, 0.4, 0.2]","[u'black', u'blue', u'red']","[u'left', u'middle', u'right']","[0.9, 0.5, 0.1]","[u'low', u'medium', u'high']","blue",50,"middle","medium","True","False",84,2150,NA
"AK4P9U9NS9DQF","Sun Nov 01 2020 10:11:52 GMT-0600 (Central Standard Time)","Sun Nov 01 2020 10:18:50 GMT-0600 (Central Standard Time)","Mozilla/5.0 (Windows NT 6.2; Win64; x64; rv:82.0) Gecko/20100101 Firefox/82.0",39,"[0.9, 0.5, 0.1]","[0.8, 0.4, 0.2]","[u'black', u'blue', u'red']","[u'left', u'middle', u'right']","[0.9, 0.5, 0.1]","[u'low', u'medium', u'high']","blue",50,"middle","medium","False","False",163,2100,NA
"AK4P9U9NS9DQF","Sun Nov 01 2020 10:11:52 GMT-0600 (Central Standard Time)","Sun Nov 01 2020 10:18:50 GMT-0600 (Central Standard Time)","Mozilla/5.0 (Windows NT 6.2; Win64; x64; rv:82.0) Gecko/20100101 Firefox/82.0",40,"[0.9, 0.5, 0.1]","[0.8, 0.4, 0.2]","[u'black', u'blue', u'red']","[u'left', u'middle', u'right']","[0.9, 0.5, 0.1]","[u'low', u'medium', u'high']","black",49,"left","low","False","False",204,2050,NA
"AK4P9U9NS9DQF","Sun Nov 01 2020 10:11:52 GMT-0600 (Central Standard Time)","Sun Nov 01 2020 10:18:50 GMT-0600 (Central Standard Time)","Mozilla/5.0 (Windows NT 6.2; Win64; x64; rv:82.0) Gecko/20100101 Firefox/82.0",41,"[0.9, 0.5, 0.1]","[0.8, 0.4, 0.2]","[u'black', u'blue', u'red']","[u'left', u'middle', u'right']","[0.9, 0.5, 0.1]","[u'medium', u'high', u'low']","blue",50,"middle","high","True","False",366,2150,NA
"AK4P9U9NS9DQF","Sun Nov 01 2020 10:11:52 GMT-0600 (Central Standard Time)","Sun Nov 01 2020 10:18:50 GMT-0600 (Central Standard Time)","Mozilla/5.0 (Windows NT 6.2; Win64; x64; rv:82.0) Gecko/20100101 Firefox/82.0",42,"[0.9, 0.5, 0.1]","[0.8, 0.4, 0.2]","[u'black', u'blue', u'red']","[u'left', u'middle', u'right']","[0.9, 0.5, 0.1]","[u'medium', u'high', u'low']","blue",50,"middle","high","True","False",115,2250,NA
"AK4P9U9NS9DQF","Sun Nov 01 2020 10:11:52 GMT-0600 (Central Standard Time)","Sun Nov 01 2020 10:18:50 GMT-0600 (Central Standard Time)","Mozilla/5.0 (Windows NT 6.2; Win64; x64; rv:82.0) Gecko/20100101 Firefox/82.0",43,"[0.9, 0.5, 0.1]","[0.8, 0.4, 0.2]","[u'black', u'blue', u'red']","[u'left', u'middle', u'right']","[0.9, 0.5, 0.1]","[u'medium', u'high', u'low']","blue",50,"middle","high","True","False",114,2350,NA
"AK4P9U9NS9DQF","Sun Nov 01 2020 10:11:52 GMT-0600 (Central Standard Time)","Sun Nov 01 2020 10:18:50 GMT-0600 (Central Standard Time)","Mozilla/5.0 (Windows NT 6.2; Win64; x64; rv:82.0) Gecko/20100101 Firefox/82.0",44,"[0.9, 0.5, 0.1]","[0.8, 0.4, 0.2]","[u'black', u'blue', u'red']","[u'left', u'middle', u'right']","[0.9, 0.5, 0.1]","[u'medium', u'high', u'low']","blue",50,"middle","high","True","False",152,2450,NA
"AK4P9U9NS9DQF","Sun Nov 01 2020 10:11:52 GMT-0600 (Central Standard Time)","Sun Nov 01 2020 10:18:50 GMT-0600 (Central Standard Time)","Mozilla/5.0 (Windows NT 6.2; Win64; x64; rv:82.0) Gecko/20100101 Firefox/82.0",45,"[0.9, 0.5, 0.1]","[0.8, 0.4, 0.2]","[u'black', u'blue', u'red']","[u'left', u'middle', u'right']","[0.9, 0.5, 0.1]","[u'medium', u'high', u'low']","blue",50,"middle","high","True","False",210,2550,NA
"AK4P9U9NS9DQF","Sun Nov 01 2020 10:11:52 GMT-0600 (Central Standard Time)","Sun Nov 01 2020 10:18:50 GMT-0600 (Central Standard Time)","Mozilla/5.0 (Windows NT 6.2; Win64; x64; rv:82.0) Gecko/20100101 Firefox/82.0",46,"[0.9, 0.5, 0.1]","[0.8, 0.4, 0.2]","[u'black', u'blue', u'red']","[u'left', u'middle', u'right']","[0.9, 0.5, 0.1]","[u'medium', u'high', u'low']","blue",50,"middle","high","True","False",273,2650,NA
"AK4P9U9NS9DQF","Sun Nov 01 2020 10:11:52 GMT-0600 (Central Standard Time)","Sun Nov 01 2020 10:18:50 GMT-0600 (Central Standard Time)","Mozilla/5.0 (Windows NT 6.2; Win64; x64; rv:82.0) Gecko/20100101 Firefox/82.0",47,"[0.9, 0.5, 0.1]","[0.8, 0.4, 0.2]","[u'black', u'blue', u'red']","[u'left', u'middle', u'right']","[0.9, 0.5, 0.1]","[u'medium', u'high', u'low']","blue",50,"middle","high","True","False",252,2750,NA
"AK4P9U9NS9DQF","Sun Nov 01 2020 10:11:52 GMT-0600 (Central Standard Time)","Sun Nov 01 2020 10:18:50 GMT-0600 (Central Standard Time)","Mozilla/5.0 (Windows NT 6.2; Win64; x64; rv:82.0) Gecko/20100101 Firefox/82.0",48,"[0.9, 0.5, 0.1]","[0.8, 0.4, 0.2]","[u'black', u'blue', u'red']","[u'left', u'middle', u'right']","[0.9, 0.5, 0.1]","[u'medium', u'high', u'low']","blue",50,"middle","high","True","False",223,2850,NA
"AK4P9U9NS9DQF","Sun Nov 01 2020 10:11:52 GMT-0600 (Central Standard Time)","Sun Nov 01 2020 10:18:50 GMT-0600 (Central Standard Time)","Mozilla/5.0 (Windows NT 6.2; Win64; x64; rv:82.0) Gecko/20100101 Firefox/82.0",49,"[0.9, 0.5, 0.1]","[0.8, 0.4, 0.2]","[u'black', u'blue', u'red']","[u'left', u'middle', u'right']","[0.9, 0.5, 0.1]","[u'medium', u'high', u'low']","blue",50,"middle","high","True","True",65,2950,NA
"AK4P9U9NS9DQF","Sun Nov 01 2020 10:11:52 GMT-0600 (Central Standard Time)","Sun Nov 01 2020 10:18:50 GMT-0600 (Central Standard Time)","Mozilla/5.0 (Windows NT 6.2; Win64; x64; rv:82.0) Gecko/20100101 Firefox/82.0",50,"[0.9, 0.5, 0.1]","[0.8, 0.4, 0.2]","[u'black', u'blue', u'red']","[u'left', u'middle', u'right']","[0.9, 0.5, 0.1]","[u'medium', u'low', u'high']","blue",50,"middle","low","False","False",182,2900,NA
"AK4P9U9NS9DQF","Sun Nov 01 2020 10:11:52 GMT-0600 (Central Standard Time)","Sun Nov 01 2020 10:18:50 GMT-0600 (Central Standard Time)","Mozilla/5.0 (Windows NT 6.2; Win64; x64; rv:82.0) Gecko/20100101 Firefox/82.0",51,"[0.9, 0.5, 0.1]","[0.8, 0.4, 0.2]","[u'black', u'blue', u'red']","[u'left', u'middle', u'right']","[0.9, 0.5, 0.1]","[u'medium', u'low', u'high']","red",51,"right","high","True","False",134,3000,NA
"AK4P9U9NS9DQF","Sun Nov 01 2020 10:11:52 GMT-0600 (Central Standard Time)","Sun Nov 01 2020 10:18:50 GMT-0600 (Central Standard Time)","Mozilla/5.0 (Windows NT 6.2; Win64; x64; rv:82.0) Gecko/20100101 Firefox/82.0",52,"[0.9, 0.5, 0.1]","[0.8, 0.4, 0.2]","[u'black', u'blue', u'red']","[u'left', u'middle', u'right']","[0.9, 0.5, 0.1]","[u'medium', u'low', u'high']","red",51,"right","high","True","False",198,3100,NA
"AK4P9U9NS9DQF","Sun Nov 01 2020 10:11:52 GMT-0600 (Central Standard Time)","Sun Nov 01 2020 10:18:50 GMT-0600 (Central Standard Time)","Mozilla/5.0 (Windows NT 6.2; Win64; x64; rv:82.0) Gecko/20100101 Firefox/82.0",53,"[0.9, 0.5, 0.1]","[0.8, 0.4, 0.2]","[u'black', u'blue', u'red']","[u'left', u'middle', u'right']","[0.9, 0.5, 0.1]","[u'medium', u'low', u'high']","red",51,"right","high","True","False",78,3200,NA
"AK4P9U9NS9DQF","Sun Nov 01 2020 10:11:52 GMT-0600 (Central Standard Time)","Sun Nov 01 2020 10:18:50 GMT-0600 (Central Standard Time)","Mozilla/5.0 (Windows NT 6.2; Win64; x64; rv:82.0) Gecko/20100101 Firefox/82.0",54,"[0.9, 0.5, 0.1]","[0.8, 0.4, 0.2]","[u'black', u'blue', u'red']","[u'left', u'middle', u'right']","[0.9, 0.5, 0.1]","[u'medium', u'low', u'high']","red",51,"right","high","True","False",84,3300,NA
"AK4P9U9NS9DQF","Sun Nov 01 2020 10:11:52 GMT-0600 (Central Standard Time)","Sun Nov 01 2020 10:18:50 GMT-0600 (Central Standard Time)","Mozilla/5.0 (Windows NT 6.2; Win64; x64; rv:82.0) Gecko/20100101 Firefox/82.0",55,"[0.9, 0.5, 0.1]","[0.8, 0.4, 0.2]","[u'black', u'blue', u'red']","[u'left', u'middle', u'right']","[0.9, 0.5, 0.1]","[u'medium', u'low', u'high']","red",51,"right","high","True","False",67,3400,NA
"AK4P9U9NS9DQF","Sun Nov 01 2020 10:11:52 GMT-0600 (Central Standard Time)","Sun Nov 01 2020 10:18:50 GMT-0600 (Central Standard Time)","Mozilla/5.0 (Windows NT 6.2; Win64; x64; rv:82.0) Gecko/20100101 Firefox/82.0",56,"[0.9, 0.5, 0.1]","[0.8, 0.4, 0.2]","[u'black', u'blue', u'red']","[u'left', u'middle', u'right']","[0.9, 0.5, 0.1]","[u'medium', u'low', u'high']","red",51,"right","high","True","False",136,3500,NA
"AK4P9U9NS9DQF","Sun Nov 01 2020 10:11:52 GMT-0600 (Central Standard Time)","Sun Nov 01 2020 10:18:50 GMT-0600 (Central Standard Time)","Mozilla/5.0 (Windows NT 6.2; Win64; x64; rv:82.0) Gecko/20100101 Firefox/82.0",57,"[0.9, 0.5, 0.1]","[0.8, 0.4, 0.2]","[u'black', u'blue', u'red']","[u'left', u'middle', u'right']","[0.9, 0.5, 0.1]","[u'medium', u'low', u'high']","red",51,"right","high","True","False",112,3600,NA
"AK4P9U9NS9DQF","Sun Nov 01 2020 10:11:52 GMT-0600 (Central Standard Time)","Sun Nov 01 2020 10:18:50 GMT-0600 (Central Standard Time)","Mozilla/5.0 (Windows NT 6.2; Win64; x64; rv:82.0) Gecko/20100101 Firefox/82.0",58,"[0.9, 0.5, 0.1]","[0.8, 0.4, 0.2]","[u'black', u'blue', u'red']","[u'left', u'middle', u'right']","[0.9, 0.5, 0.1]","[u'medium', u'low', u'high']","red",51,"right","high","True","False",206,3700,NA
"AK4P9U9NS9DQF","Sun Nov 01 2020 10:11:52 GMT-0600 (Central Standard Time)","Sun Nov 01 2020 10:18:50 GMT-0600 (Central Standard Time)","Mozilla/5.0 (Windows NT 6.2; Win64; x64; rv:82.0) Gecko/20100101 Firefox/82.0",59,"[0.9, 0.5, 0.1]","[0.8, 0.4, 0.2]","[u'black', u'blue', u'red']","[u'left', u'middle', u'right']","[0.9, 0.5, 0.1]","[u'medium', u'low', u'high']","red",51,"right","high","True","True",272,3800,NA
"AK4P9U9NS9DQF","Sun Nov 01 2020 10:11:52 GMT-0600 (Central Standard Time)","Sun Nov 01 2020 10:18:50 GMT-0600 (Central Standard Time)","Mozilla/5.0 (Windows NT 6.2; Win64; x64; rv:82.0) Gecko/20100101 Firefox/82.0",60,"[0.9, 0.5, 0.1]","[0.8, 0.4, 0.2]","[u'black', u'blue', u'red']","[u'left', u'middle', u'right']","[0.9, 0.5, 0.1]","[u'high', u'low', u'medium']","red",51,"right","medium","True","False",371,3900,NA
"AK4P9U9NS9DQF","Sun Nov 01 2020 10:11:52 GMT-0600 (Central Standard Time)","Sun Nov 01 2020 10:18:50 GMT-0600 (Central Standard Time)","Mozilla/5.0 (Windows NT 6.2; Win64; x64; rv:82.0) Gecko/20100101 Firefox/82.0",61,"[0.9, 0.5, 0.1]","[0.8, 0.4, 0.2]","[u'black', u'blue', u'red']","[u'left', u'middle', u'right']","[0.9, 0.5, 0.1]","[u'high', u'low', u'medium']","red",51,"right","medium","False","False",217,3850,NA
"AK4P9U9NS9DQF","Sun Nov 01 2020 10:11:52 GMT-0600 (Central Standard Time)","Sun Nov 01 2020 10:18:50 GMT-0600 (Central Standard Time)","Mozilla/5.0 (Windows NT 6.2; Win64; x64; rv:82.0) Gecko/20100101 Firefox/82.0",62,"[0.9, 0.5, 0.1]","[0.8, 0.4, 0.2]","[u'black', u'blue', u'red']","[u'left', u'middle', u'right']","[0.9, 0.5, 0.1]","[u'high', u'low', u'medium']","blue",50,"middle","low","False","False",137,3800,NA
"AK4P9U9NS9DQF","Sun Nov 01 2020 10:11:52 GMT-0600 (Central Standard Time)","Sun Nov 01 2020 10:18:50 GMT-0600 (Central Standard Time)","Mozilla/5.0 (Windows NT 6.2; Win64; x64; rv:82.0) Gecko/20100101 Firefox/82.0",63,"[0.9, 0.5, 0.1]","[0.8, 0.4, 0.2]","[u'black', u'blue', u'red']","[u'left', u'middle', u'right']","[0.9, 0.5, 0.1]","[u'high', u'low', u'medium']","black",49,"left","high","True","False",201,3900,NA
"AK4P9U9NS9DQF","Sun Nov 01 2020 10:11:52 GMT-0600 (Central Standard Time)","Sun Nov 01 2020 10:18:50 GMT-0600 (Central Standard Time)","Mozilla/5.0 (Windows NT 6.2; Win64; x64; rv:82.0) Gecko/20100101 Firefox/82.0",64,"[0.9, 0.5, 0.1]","[0.8, 0.4, 0.2]","[u'black', u'blue', u'red']","[u'left', u'middle', u'right']","[0.9, 0.5, 0.1]","[u'high', u'low', u'medium']","black",49,"left","high","True","False",144,4000,NA
"AK4P9U9NS9DQF","Sun Nov 01 2020 10:11:52 GMT-0600 (Central Standard Time)","Sun Nov 01 2020 10:18:50 GMT-0600 (Central Standard Time)","Mozilla/5.0 (Windows NT 6.2; Win64; x64; rv:82.0) Gecko/20100101 Firefox/82.0",65,"[0.9, 0.5, 0.1]","[0.8, 0.4, 0.2]","[u'black', u'blue', u'red']","[u'left', u'middle', u'right']","[0.9, 0.5, 0.1]","[u'high', u'low', u'medium']","black",49,"left","high","True","False",161,4100,NA
"AK4P9U9NS9DQF","Sun Nov 01 2020 10:11:52 GMT-0600 (Central Standard Time)","Sun Nov 01 2020 10:18:50 GMT-0600 (Central Standard Time)","Mozilla/5.0 (Windows NT 6.2; Win64; x64; rv:82.0) Gecko/20100101 Firefox/82.0",66,"[0.9, 0.5, 0.1]","[0.8, 0.4, 0.2]","[u'black', u'blue', u'red']","[u'left', u'middle', u'right']","[0.9, 0.5, 0.1]","[u'high', u'low', u'medium']","black",49,"left","high","True","False",105,4200,NA
"AK4P9U9NS9DQF","Sun Nov 01 2020 10:11:52 GMT-0600 (Central Standard Time)","Sun Nov 01 2020 10:18:50 GMT-0600 (Central Standard Time)","Mozilla/5.0 (Windows NT 6.2; Win64; x64; rv:82.0) Gecko/20100101 Firefox/82.0",67,"[0.9, 0.5, 0.1]","[0.8, 0.4, 0.2]","[u'black', u'blue', u'red']","[u'left', u'middle', u'right']","[0.9, 0.5, 0.1]","[u'high', u'low', u'medium']","black",49,"left","high","True","False",63,4300,NA
"AK4P9U9NS9DQF","Sun Nov 01 2020 10:11:52 GMT-0600 (Central Standard Time)","Sun Nov 01 2020 10:18:50 GMT-0600 (Central Standard Time)","Mozilla/5.0 (Windows NT 6.2; Win64; x64; rv:82.0) Gecko/20100101 Firefox/82.0",68,"[0.9, 0.5, 0.1]","[0.8, 0.4, 0.2]","[u'black', u'blue', u'red']","[u'left', u'middle', u'right']","[0.9, 0.5, 0.1]","[u'high', u'low', u'medium']","black",49,"left","high","True","False",211,4400,NA
"AK4P9U9NS9DQF","Sun Nov 01 2020 10:11:52 GMT-0600 (Central Standard Time)","Sun Nov 01 2020 10:18:50 GMT-0600 (Central Standard Time)","Mozilla/5.0 (Windows NT 6.2; Win64; x64; rv:82.0) Gecko/20100101 Firefox/82.0",69,"[0.9, 0.5, 0.1]","[0.8, 0.4, 0.2]","[u'black', u'blue', u'red']","[u'left', u'middle', u'right']","[0.9, 0.5, 0.1]","[u'high', u'low', u'medium']","black",49,"left","high","True","False",166,4500,NA
"AK4P9U9NS9DQF","Sun Nov 01 2020 10:11:52 GMT-0600 (Central Standard Time)","Sun Nov 01 2020 10:18:50 GMT-0600 (Central Standard Time)","Mozilla/5.0 (Windows NT 6.2; Win64; x64; rv:82.0) Gecko/20100101 Firefox/82.0",70,"[0.9, 0.5, 0.1]","[0.8, 0.4, 0.2]","[u'black', u'blue', u'red']","[u'left', u'middle', u'right']","[0.9, 0.5, 0.1]","[u'high', u'low', u'medium']","black",49,"left","high","True","False",118,4600,NA
"AK4P9U9NS9DQF","Sun Nov 01 2020 10:11:52 GMT-0600 (Central Standard Time)","Sun Nov 01 2020 10:18:50 GMT-0600 (Central Standard Time)","Mozilla/5.0 (Windows NT 6.2; Win64; x64; rv:82.0) Gecko/20100101 Firefox/82.0",71,"[0.9, 0.5, 0.1]","[0.8, 0.4, 0.2]","[u'black', u'blue', u'red']","[u'left', u'middle', u'right']","[0.9, 0.5, 0.1]","[u'high', u'low', u'medium']","black",49,"left","high","True","True",93,4700,NA
"AK4P9U9NS9DQF","Sun Nov 01 2020 10:11:52 GMT-0600 (Central Standard Time)","Sun Nov 01 2020 10:18:50 GMT-0600 (Central Standard Time)","Mozilla/5.0 (Windows NT 6.2; Win64; x64; rv:82.0) Gecko/20100101 Firefox/82.0",72,"[0.9, 0.5, 0.1]","[0.8, 0.4, 0.2]","[u'black', u'blue', u'red']","[u'left', u'middle', u'right']","[0.9, 0.5, 0.1]","[u'low', u'medium', u'high']","black",49,"left","low","False","False",124,4650,NA
"AK4P9U9NS9DQF","Sun Nov 01 2020 10:11:52 GMT-0600 (Central Standard Time)","Sun Nov 01 2020 10:18:50 GMT-0600 (Central Standard Time)","Mozilla/5.0 (Windows NT 6.2; Win64; x64; rv:82.0) Gecko/20100101 Firefox/82.0",73,"[0.9, 0.5, 0.1]","[0.8, 0.4, 0.2]","[u'black', u'blue', u'red']","[u'left', u'middle', u'right']","[0.9, 0.5, 0.1]","[u'low', u'medium', u'high']","blue",50,"middle","medium","False","False",126,4600,NA
"AK4P9U9NS9DQF","Sun Nov 01 2020 10:11:52 GMT-0600 (Central Standard Time)","Sun Nov 01 2020 10:18:50 GMT-0600 (Central Standard Time)","Mozilla/5.0 (Windows NT 6.2; Win64; x64; rv:82.0) Gecko/20100101 Firefox/82.0",74,"[0.9, 0.5, 0.1]","[0.8, 0.4, 0.2]","[u'black', u'blue', u'red']","[u'left', u'middle', u'right']","[0.9, 0.5, 0.1]","[u'low', u'medium', u'high']","red",51,"right","high","True","False",169,4700,NA
"AK4P9U9NS9DQF","Sun Nov 01 2020 10:11:52 GMT-0600 (Central Standard Time)","Sun Nov 01 2020 10:18:50 GMT-0600 (Central Standard Time)","Mozilla/5.0 (Windows NT 6.2; Win64; x64; rv:82.0) Gecko/20100101 Firefox/82.0",75,"[0.9, 0.5, 0.1]","[0.8, 0.4, 0.2]","[u'black', u'blue', u'red']","[u'left', u'middle', u'right']","[0.9, 0.5, 0.1]","[u'low', u'medium', u'high']","red",51,"right","high","True","False",17,4800,NA
"AK4P9U9NS9DQF","Sun Nov 01 2020 10:11:52 GMT-0600 (Central Standard Time)","Sun Nov 01 2020 10:18:50 GMT-0600 (Central Standard Time)","Mozilla/5.0 (Windows NT 6.2; Win64; x64; rv:82.0) Gecko/20100101 Firefox/82.0",76,"[0.9, 0.5, 0.1]","[0.8, 0.4, 0.2]","[u'black', u'blue', u'red']","[u'left', u'middle', u'right']","[0.9, 0.5, 0.1]","[u'low', u'medium', u'high']","red",51,"right","high","False","False",109,4750,NA
"AK4P9U9NS9DQF","Sun Nov 01 2020 10:11:52 GMT-0600 (Central Standard Time)","Sun Nov 01 2020 10:18:50 GMT-0600 (Central Standard Time)","Mozilla/5.0 (Windows NT 6.2; Win64; x64; rv:82.0) Gecko/20100101 Firefox/82.0",77,"[0.9, 0.5, 0.1]","[0.8, 0.4, 0.2]","[u'black', u'blue', u'red']","[u'left', u'middle', u'right']","[0.9, 0.5, 0.1]","[u'low', u'medium', u'high']","blue",50,"middle","medium","False","False",60,4700,NA
"AK4P9U9NS9DQF","Sun Nov 01 2020 10:11:52 GMT-0600 (Central Standard Time)","Sun Nov 01 2020 10:18:50 GMT-0600 (Central Standard Time)","Mozilla/5.0 (Windows NT 6.2; Win64; x64; rv:82.0) Gecko/20100101 Firefox/82.0",78,"[0.9, 0.5, 0.1]","[0.8, 0.4, 0.2]","[u'black', u'blue', u'red']","[u'left', u'middle', u'right']","[0.9, 0.5, 0.1]","[u'low', u'medium', u'high']","black",49,"left","low","False","False",82,4650,NA
"AK4P9U9NS9DQF","Sun Nov 01 2020 10:11:52 GMT-0600 (Central Standard Time)","Sun Nov 01 2020 10:18:50 GMT-0600 (Central Standard Time)","Mozilla/5.0 (Windows NT 6.2; Win64; x64; rv:82.0) Gecko/20100101 Firefox/82.0",79,"[0.9, 0.5, 0.1]","[0.8, 0.4, 0.2]","[u'black', u'blue', u'red']","[u'left', u'middle', u'right']","[0.9, 0.5, 0.1]","[u'low', u'medium', u'high']","red",51,"right","high","True","False",136,4750,NA
"AK4P9U9NS9DQF","Sun Nov 01 2020 10:11:52 GMT-0600 (Central Standard Time)","Sun Nov 01 2020 10:18:50 GMT-0600 (Central Standard Time)","Mozilla/5.0 (Windows NT 6.2; Win64; x64; rv:82.0) Gecko/20100101 Firefox/82.0",80,"[0.9, 0.5, 0.1]","[0.8, 0.4, 0.2]","[u'black', u'blue', u'red']","[u'left', u'middle', u'right']","[0.9, 0.5, 0.1]","[u'low', u'medium', u'high']","red",51,"right","high","True","False",86,4850,NA
"AK4P9U9NS9DQF","Sun Nov 01 2020 10:11:52 GMT-0600 (Central Standard Time)","Sun Nov 01 2020 10:18:50 GMT-0600 (Central Standard Time)","Mozilla/5.0 (Windows NT 6.2; Win64; x64; rv:82.0) Gecko/20100101 Firefox/82.0",81,"[0.9, 0.5, 0.1]","[0.8, 0.4, 0.2]","[u'black', u'blue', u'red']","[u'left', u'middle', u'right']","[0.8, 0.4, 0.2]","[u'high', u'medium', u'low']","blue",50,"middle","medium","True","False",542,4950,NA
"AK4P9U9NS9DQF","Sun Nov 01 2020 10:11:52 GMT-0600 (Central Standard Time)","Sun Nov 01 2020 10:18:50 GMT-0600 (Central Standard Time)","Mozilla/5.0 (Windows NT 6.2; Win64; x64; rv:82.0) Gecko/20100101 Firefox/82.0",82,"[0.9, 0.5, 0.1]","[0.8, 0.4, 0.2]","[u'black', u'blue', u'red']","[u'left', u'middle', u'right']","[0.8, 0.4, 0.2]","[u'high', u'medium', u'low']","blue",50,"middle","medium","False","False",135,4900,NA
"AK4P9U9NS9DQF","Sun Nov 01 2020 10:11:52 GMT-0600 (Central Standard Time)","Sun Nov 01 2020 10:18:50 GMT-0600 (Central Standard Time)","Mozilla/5.0 (Windows NT 6.2; Win64; x64; rv:82.0) Gecko/20100101 Firefox/82.0",83,"[0.9, 0.5, 0.1]","[0.8, 0.4, 0.2]","[u'black', u'blue', u'red']","[u'left', u'middle', u'right']","[0.8, 0.4, 0.2]","[u'high', u'medium', u'low']","red",51,"right","low","False","False",223,4850,NA
"AK4P9U9NS9DQF","Sun Nov 01 2020 10:11:52 GMT-0600 (Central Standard Time)","Sun Nov 01 2020 10:18:50 GMT-0600 (Central Standard Time)","Mozilla/5.0 (Windows NT 6.2; Win64; x64; rv:82.0) Gecko/20100101 Firefox/82.0",84,"[0.9, 0.5, 0.1]","[0.8, 0.4, 0.2]","[u'black', u'blue', u'red']","[u'left', u'middle', u'right']","[0.8, 0.4, 0.2]","[u'high', u'medium', u'low']","black",49,"left","high","True","False",185,4950,NA
"AK4P9U9NS9DQF","Sun Nov 01 2020 10:11:52 GMT-0600 (Central Standard Time)","Sun Nov 01 2020 10:18:50 GMT-0600 (Central Standard Time)","Mozilla/5.0 (Windows NT 6.2; Win64; x64; rv:82.0) Gecko/20100101 Firefox/82.0",85,"[0.9, 0.5, 0.1]","[0.8, 0.4, 0.2]","[u'black', u'blue', u'red']","[u'left', u'middle', u'right']","[0.8, 0.4, 0.2]","[u'high', u'medium', u'low']","black",49,"left","high","True","False",136,5050,NA
"AK4P9U9NS9DQF","Sun Nov 01 2020 10:11:52 GMT-0600 (Central Standard Time)","Sun Nov 01 2020 10:18:50 GMT-0600 (Central Standard Time)","Mozilla/5.0 (Windows NT 6.2; Win64; x64; rv:82.0) Gecko/20100101 Firefox/82.0",86,"[0.9, 0.5, 0.1]","[0.8, 0.4, 0.2]","[u'black', u'blue', u'red']","[u'left', u'middle', u'right']","[0.8, 0.4, 0.2]","[u'high', u'medium', u'low']","black",49,"left","high","True","False",208,5150,NA
"AK4P9U9NS9DQF","Sun Nov 01 2020 10:11:52 GMT-0600 (Central Standard Time)","Sun Nov 01 2020 10:18:50 GMT-0600 (Central Standard Time)","Mozilla/5.0 (Windows NT 6.2; Win64; x64; rv:82.0) Gecko/20100101 Firefox/82.0",87,"[0.9, 0.5, 0.1]","[0.8, 0.4, 0.2]","[u'black', u'blue', u'red']","[u'left', u'middle', u'right']","[0.8, 0.4, 0.2]","[u'high', u'medium', u'low']","black",49,"left","high","True","False",186,5250,NA
"AK4P9U9NS9DQF","Sun Nov 01 2020 10:11:52 GMT-0600 (Central Standard Time)","Sun Nov 01 2020 10:18:50 GMT-0600 (Central Standard Time)","Mozilla/5.0 (Windows NT 6.2; Win64; x64; rv:82.0) Gecko/20100101 Firefox/82.0",88,"[0.9, 0.5, 0.1]","[0.8, 0.4, 0.2]","[u'black', u'blue', u'red']","[u'left', u'middle', u'right']","[0.8, 0.4, 0.2]","[u'high', u'medium', u'low']","black",49,"left","high","True","False",74,5350,NA
"AK4P9U9NS9DQF","Sun Nov 01 2020 10:11:52 GMT-0600 (Central Standard Time)","Sun Nov 01 2020 10:18:50 GMT-0600 (Central Standard Time)","Mozilla/5.0 (Windows NT 6.2; Win64; x64; rv:82.0) Gecko/20100101 Firefox/82.0",89,"[0.9, 0.5, 0.1]","[0.8, 0.4, 0.2]","[u'black', u'blue', u'red']","[u'left', u'middle', u'right']","[0.8, 0.4, 0.2]","[u'high', u'medium', u'low']","black",49,"left","high","True","False",319,5450,NA
"AK4P9U9NS9DQF","Sun Nov 01 2020 10:11:52 GMT-0600 (Central Standard Time)","Sun Nov 01 2020 10:18:50 GMT-0600 (Central Standard Time)","Mozilla/5.0 (Windows NT 6.2; Win64; x64; rv:82.0) Gecko/20100101 Firefox/82.0",90,"[0.9, 0.5, 0.1]","[0.8, 0.4, 0.2]","[u'black', u'blue', u'red']","[u'left', u'middle', u'right']","[0.8, 0.4, 0.2]","[u'high', u'medium', u'low']","black",49,"left","high","True","False",298,5550,NA
"AK4P9U9NS9DQF","Sun Nov 01 2020 10:11:52 GMT-0600 (Central Standard Time)","Sun Nov 01 2020 10:18:50 GMT-0600 (Central Standard Time)","Mozilla/5.0 (Windows NT 6.2; Win64; x64; rv:82.0) Gecko/20100101 Firefox/82.0",91,"[0.9, 0.5, 0.1]","[0.8, 0.4, 0.2]","[u'black', u'blue', u'red']","[u'left', u'middle', u'right']","[0.8, 0.4, 0.2]","[u'high', u'medium', u'low']","black",49,"left","high","False","False",294,5500,NA
"AK4P9U9NS9DQF","Sun Nov 01 2020 10:11:52 GMT-0600 (Central Standard Time)","Sun Nov 01 2020 10:18:50 GMT-0600 (Central Standard Time)","Mozilla/5.0 (Windows NT 6.2; Win64; x64; rv:82.0) Gecko/20100101 Firefox/82.0",92,"[0.9, 0.5, 0.1]","[0.8, 0.4, 0.2]","[u'black', u'blue', u'red']","[u'left', u'middle', u'right']","[0.8, 0.4, 0.2]","[u'high', u'medium', u'low']","blue",50,"middle","medium","True","False",96,5600,NA
"AK4P9U9NS9DQF","Sun Nov 01 2020 10:11:52 GMT-0600 (Central Standard Time)","Sun Nov 01 2020 10:18:50 GMT-0600 (Central Standard Time)","Mozilla/5.0 (Windows NT 6.2; Win64; x64; rv:82.0) Gecko/20100101 Firefox/82.0",93,"[0.9, 0.5, 0.1]","[0.8, 0.4, 0.2]","[u'black', u'blue', u'red']","[u'left', u'middle', u'right']","[0.8, 0.4, 0.2]","[u'high', u'medium', u'low']","blue",50,"middle","medium","False","False",159,5550,NA
"AK4P9U9NS9DQF","Sun Nov 01 2020 10:11:52 GMT-0600 (Central Standard Time)","Sun Nov 01 2020 10:18:50 GMT-0600 (Central Standard Time)","Mozilla/5.0 (Windows NT 6.2; Win64; x64; rv:82.0) Gecko/20100101 Firefox/82.0",94,"[0.9, 0.5, 0.1]","[0.8, 0.4, 0.2]","[u'black', u'blue', u'red']","[u'left', u'middle', u'right']","[0.8, 0.4, 0.2]","[u'high', u'medium', u'low']","red",51,"right","low","False","False",143,5500,NA
"AK4P9U9NS9DQF","Sun Nov 01 2020 10:11:52 GMT-0600 (Central Standard Time)","Sun Nov 01 2020 10:18:50 GMT-0600 (Central Standard Time)","Mozilla/5.0 (Windows NT 6.2; Win64; x64; rv:82.0) Gecko/20100101 Firefox/82.0",95,"[0.9, 0.5, 0.1]","[0.8, 0.4, 0.2]","[u'black', u'blue', u'red']","[u'left', u'middle', u'right']","[0.8, 0.4, 0.2]","[u'high', u'medium', u'low']","black",49,"left","high","True","False",447,5600,NA
"AK4P9U9NS9DQF","Sun Nov 01 2020 10:11:52 GMT-0600 (Central Standard Time)","Sun Nov 01 2020 10:18:50 GMT-0600 (Central Standard Time)","Mozilla/5.0 (Windows NT 6.2; Win64; x64; rv:82.0) Gecko/20100101 Firefox/82.0",96,"[0.9, 0.5, 0.1]","[0.8, 0.4, 0.2]","[u'black', u'blue', u'red']","[u'left', u'middle', u'right']","[0.8, 0.4, 0.2]","[u'high', u'medium', u'low']","black",49,"left","high","True","False",180,5700,NA
"AK4P9U9NS9DQF","Sun Nov 01 2020 10:11:52 GMT-0600 (Central Standard Time)","Sun Nov 01 2020 10:18:50 GMT-0600 (Central Standard Time)","Mozilla/5.0 (Windows NT 6.2; Win64; x64; rv:82.0) Gecko/20100101 Firefox/82.0",97,"[0.9, 0.5, 0.1]","[0.8, 0.4, 0.2]","[u'black', u'blue', u'red']","[u'left', u'middle', u'right']","[0.8, 0.4, 0.2]","[u'high', u'medium', u'low']","black",49,"left","high","True","False",268,5800,NA
"AK4P9U9NS9DQF","Sun Nov 01 2020 10:11:52 GMT-0600 (Central Standard Time)","Sun Nov 01 2020 10:18:50 GMT-0600 (Central Standard Time)","Mozilla/5.0 (Windows NT 6.2; Win64; x64; rv:82.0) Gecko/20100101 Firefox/82.0",98,"[0.9, 0.5, 0.1]","[0.8, 0.4, 0.2]","[u'black', u'blue', u'red']","[u'left', u'middle', u'right']","[0.8, 0.4, 0.2]","[u'high', u'medium', u'low']","black",49,"left","high","True","False",279,5900,NA
"AK4P9U9NS9DQF","Sun Nov 01 2020 10:11:52 GMT-0600 (Central Standard Time)","Sun Nov 01 2020 10:18:50 GMT-0600 (Central Standard Time)","Mozilla/5.0 (Windows NT 6.2; Win64; x64; rv:82.0) Gecko/20100101 Firefox/82.0",99,"[0.9, 0.5, 0.1]","[0.8, 0.4, 0.2]","[u'black', u'blue', u'red']","[u'left', u'middle', u'right']","[0.8, 0.4, 0.2]","[u'high', u'medium', u'low']","black",49,"left","high","True","False",202,6000,NA
"AK4P9U9NS9DQF","Sun Nov 01 2020 10:11:52 GMT-0600 (Central Standard Time)","Sun Nov 01 2020 10:18:50 GMT-0600 (Central Standard Time)","Mozilla/5.0 (Windows NT 6.2; Win64; x64; rv:82.0) Gecko/20100101 Firefox/82.0",100,"[0.9, 0.5, 0.1]","[0.8, 0.4, 0.2]","[u'black', u'blue', u'red']","[u'left', u'middle', u'right']","[0.8, 0.4, 0.2]","[u'high', u'medium', u'low']","black",49,"left","high","True","False",242,6100,NA
"AK4P9U9NS9DQF","Sun Nov 01 2020 10:11:52 GMT-0600 (Central Standard Time)","Sun Nov 01 2020 10:18:50 GMT-0600 (Central Standard Time)","Mozilla/5.0 (Windows NT 6.2; Win64; x64; rv:82.0) Gecko/20100101 Firefox/82.0",101,"[0.9, 0.5, 0.1]","[0.8, 0.4, 0.2]","[u'black', u'blue', u'red']","[u'left', u'middle', u'right']","[0.8, 0.4, 0.2]","[u'high', u'medium', u'low']","black",49,"left","high","True","False",277,6200,NA
"AK4P9U9NS9DQF","Sun Nov 01 2020 10:11:52 GMT-0600 (Central Standard Time)","Sun Nov 01 2020 10:18:50 GMT-0600 (Central Standard Time)","Mozilla/5.0 (Windows NT 6.2; Win64; x64; rv:82.0) Gecko/20100101 Firefox/82.0",102,"[0.9, 0.5, 0.1]","[0.8, 0.4, 0.2]","[u'black', u'blue', u'red']","[u'left', u'middle', u'right']","[0.8, 0.4, 0.2]","[u'high', u'medium', u'low']","black",49,"left","high","True","False",207,6300,NA
"AK4P9U9NS9DQF","Sun Nov 01 2020 10:11:52 GMT-0600 (Central Standard Time)","Sun Nov 01 2020 10:18:50 GMT-0600 (Central Standard Time)","Mozilla/5.0 (Windows NT 6.2; Win64; x64; rv:82.0) Gecko/20100101 Firefox/82.0",103,"[0.9, 0.5, 0.1]","[0.8, 0.4, 0.2]","[u'black', u'blue', u'red']","[u'left', u'middle', u'right']","[0.8, 0.4, 0.2]","[u'high', u'medium', u'low']","black",49,"left","high","True","True",264,6400,NA
"AK4P9U9NS9DQF","Sun Nov 01 2020 10:11:52 GMT-0600 (Central Standard Time)","Sun Nov 01 2020 10:18:50 GMT-0600 (Central Standard Time)","Mozilla/5.0 (Windows NT 6.2; Win64; x64; rv:82.0) Gecko/20100101 Firefox/82.0",104,"[0.9, 0.5, 0.1]","[0.8, 0.4, 0.2]","[u'black', u'blue', u'red']","[u'left', u'middle', u'right']","[0.8, 0.4, 0.2]","[u'medium', u'high', u'low']","black",49,"left","medium","False","False",194,6350,NA
"AK4P9U9NS9DQF","Sun Nov 01 2020 10:11:52 GMT-0600 (Central Standard Time)","Sun Nov 01 2020 10:18:50 GMT-0600 (Central Standard Time)","Mozilla/5.0 (Windows NT 6.2; Win64; x64; rv:82.0) Gecko/20100101 Firefox/82.0",105,"[0.9, 0.5, 0.1]","[0.8, 0.4, 0.2]","[u'black', u'blue', u'red']","[u'left', u'middle', u'right']","[0.8, 0.4, 0.2]","[u'medium', u'high', u'low']","blue",50,"middle","high","True","False",91,6450,NA
"AK4P9U9NS9DQF","Sun Nov 01 2020 10:11:52 GMT-0600 (Central Standard Time)","Sun Nov 01 2020 10:18:50 GMT-0600 (Central Standard Time)","Mozilla/5.0 (Windows NT 6.2; Win64; x64; rv:82.0) Gecko/20100101 Firefox/82.0",106,"[0.9, 0.5, 0.1]","[0.8, 0.4, 0.2]","[u'black', u'blue', u'red']","[u'left', u'middle', u'right']","[0.8, 0.4, 0.2]","[u'medium', u'high', u'low']","blue",50,"middle","high","True","False",178,6550,NA
"AK4P9U9NS9DQF","Sun Nov 01 2020 10:11:52 GMT-0600 (Central Standard Time)","Sun Nov 01 2020 10:18:50 GMT-0600 (Central Standard Time)","Mozilla/5.0 (Windows NT 6.2; Win64; x64; rv:82.0) Gecko/20100101 Firefox/82.0",107,"[0.9, 0.5, 0.1]","[0.8, 0.4, 0.2]","[u'black', u'blue', u'red']","[u'left', u'middle', u'right']","[0.8, 0.4, 0.2]","[u'medium', u'high', u'low']","blue",50,"middle","high","True","False",90,6650,NA
"AK4P9U9NS9DQF","Sun Nov 01 2020 10:11:52 GMT-0600 (Central Standard Time)","Sun Nov 01 2020 10:18:50 GMT-0600 (Central Standard Time)","Mozilla/5.0 (Windows NT 6.2; Win64; x64; rv:82.0) Gecko/20100101 Firefox/82.0",108,"[0.9, 0.5, 0.1]","[0.8, 0.4, 0.2]","[u'black', u'blue', u'red']","[u'left', u'middle', u'right']","[0.8, 0.4, 0.2]","[u'medium', u'high', u'low']","blue",50,"middle","high","False","False",104,6600,NA
"AK4P9U9NS9DQF","Sun Nov 01 2020 10:11:52 GMT-0600 (Central Standard Time)","Sun Nov 01 2020 10:18:50 GMT-0600 (Central Standard Time)","Mozilla/5.0 (Windows NT 6.2; Win64; x64; rv:82.0) Gecko/20100101 Firefox/82.0",109,"[0.9, 0.5, 0.1]","[0.8, 0.4, 0.2]","[u'black', u'blue', u'red']","[u'left', u'middle', u'right']","[0.8, 0.4, 0.2]","[u'medium', u'high', u'low']","red",51,"right","low","False","False",142,6550,NA
"AK4P9U9NS9DQF","Sun Nov 01 2020 10:11:52 GMT-0600 (Central Standard Time)","Sun Nov 01 2020 10:18:50 GMT-0600 (Central Standard Time)","Mozilla/5.0 (Windows NT 6.2; Win64; x64; rv:82.0) Gecko/20100101 Firefox/82.0",110,"[0.9, 0.5, 0.1]","[0.8, 0.4, 0.2]","[u'black', u'blue', u'red']","[u'left', u'middle', u'right']","[0.8, 0.4, 0.2]","[u'medium', u'high', u'low']","black",49,"left","medium","False","False",205,6500,NA
"AK4P9U9NS9DQF","Sun Nov 01 2020 10:11:52 GMT-0600 (Central Standard Time)","Sun Nov 01 2020 10:18:50 GMT-0600 (Central Standard Time)","Mozilla/5.0 (Windows NT 6.2; Win64; x64; rv:82.0) Gecko/20100101 Firefox/82.0",111,"[0.9, 0.5, 0.1]","[0.8, 0.4, 0.2]","[u'black', u'blue', u'red']","[u'left', u'middle', u'right']","[0.8, 0.4, 0.2]","[u'medium', u'high', u'low']","red",51,"right","low","False","False",129,6450,NA
"AK4P9U9NS9DQF","Sun Nov 01 2020 10:11:52 GMT-0600 (Central Standard Time)","Sun Nov 01 2020 10:18:50 GMT-0600 (Central Standard Time)","Mozilla/5.0 (Windows NT 6.2; Win64; x64; rv:82.0) Gecko/20100101 Firefox/82.0",112,"[0.9, 0.5, 0.1]","[0.8, 0.4, 0.2]","[u'black', u'blue', u'red']","[u'left', u'middle', u'right']","[0.8, 0.4, 0.2]","[u'medium', u'high', u'low']","blue",50,"middle","high","True","False",222,6550,NA
"AK4P9U9NS9DQF","Sun Nov 01 2020 10:11:52 GMT-0600 (Central Standard Time)","Sun Nov 01 2020 10:18:50 GMT-0600 (Central Standard Time)","Mozilla/5.0 (Windows NT 6.2; Win64; x64; rv:82.0) Gecko/20100101 Firefox/82.0",113,"[0.9, 0.5, 0.1]","[0.8, 0.4, 0.2]","[u'black', u'blue', u'red']","[u'left', u'middle', u'right']","[0.8, 0.4, 0.2]","[u'medium', u'high', u'low']","blue",50,"middle","high","True","False",144,6650,NA
"AK4P9U9NS9DQF","Sun Nov 01 2020 10:11:52 GMT-0600 (Central Standard Time)","Sun Nov 01 2020 10:18:50 GMT-0600 (Central Standard Time)","Mozilla/5.0 (Windows NT 6.2; Win64; x64; rv:82.0) Gecko/20100101 Firefox/82.0",114,"[0.9, 0.5, 0.1]","[0.8, 0.4, 0.2]","[u'black', u'blue', u'red']","[u'left', u'middle', u'right']","[0.8, 0.4, 0.2]","[u'medium', u'high', u'low']","blue",50,"middle","high","True","False",145,6750,NA
"AK4P9U9NS9DQF","Sun Nov 01 2020 10:11:52 GMT-0600 (Central Standard Time)","Sun Nov 01 2020 10:18:50 GMT-0600 (Central Standard Time)","Mozilla/5.0 (Windows NT 6.2; Win64; x64; rv:82.0) Gecko/20100101 Firefox/82.0",115,"[0.9, 0.5, 0.1]","[0.8, 0.4, 0.2]","[u'black', u'blue', u'red']","[u'left', u'middle', u'right']","[0.8, 0.4, 0.2]","[u'medium', u'high', u'low']","blue",50,"middle","high","True","False",127,6850,NA
"AK4P9U9NS9DQF","Sun Nov 01 2020 10:11:52 GMT-0600 (Central Standard Time)","Sun Nov 01 2020 10:18:50 GMT-0600 (Central Standard Time)","Mozilla/5.0 (Windows NT 6.2; Win64; x64; rv:82.0) Gecko/20100101 Firefox/82.0",116,"[0.9, 0.5, 0.1]","[0.8, 0.4, 0.2]","[u'black', u'blue', u'red']","[u'left', u'middle', u'right']","[0.8, 0.4, 0.2]","[u'medium', u'high', u'low']","blue",50,"middle","high","True","False",159,6950,NA
"AK4P9U9NS9DQF","Sun Nov 01 2020 10:11:52 GMT-0600 (Central Standard Time)","Sun Nov 01 2020 10:18:50 GMT-0600 (Central Standard Time)","Mozilla/5.0 (Windows NT 6.2; Win64; x64; rv:82.0) Gecko/20100101 Firefox/82.0",117,"[0.9, 0.5, 0.1]","[0.8, 0.4, 0.2]","[u'black', u'blue', u'red']","[u'left', u'middle', u'right']","[0.8, 0.4, 0.2]","[u'medium', u'high', u'low']","blue",50,"middle","high","True","False",198,7050,NA
"AK4P9U9NS9DQF","Sun Nov 01 2020 10:11:52 GMT-0600 (Central Standard Time)","Sun Nov 01 2020 10:18:50 GMT-0600 (Central Standard Time)","Mozilla/5.0 (Windows NT 6.2; Win64; x64; rv:82.0) Gecko/20100101 Firefox/82.0",118,"[0.9, 0.5, 0.1]","[0.8, 0.4, 0.2]","[u'black', u'blue', u'red']","[u'left', u'middle', u'right']","[0.8, 0.4, 0.2]","[u'medium', u'high', u'low']","blue",50,"middle","high","True","False",199,7150,NA
"AK4P9U9NS9DQF","Sun Nov 01 2020 10:11:52 GMT-0600 (Central Standard Time)","Sun Nov 01 2020 10:18:50 GMT-0600 (Central Standard Time)","Mozilla/5.0 (Windows NT 6.2; Win64; x64; rv:82.0) Gecko/20100101 Firefox/82.0",119,"[0.9, 0.5, 0.1]","[0.8, 0.4, 0.2]","[u'black', u'blue', u'red']","[u'left', u'middle', u'right']","[0.8, 0.4, 0.2]","[u'medium', u'high', u'low']","blue",50,"middle","high","True","False",64,7250,NA
"AK4P9U9NS9DQF","Sun Nov 01 2020 10:11:52 GMT-0600 (Central Standard Time)","Sun Nov 01 2020 10:18:50 GMT-0600 (Central Standard Time)","Mozilla/5.0 (Windows NT 6.2; Win64; x64; rv:82.0) Gecko/20100101 Firefox/82.0",120,"[0.9, 0.5, 0.1]","[0.8, 0.4, 0.2]","[u'black', u'blue', u'red']","[u'left', u'middle', u'right']","[0.8, 0.4, 0.2]","[u'medium', u'high', u'low']","blue",50,"middle","high","True","True",38,7350,NA
"AK4P9U9NS9DQF","Sun Nov 01 2020 10:11:52 GMT-0600 (Central Standard Time)","Sun Nov 01 2020 10:18:50 GMT-0600 (Central Standard Time)","Mozilla/5.0 (Windows NT 6.2; Win64; x64; rv:82.0) Gecko/20100101 Firefox/82.0",121,"[0.9, 0.5, 0.1]","[0.8, 0.4, 0.2]","[u'black', u'blue', u'red']","[u'left', u'middle', u'right']","[0.8, 0.4, 0.2]","[u'medium', u'low', u'high']","blue",50,"middle","low","False","False",290,7300,NA
"AK4P9U9NS9DQF","Sun Nov 01 2020 10:11:52 GMT-0600 (Central Standard Time)","Sun Nov 01 2020 10:18:50 GMT-0600 (Central Standard Time)","Mozilla/5.0 (Windows NT 6.2; Win64; x64; rv:82.0) Gecko/20100101 Firefox/82.0",122,"[0.9, 0.5, 0.1]","[0.8, 0.4, 0.2]","[u'black', u'blue', u'red']","[u'left', u'middle', u'right']","[0.8, 0.4, 0.2]","[u'medium', u'low', u'high']","red",51,"right","high","False","False",204,7250,NA
"AK4P9U9NS9DQF","Sun Nov 01 2020 10:11:52 GMT-0600 (Central Standard Time)","Sun Nov 01 2020 10:18:50 GMT-0600 (Central Standard Time)","Mozilla/5.0 (Windows NT 6.2; Win64; x64; rv:82.0) Gecko/20100101 Firefox/82.0",123,"[0.9, 0.5, 0.1]","[0.8, 0.4, 0.2]","[u'black', u'blue', u'red']","[u'left', u'middle', u'right']","[0.8, 0.4, 0.2]","[u'medium', u'low', u'high']","black",49,"left","medium","True","False",294,7350,NA
"AK4P9U9NS9DQF","Sun Nov 01 2020 10:11:52 GMT-0600 (Central Standard Time)","Sun Nov 01 2020 10:18:50 GMT-0600 (Central Standard Time)","Mozilla/5.0 (Windows NT 6.2; Win64; x64; rv:82.0) Gecko/20100101 Firefox/82.0",124,"[0.9, 0.5, 0.1]","[0.8, 0.4, 0.2]","[u'black', u'blue', u'red']","[u'left', u'middle', u'right']","[0.8, 0.4, 0.2]","[u'medium', u'low', u'high']","black",49,"left","medium","False","False",216,7300,NA
"AK4P9U9NS9DQF","Sun Nov 01 2020 10:11:52 GMT-0600 (Central Standard Time)","Sun Nov 01 2020 10:18:50 GMT-0600 (Central Standard Time)","Mozilla/5.0 (Windows NT 6.2; Win64; x64; rv:82.0) Gecko/20100101 Firefox/82.0",125,"[0.9, 0.5, 0.1]","[0.8, 0.4, 0.2]","[u'black', u'blue', u'red']","[u'left', u'middle', u'right']","[0.8, 0.4, 0.2]","[u'medium', u'low', u'high']","red",51,"right","high","True","False",105,7400,NA
"AK4P9U9NS9DQF","Sun Nov 01 2020 10:11:52 GMT-0600 (Central Standard Time)","Sun Nov 01 2020 10:18:50 GMT-0600 (Central Standard Time)","Mozilla/5.0 (Windows NT 6.2; Win64; x64; rv:82.0) Gecko/20100101 Firefox/82.0",126,"[0.9, 0.5, 0.1]","[0.8, 0.4, 0.2]","[u'black', u'blue', u'red']","[u'left', u'middle', u'right']","[0.8, 0.4, 0.2]","[u'medium', u'low', u'high']","red",51,"right","high","True","False",72,7500,NA
"AK4P9U9NS9DQF","Sun Nov 01 2020 10:11:52 GMT-0600 (Central Standard Time)","Sun Nov 01 2020 10:18:50 GMT-0600 (Central Standard Time)","Mozilla/5.0 (Windows NT 6.2; Win64; x64; rv:82.0) Gecko/20100101 Firefox/82.0",127,"[0.9, 0.5, 0.1]","[0.8, 0.4, 0.2]","[u'black', u'blue', u'red']","[u'left', u'middle', u'right']","[0.8, 0.4, 0.2]","[u'medium', u'low', u'high']","red",51,"right","high","True","False",149,7600,NA
"AK4P9U9NS9DQF","Sun Nov 01 2020 10:11:52 GMT-0600 (Central Standard Time)","Sun Nov 01 2020 10:18:50 GMT-0600 (Central Standard Time)","Mozilla/5.0 (Windows NT 6.2; Win64; x64; rv:82.0) Gecko/20100101 Firefox/82.0",128,"[0.9, 0.5, 0.1]","[0.8, 0.4, 0.2]","[u'black', u'blue', u'red']","[u'left', u'middle', u'right']","[0.8, 0.4, 0.2]","[u'medium', u'low', u'high']","red",51,"right","high","True","False",70,7700,NA
"AK4P9U9NS9DQF","Sun Nov 01 2020 10:11:52 GMT-0600 (Central Standard Time)","Sun Nov 01 2020 10:18:50 GMT-0600 (Central Standard Time)","Mozilla/5.0 (Windows NT 6.2; Win64; x64; rv:82.0) Gecko/20100101 Firefox/82.0",129,"[0.9, 0.5, 0.1]","[0.8, 0.4, 0.2]","[u'black', u'blue', u'red']","[u'left', u'middle', u'right']","[0.8, 0.4, 0.2]","[u'medium', u'low', u'high']","red",51,"right","high","True","False",106,7800,NA
"AK4P9U9NS9DQF","Sun Nov 01 2020 10:11:52 GMT-0600 (Central Standard Time)","Sun Nov 01 2020 10:18:50 GMT-0600 (Central Standard Time)","Mozilla/5.0 (Windows NT 6.2; Win64; x64; rv:82.0) Gecko/20100101 Firefox/82.0",130,"[0.9, 0.5, 0.1]","[0.8, 0.4, 0.2]","[u'black', u'blue', u'red']","[u'left', u'middle', u'right']","[0.8, 0.4, 0.2]","[u'medium', u'low', u'high']","red",51,"right","high","False","False",1,7750,NA
"AK4P9U9NS9DQF","Sun Nov 01 2020 10:11:52 GMT-0600 (Central Standard Time)","Sun Nov 01 2020 10:18:50 GMT-0600 (Central Standard Time)","Mozilla/5.0 (Windows NT 6.2; Win64; x64; rv:82.0) Gecko/20100101 Firefox/82.0",131,"[0.9, 0.5, 0.1]","[0.8, 0.4, 0.2]","[u'black', u'blue', u'red']","[u'left', u'middle', u'right']","[0.8, 0.4, 0.2]","[u'medium', u'low', u'high']","blue",50,"middle","low","False","False",62,7700,NA
"AK4P9U9NS9DQF","Sun Nov 01 2020 10:11:52 GMT-0600 (Central Standard Time)","Sun Nov 01 2020 10:18:50 GMT-0600 (Central Standard Time)","Mozilla/5.0 (Windows NT 6.2; Win64; x64; rv:82.0) Gecko/20100101 Firefox/82.0",132,"[0.9, 0.5, 0.1]","[0.8, 0.4, 0.2]","[u'black', u'blue', u'red']","[u'left', u'middle', u'right']","[0.8, 0.4, 0.2]","[u'medium', u'low', u'high']","black",49,"left","medium","False","False",140,7650,NA
"AK4P9U9NS9DQF","Sun Nov 01 2020 10:11:52 GMT-0600 (Central Standard Time)","Sun Nov 01 2020 10:18:50 GMT-0600 (Central Standard Time)","Mozilla/5.0 (Windows NT 6.2; Win64; x64; rv:82.0) Gecko/20100101 Firefox/82.0",133,"[0.9, 0.5, 0.1]","[0.8, 0.4, 0.2]","[u'black', u'blue', u'red']","[u'left', u'middle', u'right']","[0.8, 0.4, 0.2]","[u'medium', u'low', u'high']","blue",50,"middle","low","False","False",35,7600,NA
"AK4P9U9NS9DQF","Sun Nov 01 2020 10:11:52 GMT-0600 (Central Standard Time)","Sun Nov 01 2020 10:18:50 GMT-0600 (Central Standard Time)","Mozilla/5.0 (Windows NT 6.2; Win64; x64; rv:82.0) Gecko/20100101 Firefox/82.0",134,"[0.9, 0.5, 0.1]","[0.8, 0.4, 0.2]","[u'black', u'blue', u'red']","[u'left', u'middle', u'right']","[0.8, 0.4, 0.2]","[u'medium', u'low', u'high']","red",51,"right","high","True","False",71,7700,NA
"AK4P9U9NS9DQF","Sun Nov 01 2020 10:11:52 GMT-0600 (Central Standard Time)","Sun Nov 01 2020 10:18:50 GMT-0600 (Central Standard Time)","Mozilla/5.0 (Windows NT 6.2; Win64; x64; rv:82.0) Gecko/20100101 Firefox/82.0",135,"[0.9, 0.5, 0.1]","[0.8, 0.4, 0.2]","[u'black', u'blue', u'red']","[u'left', u'middle', u'right']","[0.8, 0.4, 0.2]","[u'medium', u'low', u'high']","red",51,"right","high","True","False",29,7800,NA
"AK4P9U9NS9DQF","Sun Nov 01 2020 10:11:52 GMT-0600 (Central Standard Time)","Sun Nov 01 2020 10:18:50 GMT-0600 (Central Standard Time)","Mozilla/5.0 (Windows NT 6.2; Win64; x64; rv:82.0) Gecko/20100101 Firefox/82.0",136,"[0.9, 0.5, 0.1]","[0.8, 0.4, 0.2]","[u'black', u'blue', u'red']","[u'left', u'middle', u'right']","[0.8, 0.4, 0.2]","[u'medium', u'low', u'high']","red",51,"right","high","True","False",138,7900,NA
"AK4P9U9NS9DQF","Sun Nov 01 2020 10:11:52 GMT-0600 (Central Standard Time)","Sun Nov 01 2020 10:18:50 GMT-0600 (Central Standard Time)","Mozilla/5.0 (Windows NT 6.2; Win64; x64; rv:82.0) Gecko/20100101 Firefox/82.0",137,"[0.9, 0.5, 0.1]","[0.8, 0.4, 0.2]","[u'black', u'blue', u'red']","[u'left', u'middle', u'right']","[0.8, 0.4, 0.2]","[u'medium', u'low', u'high']","red",51,"right","high","True","False",82,8000,NA
"AK4P9U9NS9DQF","Sun Nov 01 2020 10:11:52 GMT-0600 (Central Standard Time)","Sun Nov 01 2020 10:18:50 GMT-0600 (Central Standard Time)","Mozilla/5.0 (Windows NT 6.2; Win64; x64; rv:82.0) Gecko/20100101 Firefox/82.0",138,"[0.9, 0.5, 0.1]","[0.8, 0.4, 0.2]","[u'black', u'blue', u'red']","[u'left', u'middle', u'right']","[0.8, 0.4, 0.2]","[u'medium', u'low', u'high']","red",51,"right","high","False","False",105,7950,NA
"AK4P9U9NS9DQF","Sun Nov 01 2020 10:11:52 GMT-0600 (Central Standard Time)","Sun Nov 01 2020 10:18:50 GMT-0600 (Central Standard Time)","Mozilla/5.0 (Windows NT 6.2; Win64; x64; rv:82.0) Gecko/20100101 Firefox/82.0",139,"[0.9, 0.5, 0.1]","[0.8, 0.4, 0.2]","[u'black', u'blue', u'red']","[u'left', u'middle', u'right']","[0.8, 0.4, 0.2]","[u'medium', u'low', u'high']","black",49,"left","medium","False","False",239,7900,NA
"AK4P9U9NS9DQF","Sun Nov 01 2020 10:11:52 GMT-0600 (Central Standard Time)","Sun Nov 01 2020 10:18:50 GMT-0600 (Central Standard Time)","Mozilla/5.0 (Windows NT 6.2; Win64; x64; rv:82.0) Gecko/20100101 Firefox/82.0",140,"[0.9, 0.5, 0.1]","[0.8, 0.4, 0.2]","[u'black', u'blue', u'red']","[u'left', u'middle', u'right']","[0.8, 0.4, 0.2]","[u'medium', u'low', u'high']","blue",50,"middle","low","True","False",226,8000,NA
"AK4P9U9NS9DQF","Sun Nov 01 2020 10:11:52 GMT-0600 (Central Standard Time)","Sun Nov 01 2020 10:18:50 GMT-0600 (Central Standard Time)","Mozilla/5.0 (Windows NT 6.2; Win64; x64; rv:82.0) Gecko/20100101 Firefox/82.0",141,"[0.9, 0.5, 0.1]","[0.8, 0.4, 0.2]","[u'black', u'blue', u'red']","[u'left', u'middle', u'right']","[0.8, 0.4, 0.2]","[u'medium', u'low', u'high']","blue",50,"middle","low","False","False",130,7950,NA
"AK4P9U9NS9DQF","Sun Nov 01 2020 10:11:52 GMT-0600 (Central Standard Time)","Sun Nov 01 2020 10:18:50 GMT-0600 (Central Standard Time)","Mozilla/5.0 (Windows NT 6.2; Win64; x64; rv:82.0) Gecko/20100101 Firefox/82.0",142,"[0.9, 0.5, 0.1]","[0.8, 0.4, 0.2]","[u'black', u'blue', u'red']","[u'left', u'middle', u'right']","[0.8, 0.4, 0.2]","[u'medium', u'low', u'high']","black",49,"left","medium","True","False",106,8050,NA
"AK4P9U9NS9DQF","Sun Nov 01 2020 10:11:52 GMT-0600 (Central Standard Time)","Sun Nov 01 2020 10:18:50 GMT-0600 (Central Standard Time)","Mozilla/5.0 (Windows NT 6.2; Win64; x64; rv:82.0) Gecko/20100101 Firefox/82.0",143,"[0.9, 0.5, 0.1]","[0.8, 0.4, 0.2]","[u'black', u'blue', u'red']","[u'left', u'middle', u'right']","[0.8, 0.4, 0.2]","[u'medium', u'low', u'high']","black",49,"left","medium","False","False",111,8000,NA
"AK4P9U9NS9DQF","Sun Nov 01 2020 10:11:52 GMT-0600 (Central Standard Time)","Sun Nov 01 2020 10:18:50 GMT-0600 (Central Standard Time)","Mozilla/5.0 (Windows NT 6.2; Win64; x64; rv:82.0) Gecko/20100101 Firefox/82.0",144,"[0.9, 0.5, 0.1]","[0.8, 0.4, 0.2]","[u'black', u'blue', u'red']","[u'left', u'middle', u'right']","[0.8, 0.4, 0.2]","[u'medium', u'low', u'high']","red",51,"right","high","True","False",135,8100,NA
"AK4P9U9NS9DQF","Sun Nov 01 2020 10:11:52 GMT-0600 (Central Standard Time)","Sun Nov 01 2020 10:18:50 GMT-0600 (Central Standard Time)","Mozilla/5.0 (Windows NT 6.2; Win64; x64; rv:82.0) Gecko/20100101 Firefox/82.0",145,"[0.9, 0.5, 0.1]","[0.8, 0.4, 0.2]","[u'black', u'blue', u'red']","[u'left', u'middle', u'right']","[0.8, 0.4, 0.2]","[u'medium', u'low', u'high']","red",51,"right","high","False","False",133,8050,NA
"AK4P9U9NS9DQF","Sun Nov 01 2020 10:11:52 GMT-0600 (Central Standard Time)","Sun Nov 01 2020 10:18:50 GMT-0600 (Central Standard Time)","Mozilla/5.0 (Windows NT 6.2; Win64; x64; rv:82.0) Gecko/20100101 Firefox/82.0",146,"[0.9, 0.5, 0.1]","[0.8, 0.4, 0.2]","[u'black', u'blue', u'red']","[u'left', u'middle', u'right']","[0.8, 0.4, 0.2]","[u'medium', u'low', u'high']","blue",50,"middle","low","False","False",190,8000,NA
"AK4P9U9NS9DQF","Sun Nov 01 2020 10:11:52 GMT-0600 (Central Standard Time)","Sun Nov 01 2020 10:18:50 GMT-0600 (Central Standard Time)","Mozilla/5.0 (Windows NT 6.2; Win64; x64; rv:82.0) Gecko/20100101 Firefox/82.0",147,"[0.9, 0.5, 0.1]","[0.8, 0.4, 0.2]","[u'black', u'blue', u'red']","[u'left', u'middle', u'right']","[0.8, 0.4, 0.2]","[u'medium', u'low', u'high']","black",49,"left","medium","False","False",166,7950,NA
"AK4P9U9NS9DQF","Sun Nov 01 2020 10:11:52 GMT-0600 (Central Standard Time)","Sun Nov 01 2020 10:18:50 GMT-0600 (Central Standard Time)","Mozilla/5.0 (Windows NT 6.2; Win64; x64; rv:82.0) Gecko/20100101 Firefox/82.0",148,"[0.9, 0.5, 0.1]","[0.8, 0.4, 0.2]","[u'black', u'blue', u'red']","[u'left', u'middle', u'right']","[0.8, 0.4, 0.2]","[u'medium', u'low', u'high']","blue",50,"middle","low","False","False",134,7900,NA
"AK4P9U9NS9DQF","Sun Nov 01 2020 10:11:52 GMT-0600 (Central Standard Time)","Sun Nov 01 2020 10:18:50 GMT-0600 (Central Standard Time)","Mozilla/5.0 (Windows NT 6.2; Win64; x64; rv:82.0) Gecko/20100101 Firefox/82.0",149,"[0.9, 0.5, 0.1]","[0.8, 0.4, 0.2]","[u'black', u'blue', u'red']","[u'left', u'middle', u'right']","[0.8, 0.4, 0.2]","[u'medium', u'low', u'high']","red",51,"right","high","True","False",142,8000,NA
"AK4P9U9NS9DQF","Sun Nov 01 2020 10:11:52 GMT-0600 (Central Standard Time)","Sun Nov 01 2020 10:18:50 GMT-0600 (Central Standard Time)","Mozilla/5.0 (Windows NT 6.2; Win64; x64; rv:82.0) Gecko/20100101 Firefox/82.0",150,"[0.9, 0.5, 0.1]","[0.8, 0.4, 0.2]","[u'black', u'blue', u'red']","[u'left', u'middle', u'right']","[0.8, 0.4, 0.2]","[u'medium', u'low', u'high']","red",51,"right","high","False","False",77,7950,NA
"AK4P9U9NS9DQF","Sun Nov 01 2020 10:11:52 GMT-0600 (Central Standard Time)","Sun Nov 01 2020 10:18:50 GMT-0600 (Central Standard Time)","Mozilla/5.0 (Windows NT 6.2; Win64; x64; rv:82.0) Gecko/20100101 Firefox/82.0",151,"[0.9, 0.5, 0.1]","[0.8, 0.4, 0.2]","[u'black', u'blue', u'red']","[u'left', u'middle', u'right']","[0.8, 0.4, 0.2]","[u'medium', u'low', u'high']","black",49,"left","medium","True","False",234,8050,NA
"AK4P9U9NS9DQF","Sun Nov 01 2020 10:11:52 GMT-0600 (Central Standard Time)","Sun Nov 01 2020 10:18:50 GMT-0600 (Central Standard Time)","Mozilla/5.0 (Windows NT 6.2; Win64; x64; rv:82.0) Gecko/20100101 Firefox/82.0",152,"[0.9, 0.5, 0.1]","[0.8, 0.4, 0.2]","[u'black', u'blue', u'red']","[u'left', u'middle', u'right']","[0.8, 0.4, 0.2]","[u'medium', u'low', u'high']","red",51,"right","high","True","False",215,8150,NA
"AK4P9U9NS9DQF","Sun Nov 01 2020 10:11:52 GMT-0600 (Central Standard Time)","Sun Nov 01 2020 10:18:50 GMT-0600 (Central Standard Time)","Mozilla/5.0 (Windows NT 6.2; Win64; x64; rv:82.0) Gecko/20100101 Firefox/82.0",153,"[0.9, 0.5, 0.1]","[0.8, 0.4, 0.2]","[u'black', u'blue', u'red']","[u'left', u'middle', u'right']","[0.8, 0.4, 0.2]","[u'medium', u'low', u'high']","red",51,"right","high","False","False",142,8100,NA
"AK4P9U9NS9DQF","Sun Nov 01 2020 10:11:52 GMT-0600 (Central Standard Time)","Sun Nov 01 2020 10:18:50 GMT-0600 (Central Standard Time)","Mozilla/5.0 (Windows NT 6.2; Win64; x64; rv:82.0) Gecko/20100101 Firefox/82.0",154,"[0.9, 0.5, 0.1]","[0.8, 0.4, 0.2]","[u'black', u'blue', u'red']","[u'left', u'middle', u'right']","[0.8, 0.4, 0.2]","[u'medium', u'low', u'high']","black",49,"left","medium","False","False",183,8050,NA
"AK4P9U9NS9DQF","Sun Nov 01 2020 10:11:52 GMT-0600 (Central Standard Time)","Sun Nov 01 2020 10:18:50 GMT-0600 (Central Standard Time)","Mozilla/5.0 (Windows NT 6.2; Win64; x64; rv:82.0) Gecko/20100101 Firefox/82.0",155,"[0.9, 0.5, 0.1]","[0.8, 0.4, 0.2]","[u'black', u'blue', u'red']","[u'left', u'middle', u'right']","[0.8, 0.4, 0.2]","[u'medium', u'low', u'high']","blue",50,"middle","low","True","False",150,8150,NA
"AK4P9U9NS9DQF","Sun Nov 01 2020 10:11:52 GMT-0600 (Central Standard Time)","Sun Nov 01 2020 10:18:50 GMT-0600 (Central Standard Time)","Mozilla/5.0 (Windows NT 6.2; Win64; x64; rv:82.0) Gecko/20100101 Firefox/82.0",156,"[0.9, 0.5, 0.1]","[0.8, 0.4, 0.2]","[u'black', u'blue', u'red']","[u'left', u'middle', u'right']","[0.8, 0.4, 0.2]","[u'medium', u'low', u'high']","blue",50,"middle","low","False","False",62,8100,NA
"AK4P9U9NS9DQF","Sun Nov 01 2020 10:11:52 GMT-0600 (Central Standard Time)","Sun Nov 01 2020 10:18:50 GMT-0600 (Central Standard Time)","Mozilla/5.0 (Windows NT 6.2; Win64; x64; rv:82.0) Gecko/20100101 Firefox/82.0",157,"[0.9, 0.5, 0.1]","[0.8, 0.4, 0.2]","[u'black', u'blue', u'red']","[u'left', u'middle', u'right']","[0.8, 0.4, 0.2]","[u'medium', u'low', u'high']","black",49,"left","medium","False","False",172,8050,NA
"AK4P9U9NS9DQF","Sun Nov 01 2020 10:11:52 GMT-0600 (Central Standard Time)","Sun Nov 01 2020 10:18:50 GMT-0600 (Central Standard Time)","Mozilla/5.0 (Windows NT 6.2; Win64; x64; rv:82.0) Gecko/20100101 Firefox/82.0",158,"[0.9, 0.5, 0.1]","[0.8, 0.4, 0.2]","[u'black', u'blue', u'red']","[u'left', u'middle', u'right']","[0.8, 0.4, 0.2]","[u'medium', u'low', u'high']","red",51,"right","high","True","False",108,8150,NA
"AK4P9U9NS9DQF","Sun Nov 01 2020 10:11:52 GMT-0600 (Central Standard Time)","Sun Nov 01 2020 10:18:50 GMT-0600 (Central Standard Time)","Mozilla/5.0 (Windows NT 6.2; Win64; x64; rv:82.0) Gecko/20100101 Firefox/82.0",159,"[0.9, 0.5, 0.1]","[0.8, 0.4, 0.2]","[u'black', u'blue', u'red']","[u'left', u'middle', u'right']","[0.8, 0.4, 0.2]","[u'medium', u'low', u'high']","red",51,"right","high","True","False",10,8250,NA
"AK4P9U9NS9DQF","Sun Nov 01 2020 10:11:52 GMT-0600 (Central Standard Time)","Sun Nov 01 2020 10:18:50 GMT-0600 (Central Standard Time)","Mozilla/5.0 (Windows NT 6.2; Win64; x64; rv:82.0) Gecko/20100101 Firefox/82.0",160,"[0.9, 0.5, 0.1]","[0.8, 0.4, 0.2]","[u'black', u'blue', u'red']","[u'left', u'middle', u'right']","[0.8, 0.4, 0.2]","[u'medium', u'low', u'high']","red",51,"right","high","True","False",21,8350,NA
