"src_subject_id","start_time","end_time","browser","index","first_half_probabilities","second_half_probabilities","deck_color","deck_position","deck_probabilities","deck_contingencies","response_color","key_press","response_position","response_probability","reward_type","trial_type","rt","reward_tally","exclusion_reason"
"AI4AO0O0WIJF7","Sun Nov 01 2020 09:09:39 GMT-0700 (Mountain Standard Time)","Sun Nov 01 2020 09:17:02 GMT-0700 (Mountain Standard Time)","Mozilla/5.0 (Windows NT 10.0; Win64; x64) AppleWebKit/537.36 (KHTML, like Gecko) Chrome/86.0.4240.111 Safari/537.36",1,"[0.9, 0.5, 0.1]","[0.8, 0.4, 0.2]","[u'blue', u'red', u'black']","[u'left', u'middle', u'right']","[0.9, 0.5, 0.1]","[u'high', u'medium', u'low']","blue",49,"left","high","True","False",366,100,NA
"AI4AO0O0WIJF7","Sun Nov 01 2020 09:09:39 GMT-0700 (Mountain Standard Time)","Sun Nov 01 2020 09:17:02 GMT-0700 (Mountain Standard Time)","Mozilla/5.0 (Windows NT 10.0; Win64; x64) AppleWebKit/537.36 (KHTML, like Gecko) Chrome/86.0.4240.111 Safari/537.36",2,"[0.9, 0.5, 0.1]","[0.8, 0.4, 0.2]","[u'blue', u'red', u'black']","[u'left', u'middle', u'right']","[0.9, 0.5, 0.1]","[u'high', u'medium', u'low']","blue",49,"left","high","True","False",513,200,NA
"AI4AO0O0WIJF7","Sun Nov 01 2020 09:09:39 GMT-0700 (Mountain Standard Time)","Sun Nov 01 2020 09:17:02 GMT-0700 (Mountain Standard Time)","Mozilla/5.0 (Windows NT 10.0; Win64; x64) AppleWebKit/537.36 (KHTML, like Gecko) Chrome/86.0.4240.111 Safari/537.36",3,"[0.9, 0.5, 0.1]","[0.8, 0.4, 0.2]","[u'blue', u'red', u'black']","[u'left', u'middle', u'right']","[0.9, 0.5, 0.1]","[u'high', u'medium', u'low']","blue",49,"left","high","True","False",404,300,NA
"AI4AO0O0WIJF7","Sun Nov 01 2020 09:09:39 GMT-0700 (Mountain Standard Time)","Sun Nov 01 2020 09:17:02 GMT-0700 (Mountain Standard Time)","Mozilla/5.0 (Windows NT 10.0; Win64; x64) AppleWebKit/537.36 (KHTML, like Gecko) Chrome/86.0.4240.111 Safari/537.36",4,"[0.9, 0.5, 0.1]","[0.8, 0.4, 0.2]","[u'blue', u'red', u'black']","[u'left', u'middle', u'right']","[0.9, 0.5, 0.1]","[u'high', u'medium', u'low']","blue",49,"left","high","True","False",400,400,NA
"AI4AO0O0WIJF7","Sun Nov 01 2020 09:09:39 GMT-0700 (Mountain Standard Time)","Sun Nov 01 2020 09:17:02 GMT-0700 (Mountain Standard Time)","Mozilla/5.0 (Windows NT 10.0; Win64; x64) AppleWebKit/537.36 (KHTML, like Gecko) Chrome/86.0.4240.111 Safari/537.36",5,"[0.9, 0.5, 0.1]","[0.8, 0.4, 0.2]","[u'blue', u'red', u'black']","[u'left', u'middle', u'right']","[0.9, 0.5, 0.1]","[u'high', u'medium', u'low']","blue",49,"left","high","True","False",411,500,NA
"AI4AO0O0WIJF7","Sun Nov 01 2020 09:09:39 GMT-0700 (Mountain Standard Time)","Sun Nov 01 2020 09:17:02 GMT-0700 (Mountain Standard Time)","Mozilla/5.0 (Windows NT 10.0; Win64; x64) AppleWebKit/537.36 (KHTML, like Gecko) Chrome/86.0.4240.111 Safari/537.36",6,"[0.9, 0.5, 0.1]","[0.8, 0.4, 0.2]","[u'blue', u'red', u'black']","[u'left', u'middle', u'right']","[0.9, 0.5, 0.1]","[u'high', u'medium', u'low']","blue",49,"left","high","True","False",450,600,NA
"AI4AO0O0WIJF7","Sun Nov 01 2020 09:09:39 GMT-0700 (Mountain Standard Time)","Sun Nov 01 2020 09:17:02 GMT-0700 (Mountain Standard Time)","Mozilla/5.0 (Windows NT 10.0; Win64; x64) AppleWebKit/537.36 (KHTML, like Gecko) Chrome/86.0.4240.111 Safari/537.36",7,"[0.9, 0.5, 0.1]","[0.8, 0.4, 0.2]","[u'blue', u'red', u'black']","[u'left', u'middle', u'right']","[0.9, 0.5, 0.1]","[u'high', u'medium', u'low']","blue",49,"left","high","True","False",330,700,NA
"AI4AO0O0WIJF7","Sun Nov 01 2020 09:09:39 GMT-0700 (Mountain Standard Time)","Sun Nov 01 2020 09:17:02 GMT-0700 (Mountain Standard Time)","Mozilla/5.0 (Windows NT 10.0; Win64; x64) AppleWebKit/537.36 (KHTML, like Gecko) Chrome/86.0.4240.111 Safari/537.36",8,"[0.9, 0.5, 0.1]","[0.8, 0.4, 0.2]","[u'blue', u'red', u'black']","[u'left', u'middle', u'right']","[0.9, 0.5, 0.1]","[u'high', u'medium', u'low']","blue",49,"left","high","True","False",388,800,NA
"AI4AO0O0WIJF7","Sun Nov 01 2020 09:09:39 GMT-0700 (Mountain Standard Time)","Sun Nov 01 2020 09:17:02 GMT-0700 (Mountain Standard Time)","Mozilla/5.0 (Windows NT 10.0; Win64; x64) AppleWebKit/537.36 (KHTML, like Gecko) Chrome/86.0.4240.111 Safari/537.36",9,"[0.9, 0.5, 0.1]","[0.8, 0.4, 0.2]","[u'blue', u'red', u'black']","[u'left', u'middle', u'right']","[0.9, 0.5, 0.1]","[u'high', u'medium', u'low']","blue",49,"left","high","True","True",389,900,NA
"AI4AO0O0WIJF7","Sun Nov 01 2020 09:09:39 GMT-0700 (Mountain Standard Time)","Sun Nov 01 2020 09:17:02 GMT-0700 (Mountain Standard Time)","Mozilla/5.0 (Windows NT 10.0; Win64; x64) AppleWebKit/537.36 (KHTML, like Gecko) Chrome/86.0.4240.111 Safari/537.36",10,"[0.9, 0.5, 0.1]","[0.8, 0.4, 0.2]","[u'blue', u'red', u'black']","[u'left', u'middle', u'right']","[0.9, 0.5, 0.1]","[u'low', u'medium', u'high']","blue",49,"left","low","True","False",363,1000,NA
"AI4AO0O0WIJF7","Sun Nov 01 2020 09:09:39 GMT-0700 (Mountain Standard Time)","Sun Nov 01 2020 09:17:02 GMT-0700 (Mountain Standard Time)","Mozilla/5.0 (Windows NT 10.0; Win64; x64) AppleWebKit/537.36 (KHTML, like Gecko) Chrome/86.0.4240.111 Safari/537.36",11,"[0.9, 0.5, 0.1]","[0.8, 0.4, 0.2]","[u'blue', u'red', u'black']","[u'left', u'middle', u'right']","[0.9, 0.5, 0.1]","[u'low', u'medium', u'high']","blue",49,"left","low","False","False",330,950,NA
"AI4AO0O0WIJF7","Sun Nov 01 2020 09:09:39 GMT-0700 (Mountain Standard Time)","Sun Nov 01 2020 09:17:02 GMT-0700 (Mountain Standard Time)","Mozilla/5.0 (Windows NT 10.0; Win64; x64) AppleWebKit/537.36 (KHTML, like Gecko) Chrome/86.0.4240.111 Safari/537.36",12,"[0.9, 0.5, 0.1]","[0.8, 0.4, 0.2]","[u'blue', u'red', u'black']","[u'left', u'middle', u'right']","[0.9, 0.5, 0.1]","[u'low', u'medium', u'high']","blue",49,"left","low","False","False",391,900,NA
"AI4AO0O0WIJF7","Sun Nov 01 2020 09:09:39 GMT-0700 (Mountain Standard Time)","Sun Nov 01 2020 09:17:02 GMT-0700 (Mountain Standard Time)","Mozilla/5.0 (Windows NT 10.0; Win64; x64) AppleWebKit/537.36 (KHTML, like Gecko) Chrome/86.0.4240.111 Safari/537.36",13,"[0.9, 0.5, 0.1]","[0.8, 0.4, 0.2]","[u'blue', u'red', u'black']","[u'left', u'middle', u'right']","[0.9, 0.5, 0.1]","[u'low', u'medium', u'high']","red",50,"middle","medium","False","False",324,850,NA
"AI4AO0O0WIJF7","Sun Nov 01 2020 09:09:39 GMT-0700 (Mountain Standard Time)","Sun Nov 01 2020 09:17:02 GMT-0700 (Mountain Standard Time)","Mozilla/5.0 (Windows NT 10.0; Win64; x64) AppleWebKit/537.36 (KHTML, like Gecko) Chrome/86.0.4240.111 Safari/537.36",14,"[0.9, 0.5, 0.1]","[0.8, 0.4, 0.2]","[u'blue', u'red', u'black']","[u'left', u'middle', u'right']","[0.9, 0.5, 0.1]","[u'low', u'medium', u'high']","black",51,"right","high","True","False",310,950,NA
"AI4AO0O0WIJF7","Sun Nov 01 2020 09:09:39 GMT-0700 (Mountain Standard Time)","Sun Nov 01 2020 09:17:02 GMT-0700 (Mountain Standard Time)","Mozilla/5.0 (Windows NT 10.0; Win64; x64) AppleWebKit/537.36 (KHTML, like Gecko) Chrome/86.0.4240.111 Safari/537.36",15,"[0.9, 0.5, 0.1]","[0.8, 0.4, 0.2]","[u'blue', u'red', u'black']","[u'left', u'middle', u'right']","[0.9, 0.5, 0.1]","[u'low', u'medium', u'high']","black",51,"right","high","True","False",526,1050,NA
"AI4AO0O0WIJF7","Sun Nov 01 2020 09:09:39 GMT-0700 (Mountain Standard Time)","Sun Nov 01 2020 09:17:02 GMT-0700 (Mountain Standard Time)","Mozilla/5.0 (Windows NT 10.0; Win64; x64) AppleWebKit/537.36 (KHTML, like Gecko) Chrome/86.0.4240.111 Safari/537.36",16,"[0.9, 0.5, 0.1]","[0.8, 0.4, 0.2]","[u'blue', u'red', u'black']","[u'left', u'middle', u'right']","[0.9, 0.5, 0.1]","[u'low', u'medium', u'high']","black",51,"right","high","True","False",473,1150,NA
"AI4AO0O0WIJF7","Sun Nov 01 2020 09:09:39 GMT-0700 (Mountain Standard Time)","Sun Nov 01 2020 09:17:02 GMT-0700 (Mountain Standard Time)","Mozilla/5.0 (Windows NT 10.0; Win64; x64) AppleWebKit/537.36 (KHTML, like Gecko) Chrome/86.0.4240.111 Safari/537.36",17,"[0.9, 0.5, 0.1]","[0.8, 0.4, 0.2]","[u'blue', u'red', u'black']","[u'left', u'middle', u'right']","[0.9, 0.5, 0.1]","[u'low', u'medium', u'high']","black",51,"right","high","True","False",470,1250,NA
"AI4AO0O0WIJF7","Sun Nov 01 2020 09:09:39 GMT-0700 (Mountain Standard Time)","Sun Nov 01 2020 09:17:02 GMT-0700 (Mountain Standard Time)","Mozilla/5.0 (Windows NT 10.0; Win64; x64) AppleWebKit/537.36 (KHTML, like Gecko) Chrome/86.0.4240.111 Safari/537.36",18,"[0.9, 0.5, 0.1]","[0.8, 0.4, 0.2]","[u'blue', u'red', u'black']","[u'left', u'middle', u'right']","[0.9, 0.5, 0.1]","[u'low', u'medium', u'high']","black",51,"right","high","True","False",454,1350,NA
"AI4AO0O0WIJF7","Sun Nov 01 2020 09:09:39 GMT-0700 (Mountain Standard Time)","Sun Nov 01 2020 09:17:02 GMT-0700 (Mountain Standard Time)","Mozilla/5.0 (Windows NT 10.0; Win64; x64) AppleWebKit/537.36 (KHTML, like Gecko) Chrome/86.0.4240.111 Safari/537.36",19,"[0.9, 0.5, 0.1]","[0.8, 0.4, 0.2]","[u'blue', u'red', u'black']","[u'left', u'middle', u'right']","[0.9, 0.5, 0.1]","[u'low', u'medium', u'high']","black",51,"right","high","True","False",527,1450,NA
"AI4AO0O0WIJF7","Sun Nov 01 2020 09:09:39 GMT-0700 (Mountain Standard Time)","Sun Nov 01 2020 09:17:02 GMT-0700 (Mountain Standard Time)","Mozilla/5.0 (Windows NT 10.0; Win64; x64) AppleWebKit/537.36 (KHTML, like Gecko) Chrome/86.0.4240.111 Safari/537.36",20,"[0.9, 0.5, 0.1]","[0.8, 0.4, 0.2]","[u'blue', u'red', u'black']","[u'left', u'middle', u'right']","[0.9, 0.5, 0.1]","[u'low', u'medium', u'high']","black",51,"right","high","True","False",456,1550,NA
"AI4AO0O0WIJF7","Sun Nov 01 2020 09:09:39 GMT-0700 (Mountain Standard Time)","Sun Nov 01 2020 09:17:02 GMT-0700 (Mountain Standard Time)","Mozilla/5.0 (Windows NT 10.0; Win64; x64) AppleWebKit/537.36 (KHTML, like Gecko) Chrome/86.0.4240.111 Safari/537.36",21,"[0.9, 0.5, 0.1]","[0.8, 0.4, 0.2]","[u'blue', u'red', u'black']","[u'left', u'middle', u'right']","[0.9, 0.5, 0.1]","[u'low', u'medium', u'high']","black",51,"right","high","True","False",387,1650,NA
"AI4AO0O0WIJF7","Sun Nov 01 2020 09:09:39 GMT-0700 (Mountain Standard Time)","Sun Nov 01 2020 09:17:02 GMT-0700 (Mountain Standard Time)","Mozilla/5.0 (Windows NT 10.0; Win64; x64) AppleWebKit/537.36 (KHTML, like Gecko) Chrome/86.0.4240.111 Safari/537.36",22,"[0.9, 0.5, 0.1]","[0.8, 0.4, 0.2]","[u'blue', u'red', u'black']","[u'left', u'middle', u'right']","[0.9, 0.5, 0.1]","[u'low', u'medium', u'high']","black",51,"right","high","True","True",386,1750,NA
"AI4AO0O0WIJF7","Sun Nov 01 2020 09:09:39 GMT-0700 (Mountain Standard Time)","Sun Nov 01 2020 09:17:02 GMT-0700 (Mountain Standard Time)","Mozilla/5.0 (Windows NT 10.0; Win64; x64) AppleWebKit/537.36 (KHTML, like Gecko) Chrome/86.0.4240.111 Safari/537.36",23,"[0.9, 0.5, 0.1]","[0.8, 0.4, 0.2]","[u'blue', u'red', u'black']","[u'left', u'middle', u'right']","[0.9, 0.5, 0.1]","[u'high', u'low', u'medium']","black",51,"right","medium","True","False",329,1850,NA
"AI4AO0O0WIJF7","Sun Nov 01 2020 09:09:39 GMT-0700 (Mountain Standard Time)","Sun Nov 01 2020 09:17:02 GMT-0700 (Mountain Standard Time)","Mozilla/5.0 (Windows NT 10.0; Win64; x64) AppleWebKit/537.36 (KHTML, like Gecko) Chrome/86.0.4240.111 Safari/537.36",24,"[0.9, 0.5, 0.1]","[0.8, 0.4, 0.2]","[u'blue', u'red', u'black']","[u'left', u'middle', u'right']","[0.9, 0.5, 0.1]","[u'high', u'low', u'medium']","black",51,"right","medium","False","False",353,1800,NA
"AI4AO0O0WIJF7","Sun Nov 01 2020 09:09:39 GMT-0700 (Mountain Standard Time)","Sun Nov 01 2020 09:17:02 GMT-0700 (Mountain Standard Time)","Mozilla/5.0 (Windows NT 10.0; Win64; x64) AppleWebKit/537.36 (KHTML, like Gecko) Chrome/86.0.4240.111 Safari/537.36",25,"[0.9, 0.5, 0.1]","[0.8, 0.4, 0.2]","[u'blue', u'red', u'black']","[u'left', u'middle', u'right']","[0.9, 0.5, 0.1]","[u'high', u'low', u'medium']","red",50,"middle","low","False","False",285,1750,NA
"AI4AO0O0WIJF7","Sun Nov 01 2020 09:09:39 GMT-0700 (Mountain Standard Time)","Sun Nov 01 2020 09:17:02 GMT-0700 (Mountain Standard Time)","Mozilla/5.0 (Windows NT 10.0; Win64; x64) AppleWebKit/537.36 (KHTML, like Gecko) Chrome/86.0.4240.111 Safari/537.36",26,"[0.9, 0.5, 0.1]","[0.8, 0.4, 0.2]","[u'blue', u'red', u'black']","[u'left', u'middle', u'right']","[0.9, 0.5, 0.1]","[u'high', u'low', u'medium']","blue",49,"left","high","True","False",892,1850,NA
"AI4AO0O0WIJF7","Sun Nov 01 2020 09:09:39 GMT-0700 (Mountain Standard Time)","Sun Nov 01 2020 09:17:02 GMT-0700 (Mountain Standard Time)","Mozilla/5.0 (Windows NT 10.0; Win64; x64) AppleWebKit/537.36 (KHTML, like Gecko) Chrome/86.0.4240.111 Safari/537.36",27,"[0.9, 0.5, 0.1]","[0.8, 0.4, 0.2]","[u'blue', u'red', u'black']","[u'left', u'middle', u'right']","[0.9, 0.5, 0.1]","[u'high', u'low', u'medium']","blue",49,"left","high","True","False",213,1950,NA
"AI4AO0O0WIJF7","Sun Nov 01 2020 09:09:39 GMT-0700 (Mountain Standard Time)","Sun Nov 01 2020 09:17:02 GMT-0700 (Mountain Standard Time)","Mozilla/5.0 (Windows NT 10.0; Win64; x64) AppleWebKit/537.36 (KHTML, like Gecko) Chrome/86.0.4240.111 Safari/537.36",28,"[0.9, 0.5, 0.1]","[0.8, 0.4, 0.2]","[u'blue', u'red', u'black']","[u'left', u'middle', u'right']","[0.9, 0.5, 0.1]","[u'high', u'low', u'medium']","blue",49,"left","high","False","False",303,1900,NA
"AI4AO0O0WIJF7","Sun Nov 01 2020 09:09:39 GMT-0700 (Mountain Standard Time)","Sun Nov 01 2020 09:17:02 GMT-0700 (Mountain Standard Time)","Mozilla/5.0 (Windows NT 10.0; Win64; x64) AppleWebKit/537.36 (KHTML, like Gecko) Chrome/86.0.4240.111 Safari/537.36",29,"[0.9, 0.5, 0.1]","[0.8, 0.4, 0.2]","[u'blue', u'red', u'black']","[u'left', u'middle', u'right']","[0.9, 0.5, 0.1]","[u'high', u'low', u'medium']","red",50,"middle","low","False","False",78,1850,NA
"AI4AO0O0WIJF7","Sun Nov 01 2020 09:09:39 GMT-0700 (Mountain Standard Time)","Sun Nov 01 2020 09:17:02 GMT-0700 (Mountain Standard Time)","Mozilla/5.0 (Windows NT 10.0; Win64; x64) AppleWebKit/537.36 (KHTML, like Gecko) Chrome/86.0.4240.111 Safari/537.36",30,"[0.9, 0.5, 0.1]","[0.8, 0.4, 0.2]","[u'blue', u'red', u'black']","[u'left', u'middle', u'right']","[0.9, 0.5, 0.1]","[u'high', u'low', u'medium']","black",51,"right","medium","True","False",912,1950,NA
"AI4AO0O0WIJF7","Sun Nov 01 2020 09:09:39 GMT-0700 (Mountain Standard Time)","Sun Nov 01 2020 09:17:02 GMT-0700 (Mountain Standard Time)","Mozilla/5.0 (Windows NT 10.0; Win64; x64) AppleWebKit/537.36 (KHTML, like Gecko) Chrome/86.0.4240.111 Safari/537.36",31,"[0.9, 0.5, 0.1]","[0.8, 0.4, 0.2]","[u'blue', u'red', u'black']","[u'left', u'middle', u'right']","[0.9, 0.5, 0.1]","[u'high', u'low', u'medium']","black",51,"right","medium","False","False",322,1900,NA
"AI4AO0O0WIJF7","Sun Nov 01 2020 09:09:39 GMT-0700 (Mountain Standard Time)","Sun Nov 01 2020 09:17:02 GMT-0700 (Mountain Standard Time)","Mozilla/5.0 (Windows NT 10.0; Win64; x64) AppleWebKit/537.36 (KHTML, like Gecko) Chrome/86.0.4240.111 Safari/537.36",32,"[0.9, 0.5, 0.1]","[0.8, 0.4, 0.2]","[u'blue', u'red', u'black']","[u'left', u'middle', u'right']","[0.9, 0.5, 0.1]","[u'high', u'low', u'medium']","black",51,"right","medium","True","False",154,2000,NA
"AI4AO0O0WIJF7","Sun Nov 01 2020 09:09:39 GMT-0700 (Mountain Standard Time)","Sun Nov 01 2020 09:17:02 GMT-0700 (Mountain Standard Time)","Mozilla/5.0 (Windows NT 10.0; Win64; x64) AppleWebKit/537.36 (KHTML, like Gecko) Chrome/86.0.4240.111 Safari/537.36",33,"[0.9, 0.5, 0.1]","[0.8, 0.4, 0.2]","[u'blue', u'red', u'black']","[u'left', u'middle', u'right']","[0.9, 0.5, 0.1]","[u'high', u'low', u'medium']","black",51,"right","medium","True","False",308,2100,NA
"AI4AO0O0WIJF7","Sun Nov 01 2020 09:09:39 GMT-0700 (Mountain Standard Time)","Sun Nov 01 2020 09:17:02 GMT-0700 (Mountain Standard Time)","Mozilla/5.0 (Windows NT 10.0; Win64; x64) AppleWebKit/537.36 (KHTML, like Gecko) Chrome/86.0.4240.111 Safari/537.36",34,"[0.9, 0.5, 0.1]","[0.8, 0.4, 0.2]","[u'blue', u'red', u'black']","[u'left', u'middle', u'right']","[0.9, 0.5, 0.1]","[u'high', u'low', u'medium']","black",51,"right","medium","True","False",301,2200,NA
"AI4AO0O0WIJF7","Sun Nov 01 2020 09:09:39 GMT-0700 (Mountain Standard Time)","Sun Nov 01 2020 09:17:02 GMT-0700 (Mountain Standard Time)","Mozilla/5.0 (Windows NT 10.0; Win64; x64) AppleWebKit/537.36 (KHTML, like Gecko) Chrome/86.0.4240.111 Safari/537.36",35,"[0.9, 0.5, 0.1]","[0.8, 0.4, 0.2]","[u'blue', u'red', u'black']","[u'left', u'middle', u'right']","[0.9, 0.5, 0.1]","[u'high', u'low', u'medium']","black",51,"right","medium","False","False",306,2150,NA
"AI4AO0O0WIJF7","Sun Nov 01 2020 09:09:39 GMT-0700 (Mountain Standard Time)","Sun Nov 01 2020 09:17:02 GMT-0700 (Mountain Standard Time)","Mozilla/5.0 (Windows NT 10.0; Win64; x64) AppleWebKit/537.36 (KHTML, like Gecko) Chrome/86.0.4240.111 Safari/537.36",36,"[0.9, 0.5, 0.1]","[0.8, 0.4, 0.2]","[u'blue', u'red', u'black']","[u'left', u'middle', u'right']","[0.9, 0.5, 0.1]","[u'high', u'low', u'medium']","black",51,"right","medium","True","False",243,2250,NA
"AI4AO0O0WIJF7","Sun Nov 01 2020 09:09:39 GMT-0700 (Mountain Standard Time)","Sun Nov 01 2020 09:17:02 GMT-0700 (Mountain Standard Time)","Mozilla/5.0 (Windows NT 10.0; Win64; x64) AppleWebKit/537.36 (KHTML, like Gecko) Chrome/86.0.4240.111 Safari/537.36",37,"[0.9, 0.5, 0.1]","[0.8, 0.4, 0.2]","[u'blue', u'red', u'black']","[u'left', u'middle', u'right']","[0.9, 0.5, 0.1]","[u'high', u'low', u'medium']","black",51,"right","medium","False","False",283,2200,NA
"AI4AO0O0WIJF7","Sun Nov 01 2020 09:09:39 GMT-0700 (Mountain Standard Time)","Sun Nov 01 2020 09:17:02 GMT-0700 (Mountain Standard Time)","Mozilla/5.0 (Windows NT 10.0; Win64; x64) AppleWebKit/537.36 (KHTML, like Gecko) Chrome/86.0.4240.111 Safari/537.36",38,"[0.9, 0.5, 0.1]","[0.8, 0.4, 0.2]","[u'blue', u'red', u'black']","[u'left', u'middle', u'right']","[0.9, 0.5, 0.1]","[u'high', u'low', u'medium']","black",51,"right","medium","True","False",231,2300,NA
"AI4AO0O0WIJF7","Sun Nov 01 2020 09:09:39 GMT-0700 (Mountain Standard Time)","Sun Nov 01 2020 09:17:02 GMT-0700 (Mountain Standard Time)","Mozilla/5.0 (Windows NT 10.0; Win64; x64) AppleWebKit/537.36 (KHTML, like Gecko) Chrome/86.0.4240.111 Safari/537.36",39,"[0.9, 0.5, 0.1]","[0.8, 0.4, 0.2]","[u'blue', u'red', u'black']","[u'left', u'middle', u'right']","[0.9, 0.5, 0.1]","[u'high', u'low', u'medium']","black",51,"right","medium","False","False",336,2250,NA
"AI4AO0O0WIJF7","Sun Nov 01 2020 09:09:39 GMT-0700 (Mountain Standard Time)","Sun Nov 01 2020 09:17:02 GMT-0700 (Mountain Standard Time)","Mozilla/5.0 (Windows NT 10.0; Win64; x64) AppleWebKit/537.36 (KHTML, like Gecko) Chrome/86.0.4240.111 Safari/537.36",40,"[0.9, 0.5, 0.1]","[0.8, 0.4, 0.2]","[u'blue', u'red', u'black']","[u'left', u'middle', u'right']","[0.9, 0.5, 0.1]","[u'high', u'low', u'medium']","blue",49,"left","high","True","False",253,2350,NA
"AI4AO0O0WIJF7","Sun Nov 01 2020 09:09:39 GMT-0700 (Mountain Standard Time)","Sun Nov 01 2020 09:17:02 GMT-0700 (Mountain Standard Time)","Mozilla/5.0 (Windows NT 10.0; Win64; x64) AppleWebKit/537.36 (KHTML, like Gecko) Chrome/86.0.4240.111 Safari/537.36",41,"[0.9, 0.5, 0.1]","[0.8, 0.4, 0.2]","[u'blue', u'red', u'black']","[u'left', u'middle', u'right']","[0.9, 0.5, 0.1]","[u'low', u'high', u'medium']","blue",49,"left","low","False","False",404,2300,NA
"AI4AO0O0WIJF7","Sun Nov 01 2020 09:09:39 GMT-0700 (Mountain Standard Time)","Sun Nov 01 2020 09:17:02 GMT-0700 (Mountain Standard Time)","Mozilla/5.0 (Windows NT 10.0; Win64; x64) AppleWebKit/537.36 (KHTML, like Gecko) Chrome/86.0.4240.111 Safari/537.36",42,"[0.9, 0.5, 0.1]","[0.8, 0.4, 0.2]","[u'blue', u'red', u'black']","[u'left', u'middle', u'right']","[0.9, 0.5, 0.1]","[u'low', u'high', u'medium']","blue",49,"left","low","False","False",56,2250,NA
"AI4AO0O0WIJF7","Sun Nov 01 2020 09:09:39 GMT-0700 (Mountain Standard Time)","Sun Nov 01 2020 09:17:02 GMT-0700 (Mountain Standard Time)","Mozilla/5.0 (Windows NT 10.0; Win64; x64) AppleWebKit/537.36 (KHTML, like Gecko) Chrome/86.0.4240.111 Safari/537.36",43,"[0.9, 0.5, 0.1]","[0.8, 0.4, 0.2]","[u'blue', u'red', u'black']","[u'left', u'middle', u'right']","[0.9, 0.5, 0.1]","[u'low', u'high', u'medium']","red",50,"middle","high","True","False",354,2350,NA
"AI4AO0O0WIJF7","Sun Nov 01 2020 09:09:39 GMT-0700 (Mountain Standard Time)","Sun Nov 01 2020 09:17:02 GMT-0700 (Mountain Standard Time)","Mozilla/5.0 (Windows NT 10.0; Win64; x64) AppleWebKit/537.36 (KHTML, like Gecko) Chrome/86.0.4240.111 Safari/537.36",44,"[0.9, 0.5, 0.1]","[0.8, 0.4, 0.2]","[u'blue', u'red', u'black']","[u'left', u'middle', u'right']","[0.9, 0.5, 0.1]","[u'low', u'high', u'medium']","red",50,"middle","high","True","False",357,2450,NA
"AI4AO0O0WIJF7","Sun Nov 01 2020 09:09:39 GMT-0700 (Mountain Standard Time)","Sun Nov 01 2020 09:17:02 GMT-0700 (Mountain Standard Time)","Mozilla/5.0 (Windows NT 10.0; Win64; x64) AppleWebKit/537.36 (KHTML, like Gecko) Chrome/86.0.4240.111 Safari/537.36",45,"[0.9, 0.5, 0.1]","[0.8, 0.4, 0.2]","[u'blue', u'red', u'black']","[u'left', u'middle', u'right']","[0.9, 0.5, 0.1]","[u'low', u'high', u'medium']","red",50,"middle","high","True","False",556,2550,NA
"AI4AO0O0WIJF7","Sun Nov 01 2020 09:09:39 GMT-0700 (Mountain Standard Time)","Sun Nov 01 2020 09:17:02 GMT-0700 (Mountain Standard Time)","Mozilla/5.0 (Windows NT 10.0; Win64; x64) AppleWebKit/537.36 (KHTML, like Gecko) Chrome/86.0.4240.111 Safari/537.36",46,"[0.9, 0.5, 0.1]","[0.8, 0.4, 0.2]","[u'blue', u'red', u'black']","[u'left', u'middle', u'right']","[0.9, 0.5, 0.1]","[u'low', u'high', u'medium']","red",50,"middle","high","True","False",453,2650,NA
"AI4AO0O0WIJF7","Sun Nov 01 2020 09:09:39 GMT-0700 (Mountain Standard Time)","Sun Nov 01 2020 09:17:02 GMT-0700 (Mountain Standard Time)","Mozilla/5.0 (Windows NT 10.0; Win64; x64) AppleWebKit/537.36 (KHTML, like Gecko) Chrome/86.0.4240.111 Safari/537.36",47,"[0.9, 0.5, 0.1]","[0.8, 0.4, 0.2]","[u'blue', u'red', u'black']","[u'left', u'middle', u'right']","[0.9, 0.5, 0.1]","[u'low', u'high', u'medium']","red",50,"middle","high","True","False",508,2750,NA
"AI4AO0O0WIJF7","Sun Nov 01 2020 09:09:39 GMT-0700 (Mountain Standard Time)","Sun Nov 01 2020 09:17:02 GMT-0700 (Mountain Standard Time)","Mozilla/5.0 (Windows NT 10.0; Win64; x64) AppleWebKit/537.36 (KHTML, like Gecko) Chrome/86.0.4240.111 Safari/537.36",48,"[0.9, 0.5, 0.1]","[0.8, 0.4, 0.2]","[u'blue', u'red', u'black']","[u'left', u'middle', u'right']","[0.9, 0.5, 0.1]","[u'low', u'high', u'medium']","red",50,"middle","high","True","False",344,2850,NA
"AI4AO0O0WIJF7","Sun Nov 01 2020 09:09:39 GMT-0700 (Mountain Standard Time)","Sun Nov 01 2020 09:17:02 GMT-0700 (Mountain Standard Time)","Mozilla/5.0 (Windows NT 10.0; Win64; x64) AppleWebKit/537.36 (KHTML, like Gecko) Chrome/86.0.4240.111 Safari/537.36",49,"[0.9, 0.5, 0.1]","[0.8, 0.4, 0.2]","[u'blue', u'red', u'black']","[u'left', u'middle', u'right']","[0.9, 0.5, 0.1]","[u'low', u'high', u'medium']","red",50,"middle","high","True","False",385,2950,NA
"AI4AO0O0WIJF7","Sun Nov 01 2020 09:09:39 GMT-0700 (Mountain Standard Time)","Sun Nov 01 2020 09:17:02 GMT-0700 (Mountain Standard Time)","Mozilla/5.0 (Windows NT 10.0; Win64; x64) AppleWebKit/537.36 (KHTML, like Gecko) Chrome/86.0.4240.111 Safari/537.36",50,"[0.9, 0.5, 0.1]","[0.8, 0.4, 0.2]","[u'blue', u'red', u'black']","[u'left', u'middle', u'right']","[0.9, 0.5, 0.1]","[u'low', u'high', u'medium']","red",50,"middle","high","False","False",333,2900,NA
"AI4AO0O0WIJF7","Sun Nov 01 2020 09:09:39 GMT-0700 (Mountain Standard Time)","Sun Nov 01 2020 09:17:02 GMT-0700 (Mountain Standard Time)","Mozilla/5.0 (Windows NT 10.0; Win64; x64) AppleWebKit/537.36 (KHTML, like Gecko) Chrome/86.0.4240.111 Safari/537.36",51,"[0.9, 0.5, 0.1]","[0.8, 0.4, 0.2]","[u'blue', u'red', u'black']","[u'left', u'middle', u'right']","[0.9, 0.5, 0.1]","[u'low', u'high', u'medium']","red",50,"middle","high","True","True",153,3000,NA
"AI4AO0O0WIJF7","Sun Nov 01 2020 09:09:39 GMT-0700 (Mountain Standard Time)","Sun Nov 01 2020 09:17:02 GMT-0700 (Mountain Standard Time)","Mozilla/5.0 (Windows NT 10.0; Win64; x64) AppleWebKit/537.36 (KHTML, like Gecko) Chrome/86.0.4240.111 Safari/537.36",52,"[0.9, 0.5, 0.1]","[0.8, 0.4, 0.2]","[u'blue', u'red', u'black']","[u'left', u'middle', u'right']","[0.9, 0.5, 0.1]","[u'high', u'medium', u'low']","red",50,"middle","medium","True","False",385,3100,NA
"AI4AO0O0WIJF7","Sun Nov 01 2020 09:09:39 GMT-0700 (Mountain Standard Time)","Sun Nov 01 2020 09:17:02 GMT-0700 (Mountain Standard Time)","Mozilla/5.0 (Windows NT 10.0; Win64; x64) AppleWebKit/537.36 (KHTML, like Gecko) Chrome/86.0.4240.111 Safari/537.36",53,"[0.9, 0.5, 0.1]","[0.8, 0.4, 0.2]","[u'blue', u'red', u'black']","[u'left', u'middle', u'right']","[0.9, 0.5, 0.1]","[u'high', u'medium', u'low']","red",50,"middle","medium","False","False",637,3050,NA
"AI4AO0O0WIJF7","Sun Nov 01 2020 09:09:39 GMT-0700 (Mountain Standard Time)","Sun Nov 01 2020 09:17:02 GMT-0700 (Mountain Standard Time)","Mozilla/5.0 (Windows NT 10.0; Win64; x64) AppleWebKit/537.36 (KHTML, like Gecko) Chrome/86.0.4240.111 Safari/537.36",54,"[0.9, 0.5, 0.1]","[0.8, 0.4, 0.2]","[u'blue', u'red', u'black']","[u'left', u'middle', u'right']","[0.9, 0.5, 0.1]","[u'high', u'medium', u'low']","red",50,"middle","medium","True","False",469,3150,NA
"AI4AO0O0WIJF7","Sun Nov 01 2020 09:09:39 GMT-0700 (Mountain Standard Time)","Sun Nov 01 2020 09:17:02 GMT-0700 (Mountain Standard Time)","Mozilla/5.0 (Windows NT 10.0; Win64; x64) AppleWebKit/537.36 (KHTML, like Gecko) Chrome/86.0.4240.111 Safari/537.36",55,"[0.9, 0.5, 0.1]","[0.8, 0.4, 0.2]","[u'blue', u'red', u'black']","[u'left', u'middle', u'right']","[0.9, 0.5, 0.1]","[u'high', u'medium', u'low']","red",50,"middle","medium","True","False",407,3250,NA
"AI4AO0O0WIJF7","Sun Nov 01 2020 09:09:39 GMT-0700 (Mountain Standard Time)","Sun Nov 01 2020 09:17:02 GMT-0700 (Mountain Standard Time)","Mozilla/5.0 (Windows NT 10.0; Win64; x64) AppleWebKit/537.36 (KHTML, like Gecko) Chrome/86.0.4240.111 Safari/537.36",56,"[0.9, 0.5, 0.1]","[0.8, 0.4, 0.2]","[u'blue', u'red', u'black']","[u'left', u'middle', u'right']","[0.9, 0.5, 0.1]","[u'high', u'medium', u'low']","red",50,"middle","medium","False","False",297,3200,NA
"AI4AO0O0WIJF7","Sun Nov 01 2020 09:09:39 GMT-0700 (Mountain Standard Time)","Sun Nov 01 2020 09:17:02 GMT-0700 (Mountain Standard Time)","Mozilla/5.0 (Windows NT 10.0; Win64; x64) AppleWebKit/537.36 (KHTML, like Gecko) Chrome/86.0.4240.111 Safari/537.36",57,"[0.9, 0.5, 0.1]","[0.8, 0.4, 0.2]","[u'blue', u'red', u'black']","[u'left', u'middle', u'right']","[0.9, 0.5, 0.1]","[u'high', u'medium', u'low']","red",50,"middle","medium","True","False",247,3300,NA
"AI4AO0O0WIJF7","Sun Nov 01 2020 09:09:39 GMT-0700 (Mountain Standard Time)","Sun Nov 01 2020 09:17:02 GMT-0700 (Mountain Standard Time)","Mozilla/5.0 (Windows NT 10.0; Win64; x64) AppleWebKit/537.36 (KHTML, like Gecko) Chrome/86.0.4240.111 Safari/537.36",58,"[0.9, 0.5, 0.1]","[0.8, 0.4, 0.2]","[u'blue', u'red', u'black']","[u'left', u'middle', u'right']","[0.9, 0.5, 0.1]","[u'high', u'medium', u'low']","red",50,"middle","medium","False","False",316,3250,NA
"AI4AO0O0WIJF7","Sun Nov 01 2020 09:09:39 GMT-0700 (Mountain Standard Time)","Sun Nov 01 2020 09:17:02 GMT-0700 (Mountain Standard Time)","Mozilla/5.0 (Windows NT 10.0; Win64; x64) AppleWebKit/537.36 (KHTML, like Gecko) Chrome/86.0.4240.111 Safari/537.36",59,"[0.9, 0.5, 0.1]","[0.8, 0.4, 0.2]","[u'blue', u'red', u'black']","[u'left', u'middle', u'right']","[0.9, 0.5, 0.1]","[u'high', u'medium', u'low']","black",51,"right","low","True","False",63,3350,NA
"AI4AO0O0WIJF7","Sun Nov 01 2020 09:09:39 GMT-0700 (Mountain Standard Time)","Sun Nov 01 2020 09:17:02 GMT-0700 (Mountain Standard Time)","Mozilla/5.0 (Windows NT 10.0; Win64; x64) AppleWebKit/537.36 (KHTML, like Gecko) Chrome/86.0.4240.111 Safari/537.36",60,"[0.9, 0.5, 0.1]","[0.8, 0.4, 0.2]","[u'blue', u'red', u'black']","[u'left', u'middle', u'right']","[0.9, 0.5, 0.1]","[u'high', u'medium', u'low']","black",51,"right","low","False","False",317,3300,NA
"AI4AO0O0WIJF7","Sun Nov 01 2020 09:09:39 GMT-0700 (Mountain Standard Time)","Sun Nov 01 2020 09:17:02 GMT-0700 (Mountain Standard Time)","Mozilla/5.0 (Windows NT 10.0; Win64; x64) AppleWebKit/537.36 (KHTML, like Gecko) Chrome/86.0.4240.111 Safari/537.36",61,"[0.9, 0.5, 0.1]","[0.8, 0.4, 0.2]","[u'blue', u'red', u'black']","[u'left', u'middle', u'right']","[0.9, 0.5, 0.1]","[u'high', u'medium', u'low']","black",51,"right","low","False","False",103,3250,NA
"AI4AO0O0WIJF7","Sun Nov 01 2020 09:09:39 GMT-0700 (Mountain Standard Time)","Sun Nov 01 2020 09:17:02 GMT-0700 (Mountain Standard Time)","Mozilla/5.0 (Windows NT 10.0; Win64; x64) AppleWebKit/537.36 (KHTML, like Gecko) Chrome/86.0.4240.111 Safari/537.36",62,"[0.9, 0.5, 0.1]","[0.8, 0.4, 0.2]","[u'blue', u'red', u'black']","[u'left', u'middle', u'right']","[0.9, 0.5, 0.1]","[u'high', u'medium', u'low']","red",50,"middle","medium","True","False",321,3350,NA
"AI4AO0O0WIJF7","Sun Nov 01 2020 09:09:39 GMT-0700 (Mountain Standard Time)","Sun Nov 01 2020 09:17:02 GMT-0700 (Mountain Standard Time)","Mozilla/5.0 (Windows NT 10.0; Win64; x64) AppleWebKit/537.36 (KHTML, like Gecko) Chrome/86.0.4240.111 Safari/537.36",63,"[0.9, 0.5, 0.1]","[0.8, 0.4, 0.2]","[u'blue', u'red', u'black']","[u'left', u'middle', u'right']","[0.9, 0.5, 0.1]","[u'high', u'medium', u'low']","red",50,"middle","medium","True","False",300,3450,NA
"AI4AO0O0WIJF7","Sun Nov 01 2020 09:09:39 GMT-0700 (Mountain Standard Time)","Sun Nov 01 2020 09:17:02 GMT-0700 (Mountain Standard Time)","Mozilla/5.0 (Windows NT 10.0; Win64; x64) AppleWebKit/537.36 (KHTML, like Gecko) Chrome/86.0.4240.111 Safari/537.36",64,"[0.9, 0.5, 0.1]","[0.8, 0.4, 0.2]","[u'blue', u'red', u'black']","[u'left', u'middle', u'right']","[0.9, 0.5, 0.1]","[u'high', u'medium', u'low']","red",50,"middle","medium","True","False",316,3550,NA
"AI4AO0O0WIJF7","Sun Nov 01 2020 09:09:39 GMT-0700 (Mountain Standard Time)","Sun Nov 01 2020 09:17:02 GMT-0700 (Mountain Standard Time)","Mozilla/5.0 (Windows NT 10.0; Win64; x64) AppleWebKit/537.36 (KHTML, like Gecko) Chrome/86.0.4240.111 Safari/537.36",65,"[0.9, 0.5, 0.1]","[0.8, 0.4, 0.2]","[u'blue', u'red', u'black']","[u'left', u'middle', u'right']","[0.9, 0.5, 0.1]","[u'high', u'medium', u'low']","red",50,"middle","medium","False","False",323,3500,NA
"AI4AO0O0WIJF7","Sun Nov 01 2020 09:09:39 GMT-0700 (Mountain Standard Time)","Sun Nov 01 2020 09:17:02 GMT-0700 (Mountain Standard Time)","Mozilla/5.0 (Windows NT 10.0; Win64; x64) AppleWebKit/537.36 (KHTML, like Gecko) Chrome/86.0.4240.111 Safari/537.36",66,"[0.9, 0.5, 0.1]","[0.8, 0.4, 0.2]","[u'blue', u'red', u'black']","[u'left', u'middle', u'right']","[0.9, 0.5, 0.1]","[u'high', u'medium', u'low']","red",50,"middle","medium","True","False",243,3600,NA
"AI4AO0O0WIJF7","Sun Nov 01 2020 09:09:39 GMT-0700 (Mountain Standard Time)","Sun Nov 01 2020 09:17:02 GMT-0700 (Mountain Standard Time)","Mozilla/5.0 (Windows NT 10.0; Win64; x64) AppleWebKit/537.36 (KHTML, like Gecko) Chrome/86.0.4240.111 Safari/537.36",67,"[0.9, 0.5, 0.1]","[0.8, 0.4, 0.2]","[u'blue', u'red', u'black']","[u'left', u'middle', u'right']","[0.9, 0.5, 0.1]","[u'high', u'medium', u'low']","red",50,"middle","medium","False","False",188,3550,NA
"AI4AO0O0WIJF7","Sun Nov 01 2020 09:09:39 GMT-0700 (Mountain Standard Time)","Sun Nov 01 2020 09:17:02 GMT-0700 (Mountain Standard Time)","Mozilla/5.0 (Windows NT 10.0; Win64; x64) AppleWebKit/537.36 (KHTML, like Gecko) Chrome/86.0.4240.111 Safari/537.36",68,"[0.9, 0.5, 0.1]","[0.8, 0.4, 0.2]","[u'blue', u'red', u'black']","[u'left', u'middle', u'right']","[0.9, 0.5, 0.1]","[u'high', u'medium', u'low']","red",50,"middle","medium","False","False",178,3500,NA
"AI4AO0O0WIJF7","Sun Nov 01 2020 09:09:39 GMT-0700 (Mountain Standard Time)","Sun Nov 01 2020 09:17:02 GMT-0700 (Mountain Standard Time)","Mozilla/5.0 (Windows NT 10.0; Win64; x64) AppleWebKit/537.36 (KHTML, like Gecko) Chrome/86.0.4240.111 Safari/537.36",69,"[0.9, 0.5, 0.1]","[0.8, 0.4, 0.2]","[u'blue', u'red', u'black']","[u'left', u'middle', u'right']","[0.9, 0.5, 0.1]","[u'high', u'medium', u'low']","blue",49,"left","high","True","False",440,3600,NA
"AI4AO0O0WIJF7","Sun Nov 01 2020 09:09:39 GMT-0700 (Mountain Standard Time)","Sun Nov 01 2020 09:17:02 GMT-0700 (Mountain Standard Time)","Mozilla/5.0 (Windows NT 10.0; Win64; x64) AppleWebKit/537.36 (KHTML, like Gecko) Chrome/86.0.4240.111 Safari/537.36",70,"[0.9, 0.5, 0.1]","[0.8, 0.4, 0.2]","[u'blue', u'red', u'black']","[u'left', u'middle', u'right']","[0.9, 0.5, 0.1]","[u'high', u'medium', u'low']","blue",49,"left","high","True","False",285,3700,NA
"AI4AO0O0WIJF7","Sun Nov 01 2020 09:09:39 GMT-0700 (Mountain Standard Time)","Sun Nov 01 2020 09:17:02 GMT-0700 (Mountain Standard Time)","Mozilla/5.0 (Windows NT 10.0; Win64; x64) AppleWebKit/537.36 (KHTML, like Gecko) Chrome/86.0.4240.111 Safari/537.36",71,"[0.9, 0.5, 0.1]","[0.8, 0.4, 0.2]","[u'blue', u'red', u'black']","[u'left', u'middle', u'right']","[0.9, 0.5, 0.1]","[u'high', u'medium', u'low']","blue",49,"left","high","True","False",267,3800,NA
"AI4AO0O0WIJF7","Sun Nov 01 2020 09:09:39 GMT-0700 (Mountain Standard Time)","Sun Nov 01 2020 09:17:02 GMT-0700 (Mountain Standard Time)","Mozilla/5.0 (Windows NT 10.0; Win64; x64) AppleWebKit/537.36 (KHTML, like Gecko) Chrome/86.0.4240.111 Safari/537.36",72,"[0.9, 0.5, 0.1]","[0.8, 0.4, 0.2]","[u'blue', u'red', u'black']","[u'left', u'middle', u'right']","[0.9, 0.5, 0.1]","[u'high', u'medium', u'low']","blue",49,"left","high","True","False",288,3900,NA
"AI4AO0O0WIJF7","Sun Nov 01 2020 09:09:39 GMT-0700 (Mountain Standard Time)","Sun Nov 01 2020 09:17:02 GMT-0700 (Mountain Standard Time)","Mozilla/5.0 (Windows NT 10.0; Win64; x64) AppleWebKit/537.36 (KHTML, like Gecko) Chrome/86.0.4240.111 Safari/537.36",73,"[0.9, 0.5, 0.1]","[0.8, 0.4, 0.2]","[u'blue', u'red', u'black']","[u'left', u'middle', u'right']","[0.9, 0.5, 0.1]","[u'high', u'medium', u'low']","blue",49,"left","high","False","False",336,3850,NA
"AI4AO0O0WIJF7","Sun Nov 01 2020 09:09:39 GMT-0700 (Mountain Standard Time)","Sun Nov 01 2020 09:17:02 GMT-0700 (Mountain Standard Time)","Mozilla/5.0 (Windows NT 10.0; Win64; x64) AppleWebKit/537.36 (KHTML, like Gecko) Chrome/86.0.4240.111 Safari/537.36",74,"[0.9, 0.5, 0.1]","[0.8, 0.4, 0.2]","[u'blue', u'red', u'black']","[u'left', u'middle', u'right']","[0.9, 0.5, 0.1]","[u'high', u'medium', u'low']","blue",49,"left","high","True","False",162,3950,NA
"AI4AO0O0WIJF7","Sun Nov 01 2020 09:09:39 GMT-0700 (Mountain Standard Time)","Sun Nov 01 2020 09:17:02 GMT-0700 (Mountain Standard Time)","Mozilla/5.0 (Windows NT 10.0; Win64; x64) AppleWebKit/537.36 (KHTML, like Gecko) Chrome/86.0.4240.111 Safari/537.36",75,"[0.9, 0.5, 0.1]","[0.8, 0.4, 0.2]","[u'blue', u'red', u'black']","[u'left', u'middle', u'right']","[0.9, 0.5, 0.1]","[u'high', u'medium', u'low']","blue",49,"left","high","True","False",328,4050,NA
"AI4AO0O0WIJF7","Sun Nov 01 2020 09:09:39 GMT-0700 (Mountain Standard Time)","Sun Nov 01 2020 09:17:02 GMT-0700 (Mountain Standard Time)","Mozilla/5.0 (Windows NT 10.0; Win64; x64) AppleWebKit/537.36 (KHTML, like Gecko) Chrome/86.0.4240.111 Safari/537.36",76,"[0.9, 0.5, 0.1]","[0.8, 0.4, 0.2]","[u'blue', u'red', u'black']","[u'left', u'middle', u'right']","[0.9, 0.5, 0.1]","[u'high', u'medium', u'low']","blue",49,"left","high","True","False",287,4150,NA
"AI4AO0O0WIJF7","Sun Nov 01 2020 09:09:39 GMT-0700 (Mountain Standard Time)","Sun Nov 01 2020 09:17:02 GMT-0700 (Mountain Standard Time)","Mozilla/5.0 (Windows NT 10.0; Win64; x64) AppleWebKit/537.36 (KHTML, like Gecko) Chrome/86.0.4240.111 Safari/537.36",77,"[0.9, 0.5, 0.1]","[0.8, 0.4, 0.2]","[u'blue', u'red', u'black']","[u'left', u'middle', u'right']","[0.9, 0.5, 0.1]","[u'high', u'medium', u'low']","blue",49,"left","high","False","True",305,4100,NA
"AI4AO0O0WIJF7","Sun Nov 01 2020 09:09:39 GMT-0700 (Mountain Standard Time)","Sun Nov 01 2020 09:17:02 GMT-0700 (Mountain Standard Time)","Mozilla/5.0 (Windows NT 10.0; Win64; x64) AppleWebKit/537.36 (KHTML, like Gecko) Chrome/86.0.4240.111 Safari/537.36",78,"[0.9, 0.5, 0.1]","[0.8, 0.4, 0.2]","[u'blue', u'red', u'black']","[u'left', u'middle', u'right']","[0.9, 0.5, 0.1]","[u'medium', u'high', u'low']","blue",49,"left","medium","False","False",235,4050,NA
"AI4AO0O0WIJF7","Sun Nov 01 2020 09:09:39 GMT-0700 (Mountain Standard Time)","Sun Nov 01 2020 09:17:02 GMT-0700 (Mountain Standard Time)","Mozilla/5.0 (Windows NT 10.0; Win64; x64) AppleWebKit/537.36 (KHTML, like Gecko) Chrome/86.0.4240.111 Safari/537.36",79,"[0.9, 0.5, 0.1]","[0.8, 0.4, 0.2]","[u'blue', u'red', u'black']","[u'left', u'middle', u'right']","[0.9, 0.5, 0.1]","[u'medium', u'high', u'low']","black",51,"right","low","False","False",271,4000,NA
"AI4AO0O0WIJF7","Sun Nov 01 2020 09:09:39 GMT-0700 (Mountain Standard Time)","Sun Nov 01 2020 09:17:02 GMT-0700 (Mountain Standard Time)","Mozilla/5.0 (Windows NT 10.0; Win64; x64) AppleWebKit/537.36 (KHTML, like Gecko) Chrome/86.0.4240.111 Safari/537.36",80,"[0.9, 0.5, 0.1]","[0.8, 0.4, 0.2]","[u'blue', u'red', u'black']","[u'left', u'middle', u'right']","[0.9, 0.5, 0.1]","[u'medium', u'high', u'low']","red",50,"middle","high","True","False",208,4100,NA
"AI4AO0O0WIJF7","Sun Nov 01 2020 09:09:39 GMT-0700 (Mountain Standard Time)","Sun Nov 01 2020 09:17:02 GMT-0700 (Mountain Standard Time)","Mozilla/5.0 (Windows NT 10.0; Win64; x64) AppleWebKit/537.36 (KHTML, like Gecko) Chrome/86.0.4240.111 Safari/537.36",81,"[0.9, 0.5, 0.1]","[0.8, 0.4, 0.2]","[u'blue', u'red', u'black']","[u'left', u'middle', u'right']","[0.8, 0.4, 0.2]","[u'low', u'medium', u'high']","red",50,"middle","medium","False","False",340,4050,NA
"AI4AO0O0WIJF7","Sun Nov 01 2020 09:09:39 GMT-0700 (Mountain Standard Time)","Sun Nov 01 2020 09:17:02 GMT-0700 (Mountain Standard Time)","Mozilla/5.0 (Windows NT 10.0; Win64; x64) AppleWebKit/537.36 (KHTML, like Gecko) Chrome/86.0.4240.111 Safari/537.36",82,"[0.9, 0.5, 0.1]","[0.8, 0.4, 0.2]","[u'blue', u'red', u'black']","[u'left', u'middle', u'right']","[0.8, 0.4, 0.2]","[u'low', u'medium', u'high']","red",50,"middle","medium","True","False",3,4150,NA
"AI4AO0O0WIJF7","Sun Nov 01 2020 09:09:39 GMT-0700 (Mountain Standard Time)","Sun Nov 01 2020 09:17:02 GMT-0700 (Mountain Standard Time)","Mozilla/5.0 (Windows NT 10.0; Win64; x64) AppleWebKit/537.36 (KHTML, like Gecko) Chrome/86.0.4240.111 Safari/537.36",83,"[0.9, 0.5, 0.1]","[0.8, 0.4, 0.2]","[u'blue', u'red', u'black']","[u'left', u'middle', u'right']","[0.8, 0.4, 0.2]","[u'low', u'medium', u'high']","red",50,"middle","medium","True","False",324,4250,NA
"AI4AO0O0WIJF7","Sun Nov 01 2020 09:09:39 GMT-0700 (Mountain Standard Time)","Sun Nov 01 2020 09:17:02 GMT-0700 (Mountain Standard Time)","Mozilla/5.0 (Windows NT 10.0; Win64; x64) AppleWebKit/537.36 (KHTML, like Gecko) Chrome/86.0.4240.111 Safari/537.36",84,"[0.9, 0.5, 0.1]","[0.8, 0.4, 0.2]","[u'blue', u'red', u'black']","[u'left', u'middle', u'right']","[0.8, 0.4, 0.2]","[u'low', u'medium', u'high']","red",50,"middle","medium","False","False",318,4200,NA
"AI4AO0O0WIJF7","Sun Nov 01 2020 09:09:39 GMT-0700 (Mountain Standard Time)","Sun Nov 01 2020 09:17:02 GMT-0700 (Mountain Standard Time)","Mozilla/5.0 (Windows NT 10.0; Win64; x64) AppleWebKit/537.36 (KHTML, like Gecko) Chrome/86.0.4240.111 Safari/537.36",85,"[0.9, 0.5, 0.1]","[0.8, 0.4, 0.2]","[u'blue', u'red', u'black']","[u'left', u'middle', u'right']","[0.8, 0.4, 0.2]","[u'low', u'medium', u'high']","red",50,"middle","medium","True","False",79,4300,NA
"AI4AO0O0WIJF7","Sun Nov 01 2020 09:09:39 GMT-0700 (Mountain Standard Time)","Sun Nov 01 2020 09:17:02 GMT-0700 (Mountain Standard Time)","Mozilla/5.0 (Windows NT 10.0; Win64; x64) AppleWebKit/537.36 (KHTML, like Gecko) Chrome/86.0.4240.111 Safari/537.36",86,"[0.9, 0.5, 0.1]","[0.8, 0.4, 0.2]","[u'blue', u'red', u'black']","[u'left', u'middle', u'right']","[0.8, 0.4, 0.2]","[u'low', u'medium', u'high']","red",50,"middle","medium","False","False",324,4250,NA
"AI4AO0O0WIJF7","Sun Nov 01 2020 09:09:39 GMT-0700 (Mountain Standard Time)","Sun Nov 01 2020 09:17:02 GMT-0700 (Mountain Standard Time)","Mozilla/5.0 (Windows NT 10.0; Win64; x64) AppleWebKit/537.36 (KHTML, like Gecko) Chrome/86.0.4240.111 Safari/537.36",87,"[0.9, 0.5, 0.1]","[0.8, 0.4, 0.2]","[u'blue', u'red', u'black']","[u'left', u'middle', u'right']","[0.8, 0.4, 0.2]","[u'low', u'medium', u'high']","red",50,"middle","medium","True","False",240,4350,NA
"AI4AO0O0WIJF7","Sun Nov 01 2020 09:09:39 GMT-0700 (Mountain Standard Time)","Sun Nov 01 2020 09:17:02 GMT-0700 (Mountain Standard Time)","Mozilla/5.0 (Windows NT 10.0; Win64; x64) AppleWebKit/537.36 (KHTML, like Gecko) Chrome/86.0.4240.111 Safari/537.36",88,"[0.9, 0.5, 0.1]","[0.8, 0.4, 0.2]","[u'blue', u'red', u'black']","[u'left', u'middle', u'right']","[0.8, 0.4, 0.2]","[u'low', u'medium', u'high']","red",50,"middle","medium","False","False",354,4300,NA
"AI4AO0O0WIJF7","Sun Nov 01 2020 09:09:39 GMT-0700 (Mountain Standard Time)","Sun Nov 01 2020 09:17:02 GMT-0700 (Mountain Standard Time)","Mozilla/5.0 (Windows NT 10.0; Win64; x64) AppleWebKit/537.36 (KHTML, like Gecko) Chrome/86.0.4240.111 Safari/537.36",89,"[0.9, 0.5, 0.1]","[0.8, 0.4, 0.2]","[u'blue', u'red', u'black']","[u'left', u'middle', u'right']","[0.8, 0.4, 0.2]","[u'low', u'medium', u'high']","red",50,"middle","medium","True","False",180,4400,NA
"AI4AO0O0WIJF7","Sun Nov 01 2020 09:09:39 GMT-0700 (Mountain Standard Time)","Sun Nov 01 2020 09:17:02 GMT-0700 (Mountain Standard Time)","Mozilla/5.0 (Windows NT 10.0; Win64; x64) AppleWebKit/537.36 (KHTML, like Gecko) Chrome/86.0.4240.111 Safari/537.36",90,"[0.9, 0.5, 0.1]","[0.8, 0.4, 0.2]","[u'blue', u'red', u'black']","[u'left', u'middle', u'right']","[0.8, 0.4, 0.2]","[u'low', u'medium', u'high']","red",50,"middle","medium","False","False",366,4350,NA
"AI4AO0O0WIJF7","Sun Nov 01 2020 09:09:39 GMT-0700 (Mountain Standard Time)","Sun Nov 01 2020 09:17:02 GMT-0700 (Mountain Standard Time)","Mozilla/5.0 (Windows NT 10.0; Win64; x64) AppleWebKit/537.36 (KHTML, like Gecko) Chrome/86.0.4240.111 Safari/537.36",91,"[0.9, 0.5, 0.1]","[0.8, 0.4, 0.2]","[u'blue', u'red', u'black']","[u'left', u'middle', u'right']","[0.8, 0.4, 0.2]","[u'low', u'medium', u'high']","black",51,"right","high","False","False",401,4300,NA
"AI4AO0O0WIJF7","Sun Nov 01 2020 09:09:39 GMT-0700 (Mountain Standard Time)","Sun Nov 01 2020 09:17:02 GMT-0700 (Mountain Standard Time)","Mozilla/5.0 (Windows NT 10.0; Win64; x64) AppleWebKit/537.36 (KHTML, like Gecko) Chrome/86.0.4240.111 Safari/537.36",92,"[0.9, 0.5, 0.1]","[0.8, 0.4, 0.2]","[u'blue', u'red', u'black']","[u'left', u'middle', u'right']","[0.8, 0.4, 0.2]","[u'low', u'medium', u'high']","black",51,"right","high","True","False",109,4400,NA
"AI4AO0O0WIJF7","Sun Nov 01 2020 09:09:39 GMT-0700 (Mountain Standard Time)","Sun Nov 01 2020 09:17:02 GMT-0700 (Mountain Standard Time)","Mozilla/5.0 (Windows NT 10.0; Win64; x64) AppleWebKit/537.36 (KHTML, like Gecko) Chrome/86.0.4240.111 Safari/537.36",93,"[0.9, 0.5, 0.1]","[0.8, 0.4, 0.2]","[u'blue', u'red', u'black']","[u'left', u'middle', u'right']","[0.8, 0.4, 0.2]","[u'low', u'medium', u'high']","black",51,"right","high","True","False",291,4500,NA
"AI4AO0O0WIJF7","Sun Nov 01 2020 09:09:39 GMT-0700 (Mountain Standard Time)","Sun Nov 01 2020 09:17:02 GMT-0700 (Mountain Standard Time)","Mozilla/5.0 (Windows NT 10.0; Win64; x64) AppleWebKit/537.36 (KHTML, like Gecko) Chrome/86.0.4240.111 Safari/537.36",94,"[0.9, 0.5, 0.1]","[0.8, 0.4, 0.2]","[u'blue', u'red', u'black']","[u'left', u'middle', u'right']","[0.8, 0.4, 0.2]","[u'low', u'medium', u'high']","black",51,"right","high","False","False",372,4450,NA
"AI4AO0O0WIJF7","Sun Nov 01 2020 09:09:39 GMT-0700 (Mountain Standard Time)","Sun Nov 01 2020 09:17:02 GMT-0700 (Mountain Standard Time)","Mozilla/5.0 (Windows NT 10.0; Win64; x64) AppleWebKit/537.36 (KHTML, like Gecko) Chrome/86.0.4240.111 Safari/537.36",95,"[0.9, 0.5, 0.1]","[0.8, 0.4, 0.2]","[u'blue', u'red', u'black']","[u'left', u'middle', u'right']","[0.8, 0.4, 0.2]","[u'low', u'medium', u'high']","black",51,"right","high","True","False",160,4550,NA
"AI4AO0O0WIJF7","Sun Nov 01 2020 09:09:39 GMT-0700 (Mountain Standard Time)","Sun Nov 01 2020 09:17:02 GMT-0700 (Mountain Standard Time)","Mozilla/5.0 (Windows NT 10.0; Win64; x64) AppleWebKit/537.36 (KHTML, like Gecko) Chrome/86.0.4240.111 Safari/537.36",96,"[0.9, 0.5, 0.1]","[0.8, 0.4, 0.2]","[u'blue', u'red', u'black']","[u'left', u'middle', u'right']","[0.8, 0.4, 0.2]","[u'low', u'medium', u'high']","black",51,"right","high","True","False",292,4650,NA
"AI4AO0O0WIJF7","Sun Nov 01 2020 09:09:39 GMT-0700 (Mountain Standard Time)","Sun Nov 01 2020 09:17:02 GMT-0700 (Mountain Standard Time)","Mozilla/5.0 (Windows NT 10.0; Win64; x64) AppleWebKit/537.36 (KHTML, like Gecko) Chrome/86.0.4240.111 Safari/537.36",97,"[0.9, 0.5, 0.1]","[0.8, 0.4, 0.2]","[u'blue', u'red', u'black']","[u'left', u'middle', u'right']","[0.8, 0.4, 0.2]","[u'low', u'medium', u'high']","black",51,"right","high","True","False",328,4750,NA
"AI4AO0O0WIJF7","Sun Nov 01 2020 09:09:39 GMT-0700 (Mountain Standard Time)","Sun Nov 01 2020 09:17:02 GMT-0700 (Mountain Standard Time)","Mozilla/5.0 (Windows NT 10.0; Win64; x64) AppleWebKit/537.36 (KHTML, like Gecko) Chrome/86.0.4240.111 Safari/537.36",98,"[0.9, 0.5, 0.1]","[0.8, 0.4, 0.2]","[u'blue', u'red', u'black']","[u'left', u'middle', u'right']","[0.8, 0.4, 0.2]","[u'low', u'medium', u'high']","black",51,"right","high","True","False",433,4850,NA
"AI4AO0O0WIJF7","Sun Nov 01 2020 09:09:39 GMT-0700 (Mountain Standard Time)","Sun Nov 01 2020 09:17:02 GMT-0700 (Mountain Standard Time)","Mozilla/5.0 (Windows NT 10.0; Win64; x64) AppleWebKit/537.36 (KHTML, like Gecko) Chrome/86.0.4240.111 Safari/537.36",99,"[0.9, 0.5, 0.1]","[0.8, 0.4, 0.2]","[u'blue', u'red', u'black']","[u'left', u'middle', u'right']","[0.8, 0.4, 0.2]","[u'low', u'medium', u'high']","black",51,"right","high","True","True",362,4950,NA
"AI4AO0O0WIJF7","Sun Nov 01 2020 09:09:39 GMT-0700 (Mountain Standard Time)","Sun Nov 01 2020 09:17:02 GMT-0700 (Mountain Standard Time)","Mozilla/5.0 (Windows NT 10.0; Win64; x64) AppleWebKit/537.36 (KHTML, like Gecko) Chrome/86.0.4240.111 Safari/537.36",100,"[0.9, 0.5, 0.1]","[0.8, 0.4, 0.2]","[u'blue', u'red', u'black']","[u'left', u'middle', u'right']","[0.8, 0.4, 0.2]","[u'high', u'medium', u'low']","black",51,"right","low","False","False",342,4900,NA
"AI4AO0O0WIJF7","Sun Nov 01 2020 09:09:39 GMT-0700 (Mountain Standard Time)","Sun Nov 01 2020 09:17:02 GMT-0700 (Mountain Standard Time)","Mozilla/5.0 (Windows NT 10.0; Win64; x64) AppleWebKit/537.36 (KHTML, like Gecko) Chrome/86.0.4240.111 Safari/537.36",101,"[0.9, 0.5, 0.1]","[0.8, 0.4, 0.2]","[u'blue', u'red', u'black']","[u'left', u'middle', u'right']","[0.8, 0.4, 0.2]","[u'high', u'medium', u'low']","black",51,"right","low","False","False",300,4850,NA
"AI4AO0O0WIJF7","Sun Nov 01 2020 09:09:39 GMT-0700 (Mountain Standard Time)","Sun Nov 01 2020 09:17:02 GMT-0700 (Mountain Standard Time)","Mozilla/5.0 (Windows NT 10.0; Win64; x64) AppleWebKit/537.36 (KHTML, like Gecko) Chrome/86.0.4240.111 Safari/537.36",102,"[0.9, 0.5, 0.1]","[0.8, 0.4, 0.2]","[u'blue', u'red', u'black']","[u'left', u'middle', u'right']","[0.8, 0.4, 0.2]","[u'high', u'medium', u'low']","blue",49,"left","high","True","False",23,4950,NA
"AI4AO0O0WIJF7","Sun Nov 01 2020 09:09:39 GMT-0700 (Mountain Standard Time)","Sun Nov 01 2020 09:17:02 GMT-0700 (Mountain Standard Time)","Mozilla/5.0 (Windows NT 10.0; Win64; x64) AppleWebKit/537.36 (KHTML, like Gecko) Chrome/86.0.4240.111 Safari/537.36",103,"[0.9, 0.5, 0.1]","[0.8, 0.4, 0.2]","[u'blue', u'red', u'black']","[u'left', u'middle', u'right']","[0.8, 0.4, 0.2]","[u'high', u'medium', u'low']","blue",49,"left","high","True","False",194,5050,NA
"AI4AO0O0WIJF7","Sun Nov 01 2020 09:09:39 GMT-0700 (Mountain Standard Time)","Sun Nov 01 2020 09:17:02 GMT-0700 (Mountain Standard Time)","Mozilla/5.0 (Windows NT 10.0; Win64; x64) AppleWebKit/537.36 (KHTML, like Gecko) Chrome/86.0.4240.111 Safari/537.36",104,"[0.9, 0.5, 0.1]","[0.8, 0.4, 0.2]","[u'blue', u'red', u'black']","[u'left', u'middle', u'right']","[0.8, 0.4, 0.2]","[u'high', u'medium', u'low']","blue",49,"left","high","True","False",418,5150,NA
"AI4AO0O0WIJF7","Sun Nov 01 2020 09:09:39 GMT-0700 (Mountain Standard Time)","Sun Nov 01 2020 09:17:02 GMT-0700 (Mountain Standard Time)","Mozilla/5.0 (Windows NT 10.0; Win64; x64) AppleWebKit/537.36 (KHTML, like Gecko) Chrome/86.0.4240.111 Safari/537.36",105,"[0.9, 0.5, 0.1]","[0.8, 0.4, 0.2]","[u'blue', u'red', u'black']","[u'left', u'middle', u'right']","[0.8, 0.4, 0.2]","[u'high', u'medium', u'low']","blue",49,"left","high","True","False",251,5250,NA
"AI4AO0O0WIJF7","Sun Nov 01 2020 09:09:39 GMT-0700 (Mountain Standard Time)","Sun Nov 01 2020 09:17:02 GMT-0700 (Mountain Standard Time)","Mozilla/5.0 (Windows NT 10.0; Win64; x64) AppleWebKit/537.36 (KHTML, like Gecko) Chrome/86.0.4240.111 Safari/537.36",106,"[0.9, 0.5, 0.1]","[0.8, 0.4, 0.2]","[u'blue', u'red', u'black']","[u'left', u'middle', u'right']","[0.8, 0.4, 0.2]","[u'high', u'medium', u'low']","blue",49,"left","high","False","False",244,5200,NA
"AI4AO0O0WIJF7","Sun Nov 01 2020 09:09:39 GMT-0700 (Mountain Standard Time)","Sun Nov 01 2020 09:17:02 GMT-0700 (Mountain Standard Time)","Mozilla/5.0 (Windows NT 10.0; Win64; x64) AppleWebKit/537.36 (KHTML, like Gecko) Chrome/86.0.4240.111 Safari/537.36",107,"[0.9, 0.5, 0.1]","[0.8, 0.4, 0.2]","[u'blue', u'red', u'black']","[u'left', u'middle', u'right']","[0.8, 0.4, 0.2]","[u'high', u'medium', u'low']","blue",49,"left","high","True","False",200,5300,NA
"AI4AO0O0WIJF7","Sun Nov 01 2020 09:09:39 GMT-0700 (Mountain Standard Time)","Sun Nov 01 2020 09:17:02 GMT-0700 (Mountain Standard Time)","Mozilla/5.0 (Windows NT 10.0; Win64; x64) AppleWebKit/537.36 (KHTML, like Gecko) Chrome/86.0.4240.111 Safari/537.36",108,"[0.9, 0.5, 0.1]","[0.8, 0.4, 0.2]","[u'blue', u'red', u'black']","[u'left', u'middle', u'right']","[0.8, 0.4, 0.2]","[u'high', u'medium', u'low']","blue",49,"left","high","False","False",366,5250,NA
"AI4AO0O0WIJF7","Sun Nov 01 2020 09:09:39 GMT-0700 (Mountain Standard Time)","Sun Nov 01 2020 09:17:02 GMT-0700 (Mountain Standard Time)","Mozilla/5.0 (Windows NT 10.0; Win64; x64) AppleWebKit/537.36 (KHTML, like Gecko) Chrome/86.0.4240.111 Safari/537.36",109,"[0.9, 0.5, 0.1]","[0.8, 0.4, 0.2]","[u'blue', u'red', u'black']","[u'left', u'middle', u'right']","[0.8, 0.4, 0.2]","[u'high', u'medium', u'low']","blue",49,"left","high","True","False",432,5350,NA
"AI4AO0O0WIJF7","Sun Nov 01 2020 09:09:39 GMT-0700 (Mountain Standard Time)","Sun Nov 01 2020 09:17:02 GMT-0700 (Mountain Standard Time)","Mozilla/5.0 (Windows NT 10.0; Win64; x64) AppleWebKit/537.36 (KHTML, like Gecko) Chrome/86.0.4240.111 Safari/537.36",110,"[0.9, 0.5, 0.1]","[0.8, 0.4, 0.2]","[u'blue', u'red', u'black']","[u'left', u'middle', u'right']","[0.8, 0.4, 0.2]","[u'high', u'medium', u'low']","blue",49,"left","high","True","True",389,5450,NA
"AI4AO0O0WIJF7","Sun Nov 01 2020 09:09:39 GMT-0700 (Mountain Standard Time)","Sun Nov 01 2020 09:17:02 GMT-0700 (Mountain Standard Time)","Mozilla/5.0 (Windows NT 10.0; Win64; x64) AppleWebKit/537.36 (KHTML, like Gecko) Chrome/86.0.4240.111 Safari/537.36",111,"[0.9, 0.5, 0.1]","[0.8, 0.4, 0.2]","[u'blue', u'red', u'black']","[u'left', u'middle', u'right']","[0.8, 0.4, 0.2]","[u'low', u'medium', u'high']","blue",49,"left","low","False","False",196,5400,NA
"AI4AO0O0WIJF7","Sun Nov 01 2020 09:09:39 GMT-0700 (Mountain Standard Time)","Sun Nov 01 2020 09:17:02 GMT-0700 (Mountain Standard Time)","Mozilla/5.0 (Windows NT 10.0; Win64; x64) AppleWebKit/537.36 (KHTML, like Gecko) Chrome/86.0.4240.111 Safari/537.36",112,"[0.9, 0.5, 0.1]","[0.8, 0.4, 0.2]","[u'blue', u'red', u'black']","[u'left', u'middle', u'right']","[0.8, 0.4, 0.2]","[u'low', u'medium', u'high']","blue",49,"left","low","False","False",27,5350,NA
"AI4AO0O0WIJF7","Sun Nov 01 2020 09:09:39 GMT-0700 (Mountain Standard Time)","Sun Nov 01 2020 09:17:02 GMT-0700 (Mountain Standard Time)","Mozilla/5.0 (Windows NT 10.0; Win64; x64) AppleWebKit/537.36 (KHTML, like Gecko) Chrome/86.0.4240.111 Safari/537.36",113,"[0.9, 0.5, 0.1]","[0.8, 0.4, 0.2]","[u'blue', u'red', u'black']","[u'left', u'middle', u'right']","[0.8, 0.4, 0.2]","[u'low', u'medium', u'high']","red",50,"middle","medium","False","False",485,5300,NA
"AI4AO0O0WIJF7","Sun Nov 01 2020 09:09:39 GMT-0700 (Mountain Standard Time)","Sun Nov 01 2020 09:17:02 GMT-0700 (Mountain Standard Time)","Mozilla/5.0 (Windows NT 10.0; Win64; x64) AppleWebKit/537.36 (KHTML, like Gecko) Chrome/86.0.4240.111 Safari/537.36",114,"[0.9, 0.5, 0.1]","[0.8, 0.4, 0.2]","[u'blue', u'red', u'black']","[u'left', u'middle', u'right']","[0.8, 0.4, 0.2]","[u'low', u'medium', u'high']","black",51,"right","high","True","False",232,5400,NA
"AI4AO0O0WIJF7","Sun Nov 01 2020 09:09:39 GMT-0700 (Mountain Standard Time)","Sun Nov 01 2020 09:17:02 GMT-0700 (Mountain Standard Time)","Mozilla/5.0 (Windows NT 10.0; Win64; x64) AppleWebKit/537.36 (KHTML, like Gecko) Chrome/86.0.4240.111 Safari/537.36",115,"[0.9, 0.5, 0.1]","[0.8, 0.4, 0.2]","[u'blue', u'red', u'black']","[u'left', u'middle', u'right']","[0.8, 0.4, 0.2]","[u'low', u'medium', u'high']","black",51,"right","high","True","False",315,5500,NA
"AI4AO0O0WIJF7","Sun Nov 01 2020 09:09:39 GMT-0700 (Mountain Standard Time)","Sun Nov 01 2020 09:17:02 GMT-0700 (Mountain Standard Time)","Mozilla/5.0 (Windows NT 10.0; Win64; x64) AppleWebKit/537.36 (KHTML, like Gecko) Chrome/86.0.4240.111 Safari/537.36",116,"[0.9, 0.5, 0.1]","[0.8, 0.4, 0.2]","[u'blue', u'red', u'black']","[u'left', u'middle', u'right']","[0.8, 0.4, 0.2]","[u'low', u'medium', u'high']","black",51,"right","high","True","False",395,5600,NA
"AI4AO0O0WIJF7","Sun Nov 01 2020 09:09:39 GMT-0700 (Mountain Standard Time)","Sun Nov 01 2020 09:17:02 GMT-0700 (Mountain Standard Time)","Mozilla/5.0 (Windows NT 10.0; Win64; x64) AppleWebKit/537.36 (KHTML, like Gecko) Chrome/86.0.4240.111 Safari/537.36",117,"[0.9, 0.5, 0.1]","[0.8, 0.4, 0.2]","[u'blue', u'red', u'black']","[u'left', u'middle', u'right']","[0.8, 0.4, 0.2]","[u'low', u'medium', u'high']","black",51,"right","high","True","False",331,5700,NA
"AI4AO0O0WIJF7","Sun Nov 01 2020 09:09:39 GMT-0700 (Mountain Standard Time)","Sun Nov 01 2020 09:17:02 GMT-0700 (Mountain Standard Time)","Mozilla/5.0 (Windows NT 10.0; Win64; x64) AppleWebKit/537.36 (KHTML, like Gecko) Chrome/86.0.4240.111 Safari/537.36",118,"[0.9, 0.5, 0.1]","[0.8, 0.4, 0.2]","[u'blue', u'red', u'black']","[u'left', u'middle', u'right']","[0.8, 0.4, 0.2]","[u'low', u'medium', u'high']","black",51,"right","high","True","False",291,5800,NA
"AI4AO0O0WIJF7","Sun Nov 01 2020 09:09:39 GMT-0700 (Mountain Standard Time)","Sun Nov 01 2020 09:17:02 GMT-0700 (Mountain Standard Time)","Mozilla/5.0 (Windows NT 10.0; Win64; x64) AppleWebKit/537.36 (KHTML, like Gecko) Chrome/86.0.4240.111 Safari/537.36",119,"[0.9, 0.5, 0.1]","[0.8, 0.4, 0.2]","[u'blue', u'red', u'black']","[u'left', u'middle', u'right']","[0.8, 0.4, 0.2]","[u'low', u'medium', u'high']","black",51,"right","high","True","False",282,5900,NA
"AI4AO0O0WIJF7","Sun Nov 01 2020 09:09:39 GMT-0700 (Mountain Standard Time)","Sun Nov 01 2020 09:17:02 GMT-0700 (Mountain Standard Time)","Mozilla/5.0 (Windows NT 10.0; Win64; x64) AppleWebKit/537.36 (KHTML, like Gecko) Chrome/86.0.4240.111 Safari/537.36",120,"[0.9, 0.5, 0.1]","[0.8, 0.4, 0.2]","[u'blue', u'red', u'black']","[u'left', u'middle', u'right']","[0.8, 0.4, 0.2]","[u'low', u'medium', u'high']","black",51,"right","high","True","False",333,6000,NA
"AI4AO0O0WIJF7","Sun Nov 01 2020 09:09:39 GMT-0700 (Mountain Standard Time)","Sun Nov 01 2020 09:17:02 GMT-0700 (Mountain Standard Time)","Mozilla/5.0 (Windows NT 10.0; Win64; x64) AppleWebKit/537.36 (KHTML, like Gecko) Chrome/86.0.4240.111 Safari/537.36",121,"[0.9, 0.5, 0.1]","[0.8, 0.4, 0.2]","[u'blue', u'red', u'black']","[u'left', u'middle', u'right']","[0.8, 0.4, 0.2]","[u'low', u'high', u'medium']","black",51,"right","medium","False","False",334,5950,NA
"AI4AO0O0WIJF7","Sun Nov 01 2020 09:09:39 GMT-0700 (Mountain Standard Time)","Sun Nov 01 2020 09:17:02 GMT-0700 (Mountain Standard Time)","Mozilla/5.0 (Windows NT 10.0; Win64; x64) AppleWebKit/537.36 (KHTML, like Gecko) Chrome/86.0.4240.111 Safari/537.36",122,"[0.9, 0.5, 0.1]","[0.8, 0.4, 0.2]","[u'blue', u'red', u'black']","[u'left', u'middle', u'right']","[0.8, 0.4, 0.2]","[u'low', u'high', u'medium']","black",51,"right","medium","False","False",295,5900,NA
"AI4AO0O0WIJF7","Sun Nov 01 2020 09:09:39 GMT-0700 (Mountain Standard Time)","Sun Nov 01 2020 09:17:02 GMT-0700 (Mountain Standard Time)","Mozilla/5.0 (Windows NT 10.0; Win64; x64) AppleWebKit/537.36 (KHTML, like Gecko) Chrome/86.0.4240.111 Safari/537.36",123,"[0.9, 0.5, 0.1]","[0.8, 0.4, 0.2]","[u'blue', u'red', u'black']","[u'left', u'middle', u'right']","[0.8, 0.4, 0.2]","[u'low', u'high', u'medium']","red",50,"middle","high","False","False",433,5850,NA
"AI4AO0O0WIJF7","Sun Nov 01 2020 09:09:39 GMT-0700 (Mountain Standard Time)","Sun Nov 01 2020 09:17:02 GMT-0700 (Mountain Standard Time)","Mozilla/5.0 (Windows NT 10.0; Win64; x64) AppleWebKit/537.36 (KHTML, like Gecko) Chrome/86.0.4240.111 Safari/537.36",124,"[0.9, 0.5, 0.1]","[0.8, 0.4, 0.2]","[u'blue', u'red', u'black']","[u'left', u'middle', u'right']","[0.8, 0.4, 0.2]","[u'low', u'high', u'medium']","blue",49,"left","low","False","False",366,5800,NA
"AI4AO0O0WIJF7","Sun Nov 01 2020 09:09:39 GMT-0700 (Mountain Standard Time)","Sun Nov 01 2020 09:17:02 GMT-0700 (Mountain Standard Time)","Mozilla/5.0 (Windows NT 10.0; Win64; x64) AppleWebKit/537.36 (KHTML, like Gecko) Chrome/86.0.4240.111 Safari/537.36",125,"[0.9, 0.5, 0.1]","[0.8, 0.4, 0.2]","[u'blue', u'red', u'black']","[u'left', u'middle', u'right']","[0.8, 0.4, 0.2]","[u'low', u'high', u'medium']","red",50,"middle","high","True","False",439,5900,NA
"AI4AO0O0WIJF7","Sun Nov 01 2020 09:09:39 GMT-0700 (Mountain Standard Time)","Sun Nov 01 2020 09:17:02 GMT-0700 (Mountain Standard Time)","Mozilla/5.0 (Windows NT 10.0; Win64; x64) AppleWebKit/537.36 (KHTML, like Gecko) Chrome/86.0.4240.111 Safari/537.36",126,"[0.9, 0.5, 0.1]","[0.8, 0.4, 0.2]","[u'blue', u'red', u'black']","[u'left', u'middle', u'right']","[0.8, 0.4, 0.2]","[u'low', u'high', u'medium']","red",50,"middle","high","True","False",467,6000,NA
"AI4AO0O0WIJF7","Sun Nov 01 2020 09:09:39 GMT-0700 (Mountain Standard Time)","Sun Nov 01 2020 09:17:02 GMT-0700 (Mountain Standard Time)","Mozilla/5.0 (Windows NT 10.0; Win64; x64) AppleWebKit/537.36 (KHTML, like Gecko) Chrome/86.0.4240.111 Safari/537.36",127,"[0.9, 0.5, 0.1]","[0.8, 0.4, 0.2]","[u'blue', u'red', u'black']","[u'left', u'middle', u'right']","[0.8, 0.4, 0.2]","[u'low', u'high', u'medium']","red",50,"middle","high","False","False",431,5950,NA
"AI4AO0O0WIJF7","Sun Nov 01 2020 09:09:39 GMT-0700 (Mountain Standard Time)","Sun Nov 01 2020 09:17:02 GMT-0700 (Mountain Standard Time)","Mozilla/5.0 (Windows NT 10.0; Win64; x64) AppleWebKit/537.36 (KHTML, like Gecko) Chrome/86.0.4240.111 Safari/537.36",128,"[0.9, 0.5, 0.1]","[0.8, 0.4, 0.2]","[u'blue', u'red', u'black']","[u'left', u'middle', u'right']","[0.8, 0.4, 0.2]","[u'low', u'high', u'medium']","red",50,"middle","high","True","False",495,6050,NA
"AI4AO0O0WIJF7","Sun Nov 01 2020 09:09:39 GMT-0700 (Mountain Standard Time)","Sun Nov 01 2020 09:17:02 GMT-0700 (Mountain Standard Time)","Mozilla/5.0 (Windows NT 10.0; Win64; x64) AppleWebKit/537.36 (KHTML, like Gecko) Chrome/86.0.4240.111 Safari/537.36",129,"[0.9, 0.5, 0.1]","[0.8, 0.4, 0.2]","[u'blue', u'red', u'black']","[u'left', u'middle', u'right']","[0.8, 0.4, 0.2]","[u'low', u'high', u'medium']","red",50,"middle","high","True","False",724,6150,NA
"AI4AO0O0WIJF7","Sun Nov 01 2020 09:09:39 GMT-0700 (Mountain Standard Time)","Sun Nov 01 2020 09:17:02 GMT-0700 (Mountain Standard Time)","Mozilla/5.0 (Windows NT 10.0; Win64; x64) AppleWebKit/537.36 (KHTML, like Gecko) Chrome/86.0.4240.111 Safari/537.36",130,"[0.9, 0.5, 0.1]","[0.8, 0.4, 0.2]","[u'blue', u'red', u'black']","[u'left', u'middle', u'right']","[0.8, 0.4, 0.2]","[u'low', u'high', u'medium']","red",50,"middle","high","False","False",413,6100,NA
"AI4AO0O0WIJF7","Sun Nov 01 2020 09:09:39 GMT-0700 (Mountain Standard Time)","Sun Nov 01 2020 09:17:02 GMT-0700 (Mountain Standard Time)","Mozilla/5.0 (Windows NT 10.0; Win64; x64) AppleWebKit/537.36 (KHTML, like Gecko) Chrome/86.0.4240.111 Safari/537.36",131,"[0.9, 0.5, 0.1]","[0.8, 0.4, 0.2]","[u'blue', u'red', u'black']","[u'left', u'middle', u'right']","[0.8, 0.4, 0.2]","[u'low', u'high', u'medium']","red",50,"middle","high","True","False",269,6200,NA
"AI4AO0O0WIJF7","Sun Nov 01 2020 09:09:39 GMT-0700 (Mountain Standard Time)","Sun Nov 01 2020 09:17:02 GMT-0700 (Mountain Standard Time)","Mozilla/5.0 (Windows NT 10.0; Win64; x64) AppleWebKit/537.36 (KHTML, like Gecko) Chrome/86.0.4240.111 Safari/537.36",132,"[0.9, 0.5, 0.1]","[0.8, 0.4, 0.2]","[u'blue', u'red', u'black']","[u'left', u'middle', u'right']","[0.8, 0.4, 0.2]","[u'low', u'high', u'medium']","black",51,"right","medium","True","False",422,6300,NA
"AI4AO0O0WIJF7","Sun Nov 01 2020 09:09:39 GMT-0700 (Mountain Standard Time)","Sun Nov 01 2020 09:17:02 GMT-0700 (Mountain Standard Time)","Mozilla/5.0 (Windows NT 10.0; Win64; x64) AppleWebKit/537.36 (KHTML, like Gecko) Chrome/86.0.4240.111 Safari/537.36",133,"[0.9, 0.5, 0.1]","[0.8, 0.4, 0.2]","[u'blue', u'red', u'black']","[u'left', u'middle', u'right']","[0.8, 0.4, 0.2]","[u'low', u'high', u'medium']","black",51,"right","medium","False","False",341,6250,NA
"AI4AO0O0WIJF7","Sun Nov 01 2020 09:09:39 GMT-0700 (Mountain Standard Time)","Sun Nov 01 2020 09:17:02 GMT-0700 (Mountain Standard Time)","Mozilla/5.0 (Windows NT 10.0; Win64; x64) AppleWebKit/537.36 (KHTML, like Gecko) Chrome/86.0.4240.111 Safari/537.36",134,"[0.9, 0.5, 0.1]","[0.8, 0.4, 0.2]","[u'blue', u'red', u'black']","[u'left', u'middle', u'right']","[0.8, 0.4, 0.2]","[u'low', u'high', u'medium']","blue",49,"left","low","True","False",382,6350,NA
"AI4AO0O0WIJF7","Sun Nov 01 2020 09:09:39 GMT-0700 (Mountain Standard Time)","Sun Nov 01 2020 09:17:02 GMT-0700 (Mountain Standard Time)","Mozilla/5.0 (Windows NT 10.0; Win64; x64) AppleWebKit/537.36 (KHTML, like Gecko) Chrome/86.0.4240.111 Safari/537.36",135,"[0.9, 0.5, 0.1]","[0.8, 0.4, 0.2]","[u'blue', u'red', u'black']","[u'left', u'middle', u'right']","[0.8, 0.4, 0.2]","[u'low', u'high', u'medium']","blue",49,"left","low","False","False",327,6300,NA
"AI4AO0O0WIJF7","Sun Nov 01 2020 09:09:39 GMT-0700 (Mountain Standard Time)","Sun Nov 01 2020 09:17:02 GMT-0700 (Mountain Standard Time)","Mozilla/5.0 (Windows NT 10.0; Win64; x64) AppleWebKit/537.36 (KHTML, like Gecko) Chrome/86.0.4240.111 Safari/537.36",136,"[0.9, 0.5, 0.1]","[0.8, 0.4, 0.2]","[u'blue', u'red', u'black']","[u'left', u'middle', u'right']","[0.8, 0.4, 0.2]","[u'low', u'high', u'medium']","blue",49,"left","low","True","False",251,6400,NA
"AI4AO0O0WIJF7","Sun Nov 01 2020 09:09:39 GMT-0700 (Mountain Standard Time)","Sun Nov 01 2020 09:17:02 GMT-0700 (Mountain Standard Time)","Mozilla/5.0 (Windows NT 10.0; Win64; x64) AppleWebKit/537.36 (KHTML, like Gecko) Chrome/86.0.4240.111 Safari/537.36",137,"[0.9, 0.5, 0.1]","[0.8, 0.4, 0.2]","[u'blue', u'red', u'black']","[u'left', u'middle', u'right']","[0.8, 0.4, 0.2]","[u'low', u'high', u'medium']","blue",49,"left","low","False","False",370,6350,NA
"AI4AO0O0WIJF7","Sun Nov 01 2020 09:09:39 GMT-0700 (Mountain Standard Time)","Sun Nov 01 2020 09:17:02 GMT-0700 (Mountain Standard Time)","Mozilla/5.0 (Windows NT 10.0; Win64; x64) AppleWebKit/537.36 (KHTML, like Gecko) Chrome/86.0.4240.111 Safari/537.36",138,"[0.9, 0.5, 0.1]","[0.8, 0.4, 0.2]","[u'blue', u'red', u'black']","[u'left', u'middle', u'right']","[0.8, 0.4, 0.2]","[u'low', u'high', u'medium']","blue",49,"left","low","False","False",181,6300,NA
"AI4AO0O0WIJF7","Sun Nov 01 2020 09:09:39 GMT-0700 (Mountain Standard Time)","Sun Nov 01 2020 09:17:02 GMT-0700 (Mountain Standard Time)","Mozilla/5.0 (Windows NT 10.0; Win64; x64) AppleWebKit/537.36 (KHTML, like Gecko) Chrome/86.0.4240.111 Safari/537.36",139,"[0.9, 0.5, 0.1]","[0.8, 0.4, 0.2]","[u'blue', u'red', u'black']","[u'left', u'middle', u'right']","[0.8, 0.4, 0.2]","[u'low', u'high', u'medium']","red",50,"middle","high","True","False",8,6400,NA
"AI4AO0O0WIJF7","Sun Nov 01 2020 09:09:39 GMT-0700 (Mountain Standard Time)","Sun Nov 01 2020 09:17:02 GMT-0700 (Mountain Standard Time)","Mozilla/5.0 (Windows NT 10.0; Win64; x64) AppleWebKit/537.36 (KHTML, like Gecko) Chrome/86.0.4240.111 Safari/537.36",140,"[0.9, 0.5, 0.1]","[0.8, 0.4, 0.2]","[u'blue', u'red', u'black']","[u'left', u'middle', u'right']","[0.8, 0.4, 0.2]","[u'low', u'high', u'medium']","red",50,"middle","high","True","False",259,6500,NA
"AI4AO0O0WIJF7","Sun Nov 01 2020 09:09:39 GMT-0700 (Mountain Standard Time)","Sun Nov 01 2020 09:17:02 GMT-0700 (Mountain Standard Time)","Mozilla/5.0 (Windows NT 10.0; Win64; x64) AppleWebKit/537.36 (KHTML, like Gecko) Chrome/86.0.4240.111 Safari/537.36",141,"[0.9, 0.5, 0.1]","[0.8, 0.4, 0.2]","[u'blue', u'red', u'black']","[u'left', u'middle', u'right']","[0.8, 0.4, 0.2]","[u'low', u'high', u'medium']","red",50,"middle","high","True","False",342,6600,NA
"AI4AO0O0WIJF7","Sun Nov 01 2020 09:09:39 GMT-0700 (Mountain Standard Time)","Sun Nov 01 2020 09:17:02 GMT-0700 (Mountain Standard Time)","Mozilla/5.0 (Windows NT 10.0; Win64; x64) AppleWebKit/537.36 (KHTML, like Gecko) Chrome/86.0.4240.111 Safari/537.36",142,"[0.9, 0.5, 0.1]","[0.8, 0.4, 0.2]","[u'blue', u'red', u'black']","[u'left', u'middle', u'right']","[0.8, 0.4, 0.2]","[u'low', u'high', u'medium']","red",50,"middle","high","True","False",287,6700,NA
"AI4AO0O0WIJF7","Sun Nov 01 2020 09:09:39 GMT-0700 (Mountain Standard Time)","Sun Nov 01 2020 09:17:02 GMT-0700 (Mountain Standard Time)","Mozilla/5.0 (Windows NT 10.0; Win64; x64) AppleWebKit/537.36 (KHTML, like Gecko) Chrome/86.0.4240.111 Safari/537.36",143,"[0.9, 0.5, 0.1]","[0.8, 0.4, 0.2]","[u'blue', u'red', u'black']","[u'left', u'middle', u'right']","[0.8, 0.4, 0.2]","[u'low', u'high', u'medium']","red",50,"middle","high","True","False",339,6800,NA
"AI4AO0O0WIJF7","Sun Nov 01 2020 09:09:39 GMT-0700 (Mountain Standard Time)","Sun Nov 01 2020 09:17:02 GMT-0700 (Mountain Standard Time)","Mozilla/5.0 (Windows NT 10.0; Win64; x64) AppleWebKit/537.36 (KHTML, like Gecko) Chrome/86.0.4240.111 Safari/537.36",144,"[0.9, 0.5, 0.1]","[0.8, 0.4, 0.2]","[u'blue', u'red', u'black']","[u'left', u'middle', u'right']","[0.8, 0.4, 0.2]","[u'low', u'high', u'medium']","red",50,"middle","high","True","False",359,6900,NA
"AI4AO0O0WIJF7","Sun Nov 01 2020 09:09:39 GMT-0700 (Mountain Standard Time)","Sun Nov 01 2020 09:17:02 GMT-0700 (Mountain Standard Time)","Mozilla/5.0 (Windows NT 10.0; Win64; x64) AppleWebKit/537.36 (KHTML, like Gecko) Chrome/86.0.4240.111 Safari/537.36",145,"[0.9, 0.5, 0.1]","[0.8, 0.4, 0.2]","[u'blue', u'red', u'black']","[u'left', u'middle', u'right']","[0.8, 0.4, 0.2]","[u'low', u'high', u'medium']","red",50,"middle","high","True","False",295,7000,NA
"AI4AO0O0WIJF7","Sun Nov 01 2020 09:09:39 GMT-0700 (Mountain Standard Time)","Sun Nov 01 2020 09:17:02 GMT-0700 (Mountain Standard Time)","Mozilla/5.0 (Windows NT 10.0; Win64; x64) AppleWebKit/537.36 (KHTML, like Gecko) Chrome/86.0.4240.111 Safari/537.36",146,"[0.9, 0.5, 0.1]","[0.8, 0.4, 0.2]","[u'blue', u'red', u'black']","[u'left', u'middle', u'right']","[0.8, 0.4, 0.2]","[u'low', u'high', u'medium']","red",50,"middle","high","False","False",313,6950,NA
"AI4AO0O0WIJF7","Sun Nov 01 2020 09:09:39 GMT-0700 (Mountain Standard Time)","Sun Nov 01 2020 09:17:02 GMT-0700 (Mountain Standard Time)","Mozilla/5.0 (Windows NT 10.0; Win64; x64) AppleWebKit/537.36 (KHTML, like Gecko) Chrome/86.0.4240.111 Safari/537.36",147,"[0.9, 0.5, 0.1]","[0.8, 0.4, 0.2]","[u'blue', u'red', u'black']","[u'left', u'middle', u'right']","[0.8, 0.4, 0.2]","[u'low', u'high', u'medium']","red",50,"middle","high","True","True",183,7050,NA
"AI4AO0O0WIJF7","Sun Nov 01 2020 09:09:39 GMT-0700 (Mountain Standard Time)","Sun Nov 01 2020 09:17:02 GMT-0700 (Mountain Standard Time)","Mozilla/5.0 (Windows NT 10.0; Win64; x64) AppleWebKit/537.36 (KHTML, like Gecko) Chrome/86.0.4240.111 Safari/537.36",148,"[0.9, 0.5, 0.1]","[0.8, 0.4, 0.2]","[u'blue', u'red', u'black']","[u'left', u'middle', u'right']","[0.8, 0.4, 0.2]","[u'high', u'medium', u'low']","red",50,"middle","medium","True","False",234,7150,NA
"AI4AO0O0WIJF7","Sun Nov 01 2020 09:09:39 GMT-0700 (Mountain Standard Time)","Sun Nov 01 2020 09:17:02 GMT-0700 (Mountain Standard Time)","Mozilla/5.0 (Windows NT 10.0; Win64; x64) AppleWebKit/537.36 (KHTML, like Gecko) Chrome/86.0.4240.111 Safari/537.36",149,"[0.9, 0.5, 0.1]","[0.8, 0.4, 0.2]","[u'blue', u'red', u'black']","[u'left', u'middle', u'right']","[0.8, 0.4, 0.2]","[u'high', u'medium', u'low']","red",50,"middle","medium","True","False",303,7250,NA
"AI4AO0O0WIJF7","Sun Nov 01 2020 09:09:39 GMT-0700 (Mountain Standard Time)","Sun Nov 01 2020 09:17:02 GMT-0700 (Mountain Standard Time)","Mozilla/5.0 (Windows NT 10.0; Win64; x64) AppleWebKit/537.36 (KHTML, like Gecko) Chrome/86.0.4240.111 Safari/537.36",150,"[0.9, 0.5, 0.1]","[0.8, 0.4, 0.2]","[u'blue', u'red', u'black']","[u'left', u'middle', u'right']","[0.8, 0.4, 0.2]","[u'high', u'medium', u'low']","red",50,"middle","medium","False","False",303,7200,NA
"AI4AO0O0WIJF7","Sun Nov 01 2020 09:09:39 GMT-0700 (Mountain Standard Time)","Sun Nov 01 2020 09:17:02 GMT-0700 (Mountain Standard Time)","Mozilla/5.0 (Windows NT 10.0; Win64; x64) AppleWebKit/537.36 (KHTML, like Gecko) Chrome/86.0.4240.111 Safari/537.36",151,"[0.9, 0.5, 0.1]","[0.8, 0.4, 0.2]","[u'blue', u'red', u'black']","[u'left', u'middle', u'right']","[0.8, 0.4, 0.2]","[u'high', u'medium', u'low']","red",50,"middle","medium","True","False",529,7300,NA
"AI4AO0O0WIJF7","Sun Nov 01 2020 09:09:39 GMT-0700 (Mountain Standard Time)","Sun Nov 01 2020 09:17:02 GMT-0700 (Mountain Standard Time)","Mozilla/5.0 (Windows NT 10.0; Win64; x64) AppleWebKit/537.36 (KHTML, like Gecko) Chrome/86.0.4240.111 Safari/537.36",152,"[0.9, 0.5, 0.1]","[0.8, 0.4, 0.2]","[u'blue', u'red', u'black']","[u'left', u'middle', u'right']","[0.8, 0.4, 0.2]","[u'high', u'medium', u'low']","red",50,"middle","medium","True","False",492,7400,NA
"AI4AO0O0WIJF7","Sun Nov 01 2020 09:09:39 GMT-0700 (Mountain Standard Time)","Sun Nov 01 2020 09:17:02 GMT-0700 (Mountain Standard Time)","Mozilla/5.0 (Windows NT 10.0; Win64; x64) AppleWebKit/537.36 (KHTML, like Gecko) Chrome/86.0.4240.111 Safari/537.36",153,"[0.9, 0.5, 0.1]","[0.8, 0.4, 0.2]","[u'blue', u'red', u'black']","[u'left', u'middle', u'right']","[0.8, 0.4, 0.2]","[u'high', u'medium', u'low']","red",50,"middle","medium","True","False",317,7500,NA
"AI4AO0O0WIJF7","Sun Nov 01 2020 09:09:39 GMT-0700 (Mountain Standard Time)","Sun Nov 01 2020 09:17:02 GMT-0700 (Mountain Standard Time)","Mozilla/5.0 (Windows NT 10.0; Win64; x64) AppleWebKit/537.36 (KHTML, like Gecko) Chrome/86.0.4240.111 Safari/537.36",154,"[0.9, 0.5, 0.1]","[0.8, 0.4, 0.2]","[u'blue', u'red', u'black']","[u'left', u'middle', u'right']","[0.8, 0.4, 0.2]","[u'high', u'medium', u'low']","red",50,"middle","medium","True","False",384,7600,NA
"AI4AO0O0WIJF7","Sun Nov 01 2020 09:09:39 GMT-0700 (Mountain Standard Time)","Sun Nov 01 2020 09:17:02 GMT-0700 (Mountain Standard Time)","Mozilla/5.0 (Windows NT 10.0; Win64; x64) AppleWebKit/537.36 (KHTML, like Gecko) Chrome/86.0.4240.111 Safari/537.36",155,"[0.9, 0.5, 0.1]","[0.8, 0.4, 0.2]","[u'blue', u'red', u'black']","[u'left', u'middle', u'right']","[0.8, 0.4, 0.2]","[u'high', u'medium', u'low']","red",50,"middle","medium","False","False",372,7550,NA
"AI4AO0O0WIJF7","Sun Nov 01 2020 09:09:39 GMT-0700 (Mountain Standard Time)","Sun Nov 01 2020 09:17:02 GMT-0700 (Mountain Standard Time)","Mozilla/5.0 (Windows NT 10.0; Win64; x64) AppleWebKit/537.36 (KHTML, like Gecko) Chrome/86.0.4240.111 Safari/537.36",156,"[0.9, 0.5, 0.1]","[0.8, 0.4, 0.2]","[u'blue', u'red', u'black']","[u'left', u'middle', u'right']","[0.8, 0.4, 0.2]","[u'high', u'medium', u'low']","red",50,"middle","medium","False","False",335,7500,NA
"AI4AO0O0WIJF7","Sun Nov 01 2020 09:09:39 GMT-0700 (Mountain Standard Time)","Sun Nov 01 2020 09:17:02 GMT-0700 (Mountain Standard Time)","Mozilla/5.0 (Windows NT 10.0; Win64; x64) AppleWebKit/537.36 (KHTML, like Gecko) Chrome/86.0.4240.111 Safari/537.36",157,"[0.9, 0.5, 0.1]","[0.8, 0.4, 0.2]","[u'blue', u'red', u'black']","[u'left', u'middle', u'right']","[0.8, 0.4, 0.2]","[u'high', u'medium', u'low']","black",51,"right","low","True","False",520,7600,NA
"AI4AO0O0WIJF7","Sun Nov 01 2020 09:09:39 GMT-0700 (Mountain Standard Time)","Sun Nov 01 2020 09:17:02 GMT-0700 (Mountain Standard Time)","Mozilla/5.0 (Windows NT 10.0; Win64; x64) AppleWebKit/537.36 (KHTML, like Gecko) Chrome/86.0.4240.111 Safari/537.36",158,"[0.9, 0.5, 0.1]","[0.8, 0.4, 0.2]","[u'blue', u'red', u'black']","[u'left', u'middle', u'right']","[0.8, 0.4, 0.2]","[u'high', u'medium', u'low']","black",51,"right","low","False","False",482,7550,NA
"AI4AO0O0WIJF7","Sun Nov 01 2020 09:09:39 GMT-0700 (Mountain Standard Time)","Sun Nov 01 2020 09:17:02 GMT-0700 (Mountain Standard Time)","Mozilla/5.0 (Windows NT 10.0; Win64; x64) AppleWebKit/537.36 (KHTML, like Gecko) Chrome/86.0.4240.111 Safari/537.36",159,"[0.9, 0.5, 0.1]","[0.8, 0.4, 0.2]","[u'blue', u'red', u'black']","[u'left', u'middle', u'right']","[0.8, 0.4, 0.2]","[u'high', u'medium', u'low']","black",51,"right","low","False","False",370,7500,NA
"AI4AO0O0WIJF7","Sun Nov 01 2020 09:09:39 GMT-0700 (Mountain Standard Time)","Sun Nov 01 2020 09:17:02 GMT-0700 (Mountain Standard Time)","Mozilla/5.0 (Windows NT 10.0; Win64; x64) AppleWebKit/537.36 (KHTML, like Gecko) Chrome/86.0.4240.111 Safari/537.36",160,"[0.9, 0.5, 0.1]","[0.8, 0.4, 0.2]","[u'blue', u'red', u'black']","[u'left', u'middle', u'right']","[0.8, 0.4, 0.2]","[u'high', u'medium', u'low']","blue",49,"left","high","True","False",349,7600,NA
