"src_subject_id","start_time","end_time","browser","index","first_half_probabilities","second_half_probabilities","deck_color","deck_position","deck_probabilities","deck_contingencies","response_color","key_press","response_position","response_probability","reward_type","trial_type","rt","reward_tally","exclusion_reason"
"A2OROMUVBD1NVC","Sun Nov 01 2020 11:13:26 GMT-0500 (Eastern Standard Time)","Sun Nov 01 2020 11:21:42 GMT-0500 (Eastern Standard Time)","Mozilla/5.0 (X11; CrOS x86_64 13421.73.0) AppleWebKit/537.36 (KHTML, like Gecko) Chrome/86.0.4240.112 Safari/537.36",1,"[0.9, 0.5, 0.1]","[0.8, 0.4, 0.2]","[u'blue', u'black', u'red']","[u'left', u'middle', u'right']","[0.9, 0.5, 0.1]","[u'high', u'low', u'medium']","red",51,"right","medium","True","False",1534,100,NA
"A2OROMUVBD1NVC","Sun Nov 01 2020 11:13:26 GMT-0500 (Eastern Standard Time)","Sun Nov 01 2020 11:21:42 GMT-0500 (Eastern Standard Time)","Mozilla/5.0 (X11; CrOS x86_64 13421.73.0) AppleWebKit/537.36 (KHTML, like Gecko) Chrome/86.0.4240.112 Safari/537.36",2,"[0.9, 0.5, 0.1]","[0.8, 0.4, 0.2]","[u'blue', u'black', u'red']","[u'left', u'middle', u'right']","[0.9, 0.5, 0.1]","[u'high', u'low', u'medium']","red",51,"right","medium","True","False",616,200,NA
"A2OROMUVBD1NVC","Sun Nov 01 2020 11:13:26 GMT-0500 (Eastern Standard Time)","Sun Nov 01 2020 11:21:42 GMT-0500 (Eastern Standard Time)","Mozilla/5.0 (X11; CrOS x86_64 13421.73.0) AppleWebKit/537.36 (KHTML, like Gecko) Chrome/86.0.4240.112 Safari/537.36",3,"[0.9, 0.5, 0.1]","[0.8, 0.4, 0.2]","[u'blue', u'black', u'red']","[u'left', u'middle', u'right']","[0.9, 0.5, 0.1]","[u'high', u'low', u'medium']","red",51,"right","medium","True","False",494,300,NA
"A2OROMUVBD1NVC","Sun Nov 01 2020 11:13:26 GMT-0500 (Eastern Standard Time)","Sun Nov 01 2020 11:21:42 GMT-0500 (Eastern Standard Time)","Mozilla/5.0 (X11; CrOS x86_64 13421.73.0) AppleWebKit/537.36 (KHTML, like Gecko) Chrome/86.0.4240.112 Safari/537.36",4,"[0.9, 0.5, 0.1]","[0.8, 0.4, 0.2]","[u'blue', u'black', u'red']","[u'left', u'middle', u'right']","[0.9, 0.5, 0.1]","[u'high', u'low', u'medium']","red",51,"right","medium","True","False",397,400,NA
"A2OROMUVBD1NVC","Sun Nov 01 2020 11:13:26 GMT-0500 (Eastern Standard Time)","Sun Nov 01 2020 11:21:42 GMT-0500 (Eastern Standard Time)","Mozilla/5.0 (X11; CrOS x86_64 13421.73.0) AppleWebKit/537.36 (KHTML, like Gecko) Chrome/86.0.4240.112 Safari/537.36",5,"[0.9, 0.5, 0.1]","[0.8, 0.4, 0.2]","[u'blue', u'black', u'red']","[u'left', u'middle', u'right']","[0.9, 0.5, 0.1]","[u'high', u'low', u'medium']","red",51,"right","medium","False","False",312,350,NA
"A2OROMUVBD1NVC","Sun Nov 01 2020 11:13:26 GMT-0500 (Eastern Standard Time)","Sun Nov 01 2020 11:21:42 GMT-0500 (Eastern Standard Time)","Mozilla/5.0 (X11; CrOS x86_64 13421.73.0) AppleWebKit/537.36 (KHTML, like Gecko) Chrome/86.0.4240.112 Safari/537.36",6,"[0.9, 0.5, 0.1]","[0.8, 0.4, 0.2]","[u'blue', u'black', u'red']","[u'left', u'middle', u'right']","[0.9, 0.5, 0.1]","[u'high', u'low', u'medium']","red",51,"right","medium","True","False",425,450,NA
"A2OROMUVBD1NVC","Sun Nov 01 2020 11:13:26 GMT-0500 (Eastern Standard Time)","Sun Nov 01 2020 11:21:42 GMT-0500 (Eastern Standard Time)","Mozilla/5.0 (X11; CrOS x86_64 13421.73.0) AppleWebKit/537.36 (KHTML, like Gecko) Chrome/86.0.4240.112 Safari/537.36",7,"[0.9, 0.5, 0.1]","[0.8, 0.4, 0.2]","[u'blue', u'black', u'red']","[u'left', u'middle', u'right']","[0.9, 0.5, 0.1]","[u'high', u'low', u'medium']","red",51,"right","medium","True","False",445,550,NA
"A2OROMUVBD1NVC","Sun Nov 01 2020 11:13:26 GMT-0500 (Eastern Standard Time)","Sun Nov 01 2020 11:21:42 GMT-0500 (Eastern Standard Time)","Mozilla/5.0 (X11; CrOS x86_64 13421.73.0) AppleWebKit/537.36 (KHTML, like Gecko) Chrome/86.0.4240.112 Safari/537.36",8,"[0.9, 0.5, 0.1]","[0.8, 0.4, 0.2]","[u'blue', u'black', u'red']","[u'left', u'middle', u'right']","[0.9, 0.5, 0.1]","[u'high', u'low', u'medium']","red",51,"right","medium","True","False",382,650,NA
"A2OROMUVBD1NVC","Sun Nov 01 2020 11:13:26 GMT-0500 (Eastern Standard Time)","Sun Nov 01 2020 11:21:42 GMT-0500 (Eastern Standard Time)","Mozilla/5.0 (X11; CrOS x86_64 13421.73.0) AppleWebKit/537.36 (KHTML, like Gecko) Chrome/86.0.4240.112 Safari/537.36",9,"[0.9, 0.5, 0.1]","[0.8, 0.4, 0.2]","[u'blue', u'black', u'red']","[u'left', u'middle', u'right']","[0.9, 0.5, 0.1]","[u'high', u'low', u'medium']","red",51,"right","medium","True","False",697,750,NA
"A2OROMUVBD1NVC","Sun Nov 01 2020 11:13:26 GMT-0500 (Eastern Standard Time)","Sun Nov 01 2020 11:21:42 GMT-0500 (Eastern Standard Time)","Mozilla/5.0 (X11; CrOS x86_64 13421.73.0) AppleWebKit/537.36 (KHTML, like Gecko) Chrome/86.0.4240.112 Safari/537.36",10,"[0.9, 0.5, 0.1]","[0.8, 0.4, 0.2]","[u'blue', u'black', u'red']","[u'left', u'middle', u'right']","[0.9, 0.5, 0.1]","[u'high', u'low', u'medium']","red",51,"right","medium","False","False",390,700,NA
"A2OROMUVBD1NVC","Sun Nov 01 2020 11:13:26 GMT-0500 (Eastern Standard Time)","Sun Nov 01 2020 11:21:42 GMT-0500 (Eastern Standard Time)","Mozilla/5.0 (X11; CrOS x86_64 13421.73.0) AppleWebKit/537.36 (KHTML, like Gecko) Chrome/86.0.4240.112 Safari/537.36",11,"[0.9, 0.5, 0.1]","[0.8, 0.4, 0.2]","[u'blue', u'black', u'red']","[u'left', u'middle', u'right']","[0.9, 0.5, 0.1]","[u'high', u'low', u'medium']","red",51,"right","medium","False","False",372,650,NA
"A2OROMUVBD1NVC","Sun Nov 01 2020 11:13:26 GMT-0500 (Eastern Standard Time)","Sun Nov 01 2020 11:21:42 GMT-0500 (Eastern Standard Time)","Mozilla/5.0 (X11; CrOS x86_64 13421.73.0) AppleWebKit/537.36 (KHTML, like Gecko) Chrome/86.0.4240.112 Safari/537.36",12,"[0.9, 0.5, 0.1]","[0.8, 0.4, 0.2]","[u'blue', u'black', u'red']","[u'left', u'middle', u'right']","[0.9, 0.5, 0.1]","[u'high', u'low', u'medium']","black",50,"middle","low","False","False",275,600,NA
"A2OROMUVBD1NVC","Sun Nov 01 2020 11:13:26 GMT-0500 (Eastern Standard Time)","Sun Nov 01 2020 11:21:42 GMT-0500 (Eastern Standard Time)","Mozilla/5.0 (X11; CrOS x86_64 13421.73.0) AppleWebKit/537.36 (KHTML, like Gecko) Chrome/86.0.4240.112 Safari/537.36",13,"[0.9, 0.5, 0.1]","[0.8, 0.4, 0.2]","[u'blue', u'black', u'red']","[u'left', u'middle', u'right']","[0.9, 0.5, 0.1]","[u'high', u'low', u'medium']","blue",49,"left","high","True","False",321,700,NA
"A2OROMUVBD1NVC","Sun Nov 01 2020 11:13:26 GMT-0500 (Eastern Standard Time)","Sun Nov 01 2020 11:21:42 GMT-0500 (Eastern Standard Time)","Mozilla/5.0 (X11; CrOS x86_64 13421.73.0) AppleWebKit/537.36 (KHTML, like Gecko) Chrome/86.0.4240.112 Safari/537.36",14,"[0.9, 0.5, 0.1]","[0.8, 0.4, 0.2]","[u'blue', u'black', u'red']","[u'left', u'middle', u'right']","[0.9, 0.5, 0.1]","[u'high', u'low', u'medium']","blue",49,"left","high","True","False",404,800,NA
"A2OROMUVBD1NVC","Sun Nov 01 2020 11:13:26 GMT-0500 (Eastern Standard Time)","Sun Nov 01 2020 11:21:42 GMT-0500 (Eastern Standard Time)","Mozilla/5.0 (X11; CrOS x86_64 13421.73.0) AppleWebKit/537.36 (KHTML, like Gecko) Chrome/86.0.4240.112 Safari/537.36",15,"[0.9, 0.5, 0.1]","[0.8, 0.4, 0.2]","[u'blue', u'black', u'red']","[u'left', u'middle', u'right']","[0.9, 0.5, 0.1]","[u'high', u'low', u'medium']","blue",49,"left","high","True","False",343,900,NA
"A2OROMUVBD1NVC","Sun Nov 01 2020 11:13:26 GMT-0500 (Eastern Standard Time)","Sun Nov 01 2020 11:21:42 GMT-0500 (Eastern Standard Time)","Mozilla/5.0 (X11; CrOS x86_64 13421.73.0) AppleWebKit/537.36 (KHTML, like Gecko) Chrome/86.0.4240.112 Safari/537.36",16,"[0.9, 0.5, 0.1]","[0.8, 0.4, 0.2]","[u'blue', u'black', u'red']","[u'left', u'middle', u'right']","[0.9, 0.5, 0.1]","[u'high', u'low', u'medium']","blue",49,"left","high","True","False",456,1000,NA
"A2OROMUVBD1NVC","Sun Nov 01 2020 11:13:26 GMT-0500 (Eastern Standard Time)","Sun Nov 01 2020 11:21:42 GMT-0500 (Eastern Standard Time)","Mozilla/5.0 (X11; CrOS x86_64 13421.73.0) AppleWebKit/537.36 (KHTML, like Gecko) Chrome/86.0.4240.112 Safari/537.36",17,"[0.9, 0.5, 0.1]","[0.8, 0.4, 0.2]","[u'blue', u'black', u'red']","[u'left', u'middle', u'right']","[0.9, 0.5, 0.1]","[u'high', u'low', u'medium']","blue",49,"left","high","False","False",568,950,NA
"A2OROMUVBD1NVC","Sun Nov 01 2020 11:13:26 GMT-0500 (Eastern Standard Time)","Sun Nov 01 2020 11:21:42 GMT-0500 (Eastern Standard Time)","Mozilla/5.0 (X11; CrOS x86_64 13421.73.0) AppleWebKit/537.36 (KHTML, like Gecko) Chrome/86.0.4240.112 Safari/537.36",18,"[0.9, 0.5, 0.1]","[0.8, 0.4, 0.2]","[u'blue', u'black', u'red']","[u'left', u'middle', u'right']","[0.9, 0.5, 0.1]","[u'high', u'low', u'medium']","blue",49,"left","high","True","False",315,1050,NA
"A2OROMUVBD1NVC","Sun Nov 01 2020 11:13:26 GMT-0500 (Eastern Standard Time)","Sun Nov 01 2020 11:21:42 GMT-0500 (Eastern Standard Time)","Mozilla/5.0 (X11; CrOS x86_64 13421.73.0) AppleWebKit/537.36 (KHTML, like Gecko) Chrome/86.0.4240.112 Safari/537.36",19,"[0.9, 0.5, 0.1]","[0.8, 0.4, 0.2]","[u'blue', u'black', u'red']","[u'left', u'middle', u'right']","[0.9, 0.5, 0.1]","[u'high', u'low', u'medium']","blue",49,"left","high","True","False",386,1150,NA
"A2OROMUVBD1NVC","Sun Nov 01 2020 11:13:26 GMT-0500 (Eastern Standard Time)","Sun Nov 01 2020 11:21:42 GMT-0500 (Eastern Standard Time)","Mozilla/5.0 (X11; CrOS x86_64 13421.73.0) AppleWebKit/537.36 (KHTML, like Gecko) Chrome/86.0.4240.112 Safari/537.36",20,"[0.9, 0.5, 0.1]","[0.8, 0.4, 0.2]","[u'blue', u'black', u'red']","[u'left', u'middle', u'right']","[0.9, 0.5, 0.1]","[u'high', u'low', u'medium']","blue",49,"left","high","True","False",606,1250,NA
"A2OROMUVBD1NVC","Sun Nov 01 2020 11:13:26 GMT-0500 (Eastern Standard Time)","Sun Nov 01 2020 11:21:42 GMT-0500 (Eastern Standard Time)","Mozilla/5.0 (X11; CrOS x86_64 13421.73.0) AppleWebKit/537.36 (KHTML, like Gecko) Chrome/86.0.4240.112 Safari/537.36",21,"[0.9, 0.5, 0.1]","[0.8, 0.4, 0.2]","[u'blue', u'black', u'red']","[u'left', u'middle', u'right']","[0.9, 0.5, 0.1]","[u'high', u'low', u'medium']","blue",49,"left","high","True","True",471,1350,NA
"A2OROMUVBD1NVC","Sun Nov 01 2020 11:13:26 GMT-0500 (Eastern Standard Time)","Sun Nov 01 2020 11:21:42 GMT-0500 (Eastern Standard Time)","Mozilla/5.0 (X11; CrOS x86_64 13421.73.0) AppleWebKit/537.36 (KHTML, like Gecko) Chrome/86.0.4240.112 Safari/537.36",22,"[0.9, 0.5, 0.1]","[0.8, 0.4, 0.2]","[u'blue', u'black', u'red']","[u'left', u'middle', u'right']","[0.9, 0.5, 0.1]","[u'low', u'high', u'medium']","blue",49,"left","low","False","False",398,1300,NA
"A2OROMUVBD1NVC","Sun Nov 01 2020 11:13:26 GMT-0500 (Eastern Standard Time)","Sun Nov 01 2020 11:21:42 GMT-0500 (Eastern Standard Time)","Mozilla/5.0 (X11; CrOS x86_64 13421.73.0) AppleWebKit/537.36 (KHTML, like Gecko) Chrome/86.0.4240.112 Safari/537.36",23,"[0.9, 0.5, 0.1]","[0.8, 0.4, 0.2]","[u'blue', u'black', u'red']","[u'left', u'middle', u'right']","[0.9, 0.5, 0.1]","[u'low', u'high', u'medium']","blue",49,"left","low","False","False",329,1250,NA
"A2OROMUVBD1NVC","Sun Nov 01 2020 11:13:26 GMT-0500 (Eastern Standard Time)","Sun Nov 01 2020 11:21:42 GMT-0500 (Eastern Standard Time)","Mozilla/5.0 (X11; CrOS x86_64 13421.73.0) AppleWebKit/537.36 (KHTML, like Gecko) Chrome/86.0.4240.112 Safari/537.36",24,"[0.9, 0.5, 0.1]","[0.8, 0.4, 0.2]","[u'blue', u'black', u'red']","[u'left', u'middle', u'right']","[0.9, 0.5, 0.1]","[u'low', u'high', u'medium']","red",51,"right","medium","True","False",758,1350,NA
"A2OROMUVBD1NVC","Sun Nov 01 2020 11:13:26 GMT-0500 (Eastern Standard Time)","Sun Nov 01 2020 11:21:42 GMT-0500 (Eastern Standard Time)","Mozilla/5.0 (X11; CrOS x86_64 13421.73.0) AppleWebKit/537.36 (KHTML, like Gecko) Chrome/86.0.4240.112 Safari/537.36",25,"[0.9, 0.5, 0.1]","[0.8, 0.4, 0.2]","[u'blue', u'black', u'red']","[u'left', u'middle', u'right']","[0.9, 0.5, 0.1]","[u'low', u'high', u'medium']","red",51,"right","medium","True","False",355,1450,NA
"A2OROMUVBD1NVC","Sun Nov 01 2020 11:13:26 GMT-0500 (Eastern Standard Time)","Sun Nov 01 2020 11:21:42 GMT-0500 (Eastern Standard Time)","Mozilla/5.0 (X11; CrOS x86_64 13421.73.0) AppleWebKit/537.36 (KHTML, like Gecko) Chrome/86.0.4240.112 Safari/537.36",26,"[0.9, 0.5, 0.1]","[0.8, 0.4, 0.2]","[u'blue', u'black', u'red']","[u'left', u'middle', u'right']","[0.9, 0.5, 0.1]","[u'low', u'high', u'medium']","red",51,"right","medium","False","False",392,1400,NA
"A2OROMUVBD1NVC","Sun Nov 01 2020 11:13:26 GMT-0500 (Eastern Standard Time)","Sun Nov 01 2020 11:21:42 GMT-0500 (Eastern Standard Time)","Mozilla/5.0 (X11; CrOS x86_64 13421.73.0) AppleWebKit/537.36 (KHTML, like Gecko) Chrome/86.0.4240.112 Safari/537.36",27,"[0.9, 0.5, 0.1]","[0.8, 0.4, 0.2]","[u'blue', u'black', u'red']","[u'left', u'middle', u'right']","[0.9, 0.5, 0.1]","[u'low', u'high', u'medium']","red",51,"right","medium","True","False",470,1500,NA
"A2OROMUVBD1NVC","Sun Nov 01 2020 11:13:26 GMT-0500 (Eastern Standard Time)","Sun Nov 01 2020 11:21:42 GMT-0500 (Eastern Standard Time)","Mozilla/5.0 (X11; CrOS x86_64 13421.73.0) AppleWebKit/537.36 (KHTML, like Gecko) Chrome/86.0.4240.112 Safari/537.36",28,"[0.9, 0.5, 0.1]","[0.8, 0.4, 0.2]","[u'blue', u'black', u'red']","[u'left', u'middle', u'right']","[0.9, 0.5, 0.1]","[u'low', u'high', u'medium']","red",51,"right","medium","True","False",314,1600,NA
"A2OROMUVBD1NVC","Sun Nov 01 2020 11:13:26 GMT-0500 (Eastern Standard Time)","Sun Nov 01 2020 11:21:42 GMT-0500 (Eastern Standard Time)","Mozilla/5.0 (X11; CrOS x86_64 13421.73.0) AppleWebKit/537.36 (KHTML, like Gecko) Chrome/86.0.4240.112 Safari/537.36",29,"[0.9, 0.5, 0.1]","[0.8, 0.4, 0.2]","[u'blue', u'black', u'red']","[u'left', u'middle', u'right']","[0.9, 0.5, 0.1]","[u'low', u'high', u'medium']","red",51,"right","medium","True","False",377,1700,NA
"A2OROMUVBD1NVC","Sun Nov 01 2020 11:13:26 GMT-0500 (Eastern Standard Time)","Sun Nov 01 2020 11:21:42 GMT-0500 (Eastern Standard Time)","Mozilla/5.0 (X11; CrOS x86_64 13421.73.0) AppleWebKit/537.36 (KHTML, like Gecko) Chrome/86.0.4240.112 Safari/537.36",30,"[0.9, 0.5, 0.1]","[0.8, 0.4, 0.2]","[u'blue', u'black', u'red']","[u'left', u'middle', u'right']","[0.9, 0.5, 0.1]","[u'low', u'high', u'medium']","red",51,"right","medium","True","False",340,1800,NA
"A2OROMUVBD1NVC","Sun Nov 01 2020 11:13:26 GMT-0500 (Eastern Standard Time)","Sun Nov 01 2020 11:21:42 GMT-0500 (Eastern Standard Time)","Mozilla/5.0 (X11; CrOS x86_64 13421.73.0) AppleWebKit/537.36 (KHTML, like Gecko) Chrome/86.0.4240.112 Safari/537.36",31,"[0.9, 0.5, 0.1]","[0.8, 0.4, 0.2]","[u'blue', u'black', u'red']","[u'left', u'middle', u'right']","[0.9, 0.5, 0.1]","[u'low', u'high', u'medium']","red",51,"right","medium","True","False",510,1900,NA
"A2OROMUVBD1NVC","Sun Nov 01 2020 11:13:26 GMT-0500 (Eastern Standard Time)","Sun Nov 01 2020 11:21:42 GMT-0500 (Eastern Standard Time)","Mozilla/5.0 (X11; CrOS x86_64 13421.73.0) AppleWebKit/537.36 (KHTML, like Gecko) Chrome/86.0.4240.112 Safari/537.36",32,"[0.9, 0.5, 0.1]","[0.8, 0.4, 0.2]","[u'blue', u'black', u'red']","[u'left', u'middle', u'right']","[0.9, 0.5, 0.1]","[u'low', u'high', u'medium']","red",51,"right","medium","False","False",388,1850,NA
"A2OROMUVBD1NVC","Sun Nov 01 2020 11:13:26 GMT-0500 (Eastern Standard Time)","Sun Nov 01 2020 11:21:42 GMT-0500 (Eastern Standard Time)","Mozilla/5.0 (X11; CrOS x86_64 13421.73.0) AppleWebKit/537.36 (KHTML, like Gecko) Chrome/86.0.4240.112 Safari/537.36",33,"[0.9, 0.5, 0.1]","[0.8, 0.4, 0.2]","[u'blue', u'black', u'red']","[u'left', u'middle', u'right']","[0.9, 0.5, 0.1]","[u'low', u'high', u'medium']","red",51,"right","medium","True","False",283,1950,NA
"A2OROMUVBD1NVC","Sun Nov 01 2020 11:13:26 GMT-0500 (Eastern Standard Time)","Sun Nov 01 2020 11:21:42 GMT-0500 (Eastern Standard Time)","Mozilla/5.0 (X11; CrOS x86_64 13421.73.0) AppleWebKit/537.36 (KHTML, like Gecko) Chrome/86.0.4240.112 Safari/537.36",34,"[0.9, 0.5, 0.1]","[0.8, 0.4, 0.2]","[u'blue', u'black', u'red']","[u'left', u'middle', u'right']","[0.9, 0.5, 0.1]","[u'low', u'high', u'medium']","red",51,"right","medium","True","False",283,2050,NA
"A2OROMUVBD1NVC","Sun Nov 01 2020 11:13:26 GMT-0500 (Eastern Standard Time)","Sun Nov 01 2020 11:21:42 GMT-0500 (Eastern Standard Time)","Mozilla/5.0 (X11; CrOS x86_64 13421.73.0) AppleWebKit/537.36 (KHTML, like Gecko) Chrome/86.0.4240.112 Safari/537.36",35,"[0.9, 0.5, 0.1]","[0.8, 0.4, 0.2]","[u'blue', u'black', u'red']","[u'left', u'middle', u'right']","[0.9, 0.5, 0.1]","[u'low', u'high', u'medium']","red",51,"right","medium","False","False",324,2000,NA
"A2OROMUVBD1NVC","Sun Nov 01 2020 11:13:26 GMT-0500 (Eastern Standard Time)","Sun Nov 01 2020 11:21:42 GMT-0500 (Eastern Standard Time)","Mozilla/5.0 (X11; CrOS x86_64 13421.73.0) AppleWebKit/537.36 (KHTML, like Gecko) Chrome/86.0.4240.112 Safari/537.36",36,"[0.9, 0.5, 0.1]","[0.8, 0.4, 0.2]","[u'blue', u'black', u'red']","[u'left', u'middle', u'right']","[0.9, 0.5, 0.1]","[u'low', u'high', u'medium']","red",51,"right","medium","True","False",295,2100,NA
"A2OROMUVBD1NVC","Sun Nov 01 2020 11:13:26 GMT-0500 (Eastern Standard Time)","Sun Nov 01 2020 11:21:42 GMT-0500 (Eastern Standard Time)","Mozilla/5.0 (X11; CrOS x86_64 13421.73.0) AppleWebKit/537.36 (KHTML, like Gecko) Chrome/86.0.4240.112 Safari/537.36",37,"[0.9, 0.5, 0.1]","[0.8, 0.4, 0.2]","[u'blue', u'black', u'red']","[u'left', u'middle', u'right']","[0.9, 0.5, 0.1]","[u'low', u'high', u'medium']","red",51,"right","medium","False","False",315,2050,NA
"A2OROMUVBD1NVC","Sun Nov 01 2020 11:13:26 GMT-0500 (Eastern Standard Time)","Sun Nov 01 2020 11:21:42 GMT-0500 (Eastern Standard Time)","Mozilla/5.0 (X11; CrOS x86_64 13421.73.0) AppleWebKit/537.36 (KHTML, like Gecko) Chrome/86.0.4240.112 Safari/537.36",38,"[0.9, 0.5, 0.1]","[0.8, 0.4, 0.2]","[u'blue', u'black', u'red']","[u'left', u'middle', u'right']","[0.9, 0.5, 0.1]","[u'low', u'high', u'medium']","red",51,"right","medium","True","False",314,2150,NA
"A2OROMUVBD1NVC","Sun Nov 01 2020 11:13:26 GMT-0500 (Eastern Standard Time)","Sun Nov 01 2020 11:21:42 GMT-0500 (Eastern Standard Time)","Mozilla/5.0 (X11; CrOS x86_64 13421.73.0) AppleWebKit/537.36 (KHTML, like Gecko) Chrome/86.0.4240.112 Safari/537.36",39,"[0.9, 0.5, 0.1]","[0.8, 0.4, 0.2]","[u'blue', u'black', u'red']","[u'left', u'middle', u'right']","[0.9, 0.5, 0.1]","[u'low', u'high', u'medium']","red",51,"right","medium","True","False",290,2250,NA
"A2OROMUVBD1NVC","Sun Nov 01 2020 11:13:26 GMT-0500 (Eastern Standard Time)","Sun Nov 01 2020 11:21:42 GMT-0500 (Eastern Standard Time)","Mozilla/5.0 (X11; CrOS x86_64 13421.73.0) AppleWebKit/537.36 (KHTML, like Gecko) Chrome/86.0.4240.112 Safari/537.36",40,"[0.9, 0.5, 0.1]","[0.8, 0.4, 0.2]","[u'blue', u'black', u'red']","[u'left', u'middle', u'right']","[0.9, 0.5, 0.1]","[u'low', u'high', u'medium']","red",51,"right","medium","True","False",285,2350,NA
"A2OROMUVBD1NVC","Sun Nov 01 2020 11:13:26 GMT-0500 (Eastern Standard Time)","Sun Nov 01 2020 11:21:42 GMT-0500 (Eastern Standard Time)","Mozilla/5.0 (X11; CrOS x86_64 13421.73.0) AppleWebKit/537.36 (KHTML, like Gecko) Chrome/86.0.4240.112 Safari/537.36",41,"[0.9, 0.5, 0.1]","[0.8, 0.4, 0.2]","[u'blue', u'black', u'red']","[u'left', u'middle', u'right']","[0.9, 0.5, 0.1]","[u'medium', u'low', u'high']","red",51,"right","high","True","False",952,2450,NA
"A2OROMUVBD1NVC","Sun Nov 01 2020 11:13:26 GMT-0500 (Eastern Standard Time)","Sun Nov 01 2020 11:21:42 GMT-0500 (Eastern Standard Time)","Mozilla/5.0 (X11; CrOS x86_64 13421.73.0) AppleWebKit/537.36 (KHTML, like Gecko) Chrome/86.0.4240.112 Safari/537.36",42,"[0.9, 0.5, 0.1]","[0.8, 0.4, 0.2]","[u'blue', u'black', u'red']","[u'left', u'middle', u'right']","[0.9, 0.5, 0.1]","[u'medium', u'low', u'high']","red",51,"right","high","True","False",421,2550,NA
"A2OROMUVBD1NVC","Sun Nov 01 2020 11:13:26 GMT-0500 (Eastern Standard Time)","Sun Nov 01 2020 11:21:42 GMT-0500 (Eastern Standard Time)","Mozilla/5.0 (X11; CrOS x86_64 13421.73.0) AppleWebKit/537.36 (KHTML, like Gecko) Chrome/86.0.4240.112 Safari/537.36",43,"[0.9, 0.5, 0.1]","[0.8, 0.4, 0.2]","[u'blue', u'black', u'red']","[u'left', u'middle', u'right']","[0.9, 0.5, 0.1]","[u'medium', u'low', u'high']","red",51,"right","high","True","False",449,2650,NA
"A2OROMUVBD1NVC","Sun Nov 01 2020 11:13:26 GMT-0500 (Eastern Standard Time)","Sun Nov 01 2020 11:21:42 GMT-0500 (Eastern Standard Time)","Mozilla/5.0 (X11; CrOS x86_64 13421.73.0) AppleWebKit/537.36 (KHTML, like Gecko) Chrome/86.0.4240.112 Safari/537.36",44,"[0.9, 0.5, 0.1]","[0.8, 0.4, 0.2]","[u'blue', u'black', u'red']","[u'left', u'middle', u'right']","[0.9, 0.5, 0.1]","[u'medium', u'low', u'high']","red",51,"right","high","False","False",283,2600,NA
"A2OROMUVBD1NVC","Sun Nov 01 2020 11:13:26 GMT-0500 (Eastern Standard Time)","Sun Nov 01 2020 11:21:42 GMT-0500 (Eastern Standard Time)","Mozilla/5.0 (X11; CrOS x86_64 13421.73.0) AppleWebKit/537.36 (KHTML, like Gecko) Chrome/86.0.4240.112 Safari/537.36",45,"[0.9, 0.5, 0.1]","[0.8, 0.4, 0.2]","[u'blue', u'black', u'red']","[u'left', u'middle', u'right']","[0.9, 0.5, 0.1]","[u'medium', u'low', u'high']","red",51,"right","high","True","False",284,2700,NA
"A2OROMUVBD1NVC","Sun Nov 01 2020 11:13:26 GMT-0500 (Eastern Standard Time)","Sun Nov 01 2020 11:21:42 GMT-0500 (Eastern Standard Time)","Mozilla/5.0 (X11; CrOS x86_64 13421.73.0) AppleWebKit/537.36 (KHTML, like Gecko) Chrome/86.0.4240.112 Safari/537.36",46,"[0.9, 0.5, 0.1]","[0.8, 0.4, 0.2]","[u'blue', u'black', u'red']","[u'left', u'middle', u'right']","[0.9, 0.5, 0.1]","[u'medium', u'low', u'high']","red",51,"right","high","True","False",290,2800,NA
"A2OROMUVBD1NVC","Sun Nov 01 2020 11:13:26 GMT-0500 (Eastern Standard Time)","Sun Nov 01 2020 11:21:42 GMT-0500 (Eastern Standard Time)","Mozilla/5.0 (X11; CrOS x86_64 13421.73.0) AppleWebKit/537.36 (KHTML, like Gecko) Chrome/86.0.4240.112 Safari/537.36",47,"[0.9, 0.5, 0.1]","[0.8, 0.4, 0.2]","[u'blue', u'black', u'red']","[u'left', u'middle', u'right']","[0.9, 0.5, 0.1]","[u'medium', u'low', u'high']","red",51,"right","high","False","False",308,2750,NA
"A2OROMUVBD1NVC","Sun Nov 01 2020 11:13:26 GMT-0500 (Eastern Standard Time)","Sun Nov 01 2020 11:21:42 GMT-0500 (Eastern Standard Time)","Mozilla/5.0 (X11; CrOS x86_64 13421.73.0) AppleWebKit/537.36 (KHTML, like Gecko) Chrome/86.0.4240.112 Safari/537.36",48,"[0.9, 0.5, 0.1]","[0.8, 0.4, 0.2]","[u'blue', u'black', u'red']","[u'left', u'middle', u'right']","[0.9, 0.5, 0.1]","[u'medium', u'low', u'high']","red",51,"right","high","True","False",273,2850,NA
"A2OROMUVBD1NVC","Sun Nov 01 2020 11:13:26 GMT-0500 (Eastern Standard Time)","Sun Nov 01 2020 11:21:42 GMT-0500 (Eastern Standard Time)","Mozilla/5.0 (X11; CrOS x86_64 13421.73.0) AppleWebKit/537.36 (KHTML, like Gecko) Chrome/86.0.4240.112 Safari/537.36",49,"[0.9, 0.5, 0.1]","[0.8, 0.4, 0.2]","[u'blue', u'black', u'red']","[u'left', u'middle', u'right']","[0.9, 0.5, 0.1]","[u'medium', u'low', u'high']","red",51,"right","high","True","True",296,2950,NA
"A2OROMUVBD1NVC","Sun Nov 01 2020 11:13:26 GMT-0500 (Eastern Standard Time)","Sun Nov 01 2020 11:21:42 GMT-0500 (Eastern Standard Time)","Mozilla/5.0 (X11; CrOS x86_64 13421.73.0) AppleWebKit/537.36 (KHTML, like Gecko) Chrome/86.0.4240.112 Safari/537.36",50,"[0.9, 0.5, 0.1]","[0.8, 0.4, 0.2]","[u'blue', u'black', u'red']","[u'left', u'middle', u'right']","[0.9, 0.5, 0.1]","[u'high', u'low', u'medium']","red",51,"right","medium","True","False",320,3050,NA
"A2OROMUVBD1NVC","Sun Nov 01 2020 11:13:26 GMT-0500 (Eastern Standard Time)","Sun Nov 01 2020 11:21:42 GMT-0500 (Eastern Standard Time)","Mozilla/5.0 (X11; CrOS x86_64 13421.73.0) AppleWebKit/537.36 (KHTML, like Gecko) Chrome/86.0.4240.112 Safari/537.36",51,"[0.9, 0.5, 0.1]","[0.8, 0.4, 0.2]","[u'blue', u'black', u'red']","[u'left', u'middle', u'right']","[0.9, 0.5, 0.1]","[u'high', u'low', u'medium']","red",51,"right","medium","True","False",376,3150,NA
"A2OROMUVBD1NVC","Sun Nov 01 2020 11:13:26 GMT-0500 (Eastern Standard Time)","Sun Nov 01 2020 11:21:42 GMT-0500 (Eastern Standard Time)","Mozilla/5.0 (X11; CrOS x86_64 13421.73.0) AppleWebKit/537.36 (KHTML, like Gecko) Chrome/86.0.4240.112 Safari/537.36",52,"[0.9, 0.5, 0.1]","[0.8, 0.4, 0.2]","[u'blue', u'black', u'red']","[u'left', u'middle', u'right']","[0.9, 0.5, 0.1]","[u'high', u'low', u'medium']","red",51,"right","medium","False","False",415,3100,NA
"A2OROMUVBD1NVC","Sun Nov 01 2020 11:13:26 GMT-0500 (Eastern Standard Time)","Sun Nov 01 2020 11:21:42 GMT-0500 (Eastern Standard Time)","Mozilla/5.0 (X11; CrOS x86_64 13421.73.0) AppleWebKit/537.36 (KHTML, like Gecko) Chrome/86.0.4240.112 Safari/537.36",53,"[0.9, 0.5, 0.1]","[0.8, 0.4, 0.2]","[u'blue', u'black', u'red']","[u'left', u'middle', u'right']","[0.9, 0.5, 0.1]","[u'high', u'low', u'medium']","red",51,"right","medium","False","False",282,3050,NA
"A2OROMUVBD1NVC","Sun Nov 01 2020 11:13:26 GMT-0500 (Eastern Standard Time)","Sun Nov 01 2020 11:21:42 GMT-0500 (Eastern Standard Time)","Mozilla/5.0 (X11; CrOS x86_64 13421.73.0) AppleWebKit/537.36 (KHTML, like Gecko) Chrome/86.0.4240.112 Safari/537.36",54,"[0.9, 0.5, 0.1]","[0.8, 0.4, 0.2]","[u'blue', u'black', u'red']","[u'left', u'middle', u'right']","[0.9, 0.5, 0.1]","[u'high', u'low', u'medium']","black",50,"middle","low","False","False",273,3000,NA
"A2OROMUVBD1NVC","Sun Nov 01 2020 11:13:26 GMT-0500 (Eastern Standard Time)","Sun Nov 01 2020 11:21:42 GMT-0500 (Eastern Standard Time)","Mozilla/5.0 (X11; CrOS x86_64 13421.73.0) AppleWebKit/537.36 (KHTML, like Gecko) Chrome/86.0.4240.112 Safari/537.36",55,"[0.9, 0.5, 0.1]","[0.8, 0.4, 0.2]","[u'blue', u'black', u'red']","[u'left', u'middle', u'right']","[0.9, 0.5, 0.1]","[u'high', u'low', u'medium']","blue",49,"left","high","True","False",320,3100,NA
"A2OROMUVBD1NVC","Sun Nov 01 2020 11:13:26 GMT-0500 (Eastern Standard Time)","Sun Nov 01 2020 11:21:42 GMT-0500 (Eastern Standard Time)","Mozilla/5.0 (X11; CrOS x86_64 13421.73.0) AppleWebKit/537.36 (KHTML, like Gecko) Chrome/86.0.4240.112 Safari/537.36",56,"[0.9, 0.5, 0.1]","[0.8, 0.4, 0.2]","[u'blue', u'black', u'red']","[u'left', u'middle', u'right']","[0.9, 0.5, 0.1]","[u'high', u'low', u'medium']","blue",49,"left","high","True","False",247,3200,NA
"A2OROMUVBD1NVC","Sun Nov 01 2020 11:13:26 GMT-0500 (Eastern Standard Time)","Sun Nov 01 2020 11:21:42 GMT-0500 (Eastern Standard Time)","Mozilla/5.0 (X11; CrOS x86_64 13421.73.0) AppleWebKit/537.36 (KHTML, like Gecko) Chrome/86.0.4240.112 Safari/537.36",57,"[0.9, 0.5, 0.1]","[0.8, 0.4, 0.2]","[u'blue', u'black', u'red']","[u'left', u'middle', u'right']","[0.9, 0.5, 0.1]","[u'high', u'low', u'medium']","blue",49,"left","high","True","False",312,3300,NA
"A2OROMUVBD1NVC","Sun Nov 01 2020 11:13:26 GMT-0500 (Eastern Standard Time)","Sun Nov 01 2020 11:21:42 GMT-0500 (Eastern Standard Time)","Mozilla/5.0 (X11; CrOS x86_64 13421.73.0) AppleWebKit/537.36 (KHTML, like Gecko) Chrome/86.0.4240.112 Safari/537.36",58,"[0.9, 0.5, 0.1]","[0.8, 0.4, 0.2]","[u'blue', u'black', u'red']","[u'left', u'middle', u'right']","[0.9, 0.5, 0.1]","[u'high', u'low', u'medium']","blue",49,"left","high","True","False",512,3400,NA
"A2OROMUVBD1NVC","Sun Nov 01 2020 11:13:26 GMT-0500 (Eastern Standard Time)","Sun Nov 01 2020 11:21:42 GMT-0500 (Eastern Standard Time)","Mozilla/5.0 (X11; CrOS x86_64 13421.73.0) AppleWebKit/537.36 (KHTML, like Gecko) Chrome/86.0.4240.112 Safari/537.36",59,"[0.9, 0.5, 0.1]","[0.8, 0.4, 0.2]","[u'blue', u'black', u'red']","[u'left', u'middle', u'right']","[0.9, 0.5, 0.1]","[u'high', u'low', u'medium']","blue",49,"left","high","True","False",450,3500,NA
"A2OROMUVBD1NVC","Sun Nov 01 2020 11:13:26 GMT-0500 (Eastern Standard Time)","Sun Nov 01 2020 11:21:42 GMT-0500 (Eastern Standard Time)","Mozilla/5.0 (X11; CrOS x86_64 13421.73.0) AppleWebKit/537.36 (KHTML, like Gecko) Chrome/86.0.4240.112 Safari/537.36",60,"[0.9, 0.5, 0.1]","[0.8, 0.4, 0.2]","[u'blue', u'black', u'red']","[u'left', u'middle', u'right']","[0.9, 0.5, 0.1]","[u'high', u'low', u'medium']","blue",49,"left","high","True","False",465,3600,NA
"A2OROMUVBD1NVC","Sun Nov 01 2020 11:13:26 GMT-0500 (Eastern Standard Time)","Sun Nov 01 2020 11:21:42 GMT-0500 (Eastern Standard Time)","Mozilla/5.0 (X11; CrOS x86_64 13421.73.0) AppleWebKit/537.36 (KHTML, like Gecko) Chrome/86.0.4240.112 Safari/537.36",61,"[0.9, 0.5, 0.1]","[0.8, 0.4, 0.2]","[u'blue', u'black', u'red']","[u'left', u'middle', u'right']","[0.9, 0.5, 0.1]","[u'high', u'low', u'medium']","blue",49,"left","high","True","False",352,3700,NA
"A2OROMUVBD1NVC","Sun Nov 01 2020 11:13:26 GMT-0500 (Eastern Standard Time)","Sun Nov 01 2020 11:21:42 GMT-0500 (Eastern Standard Time)","Mozilla/5.0 (X11; CrOS x86_64 13421.73.0) AppleWebKit/537.36 (KHTML, like Gecko) Chrome/86.0.4240.112 Safari/537.36",62,"[0.9, 0.5, 0.1]","[0.8, 0.4, 0.2]","[u'blue', u'black', u'red']","[u'left', u'middle', u'right']","[0.9, 0.5, 0.1]","[u'high', u'low', u'medium']","blue",49,"left","high","True","False",291,3800,NA
"A2OROMUVBD1NVC","Sun Nov 01 2020 11:13:26 GMT-0500 (Eastern Standard Time)","Sun Nov 01 2020 11:21:42 GMT-0500 (Eastern Standard Time)","Mozilla/5.0 (X11; CrOS x86_64 13421.73.0) AppleWebKit/537.36 (KHTML, like Gecko) Chrome/86.0.4240.112 Safari/537.36",63,"[0.9, 0.5, 0.1]","[0.8, 0.4, 0.2]","[u'blue', u'black', u'red']","[u'left', u'middle', u'right']","[0.9, 0.5, 0.1]","[u'high', u'low', u'medium']","blue",49,"left","high","True","True",337,3900,NA
"A2OROMUVBD1NVC","Sun Nov 01 2020 11:13:26 GMT-0500 (Eastern Standard Time)","Sun Nov 01 2020 11:21:42 GMT-0500 (Eastern Standard Time)","Mozilla/5.0 (X11; CrOS x86_64 13421.73.0) AppleWebKit/537.36 (KHTML, like Gecko) Chrome/86.0.4240.112 Safari/537.36",64,"[0.9, 0.5, 0.1]","[0.8, 0.4, 0.2]","[u'blue', u'black', u'red']","[u'left', u'middle', u'right']","[0.9, 0.5, 0.1]","[u'medium', u'low', u'high']","blue",49,"left","medium","False","False",378,3850,NA
"A2OROMUVBD1NVC","Sun Nov 01 2020 11:13:26 GMT-0500 (Eastern Standard Time)","Sun Nov 01 2020 11:21:42 GMT-0500 (Eastern Standard Time)","Mozilla/5.0 (X11; CrOS x86_64 13421.73.0) AppleWebKit/537.36 (KHTML, like Gecko) Chrome/86.0.4240.112 Safari/537.36",65,"[0.9, 0.5, 0.1]","[0.8, 0.4, 0.2]","[u'blue', u'black', u'red']","[u'left', u'middle', u'right']","[0.9, 0.5, 0.1]","[u'medium', u'low', u'high']","blue",49,"left","medium","False","False",295,3800,NA
"A2OROMUVBD1NVC","Sun Nov 01 2020 11:13:26 GMT-0500 (Eastern Standard Time)","Sun Nov 01 2020 11:21:42 GMT-0500 (Eastern Standard Time)","Mozilla/5.0 (X11; CrOS x86_64 13421.73.0) AppleWebKit/537.36 (KHTML, like Gecko) Chrome/86.0.4240.112 Safari/537.36",66,"[0.9, 0.5, 0.1]","[0.8, 0.4, 0.2]","[u'blue', u'black', u'red']","[u'left', u'middle', u'right']","[0.9, 0.5, 0.1]","[u'medium', u'low', u'high']","red",51,"right","high","True","False",283,3900,NA
"A2OROMUVBD1NVC","Sun Nov 01 2020 11:13:26 GMT-0500 (Eastern Standard Time)","Sun Nov 01 2020 11:21:42 GMT-0500 (Eastern Standard Time)","Mozilla/5.0 (X11; CrOS x86_64 13421.73.0) AppleWebKit/537.36 (KHTML, like Gecko) Chrome/86.0.4240.112 Safari/537.36",67,"[0.9, 0.5, 0.1]","[0.8, 0.4, 0.2]","[u'blue', u'black', u'red']","[u'left', u'middle', u'right']","[0.9, 0.5, 0.1]","[u'medium', u'low', u'high']","red",51,"right","high","True","False",332,4000,NA
"A2OROMUVBD1NVC","Sun Nov 01 2020 11:13:26 GMT-0500 (Eastern Standard Time)","Sun Nov 01 2020 11:21:42 GMT-0500 (Eastern Standard Time)","Mozilla/5.0 (X11; CrOS x86_64 13421.73.0) AppleWebKit/537.36 (KHTML, like Gecko) Chrome/86.0.4240.112 Safari/537.36",68,"[0.9, 0.5, 0.1]","[0.8, 0.4, 0.2]","[u'blue', u'black', u'red']","[u'left', u'middle', u'right']","[0.9, 0.5, 0.1]","[u'medium', u'low', u'high']","red",51,"right","high","True","False",491,4100,NA
"A2OROMUVBD1NVC","Sun Nov 01 2020 11:13:26 GMT-0500 (Eastern Standard Time)","Sun Nov 01 2020 11:21:42 GMT-0500 (Eastern Standard Time)","Mozilla/5.0 (X11; CrOS x86_64 13421.73.0) AppleWebKit/537.36 (KHTML, like Gecko) Chrome/86.0.4240.112 Safari/537.36",69,"[0.9, 0.5, 0.1]","[0.8, 0.4, 0.2]","[u'blue', u'black', u'red']","[u'left', u'middle', u'right']","[0.9, 0.5, 0.1]","[u'medium', u'low', u'high']","red",51,"right","high","True","False",334,4200,NA
"A2OROMUVBD1NVC","Sun Nov 01 2020 11:13:26 GMT-0500 (Eastern Standard Time)","Sun Nov 01 2020 11:21:42 GMT-0500 (Eastern Standard Time)","Mozilla/5.0 (X11; CrOS x86_64 13421.73.0) AppleWebKit/537.36 (KHTML, like Gecko) Chrome/86.0.4240.112 Safari/537.36",70,"[0.9, 0.5, 0.1]","[0.8, 0.4, 0.2]","[u'blue', u'black', u'red']","[u'left', u'middle', u'right']","[0.9, 0.5, 0.1]","[u'medium', u'low', u'high']","red",51,"right","high","True","False",355,4300,NA
"A2OROMUVBD1NVC","Sun Nov 01 2020 11:13:26 GMT-0500 (Eastern Standard Time)","Sun Nov 01 2020 11:21:42 GMT-0500 (Eastern Standard Time)","Mozilla/5.0 (X11; CrOS x86_64 13421.73.0) AppleWebKit/537.36 (KHTML, like Gecko) Chrome/86.0.4240.112 Safari/537.36",71,"[0.9, 0.5, 0.1]","[0.8, 0.4, 0.2]","[u'blue', u'black', u'red']","[u'left', u'middle', u'right']","[0.9, 0.5, 0.1]","[u'medium', u'low', u'high']","red",51,"right","high","True","False",344,4400,NA
"A2OROMUVBD1NVC","Sun Nov 01 2020 11:13:26 GMT-0500 (Eastern Standard Time)","Sun Nov 01 2020 11:21:42 GMT-0500 (Eastern Standard Time)","Mozilla/5.0 (X11; CrOS x86_64 13421.73.0) AppleWebKit/537.36 (KHTML, like Gecko) Chrome/86.0.4240.112 Safari/537.36",72,"[0.9, 0.5, 0.1]","[0.8, 0.4, 0.2]","[u'blue', u'black', u'red']","[u'left', u'middle', u'right']","[0.9, 0.5, 0.1]","[u'medium', u'low', u'high']","red",51,"right","high","True","False",395,4500,NA
"A2OROMUVBD1NVC","Sun Nov 01 2020 11:13:26 GMT-0500 (Eastern Standard Time)","Sun Nov 01 2020 11:21:42 GMT-0500 (Eastern Standard Time)","Mozilla/5.0 (X11; CrOS x86_64 13421.73.0) AppleWebKit/537.36 (KHTML, like Gecko) Chrome/86.0.4240.112 Safari/537.36",73,"[0.9, 0.5, 0.1]","[0.8, 0.4, 0.2]","[u'blue', u'black', u'red']","[u'left', u'middle', u'right']","[0.9, 0.5, 0.1]","[u'medium', u'low', u'high']","red",51,"right","high","True","False",324,4600,NA
"A2OROMUVBD1NVC","Sun Nov 01 2020 11:13:26 GMT-0500 (Eastern Standard Time)","Sun Nov 01 2020 11:21:42 GMT-0500 (Eastern Standard Time)","Mozilla/5.0 (X11; CrOS x86_64 13421.73.0) AppleWebKit/537.36 (KHTML, like Gecko) Chrome/86.0.4240.112 Safari/537.36",74,"[0.9, 0.5, 0.1]","[0.8, 0.4, 0.2]","[u'blue', u'black', u'red']","[u'left', u'middle', u'right']","[0.9, 0.5, 0.1]","[u'medium', u'low', u'high']","red",51,"right","high","False","True",450,4550,NA
"A2OROMUVBD1NVC","Sun Nov 01 2020 11:13:26 GMT-0500 (Eastern Standard Time)","Sun Nov 01 2020 11:21:42 GMT-0500 (Eastern Standard Time)","Mozilla/5.0 (X11; CrOS x86_64 13421.73.0) AppleWebKit/537.36 (KHTML, like Gecko) Chrome/86.0.4240.112 Safari/537.36",75,"[0.9, 0.5, 0.1]","[0.8, 0.4, 0.2]","[u'blue', u'black', u'red']","[u'left', u'middle', u'right']","[0.9, 0.5, 0.1]","[u'medium', u'high', u'low']","red",51,"right","low","False","False",259,4500,NA
"A2OROMUVBD1NVC","Sun Nov 01 2020 11:13:26 GMT-0500 (Eastern Standard Time)","Sun Nov 01 2020 11:21:42 GMT-0500 (Eastern Standard Time)","Mozilla/5.0 (X11; CrOS x86_64 13421.73.0) AppleWebKit/537.36 (KHTML, like Gecko) Chrome/86.0.4240.112 Safari/537.36",76,"[0.9, 0.5, 0.1]","[0.8, 0.4, 0.2]","[u'blue', u'black', u'red']","[u'left', u'middle', u'right']","[0.9, 0.5, 0.1]","[u'medium', u'high', u'low']","blue",49,"left","medium","True","False",205,4600,NA
"A2OROMUVBD1NVC","Sun Nov 01 2020 11:13:26 GMT-0500 (Eastern Standard Time)","Sun Nov 01 2020 11:21:42 GMT-0500 (Eastern Standard Time)","Mozilla/5.0 (X11; CrOS x86_64 13421.73.0) AppleWebKit/537.36 (KHTML, like Gecko) Chrome/86.0.4240.112 Safari/537.36",77,"[0.9, 0.5, 0.1]","[0.8, 0.4, 0.2]","[u'blue', u'black', u'red']","[u'left', u'middle', u'right']","[0.9, 0.5, 0.1]","[u'medium', u'high', u'low']","blue",49,"left","medium","False","False",178,4550,NA
"A2OROMUVBD1NVC","Sun Nov 01 2020 11:13:26 GMT-0500 (Eastern Standard Time)","Sun Nov 01 2020 11:21:42 GMT-0500 (Eastern Standard Time)","Mozilla/5.0 (X11; CrOS x86_64 13421.73.0) AppleWebKit/537.36 (KHTML, like Gecko) Chrome/86.0.4240.112 Safari/537.36",78,"[0.9, 0.5, 0.1]","[0.8, 0.4, 0.2]","[u'blue', u'black', u'red']","[u'left', u'middle', u'right']","[0.9, 0.5, 0.1]","[u'medium', u'high', u'low']","blue",49,"left","medium","True","False",273,4650,NA
"A2OROMUVBD1NVC","Sun Nov 01 2020 11:13:26 GMT-0500 (Eastern Standard Time)","Sun Nov 01 2020 11:21:42 GMT-0500 (Eastern Standard Time)","Mozilla/5.0 (X11; CrOS x86_64 13421.73.0) AppleWebKit/537.36 (KHTML, like Gecko) Chrome/86.0.4240.112 Safari/537.36",79,"[0.9, 0.5, 0.1]","[0.8, 0.4, 0.2]","[u'blue', u'black', u'red']","[u'left', u'middle', u'right']","[0.9, 0.5, 0.1]","[u'medium', u'high', u'low']","blue",49,"left","medium","False","False",359,4600,NA
"A2OROMUVBD1NVC","Sun Nov 01 2020 11:13:26 GMT-0500 (Eastern Standard Time)","Sun Nov 01 2020 11:21:42 GMT-0500 (Eastern Standard Time)","Mozilla/5.0 (X11; CrOS x86_64 13421.73.0) AppleWebKit/537.36 (KHTML, like Gecko) Chrome/86.0.4240.112 Safari/537.36",80,"[0.9, 0.5, 0.1]","[0.8, 0.4, 0.2]","[u'blue', u'black', u'red']","[u'left', u'middle', u'right']","[0.9, 0.5, 0.1]","[u'medium', u'high', u'low']","blue",49,"left","medium","False","False",293,4550,NA
"A2OROMUVBD1NVC","Sun Nov 01 2020 11:13:26 GMT-0500 (Eastern Standard Time)","Sun Nov 01 2020 11:21:42 GMT-0500 (Eastern Standard Time)","Mozilla/5.0 (X11; CrOS x86_64 13421.73.0) AppleWebKit/537.36 (KHTML, like Gecko) Chrome/86.0.4240.112 Safari/537.36",81,"[0.9, 0.5, 0.1]","[0.8, 0.4, 0.2]","[u'blue', u'black', u'red']","[u'left', u'middle', u'right']","[0.8, 0.4, 0.2]","[u'high', u'low', u'medium']","red",51,"right","medium","True","False",575,4650,NA
"A2OROMUVBD1NVC","Sun Nov 01 2020 11:13:26 GMT-0500 (Eastern Standard Time)","Sun Nov 01 2020 11:21:42 GMT-0500 (Eastern Standard Time)","Mozilla/5.0 (X11; CrOS x86_64 13421.73.0) AppleWebKit/537.36 (KHTML, like Gecko) Chrome/86.0.4240.112 Safari/537.36",82,"[0.9, 0.5, 0.1]","[0.8, 0.4, 0.2]","[u'blue', u'black', u'red']","[u'left', u'middle', u'right']","[0.8, 0.4, 0.2]","[u'high', u'low', u'medium']","red",51,"right","medium","False","False",369,4600,NA
"A2OROMUVBD1NVC","Sun Nov 01 2020 11:13:26 GMT-0500 (Eastern Standard Time)","Sun Nov 01 2020 11:21:42 GMT-0500 (Eastern Standard Time)","Mozilla/5.0 (X11; CrOS x86_64 13421.73.0) AppleWebKit/537.36 (KHTML, like Gecko) Chrome/86.0.4240.112 Safari/537.36",83,"[0.9, 0.5, 0.1]","[0.8, 0.4, 0.2]","[u'blue', u'black', u'red']","[u'left', u'middle', u'right']","[0.8, 0.4, 0.2]","[u'high', u'low', u'medium']","red",51,"right","medium","False","False",309,4550,NA
"A2OROMUVBD1NVC","Sun Nov 01 2020 11:13:26 GMT-0500 (Eastern Standard Time)","Sun Nov 01 2020 11:21:42 GMT-0500 (Eastern Standard Time)","Mozilla/5.0 (X11; CrOS x86_64 13421.73.0) AppleWebKit/537.36 (KHTML, like Gecko) Chrome/86.0.4240.112 Safari/537.36",84,"[0.9, 0.5, 0.1]","[0.8, 0.4, 0.2]","[u'blue', u'black', u'red']","[u'left', u'middle', u'right']","[0.8, 0.4, 0.2]","[u'high', u'low', u'medium']","black",50,"middle","low","False","False",525,4500,NA
"A2OROMUVBD1NVC","Sun Nov 01 2020 11:13:26 GMT-0500 (Eastern Standard Time)","Sun Nov 01 2020 11:21:42 GMT-0500 (Eastern Standard Time)","Mozilla/5.0 (X11; CrOS x86_64 13421.73.0) AppleWebKit/537.36 (KHTML, like Gecko) Chrome/86.0.4240.112 Safari/537.36",85,"[0.9, 0.5, 0.1]","[0.8, 0.4, 0.2]","[u'blue', u'black', u'red']","[u'left', u'middle', u'right']","[0.8, 0.4, 0.2]","[u'high', u'low', u'medium']","blue",49,"left","high","False","False",295,4450,NA
"A2OROMUVBD1NVC","Sun Nov 01 2020 11:13:26 GMT-0500 (Eastern Standard Time)","Sun Nov 01 2020 11:21:42 GMT-0500 (Eastern Standard Time)","Mozilla/5.0 (X11; CrOS x86_64 13421.73.0) AppleWebKit/537.36 (KHTML, like Gecko) Chrome/86.0.4240.112 Safari/537.36",86,"[0.9, 0.5, 0.1]","[0.8, 0.4, 0.2]","[u'blue', u'black', u'red']","[u'left', u'middle', u'right']","[0.8, 0.4, 0.2]","[u'high', u'low', u'medium']","red",51,"right","medium","True","False",475,4550,NA
"A2OROMUVBD1NVC","Sun Nov 01 2020 11:13:26 GMT-0500 (Eastern Standard Time)","Sun Nov 01 2020 11:21:42 GMT-0500 (Eastern Standard Time)","Mozilla/5.0 (X11; CrOS x86_64 13421.73.0) AppleWebKit/537.36 (KHTML, like Gecko) Chrome/86.0.4240.112 Safari/537.36",87,"[0.9, 0.5, 0.1]","[0.8, 0.4, 0.2]","[u'blue', u'black', u'red']","[u'left', u'middle', u'right']","[0.8, 0.4, 0.2]","[u'high', u'low', u'medium']","red",51,"right","medium","False","False",267,4500,NA
"A2OROMUVBD1NVC","Sun Nov 01 2020 11:13:26 GMT-0500 (Eastern Standard Time)","Sun Nov 01 2020 11:21:42 GMT-0500 (Eastern Standard Time)","Mozilla/5.0 (X11; CrOS x86_64 13421.73.0) AppleWebKit/537.36 (KHTML, like Gecko) Chrome/86.0.4240.112 Safari/537.36",88,"[0.9, 0.5, 0.1]","[0.8, 0.4, 0.2]","[u'blue', u'black', u'red']","[u'left', u'middle', u'right']","[0.8, 0.4, 0.2]","[u'high', u'low', u'medium']","red",51,"right","medium","False","False",290,4450,NA
"A2OROMUVBD1NVC","Sun Nov 01 2020 11:13:26 GMT-0500 (Eastern Standard Time)","Sun Nov 01 2020 11:21:42 GMT-0500 (Eastern Standard Time)","Mozilla/5.0 (X11; CrOS x86_64 13421.73.0) AppleWebKit/537.36 (KHTML, like Gecko) Chrome/86.0.4240.112 Safari/537.36",89,"[0.9, 0.5, 0.1]","[0.8, 0.4, 0.2]","[u'blue', u'black', u'red']","[u'left', u'middle', u'right']","[0.8, 0.4, 0.2]","[u'high', u'low', u'medium']","blue",49,"left","high","False","False",475,4400,NA
"A2OROMUVBD1NVC","Sun Nov 01 2020 11:13:26 GMT-0500 (Eastern Standard Time)","Sun Nov 01 2020 11:21:42 GMT-0500 (Eastern Standard Time)","Mozilla/5.0 (X11; CrOS x86_64 13421.73.0) AppleWebKit/537.36 (KHTML, like Gecko) Chrome/86.0.4240.112 Safari/537.36",90,"[0.9, 0.5, 0.1]","[0.8, 0.4, 0.2]","[u'blue', u'black', u'red']","[u'left', u'middle', u'right']","[0.8, 0.4, 0.2]","[u'high', u'low', u'medium']","black",50,"middle","low","False","False",424,4350,NA
"A2OROMUVBD1NVC","Sun Nov 01 2020 11:13:26 GMT-0500 (Eastern Standard Time)","Sun Nov 01 2020 11:21:42 GMT-0500 (Eastern Standard Time)","Mozilla/5.0 (X11; CrOS x86_64 13421.73.0) AppleWebKit/537.36 (KHTML, like Gecko) Chrome/86.0.4240.112 Safari/537.36",91,"[0.9, 0.5, 0.1]","[0.8, 0.4, 0.2]","[u'blue', u'black', u'red']","[u'left', u'middle', u'right']","[0.8, 0.4, 0.2]","[u'high', u'low', u'medium']","blue",49,"left","high","True","False",320,4450,NA
"A2OROMUVBD1NVC","Sun Nov 01 2020 11:13:26 GMT-0500 (Eastern Standard Time)","Sun Nov 01 2020 11:21:42 GMT-0500 (Eastern Standard Time)","Mozilla/5.0 (X11; CrOS x86_64 13421.73.0) AppleWebKit/537.36 (KHTML, like Gecko) Chrome/86.0.4240.112 Safari/537.36",92,"[0.9, 0.5, 0.1]","[0.8, 0.4, 0.2]","[u'blue', u'black', u'red']","[u'left', u'middle', u'right']","[0.8, 0.4, 0.2]","[u'high', u'low', u'medium']","blue",49,"left","high","True","False",287,4550,NA
"A2OROMUVBD1NVC","Sun Nov 01 2020 11:13:26 GMT-0500 (Eastern Standard Time)","Sun Nov 01 2020 11:21:42 GMT-0500 (Eastern Standard Time)","Mozilla/5.0 (X11; CrOS x86_64 13421.73.0) AppleWebKit/537.36 (KHTML, like Gecko) Chrome/86.0.4240.112 Safari/537.36",93,"[0.9, 0.5, 0.1]","[0.8, 0.4, 0.2]","[u'blue', u'black', u'red']","[u'left', u'middle', u'right']","[0.8, 0.4, 0.2]","[u'high', u'low', u'medium']","blue",49,"left","high","True","False",295,4650,NA
"A2OROMUVBD1NVC","Sun Nov 01 2020 11:13:26 GMT-0500 (Eastern Standard Time)","Sun Nov 01 2020 11:21:42 GMT-0500 (Eastern Standard Time)","Mozilla/5.0 (X11; CrOS x86_64 13421.73.0) AppleWebKit/537.36 (KHTML, like Gecko) Chrome/86.0.4240.112 Safari/537.36",94,"[0.9, 0.5, 0.1]","[0.8, 0.4, 0.2]","[u'blue', u'black', u'red']","[u'left', u'middle', u'right']","[0.8, 0.4, 0.2]","[u'high', u'low', u'medium']","blue",49,"left","high","True","False",296,4750,NA
"A2OROMUVBD1NVC","Sun Nov 01 2020 11:13:26 GMT-0500 (Eastern Standard Time)","Sun Nov 01 2020 11:21:42 GMT-0500 (Eastern Standard Time)","Mozilla/5.0 (X11; CrOS x86_64 13421.73.0) AppleWebKit/537.36 (KHTML, like Gecko) Chrome/86.0.4240.112 Safari/537.36",95,"[0.9, 0.5, 0.1]","[0.8, 0.4, 0.2]","[u'blue', u'black', u'red']","[u'left', u'middle', u'right']","[0.8, 0.4, 0.2]","[u'high', u'low', u'medium']","blue",49,"left","high","True","False",273,4850,NA
"A2OROMUVBD1NVC","Sun Nov 01 2020 11:13:26 GMT-0500 (Eastern Standard Time)","Sun Nov 01 2020 11:21:42 GMT-0500 (Eastern Standard Time)","Mozilla/5.0 (X11; CrOS x86_64 13421.73.0) AppleWebKit/537.36 (KHTML, like Gecko) Chrome/86.0.4240.112 Safari/537.36",96,"[0.9, 0.5, 0.1]","[0.8, 0.4, 0.2]","[u'blue', u'black', u'red']","[u'left', u'middle', u'right']","[0.8, 0.4, 0.2]","[u'high', u'low', u'medium']","blue",49,"left","high","True","False",277,4950,NA
"A2OROMUVBD1NVC","Sun Nov 01 2020 11:13:26 GMT-0500 (Eastern Standard Time)","Sun Nov 01 2020 11:21:42 GMT-0500 (Eastern Standard Time)","Mozilla/5.0 (X11; CrOS x86_64 13421.73.0) AppleWebKit/537.36 (KHTML, like Gecko) Chrome/86.0.4240.112 Safari/537.36",97,"[0.9, 0.5, 0.1]","[0.8, 0.4, 0.2]","[u'blue', u'black', u'red']","[u'left', u'middle', u'right']","[0.8, 0.4, 0.2]","[u'high', u'low', u'medium']","blue",49,"left","high","True","False",525,5050,NA
"A2OROMUVBD1NVC","Sun Nov 01 2020 11:13:26 GMT-0500 (Eastern Standard Time)","Sun Nov 01 2020 11:21:42 GMT-0500 (Eastern Standard Time)","Mozilla/5.0 (X11; CrOS x86_64 13421.73.0) AppleWebKit/537.36 (KHTML, like Gecko) Chrome/86.0.4240.112 Safari/537.36",98,"[0.9, 0.5, 0.1]","[0.8, 0.4, 0.2]","[u'blue', u'black', u'red']","[u'left', u'middle', u'right']","[0.8, 0.4, 0.2]","[u'high', u'low', u'medium']","blue",49,"left","high","True","True",288,5150,NA
"A2OROMUVBD1NVC","Sun Nov 01 2020 11:13:26 GMT-0500 (Eastern Standard Time)","Sun Nov 01 2020 11:21:42 GMT-0500 (Eastern Standard Time)","Mozilla/5.0 (X11; CrOS x86_64 13421.73.0) AppleWebKit/537.36 (KHTML, like Gecko) Chrome/86.0.4240.112 Safari/537.36",99,"[0.9, 0.5, 0.1]","[0.8, 0.4, 0.2]","[u'blue', u'black', u'red']","[u'left', u'middle', u'right']","[0.8, 0.4, 0.2]","[u'low', u'high', u'medium']","blue",49,"left","low","False","False",310,5100,NA
"A2OROMUVBD1NVC","Sun Nov 01 2020 11:13:26 GMT-0500 (Eastern Standard Time)","Sun Nov 01 2020 11:21:42 GMT-0500 (Eastern Standard Time)","Mozilla/5.0 (X11; CrOS x86_64 13421.73.0) AppleWebKit/537.36 (KHTML, like Gecko) Chrome/86.0.4240.112 Safari/537.36",100,"[0.9, 0.5, 0.1]","[0.8, 0.4, 0.2]","[u'blue', u'black', u'red']","[u'left', u'middle', u'right']","[0.8, 0.4, 0.2]","[u'low', u'high', u'medium']","blue",49,"left","low","False","False",336,5050,NA
"A2OROMUVBD1NVC","Sun Nov 01 2020 11:13:26 GMT-0500 (Eastern Standard Time)","Sun Nov 01 2020 11:21:42 GMT-0500 (Eastern Standard Time)","Mozilla/5.0 (X11; CrOS x86_64 13421.73.0) AppleWebKit/537.36 (KHTML, like Gecko) Chrome/86.0.4240.112 Safari/537.36",101,"[0.9, 0.5, 0.1]","[0.8, 0.4, 0.2]","[u'blue', u'black', u'red']","[u'left', u'middle', u'right']","[0.8, 0.4, 0.2]","[u'low', u'high', u'medium']","red",51,"right","medium","False","False",305,5000,NA
"A2OROMUVBD1NVC","Sun Nov 01 2020 11:13:26 GMT-0500 (Eastern Standard Time)","Sun Nov 01 2020 11:21:42 GMT-0500 (Eastern Standard Time)","Mozilla/5.0 (X11; CrOS x86_64 13421.73.0) AppleWebKit/537.36 (KHTML, like Gecko) Chrome/86.0.4240.112 Safari/537.36",102,"[0.9, 0.5, 0.1]","[0.8, 0.4, 0.2]","[u'blue', u'black', u'red']","[u'left', u'middle', u'right']","[0.8, 0.4, 0.2]","[u'low', u'high', u'medium']","red",51,"right","medium","False","False",356,4950,NA
"A2OROMUVBD1NVC","Sun Nov 01 2020 11:13:26 GMT-0500 (Eastern Standard Time)","Sun Nov 01 2020 11:21:42 GMT-0500 (Eastern Standard Time)","Mozilla/5.0 (X11; CrOS x86_64 13421.73.0) AppleWebKit/537.36 (KHTML, like Gecko) Chrome/86.0.4240.112 Safari/537.36",103,"[0.9, 0.5, 0.1]","[0.8, 0.4, 0.2]","[u'blue', u'black', u'red']","[u'left', u'middle', u'right']","[0.8, 0.4, 0.2]","[u'low', u'high', u'medium']","blue",49,"left","low","False","False",295,4900,NA
"A2OROMUVBD1NVC","Sun Nov 01 2020 11:13:26 GMT-0500 (Eastern Standard Time)","Sun Nov 01 2020 11:21:42 GMT-0500 (Eastern Standard Time)","Mozilla/5.0 (X11; CrOS x86_64 13421.73.0) AppleWebKit/537.36 (KHTML, like Gecko) Chrome/86.0.4240.112 Safari/537.36",104,"[0.9, 0.5, 0.1]","[0.8, 0.4, 0.2]","[u'blue', u'black', u'red']","[u'left', u'middle', u'right']","[0.8, 0.4, 0.2]","[u'low', u'high', u'medium']","black",50,"middle","high","True","False",268,5000,NA
"A2OROMUVBD1NVC","Sun Nov 01 2020 11:13:26 GMT-0500 (Eastern Standard Time)","Sun Nov 01 2020 11:21:42 GMT-0500 (Eastern Standard Time)","Mozilla/5.0 (X11; CrOS x86_64 13421.73.0) AppleWebKit/537.36 (KHTML, like Gecko) Chrome/86.0.4240.112 Safari/537.36",105,"[0.9, 0.5, 0.1]","[0.8, 0.4, 0.2]","[u'blue', u'black', u'red']","[u'left', u'middle', u'right']","[0.8, 0.4, 0.2]","[u'low', u'high', u'medium']","black",50,"middle","high","False","False",498,4950,NA
"A2OROMUVBD1NVC","Sun Nov 01 2020 11:13:26 GMT-0500 (Eastern Standard Time)","Sun Nov 01 2020 11:21:42 GMT-0500 (Eastern Standard Time)","Mozilla/5.0 (X11; CrOS x86_64 13421.73.0) AppleWebKit/537.36 (KHTML, like Gecko) Chrome/86.0.4240.112 Safari/537.36",106,"[0.9, 0.5, 0.1]","[0.8, 0.4, 0.2]","[u'blue', u'black', u'red']","[u'left', u'middle', u'right']","[0.8, 0.4, 0.2]","[u'low', u'high', u'medium']","black",50,"middle","high","True","False",321,5050,NA
"A2OROMUVBD1NVC","Sun Nov 01 2020 11:13:26 GMT-0500 (Eastern Standard Time)","Sun Nov 01 2020 11:21:42 GMT-0500 (Eastern Standard Time)","Mozilla/5.0 (X11; CrOS x86_64 13421.73.0) AppleWebKit/537.36 (KHTML, like Gecko) Chrome/86.0.4240.112 Safari/537.36",107,"[0.9, 0.5, 0.1]","[0.8, 0.4, 0.2]","[u'blue', u'black', u'red']","[u'left', u'middle', u'right']","[0.8, 0.4, 0.2]","[u'low', u'high', u'medium']","black",50,"middle","high","True","False",283,5150,NA
"A2OROMUVBD1NVC","Sun Nov 01 2020 11:13:26 GMT-0500 (Eastern Standard Time)","Sun Nov 01 2020 11:21:42 GMT-0500 (Eastern Standard Time)","Mozilla/5.0 (X11; CrOS x86_64 13421.73.0) AppleWebKit/537.36 (KHTML, like Gecko) Chrome/86.0.4240.112 Safari/537.36",108,"[0.9, 0.5, 0.1]","[0.8, 0.4, 0.2]","[u'blue', u'black', u'red']","[u'left', u'middle', u'right']","[0.8, 0.4, 0.2]","[u'low', u'high', u'medium']","black",50,"middle","high","False","False",300,5100,NA
"A2OROMUVBD1NVC","Sun Nov 01 2020 11:13:26 GMT-0500 (Eastern Standard Time)","Sun Nov 01 2020 11:21:42 GMT-0500 (Eastern Standard Time)","Mozilla/5.0 (X11; CrOS x86_64 13421.73.0) AppleWebKit/537.36 (KHTML, like Gecko) Chrome/86.0.4240.112 Safari/537.36",109,"[0.9, 0.5, 0.1]","[0.8, 0.4, 0.2]","[u'blue', u'black', u'red']","[u'left', u'middle', u'right']","[0.8, 0.4, 0.2]","[u'low', u'high', u'medium']","black",50,"middle","high","True","False",322,5200,NA
"A2OROMUVBD1NVC","Sun Nov 01 2020 11:13:26 GMT-0500 (Eastern Standard Time)","Sun Nov 01 2020 11:21:42 GMT-0500 (Eastern Standard Time)","Mozilla/5.0 (X11; CrOS x86_64 13421.73.0) AppleWebKit/537.36 (KHTML, like Gecko) Chrome/86.0.4240.112 Safari/537.36",110,"[0.9, 0.5, 0.1]","[0.8, 0.4, 0.2]","[u'blue', u'black', u'red']","[u'left', u'middle', u'right']","[0.8, 0.4, 0.2]","[u'low', u'high', u'medium']","black",50,"middle","high","True","False",314,5300,NA
"A2OROMUVBD1NVC","Sun Nov 01 2020 11:13:26 GMT-0500 (Eastern Standard Time)","Sun Nov 01 2020 11:21:42 GMT-0500 (Eastern Standard Time)","Mozilla/5.0 (X11; CrOS x86_64 13421.73.0) AppleWebKit/537.36 (KHTML, like Gecko) Chrome/86.0.4240.112 Safari/537.36",111,"[0.9, 0.5, 0.1]","[0.8, 0.4, 0.2]","[u'blue', u'black', u'red']","[u'left', u'middle', u'right']","[0.8, 0.4, 0.2]","[u'low', u'high', u'medium']","black",50,"middle","high","True","False",392,5400,NA
"A2OROMUVBD1NVC","Sun Nov 01 2020 11:13:26 GMT-0500 (Eastern Standard Time)","Sun Nov 01 2020 11:21:42 GMT-0500 (Eastern Standard Time)","Mozilla/5.0 (X11; CrOS x86_64 13421.73.0) AppleWebKit/537.36 (KHTML, like Gecko) Chrome/86.0.4240.112 Safari/537.36",112,"[0.9, 0.5, 0.1]","[0.8, 0.4, 0.2]","[u'blue', u'black', u'red']","[u'left', u'middle', u'right']","[0.8, 0.4, 0.2]","[u'low', u'high', u'medium']","black",50,"middle","high","False","True",336,5350,NA
"A2OROMUVBD1NVC","Sun Nov 01 2020 11:13:26 GMT-0500 (Eastern Standard Time)","Sun Nov 01 2020 11:21:42 GMT-0500 (Eastern Standard Time)","Mozilla/5.0 (X11; CrOS x86_64 13421.73.0) AppleWebKit/537.36 (KHTML, like Gecko) Chrome/86.0.4240.112 Safari/537.36",113,"[0.9, 0.5, 0.1]","[0.8, 0.4, 0.2]","[u'blue', u'black', u'red']","[u'left', u'middle', u'right']","[0.8, 0.4, 0.2]","[u'medium', u'low', u'high']","black",50,"middle","low","True","False",248,5450,NA
"A2OROMUVBD1NVC","Sun Nov 01 2020 11:13:26 GMT-0500 (Eastern Standard Time)","Sun Nov 01 2020 11:21:42 GMT-0500 (Eastern Standard Time)","Mozilla/5.0 (X11; CrOS x86_64 13421.73.0) AppleWebKit/537.36 (KHTML, like Gecko) Chrome/86.0.4240.112 Safari/537.36",114,"[0.9, 0.5, 0.1]","[0.8, 0.4, 0.2]","[u'blue', u'black', u'red']","[u'left', u'middle', u'right']","[0.8, 0.4, 0.2]","[u'medium', u'low', u'high']","black",50,"middle","low","False","False",327,5400,NA
"A2OROMUVBD1NVC","Sun Nov 01 2020 11:13:26 GMT-0500 (Eastern Standard Time)","Sun Nov 01 2020 11:21:42 GMT-0500 (Eastern Standard Time)","Mozilla/5.0 (X11; CrOS x86_64 13421.73.0) AppleWebKit/537.36 (KHTML, like Gecko) Chrome/86.0.4240.112 Safari/537.36",115,"[0.9, 0.5, 0.1]","[0.8, 0.4, 0.2]","[u'blue', u'black', u'red']","[u'left', u'middle', u'right']","[0.8, 0.4, 0.2]","[u'medium', u'low', u'high']","black",50,"middle","low","True","False",129,5500,NA
"A2OROMUVBD1NVC","Sun Nov 01 2020 11:13:26 GMT-0500 (Eastern Standard Time)","Sun Nov 01 2020 11:21:42 GMT-0500 (Eastern Standard Time)","Mozilla/5.0 (X11; CrOS x86_64 13421.73.0) AppleWebKit/537.36 (KHTML, like Gecko) Chrome/86.0.4240.112 Safari/537.36",116,"[0.9, 0.5, 0.1]","[0.8, 0.4, 0.2]","[u'blue', u'black', u'red']","[u'left', u'middle', u'right']","[0.8, 0.4, 0.2]","[u'medium', u'low', u'high']","black",50,"middle","low","False","False",341,5450,NA
"A2OROMUVBD1NVC","Sun Nov 01 2020 11:13:26 GMT-0500 (Eastern Standard Time)","Sun Nov 01 2020 11:21:42 GMT-0500 (Eastern Standard Time)","Mozilla/5.0 (X11; CrOS x86_64 13421.73.0) AppleWebKit/537.36 (KHTML, like Gecko) Chrome/86.0.4240.112 Safari/537.36",117,"[0.9, 0.5, 0.1]","[0.8, 0.4, 0.2]","[u'blue', u'black', u'red']","[u'left', u'middle', u'right']","[0.8, 0.4, 0.2]","[u'medium', u'low', u'high']","black",50,"middle","low","False","False",322,5400,NA
"A2OROMUVBD1NVC","Sun Nov 01 2020 11:13:26 GMT-0500 (Eastern Standard Time)","Sun Nov 01 2020 11:21:42 GMT-0500 (Eastern Standard Time)","Mozilla/5.0 (X11; CrOS x86_64 13421.73.0) AppleWebKit/537.36 (KHTML, like Gecko) Chrome/86.0.4240.112 Safari/537.36",118,"[0.9, 0.5, 0.1]","[0.8, 0.4, 0.2]","[u'blue', u'black', u'red']","[u'left', u'middle', u'right']","[0.8, 0.4, 0.2]","[u'medium', u'low', u'high']","red",51,"right","high","True","False",335,5500,NA
"A2OROMUVBD1NVC","Sun Nov 01 2020 11:13:26 GMT-0500 (Eastern Standard Time)","Sun Nov 01 2020 11:21:42 GMT-0500 (Eastern Standard Time)","Mozilla/5.0 (X11; CrOS x86_64 13421.73.0) AppleWebKit/537.36 (KHTML, like Gecko) Chrome/86.0.4240.112 Safari/537.36",119,"[0.9, 0.5, 0.1]","[0.8, 0.4, 0.2]","[u'blue', u'black', u'red']","[u'left', u'middle', u'right']","[0.8, 0.4, 0.2]","[u'medium', u'low', u'high']","red",51,"right","high","True","False",345,5600,NA
"A2OROMUVBD1NVC","Sun Nov 01 2020 11:13:26 GMT-0500 (Eastern Standard Time)","Sun Nov 01 2020 11:21:42 GMT-0500 (Eastern Standard Time)","Mozilla/5.0 (X11; CrOS x86_64 13421.73.0) AppleWebKit/537.36 (KHTML, like Gecko) Chrome/86.0.4240.112 Safari/537.36",120,"[0.9, 0.5, 0.1]","[0.8, 0.4, 0.2]","[u'blue', u'black', u'red']","[u'left', u'middle', u'right']","[0.8, 0.4, 0.2]","[u'medium', u'low', u'high']","red",51,"right","high","True","False",328,5700,NA
"A2OROMUVBD1NVC","Sun Nov 01 2020 11:13:26 GMT-0500 (Eastern Standard Time)","Sun Nov 01 2020 11:21:42 GMT-0500 (Eastern Standard Time)","Mozilla/5.0 (X11; CrOS x86_64 13421.73.0) AppleWebKit/537.36 (KHTML, like Gecko) Chrome/86.0.4240.112 Safari/537.36",121,"[0.9, 0.5, 0.1]","[0.8, 0.4, 0.2]","[u'blue', u'black', u'red']","[u'left', u'middle', u'right']","[0.8, 0.4, 0.2]","[u'low', u'high', u'medium']","red",51,"right","medium","True","False",700,5800,NA
"A2OROMUVBD1NVC","Sun Nov 01 2020 11:13:26 GMT-0500 (Eastern Standard Time)","Sun Nov 01 2020 11:21:42 GMT-0500 (Eastern Standard Time)","Mozilla/5.0 (X11; CrOS x86_64 13421.73.0) AppleWebKit/537.36 (KHTML, like Gecko) Chrome/86.0.4240.112 Safari/537.36",122,"[0.9, 0.5, 0.1]","[0.8, 0.4, 0.2]","[u'blue', u'black', u'red']","[u'left', u'middle', u'right']","[0.8, 0.4, 0.2]","[u'low', u'high', u'medium']","red",51,"right","medium","True","False",260,5900,NA
"A2OROMUVBD1NVC","Sun Nov 01 2020 11:13:26 GMT-0500 (Eastern Standard Time)","Sun Nov 01 2020 11:21:42 GMT-0500 (Eastern Standard Time)","Mozilla/5.0 (X11; CrOS x86_64 13421.73.0) AppleWebKit/537.36 (KHTML, like Gecko) Chrome/86.0.4240.112 Safari/537.36",123,"[0.9, 0.5, 0.1]","[0.8, 0.4, 0.2]","[u'blue', u'black', u'red']","[u'left', u'middle', u'right']","[0.8, 0.4, 0.2]","[u'low', u'high', u'medium']","red",51,"right","medium","True","False",393,6000,NA
"A2OROMUVBD1NVC","Sun Nov 01 2020 11:13:26 GMT-0500 (Eastern Standard Time)","Sun Nov 01 2020 11:21:42 GMT-0500 (Eastern Standard Time)","Mozilla/5.0 (X11; CrOS x86_64 13421.73.0) AppleWebKit/537.36 (KHTML, like Gecko) Chrome/86.0.4240.112 Safari/537.36",124,"[0.9, 0.5, 0.1]","[0.8, 0.4, 0.2]","[u'blue', u'black', u'red']","[u'left', u'middle', u'right']","[0.8, 0.4, 0.2]","[u'low', u'high', u'medium']","red",51,"right","medium","True","False",289,6100,NA
"A2OROMUVBD1NVC","Sun Nov 01 2020 11:13:26 GMT-0500 (Eastern Standard Time)","Sun Nov 01 2020 11:21:42 GMT-0500 (Eastern Standard Time)","Mozilla/5.0 (X11; CrOS x86_64 13421.73.0) AppleWebKit/537.36 (KHTML, like Gecko) Chrome/86.0.4240.112 Safari/537.36",125,"[0.9, 0.5, 0.1]","[0.8, 0.4, 0.2]","[u'blue', u'black', u'red']","[u'left', u'middle', u'right']","[0.8, 0.4, 0.2]","[u'low', u'high', u'medium']","red",51,"right","medium","False","False",308,6050,NA
"A2OROMUVBD1NVC","Sun Nov 01 2020 11:13:26 GMT-0500 (Eastern Standard Time)","Sun Nov 01 2020 11:21:42 GMT-0500 (Eastern Standard Time)","Mozilla/5.0 (X11; CrOS x86_64 13421.73.0) AppleWebKit/537.36 (KHTML, like Gecko) Chrome/86.0.4240.112 Safari/537.36",126,"[0.9, 0.5, 0.1]","[0.8, 0.4, 0.2]","[u'blue', u'black', u'red']","[u'left', u'middle', u'right']","[0.8, 0.4, 0.2]","[u'low', u'high', u'medium']","red",51,"right","medium","True","False",288,6150,NA
"A2OROMUVBD1NVC","Sun Nov 01 2020 11:13:26 GMT-0500 (Eastern Standard Time)","Sun Nov 01 2020 11:21:42 GMT-0500 (Eastern Standard Time)","Mozilla/5.0 (X11; CrOS x86_64 13421.73.0) AppleWebKit/537.36 (KHTML, like Gecko) Chrome/86.0.4240.112 Safari/537.36",127,"[0.9, 0.5, 0.1]","[0.8, 0.4, 0.2]","[u'blue', u'black', u'red']","[u'left', u'middle', u'right']","[0.8, 0.4, 0.2]","[u'low', u'high', u'medium']","red",51,"right","medium","False","False",247,6100,NA
"A2OROMUVBD1NVC","Sun Nov 01 2020 11:13:26 GMT-0500 (Eastern Standard Time)","Sun Nov 01 2020 11:21:42 GMT-0500 (Eastern Standard Time)","Mozilla/5.0 (X11; CrOS x86_64 13421.73.0) AppleWebKit/537.36 (KHTML, like Gecko) Chrome/86.0.4240.112 Safari/537.36",128,"[0.9, 0.5, 0.1]","[0.8, 0.4, 0.2]","[u'blue', u'black', u'red']","[u'left', u'middle', u'right']","[0.8, 0.4, 0.2]","[u'low', u'high', u'medium']","red",51,"right","medium","False","False",287,6050,NA
"A2OROMUVBD1NVC","Sun Nov 01 2020 11:13:26 GMT-0500 (Eastern Standard Time)","Sun Nov 01 2020 11:21:42 GMT-0500 (Eastern Standard Time)","Mozilla/5.0 (X11; CrOS x86_64 13421.73.0) AppleWebKit/537.36 (KHTML, like Gecko) Chrome/86.0.4240.112 Safari/537.36",129,"[0.9, 0.5, 0.1]","[0.8, 0.4, 0.2]","[u'blue', u'black', u'red']","[u'left', u'middle', u'right']","[0.8, 0.4, 0.2]","[u'low', u'high', u'medium']","blue",49,"left","low","True","False",73,6150,NA
"A2OROMUVBD1NVC","Sun Nov 01 2020 11:13:26 GMT-0500 (Eastern Standard Time)","Sun Nov 01 2020 11:21:42 GMT-0500 (Eastern Standard Time)","Mozilla/5.0 (X11; CrOS x86_64 13421.73.0) AppleWebKit/537.36 (KHTML, like Gecko) Chrome/86.0.4240.112 Safari/537.36",130,"[0.9, 0.5, 0.1]","[0.8, 0.4, 0.2]","[u'blue', u'black', u'red']","[u'left', u'middle', u'right']","[0.8, 0.4, 0.2]","[u'low', u'high', u'medium']","blue",49,"left","low","True","False",258,6250,NA
"A2OROMUVBD1NVC","Sun Nov 01 2020 11:13:26 GMT-0500 (Eastern Standard Time)","Sun Nov 01 2020 11:21:42 GMT-0500 (Eastern Standard Time)","Mozilla/5.0 (X11; CrOS x86_64 13421.73.0) AppleWebKit/537.36 (KHTML, like Gecko) Chrome/86.0.4240.112 Safari/537.36",131,"[0.9, 0.5, 0.1]","[0.8, 0.4, 0.2]","[u'blue', u'black', u'red']","[u'left', u'middle', u'right']","[0.8, 0.4, 0.2]","[u'low', u'high', u'medium']","blue",49,"left","low","False","False",398,6200,NA
"A2OROMUVBD1NVC","Sun Nov 01 2020 11:13:26 GMT-0500 (Eastern Standard Time)","Sun Nov 01 2020 11:21:42 GMT-0500 (Eastern Standard Time)","Mozilla/5.0 (X11; CrOS x86_64 13421.73.0) AppleWebKit/537.36 (KHTML, like Gecko) Chrome/86.0.4240.112 Safari/537.36",132,"[0.9, 0.5, 0.1]","[0.8, 0.4, 0.2]","[u'blue', u'black', u'red']","[u'left', u'middle', u'right']","[0.8, 0.4, 0.2]","[u'low', u'high', u'medium']","blue",49,"left","low","False","False",10,6150,NA
"A2OROMUVBD1NVC","Sun Nov 01 2020 11:13:26 GMT-0500 (Eastern Standard Time)","Sun Nov 01 2020 11:21:42 GMT-0500 (Eastern Standard Time)","Mozilla/5.0 (X11; CrOS x86_64 13421.73.0) AppleWebKit/537.36 (KHTML, like Gecko) Chrome/86.0.4240.112 Safari/537.36",133,"[0.9, 0.5, 0.1]","[0.8, 0.4, 0.2]","[u'blue', u'black', u'red']","[u'left', u'middle', u'right']","[0.8, 0.4, 0.2]","[u'low', u'high', u'medium']","black",50,"middle","high","True","False",146,6250,NA
"A2OROMUVBD1NVC","Sun Nov 01 2020 11:13:26 GMT-0500 (Eastern Standard Time)","Sun Nov 01 2020 11:21:42 GMT-0500 (Eastern Standard Time)","Mozilla/5.0 (X11; CrOS x86_64 13421.73.0) AppleWebKit/537.36 (KHTML, like Gecko) Chrome/86.0.4240.112 Safari/537.36",134,"[0.9, 0.5, 0.1]","[0.8, 0.4, 0.2]","[u'blue', u'black', u'red']","[u'left', u'middle', u'right']","[0.8, 0.4, 0.2]","[u'low', u'high', u'medium']","black",50,"middle","high","True","False",339,6350,NA
"A2OROMUVBD1NVC","Sun Nov 01 2020 11:13:26 GMT-0500 (Eastern Standard Time)","Sun Nov 01 2020 11:21:42 GMT-0500 (Eastern Standard Time)","Mozilla/5.0 (X11; CrOS x86_64 13421.73.0) AppleWebKit/537.36 (KHTML, like Gecko) Chrome/86.0.4240.112 Safari/537.36",135,"[0.9, 0.5, 0.1]","[0.8, 0.4, 0.2]","[u'blue', u'black', u'red']","[u'left', u'middle', u'right']","[0.8, 0.4, 0.2]","[u'low', u'high', u'medium']","black",50,"middle","high","True","False",374,6450,NA
"A2OROMUVBD1NVC","Sun Nov 01 2020 11:13:26 GMT-0500 (Eastern Standard Time)","Sun Nov 01 2020 11:21:42 GMT-0500 (Eastern Standard Time)","Mozilla/5.0 (X11; CrOS x86_64 13421.73.0) AppleWebKit/537.36 (KHTML, like Gecko) Chrome/86.0.4240.112 Safari/537.36",136,"[0.9, 0.5, 0.1]","[0.8, 0.4, 0.2]","[u'blue', u'black', u'red']","[u'left', u'middle', u'right']","[0.8, 0.4, 0.2]","[u'low', u'high', u'medium']","black",50,"middle","high","True","False",425,6550,NA
"A2OROMUVBD1NVC","Sun Nov 01 2020 11:13:26 GMT-0500 (Eastern Standard Time)","Sun Nov 01 2020 11:21:42 GMT-0500 (Eastern Standard Time)","Mozilla/5.0 (X11; CrOS x86_64 13421.73.0) AppleWebKit/537.36 (KHTML, like Gecko) Chrome/86.0.4240.112 Safari/537.36",137,"[0.9, 0.5, 0.1]","[0.8, 0.4, 0.2]","[u'blue', u'black', u'red']","[u'left', u'middle', u'right']","[0.8, 0.4, 0.2]","[u'low', u'high', u'medium']","black",50,"middle","high","True","False",348,6650,NA
"A2OROMUVBD1NVC","Sun Nov 01 2020 11:13:26 GMT-0500 (Eastern Standard Time)","Sun Nov 01 2020 11:21:42 GMT-0500 (Eastern Standard Time)","Mozilla/5.0 (X11; CrOS x86_64 13421.73.0) AppleWebKit/537.36 (KHTML, like Gecko) Chrome/86.0.4240.112 Safari/537.36",138,"[0.9, 0.5, 0.1]","[0.8, 0.4, 0.2]","[u'blue', u'black', u'red']","[u'left', u'middle', u'right']","[0.8, 0.4, 0.2]","[u'low', u'high', u'medium']","black",50,"middle","high","False","False",293,6600,NA
"A2OROMUVBD1NVC","Sun Nov 01 2020 11:13:26 GMT-0500 (Eastern Standard Time)","Sun Nov 01 2020 11:21:42 GMT-0500 (Eastern Standard Time)","Mozilla/5.0 (X11; CrOS x86_64 13421.73.0) AppleWebKit/537.36 (KHTML, like Gecko) Chrome/86.0.4240.112 Safari/537.36",139,"[0.9, 0.5, 0.1]","[0.8, 0.4, 0.2]","[u'blue', u'black', u'red']","[u'left', u'middle', u'right']","[0.8, 0.4, 0.2]","[u'low', u'high', u'medium']","black",50,"middle","high","True","False",281,6700,NA
"A2OROMUVBD1NVC","Sun Nov 01 2020 11:13:26 GMT-0500 (Eastern Standard Time)","Sun Nov 01 2020 11:21:42 GMT-0500 (Eastern Standard Time)","Mozilla/5.0 (X11; CrOS x86_64 13421.73.0) AppleWebKit/537.36 (KHTML, like Gecko) Chrome/86.0.4240.112 Safari/537.36",140,"[0.9, 0.5, 0.1]","[0.8, 0.4, 0.2]","[u'blue', u'black', u'red']","[u'left', u'middle', u'right']","[0.8, 0.4, 0.2]","[u'low', u'high', u'medium']","black",50,"middle","high","False","False",326,6650,NA
"A2OROMUVBD1NVC","Sun Nov 01 2020 11:13:26 GMT-0500 (Eastern Standard Time)","Sun Nov 01 2020 11:21:42 GMT-0500 (Eastern Standard Time)","Mozilla/5.0 (X11; CrOS x86_64 13421.73.0) AppleWebKit/537.36 (KHTML, like Gecko) Chrome/86.0.4240.112 Safari/537.36",141,"[0.9, 0.5, 0.1]","[0.8, 0.4, 0.2]","[u'blue', u'black', u'red']","[u'left', u'middle', u'right']","[0.8, 0.4, 0.2]","[u'low', u'high', u'medium']","black",50,"middle","high","True","True",436,6750,NA
"A2OROMUVBD1NVC","Sun Nov 01 2020 11:13:26 GMT-0500 (Eastern Standard Time)","Sun Nov 01 2020 11:21:42 GMT-0500 (Eastern Standard Time)","Mozilla/5.0 (X11; CrOS x86_64 13421.73.0) AppleWebKit/537.36 (KHTML, like Gecko) Chrome/86.0.4240.112 Safari/537.36",142,"[0.9, 0.5, 0.1]","[0.8, 0.4, 0.2]","[u'blue', u'black', u'red']","[u'left', u'middle', u'right']","[0.8, 0.4, 0.2]","[u'medium', u'low', u'high']","black",50,"middle","low","False","False",553,6700,NA
"A2OROMUVBD1NVC","Sun Nov 01 2020 11:13:26 GMT-0500 (Eastern Standard Time)","Sun Nov 01 2020 11:21:42 GMT-0500 (Eastern Standard Time)","Mozilla/5.0 (X11; CrOS x86_64 13421.73.0) AppleWebKit/537.36 (KHTML, like Gecko) Chrome/86.0.4240.112 Safari/537.36",143,"[0.9, 0.5, 0.1]","[0.8, 0.4, 0.2]","[u'blue', u'black', u'red']","[u'left', u'middle', u'right']","[0.8, 0.4, 0.2]","[u'medium', u'low', u'high']","black",50,"middle","low","False","False",448,6650,NA
"A2OROMUVBD1NVC","Sun Nov 01 2020 11:13:26 GMT-0500 (Eastern Standard Time)","Sun Nov 01 2020 11:21:42 GMT-0500 (Eastern Standard Time)","Mozilla/5.0 (X11; CrOS x86_64 13421.73.0) AppleWebKit/537.36 (KHTML, like Gecko) Chrome/86.0.4240.112 Safari/537.36",144,"[0.9, 0.5, 0.1]","[0.8, 0.4, 0.2]","[u'blue', u'black', u'red']","[u'left', u'middle', u'right']","[0.8, 0.4, 0.2]","[u'medium', u'low', u'high']","black",50,"middle","low","False","False",252,6600,NA
"A2OROMUVBD1NVC","Sun Nov 01 2020 11:13:26 GMT-0500 (Eastern Standard Time)","Sun Nov 01 2020 11:21:42 GMT-0500 (Eastern Standard Time)","Mozilla/5.0 (X11; CrOS x86_64 13421.73.0) AppleWebKit/537.36 (KHTML, like Gecko) Chrome/86.0.4240.112 Safari/537.36",145,"[0.9, 0.5, 0.1]","[0.8, 0.4, 0.2]","[u'blue', u'black', u'red']","[u'left', u'middle', u'right']","[0.8, 0.4, 0.2]","[u'medium', u'low', u'high']","blue",49,"left","medium","False","False",288,6550,NA
"A2OROMUVBD1NVC","Sun Nov 01 2020 11:13:26 GMT-0500 (Eastern Standard Time)","Sun Nov 01 2020 11:21:42 GMT-0500 (Eastern Standard Time)","Mozilla/5.0 (X11; CrOS x86_64 13421.73.0) AppleWebKit/537.36 (KHTML, like Gecko) Chrome/86.0.4240.112 Safari/537.36",146,"[0.9, 0.5, 0.1]","[0.8, 0.4, 0.2]","[u'blue', u'black', u'red']","[u'left', u'middle', u'right']","[0.8, 0.4, 0.2]","[u'medium', u'low', u'high']","red",51,"right","high","False","False",213,6500,NA
"A2OROMUVBD1NVC","Sun Nov 01 2020 11:13:26 GMT-0500 (Eastern Standard Time)","Sun Nov 01 2020 11:21:42 GMT-0500 (Eastern Standard Time)","Mozilla/5.0 (X11; CrOS x86_64 13421.73.0) AppleWebKit/537.36 (KHTML, like Gecko) Chrome/86.0.4240.112 Safari/537.36",147,"[0.9, 0.5, 0.1]","[0.8, 0.4, 0.2]","[u'blue', u'black', u'red']","[u'left', u'middle', u'right']","[0.8, 0.4, 0.2]","[u'medium', u'low', u'high']","blue",49,"left","medium","False","False",339,6450,NA
"A2OROMUVBD1NVC","Sun Nov 01 2020 11:13:26 GMT-0500 (Eastern Standard Time)","Sun Nov 01 2020 11:21:42 GMT-0500 (Eastern Standard Time)","Mozilla/5.0 (X11; CrOS x86_64 13421.73.0) AppleWebKit/537.36 (KHTML, like Gecko) Chrome/86.0.4240.112 Safari/537.36",148,"[0.9, 0.5, 0.1]","[0.8, 0.4, 0.2]","[u'blue', u'black', u'red']","[u'left', u'middle', u'right']","[0.8, 0.4, 0.2]","[u'medium', u'low', u'high']","red",51,"right","high","True","False",333,6550,NA
"A2OROMUVBD1NVC","Sun Nov 01 2020 11:13:26 GMT-0500 (Eastern Standard Time)","Sun Nov 01 2020 11:21:42 GMT-0500 (Eastern Standard Time)","Mozilla/5.0 (X11; CrOS x86_64 13421.73.0) AppleWebKit/537.36 (KHTML, like Gecko) Chrome/86.0.4240.112 Safari/537.36",149,"[0.9, 0.5, 0.1]","[0.8, 0.4, 0.2]","[u'blue', u'black', u'red']","[u'left', u'middle', u'right']","[0.8, 0.4, 0.2]","[u'medium', u'low', u'high']","red",51,"right","high","True","False",274,6650,NA
"A2OROMUVBD1NVC","Sun Nov 01 2020 11:13:26 GMT-0500 (Eastern Standard Time)","Sun Nov 01 2020 11:21:42 GMT-0500 (Eastern Standard Time)","Mozilla/5.0 (X11; CrOS x86_64 13421.73.0) AppleWebKit/537.36 (KHTML, like Gecko) Chrome/86.0.4240.112 Safari/537.36",150,"[0.9, 0.5, 0.1]","[0.8, 0.4, 0.2]","[u'blue', u'black', u'red']","[u'left', u'middle', u'right']","[0.8, 0.4, 0.2]","[u'medium', u'low', u'high']","red",51,"right","high","False","False",1255,6600,NA
"A2OROMUVBD1NVC","Sun Nov 01 2020 11:13:26 GMT-0500 (Eastern Standard Time)","Sun Nov 01 2020 11:21:42 GMT-0500 (Eastern Standard Time)","Mozilla/5.0 (X11; CrOS x86_64 13421.73.0) AppleWebKit/537.36 (KHTML, like Gecko) Chrome/86.0.4240.112 Safari/537.36",151,"[0.9, 0.5, 0.1]","[0.8, 0.4, 0.2]","[u'blue', u'black', u'red']","[u'left', u'middle', u'right']","[0.8, 0.4, 0.2]","[u'medium', u'low', u'high']","red",51,"right","high","True","False",354,6700,NA
"A2OROMUVBD1NVC","Sun Nov 01 2020 11:13:26 GMT-0500 (Eastern Standard Time)","Sun Nov 01 2020 11:21:42 GMT-0500 (Eastern Standard Time)","Mozilla/5.0 (X11; CrOS x86_64 13421.73.0) AppleWebKit/537.36 (KHTML, like Gecko) Chrome/86.0.4240.112 Safari/537.36",152,"[0.9, 0.5, 0.1]","[0.8, 0.4, 0.2]","[u'blue', u'black', u'red']","[u'left', u'middle', u'right']","[0.8, 0.4, 0.2]","[u'medium', u'low', u'high']","red",51,"right","high","True","False",248,6800,NA
"A2OROMUVBD1NVC","Sun Nov 01 2020 11:13:26 GMT-0500 (Eastern Standard Time)","Sun Nov 01 2020 11:21:42 GMT-0500 (Eastern Standard Time)","Mozilla/5.0 (X11; CrOS x86_64 13421.73.0) AppleWebKit/537.36 (KHTML, like Gecko) Chrome/86.0.4240.112 Safari/537.36",153,"[0.9, 0.5, 0.1]","[0.8, 0.4, 0.2]","[u'blue', u'black', u'red']","[u'left', u'middle', u'right']","[0.8, 0.4, 0.2]","[u'medium', u'low', u'high']","red",51,"right","high","False","False",257,6750,NA
"A2OROMUVBD1NVC","Sun Nov 01 2020 11:13:26 GMT-0500 (Eastern Standard Time)","Sun Nov 01 2020 11:21:42 GMT-0500 (Eastern Standard Time)","Mozilla/5.0 (X11; CrOS x86_64 13421.73.0) AppleWebKit/537.36 (KHTML, like Gecko) Chrome/86.0.4240.112 Safari/537.36",154,"[0.9, 0.5, 0.1]","[0.8, 0.4, 0.2]","[u'blue', u'black', u'red']","[u'left', u'middle', u'right']","[0.8, 0.4, 0.2]","[u'medium', u'low', u'high']","red",51,"right","high","True","False",234,6850,NA
"A2OROMUVBD1NVC","Sun Nov 01 2020 11:13:26 GMT-0500 (Eastern Standard Time)","Sun Nov 01 2020 11:21:42 GMT-0500 (Eastern Standard Time)","Mozilla/5.0 (X11; CrOS x86_64 13421.73.0) AppleWebKit/537.36 (KHTML, like Gecko) Chrome/86.0.4240.112 Safari/537.36",155,"[0.9, 0.5, 0.1]","[0.8, 0.4, 0.2]","[u'blue', u'black', u'red']","[u'left', u'middle', u'right']","[0.8, 0.4, 0.2]","[u'medium', u'low', u'high']","red",51,"right","high","True","True",314,6950,NA
"A2OROMUVBD1NVC","Sun Nov 01 2020 11:13:26 GMT-0500 (Eastern Standard Time)","Sun Nov 01 2020 11:21:42 GMT-0500 (Eastern Standard Time)","Mozilla/5.0 (X11; CrOS x86_64 13421.73.0) AppleWebKit/537.36 (KHTML, like Gecko) Chrome/86.0.4240.112 Safari/537.36",156,"[0.9, 0.5, 0.1]","[0.8, 0.4, 0.2]","[u'blue', u'black', u'red']","[u'left', u'middle', u'right']","[0.8, 0.4, 0.2]","[u'high', u'low', u'medium']","red",51,"right","medium","True","False",169,7050,NA
"A2OROMUVBD1NVC","Sun Nov 01 2020 11:13:26 GMT-0500 (Eastern Standard Time)","Sun Nov 01 2020 11:21:42 GMT-0500 (Eastern Standard Time)","Mozilla/5.0 (X11; CrOS x86_64 13421.73.0) AppleWebKit/537.36 (KHTML, like Gecko) Chrome/86.0.4240.112 Safari/537.36",157,"[0.9, 0.5, 0.1]","[0.8, 0.4, 0.2]","[u'blue', u'black', u'red']","[u'left', u'middle', u'right']","[0.8, 0.4, 0.2]","[u'high', u'low', u'medium']","red",51,"right","medium","True","False",940,7150,NA
"A2OROMUVBD1NVC","Sun Nov 01 2020 11:13:26 GMT-0500 (Eastern Standard Time)","Sun Nov 01 2020 11:21:42 GMT-0500 (Eastern Standard Time)","Mozilla/5.0 (X11; CrOS x86_64 13421.73.0) AppleWebKit/537.36 (KHTML, like Gecko) Chrome/86.0.4240.112 Safari/537.36",158,"[0.9, 0.5, 0.1]","[0.8, 0.4, 0.2]","[u'blue', u'black', u'red']","[u'left', u'middle', u'right']","[0.8, 0.4, 0.2]","[u'high', u'low', u'medium']","red",51,"right","medium","False","False",512,7100,NA
"A2OROMUVBD1NVC","Sun Nov 01 2020 11:13:26 GMT-0500 (Eastern Standard Time)","Sun Nov 01 2020 11:21:42 GMT-0500 (Eastern Standard Time)","Mozilla/5.0 (X11; CrOS x86_64 13421.73.0) AppleWebKit/537.36 (KHTML, like Gecko) Chrome/86.0.4240.112 Safari/537.36",159,"[0.9, 0.5, 0.1]","[0.8, 0.4, 0.2]","[u'blue', u'black', u'red']","[u'left', u'middle', u'right']","[0.8, 0.4, 0.2]","[u'high', u'low', u'medium']","red",51,"right","medium","False","False",275,7050,NA
"A2OROMUVBD1NVC","Sun Nov 01 2020 11:13:26 GMT-0500 (Eastern Standard Time)","Sun Nov 01 2020 11:21:42 GMT-0500 (Eastern Standard Time)","Mozilla/5.0 (X11; CrOS x86_64 13421.73.0) AppleWebKit/537.36 (KHTML, like Gecko) Chrome/86.0.4240.112 Safari/537.36",160,"[0.9, 0.5, 0.1]","[0.8, 0.4, 0.2]","[u'blue', u'black', u'red']","[u'left', u'middle', u'right']","[0.8, 0.4, 0.2]","[u'high', u'low', u'medium']","red",51,"right","medium","False","False",264,7000,NA
