"src_subject_id","start_time","end_time","browser","index","first_half_probabilities","second_half_probabilities","deck_color","deck_position","deck_probabilities","deck_contingencies","response_color","key_press","response_position","response_probability","reward_type","trial_type","rt","reward_tally","exclusion_reason"
"A2BCNRHZU9V7C4","Sun Nov 01 2020 09:07:24 GMT-0700 (Mountain Standard Time)","Sun Nov 01 2020 09:17:21 GMT-0700 (Mountain Standard Time)","Mozilla/5.0 (Windows NT 6.1; Win64; x64) AppleWebKit/537.36 (KHTML, like Gecko) Chrome/86.0.4240.111 Safari/537.36",1,"[0.9, 0.5, 0.1]","[0.8, 0.4, 0.2]","[u'black', u'red', u'blue']","[u'left', u'middle', u'right']","[0.9, 0.5, 0.1]","[u'low', u'high', u'medium']","black",49,"left","low","False","False",648,-50,NA
"A2BCNRHZU9V7C4","Sun Nov 01 2020 09:07:24 GMT-0700 (Mountain Standard Time)","Sun Nov 01 2020 09:17:21 GMT-0700 (Mountain Standard Time)","Mozilla/5.0 (Windows NT 6.1; Win64; x64) AppleWebKit/537.36 (KHTML, like Gecko) Chrome/86.0.4240.111 Safari/537.36",2,"[0.9, 0.5, 0.1]","[0.8, 0.4, 0.2]","[u'black', u'red', u'blue']","[u'left', u'middle', u'right']","[0.9, 0.5, 0.1]","[u'low', u'high', u'medium']","red",50,"middle","high","True","False",48,50,NA
"A2BCNRHZU9V7C4","Sun Nov 01 2020 09:07:24 GMT-0700 (Mountain Standard Time)","Sun Nov 01 2020 09:17:21 GMT-0700 (Mountain Standard Time)","Mozilla/5.0 (Windows NT 6.1; Win64; x64) AppleWebKit/537.36 (KHTML, like Gecko) Chrome/86.0.4240.111 Safari/537.36",3,"[0.9, 0.5, 0.1]","[0.8, 0.4, 0.2]","[u'black', u'red', u'blue']","[u'left', u'middle', u'right']","[0.9, 0.5, 0.1]","[u'low', u'high', u'medium']","red",50,"middle","high","True","False",367,150,NA
"A2BCNRHZU9V7C4","Sun Nov 01 2020 09:07:24 GMT-0700 (Mountain Standard Time)","Sun Nov 01 2020 09:17:21 GMT-0700 (Mountain Standard Time)","Mozilla/5.0 (Windows NT 6.1; Win64; x64) AppleWebKit/537.36 (KHTML, like Gecko) Chrome/86.0.4240.111 Safari/537.36",4,"[0.9, 0.5, 0.1]","[0.8, 0.4, 0.2]","[u'black', u'red', u'blue']","[u'left', u'middle', u'right']","[0.9, 0.5, 0.1]","[u'low', u'high', u'medium']","red",50,"middle","high","True","False",431,250,NA
"A2BCNRHZU9V7C4","Sun Nov 01 2020 09:07:24 GMT-0700 (Mountain Standard Time)","Sun Nov 01 2020 09:17:21 GMT-0700 (Mountain Standard Time)","Mozilla/5.0 (Windows NT 6.1; Win64; x64) AppleWebKit/537.36 (KHTML, like Gecko) Chrome/86.0.4240.111 Safari/537.36",5,"[0.9, 0.5, 0.1]","[0.8, 0.4, 0.2]","[u'black', u'red', u'blue']","[u'left', u'middle', u'right']","[0.9, 0.5, 0.1]","[u'low', u'high', u'medium']","red",50,"middle","high","True","False",422,350,NA
"A2BCNRHZU9V7C4","Sun Nov 01 2020 09:07:24 GMT-0700 (Mountain Standard Time)","Sun Nov 01 2020 09:17:21 GMT-0700 (Mountain Standard Time)","Mozilla/5.0 (Windows NT 6.1; Win64; x64) AppleWebKit/537.36 (KHTML, like Gecko) Chrome/86.0.4240.111 Safari/537.36",6,"[0.9, 0.5, 0.1]","[0.8, 0.4, 0.2]","[u'black', u'red', u'blue']","[u'left', u'middle', u'right']","[0.9, 0.5, 0.1]","[u'low', u'high', u'medium']","red",50,"middle","high","True","False",527,450,NA
"A2BCNRHZU9V7C4","Sun Nov 01 2020 09:07:24 GMT-0700 (Mountain Standard Time)","Sun Nov 01 2020 09:17:21 GMT-0700 (Mountain Standard Time)","Mozilla/5.0 (Windows NT 6.1; Win64; x64) AppleWebKit/537.36 (KHTML, like Gecko) Chrome/86.0.4240.111 Safari/537.36",7,"[0.9, 0.5, 0.1]","[0.8, 0.4, 0.2]","[u'black', u'red', u'blue']","[u'left', u'middle', u'right']","[0.9, 0.5, 0.1]","[u'low', u'high', u'medium']","red",50,"middle","high","True","False",391,550,NA
"A2BCNRHZU9V7C4","Sun Nov 01 2020 09:07:24 GMT-0700 (Mountain Standard Time)","Sun Nov 01 2020 09:17:21 GMT-0700 (Mountain Standard Time)","Mozilla/5.0 (Windows NT 6.1; Win64; x64) AppleWebKit/537.36 (KHTML, like Gecko) Chrome/86.0.4240.111 Safari/537.36",8,"[0.9, 0.5, 0.1]","[0.8, 0.4, 0.2]","[u'black', u'red', u'blue']","[u'left', u'middle', u'right']","[0.9, 0.5, 0.1]","[u'low', u'high', u'medium']","red",50,"middle","high","True","False",573,650,NA
"A2BCNRHZU9V7C4","Sun Nov 01 2020 09:07:24 GMT-0700 (Mountain Standard Time)","Sun Nov 01 2020 09:17:21 GMT-0700 (Mountain Standard Time)","Mozilla/5.0 (Windows NT 6.1; Win64; x64) AppleWebKit/537.36 (KHTML, like Gecko) Chrome/86.0.4240.111 Safari/537.36",9,"[0.9, 0.5, 0.1]","[0.8, 0.4, 0.2]","[u'black', u'red', u'blue']","[u'left', u'middle', u'right']","[0.9, 0.5, 0.1]","[u'low', u'high', u'medium']","red",50,"middle","high","True","False",472,750,NA
"A2BCNRHZU9V7C4","Sun Nov 01 2020 09:07:24 GMT-0700 (Mountain Standard Time)","Sun Nov 01 2020 09:17:21 GMT-0700 (Mountain Standard Time)","Mozilla/5.0 (Windows NT 6.1; Win64; x64) AppleWebKit/537.36 (KHTML, like Gecko) Chrome/86.0.4240.111 Safari/537.36",10,"[0.9, 0.5, 0.1]","[0.8, 0.4, 0.2]","[u'black', u'red', u'blue']","[u'left', u'middle', u'right']","[0.9, 0.5, 0.1]","[u'low', u'high', u'medium']","red",50,"middle","high","True","True",423,850,NA
"A2BCNRHZU9V7C4","Sun Nov 01 2020 09:07:24 GMT-0700 (Mountain Standard Time)","Sun Nov 01 2020 09:17:21 GMT-0700 (Mountain Standard Time)","Mozilla/5.0 (Windows NT 6.1; Win64; x64) AppleWebKit/537.36 (KHTML, like Gecko) Chrome/86.0.4240.111 Safari/537.36",11,"[0.9, 0.5, 0.1]","[0.8, 0.4, 0.2]","[u'black', u'red', u'blue']","[u'left', u'middle', u'right']","[0.9, 0.5, 0.1]","[u'medium', u'low', u'high']","red",50,"middle","low","False","False",487,800,NA
"A2BCNRHZU9V7C4","Sun Nov 01 2020 09:07:24 GMT-0700 (Mountain Standard Time)","Sun Nov 01 2020 09:17:21 GMT-0700 (Mountain Standard Time)","Mozilla/5.0 (Windows NT 6.1; Win64; x64) AppleWebKit/537.36 (KHTML, like Gecko) Chrome/86.0.4240.111 Safari/537.36",12,"[0.9, 0.5, 0.1]","[0.8, 0.4, 0.2]","[u'black', u'red', u'blue']","[u'left', u'middle', u'right']","[0.9, 0.5, 0.1]","[u'medium', u'low', u'high']","blue",51,"right","high","True","False",72,900,NA
"A2BCNRHZU9V7C4","Sun Nov 01 2020 09:07:24 GMT-0700 (Mountain Standard Time)","Sun Nov 01 2020 09:17:21 GMT-0700 (Mountain Standard Time)","Mozilla/5.0 (Windows NT 6.1; Win64; x64) AppleWebKit/537.36 (KHTML, like Gecko) Chrome/86.0.4240.111 Safari/537.36",13,"[0.9, 0.5, 0.1]","[0.8, 0.4, 0.2]","[u'black', u'red', u'blue']","[u'left', u'middle', u'right']","[0.9, 0.5, 0.1]","[u'medium', u'low', u'high']","blue",51,"right","high","True","False",390,1000,NA
"A2BCNRHZU9V7C4","Sun Nov 01 2020 09:07:24 GMT-0700 (Mountain Standard Time)","Sun Nov 01 2020 09:17:21 GMT-0700 (Mountain Standard Time)","Mozilla/5.0 (Windows NT 6.1; Win64; x64) AppleWebKit/537.36 (KHTML, like Gecko) Chrome/86.0.4240.111 Safari/537.36",14,"[0.9, 0.5, 0.1]","[0.8, 0.4, 0.2]","[u'black', u'red', u'blue']","[u'left', u'middle', u'right']","[0.9, 0.5, 0.1]","[u'medium', u'low', u'high']","blue",51,"right","high","True","False",326,1100,NA
"A2BCNRHZU9V7C4","Sun Nov 01 2020 09:07:24 GMT-0700 (Mountain Standard Time)","Sun Nov 01 2020 09:17:21 GMT-0700 (Mountain Standard Time)","Mozilla/5.0 (Windows NT 6.1; Win64; x64) AppleWebKit/537.36 (KHTML, like Gecko) Chrome/86.0.4240.111 Safari/537.36",15,"[0.9, 0.5, 0.1]","[0.8, 0.4, 0.2]","[u'black', u'red', u'blue']","[u'left', u'middle', u'right']","[0.9, 0.5, 0.1]","[u'medium', u'low', u'high']","blue",51,"right","high","True","False",383,1200,NA
"A2BCNRHZU9V7C4","Sun Nov 01 2020 09:07:24 GMT-0700 (Mountain Standard Time)","Sun Nov 01 2020 09:17:21 GMT-0700 (Mountain Standard Time)","Mozilla/5.0 (Windows NT 6.1; Win64; x64) AppleWebKit/537.36 (KHTML, like Gecko) Chrome/86.0.4240.111 Safari/537.36",16,"[0.9, 0.5, 0.1]","[0.8, 0.4, 0.2]","[u'black', u'red', u'blue']","[u'left', u'middle', u'right']","[0.9, 0.5, 0.1]","[u'medium', u'low', u'high']","blue",51,"right","high","True","False",350,1300,NA
"A2BCNRHZU9V7C4","Sun Nov 01 2020 09:07:24 GMT-0700 (Mountain Standard Time)","Sun Nov 01 2020 09:17:21 GMT-0700 (Mountain Standard Time)","Mozilla/5.0 (Windows NT 6.1; Win64; x64) AppleWebKit/537.36 (KHTML, like Gecko) Chrome/86.0.4240.111 Safari/537.36",17,"[0.9, 0.5, 0.1]","[0.8, 0.4, 0.2]","[u'black', u'red', u'blue']","[u'left', u'middle', u'right']","[0.9, 0.5, 0.1]","[u'medium', u'low', u'high']","blue",51,"right","high","True","False",343,1400,NA
"A2BCNRHZU9V7C4","Sun Nov 01 2020 09:07:24 GMT-0700 (Mountain Standard Time)","Sun Nov 01 2020 09:17:21 GMT-0700 (Mountain Standard Time)","Mozilla/5.0 (Windows NT 6.1; Win64; x64) AppleWebKit/537.36 (KHTML, like Gecko) Chrome/86.0.4240.111 Safari/537.36",18,"[0.9, 0.5, 0.1]","[0.8, 0.4, 0.2]","[u'black', u'red', u'blue']","[u'left', u'middle', u'right']","[0.9, 0.5, 0.1]","[u'medium', u'low', u'high']","blue",51,"right","high","True","False",344,1500,NA
"A2BCNRHZU9V7C4","Sun Nov 01 2020 09:07:24 GMT-0700 (Mountain Standard Time)","Sun Nov 01 2020 09:17:21 GMT-0700 (Mountain Standard Time)","Mozilla/5.0 (Windows NT 6.1; Win64; x64) AppleWebKit/537.36 (KHTML, like Gecko) Chrome/86.0.4240.111 Safari/537.36",19,"[0.9, 0.5, 0.1]","[0.8, 0.4, 0.2]","[u'black', u'red', u'blue']","[u'left', u'middle', u'right']","[0.9, 0.5, 0.1]","[u'medium', u'low', u'high']","blue",51,"right","high","True","False",334,1600,NA
"A2BCNRHZU9V7C4","Sun Nov 01 2020 09:07:24 GMT-0700 (Mountain Standard Time)","Sun Nov 01 2020 09:17:21 GMT-0700 (Mountain Standard Time)","Mozilla/5.0 (Windows NT 6.1; Win64; x64) AppleWebKit/537.36 (KHTML, like Gecko) Chrome/86.0.4240.111 Safari/537.36",20,"[0.9, 0.5, 0.1]","[0.8, 0.4, 0.2]","[u'black', u'red', u'blue']","[u'left', u'middle', u'right']","[0.9, 0.5, 0.1]","[u'medium', u'low', u'high']","blue",51,"right","high","True","True",416,1700,NA
"A2BCNRHZU9V7C4","Sun Nov 01 2020 09:07:24 GMT-0700 (Mountain Standard Time)","Sun Nov 01 2020 09:17:21 GMT-0700 (Mountain Standard Time)","Mozilla/5.0 (Windows NT 6.1; Win64; x64) AppleWebKit/537.36 (KHTML, like Gecko) Chrome/86.0.4240.111 Safari/537.36",21,"[0.9, 0.5, 0.1]","[0.8, 0.4, 0.2]","[u'black', u'red', u'blue']","[u'left', u'middle', u'right']","[0.9, 0.5, 0.1]","[u'high', u'low', u'medium']","blue",51,"right","medium","True","False",350,1800,NA
"A2BCNRHZU9V7C4","Sun Nov 01 2020 09:07:24 GMT-0700 (Mountain Standard Time)","Sun Nov 01 2020 09:17:21 GMT-0700 (Mountain Standard Time)","Mozilla/5.0 (Windows NT 6.1; Win64; x64) AppleWebKit/537.36 (KHTML, like Gecko) Chrome/86.0.4240.111 Safari/537.36",22,"[0.9, 0.5, 0.1]","[0.8, 0.4, 0.2]","[u'black', u'red', u'blue']","[u'left', u'middle', u'right']","[0.9, 0.5, 0.1]","[u'high', u'low', u'medium']","blue",51,"right","medium","True","False",287,1900,NA
"A2BCNRHZU9V7C4","Sun Nov 01 2020 09:07:24 GMT-0700 (Mountain Standard Time)","Sun Nov 01 2020 09:17:21 GMT-0700 (Mountain Standard Time)","Mozilla/5.0 (Windows NT 6.1; Win64; x64) AppleWebKit/537.36 (KHTML, like Gecko) Chrome/86.0.4240.111 Safari/537.36",23,"[0.9, 0.5, 0.1]","[0.8, 0.4, 0.2]","[u'black', u'red', u'blue']","[u'left', u'middle', u'right']","[0.9, 0.5, 0.1]","[u'high', u'low', u'medium']","blue",51,"right","medium","False","False",335,1850,NA
"A2BCNRHZU9V7C4","Sun Nov 01 2020 09:07:24 GMT-0700 (Mountain Standard Time)","Sun Nov 01 2020 09:17:21 GMT-0700 (Mountain Standard Time)","Mozilla/5.0 (Windows NT 6.1; Win64; x64) AppleWebKit/537.36 (KHTML, like Gecko) Chrome/86.0.4240.111 Safari/537.36",24,"[0.9, 0.5, 0.1]","[0.8, 0.4, 0.2]","[u'black', u'red', u'blue']","[u'left', u'middle', u'right']","[0.9, 0.5, 0.1]","[u'high', u'low', u'medium']","red",50,"middle","low","False","False",63,1800,NA
"A2BCNRHZU9V7C4","Sun Nov 01 2020 09:07:24 GMT-0700 (Mountain Standard Time)","Sun Nov 01 2020 09:17:21 GMT-0700 (Mountain Standard Time)","Mozilla/5.0 (Windows NT 6.1; Win64; x64) AppleWebKit/537.36 (KHTML, like Gecko) Chrome/86.0.4240.111 Safari/537.36",25,"[0.9, 0.5, 0.1]","[0.8, 0.4, 0.2]","[u'black', u'red', u'blue']","[u'left', u'middle', u'right']","[0.9, 0.5, 0.1]","[u'high', u'low', u'medium']","black",49,"left","high","True","False",1546,1900,NA
"A2BCNRHZU9V7C4","Sun Nov 01 2020 09:07:24 GMT-0700 (Mountain Standard Time)","Sun Nov 01 2020 09:17:21 GMT-0700 (Mountain Standard Time)","Mozilla/5.0 (Windows NT 6.1; Win64; x64) AppleWebKit/537.36 (KHTML, like Gecko) Chrome/86.0.4240.111 Safari/537.36",26,"[0.9, 0.5, 0.1]","[0.8, 0.4, 0.2]","[u'black', u'red', u'blue']","[u'left', u'middle', u'right']","[0.9, 0.5, 0.1]","[u'high', u'low', u'medium']","black",49,"left","high","True","False",367,2000,NA
"A2BCNRHZU9V7C4","Sun Nov 01 2020 09:07:24 GMT-0700 (Mountain Standard Time)","Sun Nov 01 2020 09:17:21 GMT-0700 (Mountain Standard Time)","Mozilla/5.0 (Windows NT 6.1; Win64; x64) AppleWebKit/537.36 (KHTML, like Gecko) Chrome/86.0.4240.111 Safari/537.36",27,"[0.9, 0.5, 0.1]","[0.8, 0.4, 0.2]","[u'black', u'red', u'blue']","[u'left', u'middle', u'right']","[0.9, 0.5, 0.1]","[u'high', u'low', u'medium']","black",49,"left","high","True","False",391,2100,NA
"A2BCNRHZU9V7C4","Sun Nov 01 2020 09:07:24 GMT-0700 (Mountain Standard Time)","Sun Nov 01 2020 09:17:21 GMT-0700 (Mountain Standard Time)","Mozilla/5.0 (Windows NT 6.1; Win64; x64) AppleWebKit/537.36 (KHTML, like Gecko) Chrome/86.0.4240.111 Safari/537.36",28,"[0.9, 0.5, 0.1]","[0.8, 0.4, 0.2]","[u'black', u'red', u'blue']","[u'left', u'middle', u'right']","[0.9, 0.5, 0.1]","[u'high', u'low', u'medium']","black",49,"left","high","True","False",424,2200,NA
"A2BCNRHZU9V7C4","Sun Nov 01 2020 09:07:24 GMT-0700 (Mountain Standard Time)","Sun Nov 01 2020 09:17:21 GMT-0700 (Mountain Standard Time)","Mozilla/5.0 (Windows NT 6.1; Win64; x64) AppleWebKit/537.36 (KHTML, like Gecko) Chrome/86.0.4240.111 Safari/537.36",29,"[0.9, 0.5, 0.1]","[0.8, 0.4, 0.2]","[u'black', u'red', u'blue']","[u'left', u'middle', u'right']","[0.9, 0.5, 0.1]","[u'high', u'low', u'medium']","black",49,"left","high","False","False",431,2150,NA
"A2BCNRHZU9V7C4","Sun Nov 01 2020 09:07:24 GMT-0700 (Mountain Standard Time)","Sun Nov 01 2020 09:17:21 GMT-0700 (Mountain Standard Time)","Mozilla/5.0 (Windows NT 6.1; Win64; x64) AppleWebKit/537.36 (KHTML, like Gecko) Chrome/86.0.4240.111 Safari/537.36",30,"[0.9, 0.5, 0.1]","[0.8, 0.4, 0.2]","[u'black', u'red', u'blue']","[u'left', u'middle', u'right']","[0.9, 0.5, 0.1]","[u'high', u'low', u'medium']","red",50,"middle","low","True","False",375,2250,NA
"A2BCNRHZU9V7C4","Sun Nov 01 2020 09:07:24 GMT-0700 (Mountain Standard Time)","Sun Nov 01 2020 09:17:21 GMT-0700 (Mountain Standard Time)","Mozilla/5.0 (Windows NT 6.1; Win64; x64) AppleWebKit/537.36 (KHTML, like Gecko) Chrome/86.0.4240.111 Safari/537.36",31,"[0.9, 0.5, 0.1]","[0.8, 0.4, 0.2]","[u'black', u'red', u'blue']","[u'left', u'middle', u'right']","[0.9, 0.5, 0.1]","[u'high', u'low', u'medium']","red",50,"middle","low","False","False",335,2200,NA
"A2BCNRHZU9V7C4","Sun Nov 01 2020 09:07:24 GMT-0700 (Mountain Standard Time)","Sun Nov 01 2020 09:17:21 GMT-0700 (Mountain Standard Time)","Mozilla/5.0 (Windows NT 6.1; Win64; x64) AppleWebKit/537.36 (KHTML, like Gecko) Chrome/86.0.4240.111 Safari/537.36",32,"[0.9, 0.5, 0.1]","[0.8, 0.4, 0.2]","[u'black', u'red', u'blue']","[u'left', u'middle', u'right']","[0.9, 0.5, 0.1]","[u'high', u'low', u'medium']","blue",51,"right","medium","True","False",88,2300,NA
"A2BCNRHZU9V7C4","Sun Nov 01 2020 09:07:24 GMT-0700 (Mountain Standard Time)","Sun Nov 01 2020 09:17:21 GMT-0700 (Mountain Standard Time)","Mozilla/5.0 (Windows NT 6.1; Win64; x64) AppleWebKit/537.36 (KHTML, like Gecko) Chrome/86.0.4240.111 Safari/537.36",33,"[0.9, 0.5, 0.1]","[0.8, 0.4, 0.2]","[u'black', u'red', u'blue']","[u'left', u'middle', u'right']","[0.9, 0.5, 0.1]","[u'high', u'low', u'medium']","blue",51,"right","medium","False","False",303,2250,NA
"A2BCNRHZU9V7C4","Sun Nov 01 2020 09:07:24 GMT-0700 (Mountain Standard Time)","Sun Nov 01 2020 09:17:21 GMT-0700 (Mountain Standard Time)","Mozilla/5.0 (Windows NT 6.1; Win64; x64) AppleWebKit/537.36 (KHTML, like Gecko) Chrome/86.0.4240.111 Safari/537.36",34,"[0.9, 0.5, 0.1]","[0.8, 0.4, 0.2]","[u'black', u'red', u'blue']","[u'left', u'middle', u'right']","[0.9, 0.5, 0.1]","[u'high', u'low', u'medium']","black",49,"left","high","True","False",286,2350,NA
"A2BCNRHZU9V7C4","Sun Nov 01 2020 09:07:24 GMT-0700 (Mountain Standard Time)","Sun Nov 01 2020 09:17:21 GMT-0700 (Mountain Standard Time)","Mozilla/5.0 (Windows NT 6.1; Win64; x64) AppleWebKit/537.36 (KHTML, like Gecko) Chrome/86.0.4240.111 Safari/537.36",35,"[0.9, 0.5, 0.1]","[0.8, 0.4, 0.2]","[u'black', u'red', u'blue']","[u'left', u'middle', u'right']","[0.9, 0.5, 0.1]","[u'high', u'low', u'medium']","black",49,"left","high","True","False",312,2450,NA
"A2BCNRHZU9V7C4","Sun Nov 01 2020 09:07:24 GMT-0700 (Mountain Standard Time)","Sun Nov 01 2020 09:17:21 GMT-0700 (Mountain Standard Time)","Mozilla/5.0 (Windows NT 6.1; Win64; x64) AppleWebKit/537.36 (KHTML, like Gecko) Chrome/86.0.4240.111 Safari/537.36",36,"[0.9, 0.5, 0.1]","[0.8, 0.4, 0.2]","[u'black', u'red', u'blue']","[u'left', u'middle', u'right']","[0.9, 0.5, 0.1]","[u'high', u'low', u'medium']","black",49,"left","high","True","False",335,2550,NA
"A2BCNRHZU9V7C4","Sun Nov 01 2020 09:07:24 GMT-0700 (Mountain Standard Time)","Sun Nov 01 2020 09:17:21 GMT-0700 (Mountain Standard Time)","Mozilla/5.0 (Windows NT 6.1; Win64; x64) AppleWebKit/537.36 (KHTML, like Gecko) Chrome/86.0.4240.111 Safari/537.36",37,"[0.9, 0.5, 0.1]","[0.8, 0.4, 0.2]","[u'black', u'red', u'blue']","[u'left', u'middle', u'right']","[0.9, 0.5, 0.1]","[u'high', u'low', u'medium']","black",49,"left","high","True","False",415,2650,NA
"A2BCNRHZU9V7C4","Sun Nov 01 2020 09:07:24 GMT-0700 (Mountain Standard Time)","Sun Nov 01 2020 09:17:21 GMT-0700 (Mountain Standard Time)","Mozilla/5.0 (Windows NT 6.1; Win64; x64) AppleWebKit/537.36 (KHTML, like Gecko) Chrome/86.0.4240.111 Safari/537.36",38,"[0.9, 0.5, 0.1]","[0.8, 0.4, 0.2]","[u'black', u'red', u'blue']","[u'left', u'middle', u'right']","[0.9, 0.5, 0.1]","[u'high', u'low', u'medium']","black",49,"left","high","True","False",415,2750,NA
"A2BCNRHZU9V7C4","Sun Nov 01 2020 09:07:24 GMT-0700 (Mountain Standard Time)","Sun Nov 01 2020 09:17:21 GMT-0700 (Mountain Standard Time)","Mozilla/5.0 (Windows NT 6.1; Win64; x64) AppleWebKit/537.36 (KHTML, like Gecko) Chrome/86.0.4240.111 Safari/537.36",39,"[0.9, 0.5, 0.1]","[0.8, 0.4, 0.2]","[u'black', u'red', u'blue']","[u'left', u'middle', u'right']","[0.9, 0.5, 0.1]","[u'high', u'low', u'medium']","black",49,"left","high","True","False",464,2850,NA
"A2BCNRHZU9V7C4","Sun Nov 01 2020 09:07:24 GMT-0700 (Mountain Standard Time)","Sun Nov 01 2020 09:17:21 GMT-0700 (Mountain Standard Time)","Mozilla/5.0 (Windows NT 6.1; Win64; x64) AppleWebKit/537.36 (KHTML, like Gecko) Chrome/86.0.4240.111 Safari/537.36",40,"[0.9, 0.5, 0.1]","[0.8, 0.4, 0.2]","[u'black', u'red', u'blue']","[u'left', u'middle', u'right']","[0.9, 0.5, 0.1]","[u'high', u'low', u'medium']","black",49,"left","high","True","False",326,2950,NA
"A2BCNRHZU9V7C4","Sun Nov 01 2020 09:07:24 GMT-0700 (Mountain Standard Time)","Sun Nov 01 2020 09:17:21 GMT-0700 (Mountain Standard Time)","Mozilla/5.0 (Windows NT 6.1; Win64; x64) AppleWebKit/537.36 (KHTML, like Gecko) Chrome/86.0.4240.111 Safari/537.36",41,"[0.9, 0.5, 0.1]","[0.8, 0.4, 0.2]","[u'black', u'red', u'blue']","[u'left', u'middle', u'right']","[0.9, 0.5, 0.1]","[u'low', u'medium', u'high']","black",49,"left","low","False","False",420,2900,NA
"A2BCNRHZU9V7C4","Sun Nov 01 2020 09:07:24 GMT-0700 (Mountain Standard Time)","Sun Nov 01 2020 09:17:21 GMT-0700 (Mountain Standard Time)","Mozilla/5.0 (Windows NT 6.1; Win64; x64) AppleWebKit/537.36 (KHTML, like Gecko) Chrome/86.0.4240.111 Safari/537.36",42,"[0.9, 0.5, 0.1]","[0.8, 0.4, 0.2]","[u'black', u'red', u'blue']","[u'left', u'middle', u'right']","[0.9, 0.5, 0.1]","[u'low', u'medium', u'high']","red",50,"middle","medium","True","False",797,3000,NA
"A2BCNRHZU9V7C4","Sun Nov 01 2020 09:07:24 GMT-0700 (Mountain Standard Time)","Sun Nov 01 2020 09:17:21 GMT-0700 (Mountain Standard Time)","Mozilla/5.0 (Windows NT 6.1; Win64; x64) AppleWebKit/537.36 (KHTML, like Gecko) Chrome/86.0.4240.111 Safari/537.36",43,"[0.9, 0.5, 0.1]","[0.8, 0.4, 0.2]","[u'black', u'red', u'blue']","[u'left', u'middle', u'right']","[0.9, 0.5, 0.1]","[u'low', u'medium', u'high']","red",50,"middle","medium","False","False",351,2950,NA
"A2BCNRHZU9V7C4","Sun Nov 01 2020 09:07:24 GMT-0700 (Mountain Standard Time)","Sun Nov 01 2020 09:17:21 GMT-0700 (Mountain Standard Time)","Mozilla/5.0 (Windows NT 6.1; Win64; x64) AppleWebKit/537.36 (KHTML, like Gecko) Chrome/86.0.4240.111 Safari/537.36",44,"[0.9, 0.5, 0.1]","[0.8, 0.4, 0.2]","[u'black', u'red', u'blue']","[u'left', u'middle', u'right']","[0.9, 0.5, 0.1]","[u'low', u'medium', u'high']","black",49,"left","low","False","False",486,2900,NA
"A2BCNRHZU9V7C4","Sun Nov 01 2020 09:07:24 GMT-0700 (Mountain Standard Time)","Sun Nov 01 2020 09:17:21 GMT-0700 (Mountain Standard Time)","Mozilla/5.0 (Windows NT 6.1; Win64; x64) AppleWebKit/537.36 (KHTML, like Gecko) Chrome/86.0.4240.111 Safari/537.36",45,"[0.9, 0.5, 0.1]","[0.8, 0.4, 0.2]","[u'black', u'red', u'blue']","[u'left', u'middle', u'right']","[0.9, 0.5, 0.1]","[u'low', u'medium', u'high']","blue",51,"right","high","True","False",344,3000,NA
"A2BCNRHZU9V7C4","Sun Nov 01 2020 09:07:24 GMT-0700 (Mountain Standard Time)","Sun Nov 01 2020 09:17:21 GMT-0700 (Mountain Standard Time)","Mozilla/5.0 (Windows NT 6.1; Win64; x64) AppleWebKit/537.36 (KHTML, like Gecko) Chrome/86.0.4240.111 Safari/537.36",46,"[0.9, 0.5, 0.1]","[0.8, 0.4, 0.2]","[u'black', u'red', u'blue']","[u'left', u'middle', u'right']","[0.9, 0.5, 0.1]","[u'low', u'medium', u'high']","blue",51,"right","high","True","False",360,3100,NA
"A2BCNRHZU9V7C4","Sun Nov 01 2020 09:07:24 GMT-0700 (Mountain Standard Time)","Sun Nov 01 2020 09:17:21 GMT-0700 (Mountain Standard Time)","Mozilla/5.0 (Windows NT 6.1; Win64; x64) AppleWebKit/537.36 (KHTML, like Gecko) Chrome/86.0.4240.111 Safari/537.36",47,"[0.9, 0.5, 0.1]","[0.8, 0.4, 0.2]","[u'black', u'red', u'blue']","[u'left', u'middle', u'right']","[0.9, 0.5, 0.1]","[u'low', u'medium', u'high']","blue",51,"right","high","True","False",318,3200,NA
"A2BCNRHZU9V7C4","Sun Nov 01 2020 09:07:24 GMT-0700 (Mountain Standard Time)","Sun Nov 01 2020 09:17:21 GMT-0700 (Mountain Standard Time)","Mozilla/5.0 (Windows NT 6.1; Win64; x64) AppleWebKit/537.36 (KHTML, like Gecko) Chrome/86.0.4240.111 Safari/537.36",48,"[0.9, 0.5, 0.1]","[0.8, 0.4, 0.2]","[u'black', u'red', u'blue']","[u'left', u'middle', u'right']","[0.9, 0.5, 0.1]","[u'low', u'medium', u'high']","blue",51,"right","high","True","False",350,3300,NA
"A2BCNRHZU9V7C4","Sun Nov 01 2020 09:07:24 GMT-0700 (Mountain Standard Time)","Sun Nov 01 2020 09:17:21 GMT-0700 (Mountain Standard Time)","Mozilla/5.0 (Windows NT 6.1; Win64; x64) AppleWebKit/537.36 (KHTML, like Gecko) Chrome/86.0.4240.111 Safari/537.36",49,"[0.9, 0.5, 0.1]","[0.8, 0.4, 0.2]","[u'black', u'red', u'blue']","[u'left', u'middle', u'right']","[0.9, 0.5, 0.1]","[u'low', u'medium', u'high']","blue",51,"right","high","True","False",376,3400,NA
"A2BCNRHZU9V7C4","Sun Nov 01 2020 09:07:24 GMT-0700 (Mountain Standard Time)","Sun Nov 01 2020 09:17:21 GMT-0700 (Mountain Standard Time)","Mozilla/5.0 (Windows NT 6.1; Win64; x64) AppleWebKit/537.36 (KHTML, like Gecko) Chrome/86.0.4240.111 Safari/537.36",50,"[0.9, 0.5, 0.1]","[0.8, 0.4, 0.2]","[u'black', u'red', u'blue']","[u'left', u'middle', u'right']","[0.9, 0.5, 0.1]","[u'low', u'medium', u'high']","blue",51,"right","high","True","False",344,3500,NA
"A2BCNRHZU9V7C4","Sun Nov 01 2020 09:07:24 GMT-0700 (Mountain Standard Time)","Sun Nov 01 2020 09:17:21 GMT-0700 (Mountain Standard Time)","Mozilla/5.0 (Windows NT 6.1; Win64; x64) AppleWebKit/537.36 (KHTML, like Gecko) Chrome/86.0.4240.111 Safari/537.36",51,"[0.9, 0.5, 0.1]","[0.8, 0.4, 0.2]","[u'black', u'red', u'blue']","[u'left', u'middle', u'right']","[0.9, 0.5, 0.1]","[u'low', u'medium', u'high']","blue",51,"right","high","True","False",287,3600,NA
"A2BCNRHZU9V7C4","Sun Nov 01 2020 09:07:24 GMT-0700 (Mountain Standard Time)","Sun Nov 01 2020 09:17:21 GMT-0700 (Mountain Standard Time)","Mozilla/5.0 (Windows NT 6.1; Win64; x64) AppleWebKit/537.36 (KHTML, like Gecko) Chrome/86.0.4240.111 Safari/537.36",52,"[0.9, 0.5, 0.1]","[0.8, 0.4, 0.2]","[u'black', u'red', u'blue']","[u'left', u'middle', u'right']","[0.9, 0.5, 0.1]","[u'low', u'medium', u'high']","blue",51,"right","high","True","False",368,3700,NA
"A2BCNRHZU9V7C4","Sun Nov 01 2020 09:07:24 GMT-0700 (Mountain Standard Time)","Sun Nov 01 2020 09:17:21 GMT-0700 (Mountain Standard Time)","Mozilla/5.0 (Windows NT 6.1; Win64; x64) AppleWebKit/537.36 (KHTML, like Gecko) Chrome/86.0.4240.111 Safari/537.36",53,"[0.9, 0.5, 0.1]","[0.8, 0.4, 0.2]","[u'black', u'red', u'blue']","[u'left', u'middle', u'right']","[0.9, 0.5, 0.1]","[u'low', u'medium', u'high']","blue",51,"right","high","True","True",279,3800,NA
"A2BCNRHZU9V7C4","Sun Nov 01 2020 09:07:24 GMT-0700 (Mountain Standard Time)","Sun Nov 01 2020 09:17:21 GMT-0700 (Mountain Standard Time)","Mozilla/5.0 (Windows NT 6.1; Win64; x64) AppleWebKit/537.36 (KHTML, like Gecko) Chrome/86.0.4240.111 Safari/537.36",54,"[0.9, 0.5, 0.1]","[0.8, 0.4, 0.2]","[u'black', u'red', u'blue']","[u'left', u'middle', u'right']","[0.9, 0.5, 0.1]","[u'low', u'high', u'medium']","blue",51,"right","medium","False","False",319,3750,NA
"A2BCNRHZU9V7C4","Sun Nov 01 2020 09:07:24 GMT-0700 (Mountain Standard Time)","Sun Nov 01 2020 09:17:21 GMT-0700 (Mountain Standard Time)","Mozilla/5.0 (Windows NT 6.1; Win64; x64) AppleWebKit/537.36 (KHTML, like Gecko) Chrome/86.0.4240.111 Safari/537.36",55,"[0.9, 0.5, 0.1]","[0.8, 0.4, 0.2]","[u'black', u'red', u'blue']","[u'left', u'middle', u'right']","[0.9, 0.5, 0.1]","[u'low', u'high', u'medium']","red",50,"middle","high","True","False",471,3850,NA
"A2BCNRHZU9V7C4","Sun Nov 01 2020 09:07:24 GMT-0700 (Mountain Standard Time)","Sun Nov 01 2020 09:17:21 GMT-0700 (Mountain Standard Time)","Mozilla/5.0 (Windows NT 6.1; Win64; x64) AppleWebKit/537.36 (KHTML, like Gecko) Chrome/86.0.4240.111 Safari/537.36",56,"[0.9, 0.5, 0.1]","[0.8, 0.4, 0.2]","[u'black', u'red', u'blue']","[u'left', u'middle', u'right']","[0.9, 0.5, 0.1]","[u'low', u'high', u'medium']","red",50,"middle","high","True","False",375,3950,NA
"A2BCNRHZU9V7C4","Sun Nov 01 2020 09:07:24 GMT-0700 (Mountain Standard Time)","Sun Nov 01 2020 09:17:21 GMT-0700 (Mountain Standard Time)","Mozilla/5.0 (Windows NT 6.1; Win64; x64) AppleWebKit/537.36 (KHTML, like Gecko) Chrome/86.0.4240.111 Safari/537.36",57,"[0.9, 0.5, 0.1]","[0.8, 0.4, 0.2]","[u'black', u'red', u'blue']","[u'left', u'middle', u'right']","[0.9, 0.5, 0.1]","[u'low', u'high', u'medium']","red",50,"middle","high","True","False",287,4050,NA
"A2BCNRHZU9V7C4","Sun Nov 01 2020 09:07:24 GMT-0700 (Mountain Standard Time)","Sun Nov 01 2020 09:17:21 GMT-0700 (Mountain Standard Time)","Mozilla/5.0 (Windows NT 6.1; Win64; x64) AppleWebKit/537.36 (KHTML, like Gecko) Chrome/86.0.4240.111 Safari/537.36",58,"[0.9, 0.5, 0.1]","[0.8, 0.4, 0.2]","[u'black', u'red', u'blue']","[u'left', u'middle', u'right']","[0.9, 0.5, 0.1]","[u'low', u'high', u'medium']","red",50,"middle","high","True","False",391,4150,NA
"A2BCNRHZU9V7C4","Sun Nov 01 2020 09:07:24 GMT-0700 (Mountain Standard Time)","Sun Nov 01 2020 09:17:21 GMT-0700 (Mountain Standard Time)","Mozilla/5.0 (Windows NT 6.1; Win64; x64) AppleWebKit/537.36 (KHTML, like Gecko) Chrome/86.0.4240.111 Safari/537.36",59,"[0.9, 0.5, 0.1]","[0.8, 0.4, 0.2]","[u'black', u'red', u'blue']","[u'left', u'middle', u'right']","[0.9, 0.5, 0.1]","[u'low', u'high', u'medium']","red",50,"middle","high","True","False",310,4250,NA
"A2BCNRHZU9V7C4","Sun Nov 01 2020 09:07:24 GMT-0700 (Mountain Standard Time)","Sun Nov 01 2020 09:17:21 GMT-0700 (Mountain Standard Time)","Mozilla/5.0 (Windows NT 6.1; Win64; x64) AppleWebKit/537.36 (KHTML, like Gecko) Chrome/86.0.4240.111 Safari/537.36",60,"[0.9, 0.5, 0.1]","[0.8, 0.4, 0.2]","[u'black', u'red', u'blue']","[u'left', u'middle', u'right']","[0.9, 0.5, 0.1]","[u'low', u'high', u'medium']","red",50,"middle","high","True","False",324,4350,NA
"A2BCNRHZU9V7C4","Sun Nov 01 2020 09:07:24 GMT-0700 (Mountain Standard Time)","Sun Nov 01 2020 09:17:21 GMT-0700 (Mountain Standard Time)","Mozilla/5.0 (Windows NT 6.1; Win64; x64) AppleWebKit/537.36 (KHTML, like Gecko) Chrome/86.0.4240.111 Safari/537.36",61,"[0.9, 0.5, 0.1]","[0.8, 0.4, 0.2]","[u'black', u'red', u'blue']","[u'left', u'middle', u'right']","[0.9, 0.5, 0.1]","[u'low', u'high', u'medium']","red",50,"middle","high","True","False",279,4450,NA
"A2BCNRHZU9V7C4","Sun Nov 01 2020 09:07:24 GMT-0700 (Mountain Standard Time)","Sun Nov 01 2020 09:17:21 GMT-0700 (Mountain Standard Time)","Mozilla/5.0 (Windows NT 6.1; Win64; x64) AppleWebKit/537.36 (KHTML, like Gecko) Chrome/86.0.4240.111 Safari/537.36",62,"[0.9, 0.5, 0.1]","[0.8, 0.4, 0.2]","[u'black', u'red', u'blue']","[u'left', u'middle', u'right']","[0.9, 0.5, 0.1]","[u'low', u'high', u'medium']","red",50,"middle","high","True","False",214,4550,NA
"A2BCNRHZU9V7C4","Sun Nov 01 2020 09:07:24 GMT-0700 (Mountain Standard Time)","Sun Nov 01 2020 09:17:21 GMT-0700 (Mountain Standard Time)","Mozilla/5.0 (Windows NT 6.1; Win64; x64) AppleWebKit/537.36 (KHTML, like Gecko) Chrome/86.0.4240.111 Safari/537.36",63,"[0.9, 0.5, 0.1]","[0.8, 0.4, 0.2]","[u'black', u'red', u'blue']","[u'left', u'middle', u'right']","[0.9, 0.5, 0.1]","[u'low', u'high', u'medium']","red",50,"middle","high","True","True",407,4650,NA
"A2BCNRHZU9V7C4","Sun Nov 01 2020 09:07:24 GMT-0700 (Mountain Standard Time)","Sun Nov 01 2020 09:17:21 GMT-0700 (Mountain Standard Time)","Mozilla/5.0 (Windows NT 6.1; Win64; x64) AppleWebKit/537.36 (KHTML, like Gecko) Chrome/86.0.4240.111 Safari/537.36",64,"[0.9, 0.5, 0.1]","[0.8, 0.4, 0.2]","[u'black', u'red', u'blue']","[u'left', u'middle', u'right']","[0.9, 0.5, 0.1]","[u'medium', u'low', u'high']","red",50,"middle","low","False","False",310,4600,NA
"A2BCNRHZU9V7C4","Sun Nov 01 2020 09:07:24 GMT-0700 (Mountain Standard Time)","Sun Nov 01 2020 09:17:21 GMT-0700 (Mountain Standard Time)","Mozilla/5.0 (Windows NT 6.1; Win64; x64) AppleWebKit/537.36 (KHTML, like Gecko) Chrome/86.0.4240.111 Safari/537.36",65,"[0.9, 0.5, 0.1]","[0.8, 0.4, 0.2]","[u'black', u'red', u'blue']","[u'left', u'middle', u'right']","[0.9, 0.5, 0.1]","[u'medium', u'low', u'high']","black",49,"left","medium","True","False",30,4700,NA
"A2BCNRHZU9V7C4","Sun Nov 01 2020 09:07:24 GMT-0700 (Mountain Standard Time)","Sun Nov 01 2020 09:17:21 GMT-0700 (Mountain Standard Time)","Mozilla/5.0 (Windows NT 6.1; Win64; x64) AppleWebKit/537.36 (KHTML, like Gecko) Chrome/86.0.4240.111 Safari/537.36",66,"[0.9, 0.5, 0.1]","[0.8, 0.4, 0.2]","[u'black', u'red', u'blue']","[u'left', u'middle', u'right']","[0.9, 0.5, 0.1]","[u'medium', u'low', u'high']","black",49,"left","medium","False","False",15,4650,NA
"A2BCNRHZU9V7C4","Sun Nov 01 2020 09:07:24 GMT-0700 (Mountain Standard Time)","Sun Nov 01 2020 09:17:21 GMT-0700 (Mountain Standard Time)","Mozilla/5.0 (Windows NT 6.1; Win64; x64) AppleWebKit/537.36 (KHTML, like Gecko) Chrome/86.0.4240.111 Safari/537.36",67,"[0.9, 0.5, 0.1]","[0.8, 0.4, 0.2]","[u'black', u'red', u'blue']","[u'left', u'middle', u'right']","[0.9, 0.5, 0.1]","[u'medium', u'low', u'high']","red",50,"middle","low","False","False",287,4600,NA
"A2BCNRHZU9V7C4","Sun Nov 01 2020 09:07:24 GMT-0700 (Mountain Standard Time)","Sun Nov 01 2020 09:17:21 GMT-0700 (Mountain Standard Time)","Mozilla/5.0 (Windows NT 6.1; Win64; x64) AppleWebKit/537.36 (KHTML, like Gecko) Chrome/86.0.4240.111 Safari/537.36",68,"[0.9, 0.5, 0.1]","[0.8, 0.4, 0.2]","[u'black', u'red', u'blue']","[u'left', u'middle', u'right']","[0.9, 0.5, 0.1]","[u'medium', u'low', u'high']","blue",51,"right","high","True","False",1003,4700,NA
"A2BCNRHZU9V7C4","Sun Nov 01 2020 09:07:24 GMT-0700 (Mountain Standard Time)","Sun Nov 01 2020 09:17:21 GMT-0700 (Mountain Standard Time)","Mozilla/5.0 (Windows NT 6.1; Win64; x64) AppleWebKit/537.36 (KHTML, like Gecko) Chrome/86.0.4240.111 Safari/537.36",69,"[0.9, 0.5, 0.1]","[0.8, 0.4, 0.2]","[u'black', u'red', u'blue']","[u'left', u'middle', u'right']","[0.9, 0.5, 0.1]","[u'medium', u'low', u'high']","blue",51,"right","high","True","False",295,4800,NA
"A2BCNRHZU9V7C4","Sun Nov 01 2020 09:07:24 GMT-0700 (Mountain Standard Time)","Sun Nov 01 2020 09:17:21 GMT-0700 (Mountain Standard Time)","Mozilla/5.0 (Windows NT 6.1; Win64; x64) AppleWebKit/537.36 (KHTML, like Gecko) Chrome/86.0.4240.111 Safari/537.36",70,"[0.9, 0.5, 0.1]","[0.8, 0.4, 0.2]","[u'black', u'red', u'blue']","[u'left', u'middle', u'right']","[0.9, 0.5, 0.1]","[u'medium', u'low', u'high']","blue",51,"right","high","True","False",303,4900,NA
"A2BCNRHZU9V7C4","Sun Nov 01 2020 09:07:24 GMT-0700 (Mountain Standard Time)","Sun Nov 01 2020 09:17:21 GMT-0700 (Mountain Standard Time)","Mozilla/5.0 (Windows NT 6.1; Win64; x64) AppleWebKit/537.36 (KHTML, like Gecko) Chrome/86.0.4240.111 Safari/537.36",71,"[0.9, 0.5, 0.1]","[0.8, 0.4, 0.2]","[u'black', u'red', u'blue']","[u'left', u'middle', u'right']","[0.9, 0.5, 0.1]","[u'medium', u'low', u'high']","blue",51,"right","high","True","False",318,5000,NA
"A2BCNRHZU9V7C4","Sun Nov 01 2020 09:07:24 GMT-0700 (Mountain Standard Time)","Sun Nov 01 2020 09:17:21 GMT-0700 (Mountain Standard Time)","Mozilla/5.0 (Windows NT 6.1; Win64; x64) AppleWebKit/537.36 (KHTML, like Gecko) Chrome/86.0.4240.111 Safari/537.36",72,"[0.9, 0.5, 0.1]","[0.8, 0.4, 0.2]","[u'black', u'red', u'blue']","[u'left', u'middle', u'right']","[0.9, 0.5, 0.1]","[u'medium', u'low', u'high']","blue",51,"right","high","True","False",375,5100,NA
"A2BCNRHZU9V7C4","Sun Nov 01 2020 09:07:24 GMT-0700 (Mountain Standard Time)","Sun Nov 01 2020 09:17:21 GMT-0700 (Mountain Standard Time)","Mozilla/5.0 (Windows NT 6.1; Win64; x64) AppleWebKit/537.36 (KHTML, like Gecko) Chrome/86.0.4240.111 Safari/537.36",73,"[0.9, 0.5, 0.1]","[0.8, 0.4, 0.2]","[u'black', u'red', u'blue']","[u'left', u'middle', u'right']","[0.9, 0.5, 0.1]","[u'medium', u'low', u'high']","blue",51,"right","high","True","False",304,5200,NA
"A2BCNRHZU9V7C4","Sun Nov 01 2020 09:07:24 GMT-0700 (Mountain Standard Time)","Sun Nov 01 2020 09:17:21 GMT-0700 (Mountain Standard Time)","Mozilla/5.0 (Windows NT 6.1; Win64; x64) AppleWebKit/537.36 (KHTML, like Gecko) Chrome/86.0.4240.111 Safari/537.36",74,"[0.9, 0.5, 0.1]","[0.8, 0.4, 0.2]","[u'black', u'red', u'blue']","[u'left', u'middle', u'right']","[0.9, 0.5, 0.1]","[u'medium', u'low', u'high']","blue",51,"right","high","False","False",311,5150,NA
"A2BCNRHZU9V7C4","Sun Nov 01 2020 09:07:24 GMT-0700 (Mountain Standard Time)","Sun Nov 01 2020 09:17:21 GMT-0700 (Mountain Standard Time)","Mozilla/5.0 (Windows NT 6.1; Win64; x64) AppleWebKit/537.36 (KHTML, like Gecko) Chrome/86.0.4240.111 Safari/537.36",75,"[0.9, 0.5, 0.1]","[0.8, 0.4, 0.2]","[u'black', u'red', u'blue']","[u'left', u'middle', u'right']","[0.9, 0.5, 0.1]","[u'medium', u'low', u'high']","red",50,"middle","low","False","False",95,5100,NA
"A2BCNRHZU9V7C4","Sun Nov 01 2020 09:07:24 GMT-0700 (Mountain Standard Time)","Sun Nov 01 2020 09:17:21 GMT-0700 (Mountain Standard Time)","Mozilla/5.0 (Windows NT 6.1; Win64; x64) AppleWebKit/537.36 (KHTML, like Gecko) Chrome/86.0.4240.111 Safari/537.36",76,"[0.9, 0.5, 0.1]","[0.8, 0.4, 0.2]","[u'black', u'red', u'blue']","[u'left', u'middle', u'right']","[0.9, 0.5, 0.1]","[u'medium', u'low', u'high']","black",49,"left","medium","True","False",72,5200,NA
"A2BCNRHZU9V7C4","Sun Nov 01 2020 09:07:24 GMT-0700 (Mountain Standard Time)","Sun Nov 01 2020 09:17:21 GMT-0700 (Mountain Standard Time)","Mozilla/5.0 (Windows NT 6.1; Win64; x64) AppleWebKit/537.36 (KHTML, like Gecko) Chrome/86.0.4240.111 Safari/537.36",77,"[0.9, 0.5, 0.1]","[0.8, 0.4, 0.2]","[u'black', u'red', u'blue']","[u'left', u'middle', u'right']","[0.9, 0.5, 0.1]","[u'medium', u'low', u'high']","black",49,"left","medium","False","False",358,5150,NA
"A2BCNRHZU9V7C4","Sun Nov 01 2020 09:07:24 GMT-0700 (Mountain Standard Time)","Sun Nov 01 2020 09:17:21 GMT-0700 (Mountain Standard Time)","Mozilla/5.0 (Windows NT 6.1; Win64; x64) AppleWebKit/537.36 (KHTML, like Gecko) Chrome/86.0.4240.111 Safari/537.36",78,"[0.9, 0.5, 0.1]","[0.8, 0.4, 0.2]","[u'black', u'red', u'blue']","[u'left', u'middle', u'right']","[0.9, 0.5, 0.1]","[u'medium', u'low', u'high']","red",50,"middle","low","False","False",111,5100,NA
"A2BCNRHZU9V7C4","Sun Nov 01 2020 09:07:24 GMT-0700 (Mountain Standard Time)","Sun Nov 01 2020 09:17:21 GMT-0700 (Mountain Standard Time)","Mozilla/5.0 (Windows NT 6.1; Win64; x64) AppleWebKit/537.36 (KHTML, like Gecko) Chrome/86.0.4240.111 Safari/537.36",79,"[0.9, 0.5, 0.1]","[0.8, 0.4, 0.2]","[u'black', u'red', u'blue']","[u'left', u'middle', u'right']","[0.9, 0.5, 0.1]","[u'medium', u'low', u'high']","black",49,"left","medium","False","False",413,5050,NA
"A2BCNRHZU9V7C4","Sun Nov 01 2020 09:07:24 GMT-0700 (Mountain Standard Time)","Sun Nov 01 2020 09:17:21 GMT-0700 (Mountain Standard Time)","Mozilla/5.0 (Windows NT 6.1; Win64; x64) AppleWebKit/537.36 (KHTML, like Gecko) Chrome/86.0.4240.111 Safari/537.36",80,"[0.9, 0.5, 0.1]","[0.8, 0.4, 0.2]","[u'black', u'red', u'blue']","[u'left', u'middle', u'right']","[0.9, 0.5, 0.1]","[u'medium', u'low', u'high']","blue",51,"right","high","True","False",391,5150,NA
"A2BCNRHZU9V7C4","Sun Nov 01 2020 09:07:24 GMT-0700 (Mountain Standard Time)","Sun Nov 01 2020 09:17:21 GMT-0700 (Mountain Standard Time)","Mozilla/5.0 (Windows NT 6.1; Win64; x64) AppleWebKit/537.36 (KHTML, like Gecko) Chrome/86.0.4240.111 Safari/537.36",81,"[0.9, 0.5, 0.1]","[0.8, 0.4, 0.2]","[u'black', u'red', u'blue']","[u'left', u'middle', u'right']","[0.8, 0.4, 0.2]","[u'low', u'high', u'medium']","blue",51,"right","medium","False","False",412,5100,NA
"A2BCNRHZU9V7C4","Sun Nov 01 2020 09:07:24 GMT-0700 (Mountain Standard Time)","Sun Nov 01 2020 09:17:21 GMT-0700 (Mountain Standard Time)","Mozilla/5.0 (Windows NT 6.1; Win64; x64) AppleWebKit/537.36 (KHTML, like Gecko) Chrome/86.0.4240.111 Safari/537.36",82,"[0.9, 0.5, 0.1]","[0.8, 0.4, 0.2]","[u'black', u'red', u'blue']","[u'left', u'middle', u'right']","[0.8, 0.4, 0.2]","[u'low', u'high', u'medium']","red",50,"middle","high","True","False",350,5200,NA
"A2BCNRHZU9V7C4","Sun Nov 01 2020 09:07:24 GMT-0700 (Mountain Standard Time)","Sun Nov 01 2020 09:17:21 GMT-0700 (Mountain Standard Time)","Mozilla/5.0 (Windows NT 6.1; Win64; x64) AppleWebKit/537.36 (KHTML, like Gecko) Chrome/86.0.4240.111 Safari/537.36",83,"[0.9, 0.5, 0.1]","[0.8, 0.4, 0.2]","[u'black', u'red', u'blue']","[u'left', u'middle', u'right']","[0.8, 0.4, 0.2]","[u'low', u'high', u'medium']","red",50,"middle","high","True","False",383,5300,NA
"A2BCNRHZU9V7C4","Sun Nov 01 2020 09:07:24 GMT-0700 (Mountain Standard Time)","Sun Nov 01 2020 09:17:21 GMT-0700 (Mountain Standard Time)","Mozilla/5.0 (Windows NT 6.1; Win64; x64) AppleWebKit/537.36 (KHTML, like Gecko) Chrome/86.0.4240.111 Safari/537.36",84,"[0.9, 0.5, 0.1]","[0.8, 0.4, 0.2]","[u'black', u'red', u'blue']","[u'left', u'middle', u'right']","[0.8, 0.4, 0.2]","[u'low', u'high', u'medium']","red",50,"middle","high","True","False",303,5400,NA
"A2BCNRHZU9V7C4","Sun Nov 01 2020 09:07:24 GMT-0700 (Mountain Standard Time)","Sun Nov 01 2020 09:17:21 GMT-0700 (Mountain Standard Time)","Mozilla/5.0 (Windows NT 6.1; Win64; x64) AppleWebKit/537.36 (KHTML, like Gecko) Chrome/86.0.4240.111 Safari/537.36",85,"[0.9, 0.5, 0.1]","[0.8, 0.4, 0.2]","[u'black', u'red', u'blue']","[u'left', u'middle', u'right']","[0.8, 0.4, 0.2]","[u'low', u'high', u'medium']","red",50,"middle","high","True","False",318,5500,NA
"A2BCNRHZU9V7C4","Sun Nov 01 2020 09:07:24 GMT-0700 (Mountain Standard Time)","Sun Nov 01 2020 09:17:21 GMT-0700 (Mountain Standard Time)","Mozilla/5.0 (Windows NT 6.1; Win64; x64) AppleWebKit/537.36 (KHTML, like Gecko) Chrome/86.0.4240.111 Safari/537.36",86,"[0.9, 0.5, 0.1]","[0.8, 0.4, 0.2]","[u'black', u'red', u'blue']","[u'left', u'middle', u'right']","[0.8, 0.4, 0.2]","[u'low', u'high', u'medium']","red",50,"middle","high","True","False",352,5600,NA
"A2BCNRHZU9V7C4","Sun Nov 01 2020 09:07:24 GMT-0700 (Mountain Standard Time)","Sun Nov 01 2020 09:17:21 GMT-0700 (Mountain Standard Time)","Mozilla/5.0 (Windows NT 6.1; Win64; x64) AppleWebKit/537.36 (KHTML, like Gecko) Chrome/86.0.4240.111 Safari/537.36",87,"[0.9, 0.5, 0.1]","[0.8, 0.4, 0.2]","[u'black', u'red', u'blue']","[u'left', u'middle', u'right']","[0.8, 0.4, 0.2]","[u'low', u'high', u'medium']","red",50,"middle","high","True","False",359,5700,NA
"A2BCNRHZU9V7C4","Sun Nov 01 2020 09:07:24 GMT-0700 (Mountain Standard Time)","Sun Nov 01 2020 09:17:21 GMT-0700 (Mountain Standard Time)","Mozilla/5.0 (Windows NT 6.1; Win64; x64) AppleWebKit/537.36 (KHTML, like Gecko) Chrome/86.0.4240.111 Safari/537.36",88,"[0.9, 0.5, 0.1]","[0.8, 0.4, 0.2]","[u'black', u'red', u'blue']","[u'left', u'middle', u'right']","[0.8, 0.4, 0.2]","[u'low', u'high', u'medium']","red",50,"middle","high","False","False",334,5650,NA
"A2BCNRHZU9V7C4","Sun Nov 01 2020 09:07:24 GMT-0700 (Mountain Standard Time)","Sun Nov 01 2020 09:17:21 GMT-0700 (Mountain Standard Time)","Mozilla/5.0 (Windows NT 6.1; Win64; x64) AppleWebKit/537.36 (KHTML, like Gecko) Chrome/86.0.4240.111 Safari/537.36",89,"[0.9, 0.5, 0.1]","[0.8, 0.4, 0.2]","[u'black', u'red', u'blue']","[u'left', u'middle', u'right']","[0.8, 0.4, 0.2]","[u'low', u'high', u'medium']","black",49,"left","low","False","False",860,5600,NA
"A2BCNRHZU9V7C4","Sun Nov 01 2020 09:07:24 GMT-0700 (Mountain Standard Time)","Sun Nov 01 2020 09:17:21 GMT-0700 (Mountain Standard Time)","Mozilla/5.0 (Windows NT 6.1; Win64; x64) AppleWebKit/537.36 (KHTML, like Gecko) Chrome/86.0.4240.111 Safari/537.36",90,"[0.9, 0.5, 0.1]","[0.8, 0.4, 0.2]","[u'black', u'red', u'blue']","[u'left', u'middle', u'right']","[0.8, 0.4, 0.2]","[u'low', u'high', u'medium']","blue",51,"right","medium","False","False",224,5550,NA
"A2BCNRHZU9V7C4","Sun Nov 01 2020 09:07:24 GMT-0700 (Mountain Standard Time)","Sun Nov 01 2020 09:17:21 GMT-0700 (Mountain Standard Time)","Mozilla/5.0 (Windows NT 6.1; Win64; x64) AppleWebKit/537.36 (KHTML, like Gecko) Chrome/86.0.4240.111 Safari/537.36",91,"[0.9, 0.5, 0.1]","[0.8, 0.4, 0.2]","[u'black', u'red', u'blue']","[u'left', u'middle', u'right']","[0.8, 0.4, 0.2]","[u'low', u'high', u'medium']","black",49,"left","low","False","False",382,5500,NA
"A2BCNRHZU9V7C4","Sun Nov 01 2020 09:07:24 GMT-0700 (Mountain Standard Time)","Sun Nov 01 2020 09:17:21 GMT-0700 (Mountain Standard Time)","Mozilla/5.0 (Windows NT 6.1; Win64; x64) AppleWebKit/537.36 (KHTML, like Gecko) Chrome/86.0.4240.111 Safari/537.36",92,"[0.9, 0.5, 0.1]","[0.8, 0.4, 0.2]","[u'black', u'red', u'blue']","[u'left', u'middle', u'right']","[0.8, 0.4, 0.2]","[u'low', u'high', u'medium']","red",50,"middle","high","True","False",25,5600,NA
"A2BCNRHZU9V7C4","Sun Nov 01 2020 09:07:24 GMT-0700 (Mountain Standard Time)","Sun Nov 01 2020 09:17:21 GMT-0700 (Mountain Standard Time)","Mozilla/5.0 (Windows NT 6.1; Win64; x64) AppleWebKit/537.36 (KHTML, like Gecko) Chrome/86.0.4240.111 Safari/537.36",93,"[0.9, 0.5, 0.1]","[0.8, 0.4, 0.2]","[u'black', u'red', u'blue']","[u'left', u'middle', u'right']","[0.8, 0.4, 0.2]","[u'low', u'high', u'medium']","red",50,"middle","high","True","False",320,5700,NA
"A2BCNRHZU9V7C4","Sun Nov 01 2020 09:07:24 GMT-0700 (Mountain Standard Time)","Sun Nov 01 2020 09:17:21 GMT-0700 (Mountain Standard Time)","Mozilla/5.0 (Windows NT 6.1; Win64; x64) AppleWebKit/537.36 (KHTML, like Gecko) Chrome/86.0.4240.111 Safari/537.36",94,"[0.9, 0.5, 0.1]","[0.8, 0.4, 0.2]","[u'black', u'red', u'blue']","[u'left', u'middle', u'right']","[0.8, 0.4, 0.2]","[u'low', u'high', u'medium']","red",50,"middle","high","True","False",366,5800,NA
"A2BCNRHZU9V7C4","Sun Nov 01 2020 09:07:24 GMT-0700 (Mountain Standard Time)","Sun Nov 01 2020 09:17:21 GMT-0700 (Mountain Standard Time)","Mozilla/5.0 (Windows NT 6.1; Win64; x64) AppleWebKit/537.36 (KHTML, like Gecko) Chrome/86.0.4240.111 Safari/537.36",95,"[0.9, 0.5, 0.1]","[0.8, 0.4, 0.2]","[u'black', u'red', u'blue']","[u'left', u'middle', u'right']","[0.8, 0.4, 0.2]","[u'low', u'high', u'medium']","red",50,"middle","high","False","False",312,5750,NA
"A2BCNRHZU9V7C4","Sun Nov 01 2020 09:07:24 GMT-0700 (Mountain Standard Time)","Sun Nov 01 2020 09:17:21 GMT-0700 (Mountain Standard Time)","Mozilla/5.0 (Windows NT 6.1; Win64; x64) AppleWebKit/537.36 (KHTML, like Gecko) Chrome/86.0.4240.111 Safari/537.36",96,"[0.9, 0.5, 0.1]","[0.8, 0.4, 0.2]","[u'black', u'red', u'blue']","[u'left', u'middle', u'right']","[0.8, 0.4, 0.2]","[u'low', u'high', u'medium']","black",49,"left","low","False","False",501,5700,NA
"A2BCNRHZU9V7C4","Sun Nov 01 2020 09:07:24 GMT-0700 (Mountain Standard Time)","Sun Nov 01 2020 09:17:21 GMT-0700 (Mountain Standard Time)","Mozilla/5.0 (Windows NT 6.1; Win64; x64) AppleWebKit/537.36 (KHTML, like Gecko) Chrome/86.0.4240.111 Safari/537.36",97,"[0.9, 0.5, 0.1]","[0.8, 0.4, 0.2]","[u'black', u'red', u'blue']","[u'left', u'middle', u'right']","[0.8, 0.4, 0.2]","[u'low', u'high', u'medium']","blue",51,"right","medium","False","False",361,5650,NA
"A2BCNRHZU9V7C4","Sun Nov 01 2020 09:07:24 GMT-0700 (Mountain Standard Time)","Sun Nov 01 2020 09:17:21 GMT-0700 (Mountain Standard Time)","Mozilla/5.0 (Windows NT 6.1; Win64; x64) AppleWebKit/537.36 (KHTML, like Gecko) Chrome/86.0.4240.111 Safari/537.36",98,"[0.9, 0.5, 0.1]","[0.8, 0.4, 0.2]","[u'black', u'red', u'blue']","[u'left', u'middle', u'right']","[0.8, 0.4, 0.2]","[u'low', u'high', u'medium']","red",50,"middle","high","True","False",7,5750,NA
"A2BCNRHZU9V7C4","Sun Nov 01 2020 09:07:24 GMT-0700 (Mountain Standard Time)","Sun Nov 01 2020 09:17:21 GMT-0700 (Mountain Standard Time)","Mozilla/5.0 (Windows NT 6.1; Win64; x64) AppleWebKit/537.36 (KHTML, like Gecko) Chrome/86.0.4240.111 Safari/537.36",99,"[0.9, 0.5, 0.1]","[0.8, 0.4, 0.2]","[u'black', u'red', u'blue']","[u'left', u'middle', u'right']","[0.8, 0.4, 0.2]","[u'low', u'high', u'medium']","red",50,"middle","high","True","False",230,5850,NA
"A2BCNRHZU9V7C4","Sun Nov 01 2020 09:07:24 GMT-0700 (Mountain Standard Time)","Sun Nov 01 2020 09:17:21 GMT-0700 (Mountain Standard Time)","Mozilla/5.0 (Windows NT 6.1; Win64; x64) AppleWebKit/537.36 (KHTML, like Gecko) Chrome/86.0.4240.111 Safari/537.36",100,"[0.9, 0.5, 0.1]","[0.8, 0.4, 0.2]","[u'black', u'red', u'blue']","[u'left', u'middle', u'right']","[0.8, 0.4, 0.2]","[u'low', u'high', u'medium']","red",50,"middle","high","True","False",319,5950,NA
"A2BCNRHZU9V7C4","Sun Nov 01 2020 09:07:24 GMT-0700 (Mountain Standard Time)","Sun Nov 01 2020 09:17:21 GMT-0700 (Mountain Standard Time)","Mozilla/5.0 (Windows NT 6.1; Win64; x64) AppleWebKit/537.36 (KHTML, like Gecko) Chrome/86.0.4240.111 Safari/537.36",101,"[0.9, 0.5, 0.1]","[0.8, 0.4, 0.2]","[u'black', u'red', u'blue']","[u'left', u'middle', u'right']","[0.8, 0.4, 0.2]","[u'low', u'high', u'medium']","red",50,"middle","high","True","False",39,6050,NA
"A2BCNRHZU9V7C4","Sun Nov 01 2020 09:07:24 GMT-0700 (Mountain Standard Time)","Sun Nov 01 2020 09:17:21 GMT-0700 (Mountain Standard Time)","Mozilla/5.0 (Windows NT 6.1; Win64; x64) AppleWebKit/537.36 (KHTML, like Gecko) Chrome/86.0.4240.111 Safari/537.36",102,"[0.9, 0.5, 0.1]","[0.8, 0.4, 0.2]","[u'black', u'red', u'blue']","[u'left', u'middle', u'right']","[0.8, 0.4, 0.2]","[u'low', u'high', u'medium']","red",50,"middle","high","False","False",294,6000,NA
"A2BCNRHZU9V7C4","Sun Nov 01 2020 09:07:24 GMT-0700 (Mountain Standard Time)","Sun Nov 01 2020 09:17:21 GMT-0700 (Mountain Standard Time)","Mozilla/5.0 (Windows NT 6.1; Win64; x64) AppleWebKit/537.36 (KHTML, like Gecko) Chrome/86.0.4240.111 Safari/537.36",103,"[0.9, 0.5, 0.1]","[0.8, 0.4, 0.2]","[u'black', u'red', u'blue']","[u'left', u'middle', u'right']","[0.8, 0.4, 0.2]","[u'low', u'high', u'medium']","red",50,"middle","high","True","False",15,6100,NA
"A2BCNRHZU9V7C4","Sun Nov 01 2020 09:07:24 GMT-0700 (Mountain Standard Time)","Sun Nov 01 2020 09:17:21 GMT-0700 (Mountain Standard Time)","Mozilla/5.0 (Windows NT 6.1; Win64; x64) AppleWebKit/537.36 (KHTML, like Gecko) Chrome/86.0.4240.111 Safari/537.36",104,"[0.9, 0.5, 0.1]","[0.8, 0.4, 0.2]","[u'black', u'red', u'blue']","[u'left', u'middle', u'right']","[0.8, 0.4, 0.2]","[u'low', u'high', u'medium']","red",50,"middle","high","True","False",15,6200,NA
"A2BCNRHZU9V7C4","Sun Nov 01 2020 09:07:24 GMT-0700 (Mountain Standard Time)","Sun Nov 01 2020 09:17:21 GMT-0700 (Mountain Standard Time)","Mozilla/5.0 (Windows NT 6.1; Win64; x64) AppleWebKit/537.36 (KHTML, like Gecko) Chrome/86.0.4240.111 Safari/537.36",105,"[0.9, 0.5, 0.1]","[0.8, 0.4, 0.2]","[u'black', u'red', u'blue']","[u'left', u'middle', u'right']","[0.8, 0.4, 0.2]","[u'low', u'high', u'medium']","red",50,"middle","high","True","False",80,6300,NA
"A2BCNRHZU9V7C4","Sun Nov 01 2020 09:07:24 GMT-0700 (Mountain Standard Time)","Sun Nov 01 2020 09:17:21 GMT-0700 (Mountain Standard Time)","Mozilla/5.0 (Windows NT 6.1; Win64; x64) AppleWebKit/537.36 (KHTML, like Gecko) Chrome/86.0.4240.111 Safari/537.36",106,"[0.9, 0.5, 0.1]","[0.8, 0.4, 0.2]","[u'black', u'red', u'blue']","[u'left', u'middle', u'right']","[0.8, 0.4, 0.2]","[u'low', u'high', u'medium']","red",50,"middle","high","True","True",812,6400,NA
"A2BCNRHZU9V7C4","Sun Nov 01 2020 09:07:24 GMT-0700 (Mountain Standard Time)","Sun Nov 01 2020 09:17:21 GMT-0700 (Mountain Standard Time)","Mozilla/5.0 (Windows NT 6.1; Win64; x64) AppleWebKit/537.36 (KHTML, like Gecko) Chrome/86.0.4240.111 Safari/537.36",107,"[0.9, 0.5, 0.1]","[0.8, 0.4, 0.2]","[u'black', u'red', u'blue']","[u'left', u'middle', u'right']","[0.8, 0.4, 0.2]","[u'medium', u'low', u'high']","red",50,"middle","low","False","False",352,6350,NA
"A2BCNRHZU9V7C4","Sun Nov 01 2020 09:07:24 GMT-0700 (Mountain Standard Time)","Sun Nov 01 2020 09:17:21 GMT-0700 (Mountain Standard Time)","Mozilla/5.0 (Windows NT 6.1; Win64; x64) AppleWebKit/537.36 (KHTML, like Gecko) Chrome/86.0.4240.111 Safari/537.36",108,"[0.9, 0.5, 0.1]","[0.8, 0.4, 0.2]","[u'black', u'red', u'blue']","[u'left', u'middle', u'right']","[0.8, 0.4, 0.2]","[u'medium', u'low', u'high']","red",50,"middle","low","False","False",23,6300,NA
"A2BCNRHZU9V7C4","Sun Nov 01 2020 09:07:24 GMT-0700 (Mountain Standard Time)","Sun Nov 01 2020 09:17:21 GMT-0700 (Mountain Standard Time)","Mozilla/5.0 (Windows NT 6.1; Win64; x64) AppleWebKit/537.36 (KHTML, like Gecko) Chrome/86.0.4240.111 Safari/537.36",109,"[0.9, 0.5, 0.1]","[0.8, 0.4, 0.2]","[u'black', u'red', u'blue']","[u'left', u'middle', u'right']","[0.8, 0.4, 0.2]","[u'medium', u'low', u'high']","black",49,"left","medium","False","False",119,6250,NA
"A2BCNRHZU9V7C4","Sun Nov 01 2020 09:07:24 GMT-0700 (Mountain Standard Time)","Sun Nov 01 2020 09:17:21 GMT-0700 (Mountain Standard Time)","Mozilla/5.0 (Windows NT 6.1; Win64; x64) AppleWebKit/537.36 (KHTML, like Gecko) Chrome/86.0.4240.111 Safari/537.36",110,"[0.9, 0.5, 0.1]","[0.8, 0.4, 0.2]","[u'black', u'red', u'blue']","[u'left', u'middle', u'right']","[0.8, 0.4, 0.2]","[u'medium', u'low', u'high']","blue",51,"right","high","True","False",566,6350,NA
"A2BCNRHZU9V7C4","Sun Nov 01 2020 09:07:24 GMT-0700 (Mountain Standard Time)","Sun Nov 01 2020 09:17:21 GMT-0700 (Mountain Standard Time)","Mozilla/5.0 (Windows NT 6.1; Win64; x64) AppleWebKit/537.36 (KHTML, like Gecko) Chrome/86.0.4240.111 Safari/537.36",111,"[0.9, 0.5, 0.1]","[0.8, 0.4, 0.2]","[u'black', u'red', u'blue']","[u'left', u'middle', u'right']","[0.8, 0.4, 0.2]","[u'medium', u'low', u'high']","blue",51,"right","high","True","False",296,6450,NA
"A2BCNRHZU9V7C4","Sun Nov 01 2020 09:07:24 GMT-0700 (Mountain Standard Time)","Sun Nov 01 2020 09:17:21 GMT-0700 (Mountain Standard Time)","Mozilla/5.0 (Windows NT 6.1; Win64; x64) AppleWebKit/537.36 (KHTML, like Gecko) Chrome/86.0.4240.111 Safari/537.36",112,"[0.9, 0.5, 0.1]","[0.8, 0.4, 0.2]","[u'black', u'red', u'blue']","[u'left', u'middle', u'right']","[0.8, 0.4, 0.2]","[u'medium', u'low', u'high']","blue",51,"right","high","True","False",334,6550,NA
"A2BCNRHZU9V7C4","Sun Nov 01 2020 09:07:24 GMT-0700 (Mountain Standard Time)","Sun Nov 01 2020 09:17:21 GMT-0700 (Mountain Standard Time)","Mozilla/5.0 (Windows NT 6.1; Win64; x64) AppleWebKit/537.36 (KHTML, like Gecko) Chrome/86.0.4240.111 Safari/537.36",113,"[0.9, 0.5, 0.1]","[0.8, 0.4, 0.2]","[u'black', u'red', u'blue']","[u'left', u'middle', u'right']","[0.8, 0.4, 0.2]","[u'medium', u'low', u'high']","blue",51,"right","high","True","False",326,6650,NA
"A2BCNRHZU9V7C4","Sun Nov 01 2020 09:07:24 GMT-0700 (Mountain Standard Time)","Sun Nov 01 2020 09:17:21 GMT-0700 (Mountain Standard Time)","Mozilla/5.0 (Windows NT 6.1; Win64; x64) AppleWebKit/537.36 (KHTML, like Gecko) Chrome/86.0.4240.111 Safari/537.36",114,"[0.9, 0.5, 0.1]","[0.8, 0.4, 0.2]","[u'black', u'red', u'blue']","[u'left', u'middle', u'right']","[0.8, 0.4, 0.2]","[u'medium', u'low', u'high']","blue",51,"right","high","True","False",343,6750,NA
"A2BCNRHZU9V7C4","Sun Nov 01 2020 09:07:24 GMT-0700 (Mountain Standard Time)","Sun Nov 01 2020 09:17:21 GMT-0700 (Mountain Standard Time)","Mozilla/5.0 (Windows NT 6.1; Win64; x64) AppleWebKit/537.36 (KHTML, like Gecko) Chrome/86.0.4240.111 Safari/537.36",115,"[0.9, 0.5, 0.1]","[0.8, 0.4, 0.2]","[u'black', u'red', u'blue']","[u'left', u'middle', u'right']","[0.8, 0.4, 0.2]","[u'medium', u'low', u'high']","blue",51,"right","high","True","False",351,6850,NA
"A2BCNRHZU9V7C4","Sun Nov 01 2020 09:07:24 GMT-0700 (Mountain Standard Time)","Sun Nov 01 2020 09:17:21 GMT-0700 (Mountain Standard Time)","Mozilla/5.0 (Windows NT 6.1; Win64; x64) AppleWebKit/537.36 (KHTML, like Gecko) Chrome/86.0.4240.111 Safari/537.36",116,"[0.9, 0.5, 0.1]","[0.8, 0.4, 0.2]","[u'black', u'red', u'blue']","[u'left', u'middle', u'right']","[0.8, 0.4, 0.2]","[u'medium', u'low', u'high']","blue",51,"right","high","True","False",318,6950,NA
"A2BCNRHZU9V7C4","Sun Nov 01 2020 09:07:24 GMT-0700 (Mountain Standard Time)","Sun Nov 01 2020 09:17:21 GMT-0700 (Mountain Standard Time)","Mozilla/5.0 (Windows NT 6.1; Win64; x64) AppleWebKit/537.36 (KHTML, like Gecko) Chrome/86.0.4240.111 Safari/537.36",117,"[0.9, 0.5, 0.1]","[0.8, 0.4, 0.2]","[u'black', u'red', u'blue']","[u'left', u'middle', u'right']","[0.8, 0.4, 0.2]","[u'medium', u'low', u'high']","blue",51,"right","high","True","False",344,7050,NA
"A2BCNRHZU9V7C4","Sun Nov 01 2020 09:07:24 GMT-0700 (Mountain Standard Time)","Sun Nov 01 2020 09:17:21 GMT-0700 (Mountain Standard Time)","Mozilla/5.0 (Windows NT 6.1; Win64; x64) AppleWebKit/537.36 (KHTML, like Gecko) Chrome/86.0.4240.111 Safari/537.36",118,"[0.9, 0.5, 0.1]","[0.8, 0.4, 0.2]","[u'black', u'red', u'blue']","[u'left', u'middle', u'right']","[0.8, 0.4, 0.2]","[u'medium', u'low', u'high']","blue",51,"right","high","True","True",341,7150,NA
"A2BCNRHZU9V7C4","Sun Nov 01 2020 09:07:24 GMT-0700 (Mountain Standard Time)","Sun Nov 01 2020 09:17:21 GMT-0700 (Mountain Standard Time)","Mozilla/5.0 (Windows NT 6.1; Win64; x64) AppleWebKit/537.36 (KHTML, like Gecko) Chrome/86.0.4240.111 Safari/537.36",119,"[0.9, 0.5, 0.1]","[0.8, 0.4, 0.2]","[u'black', u'red', u'blue']","[u'left', u'middle', u'right']","[0.8, 0.4, 0.2]","[u'high', u'medium', u'low']","blue",51,"right","low","False","False",318,7100,NA
"A2BCNRHZU9V7C4","Sun Nov 01 2020 09:07:24 GMT-0700 (Mountain Standard Time)","Sun Nov 01 2020 09:17:21 GMT-0700 (Mountain Standard Time)","Mozilla/5.0 (Windows NT 6.1; Win64; x64) AppleWebKit/537.36 (KHTML, like Gecko) Chrome/86.0.4240.111 Safari/537.36",120,"[0.9, 0.5, 0.1]","[0.8, 0.4, 0.2]","[u'black', u'red', u'blue']","[u'left', u'middle', u'right']","[0.8, 0.4, 0.2]","[u'high', u'medium', u'low']","blue",51,"right","low","False","False",399,7050,NA
"A2BCNRHZU9V7C4","Sun Nov 01 2020 09:07:24 GMT-0700 (Mountain Standard Time)","Sun Nov 01 2020 09:17:21 GMT-0700 (Mountain Standard Time)","Mozilla/5.0 (Windows NT 6.1; Win64; x64) AppleWebKit/537.36 (KHTML, like Gecko) Chrome/86.0.4240.111 Safari/537.36",121,"[0.9, 0.5, 0.1]","[0.8, 0.4, 0.2]","[u'black', u'red', u'blue']","[u'left', u'middle', u'right']","[0.8, 0.4, 0.2]","[u'medium', u'low', u'high']","red",50,"middle","low","False","False",868,7000,NA
"A2BCNRHZU9V7C4","Sun Nov 01 2020 09:07:24 GMT-0700 (Mountain Standard Time)","Sun Nov 01 2020 09:17:21 GMT-0700 (Mountain Standard Time)","Mozilla/5.0 (Windows NT 6.1; Win64; x64) AppleWebKit/537.36 (KHTML, like Gecko) Chrome/86.0.4240.111 Safari/537.36",122,"[0.9, 0.5, 0.1]","[0.8, 0.4, 0.2]","[u'black', u'red', u'blue']","[u'left', u'middle', u'right']","[0.8, 0.4, 0.2]","[u'medium', u'low', u'high']","blue",51,"right","high","True","False",55,7100,NA
"A2BCNRHZU9V7C4","Sun Nov 01 2020 09:07:24 GMT-0700 (Mountain Standard Time)","Sun Nov 01 2020 09:17:21 GMT-0700 (Mountain Standard Time)","Mozilla/5.0 (Windows NT 6.1; Win64; x64) AppleWebKit/537.36 (KHTML, like Gecko) Chrome/86.0.4240.111 Safari/537.36",123,"[0.9, 0.5, 0.1]","[0.8, 0.4, 0.2]","[u'black', u'red', u'blue']","[u'left', u'middle', u'right']","[0.8, 0.4, 0.2]","[u'medium', u'low', u'high']","blue",51,"right","high","True","False",271,7200,NA
"A2BCNRHZU9V7C4","Sun Nov 01 2020 09:07:24 GMT-0700 (Mountain Standard Time)","Sun Nov 01 2020 09:17:21 GMT-0700 (Mountain Standard Time)","Mozilla/5.0 (Windows NT 6.1; Win64; x64) AppleWebKit/537.36 (KHTML, like Gecko) Chrome/86.0.4240.111 Safari/537.36",124,"[0.9, 0.5, 0.1]","[0.8, 0.4, 0.2]","[u'black', u'red', u'blue']","[u'left', u'middle', u'right']","[0.8, 0.4, 0.2]","[u'medium', u'low', u'high']","blue",51,"right","high","False","False",311,7150,NA
"A2BCNRHZU9V7C4","Sun Nov 01 2020 09:07:24 GMT-0700 (Mountain Standard Time)","Sun Nov 01 2020 09:17:21 GMT-0700 (Mountain Standard Time)","Mozilla/5.0 (Windows NT 6.1; Win64; x64) AppleWebKit/537.36 (KHTML, like Gecko) Chrome/86.0.4240.111 Safari/537.36",125,"[0.9, 0.5, 0.1]","[0.8, 0.4, 0.2]","[u'black', u'red', u'blue']","[u'left', u'middle', u'right']","[0.8, 0.4, 0.2]","[u'medium', u'low', u'high']","blue",51,"right","high","True","False",374,7250,NA
"A2BCNRHZU9V7C4","Sun Nov 01 2020 09:07:24 GMT-0700 (Mountain Standard Time)","Sun Nov 01 2020 09:17:21 GMT-0700 (Mountain Standard Time)","Mozilla/5.0 (Windows NT 6.1; Win64; x64) AppleWebKit/537.36 (KHTML, like Gecko) Chrome/86.0.4240.111 Safari/537.36",126,"[0.9, 0.5, 0.1]","[0.8, 0.4, 0.2]","[u'black', u'red', u'blue']","[u'left', u'middle', u'right']","[0.8, 0.4, 0.2]","[u'medium', u'low', u'high']","blue",51,"right","high","False","False",366,7200,NA
"A2BCNRHZU9V7C4","Sun Nov 01 2020 09:07:24 GMT-0700 (Mountain Standard Time)","Sun Nov 01 2020 09:17:21 GMT-0700 (Mountain Standard Time)","Mozilla/5.0 (Windows NT 6.1; Win64; x64) AppleWebKit/537.36 (KHTML, like Gecko) Chrome/86.0.4240.111 Safari/537.36",127,"[0.9, 0.5, 0.1]","[0.8, 0.4, 0.2]","[u'black', u'red', u'blue']","[u'left', u'middle', u'right']","[0.8, 0.4, 0.2]","[u'medium', u'low', u'high']","blue",51,"right","high","True","False",406,7300,NA
"A2BCNRHZU9V7C4","Sun Nov 01 2020 09:07:24 GMT-0700 (Mountain Standard Time)","Sun Nov 01 2020 09:17:21 GMT-0700 (Mountain Standard Time)","Mozilla/5.0 (Windows NT 6.1; Win64; x64) AppleWebKit/537.36 (KHTML, like Gecko) Chrome/86.0.4240.111 Safari/537.36",128,"[0.9, 0.5, 0.1]","[0.8, 0.4, 0.2]","[u'black', u'red', u'blue']","[u'left', u'middle', u'right']","[0.8, 0.4, 0.2]","[u'medium', u'low', u'high']","blue",51,"right","high","True","False",325,7400,NA
"A2BCNRHZU9V7C4","Sun Nov 01 2020 09:07:24 GMT-0700 (Mountain Standard Time)","Sun Nov 01 2020 09:17:21 GMT-0700 (Mountain Standard Time)","Mozilla/5.0 (Windows NT 6.1; Win64; x64) AppleWebKit/537.36 (KHTML, like Gecko) Chrome/86.0.4240.111 Safari/537.36",129,"[0.9, 0.5, 0.1]","[0.8, 0.4, 0.2]","[u'black', u'red', u'blue']","[u'left', u'middle', u'right']","[0.8, 0.4, 0.2]","[u'medium', u'low', u'high']","blue",51,"right","high","True","False",351,7500,NA
"A2BCNRHZU9V7C4","Sun Nov 01 2020 09:07:24 GMT-0700 (Mountain Standard Time)","Sun Nov 01 2020 09:17:21 GMT-0700 (Mountain Standard Time)","Mozilla/5.0 (Windows NT 6.1; Win64; x64) AppleWebKit/537.36 (KHTML, like Gecko) Chrome/86.0.4240.111 Safari/537.36",130,"[0.9, 0.5, 0.1]","[0.8, 0.4, 0.2]","[u'black', u'red', u'blue']","[u'left', u'middle', u'right']","[0.8, 0.4, 0.2]","[u'medium', u'low', u'high']","blue",51,"right","high","False","True",318,7450,NA
"A2BCNRHZU9V7C4","Sun Nov 01 2020 09:07:24 GMT-0700 (Mountain Standard Time)","Sun Nov 01 2020 09:17:21 GMT-0700 (Mountain Standard Time)","Mozilla/5.0 (Windows NT 6.1; Win64; x64) AppleWebKit/537.36 (KHTML, like Gecko) Chrome/86.0.4240.111 Safari/537.36",131,"[0.9, 0.5, 0.1]","[0.8, 0.4, 0.2]","[u'black', u'red', u'blue']","[u'left', u'middle', u'right']","[0.8, 0.4, 0.2]","[u'high', u'low', u'medium']","blue",51,"right","medium","True","False",335,7550,NA
"A2BCNRHZU9V7C4","Sun Nov 01 2020 09:07:24 GMT-0700 (Mountain Standard Time)","Sun Nov 01 2020 09:17:21 GMT-0700 (Mountain Standard Time)","Mozilla/5.0 (Windows NT 6.1; Win64; x64) AppleWebKit/537.36 (KHTML, like Gecko) Chrome/86.0.4240.111 Safari/537.36",132,"[0.9, 0.5, 0.1]","[0.8, 0.4, 0.2]","[u'black', u'red', u'blue']","[u'left', u'middle', u'right']","[0.8, 0.4, 0.2]","[u'high', u'low', u'medium']","blue",51,"right","medium","False","False",350,7500,NA
"A2BCNRHZU9V7C4","Sun Nov 01 2020 09:07:24 GMT-0700 (Mountain Standard Time)","Sun Nov 01 2020 09:17:21 GMT-0700 (Mountain Standard Time)","Mozilla/5.0 (Windows NT 6.1; Win64; x64) AppleWebKit/537.36 (KHTML, like Gecko) Chrome/86.0.4240.111 Safari/537.36",133,"[0.9, 0.5, 0.1]","[0.8, 0.4, 0.2]","[u'black', u'red', u'blue']","[u'left', u'middle', u'right']","[0.8, 0.4, 0.2]","[u'high', u'low', u'medium']","blue",51,"right","medium","False","False",336,7450,NA
"A2BCNRHZU9V7C4","Sun Nov 01 2020 09:07:24 GMT-0700 (Mountain Standard Time)","Sun Nov 01 2020 09:17:21 GMT-0700 (Mountain Standard Time)","Mozilla/5.0 (Windows NT 6.1; Win64; x64) AppleWebKit/537.36 (KHTML, like Gecko) Chrome/86.0.4240.111 Safari/537.36",134,"[0.9, 0.5, 0.1]","[0.8, 0.4, 0.2]","[u'black', u'red', u'blue']","[u'left', u'middle', u'right']","[0.8, 0.4, 0.2]","[u'high', u'low', u'medium']","red",50,"middle","low","False","False",237,7400,NA
"A2BCNRHZU9V7C4","Sun Nov 01 2020 09:07:24 GMT-0700 (Mountain Standard Time)","Sun Nov 01 2020 09:17:21 GMT-0700 (Mountain Standard Time)","Mozilla/5.0 (Windows NT 6.1; Win64; x64) AppleWebKit/537.36 (KHTML, like Gecko) Chrome/86.0.4240.111 Safari/537.36",135,"[0.9, 0.5, 0.1]","[0.8, 0.4, 0.2]","[u'black', u'red', u'blue']","[u'left', u'middle', u'right']","[0.8, 0.4, 0.2]","[u'high', u'low', u'medium']","black",49,"left","high","True","False",676,7500,NA
"A2BCNRHZU9V7C4","Sun Nov 01 2020 09:07:24 GMT-0700 (Mountain Standard Time)","Sun Nov 01 2020 09:17:21 GMT-0700 (Mountain Standard Time)","Mozilla/5.0 (Windows NT 6.1; Win64; x64) AppleWebKit/537.36 (KHTML, like Gecko) Chrome/86.0.4240.111 Safari/537.36",136,"[0.9, 0.5, 0.1]","[0.8, 0.4, 0.2]","[u'black', u'red', u'blue']","[u'left', u'middle', u'right']","[0.8, 0.4, 0.2]","[u'high', u'low', u'medium']","black",49,"left","high","True","False",383,7600,NA
"A2BCNRHZU9V7C4","Sun Nov 01 2020 09:07:24 GMT-0700 (Mountain Standard Time)","Sun Nov 01 2020 09:17:21 GMT-0700 (Mountain Standard Time)","Mozilla/5.0 (Windows NT 6.1; Win64; x64) AppleWebKit/537.36 (KHTML, like Gecko) Chrome/86.0.4240.111 Safari/537.36",137,"[0.9, 0.5, 0.1]","[0.8, 0.4, 0.2]","[u'black', u'red', u'blue']","[u'left', u'middle', u'right']","[0.8, 0.4, 0.2]","[u'high', u'low', u'medium']","black",49,"left","high","True","False",326,7700,NA
"A2BCNRHZU9V7C4","Sun Nov 01 2020 09:07:24 GMT-0700 (Mountain Standard Time)","Sun Nov 01 2020 09:17:21 GMT-0700 (Mountain Standard Time)","Mozilla/5.0 (Windows NT 6.1; Win64; x64) AppleWebKit/537.36 (KHTML, like Gecko) Chrome/86.0.4240.111 Safari/537.36",138,"[0.9, 0.5, 0.1]","[0.8, 0.4, 0.2]","[u'black', u'red', u'blue']","[u'left', u'middle', u'right']","[0.8, 0.4, 0.2]","[u'high', u'low', u'medium']","black",49,"left","high","True","False",319,7800,NA
"A2BCNRHZU9V7C4","Sun Nov 01 2020 09:07:24 GMT-0700 (Mountain Standard Time)","Sun Nov 01 2020 09:17:21 GMT-0700 (Mountain Standard Time)","Mozilla/5.0 (Windows NT 6.1; Win64; x64) AppleWebKit/537.36 (KHTML, like Gecko) Chrome/86.0.4240.111 Safari/537.36",139,"[0.9, 0.5, 0.1]","[0.8, 0.4, 0.2]","[u'black', u'red', u'blue']","[u'left', u'middle', u'right']","[0.8, 0.4, 0.2]","[u'high', u'low', u'medium']","black",49,"left","high","True","False",208,7900,NA
"A2BCNRHZU9V7C4","Sun Nov 01 2020 09:07:24 GMT-0700 (Mountain Standard Time)","Sun Nov 01 2020 09:17:21 GMT-0700 (Mountain Standard Time)","Mozilla/5.0 (Windows NT 6.1; Win64; x64) AppleWebKit/537.36 (KHTML, like Gecko) Chrome/86.0.4240.111 Safari/537.36",140,"[0.9, 0.5, 0.1]","[0.8, 0.4, 0.2]","[u'black', u'red', u'blue']","[u'left', u'middle', u'right']","[0.8, 0.4, 0.2]","[u'high', u'low', u'medium']","black",49,"left","high","True","False",390,8000,NA
"A2BCNRHZU9V7C4","Sun Nov 01 2020 09:07:24 GMT-0700 (Mountain Standard Time)","Sun Nov 01 2020 09:17:21 GMT-0700 (Mountain Standard Time)","Mozilla/5.0 (Windows NT 6.1; Win64; x64) AppleWebKit/537.36 (KHTML, like Gecko) Chrome/86.0.4240.111 Safari/537.36",141,"[0.9, 0.5, 0.1]","[0.8, 0.4, 0.2]","[u'black', u'red', u'blue']","[u'left', u'middle', u'right']","[0.8, 0.4, 0.2]","[u'high', u'low', u'medium']","black",49,"left","high","False","False",327,7950,NA
"A2BCNRHZU9V7C4","Sun Nov 01 2020 09:07:24 GMT-0700 (Mountain Standard Time)","Sun Nov 01 2020 09:17:21 GMT-0700 (Mountain Standard Time)","Mozilla/5.0 (Windows NT 6.1; Win64; x64) AppleWebKit/537.36 (KHTML, like Gecko) Chrome/86.0.4240.111 Safari/537.36",142,"[0.9, 0.5, 0.1]","[0.8, 0.4, 0.2]","[u'black', u'red', u'blue']","[u'left', u'middle', u'right']","[0.8, 0.4, 0.2]","[u'high', u'low', u'medium']","black",49,"left","high","True","False",126,8050,NA
"A2BCNRHZU9V7C4","Sun Nov 01 2020 09:07:24 GMT-0700 (Mountain Standard Time)","Sun Nov 01 2020 09:17:21 GMT-0700 (Mountain Standard Time)","Mozilla/5.0 (Windows NT 6.1; Win64; x64) AppleWebKit/537.36 (KHTML, like Gecko) Chrome/86.0.4240.111 Safari/537.36",143,"[0.9, 0.5, 0.1]","[0.8, 0.4, 0.2]","[u'black', u'red', u'blue']","[u'left', u'middle', u'right']","[0.8, 0.4, 0.2]","[u'high', u'low', u'medium']","black",49,"left","high","True","True",390,8150,NA
"A2BCNRHZU9V7C4","Sun Nov 01 2020 09:07:24 GMT-0700 (Mountain Standard Time)","Sun Nov 01 2020 09:17:21 GMT-0700 (Mountain Standard Time)","Mozilla/5.0 (Windows NT 6.1; Win64; x64) AppleWebKit/537.36 (KHTML, like Gecko) Chrome/86.0.4240.111 Safari/537.36",144,"[0.9, 0.5, 0.1]","[0.8, 0.4, 0.2]","[u'black', u'red', u'blue']","[u'left', u'middle', u'right']","[0.8, 0.4, 0.2]","[u'medium', u'high', u'low']","black",49,"left","medium","False","False",317,8100,NA
"A2BCNRHZU9V7C4","Sun Nov 01 2020 09:07:24 GMT-0700 (Mountain Standard Time)","Sun Nov 01 2020 09:17:21 GMT-0700 (Mountain Standard Time)","Mozilla/5.0 (Windows NT 6.1; Win64; x64) AppleWebKit/537.36 (KHTML, like Gecko) Chrome/86.0.4240.111 Safari/537.36",145,"[0.9, 0.5, 0.1]","[0.8, 0.4, 0.2]","[u'black', u'red', u'blue']","[u'left', u'middle', u'right']","[0.8, 0.4, 0.2]","[u'medium', u'high', u'low']","red",50,"middle","high","False","False",670,8050,NA
"A2BCNRHZU9V7C4","Sun Nov 01 2020 09:07:24 GMT-0700 (Mountain Standard Time)","Sun Nov 01 2020 09:17:21 GMT-0700 (Mountain Standard Time)","Mozilla/5.0 (Windows NT 6.1; Win64; x64) AppleWebKit/537.36 (KHTML, like Gecko) Chrome/86.0.4240.111 Safari/537.36",146,"[0.9, 0.5, 0.1]","[0.8, 0.4, 0.2]","[u'black', u'red', u'blue']","[u'left', u'middle', u'right']","[0.8, 0.4, 0.2]","[u'medium', u'high', u'low']","black",49,"left","medium","True","False",372,8150,NA
"A2BCNRHZU9V7C4","Sun Nov 01 2020 09:07:24 GMT-0700 (Mountain Standard Time)","Sun Nov 01 2020 09:17:21 GMT-0700 (Mountain Standard Time)","Mozilla/5.0 (Windows NT 6.1; Win64; x64) AppleWebKit/537.36 (KHTML, like Gecko) Chrome/86.0.4240.111 Safari/537.36",147,"[0.9, 0.5, 0.1]","[0.8, 0.4, 0.2]","[u'black', u'red', u'blue']","[u'left', u'middle', u'right']","[0.8, 0.4, 0.2]","[u'medium', u'high', u'low']","black",49,"left","medium","True","False",334,8250,NA
"A2BCNRHZU9V7C4","Sun Nov 01 2020 09:07:24 GMT-0700 (Mountain Standard Time)","Sun Nov 01 2020 09:17:21 GMT-0700 (Mountain Standard Time)","Mozilla/5.0 (Windows NT 6.1; Win64; x64) AppleWebKit/537.36 (KHTML, like Gecko) Chrome/86.0.4240.111 Safari/537.36",148,"[0.9, 0.5, 0.1]","[0.8, 0.4, 0.2]","[u'black', u'red', u'blue']","[u'left', u'middle', u'right']","[0.8, 0.4, 0.2]","[u'medium', u'high', u'low']","black",49,"left","medium","True","False",381,8350,NA
"A2BCNRHZU9V7C4","Sun Nov 01 2020 09:07:24 GMT-0700 (Mountain Standard Time)","Sun Nov 01 2020 09:17:21 GMT-0700 (Mountain Standard Time)","Mozilla/5.0 (Windows NT 6.1; Win64; x64) AppleWebKit/537.36 (KHTML, like Gecko) Chrome/86.0.4240.111 Safari/537.36",149,"[0.9, 0.5, 0.1]","[0.8, 0.4, 0.2]","[u'black', u'red', u'blue']","[u'left', u'middle', u'right']","[0.8, 0.4, 0.2]","[u'medium', u'high', u'low']","black",49,"left","medium","True","False",319,8450,NA
"A2BCNRHZU9V7C4","Sun Nov 01 2020 09:07:24 GMT-0700 (Mountain Standard Time)","Sun Nov 01 2020 09:17:21 GMT-0700 (Mountain Standard Time)","Mozilla/5.0 (Windows NT 6.1; Win64; x64) AppleWebKit/537.36 (KHTML, like Gecko) Chrome/86.0.4240.111 Safari/537.36",150,"[0.9, 0.5, 0.1]","[0.8, 0.4, 0.2]","[u'black', u'red', u'blue']","[u'left', u'middle', u'right']","[0.8, 0.4, 0.2]","[u'medium', u'high', u'low']","black",49,"left","medium","False","False",455,8400,NA
"A2BCNRHZU9V7C4","Sun Nov 01 2020 09:07:24 GMT-0700 (Mountain Standard Time)","Sun Nov 01 2020 09:17:21 GMT-0700 (Mountain Standard Time)","Mozilla/5.0 (Windows NT 6.1; Win64; x64) AppleWebKit/537.36 (KHTML, like Gecko) Chrome/86.0.4240.111 Safari/537.36",151,"[0.9, 0.5, 0.1]","[0.8, 0.4, 0.2]","[u'black', u'red', u'blue']","[u'left', u'middle', u'right']","[0.8, 0.4, 0.2]","[u'medium', u'high', u'low']","black",49,"left","medium","False","False",391,8350,NA
"A2BCNRHZU9V7C4","Sun Nov 01 2020 09:07:24 GMT-0700 (Mountain Standard Time)","Sun Nov 01 2020 09:17:21 GMT-0700 (Mountain Standard Time)","Mozilla/5.0 (Windows NT 6.1; Win64; x64) AppleWebKit/537.36 (KHTML, like Gecko) Chrome/86.0.4240.111 Safari/537.36",152,"[0.9, 0.5, 0.1]","[0.8, 0.4, 0.2]","[u'black', u'red', u'blue']","[u'left', u'middle', u'right']","[0.8, 0.4, 0.2]","[u'medium', u'high', u'low']","black",49,"left","medium","False","False",334,8300,NA
"A2BCNRHZU9V7C4","Sun Nov 01 2020 09:07:24 GMT-0700 (Mountain Standard Time)","Sun Nov 01 2020 09:17:21 GMT-0700 (Mountain Standard Time)","Mozilla/5.0 (Windows NT 6.1; Win64; x64) AppleWebKit/537.36 (KHTML, like Gecko) Chrome/86.0.4240.111 Safari/537.36",153,"[0.9, 0.5, 0.1]","[0.8, 0.4, 0.2]","[u'black', u'red', u'blue']","[u'left', u'middle', u'right']","[0.8, 0.4, 0.2]","[u'medium', u'high', u'low']","red",50,"middle","high","False","False",279,8250,NA
"A2BCNRHZU9V7C4","Sun Nov 01 2020 09:07:24 GMT-0700 (Mountain Standard Time)","Sun Nov 01 2020 09:17:21 GMT-0700 (Mountain Standard Time)","Mozilla/5.0 (Windows NT 6.1; Win64; x64) AppleWebKit/537.36 (KHTML, like Gecko) Chrome/86.0.4240.111 Safari/537.36",154,"[0.9, 0.5, 0.1]","[0.8, 0.4, 0.2]","[u'black', u'red', u'blue']","[u'left', u'middle', u'right']","[0.8, 0.4, 0.2]","[u'medium', u'high', u'low']","blue",51,"right","low","False","False",79,8200,NA
"A2BCNRHZU9V7C4","Sun Nov 01 2020 09:07:24 GMT-0700 (Mountain Standard Time)","Sun Nov 01 2020 09:17:21 GMT-0700 (Mountain Standard Time)","Mozilla/5.0 (Windows NT 6.1; Win64; x64) AppleWebKit/537.36 (KHTML, like Gecko) Chrome/86.0.4240.111 Safari/537.36",155,"[0.9, 0.5, 0.1]","[0.8, 0.4, 0.2]","[u'black', u'red', u'blue']","[u'left', u'middle', u'right']","[0.8, 0.4, 0.2]","[u'medium', u'high', u'low']","blue",51,"right","low","False","False",207,8150,NA
"A2BCNRHZU9V7C4","Sun Nov 01 2020 09:07:24 GMT-0700 (Mountain Standard Time)","Sun Nov 01 2020 09:17:21 GMT-0700 (Mountain Standard Time)","Mozilla/5.0 (Windows NT 6.1; Win64; x64) AppleWebKit/537.36 (KHTML, like Gecko) Chrome/86.0.4240.111 Safari/537.36",156,"[0.9, 0.5, 0.1]","[0.8, 0.4, 0.2]","[u'black', u'red', u'blue']","[u'left', u'middle', u'right']","[0.8, 0.4, 0.2]","[u'medium', u'high', u'low']","black",49,"left","medium","False","False",406,8100,NA
"A2BCNRHZU9V7C4","Sun Nov 01 2020 09:07:24 GMT-0700 (Mountain Standard Time)","Sun Nov 01 2020 09:17:21 GMT-0700 (Mountain Standard Time)","Mozilla/5.0 (Windows NT 6.1; Win64; x64) AppleWebKit/537.36 (KHTML, like Gecko) Chrome/86.0.4240.111 Safari/537.36",157,"[0.9, 0.5, 0.1]","[0.8, 0.4, 0.2]","[u'black', u'red', u'blue']","[u'left', u'middle', u'right']","[0.8, 0.4, 0.2]","[u'medium', u'high', u'low']","red",50,"middle","high","True","False",352,8200,NA
"A2BCNRHZU9V7C4","Sun Nov 01 2020 09:07:24 GMT-0700 (Mountain Standard Time)","Sun Nov 01 2020 09:17:21 GMT-0700 (Mountain Standard Time)","Mozilla/5.0 (Windows NT 6.1; Win64; x64) AppleWebKit/537.36 (KHTML, like Gecko) Chrome/86.0.4240.111 Safari/537.36",158,"[0.9, 0.5, 0.1]","[0.8, 0.4, 0.2]","[u'black', u'red', u'blue']","[u'left', u'middle', u'right']","[0.8, 0.4, 0.2]","[u'medium', u'high', u'low']","red",50,"middle","high","True","False",237,8300,NA
"A2BCNRHZU9V7C4","Sun Nov 01 2020 09:07:24 GMT-0700 (Mountain Standard Time)","Sun Nov 01 2020 09:17:21 GMT-0700 (Mountain Standard Time)","Mozilla/5.0 (Windows NT 6.1; Win64; x64) AppleWebKit/537.36 (KHTML, like Gecko) Chrome/86.0.4240.111 Safari/537.36",159,"[0.9, 0.5, 0.1]","[0.8, 0.4, 0.2]","[u'black', u'red', u'blue']","[u'left', u'middle', u'right']","[0.8, 0.4, 0.2]","[u'medium', u'high', u'low']","red",50,"middle","high","True","False",367,8400,NA
"A2BCNRHZU9V7C4","Sun Nov 01 2020 09:07:24 GMT-0700 (Mountain Standard Time)","Sun Nov 01 2020 09:17:21 GMT-0700 (Mountain Standard Time)","Mozilla/5.0 (Windows NT 6.1; Win64; x64) AppleWebKit/537.36 (KHTML, like Gecko) Chrome/86.0.4240.111 Safari/537.36",160,"[0.9, 0.5, 0.1]","[0.8, 0.4, 0.2]","[u'black', u'red', u'blue']","[u'left', u'middle', u'right']","[0.8, 0.4, 0.2]","[u'medium', u'high', u'low']","red",50,"middle","high","True","False",413,8500,NA
