"src_subject_id","start_time","end_time","browser","index","first_half_probabilities","second_half_probabilities","deck_color","deck_position","deck_probabilities","deck_contingencies","response_color","key_press","response_position","response_probability","reward_type","trial_type","rt","reward_tally","exclusion_reason"
"A1RHT4O55JQC2C","Sun Nov 01 2020 11:14:46 GMT-0600 (Central Standard Time)","Sun Nov 01 2020 11:25:10 GMT-0600 (Central Standard Time)","Mozilla/5.0 (Windows NT 10.0; Win64; x64) AppleWebKit/537.36 (KHTML, like Gecko) Chrome/86.0.4240.111 Safari/537.36",1,"[0.9, 0.5, 0.1]","[0.8, 0.4, 0.2]","[u'black', u'red', u'blue']","[u'left', u'middle', u'right']","[0.9, 0.5, 0.1]","[u'high', u'medium', u'low']","red",50,"middle","medium","True","False",1853,100,NA
"A1RHT4O55JQC2C","Sun Nov 01 2020 11:14:46 GMT-0600 (Central Standard Time)","Sun Nov 01 2020 11:25:10 GMT-0600 (Central Standard Time)","Mozilla/5.0 (Windows NT 10.0; Win64; x64) AppleWebKit/537.36 (KHTML, like Gecko) Chrome/86.0.4240.111 Safari/537.36",2,"[0.9, 0.5, 0.1]","[0.8, 0.4, 0.2]","[u'black', u'red', u'blue']","[u'left', u'middle', u'right']","[0.9, 0.5, 0.1]","[u'high', u'medium', u'low']","red",50,"middle","medium","True","False",472,200,NA
"A1RHT4O55JQC2C","Sun Nov 01 2020 11:14:46 GMT-0600 (Central Standard Time)","Sun Nov 01 2020 11:25:10 GMT-0600 (Central Standard Time)","Mozilla/5.0 (Windows NT 10.0; Win64; x64) AppleWebKit/537.36 (KHTML, like Gecko) Chrome/86.0.4240.111 Safari/537.36",3,"[0.9, 0.5, 0.1]","[0.8, 0.4, 0.2]","[u'black', u'red', u'blue']","[u'left', u'middle', u'right']","[0.9, 0.5, 0.1]","[u'high', u'medium', u'low']","red",50,"middle","medium","False","False",851,150,NA
"A1RHT4O55JQC2C","Sun Nov 01 2020 11:14:46 GMT-0600 (Central Standard Time)","Sun Nov 01 2020 11:25:10 GMT-0600 (Central Standard Time)","Mozilla/5.0 (Windows NT 10.0; Win64; x64) AppleWebKit/537.36 (KHTML, like Gecko) Chrome/86.0.4240.111 Safari/537.36",4,"[0.9, 0.5, 0.1]","[0.8, 0.4, 0.2]","[u'black', u'red', u'blue']","[u'left', u'middle', u'right']","[0.9, 0.5, 0.1]","[u'high', u'medium', u'low']","blue",51,"right","low","False","False",447,100,NA
"A1RHT4O55JQC2C","Sun Nov 01 2020 11:14:46 GMT-0600 (Central Standard Time)","Sun Nov 01 2020 11:25:10 GMT-0600 (Central Standard Time)","Mozilla/5.0 (Windows NT 10.0; Win64; x64) AppleWebKit/537.36 (KHTML, like Gecko) Chrome/86.0.4240.111 Safari/537.36",5,"[0.9, 0.5, 0.1]","[0.8, 0.4, 0.2]","[u'black', u'red', u'blue']","[u'left', u'middle', u'right']","[0.9, 0.5, 0.1]","[u'high', u'medium', u'low']","red",50,"middle","medium","True","False",557,200,NA
"A1RHT4O55JQC2C","Sun Nov 01 2020 11:14:46 GMT-0600 (Central Standard Time)","Sun Nov 01 2020 11:25:10 GMT-0600 (Central Standard Time)","Mozilla/5.0 (Windows NT 10.0; Win64; x64) AppleWebKit/537.36 (KHTML, like Gecko) Chrome/86.0.4240.111 Safari/537.36",6,"[0.9, 0.5, 0.1]","[0.8, 0.4, 0.2]","[u'black', u'red', u'blue']","[u'left', u'middle', u'right']","[0.9, 0.5, 0.1]","[u'high', u'medium', u'low']","red",50,"middle","medium","True","False",642,300,NA
"A1RHT4O55JQC2C","Sun Nov 01 2020 11:14:46 GMT-0600 (Central Standard Time)","Sun Nov 01 2020 11:25:10 GMT-0600 (Central Standard Time)","Mozilla/5.0 (Windows NT 10.0; Win64; x64) AppleWebKit/537.36 (KHTML, like Gecko) Chrome/86.0.4240.111 Safari/537.36",7,"[0.9, 0.5, 0.1]","[0.8, 0.4, 0.2]","[u'black', u'red', u'blue']","[u'left', u'middle', u'right']","[0.9, 0.5, 0.1]","[u'high', u'medium', u'low']","red",50,"middle","medium","False","False",712,250,NA
"A1RHT4O55JQC2C","Sun Nov 01 2020 11:14:46 GMT-0600 (Central Standard Time)","Sun Nov 01 2020 11:25:10 GMT-0600 (Central Standard Time)","Mozilla/5.0 (Windows NT 10.0; Win64; x64) AppleWebKit/537.36 (KHTML, like Gecko) Chrome/86.0.4240.111 Safari/537.36",8,"[0.9, 0.5, 0.1]","[0.8, 0.4, 0.2]","[u'black', u'red', u'blue']","[u'left', u'middle', u'right']","[0.9, 0.5, 0.1]","[u'high', u'medium', u'low']","black",49,"left","high","True","False",612,350,NA
"A1RHT4O55JQC2C","Sun Nov 01 2020 11:14:46 GMT-0600 (Central Standard Time)","Sun Nov 01 2020 11:25:10 GMT-0600 (Central Standard Time)","Mozilla/5.0 (Windows NT 10.0; Win64; x64) AppleWebKit/537.36 (KHTML, like Gecko) Chrome/86.0.4240.111 Safari/537.36",9,"[0.9, 0.5, 0.1]","[0.8, 0.4, 0.2]","[u'black', u'red', u'blue']","[u'left', u'middle', u'right']","[0.9, 0.5, 0.1]","[u'high', u'medium', u'low']","black",49,"left","high","True","False",393,450,NA
"A1RHT4O55JQC2C","Sun Nov 01 2020 11:14:46 GMT-0600 (Central Standard Time)","Sun Nov 01 2020 11:25:10 GMT-0600 (Central Standard Time)","Mozilla/5.0 (Windows NT 10.0; Win64; x64) AppleWebKit/537.36 (KHTML, like Gecko) Chrome/86.0.4240.111 Safari/537.36",10,"[0.9, 0.5, 0.1]","[0.8, 0.4, 0.2]","[u'black', u'red', u'blue']","[u'left', u'middle', u'right']","[0.9, 0.5, 0.1]","[u'high', u'medium', u'low']","black",49,"left","high","True","False",810,550,NA
"A1RHT4O55JQC2C","Sun Nov 01 2020 11:14:46 GMT-0600 (Central Standard Time)","Sun Nov 01 2020 11:25:10 GMT-0600 (Central Standard Time)","Mozilla/5.0 (Windows NT 10.0; Win64; x64) AppleWebKit/537.36 (KHTML, like Gecko) Chrome/86.0.4240.111 Safari/537.36",11,"[0.9, 0.5, 0.1]","[0.8, 0.4, 0.2]","[u'black', u'red', u'blue']","[u'left', u'middle', u'right']","[0.9, 0.5, 0.1]","[u'high', u'medium', u'low']","black",49,"left","high","True","False",804,650,NA
"A1RHT4O55JQC2C","Sun Nov 01 2020 11:14:46 GMT-0600 (Central Standard Time)","Sun Nov 01 2020 11:25:10 GMT-0600 (Central Standard Time)","Mozilla/5.0 (Windows NT 10.0; Win64; x64) AppleWebKit/537.36 (KHTML, like Gecko) Chrome/86.0.4240.111 Safari/537.36",12,"[0.9, 0.5, 0.1]","[0.8, 0.4, 0.2]","[u'black', u'red', u'blue']","[u'left', u'middle', u'right']","[0.9, 0.5, 0.1]","[u'high', u'medium', u'low']","black",49,"left","high","False","False",685,600,NA
"A1RHT4O55JQC2C","Sun Nov 01 2020 11:14:46 GMT-0600 (Central Standard Time)","Sun Nov 01 2020 11:25:10 GMT-0600 (Central Standard Time)","Mozilla/5.0 (Windows NT 10.0; Win64; x64) AppleWebKit/537.36 (KHTML, like Gecko) Chrome/86.0.4240.111 Safari/537.36",13,"[0.9, 0.5, 0.1]","[0.8, 0.4, 0.2]","[u'black', u'red', u'blue']","[u'left', u'middle', u'right']","[0.9, 0.5, 0.1]","[u'high', u'medium', u'low']","red",50,"middle","medium","False","False",787,550,NA
"A1RHT4O55JQC2C","Sun Nov 01 2020 11:14:46 GMT-0600 (Central Standard Time)","Sun Nov 01 2020 11:25:10 GMT-0600 (Central Standard Time)","Mozilla/5.0 (Windows NT 10.0; Win64; x64) AppleWebKit/537.36 (KHTML, like Gecko) Chrome/86.0.4240.111 Safari/537.36",14,"[0.9, 0.5, 0.1]","[0.8, 0.4, 0.2]","[u'black', u'red', u'blue']","[u'left', u'middle', u'right']","[0.9, 0.5, 0.1]","[u'high', u'medium', u'low']","black",49,"left","high","True","False",402,650,NA
"A1RHT4O55JQC2C","Sun Nov 01 2020 11:14:46 GMT-0600 (Central Standard Time)","Sun Nov 01 2020 11:25:10 GMT-0600 (Central Standard Time)","Mozilla/5.0 (Windows NT 10.0; Win64; x64) AppleWebKit/537.36 (KHTML, like Gecko) Chrome/86.0.4240.111 Safari/537.36",15,"[0.9, 0.5, 0.1]","[0.8, 0.4, 0.2]","[u'black', u'red', u'blue']","[u'left', u'middle', u'right']","[0.9, 0.5, 0.1]","[u'high', u'medium', u'low']","black",49,"left","high","False","False",621,600,NA
"A1RHT4O55JQC2C","Sun Nov 01 2020 11:14:46 GMT-0600 (Central Standard Time)","Sun Nov 01 2020 11:25:10 GMT-0600 (Central Standard Time)","Mozilla/5.0 (Windows NT 10.0; Win64; x64) AppleWebKit/537.36 (KHTML, like Gecko) Chrome/86.0.4240.111 Safari/537.36",16,"[0.9, 0.5, 0.1]","[0.8, 0.4, 0.2]","[u'black', u'red', u'blue']","[u'left', u'middle', u'right']","[0.9, 0.5, 0.1]","[u'high', u'medium', u'low']","black",49,"left","high","True","False",1031,700,NA
"A1RHT4O55JQC2C","Sun Nov 01 2020 11:14:46 GMT-0600 (Central Standard Time)","Sun Nov 01 2020 11:25:10 GMT-0600 (Central Standard Time)","Mozilla/5.0 (Windows NT 10.0; Win64; x64) AppleWebKit/537.36 (KHTML, like Gecko) Chrome/86.0.4240.111 Safari/537.36",17,"[0.9, 0.5, 0.1]","[0.8, 0.4, 0.2]","[u'black', u'red', u'blue']","[u'left', u'middle', u'right']","[0.9, 0.5, 0.1]","[u'high', u'medium', u'low']","red",50,"middle","medium","False","False",841,650,NA
"A1RHT4O55JQC2C","Sun Nov 01 2020 11:14:46 GMT-0600 (Central Standard Time)","Sun Nov 01 2020 11:25:10 GMT-0600 (Central Standard Time)","Mozilla/5.0 (Windows NT 10.0; Win64; x64) AppleWebKit/537.36 (KHTML, like Gecko) Chrome/86.0.4240.111 Safari/537.36",18,"[0.9, 0.5, 0.1]","[0.8, 0.4, 0.2]","[u'black', u'red', u'blue']","[u'left', u'middle', u'right']","[0.9, 0.5, 0.1]","[u'high', u'medium', u'low']","red",50,"middle","medium","True","False",320,750,NA
"A1RHT4O55JQC2C","Sun Nov 01 2020 11:14:46 GMT-0600 (Central Standard Time)","Sun Nov 01 2020 11:25:10 GMT-0600 (Central Standard Time)","Mozilla/5.0 (Windows NT 10.0; Win64; x64) AppleWebKit/537.36 (KHTML, like Gecko) Chrome/86.0.4240.111 Safari/537.36",19,"[0.9, 0.5, 0.1]","[0.8, 0.4, 0.2]","[u'black', u'red', u'blue']","[u'left', u'middle', u'right']","[0.9, 0.5, 0.1]","[u'high', u'medium', u'low']","black",49,"left","high","False","False",1548,700,NA
"A1RHT4O55JQC2C","Sun Nov 01 2020 11:14:46 GMT-0600 (Central Standard Time)","Sun Nov 01 2020 11:25:10 GMT-0600 (Central Standard Time)","Mozilla/5.0 (Windows NT 10.0; Win64; x64) AppleWebKit/537.36 (KHTML, like Gecko) Chrome/86.0.4240.111 Safari/537.36",20,"[0.9, 0.5, 0.1]","[0.8, 0.4, 0.2]","[u'black', u'red', u'blue']","[u'left', u'middle', u'right']","[0.9, 0.5, 0.1]","[u'high', u'medium', u'low']","black",49,"left","high","True","False",395,800,NA
"A1RHT4O55JQC2C","Sun Nov 01 2020 11:14:46 GMT-0600 (Central Standard Time)","Sun Nov 01 2020 11:25:10 GMT-0600 (Central Standard Time)","Mozilla/5.0 (Windows NT 10.0; Win64; x64) AppleWebKit/537.36 (KHTML, like Gecko) Chrome/86.0.4240.111 Safari/537.36",21,"[0.9, 0.5, 0.1]","[0.8, 0.4, 0.2]","[u'black', u'red', u'blue']","[u'left', u'middle', u'right']","[0.9, 0.5, 0.1]","[u'high', u'medium', u'low']","black",49,"left","high","True","False",1302,900,NA
"A1RHT4O55JQC2C","Sun Nov 01 2020 11:14:46 GMT-0600 (Central Standard Time)","Sun Nov 01 2020 11:25:10 GMT-0600 (Central Standard Time)","Mozilla/5.0 (Windows NT 10.0; Win64; x64) AppleWebKit/537.36 (KHTML, like Gecko) Chrome/86.0.4240.111 Safari/537.36",22,"[0.9, 0.5, 0.1]","[0.8, 0.4, 0.2]","[u'black', u'red', u'blue']","[u'left', u'middle', u'right']","[0.9, 0.5, 0.1]","[u'high', u'medium', u'low']","black",49,"left","high","True","False",1070,1000,NA
"A1RHT4O55JQC2C","Sun Nov 01 2020 11:14:46 GMT-0600 (Central Standard Time)","Sun Nov 01 2020 11:25:10 GMT-0600 (Central Standard Time)","Mozilla/5.0 (Windows NT 10.0; Win64; x64) AppleWebKit/537.36 (KHTML, like Gecko) Chrome/86.0.4240.111 Safari/537.36",23,"[0.9, 0.5, 0.1]","[0.8, 0.4, 0.2]","[u'black', u'red', u'blue']","[u'left', u'middle', u'right']","[0.9, 0.5, 0.1]","[u'high', u'medium', u'low']","black",49,"left","high","True","False",807,1100,NA
"A1RHT4O55JQC2C","Sun Nov 01 2020 11:14:46 GMT-0600 (Central Standard Time)","Sun Nov 01 2020 11:25:10 GMT-0600 (Central Standard Time)","Mozilla/5.0 (Windows NT 10.0; Win64; x64) AppleWebKit/537.36 (KHTML, like Gecko) Chrome/86.0.4240.111 Safari/537.36",24,"[0.9, 0.5, 0.1]","[0.8, 0.4, 0.2]","[u'black', u'red', u'blue']","[u'left', u'middle', u'right']","[0.9, 0.5, 0.1]","[u'high', u'medium', u'low']","black",49,"left","high","False","False",583,1050,NA
"A1RHT4O55JQC2C","Sun Nov 01 2020 11:14:46 GMT-0600 (Central Standard Time)","Sun Nov 01 2020 11:25:10 GMT-0600 (Central Standard Time)","Mozilla/5.0 (Windows NT 10.0; Win64; x64) AppleWebKit/537.36 (KHTML, like Gecko) Chrome/86.0.4240.111 Safari/537.36",25,"[0.9, 0.5, 0.1]","[0.8, 0.4, 0.2]","[u'black', u'red', u'blue']","[u'left', u'middle', u'right']","[0.9, 0.5, 0.1]","[u'high', u'medium', u'low']","black",49,"left","high","True","False",385,1150,NA
"A1RHT4O55JQC2C","Sun Nov 01 2020 11:14:46 GMT-0600 (Central Standard Time)","Sun Nov 01 2020 11:25:10 GMT-0600 (Central Standard Time)","Mozilla/5.0 (Windows NT 10.0; Win64; x64) AppleWebKit/537.36 (KHTML, like Gecko) Chrome/86.0.4240.111 Safari/537.36",26,"[0.9, 0.5, 0.1]","[0.8, 0.4, 0.2]","[u'black', u'red', u'blue']","[u'left', u'middle', u'right']","[0.9, 0.5, 0.1]","[u'high', u'medium', u'low']","black",49,"left","high","True","False",599,1250,NA
"A1RHT4O55JQC2C","Sun Nov 01 2020 11:14:46 GMT-0600 (Central Standard Time)","Sun Nov 01 2020 11:25:10 GMT-0600 (Central Standard Time)","Mozilla/5.0 (Windows NT 10.0; Win64; x64) AppleWebKit/537.36 (KHTML, like Gecko) Chrome/86.0.4240.111 Safari/537.36",27,"[0.9, 0.5, 0.1]","[0.8, 0.4, 0.2]","[u'black', u'red', u'blue']","[u'left', u'middle', u'right']","[0.9, 0.5, 0.1]","[u'high', u'medium', u'low']","black",49,"left","high","True","True",348,1350,NA
"A1RHT4O55JQC2C","Sun Nov 01 2020 11:14:46 GMT-0600 (Central Standard Time)","Sun Nov 01 2020 11:25:10 GMT-0600 (Central Standard Time)","Mozilla/5.0 (Windows NT 10.0; Win64; x64) AppleWebKit/537.36 (KHTML, like Gecko) Chrome/86.0.4240.111 Safari/537.36",28,"[0.9, 0.5, 0.1]","[0.8, 0.4, 0.2]","[u'black', u'red', u'blue']","[u'left', u'middle', u'right']","[0.9, 0.5, 0.1]","[u'medium', u'low', u'high']","black",49,"left","medium","False","False",353,1300,NA
"A1RHT4O55JQC2C","Sun Nov 01 2020 11:14:46 GMT-0600 (Central Standard Time)","Sun Nov 01 2020 11:25:10 GMT-0600 (Central Standard Time)","Mozilla/5.0 (Windows NT 10.0; Win64; x64) AppleWebKit/537.36 (KHTML, like Gecko) Chrome/86.0.4240.111 Safari/537.36",29,"[0.9, 0.5, 0.1]","[0.8, 0.4, 0.2]","[u'black', u'red', u'blue']","[u'left', u'middle', u'right']","[0.9, 0.5, 0.1]","[u'medium', u'low', u'high']","black",49,"left","medium","True","False",299,1400,NA
"A1RHT4O55JQC2C","Sun Nov 01 2020 11:14:46 GMT-0600 (Central Standard Time)","Sun Nov 01 2020 11:25:10 GMT-0600 (Central Standard Time)","Mozilla/5.0 (Windows NT 10.0; Win64; x64) AppleWebKit/537.36 (KHTML, like Gecko) Chrome/86.0.4240.111 Safari/537.36",30,"[0.9, 0.5, 0.1]","[0.8, 0.4, 0.2]","[u'black', u'red', u'blue']","[u'left', u'middle', u'right']","[0.9, 0.5, 0.1]","[u'medium', u'low', u'high']","black",49,"left","medium","False","False",532,1350,NA
"A1RHT4O55JQC2C","Sun Nov 01 2020 11:14:46 GMT-0600 (Central Standard Time)","Sun Nov 01 2020 11:25:10 GMT-0600 (Central Standard Time)","Mozilla/5.0 (Windows NT 10.0; Win64; x64) AppleWebKit/537.36 (KHTML, like Gecko) Chrome/86.0.4240.111 Safari/537.36",31,"[0.9, 0.5, 0.1]","[0.8, 0.4, 0.2]","[u'black', u'red', u'blue']","[u'left', u'middle', u'right']","[0.9, 0.5, 0.1]","[u'medium', u'low', u'high']","red",50,"middle","low","True","False",50,1450,NA
"A1RHT4O55JQC2C","Sun Nov 01 2020 11:14:46 GMT-0600 (Central Standard Time)","Sun Nov 01 2020 11:25:10 GMT-0600 (Central Standard Time)","Mozilla/5.0 (Windows NT 10.0; Win64; x64) AppleWebKit/537.36 (KHTML, like Gecko) Chrome/86.0.4240.111 Safari/537.36",32,"[0.9, 0.5, 0.1]","[0.8, 0.4, 0.2]","[u'black', u'red', u'blue']","[u'left', u'middle', u'right']","[0.9, 0.5, 0.1]","[u'medium', u'low', u'high']","red",50,"middle","low","False","False",319,1400,NA
"A1RHT4O55JQC2C","Sun Nov 01 2020 11:14:46 GMT-0600 (Central Standard Time)","Sun Nov 01 2020 11:25:10 GMT-0600 (Central Standard Time)","Mozilla/5.0 (Windows NT 10.0; Win64; x64) AppleWebKit/537.36 (KHTML, like Gecko) Chrome/86.0.4240.111 Safari/537.36",33,"[0.9, 0.5, 0.1]","[0.8, 0.4, 0.2]","[u'black', u'red', u'blue']","[u'left', u'middle', u'right']","[0.9, 0.5, 0.1]","[u'medium', u'low', u'high']","red",50,"middle","low","False","False",736,1350,NA
"A1RHT4O55JQC2C","Sun Nov 01 2020 11:14:46 GMT-0600 (Central Standard Time)","Sun Nov 01 2020 11:25:10 GMT-0600 (Central Standard Time)","Mozilla/5.0 (Windows NT 10.0; Win64; x64) AppleWebKit/537.36 (KHTML, like Gecko) Chrome/86.0.4240.111 Safari/537.36",34,"[0.9, 0.5, 0.1]","[0.8, 0.4, 0.2]","[u'black', u'red', u'blue']","[u'left', u'middle', u'right']","[0.9, 0.5, 0.1]","[u'medium', u'low', u'high']","black",49,"left","medium","False","False",334,1300,NA
"A1RHT4O55JQC2C","Sun Nov 01 2020 11:14:46 GMT-0600 (Central Standard Time)","Sun Nov 01 2020 11:25:10 GMT-0600 (Central Standard Time)","Mozilla/5.0 (Windows NT 10.0; Win64; x64) AppleWebKit/537.36 (KHTML, like Gecko) Chrome/86.0.4240.111 Safari/537.36",35,"[0.9, 0.5, 0.1]","[0.8, 0.4, 0.2]","[u'black', u'red', u'blue']","[u'left', u'middle', u'right']","[0.9, 0.5, 0.1]","[u'medium', u'low', u'high']","blue",51,"right","high","True","False",277,1400,NA
"A1RHT4O55JQC2C","Sun Nov 01 2020 11:14:46 GMT-0600 (Central Standard Time)","Sun Nov 01 2020 11:25:10 GMT-0600 (Central Standard Time)","Mozilla/5.0 (Windows NT 10.0; Win64; x64) AppleWebKit/537.36 (KHTML, like Gecko) Chrome/86.0.4240.111 Safari/537.36",36,"[0.9, 0.5, 0.1]","[0.8, 0.4, 0.2]","[u'black', u'red', u'blue']","[u'left', u'middle', u'right']","[0.9, 0.5, 0.1]","[u'medium', u'low', u'high']","blue",51,"right","high","False","False",324,1350,NA
"A1RHT4O55JQC2C","Sun Nov 01 2020 11:14:46 GMT-0600 (Central Standard Time)","Sun Nov 01 2020 11:25:10 GMT-0600 (Central Standard Time)","Mozilla/5.0 (Windows NT 10.0; Win64; x64) AppleWebKit/537.36 (KHTML, like Gecko) Chrome/86.0.4240.111 Safari/537.36",37,"[0.9, 0.5, 0.1]","[0.8, 0.4, 0.2]","[u'black', u'red', u'blue']","[u'left', u'middle', u'right']","[0.9, 0.5, 0.1]","[u'medium', u'low', u'high']","blue",51,"right","high","True","False",536,1450,NA
"A1RHT4O55JQC2C","Sun Nov 01 2020 11:14:46 GMT-0600 (Central Standard Time)","Sun Nov 01 2020 11:25:10 GMT-0600 (Central Standard Time)","Mozilla/5.0 (Windows NT 10.0; Win64; x64) AppleWebKit/537.36 (KHTML, like Gecko) Chrome/86.0.4240.111 Safari/537.36",38,"[0.9, 0.5, 0.1]","[0.8, 0.4, 0.2]","[u'black', u'red', u'blue']","[u'left', u'middle', u'right']","[0.9, 0.5, 0.1]","[u'medium', u'low', u'high']","blue",51,"right","high","False","False",353,1400,NA
"A1RHT4O55JQC2C","Sun Nov 01 2020 11:14:46 GMT-0600 (Central Standard Time)","Sun Nov 01 2020 11:25:10 GMT-0600 (Central Standard Time)","Mozilla/5.0 (Windows NT 10.0; Win64; x64) AppleWebKit/537.36 (KHTML, like Gecko) Chrome/86.0.4240.111 Safari/537.36",39,"[0.9, 0.5, 0.1]","[0.8, 0.4, 0.2]","[u'black', u'red', u'blue']","[u'left', u'middle', u'right']","[0.9, 0.5, 0.1]","[u'medium', u'low', u'high']","red",50,"middle","low","False","False",1037,1350,NA
"A1RHT4O55JQC2C","Sun Nov 01 2020 11:14:46 GMT-0600 (Central Standard Time)","Sun Nov 01 2020 11:25:10 GMT-0600 (Central Standard Time)","Mozilla/5.0 (Windows NT 10.0; Win64; x64) AppleWebKit/537.36 (KHTML, like Gecko) Chrome/86.0.4240.111 Safari/537.36",40,"[0.9, 0.5, 0.1]","[0.8, 0.4, 0.2]","[u'black', u'red', u'blue']","[u'left', u'middle', u'right']","[0.9, 0.5, 0.1]","[u'medium', u'low', u'high']","red",50,"middle","low","False","False",389,1300,NA
"A1RHT4O55JQC2C","Sun Nov 01 2020 11:14:46 GMT-0600 (Central Standard Time)","Sun Nov 01 2020 11:25:10 GMT-0600 (Central Standard Time)","Mozilla/5.0 (Windows NT 10.0; Win64; x64) AppleWebKit/537.36 (KHTML, like Gecko) Chrome/86.0.4240.111 Safari/537.36",41,"[0.9, 0.5, 0.1]","[0.8, 0.4, 0.2]","[u'black', u'red', u'blue']","[u'left', u'middle', u'right']","[0.9, 0.5, 0.1]","[u'high', u'medium', u'low']","black",49,"left","high","False","False",1625,1250,NA
"A1RHT4O55JQC2C","Sun Nov 01 2020 11:14:46 GMT-0600 (Central Standard Time)","Sun Nov 01 2020 11:25:10 GMT-0600 (Central Standard Time)","Mozilla/5.0 (Windows NT 10.0; Win64; x64) AppleWebKit/537.36 (KHTML, like Gecko) Chrome/86.0.4240.111 Safari/537.36",42,"[0.9, 0.5, 0.1]","[0.8, 0.4, 0.2]","[u'black', u'red', u'blue']","[u'left', u'middle', u'right']","[0.9, 0.5, 0.1]","[u'high', u'medium', u'low']","black",49,"left","high","True","False",316,1350,NA
"A1RHT4O55JQC2C","Sun Nov 01 2020 11:14:46 GMT-0600 (Central Standard Time)","Sun Nov 01 2020 11:25:10 GMT-0600 (Central Standard Time)","Mozilla/5.0 (Windows NT 10.0; Win64; x64) AppleWebKit/537.36 (KHTML, like Gecko) Chrome/86.0.4240.111 Safari/537.36",43,"[0.9, 0.5, 0.1]","[0.8, 0.4, 0.2]","[u'black', u'red', u'blue']","[u'left', u'middle', u'right']","[0.9, 0.5, 0.1]","[u'high', u'medium', u'low']","black",49,"left","high","True","False",258,1450,NA
"A1RHT4O55JQC2C","Sun Nov 01 2020 11:14:46 GMT-0600 (Central Standard Time)","Sun Nov 01 2020 11:25:10 GMT-0600 (Central Standard Time)","Mozilla/5.0 (Windows NT 10.0; Win64; x64) AppleWebKit/537.36 (KHTML, like Gecko) Chrome/86.0.4240.111 Safari/537.36",44,"[0.9, 0.5, 0.1]","[0.8, 0.4, 0.2]","[u'black', u'red', u'blue']","[u'left', u'middle', u'right']","[0.9, 0.5, 0.1]","[u'high', u'medium', u'low']","black",49,"left","high","True","False",541,1550,NA
"A1RHT4O55JQC2C","Sun Nov 01 2020 11:14:46 GMT-0600 (Central Standard Time)","Sun Nov 01 2020 11:25:10 GMT-0600 (Central Standard Time)","Mozilla/5.0 (Windows NT 10.0; Win64; x64) AppleWebKit/537.36 (KHTML, like Gecko) Chrome/86.0.4240.111 Safari/537.36",45,"[0.9, 0.5, 0.1]","[0.8, 0.4, 0.2]","[u'black', u'red', u'blue']","[u'left', u'middle', u'right']","[0.9, 0.5, 0.1]","[u'high', u'medium', u'low']","black",49,"left","high","False","False",286,1500,NA
"A1RHT4O55JQC2C","Sun Nov 01 2020 11:14:46 GMT-0600 (Central Standard Time)","Sun Nov 01 2020 11:25:10 GMT-0600 (Central Standard Time)","Mozilla/5.0 (Windows NT 10.0; Win64; x64) AppleWebKit/537.36 (KHTML, like Gecko) Chrome/86.0.4240.111 Safari/537.36",46,"[0.9, 0.5, 0.1]","[0.8, 0.4, 0.2]","[u'black', u'red', u'blue']","[u'left', u'middle', u'right']","[0.9, 0.5, 0.1]","[u'high', u'medium', u'low']","black",49,"left","high","True","False",361,1600,NA
"A1RHT4O55JQC2C","Sun Nov 01 2020 11:14:46 GMT-0600 (Central Standard Time)","Sun Nov 01 2020 11:25:10 GMT-0600 (Central Standard Time)","Mozilla/5.0 (Windows NT 10.0; Win64; x64) AppleWebKit/537.36 (KHTML, like Gecko) Chrome/86.0.4240.111 Safari/537.36",47,"[0.9, 0.5, 0.1]","[0.8, 0.4, 0.2]","[u'black', u'red', u'blue']","[u'left', u'middle', u'right']","[0.9, 0.5, 0.1]","[u'high', u'medium', u'low']","black",49,"left","high","True","False",437,1700,NA
"A1RHT4O55JQC2C","Sun Nov 01 2020 11:14:46 GMT-0600 (Central Standard Time)","Sun Nov 01 2020 11:25:10 GMT-0600 (Central Standard Time)","Mozilla/5.0 (Windows NT 10.0; Win64; x64) AppleWebKit/537.36 (KHTML, like Gecko) Chrome/86.0.4240.111 Safari/537.36",48,"[0.9, 0.5, 0.1]","[0.8, 0.4, 0.2]","[u'black', u'red', u'blue']","[u'left', u'middle', u'right']","[0.9, 0.5, 0.1]","[u'high', u'medium', u'low']","black",49,"left","high","True","False",365,1800,NA
"A1RHT4O55JQC2C","Sun Nov 01 2020 11:14:46 GMT-0600 (Central Standard Time)","Sun Nov 01 2020 11:25:10 GMT-0600 (Central Standard Time)","Mozilla/5.0 (Windows NT 10.0; Win64; x64) AppleWebKit/537.36 (KHTML, like Gecko) Chrome/86.0.4240.111 Safari/537.36",49,"[0.9, 0.5, 0.1]","[0.8, 0.4, 0.2]","[u'black', u'red', u'blue']","[u'left', u'middle', u'right']","[0.9, 0.5, 0.1]","[u'high', u'medium', u'low']","black",49,"left","high","True","True",410,1900,NA
"A1RHT4O55JQC2C","Sun Nov 01 2020 11:14:46 GMT-0600 (Central Standard Time)","Sun Nov 01 2020 11:25:10 GMT-0600 (Central Standard Time)","Mozilla/5.0 (Windows NT 10.0; Win64; x64) AppleWebKit/537.36 (KHTML, like Gecko) Chrome/86.0.4240.111 Safari/537.36",50,"[0.9, 0.5, 0.1]","[0.8, 0.4, 0.2]","[u'black', u'red', u'blue']","[u'left', u'middle', u'right']","[0.9, 0.5, 0.1]","[u'low', u'high', u'medium']","black",49,"left","low","False","False",271,1850,NA
"A1RHT4O55JQC2C","Sun Nov 01 2020 11:14:46 GMT-0600 (Central Standard Time)","Sun Nov 01 2020 11:25:10 GMT-0600 (Central Standard Time)","Mozilla/5.0 (Windows NT 10.0; Win64; x64) AppleWebKit/537.36 (KHTML, like Gecko) Chrome/86.0.4240.111 Safari/537.36",51,"[0.9, 0.5, 0.1]","[0.8, 0.4, 0.2]","[u'black', u'red', u'blue']","[u'left', u'middle', u'right']","[0.9, 0.5, 0.1]","[u'low', u'high', u'medium']","black",49,"left","low","False","False",482,1800,NA
"A1RHT4O55JQC2C","Sun Nov 01 2020 11:14:46 GMT-0600 (Central Standard Time)","Sun Nov 01 2020 11:25:10 GMT-0600 (Central Standard Time)","Mozilla/5.0 (Windows NT 10.0; Win64; x64) AppleWebKit/537.36 (KHTML, like Gecko) Chrome/86.0.4240.111 Safari/537.36",52,"[0.9, 0.5, 0.1]","[0.8, 0.4, 0.2]","[u'black', u'red', u'blue']","[u'left', u'middle', u'right']","[0.9, 0.5, 0.1]","[u'low', u'high', u'medium']","red",50,"middle","high","True","False",404,1900,NA
"A1RHT4O55JQC2C","Sun Nov 01 2020 11:14:46 GMT-0600 (Central Standard Time)","Sun Nov 01 2020 11:25:10 GMT-0600 (Central Standard Time)","Mozilla/5.0 (Windows NT 10.0; Win64; x64) AppleWebKit/537.36 (KHTML, like Gecko) Chrome/86.0.4240.111 Safari/537.36",53,"[0.9, 0.5, 0.1]","[0.8, 0.4, 0.2]","[u'black', u'red', u'blue']","[u'left', u'middle', u'right']","[0.9, 0.5, 0.1]","[u'low', u'high', u'medium']","red",50,"middle","high","True","False",218,2000,NA
"A1RHT4O55JQC2C","Sun Nov 01 2020 11:14:46 GMT-0600 (Central Standard Time)","Sun Nov 01 2020 11:25:10 GMT-0600 (Central Standard Time)","Mozilla/5.0 (Windows NT 10.0; Win64; x64) AppleWebKit/537.36 (KHTML, like Gecko) Chrome/86.0.4240.111 Safari/537.36",54,"[0.9, 0.5, 0.1]","[0.8, 0.4, 0.2]","[u'black', u'red', u'blue']","[u'left', u'middle', u'right']","[0.9, 0.5, 0.1]","[u'low', u'high', u'medium']","red",50,"middle","high","True","False",302,2100,NA
"A1RHT4O55JQC2C","Sun Nov 01 2020 11:14:46 GMT-0600 (Central Standard Time)","Sun Nov 01 2020 11:25:10 GMT-0600 (Central Standard Time)","Mozilla/5.0 (Windows NT 10.0; Win64; x64) AppleWebKit/537.36 (KHTML, like Gecko) Chrome/86.0.4240.111 Safari/537.36",55,"[0.9, 0.5, 0.1]","[0.8, 0.4, 0.2]","[u'black', u'red', u'blue']","[u'left', u'middle', u'right']","[0.9, 0.5, 0.1]","[u'low', u'high', u'medium']","red",50,"middle","high","True","False",220,2200,NA
"A1RHT4O55JQC2C","Sun Nov 01 2020 11:14:46 GMT-0600 (Central Standard Time)","Sun Nov 01 2020 11:25:10 GMT-0600 (Central Standard Time)","Mozilla/5.0 (Windows NT 10.0; Win64; x64) AppleWebKit/537.36 (KHTML, like Gecko) Chrome/86.0.4240.111 Safari/537.36",56,"[0.9, 0.5, 0.1]","[0.8, 0.4, 0.2]","[u'black', u'red', u'blue']","[u'left', u'middle', u'right']","[0.9, 0.5, 0.1]","[u'low', u'high', u'medium']","red",50,"middle","high","True","False",245,2300,NA
"A1RHT4O55JQC2C","Sun Nov 01 2020 11:14:46 GMT-0600 (Central Standard Time)","Sun Nov 01 2020 11:25:10 GMT-0600 (Central Standard Time)","Mozilla/5.0 (Windows NT 10.0; Win64; x64) AppleWebKit/537.36 (KHTML, like Gecko) Chrome/86.0.4240.111 Safari/537.36",57,"[0.9, 0.5, 0.1]","[0.8, 0.4, 0.2]","[u'black', u'red', u'blue']","[u'left', u'middle', u'right']","[0.9, 0.5, 0.1]","[u'low', u'high', u'medium']","red",50,"middle","high","True","False",248,2400,NA
"A1RHT4O55JQC2C","Sun Nov 01 2020 11:14:46 GMT-0600 (Central Standard Time)","Sun Nov 01 2020 11:25:10 GMT-0600 (Central Standard Time)","Mozilla/5.0 (Windows NT 10.0; Win64; x64) AppleWebKit/537.36 (KHTML, like Gecko) Chrome/86.0.4240.111 Safari/537.36",58,"[0.9, 0.5, 0.1]","[0.8, 0.4, 0.2]","[u'black', u'red', u'blue']","[u'left', u'middle', u'right']","[0.9, 0.5, 0.1]","[u'low', u'high', u'medium']","red",50,"middle","high","True","False",963,2500,NA
"A1RHT4O55JQC2C","Sun Nov 01 2020 11:14:46 GMT-0600 (Central Standard Time)","Sun Nov 01 2020 11:25:10 GMT-0600 (Central Standard Time)","Mozilla/5.0 (Windows NT 10.0; Win64; x64) AppleWebKit/537.36 (KHTML, like Gecko) Chrome/86.0.4240.111 Safari/537.36",59,"[0.9, 0.5, 0.1]","[0.8, 0.4, 0.2]","[u'black', u'red', u'blue']","[u'left', u'middle', u'right']","[0.9, 0.5, 0.1]","[u'low', u'high', u'medium']","red",50,"middle","high","True","False",410,2600,NA
"A1RHT4O55JQC2C","Sun Nov 01 2020 11:14:46 GMT-0600 (Central Standard Time)","Sun Nov 01 2020 11:25:10 GMT-0600 (Central Standard Time)","Mozilla/5.0 (Windows NT 10.0; Win64; x64) AppleWebKit/537.36 (KHTML, like Gecko) Chrome/86.0.4240.111 Safari/537.36",60,"[0.9, 0.5, 0.1]","[0.8, 0.4, 0.2]","[u'black', u'red', u'blue']","[u'left', u'middle', u'right']","[0.9, 0.5, 0.1]","[u'low', u'high', u'medium']","red",50,"middle","high","True","True",321,2700,NA
"A1RHT4O55JQC2C","Sun Nov 01 2020 11:14:46 GMT-0600 (Central Standard Time)","Sun Nov 01 2020 11:25:10 GMT-0600 (Central Standard Time)","Mozilla/5.0 (Windows NT 10.0; Win64; x64) AppleWebKit/537.36 (KHTML, like Gecko) Chrome/86.0.4240.111 Safari/537.36",61,"[0.9, 0.5, 0.1]","[0.8, 0.4, 0.2]","[u'black', u'red', u'blue']","[u'left', u'middle', u'right']","[0.9, 0.5, 0.1]","[u'high', u'low', u'medium']","red",50,"middle","low","False","False",353,2650,NA
"A1RHT4O55JQC2C","Sun Nov 01 2020 11:14:46 GMT-0600 (Central Standard Time)","Sun Nov 01 2020 11:25:10 GMT-0600 (Central Standard Time)","Mozilla/5.0 (Windows NT 10.0; Win64; x64) AppleWebKit/537.36 (KHTML, like Gecko) Chrome/86.0.4240.111 Safari/537.36",62,"[0.9, 0.5, 0.1]","[0.8, 0.4, 0.2]","[u'black', u'red', u'blue']","[u'left', u'middle', u'right']","[0.9, 0.5, 0.1]","[u'high', u'low', u'medium']","red",50,"middle","low","False","False",164,2600,NA
"A1RHT4O55JQC2C","Sun Nov 01 2020 11:14:46 GMT-0600 (Central Standard Time)","Sun Nov 01 2020 11:25:10 GMT-0600 (Central Standard Time)","Mozilla/5.0 (Windows NT 10.0; Win64; x64) AppleWebKit/537.36 (KHTML, like Gecko) Chrome/86.0.4240.111 Safari/537.36",63,"[0.9, 0.5, 0.1]","[0.8, 0.4, 0.2]","[u'black', u'red', u'blue']","[u'left', u'middle', u'right']","[0.9, 0.5, 0.1]","[u'high', u'low', u'medium']","black",49,"left","high","True","False",201,2700,NA
"A1RHT4O55JQC2C","Sun Nov 01 2020 11:14:46 GMT-0600 (Central Standard Time)","Sun Nov 01 2020 11:25:10 GMT-0600 (Central Standard Time)","Mozilla/5.0 (Windows NT 10.0; Win64; x64) AppleWebKit/537.36 (KHTML, like Gecko) Chrome/86.0.4240.111 Safari/537.36",64,"[0.9, 0.5, 0.1]","[0.8, 0.4, 0.2]","[u'black', u'red', u'blue']","[u'left', u'middle', u'right']","[0.9, 0.5, 0.1]","[u'high', u'low', u'medium']","black",49,"left","high","True","False",1031,2800,NA
"A1RHT4O55JQC2C","Sun Nov 01 2020 11:14:46 GMT-0600 (Central Standard Time)","Sun Nov 01 2020 11:25:10 GMT-0600 (Central Standard Time)","Mozilla/5.0 (Windows NT 10.0; Win64; x64) AppleWebKit/537.36 (KHTML, like Gecko) Chrome/86.0.4240.111 Safari/537.36",65,"[0.9, 0.5, 0.1]","[0.8, 0.4, 0.2]","[u'black', u'red', u'blue']","[u'left', u'middle', u'right']","[0.9, 0.5, 0.1]","[u'high', u'low', u'medium']","black",49,"left","high","True","False",466,2900,NA
"A1RHT4O55JQC2C","Sun Nov 01 2020 11:14:46 GMT-0600 (Central Standard Time)","Sun Nov 01 2020 11:25:10 GMT-0600 (Central Standard Time)","Mozilla/5.0 (Windows NT 10.0; Win64; x64) AppleWebKit/537.36 (KHTML, like Gecko) Chrome/86.0.4240.111 Safari/537.36",66,"[0.9, 0.5, 0.1]","[0.8, 0.4, 0.2]","[u'black', u'red', u'blue']","[u'left', u'middle', u'right']","[0.9, 0.5, 0.1]","[u'high', u'low', u'medium']","black",49,"left","high","True","False",397,3000,NA
"A1RHT4O55JQC2C","Sun Nov 01 2020 11:14:46 GMT-0600 (Central Standard Time)","Sun Nov 01 2020 11:25:10 GMT-0600 (Central Standard Time)","Mozilla/5.0 (Windows NT 10.0; Win64; x64) AppleWebKit/537.36 (KHTML, like Gecko) Chrome/86.0.4240.111 Safari/537.36",67,"[0.9, 0.5, 0.1]","[0.8, 0.4, 0.2]","[u'black', u'red', u'blue']","[u'left', u'middle', u'right']","[0.9, 0.5, 0.1]","[u'high', u'low', u'medium']","black",49,"left","high","True","False",348,3100,NA
"A1RHT4O55JQC2C","Sun Nov 01 2020 11:14:46 GMT-0600 (Central Standard Time)","Sun Nov 01 2020 11:25:10 GMT-0600 (Central Standard Time)","Mozilla/5.0 (Windows NT 10.0; Win64; x64) AppleWebKit/537.36 (KHTML, like Gecko) Chrome/86.0.4240.111 Safari/537.36",68,"[0.9, 0.5, 0.1]","[0.8, 0.4, 0.2]","[u'black', u'red', u'blue']","[u'left', u'middle', u'right']","[0.9, 0.5, 0.1]","[u'high', u'low', u'medium']","black",49,"left","high","True","False",285,3200,NA
"A1RHT4O55JQC2C","Sun Nov 01 2020 11:14:46 GMT-0600 (Central Standard Time)","Sun Nov 01 2020 11:25:10 GMT-0600 (Central Standard Time)","Mozilla/5.0 (Windows NT 10.0; Win64; x64) AppleWebKit/537.36 (KHTML, like Gecko) Chrome/86.0.4240.111 Safari/537.36",69,"[0.9, 0.5, 0.1]","[0.8, 0.4, 0.2]","[u'black', u'red', u'blue']","[u'left', u'middle', u'right']","[0.9, 0.5, 0.1]","[u'high', u'low', u'medium']","black",49,"left","high","True","False",167,3300,NA
"A1RHT4O55JQC2C","Sun Nov 01 2020 11:14:46 GMT-0600 (Central Standard Time)","Sun Nov 01 2020 11:25:10 GMT-0600 (Central Standard Time)","Mozilla/5.0 (Windows NT 10.0; Win64; x64) AppleWebKit/537.36 (KHTML, like Gecko) Chrome/86.0.4240.111 Safari/537.36",70,"[0.9, 0.5, 0.1]","[0.8, 0.4, 0.2]","[u'black', u'red', u'blue']","[u'left', u'middle', u'right']","[0.9, 0.5, 0.1]","[u'high', u'low', u'medium']","black",49,"left","high","True","False",3092,3400,NA
"A1RHT4O55JQC2C","Sun Nov 01 2020 11:14:46 GMT-0600 (Central Standard Time)","Sun Nov 01 2020 11:25:10 GMT-0600 (Central Standard Time)","Mozilla/5.0 (Windows NT 10.0; Win64; x64) AppleWebKit/537.36 (KHTML, like Gecko) Chrome/86.0.4240.111 Safari/537.36",71,"[0.9, 0.5, 0.1]","[0.8, 0.4, 0.2]","[u'black', u'red', u'blue']","[u'left', u'middle', u'right']","[0.9, 0.5, 0.1]","[u'high', u'low', u'medium']","black",49,"left","high","True","True",2079,3500,NA
"A1RHT4O55JQC2C","Sun Nov 01 2020 11:14:46 GMT-0600 (Central Standard Time)","Sun Nov 01 2020 11:25:10 GMT-0600 (Central Standard Time)","Mozilla/5.0 (Windows NT 10.0; Win64; x64) AppleWebKit/537.36 (KHTML, like Gecko) Chrome/86.0.4240.111 Safari/537.36",72,"[0.9, 0.5, 0.1]","[0.8, 0.4, 0.2]","[u'black', u'red', u'blue']","[u'left', u'middle', u'right']","[0.9, 0.5, 0.1]","[u'low', u'medium', u'high']","black",49,"left","low","True","False",887,3600,NA
"A1RHT4O55JQC2C","Sun Nov 01 2020 11:14:46 GMT-0600 (Central Standard Time)","Sun Nov 01 2020 11:25:10 GMT-0600 (Central Standard Time)","Mozilla/5.0 (Windows NT 10.0; Win64; x64) AppleWebKit/537.36 (KHTML, like Gecko) Chrome/86.0.4240.111 Safari/537.36",73,"[0.9, 0.5, 0.1]","[0.8, 0.4, 0.2]","[u'black', u'red', u'blue']","[u'left', u'middle', u'right']","[0.9, 0.5, 0.1]","[u'low', u'medium', u'high']","black",49,"left","low","False","False",402,3550,NA
"A1RHT4O55JQC2C","Sun Nov 01 2020 11:14:46 GMT-0600 (Central Standard Time)","Sun Nov 01 2020 11:25:10 GMT-0600 (Central Standard Time)","Mozilla/5.0 (Windows NT 10.0; Win64; x64) AppleWebKit/537.36 (KHTML, like Gecko) Chrome/86.0.4240.111 Safari/537.36",74,"[0.9, 0.5, 0.1]","[0.8, 0.4, 0.2]","[u'black', u'red', u'blue']","[u'left', u'middle', u'right']","[0.9, 0.5, 0.1]","[u'low', u'medium', u'high']","black",49,"left","low","False","False",629,3500,NA
"A1RHT4O55JQC2C","Sun Nov 01 2020 11:14:46 GMT-0600 (Central Standard Time)","Sun Nov 01 2020 11:25:10 GMT-0600 (Central Standard Time)","Mozilla/5.0 (Windows NT 10.0; Win64; x64) AppleWebKit/537.36 (KHTML, like Gecko) Chrome/86.0.4240.111 Safari/537.36",75,"[0.9, 0.5, 0.1]","[0.8, 0.4, 0.2]","[u'black', u'red', u'blue']","[u'left', u'middle', u'right']","[0.9, 0.5, 0.1]","[u'low', u'medium', u'high']","red",50,"middle","medium","True","False",320,3600,NA
"A1RHT4O55JQC2C","Sun Nov 01 2020 11:14:46 GMT-0600 (Central Standard Time)","Sun Nov 01 2020 11:25:10 GMT-0600 (Central Standard Time)","Mozilla/5.0 (Windows NT 10.0; Win64; x64) AppleWebKit/537.36 (KHTML, like Gecko) Chrome/86.0.4240.111 Safari/537.36",76,"[0.9, 0.5, 0.1]","[0.8, 0.4, 0.2]","[u'black', u'red', u'blue']","[u'left', u'middle', u'right']","[0.9, 0.5, 0.1]","[u'low', u'medium', u'high']","red",50,"middle","medium","False","False",698,3550,NA
"A1RHT4O55JQC2C","Sun Nov 01 2020 11:14:46 GMT-0600 (Central Standard Time)","Sun Nov 01 2020 11:25:10 GMT-0600 (Central Standard Time)","Mozilla/5.0 (Windows NT 10.0; Win64; x64) AppleWebKit/537.36 (KHTML, like Gecko) Chrome/86.0.4240.111 Safari/537.36",77,"[0.9, 0.5, 0.1]","[0.8, 0.4, 0.2]","[u'black', u'red', u'blue']","[u'left', u'middle', u'right']","[0.9, 0.5, 0.1]","[u'low', u'medium', u'high']","red",50,"middle","medium","False","False",262,3500,NA
"A1RHT4O55JQC2C","Sun Nov 01 2020 11:14:46 GMT-0600 (Central Standard Time)","Sun Nov 01 2020 11:25:10 GMT-0600 (Central Standard Time)","Mozilla/5.0 (Windows NT 10.0; Win64; x64) AppleWebKit/537.36 (KHTML, like Gecko) Chrome/86.0.4240.111 Safari/537.36",78,"[0.9, 0.5, 0.1]","[0.8, 0.4, 0.2]","[u'black', u'red', u'blue']","[u'left', u'middle', u'right']","[0.9, 0.5, 0.1]","[u'low', u'medium', u'high']","black",49,"left","low","False","False",272,3450,NA
"A1RHT4O55JQC2C","Sun Nov 01 2020 11:14:46 GMT-0600 (Central Standard Time)","Sun Nov 01 2020 11:25:10 GMT-0600 (Central Standard Time)","Mozilla/5.0 (Windows NT 10.0; Win64; x64) AppleWebKit/537.36 (KHTML, like Gecko) Chrome/86.0.4240.111 Safari/537.36",79,"[0.9, 0.5, 0.1]","[0.8, 0.4, 0.2]","[u'black', u'red', u'blue']","[u'left', u'middle', u'right']","[0.9, 0.5, 0.1]","[u'low', u'medium', u'high']","blue",51,"right","high","True","False",264,3550,NA
"A1RHT4O55JQC2C","Sun Nov 01 2020 11:14:46 GMT-0600 (Central Standard Time)","Sun Nov 01 2020 11:25:10 GMT-0600 (Central Standard Time)","Mozilla/5.0 (Windows NT 10.0; Win64; x64) AppleWebKit/537.36 (KHTML, like Gecko) Chrome/86.0.4240.111 Safari/537.36",80,"[0.9, 0.5, 0.1]","[0.8, 0.4, 0.2]","[u'black', u'red', u'blue']","[u'left', u'middle', u'right']","[0.9, 0.5, 0.1]","[u'low', u'medium', u'high']","blue",51,"right","high","True","False",1030,3650,NA
"A1RHT4O55JQC2C","Sun Nov 01 2020 11:14:46 GMT-0600 (Central Standard Time)","Sun Nov 01 2020 11:25:10 GMT-0600 (Central Standard Time)","Mozilla/5.0 (Windows NT 10.0; Win64; x64) AppleWebKit/537.36 (KHTML, like Gecko) Chrome/86.0.4240.111 Safari/537.36",81,"[0.9, 0.5, 0.1]","[0.8, 0.4, 0.2]","[u'black', u'red', u'blue']","[u'left', u'middle', u'right']","[0.8, 0.4, 0.2]","[u'medium', u'high', u'low']","blue",51,"right","low","False","False",2737,3600,NA
"A1RHT4O55JQC2C","Sun Nov 01 2020 11:14:46 GMT-0600 (Central Standard Time)","Sun Nov 01 2020 11:25:10 GMT-0600 (Central Standard Time)","Mozilla/5.0 (Windows NT 10.0; Win64; x64) AppleWebKit/537.36 (KHTML, like Gecko) Chrome/86.0.4240.111 Safari/537.36",82,"[0.9, 0.5, 0.1]","[0.8, 0.4, 0.2]","[u'black', u'red', u'blue']","[u'left', u'middle', u'right']","[0.8, 0.4, 0.2]","[u'medium', u'high', u'low']","blue",51,"right","low","True","False",36668,3700,NA
"A1RHT4O55JQC2C","Sun Nov 01 2020 11:14:46 GMT-0600 (Central Standard Time)","Sun Nov 01 2020 11:25:10 GMT-0600 (Central Standard Time)","Mozilla/5.0 (Windows NT 10.0; Win64; x64) AppleWebKit/537.36 (KHTML, like Gecko) Chrome/86.0.4240.111 Safari/537.36",83,"[0.9, 0.5, 0.1]","[0.8, 0.4, 0.2]","[u'black', u'red', u'blue']","[u'left', u'middle', u'right']","[0.8, 0.4, 0.2]","[u'medium', u'high', u'low']","blue",51,"right","low","False","False",286,3650,NA
"A1RHT4O55JQC2C","Sun Nov 01 2020 11:14:46 GMT-0600 (Central Standard Time)","Sun Nov 01 2020 11:25:10 GMT-0600 (Central Standard Time)","Mozilla/5.0 (Windows NT 10.0; Win64; x64) AppleWebKit/537.36 (KHTML, like Gecko) Chrome/86.0.4240.111 Safari/537.36",84,"[0.9, 0.5, 0.1]","[0.8, 0.4, 0.2]","[u'black', u'red', u'blue']","[u'left', u'middle', u'right']","[0.8, 0.4, 0.2]","[u'medium', u'high', u'low']","blue",51,"right","low","False","False",362,3600,NA
"A1RHT4O55JQC2C","Sun Nov 01 2020 11:14:46 GMT-0600 (Central Standard Time)","Sun Nov 01 2020 11:25:10 GMT-0600 (Central Standard Time)","Mozilla/5.0 (Windows NT 10.0; Win64; x64) AppleWebKit/537.36 (KHTML, like Gecko) Chrome/86.0.4240.111 Safari/537.36",85,"[0.9, 0.5, 0.1]","[0.8, 0.4, 0.2]","[u'black', u'red', u'blue']","[u'left', u'middle', u'right']","[0.8, 0.4, 0.2]","[u'medium', u'high', u'low']","red",50,"middle","high","True","False",301,3700,NA
"A1RHT4O55JQC2C","Sun Nov 01 2020 11:14:46 GMT-0600 (Central Standard Time)","Sun Nov 01 2020 11:25:10 GMT-0600 (Central Standard Time)","Mozilla/5.0 (Windows NT 10.0; Win64; x64) AppleWebKit/537.36 (KHTML, like Gecko) Chrome/86.0.4240.111 Safari/537.36",86,"[0.9, 0.5, 0.1]","[0.8, 0.4, 0.2]","[u'black', u'red', u'blue']","[u'left', u'middle', u'right']","[0.8, 0.4, 0.2]","[u'medium', u'high', u'low']","red",50,"middle","high","False","False",335,3650,NA
"A1RHT4O55JQC2C","Sun Nov 01 2020 11:14:46 GMT-0600 (Central Standard Time)","Sun Nov 01 2020 11:25:10 GMT-0600 (Central Standard Time)","Mozilla/5.0 (Windows NT 10.0; Win64; x64) AppleWebKit/537.36 (KHTML, like Gecko) Chrome/86.0.4240.111 Safari/537.36",87,"[0.9, 0.5, 0.1]","[0.8, 0.4, 0.2]","[u'black', u'red', u'blue']","[u'left', u'middle', u'right']","[0.8, 0.4, 0.2]","[u'medium', u'high', u'low']","red",50,"middle","high","False","False",399,3600,NA
"A1RHT4O55JQC2C","Sun Nov 01 2020 11:14:46 GMT-0600 (Central Standard Time)","Sun Nov 01 2020 11:25:10 GMT-0600 (Central Standard Time)","Mozilla/5.0 (Windows NT 10.0; Win64; x64) AppleWebKit/537.36 (KHTML, like Gecko) Chrome/86.0.4240.111 Safari/537.36",88,"[0.9, 0.5, 0.1]","[0.8, 0.4, 0.2]","[u'black', u'red', u'blue']","[u'left', u'middle', u'right']","[0.8, 0.4, 0.2]","[u'medium', u'high', u'low']","black",49,"left","medium","False","False",208,3550,NA
"A1RHT4O55JQC2C","Sun Nov 01 2020 11:14:46 GMT-0600 (Central Standard Time)","Sun Nov 01 2020 11:25:10 GMT-0600 (Central Standard Time)","Mozilla/5.0 (Windows NT 10.0; Win64; x64) AppleWebKit/537.36 (KHTML, like Gecko) Chrome/86.0.4240.111 Safari/537.36",89,"[0.9, 0.5, 0.1]","[0.8, 0.4, 0.2]","[u'black', u'red', u'blue']","[u'left', u'middle', u'right']","[0.8, 0.4, 0.2]","[u'medium', u'high', u'low']","red",50,"middle","high","True","False",291,3650,NA
"A1RHT4O55JQC2C","Sun Nov 01 2020 11:14:46 GMT-0600 (Central Standard Time)","Sun Nov 01 2020 11:25:10 GMT-0600 (Central Standard Time)","Mozilla/5.0 (Windows NT 10.0; Win64; x64) AppleWebKit/537.36 (KHTML, like Gecko) Chrome/86.0.4240.111 Safari/537.36",90,"[0.9, 0.5, 0.1]","[0.8, 0.4, 0.2]","[u'black', u'red', u'blue']","[u'left', u'middle', u'right']","[0.8, 0.4, 0.2]","[u'medium', u'high', u'low']","red",50,"middle","high","True","False",253,3750,NA
"A1RHT4O55JQC2C","Sun Nov 01 2020 11:14:46 GMT-0600 (Central Standard Time)","Sun Nov 01 2020 11:25:10 GMT-0600 (Central Standard Time)","Mozilla/5.0 (Windows NT 10.0; Win64; x64) AppleWebKit/537.36 (KHTML, like Gecko) Chrome/86.0.4240.111 Safari/537.36",91,"[0.9, 0.5, 0.1]","[0.8, 0.4, 0.2]","[u'black', u'red', u'blue']","[u'left', u'middle', u'right']","[0.8, 0.4, 0.2]","[u'medium', u'high', u'low']","red",50,"middle","high","True","False",476,3850,NA
"A1RHT4O55JQC2C","Sun Nov 01 2020 11:14:46 GMT-0600 (Central Standard Time)","Sun Nov 01 2020 11:25:10 GMT-0600 (Central Standard Time)","Mozilla/5.0 (Windows NT 10.0; Win64; x64) AppleWebKit/537.36 (KHTML, like Gecko) Chrome/86.0.4240.111 Safari/537.36",92,"[0.9, 0.5, 0.1]","[0.8, 0.4, 0.2]","[u'black', u'red', u'blue']","[u'left', u'middle', u'right']","[0.8, 0.4, 0.2]","[u'medium', u'high', u'low']","red",50,"middle","high","False","False",946,3800,NA
"A1RHT4O55JQC2C","Sun Nov 01 2020 11:14:46 GMT-0600 (Central Standard Time)","Sun Nov 01 2020 11:25:10 GMT-0600 (Central Standard Time)","Mozilla/5.0 (Windows NT 10.0; Win64; x64) AppleWebKit/537.36 (KHTML, like Gecko) Chrome/86.0.4240.111 Safari/537.36",93,"[0.9, 0.5, 0.1]","[0.8, 0.4, 0.2]","[u'black', u'red', u'blue']","[u'left', u'middle', u'right']","[0.8, 0.4, 0.2]","[u'medium', u'high', u'low']","black",49,"left","medium","False","False",16,3750,NA
"A1RHT4O55JQC2C","Sun Nov 01 2020 11:14:46 GMT-0600 (Central Standard Time)","Sun Nov 01 2020 11:25:10 GMT-0600 (Central Standard Time)","Mozilla/5.0 (Windows NT 10.0; Win64; x64) AppleWebKit/537.36 (KHTML, like Gecko) Chrome/86.0.4240.111 Safari/537.36",94,"[0.9, 0.5, 0.1]","[0.8, 0.4, 0.2]","[u'black', u'red', u'blue']","[u'left', u'middle', u'right']","[0.8, 0.4, 0.2]","[u'medium', u'high', u'low']","blue",51,"right","low","False","False",267,3700,NA
"A1RHT4O55JQC2C","Sun Nov 01 2020 11:14:46 GMT-0600 (Central Standard Time)","Sun Nov 01 2020 11:25:10 GMT-0600 (Central Standard Time)","Mozilla/5.0 (Windows NT 10.0; Win64; x64) AppleWebKit/537.36 (KHTML, like Gecko) Chrome/86.0.4240.111 Safari/537.36",95,"[0.9, 0.5, 0.1]","[0.8, 0.4, 0.2]","[u'black', u'red', u'blue']","[u'left', u'middle', u'right']","[0.8, 0.4, 0.2]","[u'medium', u'high', u'low']","blue",51,"right","low","False","False",5047,3650,NA
"A1RHT4O55JQC2C","Sun Nov 01 2020 11:14:46 GMT-0600 (Central Standard Time)","Sun Nov 01 2020 11:25:10 GMT-0600 (Central Standard Time)","Mozilla/5.0 (Windows NT 10.0; Win64; x64) AppleWebKit/537.36 (KHTML, like Gecko) Chrome/86.0.4240.111 Safari/537.36",96,"[0.9, 0.5, 0.1]","[0.8, 0.4, 0.2]","[u'black', u'red', u'blue']","[u'left', u'middle', u'right']","[0.8, 0.4, 0.2]","[u'medium', u'high', u'low']","black",49,"left","medium","False","False",133,3600,NA
"A1RHT4O55JQC2C","Sun Nov 01 2020 11:14:46 GMT-0600 (Central Standard Time)","Sun Nov 01 2020 11:25:10 GMT-0600 (Central Standard Time)","Mozilla/5.0 (Windows NT 10.0; Win64; x64) AppleWebKit/537.36 (KHTML, like Gecko) Chrome/86.0.4240.111 Safari/537.36",97,"[0.9, 0.5, 0.1]","[0.8, 0.4, 0.2]","[u'black', u'red', u'blue']","[u'left', u'middle', u'right']","[0.8, 0.4, 0.2]","[u'medium', u'high', u'low']","black",49,"left","medium","True","False",600,3700,NA
"A1RHT4O55JQC2C","Sun Nov 01 2020 11:14:46 GMT-0600 (Central Standard Time)","Sun Nov 01 2020 11:25:10 GMT-0600 (Central Standard Time)","Mozilla/5.0 (Windows NT 10.0; Win64; x64) AppleWebKit/537.36 (KHTML, like Gecko) Chrome/86.0.4240.111 Safari/537.36",98,"[0.9, 0.5, 0.1]","[0.8, 0.4, 0.2]","[u'black', u'red', u'blue']","[u'left', u'middle', u'right']","[0.8, 0.4, 0.2]","[u'medium', u'high', u'low']","black",49,"left","medium","True","False",245,3800,NA
"A1RHT4O55JQC2C","Sun Nov 01 2020 11:14:46 GMT-0600 (Central Standard Time)","Sun Nov 01 2020 11:25:10 GMT-0600 (Central Standard Time)","Mozilla/5.0 (Windows NT 10.0; Win64; x64) AppleWebKit/537.36 (KHTML, like Gecko) Chrome/86.0.4240.111 Safari/537.36",99,"[0.9, 0.5, 0.1]","[0.8, 0.4, 0.2]","[u'black', u'red', u'blue']","[u'left', u'middle', u'right']","[0.8, 0.4, 0.2]","[u'medium', u'high', u'low']","black",49,"left","medium","True","False",292,3900,NA
"A1RHT4O55JQC2C","Sun Nov 01 2020 11:14:46 GMT-0600 (Central Standard Time)","Sun Nov 01 2020 11:25:10 GMT-0600 (Central Standard Time)","Mozilla/5.0 (Windows NT 10.0; Win64; x64) AppleWebKit/537.36 (KHTML, like Gecko) Chrome/86.0.4240.111 Safari/537.36",100,"[0.9, 0.5, 0.1]","[0.8, 0.4, 0.2]","[u'black', u'red', u'blue']","[u'left', u'middle', u'right']","[0.8, 0.4, 0.2]","[u'medium', u'high', u'low']","black",49,"left","medium","False","False",340,3850,NA
"A1RHT4O55JQC2C","Sun Nov 01 2020 11:14:46 GMT-0600 (Central Standard Time)","Sun Nov 01 2020 11:25:10 GMT-0600 (Central Standard Time)","Mozilla/5.0 (Windows NT 10.0; Win64; x64) AppleWebKit/537.36 (KHTML, like Gecko) Chrome/86.0.4240.111 Safari/537.36",101,"[0.9, 0.5, 0.1]","[0.8, 0.4, 0.2]","[u'black', u'red', u'blue']","[u'left', u'middle', u'right']","[0.8, 0.4, 0.2]","[u'medium', u'high', u'low']","red",50,"middle","high","True","False",176,3950,NA
"A1RHT4O55JQC2C","Sun Nov 01 2020 11:14:46 GMT-0600 (Central Standard Time)","Sun Nov 01 2020 11:25:10 GMT-0600 (Central Standard Time)","Mozilla/5.0 (Windows NT 10.0; Win64; x64) AppleWebKit/537.36 (KHTML, like Gecko) Chrome/86.0.4240.111 Safari/537.36",102,"[0.9, 0.5, 0.1]","[0.8, 0.4, 0.2]","[u'black', u'red', u'blue']","[u'left', u'middle', u'right']","[0.8, 0.4, 0.2]","[u'medium', u'high', u'low']","red",50,"middle","high","True","False",197,4050,NA
"A1RHT4O55JQC2C","Sun Nov 01 2020 11:14:46 GMT-0600 (Central Standard Time)","Sun Nov 01 2020 11:25:10 GMT-0600 (Central Standard Time)","Mozilla/5.0 (Windows NT 10.0; Win64; x64) AppleWebKit/537.36 (KHTML, like Gecko) Chrome/86.0.4240.111 Safari/537.36",103,"[0.9, 0.5, 0.1]","[0.8, 0.4, 0.2]","[u'black', u'red', u'blue']","[u'left', u'middle', u'right']","[0.8, 0.4, 0.2]","[u'medium', u'high', u'low']","red",50,"middle","high","False","False",364,4000,NA
"A1RHT4O55JQC2C","Sun Nov 01 2020 11:14:46 GMT-0600 (Central Standard Time)","Sun Nov 01 2020 11:25:10 GMT-0600 (Central Standard Time)","Mozilla/5.0 (Windows NT 10.0; Win64; x64) AppleWebKit/537.36 (KHTML, like Gecko) Chrome/86.0.4240.111 Safari/537.36",104,"[0.9, 0.5, 0.1]","[0.8, 0.4, 0.2]","[u'black', u'red', u'blue']","[u'left', u'middle', u'right']","[0.8, 0.4, 0.2]","[u'medium', u'high', u'low']","blue",51,"right","low","True","False",666,4100,NA
"A1RHT4O55JQC2C","Sun Nov 01 2020 11:14:46 GMT-0600 (Central Standard Time)","Sun Nov 01 2020 11:25:10 GMT-0600 (Central Standard Time)","Mozilla/5.0 (Windows NT 10.0; Win64; x64) AppleWebKit/537.36 (KHTML, like Gecko) Chrome/86.0.4240.111 Safari/537.36",105,"[0.9, 0.5, 0.1]","[0.8, 0.4, 0.2]","[u'black', u'red', u'blue']","[u'left', u'middle', u'right']","[0.8, 0.4, 0.2]","[u'medium', u'high', u'low']","blue",51,"right","low","False","False",201,4050,NA
"A1RHT4O55JQC2C","Sun Nov 01 2020 11:14:46 GMT-0600 (Central Standard Time)","Sun Nov 01 2020 11:25:10 GMT-0600 (Central Standard Time)","Mozilla/5.0 (Windows NT 10.0; Win64; x64) AppleWebKit/537.36 (KHTML, like Gecko) Chrome/86.0.4240.111 Safari/537.36",106,"[0.9, 0.5, 0.1]","[0.8, 0.4, 0.2]","[u'black', u'red', u'blue']","[u'left', u'middle', u'right']","[0.8, 0.4, 0.2]","[u'medium', u'high', u'low']","red",50,"middle","high","True","False",269,4150,NA
"A1RHT4O55JQC2C","Sun Nov 01 2020 11:14:46 GMT-0600 (Central Standard Time)","Sun Nov 01 2020 11:25:10 GMT-0600 (Central Standard Time)","Mozilla/5.0 (Windows NT 10.0; Win64; x64) AppleWebKit/537.36 (KHTML, like Gecko) Chrome/86.0.4240.111 Safari/537.36",107,"[0.9, 0.5, 0.1]","[0.8, 0.4, 0.2]","[u'black', u'red', u'blue']","[u'left', u'middle', u'right']","[0.8, 0.4, 0.2]","[u'medium', u'high', u'low']","black",49,"left","medium","True","False",34871,4250,NA
"A1RHT4O55JQC2C","Sun Nov 01 2020 11:14:46 GMT-0600 (Central Standard Time)","Sun Nov 01 2020 11:25:10 GMT-0600 (Central Standard Time)","Mozilla/5.0 (Windows NT 10.0; Win64; x64) AppleWebKit/537.36 (KHTML, like Gecko) Chrome/86.0.4240.111 Safari/537.36",108,"[0.9, 0.5, 0.1]","[0.8, 0.4, 0.2]","[u'black', u'red', u'blue']","[u'left', u'middle', u'right']","[0.8, 0.4, 0.2]","[u'medium', u'high', u'low']","black",49,"left","medium","False","False",369,4200,NA
"A1RHT4O55JQC2C","Sun Nov 01 2020 11:14:46 GMT-0600 (Central Standard Time)","Sun Nov 01 2020 11:25:10 GMT-0600 (Central Standard Time)","Mozilla/5.0 (Windows NT 10.0; Win64; x64) AppleWebKit/537.36 (KHTML, like Gecko) Chrome/86.0.4240.111 Safari/537.36",109,"[0.9, 0.5, 0.1]","[0.8, 0.4, 0.2]","[u'black', u'red', u'blue']","[u'left', u'middle', u'right']","[0.8, 0.4, 0.2]","[u'medium', u'high', u'low']","black",49,"left","medium","True","False",519,4300,NA
"A1RHT4O55JQC2C","Sun Nov 01 2020 11:14:46 GMT-0600 (Central Standard Time)","Sun Nov 01 2020 11:25:10 GMT-0600 (Central Standard Time)","Mozilla/5.0 (Windows NT 10.0; Win64; x64) AppleWebKit/537.36 (KHTML, like Gecko) Chrome/86.0.4240.111 Safari/537.36",110,"[0.9, 0.5, 0.1]","[0.8, 0.4, 0.2]","[u'black', u'red', u'blue']","[u'left', u'middle', u'right']","[0.8, 0.4, 0.2]","[u'medium', u'high', u'low']","black",49,"left","medium","False","False",3500,4250,NA
"A1RHT4O55JQC2C","Sun Nov 01 2020 11:14:46 GMT-0600 (Central Standard Time)","Sun Nov 01 2020 11:25:10 GMT-0600 (Central Standard Time)","Mozilla/5.0 (Windows NT 10.0; Win64; x64) AppleWebKit/537.36 (KHTML, like Gecko) Chrome/86.0.4240.111 Safari/537.36",111,"[0.9, 0.5, 0.1]","[0.8, 0.4, 0.2]","[u'black', u'red', u'blue']","[u'left', u'middle', u'right']","[0.8, 0.4, 0.2]","[u'medium', u'high', u'low']","blue",51,"right","low","True","False",321,4350,NA
"A1RHT4O55JQC2C","Sun Nov 01 2020 11:14:46 GMT-0600 (Central Standard Time)","Sun Nov 01 2020 11:25:10 GMT-0600 (Central Standard Time)","Mozilla/5.0 (Windows NT 10.0; Win64; x64) AppleWebKit/537.36 (KHTML, like Gecko) Chrome/86.0.4240.111 Safari/537.36",112,"[0.9, 0.5, 0.1]","[0.8, 0.4, 0.2]","[u'black', u'red', u'blue']","[u'left', u'middle', u'right']","[0.8, 0.4, 0.2]","[u'medium', u'high', u'low']","blue",51,"right","low","False","False",700,4300,NA
"A1RHT4O55JQC2C","Sun Nov 01 2020 11:14:46 GMT-0600 (Central Standard Time)","Sun Nov 01 2020 11:25:10 GMT-0600 (Central Standard Time)","Mozilla/5.0 (Windows NT 10.0; Win64; x64) AppleWebKit/537.36 (KHTML, like Gecko) Chrome/86.0.4240.111 Safari/537.36",113,"[0.9, 0.5, 0.1]","[0.8, 0.4, 0.2]","[u'black', u'red', u'blue']","[u'left', u'middle', u'right']","[0.8, 0.4, 0.2]","[u'medium', u'high', u'low']","red",50,"middle","high","True","False",839,4400,NA
"A1RHT4O55JQC2C","Sun Nov 01 2020 11:14:46 GMT-0600 (Central Standard Time)","Sun Nov 01 2020 11:25:10 GMT-0600 (Central Standard Time)","Mozilla/5.0 (Windows NT 10.0; Win64; x64) AppleWebKit/537.36 (KHTML, like Gecko) Chrome/86.0.4240.111 Safari/537.36",114,"[0.9, 0.5, 0.1]","[0.8, 0.4, 0.2]","[u'black', u'red', u'blue']","[u'left', u'middle', u'right']","[0.8, 0.4, 0.2]","[u'medium', u'high', u'low']","red",50,"middle","high","True","False",508,4500,NA
"A1RHT4O55JQC2C","Sun Nov 01 2020 11:14:46 GMT-0600 (Central Standard Time)","Sun Nov 01 2020 11:25:10 GMT-0600 (Central Standard Time)","Mozilla/5.0 (Windows NT 10.0; Win64; x64) AppleWebKit/537.36 (KHTML, like Gecko) Chrome/86.0.4240.111 Safari/537.36",115,"[0.9, 0.5, 0.1]","[0.8, 0.4, 0.2]","[u'black', u'red', u'blue']","[u'left', u'middle', u'right']","[0.8, 0.4, 0.2]","[u'medium', u'high', u'low']","red",50,"middle","high","True","False",320,4600,NA
"A1RHT4O55JQC2C","Sun Nov 01 2020 11:14:46 GMT-0600 (Central Standard Time)","Sun Nov 01 2020 11:25:10 GMT-0600 (Central Standard Time)","Mozilla/5.0 (Windows NT 10.0; Win64; x64) AppleWebKit/537.36 (KHTML, like Gecko) Chrome/86.0.4240.111 Safari/537.36",116,"[0.9, 0.5, 0.1]","[0.8, 0.4, 0.2]","[u'black', u'red', u'blue']","[u'left', u'middle', u'right']","[0.8, 0.4, 0.2]","[u'medium', u'high', u'low']","red",50,"middle","high","True","False",717,4700,NA
"A1RHT4O55JQC2C","Sun Nov 01 2020 11:14:46 GMT-0600 (Central Standard Time)","Sun Nov 01 2020 11:25:10 GMT-0600 (Central Standard Time)","Mozilla/5.0 (Windows NT 10.0; Win64; x64) AppleWebKit/537.36 (KHTML, like Gecko) Chrome/86.0.4240.111 Safari/537.36",117,"[0.9, 0.5, 0.1]","[0.8, 0.4, 0.2]","[u'black', u'red', u'blue']","[u'left', u'middle', u'right']","[0.8, 0.4, 0.2]","[u'medium', u'high', u'low']","black",49,"left","medium","True","False",16280,4800,NA
"A1RHT4O55JQC2C","Sun Nov 01 2020 11:14:46 GMT-0600 (Central Standard Time)","Sun Nov 01 2020 11:25:10 GMT-0600 (Central Standard Time)","Mozilla/5.0 (Windows NT 10.0; Win64; x64) AppleWebKit/537.36 (KHTML, like Gecko) Chrome/86.0.4240.111 Safari/537.36",118,"[0.9, 0.5, 0.1]","[0.8, 0.4, 0.2]","[u'black', u'red', u'blue']","[u'left', u'middle', u'right']","[0.8, 0.4, 0.2]","[u'medium', u'high', u'low']","black",49,"left","medium","True","False",285,4900,NA
"A1RHT4O55JQC2C","Sun Nov 01 2020 11:14:46 GMT-0600 (Central Standard Time)","Sun Nov 01 2020 11:25:10 GMT-0600 (Central Standard Time)","Mozilla/5.0 (Windows NT 10.0; Win64; x64) AppleWebKit/537.36 (KHTML, like Gecko) Chrome/86.0.4240.111 Safari/537.36",119,"[0.9, 0.5, 0.1]","[0.8, 0.4, 0.2]","[u'black', u'red', u'blue']","[u'left', u'middle', u'right']","[0.8, 0.4, 0.2]","[u'medium', u'high', u'low']","black",49,"left","medium","True","False",301,5000,NA
"A1RHT4O55JQC2C","Sun Nov 01 2020 11:14:46 GMT-0600 (Central Standard Time)","Sun Nov 01 2020 11:25:10 GMT-0600 (Central Standard Time)","Mozilla/5.0 (Windows NT 10.0; Win64; x64) AppleWebKit/537.36 (KHTML, like Gecko) Chrome/86.0.4240.111 Safari/537.36",120,"[0.9, 0.5, 0.1]","[0.8, 0.4, 0.2]","[u'black', u'red', u'blue']","[u'left', u'middle', u'right']","[0.8, 0.4, 0.2]","[u'medium', u'high', u'low']","black",49,"left","medium","True","False",448,5100,NA
"A1RHT4O55JQC2C","Sun Nov 01 2020 11:14:46 GMT-0600 (Central Standard Time)","Sun Nov 01 2020 11:25:10 GMT-0600 (Central Standard Time)","Mozilla/5.0 (Windows NT 10.0; Win64; x64) AppleWebKit/537.36 (KHTML, like Gecko) Chrome/86.0.4240.111 Safari/537.36",121,"[0.9, 0.5, 0.1]","[0.8, 0.4, 0.2]","[u'black', u'red', u'blue']","[u'left', u'middle', u'right']","[0.8, 0.4, 0.2]","[u'medium', u'low', u'high']","black",49,"left","medium","False","False",974,5050,NA
"A1RHT4O55JQC2C","Sun Nov 01 2020 11:14:46 GMT-0600 (Central Standard Time)","Sun Nov 01 2020 11:25:10 GMT-0600 (Central Standard Time)","Mozilla/5.0 (Windows NT 10.0; Win64; x64) AppleWebKit/537.36 (KHTML, like Gecko) Chrome/86.0.4240.111 Safari/537.36",122,"[0.9, 0.5, 0.1]","[0.8, 0.4, 0.2]","[u'black', u'red', u'blue']","[u'left', u'middle', u'right']","[0.8, 0.4, 0.2]","[u'medium', u'low', u'high']","red",50,"middle","low","False","False",328,5000,NA
"A1RHT4O55JQC2C","Sun Nov 01 2020 11:14:46 GMT-0600 (Central Standard Time)","Sun Nov 01 2020 11:25:10 GMT-0600 (Central Standard Time)","Mozilla/5.0 (Windows NT 10.0; Win64; x64) AppleWebKit/537.36 (KHTML, like Gecko) Chrome/86.0.4240.111 Safari/537.36",123,"[0.9, 0.5, 0.1]","[0.8, 0.4, 0.2]","[u'black', u'red', u'blue']","[u'left', u'middle', u'right']","[0.8, 0.4, 0.2]","[u'medium', u'low', u'high']","blue",51,"right","high","False","False",125,4950,NA
"A1RHT4O55JQC2C","Sun Nov 01 2020 11:14:46 GMT-0600 (Central Standard Time)","Sun Nov 01 2020 11:25:10 GMT-0600 (Central Standard Time)","Mozilla/5.0 (Windows NT 10.0; Win64; x64) AppleWebKit/537.36 (KHTML, like Gecko) Chrome/86.0.4240.111 Safari/537.36",124,"[0.9, 0.5, 0.1]","[0.8, 0.4, 0.2]","[u'black', u'red', u'blue']","[u'left', u'middle', u'right']","[0.8, 0.4, 0.2]","[u'medium', u'low', u'high']","red",50,"middle","low","False","False",262,4900,NA
"A1RHT4O55JQC2C","Sun Nov 01 2020 11:14:46 GMT-0600 (Central Standard Time)","Sun Nov 01 2020 11:25:10 GMT-0600 (Central Standard Time)","Mozilla/5.0 (Windows NT 10.0; Win64; x64) AppleWebKit/537.36 (KHTML, like Gecko) Chrome/86.0.4240.111 Safari/537.36",125,"[0.9, 0.5, 0.1]","[0.8, 0.4, 0.2]","[u'black', u'red', u'blue']","[u'left', u'middle', u'right']","[0.8, 0.4, 0.2]","[u'medium', u'low', u'high']","red",50,"middle","low","False","False",355,4850,NA
"A1RHT4O55JQC2C","Sun Nov 01 2020 11:14:46 GMT-0600 (Central Standard Time)","Sun Nov 01 2020 11:25:10 GMT-0600 (Central Standard Time)","Mozilla/5.0 (Windows NT 10.0; Win64; x64) AppleWebKit/537.36 (KHTML, like Gecko) Chrome/86.0.4240.111 Safari/537.36",126,"[0.9, 0.5, 0.1]","[0.8, 0.4, 0.2]","[u'black', u'red', u'blue']","[u'left', u'middle', u'right']","[0.8, 0.4, 0.2]","[u'medium', u'low', u'high']","black",49,"left","medium","False","False",604,4800,NA
"A1RHT4O55JQC2C","Sun Nov 01 2020 11:14:46 GMT-0600 (Central Standard Time)","Sun Nov 01 2020 11:25:10 GMT-0600 (Central Standard Time)","Mozilla/5.0 (Windows NT 10.0; Win64; x64) AppleWebKit/537.36 (KHTML, like Gecko) Chrome/86.0.4240.111 Safari/537.36",127,"[0.9, 0.5, 0.1]","[0.8, 0.4, 0.2]","[u'black', u'red', u'blue']","[u'left', u'middle', u'right']","[0.8, 0.4, 0.2]","[u'medium', u'low', u'high']","black",49,"left","medium","False","False",102,4750,NA
"A1RHT4O55JQC2C","Sun Nov 01 2020 11:14:46 GMT-0600 (Central Standard Time)","Sun Nov 01 2020 11:25:10 GMT-0600 (Central Standard Time)","Mozilla/5.0 (Windows NT 10.0; Win64; x64) AppleWebKit/537.36 (KHTML, like Gecko) Chrome/86.0.4240.111 Safari/537.36",128,"[0.9, 0.5, 0.1]","[0.8, 0.4, 0.2]","[u'black', u'red', u'blue']","[u'left', u'middle', u'right']","[0.8, 0.4, 0.2]","[u'medium', u'low', u'high']","black",49,"left","medium","False","False",407,4700,NA
"A1RHT4O55JQC2C","Sun Nov 01 2020 11:14:46 GMT-0600 (Central Standard Time)","Sun Nov 01 2020 11:25:10 GMT-0600 (Central Standard Time)","Mozilla/5.0 (Windows NT 10.0; Win64; x64) AppleWebKit/537.36 (KHTML, like Gecko) Chrome/86.0.4240.111 Safari/537.36",129,"[0.9, 0.5, 0.1]","[0.8, 0.4, 0.2]","[u'black', u'red', u'blue']","[u'left', u'middle', u'right']","[0.8, 0.4, 0.2]","[u'medium', u'low', u'high']","red",50,"middle","low","False","False",379,4650,NA
"A1RHT4O55JQC2C","Sun Nov 01 2020 11:14:46 GMT-0600 (Central Standard Time)","Sun Nov 01 2020 11:25:10 GMT-0600 (Central Standard Time)","Mozilla/5.0 (Windows NT 10.0; Win64; x64) AppleWebKit/537.36 (KHTML, like Gecko) Chrome/86.0.4240.111 Safari/537.36",130,"[0.9, 0.5, 0.1]","[0.8, 0.4, 0.2]","[u'black', u'red', u'blue']","[u'left', u'middle', u'right']","[0.8, 0.4, 0.2]","[u'medium', u'low', u'high']","red",50,"middle","low","False","False",370,4600,NA
"A1RHT4O55JQC2C","Sun Nov 01 2020 11:14:46 GMT-0600 (Central Standard Time)","Sun Nov 01 2020 11:25:10 GMT-0600 (Central Standard Time)","Mozilla/5.0 (Windows NT 10.0; Win64; x64) AppleWebKit/537.36 (KHTML, like Gecko) Chrome/86.0.4240.111 Safari/537.36",131,"[0.9, 0.5, 0.1]","[0.8, 0.4, 0.2]","[u'black', u'red', u'blue']","[u'left', u'middle', u'right']","[0.8, 0.4, 0.2]","[u'medium', u'low', u'high']","red",50,"middle","low","True","False",145,4700,NA
"A1RHT4O55JQC2C","Sun Nov 01 2020 11:14:46 GMT-0600 (Central Standard Time)","Sun Nov 01 2020 11:25:10 GMT-0600 (Central Standard Time)","Mozilla/5.0 (Windows NT 10.0; Win64; x64) AppleWebKit/537.36 (KHTML, like Gecko) Chrome/86.0.4240.111 Safari/537.36",132,"[0.9, 0.5, 0.1]","[0.8, 0.4, 0.2]","[u'black', u'red', u'blue']","[u'left', u'middle', u'right']","[0.8, 0.4, 0.2]","[u'medium', u'low', u'high']","red",50,"middle","low","False","False",397,4650,NA
"A1RHT4O55JQC2C","Sun Nov 01 2020 11:14:46 GMT-0600 (Central Standard Time)","Sun Nov 01 2020 11:25:10 GMT-0600 (Central Standard Time)","Mozilla/5.0 (Windows NT 10.0; Win64; x64) AppleWebKit/537.36 (KHTML, like Gecko) Chrome/86.0.4240.111 Safari/537.36",133,"[0.9, 0.5, 0.1]","[0.8, 0.4, 0.2]","[u'black', u'red', u'blue']","[u'left', u'middle', u'right']","[0.8, 0.4, 0.2]","[u'medium', u'low', u'high']","blue",51,"right","high","True","False",318,4750,NA
"A1RHT4O55JQC2C","Sun Nov 01 2020 11:14:46 GMT-0600 (Central Standard Time)","Sun Nov 01 2020 11:25:10 GMT-0600 (Central Standard Time)","Mozilla/5.0 (Windows NT 10.0; Win64; x64) AppleWebKit/537.36 (KHTML, like Gecko) Chrome/86.0.4240.111 Safari/537.36",134,"[0.9, 0.5, 0.1]","[0.8, 0.4, 0.2]","[u'black', u'red', u'blue']","[u'left', u'middle', u'right']","[0.8, 0.4, 0.2]","[u'medium', u'low', u'high']","blue",51,"right","high","False","False",286,4700,NA
"A1RHT4O55JQC2C","Sun Nov 01 2020 11:14:46 GMT-0600 (Central Standard Time)","Sun Nov 01 2020 11:25:10 GMT-0600 (Central Standard Time)","Mozilla/5.0 (Windows NT 10.0; Win64; x64) AppleWebKit/537.36 (KHTML, like Gecko) Chrome/86.0.4240.111 Safari/537.36",135,"[0.9, 0.5, 0.1]","[0.8, 0.4, 0.2]","[u'black', u'red', u'blue']","[u'left', u'middle', u'right']","[0.8, 0.4, 0.2]","[u'medium', u'low', u'high']","black",49,"left","medium","True","False",200,4800,NA
"A1RHT4O55JQC2C","Sun Nov 01 2020 11:14:46 GMT-0600 (Central Standard Time)","Sun Nov 01 2020 11:25:10 GMT-0600 (Central Standard Time)","Mozilla/5.0 (Windows NT 10.0; Win64; x64) AppleWebKit/537.36 (KHTML, like Gecko) Chrome/86.0.4240.111 Safari/537.36",136,"[0.9, 0.5, 0.1]","[0.8, 0.4, 0.2]","[u'black', u'red', u'blue']","[u'left', u'middle', u'right']","[0.8, 0.4, 0.2]","[u'medium', u'low', u'high']","black",49,"left","medium","False","False",478,4750,NA
"A1RHT4O55JQC2C","Sun Nov 01 2020 11:14:46 GMT-0600 (Central Standard Time)","Sun Nov 01 2020 11:25:10 GMT-0600 (Central Standard Time)","Mozilla/5.0 (Windows NT 10.0; Win64; x64) AppleWebKit/537.36 (KHTML, like Gecko) Chrome/86.0.4240.111 Safari/537.36",137,"[0.9, 0.5, 0.1]","[0.8, 0.4, 0.2]","[u'black', u'red', u'blue']","[u'left', u'middle', u'right']","[0.8, 0.4, 0.2]","[u'medium', u'low', u'high']","red",50,"middle","low","False","False",100,4700,NA
"A1RHT4O55JQC2C","Sun Nov 01 2020 11:14:46 GMT-0600 (Central Standard Time)","Sun Nov 01 2020 11:25:10 GMT-0600 (Central Standard Time)","Mozilla/5.0 (Windows NT 10.0; Win64; x64) AppleWebKit/537.36 (KHTML, like Gecko) Chrome/86.0.4240.111 Safari/537.36",138,"[0.9, 0.5, 0.1]","[0.8, 0.4, 0.2]","[u'black', u'red', u'blue']","[u'left', u'middle', u'right']","[0.8, 0.4, 0.2]","[u'medium', u'low', u'high']","black",49,"left","medium","False","False",346,4650,NA
"A1RHT4O55JQC2C","Sun Nov 01 2020 11:14:46 GMT-0600 (Central Standard Time)","Sun Nov 01 2020 11:25:10 GMT-0600 (Central Standard Time)","Mozilla/5.0 (Windows NT 10.0; Win64; x64) AppleWebKit/537.36 (KHTML, like Gecko) Chrome/86.0.4240.111 Safari/537.36",139,"[0.9, 0.5, 0.1]","[0.8, 0.4, 0.2]","[u'black', u'red', u'blue']","[u'left', u'middle', u'right']","[0.8, 0.4, 0.2]","[u'medium', u'low', u'high']","blue",51,"right","high","True","False",310,4750,NA
"A1RHT4O55JQC2C","Sun Nov 01 2020 11:14:46 GMT-0600 (Central Standard Time)","Sun Nov 01 2020 11:25:10 GMT-0600 (Central Standard Time)","Mozilla/5.0 (Windows NT 10.0; Win64; x64) AppleWebKit/537.36 (KHTML, like Gecko) Chrome/86.0.4240.111 Safari/537.36",140,"[0.9, 0.5, 0.1]","[0.8, 0.4, 0.2]","[u'black', u'red', u'blue']","[u'left', u'middle', u'right']","[0.8, 0.4, 0.2]","[u'medium', u'low', u'high']","blue",51,"right","high","False","False",294,4700,NA
"A1RHT4O55JQC2C","Sun Nov 01 2020 11:14:46 GMT-0600 (Central Standard Time)","Sun Nov 01 2020 11:25:10 GMT-0600 (Central Standard Time)","Mozilla/5.0 (Windows NT 10.0; Win64; x64) AppleWebKit/537.36 (KHTML, like Gecko) Chrome/86.0.4240.111 Safari/537.36",141,"[0.9, 0.5, 0.1]","[0.8, 0.4, 0.2]","[u'black', u'red', u'blue']","[u'left', u'middle', u'right']","[0.8, 0.4, 0.2]","[u'medium', u'low', u'high']","red",50,"middle","low","False","False",329,4650,NA
"A1RHT4O55JQC2C","Sun Nov 01 2020 11:14:46 GMT-0600 (Central Standard Time)","Sun Nov 01 2020 11:25:10 GMT-0600 (Central Standard Time)","Mozilla/5.0 (Windows NT 10.0; Win64; x64) AppleWebKit/537.36 (KHTML, like Gecko) Chrome/86.0.4240.111 Safari/537.36",142,"[0.9, 0.5, 0.1]","[0.8, 0.4, 0.2]","[u'black', u'red', u'blue']","[u'left', u'middle', u'right']","[0.8, 0.4, 0.2]","[u'medium', u'low', u'high']","blue",51,"right","high","True","False",317,4750,NA
"A1RHT4O55JQC2C","Sun Nov 01 2020 11:14:46 GMT-0600 (Central Standard Time)","Sun Nov 01 2020 11:25:10 GMT-0600 (Central Standard Time)","Mozilla/5.0 (Windows NT 10.0; Win64; x64) AppleWebKit/537.36 (KHTML, like Gecko) Chrome/86.0.4240.111 Safari/537.36",143,"[0.9, 0.5, 0.1]","[0.8, 0.4, 0.2]","[u'black', u'red', u'blue']","[u'left', u'middle', u'right']","[0.8, 0.4, 0.2]","[u'medium', u'low', u'high']","black",49,"left","medium","False","False",1306,4700,NA
"A1RHT4O55JQC2C","Sun Nov 01 2020 11:14:46 GMT-0600 (Central Standard Time)","Sun Nov 01 2020 11:25:10 GMT-0600 (Central Standard Time)","Mozilla/5.0 (Windows NT 10.0; Win64; x64) AppleWebKit/537.36 (KHTML, like Gecko) Chrome/86.0.4240.111 Safari/537.36",144,"[0.9, 0.5, 0.1]","[0.8, 0.4, 0.2]","[u'black', u'red', u'blue']","[u'left', u'middle', u'right']","[0.8, 0.4, 0.2]","[u'medium', u'low', u'high']","red",50,"middle","low","True","False",199,4800,NA
"A1RHT4O55JQC2C","Sun Nov 01 2020 11:14:46 GMT-0600 (Central Standard Time)","Sun Nov 01 2020 11:25:10 GMT-0600 (Central Standard Time)","Mozilla/5.0 (Windows NT 10.0; Win64; x64) AppleWebKit/537.36 (KHTML, like Gecko) Chrome/86.0.4240.111 Safari/537.36",145,"[0.9, 0.5, 0.1]","[0.8, 0.4, 0.2]","[u'black', u'red', u'blue']","[u'left', u'middle', u'right']","[0.8, 0.4, 0.2]","[u'medium', u'low', u'high']","red",50,"middle","low","False","False",247,4750,NA
"A1RHT4O55JQC2C","Sun Nov 01 2020 11:14:46 GMT-0600 (Central Standard Time)","Sun Nov 01 2020 11:25:10 GMT-0600 (Central Standard Time)","Mozilla/5.0 (Windows NT 10.0; Win64; x64) AppleWebKit/537.36 (KHTML, like Gecko) Chrome/86.0.4240.111 Safari/537.36",146,"[0.9, 0.5, 0.1]","[0.8, 0.4, 0.2]","[u'black', u'red', u'blue']","[u'left', u'middle', u'right']","[0.8, 0.4, 0.2]","[u'medium', u'low', u'high']","blue",51,"right","high","True","False",263,4850,NA
"A1RHT4O55JQC2C","Sun Nov 01 2020 11:14:46 GMT-0600 (Central Standard Time)","Sun Nov 01 2020 11:25:10 GMT-0600 (Central Standard Time)","Mozilla/5.0 (Windows NT 10.0; Win64; x64) AppleWebKit/537.36 (KHTML, like Gecko) Chrome/86.0.4240.111 Safari/537.36",147,"[0.9, 0.5, 0.1]","[0.8, 0.4, 0.2]","[u'black', u'red', u'blue']","[u'left', u'middle', u'right']","[0.8, 0.4, 0.2]","[u'medium', u'low', u'high']","blue",51,"right","high","True","False",673,4950,NA
"A1RHT4O55JQC2C","Sun Nov 01 2020 11:14:46 GMT-0600 (Central Standard Time)","Sun Nov 01 2020 11:25:10 GMT-0600 (Central Standard Time)","Mozilla/5.0 (Windows NT 10.0; Win64; x64) AppleWebKit/537.36 (KHTML, like Gecko) Chrome/86.0.4240.111 Safari/537.36",148,"[0.9, 0.5, 0.1]","[0.8, 0.4, 0.2]","[u'black', u'red', u'blue']","[u'left', u'middle', u'right']","[0.8, 0.4, 0.2]","[u'medium', u'low', u'high']","blue",51,"right","high","True","False",1477,5050,NA
"A1RHT4O55JQC2C","Sun Nov 01 2020 11:14:46 GMT-0600 (Central Standard Time)","Sun Nov 01 2020 11:25:10 GMT-0600 (Central Standard Time)","Mozilla/5.0 (Windows NT 10.0; Win64; x64) AppleWebKit/537.36 (KHTML, like Gecko) Chrome/86.0.4240.111 Safari/537.36",149,"[0.9, 0.5, 0.1]","[0.8, 0.4, 0.2]","[u'black', u'red', u'blue']","[u'left', u'middle', u'right']","[0.8, 0.4, 0.2]","[u'medium', u'low', u'high']","blue",51,"right","high","True","False",367,5150,NA
"A1RHT4O55JQC2C","Sun Nov 01 2020 11:14:46 GMT-0600 (Central Standard Time)","Sun Nov 01 2020 11:25:10 GMT-0600 (Central Standard Time)","Mozilla/5.0 (Windows NT 10.0; Win64; x64) AppleWebKit/537.36 (KHTML, like Gecko) Chrome/86.0.4240.111 Safari/537.36",150,"[0.9, 0.5, 0.1]","[0.8, 0.4, 0.2]","[u'black', u'red', u'blue']","[u'left', u'middle', u'right']","[0.8, 0.4, 0.2]","[u'medium', u'low', u'high']","blue",51,"right","high","False","False",291,5100,NA
"A1RHT4O55JQC2C","Sun Nov 01 2020 11:14:46 GMT-0600 (Central Standard Time)","Sun Nov 01 2020 11:25:10 GMT-0600 (Central Standard Time)","Mozilla/5.0 (Windows NT 10.0; Win64; x64) AppleWebKit/537.36 (KHTML, like Gecko) Chrome/86.0.4240.111 Safari/537.36",151,"[0.9, 0.5, 0.1]","[0.8, 0.4, 0.2]","[u'black', u'red', u'blue']","[u'left', u'middle', u'right']","[0.8, 0.4, 0.2]","[u'medium', u'low', u'high']","blue",51,"right","high","True","False",394,5200,NA
"A1RHT4O55JQC2C","Sun Nov 01 2020 11:14:46 GMT-0600 (Central Standard Time)","Sun Nov 01 2020 11:25:10 GMT-0600 (Central Standard Time)","Mozilla/5.0 (Windows NT 10.0; Win64; x64) AppleWebKit/537.36 (KHTML, like Gecko) Chrome/86.0.4240.111 Safari/537.36",152,"[0.9, 0.5, 0.1]","[0.8, 0.4, 0.2]","[u'black', u'red', u'blue']","[u'left', u'middle', u'right']","[0.8, 0.4, 0.2]","[u'medium', u'low', u'high']","blue",51,"right","high","True","False",293,5300,NA
"A1RHT4O55JQC2C","Sun Nov 01 2020 11:14:46 GMT-0600 (Central Standard Time)","Sun Nov 01 2020 11:25:10 GMT-0600 (Central Standard Time)","Mozilla/5.0 (Windows NT 10.0; Win64; x64) AppleWebKit/537.36 (KHTML, like Gecko) Chrome/86.0.4240.111 Safari/537.36",153,"[0.9, 0.5, 0.1]","[0.8, 0.4, 0.2]","[u'black', u'red', u'blue']","[u'left', u'middle', u'right']","[0.8, 0.4, 0.2]","[u'medium', u'low', u'high']","blue",51,"right","high","True","False",402,5400,NA
"A1RHT4O55JQC2C","Sun Nov 01 2020 11:14:46 GMT-0600 (Central Standard Time)","Sun Nov 01 2020 11:25:10 GMT-0600 (Central Standard Time)","Mozilla/5.0 (Windows NT 10.0; Win64; x64) AppleWebKit/537.36 (KHTML, like Gecko) Chrome/86.0.4240.111 Safari/537.36",154,"[0.9, 0.5, 0.1]","[0.8, 0.4, 0.2]","[u'black', u'red', u'blue']","[u'left', u'middle', u'right']","[0.8, 0.4, 0.2]","[u'medium', u'low', u'high']","blue",51,"right","high","True","True",736,5500,NA
"A1RHT4O55JQC2C","Sun Nov 01 2020 11:14:46 GMT-0600 (Central Standard Time)","Sun Nov 01 2020 11:25:10 GMT-0600 (Central Standard Time)","Mozilla/5.0 (Windows NT 10.0; Win64; x64) AppleWebKit/537.36 (KHTML, like Gecko) Chrome/86.0.4240.111 Safari/537.36",155,"[0.9, 0.5, 0.1]","[0.8, 0.4, 0.2]","[u'black', u'red', u'blue']","[u'left', u'middle', u'right']","[0.8, 0.4, 0.2]","[u'low', u'high', u'medium']","blue",51,"right","medium","False","False",324,5450,NA
"A1RHT4O55JQC2C","Sun Nov 01 2020 11:14:46 GMT-0600 (Central Standard Time)","Sun Nov 01 2020 11:25:10 GMT-0600 (Central Standard Time)","Mozilla/5.0 (Windows NT 10.0; Win64; x64) AppleWebKit/537.36 (KHTML, like Gecko) Chrome/86.0.4240.111 Safari/537.36",156,"[0.9, 0.5, 0.1]","[0.8, 0.4, 0.2]","[u'black', u'red', u'blue']","[u'left', u'middle', u'right']","[0.8, 0.4, 0.2]","[u'low', u'high', u'medium']","blue",51,"right","medium","False","False",177,5400,NA
"A1RHT4O55JQC2C","Sun Nov 01 2020 11:14:46 GMT-0600 (Central Standard Time)","Sun Nov 01 2020 11:25:10 GMT-0600 (Central Standard Time)","Mozilla/5.0 (Windows NT 10.0; Win64; x64) AppleWebKit/537.36 (KHTML, like Gecko) Chrome/86.0.4240.111 Safari/537.36",157,"[0.9, 0.5, 0.1]","[0.8, 0.4, 0.2]","[u'black', u'red', u'blue']","[u'left', u'middle', u'right']","[0.8, 0.4, 0.2]","[u'low', u'high', u'medium']","blue",51,"right","medium","True","False",338,5500,NA
"A1RHT4O55JQC2C","Sun Nov 01 2020 11:14:46 GMT-0600 (Central Standard Time)","Sun Nov 01 2020 11:25:10 GMT-0600 (Central Standard Time)","Mozilla/5.0 (Windows NT 10.0; Win64; x64) AppleWebKit/537.36 (KHTML, like Gecko) Chrome/86.0.4240.111 Safari/537.36",158,"[0.9, 0.5, 0.1]","[0.8, 0.4, 0.2]","[u'black', u'red', u'blue']","[u'left', u'middle', u'right']","[0.8, 0.4, 0.2]","[u'low', u'high', u'medium']","blue",51,"right","medium","True","False",5566,5600,NA
"A1RHT4O55JQC2C","Sun Nov 01 2020 11:14:46 GMT-0600 (Central Standard Time)","Sun Nov 01 2020 11:25:10 GMT-0600 (Central Standard Time)","Mozilla/5.0 (Windows NT 10.0; Win64; x64) AppleWebKit/537.36 (KHTML, like Gecko) Chrome/86.0.4240.111 Safari/537.36",159,"[0.9, 0.5, 0.1]","[0.8, 0.4, 0.2]","[u'black', u'red', u'blue']","[u'left', u'middle', u'right']","[0.8, 0.4, 0.2]","[u'low', u'high', u'medium']","blue",51,"right","medium","False","False",1229,5550,NA
"A1RHT4O55JQC2C","Sun Nov 01 2020 11:14:46 GMT-0600 (Central Standard Time)","Sun Nov 01 2020 11:25:10 GMT-0600 (Central Standard Time)","Mozilla/5.0 (Windows NT 10.0; Win64; x64) AppleWebKit/537.36 (KHTML, like Gecko) Chrome/86.0.4240.111 Safari/537.36",160,"[0.9, 0.5, 0.1]","[0.8, 0.4, 0.2]","[u'black', u'red', u'blue']","[u'left', u'middle', u'right']","[0.8, 0.4, 0.2]","[u'low', u'high', u'medium']","blue",51,"right","medium","True","False",551,5650,NA
