"src_subject_id","start_time","end_time","browser","index","first_half_probabilities","second_half_probabilities","deck_color","deck_position","deck_probabilities","deck_contingencies","response_color","key_press","response_position","response_probability","reward_type","trial_type","rt","reward_tally","exclusion_reason"
"A3JI3B5GTVA95F","Sun Nov 01 2020 15:43:48 GMT-0500 (Eastern Standard Time)","Sun Nov 01 2020 15:54:04 GMT-0500 (Eastern Standard Time)","Mozilla/5.0 (Windows NT 6.1; Win64; x64; rv:82.0) Gecko/20100101 Firefox/82.0",1,"[0.9, 0.5, 0.1]","[0.8, 0.4, 0.2]","[u'red', u'black', u'blue']","[u'left', u'middle', u'right']","[0.9, 0.5, 0.1]","[u'medium', u'high', u'low']","red",49,"left","medium","True","False",1095,100,NA
"A3JI3B5GTVA95F","Sun Nov 01 2020 15:43:48 GMT-0500 (Eastern Standard Time)","Sun Nov 01 2020 15:54:04 GMT-0500 (Eastern Standard Time)","Mozilla/5.0 (Windows NT 6.1; Win64; x64; rv:82.0) Gecko/20100101 Firefox/82.0",2,"[0.9, 0.5, 0.1]","[0.8, 0.4, 0.2]","[u'red', u'black', u'blue']","[u'left', u'middle', u'right']","[0.9, 0.5, 0.1]","[u'medium', u'high', u'low']","red",49,"left","medium","True","False",519,200,NA
"A3JI3B5GTVA95F","Sun Nov 01 2020 15:43:48 GMT-0500 (Eastern Standard Time)","Sun Nov 01 2020 15:54:04 GMT-0500 (Eastern Standard Time)","Mozilla/5.0 (Windows NT 6.1; Win64; x64; rv:82.0) Gecko/20100101 Firefox/82.0",3,"[0.9, 0.5, 0.1]","[0.8, 0.4, 0.2]","[u'red', u'black', u'blue']","[u'left', u'middle', u'right']","[0.9, 0.5, 0.1]","[u'medium', u'high', u'low']","red",49,"left","medium","True","False",514,300,NA
"A3JI3B5GTVA95F","Sun Nov 01 2020 15:43:48 GMT-0500 (Eastern Standard Time)","Sun Nov 01 2020 15:54:04 GMT-0500 (Eastern Standard Time)","Mozilla/5.0 (Windows NT 6.1; Win64; x64; rv:82.0) Gecko/20100101 Firefox/82.0",4,"[0.9, 0.5, 0.1]","[0.8, 0.4, 0.2]","[u'red', u'black', u'blue']","[u'left', u'middle', u'right']","[0.9, 0.5, 0.1]","[u'medium', u'high', u'low']","red",49,"left","medium","False","False",590,250,NA
"A3JI3B5GTVA95F","Sun Nov 01 2020 15:43:48 GMT-0500 (Eastern Standard Time)","Sun Nov 01 2020 15:54:04 GMT-0500 (Eastern Standard Time)","Mozilla/5.0 (Windows NT 6.1; Win64; x64; rv:82.0) Gecko/20100101 Firefox/82.0",5,"[0.9, 0.5, 0.1]","[0.8, 0.4, 0.2]","[u'red', u'black', u'blue']","[u'left', u'middle', u'right']","[0.9, 0.5, 0.1]","[u'medium', u'high', u'low']","black",50,"middle","high","True","False",425,350,NA
"A3JI3B5GTVA95F","Sun Nov 01 2020 15:43:48 GMT-0500 (Eastern Standard Time)","Sun Nov 01 2020 15:54:04 GMT-0500 (Eastern Standard Time)","Mozilla/5.0 (Windows NT 6.1; Win64; x64; rv:82.0) Gecko/20100101 Firefox/82.0",6,"[0.9, 0.5, 0.1]","[0.8, 0.4, 0.2]","[u'red', u'black', u'blue']","[u'left', u'middle', u'right']","[0.9, 0.5, 0.1]","[u'medium', u'high', u'low']","black",50,"middle","high","True","False",472,450,NA
"A3JI3B5GTVA95F","Sun Nov 01 2020 15:43:48 GMT-0500 (Eastern Standard Time)","Sun Nov 01 2020 15:54:04 GMT-0500 (Eastern Standard Time)","Mozilla/5.0 (Windows NT 6.1; Win64; x64; rv:82.0) Gecko/20100101 Firefox/82.0",7,"[0.9, 0.5, 0.1]","[0.8, 0.4, 0.2]","[u'red', u'black', u'blue']","[u'left', u'middle', u'right']","[0.9, 0.5, 0.1]","[u'medium', u'high', u'low']","black",50,"middle","high","True","False",491,550,NA
"A3JI3B5GTVA95F","Sun Nov 01 2020 15:43:48 GMT-0500 (Eastern Standard Time)","Sun Nov 01 2020 15:54:04 GMT-0500 (Eastern Standard Time)","Mozilla/5.0 (Windows NT 6.1; Win64; x64; rv:82.0) Gecko/20100101 Firefox/82.0",8,"[0.9, 0.5, 0.1]","[0.8, 0.4, 0.2]","[u'red', u'black', u'blue']","[u'left', u'middle', u'right']","[0.9, 0.5, 0.1]","[u'medium', u'high', u'low']","black",50,"middle","high","True","False",540,650,NA
"A3JI3B5GTVA95F","Sun Nov 01 2020 15:43:48 GMT-0500 (Eastern Standard Time)","Sun Nov 01 2020 15:54:04 GMT-0500 (Eastern Standard Time)","Mozilla/5.0 (Windows NT 6.1; Win64; x64; rv:82.0) Gecko/20100101 Firefox/82.0",9,"[0.9, 0.5, 0.1]","[0.8, 0.4, 0.2]","[u'red', u'black', u'blue']","[u'left', u'middle', u'right']","[0.9, 0.5, 0.1]","[u'medium', u'high', u'low']","black",50,"middle","high","True","False",514,750,NA
"A3JI3B5GTVA95F","Sun Nov 01 2020 15:43:48 GMT-0500 (Eastern Standard Time)","Sun Nov 01 2020 15:54:04 GMT-0500 (Eastern Standard Time)","Mozilla/5.0 (Windows NT 6.1; Win64; x64; rv:82.0) Gecko/20100101 Firefox/82.0",10,"[0.9, 0.5, 0.1]","[0.8, 0.4, 0.2]","[u'red', u'black', u'blue']","[u'left', u'middle', u'right']","[0.9, 0.5, 0.1]","[u'medium', u'high', u'low']","black",50,"middle","high","True","False",478,850,NA
"A3JI3B5GTVA95F","Sun Nov 01 2020 15:43:48 GMT-0500 (Eastern Standard Time)","Sun Nov 01 2020 15:54:04 GMT-0500 (Eastern Standard Time)","Mozilla/5.0 (Windows NT 6.1; Win64; x64; rv:82.0) Gecko/20100101 Firefox/82.0",11,"[0.9, 0.5, 0.1]","[0.8, 0.4, 0.2]","[u'red', u'black', u'blue']","[u'left', u'middle', u'right']","[0.9, 0.5, 0.1]","[u'medium', u'high', u'low']","black",50,"middle","high","False","False",474,800,NA
"A3JI3B5GTVA95F","Sun Nov 01 2020 15:43:48 GMT-0500 (Eastern Standard Time)","Sun Nov 01 2020 15:54:04 GMT-0500 (Eastern Standard Time)","Mozilla/5.0 (Windows NT 6.1; Win64; x64; rv:82.0) Gecko/20100101 Firefox/82.0",12,"[0.9, 0.5, 0.1]","[0.8, 0.4, 0.2]","[u'red', u'black', u'blue']","[u'left', u'middle', u'right']","[0.9, 0.5, 0.1]","[u'medium', u'high', u'low']","blue",51,"right","low","False","False",342,750,NA
"A3JI3B5GTVA95F","Sun Nov 01 2020 15:43:48 GMT-0500 (Eastern Standard Time)","Sun Nov 01 2020 15:54:04 GMT-0500 (Eastern Standard Time)","Mozilla/5.0 (Windows NT 6.1; Win64; x64; rv:82.0) Gecko/20100101 Firefox/82.0",13,"[0.9, 0.5, 0.1]","[0.8, 0.4, 0.2]","[u'red', u'black', u'blue']","[u'left', u'middle', u'right']","[0.9, 0.5, 0.1]","[u'medium', u'high', u'low']","black",50,"middle","high","True","False",268,850,NA
"A3JI3B5GTVA95F","Sun Nov 01 2020 15:43:48 GMT-0500 (Eastern Standard Time)","Sun Nov 01 2020 15:54:04 GMT-0500 (Eastern Standard Time)","Mozilla/5.0 (Windows NT 6.1; Win64; x64; rv:82.0) Gecko/20100101 Firefox/82.0",14,"[0.9, 0.5, 0.1]","[0.8, 0.4, 0.2]","[u'red', u'black', u'blue']","[u'left', u'middle', u'right']","[0.9, 0.5, 0.1]","[u'medium', u'high', u'low']","black",50,"middle","high","False","True",257,800,NA
"A3JI3B5GTVA95F","Sun Nov 01 2020 15:43:48 GMT-0500 (Eastern Standard Time)","Sun Nov 01 2020 15:54:04 GMT-0500 (Eastern Standard Time)","Mozilla/5.0 (Windows NT 6.1; Win64; x64; rv:82.0) Gecko/20100101 Firefox/82.0",15,"[0.9, 0.5, 0.1]","[0.8, 0.4, 0.2]","[u'red', u'black', u'blue']","[u'left', u'middle', u'right']","[0.9, 0.5, 0.1]","[u'high', u'low', u'medium']","red",49,"left","high","True","False",249,900,NA
"A3JI3B5GTVA95F","Sun Nov 01 2020 15:43:48 GMT-0500 (Eastern Standard Time)","Sun Nov 01 2020 15:54:04 GMT-0500 (Eastern Standard Time)","Mozilla/5.0 (Windows NT 6.1; Win64; x64; rv:82.0) Gecko/20100101 Firefox/82.0",16,"[0.9, 0.5, 0.1]","[0.8, 0.4, 0.2]","[u'red', u'black', u'blue']","[u'left', u'middle', u'right']","[0.9, 0.5, 0.1]","[u'high', u'low', u'medium']","red",49,"left","high","True","False",426,1000,NA
"A3JI3B5GTVA95F","Sun Nov 01 2020 15:43:48 GMT-0500 (Eastern Standard Time)","Sun Nov 01 2020 15:54:04 GMT-0500 (Eastern Standard Time)","Mozilla/5.0 (Windows NT 6.1; Win64; x64; rv:82.0) Gecko/20100101 Firefox/82.0",17,"[0.9, 0.5, 0.1]","[0.8, 0.4, 0.2]","[u'red', u'black', u'blue']","[u'left', u'middle', u'right']","[0.9, 0.5, 0.1]","[u'high', u'low', u'medium']","red",49,"left","high","True","False",433,1100,NA
"A3JI3B5GTVA95F","Sun Nov 01 2020 15:43:48 GMT-0500 (Eastern Standard Time)","Sun Nov 01 2020 15:54:04 GMT-0500 (Eastern Standard Time)","Mozilla/5.0 (Windows NT 6.1; Win64; x64; rv:82.0) Gecko/20100101 Firefox/82.0",18,"[0.9, 0.5, 0.1]","[0.8, 0.4, 0.2]","[u'red', u'black', u'blue']","[u'left', u'middle', u'right']","[0.9, 0.5, 0.1]","[u'high', u'low', u'medium']","red",49,"left","high","True","False",332,1200,NA
"A3JI3B5GTVA95F","Sun Nov 01 2020 15:43:48 GMT-0500 (Eastern Standard Time)","Sun Nov 01 2020 15:54:04 GMT-0500 (Eastern Standard Time)","Mozilla/5.0 (Windows NT 6.1; Win64; x64; rv:82.0) Gecko/20100101 Firefox/82.0",19,"[0.9, 0.5, 0.1]","[0.8, 0.4, 0.2]","[u'red', u'black', u'blue']","[u'left', u'middle', u'right']","[0.9, 0.5, 0.1]","[u'high', u'low', u'medium']","red",49,"left","high","False","False",404,1150,NA
"A3JI3B5GTVA95F","Sun Nov 01 2020 15:43:48 GMT-0500 (Eastern Standard Time)","Sun Nov 01 2020 15:54:04 GMT-0500 (Eastern Standard Time)","Mozilla/5.0 (Windows NT 6.1; Win64; x64; rv:82.0) Gecko/20100101 Firefox/82.0",20,"[0.9, 0.5, 0.1]","[0.8, 0.4, 0.2]","[u'red', u'black', u'blue']","[u'left', u'middle', u'right']","[0.9, 0.5, 0.1]","[u'high', u'low', u'medium']","red",49,"left","high","True","False",317,1250,NA
"A3JI3B5GTVA95F","Sun Nov 01 2020 15:43:48 GMT-0500 (Eastern Standard Time)","Sun Nov 01 2020 15:54:04 GMT-0500 (Eastern Standard Time)","Mozilla/5.0 (Windows NT 6.1; Win64; x64; rv:82.0) Gecko/20100101 Firefox/82.0",21,"[0.9, 0.5, 0.1]","[0.8, 0.4, 0.2]","[u'red', u'black', u'blue']","[u'left', u'middle', u'right']","[0.9, 0.5, 0.1]","[u'high', u'low', u'medium']","red",49,"left","high","True","False",386,1350,NA
"A3JI3B5GTVA95F","Sun Nov 01 2020 15:43:48 GMT-0500 (Eastern Standard Time)","Sun Nov 01 2020 15:54:04 GMT-0500 (Eastern Standard Time)","Mozilla/5.0 (Windows NT 6.1; Win64; x64; rv:82.0) Gecko/20100101 Firefox/82.0",22,"[0.9, 0.5, 0.1]","[0.8, 0.4, 0.2]","[u'red', u'black', u'blue']","[u'left', u'middle', u'right']","[0.9, 0.5, 0.1]","[u'high', u'low', u'medium']","red",49,"left","high","True","False",367,1450,NA
"A3JI3B5GTVA95F","Sun Nov 01 2020 15:43:48 GMT-0500 (Eastern Standard Time)","Sun Nov 01 2020 15:54:04 GMT-0500 (Eastern Standard Time)","Mozilla/5.0 (Windows NT 6.1; Win64; x64; rv:82.0) Gecko/20100101 Firefox/82.0",23,"[0.9, 0.5, 0.1]","[0.8, 0.4, 0.2]","[u'red', u'black', u'blue']","[u'left', u'middle', u'right']","[0.9, 0.5, 0.1]","[u'high', u'low', u'medium']","red",49,"left","high","True","True",361,1550,NA
"A3JI3B5GTVA95F","Sun Nov 01 2020 15:43:48 GMT-0500 (Eastern Standard Time)","Sun Nov 01 2020 15:54:04 GMT-0500 (Eastern Standard Time)","Mozilla/5.0 (Windows NT 6.1; Win64; x64; rv:82.0) Gecko/20100101 Firefox/82.0",24,"[0.9, 0.5, 0.1]","[0.8, 0.4, 0.2]","[u'red', u'black', u'blue']","[u'left', u'middle', u'right']","[0.9, 0.5, 0.1]","[u'low', u'high', u'medium']","red",49,"left","low","False","False",291,1500,NA
"A3JI3B5GTVA95F","Sun Nov 01 2020 15:43:48 GMT-0500 (Eastern Standard Time)","Sun Nov 01 2020 15:54:04 GMT-0500 (Eastern Standard Time)","Mozilla/5.0 (Windows NT 6.1; Win64; x64; rv:82.0) Gecko/20100101 Firefox/82.0",25,"[0.9, 0.5, 0.1]","[0.8, 0.4, 0.2]","[u'red', u'black', u'blue']","[u'left', u'middle', u'right']","[0.9, 0.5, 0.1]","[u'low', u'high', u'medium']","red",49,"left","low","False","False",276,1450,NA
"A3JI3B5GTVA95F","Sun Nov 01 2020 15:43:48 GMT-0500 (Eastern Standard Time)","Sun Nov 01 2020 15:54:04 GMT-0500 (Eastern Standard Time)","Mozilla/5.0 (Windows NT 6.1; Win64; x64; rv:82.0) Gecko/20100101 Firefox/82.0",26,"[0.9, 0.5, 0.1]","[0.8, 0.4, 0.2]","[u'red', u'black', u'blue']","[u'left', u'middle', u'right']","[0.9, 0.5, 0.1]","[u'low', u'high', u'medium']","black",50,"middle","high","True","False",113,1550,NA
"A3JI3B5GTVA95F","Sun Nov 01 2020 15:43:48 GMT-0500 (Eastern Standard Time)","Sun Nov 01 2020 15:54:04 GMT-0500 (Eastern Standard Time)","Mozilla/5.0 (Windows NT 6.1; Win64; x64; rv:82.0) Gecko/20100101 Firefox/82.0",27,"[0.9, 0.5, 0.1]","[0.8, 0.4, 0.2]","[u'red', u'black', u'blue']","[u'left', u'middle', u'right']","[0.9, 0.5, 0.1]","[u'low', u'high', u'medium']","black",50,"middle","high","False","False",477,1500,NA
"A3JI3B5GTVA95F","Sun Nov 01 2020 15:43:48 GMT-0500 (Eastern Standard Time)","Sun Nov 01 2020 15:54:04 GMT-0500 (Eastern Standard Time)","Mozilla/5.0 (Windows NT 6.1; Win64; x64; rv:82.0) Gecko/20100101 Firefox/82.0",28,"[0.9, 0.5, 0.1]","[0.8, 0.4, 0.2]","[u'red', u'black', u'blue']","[u'left', u'middle', u'right']","[0.9, 0.5, 0.1]","[u'low', u'high', u'medium']","black",50,"middle","high","True","False",288,1600,NA
"A3JI3B5GTVA95F","Sun Nov 01 2020 15:43:48 GMT-0500 (Eastern Standard Time)","Sun Nov 01 2020 15:54:04 GMT-0500 (Eastern Standard Time)","Mozilla/5.0 (Windows NT 6.1; Win64; x64; rv:82.0) Gecko/20100101 Firefox/82.0",29,"[0.9, 0.5, 0.1]","[0.8, 0.4, 0.2]","[u'red', u'black', u'blue']","[u'left', u'middle', u'right']","[0.9, 0.5, 0.1]","[u'low', u'high', u'medium']","black",50,"middle","high","True","False",282,1700,NA
"A3JI3B5GTVA95F","Sun Nov 01 2020 15:43:48 GMT-0500 (Eastern Standard Time)","Sun Nov 01 2020 15:54:04 GMT-0500 (Eastern Standard Time)","Mozilla/5.0 (Windows NT 6.1; Win64; x64; rv:82.0) Gecko/20100101 Firefox/82.0",30,"[0.9, 0.5, 0.1]","[0.8, 0.4, 0.2]","[u'red', u'black', u'blue']","[u'left', u'middle', u'right']","[0.9, 0.5, 0.1]","[u'low', u'high', u'medium']","black",50,"middle","high","True","False",309,1800,NA
"A3JI3B5GTVA95F","Sun Nov 01 2020 15:43:48 GMT-0500 (Eastern Standard Time)","Sun Nov 01 2020 15:54:04 GMT-0500 (Eastern Standard Time)","Mozilla/5.0 (Windows NT 6.1; Win64; x64; rv:82.0) Gecko/20100101 Firefox/82.0",31,"[0.9, 0.5, 0.1]","[0.8, 0.4, 0.2]","[u'red', u'black', u'blue']","[u'left', u'middle', u'right']","[0.9, 0.5, 0.1]","[u'low', u'high', u'medium']","black",50,"middle","high","True","False",370,1900,NA
"A3JI3B5GTVA95F","Sun Nov 01 2020 15:43:48 GMT-0500 (Eastern Standard Time)","Sun Nov 01 2020 15:54:04 GMT-0500 (Eastern Standard Time)","Mozilla/5.0 (Windows NT 6.1; Win64; x64; rv:82.0) Gecko/20100101 Firefox/82.0",32,"[0.9, 0.5, 0.1]","[0.8, 0.4, 0.2]","[u'red', u'black', u'blue']","[u'left', u'middle', u'right']","[0.9, 0.5, 0.1]","[u'low', u'high', u'medium']","black",50,"middle","high","True","False",364,2000,NA
"A3JI3B5GTVA95F","Sun Nov 01 2020 15:43:48 GMT-0500 (Eastern Standard Time)","Sun Nov 01 2020 15:54:04 GMT-0500 (Eastern Standard Time)","Mozilla/5.0 (Windows NT 6.1; Win64; x64; rv:82.0) Gecko/20100101 Firefox/82.0",33,"[0.9, 0.5, 0.1]","[0.8, 0.4, 0.2]","[u'red', u'black', u'blue']","[u'left', u'middle', u'right']","[0.9, 0.5, 0.1]","[u'low', u'high', u'medium']","black",50,"middle","high","True","False",366,2100,NA
"A3JI3B5GTVA95F","Sun Nov 01 2020 15:43:48 GMT-0500 (Eastern Standard Time)","Sun Nov 01 2020 15:54:04 GMT-0500 (Eastern Standard Time)","Mozilla/5.0 (Windows NT 6.1; Win64; x64; rv:82.0) Gecko/20100101 Firefox/82.0",34,"[0.9, 0.5, 0.1]","[0.8, 0.4, 0.2]","[u'red', u'black', u'blue']","[u'left', u'middle', u'right']","[0.9, 0.5, 0.1]","[u'low', u'high', u'medium']","black",50,"middle","high","False","True",336,2050,NA
"A3JI3B5GTVA95F","Sun Nov 01 2020 15:43:48 GMT-0500 (Eastern Standard Time)","Sun Nov 01 2020 15:54:04 GMT-0500 (Eastern Standard Time)","Mozilla/5.0 (Windows NT 6.1; Win64; x64; rv:82.0) Gecko/20100101 Firefox/82.0",35,"[0.9, 0.5, 0.1]","[0.8, 0.4, 0.2]","[u'red', u'black', u'blue']","[u'left', u'middle', u'right']","[0.9, 0.5, 0.1]","[u'low', u'medium', u'high']","black",50,"middle","medium","True","False",256,2150,NA
"A3JI3B5GTVA95F","Sun Nov 01 2020 15:43:48 GMT-0500 (Eastern Standard Time)","Sun Nov 01 2020 15:54:04 GMT-0500 (Eastern Standard Time)","Mozilla/5.0 (Windows NT 6.1; Win64; x64; rv:82.0) Gecko/20100101 Firefox/82.0",36,"[0.9, 0.5, 0.1]","[0.8, 0.4, 0.2]","[u'red', u'black', u'blue']","[u'left', u'middle', u'right']","[0.9, 0.5, 0.1]","[u'low', u'medium', u'high']","black",50,"middle","medium","True","False",208,2250,NA
"A3JI3B5GTVA95F","Sun Nov 01 2020 15:43:48 GMT-0500 (Eastern Standard Time)","Sun Nov 01 2020 15:54:04 GMT-0500 (Eastern Standard Time)","Mozilla/5.0 (Windows NT 6.1; Win64; x64; rv:82.0) Gecko/20100101 Firefox/82.0",37,"[0.9, 0.5, 0.1]","[0.8, 0.4, 0.2]","[u'red', u'black', u'blue']","[u'left', u'middle', u'right']","[0.9, 0.5, 0.1]","[u'low', u'medium', u'high']","black",50,"middle","medium","True","False",298,2350,NA
"A3JI3B5GTVA95F","Sun Nov 01 2020 15:43:48 GMT-0500 (Eastern Standard Time)","Sun Nov 01 2020 15:54:04 GMT-0500 (Eastern Standard Time)","Mozilla/5.0 (Windows NT 6.1; Win64; x64; rv:82.0) Gecko/20100101 Firefox/82.0",38,"[0.9, 0.5, 0.1]","[0.8, 0.4, 0.2]","[u'red', u'black', u'blue']","[u'left', u'middle', u'right']","[0.9, 0.5, 0.1]","[u'low', u'medium', u'high']","black",50,"middle","medium","False","False",314,2300,NA
"A3JI3B5GTVA95F","Sun Nov 01 2020 15:43:48 GMT-0500 (Eastern Standard Time)","Sun Nov 01 2020 15:54:04 GMT-0500 (Eastern Standard Time)","Mozilla/5.0 (Windows NT 6.1; Win64; x64; rv:82.0) Gecko/20100101 Firefox/82.0",39,"[0.9, 0.5, 0.1]","[0.8, 0.4, 0.2]","[u'red', u'black', u'blue']","[u'left', u'middle', u'right']","[0.9, 0.5, 0.1]","[u'low', u'medium', u'high']","black",50,"middle","medium","False","False",118,2250,NA
"A3JI3B5GTVA95F","Sun Nov 01 2020 15:43:48 GMT-0500 (Eastern Standard Time)","Sun Nov 01 2020 15:54:04 GMT-0500 (Eastern Standard Time)","Mozilla/5.0 (Windows NT 6.1; Win64; x64; rv:82.0) Gecko/20100101 Firefox/82.0",40,"[0.9, 0.5, 0.1]","[0.8, 0.4, 0.2]","[u'red', u'black', u'blue']","[u'left', u'middle', u'right']","[0.9, 0.5, 0.1]","[u'low', u'medium', u'high']","blue",51,"right","high","True","False",410,2350,NA
"A3JI3B5GTVA95F","Sun Nov 01 2020 15:43:48 GMT-0500 (Eastern Standard Time)","Sun Nov 01 2020 15:54:04 GMT-0500 (Eastern Standard Time)","Mozilla/5.0 (Windows NT 6.1; Win64; x64; rv:82.0) Gecko/20100101 Firefox/82.0",41,"[0.9, 0.5, 0.1]","[0.8, 0.4, 0.2]","[u'red', u'black', u'blue']","[u'left', u'middle', u'right']","[0.9, 0.5, 0.1]","[u'high', u'low', u'medium']","red",49,"left","high","True","False",810,2450,NA
"A3JI3B5GTVA95F","Sun Nov 01 2020 15:43:48 GMT-0500 (Eastern Standard Time)","Sun Nov 01 2020 15:54:04 GMT-0500 (Eastern Standard Time)","Mozilla/5.0 (Windows NT 6.1; Win64; x64; rv:82.0) Gecko/20100101 Firefox/82.0",42,"[0.9, 0.5, 0.1]","[0.8, 0.4, 0.2]","[u'red', u'black', u'blue']","[u'left', u'middle', u'right']","[0.9, 0.5, 0.1]","[u'high', u'low', u'medium']","red",49,"left","high","True","False",340,2550,NA
"A3JI3B5GTVA95F","Sun Nov 01 2020 15:43:48 GMT-0500 (Eastern Standard Time)","Sun Nov 01 2020 15:54:04 GMT-0500 (Eastern Standard Time)","Mozilla/5.0 (Windows NT 6.1; Win64; x64; rv:82.0) Gecko/20100101 Firefox/82.0",43,"[0.9, 0.5, 0.1]","[0.8, 0.4, 0.2]","[u'red', u'black', u'blue']","[u'left', u'middle', u'right']","[0.9, 0.5, 0.1]","[u'high', u'low', u'medium']","red",49,"left","high","True","False",389,2650,NA
"A3JI3B5GTVA95F","Sun Nov 01 2020 15:43:48 GMT-0500 (Eastern Standard Time)","Sun Nov 01 2020 15:54:04 GMT-0500 (Eastern Standard Time)","Mozilla/5.0 (Windows NT 6.1; Win64; x64; rv:82.0) Gecko/20100101 Firefox/82.0",44,"[0.9, 0.5, 0.1]","[0.8, 0.4, 0.2]","[u'red', u'black', u'blue']","[u'left', u'middle', u'right']","[0.9, 0.5, 0.1]","[u'high', u'low', u'medium']","red",49,"left","high","True","False",370,2750,NA
"A3JI3B5GTVA95F","Sun Nov 01 2020 15:43:48 GMT-0500 (Eastern Standard Time)","Sun Nov 01 2020 15:54:04 GMT-0500 (Eastern Standard Time)","Mozilla/5.0 (Windows NT 6.1; Win64; x64; rv:82.0) Gecko/20100101 Firefox/82.0",45,"[0.9, 0.5, 0.1]","[0.8, 0.4, 0.2]","[u'red', u'black', u'blue']","[u'left', u'middle', u'right']","[0.9, 0.5, 0.1]","[u'high', u'low', u'medium']","red",49,"left","high","True","False",364,2850,NA
"A3JI3B5GTVA95F","Sun Nov 01 2020 15:43:48 GMT-0500 (Eastern Standard Time)","Sun Nov 01 2020 15:54:04 GMT-0500 (Eastern Standard Time)","Mozilla/5.0 (Windows NT 6.1; Win64; x64; rv:82.0) Gecko/20100101 Firefox/82.0",46,"[0.9, 0.5, 0.1]","[0.8, 0.4, 0.2]","[u'red', u'black', u'blue']","[u'left', u'middle', u'right']","[0.9, 0.5, 0.1]","[u'high', u'low', u'medium']","red",49,"left","high","True","False",391,2950,NA
"A3JI3B5GTVA95F","Sun Nov 01 2020 15:43:48 GMT-0500 (Eastern Standard Time)","Sun Nov 01 2020 15:54:04 GMT-0500 (Eastern Standard Time)","Mozilla/5.0 (Windows NT 6.1; Win64; x64; rv:82.0) Gecko/20100101 Firefox/82.0",47,"[0.9, 0.5, 0.1]","[0.8, 0.4, 0.2]","[u'red', u'black', u'blue']","[u'left', u'middle', u'right']","[0.9, 0.5, 0.1]","[u'high', u'low', u'medium']","red",49,"left","high","True","False",329,3050,NA
"A3JI3B5GTVA95F","Sun Nov 01 2020 15:43:48 GMT-0500 (Eastern Standard Time)","Sun Nov 01 2020 15:54:04 GMT-0500 (Eastern Standard Time)","Mozilla/5.0 (Windows NT 6.1; Win64; x64; rv:82.0) Gecko/20100101 Firefox/82.0",48,"[0.9, 0.5, 0.1]","[0.8, 0.4, 0.2]","[u'red', u'black', u'blue']","[u'left', u'middle', u'right']","[0.9, 0.5, 0.1]","[u'high', u'low', u'medium']","red",49,"left","high","True","False",372,3150,NA
"A3JI3B5GTVA95F","Sun Nov 01 2020 15:43:48 GMT-0500 (Eastern Standard Time)","Sun Nov 01 2020 15:54:04 GMT-0500 (Eastern Standard Time)","Mozilla/5.0 (Windows NT 6.1; Win64; x64; rv:82.0) Gecko/20100101 Firefox/82.0",49,"[0.9, 0.5, 0.1]","[0.8, 0.4, 0.2]","[u'red', u'black', u'blue']","[u'left', u'middle', u'right']","[0.9, 0.5, 0.1]","[u'high', u'low', u'medium']","red",49,"left","high","True","True",307,3250,NA
"A3JI3B5GTVA95F","Sun Nov 01 2020 15:43:48 GMT-0500 (Eastern Standard Time)","Sun Nov 01 2020 15:54:04 GMT-0500 (Eastern Standard Time)","Mozilla/5.0 (Windows NT 6.1; Win64; x64; rv:82.0) Gecko/20100101 Firefox/82.0",50,"[0.9, 0.5, 0.1]","[0.8, 0.4, 0.2]","[u'red', u'black', u'blue']","[u'left', u'middle', u'right']","[0.9, 0.5, 0.1]","[u'medium', u'low', u'high']","red",49,"left","medium","True","False",368,3350,NA
"A3JI3B5GTVA95F","Sun Nov 01 2020 15:43:48 GMT-0500 (Eastern Standard Time)","Sun Nov 01 2020 15:54:04 GMT-0500 (Eastern Standard Time)","Mozilla/5.0 (Windows NT 6.1; Win64; x64; rv:82.0) Gecko/20100101 Firefox/82.0",51,"[0.9, 0.5, 0.1]","[0.8, 0.4, 0.2]","[u'red', u'black', u'blue']","[u'left', u'middle', u'right']","[0.9, 0.5, 0.1]","[u'medium', u'low', u'high']","red",49,"left","medium","True","False",433,3450,NA
"A3JI3B5GTVA95F","Sun Nov 01 2020 15:43:48 GMT-0500 (Eastern Standard Time)","Sun Nov 01 2020 15:54:04 GMT-0500 (Eastern Standard Time)","Mozilla/5.0 (Windows NT 6.1; Win64; x64; rv:82.0) Gecko/20100101 Firefox/82.0",52,"[0.9, 0.5, 0.1]","[0.8, 0.4, 0.2]","[u'red', u'black', u'blue']","[u'left', u'middle', u'right']","[0.9, 0.5, 0.1]","[u'medium', u'low', u'high']","red",49,"left","medium","False","False",293,3400,NA
"A3JI3B5GTVA95F","Sun Nov 01 2020 15:43:48 GMT-0500 (Eastern Standard Time)","Sun Nov 01 2020 15:54:04 GMT-0500 (Eastern Standard Time)","Mozilla/5.0 (Windows NT 6.1; Win64; x64; rv:82.0) Gecko/20100101 Firefox/82.0",53,"[0.9, 0.5, 0.1]","[0.8, 0.4, 0.2]","[u'red', u'black', u'blue']","[u'left', u'middle', u'right']","[0.9, 0.5, 0.1]","[u'medium', u'low', u'high']","red",49,"left","medium","False","False",269,3350,NA
"A3JI3B5GTVA95F","Sun Nov 01 2020 15:43:48 GMT-0500 (Eastern Standard Time)","Sun Nov 01 2020 15:54:04 GMT-0500 (Eastern Standard Time)","Mozilla/5.0 (Windows NT 6.1; Win64; x64; rv:82.0) Gecko/20100101 Firefox/82.0",54,"[0.9, 0.5, 0.1]","[0.8, 0.4, 0.2]","[u'red', u'black', u'blue']","[u'left', u'middle', u'right']","[0.9, 0.5, 0.1]","[u'medium', u'low', u'high']","black",50,"middle","low","False","False",186,3300,NA
"A3JI3B5GTVA95F","Sun Nov 01 2020 15:43:48 GMT-0500 (Eastern Standard Time)","Sun Nov 01 2020 15:54:04 GMT-0500 (Eastern Standard Time)","Mozilla/5.0 (Windows NT 6.1; Win64; x64; rv:82.0) Gecko/20100101 Firefox/82.0",55,"[0.9, 0.5, 0.1]","[0.8, 0.4, 0.2]","[u'red', u'black', u'blue']","[u'left', u'middle', u'right']","[0.9, 0.5, 0.1]","[u'medium', u'low', u'high']","blue",51,"right","high","False","False",225,3250,NA
"A3JI3B5GTVA95F","Sun Nov 01 2020 15:43:48 GMT-0500 (Eastern Standard Time)","Sun Nov 01 2020 15:54:04 GMT-0500 (Eastern Standard Time)","Mozilla/5.0 (Windows NT 6.1; Win64; x64; rv:82.0) Gecko/20100101 Firefox/82.0",56,"[0.9, 0.5, 0.1]","[0.8, 0.4, 0.2]","[u'red', u'black', u'blue']","[u'left', u'middle', u'right']","[0.9, 0.5, 0.1]","[u'medium', u'low', u'high']","black",50,"middle","low","False","False",54,3200,NA
"A3JI3B5GTVA95F","Sun Nov 01 2020 15:43:48 GMT-0500 (Eastern Standard Time)","Sun Nov 01 2020 15:54:04 GMT-0500 (Eastern Standard Time)","Mozilla/5.0 (Windows NT 6.1; Win64; x64; rv:82.0) Gecko/20100101 Firefox/82.0",57,"[0.9, 0.5, 0.1]","[0.8, 0.4, 0.2]","[u'red', u'black', u'blue']","[u'left', u'middle', u'right']","[0.9, 0.5, 0.1]","[u'medium', u'low', u'high']","blue",51,"right","high","True","False",271,3300,NA
"A3JI3B5GTVA95F","Sun Nov 01 2020 15:43:48 GMT-0500 (Eastern Standard Time)","Sun Nov 01 2020 15:54:04 GMT-0500 (Eastern Standard Time)","Mozilla/5.0 (Windows NT 6.1; Win64; x64; rv:82.0) Gecko/20100101 Firefox/82.0",58,"[0.9, 0.5, 0.1]","[0.8, 0.4, 0.2]","[u'red', u'black', u'blue']","[u'left', u'middle', u'right']","[0.9, 0.5, 0.1]","[u'medium', u'low', u'high']","blue",51,"right","high","True","False",242,3400,NA
"A3JI3B5GTVA95F","Sun Nov 01 2020 15:43:48 GMT-0500 (Eastern Standard Time)","Sun Nov 01 2020 15:54:04 GMT-0500 (Eastern Standard Time)","Mozilla/5.0 (Windows NT 6.1; Win64; x64; rv:82.0) Gecko/20100101 Firefox/82.0",59,"[0.9, 0.5, 0.1]","[0.8, 0.4, 0.2]","[u'red', u'black', u'blue']","[u'left', u'middle', u'right']","[0.9, 0.5, 0.1]","[u'medium', u'low', u'high']","blue",51,"right","high","True","False",317,3500,NA
"A3JI3B5GTVA95F","Sun Nov 01 2020 15:43:48 GMT-0500 (Eastern Standard Time)","Sun Nov 01 2020 15:54:04 GMT-0500 (Eastern Standard Time)","Mozilla/5.0 (Windows NT 6.1; Win64; x64; rv:82.0) Gecko/20100101 Firefox/82.0",60,"[0.9, 0.5, 0.1]","[0.8, 0.4, 0.2]","[u'red', u'black', u'blue']","[u'left', u'middle', u'right']","[0.9, 0.5, 0.1]","[u'medium', u'low', u'high']","blue",51,"right","high","True","False",297,3600,NA
"A3JI3B5GTVA95F","Sun Nov 01 2020 15:43:48 GMT-0500 (Eastern Standard Time)","Sun Nov 01 2020 15:54:04 GMT-0500 (Eastern Standard Time)","Mozilla/5.0 (Windows NT 6.1; Win64; x64; rv:82.0) Gecko/20100101 Firefox/82.0",61,"[0.9, 0.5, 0.1]","[0.8, 0.4, 0.2]","[u'red', u'black', u'blue']","[u'left', u'middle', u'right']","[0.9, 0.5, 0.1]","[u'medium', u'low', u'high']","blue",51,"right","high","True","False",457,3700,NA
"A3JI3B5GTVA95F","Sun Nov 01 2020 15:43:48 GMT-0500 (Eastern Standard Time)","Sun Nov 01 2020 15:54:04 GMT-0500 (Eastern Standard Time)","Mozilla/5.0 (Windows NT 6.1; Win64; x64; rv:82.0) Gecko/20100101 Firefox/82.0",62,"[0.9, 0.5, 0.1]","[0.8, 0.4, 0.2]","[u'red', u'black', u'blue']","[u'left', u'middle', u'right']","[0.9, 0.5, 0.1]","[u'medium', u'low', u'high']","blue",51,"right","high","True","False",313,3800,NA
"A3JI3B5GTVA95F","Sun Nov 01 2020 15:43:48 GMT-0500 (Eastern Standard Time)","Sun Nov 01 2020 15:54:04 GMT-0500 (Eastern Standard Time)","Mozilla/5.0 (Windows NT 6.1; Win64; x64; rv:82.0) Gecko/20100101 Firefox/82.0",63,"[0.9, 0.5, 0.1]","[0.8, 0.4, 0.2]","[u'red', u'black', u'blue']","[u'left', u'middle', u'right']","[0.9, 0.5, 0.1]","[u'medium', u'low', u'high']","blue",51,"right","high","True","False",316,3900,NA
"A3JI3B5GTVA95F","Sun Nov 01 2020 15:43:48 GMT-0500 (Eastern Standard Time)","Sun Nov 01 2020 15:54:04 GMT-0500 (Eastern Standard Time)","Mozilla/5.0 (Windows NT 6.1; Win64; x64; rv:82.0) Gecko/20100101 Firefox/82.0",64,"[0.9, 0.5, 0.1]","[0.8, 0.4, 0.2]","[u'red', u'black', u'blue']","[u'left', u'middle', u'right']","[0.9, 0.5, 0.1]","[u'medium', u'low', u'high']","blue",51,"right","high","True","True",318,4000,NA
"A3JI3B5GTVA95F","Sun Nov 01 2020 15:43:48 GMT-0500 (Eastern Standard Time)","Sun Nov 01 2020 15:54:04 GMT-0500 (Eastern Standard Time)","Mozilla/5.0 (Windows NT 6.1; Win64; x64; rv:82.0) Gecko/20100101 Firefox/82.0",65,"[0.9, 0.5, 0.1]","[0.8, 0.4, 0.2]","[u'red', u'black', u'blue']","[u'left', u'middle', u'right']","[0.9, 0.5, 0.1]","[u'high', u'medium', u'low']","blue",51,"right","low","False","False",250,3950,NA
"A3JI3B5GTVA95F","Sun Nov 01 2020 15:43:48 GMT-0500 (Eastern Standard Time)","Sun Nov 01 2020 15:54:04 GMT-0500 (Eastern Standard Time)","Mozilla/5.0 (Windows NT 6.1; Win64; x64; rv:82.0) Gecko/20100101 Firefox/82.0",66,"[0.9, 0.5, 0.1]","[0.8, 0.4, 0.2]","[u'red', u'black', u'blue']","[u'left', u'middle', u'right']","[0.9, 0.5, 0.1]","[u'high', u'medium', u'low']","blue",51,"right","low","False","False",290,3900,NA
"A3JI3B5GTVA95F","Sun Nov 01 2020 15:43:48 GMT-0500 (Eastern Standard Time)","Sun Nov 01 2020 15:54:04 GMT-0500 (Eastern Standard Time)","Mozilla/5.0 (Windows NT 6.1; Win64; x64; rv:82.0) Gecko/20100101 Firefox/82.0",67,"[0.9, 0.5, 0.1]","[0.8, 0.4, 0.2]","[u'red', u'black', u'blue']","[u'left', u'middle', u'right']","[0.9, 0.5, 0.1]","[u'high', u'medium', u'low']","black",50,"middle","medium","False","False",251,3850,NA
"A3JI3B5GTVA95F","Sun Nov 01 2020 15:43:48 GMT-0500 (Eastern Standard Time)","Sun Nov 01 2020 15:54:04 GMT-0500 (Eastern Standard Time)","Mozilla/5.0 (Windows NT 6.1; Win64; x64; rv:82.0) Gecko/20100101 Firefox/82.0",68,"[0.9, 0.5, 0.1]","[0.8, 0.4, 0.2]","[u'red', u'black', u'blue']","[u'left', u'middle', u'right']","[0.9, 0.5, 0.1]","[u'high', u'medium', u'low']","red",49,"left","high","True","False",219,3950,NA
"A3JI3B5GTVA95F","Sun Nov 01 2020 15:43:48 GMT-0500 (Eastern Standard Time)","Sun Nov 01 2020 15:54:04 GMT-0500 (Eastern Standard Time)","Mozilla/5.0 (Windows NT 6.1; Win64; x64; rv:82.0) Gecko/20100101 Firefox/82.0",69,"[0.9, 0.5, 0.1]","[0.8, 0.4, 0.2]","[u'red', u'black', u'blue']","[u'left', u'middle', u'right']","[0.9, 0.5, 0.1]","[u'high', u'medium', u'low']","red",49,"left","high","True","False",274,4050,NA
"A3JI3B5GTVA95F","Sun Nov 01 2020 15:43:48 GMT-0500 (Eastern Standard Time)","Sun Nov 01 2020 15:54:04 GMT-0500 (Eastern Standard Time)","Mozilla/5.0 (Windows NT 6.1; Win64; x64; rv:82.0) Gecko/20100101 Firefox/82.0",70,"[0.9, 0.5, 0.1]","[0.8, 0.4, 0.2]","[u'red', u'black', u'blue']","[u'left', u'middle', u'right']","[0.9, 0.5, 0.1]","[u'high', u'medium', u'low']","red",49,"left","high","True","False",230,4150,NA
"A3JI3B5GTVA95F","Sun Nov 01 2020 15:43:48 GMT-0500 (Eastern Standard Time)","Sun Nov 01 2020 15:54:04 GMT-0500 (Eastern Standard Time)","Mozilla/5.0 (Windows NT 6.1; Win64; x64; rv:82.0) Gecko/20100101 Firefox/82.0",71,"[0.9, 0.5, 0.1]","[0.8, 0.4, 0.2]","[u'red', u'black', u'blue']","[u'left', u'middle', u'right']","[0.9, 0.5, 0.1]","[u'high', u'medium', u'low']","red",49,"left","high","True","False",291,4250,NA
"A3JI3B5GTVA95F","Sun Nov 01 2020 15:43:48 GMT-0500 (Eastern Standard Time)","Sun Nov 01 2020 15:54:04 GMT-0500 (Eastern Standard Time)","Mozilla/5.0 (Windows NT 6.1; Win64; x64; rv:82.0) Gecko/20100101 Firefox/82.0",72,"[0.9, 0.5, 0.1]","[0.8, 0.4, 0.2]","[u'red', u'black', u'blue']","[u'left', u'middle', u'right']","[0.9, 0.5, 0.1]","[u'high', u'medium', u'low']","red",49,"left","high","False","False",202,4200,NA
"A3JI3B5GTVA95F","Sun Nov 01 2020 15:43:48 GMT-0500 (Eastern Standard Time)","Sun Nov 01 2020 15:54:04 GMT-0500 (Eastern Standard Time)","Mozilla/5.0 (Windows NT 6.1; Win64; x64; rv:82.0) Gecko/20100101 Firefox/82.0",73,"[0.9, 0.5, 0.1]","[0.8, 0.4, 0.2]","[u'red', u'black', u'blue']","[u'left', u'middle', u'right']","[0.9, 0.5, 0.1]","[u'high', u'medium', u'low']","red",49,"left","high","True","False",332,4300,NA
"A3JI3B5GTVA95F","Sun Nov 01 2020 15:43:48 GMT-0500 (Eastern Standard Time)","Sun Nov 01 2020 15:54:04 GMT-0500 (Eastern Standard Time)","Mozilla/5.0 (Windows NT 6.1; Win64; x64; rv:82.0) Gecko/20100101 Firefox/82.0",74,"[0.9, 0.5, 0.1]","[0.8, 0.4, 0.2]","[u'red', u'black', u'blue']","[u'left', u'middle', u'right']","[0.9, 0.5, 0.1]","[u'high', u'medium', u'low']","red",49,"left","high","True","False",228,4400,NA
"A3JI3B5GTVA95F","Sun Nov 01 2020 15:43:48 GMT-0500 (Eastern Standard Time)","Sun Nov 01 2020 15:54:04 GMT-0500 (Eastern Standard Time)","Mozilla/5.0 (Windows NT 6.1; Win64; x64; rv:82.0) Gecko/20100101 Firefox/82.0",75,"[0.9, 0.5, 0.1]","[0.8, 0.4, 0.2]","[u'red', u'black', u'blue']","[u'left', u'middle', u'right']","[0.9, 0.5, 0.1]","[u'high', u'medium', u'low']","red",49,"left","high","False","False",274,4350,NA
"A3JI3B5GTVA95F","Sun Nov 01 2020 15:43:48 GMT-0500 (Eastern Standard Time)","Sun Nov 01 2020 15:54:04 GMT-0500 (Eastern Standard Time)","Mozilla/5.0 (Windows NT 6.1; Win64; x64; rv:82.0) Gecko/20100101 Firefox/82.0",76,"[0.9, 0.5, 0.1]","[0.8, 0.4, 0.2]","[u'red', u'black', u'blue']","[u'left', u'middle', u'right']","[0.9, 0.5, 0.1]","[u'high', u'medium', u'low']","red",49,"left","high","True","True",230,4450,NA
"A3JI3B5GTVA95F","Sun Nov 01 2020 15:43:48 GMT-0500 (Eastern Standard Time)","Sun Nov 01 2020 15:54:04 GMT-0500 (Eastern Standard Time)","Mozilla/5.0 (Windows NT 6.1; Win64; x64; rv:82.0) Gecko/20100101 Firefox/82.0",77,"[0.9, 0.5, 0.1]","[0.8, 0.4, 0.2]","[u'red', u'black', u'blue']","[u'left', u'middle', u'right']","[0.9, 0.5, 0.1]","[u'low', u'high', u'medium']","red",49,"left","low","True","False",194,4550,NA
"A3JI3B5GTVA95F","Sun Nov 01 2020 15:43:48 GMT-0500 (Eastern Standard Time)","Sun Nov 01 2020 15:54:04 GMT-0500 (Eastern Standard Time)","Mozilla/5.0 (Windows NT 6.1; Win64; x64; rv:82.0) Gecko/20100101 Firefox/82.0",78,"[0.9, 0.5, 0.1]","[0.8, 0.4, 0.2]","[u'red', u'black', u'blue']","[u'left', u'middle', u'right']","[0.9, 0.5, 0.1]","[u'low', u'high', u'medium']","red",49,"left","low","True","False",231,4650,NA
"A3JI3B5GTVA95F","Sun Nov 01 2020 15:43:48 GMT-0500 (Eastern Standard Time)","Sun Nov 01 2020 15:54:04 GMT-0500 (Eastern Standard Time)","Mozilla/5.0 (Windows NT 6.1; Win64; x64; rv:82.0) Gecko/20100101 Firefox/82.0",79,"[0.9, 0.5, 0.1]","[0.8, 0.4, 0.2]","[u'red', u'black', u'blue']","[u'left', u'middle', u'right']","[0.9, 0.5, 0.1]","[u'low', u'high', u'medium']","red",49,"left","low","False","False",155,4600,NA
"A3JI3B5GTVA95F","Sun Nov 01 2020 15:43:48 GMT-0500 (Eastern Standard Time)","Sun Nov 01 2020 15:54:04 GMT-0500 (Eastern Standard Time)","Mozilla/5.0 (Windows NT 6.1; Win64; x64; rv:82.0) Gecko/20100101 Firefox/82.0",80,"[0.9, 0.5, 0.1]","[0.8, 0.4, 0.2]","[u'red', u'black', u'blue']","[u'left', u'middle', u'right']","[0.9, 0.5, 0.1]","[u'low', u'high', u'medium']","red",49,"left","low","False","False",232,4550,NA
"A3JI3B5GTVA95F","Sun Nov 01 2020 15:43:48 GMT-0500 (Eastern Standard Time)","Sun Nov 01 2020 15:54:04 GMT-0500 (Eastern Standard Time)","Mozilla/5.0 (Windows NT 6.1; Win64; x64; rv:82.0) Gecko/20100101 Firefox/82.0",81,"[0.9, 0.5, 0.1]","[0.8, 0.4, 0.2]","[u'red', u'black', u'blue']","[u'left', u'middle', u'right']","[0.8, 0.4, 0.2]","[u'high', u'low', u'medium']","red",49,"left","high","True","False",300,4650,NA
"A3JI3B5GTVA95F","Sun Nov 01 2020 15:43:48 GMT-0500 (Eastern Standard Time)","Sun Nov 01 2020 15:54:04 GMT-0500 (Eastern Standard Time)","Mozilla/5.0 (Windows NT 6.1; Win64; x64; rv:82.0) Gecko/20100101 Firefox/82.0",82,"[0.9, 0.5, 0.1]","[0.8, 0.4, 0.2]","[u'red', u'black', u'blue']","[u'left', u'middle', u'right']","[0.8, 0.4, 0.2]","[u'high', u'low', u'medium']","red",49,"left","high","True","False",290,4750,NA
"A3JI3B5GTVA95F","Sun Nov 01 2020 15:43:48 GMT-0500 (Eastern Standard Time)","Sun Nov 01 2020 15:54:04 GMT-0500 (Eastern Standard Time)","Mozilla/5.0 (Windows NT 6.1; Win64; x64; rv:82.0) Gecko/20100101 Firefox/82.0",83,"[0.9, 0.5, 0.1]","[0.8, 0.4, 0.2]","[u'red', u'black', u'blue']","[u'left', u'middle', u'right']","[0.8, 0.4, 0.2]","[u'high', u'low', u'medium']","red",49,"left","high","False","False",314,4700,NA
"A3JI3B5GTVA95F","Sun Nov 01 2020 15:43:48 GMT-0500 (Eastern Standard Time)","Sun Nov 01 2020 15:54:04 GMT-0500 (Eastern Standard Time)","Mozilla/5.0 (Windows NT 6.1; Win64; x64; rv:82.0) Gecko/20100101 Firefox/82.0",84,"[0.9, 0.5, 0.1]","[0.8, 0.4, 0.2]","[u'red', u'black', u'blue']","[u'left', u'middle', u'right']","[0.8, 0.4, 0.2]","[u'high', u'low', u'medium']","red",49,"left","high","True","False",271,4800,NA
"A3JI3B5GTVA95F","Sun Nov 01 2020 15:43:48 GMT-0500 (Eastern Standard Time)","Sun Nov 01 2020 15:54:04 GMT-0500 (Eastern Standard Time)","Mozilla/5.0 (Windows NT 6.1; Win64; x64; rv:82.0) Gecko/20100101 Firefox/82.0",85,"[0.9, 0.5, 0.1]","[0.8, 0.4, 0.2]","[u'red', u'black', u'blue']","[u'left', u'middle', u'right']","[0.8, 0.4, 0.2]","[u'high', u'low', u'medium']","red",49,"left","high","True","False",451,4900,NA
"A3JI3B5GTVA95F","Sun Nov 01 2020 15:43:48 GMT-0500 (Eastern Standard Time)","Sun Nov 01 2020 15:54:04 GMT-0500 (Eastern Standard Time)","Mozilla/5.0 (Windows NT 6.1; Win64; x64; rv:82.0) Gecko/20100101 Firefox/82.0",86,"[0.9, 0.5, 0.1]","[0.8, 0.4, 0.2]","[u'red', u'black', u'blue']","[u'left', u'middle', u'right']","[0.8, 0.4, 0.2]","[u'high', u'low', u'medium']","red",49,"left","high","True","False",354,5000,NA
"A3JI3B5GTVA95F","Sun Nov 01 2020 15:43:48 GMT-0500 (Eastern Standard Time)","Sun Nov 01 2020 15:54:04 GMT-0500 (Eastern Standard Time)","Mozilla/5.0 (Windows NT 6.1; Win64; x64; rv:82.0) Gecko/20100101 Firefox/82.0",87,"[0.9, 0.5, 0.1]","[0.8, 0.4, 0.2]","[u'red', u'black', u'blue']","[u'left', u'middle', u'right']","[0.8, 0.4, 0.2]","[u'high', u'low', u'medium']","red",49,"left","high","True","False",295,5100,NA
"A3JI3B5GTVA95F","Sun Nov 01 2020 15:43:48 GMT-0500 (Eastern Standard Time)","Sun Nov 01 2020 15:54:04 GMT-0500 (Eastern Standard Time)","Mozilla/5.0 (Windows NT 6.1; Win64; x64; rv:82.0) Gecko/20100101 Firefox/82.0",88,"[0.9, 0.5, 0.1]","[0.8, 0.4, 0.2]","[u'red', u'black', u'blue']","[u'left', u'middle', u'right']","[0.8, 0.4, 0.2]","[u'high', u'low', u'medium']","red",49,"left","high","True","False",254,5200,NA
"A3JI3B5GTVA95F","Sun Nov 01 2020 15:43:48 GMT-0500 (Eastern Standard Time)","Sun Nov 01 2020 15:54:04 GMT-0500 (Eastern Standard Time)","Mozilla/5.0 (Windows NT 6.1; Win64; x64; rv:82.0) Gecko/20100101 Firefox/82.0",89,"[0.9, 0.5, 0.1]","[0.8, 0.4, 0.2]","[u'red', u'black', u'blue']","[u'left', u'middle', u'right']","[0.8, 0.4, 0.2]","[u'high', u'low', u'medium']","red",49,"left","high","True","True",271,5300,NA
"A3JI3B5GTVA95F","Sun Nov 01 2020 15:43:48 GMT-0500 (Eastern Standard Time)","Sun Nov 01 2020 15:54:04 GMT-0500 (Eastern Standard Time)","Mozilla/5.0 (Windows NT 6.1; Win64; x64; rv:82.0) Gecko/20100101 Firefox/82.0",90,"[0.9, 0.5, 0.1]","[0.8, 0.4, 0.2]","[u'red', u'black', u'blue']","[u'left', u'middle', u'right']","[0.8, 0.4, 0.2]","[u'low', u'medium', u'high']","red",49,"left","low","True","False",266,5400,NA
"A3JI3B5GTVA95F","Sun Nov 01 2020 15:43:48 GMT-0500 (Eastern Standard Time)","Sun Nov 01 2020 15:54:04 GMT-0500 (Eastern Standard Time)","Mozilla/5.0 (Windows NT 6.1; Win64; x64; rv:82.0) Gecko/20100101 Firefox/82.0",91,"[0.9, 0.5, 0.1]","[0.8, 0.4, 0.2]","[u'red', u'black', u'blue']","[u'left', u'middle', u'right']","[0.8, 0.4, 0.2]","[u'low', u'medium', u'high']","red",49,"left","low","False","False",297,5350,NA
"A3JI3B5GTVA95F","Sun Nov 01 2020 15:43:48 GMT-0500 (Eastern Standard Time)","Sun Nov 01 2020 15:54:04 GMT-0500 (Eastern Standard Time)","Mozilla/5.0 (Windows NT 6.1; Win64; x64; rv:82.0) Gecko/20100101 Firefox/82.0",92,"[0.9, 0.5, 0.1]","[0.8, 0.4, 0.2]","[u'red', u'black', u'blue']","[u'left', u'middle', u'right']","[0.8, 0.4, 0.2]","[u'low', u'medium', u'high']","red",49,"left","low","False","False",233,5300,NA
"A3JI3B5GTVA95F","Sun Nov 01 2020 15:43:48 GMT-0500 (Eastern Standard Time)","Sun Nov 01 2020 15:54:04 GMT-0500 (Eastern Standard Time)","Mozilla/5.0 (Windows NT 6.1; Win64; x64; rv:82.0) Gecko/20100101 Firefox/82.0",93,"[0.9, 0.5, 0.1]","[0.8, 0.4, 0.2]","[u'red', u'black', u'blue']","[u'left', u'middle', u'right']","[0.8, 0.4, 0.2]","[u'low', u'medium', u'high']","black",50,"middle","medium","False","False",269,5250,NA
"A3JI3B5GTVA95F","Sun Nov 01 2020 15:43:48 GMT-0500 (Eastern Standard Time)","Sun Nov 01 2020 15:54:04 GMT-0500 (Eastern Standard Time)","Mozilla/5.0 (Windows NT 6.1; Win64; x64; rv:82.0) Gecko/20100101 Firefox/82.0",94,"[0.9, 0.5, 0.1]","[0.8, 0.4, 0.2]","[u'red', u'black', u'blue']","[u'left', u'middle', u'right']","[0.8, 0.4, 0.2]","[u'low', u'medium', u'high']","blue",51,"right","high","True","False",227,5350,NA
"A3JI3B5GTVA95F","Sun Nov 01 2020 15:43:48 GMT-0500 (Eastern Standard Time)","Sun Nov 01 2020 15:54:04 GMT-0500 (Eastern Standard Time)","Mozilla/5.0 (Windows NT 6.1; Win64; x64; rv:82.0) Gecko/20100101 Firefox/82.0",95,"[0.9, 0.5, 0.1]","[0.8, 0.4, 0.2]","[u'red', u'black', u'blue']","[u'left', u'middle', u'right']","[0.8, 0.4, 0.2]","[u'low', u'medium', u'high']","blue",51,"right","high","False","False",281,5300,NA
"A3JI3B5GTVA95F","Sun Nov 01 2020 15:43:48 GMT-0500 (Eastern Standard Time)","Sun Nov 01 2020 15:54:04 GMT-0500 (Eastern Standard Time)","Mozilla/5.0 (Windows NT 6.1; Win64; x64; rv:82.0) Gecko/20100101 Firefox/82.0",96,"[0.9, 0.5, 0.1]","[0.8, 0.4, 0.2]","[u'red', u'black', u'blue']","[u'left', u'middle', u'right']","[0.8, 0.4, 0.2]","[u'low', u'medium', u'high']","blue",51,"right","high","True","False",291,5400,NA
"A3JI3B5GTVA95F","Sun Nov 01 2020 15:43:48 GMT-0500 (Eastern Standard Time)","Sun Nov 01 2020 15:54:04 GMT-0500 (Eastern Standard Time)","Mozilla/5.0 (Windows NT 6.1; Win64; x64; rv:82.0) Gecko/20100101 Firefox/82.0",97,"[0.9, 0.5, 0.1]","[0.8, 0.4, 0.2]","[u'red', u'black', u'blue']","[u'left', u'middle', u'right']","[0.8, 0.4, 0.2]","[u'low', u'medium', u'high']","blue",51,"right","high","True","False",243,5500,NA
"A3JI3B5GTVA95F","Sun Nov 01 2020 15:43:48 GMT-0500 (Eastern Standard Time)","Sun Nov 01 2020 15:54:04 GMT-0500 (Eastern Standard Time)","Mozilla/5.0 (Windows NT 6.1; Win64; x64; rv:82.0) Gecko/20100101 Firefox/82.0",98,"[0.9, 0.5, 0.1]","[0.8, 0.4, 0.2]","[u'red', u'black', u'blue']","[u'left', u'middle', u'right']","[0.8, 0.4, 0.2]","[u'low', u'medium', u'high']","blue",51,"right","high","True","False",269,5600,NA
"A3JI3B5GTVA95F","Sun Nov 01 2020 15:43:48 GMT-0500 (Eastern Standard Time)","Sun Nov 01 2020 15:54:04 GMT-0500 (Eastern Standard Time)","Mozilla/5.0 (Windows NT 6.1; Win64; x64; rv:82.0) Gecko/20100101 Firefox/82.0",99,"[0.9, 0.5, 0.1]","[0.8, 0.4, 0.2]","[u'red', u'black', u'blue']","[u'left', u'middle', u'right']","[0.8, 0.4, 0.2]","[u'low', u'medium', u'high']","blue",51,"right","high","False","False",298,5550,NA
"A3JI3B5GTVA95F","Sun Nov 01 2020 15:43:48 GMT-0500 (Eastern Standard Time)","Sun Nov 01 2020 15:54:04 GMT-0500 (Eastern Standard Time)","Mozilla/5.0 (Windows NT 6.1; Win64; x64; rv:82.0) Gecko/20100101 Firefox/82.0",100,"[0.9, 0.5, 0.1]","[0.8, 0.4, 0.2]","[u'red', u'black', u'blue']","[u'left', u'middle', u'right']","[0.8, 0.4, 0.2]","[u'low', u'medium', u'high']","blue",51,"right","high","True","False",259,5650,NA
"A3JI3B5GTVA95F","Sun Nov 01 2020 15:43:48 GMT-0500 (Eastern Standard Time)","Sun Nov 01 2020 15:54:04 GMT-0500 (Eastern Standard Time)","Mozilla/5.0 (Windows NT 6.1; Win64; x64; rv:82.0) Gecko/20100101 Firefox/82.0",101,"[0.9, 0.5, 0.1]","[0.8, 0.4, 0.2]","[u'red', u'black', u'blue']","[u'left', u'middle', u'right']","[0.8, 0.4, 0.2]","[u'low', u'medium', u'high']","blue",51,"right","high","False","False",274,5600,NA
"A3JI3B5GTVA95F","Sun Nov 01 2020 15:43:48 GMT-0500 (Eastern Standard Time)","Sun Nov 01 2020 15:54:04 GMT-0500 (Eastern Standard Time)","Mozilla/5.0 (Windows NT 6.1; Win64; x64; rv:82.0) Gecko/20100101 Firefox/82.0",102,"[0.9, 0.5, 0.1]","[0.8, 0.4, 0.2]","[u'red', u'black', u'blue']","[u'left', u'middle', u'right']","[0.8, 0.4, 0.2]","[u'low', u'medium', u'high']","blue",51,"right","high","True","True",246,5700,NA
"A3JI3B5GTVA95F","Sun Nov 01 2020 15:43:48 GMT-0500 (Eastern Standard Time)","Sun Nov 01 2020 15:54:04 GMT-0500 (Eastern Standard Time)","Mozilla/5.0 (Windows NT 6.1; Win64; x64; rv:82.0) Gecko/20100101 Firefox/82.0",103,"[0.9, 0.5, 0.1]","[0.8, 0.4, 0.2]","[u'red', u'black', u'blue']","[u'left', u'middle', u'right']","[0.8, 0.4, 0.2]","[u'high', u'medium', u'low']","blue",51,"right","low","False","False",248,5650,NA
"A3JI3B5GTVA95F","Sun Nov 01 2020 15:43:48 GMT-0500 (Eastern Standard Time)","Sun Nov 01 2020 15:54:04 GMT-0500 (Eastern Standard Time)","Mozilla/5.0 (Windows NT 6.1; Win64; x64; rv:82.0) Gecko/20100101 Firefox/82.0",104,"[0.9, 0.5, 0.1]","[0.8, 0.4, 0.2]","[u'red', u'black', u'blue']","[u'left', u'middle', u'right']","[0.8, 0.4, 0.2]","[u'high', u'medium', u'low']","black",50,"middle","medium","False","False",210,5600,NA
"A3JI3B5GTVA95F","Sun Nov 01 2020 15:43:48 GMT-0500 (Eastern Standard Time)","Sun Nov 01 2020 15:54:04 GMT-0500 (Eastern Standard Time)","Mozilla/5.0 (Windows NT 6.1; Win64; x64; rv:82.0) Gecko/20100101 Firefox/82.0",105,"[0.9, 0.5, 0.1]","[0.8, 0.4, 0.2]","[u'red', u'black', u'blue']","[u'left', u'middle', u'right']","[0.8, 0.4, 0.2]","[u'high', u'medium', u'low']","red",49,"left","high","True","False",139,5700,NA
"A3JI3B5GTVA95F","Sun Nov 01 2020 15:43:48 GMT-0500 (Eastern Standard Time)","Sun Nov 01 2020 15:54:04 GMT-0500 (Eastern Standard Time)","Mozilla/5.0 (Windows NT 6.1; Win64; x64; rv:82.0) Gecko/20100101 Firefox/82.0",106,"[0.9, 0.5, 0.1]","[0.8, 0.4, 0.2]","[u'red', u'black', u'blue']","[u'left', u'middle', u'right']","[0.8, 0.4, 0.2]","[u'high', u'medium', u'low']","red",49,"left","high","True","False",298,5800,NA
"A3JI3B5GTVA95F","Sun Nov 01 2020 15:43:48 GMT-0500 (Eastern Standard Time)","Sun Nov 01 2020 15:54:04 GMT-0500 (Eastern Standard Time)","Mozilla/5.0 (Windows NT 6.1; Win64; x64; rv:82.0) Gecko/20100101 Firefox/82.0",107,"[0.9, 0.5, 0.1]","[0.8, 0.4, 0.2]","[u'red', u'black', u'blue']","[u'left', u'middle', u'right']","[0.8, 0.4, 0.2]","[u'high', u'medium', u'low']","red",49,"left","high","True","False",298,5900,NA
"A3JI3B5GTVA95F","Sun Nov 01 2020 15:43:48 GMT-0500 (Eastern Standard Time)","Sun Nov 01 2020 15:54:04 GMT-0500 (Eastern Standard Time)","Mozilla/5.0 (Windows NT 6.1; Win64; x64; rv:82.0) Gecko/20100101 Firefox/82.0",108,"[0.9, 0.5, 0.1]","[0.8, 0.4, 0.2]","[u'red', u'black', u'blue']","[u'left', u'middle', u'right']","[0.8, 0.4, 0.2]","[u'high', u'medium', u'low']","red",49,"left","high","False","False",314,5850,NA
"A3JI3B5GTVA95F","Sun Nov 01 2020 15:43:48 GMT-0500 (Eastern Standard Time)","Sun Nov 01 2020 15:54:04 GMT-0500 (Eastern Standard Time)","Mozilla/5.0 (Windows NT 6.1; Win64; x64; rv:82.0) Gecko/20100101 Firefox/82.0",109,"[0.9, 0.5, 0.1]","[0.8, 0.4, 0.2]","[u'red', u'black', u'blue']","[u'left', u'middle', u'right']","[0.8, 0.4, 0.2]","[u'high', u'medium', u'low']","red",49,"left","high","False","False",255,5800,NA
"A3JI3B5GTVA95F","Sun Nov 01 2020 15:43:48 GMT-0500 (Eastern Standard Time)","Sun Nov 01 2020 15:54:04 GMT-0500 (Eastern Standard Time)","Mozilla/5.0 (Windows NT 6.1; Win64; x64; rv:82.0) Gecko/20100101 Firefox/82.0",110,"[0.9, 0.5, 0.1]","[0.8, 0.4, 0.2]","[u'red', u'black', u'blue']","[u'left', u'middle', u'right']","[0.8, 0.4, 0.2]","[u'high', u'medium', u'low']","black",50,"middle","medium","False","False",271,5750,NA
"A3JI3B5GTVA95F","Sun Nov 01 2020 15:43:48 GMT-0500 (Eastern Standard Time)","Sun Nov 01 2020 15:54:04 GMT-0500 (Eastern Standard Time)","Mozilla/5.0 (Windows NT 6.1; Win64; x64; rv:82.0) Gecko/20100101 Firefox/82.0",111,"[0.9, 0.5, 0.1]","[0.8, 0.4, 0.2]","[u'red', u'black', u'blue']","[u'left', u'middle', u'right']","[0.8, 0.4, 0.2]","[u'high', u'medium', u'low']","blue",51,"right","low","False","False",243,5700,NA
"A3JI3B5GTVA95F","Sun Nov 01 2020 15:43:48 GMT-0500 (Eastern Standard Time)","Sun Nov 01 2020 15:54:04 GMT-0500 (Eastern Standard Time)","Mozilla/5.0 (Windows NT 6.1; Win64; x64; rv:82.0) Gecko/20100101 Firefox/82.0",112,"[0.9, 0.5, 0.1]","[0.8, 0.4, 0.2]","[u'red', u'black', u'blue']","[u'left', u'middle', u'right']","[0.8, 0.4, 0.2]","[u'high', u'medium', u'low']","blue",51,"right","low","False","False",205,5650,NA
"A3JI3B5GTVA95F","Sun Nov 01 2020 15:43:48 GMT-0500 (Eastern Standard Time)","Sun Nov 01 2020 15:54:04 GMT-0500 (Eastern Standard Time)","Mozilla/5.0 (Windows NT 6.1; Win64; x64; rv:82.0) Gecko/20100101 Firefox/82.0",113,"[0.9, 0.5, 0.1]","[0.8, 0.4, 0.2]","[u'red', u'black', u'blue']","[u'left', u'middle', u'right']","[0.8, 0.4, 0.2]","[u'high', u'medium', u'low']","red",49,"left","high","True","False",246,5750,NA
"A3JI3B5GTVA95F","Sun Nov 01 2020 15:43:48 GMT-0500 (Eastern Standard Time)","Sun Nov 01 2020 15:54:04 GMT-0500 (Eastern Standard Time)","Mozilla/5.0 (Windows NT 6.1; Win64; x64; rv:82.0) Gecko/20100101 Firefox/82.0",114,"[0.9, 0.5, 0.1]","[0.8, 0.4, 0.2]","[u'red', u'black', u'blue']","[u'left', u'middle', u'right']","[0.8, 0.4, 0.2]","[u'high', u'medium', u'low']","red",49,"left","high","True","False",281,5850,NA
"A3JI3B5GTVA95F","Sun Nov 01 2020 15:43:48 GMT-0500 (Eastern Standard Time)","Sun Nov 01 2020 15:54:04 GMT-0500 (Eastern Standard Time)","Mozilla/5.0 (Windows NT 6.1; Win64; x64; rv:82.0) Gecko/20100101 Firefox/82.0",115,"[0.9, 0.5, 0.1]","[0.8, 0.4, 0.2]","[u'red', u'black', u'blue']","[u'left', u'middle', u'right']","[0.8, 0.4, 0.2]","[u'high', u'medium', u'low']","red",49,"left","high","True","False",290,5950,NA
"A3JI3B5GTVA95F","Sun Nov 01 2020 15:43:48 GMT-0500 (Eastern Standard Time)","Sun Nov 01 2020 15:54:04 GMT-0500 (Eastern Standard Time)","Mozilla/5.0 (Windows NT 6.1; Win64; x64; rv:82.0) Gecko/20100101 Firefox/82.0",116,"[0.9, 0.5, 0.1]","[0.8, 0.4, 0.2]","[u'red', u'black', u'blue']","[u'left', u'middle', u'right']","[0.8, 0.4, 0.2]","[u'high', u'medium', u'low']","red",49,"left","high","False","False",266,5900,NA
"A3JI3B5GTVA95F","Sun Nov 01 2020 15:43:48 GMT-0500 (Eastern Standard Time)","Sun Nov 01 2020 15:54:04 GMT-0500 (Eastern Standard Time)","Mozilla/5.0 (Windows NT 6.1; Win64; x64; rv:82.0) Gecko/20100101 Firefox/82.0",117,"[0.9, 0.5, 0.1]","[0.8, 0.4, 0.2]","[u'red', u'black', u'blue']","[u'left', u'middle', u'right']","[0.8, 0.4, 0.2]","[u'high', u'medium', u'low']","red",49,"left","high","True","False",273,6000,NA
"A3JI3B5GTVA95F","Sun Nov 01 2020 15:43:48 GMT-0500 (Eastern Standard Time)","Sun Nov 01 2020 15:54:04 GMT-0500 (Eastern Standard Time)","Mozilla/5.0 (Windows NT 6.1; Win64; x64; rv:82.0) Gecko/20100101 Firefox/82.0",118,"[0.9, 0.5, 0.1]","[0.8, 0.4, 0.2]","[u'red', u'black', u'blue']","[u'left', u'middle', u'right']","[0.8, 0.4, 0.2]","[u'high', u'medium', u'low']","red",49,"left","high","True","False",245,6100,NA
"A3JI3B5GTVA95F","Sun Nov 01 2020 15:43:48 GMT-0500 (Eastern Standard Time)","Sun Nov 01 2020 15:54:04 GMT-0500 (Eastern Standard Time)","Mozilla/5.0 (Windows NT 6.1; Win64; x64; rv:82.0) Gecko/20100101 Firefox/82.0",119,"[0.9, 0.5, 0.1]","[0.8, 0.4, 0.2]","[u'red', u'black', u'blue']","[u'left', u'middle', u'right']","[0.8, 0.4, 0.2]","[u'high', u'medium', u'low']","red",49,"left","high","True","False",207,6200,NA
"A3JI3B5GTVA95F","Sun Nov 01 2020 15:43:48 GMT-0500 (Eastern Standard Time)","Sun Nov 01 2020 15:54:04 GMT-0500 (Eastern Standard Time)","Mozilla/5.0 (Windows NT 6.1; Win64; x64; rv:82.0) Gecko/20100101 Firefox/82.0",120,"[0.9, 0.5, 0.1]","[0.8, 0.4, 0.2]","[u'red', u'black', u'blue']","[u'left', u'middle', u'right']","[0.8, 0.4, 0.2]","[u'high', u'medium', u'low']","red",49,"left","high","True","False",209,6300,NA
"A3JI3B5GTVA95F","Sun Nov 01 2020 15:43:48 GMT-0500 (Eastern Standard Time)","Sun Nov 01 2020 15:54:04 GMT-0500 (Eastern Standard Time)","Mozilla/5.0 (Windows NT 6.1; Win64; x64; rv:82.0) Gecko/20100101 Firefox/82.0",121,"[0.9, 0.5, 0.1]","[0.8, 0.4, 0.2]","[u'red', u'black', u'blue']","[u'left', u'middle', u'right']","[0.8, 0.4, 0.2]","[u'medium', u'low', u'high']","red",49,"left","medium","True","False",299,6400,NA
"A3JI3B5GTVA95F","Sun Nov 01 2020 15:43:48 GMT-0500 (Eastern Standard Time)","Sun Nov 01 2020 15:54:04 GMT-0500 (Eastern Standard Time)","Mozilla/5.0 (Windows NT 6.1; Win64; x64; rv:82.0) Gecko/20100101 Firefox/82.0",122,"[0.9, 0.5, 0.1]","[0.8, 0.4, 0.2]","[u'red', u'black', u'blue']","[u'left', u'middle', u'right']","[0.8, 0.4, 0.2]","[u'medium', u'low', u'high']","red",49,"left","medium","False","False",187,6350,NA
"A3JI3B5GTVA95F","Sun Nov 01 2020 15:43:48 GMT-0500 (Eastern Standard Time)","Sun Nov 01 2020 15:54:04 GMT-0500 (Eastern Standard Time)","Mozilla/5.0 (Windows NT 6.1; Win64; x64; rv:82.0) Gecko/20100101 Firefox/82.0",123,"[0.9, 0.5, 0.1]","[0.8, 0.4, 0.2]","[u'red', u'black', u'blue']","[u'left', u'middle', u'right']","[0.8, 0.4, 0.2]","[u'medium', u'low', u'high']","red",49,"left","medium","False","False",208,6300,NA
"A3JI3B5GTVA95F","Sun Nov 01 2020 15:43:48 GMT-0500 (Eastern Standard Time)","Sun Nov 01 2020 15:54:04 GMT-0500 (Eastern Standard Time)","Mozilla/5.0 (Windows NT 6.1; Win64; x64; rv:82.0) Gecko/20100101 Firefox/82.0",124,"[0.9, 0.5, 0.1]","[0.8, 0.4, 0.2]","[u'red', u'black', u'blue']","[u'left', u'middle', u'right']","[0.8, 0.4, 0.2]","[u'medium', u'low', u'high']","black",50,"middle","low","True","False",235,6400,NA
"A3JI3B5GTVA95F","Sun Nov 01 2020 15:43:48 GMT-0500 (Eastern Standard Time)","Sun Nov 01 2020 15:54:04 GMT-0500 (Eastern Standard Time)","Mozilla/5.0 (Windows NT 6.1; Win64; x64; rv:82.0) Gecko/20100101 Firefox/82.0",125,"[0.9, 0.5, 0.1]","[0.8, 0.4, 0.2]","[u'red', u'black', u'blue']","[u'left', u'middle', u'right']","[0.8, 0.4, 0.2]","[u'medium', u'low', u'high']","black",50,"middle","low","False","False",246,6350,NA
"A3JI3B5GTVA95F","Sun Nov 01 2020 15:43:48 GMT-0500 (Eastern Standard Time)","Sun Nov 01 2020 15:54:04 GMT-0500 (Eastern Standard Time)","Mozilla/5.0 (Windows NT 6.1; Win64; x64; rv:82.0) Gecko/20100101 Firefox/82.0",126,"[0.9, 0.5, 0.1]","[0.8, 0.4, 0.2]","[u'red', u'black', u'blue']","[u'left', u'middle', u'right']","[0.8, 0.4, 0.2]","[u'medium', u'low', u'high']","blue",51,"right","high","False","False",160,6300,NA
"A3JI3B5GTVA95F","Sun Nov 01 2020 15:43:48 GMT-0500 (Eastern Standard Time)","Sun Nov 01 2020 15:54:04 GMT-0500 (Eastern Standard Time)","Mozilla/5.0 (Windows NT 6.1; Win64; x64; rv:82.0) Gecko/20100101 Firefox/82.0",127,"[0.9, 0.5, 0.1]","[0.8, 0.4, 0.2]","[u'red', u'black', u'blue']","[u'left', u'middle', u'right']","[0.8, 0.4, 0.2]","[u'medium', u'low', u'high']","black",50,"middle","low","False","False",91,6250,NA
"A3JI3B5GTVA95F","Sun Nov 01 2020 15:43:48 GMT-0500 (Eastern Standard Time)","Sun Nov 01 2020 15:54:04 GMT-0500 (Eastern Standard Time)","Mozilla/5.0 (Windows NT 6.1; Win64; x64; rv:82.0) Gecko/20100101 Firefox/82.0",128,"[0.9, 0.5, 0.1]","[0.8, 0.4, 0.2]","[u'red', u'black', u'blue']","[u'left', u'middle', u'right']","[0.8, 0.4, 0.2]","[u'medium', u'low', u'high']","red",49,"left","medium","False","False",203,6200,NA
"A3JI3B5GTVA95F","Sun Nov 01 2020 15:43:48 GMT-0500 (Eastern Standard Time)","Sun Nov 01 2020 15:54:04 GMT-0500 (Eastern Standard Time)","Mozilla/5.0 (Windows NT 6.1; Win64; x64; rv:82.0) Gecko/20100101 Firefox/82.0",129,"[0.9, 0.5, 0.1]","[0.8, 0.4, 0.2]","[u'red', u'black', u'blue']","[u'left', u'middle', u'right']","[0.8, 0.4, 0.2]","[u'medium', u'low', u'high']","red",49,"left","medium","True","False",221,6300,NA
"A3JI3B5GTVA95F","Sun Nov 01 2020 15:43:48 GMT-0500 (Eastern Standard Time)","Sun Nov 01 2020 15:54:04 GMT-0500 (Eastern Standard Time)","Mozilla/5.0 (Windows NT 6.1; Win64; x64; rv:82.0) Gecko/20100101 Firefox/82.0",130,"[0.9, 0.5, 0.1]","[0.8, 0.4, 0.2]","[u'red', u'black', u'blue']","[u'left', u'middle', u'right']","[0.8, 0.4, 0.2]","[u'medium', u'low', u'high']","red",49,"left","medium","True","False",266,6400,NA
"A3JI3B5GTVA95F","Sun Nov 01 2020 15:43:48 GMT-0500 (Eastern Standard Time)","Sun Nov 01 2020 15:54:04 GMT-0500 (Eastern Standard Time)","Mozilla/5.0 (Windows NT 6.1; Win64; x64; rv:82.0) Gecko/20100101 Firefox/82.0",131,"[0.9, 0.5, 0.1]","[0.8, 0.4, 0.2]","[u'red', u'black', u'blue']","[u'left', u'middle', u'right']","[0.8, 0.4, 0.2]","[u'medium', u'low', u'high']","red",49,"left","medium","False","False",281,6350,NA
"A3JI3B5GTVA95F","Sun Nov 01 2020 15:43:48 GMT-0500 (Eastern Standard Time)","Sun Nov 01 2020 15:54:04 GMT-0500 (Eastern Standard Time)","Mozilla/5.0 (Windows NT 6.1; Win64; x64; rv:82.0) Gecko/20100101 Firefox/82.0",132,"[0.9, 0.5, 0.1]","[0.8, 0.4, 0.2]","[u'red', u'black', u'blue']","[u'left', u'middle', u'right']","[0.8, 0.4, 0.2]","[u'medium', u'low', u'high']","blue",51,"right","high","True","False",290,6450,NA
"A3JI3B5GTVA95F","Sun Nov 01 2020 15:43:48 GMT-0500 (Eastern Standard Time)","Sun Nov 01 2020 15:54:04 GMT-0500 (Eastern Standard Time)","Mozilla/5.0 (Windows NT 6.1; Win64; x64; rv:82.0) Gecko/20100101 Firefox/82.0",133,"[0.9, 0.5, 0.1]","[0.8, 0.4, 0.2]","[u'red', u'black', u'blue']","[u'left', u'middle', u'right']","[0.8, 0.4, 0.2]","[u'medium', u'low', u'high']","blue",51,"right","high","True","False",290,6550,NA
"A3JI3B5GTVA95F","Sun Nov 01 2020 15:43:48 GMT-0500 (Eastern Standard Time)","Sun Nov 01 2020 15:54:04 GMT-0500 (Eastern Standard Time)","Mozilla/5.0 (Windows NT 6.1; Win64; x64; rv:82.0) Gecko/20100101 Firefox/82.0",134,"[0.9, 0.5, 0.1]","[0.8, 0.4, 0.2]","[u'red', u'black', u'blue']","[u'left', u'middle', u'right']","[0.8, 0.4, 0.2]","[u'medium', u'low', u'high']","blue",51,"right","high","True","False",330,6650,NA
"A3JI3B5GTVA95F","Sun Nov 01 2020 15:43:48 GMT-0500 (Eastern Standard Time)","Sun Nov 01 2020 15:54:04 GMT-0500 (Eastern Standard Time)","Mozilla/5.0 (Windows NT 6.1; Win64; x64; rv:82.0) Gecko/20100101 Firefox/82.0",135,"[0.9, 0.5, 0.1]","[0.8, 0.4, 0.2]","[u'red', u'black', u'blue']","[u'left', u'middle', u'right']","[0.8, 0.4, 0.2]","[u'medium', u'low', u'high']","blue",51,"right","high","True","False",338,6750,NA
"A3JI3B5GTVA95F","Sun Nov 01 2020 15:43:48 GMT-0500 (Eastern Standard Time)","Sun Nov 01 2020 15:54:04 GMT-0500 (Eastern Standard Time)","Mozilla/5.0 (Windows NT 6.1; Win64; x64; rv:82.0) Gecko/20100101 Firefox/82.0",136,"[0.9, 0.5, 0.1]","[0.8, 0.4, 0.2]","[u'red', u'black', u'blue']","[u'left', u'middle', u'right']","[0.8, 0.4, 0.2]","[u'medium', u'low', u'high']","blue",51,"right","high","True","False",298,6850,NA
"A3JI3B5GTVA95F","Sun Nov 01 2020 15:43:48 GMT-0500 (Eastern Standard Time)","Sun Nov 01 2020 15:54:04 GMT-0500 (Eastern Standard Time)","Mozilla/5.0 (Windows NT 6.1; Win64; x64; rv:82.0) Gecko/20100101 Firefox/82.0",137,"[0.9, 0.5, 0.1]","[0.8, 0.4, 0.2]","[u'red', u'black', u'blue']","[u'left', u'middle', u'right']","[0.8, 0.4, 0.2]","[u'medium', u'low', u'high']","blue",51,"right","high","True","False",338,6950,NA
"A3JI3B5GTVA95F","Sun Nov 01 2020 15:43:48 GMT-0500 (Eastern Standard Time)","Sun Nov 01 2020 15:54:04 GMT-0500 (Eastern Standard Time)","Mozilla/5.0 (Windows NT 6.1; Win64; x64; rv:82.0) Gecko/20100101 Firefox/82.0",138,"[0.9, 0.5, 0.1]","[0.8, 0.4, 0.2]","[u'red', u'black', u'blue']","[u'left', u'middle', u'right']","[0.8, 0.4, 0.2]","[u'medium', u'low', u'high']","blue",51,"right","high","False","False",419,6900,NA
"A3JI3B5GTVA95F","Sun Nov 01 2020 15:43:48 GMT-0500 (Eastern Standard Time)","Sun Nov 01 2020 15:54:04 GMT-0500 (Eastern Standard Time)","Mozilla/5.0 (Windows NT 6.1; Win64; x64; rv:82.0) Gecko/20100101 Firefox/82.0",139,"[0.9, 0.5, 0.1]","[0.8, 0.4, 0.2]","[u'red', u'black', u'blue']","[u'left', u'middle', u'right']","[0.8, 0.4, 0.2]","[u'medium', u'low', u'high']","black",50,"middle","low","False","False",227,6850,NA
"A3JI3B5GTVA95F","Sun Nov 01 2020 15:43:48 GMT-0500 (Eastern Standard Time)","Sun Nov 01 2020 15:54:04 GMT-0500 (Eastern Standard Time)","Mozilla/5.0 (Windows NT 6.1; Win64; x64; rv:82.0) Gecko/20100101 Firefox/82.0",140,"[0.9, 0.5, 0.1]","[0.8, 0.4, 0.2]","[u'red', u'black', u'blue']","[u'left', u'middle', u'right']","[0.8, 0.4, 0.2]","[u'medium', u'low', u'high']","red",49,"left","medium","False","False",273,6800,NA
"A3JI3B5GTVA95F","Sun Nov 01 2020 15:43:48 GMT-0500 (Eastern Standard Time)","Sun Nov 01 2020 15:54:04 GMT-0500 (Eastern Standard Time)","Mozilla/5.0 (Windows NT 6.1; Win64; x64; rv:82.0) Gecko/20100101 Firefox/82.0",141,"[0.9, 0.5, 0.1]","[0.8, 0.4, 0.2]","[u'red', u'black', u'blue']","[u'left', u'middle', u'right']","[0.8, 0.4, 0.2]","[u'medium', u'low', u'high']","red",49,"left","medium","False","False",251,6750,NA
"A3JI3B5GTVA95F","Sun Nov 01 2020 15:43:48 GMT-0500 (Eastern Standard Time)","Sun Nov 01 2020 15:54:04 GMT-0500 (Eastern Standard Time)","Mozilla/5.0 (Windows NT 6.1; Win64; x64; rv:82.0) Gecko/20100101 Firefox/82.0",142,"[0.9, 0.5, 0.1]","[0.8, 0.4, 0.2]","[u'red', u'black', u'blue']","[u'left', u'middle', u'right']","[0.8, 0.4, 0.2]","[u'medium', u'low', u'high']","blue",51,"right","high","True","False",244,6850,NA
"A3JI3B5GTVA95F","Sun Nov 01 2020 15:43:48 GMT-0500 (Eastern Standard Time)","Sun Nov 01 2020 15:54:04 GMT-0500 (Eastern Standard Time)","Mozilla/5.0 (Windows NT 6.1; Win64; x64; rv:82.0) Gecko/20100101 Firefox/82.0",143,"[0.9, 0.5, 0.1]","[0.8, 0.4, 0.2]","[u'red', u'black', u'blue']","[u'left', u'middle', u'right']","[0.8, 0.4, 0.2]","[u'medium', u'low', u'high']","blue",51,"right","high","True","False",318,6950,NA
"A3JI3B5GTVA95F","Sun Nov 01 2020 15:43:48 GMT-0500 (Eastern Standard Time)","Sun Nov 01 2020 15:54:04 GMT-0500 (Eastern Standard Time)","Mozilla/5.0 (Windows NT 6.1; Win64; x64; rv:82.0) Gecko/20100101 Firefox/82.0",144,"[0.9, 0.5, 0.1]","[0.8, 0.4, 0.2]","[u'red', u'black', u'blue']","[u'left', u'middle', u'right']","[0.8, 0.4, 0.2]","[u'medium', u'low', u'high']","blue",51,"right","high","True","False",387,7050,NA
"A3JI3B5GTVA95F","Sun Nov 01 2020 15:43:48 GMT-0500 (Eastern Standard Time)","Sun Nov 01 2020 15:54:04 GMT-0500 (Eastern Standard Time)","Mozilla/5.0 (Windows NT 6.1; Win64; x64; rv:82.0) Gecko/20100101 Firefox/82.0",145,"[0.9, 0.5, 0.1]","[0.8, 0.4, 0.2]","[u'red', u'black', u'blue']","[u'left', u'middle', u'right']","[0.8, 0.4, 0.2]","[u'medium', u'low', u'high']","blue",51,"right","high","True","False",296,7150,NA
"A3JI3B5GTVA95F","Sun Nov 01 2020 15:43:48 GMT-0500 (Eastern Standard Time)","Sun Nov 01 2020 15:54:04 GMT-0500 (Eastern Standard Time)","Mozilla/5.0 (Windows NT 6.1; Win64; x64; rv:82.0) Gecko/20100101 Firefox/82.0",146,"[0.9, 0.5, 0.1]","[0.8, 0.4, 0.2]","[u'red', u'black', u'blue']","[u'left', u'middle', u'right']","[0.8, 0.4, 0.2]","[u'medium', u'low', u'high']","blue",51,"right","high","False","False",345,7100,NA
"A3JI3B5GTVA95F","Sun Nov 01 2020 15:43:48 GMT-0500 (Eastern Standard Time)","Sun Nov 01 2020 15:54:04 GMT-0500 (Eastern Standard Time)","Mozilla/5.0 (Windows NT 6.1; Win64; x64; rv:82.0) Gecko/20100101 Firefox/82.0",147,"[0.9, 0.5, 0.1]","[0.8, 0.4, 0.2]","[u'red', u'black', u'blue']","[u'left', u'middle', u'right']","[0.8, 0.4, 0.2]","[u'medium', u'low', u'high']","black",50,"middle","low","False","False",222,7050,NA
"A3JI3B5GTVA95F","Sun Nov 01 2020 15:43:48 GMT-0500 (Eastern Standard Time)","Sun Nov 01 2020 15:54:04 GMT-0500 (Eastern Standard Time)","Mozilla/5.0 (Windows NT 6.1; Win64; x64; rv:82.0) Gecko/20100101 Firefox/82.0",148,"[0.9, 0.5, 0.1]","[0.8, 0.4, 0.2]","[u'red', u'black', u'blue']","[u'left', u'middle', u'right']","[0.8, 0.4, 0.2]","[u'medium', u'low', u'high']","red",49,"left","medium","False","False",228,7000,NA
"A3JI3B5GTVA95F","Sun Nov 01 2020 15:43:48 GMT-0500 (Eastern Standard Time)","Sun Nov 01 2020 15:54:04 GMT-0500 (Eastern Standard Time)","Mozilla/5.0 (Windows NT 6.1; Win64; x64; rv:82.0) Gecko/20100101 Firefox/82.0",149,"[0.9, 0.5, 0.1]","[0.8, 0.4, 0.2]","[u'red', u'black', u'blue']","[u'left', u'middle', u'right']","[0.8, 0.4, 0.2]","[u'medium', u'low', u'high']","red",49,"left","medium","True","False",247,7100,NA
"A3JI3B5GTVA95F","Sun Nov 01 2020 15:43:48 GMT-0500 (Eastern Standard Time)","Sun Nov 01 2020 15:54:04 GMT-0500 (Eastern Standard Time)","Mozilla/5.0 (Windows NT 6.1; Win64; x64; rv:82.0) Gecko/20100101 Firefox/82.0",150,"[0.9, 0.5, 0.1]","[0.8, 0.4, 0.2]","[u'red', u'black', u'blue']","[u'left', u'middle', u'right']","[0.8, 0.4, 0.2]","[u'medium', u'low', u'high']","red",49,"left","medium","True","False",298,7200,NA
"A3JI3B5GTVA95F","Sun Nov 01 2020 15:43:48 GMT-0500 (Eastern Standard Time)","Sun Nov 01 2020 15:54:04 GMT-0500 (Eastern Standard Time)","Mozilla/5.0 (Windows NT 6.1; Win64; x64; rv:82.0) Gecko/20100101 Firefox/82.0",151,"[0.9, 0.5, 0.1]","[0.8, 0.4, 0.2]","[u'red', u'black', u'blue']","[u'left', u'middle', u'right']","[0.8, 0.4, 0.2]","[u'medium', u'low', u'high']","red",49,"left","medium","False","False",457,7150,NA
"A3JI3B5GTVA95F","Sun Nov 01 2020 15:43:48 GMT-0500 (Eastern Standard Time)","Sun Nov 01 2020 15:54:04 GMT-0500 (Eastern Standard Time)","Mozilla/5.0 (Windows NT 6.1; Win64; x64; rv:82.0) Gecko/20100101 Firefox/82.0",152,"[0.9, 0.5, 0.1]","[0.8, 0.4, 0.2]","[u'red', u'black', u'blue']","[u'left', u'middle', u'right']","[0.8, 0.4, 0.2]","[u'medium', u'low', u'high']","red",49,"left","medium","True","False",474,7250,NA
"A3JI3B5GTVA95F","Sun Nov 01 2020 15:43:48 GMT-0500 (Eastern Standard Time)","Sun Nov 01 2020 15:54:04 GMT-0500 (Eastern Standard Time)","Mozilla/5.0 (Windows NT 6.1; Win64; x64; rv:82.0) Gecko/20100101 Firefox/82.0",153,"[0.9, 0.5, 0.1]","[0.8, 0.4, 0.2]","[u'red', u'black', u'blue']","[u'left', u'middle', u'right']","[0.8, 0.4, 0.2]","[u'medium', u'low', u'high']","red",49,"left","medium","True","False",405,7350,NA
"A3JI3B5GTVA95F","Sun Nov 01 2020 15:43:48 GMT-0500 (Eastern Standard Time)","Sun Nov 01 2020 15:54:04 GMT-0500 (Eastern Standard Time)","Mozilla/5.0 (Windows NT 6.1; Win64; x64; rv:82.0) Gecko/20100101 Firefox/82.0",154,"[0.9, 0.5, 0.1]","[0.8, 0.4, 0.2]","[u'red', u'black', u'blue']","[u'left', u'middle', u'right']","[0.8, 0.4, 0.2]","[u'medium', u'low', u'high']","red",49,"left","medium","False","False",407,7300,NA
"A3JI3B5GTVA95F","Sun Nov 01 2020 15:43:48 GMT-0500 (Eastern Standard Time)","Sun Nov 01 2020 15:54:04 GMT-0500 (Eastern Standard Time)","Mozilla/5.0 (Windows NT 6.1; Win64; x64; rv:82.0) Gecko/20100101 Firefox/82.0",155,"[0.9, 0.5, 0.1]","[0.8, 0.4, 0.2]","[u'red', u'black', u'blue']","[u'left', u'middle', u'right']","[0.8, 0.4, 0.2]","[u'medium', u'low', u'high']","black",50,"middle","low","False","False",298,7250,NA
"A3JI3B5GTVA95F","Sun Nov 01 2020 15:43:48 GMT-0500 (Eastern Standard Time)","Sun Nov 01 2020 15:54:04 GMT-0500 (Eastern Standard Time)","Mozilla/5.0 (Windows NT 6.1; Win64; x64; rv:82.0) Gecko/20100101 Firefox/82.0",156,"[0.9, 0.5, 0.1]","[0.8, 0.4, 0.2]","[u'red', u'black', u'blue']","[u'left', u'middle', u'right']","[0.8, 0.4, 0.2]","[u'medium', u'low', u'high']","blue",51,"right","high","True","False",233,7350,NA
"A3JI3B5GTVA95F","Sun Nov 01 2020 15:43:48 GMT-0500 (Eastern Standard Time)","Sun Nov 01 2020 15:54:04 GMT-0500 (Eastern Standard Time)","Mozilla/5.0 (Windows NT 6.1; Win64; x64; rv:82.0) Gecko/20100101 Firefox/82.0",157,"[0.9, 0.5, 0.1]","[0.8, 0.4, 0.2]","[u'red', u'black', u'blue']","[u'left', u'middle', u'right']","[0.8, 0.4, 0.2]","[u'medium', u'low', u'high']","blue",51,"right","high","True","False",269,7450,NA
"A3JI3B5GTVA95F","Sun Nov 01 2020 15:43:48 GMT-0500 (Eastern Standard Time)","Sun Nov 01 2020 15:54:04 GMT-0500 (Eastern Standard Time)","Mozilla/5.0 (Windows NT 6.1; Win64; x64; rv:82.0) Gecko/20100101 Firefox/82.0",158,"[0.9, 0.5, 0.1]","[0.8, 0.4, 0.2]","[u'red', u'black', u'blue']","[u'left', u'middle', u'right']","[0.8, 0.4, 0.2]","[u'medium', u'low', u'high']","blue",51,"right","high","True","False",371,7550,NA
"A3JI3B5GTVA95F","Sun Nov 01 2020 15:43:48 GMT-0500 (Eastern Standard Time)","Sun Nov 01 2020 15:54:04 GMT-0500 (Eastern Standard Time)","Mozilla/5.0 (Windows NT 6.1; Win64; x64; rv:82.0) Gecko/20100101 Firefox/82.0",159,"[0.9, 0.5, 0.1]","[0.8, 0.4, 0.2]","[u'red', u'black', u'blue']","[u'left', u'middle', u'right']","[0.8, 0.4, 0.2]","[u'medium', u'low', u'high']","blue",51,"right","high","True","False",379,7650,NA
"A3JI3B5GTVA95F","Sun Nov 01 2020 15:43:48 GMT-0500 (Eastern Standard Time)","Sun Nov 01 2020 15:54:04 GMT-0500 (Eastern Standard Time)","Mozilla/5.0 (Windows NT 6.1; Win64; x64; rv:82.0) Gecko/20100101 Firefox/82.0",160,"[0.9, 0.5, 0.1]","[0.8, 0.4, 0.2]","[u'red', u'black', u'blue']","[u'left', u'middle', u'right']","[0.8, 0.4, 0.2]","[u'medium', u'low', u'high']","blue",51,"right","high","False","False",411,7600,NA
