"src_subject_id","start_time","end_time","browser","index","first_half_probabilities","second_half_probabilities","deck_color","deck_position","deck_probabilities","deck_contingencies","response_color","key_press","response_position","response_probability","reward_type","trial_type","rt","reward_tally","exclusion_reason"
"A29KUIEVPK8WB4","Mon Nov 02 2020 06:58:19 GMT-0600 (Central Standard Time)","Mon Nov 02 2020 07:14:58 GMT-0600 (Central Standard Time)","Mozilla/5.0 (Windows NT 10.0; Win64; x64) AppleWebKit/537.36 (KHTML, like Gecko) Chrome/86.0.4240.111 Safari/537.36",1,"[0.9, 0.5, 0.1]","[0.8, 0.4, 0.2]","[u'blue', u'red', u'black']","[u'left', u'middle', u'right']","[0.9, 0.5, 0.1]","[u'medium', u'low', u'high']","red",50,"middle","low","False","False",941,-50,NA
"A29KUIEVPK8WB4","Mon Nov 02 2020 06:58:19 GMT-0600 (Central Standard Time)","Mon Nov 02 2020 07:14:58 GMT-0600 (Central Standard Time)","Mozilla/5.0 (Windows NT 10.0; Win64; x64) AppleWebKit/537.36 (KHTML, like Gecko) Chrome/86.0.4240.111 Safari/537.36",2,"[0.9, 0.5, 0.1]","[0.8, 0.4, 0.2]","[u'blue', u'red', u'black']","[u'left', u'middle', u'right']","[0.9, 0.5, 0.1]","[u'medium', u'low', u'high']","black",51,"right","high","True","False",286,50,NA
"A29KUIEVPK8WB4","Mon Nov 02 2020 06:58:19 GMT-0600 (Central Standard Time)","Mon Nov 02 2020 07:14:58 GMT-0600 (Central Standard Time)","Mozilla/5.0 (Windows NT 10.0; Win64; x64) AppleWebKit/537.36 (KHTML, like Gecko) Chrome/86.0.4240.111 Safari/537.36",3,"[0.9, 0.5, 0.1]","[0.8, 0.4, 0.2]","[u'blue', u'red', u'black']","[u'left', u'middle', u'right']","[0.9, 0.5, 0.1]","[u'medium', u'low', u'high']","black",51,"right","high","False","False",278,0,NA
"A29KUIEVPK8WB4","Mon Nov 02 2020 06:58:19 GMT-0600 (Central Standard Time)","Mon Nov 02 2020 07:14:58 GMT-0600 (Central Standard Time)","Mozilla/5.0 (Windows NT 10.0; Win64; x64) AppleWebKit/537.36 (KHTML, like Gecko) Chrome/86.0.4240.111 Safari/537.36",4,"[0.9, 0.5, 0.1]","[0.8, 0.4, 0.2]","[u'blue', u'red', u'black']","[u'left', u'middle', u'right']","[0.9, 0.5, 0.1]","[u'medium', u'low', u'high']","black",51,"right","high","True","False",256,100,NA
"A29KUIEVPK8WB4","Mon Nov 02 2020 06:58:19 GMT-0600 (Central Standard Time)","Mon Nov 02 2020 07:14:58 GMT-0600 (Central Standard Time)","Mozilla/5.0 (Windows NT 10.0; Win64; x64) AppleWebKit/537.36 (KHTML, like Gecko) Chrome/86.0.4240.111 Safari/537.36",5,"[0.9, 0.5, 0.1]","[0.8, 0.4, 0.2]","[u'blue', u'red', u'black']","[u'left', u'middle', u'right']","[0.9, 0.5, 0.1]","[u'medium', u'low', u'high']","black",51,"right","high","True","False",269,200,NA
"A29KUIEVPK8WB4","Mon Nov 02 2020 06:58:19 GMT-0600 (Central Standard Time)","Mon Nov 02 2020 07:14:58 GMT-0600 (Central Standard Time)","Mozilla/5.0 (Windows NT 10.0; Win64; x64) AppleWebKit/537.36 (KHTML, like Gecko) Chrome/86.0.4240.111 Safari/537.36",6,"[0.9, 0.5, 0.1]","[0.8, 0.4, 0.2]","[u'blue', u'red', u'black']","[u'left', u'middle', u'right']","[0.9, 0.5, 0.1]","[u'medium', u'low', u'high']","black",51,"right","high","True","False",261,300,NA
"A29KUIEVPK8WB4","Mon Nov 02 2020 06:58:19 GMT-0600 (Central Standard Time)","Mon Nov 02 2020 07:14:58 GMT-0600 (Central Standard Time)","Mozilla/5.0 (Windows NT 10.0; Win64; x64) AppleWebKit/537.36 (KHTML, like Gecko) Chrome/86.0.4240.111 Safari/537.36",7,"[0.9, 0.5, 0.1]","[0.8, 0.4, 0.2]","[u'blue', u'red', u'black']","[u'left', u'middle', u'right']","[0.9, 0.5, 0.1]","[u'medium', u'low', u'high']","black",51,"right","high","True","False",263,400,NA
"A29KUIEVPK8WB4","Mon Nov 02 2020 06:58:19 GMT-0600 (Central Standard Time)","Mon Nov 02 2020 07:14:58 GMT-0600 (Central Standard Time)","Mozilla/5.0 (Windows NT 10.0; Win64; x64) AppleWebKit/537.36 (KHTML, like Gecko) Chrome/86.0.4240.111 Safari/537.36",8,"[0.9, 0.5, 0.1]","[0.8, 0.4, 0.2]","[u'blue', u'red', u'black']","[u'left', u'middle', u'right']","[0.9, 0.5, 0.1]","[u'medium', u'low', u'high']","black",51,"right","high","False","False",228,350,NA
"A29KUIEVPK8WB4","Mon Nov 02 2020 06:58:19 GMT-0600 (Central Standard Time)","Mon Nov 02 2020 07:14:58 GMT-0600 (Central Standard Time)","Mozilla/5.0 (Windows NT 10.0; Win64; x64) AppleWebKit/537.36 (KHTML, like Gecko) Chrome/86.0.4240.111 Safari/537.36",9,"[0.9, 0.5, 0.1]","[0.8, 0.4, 0.2]","[u'blue', u'red', u'black']","[u'left', u'middle', u'right']","[0.9, 0.5, 0.1]","[u'medium', u'low', u'high']","black",51,"right","high","True","False",36,450,NA
"A29KUIEVPK8WB4","Mon Nov 02 2020 06:58:19 GMT-0600 (Central Standard Time)","Mon Nov 02 2020 07:14:58 GMT-0600 (Central Standard Time)","Mozilla/5.0 (Windows NT 10.0; Win64; x64) AppleWebKit/537.36 (KHTML, like Gecko) Chrome/86.0.4240.111 Safari/537.36",10,"[0.9, 0.5, 0.1]","[0.8, 0.4, 0.2]","[u'blue', u'red', u'black']","[u'left', u'middle', u'right']","[0.9, 0.5, 0.1]","[u'medium', u'low', u'high']","black",51,"right","high","True","True",117,550,NA
"A29KUIEVPK8WB4","Mon Nov 02 2020 06:58:19 GMT-0600 (Central Standard Time)","Mon Nov 02 2020 07:14:58 GMT-0600 (Central Standard Time)","Mozilla/5.0 (Windows NT 10.0; Win64; x64) AppleWebKit/537.36 (KHTML, like Gecko) Chrome/86.0.4240.111 Safari/537.36",11,"[0.9, 0.5, 0.1]","[0.8, 0.4, 0.2]","[u'blue', u'red', u'black']","[u'left', u'middle', u'right']","[0.9, 0.5, 0.1]","[u'high', u'low', u'medium']","black",51,"right","medium","True","False",158,650,NA
"A29KUIEVPK8WB4","Mon Nov 02 2020 06:58:19 GMT-0600 (Central Standard Time)","Mon Nov 02 2020 07:14:58 GMT-0600 (Central Standard Time)","Mozilla/5.0 (Windows NT 10.0; Win64; x64) AppleWebKit/537.36 (KHTML, like Gecko) Chrome/86.0.4240.111 Safari/537.36",12,"[0.9, 0.5, 0.1]","[0.8, 0.4, 0.2]","[u'blue', u'red', u'black']","[u'left', u'middle', u'right']","[0.9, 0.5, 0.1]","[u'high', u'low', u'medium']","black",51,"right","medium","False","False",188,600,NA
"A29KUIEVPK8WB4","Mon Nov 02 2020 06:58:19 GMT-0600 (Central Standard Time)","Mon Nov 02 2020 07:14:58 GMT-0600 (Central Standard Time)","Mozilla/5.0 (Windows NT 10.0; Win64; x64) AppleWebKit/537.36 (KHTML, like Gecko) Chrome/86.0.4240.111 Safari/537.36",13,"[0.9, 0.5, 0.1]","[0.8, 0.4, 0.2]","[u'blue', u'red', u'black']","[u'left', u'middle', u'right']","[0.9, 0.5, 0.1]","[u'high', u'low', u'medium']","black",51,"right","medium","True","False",431,700,NA
"A29KUIEVPK8WB4","Mon Nov 02 2020 06:58:19 GMT-0600 (Central Standard Time)","Mon Nov 02 2020 07:14:58 GMT-0600 (Central Standard Time)","Mozilla/5.0 (Windows NT 10.0; Win64; x64) AppleWebKit/537.36 (KHTML, like Gecko) Chrome/86.0.4240.111 Safari/537.36",14,"[0.9, 0.5, 0.1]","[0.8, 0.4, 0.2]","[u'blue', u'red', u'black']","[u'left', u'middle', u'right']","[0.9, 0.5, 0.1]","[u'high', u'low', u'medium']","black",51,"right","medium","False","False",106,650,NA
"A29KUIEVPK8WB4","Mon Nov 02 2020 06:58:19 GMT-0600 (Central Standard Time)","Mon Nov 02 2020 07:14:58 GMT-0600 (Central Standard Time)","Mozilla/5.0 (Windows NT 10.0; Win64; x64) AppleWebKit/537.36 (KHTML, like Gecko) Chrome/86.0.4240.111 Safari/537.36",15,"[0.9, 0.5, 0.1]","[0.8, 0.4, 0.2]","[u'blue', u'red', u'black']","[u'left', u'middle', u'right']","[0.9, 0.5, 0.1]","[u'high', u'low', u'medium']","blue",49,"left","high","True","False",94,750,NA
"A29KUIEVPK8WB4","Mon Nov 02 2020 06:58:19 GMT-0600 (Central Standard Time)","Mon Nov 02 2020 07:14:58 GMT-0600 (Central Standard Time)","Mozilla/5.0 (Windows NT 10.0; Win64; x64) AppleWebKit/537.36 (KHTML, like Gecko) Chrome/86.0.4240.111 Safari/537.36",16,"[0.9, 0.5, 0.1]","[0.8, 0.4, 0.2]","[u'blue', u'red', u'black']","[u'left', u'middle', u'right']","[0.9, 0.5, 0.1]","[u'high', u'low', u'medium']","blue",49,"left","high","True","False",218,850,NA
"A29KUIEVPK8WB4","Mon Nov 02 2020 06:58:19 GMT-0600 (Central Standard Time)","Mon Nov 02 2020 07:14:58 GMT-0600 (Central Standard Time)","Mozilla/5.0 (Windows NT 10.0; Win64; x64) AppleWebKit/537.36 (KHTML, like Gecko) Chrome/86.0.4240.111 Safari/537.36",17,"[0.9, 0.5, 0.1]","[0.8, 0.4, 0.2]","[u'blue', u'red', u'black']","[u'left', u'middle', u'right']","[0.9, 0.5, 0.1]","[u'high', u'low', u'medium']","blue",49,"left","high","True","False",220,950,NA
"A29KUIEVPK8WB4","Mon Nov 02 2020 06:58:19 GMT-0600 (Central Standard Time)","Mon Nov 02 2020 07:14:58 GMT-0600 (Central Standard Time)","Mozilla/5.0 (Windows NT 10.0; Win64; x64) AppleWebKit/537.36 (KHTML, like Gecko) Chrome/86.0.4240.111 Safari/537.36",18,"[0.9, 0.5, 0.1]","[0.8, 0.4, 0.2]","[u'blue', u'red', u'black']","[u'left', u'middle', u'right']","[0.9, 0.5, 0.1]","[u'high', u'low', u'medium']","blue",49,"left","high","False","False",264,900,NA
"A29KUIEVPK8WB4","Mon Nov 02 2020 06:58:19 GMT-0600 (Central Standard Time)","Mon Nov 02 2020 07:14:58 GMT-0600 (Central Standard Time)","Mozilla/5.0 (Windows NT 10.0; Win64; x64) AppleWebKit/537.36 (KHTML, like Gecko) Chrome/86.0.4240.111 Safari/537.36",19,"[0.9, 0.5, 0.1]","[0.8, 0.4, 0.2]","[u'blue', u'red', u'black']","[u'left', u'middle', u'right']","[0.9, 0.5, 0.1]","[u'high', u'low', u'medium']","blue",49,"left","high","True","False",38,1000,NA
"A29KUIEVPK8WB4","Mon Nov 02 2020 06:58:19 GMT-0600 (Central Standard Time)","Mon Nov 02 2020 07:14:58 GMT-0600 (Central Standard Time)","Mozilla/5.0 (Windows NT 10.0; Win64; x64) AppleWebKit/537.36 (KHTML, like Gecko) Chrome/86.0.4240.111 Safari/537.36",20,"[0.9, 0.5, 0.1]","[0.8, 0.4, 0.2]","[u'blue', u'red', u'black']","[u'left', u'middle', u'right']","[0.9, 0.5, 0.1]","[u'high', u'low', u'medium']","blue",49,"left","high","True","False",38,1100,NA
"A29KUIEVPK8WB4","Mon Nov 02 2020 06:58:19 GMT-0600 (Central Standard Time)","Mon Nov 02 2020 07:14:58 GMT-0600 (Central Standard Time)","Mozilla/5.0 (Windows NT 10.0; Win64; x64) AppleWebKit/537.36 (KHTML, like Gecko) Chrome/86.0.4240.111 Safari/537.36",21,"[0.9, 0.5, 0.1]","[0.8, 0.4, 0.2]","[u'blue', u'red', u'black']","[u'left', u'middle', u'right']","[0.9, 0.5, 0.1]","[u'high', u'low', u'medium']","blue",49,"left","high","True","False",93,1200,NA
"A29KUIEVPK8WB4","Mon Nov 02 2020 06:58:19 GMT-0600 (Central Standard Time)","Mon Nov 02 2020 07:14:58 GMT-0600 (Central Standard Time)","Mozilla/5.0 (Windows NT 10.0; Win64; x64) AppleWebKit/537.36 (KHTML, like Gecko) Chrome/86.0.4240.111 Safari/537.36",22,"[0.9, 0.5, 0.1]","[0.8, 0.4, 0.2]","[u'blue', u'red', u'black']","[u'left', u'middle', u'right']","[0.9, 0.5, 0.1]","[u'high', u'low', u'medium']","blue",49,"left","high","True","False",118,1300,NA
"A29KUIEVPK8WB4","Mon Nov 02 2020 06:58:19 GMT-0600 (Central Standard Time)","Mon Nov 02 2020 07:14:58 GMT-0600 (Central Standard Time)","Mozilla/5.0 (Windows NT 10.0; Win64; x64) AppleWebKit/537.36 (KHTML, like Gecko) Chrome/86.0.4240.111 Safari/537.36",23,"[0.9, 0.5, 0.1]","[0.8, 0.4, 0.2]","[u'blue', u'red', u'black']","[u'left', u'middle', u'right']","[0.9, 0.5, 0.1]","[u'high', u'low', u'medium']","blue",49,"left","high","False","True",130,1250,NA
"A29KUIEVPK8WB4","Mon Nov 02 2020 06:58:19 GMT-0600 (Central Standard Time)","Mon Nov 02 2020 07:14:58 GMT-0600 (Central Standard Time)","Mozilla/5.0 (Windows NT 10.0; Win64; x64) AppleWebKit/537.36 (KHTML, like Gecko) Chrome/86.0.4240.111 Safari/537.36",24,"[0.9, 0.5, 0.1]","[0.8, 0.4, 0.2]","[u'blue', u'red', u'black']","[u'left', u'middle', u'right']","[0.9, 0.5, 0.1]","[u'medium', u'low', u'high']","blue",49,"left","medium","False","False",188,1200,NA
"A29KUIEVPK8WB4","Mon Nov 02 2020 06:58:19 GMT-0600 (Central Standard Time)","Mon Nov 02 2020 07:14:58 GMT-0600 (Central Standard Time)","Mozilla/5.0 (Windows NT 10.0; Win64; x64) AppleWebKit/537.36 (KHTML, like Gecko) Chrome/86.0.4240.111 Safari/537.36",25,"[0.9, 0.5, 0.1]","[0.8, 0.4, 0.2]","[u'blue', u'red', u'black']","[u'left', u'middle', u'right']","[0.9, 0.5, 0.1]","[u'medium', u'low', u'high']","red",50,"middle","low","True","False",46,1300,NA
"A29KUIEVPK8WB4","Mon Nov 02 2020 06:58:19 GMT-0600 (Central Standard Time)","Mon Nov 02 2020 07:14:58 GMT-0600 (Central Standard Time)","Mozilla/5.0 (Windows NT 10.0; Win64; x64) AppleWebKit/537.36 (KHTML, like Gecko) Chrome/86.0.4240.111 Safari/537.36",26,"[0.9, 0.5, 0.1]","[0.8, 0.4, 0.2]","[u'blue', u'red', u'black']","[u'left', u'middle', u'right']","[0.9, 0.5, 0.1]","[u'medium', u'low', u'high']","red",50,"middle","low","False","False",217,1250,NA
"A29KUIEVPK8WB4","Mon Nov 02 2020 06:58:19 GMT-0600 (Central Standard Time)","Mon Nov 02 2020 07:14:58 GMT-0600 (Central Standard Time)","Mozilla/5.0 (Windows NT 10.0; Win64; x64) AppleWebKit/537.36 (KHTML, like Gecko) Chrome/86.0.4240.111 Safari/537.36",27,"[0.9, 0.5, 0.1]","[0.8, 0.4, 0.2]","[u'blue', u'red', u'black']","[u'left', u'middle', u'right']","[0.9, 0.5, 0.1]","[u'medium', u'low', u'high']","red",50,"middle","low","False","False",176,1200,NA
"A29KUIEVPK8WB4","Mon Nov 02 2020 06:58:19 GMT-0600 (Central Standard Time)","Mon Nov 02 2020 07:14:58 GMT-0600 (Central Standard Time)","Mozilla/5.0 (Windows NT 10.0; Win64; x64) AppleWebKit/537.36 (KHTML, like Gecko) Chrome/86.0.4240.111 Safari/537.36",28,"[0.9, 0.5, 0.1]","[0.8, 0.4, 0.2]","[u'blue', u'red', u'black']","[u'left', u'middle', u'right']","[0.9, 0.5, 0.1]","[u'medium', u'low', u'high']","red",50,"middle","low","False","False",140,1150,NA
"A29KUIEVPK8WB4","Mon Nov 02 2020 06:58:19 GMT-0600 (Central Standard Time)","Mon Nov 02 2020 07:14:58 GMT-0600 (Central Standard Time)","Mozilla/5.0 (Windows NT 10.0; Win64; x64) AppleWebKit/537.36 (KHTML, like Gecko) Chrome/86.0.4240.111 Safari/537.36",29,"[0.9, 0.5, 0.1]","[0.8, 0.4, 0.2]","[u'blue', u'red', u'black']","[u'left', u'middle', u'right']","[0.9, 0.5, 0.1]","[u'medium', u'low', u'high']","black",51,"right","high","True","False",322,1250,NA
"A29KUIEVPK8WB4","Mon Nov 02 2020 06:58:19 GMT-0600 (Central Standard Time)","Mon Nov 02 2020 07:14:58 GMT-0600 (Central Standard Time)","Mozilla/5.0 (Windows NT 10.0; Win64; x64) AppleWebKit/537.36 (KHTML, like Gecko) Chrome/86.0.4240.111 Safari/537.36",30,"[0.9, 0.5, 0.1]","[0.8, 0.4, 0.2]","[u'blue', u'red', u'black']","[u'left', u'middle', u'right']","[0.9, 0.5, 0.1]","[u'medium', u'low', u'high']","black",51,"right","high","True","False",262,1350,NA
"A29KUIEVPK8WB4","Mon Nov 02 2020 06:58:19 GMT-0600 (Central Standard Time)","Mon Nov 02 2020 07:14:58 GMT-0600 (Central Standard Time)","Mozilla/5.0 (Windows NT 10.0; Win64; x64) AppleWebKit/537.36 (KHTML, like Gecko) Chrome/86.0.4240.111 Safari/537.36",31,"[0.9, 0.5, 0.1]","[0.8, 0.4, 0.2]","[u'blue', u'red', u'black']","[u'left', u'middle', u'right']","[0.9, 0.5, 0.1]","[u'medium', u'low', u'high']","black",51,"right","high","True","False",264,1450,NA
"A29KUIEVPK8WB4","Mon Nov 02 2020 06:58:19 GMT-0600 (Central Standard Time)","Mon Nov 02 2020 07:14:58 GMT-0600 (Central Standard Time)","Mozilla/5.0 (Windows NT 10.0; Win64; x64) AppleWebKit/537.36 (KHTML, like Gecko) Chrome/86.0.4240.111 Safari/537.36",32,"[0.9, 0.5, 0.1]","[0.8, 0.4, 0.2]","[u'blue', u'red', u'black']","[u'left', u'middle', u'right']","[0.9, 0.5, 0.1]","[u'medium', u'low', u'high']","black",51,"right","high","True","False",244,1550,NA
"A29KUIEVPK8WB4","Mon Nov 02 2020 06:58:19 GMT-0600 (Central Standard Time)","Mon Nov 02 2020 07:14:58 GMT-0600 (Central Standard Time)","Mozilla/5.0 (Windows NT 10.0; Win64; x64) AppleWebKit/537.36 (KHTML, like Gecko) Chrome/86.0.4240.111 Safari/537.36",33,"[0.9, 0.5, 0.1]","[0.8, 0.4, 0.2]","[u'blue', u'red', u'black']","[u'left', u'middle', u'right']","[0.9, 0.5, 0.1]","[u'medium', u'low', u'high']","black",51,"right","high","False","False",59,1500,NA
"A29KUIEVPK8WB4","Mon Nov 02 2020 06:58:19 GMT-0600 (Central Standard Time)","Mon Nov 02 2020 07:14:58 GMT-0600 (Central Standard Time)","Mozilla/5.0 (Windows NT 10.0; Win64; x64) AppleWebKit/537.36 (KHTML, like Gecko) Chrome/86.0.4240.111 Safari/537.36",34,"[0.9, 0.5, 0.1]","[0.8, 0.4, 0.2]","[u'blue', u'red', u'black']","[u'left', u'middle', u'right']","[0.9, 0.5, 0.1]","[u'medium', u'low', u'high']","black",51,"right","high","True","False",184,1600,NA
"A29KUIEVPK8WB4","Mon Nov 02 2020 06:58:19 GMT-0600 (Central Standard Time)","Mon Nov 02 2020 07:14:58 GMT-0600 (Central Standard Time)","Mozilla/5.0 (Windows NT 10.0; Win64; x64) AppleWebKit/537.36 (KHTML, like Gecko) Chrome/86.0.4240.111 Safari/537.36",35,"[0.9, 0.5, 0.1]","[0.8, 0.4, 0.2]","[u'blue', u'red', u'black']","[u'left', u'middle', u'right']","[0.9, 0.5, 0.1]","[u'medium', u'low', u'high']","black",51,"right","high","True","False",174,1700,NA
"A29KUIEVPK8WB4","Mon Nov 02 2020 06:58:19 GMT-0600 (Central Standard Time)","Mon Nov 02 2020 07:14:58 GMT-0600 (Central Standard Time)","Mozilla/5.0 (Windows NT 10.0; Win64; x64) AppleWebKit/537.36 (KHTML, like Gecko) Chrome/86.0.4240.111 Safari/537.36",36,"[0.9, 0.5, 0.1]","[0.8, 0.4, 0.2]","[u'blue', u'red', u'black']","[u'left', u'middle', u'right']","[0.9, 0.5, 0.1]","[u'medium', u'low', u'high']","black",51,"right","high","True","False",259,1800,NA
"A29KUIEVPK8WB4","Mon Nov 02 2020 06:58:19 GMT-0600 (Central Standard Time)","Mon Nov 02 2020 07:14:58 GMT-0600 (Central Standard Time)","Mozilla/5.0 (Windows NT 10.0; Win64; x64) AppleWebKit/537.36 (KHTML, like Gecko) Chrome/86.0.4240.111 Safari/537.36",37,"[0.9, 0.5, 0.1]","[0.8, 0.4, 0.2]","[u'blue', u'red', u'black']","[u'left', u'middle', u'right']","[0.9, 0.5, 0.1]","[u'medium', u'low', u'high']","black",51,"right","high","True","True",91,1900,NA
"A29KUIEVPK8WB4","Mon Nov 02 2020 06:58:19 GMT-0600 (Central Standard Time)","Mon Nov 02 2020 07:14:58 GMT-0600 (Central Standard Time)","Mozilla/5.0 (Windows NT 10.0; Win64; x64) AppleWebKit/537.36 (KHTML, like Gecko) Chrome/86.0.4240.111 Safari/537.36",38,"[0.9, 0.5, 0.1]","[0.8, 0.4, 0.2]","[u'blue', u'red', u'black']","[u'left', u'middle', u'right']","[0.9, 0.5, 0.1]","[u'medium', u'high', u'low']","black",51,"right","low","False","False",270,1850,NA
"A29KUIEVPK8WB4","Mon Nov 02 2020 06:58:19 GMT-0600 (Central Standard Time)","Mon Nov 02 2020 07:14:58 GMT-0600 (Central Standard Time)","Mozilla/5.0 (Windows NT 10.0; Win64; x64) AppleWebKit/537.36 (KHTML, like Gecko) Chrome/86.0.4240.111 Safari/537.36",39,"[0.9, 0.5, 0.1]","[0.8, 0.4, 0.2]","[u'blue', u'red', u'black']","[u'left', u'middle', u'right']","[0.9, 0.5, 0.1]","[u'medium', u'high', u'low']","black",51,"right","low","True","False",74,1950,NA
"A29KUIEVPK8WB4","Mon Nov 02 2020 06:58:19 GMT-0600 (Central Standard Time)","Mon Nov 02 2020 07:14:58 GMT-0600 (Central Standard Time)","Mozilla/5.0 (Windows NT 10.0; Win64; x64) AppleWebKit/537.36 (KHTML, like Gecko) Chrome/86.0.4240.111 Safari/537.36",40,"[0.9, 0.5, 0.1]","[0.8, 0.4, 0.2]","[u'blue', u'red', u'black']","[u'left', u'middle', u'right']","[0.9, 0.5, 0.1]","[u'medium', u'high', u'low']","black",51,"right","low","False","False",91,1900,NA
"A29KUIEVPK8WB4","Mon Nov 02 2020 06:58:19 GMT-0600 (Central Standard Time)","Mon Nov 02 2020 07:14:58 GMT-0600 (Central Standard Time)","Mozilla/5.0 (Windows NT 10.0; Win64; x64) AppleWebKit/537.36 (KHTML, like Gecko) Chrome/86.0.4240.111 Safari/537.36",41,"[0.9, 0.5, 0.1]","[0.8, 0.4, 0.2]","[u'blue', u'red', u'black']","[u'left', u'middle', u'right']","[0.9, 0.5, 0.1]","[u'low', u'medium', u'high']","blue",49,"left","low","False","False",1052,1850,NA
"A29KUIEVPK8WB4","Mon Nov 02 2020 06:58:19 GMT-0600 (Central Standard Time)","Mon Nov 02 2020 07:14:58 GMT-0600 (Central Standard Time)","Mozilla/5.0 (Windows NT 10.0; Win64; x64) AppleWebKit/537.36 (KHTML, like Gecko) Chrome/86.0.4240.111 Safari/537.36",42,"[0.9, 0.5, 0.1]","[0.8, 0.4, 0.2]","[u'blue', u'red', u'black']","[u'left', u'middle', u'right']","[0.9, 0.5, 0.1]","[u'low', u'medium', u'high']","blue",49,"left","low","False","False",180,1800,NA
"A29KUIEVPK8WB4","Mon Nov 02 2020 06:58:19 GMT-0600 (Central Standard Time)","Mon Nov 02 2020 07:14:58 GMT-0600 (Central Standard Time)","Mozilla/5.0 (Windows NT 10.0; Win64; x64) AppleWebKit/537.36 (KHTML, like Gecko) Chrome/86.0.4240.111 Safari/537.36",43,"[0.9, 0.5, 0.1]","[0.8, 0.4, 0.2]","[u'blue', u'red', u'black']","[u'left', u'middle', u'right']","[0.9, 0.5, 0.1]","[u'low', u'medium', u'high']","red",50,"middle","medium","False","False",171,1750,NA
"A29KUIEVPK8WB4","Mon Nov 02 2020 06:58:19 GMT-0600 (Central Standard Time)","Mon Nov 02 2020 07:14:58 GMT-0600 (Central Standard Time)","Mozilla/5.0 (Windows NT 10.0; Win64; x64) AppleWebKit/537.36 (KHTML, like Gecko) Chrome/86.0.4240.111 Safari/537.36",44,"[0.9, 0.5, 0.1]","[0.8, 0.4, 0.2]","[u'blue', u'red', u'black']","[u'left', u'middle', u'right']","[0.9, 0.5, 0.1]","[u'low', u'medium', u'high']","black",51,"right","high","True","False",169,1850,NA
"A29KUIEVPK8WB4","Mon Nov 02 2020 06:58:19 GMT-0600 (Central Standard Time)","Mon Nov 02 2020 07:14:58 GMT-0600 (Central Standard Time)","Mozilla/5.0 (Windows NT 10.0; Win64; x64) AppleWebKit/537.36 (KHTML, like Gecko) Chrome/86.0.4240.111 Safari/537.36",45,"[0.9, 0.5, 0.1]","[0.8, 0.4, 0.2]","[u'blue', u'red', u'black']","[u'left', u'middle', u'right']","[0.9, 0.5, 0.1]","[u'low', u'medium', u'high']","black",51,"right","high","True","False",181,1950,NA
"A29KUIEVPK8WB4","Mon Nov 02 2020 06:58:19 GMT-0600 (Central Standard Time)","Mon Nov 02 2020 07:14:58 GMT-0600 (Central Standard Time)","Mozilla/5.0 (Windows NT 10.0; Win64; x64) AppleWebKit/537.36 (KHTML, like Gecko) Chrome/86.0.4240.111 Safari/537.36",46,"[0.9, 0.5, 0.1]","[0.8, 0.4, 0.2]","[u'blue', u'red', u'black']","[u'left', u'middle', u'right']","[0.9, 0.5, 0.1]","[u'low', u'medium', u'high']","black",51,"right","high","True","False",137,2050,NA
"A29KUIEVPK8WB4","Mon Nov 02 2020 06:58:19 GMT-0600 (Central Standard Time)","Mon Nov 02 2020 07:14:58 GMT-0600 (Central Standard Time)","Mozilla/5.0 (Windows NT 10.0; Win64; x64) AppleWebKit/537.36 (KHTML, like Gecko) Chrome/86.0.4240.111 Safari/537.36",47,"[0.9, 0.5, 0.1]","[0.8, 0.4, 0.2]","[u'blue', u'red', u'black']","[u'left', u'middle', u'right']","[0.9, 0.5, 0.1]","[u'low', u'medium', u'high']","black",51,"right","high","True","False",120,2150,NA
"A29KUIEVPK8WB4","Mon Nov 02 2020 06:58:19 GMT-0600 (Central Standard Time)","Mon Nov 02 2020 07:14:58 GMT-0600 (Central Standard Time)","Mozilla/5.0 (Windows NT 10.0; Win64; x64) AppleWebKit/537.36 (KHTML, like Gecko) Chrome/86.0.4240.111 Safari/537.36",48,"[0.9, 0.5, 0.1]","[0.8, 0.4, 0.2]","[u'blue', u'red', u'black']","[u'left', u'middle', u'right']","[0.9, 0.5, 0.1]","[u'low', u'medium', u'high']","black",51,"right","high","True","False",174,2250,NA
"A29KUIEVPK8WB4","Mon Nov 02 2020 06:58:19 GMT-0600 (Central Standard Time)","Mon Nov 02 2020 07:14:58 GMT-0600 (Central Standard Time)","Mozilla/5.0 (Windows NT 10.0; Win64; x64) AppleWebKit/537.36 (KHTML, like Gecko) Chrome/86.0.4240.111 Safari/537.36",49,"[0.9, 0.5, 0.1]","[0.8, 0.4, 0.2]","[u'blue', u'red', u'black']","[u'left', u'middle', u'right']","[0.9, 0.5, 0.1]","[u'low', u'medium', u'high']","black",51,"right","high","False","False",103,2200,NA
"A29KUIEVPK8WB4","Mon Nov 02 2020 06:58:19 GMT-0600 (Central Standard Time)","Mon Nov 02 2020 07:14:58 GMT-0600 (Central Standard Time)","Mozilla/5.0 (Windows NT 10.0; Win64; x64) AppleWebKit/537.36 (KHTML, like Gecko) Chrome/86.0.4240.111 Safari/537.36",50,"[0.9, 0.5, 0.1]","[0.8, 0.4, 0.2]","[u'blue', u'red', u'black']","[u'left', u'middle', u'right']","[0.9, 0.5, 0.1]","[u'low', u'medium', u'high']","black",51,"right","high","True","False",42,2300,NA
"A29KUIEVPK8WB4","Mon Nov 02 2020 06:58:19 GMT-0600 (Central Standard Time)","Mon Nov 02 2020 07:14:58 GMT-0600 (Central Standard Time)","Mozilla/5.0 (Windows NT 10.0; Win64; x64) AppleWebKit/537.36 (KHTML, like Gecko) Chrome/86.0.4240.111 Safari/537.36",51,"[0.9, 0.5, 0.1]","[0.8, 0.4, 0.2]","[u'blue', u'red', u'black']","[u'left', u'middle', u'right']","[0.9, 0.5, 0.1]","[u'low', u'medium', u'high']","black",51,"right","high","True","False",138,2400,NA
"A29KUIEVPK8WB4","Mon Nov 02 2020 06:58:19 GMT-0600 (Central Standard Time)","Mon Nov 02 2020 07:14:58 GMT-0600 (Central Standard Time)","Mozilla/5.0 (Windows NT 10.0; Win64; x64) AppleWebKit/537.36 (KHTML, like Gecko) Chrome/86.0.4240.111 Safari/537.36",52,"[0.9, 0.5, 0.1]","[0.8, 0.4, 0.2]","[u'blue', u'red', u'black']","[u'left', u'middle', u'right']","[0.9, 0.5, 0.1]","[u'low', u'medium', u'high']","black",51,"right","high","True","True",133,2500,NA
"A29KUIEVPK8WB4","Mon Nov 02 2020 06:58:19 GMT-0600 (Central Standard Time)","Mon Nov 02 2020 07:14:58 GMT-0600 (Central Standard Time)","Mozilla/5.0 (Windows NT 10.0; Win64; x64) AppleWebKit/537.36 (KHTML, like Gecko) Chrome/86.0.4240.111 Safari/537.36",53,"[0.9, 0.5, 0.1]","[0.8, 0.4, 0.2]","[u'blue', u'red', u'black']","[u'left', u'middle', u'right']","[0.9, 0.5, 0.1]","[u'high', u'medium', u'low']","black",51,"right","low","False","False",206,2450,NA
"A29KUIEVPK8WB4","Mon Nov 02 2020 06:58:19 GMT-0600 (Central Standard Time)","Mon Nov 02 2020 07:14:58 GMT-0600 (Central Standard Time)","Mozilla/5.0 (Windows NT 10.0; Win64; x64) AppleWebKit/537.36 (KHTML, like Gecko) Chrome/86.0.4240.111 Safari/537.36",54,"[0.9, 0.5, 0.1]","[0.8, 0.4, 0.2]","[u'blue', u'red', u'black']","[u'left', u'middle', u'right']","[0.9, 0.5, 0.1]","[u'high', u'medium', u'low']","black",51,"right","low","False","False",102,2400,NA
"A29KUIEVPK8WB4","Mon Nov 02 2020 06:58:19 GMT-0600 (Central Standard Time)","Mon Nov 02 2020 07:14:58 GMT-0600 (Central Standard Time)","Mozilla/5.0 (Windows NT 10.0; Win64; x64) AppleWebKit/537.36 (KHTML, like Gecko) Chrome/86.0.4240.111 Safari/537.36",55,"[0.9, 0.5, 0.1]","[0.8, 0.4, 0.2]","[u'blue', u'red', u'black']","[u'left', u'middle', u'right']","[0.9, 0.5, 0.1]","[u'high', u'medium', u'low']","red",50,"middle","medium","False","False",187,2350,NA
"A29KUIEVPK8WB4","Mon Nov 02 2020 06:58:19 GMT-0600 (Central Standard Time)","Mon Nov 02 2020 07:14:58 GMT-0600 (Central Standard Time)","Mozilla/5.0 (Windows NT 10.0; Win64; x64) AppleWebKit/537.36 (KHTML, like Gecko) Chrome/86.0.4240.111 Safari/537.36",56,"[0.9, 0.5, 0.1]","[0.8, 0.4, 0.2]","[u'blue', u'red', u'black']","[u'left', u'middle', u'right']","[0.9, 0.5, 0.1]","[u'high', u'medium', u'low']","blue",49,"left","high","True","False",129,2450,NA
"A29KUIEVPK8WB4","Mon Nov 02 2020 06:58:19 GMT-0600 (Central Standard Time)","Mon Nov 02 2020 07:14:58 GMT-0600 (Central Standard Time)","Mozilla/5.0 (Windows NT 10.0; Win64; x64) AppleWebKit/537.36 (KHTML, like Gecko) Chrome/86.0.4240.111 Safari/537.36",57,"[0.9, 0.5, 0.1]","[0.8, 0.4, 0.2]","[u'blue', u'red', u'black']","[u'left', u'middle', u'right']","[0.9, 0.5, 0.1]","[u'high', u'medium', u'low']","blue",49,"left","high","True","False",168,2550,NA
"A29KUIEVPK8WB4","Mon Nov 02 2020 06:58:19 GMT-0600 (Central Standard Time)","Mon Nov 02 2020 07:14:58 GMT-0600 (Central Standard Time)","Mozilla/5.0 (Windows NT 10.0; Win64; x64) AppleWebKit/537.36 (KHTML, like Gecko) Chrome/86.0.4240.111 Safari/537.36",58,"[0.9, 0.5, 0.1]","[0.8, 0.4, 0.2]","[u'blue', u'red', u'black']","[u'left', u'middle', u'right']","[0.9, 0.5, 0.1]","[u'high', u'medium', u'low']","blue",49,"left","high","True","False",182,2650,NA
"A29KUIEVPK8WB4","Mon Nov 02 2020 06:58:19 GMT-0600 (Central Standard Time)","Mon Nov 02 2020 07:14:58 GMT-0600 (Central Standard Time)","Mozilla/5.0 (Windows NT 10.0; Win64; x64) AppleWebKit/537.36 (KHTML, like Gecko) Chrome/86.0.4240.111 Safari/537.36",59,"[0.9, 0.5, 0.1]","[0.8, 0.4, 0.2]","[u'blue', u'red', u'black']","[u'left', u'middle', u'right']","[0.9, 0.5, 0.1]","[u'high', u'medium', u'low']","blue",49,"left","high","True","False",223,2750,NA
"A29KUIEVPK8WB4","Mon Nov 02 2020 06:58:19 GMT-0600 (Central Standard Time)","Mon Nov 02 2020 07:14:58 GMT-0600 (Central Standard Time)","Mozilla/5.0 (Windows NT 10.0; Win64; x64) AppleWebKit/537.36 (KHTML, like Gecko) Chrome/86.0.4240.111 Safari/537.36",60,"[0.9, 0.5, 0.1]","[0.8, 0.4, 0.2]","[u'blue', u'red', u'black']","[u'left', u'middle', u'right']","[0.9, 0.5, 0.1]","[u'high', u'medium', u'low']","blue",49,"left","high","True","False",252,2850,NA
"A29KUIEVPK8WB4","Mon Nov 02 2020 06:58:19 GMT-0600 (Central Standard Time)","Mon Nov 02 2020 07:14:58 GMT-0600 (Central Standard Time)","Mozilla/5.0 (Windows NT 10.0; Win64; x64) AppleWebKit/537.36 (KHTML, like Gecko) Chrome/86.0.4240.111 Safari/537.36",61,"[0.9, 0.5, 0.1]","[0.8, 0.4, 0.2]","[u'blue', u'red', u'black']","[u'left', u'middle', u'right']","[0.9, 0.5, 0.1]","[u'high', u'medium', u'low']","blue",49,"left","high","True","False",157,2950,NA
"A29KUIEVPK8WB4","Mon Nov 02 2020 06:58:19 GMT-0600 (Central Standard Time)","Mon Nov 02 2020 07:14:58 GMT-0600 (Central Standard Time)","Mozilla/5.0 (Windows NT 10.0; Win64; x64) AppleWebKit/537.36 (KHTML, like Gecko) Chrome/86.0.4240.111 Safari/537.36",62,"[0.9, 0.5, 0.1]","[0.8, 0.4, 0.2]","[u'blue', u'red', u'black']","[u'left', u'middle', u'right']","[0.9, 0.5, 0.1]","[u'high', u'medium', u'low']","blue",49,"left","high","True","False",26,3050,NA
"A29KUIEVPK8WB4","Mon Nov 02 2020 06:58:19 GMT-0600 (Central Standard Time)","Mon Nov 02 2020 07:14:58 GMT-0600 (Central Standard Time)","Mozilla/5.0 (Windows NT 10.0; Win64; x64) AppleWebKit/537.36 (KHTML, like Gecko) Chrome/86.0.4240.111 Safari/537.36",63,"[0.9, 0.5, 0.1]","[0.8, 0.4, 0.2]","[u'blue', u'red', u'black']","[u'left', u'middle', u'right']","[0.9, 0.5, 0.1]","[u'high', u'medium', u'low']","blue",49,"left","high","True","False",28,3150,NA
"A29KUIEVPK8WB4","Mon Nov 02 2020 06:58:19 GMT-0600 (Central Standard Time)","Mon Nov 02 2020 07:14:58 GMT-0600 (Central Standard Time)","Mozilla/5.0 (Windows NT 10.0; Win64; x64) AppleWebKit/537.36 (KHTML, like Gecko) Chrome/86.0.4240.111 Safari/537.36",64,"[0.9, 0.5, 0.1]","[0.8, 0.4, 0.2]","[u'blue', u'red', u'black']","[u'left', u'middle', u'right']","[0.9, 0.5, 0.1]","[u'high', u'medium', u'low']","blue",49,"left","high","True","True",164,3250,NA
"A29KUIEVPK8WB4","Mon Nov 02 2020 06:58:19 GMT-0600 (Central Standard Time)","Mon Nov 02 2020 07:14:58 GMT-0600 (Central Standard Time)","Mozilla/5.0 (Windows NT 10.0; Win64; x64) AppleWebKit/537.36 (KHTML, like Gecko) Chrome/86.0.4240.111 Safari/537.36",65,"[0.9, 0.5, 0.1]","[0.8, 0.4, 0.2]","[u'blue', u'red', u'black']","[u'left', u'middle', u'right']","[0.9, 0.5, 0.1]","[u'low', u'medium', u'high']","blue",49,"left","low","False","False",242,3200,NA
"A29KUIEVPK8WB4","Mon Nov 02 2020 06:58:19 GMT-0600 (Central Standard Time)","Mon Nov 02 2020 07:14:58 GMT-0600 (Central Standard Time)","Mozilla/5.0 (Windows NT 10.0; Win64; x64) AppleWebKit/537.36 (KHTML, like Gecko) Chrome/86.0.4240.111 Safari/537.36",66,"[0.9, 0.5, 0.1]","[0.8, 0.4, 0.2]","[u'blue', u'red', u'black']","[u'left', u'middle', u'right']","[0.9, 0.5, 0.1]","[u'low', u'medium', u'high']","blue",49,"left","low","False","False",313,3150,NA
"A29KUIEVPK8WB4","Mon Nov 02 2020 06:58:19 GMT-0600 (Central Standard Time)","Mon Nov 02 2020 07:14:58 GMT-0600 (Central Standard Time)","Mozilla/5.0 (Windows NT 10.0; Win64; x64) AppleWebKit/537.36 (KHTML, like Gecko) Chrome/86.0.4240.111 Safari/537.36",67,"[0.9, 0.5, 0.1]","[0.8, 0.4, 0.2]","[u'blue', u'red', u'black']","[u'left', u'middle', u'right']","[0.9, 0.5, 0.1]","[u'low', u'medium', u'high']","black",51,"right","high","True","False",163,3250,NA
"A29KUIEVPK8WB4","Mon Nov 02 2020 06:58:19 GMT-0600 (Central Standard Time)","Mon Nov 02 2020 07:14:58 GMT-0600 (Central Standard Time)","Mozilla/5.0 (Windows NT 10.0; Win64; x64) AppleWebKit/537.36 (KHTML, like Gecko) Chrome/86.0.4240.111 Safari/537.36",68,"[0.9, 0.5, 0.1]","[0.8, 0.4, 0.2]","[u'blue', u'red', u'black']","[u'left', u'middle', u'right']","[0.9, 0.5, 0.1]","[u'low', u'medium', u'high']","black",51,"right","high","True","False",98,3350,NA
"A29KUIEVPK8WB4","Mon Nov 02 2020 06:58:19 GMT-0600 (Central Standard Time)","Mon Nov 02 2020 07:14:58 GMT-0600 (Central Standard Time)","Mozilla/5.0 (Windows NT 10.0; Win64; x64) AppleWebKit/537.36 (KHTML, like Gecko) Chrome/86.0.4240.111 Safari/537.36",69,"[0.9, 0.5, 0.1]","[0.8, 0.4, 0.2]","[u'blue', u'red', u'black']","[u'left', u'middle', u'right']","[0.9, 0.5, 0.1]","[u'low', u'medium', u'high']","black",51,"right","high","True","False",108,3450,NA
"A29KUIEVPK8WB4","Mon Nov 02 2020 06:58:19 GMT-0600 (Central Standard Time)","Mon Nov 02 2020 07:14:58 GMT-0600 (Central Standard Time)","Mozilla/5.0 (Windows NT 10.0; Win64; x64) AppleWebKit/537.36 (KHTML, like Gecko) Chrome/86.0.4240.111 Safari/537.36",70,"[0.9, 0.5, 0.1]","[0.8, 0.4, 0.2]","[u'blue', u'red', u'black']","[u'left', u'middle', u'right']","[0.9, 0.5, 0.1]","[u'low', u'medium', u'high']","black",51,"right","high","False","False",33,3400,NA
"A29KUIEVPK8WB4","Mon Nov 02 2020 06:58:19 GMT-0600 (Central Standard Time)","Mon Nov 02 2020 07:14:58 GMT-0600 (Central Standard Time)","Mozilla/5.0 (Windows NT 10.0; Win64; x64) AppleWebKit/537.36 (KHTML, like Gecko) Chrome/86.0.4240.111 Safari/537.36",71,"[0.9, 0.5, 0.1]","[0.8, 0.4, 0.2]","[u'blue', u'red', u'black']","[u'left', u'middle', u'right']","[0.9, 0.5, 0.1]","[u'low', u'medium', u'high']","black",51,"right","high","True","False",116,3500,NA
"A29KUIEVPK8WB4","Mon Nov 02 2020 06:58:19 GMT-0600 (Central Standard Time)","Mon Nov 02 2020 07:14:58 GMT-0600 (Central Standard Time)","Mozilla/5.0 (Windows NT 10.0; Win64; x64) AppleWebKit/537.36 (KHTML, like Gecko) Chrome/86.0.4240.111 Safari/537.36",72,"[0.9, 0.5, 0.1]","[0.8, 0.4, 0.2]","[u'blue', u'red', u'black']","[u'left', u'middle', u'right']","[0.9, 0.5, 0.1]","[u'low', u'medium', u'high']","black",51,"right","high","False","False",90,3450,NA
"A29KUIEVPK8WB4","Mon Nov 02 2020 06:58:19 GMT-0600 (Central Standard Time)","Mon Nov 02 2020 07:14:58 GMT-0600 (Central Standard Time)","Mozilla/5.0 (Windows NT 10.0; Win64; x64) AppleWebKit/537.36 (KHTML, like Gecko) Chrome/86.0.4240.111 Safari/537.36",73,"[0.9, 0.5, 0.1]","[0.8, 0.4, 0.2]","[u'blue', u'red', u'black']","[u'left', u'middle', u'right']","[0.9, 0.5, 0.1]","[u'low', u'medium', u'high']","red",50,"middle","medium","True","False",279,3550,NA
"A29KUIEVPK8WB4","Mon Nov 02 2020 06:58:19 GMT-0600 (Central Standard Time)","Mon Nov 02 2020 07:14:58 GMT-0600 (Central Standard Time)","Mozilla/5.0 (Windows NT 10.0; Win64; x64) AppleWebKit/537.36 (KHTML, like Gecko) Chrome/86.0.4240.111 Safari/537.36",74,"[0.9, 0.5, 0.1]","[0.8, 0.4, 0.2]","[u'blue', u'red', u'black']","[u'left', u'middle', u'right']","[0.9, 0.5, 0.1]","[u'low', u'medium', u'high']","red",50,"middle","medium","True","False",128,3650,NA
"A29KUIEVPK8WB4","Mon Nov 02 2020 06:58:19 GMT-0600 (Central Standard Time)","Mon Nov 02 2020 07:14:58 GMT-0600 (Central Standard Time)","Mozilla/5.0 (Windows NT 10.0; Win64; x64) AppleWebKit/537.36 (KHTML, like Gecko) Chrome/86.0.4240.111 Safari/537.36",75,"[0.9, 0.5, 0.1]","[0.8, 0.4, 0.2]","[u'blue', u'red', u'black']","[u'left', u'middle', u'right']","[0.9, 0.5, 0.1]","[u'low', u'medium', u'high']","red",50,"middle","medium","True","False",77,3750,NA
"A29KUIEVPK8WB4","Mon Nov 02 2020 06:58:19 GMT-0600 (Central Standard Time)","Mon Nov 02 2020 07:14:58 GMT-0600 (Central Standard Time)","Mozilla/5.0 (Windows NT 10.0; Win64; x64) AppleWebKit/537.36 (KHTML, like Gecko) Chrome/86.0.4240.111 Safari/537.36",76,"[0.9, 0.5, 0.1]","[0.8, 0.4, 0.2]","[u'blue', u'red', u'black']","[u'left', u'middle', u'right']","[0.9, 0.5, 0.1]","[u'low', u'medium', u'high']","red",50,"middle","medium","True","False",192,3850,NA
"A29KUIEVPK8WB4","Mon Nov 02 2020 06:58:19 GMT-0600 (Central Standard Time)","Mon Nov 02 2020 07:14:58 GMT-0600 (Central Standard Time)","Mozilla/5.0 (Windows NT 10.0; Win64; x64) AppleWebKit/537.36 (KHTML, like Gecko) Chrome/86.0.4240.111 Safari/537.36",77,"[0.9, 0.5, 0.1]","[0.8, 0.4, 0.2]","[u'blue', u'red', u'black']","[u'left', u'middle', u'right']","[0.9, 0.5, 0.1]","[u'low', u'medium', u'high']","red",50,"middle","medium","False","False",122,3800,NA
"A29KUIEVPK8WB4","Mon Nov 02 2020 06:58:19 GMT-0600 (Central Standard Time)","Mon Nov 02 2020 07:14:58 GMT-0600 (Central Standard Time)","Mozilla/5.0 (Windows NT 10.0; Win64; x64) AppleWebKit/537.36 (KHTML, like Gecko) Chrome/86.0.4240.111 Safari/537.36",78,"[0.9, 0.5, 0.1]","[0.8, 0.4, 0.2]","[u'blue', u'red', u'black']","[u'left', u'middle', u'right']","[0.9, 0.5, 0.1]","[u'low', u'medium', u'high']","red",50,"middle","medium","True","False",171,3900,NA
"A29KUIEVPK8WB4","Mon Nov 02 2020 06:58:19 GMT-0600 (Central Standard Time)","Mon Nov 02 2020 07:14:58 GMT-0600 (Central Standard Time)","Mozilla/5.0 (Windows NT 10.0; Win64; x64) AppleWebKit/537.36 (KHTML, like Gecko) Chrome/86.0.4240.111 Safari/537.36",79,"[0.9, 0.5, 0.1]","[0.8, 0.4, 0.2]","[u'blue', u'red', u'black']","[u'left', u'middle', u'right']","[0.9, 0.5, 0.1]","[u'low', u'medium', u'high']","red",50,"middle","medium","True","False",166,4000,NA
"A29KUIEVPK8WB4","Mon Nov 02 2020 06:58:19 GMT-0600 (Central Standard Time)","Mon Nov 02 2020 07:14:58 GMT-0600 (Central Standard Time)","Mozilla/5.0 (Windows NT 10.0; Win64; x64) AppleWebKit/537.36 (KHTML, like Gecko) Chrome/86.0.4240.111 Safari/537.36",80,"[0.9, 0.5, 0.1]","[0.8, 0.4, 0.2]","[u'blue', u'red', u'black']","[u'left', u'middle', u'right']","[0.9, 0.5, 0.1]","[u'low', u'medium', u'high']","red",50,"middle","medium","False","False",53,3950,NA
"A29KUIEVPK8WB4","Mon Nov 02 2020 06:58:19 GMT-0600 (Central Standard Time)","Mon Nov 02 2020 07:14:58 GMT-0600 (Central Standard Time)","Mozilla/5.0 (Windows NT 10.0; Win64; x64) AppleWebKit/537.36 (KHTML, like Gecko) Chrome/86.0.4240.111 Safari/537.36",81,"[0.9, 0.5, 0.1]","[0.8, 0.4, 0.2]","[u'blue', u'red', u'black']","[u'left', u'middle', u'right']","[0.8, 0.4, 0.2]","[u'high', u'medium', u'low']","blue",49,"left","high","True","False",283,4050,NA
"A29KUIEVPK8WB4","Mon Nov 02 2020 06:58:19 GMT-0600 (Central Standard Time)","Mon Nov 02 2020 07:14:58 GMT-0600 (Central Standard Time)","Mozilla/5.0 (Windows NT 10.0; Win64; x64) AppleWebKit/537.36 (KHTML, like Gecko) Chrome/86.0.4240.111 Safari/537.36",82,"[0.9, 0.5, 0.1]","[0.8, 0.4, 0.2]","[u'blue', u'red', u'black']","[u'left', u'middle', u'right']","[0.8, 0.4, 0.2]","[u'high', u'medium', u'low']","blue",49,"left","high","True","False",155,4150,NA
"A29KUIEVPK8WB4","Mon Nov 02 2020 06:58:19 GMT-0600 (Central Standard Time)","Mon Nov 02 2020 07:14:58 GMT-0600 (Central Standard Time)","Mozilla/5.0 (Windows NT 10.0; Win64; x64) AppleWebKit/537.36 (KHTML, like Gecko) Chrome/86.0.4240.111 Safari/537.36",83,"[0.9, 0.5, 0.1]","[0.8, 0.4, 0.2]","[u'blue', u'red', u'black']","[u'left', u'middle', u'right']","[0.8, 0.4, 0.2]","[u'high', u'medium', u'low']","blue",49,"left","high","False","False",213,4100,NA
"A29KUIEVPK8WB4","Mon Nov 02 2020 06:58:19 GMT-0600 (Central Standard Time)","Mon Nov 02 2020 07:14:58 GMT-0600 (Central Standard Time)","Mozilla/5.0 (Windows NT 10.0; Win64; x64) AppleWebKit/537.36 (KHTML, like Gecko) Chrome/86.0.4240.111 Safari/537.36",84,"[0.9, 0.5, 0.1]","[0.8, 0.4, 0.2]","[u'blue', u'red', u'black']","[u'left', u'middle', u'right']","[0.8, 0.4, 0.2]","[u'high', u'medium', u'low']","blue",49,"left","high","True","False",90,4200,NA
"A29KUIEVPK8WB4","Mon Nov 02 2020 06:58:19 GMT-0600 (Central Standard Time)","Mon Nov 02 2020 07:14:58 GMT-0600 (Central Standard Time)","Mozilla/5.0 (Windows NT 10.0; Win64; x64) AppleWebKit/537.36 (KHTML, like Gecko) Chrome/86.0.4240.111 Safari/537.36",85,"[0.9, 0.5, 0.1]","[0.8, 0.4, 0.2]","[u'blue', u'red', u'black']","[u'left', u'middle', u'right']","[0.8, 0.4, 0.2]","[u'high', u'medium', u'low']","blue",49,"left","high","True","False",146,4300,NA
"A29KUIEVPK8WB4","Mon Nov 02 2020 06:58:19 GMT-0600 (Central Standard Time)","Mon Nov 02 2020 07:14:58 GMT-0600 (Central Standard Time)","Mozilla/5.0 (Windows NT 10.0; Win64; x64) AppleWebKit/537.36 (KHTML, like Gecko) Chrome/86.0.4240.111 Safari/537.36",86,"[0.9, 0.5, 0.1]","[0.8, 0.4, 0.2]","[u'blue', u'red', u'black']","[u'left', u'middle', u'right']","[0.8, 0.4, 0.2]","[u'high', u'medium', u'low']","blue",49,"left","high","True","False",256,4400,NA
"A29KUIEVPK8WB4","Mon Nov 02 2020 06:58:19 GMT-0600 (Central Standard Time)","Mon Nov 02 2020 07:14:58 GMT-0600 (Central Standard Time)","Mozilla/5.0 (Windows NT 10.0; Win64; x64) AppleWebKit/537.36 (KHTML, like Gecko) Chrome/86.0.4240.111 Safari/537.36",87,"[0.9, 0.5, 0.1]","[0.8, 0.4, 0.2]","[u'blue', u'red', u'black']","[u'left', u'middle', u'right']","[0.8, 0.4, 0.2]","[u'high', u'medium', u'low']","blue",49,"left","high","True","False",128,4500,NA
"A29KUIEVPK8WB4","Mon Nov 02 2020 06:58:19 GMT-0600 (Central Standard Time)","Mon Nov 02 2020 07:14:58 GMT-0600 (Central Standard Time)","Mozilla/5.0 (Windows NT 10.0; Win64; x64) AppleWebKit/537.36 (KHTML, like Gecko) Chrome/86.0.4240.111 Safari/537.36",88,"[0.9, 0.5, 0.1]","[0.8, 0.4, 0.2]","[u'blue', u'red', u'black']","[u'left', u'middle', u'right']","[0.8, 0.4, 0.2]","[u'high', u'medium', u'low']","blue",49,"left","high","True","False",149,4600,NA
"A29KUIEVPK8WB4","Mon Nov 02 2020 06:58:19 GMT-0600 (Central Standard Time)","Mon Nov 02 2020 07:14:58 GMT-0600 (Central Standard Time)","Mozilla/5.0 (Windows NT 10.0; Win64; x64) AppleWebKit/537.36 (KHTML, like Gecko) Chrome/86.0.4240.111 Safari/537.36",89,"[0.9, 0.5, 0.1]","[0.8, 0.4, 0.2]","[u'blue', u'red', u'black']","[u'left', u'middle', u'right']","[0.8, 0.4, 0.2]","[u'high', u'medium', u'low']","blue",49,"left","high","False","True",113,4550,NA
"A29KUIEVPK8WB4","Mon Nov 02 2020 06:58:19 GMT-0600 (Central Standard Time)","Mon Nov 02 2020 07:14:58 GMT-0600 (Central Standard Time)","Mozilla/5.0 (Windows NT 10.0; Win64; x64) AppleWebKit/537.36 (KHTML, like Gecko) Chrome/86.0.4240.111 Safari/537.36",90,"[0.9, 0.5, 0.1]","[0.8, 0.4, 0.2]","[u'blue', u'red', u'black']","[u'left', u'middle', u'right']","[0.8, 0.4, 0.2]","[u'low', u'high', u'medium']","blue",49,"left","low","False","False",300,4500,NA
"A29KUIEVPK8WB4","Mon Nov 02 2020 06:58:19 GMT-0600 (Central Standard Time)","Mon Nov 02 2020 07:14:58 GMT-0600 (Central Standard Time)","Mozilla/5.0 (Windows NT 10.0; Win64; x64) AppleWebKit/537.36 (KHTML, like Gecko) Chrome/86.0.4240.111 Safari/537.36",91,"[0.9, 0.5, 0.1]","[0.8, 0.4, 0.2]","[u'blue', u'red', u'black']","[u'left', u'middle', u'right']","[0.8, 0.4, 0.2]","[u'low', u'high', u'medium']","black",51,"right","medium","False","False",403,4450,NA
"A29KUIEVPK8WB4","Mon Nov 02 2020 06:58:19 GMT-0600 (Central Standard Time)","Mon Nov 02 2020 07:14:58 GMT-0600 (Central Standard Time)","Mozilla/5.0 (Windows NT 10.0; Win64; x64) AppleWebKit/537.36 (KHTML, like Gecko) Chrome/86.0.4240.111 Safari/537.36",92,"[0.9, 0.5, 0.1]","[0.8, 0.4, 0.2]","[u'blue', u'red', u'black']","[u'left', u'middle', u'right']","[0.8, 0.4, 0.2]","[u'low', u'high', u'medium']","red",50,"middle","high","True","False",106,4550,NA
"A29KUIEVPK8WB4","Mon Nov 02 2020 06:58:19 GMT-0600 (Central Standard Time)","Mon Nov 02 2020 07:14:58 GMT-0600 (Central Standard Time)","Mozilla/5.0 (Windows NT 10.0; Win64; x64) AppleWebKit/537.36 (KHTML, like Gecko) Chrome/86.0.4240.111 Safari/537.36",93,"[0.9, 0.5, 0.1]","[0.8, 0.4, 0.2]","[u'blue', u'red', u'black']","[u'left', u'middle', u'right']","[0.8, 0.4, 0.2]","[u'low', u'high', u'medium']","red",50,"middle","high","True","False",206,4650,NA
"A29KUIEVPK8WB4","Mon Nov 02 2020 06:58:19 GMT-0600 (Central Standard Time)","Mon Nov 02 2020 07:14:58 GMT-0600 (Central Standard Time)","Mozilla/5.0 (Windows NT 10.0; Win64; x64) AppleWebKit/537.36 (KHTML, like Gecko) Chrome/86.0.4240.111 Safari/537.36",94,"[0.9, 0.5, 0.1]","[0.8, 0.4, 0.2]","[u'blue', u'red', u'black']","[u'left', u'middle', u'right']","[0.8, 0.4, 0.2]","[u'low', u'high', u'medium']","red",50,"middle","high","True","False",131,4750,NA
"A29KUIEVPK8WB4","Mon Nov 02 2020 06:58:19 GMT-0600 (Central Standard Time)","Mon Nov 02 2020 07:14:58 GMT-0600 (Central Standard Time)","Mozilla/5.0 (Windows NT 10.0; Win64; x64) AppleWebKit/537.36 (KHTML, like Gecko) Chrome/86.0.4240.111 Safari/537.36",95,"[0.9, 0.5, 0.1]","[0.8, 0.4, 0.2]","[u'blue', u'red', u'black']","[u'left', u'middle', u'right']","[0.8, 0.4, 0.2]","[u'low', u'high', u'medium']","red",50,"middle","high","False","False",81,4700,NA
"A29KUIEVPK8WB4","Mon Nov 02 2020 06:58:19 GMT-0600 (Central Standard Time)","Mon Nov 02 2020 07:14:58 GMT-0600 (Central Standard Time)","Mozilla/5.0 (Windows NT 10.0; Win64; x64) AppleWebKit/537.36 (KHTML, like Gecko) Chrome/86.0.4240.111 Safari/537.36",96,"[0.9, 0.5, 0.1]","[0.8, 0.4, 0.2]","[u'blue', u'red', u'black']","[u'left', u'middle', u'right']","[0.8, 0.4, 0.2]","[u'low', u'high', u'medium']","red",50,"middle","high","True","False",112,4800,NA
"A29KUIEVPK8WB4","Mon Nov 02 2020 06:58:19 GMT-0600 (Central Standard Time)","Mon Nov 02 2020 07:14:58 GMT-0600 (Central Standard Time)","Mozilla/5.0 (Windows NT 10.0; Win64; x64) AppleWebKit/537.36 (KHTML, like Gecko) Chrome/86.0.4240.111 Safari/537.36",97,"[0.9, 0.5, 0.1]","[0.8, 0.4, 0.2]","[u'blue', u'red', u'black']","[u'left', u'middle', u'right']","[0.8, 0.4, 0.2]","[u'low', u'high', u'medium']","red",50,"middle","high","True","False",206,4900,NA
"A29KUIEVPK8WB4","Mon Nov 02 2020 06:58:19 GMT-0600 (Central Standard Time)","Mon Nov 02 2020 07:14:58 GMT-0600 (Central Standard Time)","Mozilla/5.0 (Windows NT 10.0; Win64; x64) AppleWebKit/537.36 (KHTML, like Gecko) Chrome/86.0.4240.111 Safari/537.36",98,"[0.9, 0.5, 0.1]","[0.8, 0.4, 0.2]","[u'blue', u'red', u'black']","[u'left', u'middle', u'right']","[0.8, 0.4, 0.2]","[u'low', u'high', u'medium']","red",50,"middle","high","True","False",187,5000,NA
"A29KUIEVPK8WB4","Mon Nov 02 2020 06:58:19 GMT-0600 (Central Standard Time)","Mon Nov 02 2020 07:14:58 GMT-0600 (Central Standard Time)","Mozilla/5.0 (Windows NT 10.0; Win64; x64) AppleWebKit/537.36 (KHTML, like Gecko) Chrome/86.0.4240.111 Safari/537.36",99,"[0.9, 0.5, 0.1]","[0.8, 0.4, 0.2]","[u'blue', u'red', u'black']","[u'left', u'middle', u'right']","[0.8, 0.4, 0.2]","[u'low', u'high', u'medium']","red",50,"middle","high","True","False",166,5100,NA
"A29KUIEVPK8WB4","Mon Nov 02 2020 06:58:19 GMT-0600 (Central Standard Time)","Mon Nov 02 2020 07:14:58 GMT-0600 (Central Standard Time)","Mozilla/5.0 (Windows NT 10.0; Win64; x64) AppleWebKit/537.36 (KHTML, like Gecko) Chrome/86.0.4240.111 Safari/537.36",100,"[0.9, 0.5, 0.1]","[0.8, 0.4, 0.2]","[u'blue', u'red', u'black']","[u'left', u'middle', u'right']","[0.8, 0.4, 0.2]","[u'low', u'high', u'medium']","red",50,"middle","high","True","True",193,5200,NA
"A29KUIEVPK8WB4","Mon Nov 02 2020 06:58:19 GMT-0600 (Central Standard Time)","Mon Nov 02 2020 07:14:58 GMT-0600 (Central Standard Time)","Mozilla/5.0 (Windows NT 10.0; Win64; x64) AppleWebKit/537.36 (KHTML, like Gecko) Chrome/86.0.4240.111 Safari/537.36",101,"[0.9, 0.5, 0.1]","[0.8, 0.4, 0.2]","[u'blue', u'red', u'black']","[u'left', u'middle', u'right']","[0.8, 0.4, 0.2]","[u'high', u'medium', u'low']","red",50,"middle","medium","True","False",80,5300,NA
"A29KUIEVPK8WB4","Mon Nov 02 2020 06:58:19 GMT-0600 (Central Standard Time)","Mon Nov 02 2020 07:14:58 GMT-0600 (Central Standard Time)","Mozilla/5.0 (Windows NT 10.0; Win64; x64) AppleWebKit/537.36 (KHTML, like Gecko) Chrome/86.0.4240.111 Safari/537.36",102,"[0.9, 0.5, 0.1]","[0.8, 0.4, 0.2]","[u'blue', u'red', u'black']","[u'left', u'middle', u'right']","[0.8, 0.4, 0.2]","[u'high', u'medium', u'low']","red",50,"middle","medium","False","False",225,5250,NA
"A29KUIEVPK8WB4","Mon Nov 02 2020 06:58:19 GMT-0600 (Central Standard Time)","Mon Nov 02 2020 07:14:58 GMT-0600 (Central Standard Time)","Mozilla/5.0 (Windows NT 10.0; Win64; x64) AppleWebKit/537.36 (KHTML, like Gecko) Chrome/86.0.4240.111 Safari/537.36",103,"[0.9, 0.5, 0.1]","[0.8, 0.4, 0.2]","[u'blue', u'red', u'black']","[u'left', u'middle', u'right']","[0.8, 0.4, 0.2]","[u'high', u'medium', u'low']","black",51,"right","low","False","False",116,5200,NA
"A29KUIEVPK8WB4","Mon Nov 02 2020 06:58:19 GMT-0600 (Central Standard Time)","Mon Nov 02 2020 07:14:58 GMT-0600 (Central Standard Time)","Mozilla/5.0 (Windows NT 10.0; Win64; x64) AppleWebKit/537.36 (KHTML, like Gecko) Chrome/86.0.4240.111 Safari/537.36",104,"[0.9, 0.5, 0.1]","[0.8, 0.4, 0.2]","[u'blue', u'red', u'black']","[u'left', u'middle', u'right']","[0.8, 0.4, 0.2]","[u'high', u'medium', u'low']","blue",49,"left","high","True","False",170,5300,NA
"A29KUIEVPK8WB4","Mon Nov 02 2020 06:58:19 GMT-0600 (Central Standard Time)","Mon Nov 02 2020 07:14:58 GMT-0600 (Central Standard Time)","Mozilla/5.0 (Windows NT 10.0; Win64; x64) AppleWebKit/537.36 (KHTML, like Gecko) Chrome/86.0.4240.111 Safari/537.36",105,"[0.9, 0.5, 0.1]","[0.8, 0.4, 0.2]","[u'blue', u'red', u'black']","[u'left', u'middle', u'right']","[0.8, 0.4, 0.2]","[u'high', u'medium', u'low']","blue",49,"left","high","True","False",246,5400,NA
"A29KUIEVPK8WB4","Mon Nov 02 2020 06:58:19 GMT-0600 (Central Standard Time)","Mon Nov 02 2020 07:14:58 GMT-0600 (Central Standard Time)","Mozilla/5.0 (Windows NT 10.0; Win64; x64) AppleWebKit/537.36 (KHTML, like Gecko) Chrome/86.0.4240.111 Safari/537.36",106,"[0.9, 0.5, 0.1]","[0.8, 0.4, 0.2]","[u'blue', u'red', u'black']","[u'left', u'middle', u'right']","[0.8, 0.4, 0.2]","[u'high', u'medium', u'low']","blue",49,"left","high","True","False",236,5500,NA
"A29KUIEVPK8WB4","Mon Nov 02 2020 06:58:19 GMT-0600 (Central Standard Time)","Mon Nov 02 2020 07:14:58 GMT-0600 (Central Standard Time)","Mozilla/5.0 (Windows NT 10.0; Win64; x64) AppleWebKit/537.36 (KHTML, like Gecko) Chrome/86.0.4240.111 Safari/537.36",107,"[0.9, 0.5, 0.1]","[0.8, 0.4, 0.2]","[u'blue', u'red', u'black']","[u'left', u'middle', u'right']","[0.8, 0.4, 0.2]","[u'high', u'medium', u'low']","blue",49,"left","high","True","False",186,5600,NA
"A29KUIEVPK8WB4","Mon Nov 02 2020 06:58:19 GMT-0600 (Central Standard Time)","Mon Nov 02 2020 07:14:58 GMT-0600 (Central Standard Time)","Mozilla/5.0 (Windows NT 10.0; Win64; x64) AppleWebKit/537.36 (KHTML, like Gecko) Chrome/86.0.4240.111 Safari/537.36",108,"[0.9, 0.5, 0.1]","[0.8, 0.4, 0.2]","[u'blue', u'red', u'black']","[u'left', u'middle', u'right']","[0.8, 0.4, 0.2]","[u'high', u'medium', u'low']","blue",49,"left","high","True","False",214,5700,NA
"A29KUIEVPK8WB4","Mon Nov 02 2020 06:58:19 GMT-0600 (Central Standard Time)","Mon Nov 02 2020 07:14:58 GMT-0600 (Central Standard Time)","Mozilla/5.0 (Windows NT 10.0; Win64; x64) AppleWebKit/537.36 (KHTML, like Gecko) Chrome/86.0.4240.111 Safari/537.36",109,"[0.9, 0.5, 0.1]","[0.8, 0.4, 0.2]","[u'blue', u'red', u'black']","[u'left', u'middle', u'right']","[0.8, 0.4, 0.2]","[u'high', u'medium', u'low']","blue",49,"left","high","True","False",266,5800,NA
"A29KUIEVPK8WB4","Mon Nov 02 2020 06:58:19 GMT-0600 (Central Standard Time)","Mon Nov 02 2020 07:14:58 GMT-0600 (Central Standard Time)","Mozilla/5.0 (Windows NT 10.0; Win64; x64) AppleWebKit/537.36 (KHTML, like Gecko) Chrome/86.0.4240.111 Safari/537.36",110,"[0.9, 0.5, 0.1]","[0.8, 0.4, 0.2]","[u'blue', u'red', u'black']","[u'left', u'middle', u'right']","[0.8, 0.4, 0.2]","[u'high', u'medium', u'low']","blue",49,"left","high","True","False",260,5900,NA
"A29KUIEVPK8WB4","Mon Nov 02 2020 06:58:19 GMT-0600 (Central Standard Time)","Mon Nov 02 2020 07:14:58 GMT-0600 (Central Standard Time)","Mozilla/5.0 (Windows NT 10.0; Win64; x64) AppleWebKit/537.36 (KHTML, like Gecko) Chrome/86.0.4240.111 Safari/537.36",111,"[0.9, 0.5, 0.1]","[0.8, 0.4, 0.2]","[u'blue', u'red', u'black']","[u'left', u'middle', u'right']","[0.8, 0.4, 0.2]","[u'high', u'medium', u'low']","blue",49,"left","high","True","False",303,6000,NA
"A29KUIEVPK8WB4","Mon Nov 02 2020 06:58:19 GMT-0600 (Central Standard Time)","Mon Nov 02 2020 07:14:58 GMT-0600 (Central Standard Time)","Mozilla/5.0 (Windows NT 10.0; Win64; x64) AppleWebKit/537.36 (KHTML, like Gecko) Chrome/86.0.4240.111 Safari/537.36",112,"[0.9, 0.5, 0.1]","[0.8, 0.4, 0.2]","[u'blue', u'red', u'black']","[u'left', u'middle', u'right']","[0.8, 0.4, 0.2]","[u'high', u'medium', u'low']","blue",49,"left","high","True","True",116,6100,NA
"A29KUIEVPK8WB4","Mon Nov 02 2020 06:58:19 GMT-0600 (Central Standard Time)","Mon Nov 02 2020 07:14:58 GMT-0600 (Central Standard Time)","Mozilla/5.0 (Windows NT 10.0; Win64; x64) AppleWebKit/537.36 (KHTML, like Gecko) Chrome/86.0.4240.111 Safari/537.36",113,"[0.9, 0.5, 0.1]","[0.8, 0.4, 0.2]","[u'blue', u'red', u'black']","[u'left', u'middle', u'right']","[0.8, 0.4, 0.2]","[u'low', u'high', u'medium']","blue",49,"left","low","False","False",248,6050,NA
"A29KUIEVPK8WB4","Mon Nov 02 2020 06:58:19 GMT-0600 (Central Standard Time)","Mon Nov 02 2020 07:14:58 GMT-0600 (Central Standard Time)","Mozilla/5.0 (Windows NT 10.0; Win64; x64) AppleWebKit/537.36 (KHTML, like Gecko) Chrome/86.0.4240.111 Safari/537.36",114,"[0.9, 0.5, 0.1]","[0.8, 0.4, 0.2]","[u'blue', u'red', u'black']","[u'left', u'middle', u'right']","[0.8, 0.4, 0.2]","[u'low', u'high', u'medium']","blue",49,"left","low","False","False",60,6000,NA
"A29KUIEVPK8WB4","Mon Nov 02 2020 06:58:19 GMT-0600 (Central Standard Time)","Mon Nov 02 2020 07:14:58 GMT-0600 (Central Standard Time)","Mozilla/5.0 (Windows NT 10.0; Win64; x64) AppleWebKit/537.36 (KHTML, like Gecko) Chrome/86.0.4240.111 Safari/537.36",115,"[0.9, 0.5, 0.1]","[0.8, 0.4, 0.2]","[u'blue', u'red', u'black']","[u'left', u'middle', u'right']","[0.8, 0.4, 0.2]","[u'low', u'high', u'medium']","red",50,"middle","high","True","False",112,6100,NA
"A29KUIEVPK8WB4","Mon Nov 02 2020 06:58:19 GMT-0600 (Central Standard Time)","Mon Nov 02 2020 07:14:58 GMT-0600 (Central Standard Time)","Mozilla/5.0 (Windows NT 10.0; Win64; x64) AppleWebKit/537.36 (KHTML, like Gecko) Chrome/86.0.4240.111 Safari/537.36",116,"[0.9, 0.5, 0.1]","[0.8, 0.4, 0.2]","[u'blue', u'red', u'black']","[u'left', u'middle', u'right']","[0.8, 0.4, 0.2]","[u'low', u'high', u'medium']","red",50,"middle","high","True","False",119,6200,NA
"A29KUIEVPK8WB4","Mon Nov 02 2020 06:58:19 GMT-0600 (Central Standard Time)","Mon Nov 02 2020 07:14:58 GMT-0600 (Central Standard Time)","Mozilla/5.0 (Windows NT 10.0; Win64; x64) AppleWebKit/537.36 (KHTML, like Gecko) Chrome/86.0.4240.111 Safari/537.36",117,"[0.9, 0.5, 0.1]","[0.8, 0.4, 0.2]","[u'blue', u'red', u'black']","[u'left', u'middle', u'right']","[0.8, 0.4, 0.2]","[u'low', u'high', u'medium']","red",50,"middle","high","True","False",66,6300,NA
"A29KUIEVPK8WB4","Mon Nov 02 2020 06:58:19 GMT-0600 (Central Standard Time)","Mon Nov 02 2020 07:14:58 GMT-0600 (Central Standard Time)","Mozilla/5.0 (Windows NT 10.0; Win64; x64) AppleWebKit/537.36 (KHTML, like Gecko) Chrome/86.0.4240.111 Safari/537.36",118,"[0.9, 0.5, 0.1]","[0.8, 0.4, 0.2]","[u'blue', u'red', u'black']","[u'left', u'middle', u'right']","[0.8, 0.4, 0.2]","[u'low', u'high', u'medium']","red",50,"middle","high","False","False",82,6250,NA
"A29KUIEVPK8WB4","Mon Nov 02 2020 06:58:19 GMT-0600 (Central Standard Time)","Mon Nov 02 2020 07:14:58 GMT-0600 (Central Standard Time)","Mozilla/5.0 (Windows NT 10.0; Win64; x64) AppleWebKit/537.36 (KHTML, like Gecko) Chrome/86.0.4240.111 Safari/537.36",119,"[0.9, 0.5, 0.1]","[0.8, 0.4, 0.2]","[u'blue', u'red', u'black']","[u'left', u'middle', u'right']","[0.8, 0.4, 0.2]","[u'low', u'high', u'medium']","red",50,"middle","high","False","False",27,6200,NA
"A29KUIEVPK8WB4","Mon Nov 02 2020 06:58:19 GMT-0600 (Central Standard Time)","Mon Nov 02 2020 07:14:58 GMT-0600 (Central Standard Time)","Mozilla/5.0 (Windows NT 10.0; Win64; x64) AppleWebKit/537.36 (KHTML, like Gecko) Chrome/86.0.4240.111 Safari/537.36",120,"[0.9, 0.5, 0.1]","[0.8, 0.4, 0.2]","[u'blue', u'red', u'black']","[u'left', u'middle', u'right']","[0.8, 0.4, 0.2]","[u'low', u'high', u'medium']","black",51,"right","medium","False","False",57,6150,NA
"A29KUIEVPK8WB4","Mon Nov 02 2020 06:58:19 GMT-0600 (Central Standard Time)","Mon Nov 02 2020 07:14:58 GMT-0600 (Central Standard Time)","Mozilla/5.0 (Windows NT 10.0; Win64; x64) AppleWebKit/537.36 (KHTML, like Gecko) Chrome/86.0.4240.111 Safari/537.36",121,"[0.9, 0.5, 0.1]","[0.8, 0.4, 0.2]","[u'blue', u'red', u'black']","[u'left', u'middle', u'right']","[0.8, 0.4, 0.2]","[u'low', u'medium', u'high']","blue",49,"left","low","False","False",258,6100,NA
"A29KUIEVPK8WB4","Mon Nov 02 2020 06:58:19 GMT-0600 (Central Standard Time)","Mon Nov 02 2020 07:14:58 GMT-0600 (Central Standard Time)","Mozilla/5.0 (Windows NT 10.0; Win64; x64) AppleWebKit/537.36 (KHTML, like Gecko) Chrome/86.0.4240.111 Safari/537.36",122,"[0.9, 0.5, 0.1]","[0.8, 0.4, 0.2]","[u'blue', u'red', u'black']","[u'left', u'middle', u'right']","[0.8, 0.4, 0.2]","[u'low', u'medium', u'high']","black",51,"right","high","True","False",166,6200,NA
"A29KUIEVPK8WB4","Mon Nov 02 2020 06:58:19 GMT-0600 (Central Standard Time)","Mon Nov 02 2020 07:14:58 GMT-0600 (Central Standard Time)","Mozilla/5.0 (Windows NT 10.0; Win64; x64) AppleWebKit/537.36 (KHTML, like Gecko) Chrome/86.0.4240.111 Safari/537.36",123,"[0.9, 0.5, 0.1]","[0.8, 0.4, 0.2]","[u'blue', u'red', u'black']","[u'left', u'middle', u'right']","[0.8, 0.4, 0.2]","[u'low', u'medium', u'high']","black",51,"right","high","True","False",118,6300,NA
"A29KUIEVPK8WB4","Mon Nov 02 2020 06:58:19 GMT-0600 (Central Standard Time)","Mon Nov 02 2020 07:14:58 GMT-0600 (Central Standard Time)","Mozilla/5.0 (Windows NT 10.0; Win64; x64) AppleWebKit/537.36 (KHTML, like Gecko) Chrome/86.0.4240.111 Safari/537.36",124,"[0.9, 0.5, 0.1]","[0.8, 0.4, 0.2]","[u'blue', u'red', u'black']","[u'left', u'middle', u'right']","[0.8, 0.4, 0.2]","[u'low', u'medium', u'high']","black",51,"right","high","True","False",190,6400,NA
"A29KUIEVPK8WB4","Mon Nov 02 2020 06:58:19 GMT-0600 (Central Standard Time)","Mon Nov 02 2020 07:14:58 GMT-0600 (Central Standard Time)","Mozilla/5.0 (Windows NT 10.0; Win64; x64) AppleWebKit/537.36 (KHTML, like Gecko) Chrome/86.0.4240.111 Safari/537.36",125,"[0.9, 0.5, 0.1]","[0.8, 0.4, 0.2]","[u'blue', u'red', u'black']","[u'left', u'middle', u'right']","[0.8, 0.4, 0.2]","[u'low', u'medium', u'high']","black",51,"right","high","False","False",132,6350,NA
"A29KUIEVPK8WB4","Mon Nov 02 2020 06:58:19 GMT-0600 (Central Standard Time)","Mon Nov 02 2020 07:14:58 GMT-0600 (Central Standard Time)","Mozilla/5.0 (Windows NT 10.0; Win64; x64) AppleWebKit/537.36 (KHTML, like Gecko) Chrome/86.0.4240.111 Safari/537.36",126,"[0.9, 0.5, 0.1]","[0.8, 0.4, 0.2]","[u'blue', u'red', u'black']","[u'left', u'middle', u'right']","[0.8, 0.4, 0.2]","[u'low', u'medium', u'high']","black",51,"right","high","True","False",337,6450,NA
"A29KUIEVPK8WB4","Mon Nov 02 2020 06:58:19 GMT-0600 (Central Standard Time)","Mon Nov 02 2020 07:14:58 GMT-0600 (Central Standard Time)","Mozilla/5.0 (Windows NT 10.0; Win64; x64) AppleWebKit/537.36 (KHTML, like Gecko) Chrome/86.0.4240.111 Safari/537.36",127,"[0.9, 0.5, 0.1]","[0.8, 0.4, 0.2]","[u'blue', u'red', u'black']","[u'left', u'middle', u'right']","[0.8, 0.4, 0.2]","[u'low', u'medium', u'high']","black",51,"right","high","True","False",183,6550,NA
"A29KUIEVPK8WB4","Mon Nov 02 2020 06:58:19 GMT-0600 (Central Standard Time)","Mon Nov 02 2020 07:14:58 GMT-0600 (Central Standard Time)","Mozilla/5.0 (Windows NT 10.0; Win64; x64) AppleWebKit/537.36 (KHTML, like Gecko) Chrome/86.0.4240.111 Safari/537.36",128,"[0.9, 0.5, 0.1]","[0.8, 0.4, 0.2]","[u'blue', u'red', u'black']","[u'left', u'middle', u'right']","[0.8, 0.4, 0.2]","[u'low', u'medium', u'high']","black",51,"right","high","True","False",183,6650,NA
"A29KUIEVPK8WB4","Mon Nov 02 2020 06:58:19 GMT-0600 (Central Standard Time)","Mon Nov 02 2020 07:14:58 GMT-0600 (Central Standard Time)","Mozilla/5.0 (Windows NT 10.0; Win64; x64) AppleWebKit/537.36 (KHTML, like Gecko) Chrome/86.0.4240.111 Safari/537.36",129,"[0.9, 0.5, 0.1]","[0.8, 0.4, 0.2]","[u'blue', u'red', u'black']","[u'left', u'middle', u'right']","[0.8, 0.4, 0.2]","[u'low', u'medium', u'high']","black",51,"right","high","True","False",243,6750,NA
"A29KUIEVPK8WB4","Mon Nov 02 2020 06:58:19 GMT-0600 (Central Standard Time)","Mon Nov 02 2020 07:14:58 GMT-0600 (Central Standard Time)","Mozilla/5.0 (Windows NT 10.0; Win64; x64) AppleWebKit/537.36 (KHTML, like Gecko) Chrome/86.0.4240.111 Safari/537.36",130,"[0.9, 0.5, 0.1]","[0.8, 0.4, 0.2]","[u'blue', u'red', u'black']","[u'left', u'middle', u'right']","[0.8, 0.4, 0.2]","[u'low', u'medium', u'high']","black",51,"right","high","True","True",240,6850,NA
"A29KUIEVPK8WB4","Mon Nov 02 2020 06:58:19 GMT-0600 (Central Standard Time)","Mon Nov 02 2020 07:14:58 GMT-0600 (Central Standard Time)","Mozilla/5.0 (Windows NT 10.0; Win64; x64) AppleWebKit/537.36 (KHTML, like Gecko) Chrome/86.0.4240.111 Safari/537.36",131,"[0.9, 0.5, 0.1]","[0.8, 0.4, 0.2]","[u'blue', u'red', u'black']","[u'left', u'middle', u'right']","[0.8, 0.4, 0.2]","[u'high', u'medium', u'low']","black",51,"right","low","False","False",162,6800,NA
"A29KUIEVPK8WB4","Mon Nov 02 2020 06:58:19 GMT-0600 (Central Standard Time)","Mon Nov 02 2020 07:14:58 GMT-0600 (Central Standard Time)","Mozilla/5.0 (Windows NT 10.0; Win64; x64) AppleWebKit/537.36 (KHTML, like Gecko) Chrome/86.0.4240.111 Safari/537.36",132,"[0.9, 0.5, 0.1]","[0.8, 0.4, 0.2]","[u'blue', u'red', u'black']","[u'left', u'middle', u'right']","[0.8, 0.4, 0.2]","[u'high', u'medium', u'low']","red",50,"middle","medium","False","False",38,6750,NA
"A29KUIEVPK8WB4","Mon Nov 02 2020 06:58:19 GMT-0600 (Central Standard Time)","Mon Nov 02 2020 07:14:58 GMT-0600 (Central Standard Time)","Mozilla/5.0 (Windows NT 10.0; Win64; x64) AppleWebKit/537.36 (KHTML, like Gecko) Chrome/86.0.4240.111 Safari/537.36",133,"[0.9, 0.5, 0.1]","[0.8, 0.4, 0.2]","[u'blue', u'red', u'black']","[u'left', u'middle', u'right']","[0.8, 0.4, 0.2]","[u'high', u'medium', u'low']","blue",49,"left","high","True","False",74,6850,NA
"A29KUIEVPK8WB4","Mon Nov 02 2020 06:58:19 GMT-0600 (Central Standard Time)","Mon Nov 02 2020 07:14:58 GMT-0600 (Central Standard Time)","Mozilla/5.0 (Windows NT 10.0; Win64; x64) AppleWebKit/537.36 (KHTML, like Gecko) Chrome/86.0.4240.111 Safari/537.36",134,"[0.9, 0.5, 0.1]","[0.8, 0.4, 0.2]","[u'blue', u'red', u'black']","[u'left', u'middle', u'right']","[0.8, 0.4, 0.2]","[u'high', u'medium', u'low']","blue",49,"left","high","False","False",204,6800,NA
"A29KUIEVPK8WB4","Mon Nov 02 2020 06:58:19 GMT-0600 (Central Standard Time)","Mon Nov 02 2020 07:14:58 GMT-0600 (Central Standard Time)","Mozilla/5.0 (Windows NT 10.0; Win64; x64) AppleWebKit/537.36 (KHTML, like Gecko) Chrome/86.0.4240.111 Safari/537.36",135,"[0.9, 0.5, 0.1]","[0.8, 0.4, 0.2]","[u'blue', u'red', u'black']","[u'left', u'middle', u'right']","[0.8, 0.4, 0.2]","[u'high', u'medium', u'low']","blue",49,"left","high","True","False",129,6900,NA
"A29KUIEVPK8WB4","Mon Nov 02 2020 06:58:19 GMT-0600 (Central Standard Time)","Mon Nov 02 2020 07:14:58 GMT-0600 (Central Standard Time)","Mozilla/5.0 (Windows NT 10.0; Win64; x64) AppleWebKit/537.36 (KHTML, like Gecko) Chrome/86.0.4240.111 Safari/537.36",136,"[0.9, 0.5, 0.1]","[0.8, 0.4, 0.2]","[u'blue', u'red', u'black']","[u'left', u'middle', u'right']","[0.8, 0.4, 0.2]","[u'high', u'medium', u'low']","blue",49,"left","high","True","False",180,7000,NA
"A29KUIEVPK8WB4","Mon Nov 02 2020 06:58:19 GMT-0600 (Central Standard Time)","Mon Nov 02 2020 07:14:58 GMT-0600 (Central Standard Time)","Mozilla/5.0 (Windows NT 10.0; Win64; x64) AppleWebKit/537.36 (KHTML, like Gecko) Chrome/86.0.4240.111 Safari/537.36",137,"[0.9, 0.5, 0.1]","[0.8, 0.4, 0.2]","[u'blue', u'red', u'black']","[u'left', u'middle', u'right']","[0.8, 0.4, 0.2]","[u'high', u'medium', u'low']","blue",49,"left","high","True","False",217,7100,NA
"A29KUIEVPK8WB4","Mon Nov 02 2020 06:58:19 GMT-0600 (Central Standard Time)","Mon Nov 02 2020 07:14:58 GMT-0600 (Central Standard Time)","Mozilla/5.0 (Windows NT 10.0; Win64; x64) AppleWebKit/537.36 (KHTML, like Gecko) Chrome/86.0.4240.111 Safari/537.36",138,"[0.9, 0.5, 0.1]","[0.8, 0.4, 0.2]","[u'blue', u'red', u'black']","[u'left', u'middle', u'right']","[0.8, 0.4, 0.2]","[u'high', u'medium', u'low']","blue",49,"left","high","True","False",229,7200,NA
"A29KUIEVPK8WB4","Mon Nov 02 2020 06:58:19 GMT-0600 (Central Standard Time)","Mon Nov 02 2020 07:14:58 GMT-0600 (Central Standard Time)","Mozilla/5.0 (Windows NT 10.0; Win64; x64) AppleWebKit/537.36 (KHTML, like Gecko) Chrome/86.0.4240.111 Safari/537.36",139,"[0.9, 0.5, 0.1]","[0.8, 0.4, 0.2]","[u'blue', u'red', u'black']","[u'left', u'middle', u'right']","[0.8, 0.4, 0.2]","[u'high', u'medium', u'low']","blue",49,"left","high","False","False",155,7150,NA
"A29KUIEVPK8WB4","Mon Nov 02 2020 06:58:19 GMT-0600 (Central Standard Time)","Mon Nov 02 2020 07:14:58 GMT-0600 (Central Standard Time)","Mozilla/5.0 (Windows NT 10.0; Win64; x64) AppleWebKit/537.36 (KHTML, like Gecko) Chrome/86.0.4240.111 Safari/537.36",140,"[0.9, 0.5, 0.1]","[0.8, 0.4, 0.2]","[u'blue', u'red', u'black']","[u'left', u'middle', u'right']","[0.8, 0.4, 0.2]","[u'high', u'medium', u'low']","red",50,"middle","medium","False","False",184,7100,NA
"A29KUIEVPK8WB4","Mon Nov 02 2020 06:58:19 GMT-0600 (Central Standard Time)","Mon Nov 02 2020 07:14:58 GMT-0600 (Central Standard Time)","Mozilla/5.0 (Windows NT 10.0; Win64; x64) AppleWebKit/537.36 (KHTML, like Gecko) Chrome/86.0.4240.111 Safari/537.36",141,"[0.9, 0.5, 0.1]","[0.8, 0.4, 0.2]","[u'blue', u'red', u'black']","[u'left', u'middle', u'right']","[0.8, 0.4, 0.2]","[u'high', u'medium', u'low']","black",51,"right","low","False","False",28,7050,NA
"A29KUIEVPK8WB4","Mon Nov 02 2020 06:58:19 GMT-0600 (Central Standard Time)","Mon Nov 02 2020 07:14:58 GMT-0600 (Central Standard Time)","Mozilla/5.0 (Windows NT 10.0; Win64; x64) AppleWebKit/537.36 (KHTML, like Gecko) Chrome/86.0.4240.111 Safari/537.36",142,"[0.9, 0.5, 0.1]","[0.8, 0.4, 0.2]","[u'blue', u'red', u'black']","[u'left', u'middle', u'right']","[0.8, 0.4, 0.2]","[u'high', u'medium', u'low']","blue",49,"left","high","True","False",294,7150,NA
"A29KUIEVPK8WB4","Mon Nov 02 2020 06:58:19 GMT-0600 (Central Standard Time)","Mon Nov 02 2020 07:14:58 GMT-0600 (Central Standard Time)","Mozilla/5.0 (Windows NT 10.0; Win64; x64) AppleWebKit/537.36 (KHTML, like Gecko) Chrome/86.0.4240.111 Safari/537.36",143,"[0.9, 0.5, 0.1]","[0.8, 0.4, 0.2]","[u'blue', u'red', u'black']","[u'left', u'middle', u'right']","[0.8, 0.4, 0.2]","[u'high', u'medium', u'low']","blue",49,"left","high","True","False",197,7250,NA
"A29KUIEVPK8WB4","Mon Nov 02 2020 06:58:19 GMT-0600 (Central Standard Time)","Mon Nov 02 2020 07:14:58 GMT-0600 (Central Standard Time)","Mozilla/5.0 (Windows NT 10.0; Win64; x64) AppleWebKit/537.36 (KHTML, like Gecko) Chrome/86.0.4240.111 Safari/537.36",144,"[0.9, 0.5, 0.1]","[0.8, 0.4, 0.2]","[u'blue', u'red', u'black']","[u'left', u'middle', u'right']","[0.8, 0.4, 0.2]","[u'high', u'medium', u'low']","blue",49,"left","high","True","False",284,7350,NA
"A29KUIEVPK8WB4","Mon Nov 02 2020 06:58:19 GMT-0600 (Central Standard Time)","Mon Nov 02 2020 07:14:58 GMT-0600 (Central Standard Time)","Mozilla/5.0 (Windows NT 10.0; Win64; x64) AppleWebKit/537.36 (KHTML, like Gecko) Chrome/86.0.4240.111 Safari/537.36",145,"[0.9, 0.5, 0.1]","[0.8, 0.4, 0.2]","[u'blue', u'red', u'black']","[u'left', u'middle', u'right']","[0.8, 0.4, 0.2]","[u'high', u'medium', u'low']","blue",49,"left","high","True","False",269,7450,NA
"A29KUIEVPK8WB4","Mon Nov 02 2020 06:58:19 GMT-0600 (Central Standard Time)","Mon Nov 02 2020 07:14:58 GMT-0600 (Central Standard Time)","Mozilla/5.0 (Windows NT 10.0; Win64; x64) AppleWebKit/537.36 (KHTML, like Gecko) Chrome/86.0.4240.111 Safari/537.36",146,"[0.9, 0.5, 0.1]","[0.8, 0.4, 0.2]","[u'blue', u'red', u'black']","[u'left', u'middle', u'right']","[0.8, 0.4, 0.2]","[u'high', u'medium', u'low']","blue",49,"left","high","False","False",269,7400,NA
"A29KUIEVPK8WB4","Mon Nov 02 2020 06:58:19 GMT-0600 (Central Standard Time)","Mon Nov 02 2020 07:14:58 GMT-0600 (Central Standard Time)","Mozilla/5.0 (Windows NT 10.0; Win64; x64) AppleWebKit/537.36 (KHTML, like Gecko) Chrome/86.0.4240.111 Safari/537.36",147,"[0.9, 0.5, 0.1]","[0.8, 0.4, 0.2]","[u'blue', u'red', u'black']","[u'left', u'middle', u'right']","[0.8, 0.4, 0.2]","[u'high', u'medium', u'low']","blue",49,"left","high","False","False",123,7350,NA
"A29KUIEVPK8WB4","Mon Nov 02 2020 06:58:19 GMT-0600 (Central Standard Time)","Mon Nov 02 2020 07:14:58 GMT-0600 (Central Standard Time)","Mozilla/5.0 (Windows NT 10.0; Win64; x64) AppleWebKit/537.36 (KHTML, like Gecko) Chrome/86.0.4240.111 Safari/537.36",148,"[0.9, 0.5, 0.1]","[0.8, 0.4, 0.2]","[u'blue', u'red', u'black']","[u'left', u'middle', u'right']","[0.8, 0.4, 0.2]","[u'high', u'medium', u'low']","red",50,"middle","medium","False","False",144,7300,NA
"A29KUIEVPK8WB4","Mon Nov 02 2020 06:58:19 GMT-0600 (Central Standard Time)","Mon Nov 02 2020 07:14:58 GMT-0600 (Central Standard Time)","Mozilla/5.0 (Windows NT 10.0; Win64; x64) AppleWebKit/537.36 (KHTML, like Gecko) Chrome/86.0.4240.111 Safari/537.36",149,"[0.9, 0.5, 0.1]","[0.8, 0.4, 0.2]","[u'blue', u'red', u'black']","[u'left', u'middle', u'right']","[0.8, 0.4, 0.2]","[u'high', u'medium', u'low']","black",51,"right","low","False","False",193,7250,NA
"A29KUIEVPK8WB4","Mon Nov 02 2020 06:58:19 GMT-0600 (Central Standard Time)","Mon Nov 02 2020 07:14:58 GMT-0600 (Central Standard Time)","Mozilla/5.0 (Windows NT 10.0; Win64; x64) AppleWebKit/537.36 (KHTML, like Gecko) Chrome/86.0.4240.111 Safari/537.36",150,"[0.9, 0.5, 0.1]","[0.8, 0.4, 0.2]","[u'blue', u'red', u'black']","[u'left', u'middle', u'right']","[0.8, 0.4, 0.2]","[u'high', u'medium', u'low']","black",51,"right","low","False","False",130,7200,NA
"A29KUIEVPK8WB4","Mon Nov 02 2020 06:58:19 GMT-0600 (Central Standard Time)","Mon Nov 02 2020 07:14:58 GMT-0600 (Central Standard Time)","Mozilla/5.0 (Windows NT 10.0; Win64; x64) AppleWebKit/537.36 (KHTML, like Gecko) Chrome/86.0.4240.111 Safari/537.36",151,"[0.9, 0.5, 0.1]","[0.8, 0.4, 0.2]","[u'blue', u'red', u'black']","[u'left', u'middle', u'right']","[0.8, 0.4, 0.2]","[u'high', u'medium', u'low']","blue",49,"left","high","True","False",273,7300,NA
"A29KUIEVPK8WB4","Mon Nov 02 2020 06:58:19 GMT-0600 (Central Standard Time)","Mon Nov 02 2020 07:14:58 GMT-0600 (Central Standard Time)","Mozilla/5.0 (Windows NT 10.0; Win64; x64) AppleWebKit/537.36 (KHTML, like Gecko) Chrome/86.0.4240.111 Safari/537.36",152,"[0.9, 0.5, 0.1]","[0.8, 0.4, 0.2]","[u'blue', u'red', u'black']","[u'left', u'middle', u'right']","[0.8, 0.4, 0.2]","[u'high', u'medium', u'low']","blue",49,"left","high","True","False",255,7400,NA
"A29KUIEVPK8WB4","Mon Nov 02 2020 06:58:19 GMT-0600 (Central Standard Time)","Mon Nov 02 2020 07:14:58 GMT-0600 (Central Standard Time)","Mozilla/5.0 (Windows NT 10.0; Win64; x64) AppleWebKit/537.36 (KHTML, like Gecko) Chrome/86.0.4240.111 Safari/537.36",153,"[0.9, 0.5, 0.1]","[0.8, 0.4, 0.2]","[u'blue', u'red', u'black']","[u'left', u'middle', u'right']","[0.8, 0.4, 0.2]","[u'high', u'medium', u'low']","blue",49,"left","high","True","False",177,7500,NA
"A29KUIEVPK8WB4","Mon Nov 02 2020 06:58:19 GMT-0600 (Central Standard Time)","Mon Nov 02 2020 07:14:58 GMT-0600 (Central Standard Time)","Mozilla/5.0 (Windows NT 10.0; Win64; x64) AppleWebKit/537.36 (KHTML, like Gecko) Chrome/86.0.4240.111 Safari/537.36",154,"[0.9, 0.5, 0.1]","[0.8, 0.4, 0.2]","[u'blue', u'red', u'black']","[u'left', u'middle', u'right']","[0.8, 0.4, 0.2]","[u'high', u'medium', u'low']","blue",49,"left","high","True","False",246,7600,NA
"A29KUIEVPK8WB4","Mon Nov 02 2020 06:58:19 GMT-0600 (Central Standard Time)","Mon Nov 02 2020 07:14:58 GMT-0600 (Central Standard Time)","Mozilla/5.0 (Windows NT 10.0; Win64; x64) AppleWebKit/537.36 (KHTML, like Gecko) Chrome/86.0.4240.111 Safari/537.36",155,"[0.9, 0.5, 0.1]","[0.8, 0.4, 0.2]","[u'blue', u'red', u'black']","[u'left', u'middle', u'right']","[0.8, 0.4, 0.2]","[u'high', u'medium', u'low']","blue",49,"left","high","True","False",356,7700,NA
"A29KUIEVPK8WB4","Mon Nov 02 2020 06:58:19 GMT-0600 (Central Standard Time)","Mon Nov 02 2020 07:14:58 GMT-0600 (Central Standard Time)","Mozilla/5.0 (Windows NT 10.0; Win64; x64) AppleWebKit/537.36 (KHTML, like Gecko) Chrome/86.0.4240.111 Safari/537.36",156,"[0.9, 0.5, 0.1]","[0.8, 0.4, 0.2]","[u'blue', u'red', u'black']","[u'left', u'middle', u'right']","[0.8, 0.4, 0.2]","[u'high', u'medium', u'low']","blue",49,"left","high","False","False",252,7650,NA
"A29KUIEVPK8WB4","Mon Nov 02 2020 06:58:19 GMT-0600 (Central Standard Time)","Mon Nov 02 2020 07:14:58 GMT-0600 (Central Standard Time)","Mozilla/5.0 (Windows NT 10.0; Win64; x64) AppleWebKit/537.36 (KHTML, like Gecko) Chrome/86.0.4240.111 Safari/537.36",157,"[0.9, 0.5, 0.1]","[0.8, 0.4, 0.2]","[u'blue', u'red', u'black']","[u'left', u'middle', u'right']","[0.8, 0.4, 0.2]","[u'high', u'medium', u'low']","blue",49,"left","high","True","False",86,7750,NA
"A29KUIEVPK8WB4","Mon Nov 02 2020 06:58:19 GMT-0600 (Central Standard Time)","Mon Nov 02 2020 07:14:58 GMT-0600 (Central Standard Time)","Mozilla/5.0 (Windows NT 10.0; Win64; x64) AppleWebKit/537.36 (KHTML, like Gecko) Chrome/86.0.4240.111 Safari/537.36",158,"[0.9, 0.5, 0.1]","[0.8, 0.4, 0.2]","[u'blue', u'red', u'black']","[u'left', u'middle', u'right']","[0.8, 0.4, 0.2]","[u'high', u'medium', u'low']","blue",49,"left","high","True","False",279,7850,NA
"A29KUIEVPK8WB4","Mon Nov 02 2020 06:58:19 GMT-0600 (Central Standard Time)","Mon Nov 02 2020 07:14:58 GMT-0600 (Central Standard Time)","Mozilla/5.0 (Windows NT 10.0; Win64; x64) AppleWebKit/537.36 (KHTML, like Gecko) Chrome/86.0.4240.111 Safari/537.36",159,"[0.9, 0.5, 0.1]","[0.8, 0.4, 0.2]","[u'blue', u'red', u'black']","[u'left', u'middle', u'right']","[0.8, 0.4, 0.2]","[u'high', u'medium', u'low']","blue",49,"left","high","True","True",243,7950,NA
"A29KUIEVPK8WB4","Mon Nov 02 2020 06:58:19 GMT-0600 (Central Standard Time)","Mon Nov 02 2020 07:14:58 GMT-0600 (Central Standard Time)","Mozilla/5.0 (Windows NT 10.0; Win64; x64) AppleWebKit/537.36 (KHTML, like Gecko) Chrome/86.0.4240.111 Safari/537.36",160,"[0.9, 0.5, 0.1]","[0.8, 0.4, 0.2]","[u'blue', u'red', u'black']","[u'left', u'middle', u'right']","[0.8, 0.4, 0.2]","[u'medium', u'high', u'low']","blue",49,"left","medium","False","False",299,7900,NA
