"src_subject_id","start_time","end_time","browser","index","first_half_probabilities","second_half_probabilities","deck_color","deck_position","deck_probabilities","deck_contingencies","response_color","key_press","response_position","response_probability","reward_type","trial_type","rt","reward_tally","exclusion_reason"
"A2XHNHSBAHOGHZ","Mon Nov 02 2020 04:57:06 GMT-0800 (Pacific Standard Time)","Mon Nov 02 2020 05:11:16 GMT-0800 (Pacific Standard Time)","Mozilla/5.0 (Windows NT 10.0; Win64; x64) AppleWebKit/537.36 (KHTML, like Gecko) Chrome/86.0.4240.111 Safari/537.36",1,"[0.9, 0.5, 0.1]","[0.8, 0.4, 0.2]","[u'black', u'blue', u'red']","[u'left', u'middle', u'right']","[0.9, 0.5, 0.1]","[u'medium', u'low', u'high']","red",51,"right","high","True","False",480,100,NA
"A2XHNHSBAHOGHZ","Mon Nov 02 2020 04:57:06 GMT-0800 (Pacific Standard Time)","Mon Nov 02 2020 05:11:16 GMT-0800 (Pacific Standard Time)","Mozilla/5.0 (Windows NT 10.0; Win64; x64) AppleWebKit/537.36 (KHTML, like Gecko) Chrome/86.0.4240.111 Safari/537.36",2,"[0.9, 0.5, 0.1]","[0.8, 0.4, 0.2]","[u'black', u'blue', u'red']","[u'left', u'middle', u'right']","[0.9, 0.5, 0.1]","[u'medium', u'low', u'high']","red",51,"right","high","True","False",372,200,NA
"A2XHNHSBAHOGHZ","Mon Nov 02 2020 04:57:06 GMT-0800 (Pacific Standard Time)","Mon Nov 02 2020 05:11:16 GMT-0800 (Pacific Standard Time)","Mozilla/5.0 (Windows NT 10.0; Win64; x64) AppleWebKit/537.36 (KHTML, like Gecko) Chrome/86.0.4240.111 Safari/537.36",3,"[0.9, 0.5, 0.1]","[0.8, 0.4, 0.2]","[u'black', u'blue', u'red']","[u'left', u'middle', u'right']","[0.9, 0.5, 0.1]","[u'medium', u'low', u'high']","blue",50,"middle","low","False","False",284,150,NA
"A2XHNHSBAHOGHZ","Mon Nov 02 2020 04:57:06 GMT-0800 (Pacific Standard Time)","Mon Nov 02 2020 05:11:16 GMT-0800 (Pacific Standard Time)","Mozilla/5.0 (Windows NT 10.0; Win64; x64) AppleWebKit/537.36 (KHTML, like Gecko) Chrome/86.0.4240.111 Safari/537.36",4,"[0.9, 0.5, 0.1]","[0.8, 0.4, 0.2]","[u'black', u'blue', u'red']","[u'left', u'middle', u'right']","[0.9, 0.5, 0.1]","[u'medium', u'low', u'high']","red",51,"right","high","False","False",343,100,NA
"A2XHNHSBAHOGHZ","Mon Nov 02 2020 04:57:06 GMT-0800 (Pacific Standard Time)","Mon Nov 02 2020 05:11:16 GMT-0800 (Pacific Standard Time)","Mozilla/5.0 (Windows NT 10.0; Win64; x64) AppleWebKit/537.36 (KHTML, like Gecko) Chrome/86.0.4240.111 Safari/537.36",5,"[0.9, 0.5, 0.1]","[0.8, 0.4, 0.2]","[u'black', u'blue', u'red']","[u'left', u'middle', u'right']","[0.9, 0.5, 0.1]","[u'medium', u'low', u'high']","black",49,"left","medium","True","False",308,200,NA
"A2XHNHSBAHOGHZ","Mon Nov 02 2020 04:57:06 GMT-0800 (Pacific Standard Time)","Mon Nov 02 2020 05:11:16 GMT-0800 (Pacific Standard Time)","Mozilla/5.0 (Windows NT 10.0; Win64; x64) AppleWebKit/537.36 (KHTML, like Gecko) Chrome/86.0.4240.111 Safari/537.36",6,"[0.9, 0.5, 0.1]","[0.8, 0.4, 0.2]","[u'black', u'blue', u'red']","[u'left', u'middle', u'right']","[0.9, 0.5, 0.1]","[u'medium', u'low', u'high']","black",49,"left","medium","False","False",373,150,NA
"A2XHNHSBAHOGHZ","Mon Nov 02 2020 04:57:06 GMT-0800 (Pacific Standard Time)","Mon Nov 02 2020 05:11:16 GMT-0800 (Pacific Standard Time)","Mozilla/5.0 (Windows NT 10.0; Win64; x64) AppleWebKit/537.36 (KHTML, like Gecko) Chrome/86.0.4240.111 Safari/537.36",7,"[0.9, 0.5, 0.1]","[0.8, 0.4, 0.2]","[u'black', u'blue', u'red']","[u'left', u'middle', u'right']","[0.9, 0.5, 0.1]","[u'medium', u'low', u'high']","blue",50,"middle","low","False","False",251,100,NA
"A2XHNHSBAHOGHZ","Mon Nov 02 2020 04:57:06 GMT-0800 (Pacific Standard Time)","Mon Nov 02 2020 05:11:16 GMT-0800 (Pacific Standard Time)","Mozilla/5.0 (Windows NT 10.0; Win64; x64) AppleWebKit/537.36 (KHTML, like Gecko) Chrome/86.0.4240.111 Safari/537.36",8,"[0.9, 0.5, 0.1]","[0.8, 0.4, 0.2]","[u'black', u'blue', u'red']","[u'left', u'middle', u'right']","[0.9, 0.5, 0.1]","[u'medium', u'low', u'high']","red",51,"right","high","True","False",330,200,NA
"A2XHNHSBAHOGHZ","Mon Nov 02 2020 04:57:06 GMT-0800 (Pacific Standard Time)","Mon Nov 02 2020 05:11:16 GMT-0800 (Pacific Standard Time)","Mozilla/5.0 (Windows NT 10.0; Win64; x64) AppleWebKit/537.36 (KHTML, like Gecko) Chrome/86.0.4240.111 Safari/537.36",9,"[0.9, 0.5, 0.1]","[0.8, 0.4, 0.2]","[u'black', u'blue', u'red']","[u'left', u'middle', u'right']","[0.9, 0.5, 0.1]","[u'medium', u'low', u'high']","red",51,"right","high","True","False",455,300,NA
"A2XHNHSBAHOGHZ","Mon Nov 02 2020 04:57:06 GMT-0800 (Pacific Standard Time)","Mon Nov 02 2020 05:11:16 GMT-0800 (Pacific Standard Time)","Mozilla/5.0 (Windows NT 10.0; Win64; x64) AppleWebKit/537.36 (KHTML, like Gecko) Chrome/86.0.4240.111 Safari/537.36",10,"[0.9, 0.5, 0.1]","[0.8, 0.4, 0.2]","[u'black', u'blue', u'red']","[u'left', u'middle', u'right']","[0.9, 0.5, 0.1]","[u'medium', u'low', u'high']","red",51,"right","high","True","False",278,400,NA
"A2XHNHSBAHOGHZ","Mon Nov 02 2020 04:57:06 GMT-0800 (Pacific Standard Time)","Mon Nov 02 2020 05:11:16 GMT-0800 (Pacific Standard Time)","Mozilla/5.0 (Windows NT 10.0; Win64; x64) AppleWebKit/537.36 (KHTML, like Gecko) Chrome/86.0.4240.111 Safari/537.36",11,"[0.9, 0.5, 0.1]","[0.8, 0.4, 0.2]","[u'black', u'blue', u'red']","[u'left', u'middle', u'right']","[0.9, 0.5, 0.1]","[u'medium', u'low', u'high']","black",49,"left","medium","True","False",288,500,NA
"A2XHNHSBAHOGHZ","Mon Nov 02 2020 04:57:06 GMT-0800 (Pacific Standard Time)","Mon Nov 02 2020 05:11:16 GMT-0800 (Pacific Standard Time)","Mozilla/5.0 (Windows NT 10.0; Win64; x64) AppleWebKit/537.36 (KHTML, like Gecko) Chrome/86.0.4240.111 Safari/537.36",12,"[0.9, 0.5, 0.1]","[0.8, 0.4, 0.2]","[u'black', u'blue', u'red']","[u'left', u'middle', u'right']","[0.9, 0.5, 0.1]","[u'medium', u'low', u'high']","black",49,"left","medium","True","False",385,600,NA
"A2XHNHSBAHOGHZ","Mon Nov 02 2020 04:57:06 GMT-0800 (Pacific Standard Time)","Mon Nov 02 2020 05:11:16 GMT-0800 (Pacific Standard Time)","Mozilla/5.0 (Windows NT 10.0; Win64; x64) AppleWebKit/537.36 (KHTML, like Gecko) Chrome/86.0.4240.111 Safari/537.36",13,"[0.9, 0.5, 0.1]","[0.8, 0.4, 0.2]","[u'black', u'blue', u'red']","[u'left', u'middle', u'right']","[0.9, 0.5, 0.1]","[u'medium', u'low', u'high']","black",49,"left","medium","False","False",259,550,NA
"A2XHNHSBAHOGHZ","Mon Nov 02 2020 04:57:06 GMT-0800 (Pacific Standard Time)","Mon Nov 02 2020 05:11:16 GMT-0800 (Pacific Standard Time)","Mozilla/5.0 (Windows NT 10.0; Win64; x64) AppleWebKit/537.36 (KHTML, like Gecko) Chrome/86.0.4240.111 Safari/537.36",14,"[0.9, 0.5, 0.1]","[0.8, 0.4, 0.2]","[u'black', u'blue', u'red']","[u'left', u'middle', u'right']","[0.9, 0.5, 0.1]","[u'medium', u'low', u'high']","blue",50,"middle","low","False","False",152,500,NA
"A2XHNHSBAHOGHZ","Mon Nov 02 2020 04:57:06 GMT-0800 (Pacific Standard Time)","Mon Nov 02 2020 05:11:16 GMT-0800 (Pacific Standard Time)","Mozilla/5.0 (Windows NT 10.0; Win64; x64) AppleWebKit/537.36 (KHTML, like Gecko) Chrome/86.0.4240.111 Safari/537.36",15,"[0.9, 0.5, 0.1]","[0.8, 0.4, 0.2]","[u'black', u'blue', u'red']","[u'left', u'middle', u'right']","[0.9, 0.5, 0.1]","[u'medium', u'low', u'high']","red",51,"right","high","True","False",618,600,NA
"A2XHNHSBAHOGHZ","Mon Nov 02 2020 04:57:06 GMT-0800 (Pacific Standard Time)","Mon Nov 02 2020 05:11:16 GMT-0800 (Pacific Standard Time)","Mozilla/5.0 (Windows NT 10.0; Win64; x64) AppleWebKit/537.36 (KHTML, like Gecko) Chrome/86.0.4240.111 Safari/537.36",16,"[0.9, 0.5, 0.1]","[0.8, 0.4, 0.2]","[u'black', u'blue', u'red']","[u'left', u'middle', u'right']","[0.9, 0.5, 0.1]","[u'medium', u'low', u'high']","red",51,"right","high","True","False",925,700,NA
"A2XHNHSBAHOGHZ","Mon Nov 02 2020 04:57:06 GMT-0800 (Pacific Standard Time)","Mon Nov 02 2020 05:11:16 GMT-0800 (Pacific Standard Time)","Mozilla/5.0 (Windows NT 10.0; Win64; x64) AppleWebKit/537.36 (KHTML, like Gecko) Chrome/86.0.4240.111 Safari/537.36",17,"[0.9, 0.5, 0.1]","[0.8, 0.4, 0.2]","[u'black', u'blue', u'red']","[u'left', u'middle', u'right']","[0.9, 0.5, 0.1]","[u'medium', u'low', u'high']","red",51,"right","high","True","False",569,800,NA
"A2XHNHSBAHOGHZ","Mon Nov 02 2020 04:57:06 GMT-0800 (Pacific Standard Time)","Mon Nov 02 2020 05:11:16 GMT-0800 (Pacific Standard Time)","Mozilla/5.0 (Windows NT 10.0; Win64; x64) AppleWebKit/537.36 (KHTML, like Gecko) Chrome/86.0.4240.111 Safari/537.36",18,"[0.9, 0.5, 0.1]","[0.8, 0.4, 0.2]","[u'black', u'blue', u'red']","[u'left', u'middle', u'right']","[0.9, 0.5, 0.1]","[u'medium', u'low', u'high']","blue",50,"middle","low","False","False",1052,750,NA
"A2XHNHSBAHOGHZ","Mon Nov 02 2020 04:57:06 GMT-0800 (Pacific Standard Time)","Mon Nov 02 2020 05:11:16 GMT-0800 (Pacific Standard Time)","Mozilla/5.0 (Windows NT 10.0; Win64; x64) AppleWebKit/537.36 (KHTML, like Gecko) Chrome/86.0.4240.111 Safari/537.36",19,"[0.9, 0.5, 0.1]","[0.8, 0.4, 0.2]","[u'black', u'blue', u'red']","[u'left', u'middle', u'right']","[0.9, 0.5, 0.1]","[u'medium', u'low', u'high']","black",49,"left","medium","True","False",217,850,NA
"A2XHNHSBAHOGHZ","Mon Nov 02 2020 04:57:06 GMT-0800 (Pacific Standard Time)","Mon Nov 02 2020 05:11:16 GMT-0800 (Pacific Standard Time)","Mozilla/5.0 (Windows NT 10.0; Win64; x64) AppleWebKit/537.36 (KHTML, like Gecko) Chrome/86.0.4240.111 Safari/537.36",20,"[0.9, 0.5, 0.1]","[0.8, 0.4, 0.2]","[u'black', u'blue', u'red']","[u'left', u'middle', u'right']","[0.9, 0.5, 0.1]","[u'medium', u'low', u'high']","black",49,"left","medium","False","False",314,800,NA
"A2XHNHSBAHOGHZ","Mon Nov 02 2020 04:57:06 GMT-0800 (Pacific Standard Time)","Mon Nov 02 2020 05:11:16 GMT-0800 (Pacific Standard Time)","Mozilla/5.0 (Windows NT 10.0; Win64; x64) AppleWebKit/537.36 (KHTML, like Gecko) Chrome/86.0.4240.111 Safari/537.36",21,"[0.9, 0.5, 0.1]","[0.8, 0.4, 0.2]","[u'black', u'blue', u'red']","[u'left', u'middle', u'right']","[0.9, 0.5, 0.1]","[u'medium', u'low', u'high']","blue",50,"middle","low","False","False",133,750,NA
"A2XHNHSBAHOGHZ","Mon Nov 02 2020 04:57:06 GMT-0800 (Pacific Standard Time)","Mon Nov 02 2020 05:11:16 GMT-0800 (Pacific Standard Time)","Mozilla/5.0 (Windows NT 10.0; Win64; x64) AppleWebKit/537.36 (KHTML, like Gecko) Chrome/86.0.4240.111 Safari/537.36",22,"[0.9, 0.5, 0.1]","[0.8, 0.4, 0.2]","[u'black', u'blue', u'red']","[u'left', u'middle', u'right']","[0.9, 0.5, 0.1]","[u'medium', u'low', u'high']","red",51,"right","high","True","False",263,850,NA
"A2XHNHSBAHOGHZ","Mon Nov 02 2020 04:57:06 GMT-0800 (Pacific Standard Time)","Mon Nov 02 2020 05:11:16 GMT-0800 (Pacific Standard Time)","Mozilla/5.0 (Windows NT 10.0; Win64; x64) AppleWebKit/537.36 (KHTML, like Gecko) Chrome/86.0.4240.111 Safari/537.36",23,"[0.9, 0.5, 0.1]","[0.8, 0.4, 0.2]","[u'black', u'blue', u'red']","[u'left', u'middle', u'right']","[0.9, 0.5, 0.1]","[u'medium', u'low', u'high']","red",51,"right","high","True","False",542,950,NA
"A2XHNHSBAHOGHZ","Mon Nov 02 2020 04:57:06 GMT-0800 (Pacific Standard Time)","Mon Nov 02 2020 05:11:16 GMT-0800 (Pacific Standard Time)","Mozilla/5.0 (Windows NT 10.0; Win64; x64) AppleWebKit/537.36 (KHTML, like Gecko) Chrome/86.0.4240.111 Safari/537.36",24,"[0.9, 0.5, 0.1]","[0.8, 0.4, 0.2]","[u'black', u'blue', u'red']","[u'left', u'middle', u'right']","[0.9, 0.5, 0.1]","[u'medium', u'low', u'high']","red",51,"right","high","True","False",451,1050,NA
"A2XHNHSBAHOGHZ","Mon Nov 02 2020 04:57:06 GMT-0800 (Pacific Standard Time)","Mon Nov 02 2020 05:11:16 GMT-0800 (Pacific Standard Time)","Mozilla/5.0 (Windows NT 10.0; Win64; x64) AppleWebKit/537.36 (KHTML, like Gecko) Chrome/86.0.4240.111 Safari/537.36",25,"[0.9, 0.5, 0.1]","[0.8, 0.4, 0.2]","[u'black', u'blue', u'red']","[u'left', u'middle', u'right']","[0.9, 0.5, 0.1]","[u'medium', u'low', u'high']","red",51,"right","high","True","False",413,1150,NA
"A2XHNHSBAHOGHZ","Mon Nov 02 2020 04:57:06 GMT-0800 (Pacific Standard Time)","Mon Nov 02 2020 05:11:16 GMT-0800 (Pacific Standard Time)","Mozilla/5.0 (Windows NT 10.0; Win64; x64) AppleWebKit/537.36 (KHTML, like Gecko) Chrome/86.0.4240.111 Safari/537.36",26,"[0.9, 0.5, 0.1]","[0.8, 0.4, 0.2]","[u'black', u'blue', u'red']","[u'left', u'middle', u'right']","[0.9, 0.5, 0.1]","[u'medium', u'low', u'high']","red",51,"right","high","True","False",652,1250,NA
"A2XHNHSBAHOGHZ","Mon Nov 02 2020 04:57:06 GMT-0800 (Pacific Standard Time)","Mon Nov 02 2020 05:11:16 GMT-0800 (Pacific Standard Time)","Mozilla/5.0 (Windows NT 10.0; Win64; x64) AppleWebKit/537.36 (KHTML, like Gecko) Chrome/86.0.4240.111 Safari/537.36",27,"[0.9, 0.5, 0.1]","[0.8, 0.4, 0.2]","[u'black', u'blue', u'red']","[u'left', u'middle', u'right']","[0.9, 0.5, 0.1]","[u'medium', u'low', u'high']","black",49,"left","medium","True","False",183,1350,NA
"A2XHNHSBAHOGHZ","Mon Nov 02 2020 04:57:06 GMT-0800 (Pacific Standard Time)","Mon Nov 02 2020 05:11:16 GMT-0800 (Pacific Standard Time)","Mozilla/5.0 (Windows NT 10.0; Win64; x64) AppleWebKit/537.36 (KHTML, like Gecko) Chrome/86.0.4240.111 Safari/537.36",28,"[0.9, 0.5, 0.1]","[0.8, 0.4, 0.2]","[u'black', u'blue', u'red']","[u'left', u'middle', u'right']","[0.9, 0.5, 0.1]","[u'medium', u'low', u'high']","black",49,"left","medium","False","False",277,1300,NA
"A2XHNHSBAHOGHZ","Mon Nov 02 2020 04:57:06 GMT-0800 (Pacific Standard Time)","Mon Nov 02 2020 05:11:16 GMT-0800 (Pacific Standard Time)","Mozilla/5.0 (Windows NT 10.0; Win64; x64) AppleWebKit/537.36 (KHTML, like Gecko) Chrome/86.0.4240.111 Safari/537.36",29,"[0.9, 0.5, 0.1]","[0.8, 0.4, 0.2]","[u'black', u'blue', u'red']","[u'left', u'middle', u'right']","[0.9, 0.5, 0.1]","[u'medium', u'low', u'high']","blue",50,"middle","low","False","False",387,1250,NA
"A2XHNHSBAHOGHZ","Mon Nov 02 2020 04:57:06 GMT-0800 (Pacific Standard Time)","Mon Nov 02 2020 05:11:16 GMT-0800 (Pacific Standard Time)","Mozilla/5.0 (Windows NT 10.0; Win64; x64) AppleWebKit/537.36 (KHTML, like Gecko) Chrome/86.0.4240.111 Safari/537.36",30,"[0.9, 0.5, 0.1]","[0.8, 0.4, 0.2]","[u'black', u'blue', u'red']","[u'left', u'middle', u'right']","[0.9, 0.5, 0.1]","[u'medium', u'low', u'high']","red",51,"right","high","True","False",512,1350,NA
"A2XHNHSBAHOGHZ","Mon Nov 02 2020 04:57:06 GMT-0800 (Pacific Standard Time)","Mon Nov 02 2020 05:11:16 GMT-0800 (Pacific Standard Time)","Mozilla/5.0 (Windows NT 10.0; Win64; x64) AppleWebKit/537.36 (KHTML, like Gecko) Chrome/86.0.4240.111 Safari/537.36",31,"[0.9, 0.5, 0.1]","[0.8, 0.4, 0.2]","[u'black', u'blue', u'red']","[u'left', u'middle', u'right']","[0.9, 0.5, 0.1]","[u'medium', u'low', u'high']","red",51,"right","high","False","False",518,1300,NA
"A2XHNHSBAHOGHZ","Mon Nov 02 2020 04:57:06 GMT-0800 (Pacific Standard Time)","Mon Nov 02 2020 05:11:16 GMT-0800 (Pacific Standard Time)","Mozilla/5.0 (Windows NT 10.0; Win64; x64) AppleWebKit/537.36 (KHTML, like Gecko) Chrome/86.0.4240.111 Safari/537.36",32,"[0.9, 0.5, 0.1]","[0.8, 0.4, 0.2]","[u'black', u'blue', u'red']","[u'left', u'middle', u'right']","[0.9, 0.5, 0.1]","[u'medium', u'low', u'high']","blue",50,"middle","low","False","False",623,1250,NA
"A2XHNHSBAHOGHZ","Mon Nov 02 2020 04:57:06 GMT-0800 (Pacific Standard Time)","Mon Nov 02 2020 05:11:16 GMT-0800 (Pacific Standard Time)","Mozilla/5.0 (Windows NT 10.0; Win64; x64) AppleWebKit/537.36 (KHTML, like Gecko) Chrome/86.0.4240.111 Safari/537.36",33,"[0.9, 0.5, 0.1]","[0.8, 0.4, 0.2]","[u'black', u'blue', u'red']","[u'left', u'middle', u'right']","[0.9, 0.5, 0.1]","[u'medium', u'low', u'high']","black",49,"left","medium","True","False",1691,1350,NA
"A2XHNHSBAHOGHZ","Mon Nov 02 2020 04:57:06 GMT-0800 (Pacific Standard Time)","Mon Nov 02 2020 05:11:16 GMT-0800 (Pacific Standard Time)","Mozilla/5.0 (Windows NT 10.0; Win64; x64) AppleWebKit/537.36 (KHTML, like Gecko) Chrome/86.0.4240.111 Safari/537.36",34,"[0.9, 0.5, 0.1]","[0.8, 0.4, 0.2]","[u'black', u'blue', u'red']","[u'left', u'middle', u'right']","[0.9, 0.5, 0.1]","[u'medium', u'low', u'high']","black",49,"left","medium","True","False",985,1450,NA
"A2XHNHSBAHOGHZ","Mon Nov 02 2020 04:57:06 GMT-0800 (Pacific Standard Time)","Mon Nov 02 2020 05:11:16 GMT-0800 (Pacific Standard Time)","Mozilla/5.0 (Windows NT 10.0; Win64; x64) AppleWebKit/537.36 (KHTML, like Gecko) Chrome/86.0.4240.111 Safari/537.36",35,"[0.9, 0.5, 0.1]","[0.8, 0.4, 0.2]","[u'black', u'blue', u'red']","[u'left', u'middle', u'right']","[0.9, 0.5, 0.1]","[u'medium', u'low', u'high']","black",49,"left","medium","False","False",334,1400,NA
"A2XHNHSBAHOGHZ","Mon Nov 02 2020 04:57:06 GMT-0800 (Pacific Standard Time)","Mon Nov 02 2020 05:11:16 GMT-0800 (Pacific Standard Time)","Mozilla/5.0 (Windows NT 10.0; Win64; x64) AppleWebKit/537.36 (KHTML, like Gecko) Chrome/86.0.4240.111 Safari/537.36",36,"[0.9, 0.5, 0.1]","[0.8, 0.4, 0.2]","[u'black', u'blue', u'red']","[u'left', u'middle', u'right']","[0.9, 0.5, 0.1]","[u'medium', u'low', u'high']","blue",50,"middle","low","False","False",593,1350,NA
"A2XHNHSBAHOGHZ","Mon Nov 02 2020 04:57:06 GMT-0800 (Pacific Standard Time)","Mon Nov 02 2020 05:11:16 GMT-0800 (Pacific Standard Time)","Mozilla/5.0 (Windows NT 10.0; Win64; x64) AppleWebKit/537.36 (KHTML, like Gecko) Chrome/86.0.4240.111 Safari/537.36",37,"[0.9, 0.5, 0.1]","[0.8, 0.4, 0.2]","[u'black', u'blue', u'red']","[u'left', u'middle', u'right']","[0.9, 0.5, 0.1]","[u'medium', u'low', u'high']","red",51,"right","high","True","False",460,1450,NA
"A2XHNHSBAHOGHZ","Mon Nov 02 2020 04:57:06 GMT-0800 (Pacific Standard Time)","Mon Nov 02 2020 05:11:16 GMT-0800 (Pacific Standard Time)","Mozilla/5.0 (Windows NT 10.0; Win64; x64) AppleWebKit/537.36 (KHTML, like Gecko) Chrome/86.0.4240.111 Safari/537.36",38,"[0.9, 0.5, 0.1]","[0.8, 0.4, 0.2]","[u'black', u'blue', u'red']","[u'left', u'middle', u'right']","[0.9, 0.5, 0.1]","[u'medium', u'low', u'high']","red",51,"right","high","True","False",249,1550,NA
"A2XHNHSBAHOGHZ","Mon Nov 02 2020 04:57:06 GMT-0800 (Pacific Standard Time)","Mon Nov 02 2020 05:11:16 GMT-0800 (Pacific Standard Time)","Mozilla/5.0 (Windows NT 10.0; Win64; x64) AppleWebKit/537.36 (KHTML, like Gecko) Chrome/86.0.4240.111 Safari/537.36",39,"[0.9, 0.5, 0.1]","[0.8, 0.4, 0.2]","[u'black', u'blue', u'red']","[u'left', u'middle', u'right']","[0.9, 0.5, 0.1]","[u'medium', u'low', u'high']","red",51,"right","high","False","False",523,1500,NA
"A2XHNHSBAHOGHZ","Mon Nov 02 2020 04:57:06 GMT-0800 (Pacific Standard Time)","Mon Nov 02 2020 05:11:16 GMT-0800 (Pacific Standard Time)","Mozilla/5.0 (Windows NT 10.0; Win64; x64) AppleWebKit/537.36 (KHTML, like Gecko) Chrome/86.0.4240.111 Safari/537.36",40,"[0.9, 0.5, 0.1]","[0.8, 0.4, 0.2]","[u'black', u'blue', u'red']","[u'left', u'middle', u'right']","[0.9, 0.5, 0.1]","[u'medium', u'low', u'high']","blue",50,"middle","low","False","False",664,1450,NA
"A2XHNHSBAHOGHZ","Mon Nov 02 2020 04:57:06 GMT-0800 (Pacific Standard Time)","Mon Nov 02 2020 05:11:16 GMT-0800 (Pacific Standard Time)","Mozilla/5.0 (Windows NT 10.0; Win64; x64) AppleWebKit/537.36 (KHTML, like Gecko) Chrome/86.0.4240.111 Safari/537.36",41,"[0.9, 0.5, 0.1]","[0.8, 0.4, 0.2]","[u'black', u'blue', u'red']","[u'left', u'middle', u'right']","[0.9, 0.5, 0.1]","[u'medium', u'high', u'low']","black",49,"left","medium","False","False",1262,1400,NA
"A2XHNHSBAHOGHZ","Mon Nov 02 2020 04:57:06 GMT-0800 (Pacific Standard Time)","Mon Nov 02 2020 05:11:16 GMT-0800 (Pacific Standard Time)","Mozilla/5.0 (Windows NT 10.0; Win64; x64) AppleWebKit/537.36 (KHTML, like Gecko) Chrome/86.0.4240.111 Safari/537.36",42,"[0.9, 0.5, 0.1]","[0.8, 0.4, 0.2]","[u'black', u'blue', u'red']","[u'left', u'middle', u'right']","[0.9, 0.5, 0.1]","[u'medium', u'high', u'low']","blue",50,"middle","high","True","False",306,1500,NA
"A2XHNHSBAHOGHZ","Mon Nov 02 2020 04:57:06 GMT-0800 (Pacific Standard Time)","Mon Nov 02 2020 05:11:16 GMT-0800 (Pacific Standard Time)","Mozilla/5.0 (Windows NT 10.0; Win64; x64) AppleWebKit/537.36 (KHTML, like Gecko) Chrome/86.0.4240.111 Safari/537.36",43,"[0.9, 0.5, 0.1]","[0.8, 0.4, 0.2]","[u'black', u'blue', u'red']","[u'left', u'middle', u'right']","[0.9, 0.5, 0.1]","[u'medium', u'high', u'low']","blue",50,"middle","high","False","False",293,1450,NA
"A2XHNHSBAHOGHZ","Mon Nov 02 2020 04:57:06 GMT-0800 (Pacific Standard Time)","Mon Nov 02 2020 05:11:16 GMT-0800 (Pacific Standard Time)","Mozilla/5.0 (Windows NT 10.0; Win64; x64) AppleWebKit/537.36 (KHTML, like Gecko) Chrome/86.0.4240.111 Safari/537.36",44,"[0.9, 0.5, 0.1]","[0.8, 0.4, 0.2]","[u'black', u'blue', u'red']","[u'left', u'middle', u'right']","[0.9, 0.5, 0.1]","[u'medium', u'high', u'low']","red",51,"right","low","False","False",379,1400,NA
"A2XHNHSBAHOGHZ","Mon Nov 02 2020 04:57:06 GMT-0800 (Pacific Standard Time)","Mon Nov 02 2020 05:11:16 GMT-0800 (Pacific Standard Time)","Mozilla/5.0 (Windows NT 10.0; Win64; x64) AppleWebKit/537.36 (KHTML, like Gecko) Chrome/86.0.4240.111 Safari/537.36",45,"[0.9, 0.5, 0.1]","[0.8, 0.4, 0.2]","[u'black', u'blue', u'red']","[u'left', u'middle', u'right']","[0.9, 0.5, 0.1]","[u'medium', u'high', u'low']","black",49,"left","medium","False","False",924,1350,NA
"A2XHNHSBAHOGHZ","Mon Nov 02 2020 04:57:06 GMT-0800 (Pacific Standard Time)","Mon Nov 02 2020 05:11:16 GMT-0800 (Pacific Standard Time)","Mozilla/5.0 (Windows NT 10.0; Win64; x64) AppleWebKit/537.36 (KHTML, like Gecko) Chrome/86.0.4240.111 Safari/537.36",46,"[0.9, 0.5, 0.1]","[0.8, 0.4, 0.2]","[u'black', u'blue', u'red']","[u'left', u'middle', u'right']","[0.9, 0.5, 0.1]","[u'medium', u'high', u'low']","blue",50,"middle","high","True","False",244,1450,NA
"A2XHNHSBAHOGHZ","Mon Nov 02 2020 04:57:06 GMT-0800 (Pacific Standard Time)","Mon Nov 02 2020 05:11:16 GMT-0800 (Pacific Standard Time)","Mozilla/5.0 (Windows NT 10.0; Win64; x64) AppleWebKit/537.36 (KHTML, like Gecko) Chrome/86.0.4240.111 Safari/537.36",47,"[0.9, 0.5, 0.1]","[0.8, 0.4, 0.2]","[u'black', u'blue', u'red']","[u'left', u'middle', u'right']","[0.9, 0.5, 0.1]","[u'medium', u'high', u'low']","blue",50,"middle","high","True","False",255,1550,NA
"A2XHNHSBAHOGHZ","Mon Nov 02 2020 04:57:06 GMT-0800 (Pacific Standard Time)","Mon Nov 02 2020 05:11:16 GMT-0800 (Pacific Standard Time)","Mozilla/5.0 (Windows NT 10.0; Win64; x64) AppleWebKit/537.36 (KHTML, like Gecko) Chrome/86.0.4240.111 Safari/537.36",48,"[0.9, 0.5, 0.1]","[0.8, 0.4, 0.2]","[u'black', u'blue', u'red']","[u'left', u'middle', u'right']","[0.9, 0.5, 0.1]","[u'medium', u'high', u'low']","blue",50,"middle","high","True","False",246,1650,NA
"A2XHNHSBAHOGHZ","Mon Nov 02 2020 04:57:06 GMT-0800 (Pacific Standard Time)","Mon Nov 02 2020 05:11:16 GMT-0800 (Pacific Standard Time)","Mozilla/5.0 (Windows NT 10.0; Win64; x64) AppleWebKit/537.36 (KHTML, like Gecko) Chrome/86.0.4240.111 Safari/537.36",49,"[0.9, 0.5, 0.1]","[0.8, 0.4, 0.2]","[u'black', u'blue', u'red']","[u'left', u'middle', u'right']","[0.9, 0.5, 0.1]","[u'medium', u'high', u'low']","red",51,"right","low","False","False",391,1600,NA
"A2XHNHSBAHOGHZ","Mon Nov 02 2020 04:57:06 GMT-0800 (Pacific Standard Time)","Mon Nov 02 2020 05:11:16 GMT-0800 (Pacific Standard Time)","Mozilla/5.0 (Windows NT 10.0; Win64; x64) AppleWebKit/537.36 (KHTML, like Gecko) Chrome/86.0.4240.111 Safari/537.36",50,"[0.9, 0.5, 0.1]","[0.8, 0.4, 0.2]","[u'black', u'blue', u'red']","[u'left', u'middle', u'right']","[0.9, 0.5, 0.1]","[u'medium', u'high', u'low']","black",49,"left","medium","True","False",183,1700,NA
"A2XHNHSBAHOGHZ","Mon Nov 02 2020 04:57:06 GMT-0800 (Pacific Standard Time)","Mon Nov 02 2020 05:11:16 GMT-0800 (Pacific Standard Time)","Mozilla/5.0 (Windows NT 10.0; Win64; x64) AppleWebKit/537.36 (KHTML, like Gecko) Chrome/86.0.4240.111 Safari/537.36",51,"[0.9, 0.5, 0.1]","[0.8, 0.4, 0.2]","[u'black', u'blue', u'red']","[u'left', u'middle', u'right']","[0.9, 0.5, 0.1]","[u'medium', u'high', u'low']","black",49,"left","medium","True","False",145,1800,NA
"A2XHNHSBAHOGHZ","Mon Nov 02 2020 04:57:06 GMT-0800 (Pacific Standard Time)","Mon Nov 02 2020 05:11:16 GMT-0800 (Pacific Standard Time)","Mozilla/5.0 (Windows NT 10.0; Win64; x64) AppleWebKit/537.36 (KHTML, like Gecko) Chrome/86.0.4240.111 Safari/537.36",52,"[0.9, 0.5, 0.1]","[0.8, 0.4, 0.2]","[u'black', u'blue', u'red']","[u'left', u'middle', u'right']","[0.9, 0.5, 0.1]","[u'medium', u'high', u'low']","black",49,"left","medium","False","False",289,1750,NA
"A2XHNHSBAHOGHZ","Mon Nov 02 2020 04:57:06 GMT-0800 (Pacific Standard Time)","Mon Nov 02 2020 05:11:16 GMT-0800 (Pacific Standard Time)","Mozilla/5.0 (Windows NT 10.0; Win64; x64) AppleWebKit/537.36 (KHTML, like Gecko) Chrome/86.0.4240.111 Safari/537.36",53,"[0.9, 0.5, 0.1]","[0.8, 0.4, 0.2]","[u'black', u'blue', u'red']","[u'left', u'middle', u'right']","[0.9, 0.5, 0.1]","[u'medium', u'high', u'low']","red",51,"right","low","False","False",124,1700,NA
"A2XHNHSBAHOGHZ","Mon Nov 02 2020 04:57:06 GMT-0800 (Pacific Standard Time)","Mon Nov 02 2020 05:11:16 GMT-0800 (Pacific Standard Time)","Mozilla/5.0 (Windows NT 10.0; Win64; x64) AppleWebKit/537.36 (KHTML, like Gecko) Chrome/86.0.4240.111 Safari/537.36",54,"[0.9, 0.5, 0.1]","[0.8, 0.4, 0.2]","[u'black', u'blue', u'red']","[u'left', u'middle', u'right']","[0.9, 0.5, 0.1]","[u'medium', u'high', u'low']","blue",50,"middle","high","True","False",74,1800,NA
"A2XHNHSBAHOGHZ","Mon Nov 02 2020 04:57:06 GMT-0800 (Pacific Standard Time)","Mon Nov 02 2020 05:11:16 GMT-0800 (Pacific Standard Time)","Mozilla/5.0 (Windows NT 10.0; Win64; x64) AppleWebKit/537.36 (KHTML, like Gecko) Chrome/86.0.4240.111 Safari/537.36",55,"[0.9, 0.5, 0.1]","[0.8, 0.4, 0.2]","[u'black', u'blue', u'red']","[u'left', u'middle', u'right']","[0.9, 0.5, 0.1]","[u'medium', u'high', u'low']","blue",50,"middle","high","True","False",352,1900,NA
"A2XHNHSBAHOGHZ","Mon Nov 02 2020 04:57:06 GMT-0800 (Pacific Standard Time)","Mon Nov 02 2020 05:11:16 GMT-0800 (Pacific Standard Time)","Mozilla/5.0 (Windows NT 10.0; Win64; x64) AppleWebKit/537.36 (KHTML, like Gecko) Chrome/86.0.4240.111 Safari/537.36",56,"[0.9, 0.5, 0.1]","[0.8, 0.4, 0.2]","[u'black', u'blue', u'red']","[u'left', u'middle', u'right']","[0.9, 0.5, 0.1]","[u'medium', u'high', u'low']","blue",50,"middle","high","True","False",342,2000,NA
"A2XHNHSBAHOGHZ","Mon Nov 02 2020 04:57:06 GMT-0800 (Pacific Standard Time)","Mon Nov 02 2020 05:11:16 GMT-0800 (Pacific Standard Time)","Mozilla/5.0 (Windows NT 10.0; Win64; x64) AppleWebKit/537.36 (KHTML, like Gecko) Chrome/86.0.4240.111 Safari/537.36",57,"[0.9, 0.5, 0.1]","[0.8, 0.4, 0.2]","[u'black', u'blue', u'red']","[u'left', u'middle', u'right']","[0.9, 0.5, 0.1]","[u'medium', u'high', u'low']","black",49,"left","medium","False","False",695,1950,NA
"A2XHNHSBAHOGHZ","Mon Nov 02 2020 04:57:06 GMT-0800 (Pacific Standard Time)","Mon Nov 02 2020 05:11:16 GMT-0800 (Pacific Standard Time)","Mozilla/5.0 (Windows NT 10.0; Win64; x64) AppleWebKit/537.36 (KHTML, like Gecko) Chrome/86.0.4240.111 Safari/537.36",58,"[0.9, 0.5, 0.1]","[0.8, 0.4, 0.2]","[u'black', u'blue', u'red']","[u'left', u'middle', u'right']","[0.9, 0.5, 0.1]","[u'medium', u'high', u'low']","blue",50,"middle","high","True","False",292,2050,NA
"A2XHNHSBAHOGHZ","Mon Nov 02 2020 04:57:06 GMT-0800 (Pacific Standard Time)","Mon Nov 02 2020 05:11:16 GMT-0800 (Pacific Standard Time)","Mozilla/5.0 (Windows NT 10.0; Win64; x64) AppleWebKit/537.36 (KHTML, like Gecko) Chrome/86.0.4240.111 Safari/537.36",59,"[0.9, 0.5, 0.1]","[0.8, 0.4, 0.2]","[u'black', u'blue', u'red']","[u'left', u'middle', u'right']","[0.9, 0.5, 0.1]","[u'medium', u'high', u'low']","blue",50,"middle","high","True","False",304,2150,NA
"A2XHNHSBAHOGHZ","Mon Nov 02 2020 04:57:06 GMT-0800 (Pacific Standard Time)","Mon Nov 02 2020 05:11:16 GMT-0800 (Pacific Standard Time)","Mozilla/5.0 (Windows NT 10.0; Win64; x64) AppleWebKit/537.36 (KHTML, like Gecko) Chrome/86.0.4240.111 Safari/537.36",60,"[0.9, 0.5, 0.1]","[0.8, 0.4, 0.2]","[u'black', u'blue', u'red']","[u'left', u'middle', u'right']","[0.9, 0.5, 0.1]","[u'medium', u'high', u'low']","blue",50,"middle","high","False","False",837,2100,NA
"A2XHNHSBAHOGHZ","Mon Nov 02 2020 04:57:06 GMT-0800 (Pacific Standard Time)","Mon Nov 02 2020 05:11:16 GMT-0800 (Pacific Standard Time)","Mozilla/5.0 (Windows NT 10.0; Win64; x64) AppleWebKit/537.36 (KHTML, like Gecko) Chrome/86.0.4240.111 Safari/537.36",61,"[0.9, 0.5, 0.1]","[0.8, 0.4, 0.2]","[u'black', u'blue', u'red']","[u'left', u'middle', u'right']","[0.9, 0.5, 0.1]","[u'medium', u'high', u'low']","red",51,"right","low","True","False",1374,2200,NA
"A2XHNHSBAHOGHZ","Mon Nov 02 2020 04:57:06 GMT-0800 (Pacific Standard Time)","Mon Nov 02 2020 05:11:16 GMT-0800 (Pacific Standard Time)","Mozilla/5.0 (Windows NT 10.0; Win64; x64) AppleWebKit/537.36 (KHTML, like Gecko) Chrome/86.0.4240.111 Safari/537.36",62,"[0.9, 0.5, 0.1]","[0.8, 0.4, 0.2]","[u'black', u'blue', u'red']","[u'left', u'middle', u'right']","[0.9, 0.5, 0.1]","[u'medium', u'high', u'low']","red",51,"right","low","False","False",2364,2150,NA
"A2XHNHSBAHOGHZ","Mon Nov 02 2020 04:57:06 GMT-0800 (Pacific Standard Time)","Mon Nov 02 2020 05:11:16 GMT-0800 (Pacific Standard Time)","Mozilla/5.0 (Windows NT 10.0; Win64; x64) AppleWebKit/537.36 (KHTML, like Gecko) Chrome/86.0.4240.111 Safari/537.36",63,"[0.9, 0.5, 0.1]","[0.8, 0.4, 0.2]","[u'black', u'blue', u'red']","[u'left', u'middle', u'right']","[0.9, 0.5, 0.1]","[u'medium', u'high', u'low']","blue",50,"middle","high","True","False",3639,2250,NA
"A2XHNHSBAHOGHZ","Mon Nov 02 2020 04:57:06 GMT-0800 (Pacific Standard Time)","Mon Nov 02 2020 05:11:16 GMT-0800 (Pacific Standard Time)","Mozilla/5.0 (Windows NT 10.0; Win64; x64) AppleWebKit/537.36 (KHTML, like Gecko) Chrome/86.0.4240.111 Safari/537.36",64,"[0.9, 0.5, 0.1]","[0.8, 0.4, 0.2]","[u'black', u'blue', u'red']","[u'left', u'middle', u'right']","[0.9, 0.5, 0.1]","[u'medium', u'high', u'low']","blue",50,"middle","high","True","False",2710,2350,NA
"A2XHNHSBAHOGHZ","Mon Nov 02 2020 04:57:06 GMT-0800 (Pacific Standard Time)","Mon Nov 02 2020 05:11:16 GMT-0800 (Pacific Standard Time)","Mozilla/5.0 (Windows NT 10.0; Win64; x64) AppleWebKit/537.36 (KHTML, like Gecko) Chrome/86.0.4240.111 Safari/537.36",65,"[0.9, 0.5, 0.1]","[0.8, 0.4, 0.2]","[u'black', u'blue', u'red']","[u'left', u'middle', u'right']","[0.9, 0.5, 0.1]","[u'medium', u'high', u'low']","blue",50,"middle","high","True","False",3113,2450,NA
"A2XHNHSBAHOGHZ","Mon Nov 02 2020 04:57:06 GMT-0800 (Pacific Standard Time)","Mon Nov 02 2020 05:11:16 GMT-0800 (Pacific Standard Time)","Mozilla/5.0 (Windows NT 10.0; Win64; x64) AppleWebKit/537.36 (KHTML, like Gecko) Chrome/86.0.4240.111 Safari/537.36",66,"[0.9, 0.5, 0.1]","[0.8, 0.4, 0.2]","[u'black', u'blue', u'red']","[u'left', u'middle', u'right']","[0.9, 0.5, 0.1]","[u'medium', u'high', u'low']","blue",50,"middle","high","True","False",2597,2550,NA
"A2XHNHSBAHOGHZ","Mon Nov 02 2020 04:57:06 GMT-0800 (Pacific Standard Time)","Mon Nov 02 2020 05:11:16 GMT-0800 (Pacific Standard Time)","Mozilla/5.0 (Windows NT 10.0; Win64; x64) AppleWebKit/537.36 (KHTML, like Gecko) Chrome/86.0.4240.111 Safari/537.36",67,"[0.9, 0.5, 0.1]","[0.8, 0.4, 0.2]","[u'black', u'blue', u'red']","[u'left', u'middle', u'right']","[0.9, 0.5, 0.1]","[u'medium', u'high', u'low']","blue",50,"middle","high","True","False",971,2650,NA
"A2XHNHSBAHOGHZ","Mon Nov 02 2020 04:57:06 GMT-0800 (Pacific Standard Time)","Mon Nov 02 2020 05:11:16 GMT-0800 (Pacific Standard Time)","Mozilla/5.0 (Windows NT 10.0; Win64; x64) AppleWebKit/537.36 (KHTML, like Gecko) Chrome/86.0.4240.111 Safari/537.36",68,"[0.9, 0.5, 0.1]","[0.8, 0.4, 0.2]","[u'black', u'blue', u'red']","[u'left', u'middle', u'right']","[0.9, 0.5, 0.1]","[u'medium', u'high', u'low']","blue",50,"middle","high","True","False",1068,2750,NA
"A2XHNHSBAHOGHZ","Mon Nov 02 2020 04:57:06 GMT-0800 (Pacific Standard Time)","Mon Nov 02 2020 05:11:16 GMT-0800 (Pacific Standard Time)","Mozilla/5.0 (Windows NT 10.0; Win64; x64) AppleWebKit/537.36 (KHTML, like Gecko) Chrome/86.0.4240.111 Safari/537.36",69,"[0.9, 0.5, 0.1]","[0.8, 0.4, 0.2]","[u'black', u'blue', u'red']","[u'left', u'middle', u'right']","[0.9, 0.5, 0.1]","[u'medium', u'high', u'low']","blue",50,"middle","high","True","False",720,2850,NA
"A2XHNHSBAHOGHZ","Mon Nov 02 2020 04:57:06 GMT-0800 (Pacific Standard Time)","Mon Nov 02 2020 05:11:16 GMT-0800 (Pacific Standard Time)","Mozilla/5.0 (Windows NT 10.0; Win64; x64) AppleWebKit/537.36 (KHTML, like Gecko) Chrome/86.0.4240.111 Safari/537.36",70,"[0.9, 0.5, 0.1]","[0.8, 0.4, 0.2]","[u'black', u'blue', u'red']","[u'left', u'middle', u'right']","[0.9, 0.5, 0.1]","[u'medium', u'high', u'low']","blue",50,"middle","high","True","False",1408,2950,NA
"A2XHNHSBAHOGHZ","Mon Nov 02 2020 04:57:06 GMT-0800 (Pacific Standard Time)","Mon Nov 02 2020 05:11:16 GMT-0800 (Pacific Standard Time)","Mozilla/5.0 (Windows NT 10.0; Win64; x64) AppleWebKit/537.36 (KHTML, like Gecko) Chrome/86.0.4240.111 Safari/537.36",71,"[0.9, 0.5, 0.1]","[0.8, 0.4, 0.2]","[u'black', u'blue', u'red']","[u'left', u'middle', u'right']","[0.9, 0.5, 0.1]","[u'medium', u'high', u'low']","blue",50,"middle","high","True","True",531,3050,NA
"A2XHNHSBAHOGHZ","Mon Nov 02 2020 04:57:06 GMT-0800 (Pacific Standard Time)","Mon Nov 02 2020 05:11:16 GMT-0800 (Pacific Standard Time)","Mozilla/5.0 (Windows NT 10.0; Win64; x64) AppleWebKit/537.36 (KHTML, like Gecko) Chrome/86.0.4240.111 Safari/537.36",72,"[0.9, 0.5, 0.1]","[0.8, 0.4, 0.2]","[u'black', u'blue', u'red']","[u'left', u'middle', u'right']","[0.9, 0.5, 0.1]","[u'high', u'low', u'medium']","blue",50,"middle","low","False","False",1283,3000,NA
"A2XHNHSBAHOGHZ","Mon Nov 02 2020 04:57:06 GMT-0800 (Pacific Standard Time)","Mon Nov 02 2020 05:11:16 GMT-0800 (Pacific Standard Time)","Mozilla/5.0 (Windows NT 10.0; Win64; x64) AppleWebKit/537.36 (KHTML, like Gecko) Chrome/86.0.4240.111 Safari/537.36",73,"[0.9, 0.5, 0.1]","[0.8, 0.4, 0.2]","[u'black', u'blue', u'red']","[u'left', u'middle', u'right']","[0.9, 0.5, 0.1]","[u'high', u'low', u'medium']","black",49,"left","high","True","False",1108,3100,NA
"A2XHNHSBAHOGHZ","Mon Nov 02 2020 04:57:06 GMT-0800 (Pacific Standard Time)","Mon Nov 02 2020 05:11:16 GMT-0800 (Pacific Standard Time)","Mozilla/5.0 (Windows NT 10.0; Win64; x64) AppleWebKit/537.36 (KHTML, like Gecko) Chrome/86.0.4240.111 Safari/537.36",74,"[0.9, 0.5, 0.1]","[0.8, 0.4, 0.2]","[u'black', u'blue', u'red']","[u'left', u'middle', u'right']","[0.9, 0.5, 0.1]","[u'high', u'low', u'medium']","black",49,"left","high","True","False",1017,3200,NA
"A2XHNHSBAHOGHZ","Mon Nov 02 2020 04:57:06 GMT-0800 (Pacific Standard Time)","Mon Nov 02 2020 05:11:16 GMT-0800 (Pacific Standard Time)","Mozilla/5.0 (Windows NT 10.0; Win64; x64) AppleWebKit/537.36 (KHTML, like Gecko) Chrome/86.0.4240.111 Safari/537.36",75,"[0.9, 0.5, 0.1]","[0.8, 0.4, 0.2]","[u'black', u'blue', u'red']","[u'left', u'middle', u'right']","[0.9, 0.5, 0.1]","[u'high', u'low', u'medium']","blue",50,"middle","low","False","False",1470,3150,NA
"A2XHNHSBAHOGHZ","Mon Nov 02 2020 04:57:06 GMT-0800 (Pacific Standard Time)","Mon Nov 02 2020 05:11:16 GMT-0800 (Pacific Standard Time)","Mozilla/5.0 (Windows NT 10.0; Win64; x64) AppleWebKit/537.36 (KHTML, like Gecko) Chrome/86.0.4240.111 Safari/537.36",76,"[0.9, 0.5, 0.1]","[0.8, 0.4, 0.2]","[u'black', u'blue', u'red']","[u'left', u'middle', u'right']","[0.9, 0.5, 0.1]","[u'high', u'low', u'medium']","black",49,"left","high","True","False",1689,3250,NA
"A2XHNHSBAHOGHZ","Mon Nov 02 2020 04:57:06 GMT-0800 (Pacific Standard Time)","Mon Nov 02 2020 05:11:16 GMT-0800 (Pacific Standard Time)","Mozilla/5.0 (Windows NT 10.0; Win64; x64) AppleWebKit/537.36 (KHTML, like Gecko) Chrome/86.0.4240.111 Safari/537.36",77,"[0.9, 0.5, 0.1]","[0.8, 0.4, 0.2]","[u'black', u'blue', u'red']","[u'left', u'middle', u'right']","[0.9, 0.5, 0.1]","[u'high', u'low', u'medium']","black",49,"left","high","True","False",1183,3350,NA
"A2XHNHSBAHOGHZ","Mon Nov 02 2020 04:57:06 GMT-0800 (Pacific Standard Time)","Mon Nov 02 2020 05:11:16 GMT-0800 (Pacific Standard Time)","Mozilla/5.0 (Windows NT 10.0; Win64; x64) AppleWebKit/537.36 (KHTML, like Gecko) Chrome/86.0.4240.111 Safari/537.36",78,"[0.9, 0.5, 0.1]","[0.8, 0.4, 0.2]","[u'black', u'blue', u'red']","[u'left', u'middle', u'right']","[0.9, 0.5, 0.1]","[u'high', u'low', u'medium']","black",49,"left","high","True","False",2604,3450,NA
"A2XHNHSBAHOGHZ","Mon Nov 02 2020 04:57:06 GMT-0800 (Pacific Standard Time)","Mon Nov 02 2020 05:11:16 GMT-0800 (Pacific Standard Time)","Mozilla/5.0 (Windows NT 10.0; Win64; x64) AppleWebKit/537.36 (KHTML, like Gecko) Chrome/86.0.4240.111 Safari/537.36",79,"[0.9, 0.5, 0.1]","[0.8, 0.4, 0.2]","[u'black', u'blue', u'red']","[u'left', u'middle', u'right']","[0.9, 0.5, 0.1]","[u'high', u'low', u'medium']","black",49,"left","high","True","False",1427,3550,NA
"A2XHNHSBAHOGHZ","Mon Nov 02 2020 04:57:06 GMT-0800 (Pacific Standard Time)","Mon Nov 02 2020 05:11:16 GMT-0800 (Pacific Standard Time)","Mozilla/5.0 (Windows NT 10.0; Win64; x64) AppleWebKit/537.36 (KHTML, like Gecko) Chrome/86.0.4240.111 Safari/537.36",80,"[0.9, 0.5, 0.1]","[0.8, 0.4, 0.2]","[u'black', u'blue', u'red']","[u'left', u'middle', u'right']","[0.9, 0.5, 0.1]","[u'high', u'low', u'medium']","black",49,"left","high","True","False",4482,3650,NA
"A2XHNHSBAHOGHZ","Mon Nov 02 2020 04:57:06 GMT-0800 (Pacific Standard Time)","Mon Nov 02 2020 05:11:16 GMT-0800 (Pacific Standard Time)","Mozilla/5.0 (Windows NT 10.0; Win64; x64) AppleWebKit/537.36 (KHTML, like Gecko) Chrome/86.0.4240.111 Safari/537.36",81,"[0.9, 0.5, 0.1]","[0.8, 0.4, 0.2]","[u'black', u'blue', u'red']","[u'left', u'middle', u'right']","[0.8, 0.4, 0.2]","[u'low', u'high', u'medium']","red",51,"right","medium","False","False",1117,3600,NA
"A2XHNHSBAHOGHZ","Mon Nov 02 2020 04:57:06 GMT-0800 (Pacific Standard Time)","Mon Nov 02 2020 05:11:16 GMT-0800 (Pacific Standard Time)","Mozilla/5.0 (Windows NT 10.0; Win64; x64) AppleWebKit/537.36 (KHTML, like Gecko) Chrome/86.0.4240.111 Safari/537.36",82,"[0.9, 0.5, 0.1]","[0.8, 0.4, 0.2]","[u'black', u'blue', u'red']","[u'left', u'middle', u'right']","[0.8, 0.4, 0.2]","[u'low', u'high', u'medium']","blue",50,"middle","high","True","False",201,3700,NA
"A2XHNHSBAHOGHZ","Mon Nov 02 2020 04:57:06 GMT-0800 (Pacific Standard Time)","Mon Nov 02 2020 05:11:16 GMT-0800 (Pacific Standard Time)","Mozilla/5.0 (Windows NT 10.0; Win64; x64) AppleWebKit/537.36 (KHTML, like Gecko) Chrome/86.0.4240.111 Safari/537.36",83,"[0.9, 0.5, 0.1]","[0.8, 0.4, 0.2]","[u'black', u'blue', u'red']","[u'left', u'middle', u'right']","[0.8, 0.4, 0.2]","[u'low', u'high', u'medium']","blue",50,"middle","high","True","False",371,3800,NA
"A2XHNHSBAHOGHZ","Mon Nov 02 2020 04:57:06 GMT-0800 (Pacific Standard Time)","Mon Nov 02 2020 05:11:16 GMT-0800 (Pacific Standard Time)","Mozilla/5.0 (Windows NT 10.0; Win64; x64) AppleWebKit/537.36 (KHTML, like Gecko) Chrome/86.0.4240.111 Safari/537.36",84,"[0.9, 0.5, 0.1]","[0.8, 0.4, 0.2]","[u'black', u'blue', u'red']","[u'left', u'middle', u'right']","[0.8, 0.4, 0.2]","[u'low', u'high', u'medium']","blue",50,"middle","high","True","False",186,3900,NA
"A2XHNHSBAHOGHZ","Mon Nov 02 2020 04:57:06 GMT-0800 (Pacific Standard Time)","Mon Nov 02 2020 05:11:16 GMT-0800 (Pacific Standard Time)","Mozilla/5.0 (Windows NT 10.0; Win64; x64) AppleWebKit/537.36 (KHTML, like Gecko) Chrome/86.0.4240.111 Safari/537.36",85,"[0.9, 0.5, 0.1]","[0.8, 0.4, 0.2]","[u'black', u'blue', u'red']","[u'left', u'middle', u'right']","[0.8, 0.4, 0.2]","[u'low', u'high', u'medium']","blue",50,"middle","high","True","False",247,4000,NA
"A2XHNHSBAHOGHZ","Mon Nov 02 2020 04:57:06 GMT-0800 (Pacific Standard Time)","Mon Nov 02 2020 05:11:16 GMT-0800 (Pacific Standard Time)","Mozilla/5.0 (Windows NT 10.0; Win64; x64) AppleWebKit/537.36 (KHTML, like Gecko) Chrome/86.0.4240.111 Safari/537.36",86,"[0.9, 0.5, 0.1]","[0.8, 0.4, 0.2]","[u'black', u'blue', u'red']","[u'left', u'middle', u'right']","[0.8, 0.4, 0.2]","[u'low', u'high', u'medium']","black",49,"left","low","False","False",136,3950,NA
"A2XHNHSBAHOGHZ","Mon Nov 02 2020 04:57:06 GMT-0800 (Pacific Standard Time)","Mon Nov 02 2020 05:11:16 GMT-0800 (Pacific Standard Time)","Mozilla/5.0 (Windows NT 10.0; Win64; x64) AppleWebKit/537.36 (KHTML, like Gecko) Chrome/86.0.4240.111 Safari/537.36",87,"[0.9, 0.5, 0.1]","[0.8, 0.4, 0.2]","[u'black', u'blue', u'red']","[u'left', u'middle', u'right']","[0.8, 0.4, 0.2]","[u'low', u'high', u'medium']","red",51,"right","medium","False","False",246,3900,NA
"A2XHNHSBAHOGHZ","Mon Nov 02 2020 04:57:06 GMT-0800 (Pacific Standard Time)","Mon Nov 02 2020 05:11:16 GMT-0800 (Pacific Standard Time)","Mozilla/5.0 (Windows NT 10.0; Win64; x64) AppleWebKit/537.36 (KHTML, like Gecko) Chrome/86.0.4240.111 Safari/537.36",88,"[0.9, 0.5, 0.1]","[0.8, 0.4, 0.2]","[u'black', u'blue', u'red']","[u'left', u'middle', u'right']","[0.8, 0.4, 0.2]","[u'low', u'high', u'medium']","blue",50,"middle","high","True","False",185,4000,NA
"A2XHNHSBAHOGHZ","Mon Nov 02 2020 04:57:06 GMT-0800 (Pacific Standard Time)","Mon Nov 02 2020 05:11:16 GMT-0800 (Pacific Standard Time)","Mozilla/5.0 (Windows NT 10.0; Win64; x64) AppleWebKit/537.36 (KHTML, like Gecko) Chrome/86.0.4240.111 Safari/537.36",89,"[0.9, 0.5, 0.1]","[0.8, 0.4, 0.2]","[u'black', u'blue', u'red']","[u'left', u'middle', u'right']","[0.8, 0.4, 0.2]","[u'low', u'high', u'medium']","blue",50,"middle","high","True","False",285,4100,NA
"A2XHNHSBAHOGHZ","Mon Nov 02 2020 04:57:06 GMT-0800 (Pacific Standard Time)","Mon Nov 02 2020 05:11:16 GMT-0800 (Pacific Standard Time)","Mozilla/5.0 (Windows NT 10.0; Win64; x64) AppleWebKit/537.36 (KHTML, like Gecko) Chrome/86.0.4240.111 Safari/537.36",90,"[0.9, 0.5, 0.1]","[0.8, 0.4, 0.2]","[u'black', u'blue', u'red']","[u'left', u'middle', u'right']","[0.8, 0.4, 0.2]","[u'low', u'high', u'medium']","blue",50,"middle","high","False","False",159,4050,NA
"A2XHNHSBAHOGHZ","Mon Nov 02 2020 04:57:06 GMT-0800 (Pacific Standard Time)","Mon Nov 02 2020 05:11:16 GMT-0800 (Pacific Standard Time)","Mozilla/5.0 (Windows NT 10.0; Win64; x64) AppleWebKit/537.36 (KHTML, like Gecko) Chrome/86.0.4240.111 Safari/537.36",91,"[0.9, 0.5, 0.1]","[0.8, 0.4, 0.2]","[u'black', u'blue', u'red']","[u'left', u'middle', u'right']","[0.8, 0.4, 0.2]","[u'low', u'high', u'medium']","black",49,"left","low","True","False",277,4150,NA
"A2XHNHSBAHOGHZ","Mon Nov 02 2020 04:57:06 GMT-0800 (Pacific Standard Time)","Mon Nov 02 2020 05:11:16 GMT-0800 (Pacific Standard Time)","Mozilla/5.0 (Windows NT 10.0; Win64; x64) AppleWebKit/537.36 (KHTML, like Gecko) Chrome/86.0.4240.111 Safari/537.36",92,"[0.9, 0.5, 0.1]","[0.8, 0.4, 0.2]","[u'black', u'blue', u'red']","[u'left', u'middle', u'right']","[0.8, 0.4, 0.2]","[u'low', u'high', u'medium']","black",49,"left","low","True","False",397,4250,NA
"A2XHNHSBAHOGHZ","Mon Nov 02 2020 04:57:06 GMT-0800 (Pacific Standard Time)","Mon Nov 02 2020 05:11:16 GMT-0800 (Pacific Standard Time)","Mozilla/5.0 (Windows NT 10.0; Win64; x64) AppleWebKit/537.36 (KHTML, like Gecko) Chrome/86.0.4240.111 Safari/537.36",93,"[0.9, 0.5, 0.1]","[0.8, 0.4, 0.2]","[u'black', u'blue', u'red']","[u'left', u'middle', u'right']","[0.8, 0.4, 0.2]","[u'low', u'high', u'medium']","black",49,"left","low","False","False",566,4200,NA
"A2XHNHSBAHOGHZ","Mon Nov 02 2020 04:57:06 GMT-0800 (Pacific Standard Time)","Mon Nov 02 2020 05:11:16 GMT-0800 (Pacific Standard Time)","Mozilla/5.0 (Windows NT 10.0; Win64; x64) AppleWebKit/537.36 (KHTML, like Gecko) Chrome/86.0.4240.111 Safari/537.36",94,"[0.9, 0.5, 0.1]","[0.8, 0.4, 0.2]","[u'black', u'blue', u'red']","[u'left', u'middle', u'right']","[0.8, 0.4, 0.2]","[u'low', u'high', u'medium']","blue",50,"middle","high","False","False",382,4150,NA
"A2XHNHSBAHOGHZ","Mon Nov 02 2020 04:57:06 GMT-0800 (Pacific Standard Time)","Mon Nov 02 2020 05:11:16 GMT-0800 (Pacific Standard Time)","Mozilla/5.0 (Windows NT 10.0; Win64; x64) AppleWebKit/537.36 (KHTML, like Gecko) Chrome/86.0.4240.111 Safari/537.36",95,"[0.9, 0.5, 0.1]","[0.8, 0.4, 0.2]","[u'black', u'blue', u'red']","[u'left', u'middle', u'right']","[0.8, 0.4, 0.2]","[u'low', u'high', u'medium']","red",51,"right","medium","True","False",297,4250,NA
"A2XHNHSBAHOGHZ","Mon Nov 02 2020 04:57:06 GMT-0800 (Pacific Standard Time)","Mon Nov 02 2020 05:11:16 GMT-0800 (Pacific Standard Time)","Mozilla/5.0 (Windows NT 10.0; Win64; x64) AppleWebKit/537.36 (KHTML, like Gecko) Chrome/86.0.4240.111 Safari/537.36",96,"[0.9, 0.5, 0.1]","[0.8, 0.4, 0.2]","[u'black', u'blue', u'red']","[u'left', u'middle', u'right']","[0.8, 0.4, 0.2]","[u'low', u'high', u'medium']","red",51,"right","medium","False","False",17,4200,NA
"A2XHNHSBAHOGHZ","Mon Nov 02 2020 04:57:06 GMT-0800 (Pacific Standard Time)","Mon Nov 02 2020 05:11:16 GMT-0800 (Pacific Standard Time)","Mozilla/5.0 (Windows NT 10.0; Win64; x64) AppleWebKit/537.36 (KHTML, like Gecko) Chrome/86.0.4240.111 Safari/537.36",97,"[0.9, 0.5, 0.1]","[0.8, 0.4, 0.2]","[u'black', u'blue', u'red']","[u'left', u'middle', u'right']","[0.8, 0.4, 0.2]","[u'low', u'high', u'medium']","blue",50,"middle","high","True","False",304,4300,NA
"A2XHNHSBAHOGHZ","Mon Nov 02 2020 04:57:06 GMT-0800 (Pacific Standard Time)","Mon Nov 02 2020 05:11:16 GMT-0800 (Pacific Standard Time)","Mozilla/5.0 (Windows NT 10.0; Win64; x64) AppleWebKit/537.36 (KHTML, like Gecko) Chrome/86.0.4240.111 Safari/537.36",98,"[0.9, 0.5, 0.1]","[0.8, 0.4, 0.2]","[u'black', u'blue', u'red']","[u'left', u'middle', u'right']","[0.8, 0.4, 0.2]","[u'low', u'high', u'medium']","blue",50,"middle","high","True","False",305,4400,NA
"A2XHNHSBAHOGHZ","Mon Nov 02 2020 04:57:06 GMT-0800 (Pacific Standard Time)","Mon Nov 02 2020 05:11:16 GMT-0800 (Pacific Standard Time)","Mozilla/5.0 (Windows NT 10.0; Win64; x64) AppleWebKit/537.36 (KHTML, like Gecko) Chrome/86.0.4240.111 Safari/537.36",99,"[0.9, 0.5, 0.1]","[0.8, 0.4, 0.2]","[u'black', u'blue', u'red']","[u'left', u'middle', u'right']","[0.8, 0.4, 0.2]","[u'low', u'high', u'medium']","blue",50,"middle","high","False","False",166,4350,NA
"A2XHNHSBAHOGHZ","Mon Nov 02 2020 04:57:06 GMT-0800 (Pacific Standard Time)","Mon Nov 02 2020 05:11:16 GMT-0800 (Pacific Standard Time)","Mozilla/5.0 (Windows NT 10.0; Win64; x64) AppleWebKit/537.36 (KHTML, like Gecko) Chrome/86.0.4240.111 Safari/537.36",100,"[0.9, 0.5, 0.1]","[0.8, 0.4, 0.2]","[u'black', u'blue', u'red']","[u'left', u'middle', u'right']","[0.8, 0.4, 0.2]","[u'low', u'high', u'medium']","red",51,"right","medium","False","False",107,4300,NA
"A2XHNHSBAHOGHZ","Mon Nov 02 2020 04:57:06 GMT-0800 (Pacific Standard Time)","Mon Nov 02 2020 05:11:16 GMT-0800 (Pacific Standard Time)","Mozilla/5.0 (Windows NT 10.0; Win64; x64) AppleWebKit/537.36 (KHTML, like Gecko) Chrome/86.0.4240.111 Safari/537.36",101,"[0.9, 0.5, 0.1]","[0.8, 0.4, 0.2]","[u'black', u'blue', u'red']","[u'left', u'middle', u'right']","[0.8, 0.4, 0.2]","[u'low', u'high', u'medium']","black",49,"left","low","False","False",118,4250,NA
"A2XHNHSBAHOGHZ","Mon Nov 02 2020 04:57:06 GMT-0800 (Pacific Standard Time)","Mon Nov 02 2020 05:11:16 GMT-0800 (Pacific Standard Time)","Mozilla/5.0 (Windows NT 10.0; Win64; x64) AppleWebKit/537.36 (KHTML, like Gecko) Chrome/86.0.4240.111 Safari/537.36",102,"[0.9, 0.5, 0.1]","[0.8, 0.4, 0.2]","[u'black', u'blue', u'red']","[u'left', u'middle', u'right']","[0.8, 0.4, 0.2]","[u'low', u'high', u'medium']","blue",50,"middle","high","True","False",100,4350,NA
"A2XHNHSBAHOGHZ","Mon Nov 02 2020 04:57:06 GMT-0800 (Pacific Standard Time)","Mon Nov 02 2020 05:11:16 GMT-0800 (Pacific Standard Time)","Mozilla/5.0 (Windows NT 10.0; Win64; x64) AppleWebKit/537.36 (KHTML, like Gecko) Chrome/86.0.4240.111 Safari/537.36",103,"[0.9, 0.5, 0.1]","[0.8, 0.4, 0.2]","[u'black', u'blue', u'red']","[u'left', u'middle', u'right']","[0.8, 0.4, 0.2]","[u'low', u'high', u'medium']","blue",50,"middle","high","True","False",256,4450,NA
"A2XHNHSBAHOGHZ","Mon Nov 02 2020 04:57:06 GMT-0800 (Pacific Standard Time)","Mon Nov 02 2020 05:11:16 GMT-0800 (Pacific Standard Time)","Mozilla/5.0 (Windows NT 10.0; Win64; x64) AppleWebKit/537.36 (KHTML, like Gecko) Chrome/86.0.4240.111 Safari/537.36",104,"[0.9, 0.5, 0.1]","[0.8, 0.4, 0.2]","[u'black', u'blue', u'red']","[u'left', u'middle', u'right']","[0.8, 0.4, 0.2]","[u'low', u'high', u'medium']","blue",50,"middle","high","True","False",281,4550,NA
"A2XHNHSBAHOGHZ","Mon Nov 02 2020 04:57:06 GMT-0800 (Pacific Standard Time)","Mon Nov 02 2020 05:11:16 GMT-0800 (Pacific Standard Time)","Mozilla/5.0 (Windows NT 10.0; Win64; x64) AppleWebKit/537.36 (KHTML, like Gecko) Chrome/86.0.4240.111 Safari/537.36",105,"[0.9, 0.5, 0.1]","[0.8, 0.4, 0.2]","[u'black', u'blue', u'red']","[u'left', u'middle', u'right']","[0.8, 0.4, 0.2]","[u'low', u'high', u'medium']","blue",50,"middle","high","True","False",403,4650,NA
"A2XHNHSBAHOGHZ","Mon Nov 02 2020 04:57:06 GMT-0800 (Pacific Standard Time)","Mon Nov 02 2020 05:11:16 GMT-0800 (Pacific Standard Time)","Mozilla/5.0 (Windows NT 10.0; Win64; x64) AppleWebKit/537.36 (KHTML, like Gecko) Chrome/86.0.4240.111 Safari/537.36",106,"[0.9, 0.5, 0.1]","[0.8, 0.4, 0.2]","[u'black', u'blue', u'red']","[u'left', u'middle', u'right']","[0.8, 0.4, 0.2]","[u'low', u'high', u'medium']","blue",50,"middle","high","True","False",452,4750,NA
"A2XHNHSBAHOGHZ","Mon Nov 02 2020 04:57:06 GMT-0800 (Pacific Standard Time)","Mon Nov 02 2020 05:11:16 GMT-0800 (Pacific Standard Time)","Mozilla/5.0 (Windows NT 10.0; Win64; x64) AppleWebKit/537.36 (KHTML, like Gecko) Chrome/86.0.4240.111 Safari/537.36",107,"[0.9, 0.5, 0.1]","[0.8, 0.4, 0.2]","[u'black', u'blue', u'red']","[u'left', u'middle', u'right']","[0.8, 0.4, 0.2]","[u'low', u'high', u'medium']","blue",50,"middle","high","True","False",291,4850,NA
"A2XHNHSBAHOGHZ","Mon Nov 02 2020 04:57:06 GMT-0800 (Pacific Standard Time)","Mon Nov 02 2020 05:11:16 GMT-0800 (Pacific Standard Time)","Mozilla/5.0 (Windows NT 10.0; Win64; x64) AppleWebKit/537.36 (KHTML, like Gecko) Chrome/86.0.4240.111 Safari/537.36",108,"[0.9, 0.5, 0.1]","[0.8, 0.4, 0.2]","[u'black', u'blue', u'red']","[u'left', u'middle', u'right']","[0.8, 0.4, 0.2]","[u'low', u'high', u'medium']","blue",50,"middle","high","True","False",280,4950,NA
"A2XHNHSBAHOGHZ","Mon Nov 02 2020 04:57:06 GMT-0800 (Pacific Standard Time)","Mon Nov 02 2020 05:11:16 GMT-0800 (Pacific Standard Time)","Mozilla/5.0 (Windows NT 10.0; Win64; x64) AppleWebKit/537.36 (KHTML, like Gecko) Chrome/86.0.4240.111 Safari/537.36",109,"[0.9, 0.5, 0.1]","[0.8, 0.4, 0.2]","[u'black', u'blue', u'red']","[u'left', u'middle', u'right']","[0.8, 0.4, 0.2]","[u'low', u'high', u'medium']","blue",50,"middle","high","True","False",234,5050,NA
"A2XHNHSBAHOGHZ","Mon Nov 02 2020 04:57:06 GMT-0800 (Pacific Standard Time)","Mon Nov 02 2020 05:11:16 GMT-0800 (Pacific Standard Time)","Mozilla/5.0 (Windows NT 10.0; Win64; x64) AppleWebKit/537.36 (KHTML, like Gecko) Chrome/86.0.4240.111 Safari/537.36",110,"[0.9, 0.5, 0.1]","[0.8, 0.4, 0.2]","[u'black', u'blue', u'red']","[u'left', u'middle', u'right']","[0.8, 0.4, 0.2]","[u'low', u'high', u'medium']","blue",50,"middle","high","True","True",154,5150,NA
"A2XHNHSBAHOGHZ","Mon Nov 02 2020 04:57:06 GMT-0800 (Pacific Standard Time)","Mon Nov 02 2020 05:11:16 GMT-0800 (Pacific Standard Time)","Mozilla/5.0 (Windows NT 10.0; Win64; x64) AppleWebKit/537.36 (KHTML, like Gecko) Chrome/86.0.4240.111 Safari/537.36",111,"[0.9, 0.5, 0.1]","[0.8, 0.4, 0.2]","[u'black', u'blue', u'red']","[u'left', u'middle', u'right']","[0.8, 0.4, 0.2]","[u'low', u'medium', u'high']","blue",50,"middle","medium","False","False",163,5100,NA
"A2XHNHSBAHOGHZ","Mon Nov 02 2020 04:57:06 GMT-0800 (Pacific Standard Time)","Mon Nov 02 2020 05:11:16 GMT-0800 (Pacific Standard Time)","Mozilla/5.0 (Windows NT 10.0; Win64; x64) AppleWebKit/537.36 (KHTML, like Gecko) Chrome/86.0.4240.111 Safari/537.36",112,"[0.9, 0.5, 0.1]","[0.8, 0.4, 0.2]","[u'black', u'blue', u'red']","[u'left', u'middle', u'right']","[0.8, 0.4, 0.2]","[u'low', u'medium', u'high']","blue",50,"middle","medium","False","False",305,5050,NA
"A2XHNHSBAHOGHZ","Mon Nov 02 2020 04:57:06 GMT-0800 (Pacific Standard Time)","Mon Nov 02 2020 05:11:16 GMT-0800 (Pacific Standard Time)","Mozilla/5.0 (Windows NT 10.0; Win64; x64) AppleWebKit/537.36 (KHTML, like Gecko) Chrome/86.0.4240.111 Safari/537.36",113,"[0.9, 0.5, 0.1]","[0.8, 0.4, 0.2]","[u'black', u'blue', u'red']","[u'left', u'middle', u'right']","[0.8, 0.4, 0.2]","[u'low', u'medium', u'high']","black",49,"left","low","False","False",223,5000,NA
"A2XHNHSBAHOGHZ","Mon Nov 02 2020 04:57:06 GMT-0800 (Pacific Standard Time)","Mon Nov 02 2020 05:11:16 GMT-0800 (Pacific Standard Time)","Mozilla/5.0 (Windows NT 10.0; Win64; x64) AppleWebKit/537.36 (KHTML, like Gecko) Chrome/86.0.4240.111 Safari/537.36",114,"[0.9, 0.5, 0.1]","[0.8, 0.4, 0.2]","[u'black', u'blue', u'red']","[u'left', u'middle', u'right']","[0.8, 0.4, 0.2]","[u'low', u'medium', u'high']","red",51,"right","high","True","False",94,5100,NA
"A2XHNHSBAHOGHZ","Mon Nov 02 2020 04:57:06 GMT-0800 (Pacific Standard Time)","Mon Nov 02 2020 05:11:16 GMT-0800 (Pacific Standard Time)","Mozilla/5.0 (Windows NT 10.0; Win64; x64) AppleWebKit/537.36 (KHTML, like Gecko) Chrome/86.0.4240.111 Safari/537.36",115,"[0.9, 0.5, 0.1]","[0.8, 0.4, 0.2]","[u'black', u'blue', u'red']","[u'left', u'middle', u'right']","[0.8, 0.4, 0.2]","[u'low', u'medium', u'high']","red",51,"right","high","True","False",217,5200,NA
"A2XHNHSBAHOGHZ","Mon Nov 02 2020 04:57:06 GMT-0800 (Pacific Standard Time)","Mon Nov 02 2020 05:11:16 GMT-0800 (Pacific Standard Time)","Mozilla/5.0 (Windows NT 10.0; Win64; x64) AppleWebKit/537.36 (KHTML, like Gecko) Chrome/86.0.4240.111 Safari/537.36",116,"[0.9, 0.5, 0.1]","[0.8, 0.4, 0.2]","[u'black', u'blue', u'red']","[u'left', u'middle', u'right']","[0.8, 0.4, 0.2]","[u'low', u'medium', u'high']","red",51,"right","high","True","False",258,5300,NA
"A2XHNHSBAHOGHZ","Mon Nov 02 2020 04:57:06 GMT-0800 (Pacific Standard Time)","Mon Nov 02 2020 05:11:16 GMT-0800 (Pacific Standard Time)","Mozilla/5.0 (Windows NT 10.0; Win64; x64) AppleWebKit/537.36 (KHTML, like Gecko) Chrome/86.0.4240.111 Safari/537.36",117,"[0.9, 0.5, 0.1]","[0.8, 0.4, 0.2]","[u'black', u'blue', u'red']","[u'left', u'middle', u'right']","[0.8, 0.4, 0.2]","[u'low', u'medium', u'high']","red",51,"right","high","True","False",114,5400,NA
"A2XHNHSBAHOGHZ","Mon Nov 02 2020 04:57:06 GMT-0800 (Pacific Standard Time)","Mon Nov 02 2020 05:11:16 GMT-0800 (Pacific Standard Time)","Mozilla/5.0 (Windows NT 10.0; Win64; x64) AppleWebKit/537.36 (KHTML, like Gecko) Chrome/86.0.4240.111 Safari/537.36",118,"[0.9, 0.5, 0.1]","[0.8, 0.4, 0.2]","[u'black', u'blue', u'red']","[u'left', u'middle', u'right']","[0.8, 0.4, 0.2]","[u'low', u'medium', u'high']","red",51,"right","high","True","False",289,5500,NA
"A2XHNHSBAHOGHZ","Mon Nov 02 2020 04:57:06 GMT-0800 (Pacific Standard Time)","Mon Nov 02 2020 05:11:16 GMT-0800 (Pacific Standard Time)","Mozilla/5.0 (Windows NT 10.0; Win64; x64) AppleWebKit/537.36 (KHTML, like Gecko) Chrome/86.0.4240.111 Safari/537.36",119,"[0.9, 0.5, 0.1]","[0.8, 0.4, 0.2]","[u'black', u'blue', u'red']","[u'left', u'middle', u'right']","[0.8, 0.4, 0.2]","[u'low', u'medium', u'high']","red",51,"right","high","True","False",147,5600,NA
"A2XHNHSBAHOGHZ","Mon Nov 02 2020 04:57:06 GMT-0800 (Pacific Standard Time)","Mon Nov 02 2020 05:11:16 GMT-0800 (Pacific Standard Time)","Mozilla/5.0 (Windows NT 10.0; Win64; x64) AppleWebKit/537.36 (KHTML, like Gecko) Chrome/86.0.4240.111 Safari/537.36",120,"[0.9, 0.5, 0.1]","[0.8, 0.4, 0.2]","[u'black', u'blue', u'red']","[u'left', u'middle', u'right']","[0.8, 0.4, 0.2]","[u'low', u'medium', u'high']","red",51,"right","high","True","False",275,5700,NA
"A2XHNHSBAHOGHZ","Mon Nov 02 2020 04:57:06 GMT-0800 (Pacific Standard Time)","Mon Nov 02 2020 05:11:16 GMT-0800 (Pacific Standard Time)","Mozilla/5.0 (Windows NT 10.0; Win64; x64) AppleWebKit/537.36 (KHTML, like Gecko) Chrome/86.0.4240.111 Safari/537.36",121,"[0.9, 0.5, 0.1]","[0.8, 0.4, 0.2]","[u'black', u'blue', u'red']","[u'left', u'middle', u'right']","[0.8, 0.4, 0.2]","[u'high', u'low', u'medium']","blue",50,"middle","low","False","False",703,5650,NA
"A2XHNHSBAHOGHZ","Mon Nov 02 2020 04:57:06 GMT-0800 (Pacific Standard Time)","Mon Nov 02 2020 05:11:16 GMT-0800 (Pacific Standard Time)","Mozilla/5.0 (Windows NT 10.0; Win64; x64) AppleWebKit/537.36 (KHTML, like Gecko) Chrome/86.0.4240.111 Safari/537.36",122,"[0.9, 0.5, 0.1]","[0.8, 0.4, 0.2]","[u'black', u'blue', u'red']","[u'left', u'middle', u'right']","[0.8, 0.4, 0.2]","[u'high', u'low', u'medium']","red",51,"right","medium","True","False",282,5750,NA
"A2XHNHSBAHOGHZ","Mon Nov 02 2020 04:57:06 GMT-0800 (Pacific Standard Time)","Mon Nov 02 2020 05:11:16 GMT-0800 (Pacific Standard Time)","Mozilla/5.0 (Windows NT 10.0; Win64; x64) AppleWebKit/537.36 (KHTML, like Gecko) Chrome/86.0.4240.111 Safari/537.36",123,"[0.9, 0.5, 0.1]","[0.8, 0.4, 0.2]","[u'black', u'blue', u'red']","[u'left', u'middle', u'right']","[0.8, 0.4, 0.2]","[u'high', u'low', u'medium']","red",51,"right","medium","False","False",386,5700,NA
"A2XHNHSBAHOGHZ","Mon Nov 02 2020 04:57:06 GMT-0800 (Pacific Standard Time)","Mon Nov 02 2020 05:11:16 GMT-0800 (Pacific Standard Time)","Mozilla/5.0 (Windows NT 10.0; Win64; x64) AppleWebKit/537.36 (KHTML, like Gecko) Chrome/86.0.4240.111 Safari/537.36",124,"[0.9, 0.5, 0.1]","[0.8, 0.4, 0.2]","[u'black', u'blue', u'red']","[u'left', u'middle', u'right']","[0.8, 0.4, 0.2]","[u'high', u'low', u'medium']","black",49,"left","high","True","False",636,5800,NA
"A2XHNHSBAHOGHZ","Mon Nov 02 2020 04:57:06 GMT-0800 (Pacific Standard Time)","Mon Nov 02 2020 05:11:16 GMT-0800 (Pacific Standard Time)","Mozilla/5.0 (Windows NT 10.0; Win64; x64) AppleWebKit/537.36 (KHTML, like Gecko) Chrome/86.0.4240.111 Safari/537.36",125,"[0.9, 0.5, 0.1]","[0.8, 0.4, 0.2]","[u'black', u'blue', u'red']","[u'left', u'middle', u'right']","[0.8, 0.4, 0.2]","[u'high', u'low', u'medium']","black",49,"left","high","True","False",733,5900,NA
"A2XHNHSBAHOGHZ","Mon Nov 02 2020 04:57:06 GMT-0800 (Pacific Standard Time)","Mon Nov 02 2020 05:11:16 GMT-0800 (Pacific Standard Time)","Mozilla/5.0 (Windows NT 10.0; Win64; x64) AppleWebKit/537.36 (KHTML, like Gecko) Chrome/86.0.4240.111 Safari/537.36",126,"[0.9, 0.5, 0.1]","[0.8, 0.4, 0.2]","[u'black', u'blue', u'red']","[u'left', u'middle', u'right']","[0.8, 0.4, 0.2]","[u'high', u'low', u'medium']","black",49,"left","high","False","False",7480,5850,NA
"A2XHNHSBAHOGHZ","Mon Nov 02 2020 04:57:06 GMT-0800 (Pacific Standard Time)","Mon Nov 02 2020 05:11:16 GMT-0800 (Pacific Standard Time)","Mozilla/5.0 (Windows NT 10.0; Win64; x64) AppleWebKit/537.36 (KHTML, like Gecko) Chrome/86.0.4240.111 Safari/537.36",127,"[0.9, 0.5, 0.1]","[0.8, 0.4, 0.2]","[u'black', u'blue', u'red']","[u'left', u'middle', u'right']","[0.8, 0.4, 0.2]","[u'high', u'low', u'medium']","blue",50,"middle","low","False","False",323,5800,NA
"A2XHNHSBAHOGHZ","Mon Nov 02 2020 04:57:06 GMT-0800 (Pacific Standard Time)","Mon Nov 02 2020 05:11:16 GMT-0800 (Pacific Standard Time)","Mozilla/5.0 (Windows NT 10.0; Win64; x64) AppleWebKit/537.36 (KHTML, like Gecko) Chrome/86.0.4240.111 Safari/537.36",128,"[0.9, 0.5, 0.1]","[0.8, 0.4, 0.2]","[u'black', u'blue', u'red']","[u'left', u'middle', u'right']","[0.8, 0.4, 0.2]","[u'high', u'low', u'medium']","red",51,"right","medium","True","False",299,5900,NA
"A2XHNHSBAHOGHZ","Mon Nov 02 2020 04:57:06 GMT-0800 (Pacific Standard Time)","Mon Nov 02 2020 05:11:16 GMT-0800 (Pacific Standard Time)","Mozilla/5.0 (Windows NT 10.0; Win64; x64) AppleWebKit/537.36 (KHTML, like Gecko) Chrome/86.0.4240.111 Safari/537.36",129,"[0.9, 0.5, 0.1]","[0.8, 0.4, 0.2]","[u'black', u'blue', u'red']","[u'left', u'middle', u'right']","[0.8, 0.4, 0.2]","[u'high', u'low', u'medium']","red",51,"right","medium","True","False",179,6000,NA
"A2XHNHSBAHOGHZ","Mon Nov 02 2020 04:57:06 GMT-0800 (Pacific Standard Time)","Mon Nov 02 2020 05:11:16 GMT-0800 (Pacific Standard Time)","Mozilla/5.0 (Windows NT 10.0; Win64; x64) AppleWebKit/537.36 (KHTML, like Gecko) Chrome/86.0.4240.111 Safari/537.36",130,"[0.9, 0.5, 0.1]","[0.8, 0.4, 0.2]","[u'black', u'blue', u'red']","[u'left', u'middle', u'right']","[0.8, 0.4, 0.2]","[u'high', u'low', u'medium']","red",51,"right","medium","True","False",232,6100,NA
"A2XHNHSBAHOGHZ","Mon Nov 02 2020 04:57:06 GMT-0800 (Pacific Standard Time)","Mon Nov 02 2020 05:11:16 GMT-0800 (Pacific Standard Time)","Mozilla/5.0 (Windows NT 10.0; Win64; x64) AppleWebKit/537.36 (KHTML, like Gecko) Chrome/86.0.4240.111 Safari/537.36",131,"[0.9, 0.5, 0.1]","[0.8, 0.4, 0.2]","[u'black', u'blue', u'red']","[u'left', u'middle', u'right']","[0.8, 0.4, 0.2]","[u'high', u'low', u'medium']","red",51,"right","medium","False","False",834,6050,NA
"A2XHNHSBAHOGHZ","Mon Nov 02 2020 04:57:06 GMT-0800 (Pacific Standard Time)","Mon Nov 02 2020 05:11:16 GMT-0800 (Pacific Standard Time)","Mozilla/5.0 (Windows NT 10.0; Win64; x64) AppleWebKit/537.36 (KHTML, like Gecko) Chrome/86.0.4240.111 Safari/537.36",132,"[0.9, 0.5, 0.1]","[0.8, 0.4, 0.2]","[u'black', u'blue', u'red']","[u'left', u'middle', u'right']","[0.8, 0.4, 0.2]","[u'high', u'low', u'medium']","black",49,"left","high","False","False",247,6000,NA
"A2XHNHSBAHOGHZ","Mon Nov 02 2020 04:57:06 GMT-0800 (Pacific Standard Time)","Mon Nov 02 2020 05:11:16 GMT-0800 (Pacific Standard Time)","Mozilla/5.0 (Windows NT 10.0; Win64; x64) AppleWebKit/537.36 (KHTML, like Gecko) Chrome/86.0.4240.111 Safari/537.36",133,"[0.9, 0.5, 0.1]","[0.8, 0.4, 0.2]","[u'black', u'blue', u'red']","[u'left', u'middle', u'right']","[0.8, 0.4, 0.2]","[u'high', u'low', u'medium']","blue",50,"middle","low","True","False",127,6100,NA
"A2XHNHSBAHOGHZ","Mon Nov 02 2020 04:57:06 GMT-0800 (Pacific Standard Time)","Mon Nov 02 2020 05:11:16 GMT-0800 (Pacific Standard Time)","Mozilla/5.0 (Windows NT 10.0; Win64; x64) AppleWebKit/537.36 (KHTML, like Gecko) Chrome/86.0.4240.111 Safari/537.36",134,"[0.9, 0.5, 0.1]","[0.8, 0.4, 0.2]","[u'black', u'blue', u'red']","[u'left', u'middle', u'right']","[0.8, 0.4, 0.2]","[u'high', u'low', u'medium']","blue",50,"middle","low","False","False",106,6050,NA
"A2XHNHSBAHOGHZ","Mon Nov 02 2020 04:57:06 GMT-0800 (Pacific Standard Time)","Mon Nov 02 2020 05:11:16 GMT-0800 (Pacific Standard Time)","Mozilla/5.0 (Windows NT 10.0; Win64; x64) AppleWebKit/537.36 (KHTML, like Gecko) Chrome/86.0.4240.111 Safari/537.36",135,"[0.9, 0.5, 0.1]","[0.8, 0.4, 0.2]","[u'black', u'blue', u'red']","[u'left', u'middle', u'right']","[0.8, 0.4, 0.2]","[u'high', u'low', u'medium']","red",51,"right","medium","True","False",312,6150,NA
"A2XHNHSBAHOGHZ","Mon Nov 02 2020 04:57:06 GMT-0800 (Pacific Standard Time)","Mon Nov 02 2020 05:11:16 GMT-0800 (Pacific Standard Time)","Mozilla/5.0 (Windows NT 10.0; Win64; x64) AppleWebKit/537.36 (KHTML, like Gecko) Chrome/86.0.4240.111 Safari/537.36",136,"[0.9, 0.5, 0.1]","[0.8, 0.4, 0.2]","[u'black', u'blue', u'red']","[u'left', u'middle', u'right']","[0.8, 0.4, 0.2]","[u'high', u'low', u'medium']","red",51,"right","medium","False","False",179,6100,NA
"A2XHNHSBAHOGHZ","Mon Nov 02 2020 04:57:06 GMT-0800 (Pacific Standard Time)","Mon Nov 02 2020 05:11:16 GMT-0800 (Pacific Standard Time)","Mozilla/5.0 (Windows NT 10.0; Win64; x64) AppleWebKit/537.36 (KHTML, like Gecko) Chrome/86.0.4240.111 Safari/537.36",137,"[0.9, 0.5, 0.1]","[0.8, 0.4, 0.2]","[u'black', u'blue', u'red']","[u'left', u'middle', u'right']","[0.8, 0.4, 0.2]","[u'high', u'low', u'medium']","black",49,"left","high","True","False",136,6200,NA
"A2XHNHSBAHOGHZ","Mon Nov 02 2020 04:57:06 GMT-0800 (Pacific Standard Time)","Mon Nov 02 2020 05:11:16 GMT-0800 (Pacific Standard Time)","Mozilla/5.0 (Windows NT 10.0; Win64; x64) AppleWebKit/537.36 (KHTML, like Gecko) Chrome/86.0.4240.111 Safari/537.36",138,"[0.9, 0.5, 0.1]","[0.8, 0.4, 0.2]","[u'black', u'blue', u'red']","[u'left', u'middle', u'right']","[0.8, 0.4, 0.2]","[u'high', u'low', u'medium']","black",49,"left","high","True","False",133,6300,NA
"A2XHNHSBAHOGHZ","Mon Nov 02 2020 04:57:06 GMT-0800 (Pacific Standard Time)","Mon Nov 02 2020 05:11:16 GMT-0800 (Pacific Standard Time)","Mozilla/5.0 (Windows NT 10.0; Win64; x64) AppleWebKit/537.36 (KHTML, like Gecko) Chrome/86.0.4240.111 Safari/537.36",139,"[0.9, 0.5, 0.1]","[0.8, 0.4, 0.2]","[u'black', u'blue', u'red']","[u'left', u'middle', u'right']","[0.8, 0.4, 0.2]","[u'high', u'low', u'medium']","black",49,"left","high","True","False",279,6400,NA
"A2XHNHSBAHOGHZ","Mon Nov 02 2020 04:57:06 GMT-0800 (Pacific Standard Time)","Mon Nov 02 2020 05:11:16 GMT-0800 (Pacific Standard Time)","Mozilla/5.0 (Windows NT 10.0; Win64; x64) AppleWebKit/537.36 (KHTML, like Gecko) Chrome/86.0.4240.111 Safari/537.36",140,"[0.9, 0.5, 0.1]","[0.8, 0.4, 0.2]","[u'black', u'blue', u'red']","[u'left', u'middle', u'right']","[0.8, 0.4, 0.2]","[u'high', u'low', u'medium']","black",49,"left","high","False","False",154,6350,NA
"A2XHNHSBAHOGHZ","Mon Nov 02 2020 04:57:06 GMT-0800 (Pacific Standard Time)","Mon Nov 02 2020 05:11:16 GMT-0800 (Pacific Standard Time)","Mozilla/5.0 (Windows NT 10.0; Win64; x64) AppleWebKit/537.36 (KHTML, like Gecko) Chrome/86.0.4240.111 Safari/537.36",141,"[0.9, 0.5, 0.1]","[0.8, 0.4, 0.2]","[u'black', u'blue', u'red']","[u'left', u'middle', u'right']","[0.8, 0.4, 0.2]","[u'high', u'low', u'medium']","blue",50,"middle","low","False","False",78,6300,NA
"A2XHNHSBAHOGHZ","Mon Nov 02 2020 04:57:06 GMT-0800 (Pacific Standard Time)","Mon Nov 02 2020 05:11:16 GMT-0800 (Pacific Standard Time)","Mozilla/5.0 (Windows NT 10.0; Win64; x64) AppleWebKit/537.36 (KHTML, like Gecko) Chrome/86.0.4240.111 Safari/537.36",142,"[0.9, 0.5, 0.1]","[0.8, 0.4, 0.2]","[u'black', u'blue', u'red']","[u'left', u'middle', u'right']","[0.8, 0.4, 0.2]","[u'high', u'low', u'medium']","red",51,"right","medium","False","False",168,6250,NA
"A2XHNHSBAHOGHZ","Mon Nov 02 2020 04:57:06 GMT-0800 (Pacific Standard Time)","Mon Nov 02 2020 05:11:16 GMT-0800 (Pacific Standard Time)","Mozilla/5.0 (Windows NT 10.0; Win64; x64) AppleWebKit/537.36 (KHTML, like Gecko) Chrome/86.0.4240.111 Safari/537.36",143,"[0.9, 0.5, 0.1]","[0.8, 0.4, 0.2]","[u'black', u'blue', u'red']","[u'left', u'middle', u'right']","[0.8, 0.4, 0.2]","[u'high', u'low', u'medium']","black",49,"left","high","True","False",163,6350,NA
"A2XHNHSBAHOGHZ","Mon Nov 02 2020 04:57:06 GMT-0800 (Pacific Standard Time)","Mon Nov 02 2020 05:11:16 GMT-0800 (Pacific Standard Time)","Mozilla/5.0 (Windows NT 10.0; Win64; x64) AppleWebKit/537.36 (KHTML, like Gecko) Chrome/86.0.4240.111 Safari/537.36",144,"[0.9, 0.5, 0.1]","[0.8, 0.4, 0.2]","[u'black', u'blue', u'red']","[u'left', u'middle', u'right']","[0.8, 0.4, 0.2]","[u'high', u'low', u'medium']","black",49,"left","high","True","False",245,6450,NA
"A2XHNHSBAHOGHZ","Mon Nov 02 2020 04:57:06 GMT-0800 (Pacific Standard Time)","Mon Nov 02 2020 05:11:16 GMT-0800 (Pacific Standard Time)","Mozilla/5.0 (Windows NT 10.0; Win64; x64) AppleWebKit/537.36 (KHTML, like Gecko) Chrome/86.0.4240.111 Safari/537.36",145,"[0.9, 0.5, 0.1]","[0.8, 0.4, 0.2]","[u'black', u'blue', u'red']","[u'left', u'middle', u'right']","[0.8, 0.4, 0.2]","[u'high', u'low', u'medium']","black",49,"left","high","False","False",260,6400,NA
"A2XHNHSBAHOGHZ","Mon Nov 02 2020 04:57:06 GMT-0800 (Pacific Standard Time)","Mon Nov 02 2020 05:11:16 GMT-0800 (Pacific Standard Time)","Mozilla/5.0 (Windows NT 10.0; Win64; x64) AppleWebKit/537.36 (KHTML, like Gecko) Chrome/86.0.4240.111 Safari/537.36",146,"[0.9, 0.5, 0.1]","[0.8, 0.4, 0.2]","[u'black', u'blue', u'red']","[u'left', u'middle', u'right']","[0.8, 0.4, 0.2]","[u'high', u'low', u'medium']","blue",50,"middle","low","False","False",237,6350,NA
"A2XHNHSBAHOGHZ","Mon Nov 02 2020 04:57:06 GMT-0800 (Pacific Standard Time)","Mon Nov 02 2020 05:11:16 GMT-0800 (Pacific Standard Time)","Mozilla/5.0 (Windows NT 10.0; Win64; x64) AppleWebKit/537.36 (KHTML, like Gecko) Chrome/86.0.4240.111 Safari/537.36",147,"[0.9, 0.5, 0.1]","[0.8, 0.4, 0.2]","[u'black', u'blue', u'red']","[u'left', u'middle', u'right']","[0.8, 0.4, 0.2]","[u'high', u'low', u'medium']","red",51,"right","medium","True","False",2105,6450,NA
"A2XHNHSBAHOGHZ","Mon Nov 02 2020 04:57:06 GMT-0800 (Pacific Standard Time)","Mon Nov 02 2020 05:11:16 GMT-0800 (Pacific Standard Time)","Mozilla/5.0 (Windows NT 10.0; Win64; x64) AppleWebKit/537.36 (KHTML, like Gecko) Chrome/86.0.4240.111 Safari/537.36",148,"[0.9, 0.5, 0.1]","[0.8, 0.4, 0.2]","[u'black', u'blue', u'red']","[u'left', u'middle', u'right']","[0.8, 0.4, 0.2]","[u'high', u'low', u'medium']","red",51,"right","medium","True","False",354,6550,NA
"A2XHNHSBAHOGHZ","Mon Nov 02 2020 04:57:06 GMT-0800 (Pacific Standard Time)","Mon Nov 02 2020 05:11:16 GMT-0800 (Pacific Standard Time)","Mozilla/5.0 (Windows NT 10.0; Win64; x64) AppleWebKit/537.36 (KHTML, like Gecko) Chrome/86.0.4240.111 Safari/537.36",149,"[0.9, 0.5, 0.1]","[0.8, 0.4, 0.2]","[u'black', u'blue', u'red']","[u'left', u'middle', u'right']","[0.8, 0.4, 0.2]","[u'high', u'low', u'medium']","red",51,"right","medium","False","False",394,6500,NA
"A2XHNHSBAHOGHZ","Mon Nov 02 2020 04:57:06 GMT-0800 (Pacific Standard Time)","Mon Nov 02 2020 05:11:16 GMT-0800 (Pacific Standard Time)","Mozilla/5.0 (Windows NT 10.0; Win64; x64) AppleWebKit/537.36 (KHTML, like Gecko) Chrome/86.0.4240.111 Safari/537.36",150,"[0.9, 0.5, 0.1]","[0.8, 0.4, 0.2]","[u'black', u'blue', u'red']","[u'left', u'middle', u'right']","[0.8, 0.4, 0.2]","[u'high', u'low', u'medium']","blue",50,"middle","low","False","False",103,6450,NA
"A2XHNHSBAHOGHZ","Mon Nov 02 2020 04:57:06 GMT-0800 (Pacific Standard Time)","Mon Nov 02 2020 05:11:16 GMT-0800 (Pacific Standard Time)","Mozilla/5.0 (Windows NT 10.0; Win64; x64) AppleWebKit/537.36 (KHTML, like Gecko) Chrome/86.0.4240.111 Safari/537.36",151,"[0.9, 0.5, 0.1]","[0.8, 0.4, 0.2]","[u'black', u'blue', u'red']","[u'left', u'middle', u'right']","[0.8, 0.4, 0.2]","[u'high', u'low', u'medium']","black",49,"left","high","True","False",320,6550,NA
"A2XHNHSBAHOGHZ","Mon Nov 02 2020 04:57:06 GMT-0800 (Pacific Standard Time)","Mon Nov 02 2020 05:11:16 GMT-0800 (Pacific Standard Time)","Mozilla/5.0 (Windows NT 10.0; Win64; x64) AppleWebKit/537.36 (KHTML, like Gecko) Chrome/86.0.4240.111 Safari/537.36",152,"[0.9, 0.5, 0.1]","[0.8, 0.4, 0.2]","[u'black', u'blue', u'red']","[u'left', u'middle', u'right']","[0.8, 0.4, 0.2]","[u'high', u'low', u'medium']","black",49,"left","high","True","False",278,6650,NA
"A2XHNHSBAHOGHZ","Mon Nov 02 2020 04:57:06 GMT-0800 (Pacific Standard Time)","Mon Nov 02 2020 05:11:16 GMT-0800 (Pacific Standard Time)","Mozilla/5.0 (Windows NT 10.0; Win64; x64) AppleWebKit/537.36 (KHTML, like Gecko) Chrome/86.0.4240.111 Safari/537.36",153,"[0.9, 0.5, 0.1]","[0.8, 0.4, 0.2]","[u'black', u'blue', u'red']","[u'left', u'middle', u'right']","[0.8, 0.4, 0.2]","[u'high', u'low', u'medium']","black",49,"left","high","False","False",233,6600,NA
"A2XHNHSBAHOGHZ","Mon Nov 02 2020 04:57:06 GMT-0800 (Pacific Standard Time)","Mon Nov 02 2020 05:11:16 GMT-0800 (Pacific Standard Time)","Mozilla/5.0 (Windows NT 10.0; Win64; x64) AppleWebKit/537.36 (KHTML, like Gecko) Chrome/86.0.4240.111 Safari/537.36",154,"[0.9, 0.5, 0.1]","[0.8, 0.4, 0.2]","[u'black', u'blue', u'red']","[u'left', u'middle', u'right']","[0.8, 0.4, 0.2]","[u'high', u'low', u'medium']","blue",50,"middle","low","False","False",350,6550,NA
"A2XHNHSBAHOGHZ","Mon Nov 02 2020 04:57:06 GMT-0800 (Pacific Standard Time)","Mon Nov 02 2020 05:11:16 GMT-0800 (Pacific Standard Time)","Mozilla/5.0 (Windows NT 10.0; Win64; x64) AppleWebKit/537.36 (KHTML, like Gecko) Chrome/86.0.4240.111 Safari/537.36",155,"[0.9, 0.5, 0.1]","[0.8, 0.4, 0.2]","[u'black', u'blue', u'red']","[u'left', u'middle', u'right']","[0.8, 0.4, 0.2]","[u'high', u'low', u'medium']","red",51,"right","medium","False","False",570,6500,NA
"A2XHNHSBAHOGHZ","Mon Nov 02 2020 04:57:06 GMT-0800 (Pacific Standard Time)","Mon Nov 02 2020 05:11:16 GMT-0800 (Pacific Standard Time)","Mozilla/5.0 (Windows NT 10.0; Win64; x64) AppleWebKit/537.36 (KHTML, like Gecko) Chrome/86.0.4240.111 Safari/537.36",156,"[0.9, 0.5, 0.1]","[0.8, 0.4, 0.2]","[u'black', u'blue', u'red']","[u'left', u'middle', u'right']","[0.8, 0.4, 0.2]","[u'high', u'low', u'medium']","black",49,"left","high","True","False",2824,6600,NA
"A2XHNHSBAHOGHZ","Mon Nov 02 2020 04:57:06 GMT-0800 (Pacific Standard Time)","Mon Nov 02 2020 05:11:16 GMT-0800 (Pacific Standard Time)","Mozilla/5.0 (Windows NT 10.0; Win64; x64) AppleWebKit/537.36 (KHTML, like Gecko) Chrome/86.0.4240.111 Safari/537.36",157,"[0.9, 0.5, 0.1]","[0.8, 0.4, 0.2]","[u'black', u'blue', u'red']","[u'left', u'middle', u'right']","[0.8, 0.4, 0.2]","[u'high', u'low', u'medium']","blue",50,"middle","low","True","False",5119,6700,NA
"A2XHNHSBAHOGHZ","Mon Nov 02 2020 04:57:06 GMT-0800 (Pacific Standard Time)","Mon Nov 02 2020 05:11:16 GMT-0800 (Pacific Standard Time)","Mozilla/5.0 (Windows NT 10.0; Win64; x64) AppleWebKit/537.36 (KHTML, like Gecko) Chrome/86.0.4240.111 Safari/537.36",158,"[0.9, 0.5, 0.1]","[0.8, 0.4, 0.2]","[u'black', u'blue', u'red']","[u'left', u'middle', u'right']","[0.8, 0.4, 0.2]","[u'high', u'low', u'medium']","blue",50,"middle","low","False","False",270,6650,NA
"A2XHNHSBAHOGHZ","Mon Nov 02 2020 04:57:06 GMT-0800 (Pacific Standard Time)","Mon Nov 02 2020 05:11:16 GMT-0800 (Pacific Standard Time)","Mozilla/5.0 (Windows NT 10.0; Win64; x64) AppleWebKit/537.36 (KHTML, like Gecko) Chrome/86.0.4240.111 Safari/537.36",159,"[0.9, 0.5, 0.1]","[0.8, 0.4, 0.2]","[u'black', u'blue', u'red']","[u'left', u'middle', u'right']","[0.8, 0.4, 0.2]","[u'high', u'low', u'medium']","red",51,"right","medium","False","False",10,6600,NA
"A2XHNHSBAHOGHZ","Mon Nov 02 2020 04:57:06 GMT-0800 (Pacific Standard Time)","Mon Nov 02 2020 05:11:16 GMT-0800 (Pacific Standard Time)","Mozilla/5.0 (Windows NT 10.0; Win64; x64) AppleWebKit/537.36 (KHTML, like Gecko) Chrome/86.0.4240.111 Safari/537.36",160,"[0.9, 0.5, 0.1]","[0.8, 0.4, 0.2]","[u'black', u'blue', u'red']","[u'left', u'middle', u'right']","[0.8, 0.4, 0.2]","[u'high', u'low', u'medium']","black",49,"left","high","False","False",1679,6550,NA
