"src_subject_id","start_time","end_time","browser","index","first_half_probabilities","second_half_probabilities","deck_color","deck_position","deck_probabilities","deck_contingencies","response_color","key_press","response_position","response_probability","reward_type","trial_type","rt","reward_tally","exclusion_reason"
"A1Y9ICY1SOTRI9","Mon Nov 02 2020 12:59:24 GMT-0600 (Central Standard Time)","Mon Nov 02 2020 13:07:40 GMT-0600 (Central Standard Time)","Mozilla/5.0 (Macintosh; Intel Mac OS X 10_11_6) AppleWebKit/537.36 (KHTML, like Gecko) Chrome/86.0.4240.111 Safari/537.36",1,"[0.9, 0.5, 0.1]","[0.8, 0.4, 0.2]","[u'red', u'blue', u'black']","[u'left', u'middle', u'right']","[0.9, 0.5, 0.1]","[u'low', u'high', u'medium']","red",49,"left","low","False","False",921,-50,NA
"A1Y9ICY1SOTRI9","Mon Nov 02 2020 12:59:24 GMT-0600 (Central Standard Time)","Mon Nov 02 2020 13:07:40 GMT-0600 (Central Standard Time)","Mozilla/5.0 (Macintosh; Intel Mac OS X 10_11_6) AppleWebKit/537.36 (KHTML, like Gecko) Chrome/86.0.4240.111 Safari/537.36",2,"[0.9, 0.5, 0.1]","[0.8, 0.4, 0.2]","[u'red', u'blue', u'black']","[u'left', u'middle', u'right']","[0.9, 0.5, 0.1]","[u'low', u'high', u'medium']","red",49,"left","low","True","False",1026,50,NA
"A1Y9ICY1SOTRI9","Mon Nov 02 2020 12:59:24 GMT-0600 (Central Standard Time)","Mon Nov 02 2020 13:07:40 GMT-0600 (Central Standard Time)","Mozilla/5.0 (Macintosh; Intel Mac OS X 10_11_6) AppleWebKit/537.36 (KHTML, like Gecko) Chrome/86.0.4240.111 Safari/537.36",3,"[0.9, 0.5, 0.1]","[0.8, 0.4, 0.2]","[u'red', u'blue', u'black']","[u'left', u'middle', u'right']","[0.9, 0.5, 0.1]","[u'low', u'high', u'medium']","red",49,"left","low","False","False",519,0,NA
"A1Y9ICY1SOTRI9","Mon Nov 02 2020 12:59:24 GMT-0600 (Central Standard Time)","Mon Nov 02 2020 13:07:40 GMT-0600 (Central Standard Time)","Mozilla/5.0 (Macintosh; Intel Mac OS X 10_11_6) AppleWebKit/537.36 (KHTML, like Gecko) Chrome/86.0.4240.111 Safari/537.36",4,"[0.9, 0.5, 0.1]","[0.8, 0.4, 0.2]","[u'red', u'blue', u'black']","[u'left', u'middle', u'right']","[0.9, 0.5, 0.1]","[u'low', u'high', u'medium']","red",49,"left","low","False","False",2123,-50,NA
"A1Y9ICY1SOTRI9","Mon Nov 02 2020 12:59:24 GMT-0600 (Central Standard Time)","Mon Nov 02 2020 13:07:40 GMT-0600 (Central Standard Time)","Mozilla/5.0 (Macintosh; Intel Mac OS X 10_11_6) AppleWebKit/537.36 (KHTML, like Gecko) Chrome/86.0.4240.111 Safari/537.36",5,"[0.9, 0.5, 0.1]","[0.8, 0.4, 0.2]","[u'red', u'blue', u'black']","[u'left', u'middle', u'right']","[0.9, 0.5, 0.1]","[u'low', u'high', u'medium']","blue",50,"middle","high","True","False",352,50,NA
"A1Y9ICY1SOTRI9","Mon Nov 02 2020 12:59:24 GMT-0600 (Central Standard Time)","Mon Nov 02 2020 13:07:40 GMT-0600 (Central Standard Time)","Mozilla/5.0 (Macintosh; Intel Mac OS X 10_11_6) AppleWebKit/537.36 (KHTML, like Gecko) Chrome/86.0.4240.111 Safari/537.36",6,"[0.9, 0.5, 0.1]","[0.8, 0.4, 0.2]","[u'red', u'blue', u'black']","[u'left', u'middle', u'right']","[0.9, 0.5, 0.1]","[u'low', u'high', u'medium']","black",51,"right","medium","True","False",1187,150,NA
"A1Y9ICY1SOTRI9","Mon Nov 02 2020 12:59:24 GMT-0600 (Central Standard Time)","Mon Nov 02 2020 13:07:40 GMT-0600 (Central Standard Time)","Mozilla/5.0 (Macintosh; Intel Mac OS X 10_11_6) AppleWebKit/537.36 (KHTML, like Gecko) Chrome/86.0.4240.111 Safari/537.36",7,"[0.9, 0.5, 0.1]","[0.8, 0.4, 0.2]","[u'red', u'blue', u'black']","[u'left', u'middle', u'right']","[0.9, 0.5, 0.1]","[u'low', u'high', u'medium']","blue",50,"middle","high","False","False",936,100,NA
"A1Y9ICY1SOTRI9","Mon Nov 02 2020 12:59:24 GMT-0600 (Central Standard Time)","Mon Nov 02 2020 13:07:40 GMT-0600 (Central Standard Time)","Mozilla/5.0 (Macintosh; Intel Mac OS X 10_11_6) AppleWebKit/537.36 (KHTML, like Gecko) Chrome/86.0.4240.111 Safari/537.36",8,"[0.9, 0.5, 0.1]","[0.8, 0.4, 0.2]","[u'red', u'blue', u'black']","[u'left', u'middle', u'right']","[0.9, 0.5, 0.1]","[u'low', u'high', u'medium']","red",49,"left","low","False","False",371,50,NA
"A1Y9ICY1SOTRI9","Mon Nov 02 2020 12:59:24 GMT-0600 (Central Standard Time)","Mon Nov 02 2020 13:07:40 GMT-0600 (Central Standard Time)","Mozilla/5.0 (Macintosh; Intel Mac OS X 10_11_6) AppleWebKit/537.36 (KHTML, like Gecko) Chrome/86.0.4240.111 Safari/537.36",9,"[0.9, 0.5, 0.1]","[0.8, 0.4, 0.2]","[u'red', u'blue', u'black']","[u'left', u'middle', u'right']","[0.9, 0.5, 0.1]","[u'low', u'high', u'medium']","blue",50,"middle","high","True","False",335,150,NA
"A1Y9ICY1SOTRI9","Mon Nov 02 2020 12:59:24 GMT-0600 (Central Standard Time)","Mon Nov 02 2020 13:07:40 GMT-0600 (Central Standard Time)","Mozilla/5.0 (Macintosh; Intel Mac OS X 10_11_6) AppleWebKit/537.36 (KHTML, like Gecko) Chrome/86.0.4240.111 Safari/537.36",10,"[0.9, 0.5, 0.1]","[0.8, 0.4, 0.2]","[u'red', u'blue', u'black']","[u'left', u'middle', u'right']","[0.9, 0.5, 0.1]","[u'low', u'high', u'medium']","red",49,"left","low","False","False",386,100,NA
"A1Y9ICY1SOTRI9","Mon Nov 02 2020 12:59:24 GMT-0600 (Central Standard Time)","Mon Nov 02 2020 13:07:40 GMT-0600 (Central Standard Time)","Mozilla/5.0 (Macintosh; Intel Mac OS X 10_11_6) AppleWebKit/537.36 (KHTML, like Gecko) Chrome/86.0.4240.111 Safari/537.36",11,"[0.9, 0.5, 0.1]","[0.8, 0.4, 0.2]","[u'red', u'blue', u'black']","[u'left', u'middle', u'right']","[0.9, 0.5, 0.1]","[u'low', u'high', u'medium']","black",51,"right","medium","False","False",346,50,NA
"A1Y9ICY1SOTRI9","Mon Nov 02 2020 12:59:24 GMT-0600 (Central Standard Time)","Mon Nov 02 2020 13:07:40 GMT-0600 (Central Standard Time)","Mozilla/5.0 (Macintosh; Intel Mac OS X 10_11_6) AppleWebKit/537.36 (KHTML, like Gecko) Chrome/86.0.4240.111 Safari/537.36",12,"[0.9, 0.5, 0.1]","[0.8, 0.4, 0.2]","[u'red', u'blue', u'black']","[u'left', u'middle', u'right']","[0.9, 0.5, 0.1]","[u'low', u'high', u'medium']","black",51,"right","medium","False","False",335,0,NA
"A1Y9ICY1SOTRI9","Mon Nov 02 2020 12:59:24 GMT-0600 (Central Standard Time)","Mon Nov 02 2020 13:07:40 GMT-0600 (Central Standard Time)","Mozilla/5.0 (Macintosh; Intel Mac OS X 10_11_6) AppleWebKit/537.36 (KHTML, like Gecko) Chrome/86.0.4240.111 Safari/537.36",13,"[0.9, 0.5, 0.1]","[0.8, 0.4, 0.2]","[u'red', u'blue', u'black']","[u'left', u'middle', u'right']","[0.9, 0.5, 0.1]","[u'low', u'high', u'medium']","red",49,"left","low","False","False",281,-50,NA
"A1Y9ICY1SOTRI9","Mon Nov 02 2020 12:59:24 GMT-0600 (Central Standard Time)","Mon Nov 02 2020 13:07:40 GMT-0600 (Central Standard Time)","Mozilla/5.0 (Macintosh; Intel Mac OS X 10_11_6) AppleWebKit/537.36 (KHTML, like Gecko) Chrome/86.0.4240.111 Safari/537.36",14,"[0.9, 0.5, 0.1]","[0.8, 0.4, 0.2]","[u'red', u'blue', u'black']","[u'left', u'middle', u'right']","[0.9, 0.5, 0.1]","[u'low', u'high', u'medium']","blue",50,"middle","high","False","False",303,-100,NA
"A1Y9ICY1SOTRI9","Mon Nov 02 2020 12:59:24 GMT-0600 (Central Standard Time)","Mon Nov 02 2020 13:07:40 GMT-0600 (Central Standard Time)","Mozilla/5.0 (Macintosh; Intel Mac OS X 10_11_6) AppleWebKit/537.36 (KHTML, like Gecko) Chrome/86.0.4240.111 Safari/537.36",15,"[0.9, 0.5, 0.1]","[0.8, 0.4, 0.2]","[u'red', u'blue', u'black']","[u'left', u'middle', u'right']","[0.9, 0.5, 0.1]","[u'low', u'high', u'medium']","blue",50,"middle","high","True","False",267,0,NA
"A1Y9ICY1SOTRI9","Mon Nov 02 2020 12:59:24 GMT-0600 (Central Standard Time)","Mon Nov 02 2020 13:07:40 GMT-0600 (Central Standard Time)","Mozilla/5.0 (Macintosh; Intel Mac OS X 10_11_6) AppleWebKit/537.36 (KHTML, like Gecko) Chrome/86.0.4240.111 Safari/537.36",16,"[0.9, 0.5, 0.1]","[0.8, 0.4, 0.2]","[u'red', u'blue', u'black']","[u'left', u'middle', u'right']","[0.9, 0.5, 0.1]","[u'low', u'high', u'medium']","blue",50,"middle","high","True","False",585,100,NA
"A1Y9ICY1SOTRI9","Mon Nov 02 2020 12:59:24 GMT-0600 (Central Standard Time)","Mon Nov 02 2020 13:07:40 GMT-0600 (Central Standard Time)","Mozilla/5.0 (Macintosh; Intel Mac OS X 10_11_6) AppleWebKit/537.36 (KHTML, like Gecko) Chrome/86.0.4240.111 Safari/537.36",17,"[0.9, 0.5, 0.1]","[0.8, 0.4, 0.2]","[u'red', u'blue', u'black']","[u'left', u'middle', u'right']","[0.9, 0.5, 0.1]","[u'low', u'high', u'medium']","blue",50,"middle","high","True","False",391,200,NA
"A1Y9ICY1SOTRI9","Mon Nov 02 2020 12:59:24 GMT-0600 (Central Standard Time)","Mon Nov 02 2020 13:07:40 GMT-0600 (Central Standard Time)","Mozilla/5.0 (Macintosh; Intel Mac OS X 10_11_6) AppleWebKit/537.36 (KHTML, like Gecko) Chrome/86.0.4240.111 Safari/537.36",18,"[0.9, 0.5, 0.1]","[0.8, 0.4, 0.2]","[u'red', u'blue', u'black']","[u'left', u'middle', u'right']","[0.9, 0.5, 0.1]","[u'low', u'high', u'medium']","blue",50,"middle","high","False","False",424,150,NA
"A1Y9ICY1SOTRI9","Mon Nov 02 2020 12:59:24 GMT-0600 (Central Standard Time)","Mon Nov 02 2020 13:07:40 GMT-0600 (Central Standard Time)","Mozilla/5.0 (Macintosh; Intel Mac OS X 10_11_6) AppleWebKit/537.36 (KHTML, like Gecko) Chrome/86.0.4240.111 Safari/537.36",19,"[0.9, 0.5, 0.1]","[0.8, 0.4, 0.2]","[u'red', u'blue', u'black']","[u'left', u'middle', u'right']","[0.9, 0.5, 0.1]","[u'low', u'high', u'medium']","blue",50,"middle","high","False","False",881,100,NA
"A1Y9ICY1SOTRI9","Mon Nov 02 2020 12:59:24 GMT-0600 (Central Standard Time)","Mon Nov 02 2020 13:07:40 GMT-0600 (Central Standard Time)","Mozilla/5.0 (Macintosh; Intel Mac OS X 10_11_6) AppleWebKit/537.36 (KHTML, like Gecko) Chrome/86.0.4240.111 Safari/537.36",20,"[0.9, 0.5, 0.1]","[0.8, 0.4, 0.2]","[u'red', u'blue', u'black']","[u'left', u'middle', u'right']","[0.9, 0.5, 0.1]","[u'low', u'high', u'medium']","red",49,"left","low","False","False",450,50,NA
"A1Y9ICY1SOTRI9","Mon Nov 02 2020 12:59:24 GMT-0600 (Central Standard Time)","Mon Nov 02 2020 13:07:40 GMT-0600 (Central Standard Time)","Mozilla/5.0 (Macintosh; Intel Mac OS X 10_11_6) AppleWebKit/537.36 (KHTML, like Gecko) Chrome/86.0.4240.111 Safari/537.36",21,"[0.9, 0.5, 0.1]","[0.8, 0.4, 0.2]","[u'red', u'blue', u'black']","[u'left', u'middle', u'right']","[0.9, 0.5, 0.1]","[u'low', u'high', u'medium']","red",49,"left","low","False","False",328,0,NA
"A1Y9ICY1SOTRI9","Mon Nov 02 2020 12:59:24 GMT-0600 (Central Standard Time)","Mon Nov 02 2020 13:07:40 GMT-0600 (Central Standard Time)","Mozilla/5.0 (Macintosh; Intel Mac OS X 10_11_6) AppleWebKit/537.36 (KHTML, like Gecko) Chrome/86.0.4240.111 Safari/537.36",22,"[0.9, 0.5, 0.1]","[0.8, 0.4, 0.2]","[u'red', u'blue', u'black']","[u'left', u'middle', u'right']","[0.9, 0.5, 0.1]","[u'low', u'high', u'medium']","blue",50,"middle","high","True","False",409,100,NA
"A1Y9ICY1SOTRI9","Mon Nov 02 2020 12:59:24 GMT-0600 (Central Standard Time)","Mon Nov 02 2020 13:07:40 GMT-0600 (Central Standard Time)","Mozilla/5.0 (Macintosh; Intel Mac OS X 10_11_6) AppleWebKit/537.36 (KHTML, like Gecko) Chrome/86.0.4240.111 Safari/537.36",23,"[0.9, 0.5, 0.1]","[0.8, 0.4, 0.2]","[u'red', u'blue', u'black']","[u'left', u'middle', u'right']","[0.9, 0.5, 0.1]","[u'low', u'high', u'medium']","blue",50,"middle","high","True","False",448,200,NA
"A1Y9ICY1SOTRI9","Mon Nov 02 2020 12:59:24 GMT-0600 (Central Standard Time)","Mon Nov 02 2020 13:07:40 GMT-0600 (Central Standard Time)","Mozilla/5.0 (Macintosh; Intel Mac OS X 10_11_6) AppleWebKit/537.36 (KHTML, like Gecko) Chrome/86.0.4240.111 Safari/537.36",24,"[0.9, 0.5, 0.1]","[0.8, 0.4, 0.2]","[u'red', u'blue', u'black']","[u'left', u'middle', u'right']","[0.9, 0.5, 0.1]","[u'low', u'high', u'medium']","blue",50,"middle","high","True","False",352,300,NA
"A1Y9ICY1SOTRI9","Mon Nov 02 2020 12:59:24 GMT-0600 (Central Standard Time)","Mon Nov 02 2020 13:07:40 GMT-0600 (Central Standard Time)","Mozilla/5.0 (Macintosh; Intel Mac OS X 10_11_6) AppleWebKit/537.36 (KHTML, like Gecko) Chrome/86.0.4240.111 Safari/537.36",25,"[0.9, 0.5, 0.1]","[0.8, 0.4, 0.2]","[u'red', u'blue', u'black']","[u'left', u'middle', u'right']","[0.9, 0.5, 0.1]","[u'low', u'high', u'medium']","blue",50,"middle","high","True","False",315,400,NA
"A1Y9ICY1SOTRI9","Mon Nov 02 2020 12:59:24 GMT-0600 (Central Standard Time)","Mon Nov 02 2020 13:07:40 GMT-0600 (Central Standard Time)","Mozilla/5.0 (Macintosh; Intel Mac OS X 10_11_6) AppleWebKit/537.36 (KHTML, like Gecko) Chrome/86.0.4240.111 Safari/537.36",26,"[0.9, 0.5, 0.1]","[0.8, 0.4, 0.2]","[u'red', u'blue', u'black']","[u'left', u'middle', u'right']","[0.9, 0.5, 0.1]","[u'low', u'high', u'medium']","blue",50,"middle","high","True","False",338,500,NA
"A1Y9ICY1SOTRI9","Mon Nov 02 2020 12:59:24 GMT-0600 (Central Standard Time)","Mon Nov 02 2020 13:07:40 GMT-0600 (Central Standard Time)","Mozilla/5.0 (Macintosh; Intel Mac OS X 10_11_6) AppleWebKit/537.36 (KHTML, like Gecko) Chrome/86.0.4240.111 Safari/537.36",27,"[0.9, 0.5, 0.1]","[0.8, 0.4, 0.2]","[u'red', u'blue', u'black']","[u'left', u'middle', u'right']","[0.9, 0.5, 0.1]","[u'low', u'high', u'medium']","blue",50,"middle","high","True","False",321,600,NA
"A1Y9ICY1SOTRI9","Mon Nov 02 2020 12:59:24 GMT-0600 (Central Standard Time)","Mon Nov 02 2020 13:07:40 GMT-0600 (Central Standard Time)","Mozilla/5.0 (Macintosh; Intel Mac OS X 10_11_6) AppleWebKit/537.36 (KHTML, like Gecko) Chrome/86.0.4240.111 Safari/537.36",28,"[0.9, 0.5, 0.1]","[0.8, 0.4, 0.2]","[u'red', u'blue', u'black']","[u'left', u'middle', u'right']","[0.9, 0.5, 0.1]","[u'low', u'high', u'medium']","blue",50,"middle","high","True","False",283,700,NA
"A1Y9ICY1SOTRI9","Mon Nov 02 2020 12:59:24 GMT-0600 (Central Standard Time)","Mon Nov 02 2020 13:07:40 GMT-0600 (Central Standard Time)","Mozilla/5.0 (Macintosh; Intel Mac OS X 10_11_6) AppleWebKit/537.36 (KHTML, like Gecko) Chrome/86.0.4240.111 Safari/537.36",29,"[0.9, 0.5, 0.1]","[0.8, 0.4, 0.2]","[u'red', u'blue', u'black']","[u'left', u'middle', u'right']","[0.9, 0.5, 0.1]","[u'low', u'high', u'medium']","blue",50,"middle","high","True","False",235,800,NA
"A1Y9ICY1SOTRI9","Mon Nov 02 2020 12:59:24 GMT-0600 (Central Standard Time)","Mon Nov 02 2020 13:07:40 GMT-0600 (Central Standard Time)","Mozilla/5.0 (Macintosh; Intel Mac OS X 10_11_6) AppleWebKit/537.36 (KHTML, like Gecko) Chrome/86.0.4240.111 Safari/537.36",30,"[0.9, 0.5, 0.1]","[0.8, 0.4, 0.2]","[u'red', u'blue', u'black']","[u'left', u'middle', u'right']","[0.9, 0.5, 0.1]","[u'low', u'high', u'medium']","blue",50,"middle","high","True","True",241,900,NA
"A1Y9ICY1SOTRI9","Mon Nov 02 2020 12:59:24 GMT-0600 (Central Standard Time)","Mon Nov 02 2020 13:07:40 GMT-0600 (Central Standard Time)","Mozilla/5.0 (Macintosh; Intel Mac OS X 10_11_6) AppleWebKit/537.36 (KHTML, like Gecko) Chrome/86.0.4240.111 Safari/537.36",31,"[0.9, 0.5, 0.1]","[0.8, 0.4, 0.2]","[u'red', u'blue', u'black']","[u'left', u'middle', u'right']","[0.9, 0.5, 0.1]","[u'high', u'low', u'medium']","blue",50,"middle","low","False","False",530,850,NA
"A1Y9ICY1SOTRI9","Mon Nov 02 2020 12:59:24 GMT-0600 (Central Standard Time)","Mon Nov 02 2020 13:07:40 GMT-0600 (Central Standard Time)","Mozilla/5.0 (Macintosh; Intel Mac OS X 10_11_6) AppleWebKit/537.36 (KHTML, like Gecko) Chrome/86.0.4240.111 Safari/537.36",32,"[0.9, 0.5, 0.1]","[0.8, 0.4, 0.2]","[u'red', u'blue', u'black']","[u'left', u'middle', u'right']","[0.9, 0.5, 0.1]","[u'high', u'low', u'medium']","blue",50,"middle","low","False","False",384,800,NA
"A1Y9ICY1SOTRI9","Mon Nov 02 2020 12:59:24 GMT-0600 (Central Standard Time)","Mon Nov 02 2020 13:07:40 GMT-0600 (Central Standard Time)","Mozilla/5.0 (Macintosh; Intel Mac OS X 10_11_6) AppleWebKit/537.36 (KHTML, like Gecko) Chrome/86.0.4240.111 Safari/537.36",33,"[0.9, 0.5, 0.1]","[0.8, 0.4, 0.2]","[u'red', u'blue', u'black']","[u'left', u'middle', u'right']","[0.9, 0.5, 0.1]","[u'high', u'low', u'medium']","blue",50,"middle","low","False","False",344,750,NA
"A1Y9ICY1SOTRI9","Mon Nov 02 2020 12:59:24 GMT-0600 (Central Standard Time)","Mon Nov 02 2020 13:07:40 GMT-0600 (Central Standard Time)","Mozilla/5.0 (Macintosh; Intel Mac OS X 10_11_6) AppleWebKit/537.36 (KHTML, like Gecko) Chrome/86.0.4240.111 Safari/537.36",34,"[0.9, 0.5, 0.1]","[0.8, 0.4, 0.2]","[u'red', u'blue', u'black']","[u'left', u'middle', u'right']","[0.9, 0.5, 0.1]","[u'high', u'low', u'medium']","blue",50,"middle","low","False","False",419,700,NA
"A1Y9ICY1SOTRI9","Mon Nov 02 2020 12:59:24 GMT-0600 (Central Standard Time)","Mon Nov 02 2020 13:07:40 GMT-0600 (Central Standard Time)","Mozilla/5.0 (Macintosh; Intel Mac OS X 10_11_6) AppleWebKit/537.36 (KHTML, like Gecko) Chrome/86.0.4240.111 Safari/537.36",35,"[0.9, 0.5, 0.1]","[0.8, 0.4, 0.2]","[u'red', u'blue', u'black']","[u'left', u'middle', u'right']","[0.9, 0.5, 0.1]","[u'high', u'low', u'medium']","blue",50,"middle","low","True","False",840,800,NA
"A1Y9ICY1SOTRI9","Mon Nov 02 2020 12:59:24 GMT-0600 (Central Standard Time)","Mon Nov 02 2020 13:07:40 GMT-0600 (Central Standard Time)","Mozilla/5.0 (Macintosh; Intel Mac OS X 10_11_6) AppleWebKit/537.36 (KHTML, like Gecko) Chrome/86.0.4240.111 Safari/537.36",36,"[0.9, 0.5, 0.1]","[0.8, 0.4, 0.2]","[u'red', u'blue', u'black']","[u'left', u'middle', u'right']","[0.9, 0.5, 0.1]","[u'high', u'low', u'medium']","blue",50,"middle","low","False","False",345,750,NA
"A1Y9ICY1SOTRI9","Mon Nov 02 2020 12:59:24 GMT-0600 (Central Standard Time)","Mon Nov 02 2020 13:07:40 GMT-0600 (Central Standard Time)","Mozilla/5.0 (Macintosh; Intel Mac OS X 10_11_6) AppleWebKit/537.36 (KHTML, like Gecko) Chrome/86.0.4240.111 Safari/537.36",37,"[0.9, 0.5, 0.1]","[0.8, 0.4, 0.2]","[u'red', u'blue', u'black']","[u'left', u'middle', u'right']","[0.9, 0.5, 0.1]","[u'high', u'low', u'medium']","blue",50,"middle","low","True","False",307,850,NA
"A1Y9ICY1SOTRI9","Mon Nov 02 2020 12:59:24 GMT-0600 (Central Standard Time)","Mon Nov 02 2020 13:07:40 GMT-0600 (Central Standard Time)","Mozilla/5.0 (Macintosh; Intel Mac OS X 10_11_6) AppleWebKit/537.36 (KHTML, like Gecko) Chrome/86.0.4240.111 Safari/537.36",38,"[0.9, 0.5, 0.1]","[0.8, 0.4, 0.2]","[u'red', u'blue', u'black']","[u'left', u'middle', u'right']","[0.9, 0.5, 0.1]","[u'high', u'low', u'medium']","blue",50,"middle","low","False","False",621,800,NA
"A1Y9ICY1SOTRI9","Mon Nov 02 2020 12:59:24 GMT-0600 (Central Standard Time)","Mon Nov 02 2020 13:07:40 GMT-0600 (Central Standard Time)","Mozilla/5.0 (Macintosh; Intel Mac OS X 10_11_6) AppleWebKit/537.36 (KHTML, like Gecko) Chrome/86.0.4240.111 Safari/537.36",39,"[0.9, 0.5, 0.1]","[0.8, 0.4, 0.2]","[u'red', u'blue', u'black']","[u'left', u'middle', u'right']","[0.9, 0.5, 0.1]","[u'high', u'low', u'medium']","blue",50,"middle","low","False","False",147,750,NA
"A1Y9ICY1SOTRI9","Mon Nov 02 2020 12:59:24 GMT-0600 (Central Standard Time)","Mon Nov 02 2020 13:07:40 GMT-0600 (Central Standard Time)","Mozilla/5.0 (Macintosh; Intel Mac OS X 10_11_6) AppleWebKit/537.36 (KHTML, like Gecko) Chrome/86.0.4240.111 Safari/537.36",40,"[0.9, 0.5, 0.1]","[0.8, 0.4, 0.2]","[u'red', u'blue', u'black']","[u'left', u'middle', u'right']","[0.9, 0.5, 0.1]","[u'high', u'low', u'medium']","blue",50,"middle","low","False","False",392,700,NA
"A1Y9ICY1SOTRI9","Mon Nov 02 2020 12:59:24 GMT-0600 (Central Standard Time)","Mon Nov 02 2020 13:07:40 GMT-0600 (Central Standard Time)","Mozilla/5.0 (Macintosh; Intel Mac OS X 10_11_6) AppleWebKit/537.36 (KHTML, like Gecko) Chrome/86.0.4240.111 Safari/537.36",41,"[0.9, 0.5, 0.1]","[0.8, 0.4, 0.2]","[u'red', u'blue', u'black']","[u'left', u'middle', u'right']","[0.9, 0.5, 0.1]","[u'low', u'medium', u'high']","blue",50,"middle","medium","True","False",15134,800,NA
"A1Y9ICY1SOTRI9","Mon Nov 02 2020 12:59:24 GMT-0600 (Central Standard Time)","Mon Nov 02 2020 13:07:40 GMT-0600 (Central Standard Time)","Mozilla/5.0 (Macintosh; Intel Mac OS X 10_11_6) AppleWebKit/537.36 (KHTML, like Gecko) Chrome/86.0.4240.111 Safari/537.36",42,"[0.9, 0.5, 0.1]","[0.8, 0.4, 0.2]","[u'red', u'blue', u'black']","[u'left', u'middle', u'right']","[0.9, 0.5, 0.1]","[u'low', u'medium', u'high']","red",49,"left","low","False","False",411,750,NA
"A1Y9ICY1SOTRI9","Mon Nov 02 2020 12:59:24 GMT-0600 (Central Standard Time)","Mon Nov 02 2020 13:07:40 GMT-0600 (Central Standard Time)","Mozilla/5.0 (Macintosh; Intel Mac OS X 10_11_6) AppleWebKit/537.36 (KHTML, like Gecko) Chrome/86.0.4240.111 Safari/537.36",43,"[0.9, 0.5, 0.1]","[0.8, 0.4, 0.2]","[u'red', u'blue', u'black']","[u'left', u'middle', u'right']","[0.9, 0.5, 0.1]","[u'low', u'medium', u'high']","red",49,"left","low","False","False",531,700,NA
"A1Y9ICY1SOTRI9","Mon Nov 02 2020 12:59:24 GMT-0600 (Central Standard Time)","Mon Nov 02 2020 13:07:40 GMT-0600 (Central Standard Time)","Mozilla/5.0 (Macintosh; Intel Mac OS X 10_11_6) AppleWebKit/537.36 (KHTML, like Gecko) Chrome/86.0.4240.111 Safari/537.36",44,"[0.9, 0.5, 0.1]","[0.8, 0.4, 0.2]","[u'red', u'blue', u'black']","[u'left', u'middle', u'right']","[0.9, 0.5, 0.1]","[u'low', u'medium', u'high']","red",49,"left","low","False","False",314,650,NA
"A1Y9ICY1SOTRI9","Mon Nov 02 2020 12:59:24 GMT-0600 (Central Standard Time)","Mon Nov 02 2020 13:07:40 GMT-0600 (Central Standard Time)","Mozilla/5.0 (Macintosh; Intel Mac OS X 10_11_6) AppleWebKit/537.36 (KHTML, like Gecko) Chrome/86.0.4240.111 Safari/537.36",45,"[0.9, 0.5, 0.1]","[0.8, 0.4, 0.2]","[u'red', u'blue', u'black']","[u'left', u'middle', u'right']","[0.9, 0.5, 0.1]","[u'low', u'medium', u'high']","blue",50,"middle","medium","False","False",314,600,NA
"A1Y9ICY1SOTRI9","Mon Nov 02 2020 12:59:24 GMT-0600 (Central Standard Time)","Mon Nov 02 2020 13:07:40 GMT-0600 (Central Standard Time)","Mozilla/5.0 (Macintosh; Intel Mac OS X 10_11_6) AppleWebKit/537.36 (KHTML, like Gecko) Chrome/86.0.4240.111 Safari/537.36",46,"[0.9, 0.5, 0.1]","[0.8, 0.4, 0.2]","[u'red', u'blue', u'black']","[u'left', u'middle', u'right']","[0.9, 0.5, 0.1]","[u'low', u'medium', u'high']","black",51,"right","high","True","False",201,700,NA
"A1Y9ICY1SOTRI9","Mon Nov 02 2020 12:59:24 GMT-0600 (Central Standard Time)","Mon Nov 02 2020 13:07:40 GMT-0600 (Central Standard Time)","Mozilla/5.0 (Macintosh; Intel Mac OS X 10_11_6) AppleWebKit/537.36 (KHTML, like Gecko) Chrome/86.0.4240.111 Safari/537.36",47,"[0.9, 0.5, 0.1]","[0.8, 0.4, 0.2]","[u'red', u'blue', u'black']","[u'left', u'middle', u'right']","[0.9, 0.5, 0.1]","[u'low', u'medium', u'high']","black",51,"right","high","True","False",299,800,NA
"A1Y9ICY1SOTRI9","Mon Nov 02 2020 12:59:24 GMT-0600 (Central Standard Time)","Mon Nov 02 2020 13:07:40 GMT-0600 (Central Standard Time)","Mozilla/5.0 (Macintosh; Intel Mac OS X 10_11_6) AppleWebKit/537.36 (KHTML, like Gecko) Chrome/86.0.4240.111 Safari/537.36",48,"[0.9, 0.5, 0.1]","[0.8, 0.4, 0.2]","[u'red', u'blue', u'black']","[u'left', u'middle', u'right']","[0.9, 0.5, 0.1]","[u'low', u'medium', u'high']","blue",50,"middle","medium","False","False",619,750,NA
"A1Y9ICY1SOTRI9","Mon Nov 02 2020 12:59:24 GMT-0600 (Central Standard Time)","Mon Nov 02 2020 13:07:40 GMT-0600 (Central Standard Time)","Mozilla/5.0 (Macintosh; Intel Mac OS X 10_11_6) AppleWebKit/537.36 (KHTML, like Gecko) Chrome/86.0.4240.111 Safari/537.36",49,"[0.9, 0.5, 0.1]","[0.8, 0.4, 0.2]","[u'red', u'blue', u'black']","[u'left', u'middle', u'right']","[0.9, 0.5, 0.1]","[u'low', u'medium', u'high']","black",51,"right","high","True","False",279,850,NA
"A1Y9ICY1SOTRI9","Mon Nov 02 2020 12:59:24 GMT-0600 (Central Standard Time)","Mon Nov 02 2020 13:07:40 GMT-0600 (Central Standard Time)","Mozilla/5.0 (Macintosh; Intel Mac OS X 10_11_6) AppleWebKit/537.36 (KHTML, like Gecko) Chrome/86.0.4240.111 Safari/537.36",50,"[0.9, 0.5, 0.1]","[0.8, 0.4, 0.2]","[u'red', u'blue', u'black']","[u'left', u'middle', u'right']","[0.9, 0.5, 0.1]","[u'low', u'medium', u'high']","black",51,"right","high","True","False",257,950,NA
"A1Y9ICY1SOTRI9","Mon Nov 02 2020 12:59:24 GMT-0600 (Central Standard Time)","Mon Nov 02 2020 13:07:40 GMT-0600 (Central Standard Time)","Mozilla/5.0 (Macintosh; Intel Mac OS X 10_11_6) AppleWebKit/537.36 (KHTML, like Gecko) Chrome/86.0.4240.111 Safari/537.36",51,"[0.9, 0.5, 0.1]","[0.8, 0.4, 0.2]","[u'red', u'blue', u'black']","[u'left', u'middle', u'right']","[0.9, 0.5, 0.1]","[u'low', u'medium', u'high']","black",51,"right","high","True","False",259,1050,NA
"A1Y9ICY1SOTRI9","Mon Nov 02 2020 12:59:24 GMT-0600 (Central Standard Time)","Mon Nov 02 2020 13:07:40 GMT-0600 (Central Standard Time)","Mozilla/5.0 (Macintosh; Intel Mac OS X 10_11_6) AppleWebKit/537.36 (KHTML, like Gecko) Chrome/86.0.4240.111 Safari/537.36",52,"[0.9, 0.5, 0.1]","[0.8, 0.4, 0.2]","[u'red', u'blue', u'black']","[u'left', u'middle', u'right']","[0.9, 0.5, 0.1]","[u'low', u'medium', u'high']","black",51,"right","high","True","False",83,1150,NA
"A1Y9ICY1SOTRI9","Mon Nov 02 2020 12:59:24 GMT-0600 (Central Standard Time)","Mon Nov 02 2020 13:07:40 GMT-0600 (Central Standard Time)","Mozilla/5.0 (Macintosh; Intel Mac OS X 10_11_6) AppleWebKit/537.36 (KHTML, like Gecko) Chrome/86.0.4240.111 Safari/537.36",53,"[0.9, 0.5, 0.1]","[0.8, 0.4, 0.2]","[u'red', u'blue', u'black']","[u'left', u'middle', u'right']","[0.9, 0.5, 0.1]","[u'low', u'medium', u'high']","black",51,"right","high","True","False",3,1250,NA
"A1Y9ICY1SOTRI9","Mon Nov 02 2020 12:59:24 GMT-0600 (Central Standard Time)","Mon Nov 02 2020 13:07:40 GMT-0600 (Central Standard Time)","Mozilla/5.0 (Macintosh; Intel Mac OS X 10_11_6) AppleWebKit/537.36 (KHTML, like Gecko) Chrome/86.0.4240.111 Safari/537.36",54,"[0.9, 0.5, 0.1]","[0.8, 0.4, 0.2]","[u'red', u'blue', u'black']","[u'left', u'middle', u'right']","[0.9, 0.5, 0.1]","[u'low', u'medium', u'high']","black",51,"right","high","True","False",571,1350,NA
"A1Y9ICY1SOTRI9","Mon Nov 02 2020 12:59:24 GMT-0600 (Central Standard Time)","Mon Nov 02 2020 13:07:40 GMT-0600 (Central Standard Time)","Mozilla/5.0 (Macintosh; Intel Mac OS X 10_11_6) AppleWebKit/537.36 (KHTML, like Gecko) Chrome/86.0.4240.111 Safari/537.36",55,"[0.9, 0.5, 0.1]","[0.8, 0.4, 0.2]","[u'red', u'blue', u'black']","[u'left', u'middle', u'right']","[0.9, 0.5, 0.1]","[u'low', u'medium', u'high']","black",51,"right","high","True","True",498,1450,NA
"A1Y9ICY1SOTRI9","Mon Nov 02 2020 12:59:24 GMT-0600 (Central Standard Time)","Mon Nov 02 2020 13:07:40 GMT-0600 (Central Standard Time)","Mozilla/5.0 (Macintosh; Intel Mac OS X 10_11_6) AppleWebKit/537.36 (KHTML, like Gecko) Chrome/86.0.4240.111 Safari/537.36",56,"[0.9, 0.5, 0.1]","[0.8, 0.4, 0.2]","[u'red', u'blue', u'black']","[u'left', u'middle', u'right']","[0.9, 0.5, 0.1]","[u'low', u'high', u'medium']","black",51,"right","medium","True","False",275,1550,NA
"A1Y9ICY1SOTRI9","Mon Nov 02 2020 12:59:24 GMT-0600 (Central Standard Time)","Mon Nov 02 2020 13:07:40 GMT-0600 (Central Standard Time)","Mozilla/5.0 (Macintosh; Intel Mac OS X 10_11_6) AppleWebKit/537.36 (KHTML, like Gecko) Chrome/86.0.4240.111 Safari/537.36",57,"[0.9, 0.5, 0.1]","[0.8, 0.4, 0.2]","[u'red', u'blue', u'black']","[u'left', u'middle', u'right']","[0.9, 0.5, 0.1]","[u'low', u'high', u'medium']","black",51,"right","medium","True","False",418,1650,NA
"A1Y9ICY1SOTRI9","Mon Nov 02 2020 12:59:24 GMT-0600 (Central Standard Time)","Mon Nov 02 2020 13:07:40 GMT-0600 (Central Standard Time)","Mozilla/5.0 (Macintosh; Intel Mac OS X 10_11_6) AppleWebKit/537.36 (KHTML, like Gecko) Chrome/86.0.4240.111 Safari/537.36",58,"[0.9, 0.5, 0.1]","[0.8, 0.4, 0.2]","[u'red', u'blue', u'black']","[u'left', u'middle', u'right']","[0.9, 0.5, 0.1]","[u'low', u'high', u'medium']","black",51,"right","medium","False","False",302,1600,NA
"A1Y9ICY1SOTRI9","Mon Nov 02 2020 12:59:24 GMT-0600 (Central Standard Time)","Mon Nov 02 2020 13:07:40 GMT-0600 (Central Standard Time)","Mozilla/5.0 (Macintosh; Intel Mac OS X 10_11_6) AppleWebKit/537.36 (KHTML, like Gecko) Chrome/86.0.4240.111 Safari/537.36",59,"[0.9, 0.5, 0.1]","[0.8, 0.4, 0.2]","[u'red', u'blue', u'black']","[u'left', u'middle', u'right']","[0.9, 0.5, 0.1]","[u'low', u'high', u'medium']","black",51,"right","medium","False","False",839,1550,NA
"A1Y9ICY1SOTRI9","Mon Nov 02 2020 12:59:24 GMT-0600 (Central Standard Time)","Mon Nov 02 2020 13:07:40 GMT-0600 (Central Standard Time)","Mozilla/5.0 (Macintosh; Intel Mac OS X 10_11_6) AppleWebKit/537.36 (KHTML, like Gecko) Chrome/86.0.4240.111 Safari/537.36",60,"[0.9, 0.5, 0.1]","[0.8, 0.4, 0.2]","[u'red', u'blue', u'black']","[u'left', u'middle', u'right']","[0.9, 0.5, 0.1]","[u'low', u'high', u'medium']","black",51,"right","medium","False","False",427,1500,NA
"A1Y9ICY1SOTRI9","Mon Nov 02 2020 12:59:24 GMT-0600 (Central Standard Time)","Mon Nov 02 2020 13:07:40 GMT-0600 (Central Standard Time)","Mozilla/5.0 (Macintosh; Intel Mac OS X 10_11_6) AppleWebKit/537.36 (KHTML, like Gecko) Chrome/86.0.4240.111 Safari/537.36",61,"[0.9, 0.5, 0.1]","[0.8, 0.4, 0.2]","[u'red', u'blue', u'black']","[u'left', u'middle', u'right']","[0.9, 0.5, 0.1]","[u'low', u'high', u'medium']","black",51,"right","medium","False","False",347,1450,NA
"A1Y9ICY1SOTRI9","Mon Nov 02 2020 12:59:24 GMT-0600 (Central Standard Time)","Mon Nov 02 2020 13:07:40 GMT-0600 (Central Standard Time)","Mozilla/5.0 (Macintosh; Intel Mac OS X 10_11_6) AppleWebKit/537.36 (KHTML, like Gecko) Chrome/86.0.4240.111 Safari/537.36",62,"[0.9, 0.5, 0.1]","[0.8, 0.4, 0.2]","[u'red', u'blue', u'black']","[u'left', u'middle', u'right']","[0.9, 0.5, 0.1]","[u'low', u'high', u'medium']","blue",50,"middle","high","True","False",475,1550,NA
"A1Y9ICY1SOTRI9","Mon Nov 02 2020 12:59:24 GMT-0600 (Central Standard Time)","Mon Nov 02 2020 13:07:40 GMT-0600 (Central Standard Time)","Mozilla/5.0 (Macintosh; Intel Mac OS X 10_11_6) AppleWebKit/537.36 (KHTML, like Gecko) Chrome/86.0.4240.111 Safari/537.36",63,"[0.9, 0.5, 0.1]","[0.8, 0.4, 0.2]","[u'red', u'blue', u'black']","[u'left', u'middle', u'right']","[0.9, 0.5, 0.1]","[u'low', u'high', u'medium']","black",51,"right","medium","False","False",500,1500,NA
"A1Y9ICY1SOTRI9","Mon Nov 02 2020 12:59:24 GMT-0600 (Central Standard Time)","Mon Nov 02 2020 13:07:40 GMT-0600 (Central Standard Time)","Mozilla/5.0 (Macintosh; Intel Mac OS X 10_11_6) AppleWebKit/537.36 (KHTML, like Gecko) Chrome/86.0.4240.111 Safari/537.36",64,"[0.9, 0.5, 0.1]","[0.8, 0.4, 0.2]","[u'red', u'blue', u'black']","[u'left', u'middle', u'right']","[0.9, 0.5, 0.1]","[u'low', u'high', u'medium']","blue",50,"middle","high","True","False",255,1600,NA
"A1Y9ICY1SOTRI9","Mon Nov 02 2020 12:59:24 GMT-0600 (Central Standard Time)","Mon Nov 02 2020 13:07:40 GMT-0600 (Central Standard Time)","Mozilla/5.0 (Macintosh; Intel Mac OS X 10_11_6) AppleWebKit/537.36 (KHTML, like Gecko) Chrome/86.0.4240.111 Safari/537.36",65,"[0.9, 0.5, 0.1]","[0.8, 0.4, 0.2]","[u'red', u'blue', u'black']","[u'left', u'middle', u'right']","[0.9, 0.5, 0.1]","[u'low', u'high', u'medium']","blue",50,"middle","high","True","False",369,1700,NA
"A1Y9ICY1SOTRI9","Mon Nov 02 2020 12:59:24 GMT-0600 (Central Standard Time)","Mon Nov 02 2020 13:07:40 GMT-0600 (Central Standard Time)","Mozilla/5.0 (Macintosh; Intel Mac OS X 10_11_6) AppleWebKit/537.36 (KHTML, like Gecko) Chrome/86.0.4240.111 Safari/537.36",66,"[0.9, 0.5, 0.1]","[0.8, 0.4, 0.2]","[u'red', u'blue', u'black']","[u'left', u'middle', u'right']","[0.9, 0.5, 0.1]","[u'low', u'high', u'medium']","blue",50,"middle","high","False","False",285,1650,NA
"A1Y9ICY1SOTRI9","Mon Nov 02 2020 12:59:24 GMT-0600 (Central Standard Time)","Mon Nov 02 2020 13:07:40 GMT-0600 (Central Standard Time)","Mozilla/5.0 (Macintosh; Intel Mac OS X 10_11_6) AppleWebKit/537.36 (KHTML, like Gecko) Chrome/86.0.4240.111 Safari/537.36",67,"[0.9, 0.5, 0.1]","[0.8, 0.4, 0.2]","[u'red', u'blue', u'black']","[u'left', u'middle', u'right']","[0.9, 0.5, 0.1]","[u'low', u'high', u'medium']","black",51,"right","medium","True","False",366,1750,NA
"A1Y9ICY1SOTRI9","Mon Nov 02 2020 12:59:24 GMT-0600 (Central Standard Time)","Mon Nov 02 2020 13:07:40 GMT-0600 (Central Standard Time)","Mozilla/5.0 (Macintosh; Intel Mac OS X 10_11_6) AppleWebKit/537.36 (KHTML, like Gecko) Chrome/86.0.4240.111 Safari/537.36",68,"[0.9, 0.5, 0.1]","[0.8, 0.4, 0.2]","[u'red', u'blue', u'black']","[u'left', u'middle', u'right']","[0.9, 0.5, 0.1]","[u'low', u'high', u'medium']","black",51,"right","medium","False","False",20,1700,NA
"A1Y9ICY1SOTRI9","Mon Nov 02 2020 12:59:24 GMT-0600 (Central Standard Time)","Mon Nov 02 2020 13:07:40 GMT-0600 (Central Standard Time)","Mozilla/5.0 (Macintosh; Intel Mac OS X 10_11_6) AppleWebKit/537.36 (KHTML, like Gecko) Chrome/86.0.4240.111 Safari/537.36",69,"[0.9, 0.5, 0.1]","[0.8, 0.4, 0.2]","[u'red', u'blue', u'black']","[u'left', u'middle', u'right']","[0.9, 0.5, 0.1]","[u'low', u'high', u'medium']","red",49,"left","low","True","False",543,1800,NA
"A1Y9ICY1SOTRI9","Mon Nov 02 2020 12:59:24 GMT-0600 (Central Standard Time)","Mon Nov 02 2020 13:07:40 GMT-0600 (Central Standard Time)","Mozilla/5.0 (Macintosh; Intel Mac OS X 10_11_6) AppleWebKit/537.36 (KHTML, like Gecko) Chrome/86.0.4240.111 Safari/537.36",70,"[0.9, 0.5, 0.1]","[0.8, 0.4, 0.2]","[u'red', u'blue', u'black']","[u'left', u'middle', u'right']","[0.9, 0.5, 0.1]","[u'low', u'high', u'medium']","red",49,"left","low","False","False",342,1750,NA
"A1Y9ICY1SOTRI9","Mon Nov 02 2020 12:59:24 GMT-0600 (Central Standard Time)","Mon Nov 02 2020 13:07:40 GMT-0600 (Central Standard Time)","Mozilla/5.0 (Macintosh; Intel Mac OS X 10_11_6) AppleWebKit/537.36 (KHTML, like Gecko) Chrome/86.0.4240.111 Safari/537.36",71,"[0.9, 0.5, 0.1]","[0.8, 0.4, 0.2]","[u'red', u'blue', u'black']","[u'left', u'middle', u'right']","[0.9, 0.5, 0.1]","[u'low', u'high', u'medium']","black",51,"right","medium","False","False",225,1700,NA
"A1Y9ICY1SOTRI9","Mon Nov 02 2020 12:59:24 GMT-0600 (Central Standard Time)","Mon Nov 02 2020 13:07:40 GMT-0600 (Central Standard Time)","Mozilla/5.0 (Macintosh; Intel Mac OS X 10_11_6) AppleWebKit/537.36 (KHTML, like Gecko) Chrome/86.0.4240.111 Safari/537.36",72,"[0.9, 0.5, 0.1]","[0.8, 0.4, 0.2]","[u'red', u'blue', u'black']","[u'left', u'middle', u'right']","[0.9, 0.5, 0.1]","[u'low', u'high', u'medium']","blue",50,"middle","high","False","False",211,1650,NA
"A1Y9ICY1SOTRI9","Mon Nov 02 2020 12:59:24 GMT-0600 (Central Standard Time)","Mon Nov 02 2020 13:07:40 GMT-0600 (Central Standard Time)","Mozilla/5.0 (Macintosh; Intel Mac OS X 10_11_6) AppleWebKit/537.36 (KHTML, like Gecko) Chrome/86.0.4240.111 Safari/537.36",73,"[0.9, 0.5, 0.1]","[0.8, 0.4, 0.2]","[u'red', u'blue', u'black']","[u'left', u'middle', u'right']","[0.9, 0.5, 0.1]","[u'low', u'high', u'medium']","red",49,"left","low","False","False",270,1600,NA
"A1Y9ICY1SOTRI9","Mon Nov 02 2020 12:59:24 GMT-0600 (Central Standard Time)","Mon Nov 02 2020 13:07:40 GMT-0600 (Central Standard Time)","Mozilla/5.0 (Macintosh; Intel Mac OS X 10_11_6) AppleWebKit/537.36 (KHTML, like Gecko) Chrome/86.0.4240.111 Safari/537.36",74,"[0.9, 0.5, 0.1]","[0.8, 0.4, 0.2]","[u'red', u'blue', u'black']","[u'left', u'middle', u'right']","[0.9, 0.5, 0.1]","[u'low', u'high', u'medium']","red",49,"left","low","False","False",100,1550,NA
"A1Y9ICY1SOTRI9","Mon Nov 02 2020 12:59:24 GMT-0600 (Central Standard Time)","Mon Nov 02 2020 13:07:40 GMT-0600 (Central Standard Time)","Mozilla/5.0 (Macintosh; Intel Mac OS X 10_11_6) AppleWebKit/537.36 (KHTML, like Gecko) Chrome/86.0.4240.111 Safari/537.36",75,"[0.9, 0.5, 0.1]","[0.8, 0.4, 0.2]","[u'red', u'blue', u'black']","[u'left', u'middle', u'right']","[0.9, 0.5, 0.1]","[u'low', u'high', u'medium']","black",51,"right","medium","False","False",402,1500,NA
"A1Y9ICY1SOTRI9","Mon Nov 02 2020 12:59:24 GMT-0600 (Central Standard Time)","Mon Nov 02 2020 13:07:40 GMT-0600 (Central Standard Time)","Mozilla/5.0 (Macintosh; Intel Mac OS X 10_11_6) AppleWebKit/537.36 (KHTML, like Gecko) Chrome/86.0.4240.111 Safari/537.36",76,"[0.9, 0.5, 0.1]","[0.8, 0.4, 0.2]","[u'red', u'blue', u'black']","[u'left', u'middle', u'right']","[0.9, 0.5, 0.1]","[u'low', u'high', u'medium']","black",51,"right","medium","True","False",267,1600,NA
"A1Y9ICY1SOTRI9","Mon Nov 02 2020 12:59:24 GMT-0600 (Central Standard Time)","Mon Nov 02 2020 13:07:40 GMT-0600 (Central Standard Time)","Mozilla/5.0 (Macintosh; Intel Mac OS X 10_11_6) AppleWebKit/537.36 (KHTML, like Gecko) Chrome/86.0.4240.111 Safari/537.36",77,"[0.9, 0.5, 0.1]","[0.8, 0.4, 0.2]","[u'red', u'blue', u'black']","[u'left', u'middle', u'right']","[0.9, 0.5, 0.1]","[u'low', u'high', u'medium']","black",51,"right","medium","True","False",154,1700,NA
"A1Y9ICY1SOTRI9","Mon Nov 02 2020 12:59:24 GMT-0600 (Central Standard Time)","Mon Nov 02 2020 13:07:40 GMT-0600 (Central Standard Time)","Mozilla/5.0 (Macintosh; Intel Mac OS X 10_11_6) AppleWebKit/537.36 (KHTML, like Gecko) Chrome/86.0.4240.111 Safari/537.36",78,"[0.9, 0.5, 0.1]","[0.8, 0.4, 0.2]","[u'red', u'blue', u'black']","[u'left', u'middle', u'right']","[0.9, 0.5, 0.1]","[u'low', u'high', u'medium']","black",51,"right","medium","False","False",68,1650,NA
"A1Y9ICY1SOTRI9","Mon Nov 02 2020 12:59:24 GMT-0600 (Central Standard Time)","Mon Nov 02 2020 13:07:40 GMT-0600 (Central Standard Time)","Mozilla/5.0 (Macintosh; Intel Mac OS X 10_11_6) AppleWebKit/537.36 (KHTML, like Gecko) Chrome/86.0.4240.111 Safari/537.36",79,"[0.9, 0.5, 0.1]","[0.8, 0.4, 0.2]","[u'red', u'blue', u'black']","[u'left', u'middle', u'right']","[0.9, 0.5, 0.1]","[u'low', u'high', u'medium']","blue",50,"middle","high","True","False",372,1750,NA
"A1Y9ICY1SOTRI9","Mon Nov 02 2020 12:59:24 GMT-0600 (Central Standard Time)","Mon Nov 02 2020 13:07:40 GMT-0600 (Central Standard Time)","Mozilla/5.0 (Macintosh; Intel Mac OS X 10_11_6) AppleWebKit/537.36 (KHTML, like Gecko) Chrome/86.0.4240.111 Safari/537.36",80,"[0.9, 0.5, 0.1]","[0.8, 0.4, 0.2]","[u'red', u'blue', u'black']","[u'left', u'middle', u'right']","[0.9, 0.5, 0.1]","[u'low', u'high', u'medium']","blue",50,"middle","high","True","False",242,1850,NA
"A1Y9ICY1SOTRI9","Mon Nov 02 2020 12:59:24 GMT-0600 (Central Standard Time)","Mon Nov 02 2020 13:07:40 GMT-0600 (Central Standard Time)","Mozilla/5.0 (Macintosh; Intel Mac OS X 10_11_6) AppleWebKit/537.36 (KHTML, like Gecko) Chrome/86.0.4240.111 Safari/537.36",81,"[0.9, 0.5, 0.1]","[0.8, 0.4, 0.2]","[u'red', u'blue', u'black']","[u'left', u'middle', u'right']","[0.8, 0.4, 0.2]","[u'high', u'low', u'medium']","red",49,"left","high","True","False",4971,1950,NA
"A1Y9ICY1SOTRI9","Mon Nov 02 2020 12:59:24 GMT-0600 (Central Standard Time)","Mon Nov 02 2020 13:07:40 GMT-0600 (Central Standard Time)","Mozilla/5.0 (Macintosh; Intel Mac OS X 10_11_6) AppleWebKit/537.36 (KHTML, like Gecko) Chrome/86.0.4240.111 Safari/537.36",82,"[0.9, 0.5, 0.1]","[0.8, 0.4, 0.2]","[u'red', u'blue', u'black']","[u'left', u'middle', u'right']","[0.8, 0.4, 0.2]","[u'high', u'low', u'medium']","red",49,"left","high","True","False",359,2050,NA
"A1Y9ICY1SOTRI9","Mon Nov 02 2020 12:59:24 GMT-0600 (Central Standard Time)","Mon Nov 02 2020 13:07:40 GMT-0600 (Central Standard Time)","Mozilla/5.0 (Macintosh; Intel Mac OS X 10_11_6) AppleWebKit/537.36 (KHTML, like Gecko) Chrome/86.0.4240.111 Safari/537.36",83,"[0.9, 0.5, 0.1]","[0.8, 0.4, 0.2]","[u'red', u'blue', u'black']","[u'left', u'middle', u'right']","[0.8, 0.4, 0.2]","[u'high', u'low', u'medium']","black",51,"right","medium","False","False",521,2000,NA
"A1Y9ICY1SOTRI9","Mon Nov 02 2020 12:59:24 GMT-0600 (Central Standard Time)","Mon Nov 02 2020 13:07:40 GMT-0600 (Central Standard Time)","Mozilla/5.0 (Macintosh; Intel Mac OS X 10_11_6) AppleWebKit/537.36 (KHTML, like Gecko) Chrome/86.0.4240.111 Safari/537.36",84,"[0.9, 0.5, 0.1]","[0.8, 0.4, 0.2]","[u'red', u'blue', u'black']","[u'left', u'middle', u'right']","[0.8, 0.4, 0.2]","[u'high', u'low', u'medium']","black",51,"right","medium","False","False",489,1950,NA
"A1Y9ICY1SOTRI9","Mon Nov 02 2020 12:59:24 GMT-0600 (Central Standard Time)","Mon Nov 02 2020 13:07:40 GMT-0600 (Central Standard Time)","Mozilla/5.0 (Macintosh; Intel Mac OS X 10_11_6) AppleWebKit/537.36 (KHTML, like Gecko) Chrome/86.0.4240.111 Safari/537.36",85,"[0.9, 0.5, 0.1]","[0.8, 0.4, 0.2]","[u'red', u'blue', u'black']","[u'left', u'middle', u'right']","[0.8, 0.4, 0.2]","[u'high', u'low', u'medium']","blue",50,"middle","low","False","False",420,1900,NA
"A1Y9ICY1SOTRI9","Mon Nov 02 2020 12:59:24 GMT-0600 (Central Standard Time)","Mon Nov 02 2020 13:07:40 GMT-0600 (Central Standard Time)","Mozilla/5.0 (Macintosh; Intel Mac OS X 10_11_6) AppleWebKit/537.36 (KHTML, like Gecko) Chrome/86.0.4240.111 Safari/537.36",86,"[0.9, 0.5, 0.1]","[0.8, 0.4, 0.2]","[u'red', u'blue', u'black']","[u'left', u'middle', u'right']","[0.8, 0.4, 0.2]","[u'high', u'low', u'medium']","blue",50,"middle","low","False","False",277,1850,NA
"A1Y9ICY1SOTRI9","Mon Nov 02 2020 12:59:24 GMT-0600 (Central Standard Time)","Mon Nov 02 2020 13:07:40 GMT-0600 (Central Standard Time)","Mozilla/5.0 (Macintosh; Intel Mac OS X 10_11_6) AppleWebKit/537.36 (KHTML, like Gecko) Chrome/86.0.4240.111 Safari/537.36",87,"[0.9, 0.5, 0.1]","[0.8, 0.4, 0.2]","[u'red', u'blue', u'black']","[u'left', u'middle', u'right']","[0.8, 0.4, 0.2]","[u'high', u'low', u'medium']","red",49,"left","high","True","False",368,1950,NA
"A1Y9ICY1SOTRI9","Mon Nov 02 2020 12:59:24 GMT-0600 (Central Standard Time)","Mon Nov 02 2020 13:07:40 GMT-0600 (Central Standard Time)","Mozilla/5.0 (Macintosh; Intel Mac OS X 10_11_6) AppleWebKit/537.36 (KHTML, like Gecko) Chrome/86.0.4240.111 Safari/537.36",88,"[0.9, 0.5, 0.1]","[0.8, 0.4, 0.2]","[u'red', u'blue', u'black']","[u'left', u'middle', u'right']","[0.8, 0.4, 0.2]","[u'high', u'low', u'medium']","red",49,"left","high","False","False",215,1900,NA
"A1Y9ICY1SOTRI9","Mon Nov 02 2020 12:59:24 GMT-0600 (Central Standard Time)","Mon Nov 02 2020 13:07:40 GMT-0600 (Central Standard Time)","Mozilla/5.0 (Macintosh; Intel Mac OS X 10_11_6) AppleWebKit/537.36 (KHTML, like Gecko) Chrome/86.0.4240.111 Safari/537.36",89,"[0.9, 0.5, 0.1]","[0.8, 0.4, 0.2]","[u'red', u'blue', u'black']","[u'left', u'middle', u'right']","[0.8, 0.4, 0.2]","[u'high', u'low', u'medium']","blue",50,"middle","low","True","False",751,2000,NA
"A1Y9ICY1SOTRI9","Mon Nov 02 2020 12:59:24 GMT-0600 (Central Standard Time)","Mon Nov 02 2020 13:07:40 GMT-0600 (Central Standard Time)","Mozilla/5.0 (Macintosh; Intel Mac OS X 10_11_6) AppleWebKit/537.36 (KHTML, like Gecko) Chrome/86.0.4240.111 Safari/537.36",90,"[0.9, 0.5, 0.1]","[0.8, 0.4, 0.2]","[u'red', u'blue', u'black']","[u'left', u'middle', u'right']","[0.8, 0.4, 0.2]","[u'high', u'low', u'medium']","blue",50,"middle","low","False","False",124,1950,NA
"A1Y9ICY1SOTRI9","Mon Nov 02 2020 12:59:24 GMT-0600 (Central Standard Time)","Mon Nov 02 2020 13:07:40 GMT-0600 (Central Standard Time)","Mozilla/5.0 (Macintosh; Intel Mac OS X 10_11_6) AppleWebKit/537.36 (KHTML, like Gecko) Chrome/86.0.4240.111 Safari/537.36",91,"[0.9, 0.5, 0.1]","[0.8, 0.4, 0.2]","[u'red', u'blue', u'black']","[u'left', u'middle', u'right']","[0.8, 0.4, 0.2]","[u'high', u'low', u'medium']","red",49,"left","high","True","False",26,2050,NA
"A1Y9ICY1SOTRI9","Mon Nov 02 2020 12:59:24 GMT-0600 (Central Standard Time)","Mon Nov 02 2020 13:07:40 GMT-0600 (Central Standard Time)","Mozilla/5.0 (Macintosh; Intel Mac OS X 10_11_6) AppleWebKit/537.36 (KHTML, like Gecko) Chrome/86.0.4240.111 Safari/537.36",92,"[0.9, 0.5, 0.1]","[0.8, 0.4, 0.2]","[u'red', u'blue', u'black']","[u'left', u'middle', u'right']","[0.8, 0.4, 0.2]","[u'high', u'low', u'medium']","red",49,"left","high","True","False",228,2150,NA
"A1Y9ICY1SOTRI9","Mon Nov 02 2020 12:59:24 GMT-0600 (Central Standard Time)","Mon Nov 02 2020 13:07:40 GMT-0600 (Central Standard Time)","Mozilla/5.0 (Macintosh; Intel Mac OS X 10_11_6) AppleWebKit/537.36 (KHTML, like Gecko) Chrome/86.0.4240.111 Safari/537.36",93,"[0.9, 0.5, 0.1]","[0.8, 0.4, 0.2]","[u'red', u'blue', u'black']","[u'left', u'middle', u'right']","[0.8, 0.4, 0.2]","[u'high', u'low', u'medium']","red",49,"left","high","True","False",97,2250,NA
"A1Y9ICY1SOTRI9","Mon Nov 02 2020 12:59:24 GMT-0600 (Central Standard Time)","Mon Nov 02 2020 13:07:40 GMT-0600 (Central Standard Time)","Mozilla/5.0 (Macintosh; Intel Mac OS X 10_11_6) AppleWebKit/537.36 (KHTML, like Gecko) Chrome/86.0.4240.111 Safari/537.36",94,"[0.9, 0.5, 0.1]","[0.8, 0.4, 0.2]","[u'red', u'blue', u'black']","[u'left', u'middle', u'right']","[0.8, 0.4, 0.2]","[u'high', u'low', u'medium']","red",49,"left","high","True","False",592,2350,NA
"A1Y9ICY1SOTRI9","Mon Nov 02 2020 12:59:24 GMT-0600 (Central Standard Time)","Mon Nov 02 2020 13:07:40 GMT-0600 (Central Standard Time)","Mozilla/5.0 (Macintosh; Intel Mac OS X 10_11_6) AppleWebKit/537.36 (KHTML, like Gecko) Chrome/86.0.4240.111 Safari/537.36",95,"[0.9, 0.5, 0.1]","[0.8, 0.4, 0.2]","[u'red', u'blue', u'black']","[u'left', u'middle', u'right']","[0.8, 0.4, 0.2]","[u'high', u'low', u'medium']","red",49,"left","high","True","False",311,2450,NA
"A1Y9ICY1SOTRI9","Mon Nov 02 2020 12:59:24 GMT-0600 (Central Standard Time)","Mon Nov 02 2020 13:07:40 GMT-0600 (Central Standard Time)","Mozilla/5.0 (Macintosh; Intel Mac OS X 10_11_6) AppleWebKit/537.36 (KHTML, like Gecko) Chrome/86.0.4240.111 Safari/537.36",96,"[0.9, 0.5, 0.1]","[0.8, 0.4, 0.2]","[u'red', u'blue', u'black']","[u'left', u'middle', u'right']","[0.8, 0.4, 0.2]","[u'high', u'low', u'medium']","red",49,"left","high","True","False",283,2550,NA
"A1Y9ICY1SOTRI9","Mon Nov 02 2020 12:59:24 GMT-0600 (Central Standard Time)","Mon Nov 02 2020 13:07:40 GMT-0600 (Central Standard Time)","Mozilla/5.0 (Macintosh; Intel Mac OS X 10_11_6) AppleWebKit/537.36 (KHTML, like Gecko) Chrome/86.0.4240.111 Safari/537.36",97,"[0.9, 0.5, 0.1]","[0.8, 0.4, 0.2]","[u'red', u'blue', u'black']","[u'left', u'middle', u'right']","[0.8, 0.4, 0.2]","[u'high', u'low', u'medium']","red",49,"left","high","True","False",220,2650,NA
"A1Y9ICY1SOTRI9","Mon Nov 02 2020 12:59:24 GMT-0600 (Central Standard Time)","Mon Nov 02 2020 13:07:40 GMT-0600 (Central Standard Time)","Mozilla/5.0 (Macintosh; Intel Mac OS X 10_11_6) AppleWebKit/537.36 (KHTML, like Gecko) Chrome/86.0.4240.111 Safari/537.36",98,"[0.9, 0.5, 0.1]","[0.8, 0.4, 0.2]","[u'red', u'blue', u'black']","[u'left', u'middle', u'right']","[0.8, 0.4, 0.2]","[u'high', u'low', u'medium']","red",49,"left","high","True","False",10,2750,NA
"A1Y9ICY1SOTRI9","Mon Nov 02 2020 12:59:24 GMT-0600 (Central Standard Time)","Mon Nov 02 2020 13:07:40 GMT-0600 (Central Standard Time)","Mozilla/5.0 (Macintosh; Intel Mac OS X 10_11_6) AppleWebKit/537.36 (KHTML, like Gecko) Chrome/86.0.4240.111 Safari/537.36",99,"[0.9, 0.5, 0.1]","[0.8, 0.4, 0.2]","[u'red', u'blue', u'black']","[u'left', u'middle', u'right']","[0.8, 0.4, 0.2]","[u'high', u'low', u'medium']","red",49,"left","high","True","True",27,2850,NA
"A1Y9ICY1SOTRI9","Mon Nov 02 2020 12:59:24 GMT-0600 (Central Standard Time)","Mon Nov 02 2020 13:07:40 GMT-0600 (Central Standard Time)","Mozilla/5.0 (Macintosh; Intel Mac OS X 10_11_6) AppleWebKit/537.36 (KHTML, like Gecko) Chrome/86.0.4240.111 Safari/537.36",100,"[0.9, 0.5, 0.1]","[0.8, 0.4, 0.2]","[u'red', u'blue', u'black']","[u'left', u'middle', u'right']","[0.8, 0.4, 0.2]","[u'low', u'medium', u'high']","red",49,"left","low","False","False",415,2800,NA
"A1Y9ICY1SOTRI9","Mon Nov 02 2020 12:59:24 GMT-0600 (Central Standard Time)","Mon Nov 02 2020 13:07:40 GMT-0600 (Central Standard Time)","Mozilla/5.0 (Macintosh; Intel Mac OS X 10_11_6) AppleWebKit/537.36 (KHTML, like Gecko) Chrome/86.0.4240.111 Safari/537.36",101,"[0.9, 0.5, 0.1]","[0.8, 0.4, 0.2]","[u'red', u'blue', u'black']","[u'left', u'middle', u'right']","[0.8, 0.4, 0.2]","[u'low', u'medium', u'high']","red",49,"left","low","False","False",296,2750,NA
"A1Y9ICY1SOTRI9","Mon Nov 02 2020 12:59:24 GMT-0600 (Central Standard Time)","Mon Nov 02 2020 13:07:40 GMT-0600 (Central Standard Time)","Mozilla/5.0 (Macintosh; Intel Mac OS X 10_11_6) AppleWebKit/537.36 (KHTML, like Gecko) Chrome/86.0.4240.111 Safari/537.36",102,"[0.9, 0.5, 0.1]","[0.8, 0.4, 0.2]","[u'red', u'blue', u'black']","[u'left', u'middle', u'right']","[0.8, 0.4, 0.2]","[u'low', u'medium', u'high']","black",51,"right","high","True","False",411,2850,NA
"A1Y9ICY1SOTRI9","Mon Nov 02 2020 12:59:24 GMT-0600 (Central Standard Time)","Mon Nov 02 2020 13:07:40 GMT-0600 (Central Standard Time)","Mozilla/5.0 (Macintosh; Intel Mac OS X 10_11_6) AppleWebKit/537.36 (KHTML, like Gecko) Chrome/86.0.4240.111 Safari/537.36",103,"[0.9, 0.5, 0.1]","[0.8, 0.4, 0.2]","[u'red', u'blue', u'black']","[u'left', u'middle', u'right']","[0.8, 0.4, 0.2]","[u'low', u'medium', u'high']","black",51,"right","high","False","False",355,2800,NA
"A1Y9ICY1SOTRI9","Mon Nov 02 2020 12:59:24 GMT-0600 (Central Standard Time)","Mon Nov 02 2020 13:07:40 GMT-0600 (Central Standard Time)","Mozilla/5.0 (Macintosh; Intel Mac OS X 10_11_6) AppleWebKit/537.36 (KHTML, like Gecko) Chrome/86.0.4240.111 Safari/537.36",104,"[0.9, 0.5, 0.1]","[0.8, 0.4, 0.2]","[u'red', u'blue', u'black']","[u'left', u'middle', u'right']","[0.8, 0.4, 0.2]","[u'low', u'medium', u'high']","blue",50,"middle","medium","True","False",155,2900,NA
"A1Y9ICY1SOTRI9","Mon Nov 02 2020 12:59:24 GMT-0600 (Central Standard Time)","Mon Nov 02 2020 13:07:40 GMT-0600 (Central Standard Time)","Mozilla/5.0 (Macintosh; Intel Mac OS X 10_11_6) AppleWebKit/537.36 (KHTML, like Gecko) Chrome/86.0.4240.111 Safari/537.36",105,"[0.9, 0.5, 0.1]","[0.8, 0.4, 0.2]","[u'red', u'blue', u'black']","[u'left', u'middle', u'right']","[0.8, 0.4, 0.2]","[u'low', u'medium', u'high']","blue",50,"middle","medium","True","False",424,3000,NA
"A1Y9ICY1SOTRI9","Mon Nov 02 2020 12:59:24 GMT-0600 (Central Standard Time)","Mon Nov 02 2020 13:07:40 GMT-0600 (Central Standard Time)","Mozilla/5.0 (Macintosh; Intel Mac OS X 10_11_6) AppleWebKit/537.36 (KHTML, like Gecko) Chrome/86.0.4240.111 Safari/537.36",106,"[0.9, 0.5, 0.1]","[0.8, 0.4, 0.2]","[u'red', u'blue', u'black']","[u'left', u'middle', u'right']","[0.8, 0.4, 0.2]","[u'low', u'medium', u'high']","blue",50,"middle","medium","False","False",216,2950,NA
"A1Y9ICY1SOTRI9","Mon Nov 02 2020 12:59:24 GMT-0600 (Central Standard Time)","Mon Nov 02 2020 13:07:40 GMT-0600 (Central Standard Time)","Mozilla/5.0 (Macintosh; Intel Mac OS X 10_11_6) AppleWebKit/537.36 (KHTML, like Gecko) Chrome/86.0.4240.111 Safari/537.36",107,"[0.9, 0.5, 0.1]","[0.8, 0.4, 0.2]","[u'red', u'blue', u'black']","[u'left', u'middle', u'right']","[0.8, 0.4, 0.2]","[u'low', u'medium', u'high']","red",49,"left","low","False","False",388,2900,NA
"A1Y9ICY1SOTRI9","Mon Nov 02 2020 12:59:24 GMT-0600 (Central Standard Time)","Mon Nov 02 2020 13:07:40 GMT-0600 (Central Standard Time)","Mozilla/5.0 (Macintosh; Intel Mac OS X 10_11_6) AppleWebKit/537.36 (KHTML, like Gecko) Chrome/86.0.4240.111 Safari/537.36",108,"[0.9, 0.5, 0.1]","[0.8, 0.4, 0.2]","[u'red', u'blue', u'black']","[u'left', u'middle', u'right']","[0.8, 0.4, 0.2]","[u'low', u'medium', u'high']","blue",50,"middle","medium","False","False",411,2850,NA
"A1Y9ICY1SOTRI9","Mon Nov 02 2020 12:59:24 GMT-0600 (Central Standard Time)","Mon Nov 02 2020 13:07:40 GMT-0600 (Central Standard Time)","Mozilla/5.0 (Macintosh; Intel Mac OS X 10_11_6) AppleWebKit/537.36 (KHTML, like Gecko) Chrome/86.0.4240.111 Safari/537.36",109,"[0.9, 0.5, 0.1]","[0.8, 0.4, 0.2]","[u'red', u'blue', u'black']","[u'left', u'middle', u'right']","[0.8, 0.4, 0.2]","[u'low', u'medium', u'high']","red",49,"left","low","False","False",127,2800,NA
"A1Y9ICY1SOTRI9","Mon Nov 02 2020 12:59:24 GMT-0600 (Central Standard Time)","Mon Nov 02 2020 13:07:40 GMT-0600 (Central Standard Time)","Mozilla/5.0 (Macintosh; Intel Mac OS X 10_11_6) AppleWebKit/537.36 (KHTML, like Gecko) Chrome/86.0.4240.111 Safari/537.36",110,"[0.9, 0.5, 0.1]","[0.8, 0.4, 0.2]","[u'red', u'blue', u'black']","[u'left', u'middle', u'right']","[0.8, 0.4, 0.2]","[u'low', u'medium', u'high']","red",49,"left","low","True","False",299,2900,NA
"A1Y9ICY1SOTRI9","Mon Nov 02 2020 12:59:24 GMT-0600 (Central Standard Time)","Mon Nov 02 2020 13:07:40 GMT-0600 (Central Standard Time)","Mozilla/5.0 (Macintosh; Intel Mac OS X 10_11_6) AppleWebKit/537.36 (KHTML, like Gecko) Chrome/86.0.4240.111 Safari/537.36",111,"[0.9, 0.5, 0.1]","[0.8, 0.4, 0.2]","[u'red', u'blue', u'black']","[u'left', u'middle', u'right']","[0.8, 0.4, 0.2]","[u'low', u'medium', u'high']","red",49,"left","low","True","False",8,3000,NA
"A1Y9ICY1SOTRI9","Mon Nov 02 2020 12:59:24 GMT-0600 (Central Standard Time)","Mon Nov 02 2020 13:07:40 GMT-0600 (Central Standard Time)","Mozilla/5.0 (Macintosh; Intel Mac OS X 10_11_6) AppleWebKit/537.36 (KHTML, like Gecko) Chrome/86.0.4240.111 Safari/537.36",112,"[0.9, 0.5, 0.1]","[0.8, 0.4, 0.2]","[u'red', u'blue', u'black']","[u'left', u'middle', u'right']","[0.8, 0.4, 0.2]","[u'low', u'medium', u'high']","red",49,"left","low","True","False",56,3100,NA
"A1Y9ICY1SOTRI9","Mon Nov 02 2020 12:59:24 GMT-0600 (Central Standard Time)","Mon Nov 02 2020 13:07:40 GMT-0600 (Central Standard Time)","Mozilla/5.0 (Macintosh; Intel Mac OS X 10_11_6) AppleWebKit/537.36 (KHTML, like Gecko) Chrome/86.0.4240.111 Safari/537.36",113,"[0.9, 0.5, 0.1]","[0.8, 0.4, 0.2]","[u'red', u'blue', u'black']","[u'left', u'middle', u'right']","[0.8, 0.4, 0.2]","[u'low', u'medium', u'high']","red",49,"left","low","True","False",15,3200,NA
"A1Y9ICY1SOTRI9","Mon Nov 02 2020 12:59:24 GMT-0600 (Central Standard Time)","Mon Nov 02 2020 13:07:40 GMT-0600 (Central Standard Time)","Mozilla/5.0 (Macintosh; Intel Mac OS X 10_11_6) AppleWebKit/537.36 (KHTML, like Gecko) Chrome/86.0.4240.111 Safari/537.36",114,"[0.9, 0.5, 0.1]","[0.8, 0.4, 0.2]","[u'red', u'blue', u'black']","[u'left', u'middle', u'right']","[0.8, 0.4, 0.2]","[u'low', u'medium', u'high']","red",49,"left","low","False","False",471,3150,NA
"A1Y9ICY1SOTRI9","Mon Nov 02 2020 12:59:24 GMT-0600 (Central Standard Time)","Mon Nov 02 2020 13:07:40 GMT-0600 (Central Standard Time)","Mozilla/5.0 (Macintosh; Intel Mac OS X 10_11_6) AppleWebKit/537.36 (KHTML, like Gecko) Chrome/86.0.4240.111 Safari/537.36",115,"[0.9, 0.5, 0.1]","[0.8, 0.4, 0.2]","[u'red', u'blue', u'black']","[u'left', u'middle', u'right']","[0.8, 0.4, 0.2]","[u'low', u'medium', u'high']","red",49,"left","low","True","False",347,3250,NA
"A1Y9ICY1SOTRI9","Mon Nov 02 2020 12:59:24 GMT-0600 (Central Standard Time)","Mon Nov 02 2020 13:07:40 GMT-0600 (Central Standard Time)","Mozilla/5.0 (Macintosh; Intel Mac OS X 10_11_6) AppleWebKit/537.36 (KHTML, like Gecko) Chrome/86.0.4240.111 Safari/537.36",116,"[0.9, 0.5, 0.1]","[0.8, 0.4, 0.2]","[u'red', u'blue', u'black']","[u'left', u'middle', u'right']","[0.8, 0.4, 0.2]","[u'low', u'medium', u'high']","red",49,"left","low","False","False",336,3200,NA
"A1Y9ICY1SOTRI9","Mon Nov 02 2020 12:59:24 GMT-0600 (Central Standard Time)","Mon Nov 02 2020 13:07:40 GMT-0600 (Central Standard Time)","Mozilla/5.0 (Macintosh; Intel Mac OS X 10_11_6) AppleWebKit/537.36 (KHTML, like Gecko) Chrome/86.0.4240.111 Safari/537.36",117,"[0.9, 0.5, 0.1]","[0.8, 0.4, 0.2]","[u'red', u'blue', u'black']","[u'left', u'middle', u'right']","[0.8, 0.4, 0.2]","[u'low', u'medium', u'high']","red",49,"left","low","False","False",64,3150,NA
"A1Y9ICY1SOTRI9","Mon Nov 02 2020 12:59:24 GMT-0600 (Central Standard Time)","Mon Nov 02 2020 13:07:40 GMT-0600 (Central Standard Time)","Mozilla/5.0 (Macintosh; Intel Mac OS X 10_11_6) AppleWebKit/537.36 (KHTML, like Gecko) Chrome/86.0.4240.111 Safari/537.36",118,"[0.9, 0.5, 0.1]","[0.8, 0.4, 0.2]","[u'red', u'blue', u'black']","[u'left', u'middle', u'right']","[0.8, 0.4, 0.2]","[u'low', u'medium', u'high']","red",49,"left","low","False","False",439,3100,NA
"A1Y9ICY1SOTRI9","Mon Nov 02 2020 12:59:24 GMT-0600 (Central Standard Time)","Mon Nov 02 2020 13:07:40 GMT-0600 (Central Standard Time)","Mozilla/5.0 (Macintosh; Intel Mac OS X 10_11_6) AppleWebKit/537.36 (KHTML, like Gecko) Chrome/86.0.4240.111 Safari/537.36",119,"[0.9, 0.5, 0.1]","[0.8, 0.4, 0.2]","[u'red', u'blue', u'black']","[u'left', u'middle', u'right']","[0.8, 0.4, 0.2]","[u'low', u'medium', u'high']","black",51,"right","high","True","False",348,3200,NA
"A1Y9ICY1SOTRI9","Mon Nov 02 2020 12:59:24 GMT-0600 (Central Standard Time)","Mon Nov 02 2020 13:07:40 GMT-0600 (Central Standard Time)","Mozilla/5.0 (Macintosh; Intel Mac OS X 10_11_6) AppleWebKit/537.36 (KHTML, like Gecko) Chrome/86.0.4240.111 Safari/537.36",120,"[0.9, 0.5, 0.1]","[0.8, 0.4, 0.2]","[u'red', u'blue', u'black']","[u'left', u'middle', u'right']","[0.8, 0.4, 0.2]","[u'low', u'medium', u'high']","black",51,"right","high","False","False",330,3150,NA
"A1Y9ICY1SOTRI9","Mon Nov 02 2020 12:59:24 GMT-0600 (Central Standard Time)","Mon Nov 02 2020 13:07:40 GMT-0600 (Central Standard Time)","Mozilla/5.0 (Macintosh; Intel Mac OS X 10_11_6) AppleWebKit/537.36 (KHTML, like Gecko) Chrome/86.0.4240.111 Safari/537.36",121,"[0.9, 0.5, 0.1]","[0.8, 0.4, 0.2]","[u'red', u'blue', u'black']","[u'left', u'middle', u'right']","[0.8, 0.4, 0.2]","[u'high', u'medium', u'low']","red",49,"left","high","False","False",6583,3100,NA
"A1Y9ICY1SOTRI9","Mon Nov 02 2020 12:59:24 GMT-0600 (Central Standard Time)","Mon Nov 02 2020 13:07:40 GMT-0600 (Central Standard Time)","Mozilla/5.0 (Macintosh; Intel Mac OS X 10_11_6) AppleWebKit/537.36 (KHTML, like Gecko) Chrome/86.0.4240.111 Safari/537.36",122,"[0.9, 0.5, 0.1]","[0.8, 0.4, 0.2]","[u'red', u'blue', u'black']","[u'left', u'middle', u'right']","[0.8, 0.4, 0.2]","[u'high', u'medium', u'low']","red",49,"left","high","True","False",457,3200,NA
"A1Y9ICY1SOTRI9","Mon Nov 02 2020 12:59:24 GMT-0600 (Central Standard Time)","Mon Nov 02 2020 13:07:40 GMT-0600 (Central Standard Time)","Mozilla/5.0 (Macintosh; Intel Mac OS X 10_11_6) AppleWebKit/537.36 (KHTML, like Gecko) Chrome/86.0.4240.111 Safari/537.36",123,"[0.9, 0.5, 0.1]","[0.8, 0.4, 0.2]","[u'red', u'blue', u'black']","[u'left', u'middle', u'right']","[0.8, 0.4, 0.2]","[u'high', u'medium', u'low']","red",49,"left","high","True","False",184,3300,NA
"A1Y9ICY1SOTRI9","Mon Nov 02 2020 12:59:24 GMT-0600 (Central Standard Time)","Mon Nov 02 2020 13:07:40 GMT-0600 (Central Standard Time)","Mozilla/5.0 (Macintosh; Intel Mac OS X 10_11_6) AppleWebKit/537.36 (KHTML, like Gecko) Chrome/86.0.4240.111 Safari/537.36",124,"[0.9, 0.5, 0.1]","[0.8, 0.4, 0.2]","[u'red', u'blue', u'black']","[u'left', u'middle', u'right']","[0.8, 0.4, 0.2]","[u'high', u'medium', u'low']","red",49,"left","high","True","False",389,3400,NA
"A1Y9ICY1SOTRI9","Mon Nov 02 2020 12:59:24 GMT-0600 (Central Standard Time)","Mon Nov 02 2020 13:07:40 GMT-0600 (Central Standard Time)","Mozilla/5.0 (Macintosh; Intel Mac OS X 10_11_6) AppleWebKit/537.36 (KHTML, like Gecko) Chrome/86.0.4240.111 Safari/537.36",125,"[0.9, 0.5, 0.1]","[0.8, 0.4, 0.2]","[u'red', u'blue', u'black']","[u'left', u'middle', u'right']","[0.8, 0.4, 0.2]","[u'high', u'medium', u'low']","red",49,"left","high","True","False",209,3500,NA
"A1Y9ICY1SOTRI9","Mon Nov 02 2020 12:59:24 GMT-0600 (Central Standard Time)","Mon Nov 02 2020 13:07:40 GMT-0600 (Central Standard Time)","Mozilla/5.0 (Macintosh; Intel Mac OS X 10_11_6) AppleWebKit/537.36 (KHTML, like Gecko) Chrome/86.0.4240.111 Safari/537.36",126,"[0.9, 0.5, 0.1]","[0.8, 0.4, 0.2]","[u'red', u'blue', u'black']","[u'left', u'middle', u'right']","[0.8, 0.4, 0.2]","[u'high', u'medium', u'low']","red",49,"left","high","True","False",376,3600,NA
"A1Y9ICY1SOTRI9","Mon Nov 02 2020 12:59:24 GMT-0600 (Central Standard Time)","Mon Nov 02 2020 13:07:40 GMT-0600 (Central Standard Time)","Mozilla/5.0 (Macintosh; Intel Mac OS X 10_11_6) AppleWebKit/537.36 (KHTML, like Gecko) Chrome/86.0.4240.111 Safari/537.36",127,"[0.9, 0.5, 0.1]","[0.8, 0.4, 0.2]","[u'red', u'blue', u'black']","[u'left', u'middle', u'right']","[0.8, 0.4, 0.2]","[u'high', u'medium', u'low']","red",49,"left","high","True","False",261,3700,NA
"A1Y9ICY1SOTRI9","Mon Nov 02 2020 12:59:24 GMT-0600 (Central Standard Time)","Mon Nov 02 2020 13:07:40 GMT-0600 (Central Standard Time)","Mozilla/5.0 (Macintosh; Intel Mac OS X 10_11_6) AppleWebKit/537.36 (KHTML, like Gecko) Chrome/86.0.4240.111 Safari/537.36",128,"[0.9, 0.5, 0.1]","[0.8, 0.4, 0.2]","[u'red', u'blue', u'black']","[u'left', u'middle', u'right']","[0.8, 0.4, 0.2]","[u'high', u'medium', u'low']","black",51,"right","low","False","False",1219,3650,NA
"A1Y9ICY1SOTRI9","Mon Nov 02 2020 12:59:24 GMT-0600 (Central Standard Time)","Mon Nov 02 2020 13:07:40 GMT-0600 (Central Standard Time)","Mozilla/5.0 (Macintosh; Intel Mac OS X 10_11_6) AppleWebKit/537.36 (KHTML, like Gecko) Chrome/86.0.4240.111 Safari/537.36",129,"[0.9, 0.5, 0.1]","[0.8, 0.4, 0.2]","[u'red', u'blue', u'black']","[u'left', u'middle', u'right']","[0.8, 0.4, 0.2]","[u'high', u'medium', u'low']","blue",50,"middle","medium","True","False",374,3750,NA
"A1Y9ICY1SOTRI9","Mon Nov 02 2020 12:59:24 GMT-0600 (Central Standard Time)","Mon Nov 02 2020 13:07:40 GMT-0600 (Central Standard Time)","Mozilla/5.0 (Macintosh; Intel Mac OS X 10_11_6) AppleWebKit/537.36 (KHTML, like Gecko) Chrome/86.0.4240.111 Safari/537.36",130,"[0.9, 0.5, 0.1]","[0.8, 0.4, 0.2]","[u'red', u'blue', u'black']","[u'left', u'middle', u'right']","[0.8, 0.4, 0.2]","[u'high', u'medium', u'low']","blue",50,"middle","medium","False","False",273,3700,NA
"A1Y9ICY1SOTRI9","Mon Nov 02 2020 12:59:24 GMT-0600 (Central Standard Time)","Mon Nov 02 2020 13:07:40 GMT-0600 (Central Standard Time)","Mozilla/5.0 (Macintosh; Intel Mac OS X 10_11_6) AppleWebKit/537.36 (KHTML, like Gecko) Chrome/86.0.4240.111 Safari/537.36",131,"[0.9, 0.5, 0.1]","[0.8, 0.4, 0.2]","[u'red', u'blue', u'black']","[u'left', u'middle', u'right']","[0.8, 0.4, 0.2]","[u'high', u'medium', u'low']","blue",50,"middle","medium","False","False",195,3650,NA
"A1Y9ICY1SOTRI9","Mon Nov 02 2020 12:59:24 GMT-0600 (Central Standard Time)","Mon Nov 02 2020 13:07:40 GMT-0600 (Central Standard Time)","Mozilla/5.0 (Macintosh; Intel Mac OS X 10_11_6) AppleWebKit/537.36 (KHTML, like Gecko) Chrome/86.0.4240.111 Safari/537.36",132,"[0.9, 0.5, 0.1]","[0.8, 0.4, 0.2]","[u'red', u'blue', u'black']","[u'left', u'middle', u'right']","[0.8, 0.4, 0.2]","[u'high', u'medium', u'low']","black",51,"right","low","False","False",1289,3600,NA
"A1Y9ICY1SOTRI9","Mon Nov 02 2020 12:59:24 GMT-0600 (Central Standard Time)","Mon Nov 02 2020 13:07:40 GMT-0600 (Central Standard Time)","Mozilla/5.0 (Macintosh; Intel Mac OS X 10_11_6) AppleWebKit/537.36 (KHTML, like Gecko) Chrome/86.0.4240.111 Safari/537.36",133,"[0.9, 0.5, 0.1]","[0.8, 0.4, 0.2]","[u'red', u'blue', u'black']","[u'left', u'middle', u'right']","[0.8, 0.4, 0.2]","[u'high', u'medium', u'low']","red",49,"left","high","True","False",255,3700,NA
"A1Y9ICY1SOTRI9","Mon Nov 02 2020 12:59:24 GMT-0600 (Central Standard Time)","Mon Nov 02 2020 13:07:40 GMT-0600 (Central Standard Time)","Mozilla/5.0 (Macintosh; Intel Mac OS X 10_11_6) AppleWebKit/537.36 (KHTML, like Gecko) Chrome/86.0.4240.111 Safari/537.36",134,"[0.9, 0.5, 0.1]","[0.8, 0.4, 0.2]","[u'red', u'blue', u'black']","[u'left', u'middle', u'right']","[0.8, 0.4, 0.2]","[u'high', u'medium', u'low']","red",49,"left","high","True","False",251,3800,NA
"A1Y9ICY1SOTRI9","Mon Nov 02 2020 12:59:24 GMT-0600 (Central Standard Time)","Mon Nov 02 2020 13:07:40 GMT-0600 (Central Standard Time)","Mozilla/5.0 (Macintosh; Intel Mac OS X 10_11_6) AppleWebKit/537.36 (KHTML, like Gecko) Chrome/86.0.4240.111 Safari/537.36",135,"[0.9, 0.5, 0.1]","[0.8, 0.4, 0.2]","[u'red', u'blue', u'black']","[u'left', u'middle', u'right']","[0.8, 0.4, 0.2]","[u'high', u'medium', u'low']","red",49,"left","high","True","False",265,3900,NA
"A1Y9ICY1SOTRI9","Mon Nov 02 2020 12:59:24 GMT-0600 (Central Standard Time)","Mon Nov 02 2020 13:07:40 GMT-0600 (Central Standard Time)","Mozilla/5.0 (Macintosh; Intel Mac OS X 10_11_6) AppleWebKit/537.36 (KHTML, like Gecko) Chrome/86.0.4240.111 Safari/537.36",136,"[0.9, 0.5, 0.1]","[0.8, 0.4, 0.2]","[u'red', u'blue', u'black']","[u'left', u'middle', u'right']","[0.8, 0.4, 0.2]","[u'high', u'medium', u'low']","red",49,"left","high","False","False",357,3850,NA
"A1Y9ICY1SOTRI9","Mon Nov 02 2020 12:59:24 GMT-0600 (Central Standard Time)","Mon Nov 02 2020 13:07:40 GMT-0600 (Central Standard Time)","Mozilla/5.0 (Macintosh; Intel Mac OS X 10_11_6) AppleWebKit/537.36 (KHTML, like Gecko) Chrome/86.0.4240.111 Safari/537.36",137,"[0.9, 0.5, 0.1]","[0.8, 0.4, 0.2]","[u'red', u'blue', u'black']","[u'left', u'middle', u'right']","[0.8, 0.4, 0.2]","[u'high', u'medium', u'low']","red",49,"left","high","True","False",409,3950,NA
"A1Y9ICY1SOTRI9","Mon Nov 02 2020 12:59:24 GMT-0600 (Central Standard Time)","Mon Nov 02 2020 13:07:40 GMT-0600 (Central Standard Time)","Mozilla/5.0 (Macintosh; Intel Mac OS X 10_11_6) AppleWebKit/537.36 (KHTML, like Gecko) Chrome/86.0.4240.111 Safari/537.36",138,"[0.9, 0.5, 0.1]","[0.8, 0.4, 0.2]","[u'red', u'blue', u'black']","[u'left', u'middle', u'right']","[0.8, 0.4, 0.2]","[u'high', u'medium', u'low']","red",49,"left","high","True","False",242,4050,NA
"A1Y9ICY1SOTRI9","Mon Nov 02 2020 12:59:24 GMT-0600 (Central Standard Time)","Mon Nov 02 2020 13:07:40 GMT-0600 (Central Standard Time)","Mozilla/5.0 (Macintosh; Intel Mac OS X 10_11_6) AppleWebKit/537.36 (KHTML, like Gecko) Chrome/86.0.4240.111 Safari/537.36",139,"[0.9, 0.5, 0.1]","[0.8, 0.4, 0.2]","[u'red', u'blue', u'black']","[u'left', u'middle', u'right']","[0.8, 0.4, 0.2]","[u'high', u'medium', u'low']","red",49,"left","high","True","False",187,4150,NA
"A1Y9ICY1SOTRI9","Mon Nov 02 2020 12:59:24 GMT-0600 (Central Standard Time)","Mon Nov 02 2020 13:07:40 GMT-0600 (Central Standard Time)","Mozilla/5.0 (Macintosh; Intel Mac OS X 10_11_6) AppleWebKit/537.36 (KHTML, like Gecko) Chrome/86.0.4240.111 Safari/537.36",140,"[0.9, 0.5, 0.1]","[0.8, 0.4, 0.2]","[u'red', u'blue', u'black']","[u'left', u'middle', u'right']","[0.8, 0.4, 0.2]","[u'high', u'medium', u'low']","red",49,"left","high","True","False",321,4250,NA
"A1Y9ICY1SOTRI9","Mon Nov 02 2020 12:59:24 GMT-0600 (Central Standard Time)","Mon Nov 02 2020 13:07:40 GMT-0600 (Central Standard Time)","Mozilla/5.0 (Macintosh; Intel Mac OS X 10_11_6) AppleWebKit/537.36 (KHTML, like Gecko) Chrome/86.0.4240.111 Safari/537.36",141,"[0.9, 0.5, 0.1]","[0.8, 0.4, 0.2]","[u'red', u'blue', u'black']","[u'left', u'middle', u'right']","[0.8, 0.4, 0.2]","[u'high', u'medium', u'low']","red",49,"left","high","True","True",264,4350,NA
"A1Y9ICY1SOTRI9","Mon Nov 02 2020 12:59:24 GMT-0600 (Central Standard Time)","Mon Nov 02 2020 13:07:40 GMT-0600 (Central Standard Time)","Mozilla/5.0 (Macintosh; Intel Mac OS X 10_11_6) AppleWebKit/537.36 (KHTML, like Gecko) Chrome/86.0.4240.111 Safari/537.36",142,"[0.9, 0.5, 0.1]","[0.8, 0.4, 0.2]","[u'red', u'blue', u'black']","[u'left', u'middle', u'right']","[0.8, 0.4, 0.2]","[u'medium', u'low', u'high']","red",49,"left","medium","True","False",276,4450,NA
"A1Y9ICY1SOTRI9","Mon Nov 02 2020 12:59:24 GMT-0600 (Central Standard Time)","Mon Nov 02 2020 13:07:40 GMT-0600 (Central Standard Time)","Mozilla/5.0 (Macintosh; Intel Mac OS X 10_11_6) AppleWebKit/537.36 (KHTML, like Gecko) Chrome/86.0.4240.111 Safari/537.36",143,"[0.9, 0.5, 0.1]","[0.8, 0.4, 0.2]","[u'red', u'blue', u'black']","[u'left', u'middle', u'right']","[0.8, 0.4, 0.2]","[u'medium', u'low', u'high']","red",49,"left","medium","True","False",30,4550,NA
"A1Y9ICY1SOTRI9","Mon Nov 02 2020 12:59:24 GMT-0600 (Central Standard Time)","Mon Nov 02 2020 13:07:40 GMT-0600 (Central Standard Time)","Mozilla/5.0 (Macintosh; Intel Mac OS X 10_11_6) AppleWebKit/537.36 (KHTML, like Gecko) Chrome/86.0.4240.111 Safari/537.36",144,"[0.9, 0.5, 0.1]","[0.8, 0.4, 0.2]","[u'red', u'blue', u'black']","[u'left', u'middle', u'right']","[0.8, 0.4, 0.2]","[u'medium', u'low', u'high']","red",49,"left","medium","False","False",1345,4500,NA
"A1Y9ICY1SOTRI9","Mon Nov 02 2020 12:59:24 GMT-0600 (Central Standard Time)","Mon Nov 02 2020 13:07:40 GMT-0600 (Central Standard Time)","Mozilla/5.0 (Macintosh; Intel Mac OS X 10_11_6) AppleWebKit/537.36 (KHTML, like Gecko) Chrome/86.0.4240.111 Safari/537.36",145,"[0.9, 0.5, 0.1]","[0.8, 0.4, 0.2]","[u'red', u'blue', u'black']","[u'left', u'middle', u'right']","[0.8, 0.4, 0.2]","[u'medium', u'low', u'high']","red",49,"left","medium","False","False",151,4450,NA
"A1Y9ICY1SOTRI9","Mon Nov 02 2020 12:59:24 GMT-0600 (Central Standard Time)","Mon Nov 02 2020 13:07:40 GMT-0600 (Central Standard Time)","Mozilla/5.0 (Macintosh; Intel Mac OS X 10_11_6) AppleWebKit/537.36 (KHTML, like Gecko) Chrome/86.0.4240.111 Safari/537.36",146,"[0.9, 0.5, 0.1]","[0.8, 0.4, 0.2]","[u'red', u'blue', u'black']","[u'left', u'middle', u'right']","[0.8, 0.4, 0.2]","[u'medium', u'low', u'high']","red",49,"left","medium","True","False",254,4550,NA
"A1Y9ICY1SOTRI9","Mon Nov 02 2020 12:59:24 GMT-0600 (Central Standard Time)","Mon Nov 02 2020 13:07:40 GMT-0600 (Central Standard Time)","Mozilla/5.0 (Macintosh; Intel Mac OS X 10_11_6) AppleWebKit/537.36 (KHTML, like Gecko) Chrome/86.0.4240.111 Safari/537.36",147,"[0.9, 0.5, 0.1]","[0.8, 0.4, 0.2]","[u'red', u'blue', u'black']","[u'left', u'middle', u'right']","[0.8, 0.4, 0.2]","[u'medium', u'low', u'high']","red",49,"left","medium","True","False",164,4650,NA
"A1Y9ICY1SOTRI9","Mon Nov 02 2020 12:59:24 GMT-0600 (Central Standard Time)","Mon Nov 02 2020 13:07:40 GMT-0600 (Central Standard Time)","Mozilla/5.0 (Macintosh; Intel Mac OS X 10_11_6) AppleWebKit/537.36 (KHTML, like Gecko) Chrome/86.0.4240.111 Safari/537.36",148,"[0.9, 0.5, 0.1]","[0.8, 0.4, 0.2]","[u'red', u'blue', u'black']","[u'left', u'middle', u'right']","[0.8, 0.4, 0.2]","[u'medium', u'low', u'high']","red",49,"left","medium","False","False",186,4600,NA
"A1Y9ICY1SOTRI9","Mon Nov 02 2020 12:59:24 GMT-0600 (Central Standard Time)","Mon Nov 02 2020 13:07:40 GMT-0600 (Central Standard Time)","Mozilla/5.0 (Macintosh; Intel Mac OS X 10_11_6) AppleWebKit/537.36 (KHTML, like Gecko) Chrome/86.0.4240.111 Safari/537.36",149,"[0.9, 0.5, 0.1]","[0.8, 0.4, 0.2]","[u'red', u'blue', u'black']","[u'left', u'middle', u'right']","[0.8, 0.4, 0.2]","[u'medium', u'low', u'high']","red",49,"left","medium","True","False",1153,4700,NA
"A1Y9ICY1SOTRI9","Mon Nov 02 2020 12:59:24 GMT-0600 (Central Standard Time)","Mon Nov 02 2020 13:07:40 GMT-0600 (Central Standard Time)","Mozilla/5.0 (Macintosh; Intel Mac OS X 10_11_6) AppleWebKit/537.36 (KHTML, like Gecko) Chrome/86.0.4240.111 Safari/537.36",150,"[0.9, 0.5, 0.1]","[0.8, 0.4, 0.2]","[u'red', u'blue', u'black']","[u'left', u'middle', u'right']","[0.8, 0.4, 0.2]","[u'medium', u'low', u'high']","red",49,"left","medium","True","False",468,4800,NA
"A1Y9ICY1SOTRI9","Mon Nov 02 2020 12:59:24 GMT-0600 (Central Standard Time)","Mon Nov 02 2020 13:07:40 GMT-0600 (Central Standard Time)","Mozilla/5.0 (Macintosh; Intel Mac OS X 10_11_6) AppleWebKit/537.36 (KHTML, like Gecko) Chrome/86.0.4240.111 Safari/537.36",151,"[0.9, 0.5, 0.1]","[0.8, 0.4, 0.2]","[u'red', u'blue', u'black']","[u'left', u'middle', u'right']","[0.8, 0.4, 0.2]","[u'medium', u'low', u'high']","red",49,"left","medium","True","False",444,4900,NA
"A1Y9ICY1SOTRI9","Mon Nov 02 2020 12:59:24 GMT-0600 (Central Standard Time)","Mon Nov 02 2020 13:07:40 GMT-0600 (Central Standard Time)","Mozilla/5.0 (Macintosh; Intel Mac OS X 10_11_6) AppleWebKit/537.36 (KHTML, like Gecko) Chrome/86.0.4240.111 Safari/537.36",152,"[0.9, 0.5, 0.1]","[0.8, 0.4, 0.2]","[u'red', u'blue', u'black']","[u'left', u'middle', u'right']","[0.8, 0.4, 0.2]","[u'medium', u'low', u'high']","red",49,"left","medium","False","False",659,4850,NA
"A1Y9ICY1SOTRI9","Mon Nov 02 2020 12:59:24 GMT-0600 (Central Standard Time)","Mon Nov 02 2020 13:07:40 GMT-0600 (Central Standard Time)","Mozilla/5.0 (Macintosh; Intel Mac OS X 10_11_6) AppleWebKit/537.36 (KHTML, like Gecko) Chrome/86.0.4240.111 Safari/537.36",153,"[0.9, 0.5, 0.1]","[0.8, 0.4, 0.2]","[u'red', u'blue', u'black']","[u'left', u'middle', u'right']","[0.8, 0.4, 0.2]","[u'medium', u'low', u'high']","red",49,"left","medium","True","False",228,4950,NA
"A1Y9ICY1SOTRI9","Mon Nov 02 2020 12:59:24 GMT-0600 (Central Standard Time)","Mon Nov 02 2020 13:07:40 GMT-0600 (Central Standard Time)","Mozilla/5.0 (Macintosh; Intel Mac OS X 10_11_6) AppleWebKit/537.36 (KHTML, like Gecko) Chrome/86.0.4240.111 Safari/537.36",154,"[0.9, 0.5, 0.1]","[0.8, 0.4, 0.2]","[u'red', u'blue', u'black']","[u'left', u'middle', u'right']","[0.8, 0.4, 0.2]","[u'medium', u'low', u'high']","red",49,"left","medium","False","False",206,4900,NA
"A1Y9ICY1SOTRI9","Mon Nov 02 2020 12:59:24 GMT-0600 (Central Standard Time)","Mon Nov 02 2020 13:07:40 GMT-0600 (Central Standard Time)","Mozilla/5.0 (Macintosh; Intel Mac OS X 10_11_6) AppleWebKit/537.36 (KHTML, like Gecko) Chrome/86.0.4240.111 Safari/537.36",155,"[0.9, 0.5, 0.1]","[0.8, 0.4, 0.2]","[u'red', u'blue', u'black']","[u'left', u'middle', u'right']","[0.8, 0.4, 0.2]","[u'medium', u'low', u'high']","red",49,"left","medium","False","False",217,4850,NA
"A1Y9ICY1SOTRI9","Mon Nov 02 2020 12:59:24 GMT-0600 (Central Standard Time)","Mon Nov 02 2020 13:07:40 GMT-0600 (Central Standard Time)","Mozilla/5.0 (Macintosh; Intel Mac OS X 10_11_6) AppleWebKit/537.36 (KHTML, like Gecko) Chrome/86.0.4240.111 Safari/537.36",156,"[0.9, 0.5, 0.1]","[0.8, 0.4, 0.2]","[u'red', u'blue', u'black']","[u'left', u'middle', u'right']","[0.8, 0.4, 0.2]","[u'medium', u'low', u'high']","red",49,"left","medium","False","False",1345,4800,NA
"A1Y9ICY1SOTRI9","Mon Nov 02 2020 12:59:24 GMT-0600 (Central Standard Time)","Mon Nov 02 2020 13:07:40 GMT-0600 (Central Standard Time)","Mozilla/5.0 (Macintosh; Intel Mac OS X 10_11_6) AppleWebKit/537.36 (KHTML, like Gecko) Chrome/86.0.4240.111 Safari/537.36",157,"[0.9, 0.5, 0.1]","[0.8, 0.4, 0.2]","[u'red', u'blue', u'black']","[u'left', u'middle', u'right']","[0.8, 0.4, 0.2]","[u'medium', u'low', u'high']","blue",50,"middle","low","False","False",373,4750,NA
"A1Y9ICY1SOTRI9","Mon Nov 02 2020 12:59:24 GMT-0600 (Central Standard Time)","Mon Nov 02 2020 13:07:40 GMT-0600 (Central Standard Time)","Mozilla/5.0 (Macintosh; Intel Mac OS X 10_11_6) AppleWebKit/537.36 (KHTML, like Gecko) Chrome/86.0.4240.111 Safari/537.36",158,"[0.9, 0.5, 0.1]","[0.8, 0.4, 0.2]","[u'red', u'blue', u'black']","[u'left', u'middle', u'right']","[0.8, 0.4, 0.2]","[u'medium', u'low', u'high']","blue",50,"middle","low","False","False",343,4700,NA
"A1Y9ICY1SOTRI9","Mon Nov 02 2020 12:59:24 GMT-0600 (Central Standard Time)","Mon Nov 02 2020 13:07:40 GMT-0600 (Central Standard Time)","Mozilla/5.0 (Macintosh; Intel Mac OS X 10_11_6) AppleWebKit/537.36 (KHTML, like Gecko) Chrome/86.0.4240.111 Safari/537.36",159,"[0.9, 0.5, 0.1]","[0.8, 0.4, 0.2]","[u'red', u'blue', u'black']","[u'left', u'middle', u'right']","[0.8, 0.4, 0.2]","[u'medium', u'low', u'high']","red",49,"left","medium","False","False",373,4650,NA
"A1Y9ICY1SOTRI9","Mon Nov 02 2020 12:59:24 GMT-0600 (Central Standard Time)","Mon Nov 02 2020 13:07:40 GMT-0600 (Central Standard Time)","Mozilla/5.0 (Macintosh; Intel Mac OS X 10_11_6) AppleWebKit/537.36 (KHTML, like Gecko) Chrome/86.0.4240.111 Safari/537.36",160,"[0.9, 0.5, 0.1]","[0.8, 0.4, 0.2]","[u'red', u'blue', u'black']","[u'left', u'middle', u'right']","[0.8, 0.4, 0.2]","[u'medium', u'low', u'high']","red",49,"left","medium","False","False",351,4600,NA
