"src_subject_id","start_time","end_time","browser","index","first_half_probabilities","second_half_probabilities","deck_color","deck_position","deck_probabilities","deck_contingencies","response_color","key_press","response_position","response_probability","reward_type","trial_type","rt","reward_tally","exclusion_reason"
"AGZ3GHE3N634N","Mon Nov 02 2020 12:52:01 GMT-0800 (Pacific Standard Time)","Mon Nov 02 2020 13:03:19 GMT-0800 (Pacific Standard Time)","Mozilla/5.0 (Windows NT 10.0; Win64; x64) AppleWebKit/537.36 (KHTML, like Gecko) Chrome/86.0.4240.111 Safari/537.36",1,"[0.9, 0.5, 0.1]","[0.8, 0.4, 0.2]","[u'blue', u'black', u'red']","[u'left', u'middle', u'right']","[0.9, 0.5, 0.1]","[u'medium', u'low', u'high']","blue",49,"left","medium","True","False",9618,100,NA
"AGZ3GHE3N634N","Mon Nov 02 2020 12:52:01 GMT-0800 (Pacific Standard Time)","Mon Nov 02 2020 13:03:19 GMT-0800 (Pacific Standard Time)","Mozilla/5.0 (Windows NT 10.0; Win64; x64) AppleWebKit/537.36 (KHTML, like Gecko) Chrome/86.0.4240.111 Safari/537.36",2,"[0.9, 0.5, 0.1]","[0.8, 0.4, 0.2]","[u'blue', u'black', u'red']","[u'left', u'middle', u'right']","[0.9, 0.5, 0.1]","[u'medium', u'low', u'high']","black",50,"middle","low","False","False",93,50,NA
"AGZ3GHE3N634N","Mon Nov 02 2020 12:52:01 GMT-0800 (Pacific Standard Time)","Mon Nov 02 2020 13:03:19 GMT-0800 (Pacific Standard Time)","Mozilla/5.0 (Windows NT 10.0; Win64; x64) AppleWebKit/537.36 (KHTML, like Gecko) Chrome/86.0.4240.111 Safari/537.36",3,"[0.9, 0.5, 0.1]","[0.8, 0.4, 0.2]","[u'blue', u'black', u'red']","[u'left', u'middle', u'right']","[0.9, 0.5, 0.1]","[u'medium', u'low', u'high']","red",51,"right","high","True","False",898,150,NA
"AGZ3GHE3N634N","Mon Nov 02 2020 12:52:01 GMT-0800 (Pacific Standard Time)","Mon Nov 02 2020 13:03:19 GMT-0800 (Pacific Standard Time)","Mozilla/5.0 (Windows NT 10.0; Win64; x64) AppleWebKit/537.36 (KHTML, like Gecko) Chrome/86.0.4240.111 Safari/537.36",4,"[0.9, 0.5, 0.1]","[0.8, 0.4, 0.2]","[u'blue', u'black', u'red']","[u'left', u'middle', u'right']","[0.9, 0.5, 0.1]","[u'medium', u'low', u'high']","blue",49,"left","medium","True","False",6250,250,NA
"AGZ3GHE3N634N","Mon Nov 02 2020 12:52:01 GMT-0800 (Pacific Standard Time)","Mon Nov 02 2020 13:03:19 GMT-0800 (Pacific Standard Time)","Mozilla/5.0 (Windows NT 10.0; Win64; x64) AppleWebKit/537.36 (KHTML, like Gecko) Chrome/86.0.4240.111 Safari/537.36",5,"[0.9, 0.5, 0.1]","[0.8, 0.4, 0.2]","[u'blue', u'black', u'red']","[u'left', u'middle', u'right']","[0.9, 0.5, 0.1]","[u'medium', u'low', u'high']","red",51,"right","high","True","False",755,350,NA
"AGZ3GHE3N634N","Mon Nov 02 2020 12:52:01 GMT-0800 (Pacific Standard Time)","Mon Nov 02 2020 13:03:19 GMT-0800 (Pacific Standard Time)","Mozilla/5.0 (Windows NT 10.0; Win64; x64) AppleWebKit/537.36 (KHTML, like Gecko) Chrome/86.0.4240.111 Safari/537.36",6,"[0.9, 0.5, 0.1]","[0.8, 0.4, 0.2]","[u'blue', u'black', u'red']","[u'left', u'middle', u'right']","[0.9, 0.5, 0.1]","[u'medium', u'low', u'high']","black",50,"middle","low","False","False",2559,300,NA
"AGZ3GHE3N634N","Mon Nov 02 2020 12:52:01 GMT-0800 (Pacific Standard Time)","Mon Nov 02 2020 13:03:19 GMT-0800 (Pacific Standard Time)","Mozilla/5.0 (Windows NT 10.0; Win64; x64) AppleWebKit/537.36 (KHTML, like Gecko) Chrome/86.0.4240.111 Safari/537.36",7,"[0.9, 0.5, 0.1]","[0.8, 0.4, 0.2]","[u'blue', u'black', u'red']","[u'left', u'middle', u'right']","[0.9, 0.5, 0.1]","[u'medium', u'low', u'high']","blue",49,"left","medium","True","False",986,400,NA
"AGZ3GHE3N634N","Mon Nov 02 2020 12:52:01 GMT-0800 (Pacific Standard Time)","Mon Nov 02 2020 13:03:19 GMT-0800 (Pacific Standard Time)","Mozilla/5.0 (Windows NT 10.0; Win64; x64) AppleWebKit/537.36 (KHTML, like Gecko) Chrome/86.0.4240.111 Safari/537.36",8,"[0.9, 0.5, 0.1]","[0.8, 0.4, 0.2]","[u'blue', u'black', u'red']","[u'left', u'middle', u'right']","[0.9, 0.5, 0.1]","[u'medium', u'low', u'high']","red",51,"right","high","True","False",597,500,NA
"AGZ3GHE3N634N","Mon Nov 02 2020 12:52:01 GMT-0800 (Pacific Standard Time)","Mon Nov 02 2020 13:03:19 GMT-0800 (Pacific Standard Time)","Mozilla/5.0 (Windows NT 10.0; Win64; x64) AppleWebKit/537.36 (KHTML, like Gecko) Chrome/86.0.4240.111 Safari/537.36",9,"[0.9, 0.5, 0.1]","[0.8, 0.4, 0.2]","[u'blue', u'black', u'red']","[u'left', u'middle', u'right']","[0.9, 0.5, 0.1]","[u'medium', u'low', u'high']","blue",49,"left","medium","False","False",649,450,NA
"AGZ3GHE3N634N","Mon Nov 02 2020 12:52:01 GMT-0800 (Pacific Standard Time)","Mon Nov 02 2020 13:03:19 GMT-0800 (Pacific Standard Time)","Mozilla/5.0 (Windows NT 10.0; Win64; x64) AppleWebKit/537.36 (KHTML, like Gecko) Chrome/86.0.4240.111 Safari/537.36",10,"[0.9, 0.5, 0.1]","[0.8, 0.4, 0.2]","[u'blue', u'black', u'red']","[u'left', u'middle', u'right']","[0.9, 0.5, 0.1]","[u'medium', u'low', u'high']","black",50,"middle","low","True","False",799,550,NA
"AGZ3GHE3N634N","Mon Nov 02 2020 12:52:01 GMT-0800 (Pacific Standard Time)","Mon Nov 02 2020 13:03:19 GMT-0800 (Pacific Standard Time)","Mozilla/5.0 (Windows NT 10.0; Win64; x64) AppleWebKit/537.36 (KHTML, like Gecko) Chrome/86.0.4240.111 Safari/537.36",11,"[0.9, 0.5, 0.1]","[0.8, 0.4, 0.2]","[u'blue', u'black', u'red']","[u'left', u'middle', u'right']","[0.9, 0.5, 0.1]","[u'medium', u'low', u'high']","red",51,"right","high","True","False",560,650,NA
"AGZ3GHE3N634N","Mon Nov 02 2020 12:52:01 GMT-0800 (Pacific Standard Time)","Mon Nov 02 2020 13:03:19 GMT-0800 (Pacific Standard Time)","Mozilla/5.0 (Windows NT 10.0; Win64; x64) AppleWebKit/537.36 (KHTML, like Gecko) Chrome/86.0.4240.111 Safari/537.36",12,"[0.9, 0.5, 0.1]","[0.8, 0.4, 0.2]","[u'blue', u'black', u'red']","[u'left', u'middle', u'right']","[0.9, 0.5, 0.1]","[u'medium', u'low', u'high']","black",50,"middle","low","False","False",1194,600,NA
"AGZ3GHE3N634N","Mon Nov 02 2020 12:52:01 GMT-0800 (Pacific Standard Time)","Mon Nov 02 2020 13:03:19 GMT-0800 (Pacific Standard Time)","Mozilla/5.0 (Windows NT 10.0; Win64; x64) AppleWebKit/537.36 (KHTML, like Gecko) Chrome/86.0.4240.111 Safari/537.36",13,"[0.9, 0.5, 0.1]","[0.8, 0.4, 0.2]","[u'blue', u'black', u'red']","[u'left', u'middle', u'right']","[0.9, 0.5, 0.1]","[u'medium', u'low', u'high']","blue",49,"left","medium","True","False",658,700,NA
"AGZ3GHE3N634N","Mon Nov 02 2020 12:52:01 GMT-0800 (Pacific Standard Time)","Mon Nov 02 2020 13:03:19 GMT-0800 (Pacific Standard Time)","Mozilla/5.0 (Windows NT 10.0; Win64; x64) AppleWebKit/537.36 (KHTML, like Gecko) Chrome/86.0.4240.111 Safari/537.36",14,"[0.9, 0.5, 0.1]","[0.8, 0.4, 0.2]","[u'blue', u'black', u'red']","[u'left', u'middle', u'right']","[0.9, 0.5, 0.1]","[u'medium', u'low', u'high']","red",51,"right","high","True","False",563,800,NA
"AGZ3GHE3N634N","Mon Nov 02 2020 12:52:01 GMT-0800 (Pacific Standard Time)","Mon Nov 02 2020 13:03:19 GMT-0800 (Pacific Standard Time)","Mozilla/5.0 (Windows NT 10.0; Win64; x64) AppleWebKit/537.36 (KHTML, like Gecko) Chrome/86.0.4240.111 Safari/537.36",15,"[0.9, 0.5, 0.1]","[0.8, 0.4, 0.2]","[u'blue', u'black', u'red']","[u'left', u'middle', u'right']","[0.9, 0.5, 0.1]","[u'medium', u'low', u'high']","red",51,"right","high","True","False",1133,900,NA
"AGZ3GHE3N634N","Mon Nov 02 2020 12:52:01 GMT-0800 (Pacific Standard Time)","Mon Nov 02 2020 13:03:19 GMT-0800 (Pacific Standard Time)","Mozilla/5.0 (Windows NT 10.0; Win64; x64) AppleWebKit/537.36 (KHTML, like Gecko) Chrome/86.0.4240.111 Safari/537.36",16,"[0.9, 0.5, 0.1]","[0.8, 0.4, 0.2]","[u'blue', u'black', u'red']","[u'left', u'middle', u'right']","[0.9, 0.5, 0.1]","[u'medium', u'low', u'high']","black",50,"middle","low","False","False",593,850,NA
"AGZ3GHE3N634N","Mon Nov 02 2020 12:52:01 GMT-0800 (Pacific Standard Time)","Mon Nov 02 2020 13:03:19 GMT-0800 (Pacific Standard Time)","Mozilla/5.0 (Windows NT 10.0; Win64; x64) AppleWebKit/537.36 (KHTML, like Gecko) Chrome/86.0.4240.111 Safari/537.36",17,"[0.9, 0.5, 0.1]","[0.8, 0.4, 0.2]","[u'blue', u'black', u'red']","[u'left', u'middle', u'right']","[0.9, 0.5, 0.1]","[u'medium', u'low', u'high']","blue",49,"left","medium","True","False",720,950,NA
"AGZ3GHE3N634N","Mon Nov 02 2020 12:52:01 GMT-0800 (Pacific Standard Time)","Mon Nov 02 2020 13:03:19 GMT-0800 (Pacific Standard Time)","Mozilla/5.0 (Windows NT 10.0; Win64; x64) AppleWebKit/537.36 (KHTML, like Gecko) Chrome/86.0.4240.111 Safari/537.36",18,"[0.9, 0.5, 0.1]","[0.8, 0.4, 0.2]","[u'blue', u'black', u'red']","[u'left', u'middle', u'right']","[0.9, 0.5, 0.1]","[u'medium', u'low', u'high']","red",51,"right","high","True","False",588,1050,NA
"AGZ3GHE3N634N","Mon Nov 02 2020 12:52:01 GMT-0800 (Pacific Standard Time)","Mon Nov 02 2020 13:03:19 GMT-0800 (Pacific Standard Time)","Mozilla/5.0 (Windows NT 10.0; Win64; x64) AppleWebKit/537.36 (KHTML, like Gecko) Chrome/86.0.4240.111 Safari/537.36",19,"[0.9, 0.5, 0.1]","[0.8, 0.4, 0.2]","[u'blue', u'black', u'red']","[u'left', u'middle', u'right']","[0.9, 0.5, 0.1]","[u'medium', u'low', u'high']","blue",49,"left","medium","True","False",632,1150,NA
"AGZ3GHE3N634N","Mon Nov 02 2020 12:52:01 GMT-0800 (Pacific Standard Time)","Mon Nov 02 2020 13:03:19 GMT-0800 (Pacific Standard Time)","Mozilla/5.0 (Windows NT 10.0; Win64; x64) AppleWebKit/537.36 (KHTML, like Gecko) Chrome/86.0.4240.111 Safari/537.36",20,"[0.9, 0.5, 0.1]","[0.8, 0.4, 0.2]","[u'blue', u'black', u'red']","[u'left', u'middle', u'right']","[0.9, 0.5, 0.1]","[u'medium', u'low', u'high']","red",51,"right","high","True","False",539,1250,NA
"AGZ3GHE3N634N","Mon Nov 02 2020 12:52:01 GMT-0800 (Pacific Standard Time)","Mon Nov 02 2020 13:03:19 GMT-0800 (Pacific Standard Time)","Mozilla/5.0 (Windows NT 10.0; Win64; x64) AppleWebKit/537.36 (KHTML, like Gecko) Chrome/86.0.4240.111 Safari/537.36",21,"[0.9, 0.5, 0.1]","[0.8, 0.4, 0.2]","[u'blue', u'black', u'red']","[u'left', u'middle', u'right']","[0.9, 0.5, 0.1]","[u'medium', u'low', u'high']","black",50,"middle","low","False","False",595,1200,NA
"AGZ3GHE3N634N","Mon Nov 02 2020 12:52:01 GMT-0800 (Pacific Standard Time)","Mon Nov 02 2020 13:03:19 GMT-0800 (Pacific Standard Time)","Mozilla/5.0 (Windows NT 10.0; Win64; x64) AppleWebKit/537.36 (KHTML, like Gecko) Chrome/86.0.4240.111 Safari/537.36",22,"[0.9, 0.5, 0.1]","[0.8, 0.4, 0.2]","[u'blue', u'black', u'red']","[u'left', u'middle', u'right']","[0.9, 0.5, 0.1]","[u'medium', u'low', u'high']","blue",49,"left","medium","True","False",730,1300,NA
"AGZ3GHE3N634N","Mon Nov 02 2020 12:52:01 GMT-0800 (Pacific Standard Time)","Mon Nov 02 2020 13:03:19 GMT-0800 (Pacific Standard Time)","Mozilla/5.0 (Windows NT 10.0; Win64; x64) AppleWebKit/537.36 (KHTML, like Gecko) Chrome/86.0.4240.111 Safari/537.36",23,"[0.9, 0.5, 0.1]","[0.8, 0.4, 0.2]","[u'blue', u'black', u'red']","[u'left', u'middle', u'right']","[0.9, 0.5, 0.1]","[u'medium', u'low', u'high']","red",51,"right","high","True","False",695,1400,NA
"AGZ3GHE3N634N","Mon Nov 02 2020 12:52:01 GMT-0800 (Pacific Standard Time)","Mon Nov 02 2020 13:03:19 GMT-0800 (Pacific Standard Time)","Mozilla/5.0 (Windows NT 10.0; Win64; x64) AppleWebKit/537.36 (KHTML, like Gecko) Chrome/86.0.4240.111 Safari/537.36",24,"[0.9, 0.5, 0.1]","[0.8, 0.4, 0.2]","[u'blue', u'black', u'red']","[u'left', u'middle', u'right']","[0.9, 0.5, 0.1]","[u'medium', u'low', u'high']","blue",49,"left","medium","False","False",854,1350,NA
"AGZ3GHE3N634N","Mon Nov 02 2020 12:52:01 GMT-0800 (Pacific Standard Time)","Mon Nov 02 2020 13:03:19 GMT-0800 (Pacific Standard Time)","Mozilla/5.0 (Windows NT 10.0; Win64; x64) AppleWebKit/537.36 (KHTML, like Gecko) Chrome/86.0.4240.111 Safari/537.36",25,"[0.9, 0.5, 0.1]","[0.8, 0.4, 0.2]","[u'blue', u'black', u'red']","[u'left', u'middle', u'right']","[0.9, 0.5, 0.1]","[u'medium', u'low', u'high']","black",50,"middle","low","False","False",688,1300,NA
"AGZ3GHE3N634N","Mon Nov 02 2020 12:52:01 GMT-0800 (Pacific Standard Time)","Mon Nov 02 2020 13:03:19 GMT-0800 (Pacific Standard Time)","Mozilla/5.0 (Windows NT 10.0; Win64; x64) AppleWebKit/537.36 (KHTML, like Gecko) Chrome/86.0.4240.111 Safari/537.36",26,"[0.9, 0.5, 0.1]","[0.8, 0.4, 0.2]","[u'blue', u'black', u'red']","[u'left', u'middle', u'right']","[0.9, 0.5, 0.1]","[u'medium', u'low', u'high']","red",51,"right","high","True","False",1293,1400,NA
"AGZ3GHE3N634N","Mon Nov 02 2020 12:52:01 GMT-0800 (Pacific Standard Time)","Mon Nov 02 2020 13:03:19 GMT-0800 (Pacific Standard Time)","Mozilla/5.0 (Windows NT 10.0; Win64; x64) AppleWebKit/537.36 (KHTML, like Gecko) Chrome/86.0.4240.111 Safari/537.36",27,"[0.9, 0.5, 0.1]","[0.8, 0.4, 0.2]","[u'blue', u'black', u'red']","[u'left', u'middle', u'right']","[0.9, 0.5, 0.1]","[u'medium', u'low', u'high']","blue",49,"left","medium","False","False",709,1350,NA
"AGZ3GHE3N634N","Mon Nov 02 2020 12:52:01 GMT-0800 (Pacific Standard Time)","Mon Nov 02 2020 13:03:19 GMT-0800 (Pacific Standard Time)","Mozilla/5.0 (Windows NT 10.0; Win64; x64) AppleWebKit/537.36 (KHTML, like Gecko) Chrome/86.0.4240.111 Safari/537.36",28,"[0.9, 0.5, 0.1]","[0.8, 0.4, 0.2]","[u'blue', u'black', u'red']","[u'left', u'middle', u'right']","[0.9, 0.5, 0.1]","[u'medium', u'low', u'high']","blue",49,"left","medium","True","False",533,1450,NA
"AGZ3GHE3N634N","Mon Nov 02 2020 12:52:01 GMT-0800 (Pacific Standard Time)","Mon Nov 02 2020 13:03:19 GMT-0800 (Pacific Standard Time)","Mozilla/5.0 (Windows NT 10.0; Win64; x64) AppleWebKit/537.36 (KHTML, like Gecko) Chrome/86.0.4240.111 Safari/537.36",29,"[0.9, 0.5, 0.1]","[0.8, 0.4, 0.2]","[u'blue', u'black', u'red']","[u'left', u'middle', u'right']","[0.9, 0.5, 0.1]","[u'medium', u'low', u'high']","red",51,"right","high","True","False",502,1550,NA
"AGZ3GHE3N634N","Mon Nov 02 2020 12:52:01 GMT-0800 (Pacific Standard Time)","Mon Nov 02 2020 13:03:19 GMT-0800 (Pacific Standard Time)","Mozilla/5.0 (Windows NT 10.0; Win64; x64) AppleWebKit/537.36 (KHTML, like Gecko) Chrome/86.0.4240.111 Safari/537.36",30,"[0.9, 0.5, 0.1]","[0.8, 0.4, 0.2]","[u'blue', u'black', u'red']","[u'left', u'middle', u'right']","[0.9, 0.5, 0.1]","[u'medium', u'low', u'high']","blue",49,"left","medium","True","False",605,1650,NA
"AGZ3GHE3N634N","Mon Nov 02 2020 12:52:01 GMT-0800 (Pacific Standard Time)","Mon Nov 02 2020 13:03:19 GMT-0800 (Pacific Standard Time)","Mozilla/5.0 (Windows NT 10.0; Win64; x64) AppleWebKit/537.36 (KHTML, like Gecko) Chrome/86.0.4240.111 Safari/537.36",31,"[0.9, 0.5, 0.1]","[0.8, 0.4, 0.2]","[u'blue', u'black', u'red']","[u'left', u'middle', u'right']","[0.9, 0.5, 0.1]","[u'medium', u'low', u'high']","red",51,"right","high","True","False",580,1750,NA
"AGZ3GHE3N634N","Mon Nov 02 2020 12:52:01 GMT-0800 (Pacific Standard Time)","Mon Nov 02 2020 13:03:19 GMT-0800 (Pacific Standard Time)","Mozilla/5.0 (Windows NT 10.0; Win64; x64) AppleWebKit/537.36 (KHTML, like Gecko) Chrome/86.0.4240.111 Safari/537.36",32,"[0.9, 0.5, 0.1]","[0.8, 0.4, 0.2]","[u'blue', u'black', u'red']","[u'left', u'middle', u'right']","[0.9, 0.5, 0.1]","[u'medium', u'low', u'high']","blue",49,"left","medium","True","False",593,1850,NA
"AGZ3GHE3N634N","Mon Nov 02 2020 12:52:01 GMT-0800 (Pacific Standard Time)","Mon Nov 02 2020 13:03:19 GMT-0800 (Pacific Standard Time)","Mozilla/5.0 (Windows NT 10.0; Win64; x64) AppleWebKit/537.36 (KHTML, like Gecko) Chrome/86.0.4240.111 Safari/537.36",33,"[0.9, 0.5, 0.1]","[0.8, 0.4, 0.2]","[u'blue', u'black', u'red']","[u'left', u'middle', u'right']","[0.9, 0.5, 0.1]","[u'medium', u'low', u'high']","red",51,"right","high","True","False",417,1950,NA
"AGZ3GHE3N634N","Mon Nov 02 2020 12:52:01 GMT-0800 (Pacific Standard Time)","Mon Nov 02 2020 13:03:19 GMT-0800 (Pacific Standard Time)","Mozilla/5.0 (Windows NT 10.0; Win64; x64) AppleWebKit/537.36 (KHTML, like Gecko) Chrome/86.0.4240.111 Safari/537.36",34,"[0.9, 0.5, 0.1]","[0.8, 0.4, 0.2]","[u'blue', u'black', u'red']","[u'left', u'middle', u'right']","[0.9, 0.5, 0.1]","[u'medium', u'low', u'high']","blue",49,"left","medium","True","False",573,2050,NA
"AGZ3GHE3N634N","Mon Nov 02 2020 12:52:01 GMT-0800 (Pacific Standard Time)","Mon Nov 02 2020 13:03:19 GMT-0800 (Pacific Standard Time)","Mozilla/5.0 (Windows NT 10.0; Win64; x64) AppleWebKit/537.36 (KHTML, like Gecko) Chrome/86.0.4240.111 Safari/537.36",35,"[0.9, 0.5, 0.1]","[0.8, 0.4, 0.2]","[u'blue', u'black', u'red']","[u'left', u'middle', u'right']","[0.9, 0.5, 0.1]","[u'medium', u'low', u'high']","red",51,"right","high","True","False",527,2150,NA
"AGZ3GHE3N634N","Mon Nov 02 2020 12:52:01 GMT-0800 (Pacific Standard Time)","Mon Nov 02 2020 13:03:19 GMT-0800 (Pacific Standard Time)","Mozilla/5.0 (Windows NT 10.0; Win64; x64) AppleWebKit/537.36 (KHTML, like Gecko) Chrome/86.0.4240.111 Safari/537.36",36,"[0.9, 0.5, 0.1]","[0.8, 0.4, 0.2]","[u'blue', u'black', u'red']","[u'left', u'middle', u'right']","[0.9, 0.5, 0.1]","[u'medium', u'low', u'high']","blue",49,"left","medium","False","False",602,2100,NA
"AGZ3GHE3N634N","Mon Nov 02 2020 12:52:01 GMT-0800 (Pacific Standard Time)","Mon Nov 02 2020 13:03:19 GMT-0800 (Pacific Standard Time)","Mozilla/5.0 (Windows NT 10.0; Win64; x64) AppleWebKit/537.36 (KHTML, like Gecko) Chrome/86.0.4240.111 Safari/537.36",37,"[0.9, 0.5, 0.1]","[0.8, 0.4, 0.2]","[u'blue', u'black', u'red']","[u'left', u'middle', u'right']","[0.9, 0.5, 0.1]","[u'medium', u'low', u'high']","black",50,"middle","low","False","False",544,2050,NA
"AGZ3GHE3N634N","Mon Nov 02 2020 12:52:01 GMT-0800 (Pacific Standard Time)","Mon Nov 02 2020 13:03:19 GMT-0800 (Pacific Standard Time)","Mozilla/5.0 (Windows NT 10.0; Win64; x64) AppleWebKit/537.36 (KHTML, like Gecko) Chrome/86.0.4240.111 Safari/537.36",38,"[0.9, 0.5, 0.1]","[0.8, 0.4, 0.2]","[u'blue', u'black', u'red']","[u'left', u'middle', u'right']","[0.9, 0.5, 0.1]","[u'medium', u'low', u'high']","red",51,"right","high","True","False",660,2150,NA
"AGZ3GHE3N634N","Mon Nov 02 2020 12:52:01 GMT-0800 (Pacific Standard Time)","Mon Nov 02 2020 13:03:19 GMT-0800 (Pacific Standard Time)","Mozilla/5.0 (Windows NT 10.0; Win64; x64) AppleWebKit/537.36 (KHTML, like Gecko) Chrome/86.0.4240.111 Safari/537.36",39,"[0.9, 0.5, 0.1]","[0.8, 0.4, 0.2]","[u'blue', u'black', u'red']","[u'left', u'middle', u'right']","[0.9, 0.5, 0.1]","[u'medium', u'low', u'high']","red",51,"right","high","True","False",386,2250,NA
"AGZ3GHE3N634N","Mon Nov 02 2020 12:52:01 GMT-0800 (Pacific Standard Time)","Mon Nov 02 2020 13:03:19 GMT-0800 (Pacific Standard Time)","Mozilla/5.0 (Windows NT 10.0; Win64; x64) AppleWebKit/537.36 (KHTML, like Gecko) Chrome/86.0.4240.111 Safari/537.36",40,"[0.9, 0.5, 0.1]","[0.8, 0.4, 0.2]","[u'blue', u'black', u'red']","[u'left', u'middle', u'right']","[0.9, 0.5, 0.1]","[u'medium', u'low', u'high']","red",51,"right","high","True","False",533,2350,NA
"AGZ3GHE3N634N","Mon Nov 02 2020 12:52:01 GMT-0800 (Pacific Standard Time)","Mon Nov 02 2020 13:03:19 GMT-0800 (Pacific Standard Time)","Mozilla/5.0 (Windows NT 10.0; Win64; x64) AppleWebKit/537.36 (KHTML, like Gecko) Chrome/86.0.4240.111 Safari/537.36",41,"[0.9, 0.5, 0.1]","[0.8, 0.4, 0.2]","[u'blue', u'black', u'red']","[u'left', u'middle', u'right']","[0.9, 0.5, 0.1]","[u'medium', u'high', u'low']","blue",49,"left","medium","False","False",3319,2300,NA
"AGZ3GHE3N634N","Mon Nov 02 2020 12:52:01 GMT-0800 (Pacific Standard Time)","Mon Nov 02 2020 13:03:19 GMT-0800 (Pacific Standard Time)","Mozilla/5.0 (Windows NT 10.0; Win64; x64) AppleWebKit/537.36 (KHTML, like Gecko) Chrome/86.0.4240.111 Safari/537.36",42,"[0.9, 0.5, 0.1]","[0.8, 0.4, 0.2]","[u'blue', u'black', u'red']","[u'left', u'middle', u'right']","[0.9, 0.5, 0.1]","[u'medium', u'high', u'low']","blue",49,"left","medium","True","False",550,2400,NA
"AGZ3GHE3N634N","Mon Nov 02 2020 12:52:01 GMT-0800 (Pacific Standard Time)","Mon Nov 02 2020 13:03:19 GMT-0800 (Pacific Standard Time)","Mozilla/5.0 (Windows NT 10.0; Win64; x64) AppleWebKit/537.36 (KHTML, like Gecko) Chrome/86.0.4240.111 Safari/537.36",43,"[0.9, 0.5, 0.1]","[0.8, 0.4, 0.2]","[u'blue', u'black', u'red']","[u'left', u'middle', u'right']","[0.9, 0.5, 0.1]","[u'medium', u'high', u'low']","blue",49,"left","medium","False","False",139,2350,NA
"AGZ3GHE3N634N","Mon Nov 02 2020 12:52:01 GMT-0800 (Pacific Standard Time)","Mon Nov 02 2020 13:03:19 GMT-0800 (Pacific Standard Time)","Mozilla/5.0 (Windows NT 10.0; Win64; x64) AppleWebKit/537.36 (KHTML, like Gecko) Chrome/86.0.4240.111 Safari/537.36",44,"[0.9, 0.5, 0.1]","[0.8, 0.4, 0.2]","[u'blue', u'black', u'red']","[u'left', u'middle', u'right']","[0.9, 0.5, 0.1]","[u'medium', u'high', u'low']","black",50,"middle","high","True","False",790,2450,NA
"AGZ3GHE3N634N","Mon Nov 02 2020 12:52:01 GMT-0800 (Pacific Standard Time)","Mon Nov 02 2020 13:03:19 GMT-0800 (Pacific Standard Time)","Mozilla/5.0 (Windows NT 10.0; Win64; x64) AppleWebKit/537.36 (KHTML, like Gecko) Chrome/86.0.4240.111 Safari/537.36",45,"[0.9, 0.5, 0.1]","[0.8, 0.4, 0.2]","[u'blue', u'black', u'red']","[u'left', u'middle', u'right']","[0.9, 0.5, 0.1]","[u'medium', u'high', u'low']","blue",49,"left","medium","True","False",535,2550,NA
"AGZ3GHE3N634N","Mon Nov 02 2020 12:52:01 GMT-0800 (Pacific Standard Time)","Mon Nov 02 2020 13:03:19 GMT-0800 (Pacific Standard Time)","Mozilla/5.0 (Windows NT 10.0; Win64; x64) AppleWebKit/537.36 (KHTML, like Gecko) Chrome/86.0.4240.111 Safari/537.36",46,"[0.9, 0.5, 0.1]","[0.8, 0.4, 0.2]","[u'blue', u'black', u'red']","[u'left', u'middle', u'right']","[0.9, 0.5, 0.1]","[u'medium', u'high', u'low']","black",50,"middle","high","True","False",530,2650,NA
"AGZ3GHE3N634N","Mon Nov 02 2020 12:52:01 GMT-0800 (Pacific Standard Time)","Mon Nov 02 2020 13:03:19 GMT-0800 (Pacific Standard Time)","Mozilla/5.0 (Windows NT 10.0; Win64; x64) AppleWebKit/537.36 (KHTML, like Gecko) Chrome/86.0.4240.111 Safari/537.36",47,"[0.9, 0.5, 0.1]","[0.8, 0.4, 0.2]","[u'blue', u'black', u'red']","[u'left', u'middle', u'right']","[0.9, 0.5, 0.1]","[u'medium', u'high', u'low']","blue",49,"left","medium","False","False",538,2600,NA
"AGZ3GHE3N634N","Mon Nov 02 2020 12:52:01 GMT-0800 (Pacific Standard Time)","Mon Nov 02 2020 13:03:19 GMT-0800 (Pacific Standard Time)","Mozilla/5.0 (Windows NT 10.0; Win64; x64) AppleWebKit/537.36 (KHTML, like Gecko) Chrome/86.0.4240.111 Safari/537.36",48,"[0.9, 0.5, 0.1]","[0.8, 0.4, 0.2]","[u'blue', u'black', u'red']","[u'left', u'middle', u'right']","[0.9, 0.5, 0.1]","[u'medium', u'high', u'low']","red",51,"right","low","False","False",453,2550,NA
"AGZ3GHE3N634N","Mon Nov 02 2020 12:52:01 GMT-0800 (Pacific Standard Time)","Mon Nov 02 2020 13:03:19 GMT-0800 (Pacific Standard Time)","Mozilla/5.0 (Windows NT 10.0; Win64; x64) AppleWebKit/537.36 (KHTML, like Gecko) Chrome/86.0.4240.111 Safari/537.36",49,"[0.9, 0.5, 0.1]","[0.8, 0.4, 0.2]","[u'blue', u'black', u'red']","[u'left', u'middle', u'right']","[0.9, 0.5, 0.1]","[u'medium', u'high', u'low']","blue",49,"left","medium","False","False",1091,2500,NA
"AGZ3GHE3N634N","Mon Nov 02 2020 12:52:01 GMT-0800 (Pacific Standard Time)","Mon Nov 02 2020 13:03:19 GMT-0800 (Pacific Standard Time)","Mozilla/5.0 (Windows NT 10.0; Win64; x64) AppleWebKit/537.36 (KHTML, like Gecko) Chrome/86.0.4240.111 Safari/537.36",50,"[0.9, 0.5, 0.1]","[0.8, 0.4, 0.2]","[u'blue', u'black', u'red']","[u'left', u'middle', u'right']","[0.9, 0.5, 0.1]","[u'medium', u'high', u'low']","blue",49,"left","medium","False","False",581,2450,NA
"AGZ3GHE3N634N","Mon Nov 02 2020 12:52:01 GMT-0800 (Pacific Standard Time)","Mon Nov 02 2020 13:03:19 GMT-0800 (Pacific Standard Time)","Mozilla/5.0 (Windows NT 10.0; Win64; x64) AppleWebKit/537.36 (KHTML, like Gecko) Chrome/86.0.4240.111 Safari/537.36",51,"[0.9, 0.5, 0.1]","[0.8, 0.4, 0.2]","[u'blue', u'black', u'red']","[u'left', u'middle', u'right']","[0.9, 0.5, 0.1]","[u'medium', u'high', u'low']","black",50,"middle","high","True","False",650,2550,NA
"AGZ3GHE3N634N","Mon Nov 02 2020 12:52:01 GMT-0800 (Pacific Standard Time)","Mon Nov 02 2020 13:03:19 GMT-0800 (Pacific Standard Time)","Mozilla/5.0 (Windows NT 10.0; Win64; x64) AppleWebKit/537.36 (KHTML, like Gecko) Chrome/86.0.4240.111 Safari/537.36",52,"[0.9, 0.5, 0.1]","[0.8, 0.4, 0.2]","[u'blue', u'black', u'red']","[u'left', u'middle', u'right']","[0.9, 0.5, 0.1]","[u'medium', u'high', u'low']","red",51,"right","low","False","False",542,2500,NA
"AGZ3GHE3N634N","Mon Nov 02 2020 12:52:01 GMT-0800 (Pacific Standard Time)","Mon Nov 02 2020 13:03:19 GMT-0800 (Pacific Standard Time)","Mozilla/5.0 (Windows NT 10.0; Win64; x64) AppleWebKit/537.36 (KHTML, like Gecko) Chrome/86.0.4240.111 Safari/537.36",53,"[0.9, 0.5, 0.1]","[0.8, 0.4, 0.2]","[u'blue', u'black', u'red']","[u'left', u'middle', u'right']","[0.9, 0.5, 0.1]","[u'medium', u'high', u'low']","blue",49,"left","medium","True","False",520,2600,NA
"AGZ3GHE3N634N","Mon Nov 02 2020 12:52:01 GMT-0800 (Pacific Standard Time)","Mon Nov 02 2020 13:03:19 GMT-0800 (Pacific Standard Time)","Mozilla/5.0 (Windows NT 10.0; Win64; x64) AppleWebKit/537.36 (KHTML, like Gecko) Chrome/86.0.4240.111 Safari/537.36",54,"[0.9, 0.5, 0.1]","[0.8, 0.4, 0.2]","[u'blue', u'black', u'red']","[u'left', u'middle', u'right']","[0.9, 0.5, 0.1]","[u'medium', u'high', u'low']","black",50,"middle","high","True","False",5860,2700,NA
"AGZ3GHE3N634N","Mon Nov 02 2020 12:52:01 GMT-0800 (Pacific Standard Time)","Mon Nov 02 2020 13:03:19 GMT-0800 (Pacific Standard Time)","Mozilla/5.0 (Windows NT 10.0; Win64; x64) AppleWebKit/537.36 (KHTML, like Gecko) Chrome/86.0.4240.111 Safari/537.36",55,"[0.9, 0.5, 0.1]","[0.8, 0.4, 0.2]","[u'blue', u'black', u'red']","[u'left', u'middle', u'right']","[0.9, 0.5, 0.1]","[u'medium', u'high', u'low']","blue",49,"left","medium","True","False",574,2800,NA
"AGZ3GHE3N634N","Mon Nov 02 2020 12:52:01 GMT-0800 (Pacific Standard Time)","Mon Nov 02 2020 13:03:19 GMT-0800 (Pacific Standard Time)","Mozilla/5.0 (Windows NT 10.0; Win64; x64) AppleWebKit/537.36 (KHTML, like Gecko) Chrome/86.0.4240.111 Safari/537.36",56,"[0.9, 0.5, 0.1]","[0.8, 0.4, 0.2]","[u'blue', u'black', u'red']","[u'left', u'middle', u'right']","[0.9, 0.5, 0.1]","[u'medium', u'high', u'low']","black",50,"middle","high","True","False",608,2900,NA
"AGZ3GHE3N634N","Mon Nov 02 2020 12:52:01 GMT-0800 (Pacific Standard Time)","Mon Nov 02 2020 13:03:19 GMT-0800 (Pacific Standard Time)","Mozilla/5.0 (Windows NT 10.0; Win64; x64) AppleWebKit/537.36 (KHTML, like Gecko) Chrome/86.0.4240.111 Safari/537.36",57,"[0.9, 0.5, 0.1]","[0.8, 0.4, 0.2]","[u'blue', u'black', u'red']","[u'left', u'middle', u'right']","[0.9, 0.5, 0.1]","[u'medium', u'high', u'low']","blue",49,"left","medium","False","False",588,2850,NA
"AGZ3GHE3N634N","Mon Nov 02 2020 12:52:01 GMT-0800 (Pacific Standard Time)","Mon Nov 02 2020 13:03:19 GMT-0800 (Pacific Standard Time)","Mozilla/5.0 (Windows NT 10.0; Win64; x64) AppleWebKit/537.36 (KHTML, like Gecko) Chrome/86.0.4240.111 Safari/537.36",58,"[0.9, 0.5, 0.1]","[0.8, 0.4, 0.2]","[u'blue', u'black', u'red']","[u'left', u'middle', u'right']","[0.9, 0.5, 0.1]","[u'medium', u'high', u'low']","red",51,"right","low","False","False",595,2800,NA
"AGZ3GHE3N634N","Mon Nov 02 2020 12:52:01 GMT-0800 (Pacific Standard Time)","Mon Nov 02 2020 13:03:19 GMT-0800 (Pacific Standard Time)","Mozilla/5.0 (Windows NT 10.0; Win64; x64) AppleWebKit/537.36 (KHTML, like Gecko) Chrome/86.0.4240.111 Safari/537.36",59,"[0.9, 0.5, 0.1]","[0.8, 0.4, 0.2]","[u'blue', u'black', u'red']","[u'left', u'middle', u'right']","[0.9, 0.5, 0.1]","[u'medium', u'high', u'low']","black",50,"middle","high","True","False",574,2900,NA
"AGZ3GHE3N634N","Mon Nov 02 2020 12:52:01 GMT-0800 (Pacific Standard Time)","Mon Nov 02 2020 13:03:19 GMT-0800 (Pacific Standard Time)","Mozilla/5.0 (Windows NT 10.0; Win64; x64) AppleWebKit/537.36 (KHTML, like Gecko) Chrome/86.0.4240.111 Safari/537.36",60,"[0.9, 0.5, 0.1]","[0.8, 0.4, 0.2]","[u'blue', u'black', u'red']","[u'left', u'middle', u'right']","[0.9, 0.5, 0.1]","[u'medium', u'high', u'low']","black",50,"middle","high","True","False",609,3000,NA
"AGZ3GHE3N634N","Mon Nov 02 2020 12:52:01 GMT-0800 (Pacific Standard Time)","Mon Nov 02 2020 13:03:19 GMT-0800 (Pacific Standard Time)","Mozilla/5.0 (Windows NT 10.0; Win64; x64) AppleWebKit/537.36 (KHTML, like Gecko) Chrome/86.0.4240.111 Safari/537.36",61,"[0.9, 0.5, 0.1]","[0.8, 0.4, 0.2]","[u'blue', u'black', u'red']","[u'left', u'middle', u'right']","[0.9, 0.5, 0.1]","[u'medium', u'high', u'low']","black",50,"middle","high","True","False",551,3100,NA
"AGZ3GHE3N634N","Mon Nov 02 2020 12:52:01 GMT-0800 (Pacific Standard Time)","Mon Nov 02 2020 13:03:19 GMT-0800 (Pacific Standard Time)","Mozilla/5.0 (Windows NT 10.0; Win64; x64) AppleWebKit/537.36 (KHTML, like Gecko) Chrome/86.0.4240.111 Safari/537.36",62,"[0.9, 0.5, 0.1]","[0.8, 0.4, 0.2]","[u'blue', u'black', u'red']","[u'left', u'middle', u'right']","[0.9, 0.5, 0.1]","[u'medium', u'high', u'low']","black",50,"middle","high","True","False",519,3200,NA
"AGZ3GHE3N634N","Mon Nov 02 2020 12:52:01 GMT-0800 (Pacific Standard Time)","Mon Nov 02 2020 13:03:19 GMT-0800 (Pacific Standard Time)","Mozilla/5.0 (Windows NT 10.0; Win64; x64) AppleWebKit/537.36 (KHTML, like Gecko) Chrome/86.0.4240.111 Safari/537.36",63,"[0.9, 0.5, 0.1]","[0.8, 0.4, 0.2]","[u'blue', u'black', u'red']","[u'left', u'middle', u'right']","[0.9, 0.5, 0.1]","[u'medium', u'high', u'low']","black",50,"middle","high","True","False",508,3300,NA
"AGZ3GHE3N634N","Mon Nov 02 2020 12:52:01 GMT-0800 (Pacific Standard Time)","Mon Nov 02 2020 13:03:19 GMT-0800 (Pacific Standard Time)","Mozilla/5.0 (Windows NT 10.0; Win64; x64) AppleWebKit/537.36 (KHTML, like Gecko) Chrome/86.0.4240.111 Safari/537.36",64,"[0.9, 0.5, 0.1]","[0.8, 0.4, 0.2]","[u'blue', u'black', u'red']","[u'left', u'middle', u'right']","[0.9, 0.5, 0.1]","[u'medium', u'high', u'low']","black",50,"middle","high","True","False",517,3400,NA
"AGZ3GHE3N634N","Mon Nov 02 2020 12:52:01 GMT-0800 (Pacific Standard Time)","Mon Nov 02 2020 13:03:19 GMT-0800 (Pacific Standard Time)","Mozilla/5.0 (Windows NT 10.0; Win64; x64) AppleWebKit/537.36 (KHTML, like Gecko) Chrome/86.0.4240.111 Safari/537.36",65,"[0.9, 0.5, 0.1]","[0.8, 0.4, 0.2]","[u'blue', u'black', u'red']","[u'left', u'middle', u'right']","[0.9, 0.5, 0.1]","[u'medium', u'high', u'low']","black",50,"middle","high","True","False",544,3500,NA
"AGZ3GHE3N634N","Mon Nov 02 2020 12:52:01 GMT-0800 (Pacific Standard Time)","Mon Nov 02 2020 13:03:19 GMT-0800 (Pacific Standard Time)","Mozilla/5.0 (Windows NT 10.0; Win64; x64) AppleWebKit/537.36 (KHTML, like Gecko) Chrome/86.0.4240.111 Safari/537.36",66,"[0.9, 0.5, 0.1]","[0.8, 0.4, 0.2]","[u'blue', u'black', u'red']","[u'left', u'middle', u'right']","[0.9, 0.5, 0.1]","[u'medium', u'high', u'low']","black",50,"middle","high","True","False",593,3600,NA
"AGZ3GHE3N634N","Mon Nov 02 2020 12:52:01 GMT-0800 (Pacific Standard Time)","Mon Nov 02 2020 13:03:19 GMT-0800 (Pacific Standard Time)","Mozilla/5.0 (Windows NT 10.0; Win64; x64) AppleWebKit/537.36 (KHTML, like Gecko) Chrome/86.0.4240.111 Safari/537.36",67,"[0.9, 0.5, 0.1]","[0.8, 0.4, 0.2]","[u'blue', u'black', u'red']","[u'left', u'middle', u'right']","[0.9, 0.5, 0.1]","[u'medium', u'high', u'low']","black",50,"middle","high","True","True",577,3700,NA
"AGZ3GHE3N634N","Mon Nov 02 2020 12:52:01 GMT-0800 (Pacific Standard Time)","Mon Nov 02 2020 13:03:19 GMT-0800 (Pacific Standard Time)","Mozilla/5.0 (Windows NT 10.0; Win64; x64) AppleWebKit/537.36 (KHTML, like Gecko) Chrome/86.0.4240.111 Safari/537.36",68,"[0.9, 0.5, 0.1]","[0.8, 0.4, 0.2]","[u'blue', u'black', u'red']","[u'left', u'middle', u'right']","[0.9, 0.5, 0.1]","[u'low', u'medium', u'high']","black",50,"middle","medium","True","False",575,3800,NA
"AGZ3GHE3N634N","Mon Nov 02 2020 12:52:01 GMT-0800 (Pacific Standard Time)","Mon Nov 02 2020 13:03:19 GMT-0800 (Pacific Standard Time)","Mozilla/5.0 (Windows NT 10.0; Win64; x64) AppleWebKit/537.36 (KHTML, like Gecko) Chrome/86.0.4240.111 Safari/537.36",69,"[0.9, 0.5, 0.1]","[0.8, 0.4, 0.2]","[u'blue', u'black', u'red']","[u'left', u'middle', u'right']","[0.9, 0.5, 0.1]","[u'low', u'medium', u'high']","black",50,"middle","medium","False","False",615,3750,NA
"AGZ3GHE3N634N","Mon Nov 02 2020 12:52:01 GMT-0800 (Pacific Standard Time)","Mon Nov 02 2020 13:03:19 GMT-0800 (Pacific Standard Time)","Mozilla/5.0 (Windows NT 10.0; Win64; x64) AppleWebKit/537.36 (KHTML, like Gecko) Chrome/86.0.4240.111 Safari/537.36",70,"[0.9, 0.5, 0.1]","[0.8, 0.4, 0.2]","[u'blue', u'black', u'red']","[u'left', u'middle', u'right']","[0.9, 0.5, 0.1]","[u'low', u'medium', u'high']","blue",49,"left","low","False","False",592,3700,NA
"AGZ3GHE3N634N","Mon Nov 02 2020 12:52:01 GMT-0800 (Pacific Standard Time)","Mon Nov 02 2020 13:03:19 GMT-0800 (Pacific Standard Time)","Mozilla/5.0 (Windows NT 10.0; Win64; x64) AppleWebKit/537.36 (KHTML, like Gecko) Chrome/86.0.4240.111 Safari/537.36",71,"[0.9, 0.5, 0.1]","[0.8, 0.4, 0.2]","[u'blue', u'black', u'red']","[u'left', u'middle', u'right']","[0.9, 0.5, 0.1]","[u'low', u'medium', u'high']","blue",49,"left","low","False","False",575,3650,NA
"AGZ3GHE3N634N","Mon Nov 02 2020 12:52:01 GMT-0800 (Pacific Standard Time)","Mon Nov 02 2020 13:03:19 GMT-0800 (Pacific Standard Time)","Mozilla/5.0 (Windows NT 10.0; Win64; x64) AppleWebKit/537.36 (KHTML, like Gecko) Chrome/86.0.4240.111 Safari/537.36",72,"[0.9, 0.5, 0.1]","[0.8, 0.4, 0.2]","[u'blue', u'black', u'red']","[u'left', u'middle', u'right']","[0.9, 0.5, 0.1]","[u'low', u'medium', u'high']","blue",49,"left","low","False","False",572,3600,NA
"AGZ3GHE3N634N","Mon Nov 02 2020 12:52:01 GMT-0800 (Pacific Standard Time)","Mon Nov 02 2020 13:03:19 GMT-0800 (Pacific Standard Time)","Mozilla/5.0 (Windows NT 10.0; Win64; x64) AppleWebKit/537.36 (KHTML, like Gecko) Chrome/86.0.4240.111 Safari/537.36",73,"[0.9, 0.5, 0.1]","[0.8, 0.4, 0.2]","[u'blue', u'black', u'red']","[u'left', u'middle', u'right']","[0.9, 0.5, 0.1]","[u'low', u'medium', u'high']","red",51,"right","high","True","False",549,3700,NA
"AGZ3GHE3N634N","Mon Nov 02 2020 12:52:01 GMT-0800 (Pacific Standard Time)","Mon Nov 02 2020 13:03:19 GMT-0800 (Pacific Standard Time)","Mozilla/5.0 (Windows NT 10.0; Win64; x64) AppleWebKit/537.36 (KHTML, like Gecko) Chrome/86.0.4240.111 Safari/537.36",74,"[0.9, 0.5, 0.1]","[0.8, 0.4, 0.2]","[u'blue', u'black', u'red']","[u'left', u'middle', u'right']","[0.9, 0.5, 0.1]","[u'low', u'medium', u'high']","red",51,"right","high","True","False",541,3800,NA
"AGZ3GHE3N634N","Mon Nov 02 2020 12:52:01 GMT-0800 (Pacific Standard Time)","Mon Nov 02 2020 13:03:19 GMT-0800 (Pacific Standard Time)","Mozilla/5.0 (Windows NT 10.0; Win64; x64) AppleWebKit/537.36 (KHTML, like Gecko) Chrome/86.0.4240.111 Safari/537.36",75,"[0.9, 0.5, 0.1]","[0.8, 0.4, 0.2]","[u'blue', u'black', u'red']","[u'left', u'middle', u'right']","[0.9, 0.5, 0.1]","[u'low', u'medium', u'high']","red",51,"right","high","True","False",503,3900,NA
"AGZ3GHE3N634N","Mon Nov 02 2020 12:52:01 GMT-0800 (Pacific Standard Time)","Mon Nov 02 2020 13:03:19 GMT-0800 (Pacific Standard Time)","Mozilla/5.0 (Windows NT 10.0; Win64; x64) AppleWebKit/537.36 (KHTML, like Gecko) Chrome/86.0.4240.111 Safari/537.36",76,"[0.9, 0.5, 0.1]","[0.8, 0.4, 0.2]","[u'blue', u'black', u'red']","[u'left', u'middle', u'right']","[0.9, 0.5, 0.1]","[u'low', u'medium', u'high']","black",50,"middle","medium","True","False",741,4000,NA
"AGZ3GHE3N634N","Mon Nov 02 2020 12:52:01 GMT-0800 (Pacific Standard Time)","Mon Nov 02 2020 13:03:19 GMT-0800 (Pacific Standard Time)","Mozilla/5.0 (Windows NT 10.0; Win64; x64) AppleWebKit/537.36 (KHTML, like Gecko) Chrome/86.0.4240.111 Safari/537.36",77,"[0.9, 0.5, 0.1]","[0.8, 0.4, 0.2]","[u'blue', u'black', u'red']","[u'left', u'middle', u'right']","[0.9, 0.5, 0.1]","[u'low', u'medium', u'high']","red",51,"right","high","False","False",535,3950,NA
"AGZ3GHE3N634N","Mon Nov 02 2020 12:52:01 GMT-0800 (Pacific Standard Time)","Mon Nov 02 2020 13:03:19 GMT-0800 (Pacific Standard Time)","Mozilla/5.0 (Windows NT 10.0; Win64; x64) AppleWebKit/537.36 (KHTML, like Gecko) Chrome/86.0.4240.111 Safari/537.36",78,"[0.9, 0.5, 0.1]","[0.8, 0.4, 0.2]","[u'blue', u'black', u'red']","[u'left', u'middle', u'right']","[0.9, 0.5, 0.1]","[u'low', u'medium', u'high']","black",50,"middle","medium","False","False",500,3900,NA
"AGZ3GHE3N634N","Mon Nov 02 2020 12:52:01 GMT-0800 (Pacific Standard Time)","Mon Nov 02 2020 13:03:19 GMT-0800 (Pacific Standard Time)","Mozilla/5.0 (Windows NT 10.0; Win64; x64) AppleWebKit/537.36 (KHTML, like Gecko) Chrome/86.0.4240.111 Safari/537.36",79,"[0.9, 0.5, 0.1]","[0.8, 0.4, 0.2]","[u'blue', u'black', u'red']","[u'left', u'middle', u'right']","[0.9, 0.5, 0.1]","[u'low', u'medium', u'high']","black",50,"middle","medium","False","False",751,3850,NA
"AGZ3GHE3N634N","Mon Nov 02 2020 12:52:01 GMT-0800 (Pacific Standard Time)","Mon Nov 02 2020 13:03:19 GMT-0800 (Pacific Standard Time)","Mozilla/5.0 (Windows NT 10.0; Win64; x64) AppleWebKit/537.36 (KHTML, like Gecko) Chrome/86.0.4240.111 Safari/537.36",80,"[0.9, 0.5, 0.1]","[0.8, 0.4, 0.2]","[u'blue', u'black', u'red']","[u'left', u'middle', u'right']","[0.9, 0.5, 0.1]","[u'low', u'medium', u'high']","red",51,"right","high","True","False",1496,3950,NA
"AGZ3GHE3N634N","Mon Nov 02 2020 12:52:01 GMT-0800 (Pacific Standard Time)","Mon Nov 02 2020 13:03:19 GMT-0800 (Pacific Standard Time)","Mozilla/5.0 (Windows NT 10.0; Win64; x64) AppleWebKit/537.36 (KHTML, like Gecko) Chrome/86.0.4240.111 Safari/537.36",81,"[0.9, 0.5, 0.1]","[0.8, 0.4, 0.2]","[u'blue', u'black', u'red']","[u'left', u'middle', u'right']","[0.8, 0.4, 0.2]","[u'medium', u'high', u'low']","blue",49,"left","medium","False","False",13640,3900,NA
"AGZ3GHE3N634N","Mon Nov 02 2020 12:52:01 GMT-0800 (Pacific Standard Time)","Mon Nov 02 2020 13:03:19 GMT-0800 (Pacific Standard Time)","Mozilla/5.0 (Windows NT 10.0; Win64; x64) AppleWebKit/537.36 (KHTML, like Gecko) Chrome/86.0.4240.111 Safari/537.36",82,"[0.9, 0.5, 0.1]","[0.8, 0.4, 0.2]","[u'blue', u'black', u'red']","[u'left', u'middle', u'right']","[0.8, 0.4, 0.2]","[u'medium', u'high', u'low']","black",50,"middle","high","True","False",2216,4000,NA
"AGZ3GHE3N634N","Mon Nov 02 2020 12:52:01 GMT-0800 (Pacific Standard Time)","Mon Nov 02 2020 13:03:19 GMT-0800 (Pacific Standard Time)","Mozilla/5.0 (Windows NT 10.0; Win64; x64) AppleWebKit/537.36 (KHTML, like Gecko) Chrome/86.0.4240.111 Safari/537.36",83,"[0.9, 0.5, 0.1]","[0.8, 0.4, 0.2]","[u'blue', u'black', u'red']","[u'left', u'middle', u'right']","[0.8, 0.4, 0.2]","[u'medium', u'high', u'low']","black",50,"middle","high","True","False",95,4100,NA
"AGZ3GHE3N634N","Mon Nov 02 2020 12:52:01 GMT-0800 (Pacific Standard Time)","Mon Nov 02 2020 13:03:19 GMT-0800 (Pacific Standard Time)","Mozilla/5.0 (Windows NT 10.0; Win64; x64) AppleWebKit/537.36 (KHTML, like Gecko) Chrome/86.0.4240.111 Safari/537.36",84,"[0.9, 0.5, 0.1]","[0.8, 0.4, 0.2]","[u'blue', u'black', u'red']","[u'left', u'middle', u'right']","[0.8, 0.4, 0.2]","[u'medium', u'high', u'low']","black",50,"middle","high","True","False",571,4200,NA
"AGZ3GHE3N634N","Mon Nov 02 2020 12:52:01 GMT-0800 (Pacific Standard Time)","Mon Nov 02 2020 13:03:19 GMT-0800 (Pacific Standard Time)","Mozilla/5.0 (Windows NT 10.0; Win64; x64) AppleWebKit/537.36 (KHTML, like Gecko) Chrome/86.0.4240.111 Safari/537.36",85,"[0.9, 0.5, 0.1]","[0.8, 0.4, 0.2]","[u'blue', u'black', u'red']","[u'left', u'middle', u'right']","[0.8, 0.4, 0.2]","[u'medium', u'high', u'low']","black",50,"middle","high","False","False",540,4150,NA
"AGZ3GHE3N634N","Mon Nov 02 2020 12:52:01 GMT-0800 (Pacific Standard Time)","Mon Nov 02 2020 13:03:19 GMT-0800 (Pacific Standard Time)","Mozilla/5.0 (Windows NT 10.0; Win64; x64) AppleWebKit/537.36 (KHTML, like Gecko) Chrome/86.0.4240.111 Safari/537.36",86,"[0.9, 0.5, 0.1]","[0.8, 0.4, 0.2]","[u'blue', u'black', u'red']","[u'left', u'middle', u'right']","[0.8, 0.4, 0.2]","[u'medium', u'high', u'low']","blue",49,"left","medium","False","False",705,4100,NA
"AGZ3GHE3N634N","Mon Nov 02 2020 12:52:01 GMT-0800 (Pacific Standard Time)","Mon Nov 02 2020 13:03:19 GMT-0800 (Pacific Standard Time)","Mozilla/5.0 (Windows NT 10.0; Win64; x64) AppleWebKit/537.36 (KHTML, like Gecko) Chrome/86.0.4240.111 Safari/537.36",87,"[0.9, 0.5, 0.1]","[0.8, 0.4, 0.2]","[u'blue', u'black', u'red']","[u'left', u'middle', u'right']","[0.8, 0.4, 0.2]","[u'medium', u'high', u'low']","red",51,"right","low","False","False",596,4050,NA
"AGZ3GHE3N634N","Mon Nov 02 2020 12:52:01 GMT-0800 (Pacific Standard Time)","Mon Nov 02 2020 13:03:19 GMT-0800 (Pacific Standard Time)","Mozilla/5.0 (Windows NT 10.0; Win64; x64) AppleWebKit/537.36 (KHTML, like Gecko) Chrome/86.0.4240.111 Safari/537.36",88,"[0.9, 0.5, 0.1]","[0.8, 0.4, 0.2]","[u'blue', u'black', u'red']","[u'left', u'middle', u'right']","[0.8, 0.4, 0.2]","[u'medium', u'high', u'low']","blue",49,"left","medium","True","False",581,4150,NA
"AGZ3GHE3N634N","Mon Nov 02 2020 12:52:01 GMT-0800 (Pacific Standard Time)","Mon Nov 02 2020 13:03:19 GMT-0800 (Pacific Standard Time)","Mozilla/5.0 (Windows NT 10.0; Win64; x64) AppleWebKit/537.36 (KHTML, like Gecko) Chrome/86.0.4240.111 Safari/537.36",89,"[0.9, 0.5, 0.1]","[0.8, 0.4, 0.2]","[u'blue', u'black', u'red']","[u'left', u'middle', u'right']","[0.8, 0.4, 0.2]","[u'medium', u'high', u'low']","blue",49,"left","medium","True","False",516,4250,NA
"AGZ3GHE3N634N","Mon Nov 02 2020 12:52:01 GMT-0800 (Pacific Standard Time)","Mon Nov 02 2020 13:03:19 GMT-0800 (Pacific Standard Time)","Mozilla/5.0 (Windows NT 10.0; Win64; x64) AppleWebKit/537.36 (KHTML, like Gecko) Chrome/86.0.4240.111 Safari/537.36",90,"[0.9, 0.5, 0.1]","[0.8, 0.4, 0.2]","[u'blue', u'black', u'red']","[u'left', u'middle', u'right']","[0.8, 0.4, 0.2]","[u'medium', u'high', u'low']","black",50,"middle","high","True","False",537,4350,NA
"AGZ3GHE3N634N","Mon Nov 02 2020 12:52:01 GMT-0800 (Pacific Standard Time)","Mon Nov 02 2020 13:03:19 GMT-0800 (Pacific Standard Time)","Mozilla/5.0 (Windows NT 10.0; Win64; x64) AppleWebKit/537.36 (KHTML, like Gecko) Chrome/86.0.4240.111 Safari/537.36",91,"[0.9, 0.5, 0.1]","[0.8, 0.4, 0.2]","[u'blue', u'black', u'red']","[u'left', u'middle', u'right']","[0.8, 0.4, 0.2]","[u'medium', u'high', u'low']","blue",49,"left","medium","False","False",360,4300,NA
"AGZ3GHE3N634N","Mon Nov 02 2020 12:52:01 GMT-0800 (Pacific Standard Time)","Mon Nov 02 2020 13:03:19 GMT-0800 (Pacific Standard Time)","Mozilla/5.0 (Windows NT 10.0; Win64; x64) AppleWebKit/537.36 (KHTML, like Gecko) Chrome/86.0.4240.111 Safari/537.36",92,"[0.9, 0.5, 0.1]","[0.8, 0.4, 0.2]","[u'blue', u'black', u'red']","[u'left', u'middle', u'right']","[0.8, 0.4, 0.2]","[u'medium', u'high', u'low']","black",50,"middle","high","True","False",536,4400,NA
"AGZ3GHE3N634N","Mon Nov 02 2020 12:52:01 GMT-0800 (Pacific Standard Time)","Mon Nov 02 2020 13:03:19 GMT-0800 (Pacific Standard Time)","Mozilla/5.0 (Windows NT 10.0; Win64; x64) AppleWebKit/537.36 (KHTML, like Gecko) Chrome/86.0.4240.111 Safari/537.36",93,"[0.9, 0.5, 0.1]","[0.8, 0.4, 0.2]","[u'blue', u'black', u'red']","[u'left', u'middle', u'right']","[0.8, 0.4, 0.2]","[u'medium', u'high', u'low']","black",50,"middle","high","True","False",472,4500,NA
"AGZ3GHE3N634N","Mon Nov 02 2020 12:52:01 GMT-0800 (Pacific Standard Time)","Mon Nov 02 2020 13:03:19 GMT-0800 (Pacific Standard Time)","Mozilla/5.0 (Windows NT 10.0; Win64; x64) AppleWebKit/537.36 (KHTML, like Gecko) Chrome/86.0.4240.111 Safari/537.36",94,"[0.9, 0.5, 0.1]","[0.8, 0.4, 0.2]","[u'blue', u'black', u'red']","[u'left', u'middle', u'right']","[0.8, 0.4, 0.2]","[u'medium', u'high', u'low']","red",51,"right","low","False","False",678,4450,NA
"AGZ3GHE3N634N","Mon Nov 02 2020 12:52:01 GMT-0800 (Pacific Standard Time)","Mon Nov 02 2020 13:03:19 GMT-0800 (Pacific Standard Time)","Mozilla/5.0 (Windows NT 10.0; Win64; x64) AppleWebKit/537.36 (KHTML, like Gecko) Chrome/86.0.4240.111 Safari/537.36",95,"[0.9, 0.5, 0.1]","[0.8, 0.4, 0.2]","[u'blue', u'black', u'red']","[u'left', u'middle', u'right']","[0.8, 0.4, 0.2]","[u'medium', u'high', u'low']","black",50,"middle","high","True","False",613,4550,NA
"AGZ3GHE3N634N","Mon Nov 02 2020 12:52:01 GMT-0800 (Pacific Standard Time)","Mon Nov 02 2020 13:03:19 GMT-0800 (Pacific Standard Time)","Mozilla/5.0 (Windows NT 10.0; Win64; x64) AppleWebKit/537.36 (KHTML, like Gecko) Chrome/86.0.4240.111 Safari/537.36",96,"[0.9, 0.5, 0.1]","[0.8, 0.4, 0.2]","[u'blue', u'black', u'red']","[u'left', u'middle', u'right']","[0.8, 0.4, 0.2]","[u'medium', u'high', u'low']","black",50,"middle","high","True","False",604,4650,NA
"AGZ3GHE3N634N","Mon Nov 02 2020 12:52:01 GMT-0800 (Pacific Standard Time)","Mon Nov 02 2020 13:03:19 GMT-0800 (Pacific Standard Time)","Mozilla/5.0 (Windows NT 10.0; Win64; x64) AppleWebKit/537.36 (KHTML, like Gecko) Chrome/86.0.4240.111 Safari/537.36",97,"[0.9, 0.5, 0.1]","[0.8, 0.4, 0.2]","[u'blue', u'black', u'red']","[u'left', u'middle', u'right']","[0.8, 0.4, 0.2]","[u'medium', u'high', u'low']","black",50,"middle","high","True","False",587,4750,NA
"AGZ3GHE3N634N","Mon Nov 02 2020 12:52:01 GMT-0800 (Pacific Standard Time)","Mon Nov 02 2020 13:03:19 GMT-0800 (Pacific Standard Time)","Mozilla/5.0 (Windows NT 10.0; Win64; x64) AppleWebKit/537.36 (KHTML, like Gecko) Chrome/86.0.4240.111 Safari/537.36",98,"[0.9, 0.5, 0.1]","[0.8, 0.4, 0.2]","[u'blue', u'black', u'red']","[u'left', u'middle', u'right']","[0.8, 0.4, 0.2]","[u'medium', u'high', u'low']","black",50,"middle","high","True","False",519,4850,NA
"AGZ3GHE3N634N","Mon Nov 02 2020 12:52:01 GMT-0800 (Pacific Standard Time)","Mon Nov 02 2020 13:03:19 GMT-0800 (Pacific Standard Time)","Mozilla/5.0 (Windows NT 10.0; Win64; x64) AppleWebKit/537.36 (KHTML, like Gecko) Chrome/86.0.4240.111 Safari/537.36",99,"[0.9, 0.5, 0.1]","[0.8, 0.4, 0.2]","[u'blue', u'black', u'red']","[u'left', u'middle', u'right']","[0.8, 0.4, 0.2]","[u'medium', u'high', u'low']","black",50,"middle","high","True","False",555,4950,NA
"AGZ3GHE3N634N","Mon Nov 02 2020 12:52:01 GMT-0800 (Pacific Standard Time)","Mon Nov 02 2020 13:03:19 GMT-0800 (Pacific Standard Time)","Mozilla/5.0 (Windows NT 10.0; Win64; x64) AppleWebKit/537.36 (KHTML, like Gecko) Chrome/86.0.4240.111 Safari/537.36",100,"[0.9, 0.5, 0.1]","[0.8, 0.4, 0.2]","[u'blue', u'black', u'red']","[u'left', u'middle', u'right']","[0.8, 0.4, 0.2]","[u'medium', u'high', u'low']","black",50,"middle","high","True","False",583,5050,NA
"AGZ3GHE3N634N","Mon Nov 02 2020 12:52:01 GMT-0800 (Pacific Standard Time)","Mon Nov 02 2020 13:03:19 GMT-0800 (Pacific Standard Time)","Mozilla/5.0 (Windows NT 10.0; Win64; x64) AppleWebKit/537.36 (KHTML, like Gecko) Chrome/86.0.4240.111 Safari/537.36",101,"[0.9, 0.5, 0.1]","[0.8, 0.4, 0.2]","[u'blue', u'black', u'red']","[u'left', u'middle', u'right']","[0.8, 0.4, 0.2]","[u'medium', u'high', u'low']","black",50,"middle","high","True","False",572,5150,NA
"AGZ3GHE3N634N","Mon Nov 02 2020 12:52:01 GMT-0800 (Pacific Standard Time)","Mon Nov 02 2020 13:03:19 GMT-0800 (Pacific Standard Time)","Mozilla/5.0 (Windows NT 10.0; Win64; x64) AppleWebKit/537.36 (KHTML, like Gecko) Chrome/86.0.4240.111 Safari/537.36",102,"[0.9, 0.5, 0.1]","[0.8, 0.4, 0.2]","[u'blue', u'black', u'red']","[u'left', u'middle', u'right']","[0.8, 0.4, 0.2]","[u'medium', u'high', u'low']","black",50,"middle","high","True","False",451,5250,NA
"AGZ3GHE3N634N","Mon Nov 02 2020 12:52:01 GMT-0800 (Pacific Standard Time)","Mon Nov 02 2020 13:03:19 GMT-0800 (Pacific Standard Time)","Mozilla/5.0 (Windows NT 10.0; Win64; x64) AppleWebKit/537.36 (KHTML, like Gecko) Chrome/86.0.4240.111 Safari/537.36",103,"[0.9, 0.5, 0.1]","[0.8, 0.4, 0.2]","[u'blue', u'black', u'red']","[u'left', u'middle', u'right']","[0.8, 0.4, 0.2]","[u'medium', u'high', u'low']","black",50,"middle","high","False","True",576,5200,NA
"AGZ3GHE3N634N","Mon Nov 02 2020 12:52:01 GMT-0800 (Pacific Standard Time)","Mon Nov 02 2020 13:03:19 GMT-0800 (Pacific Standard Time)","Mozilla/5.0 (Windows NT 10.0; Win64; x64) AppleWebKit/537.36 (KHTML, like Gecko) Chrome/86.0.4240.111 Safari/537.36",104,"[0.9, 0.5, 0.1]","[0.8, 0.4, 0.2]","[u'blue', u'black', u'red']","[u'left', u'middle', u'right']","[0.8, 0.4, 0.2]","[u'high', u'low', u'medium']","blue",49,"left","high","True","False",452,5300,NA
"AGZ3GHE3N634N","Mon Nov 02 2020 12:52:01 GMT-0800 (Pacific Standard Time)","Mon Nov 02 2020 13:03:19 GMT-0800 (Pacific Standard Time)","Mozilla/5.0 (Windows NT 10.0; Win64; x64) AppleWebKit/537.36 (KHTML, like Gecko) Chrome/86.0.4240.111 Safari/537.36",105,"[0.9, 0.5, 0.1]","[0.8, 0.4, 0.2]","[u'blue', u'black', u'red']","[u'left', u'middle', u'right']","[0.8, 0.4, 0.2]","[u'high', u'low', u'medium']","blue",49,"left","high","False","False",604,5250,NA
"AGZ3GHE3N634N","Mon Nov 02 2020 12:52:01 GMT-0800 (Pacific Standard Time)","Mon Nov 02 2020 13:03:19 GMT-0800 (Pacific Standard Time)","Mozilla/5.0 (Windows NT 10.0; Win64; x64) AppleWebKit/537.36 (KHTML, like Gecko) Chrome/86.0.4240.111 Safari/537.36",106,"[0.9, 0.5, 0.1]","[0.8, 0.4, 0.2]","[u'blue', u'black', u'red']","[u'left', u'middle', u'right']","[0.8, 0.4, 0.2]","[u'high', u'low', u'medium']","red",51,"right","medium","False","False",632,5200,NA
"AGZ3GHE3N634N","Mon Nov 02 2020 12:52:01 GMT-0800 (Pacific Standard Time)","Mon Nov 02 2020 13:03:19 GMT-0800 (Pacific Standard Time)","Mozilla/5.0 (Windows NT 10.0; Win64; x64) AppleWebKit/537.36 (KHTML, like Gecko) Chrome/86.0.4240.111 Safari/537.36",107,"[0.9, 0.5, 0.1]","[0.8, 0.4, 0.2]","[u'blue', u'black', u'red']","[u'left', u'middle', u'right']","[0.8, 0.4, 0.2]","[u'high', u'low', u'medium']","blue",49,"left","high","True","False",1849,5300,NA
"AGZ3GHE3N634N","Mon Nov 02 2020 12:52:01 GMT-0800 (Pacific Standard Time)","Mon Nov 02 2020 13:03:19 GMT-0800 (Pacific Standard Time)","Mozilla/5.0 (Windows NT 10.0; Win64; x64) AppleWebKit/537.36 (KHTML, like Gecko) Chrome/86.0.4240.111 Safari/537.36",108,"[0.9, 0.5, 0.1]","[0.8, 0.4, 0.2]","[u'blue', u'black', u'red']","[u'left', u'middle', u'right']","[0.8, 0.4, 0.2]","[u'high', u'low', u'medium']","black",50,"middle","low","False","False",2545,5250,NA
"AGZ3GHE3N634N","Mon Nov 02 2020 12:52:01 GMT-0800 (Pacific Standard Time)","Mon Nov 02 2020 13:03:19 GMT-0800 (Pacific Standard Time)","Mozilla/5.0 (Windows NT 10.0; Win64; x64) AppleWebKit/537.36 (KHTML, like Gecko) Chrome/86.0.4240.111 Safari/537.36",109,"[0.9, 0.5, 0.1]","[0.8, 0.4, 0.2]","[u'blue', u'black', u'red']","[u'left', u'middle', u'right']","[0.8, 0.4, 0.2]","[u'high', u'low', u'medium']","black",50,"middle","low","False","False",1507,5200,NA
"AGZ3GHE3N634N","Mon Nov 02 2020 12:52:01 GMT-0800 (Pacific Standard Time)","Mon Nov 02 2020 13:03:19 GMT-0800 (Pacific Standard Time)","Mozilla/5.0 (Windows NT 10.0; Win64; x64) AppleWebKit/537.36 (KHTML, like Gecko) Chrome/86.0.4240.111 Safari/537.36",110,"[0.9, 0.5, 0.1]","[0.8, 0.4, 0.2]","[u'blue', u'black', u'red']","[u'left', u'middle', u'right']","[0.8, 0.4, 0.2]","[u'high', u'low', u'medium']","blue",49,"left","high","True","False",39,5300,NA
"AGZ3GHE3N634N","Mon Nov 02 2020 12:52:01 GMT-0800 (Pacific Standard Time)","Mon Nov 02 2020 13:03:19 GMT-0800 (Pacific Standard Time)","Mozilla/5.0 (Windows NT 10.0; Win64; x64) AppleWebKit/537.36 (KHTML, like Gecko) Chrome/86.0.4240.111 Safari/537.36",111,"[0.9, 0.5, 0.1]","[0.8, 0.4, 0.2]","[u'blue', u'black', u'red']","[u'left', u'middle', u'right']","[0.8, 0.4, 0.2]","[u'high', u'low', u'medium']","blue",49,"left","high","True","False",459,5400,NA
"AGZ3GHE3N634N","Mon Nov 02 2020 12:52:01 GMT-0800 (Pacific Standard Time)","Mon Nov 02 2020 13:03:19 GMT-0800 (Pacific Standard Time)","Mozilla/5.0 (Windows NT 10.0; Win64; x64) AppleWebKit/537.36 (KHTML, like Gecko) Chrome/86.0.4240.111 Safari/537.36",112,"[0.9, 0.5, 0.1]","[0.8, 0.4, 0.2]","[u'blue', u'black', u'red']","[u'left', u'middle', u'right']","[0.8, 0.4, 0.2]","[u'high', u'low', u'medium']","blue",49,"left","high","False","False",188,5350,NA
"AGZ3GHE3N634N","Mon Nov 02 2020 12:52:01 GMT-0800 (Pacific Standard Time)","Mon Nov 02 2020 13:03:19 GMT-0800 (Pacific Standard Time)","Mozilla/5.0 (Windows NT 10.0; Win64; x64) AppleWebKit/537.36 (KHTML, like Gecko) Chrome/86.0.4240.111 Safari/537.36",113,"[0.9, 0.5, 0.1]","[0.8, 0.4, 0.2]","[u'blue', u'black', u'red']","[u'left', u'middle', u'right']","[0.8, 0.4, 0.2]","[u'high', u'low', u'medium']","red",51,"right","medium","False","False",776,5300,NA
"AGZ3GHE3N634N","Mon Nov 02 2020 12:52:01 GMT-0800 (Pacific Standard Time)","Mon Nov 02 2020 13:03:19 GMT-0800 (Pacific Standard Time)","Mozilla/5.0 (Windows NT 10.0; Win64; x64) AppleWebKit/537.36 (KHTML, like Gecko) Chrome/86.0.4240.111 Safari/537.36",114,"[0.9, 0.5, 0.1]","[0.8, 0.4, 0.2]","[u'blue', u'black', u'red']","[u'left', u'middle', u'right']","[0.8, 0.4, 0.2]","[u'high', u'low', u'medium']","blue",49,"left","high","False","False",1036,5250,NA
"AGZ3GHE3N634N","Mon Nov 02 2020 12:52:01 GMT-0800 (Pacific Standard Time)","Mon Nov 02 2020 13:03:19 GMT-0800 (Pacific Standard Time)","Mozilla/5.0 (Windows NT 10.0; Win64; x64) AppleWebKit/537.36 (KHTML, like Gecko) Chrome/86.0.4240.111 Safari/537.36",115,"[0.9, 0.5, 0.1]","[0.8, 0.4, 0.2]","[u'blue', u'black', u'red']","[u'left', u'middle', u'right']","[0.8, 0.4, 0.2]","[u'high', u'low', u'medium']","black",50,"middle","low","False","False",1435,5200,NA
"AGZ3GHE3N634N","Mon Nov 02 2020 12:52:01 GMT-0800 (Pacific Standard Time)","Mon Nov 02 2020 13:03:19 GMT-0800 (Pacific Standard Time)","Mozilla/5.0 (Windows NT 10.0; Win64; x64) AppleWebKit/537.36 (KHTML, like Gecko) Chrome/86.0.4240.111 Safari/537.36",116,"[0.9, 0.5, 0.1]","[0.8, 0.4, 0.2]","[u'blue', u'black', u'red']","[u'left', u'middle', u'right']","[0.8, 0.4, 0.2]","[u'high', u'low', u'medium']","blue",49,"left","high","True","False",654,5300,NA
"AGZ3GHE3N634N","Mon Nov 02 2020 12:52:01 GMT-0800 (Pacific Standard Time)","Mon Nov 02 2020 13:03:19 GMT-0800 (Pacific Standard Time)","Mozilla/5.0 (Windows NT 10.0; Win64; x64) AppleWebKit/537.36 (KHTML, like Gecko) Chrome/86.0.4240.111 Safari/537.36",117,"[0.9, 0.5, 0.1]","[0.8, 0.4, 0.2]","[u'blue', u'black', u'red']","[u'left', u'middle', u'right']","[0.8, 0.4, 0.2]","[u'high', u'low', u'medium']","red",51,"right","medium","False","False",558,5250,NA
"AGZ3GHE3N634N","Mon Nov 02 2020 12:52:01 GMT-0800 (Pacific Standard Time)","Mon Nov 02 2020 13:03:19 GMT-0800 (Pacific Standard Time)","Mozilla/5.0 (Windows NT 10.0; Win64; x64) AppleWebKit/537.36 (KHTML, like Gecko) Chrome/86.0.4240.111 Safari/537.36",118,"[0.9, 0.5, 0.1]","[0.8, 0.4, 0.2]","[u'blue', u'black', u'red']","[u'left', u'middle', u'right']","[0.8, 0.4, 0.2]","[u'high', u'low', u'medium']","black",50,"middle","low","False","False",446,5200,NA
"AGZ3GHE3N634N","Mon Nov 02 2020 12:52:01 GMT-0800 (Pacific Standard Time)","Mon Nov 02 2020 13:03:19 GMT-0800 (Pacific Standard Time)","Mozilla/5.0 (Windows NT 10.0; Win64; x64) AppleWebKit/537.36 (KHTML, like Gecko) Chrome/86.0.4240.111 Safari/537.36",119,"[0.9, 0.5, 0.1]","[0.8, 0.4, 0.2]","[u'blue', u'black', u'red']","[u'left', u'middle', u'right']","[0.8, 0.4, 0.2]","[u'high', u'low', u'medium']","blue",49,"left","high","True","False",406,5300,NA
"AGZ3GHE3N634N","Mon Nov 02 2020 12:52:01 GMT-0800 (Pacific Standard Time)","Mon Nov 02 2020 13:03:19 GMT-0800 (Pacific Standard Time)","Mozilla/5.0 (Windows NT 10.0; Win64; x64) AppleWebKit/537.36 (KHTML, like Gecko) Chrome/86.0.4240.111 Safari/537.36",120,"[0.9, 0.5, 0.1]","[0.8, 0.4, 0.2]","[u'blue', u'black', u'red']","[u'left', u'middle', u'right']","[0.8, 0.4, 0.2]","[u'high', u'low', u'medium']","blue",49,"left","high","True","False",145,5400,NA
"AGZ3GHE3N634N","Mon Nov 02 2020 12:52:01 GMT-0800 (Pacific Standard Time)","Mon Nov 02 2020 13:03:19 GMT-0800 (Pacific Standard Time)","Mozilla/5.0 (Windows NT 10.0; Win64; x64) AppleWebKit/537.36 (KHTML, like Gecko) Chrome/86.0.4240.111 Safari/537.36",121,"[0.9, 0.5, 0.1]","[0.8, 0.4, 0.2]","[u'blue', u'black', u'red']","[u'left', u'middle', u'right']","[0.8, 0.4, 0.2]","[u'medium', u'high', u'low']","blue",49,"left","medium","False","False",1629,5350,NA
"AGZ3GHE3N634N","Mon Nov 02 2020 12:52:01 GMT-0800 (Pacific Standard Time)","Mon Nov 02 2020 13:03:19 GMT-0800 (Pacific Standard Time)","Mozilla/5.0 (Windows NT 10.0; Win64; x64) AppleWebKit/537.36 (KHTML, like Gecko) Chrome/86.0.4240.111 Safari/537.36",122,"[0.9, 0.5, 0.1]","[0.8, 0.4, 0.2]","[u'blue', u'black', u'red']","[u'left', u'middle', u'right']","[0.8, 0.4, 0.2]","[u'medium', u'high', u'low']","blue",49,"left","medium","False","False",148,5300,NA
"AGZ3GHE3N634N","Mon Nov 02 2020 12:52:01 GMT-0800 (Pacific Standard Time)","Mon Nov 02 2020 13:03:19 GMT-0800 (Pacific Standard Time)","Mozilla/5.0 (Windows NT 10.0; Win64; x64) AppleWebKit/537.36 (KHTML, like Gecko) Chrome/86.0.4240.111 Safari/537.36",123,"[0.9, 0.5, 0.1]","[0.8, 0.4, 0.2]","[u'blue', u'black', u'red']","[u'left', u'middle', u'right']","[0.8, 0.4, 0.2]","[u'medium', u'high', u'low']","blue",49,"left","medium","False","False",441,5250,NA
"AGZ3GHE3N634N","Mon Nov 02 2020 12:52:01 GMT-0800 (Pacific Standard Time)","Mon Nov 02 2020 13:03:19 GMT-0800 (Pacific Standard Time)","Mozilla/5.0 (Windows NT 10.0; Win64; x64) AppleWebKit/537.36 (KHTML, like Gecko) Chrome/86.0.4240.111 Safari/537.36",124,"[0.9, 0.5, 0.1]","[0.8, 0.4, 0.2]","[u'blue', u'black', u'red']","[u'left', u'middle', u'right']","[0.8, 0.4, 0.2]","[u'medium', u'high', u'low']","red",51,"right","low","False","False",493,5200,NA
"AGZ3GHE3N634N","Mon Nov 02 2020 12:52:01 GMT-0800 (Pacific Standard Time)","Mon Nov 02 2020 13:03:19 GMT-0800 (Pacific Standard Time)","Mozilla/5.0 (Windows NT 10.0; Win64; x64) AppleWebKit/537.36 (KHTML, like Gecko) Chrome/86.0.4240.111 Safari/537.36",125,"[0.9, 0.5, 0.1]","[0.8, 0.4, 0.2]","[u'blue', u'black', u'red']","[u'left', u'middle', u'right']","[0.8, 0.4, 0.2]","[u'medium', u'high', u'low']","black",50,"middle","high","True","False",541,5300,NA
"AGZ3GHE3N634N","Mon Nov 02 2020 12:52:01 GMT-0800 (Pacific Standard Time)","Mon Nov 02 2020 13:03:19 GMT-0800 (Pacific Standard Time)","Mozilla/5.0 (Windows NT 10.0; Win64; x64) AppleWebKit/537.36 (KHTML, like Gecko) Chrome/86.0.4240.111 Safari/537.36",126,"[0.9, 0.5, 0.1]","[0.8, 0.4, 0.2]","[u'blue', u'black', u'red']","[u'left', u'middle', u'right']","[0.8, 0.4, 0.2]","[u'medium', u'high', u'low']","black",50,"middle","high","True","False",99,5400,NA
"AGZ3GHE3N634N","Mon Nov 02 2020 12:52:01 GMT-0800 (Pacific Standard Time)","Mon Nov 02 2020 13:03:19 GMT-0800 (Pacific Standard Time)","Mozilla/5.0 (Windows NT 10.0; Win64; x64) AppleWebKit/537.36 (KHTML, like Gecko) Chrome/86.0.4240.111 Safari/537.36",127,"[0.9, 0.5, 0.1]","[0.8, 0.4, 0.2]","[u'blue', u'black', u'red']","[u'left', u'middle', u'right']","[0.8, 0.4, 0.2]","[u'medium', u'high', u'low']","black",50,"middle","high","True","False",59,5500,NA
"AGZ3GHE3N634N","Mon Nov 02 2020 12:52:01 GMT-0800 (Pacific Standard Time)","Mon Nov 02 2020 13:03:19 GMT-0800 (Pacific Standard Time)","Mozilla/5.0 (Windows NT 10.0; Win64; x64) AppleWebKit/537.36 (KHTML, like Gecko) Chrome/86.0.4240.111 Safari/537.36",128,"[0.9, 0.5, 0.1]","[0.8, 0.4, 0.2]","[u'blue', u'black', u'red']","[u'left', u'middle', u'right']","[0.8, 0.4, 0.2]","[u'medium', u'high', u'low']","black",50,"middle","high","True","False",182,5600,NA
"AGZ3GHE3N634N","Mon Nov 02 2020 12:52:01 GMT-0800 (Pacific Standard Time)","Mon Nov 02 2020 13:03:19 GMT-0800 (Pacific Standard Time)","Mozilla/5.0 (Windows NT 10.0; Win64; x64) AppleWebKit/537.36 (KHTML, like Gecko) Chrome/86.0.4240.111 Safari/537.36",129,"[0.9, 0.5, 0.1]","[0.8, 0.4, 0.2]","[u'blue', u'black', u'red']","[u'left', u'middle', u'right']","[0.8, 0.4, 0.2]","[u'medium', u'high', u'low']","black",50,"middle","high","False","False",298,5550,NA
"AGZ3GHE3N634N","Mon Nov 02 2020 12:52:01 GMT-0800 (Pacific Standard Time)","Mon Nov 02 2020 13:03:19 GMT-0800 (Pacific Standard Time)","Mozilla/5.0 (Windows NT 10.0; Win64; x64) AppleWebKit/537.36 (KHTML, like Gecko) Chrome/86.0.4240.111 Safari/537.36",130,"[0.9, 0.5, 0.1]","[0.8, 0.4, 0.2]","[u'blue', u'black', u'red']","[u'left', u'middle', u'right']","[0.8, 0.4, 0.2]","[u'medium', u'high', u'low']","blue",49,"left","medium","True","False",320,5650,NA
"AGZ3GHE3N634N","Mon Nov 02 2020 12:52:01 GMT-0800 (Pacific Standard Time)","Mon Nov 02 2020 13:03:19 GMT-0800 (Pacific Standard Time)","Mozilla/5.0 (Windows NT 10.0; Win64; x64) AppleWebKit/537.36 (KHTML, like Gecko) Chrome/86.0.4240.111 Safari/537.36",131,"[0.9, 0.5, 0.1]","[0.8, 0.4, 0.2]","[u'blue', u'black', u'red']","[u'left', u'middle', u'right']","[0.8, 0.4, 0.2]","[u'medium', u'high', u'low']","red",51,"right","low","True","False",406,5750,NA
"AGZ3GHE3N634N","Mon Nov 02 2020 12:52:01 GMT-0800 (Pacific Standard Time)","Mon Nov 02 2020 13:03:19 GMT-0800 (Pacific Standard Time)","Mozilla/5.0 (Windows NT 10.0; Win64; x64) AppleWebKit/537.36 (KHTML, like Gecko) Chrome/86.0.4240.111 Safari/537.36",132,"[0.9, 0.5, 0.1]","[0.8, 0.4, 0.2]","[u'blue', u'black', u'red']","[u'left', u'middle', u'right']","[0.8, 0.4, 0.2]","[u'medium', u'high', u'low']","blue",49,"left","medium","False","False",447,5700,NA
"AGZ3GHE3N634N","Mon Nov 02 2020 12:52:01 GMT-0800 (Pacific Standard Time)","Mon Nov 02 2020 13:03:19 GMT-0800 (Pacific Standard Time)","Mozilla/5.0 (Windows NT 10.0; Win64; x64) AppleWebKit/537.36 (KHTML, like Gecko) Chrome/86.0.4240.111 Safari/537.36",133,"[0.9, 0.5, 0.1]","[0.8, 0.4, 0.2]","[u'blue', u'black', u'red']","[u'left', u'middle', u'right']","[0.8, 0.4, 0.2]","[u'medium', u'high', u'low']","red",51,"right","low","False","False",366,5650,NA
"AGZ3GHE3N634N","Mon Nov 02 2020 12:52:01 GMT-0800 (Pacific Standard Time)","Mon Nov 02 2020 13:03:19 GMT-0800 (Pacific Standard Time)","Mozilla/5.0 (Windows NT 10.0; Win64; x64) AppleWebKit/537.36 (KHTML, like Gecko) Chrome/86.0.4240.111 Safari/537.36",134,"[0.9, 0.5, 0.1]","[0.8, 0.4, 0.2]","[u'blue', u'black', u'red']","[u'left', u'middle', u'right']","[0.8, 0.4, 0.2]","[u'medium', u'high', u'low']","blue",49,"left","medium","True","False",573,5750,NA
"AGZ3GHE3N634N","Mon Nov 02 2020 12:52:01 GMT-0800 (Pacific Standard Time)","Mon Nov 02 2020 13:03:19 GMT-0800 (Pacific Standard Time)","Mozilla/5.0 (Windows NT 10.0; Win64; x64) AppleWebKit/537.36 (KHTML, like Gecko) Chrome/86.0.4240.111 Safari/537.36",135,"[0.9, 0.5, 0.1]","[0.8, 0.4, 0.2]","[u'blue', u'black', u'red']","[u'left', u'middle', u'right']","[0.8, 0.4, 0.2]","[u'medium', u'high', u'low']","blue",49,"left","medium","False","False",361,5700,NA
"AGZ3GHE3N634N","Mon Nov 02 2020 12:52:01 GMT-0800 (Pacific Standard Time)","Mon Nov 02 2020 13:03:19 GMT-0800 (Pacific Standard Time)","Mozilla/5.0 (Windows NT 10.0; Win64; x64) AppleWebKit/537.36 (KHTML, like Gecko) Chrome/86.0.4240.111 Safari/537.36",136,"[0.9, 0.5, 0.1]","[0.8, 0.4, 0.2]","[u'blue', u'black', u'red']","[u'left', u'middle', u'right']","[0.8, 0.4, 0.2]","[u'medium', u'high', u'low']","black",50,"middle","high","True","False",183,5800,NA
"AGZ3GHE3N634N","Mon Nov 02 2020 12:52:01 GMT-0800 (Pacific Standard Time)","Mon Nov 02 2020 13:03:19 GMT-0800 (Pacific Standard Time)","Mozilla/5.0 (Windows NT 10.0; Win64; x64) AppleWebKit/537.36 (KHTML, like Gecko) Chrome/86.0.4240.111 Safari/537.36",137,"[0.9, 0.5, 0.1]","[0.8, 0.4, 0.2]","[u'blue', u'black', u'red']","[u'left', u'middle', u'right']","[0.8, 0.4, 0.2]","[u'medium', u'high', u'low']","black",50,"middle","high","True","False",81,5900,NA
"AGZ3GHE3N634N","Mon Nov 02 2020 12:52:01 GMT-0800 (Pacific Standard Time)","Mon Nov 02 2020 13:03:19 GMT-0800 (Pacific Standard Time)","Mozilla/5.0 (Windows NT 10.0; Win64; x64) AppleWebKit/537.36 (KHTML, like Gecko) Chrome/86.0.4240.111 Safari/537.36",138,"[0.9, 0.5, 0.1]","[0.8, 0.4, 0.2]","[u'blue', u'black', u'red']","[u'left', u'middle', u'right']","[0.8, 0.4, 0.2]","[u'medium', u'high', u'low']","black",50,"middle","high","True","False",12,6000,NA
"AGZ3GHE3N634N","Mon Nov 02 2020 12:52:01 GMT-0800 (Pacific Standard Time)","Mon Nov 02 2020 13:03:19 GMT-0800 (Pacific Standard Time)","Mozilla/5.0 (Windows NT 10.0; Win64; x64) AppleWebKit/537.36 (KHTML, like Gecko) Chrome/86.0.4240.111 Safari/537.36",139,"[0.9, 0.5, 0.1]","[0.8, 0.4, 0.2]","[u'blue', u'black', u'red']","[u'left', u'middle', u'right']","[0.8, 0.4, 0.2]","[u'medium', u'high', u'low']","black",50,"middle","high","True","False",65,6100,NA
"AGZ3GHE3N634N","Mon Nov 02 2020 12:52:01 GMT-0800 (Pacific Standard Time)","Mon Nov 02 2020 13:03:19 GMT-0800 (Pacific Standard Time)","Mozilla/5.0 (Windows NT 10.0; Win64; x64) AppleWebKit/537.36 (KHTML, like Gecko) Chrome/86.0.4240.111 Safari/537.36",140,"[0.9, 0.5, 0.1]","[0.8, 0.4, 0.2]","[u'blue', u'black', u'red']","[u'left', u'middle', u'right']","[0.8, 0.4, 0.2]","[u'medium', u'high', u'low']","blue",49,"left","medium","True","False",320,6200,NA
"AGZ3GHE3N634N","Mon Nov 02 2020 12:52:01 GMT-0800 (Pacific Standard Time)","Mon Nov 02 2020 13:03:19 GMT-0800 (Pacific Standard Time)","Mozilla/5.0 (Windows NT 10.0; Win64; x64) AppleWebKit/537.36 (KHTML, like Gecko) Chrome/86.0.4240.111 Safari/537.36",141,"[0.9, 0.5, 0.1]","[0.8, 0.4, 0.2]","[u'blue', u'black', u'red']","[u'left', u'middle', u'right']","[0.8, 0.4, 0.2]","[u'medium', u'high', u'low']","blue",49,"left","medium","False","False",213,6150,NA
"AGZ3GHE3N634N","Mon Nov 02 2020 12:52:01 GMT-0800 (Pacific Standard Time)","Mon Nov 02 2020 13:03:19 GMT-0800 (Pacific Standard Time)","Mozilla/5.0 (Windows NT 10.0; Win64; x64) AppleWebKit/537.36 (KHTML, like Gecko) Chrome/86.0.4240.111 Safari/537.36",142,"[0.9, 0.5, 0.1]","[0.8, 0.4, 0.2]","[u'blue', u'black', u'red']","[u'left', u'middle', u'right']","[0.8, 0.4, 0.2]","[u'medium', u'high', u'low']","black",50,"middle","high","True","False",81,6250,NA
"AGZ3GHE3N634N","Mon Nov 02 2020 12:52:01 GMT-0800 (Pacific Standard Time)","Mon Nov 02 2020 13:03:19 GMT-0800 (Pacific Standard Time)","Mozilla/5.0 (Windows NT 10.0; Win64; x64) AppleWebKit/537.36 (KHTML, like Gecko) Chrome/86.0.4240.111 Safari/537.36",143,"[0.9, 0.5, 0.1]","[0.8, 0.4, 0.2]","[u'blue', u'black', u'red']","[u'left', u'middle', u'right']","[0.8, 0.4, 0.2]","[u'medium', u'high', u'low']","black",50,"middle","high","True","False",7,6350,NA
"AGZ3GHE3N634N","Mon Nov 02 2020 12:52:01 GMT-0800 (Pacific Standard Time)","Mon Nov 02 2020 13:03:19 GMT-0800 (Pacific Standard Time)","Mozilla/5.0 (Windows NT 10.0; Win64; x64) AppleWebKit/537.36 (KHTML, like Gecko) Chrome/86.0.4240.111 Safari/537.36",144,"[0.9, 0.5, 0.1]","[0.8, 0.4, 0.2]","[u'blue', u'black', u'red']","[u'left', u'middle', u'right']","[0.8, 0.4, 0.2]","[u'medium', u'high', u'low']","black",50,"middle","high","False","False",89,6300,NA
"AGZ3GHE3N634N","Mon Nov 02 2020 12:52:01 GMT-0800 (Pacific Standard Time)","Mon Nov 02 2020 13:03:19 GMT-0800 (Pacific Standard Time)","Mozilla/5.0 (Windows NT 10.0; Win64; x64) AppleWebKit/537.36 (KHTML, like Gecko) Chrome/86.0.4240.111 Safari/537.36",145,"[0.9, 0.5, 0.1]","[0.8, 0.4, 0.2]","[u'blue', u'black', u'red']","[u'left', u'middle', u'right']","[0.8, 0.4, 0.2]","[u'medium', u'high', u'low']","red",51,"right","low","False","False",123,6250,NA
"AGZ3GHE3N634N","Mon Nov 02 2020 12:52:01 GMT-0800 (Pacific Standard Time)","Mon Nov 02 2020 13:03:19 GMT-0800 (Pacific Standard Time)","Mozilla/5.0 (Windows NT 10.0; Win64; x64) AppleWebKit/537.36 (KHTML, like Gecko) Chrome/86.0.4240.111 Safari/537.36",146,"[0.9, 0.5, 0.1]","[0.8, 0.4, 0.2]","[u'blue', u'black', u'red']","[u'left', u'middle', u'right']","[0.8, 0.4, 0.2]","[u'medium', u'high', u'low']","red",51,"right","low","False","False",62,6200,NA
"AGZ3GHE3N634N","Mon Nov 02 2020 12:52:01 GMT-0800 (Pacific Standard Time)","Mon Nov 02 2020 13:03:19 GMT-0800 (Pacific Standard Time)","Mozilla/5.0 (Windows NT 10.0; Win64; x64) AppleWebKit/537.36 (KHTML, like Gecko) Chrome/86.0.4240.111 Safari/537.36",147,"[0.9, 0.5, 0.1]","[0.8, 0.4, 0.2]","[u'blue', u'black', u'red']","[u'left', u'middle', u'right']","[0.8, 0.4, 0.2]","[u'medium', u'high', u'low']","black",50,"middle","high","True","False",191,6300,NA
"AGZ3GHE3N634N","Mon Nov 02 2020 12:52:01 GMT-0800 (Pacific Standard Time)","Mon Nov 02 2020 13:03:19 GMT-0800 (Pacific Standard Time)","Mozilla/5.0 (Windows NT 10.0; Win64; x64) AppleWebKit/537.36 (KHTML, like Gecko) Chrome/86.0.4240.111 Safari/537.36",148,"[0.9, 0.5, 0.1]","[0.8, 0.4, 0.2]","[u'blue', u'black', u'red']","[u'left', u'middle', u'right']","[0.8, 0.4, 0.2]","[u'medium', u'high', u'low']","black",50,"middle","high","True","False",106,6400,NA
"AGZ3GHE3N634N","Mon Nov 02 2020 12:52:01 GMT-0800 (Pacific Standard Time)","Mon Nov 02 2020 13:03:19 GMT-0800 (Pacific Standard Time)","Mozilla/5.0 (Windows NT 10.0; Win64; x64) AppleWebKit/537.36 (KHTML, like Gecko) Chrome/86.0.4240.111 Safari/537.36",149,"[0.9, 0.5, 0.1]","[0.8, 0.4, 0.2]","[u'blue', u'black', u'red']","[u'left', u'middle', u'right']","[0.8, 0.4, 0.2]","[u'medium', u'high', u'low']","black",50,"middle","high","True","False",31,6500,NA
"AGZ3GHE3N634N","Mon Nov 02 2020 12:52:01 GMT-0800 (Pacific Standard Time)","Mon Nov 02 2020 13:03:19 GMT-0800 (Pacific Standard Time)","Mozilla/5.0 (Windows NT 10.0; Win64; x64) AppleWebKit/537.36 (KHTML, like Gecko) Chrome/86.0.4240.111 Safari/537.36",150,"[0.9, 0.5, 0.1]","[0.8, 0.4, 0.2]","[u'blue', u'black', u'red']","[u'left', u'middle', u'right']","[0.8, 0.4, 0.2]","[u'medium', u'high', u'low']","black",50,"middle","high","True","False",117,6600,NA
"AGZ3GHE3N634N","Mon Nov 02 2020 12:52:01 GMT-0800 (Pacific Standard Time)","Mon Nov 02 2020 13:03:19 GMT-0800 (Pacific Standard Time)","Mozilla/5.0 (Windows NT 10.0; Win64; x64) AppleWebKit/537.36 (KHTML, like Gecko) Chrome/86.0.4240.111 Safari/537.36",151,"[0.9, 0.5, 0.1]","[0.8, 0.4, 0.2]","[u'blue', u'black', u'red']","[u'left', u'middle', u'right']","[0.8, 0.4, 0.2]","[u'medium', u'high', u'low']","black",50,"middle","high","True","False",55,6700,NA
"AGZ3GHE3N634N","Mon Nov 02 2020 12:52:01 GMT-0800 (Pacific Standard Time)","Mon Nov 02 2020 13:03:19 GMT-0800 (Pacific Standard Time)","Mozilla/5.0 (Windows NT 10.0; Win64; x64) AppleWebKit/537.36 (KHTML, like Gecko) Chrome/86.0.4240.111 Safari/537.36",152,"[0.9, 0.5, 0.1]","[0.8, 0.4, 0.2]","[u'blue', u'black', u'red']","[u'left', u'middle', u'right']","[0.8, 0.4, 0.2]","[u'medium', u'high', u'low']","black",50,"middle","high","False","False",50,6650,NA
"AGZ3GHE3N634N","Mon Nov 02 2020 12:52:01 GMT-0800 (Pacific Standard Time)","Mon Nov 02 2020 13:03:19 GMT-0800 (Pacific Standard Time)","Mozilla/5.0 (Windows NT 10.0; Win64; x64) AppleWebKit/537.36 (KHTML, like Gecko) Chrome/86.0.4240.111 Safari/537.36",153,"[0.9, 0.5, 0.1]","[0.8, 0.4, 0.2]","[u'blue', u'black', u'red']","[u'left', u'middle', u'right']","[0.8, 0.4, 0.2]","[u'medium', u'high', u'low']","blue",49,"left","medium","False","False",91,6600,NA
"AGZ3GHE3N634N","Mon Nov 02 2020 12:52:01 GMT-0800 (Pacific Standard Time)","Mon Nov 02 2020 13:03:19 GMT-0800 (Pacific Standard Time)","Mozilla/5.0 (Windows NT 10.0; Win64; x64) AppleWebKit/537.36 (KHTML, like Gecko) Chrome/86.0.4240.111 Safari/537.36",154,"[0.9, 0.5, 0.1]","[0.8, 0.4, 0.2]","[u'blue', u'black', u'red']","[u'left', u'middle', u'right']","[0.8, 0.4, 0.2]","[u'medium', u'high', u'low']","black",50,"middle","high","False","False",178,6550,NA
"AGZ3GHE3N634N","Mon Nov 02 2020 12:52:01 GMT-0800 (Pacific Standard Time)","Mon Nov 02 2020 13:03:19 GMT-0800 (Pacific Standard Time)","Mozilla/5.0 (Windows NT 10.0; Win64; x64) AppleWebKit/537.36 (KHTML, like Gecko) Chrome/86.0.4240.111 Safari/537.36",155,"[0.9, 0.5, 0.1]","[0.8, 0.4, 0.2]","[u'blue', u'black', u'red']","[u'left', u'middle', u'right']","[0.8, 0.4, 0.2]","[u'medium', u'high', u'low']","blue",49,"left","medium","True","False",63,6650,NA
"AGZ3GHE3N634N","Mon Nov 02 2020 12:52:01 GMT-0800 (Pacific Standard Time)","Mon Nov 02 2020 13:03:19 GMT-0800 (Pacific Standard Time)","Mozilla/5.0 (Windows NT 10.0; Win64; x64) AppleWebKit/537.36 (KHTML, like Gecko) Chrome/86.0.4240.111 Safari/537.36",156,"[0.9, 0.5, 0.1]","[0.8, 0.4, 0.2]","[u'blue', u'black', u'red']","[u'left', u'middle', u'right']","[0.8, 0.4, 0.2]","[u'medium', u'high', u'low']","blue",49,"left","medium","True","False",36,6750,NA
"AGZ3GHE3N634N","Mon Nov 02 2020 12:52:01 GMT-0800 (Pacific Standard Time)","Mon Nov 02 2020 13:03:19 GMT-0800 (Pacific Standard Time)","Mozilla/5.0 (Windows NT 10.0; Win64; x64) AppleWebKit/537.36 (KHTML, like Gecko) Chrome/86.0.4240.111 Safari/537.36",157,"[0.9, 0.5, 0.1]","[0.8, 0.4, 0.2]","[u'blue', u'black', u'red']","[u'left', u'middle', u'right']","[0.8, 0.4, 0.2]","[u'medium', u'high', u'low']","blue",49,"left","medium","True","False",19,6850,NA
"AGZ3GHE3N634N","Mon Nov 02 2020 12:52:01 GMT-0800 (Pacific Standard Time)","Mon Nov 02 2020 13:03:19 GMT-0800 (Pacific Standard Time)","Mozilla/5.0 (Windows NT 10.0; Win64; x64) AppleWebKit/537.36 (KHTML, like Gecko) Chrome/86.0.4240.111 Safari/537.36",158,"[0.9, 0.5, 0.1]","[0.8, 0.4, 0.2]","[u'blue', u'black', u'red']","[u'left', u'middle', u'right']","[0.8, 0.4, 0.2]","[u'medium', u'high', u'low']","blue",49,"left","medium","False","False",39,6800,NA
"AGZ3GHE3N634N","Mon Nov 02 2020 12:52:01 GMT-0800 (Pacific Standard Time)","Mon Nov 02 2020 13:03:19 GMT-0800 (Pacific Standard Time)","Mozilla/5.0 (Windows NT 10.0; Win64; x64) AppleWebKit/537.36 (KHTML, like Gecko) Chrome/86.0.4240.111 Safari/537.36",159,"[0.9, 0.5, 0.1]","[0.8, 0.4, 0.2]","[u'blue', u'black', u'red']","[u'left', u'middle', u'right']","[0.8, 0.4, 0.2]","[u'medium', u'high', u'low']","red",51,"right","low","False","False",34,6750,NA
"AGZ3GHE3N634N","Mon Nov 02 2020 12:52:01 GMT-0800 (Pacific Standard Time)","Mon Nov 02 2020 13:03:19 GMT-0800 (Pacific Standard Time)","Mozilla/5.0 (Windows NT 10.0; Win64; x64) AppleWebKit/537.36 (KHTML, like Gecko) Chrome/86.0.4240.111 Safari/537.36",160,"[0.9, 0.5, 0.1]","[0.8, 0.4, 0.2]","[u'blue', u'black', u'red']","[u'left', u'middle', u'right']","[0.8, 0.4, 0.2]","[u'medium', u'high', u'low']","red",51,"right","low","False","False",24,6700,NA
