"src_subject_id","start_time","end_time","browser","index","first_half_probabilities","second_half_probabilities","deck_color","deck_position","deck_probabilities","deck_contingencies","response_color","key_press","response_position","response_probability","reward_type","trial_type","rt","reward_tally","exclusion_reason"
"A1P47Q6LZPLQ6P","Mon Sep 14 2020 08:40:50 GMT-0400 (Eastern Daylight Time)","Mon Sep 14 2020 08:46:36 GMT-0400 (Eastern Daylight Time)","Mozilla/5.0 (Windows NT 10.0; Win64; x64; rv:80.0) Gecko/20100101 Firefox/80.0",1,"[0.9, 0.5, 0.1]","[0.8, 0.4, 0.2]","[u'blue', u'red', u'black']","[u'left', u'middle', u'right']","[0.9, 0.5, 0.1]","[u'high', u'low', u'medium']","blue",49,"left","high","True","False",431,100,NA
"A1P47Q6LZPLQ6P","Mon Sep 14 2020 08:40:50 GMT-0400 (Eastern Daylight Time)","Mon Sep 14 2020 08:46:36 GMT-0400 (Eastern Daylight Time)","Mozilla/5.0 (Windows NT 10.0; Win64; x64; rv:80.0) Gecko/20100101 Firefox/80.0",2,"[0.9, 0.5, 0.1]","[0.8, 0.4, 0.2]","[u'blue', u'red', u'black']","[u'left', u'middle', u'right']","[0.9, 0.5, 0.1]","[u'high', u'low', u'medium']","blue",49,"left","high","True","False",288,200,NA
"A1P47Q6LZPLQ6P","Mon Sep 14 2020 08:40:50 GMT-0400 (Eastern Daylight Time)","Mon Sep 14 2020 08:46:36 GMT-0400 (Eastern Daylight Time)","Mozilla/5.0 (Windows NT 10.0; Win64; x64; rv:80.0) Gecko/20100101 Firefox/80.0",3,"[0.9, 0.5, 0.1]","[0.8, 0.4, 0.2]","[u'blue', u'red', u'black']","[u'left', u'middle', u'right']","[0.9, 0.5, 0.1]","[u'high', u'low', u'medium']","blue",49,"left","high","True","False",253,300,NA
"A1P47Q6LZPLQ6P","Mon Sep 14 2020 08:40:50 GMT-0400 (Eastern Daylight Time)","Mon Sep 14 2020 08:46:36 GMT-0400 (Eastern Daylight Time)","Mozilla/5.0 (Windows NT 10.0; Win64; x64; rv:80.0) Gecko/20100101 Firefox/80.0",4,"[0.9, 0.5, 0.1]","[0.8, 0.4, 0.2]","[u'blue', u'red', u'black']","[u'left', u'middle', u'right']","[0.9, 0.5, 0.1]","[u'high', u'low', u'medium']","blue",49,"left","high","True","False",227,400,NA
"A1P47Q6LZPLQ6P","Mon Sep 14 2020 08:40:50 GMT-0400 (Eastern Daylight Time)","Mon Sep 14 2020 08:46:36 GMT-0400 (Eastern Daylight Time)","Mozilla/5.0 (Windows NT 10.0; Win64; x64; rv:80.0) Gecko/20100101 Firefox/80.0",5,"[0.9, 0.5, 0.1]","[0.8, 0.4, 0.2]","[u'blue', u'red', u'black']","[u'left', u'middle', u'right']","[0.9, 0.5, 0.1]","[u'high', u'low', u'medium']","blue",49,"left","high","True","False",298,500,NA
"A1P47Q6LZPLQ6P","Mon Sep 14 2020 08:40:50 GMT-0400 (Eastern Daylight Time)","Mon Sep 14 2020 08:46:36 GMT-0400 (Eastern Daylight Time)","Mozilla/5.0 (Windows NT 10.0; Win64; x64; rv:80.0) Gecko/20100101 Firefox/80.0",6,"[0.9, 0.5, 0.1]","[0.8, 0.4, 0.2]","[u'blue', u'red', u'black']","[u'left', u'middle', u'right']","[0.9, 0.5, 0.1]","[u'high', u'low', u'medium']","blue",49,"left","high","True","False",272,600,NA
"A1P47Q6LZPLQ6P","Mon Sep 14 2020 08:40:50 GMT-0400 (Eastern Daylight Time)","Mon Sep 14 2020 08:46:36 GMT-0400 (Eastern Daylight Time)","Mozilla/5.0 (Windows NT 10.0; Win64; x64; rv:80.0) Gecko/20100101 Firefox/80.0",7,"[0.9, 0.5, 0.1]","[0.8, 0.4, 0.2]","[u'blue', u'red', u'black']","[u'left', u'middle', u'right']","[0.9, 0.5, 0.1]","[u'high', u'low', u'medium']","blue",49,"left","high","True","False",287,700,NA
"A1P47Q6LZPLQ6P","Mon Sep 14 2020 08:40:50 GMT-0400 (Eastern Daylight Time)","Mon Sep 14 2020 08:46:36 GMT-0400 (Eastern Daylight Time)","Mozilla/5.0 (Windows NT 10.0; Win64; x64; rv:80.0) Gecko/20100101 Firefox/80.0",8,"[0.9, 0.5, 0.1]","[0.8, 0.4, 0.2]","[u'blue', u'red', u'black']","[u'left', u'middle', u'right']","[0.9, 0.5, 0.1]","[u'high', u'low', u'medium']","blue",49,"left","high","True","False",284,800,NA
"A1P47Q6LZPLQ6P","Mon Sep 14 2020 08:40:50 GMT-0400 (Eastern Daylight Time)","Mon Sep 14 2020 08:46:36 GMT-0400 (Eastern Daylight Time)","Mozilla/5.0 (Windows NT 10.0; Win64; x64; rv:80.0) Gecko/20100101 Firefox/80.0",9,"[0.9, 0.5, 0.1]","[0.8, 0.4, 0.2]","[u'blue', u'red', u'black']","[u'left', u'middle', u'right']","[0.9, 0.5, 0.1]","[u'high', u'low', u'medium']","blue",49,"left","high","True","True",268,900,NA
"A1P47Q6LZPLQ6P","Mon Sep 14 2020 08:40:50 GMT-0400 (Eastern Daylight Time)","Mon Sep 14 2020 08:46:36 GMT-0400 (Eastern Daylight Time)","Mozilla/5.0 (Windows NT 10.0; Win64; x64; rv:80.0) Gecko/20100101 Firefox/80.0",10,"[0.9, 0.5, 0.1]","[0.8, 0.4, 0.2]","[u'blue', u'red', u'black']","[u'left', u'middle', u'right']","[0.9, 0.5, 0.1]","[u'low', u'medium', u'high']","blue",49,"left","low","False","False",228,850,NA
"A1P47Q6LZPLQ6P","Mon Sep 14 2020 08:40:50 GMT-0400 (Eastern Daylight Time)","Mon Sep 14 2020 08:46:36 GMT-0400 (Eastern Daylight Time)","Mozilla/5.0 (Windows NT 10.0; Win64; x64; rv:80.0) Gecko/20100101 Firefox/80.0",11,"[0.9, 0.5, 0.1]","[0.8, 0.4, 0.2]","[u'blue', u'red', u'black']","[u'left', u'middle', u'right']","[0.9, 0.5, 0.1]","[u'low', u'medium', u'high']","blue",49,"left","low","False","False",368,800,NA
"A1P47Q6LZPLQ6P","Mon Sep 14 2020 08:40:50 GMT-0400 (Eastern Daylight Time)","Mon Sep 14 2020 08:46:36 GMT-0400 (Eastern Daylight Time)","Mozilla/5.0 (Windows NT 10.0; Win64; x64; rv:80.0) Gecko/20100101 Firefox/80.0",12,"[0.9, 0.5, 0.1]","[0.8, 0.4, 0.2]","[u'blue', u'red', u'black']","[u'left', u'middle', u'right']","[0.9, 0.5, 0.1]","[u'low', u'medium', u'high']","red",50,"middle","medium","False","False",339,750,NA
"A1P47Q6LZPLQ6P","Mon Sep 14 2020 08:40:50 GMT-0400 (Eastern Daylight Time)","Mon Sep 14 2020 08:46:36 GMT-0400 (Eastern Daylight Time)","Mozilla/5.0 (Windows NT 10.0; Win64; x64; rv:80.0) Gecko/20100101 Firefox/80.0",13,"[0.9, 0.5, 0.1]","[0.8, 0.4, 0.2]","[u'blue', u'red', u'black']","[u'left', u'middle', u'right']","[0.9, 0.5, 0.1]","[u'low', u'medium', u'high']","red",50,"middle","medium","True","False",283,850,NA
"A1P47Q6LZPLQ6P","Mon Sep 14 2020 08:40:50 GMT-0400 (Eastern Daylight Time)","Mon Sep 14 2020 08:46:36 GMT-0400 (Eastern Daylight Time)","Mozilla/5.0 (Windows NT 10.0; Win64; x64; rv:80.0) Gecko/20100101 Firefox/80.0",14,"[0.9, 0.5, 0.1]","[0.8, 0.4, 0.2]","[u'blue', u'red', u'black']","[u'left', u'middle', u'right']","[0.9, 0.5, 0.1]","[u'low', u'medium', u'high']","red",50,"middle","medium","True","False",234,950,NA
"A1P47Q6LZPLQ6P","Mon Sep 14 2020 08:40:50 GMT-0400 (Eastern Daylight Time)","Mon Sep 14 2020 08:46:36 GMT-0400 (Eastern Daylight Time)","Mozilla/5.0 (Windows NT 10.0; Win64; x64; rv:80.0) Gecko/20100101 Firefox/80.0",15,"[0.9, 0.5, 0.1]","[0.8, 0.4, 0.2]","[u'blue', u'red', u'black']","[u'left', u'middle', u'right']","[0.9, 0.5, 0.1]","[u'low', u'medium', u'high']","red",50,"middle","medium","False","False",282,900,NA
"A1P47Q6LZPLQ6P","Mon Sep 14 2020 08:40:50 GMT-0400 (Eastern Daylight Time)","Mon Sep 14 2020 08:46:36 GMT-0400 (Eastern Daylight Time)","Mozilla/5.0 (Windows NT 10.0; Win64; x64; rv:80.0) Gecko/20100101 Firefox/80.0",16,"[0.9, 0.5, 0.1]","[0.8, 0.4, 0.2]","[u'blue', u'red', u'black']","[u'left', u'middle', u'right']","[0.9, 0.5, 0.1]","[u'low', u'medium', u'high']","red",50,"middle","medium","False","False",258,850,NA
"A1P47Q6LZPLQ6P","Mon Sep 14 2020 08:40:50 GMT-0400 (Eastern Daylight Time)","Mon Sep 14 2020 08:46:36 GMT-0400 (Eastern Daylight Time)","Mozilla/5.0 (Windows NT 10.0; Win64; x64; rv:80.0) Gecko/20100101 Firefox/80.0",17,"[0.9, 0.5, 0.1]","[0.8, 0.4, 0.2]","[u'blue', u'red', u'black']","[u'left', u'middle', u'right']","[0.9, 0.5, 0.1]","[u'low', u'medium', u'high']","blue",49,"left","low","False","False",222,800,NA
"A1P47Q6LZPLQ6P","Mon Sep 14 2020 08:40:50 GMT-0400 (Eastern Daylight Time)","Mon Sep 14 2020 08:46:36 GMT-0400 (Eastern Daylight Time)","Mozilla/5.0 (Windows NT 10.0; Win64; x64; rv:80.0) Gecko/20100101 Firefox/80.0",18,"[0.9, 0.5, 0.1]","[0.8, 0.4, 0.2]","[u'blue', u'red', u'black']","[u'left', u'middle', u'right']","[0.9, 0.5, 0.1]","[u'low', u'medium', u'high']","blue",49,"left","low","False","False",254,750,NA
"A1P47Q6LZPLQ6P","Mon Sep 14 2020 08:40:50 GMT-0400 (Eastern Daylight Time)","Mon Sep 14 2020 08:46:36 GMT-0400 (Eastern Daylight Time)","Mozilla/5.0 (Windows NT 10.0; Win64; x64; rv:80.0) Gecko/20100101 Firefox/80.0",19,"[0.9, 0.5, 0.1]","[0.8, 0.4, 0.2]","[u'blue', u'red', u'black']","[u'left', u'middle', u'right']","[0.9, 0.5, 0.1]","[u'low', u'medium', u'high']","black",51,"right","high","True","False",277,850,NA
"A1P47Q6LZPLQ6P","Mon Sep 14 2020 08:40:50 GMT-0400 (Eastern Daylight Time)","Mon Sep 14 2020 08:46:36 GMT-0400 (Eastern Daylight Time)","Mozilla/5.0 (Windows NT 10.0; Win64; x64; rv:80.0) Gecko/20100101 Firefox/80.0",20,"[0.9, 0.5, 0.1]","[0.8, 0.4, 0.2]","[u'blue', u'red', u'black']","[u'left', u'middle', u'right']","[0.9, 0.5, 0.1]","[u'low', u'medium', u'high']","black",51,"right","high","True","False",231,950,NA
"A1P47Q6LZPLQ6P","Mon Sep 14 2020 08:40:50 GMT-0400 (Eastern Daylight Time)","Mon Sep 14 2020 08:46:36 GMT-0400 (Eastern Daylight Time)","Mozilla/5.0 (Windows NT 10.0; Win64; x64; rv:80.0) Gecko/20100101 Firefox/80.0",21,"[0.9, 0.5, 0.1]","[0.8, 0.4, 0.2]","[u'blue', u'red', u'black']","[u'left', u'middle', u'right']","[0.9, 0.5, 0.1]","[u'low', u'medium', u'high']","black",51,"right","high","True","False",280,1050,NA
"A1P47Q6LZPLQ6P","Mon Sep 14 2020 08:40:50 GMT-0400 (Eastern Daylight Time)","Mon Sep 14 2020 08:46:36 GMT-0400 (Eastern Daylight Time)","Mozilla/5.0 (Windows NT 10.0; Win64; x64; rv:80.0) Gecko/20100101 Firefox/80.0",22,"[0.9, 0.5, 0.1]","[0.8, 0.4, 0.2]","[u'blue', u'red', u'black']","[u'left', u'middle', u'right']","[0.9, 0.5, 0.1]","[u'low', u'medium', u'high']","black",51,"right","high","True","False",204,1150,NA
"A1P47Q6LZPLQ6P","Mon Sep 14 2020 08:40:50 GMT-0400 (Eastern Daylight Time)","Mon Sep 14 2020 08:46:36 GMT-0400 (Eastern Daylight Time)","Mozilla/5.0 (Windows NT 10.0; Win64; x64; rv:80.0) Gecko/20100101 Firefox/80.0",23,"[0.9, 0.5, 0.1]","[0.8, 0.4, 0.2]","[u'blue', u'red', u'black']","[u'left', u'middle', u'right']","[0.9, 0.5, 0.1]","[u'low', u'medium', u'high']","black",51,"right","high","True","False",256,1250,NA
"A1P47Q6LZPLQ6P","Mon Sep 14 2020 08:40:50 GMT-0400 (Eastern Daylight Time)","Mon Sep 14 2020 08:46:36 GMT-0400 (Eastern Daylight Time)","Mozilla/5.0 (Windows NT 10.0; Win64; x64; rv:80.0) Gecko/20100101 Firefox/80.0",24,"[0.9, 0.5, 0.1]","[0.8, 0.4, 0.2]","[u'blue', u'red', u'black']","[u'left', u'middle', u'right']","[0.9, 0.5, 0.1]","[u'low', u'medium', u'high']","black",51,"right","high","True","False",246,1350,NA
"A1P47Q6LZPLQ6P","Mon Sep 14 2020 08:40:50 GMT-0400 (Eastern Daylight Time)","Mon Sep 14 2020 08:46:36 GMT-0400 (Eastern Daylight Time)","Mozilla/5.0 (Windows NT 10.0; Win64; x64; rv:80.0) Gecko/20100101 Firefox/80.0",25,"[0.9, 0.5, 0.1]","[0.8, 0.4, 0.2]","[u'blue', u'red', u'black']","[u'left', u'middle', u'right']","[0.9, 0.5, 0.1]","[u'low', u'medium', u'high']","black",51,"right","high","True","False",290,1450,NA
"A1P47Q6LZPLQ6P","Mon Sep 14 2020 08:40:50 GMT-0400 (Eastern Daylight Time)","Mon Sep 14 2020 08:46:36 GMT-0400 (Eastern Daylight Time)","Mozilla/5.0 (Windows NT 10.0; Win64; x64; rv:80.0) Gecko/20100101 Firefox/80.0",26,"[0.9, 0.5, 0.1]","[0.8, 0.4, 0.2]","[u'blue', u'red', u'black']","[u'left', u'middle', u'right']","[0.9, 0.5, 0.1]","[u'low', u'medium', u'high']","black",51,"right","high","True","False",234,1550,NA
"A1P47Q6LZPLQ6P","Mon Sep 14 2020 08:40:50 GMT-0400 (Eastern Daylight Time)","Mon Sep 14 2020 08:46:36 GMT-0400 (Eastern Daylight Time)","Mozilla/5.0 (Windows NT 10.0; Win64; x64; rv:80.0) Gecko/20100101 Firefox/80.0",27,"[0.9, 0.5, 0.1]","[0.8, 0.4, 0.2]","[u'blue', u'red', u'black']","[u'left', u'middle', u'right']","[0.9, 0.5, 0.1]","[u'low', u'medium', u'high']","black",51,"right","high","True","True",301,1650,NA
"A1P47Q6LZPLQ6P","Mon Sep 14 2020 08:40:50 GMT-0400 (Eastern Daylight Time)","Mon Sep 14 2020 08:46:36 GMT-0400 (Eastern Daylight Time)","Mozilla/5.0 (Windows NT 10.0; Win64; x64; rv:80.0) Gecko/20100101 Firefox/80.0",28,"[0.9, 0.5, 0.1]","[0.8, 0.4, 0.2]","[u'blue', u'red', u'black']","[u'left', u'middle', u'right']","[0.9, 0.5, 0.1]","[u'medium', u'high', u'low']","black",51,"right","low","False","False",235,1600,NA
"A1P47Q6LZPLQ6P","Mon Sep 14 2020 08:40:50 GMT-0400 (Eastern Daylight Time)","Mon Sep 14 2020 08:46:36 GMT-0400 (Eastern Daylight Time)","Mozilla/5.0 (Windows NT 10.0; Win64; x64; rv:80.0) Gecko/20100101 Firefox/80.0",29,"[0.9, 0.5, 0.1]","[0.8, 0.4, 0.2]","[u'blue', u'red', u'black']","[u'left', u'middle', u'right']","[0.9, 0.5, 0.1]","[u'medium', u'high', u'low']","black",51,"right","low","False","False",243,1550,NA
"A1P47Q6LZPLQ6P","Mon Sep 14 2020 08:40:50 GMT-0400 (Eastern Daylight Time)","Mon Sep 14 2020 08:46:36 GMT-0400 (Eastern Daylight Time)","Mozilla/5.0 (Windows NT 10.0; Win64; x64; rv:80.0) Gecko/20100101 Firefox/80.0",30,"[0.9, 0.5, 0.1]","[0.8, 0.4, 0.2]","[u'blue', u'red', u'black']","[u'left', u'middle', u'right']","[0.9, 0.5, 0.1]","[u'medium', u'high', u'low']","blue",49,"left","medium","False","False",230,1500,NA
"A1P47Q6LZPLQ6P","Mon Sep 14 2020 08:40:50 GMT-0400 (Eastern Daylight Time)","Mon Sep 14 2020 08:46:36 GMT-0400 (Eastern Daylight Time)","Mozilla/5.0 (Windows NT 10.0; Win64; x64; rv:80.0) Gecko/20100101 Firefox/80.0",31,"[0.9, 0.5, 0.1]","[0.8, 0.4, 0.2]","[u'blue', u'red', u'black']","[u'left', u'middle', u'right']","[0.9, 0.5, 0.1]","[u'medium', u'high', u'low']","blue",49,"left","medium","False","False",292,1450,NA
"A1P47Q6LZPLQ6P","Mon Sep 14 2020 08:40:50 GMT-0400 (Eastern Daylight Time)","Mon Sep 14 2020 08:46:36 GMT-0400 (Eastern Daylight Time)","Mozilla/5.0 (Windows NT 10.0; Win64; x64; rv:80.0) Gecko/20100101 Firefox/80.0",32,"[0.9, 0.5, 0.1]","[0.8, 0.4, 0.2]","[u'blue', u'red', u'black']","[u'left', u'middle', u'right']","[0.9, 0.5, 0.1]","[u'medium', u'high', u'low']","red",50,"middle","high","True","False",260,1550,NA
"A1P47Q6LZPLQ6P","Mon Sep 14 2020 08:40:50 GMT-0400 (Eastern Daylight Time)","Mon Sep 14 2020 08:46:36 GMT-0400 (Eastern Daylight Time)","Mozilla/5.0 (Windows NT 10.0; Win64; x64; rv:80.0) Gecko/20100101 Firefox/80.0",33,"[0.9, 0.5, 0.1]","[0.8, 0.4, 0.2]","[u'blue', u'red', u'black']","[u'left', u'middle', u'right']","[0.9, 0.5, 0.1]","[u'medium', u'high', u'low']","red",50,"middle","high","True","False",254,1650,NA
"A1P47Q6LZPLQ6P","Mon Sep 14 2020 08:40:50 GMT-0400 (Eastern Daylight Time)","Mon Sep 14 2020 08:46:36 GMT-0400 (Eastern Daylight Time)","Mozilla/5.0 (Windows NT 10.0; Win64; x64; rv:80.0) Gecko/20100101 Firefox/80.0",34,"[0.9, 0.5, 0.1]","[0.8, 0.4, 0.2]","[u'blue', u'red', u'black']","[u'left', u'middle', u'right']","[0.9, 0.5, 0.1]","[u'medium', u'high', u'low']","red",50,"middle","high","True","False",250,1750,NA
"A1P47Q6LZPLQ6P","Mon Sep 14 2020 08:40:50 GMT-0400 (Eastern Daylight Time)","Mon Sep 14 2020 08:46:36 GMT-0400 (Eastern Daylight Time)","Mozilla/5.0 (Windows NT 10.0; Win64; x64; rv:80.0) Gecko/20100101 Firefox/80.0",35,"[0.9, 0.5, 0.1]","[0.8, 0.4, 0.2]","[u'blue', u'red', u'black']","[u'left', u'middle', u'right']","[0.9, 0.5, 0.1]","[u'medium', u'high', u'low']","red",50,"middle","high","True","False",319,1850,NA
"A1P47Q6LZPLQ6P","Mon Sep 14 2020 08:40:50 GMT-0400 (Eastern Daylight Time)","Mon Sep 14 2020 08:46:36 GMT-0400 (Eastern Daylight Time)","Mozilla/5.0 (Windows NT 10.0; Win64; x64; rv:80.0) Gecko/20100101 Firefox/80.0",36,"[0.9, 0.5, 0.1]","[0.8, 0.4, 0.2]","[u'blue', u'red', u'black']","[u'left', u'middle', u'right']","[0.9, 0.5, 0.1]","[u'medium', u'high', u'low']","red",50,"middle","high","False","False",394,1800,NA
"A1P47Q6LZPLQ6P","Mon Sep 14 2020 08:40:50 GMT-0400 (Eastern Daylight Time)","Mon Sep 14 2020 08:46:36 GMT-0400 (Eastern Daylight Time)","Mozilla/5.0 (Windows NT 10.0; Win64; x64; rv:80.0) Gecko/20100101 Firefox/80.0",37,"[0.9, 0.5, 0.1]","[0.8, 0.4, 0.2]","[u'blue', u'red', u'black']","[u'left', u'middle', u'right']","[0.9, 0.5, 0.1]","[u'medium', u'high', u'low']","red",50,"middle","high","True","False",230,1900,NA
"A1P47Q6LZPLQ6P","Mon Sep 14 2020 08:40:50 GMT-0400 (Eastern Daylight Time)","Mon Sep 14 2020 08:46:36 GMT-0400 (Eastern Daylight Time)","Mozilla/5.0 (Windows NT 10.0; Win64; x64; rv:80.0) Gecko/20100101 Firefox/80.0",38,"[0.9, 0.5, 0.1]","[0.8, 0.4, 0.2]","[u'blue', u'red', u'black']","[u'left', u'middle', u'right']","[0.9, 0.5, 0.1]","[u'medium', u'high', u'low']","red",50,"middle","high","True","False",195,2000,NA
"A1P47Q6LZPLQ6P","Mon Sep 14 2020 08:40:50 GMT-0400 (Eastern Daylight Time)","Mon Sep 14 2020 08:46:36 GMT-0400 (Eastern Daylight Time)","Mozilla/5.0 (Windows NT 10.0; Win64; x64; rv:80.0) Gecko/20100101 Firefox/80.0",39,"[0.9, 0.5, 0.1]","[0.8, 0.4, 0.2]","[u'blue', u'red', u'black']","[u'left', u'middle', u'right']","[0.9, 0.5, 0.1]","[u'medium', u'high', u'low']","red",50,"middle","high","True","False",269,2100,NA
"A1P47Q6LZPLQ6P","Mon Sep 14 2020 08:40:50 GMT-0400 (Eastern Daylight Time)","Mon Sep 14 2020 08:46:36 GMT-0400 (Eastern Daylight Time)","Mozilla/5.0 (Windows NT 10.0; Win64; x64; rv:80.0) Gecko/20100101 Firefox/80.0",40,"[0.9, 0.5, 0.1]","[0.8, 0.4, 0.2]","[u'blue', u'red', u'black']","[u'left', u'middle', u'right']","[0.9, 0.5, 0.1]","[u'medium', u'high', u'low']","red",50,"middle","high","True","True",237,2200,NA
"A1P47Q6LZPLQ6P","Mon Sep 14 2020 08:40:50 GMT-0400 (Eastern Daylight Time)","Mon Sep 14 2020 08:46:36 GMT-0400 (Eastern Daylight Time)","Mozilla/5.0 (Windows NT 10.0; Win64; x64; rv:80.0) Gecko/20100101 Firefox/80.0",41,"[0.9, 0.5, 0.1]","[0.8, 0.4, 0.2]","[u'blue', u'red', u'black']","[u'left', u'middle', u'right']","[0.9, 0.5, 0.1]","[u'high', u'medium', u'low']","red",50,"middle","medium","True","False",796,2300,NA
"A1P47Q6LZPLQ6P","Mon Sep 14 2020 08:40:50 GMT-0400 (Eastern Daylight Time)","Mon Sep 14 2020 08:46:36 GMT-0400 (Eastern Daylight Time)","Mozilla/5.0 (Windows NT 10.0; Win64; x64; rv:80.0) Gecko/20100101 Firefox/80.0",42,"[0.9, 0.5, 0.1]","[0.8, 0.4, 0.2]","[u'blue', u'red', u'black']","[u'left', u'middle', u'right']","[0.9, 0.5, 0.1]","[u'high', u'medium', u'low']","red",50,"middle","medium","True","False",237,2400,NA
"A1P47Q6LZPLQ6P","Mon Sep 14 2020 08:40:50 GMT-0400 (Eastern Daylight Time)","Mon Sep 14 2020 08:46:36 GMT-0400 (Eastern Daylight Time)","Mozilla/5.0 (Windows NT 10.0; Win64; x64; rv:80.0) Gecko/20100101 Firefox/80.0",43,"[0.9, 0.5, 0.1]","[0.8, 0.4, 0.2]","[u'blue', u'red', u'black']","[u'left', u'middle', u'right']","[0.9, 0.5, 0.1]","[u'high', u'medium', u'low']","red",50,"middle","medium","False","False",274,2350,NA
"A1P47Q6LZPLQ6P","Mon Sep 14 2020 08:40:50 GMT-0400 (Eastern Daylight Time)","Mon Sep 14 2020 08:46:36 GMT-0400 (Eastern Daylight Time)","Mozilla/5.0 (Windows NT 10.0; Win64; x64; rv:80.0) Gecko/20100101 Firefox/80.0",44,"[0.9, 0.5, 0.1]","[0.8, 0.4, 0.2]","[u'blue', u'red', u'black']","[u'left', u'middle', u'right']","[0.9, 0.5, 0.1]","[u'high', u'medium', u'low']","red",50,"middle","medium","False","False",102,2300,NA
"A1P47Q6LZPLQ6P","Mon Sep 14 2020 08:40:50 GMT-0400 (Eastern Daylight Time)","Mon Sep 14 2020 08:46:36 GMT-0400 (Eastern Daylight Time)","Mozilla/5.0 (Windows NT 10.0; Win64; x64; rv:80.0) Gecko/20100101 Firefox/80.0",45,"[0.9, 0.5, 0.1]","[0.8, 0.4, 0.2]","[u'blue', u'red', u'black']","[u'left', u'middle', u'right']","[0.9, 0.5, 0.1]","[u'high', u'medium', u'low']","blue",49,"left","high","True","False",209,2400,NA
"A1P47Q6LZPLQ6P","Mon Sep 14 2020 08:40:50 GMT-0400 (Eastern Daylight Time)","Mon Sep 14 2020 08:46:36 GMT-0400 (Eastern Daylight Time)","Mozilla/5.0 (Windows NT 10.0; Win64; x64; rv:80.0) Gecko/20100101 Firefox/80.0",46,"[0.9, 0.5, 0.1]","[0.8, 0.4, 0.2]","[u'blue', u'red', u'black']","[u'left', u'middle', u'right']","[0.9, 0.5, 0.1]","[u'high', u'medium', u'low']","blue",49,"left","high","True","False",232,2500,NA
"A1P47Q6LZPLQ6P","Mon Sep 14 2020 08:40:50 GMT-0400 (Eastern Daylight Time)","Mon Sep 14 2020 08:46:36 GMT-0400 (Eastern Daylight Time)","Mozilla/5.0 (Windows NT 10.0; Win64; x64; rv:80.0) Gecko/20100101 Firefox/80.0",47,"[0.9, 0.5, 0.1]","[0.8, 0.4, 0.2]","[u'blue', u'red', u'black']","[u'left', u'middle', u'right']","[0.9, 0.5, 0.1]","[u'high', u'medium', u'low']","blue",49,"left","high","True","False",226,2600,NA
"A1P47Q6LZPLQ6P","Mon Sep 14 2020 08:40:50 GMT-0400 (Eastern Daylight Time)","Mon Sep 14 2020 08:46:36 GMT-0400 (Eastern Daylight Time)","Mozilla/5.0 (Windows NT 10.0; Win64; x64; rv:80.0) Gecko/20100101 Firefox/80.0",48,"[0.9, 0.5, 0.1]","[0.8, 0.4, 0.2]","[u'blue', u'red', u'black']","[u'left', u'middle', u'right']","[0.9, 0.5, 0.1]","[u'high', u'medium', u'low']","blue",49,"left","high","True","False",220,2700,NA
"A1P47Q6LZPLQ6P","Mon Sep 14 2020 08:40:50 GMT-0400 (Eastern Daylight Time)","Mon Sep 14 2020 08:46:36 GMT-0400 (Eastern Daylight Time)","Mozilla/5.0 (Windows NT 10.0; Win64; x64; rv:80.0) Gecko/20100101 Firefox/80.0",49,"[0.9, 0.5, 0.1]","[0.8, 0.4, 0.2]","[u'blue', u'red', u'black']","[u'left', u'middle', u'right']","[0.9, 0.5, 0.1]","[u'high', u'medium', u'low']","blue",49,"left","high","False","False",202,2650,NA
"A1P47Q6LZPLQ6P","Mon Sep 14 2020 08:40:50 GMT-0400 (Eastern Daylight Time)","Mon Sep 14 2020 08:46:36 GMT-0400 (Eastern Daylight Time)","Mozilla/5.0 (Windows NT 10.0; Win64; x64; rv:80.0) Gecko/20100101 Firefox/80.0",50,"[0.9, 0.5, 0.1]","[0.8, 0.4, 0.2]","[u'blue', u'red', u'black']","[u'left', u'middle', u'right']","[0.9, 0.5, 0.1]","[u'high', u'medium', u'low']","blue",49,"left","high","False","False",210,2600,NA
"A1P47Q6LZPLQ6P","Mon Sep 14 2020 08:40:50 GMT-0400 (Eastern Daylight Time)","Mon Sep 14 2020 08:46:36 GMT-0400 (Eastern Daylight Time)","Mozilla/5.0 (Windows NT 10.0; Win64; x64; rv:80.0) Gecko/20100101 Firefox/80.0",51,"[0.9, 0.5, 0.1]","[0.8, 0.4, 0.2]","[u'blue', u'red', u'black']","[u'left', u'middle', u'right']","[0.9, 0.5, 0.1]","[u'high', u'medium', u'low']","black",51,"right","low","False","False",246,2550,NA
"A1P47Q6LZPLQ6P","Mon Sep 14 2020 08:40:50 GMT-0400 (Eastern Daylight Time)","Mon Sep 14 2020 08:46:36 GMT-0400 (Eastern Daylight Time)","Mozilla/5.0 (Windows NT 10.0; Win64; x64; rv:80.0) Gecko/20100101 Firefox/80.0",52,"[0.9, 0.5, 0.1]","[0.8, 0.4, 0.2]","[u'blue', u'red', u'black']","[u'left', u'middle', u'right']","[0.9, 0.5, 0.1]","[u'high', u'medium', u'low']","black",51,"right","low","False","False",213,2500,NA
"A1P47Q6LZPLQ6P","Mon Sep 14 2020 08:40:50 GMT-0400 (Eastern Daylight Time)","Mon Sep 14 2020 08:46:36 GMT-0400 (Eastern Daylight Time)","Mozilla/5.0 (Windows NT 10.0; Win64; x64; rv:80.0) Gecko/20100101 Firefox/80.0",53,"[0.9, 0.5, 0.1]","[0.8, 0.4, 0.2]","[u'blue', u'red', u'black']","[u'left', u'middle', u'right']","[0.9, 0.5, 0.1]","[u'high', u'medium', u'low']","red",50,"middle","medium","False","False",204,2450,NA
"A1P47Q6LZPLQ6P","Mon Sep 14 2020 08:40:50 GMT-0400 (Eastern Daylight Time)","Mon Sep 14 2020 08:46:36 GMT-0400 (Eastern Daylight Time)","Mozilla/5.0 (Windows NT 10.0; Win64; x64; rv:80.0) Gecko/20100101 Firefox/80.0",54,"[0.9, 0.5, 0.1]","[0.8, 0.4, 0.2]","[u'blue', u'red', u'black']","[u'left', u'middle', u'right']","[0.9, 0.5, 0.1]","[u'high', u'medium', u'low']","red",50,"middle","medium","True","False",255,2550,NA
"A1P47Q6LZPLQ6P","Mon Sep 14 2020 08:40:50 GMT-0400 (Eastern Daylight Time)","Mon Sep 14 2020 08:46:36 GMT-0400 (Eastern Daylight Time)","Mozilla/5.0 (Windows NT 10.0; Win64; x64; rv:80.0) Gecko/20100101 Firefox/80.0",55,"[0.9, 0.5, 0.1]","[0.8, 0.4, 0.2]","[u'blue', u'red', u'black']","[u'left', u'middle', u'right']","[0.9, 0.5, 0.1]","[u'high', u'medium', u'low']","red",50,"middle","medium","False","False",180,2500,NA
"A1P47Q6LZPLQ6P","Mon Sep 14 2020 08:40:50 GMT-0400 (Eastern Daylight Time)","Mon Sep 14 2020 08:46:36 GMT-0400 (Eastern Daylight Time)","Mozilla/5.0 (Windows NT 10.0; Win64; x64; rv:80.0) Gecko/20100101 Firefox/80.0",56,"[0.9, 0.5, 0.1]","[0.8, 0.4, 0.2]","[u'blue', u'red', u'black']","[u'left', u'middle', u'right']","[0.9, 0.5, 0.1]","[u'high', u'medium', u'low']","red",50,"middle","medium","True","False",246,2600,NA
"A1P47Q6LZPLQ6P","Mon Sep 14 2020 08:40:50 GMT-0400 (Eastern Daylight Time)","Mon Sep 14 2020 08:46:36 GMT-0400 (Eastern Daylight Time)","Mozilla/5.0 (Windows NT 10.0; Win64; x64; rv:80.0) Gecko/20100101 Firefox/80.0",57,"[0.9, 0.5, 0.1]","[0.8, 0.4, 0.2]","[u'blue', u'red', u'black']","[u'left', u'middle', u'right']","[0.9, 0.5, 0.1]","[u'high', u'medium', u'low']","red",50,"middle","medium","True","False",221,2700,NA
"A1P47Q6LZPLQ6P","Mon Sep 14 2020 08:40:50 GMT-0400 (Eastern Daylight Time)","Mon Sep 14 2020 08:46:36 GMT-0400 (Eastern Daylight Time)","Mozilla/5.0 (Windows NT 10.0; Win64; x64; rv:80.0) Gecko/20100101 Firefox/80.0",58,"[0.9, 0.5, 0.1]","[0.8, 0.4, 0.2]","[u'blue', u'red', u'black']","[u'left', u'middle', u'right']","[0.9, 0.5, 0.1]","[u'high', u'medium', u'low']","red",50,"middle","medium","True","False",225,2800,NA
"A1P47Q6LZPLQ6P","Mon Sep 14 2020 08:40:50 GMT-0400 (Eastern Daylight Time)","Mon Sep 14 2020 08:46:36 GMT-0400 (Eastern Daylight Time)","Mozilla/5.0 (Windows NT 10.0; Win64; x64; rv:80.0) Gecko/20100101 Firefox/80.0",59,"[0.9, 0.5, 0.1]","[0.8, 0.4, 0.2]","[u'blue', u'red', u'black']","[u'left', u'middle', u'right']","[0.9, 0.5, 0.1]","[u'high', u'medium', u'low']","red",50,"middle","medium","True","False",181,2900,NA
"A1P47Q6LZPLQ6P","Mon Sep 14 2020 08:40:50 GMT-0400 (Eastern Daylight Time)","Mon Sep 14 2020 08:46:36 GMT-0400 (Eastern Daylight Time)","Mozilla/5.0 (Windows NT 10.0; Win64; x64; rv:80.0) Gecko/20100101 Firefox/80.0",60,"[0.9, 0.5, 0.1]","[0.8, 0.4, 0.2]","[u'blue', u'red', u'black']","[u'left', u'middle', u'right']","[0.9, 0.5, 0.1]","[u'high', u'medium', u'low']","red",50,"middle","medium","True","False",214,3000,NA
"A1P47Q6LZPLQ6P","Mon Sep 14 2020 08:40:50 GMT-0400 (Eastern Daylight Time)","Mon Sep 14 2020 08:46:36 GMT-0400 (Eastern Daylight Time)","Mozilla/5.0 (Windows NT 10.0; Win64; x64; rv:80.0) Gecko/20100101 Firefox/80.0",61,"[0.9, 0.5, 0.1]","[0.8, 0.4, 0.2]","[u'blue', u'red', u'black']","[u'left', u'middle', u'right']","[0.9, 0.5, 0.1]","[u'high', u'medium', u'low']","red",50,"middle","medium","False","False",276,2950,NA
"A1P47Q6LZPLQ6P","Mon Sep 14 2020 08:40:50 GMT-0400 (Eastern Daylight Time)","Mon Sep 14 2020 08:46:36 GMT-0400 (Eastern Daylight Time)","Mozilla/5.0 (Windows NT 10.0; Win64; x64; rv:80.0) Gecko/20100101 Firefox/80.0",62,"[0.9, 0.5, 0.1]","[0.8, 0.4, 0.2]","[u'blue', u'red', u'black']","[u'left', u'middle', u'right']","[0.9, 0.5, 0.1]","[u'high', u'medium', u'low']","red",50,"middle","medium","True","False",270,3050,NA
"A1P47Q6LZPLQ6P","Mon Sep 14 2020 08:40:50 GMT-0400 (Eastern Daylight Time)","Mon Sep 14 2020 08:46:36 GMT-0400 (Eastern Daylight Time)","Mozilla/5.0 (Windows NT 10.0; Win64; x64; rv:80.0) Gecko/20100101 Firefox/80.0",63,"[0.9, 0.5, 0.1]","[0.8, 0.4, 0.2]","[u'blue', u'red', u'black']","[u'left', u'middle', u'right']","[0.9, 0.5, 0.1]","[u'high', u'medium', u'low']","red",50,"middle","medium","False","False",212,3000,NA
"A1P47Q6LZPLQ6P","Mon Sep 14 2020 08:40:50 GMT-0400 (Eastern Daylight Time)","Mon Sep 14 2020 08:46:36 GMT-0400 (Eastern Daylight Time)","Mozilla/5.0 (Windows NT 10.0; Win64; x64; rv:80.0) Gecko/20100101 Firefox/80.0",64,"[0.9, 0.5, 0.1]","[0.8, 0.4, 0.2]","[u'blue', u'red', u'black']","[u'left', u'middle', u'right']","[0.9, 0.5, 0.1]","[u'high', u'medium', u'low']","red",50,"middle","medium","True","False",218,3100,NA
"A1P47Q6LZPLQ6P","Mon Sep 14 2020 08:40:50 GMT-0400 (Eastern Daylight Time)","Mon Sep 14 2020 08:46:36 GMT-0400 (Eastern Daylight Time)","Mozilla/5.0 (Windows NT 10.0; Win64; x64; rv:80.0) Gecko/20100101 Firefox/80.0",65,"[0.9, 0.5, 0.1]","[0.8, 0.4, 0.2]","[u'blue', u'red', u'black']","[u'left', u'middle', u'right']","[0.9, 0.5, 0.1]","[u'high', u'medium', u'low']","red",50,"middle","medium","False","False",247,3050,NA
"A1P47Q6LZPLQ6P","Mon Sep 14 2020 08:40:50 GMT-0400 (Eastern Daylight Time)","Mon Sep 14 2020 08:46:36 GMT-0400 (Eastern Daylight Time)","Mozilla/5.0 (Windows NT 10.0; Win64; x64; rv:80.0) Gecko/20100101 Firefox/80.0",66,"[0.9, 0.5, 0.1]","[0.8, 0.4, 0.2]","[u'blue', u'red', u'black']","[u'left', u'middle', u'right']","[0.9, 0.5, 0.1]","[u'high', u'medium', u'low']","red",50,"middle","medium","True","False",350,3150,NA
"A1P47Q6LZPLQ6P","Mon Sep 14 2020 08:40:50 GMT-0400 (Eastern Daylight Time)","Mon Sep 14 2020 08:46:36 GMT-0400 (Eastern Daylight Time)","Mozilla/5.0 (Windows NT 10.0; Win64; x64; rv:80.0) Gecko/20100101 Firefox/80.0",67,"[0.9, 0.5, 0.1]","[0.8, 0.4, 0.2]","[u'blue', u'red', u'black']","[u'left', u'middle', u'right']","[0.9, 0.5, 0.1]","[u'high', u'medium', u'low']","red",50,"middle","medium","True","False",238,3250,NA
"A1P47Q6LZPLQ6P","Mon Sep 14 2020 08:40:50 GMT-0400 (Eastern Daylight Time)","Mon Sep 14 2020 08:46:36 GMT-0400 (Eastern Daylight Time)","Mozilla/5.0 (Windows NT 10.0; Win64; x64; rv:80.0) Gecko/20100101 Firefox/80.0",68,"[0.9, 0.5, 0.1]","[0.8, 0.4, 0.2]","[u'blue', u'red', u'black']","[u'left', u'middle', u'right']","[0.9, 0.5, 0.1]","[u'high', u'medium', u'low']","red",50,"middle","medium","True","False",204,3350,NA
"A1P47Q6LZPLQ6P","Mon Sep 14 2020 08:40:50 GMT-0400 (Eastern Daylight Time)","Mon Sep 14 2020 08:46:36 GMT-0400 (Eastern Daylight Time)","Mozilla/5.0 (Windows NT 10.0; Win64; x64; rv:80.0) Gecko/20100101 Firefox/80.0",69,"[0.9, 0.5, 0.1]","[0.8, 0.4, 0.2]","[u'blue', u'red', u'black']","[u'left', u'middle', u'right']","[0.9, 0.5, 0.1]","[u'high', u'medium', u'low']","red",50,"middle","medium","True","False",211,3450,NA
"A1P47Q6LZPLQ6P","Mon Sep 14 2020 08:40:50 GMT-0400 (Eastern Daylight Time)","Mon Sep 14 2020 08:46:36 GMT-0400 (Eastern Daylight Time)","Mozilla/5.0 (Windows NT 10.0; Win64; x64; rv:80.0) Gecko/20100101 Firefox/80.0",70,"[0.9, 0.5, 0.1]","[0.8, 0.4, 0.2]","[u'blue', u'red', u'black']","[u'left', u'middle', u'right']","[0.9, 0.5, 0.1]","[u'high', u'medium', u'low']","red",50,"middle","medium","False","False",269,3400,NA
"A1P47Q6LZPLQ6P","Mon Sep 14 2020 08:40:50 GMT-0400 (Eastern Daylight Time)","Mon Sep 14 2020 08:46:36 GMT-0400 (Eastern Daylight Time)","Mozilla/5.0 (Windows NT 10.0; Win64; x64; rv:80.0) Gecko/20100101 Firefox/80.0",71,"[0.9, 0.5, 0.1]","[0.8, 0.4, 0.2]","[u'blue', u'red', u'black']","[u'left', u'middle', u'right']","[0.9, 0.5, 0.1]","[u'high', u'medium', u'low']","red",50,"middle","medium","False","False",294,3350,NA
"A1P47Q6LZPLQ6P","Mon Sep 14 2020 08:40:50 GMT-0400 (Eastern Daylight Time)","Mon Sep 14 2020 08:46:36 GMT-0400 (Eastern Daylight Time)","Mozilla/5.0 (Windows NT 10.0; Win64; x64; rv:80.0) Gecko/20100101 Firefox/80.0",72,"[0.9, 0.5, 0.1]","[0.8, 0.4, 0.2]","[u'blue', u'red', u'black']","[u'left', u'middle', u'right']","[0.9, 0.5, 0.1]","[u'high', u'medium', u'low']","blue",49,"left","high","True","False",210,3450,NA
"A1P47Q6LZPLQ6P","Mon Sep 14 2020 08:40:50 GMT-0400 (Eastern Daylight Time)","Mon Sep 14 2020 08:46:36 GMT-0400 (Eastern Daylight Time)","Mozilla/5.0 (Windows NT 10.0; Win64; x64; rv:80.0) Gecko/20100101 Firefox/80.0",73,"[0.9, 0.5, 0.1]","[0.8, 0.4, 0.2]","[u'blue', u'red', u'black']","[u'left', u'middle', u'right']","[0.9, 0.5, 0.1]","[u'high', u'medium', u'low']","blue",49,"left","high","False","False",287,3400,NA
"A1P47Q6LZPLQ6P","Mon Sep 14 2020 08:40:50 GMT-0400 (Eastern Daylight Time)","Mon Sep 14 2020 08:46:36 GMT-0400 (Eastern Daylight Time)","Mozilla/5.0 (Windows NT 10.0; Win64; x64; rv:80.0) Gecko/20100101 Firefox/80.0",74,"[0.9, 0.5, 0.1]","[0.8, 0.4, 0.2]","[u'blue', u'red', u'black']","[u'left', u'middle', u'right']","[0.9, 0.5, 0.1]","[u'high', u'medium', u'low']","blue",49,"left","high","True","False",296,3500,NA
"A1P47Q6LZPLQ6P","Mon Sep 14 2020 08:40:50 GMT-0400 (Eastern Daylight Time)","Mon Sep 14 2020 08:46:36 GMT-0400 (Eastern Daylight Time)","Mozilla/5.0 (Windows NT 10.0; Win64; x64; rv:80.0) Gecko/20100101 Firefox/80.0",75,"[0.9, 0.5, 0.1]","[0.8, 0.4, 0.2]","[u'blue', u'red', u'black']","[u'left', u'middle', u'right']","[0.9, 0.5, 0.1]","[u'high', u'medium', u'low']","blue",49,"left","high","True","False",236,3600,NA
"A1P47Q6LZPLQ6P","Mon Sep 14 2020 08:40:50 GMT-0400 (Eastern Daylight Time)","Mon Sep 14 2020 08:46:36 GMT-0400 (Eastern Daylight Time)","Mozilla/5.0 (Windows NT 10.0; Win64; x64; rv:80.0) Gecko/20100101 Firefox/80.0",76,"[0.9, 0.5, 0.1]","[0.8, 0.4, 0.2]","[u'blue', u'red', u'black']","[u'left', u'middle', u'right']","[0.9, 0.5, 0.1]","[u'high', u'medium', u'low']","blue",49,"left","high","True","False",257,3700,NA
"A1P47Q6LZPLQ6P","Mon Sep 14 2020 08:40:50 GMT-0400 (Eastern Daylight Time)","Mon Sep 14 2020 08:46:36 GMT-0400 (Eastern Daylight Time)","Mozilla/5.0 (Windows NT 10.0; Win64; x64; rv:80.0) Gecko/20100101 Firefox/80.0",77,"[0.9, 0.5, 0.1]","[0.8, 0.4, 0.2]","[u'blue', u'red', u'black']","[u'left', u'middle', u'right']","[0.9, 0.5, 0.1]","[u'high', u'medium', u'low']","blue",49,"left","high","True","False",212,3800,NA
"A1P47Q6LZPLQ6P","Mon Sep 14 2020 08:40:50 GMT-0400 (Eastern Daylight Time)","Mon Sep 14 2020 08:46:36 GMT-0400 (Eastern Daylight Time)","Mozilla/5.0 (Windows NT 10.0; Win64; x64; rv:80.0) Gecko/20100101 Firefox/80.0",78,"[0.9, 0.5, 0.1]","[0.8, 0.4, 0.2]","[u'blue', u'red', u'black']","[u'left', u'middle', u'right']","[0.9, 0.5, 0.1]","[u'high', u'medium', u'low']","blue",49,"left","high","True","False",215,3900,NA
"A1P47Q6LZPLQ6P","Mon Sep 14 2020 08:40:50 GMT-0400 (Eastern Daylight Time)","Mon Sep 14 2020 08:46:36 GMT-0400 (Eastern Daylight Time)","Mozilla/5.0 (Windows NT 10.0; Win64; x64; rv:80.0) Gecko/20100101 Firefox/80.0",79,"[0.9, 0.5, 0.1]","[0.8, 0.4, 0.2]","[u'blue', u'red', u'black']","[u'left', u'middle', u'right']","[0.9, 0.5, 0.1]","[u'high', u'medium', u'low']","blue",49,"left","high","True","False",206,4000,NA
"A1P47Q6LZPLQ6P","Mon Sep 14 2020 08:40:50 GMT-0400 (Eastern Daylight Time)","Mon Sep 14 2020 08:46:36 GMT-0400 (Eastern Daylight Time)","Mozilla/5.0 (Windows NT 10.0; Win64; x64; rv:80.0) Gecko/20100101 Firefox/80.0",80,"[0.9, 0.5, 0.1]","[0.8, 0.4, 0.2]","[u'blue', u'red', u'black']","[u'left', u'middle', u'right']","[0.9, 0.5, 0.1]","[u'high', u'medium', u'low']","blue",49,"left","high","True","True",251,4100,NA
"A1P47Q6LZPLQ6P","Mon Sep 14 2020 08:40:50 GMT-0400 (Eastern Daylight Time)","Mon Sep 14 2020 08:46:36 GMT-0400 (Eastern Daylight Time)","Mozilla/5.0 (Windows NT 10.0; Win64; x64; rv:80.0) Gecko/20100101 Firefox/80.0",81,"[0.9, 0.5, 0.1]","[0.8, 0.4, 0.2]","[u'blue', u'red', u'black']","[u'left', u'middle', u'right']","[0.8, 0.4, 0.2]","[u'medium', u'high', u'low']","blue",49,"left","medium","False","False",238,4050,NA
"A1P47Q6LZPLQ6P","Mon Sep 14 2020 08:40:50 GMT-0400 (Eastern Daylight Time)","Mon Sep 14 2020 08:46:36 GMT-0400 (Eastern Daylight Time)","Mozilla/5.0 (Windows NT 10.0; Win64; x64; rv:80.0) Gecko/20100101 Firefox/80.0",82,"[0.9, 0.5, 0.1]","[0.8, 0.4, 0.2]","[u'blue', u'red', u'black']","[u'left', u'middle', u'right']","[0.8, 0.4, 0.2]","[u'medium', u'high', u'low']","blue",49,"left","medium","False","False",252,4000,NA
"A1P47Q6LZPLQ6P","Mon Sep 14 2020 08:40:50 GMT-0400 (Eastern Daylight Time)","Mon Sep 14 2020 08:46:36 GMT-0400 (Eastern Daylight Time)","Mozilla/5.0 (Windows NT 10.0; Win64; x64; rv:80.0) Gecko/20100101 Firefox/80.0",83,"[0.9, 0.5, 0.1]","[0.8, 0.4, 0.2]","[u'blue', u'red', u'black']","[u'left', u'middle', u'right']","[0.8, 0.4, 0.2]","[u'medium', u'high', u'low']","black",51,"right","low","False","False",214,3950,NA
"A1P47Q6LZPLQ6P","Mon Sep 14 2020 08:40:50 GMT-0400 (Eastern Daylight Time)","Mon Sep 14 2020 08:46:36 GMT-0400 (Eastern Daylight Time)","Mozilla/5.0 (Windows NT 10.0; Win64; x64; rv:80.0) Gecko/20100101 Firefox/80.0",84,"[0.9, 0.5, 0.1]","[0.8, 0.4, 0.2]","[u'blue', u'red', u'black']","[u'left', u'middle', u'right']","[0.8, 0.4, 0.2]","[u'medium', u'high', u'low']","black",51,"right","low","False","False",275,3900,NA
"A1P47Q6LZPLQ6P","Mon Sep 14 2020 08:40:50 GMT-0400 (Eastern Daylight Time)","Mon Sep 14 2020 08:46:36 GMT-0400 (Eastern Daylight Time)","Mozilla/5.0 (Windows NT 10.0; Win64; x64; rv:80.0) Gecko/20100101 Firefox/80.0",85,"[0.9, 0.5, 0.1]","[0.8, 0.4, 0.2]","[u'blue', u'red', u'black']","[u'left', u'middle', u'right']","[0.8, 0.4, 0.2]","[u'medium', u'high', u'low']","red",50,"middle","high","True","False",233,4000,NA
"A1P47Q6LZPLQ6P","Mon Sep 14 2020 08:40:50 GMT-0400 (Eastern Daylight Time)","Mon Sep 14 2020 08:46:36 GMT-0400 (Eastern Daylight Time)","Mozilla/5.0 (Windows NT 10.0; Win64; x64; rv:80.0) Gecko/20100101 Firefox/80.0",86,"[0.9, 0.5, 0.1]","[0.8, 0.4, 0.2]","[u'blue', u'red', u'black']","[u'left', u'middle', u'right']","[0.8, 0.4, 0.2]","[u'medium', u'high', u'low']","red",50,"middle","high","True","False",270,4100,NA
"A1P47Q6LZPLQ6P","Mon Sep 14 2020 08:40:50 GMT-0400 (Eastern Daylight Time)","Mon Sep 14 2020 08:46:36 GMT-0400 (Eastern Daylight Time)","Mozilla/5.0 (Windows NT 10.0; Win64; x64; rv:80.0) Gecko/20100101 Firefox/80.0",87,"[0.9, 0.5, 0.1]","[0.8, 0.4, 0.2]","[u'blue', u'red', u'black']","[u'left', u'middle', u'right']","[0.8, 0.4, 0.2]","[u'medium', u'high', u'low']","red",50,"middle","high","True","False",225,4200,NA
"A1P47Q6LZPLQ6P","Mon Sep 14 2020 08:40:50 GMT-0400 (Eastern Daylight Time)","Mon Sep 14 2020 08:46:36 GMT-0400 (Eastern Daylight Time)","Mozilla/5.0 (Windows NT 10.0; Win64; x64; rv:80.0) Gecko/20100101 Firefox/80.0",88,"[0.9, 0.5, 0.1]","[0.8, 0.4, 0.2]","[u'blue', u'red', u'black']","[u'left', u'middle', u'right']","[0.8, 0.4, 0.2]","[u'medium', u'high', u'low']","red",50,"middle","high","True","False",317,4300,NA
"A1P47Q6LZPLQ6P","Mon Sep 14 2020 08:40:50 GMT-0400 (Eastern Daylight Time)","Mon Sep 14 2020 08:46:36 GMT-0400 (Eastern Daylight Time)","Mozilla/5.0 (Windows NT 10.0; Win64; x64; rv:80.0) Gecko/20100101 Firefox/80.0",89,"[0.9, 0.5, 0.1]","[0.8, 0.4, 0.2]","[u'blue', u'red', u'black']","[u'left', u'middle', u'right']","[0.8, 0.4, 0.2]","[u'medium', u'high', u'low']","red",50,"middle","high","True","False",378,4400,NA
"A1P47Q6LZPLQ6P","Mon Sep 14 2020 08:40:50 GMT-0400 (Eastern Daylight Time)","Mon Sep 14 2020 08:46:36 GMT-0400 (Eastern Daylight Time)","Mozilla/5.0 (Windows NT 10.0; Win64; x64; rv:80.0) Gecko/20100101 Firefox/80.0",90,"[0.9, 0.5, 0.1]","[0.8, 0.4, 0.2]","[u'blue', u'red', u'black']","[u'left', u'middle', u'right']","[0.8, 0.4, 0.2]","[u'medium', u'high', u'low']","red",50,"middle","high","True","False",243,4500,NA
"A1P47Q6LZPLQ6P","Mon Sep 14 2020 08:40:50 GMT-0400 (Eastern Daylight Time)","Mon Sep 14 2020 08:46:36 GMT-0400 (Eastern Daylight Time)","Mozilla/5.0 (Windows NT 10.0; Win64; x64; rv:80.0) Gecko/20100101 Firefox/80.0",91,"[0.9, 0.5, 0.1]","[0.8, 0.4, 0.2]","[u'blue', u'red', u'black']","[u'left', u'middle', u'right']","[0.8, 0.4, 0.2]","[u'medium', u'high', u'low']","red",50,"middle","high","True","False",208,4600,NA
"A1P47Q6LZPLQ6P","Mon Sep 14 2020 08:40:50 GMT-0400 (Eastern Daylight Time)","Mon Sep 14 2020 08:46:36 GMT-0400 (Eastern Daylight Time)","Mozilla/5.0 (Windows NT 10.0; Win64; x64; rv:80.0) Gecko/20100101 Firefox/80.0",92,"[0.9, 0.5, 0.1]","[0.8, 0.4, 0.2]","[u'blue', u'red', u'black']","[u'left', u'middle', u'right']","[0.8, 0.4, 0.2]","[u'medium', u'high', u'low']","red",50,"middle","high","True","False",203,4700,NA
"A1P47Q6LZPLQ6P","Mon Sep 14 2020 08:40:50 GMT-0400 (Eastern Daylight Time)","Mon Sep 14 2020 08:46:36 GMT-0400 (Eastern Daylight Time)","Mozilla/5.0 (Windows NT 10.0; Win64; x64; rv:80.0) Gecko/20100101 Firefox/80.0",93,"[0.9, 0.5, 0.1]","[0.8, 0.4, 0.2]","[u'blue', u'red', u'black']","[u'left', u'middle', u'right']","[0.8, 0.4, 0.2]","[u'medium', u'high', u'low']","red",50,"middle","high","True","True",195,4800,NA
"A1P47Q6LZPLQ6P","Mon Sep 14 2020 08:40:50 GMT-0400 (Eastern Daylight Time)","Mon Sep 14 2020 08:46:36 GMT-0400 (Eastern Daylight Time)","Mozilla/5.0 (Windows NT 10.0; Win64; x64; rv:80.0) Gecko/20100101 Firefox/80.0",94,"[0.9, 0.5, 0.1]","[0.8, 0.4, 0.2]","[u'blue', u'red', u'black']","[u'left', u'middle', u'right']","[0.8, 0.4, 0.2]","[u'medium', u'low', u'high']","red",50,"middle","low","True","False",209,4900,NA
"A1P47Q6LZPLQ6P","Mon Sep 14 2020 08:40:50 GMT-0400 (Eastern Daylight Time)","Mon Sep 14 2020 08:46:36 GMT-0400 (Eastern Daylight Time)","Mozilla/5.0 (Windows NT 10.0; Win64; x64; rv:80.0) Gecko/20100101 Firefox/80.0",95,"[0.9, 0.5, 0.1]","[0.8, 0.4, 0.2]","[u'blue', u'red', u'black']","[u'left', u'middle', u'right']","[0.8, 0.4, 0.2]","[u'medium', u'low', u'high']","red",50,"middle","low","False","False",239,4850,NA
"A1P47Q6LZPLQ6P","Mon Sep 14 2020 08:40:50 GMT-0400 (Eastern Daylight Time)","Mon Sep 14 2020 08:46:36 GMT-0400 (Eastern Daylight Time)","Mozilla/5.0 (Windows NT 10.0; Win64; x64; rv:80.0) Gecko/20100101 Firefox/80.0",96,"[0.9, 0.5, 0.1]","[0.8, 0.4, 0.2]","[u'blue', u'red', u'black']","[u'left', u'middle', u'right']","[0.8, 0.4, 0.2]","[u'medium', u'low', u'high']","red",50,"middle","low","False","False",218,4800,NA
"A1P47Q6LZPLQ6P","Mon Sep 14 2020 08:40:50 GMT-0400 (Eastern Daylight Time)","Mon Sep 14 2020 08:46:36 GMT-0400 (Eastern Daylight Time)","Mozilla/5.0 (Windows NT 10.0; Win64; x64; rv:80.0) Gecko/20100101 Firefox/80.0",97,"[0.9, 0.5, 0.1]","[0.8, 0.4, 0.2]","[u'blue', u'red', u'black']","[u'left', u'middle', u'right']","[0.8, 0.4, 0.2]","[u'medium', u'low', u'high']","blue",49,"left","medium","False","False",232,4750,NA
"A1P47Q6LZPLQ6P","Mon Sep 14 2020 08:40:50 GMT-0400 (Eastern Daylight Time)","Mon Sep 14 2020 08:46:36 GMT-0400 (Eastern Daylight Time)","Mozilla/5.0 (Windows NT 10.0; Win64; x64; rv:80.0) Gecko/20100101 Firefox/80.0",98,"[0.9, 0.5, 0.1]","[0.8, 0.4, 0.2]","[u'blue', u'red', u'black']","[u'left', u'middle', u'right']","[0.8, 0.4, 0.2]","[u'medium', u'low', u'high']","blue",49,"left","medium","True","False",214,4850,NA
"A1P47Q6LZPLQ6P","Mon Sep 14 2020 08:40:50 GMT-0400 (Eastern Daylight Time)","Mon Sep 14 2020 08:46:36 GMT-0400 (Eastern Daylight Time)","Mozilla/5.0 (Windows NT 10.0; Win64; x64; rv:80.0) Gecko/20100101 Firefox/80.0",99,"[0.9, 0.5, 0.1]","[0.8, 0.4, 0.2]","[u'blue', u'red', u'black']","[u'left', u'middle', u'right']","[0.8, 0.4, 0.2]","[u'medium', u'low', u'high']","blue",49,"left","medium","True","False",207,4950,NA
"A1P47Q6LZPLQ6P","Mon Sep 14 2020 08:40:50 GMT-0400 (Eastern Daylight Time)","Mon Sep 14 2020 08:46:36 GMT-0400 (Eastern Daylight Time)","Mozilla/5.0 (Windows NT 10.0; Win64; x64; rv:80.0) Gecko/20100101 Firefox/80.0",100,"[0.9, 0.5, 0.1]","[0.8, 0.4, 0.2]","[u'blue', u'red', u'black']","[u'left', u'middle', u'right']","[0.8, 0.4, 0.2]","[u'medium', u'low', u'high']","blue",49,"left","medium","True","False",200,5050,NA
"A1P47Q6LZPLQ6P","Mon Sep 14 2020 08:40:50 GMT-0400 (Eastern Daylight Time)","Mon Sep 14 2020 08:46:36 GMT-0400 (Eastern Daylight Time)","Mozilla/5.0 (Windows NT 10.0; Win64; x64; rv:80.0) Gecko/20100101 Firefox/80.0",101,"[0.9, 0.5, 0.1]","[0.8, 0.4, 0.2]","[u'blue', u'red', u'black']","[u'left', u'middle', u'right']","[0.8, 0.4, 0.2]","[u'medium', u'low', u'high']","blue",49,"left","medium","True","False",245,5150,NA
"A1P47Q6LZPLQ6P","Mon Sep 14 2020 08:40:50 GMT-0400 (Eastern Daylight Time)","Mon Sep 14 2020 08:46:36 GMT-0400 (Eastern Daylight Time)","Mozilla/5.0 (Windows NT 10.0; Win64; x64; rv:80.0) Gecko/20100101 Firefox/80.0",102,"[0.9, 0.5, 0.1]","[0.8, 0.4, 0.2]","[u'blue', u'red', u'black']","[u'left', u'middle', u'right']","[0.8, 0.4, 0.2]","[u'medium', u'low', u'high']","blue",49,"left","medium","True","False",222,5250,NA
"A1P47Q6LZPLQ6P","Mon Sep 14 2020 08:40:50 GMT-0400 (Eastern Daylight Time)","Mon Sep 14 2020 08:46:36 GMT-0400 (Eastern Daylight Time)","Mozilla/5.0 (Windows NT 10.0; Win64; x64; rv:80.0) Gecko/20100101 Firefox/80.0",103,"[0.9, 0.5, 0.1]","[0.8, 0.4, 0.2]","[u'blue', u'red', u'black']","[u'left', u'middle', u'right']","[0.8, 0.4, 0.2]","[u'medium', u'low', u'high']","blue",49,"left","medium","False","False",231,5200,NA
"A1P47Q6LZPLQ6P","Mon Sep 14 2020 08:40:50 GMT-0400 (Eastern Daylight Time)","Mon Sep 14 2020 08:46:36 GMT-0400 (Eastern Daylight Time)","Mozilla/5.0 (Windows NT 10.0; Win64; x64; rv:80.0) Gecko/20100101 Firefox/80.0",104,"[0.9, 0.5, 0.1]","[0.8, 0.4, 0.2]","[u'blue', u'red', u'black']","[u'left', u'middle', u'right']","[0.8, 0.4, 0.2]","[u'medium', u'low', u'high']","blue",49,"left","medium","False","False",208,5150,NA
"A1P47Q6LZPLQ6P","Mon Sep 14 2020 08:40:50 GMT-0400 (Eastern Daylight Time)","Mon Sep 14 2020 08:46:36 GMT-0400 (Eastern Daylight Time)","Mozilla/5.0 (Windows NT 10.0; Win64; x64; rv:80.0) Gecko/20100101 Firefox/80.0",105,"[0.9, 0.5, 0.1]","[0.8, 0.4, 0.2]","[u'blue', u'red', u'black']","[u'left', u'middle', u'right']","[0.8, 0.4, 0.2]","[u'medium', u'low', u'high']","black",51,"right","high","True","False",158,5250,NA
"A1P47Q6LZPLQ6P","Mon Sep 14 2020 08:40:50 GMT-0400 (Eastern Daylight Time)","Mon Sep 14 2020 08:46:36 GMT-0400 (Eastern Daylight Time)","Mozilla/5.0 (Windows NT 10.0; Win64; x64; rv:80.0) Gecko/20100101 Firefox/80.0",106,"[0.9, 0.5, 0.1]","[0.8, 0.4, 0.2]","[u'blue', u'red', u'black']","[u'left', u'middle', u'right']","[0.8, 0.4, 0.2]","[u'medium', u'low', u'high']","black",51,"right","high","True","False",270,5350,NA
"A1P47Q6LZPLQ6P","Mon Sep 14 2020 08:40:50 GMT-0400 (Eastern Daylight Time)","Mon Sep 14 2020 08:46:36 GMT-0400 (Eastern Daylight Time)","Mozilla/5.0 (Windows NT 10.0; Win64; x64; rv:80.0) Gecko/20100101 Firefox/80.0",107,"[0.9, 0.5, 0.1]","[0.8, 0.4, 0.2]","[u'blue', u'red', u'black']","[u'left', u'middle', u'right']","[0.8, 0.4, 0.2]","[u'medium', u'low', u'high']","black",51,"right","high","True","False",219,5450,NA
"A1P47Q6LZPLQ6P","Mon Sep 14 2020 08:40:50 GMT-0400 (Eastern Daylight Time)","Mon Sep 14 2020 08:46:36 GMT-0400 (Eastern Daylight Time)","Mozilla/5.0 (Windows NT 10.0; Win64; x64; rv:80.0) Gecko/20100101 Firefox/80.0",108,"[0.9, 0.5, 0.1]","[0.8, 0.4, 0.2]","[u'blue', u'red', u'black']","[u'left', u'middle', u'right']","[0.8, 0.4, 0.2]","[u'medium', u'low', u'high']","black",51,"right","high","True","False",277,5550,NA
"A1P47Q6LZPLQ6P","Mon Sep 14 2020 08:40:50 GMT-0400 (Eastern Daylight Time)","Mon Sep 14 2020 08:46:36 GMT-0400 (Eastern Daylight Time)","Mozilla/5.0 (Windows NT 10.0; Win64; x64; rv:80.0) Gecko/20100101 Firefox/80.0",109,"[0.9, 0.5, 0.1]","[0.8, 0.4, 0.2]","[u'blue', u'red', u'black']","[u'left', u'middle', u'right']","[0.8, 0.4, 0.2]","[u'medium', u'low', u'high']","black",51,"right","high","True","False",245,5650,NA
"A1P47Q6LZPLQ6P","Mon Sep 14 2020 08:40:50 GMT-0400 (Eastern Daylight Time)","Mon Sep 14 2020 08:46:36 GMT-0400 (Eastern Daylight Time)","Mozilla/5.0 (Windows NT 10.0; Win64; x64; rv:80.0) Gecko/20100101 Firefox/80.0",110,"[0.9, 0.5, 0.1]","[0.8, 0.4, 0.2]","[u'blue', u'red', u'black']","[u'left', u'middle', u'right']","[0.8, 0.4, 0.2]","[u'medium', u'low', u'high']","black",51,"right","high","False","False",202,5600,NA
"A1P47Q6LZPLQ6P","Mon Sep 14 2020 08:40:50 GMT-0400 (Eastern Daylight Time)","Mon Sep 14 2020 08:46:36 GMT-0400 (Eastern Daylight Time)","Mozilla/5.0 (Windows NT 10.0; Win64; x64; rv:80.0) Gecko/20100101 Firefox/80.0",111,"[0.9, 0.5, 0.1]","[0.8, 0.4, 0.2]","[u'blue', u'red', u'black']","[u'left', u'middle', u'right']","[0.8, 0.4, 0.2]","[u'medium', u'low', u'high']","black",51,"right","high","True","False",221,5700,NA
"A1P47Q6LZPLQ6P","Mon Sep 14 2020 08:40:50 GMT-0400 (Eastern Daylight Time)","Mon Sep 14 2020 08:46:36 GMT-0400 (Eastern Daylight Time)","Mozilla/5.0 (Windows NT 10.0; Win64; x64; rv:80.0) Gecko/20100101 Firefox/80.0",112,"[0.9, 0.5, 0.1]","[0.8, 0.4, 0.2]","[u'blue', u'red', u'black']","[u'left', u'middle', u'right']","[0.8, 0.4, 0.2]","[u'medium', u'low', u'high']","black",51,"right","high","False","False",170,5650,NA
"A1P47Q6LZPLQ6P","Mon Sep 14 2020 08:40:50 GMT-0400 (Eastern Daylight Time)","Mon Sep 14 2020 08:46:36 GMT-0400 (Eastern Daylight Time)","Mozilla/5.0 (Windows NT 10.0; Win64; x64; rv:80.0) Gecko/20100101 Firefox/80.0",113,"[0.9, 0.5, 0.1]","[0.8, 0.4, 0.2]","[u'blue', u'red', u'black']","[u'left', u'middle', u'right']","[0.8, 0.4, 0.2]","[u'medium', u'low', u'high']","black",51,"right","high","True","True",237,5750,NA
"A1P47Q6LZPLQ6P","Mon Sep 14 2020 08:40:50 GMT-0400 (Eastern Daylight Time)","Mon Sep 14 2020 08:46:36 GMT-0400 (Eastern Daylight Time)","Mozilla/5.0 (Windows NT 10.0; Win64; x64; rv:80.0) Gecko/20100101 Firefox/80.0",114,"[0.9, 0.5, 0.1]","[0.8, 0.4, 0.2]","[u'blue', u'red', u'black']","[u'left', u'middle', u'right']","[0.8, 0.4, 0.2]","[u'high', u'low', u'medium']","black",51,"right","medium","True","False",191,5850,NA
"A1P47Q6LZPLQ6P","Mon Sep 14 2020 08:40:50 GMT-0400 (Eastern Daylight Time)","Mon Sep 14 2020 08:46:36 GMT-0400 (Eastern Daylight Time)","Mozilla/5.0 (Windows NT 10.0; Win64; x64; rv:80.0) Gecko/20100101 Firefox/80.0",115,"[0.9, 0.5, 0.1]","[0.8, 0.4, 0.2]","[u'blue', u'red', u'black']","[u'left', u'middle', u'right']","[0.8, 0.4, 0.2]","[u'high', u'low', u'medium']","black",51,"right","medium","True","False",210,5950,NA
"A1P47Q6LZPLQ6P","Mon Sep 14 2020 08:40:50 GMT-0400 (Eastern Daylight Time)","Mon Sep 14 2020 08:46:36 GMT-0400 (Eastern Daylight Time)","Mozilla/5.0 (Windows NT 10.0; Win64; x64; rv:80.0) Gecko/20100101 Firefox/80.0",116,"[0.9, 0.5, 0.1]","[0.8, 0.4, 0.2]","[u'blue', u'red', u'black']","[u'left', u'middle', u'right']","[0.8, 0.4, 0.2]","[u'high', u'low', u'medium']","black",51,"right","medium","False","False",224,5900,NA
"A1P47Q6LZPLQ6P","Mon Sep 14 2020 08:40:50 GMT-0400 (Eastern Daylight Time)","Mon Sep 14 2020 08:46:36 GMT-0400 (Eastern Daylight Time)","Mozilla/5.0 (Windows NT 10.0; Win64; x64; rv:80.0) Gecko/20100101 Firefox/80.0",117,"[0.9, 0.5, 0.1]","[0.8, 0.4, 0.2]","[u'blue', u'red', u'black']","[u'left', u'middle', u'right']","[0.8, 0.4, 0.2]","[u'high', u'low', u'medium']","black",51,"right","medium","False","False",210,5850,NA
"A1P47Q6LZPLQ6P","Mon Sep 14 2020 08:40:50 GMT-0400 (Eastern Daylight Time)","Mon Sep 14 2020 08:46:36 GMT-0400 (Eastern Daylight Time)","Mozilla/5.0 (Windows NT 10.0; Win64; x64; rv:80.0) Gecko/20100101 Firefox/80.0",118,"[0.9, 0.5, 0.1]","[0.8, 0.4, 0.2]","[u'blue', u'red', u'black']","[u'left', u'middle', u'right']","[0.8, 0.4, 0.2]","[u'high', u'low', u'medium']","red",50,"middle","low","False","False",245,5800,NA
"A1P47Q6LZPLQ6P","Mon Sep 14 2020 08:40:50 GMT-0400 (Eastern Daylight Time)","Mon Sep 14 2020 08:46:36 GMT-0400 (Eastern Daylight Time)","Mozilla/5.0 (Windows NT 10.0; Win64; x64; rv:80.0) Gecko/20100101 Firefox/80.0",119,"[0.9, 0.5, 0.1]","[0.8, 0.4, 0.2]","[u'blue', u'red', u'black']","[u'left', u'middle', u'right']","[0.8, 0.4, 0.2]","[u'high', u'low', u'medium']","red",50,"middle","low","False","False",208,5750,NA
"A1P47Q6LZPLQ6P","Mon Sep 14 2020 08:40:50 GMT-0400 (Eastern Daylight Time)","Mon Sep 14 2020 08:46:36 GMT-0400 (Eastern Daylight Time)","Mozilla/5.0 (Windows NT 10.0; Win64; x64; rv:80.0) Gecko/20100101 Firefox/80.0",120,"[0.9, 0.5, 0.1]","[0.8, 0.4, 0.2]","[u'blue', u'red', u'black']","[u'left', u'middle', u'right']","[0.8, 0.4, 0.2]","[u'high', u'low', u'medium']","blue",49,"left","high","True","False",187,5850,NA
"A1P47Q6LZPLQ6P","Mon Sep 14 2020 08:40:50 GMT-0400 (Eastern Daylight Time)","Mon Sep 14 2020 08:46:36 GMT-0400 (Eastern Daylight Time)","Mozilla/5.0 (Windows NT 10.0; Win64; x64; rv:80.0) Gecko/20100101 Firefox/80.0",121,"[0.9, 0.5, 0.1]","[0.8, 0.4, 0.2]","[u'blue', u'red', u'black']","[u'left', u'middle', u'right']","[0.8, 0.4, 0.2]","[u'low', u'high', u'medium']","blue",49,"left","low","False","False",227,5800,NA
"A1P47Q6LZPLQ6P","Mon Sep 14 2020 08:40:50 GMT-0400 (Eastern Daylight Time)","Mon Sep 14 2020 08:46:36 GMT-0400 (Eastern Daylight Time)","Mozilla/5.0 (Windows NT 10.0; Win64; x64; rv:80.0) Gecko/20100101 Firefox/80.0",122,"[0.9, 0.5, 0.1]","[0.8, 0.4, 0.2]","[u'blue', u'red', u'black']","[u'left', u'middle', u'right']","[0.8, 0.4, 0.2]","[u'low', u'high', u'medium']","blue",49,"left","low","True","False",212,5900,NA
"A1P47Q6LZPLQ6P","Mon Sep 14 2020 08:40:50 GMT-0400 (Eastern Daylight Time)","Mon Sep 14 2020 08:46:36 GMT-0400 (Eastern Daylight Time)","Mozilla/5.0 (Windows NT 10.0; Win64; x64; rv:80.0) Gecko/20100101 Firefox/80.0",123,"[0.9, 0.5, 0.1]","[0.8, 0.4, 0.2]","[u'blue', u'red', u'black']","[u'left', u'middle', u'right']","[0.8, 0.4, 0.2]","[u'low', u'high', u'medium']","blue",49,"left","low","False","False",131,5850,NA
"A1P47Q6LZPLQ6P","Mon Sep 14 2020 08:40:50 GMT-0400 (Eastern Daylight Time)","Mon Sep 14 2020 08:46:36 GMT-0400 (Eastern Daylight Time)","Mozilla/5.0 (Windows NT 10.0; Win64; x64; rv:80.0) Gecko/20100101 Firefox/80.0",124,"[0.9, 0.5, 0.1]","[0.8, 0.4, 0.2]","[u'blue', u'red', u'black']","[u'left', u'middle', u'right']","[0.8, 0.4, 0.2]","[u'low', u'high', u'medium']","blue",49,"left","low","False","False",228,5800,NA
"A1P47Q6LZPLQ6P","Mon Sep 14 2020 08:40:50 GMT-0400 (Eastern Daylight Time)","Mon Sep 14 2020 08:46:36 GMT-0400 (Eastern Daylight Time)","Mozilla/5.0 (Windows NT 10.0; Win64; x64; rv:80.0) Gecko/20100101 Firefox/80.0",125,"[0.9, 0.5, 0.1]","[0.8, 0.4, 0.2]","[u'blue', u'red', u'black']","[u'left', u'middle', u'right']","[0.8, 0.4, 0.2]","[u'low', u'high', u'medium']","red",50,"middle","high","True","False",251,5900,NA
"A1P47Q6LZPLQ6P","Mon Sep 14 2020 08:40:50 GMT-0400 (Eastern Daylight Time)","Mon Sep 14 2020 08:46:36 GMT-0400 (Eastern Daylight Time)","Mozilla/5.0 (Windows NT 10.0; Win64; x64; rv:80.0) Gecko/20100101 Firefox/80.0",126,"[0.9, 0.5, 0.1]","[0.8, 0.4, 0.2]","[u'blue', u'red', u'black']","[u'left', u'middle', u'right']","[0.8, 0.4, 0.2]","[u'low', u'high', u'medium']","red",50,"middle","high","True","False",204,6000,NA
"A1P47Q6LZPLQ6P","Mon Sep 14 2020 08:40:50 GMT-0400 (Eastern Daylight Time)","Mon Sep 14 2020 08:46:36 GMT-0400 (Eastern Daylight Time)","Mozilla/5.0 (Windows NT 10.0; Win64; x64; rv:80.0) Gecko/20100101 Firefox/80.0",127,"[0.9, 0.5, 0.1]","[0.8, 0.4, 0.2]","[u'blue', u'red', u'black']","[u'left', u'middle', u'right']","[0.8, 0.4, 0.2]","[u'low', u'high', u'medium']","red",50,"middle","high","True","False",218,6100,NA
"A1P47Q6LZPLQ6P","Mon Sep 14 2020 08:40:50 GMT-0400 (Eastern Daylight Time)","Mon Sep 14 2020 08:46:36 GMT-0400 (Eastern Daylight Time)","Mozilla/5.0 (Windows NT 10.0; Win64; x64; rv:80.0) Gecko/20100101 Firefox/80.0",128,"[0.9, 0.5, 0.1]","[0.8, 0.4, 0.2]","[u'blue', u'red', u'black']","[u'left', u'middle', u'right']","[0.8, 0.4, 0.2]","[u'low', u'high', u'medium']","red",50,"middle","high","False","False",224,6050,NA
"A1P47Q6LZPLQ6P","Mon Sep 14 2020 08:40:50 GMT-0400 (Eastern Daylight Time)","Mon Sep 14 2020 08:46:36 GMT-0400 (Eastern Daylight Time)","Mozilla/5.0 (Windows NT 10.0; Win64; x64; rv:80.0) Gecko/20100101 Firefox/80.0",129,"[0.9, 0.5, 0.1]","[0.8, 0.4, 0.2]","[u'blue', u'red', u'black']","[u'left', u'middle', u'right']","[0.8, 0.4, 0.2]","[u'low', u'high', u'medium']","red",50,"middle","high","True","False",186,6150,NA
"A1P47Q6LZPLQ6P","Mon Sep 14 2020 08:40:50 GMT-0400 (Eastern Daylight Time)","Mon Sep 14 2020 08:46:36 GMT-0400 (Eastern Daylight Time)","Mozilla/5.0 (Windows NT 10.0; Win64; x64; rv:80.0) Gecko/20100101 Firefox/80.0",130,"[0.9, 0.5, 0.1]","[0.8, 0.4, 0.2]","[u'blue', u'red', u'black']","[u'left', u'middle', u'right']","[0.8, 0.4, 0.2]","[u'low', u'high', u'medium']","red",50,"middle","high","True","False",216,6250,NA
"A1P47Q6LZPLQ6P","Mon Sep 14 2020 08:40:50 GMT-0400 (Eastern Daylight Time)","Mon Sep 14 2020 08:46:36 GMT-0400 (Eastern Daylight Time)","Mozilla/5.0 (Windows NT 10.0; Win64; x64; rv:80.0) Gecko/20100101 Firefox/80.0",131,"[0.9, 0.5, 0.1]","[0.8, 0.4, 0.2]","[u'blue', u'red', u'black']","[u'left', u'middle', u'right']","[0.8, 0.4, 0.2]","[u'low', u'high', u'medium']","red",50,"middle","high","False","False",184,6200,NA
"A1P47Q6LZPLQ6P","Mon Sep 14 2020 08:40:50 GMT-0400 (Eastern Daylight Time)","Mon Sep 14 2020 08:46:36 GMT-0400 (Eastern Daylight Time)","Mozilla/5.0 (Windows NT 10.0; Win64; x64; rv:80.0) Gecko/20100101 Firefox/80.0",132,"[0.9, 0.5, 0.1]","[0.8, 0.4, 0.2]","[u'blue', u'red', u'black']","[u'left', u'middle', u'right']","[0.8, 0.4, 0.2]","[u'low', u'high', u'medium']","red",50,"middle","high","True","False",250,6300,NA
"A1P47Q6LZPLQ6P","Mon Sep 14 2020 08:40:50 GMT-0400 (Eastern Daylight Time)","Mon Sep 14 2020 08:46:36 GMT-0400 (Eastern Daylight Time)","Mozilla/5.0 (Windows NT 10.0; Win64; x64; rv:80.0) Gecko/20100101 Firefox/80.0",133,"[0.9, 0.5, 0.1]","[0.8, 0.4, 0.2]","[u'blue', u'red', u'black']","[u'left', u'middle', u'right']","[0.8, 0.4, 0.2]","[u'low', u'high', u'medium']","red",50,"middle","high","False","True",249,6250,NA
"A1P47Q6LZPLQ6P","Mon Sep 14 2020 08:40:50 GMT-0400 (Eastern Daylight Time)","Mon Sep 14 2020 08:46:36 GMT-0400 (Eastern Daylight Time)","Mozilla/5.0 (Windows NT 10.0; Win64; x64; rv:80.0) Gecko/20100101 Firefox/80.0",134,"[0.9, 0.5, 0.1]","[0.8, 0.4, 0.2]","[u'blue', u'red', u'black']","[u'left', u'middle', u'right']","[0.8, 0.4, 0.2]","[u'low', u'medium', u'high']","red",50,"middle","medium","True","False",273,6350,NA
"A1P47Q6LZPLQ6P","Mon Sep 14 2020 08:40:50 GMT-0400 (Eastern Daylight Time)","Mon Sep 14 2020 08:46:36 GMT-0400 (Eastern Daylight Time)","Mozilla/5.0 (Windows NT 10.0; Win64; x64; rv:80.0) Gecko/20100101 Firefox/80.0",135,"[0.9, 0.5, 0.1]","[0.8, 0.4, 0.2]","[u'blue', u'red', u'black']","[u'left', u'middle', u'right']","[0.8, 0.4, 0.2]","[u'low', u'medium', u'high']","red",50,"middle","medium","True","False",262,6450,NA
"A1P47Q6LZPLQ6P","Mon Sep 14 2020 08:40:50 GMT-0400 (Eastern Daylight Time)","Mon Sep 14 2020 08:46:36 GMT-0400 (Eastern Daylight Time)","Mozilla/5.0 (Windows NT 10.0; Win64; x64; rv:80.0) Gecko/20100101 Firefox/80.0",136,"[0.9, 0.5, 0.1]","[0.8, 0.4, 0.2]","[u'blue', u'red', u'black']","[u'left', u'middle', u'right']","[0.8, 0.4, 0.2]","[u'low', u'medium', u'high']","red",50,"middle","medium","True","False",232,6550,NA
"A1P47Q6LZPLQ6P","Mon Sep 14 2020 08:40:50 GMT-0400 (Eastern Daylight Time)","Mon Sep 14 2020 08:46:36 GMT-0400 (Eastern Daylight Time)","Mozilla/5.0 (Windows NT 10.0; Win64; x64; rv:80.0) Gecko/20100101 Firefox/80.0",137,"[0.9, 0.5, 0.1]","[0.8, 0.4, 0.2]","[u'blue', u'red', u'black']","[u'left', u'middle', u'right']","[0.8, 0.4, 0.2]","[u'low', u'medium', u'high']","red",50,"middle","medium","False","False",147,6500,NA
"A1P47Q6LZPLQ6P","Mon Sep 14 2020 08:40:50 GMT-0400 (Eastern Daylight Time)","Mon Sep 14 2020 08:46:36 GMT-0400 (Eastern Daylight Time)","Mozilla/5.0 (Windows NT 10.0; Win64; x64; rv:80.0) Gecko/20100101 Firefox/80.0",138,"[0.9, 0.5, 0.1]","[0.8, 0.4, 0.2]","[u'blue', u'red', u'black']","[u'left', u'middle', u'right']","[0.8, 0.4, 0.2]","[u'low', u'medium', u'high']","red",50,"middle","medium","True","False",202,6600,NA
"A1P47Q6LZPLQ6P","Mon Sep 14 2020 08:40:50 GMT-0400 (Eastern Daylight Time)","Mon Sep 14 2020 08:46:36 GMT-0400 (Eastern Daylight Time)","Mozilla/5.0 (Windows NT 10.0; Win64; x64; rv:80.0) Gecko/20100101 Firefox/80.0",139,"[0.9, 0.5, 0.1]","[0.8, 0.4, 0.2]","[u'blue', u'red', u'black']","[u'left', u'middle', u'right']","[0.8, 0.4, 0.2]","[u'low', u'medium', u'high']","red",50,"middle","medium","True","False",229,6700,NA
"A1P47Q6LZPLQ6P","Mon Sep 14 2020 08:40:50 GMT-0400 (Eastern Daylight Time)","Mon Sep 14 2020 08:46:36 GMT-0400 (Eastern Daylight Time)","Mozilla/5.0 (Windows NT 10.0; Win64; x64; rv:80.0) Gecko/20100101 Firefox/80.0",140,"[0.9, 0.5, 0.1]","[0.8, 0.4, 0.2]","[u'blue', u'red', u'black']","[u'left', u'middle', u'right']","[0.8, 0.4, 0.2]","[u'low', u'medium', u'high']","red",50,"middle","medium","False","False",103,6650,NA
"A1P47Q6LZPLQ6P","Mon Sep 14 2020 08:40:50 GMT-0400 (Eastern Daylight Time)","Mon Sep 14 2020 08:46:36 GMT-0400 (Eastern Daylight Time)","Mozilla/5.0 (Windows NT 10.0; Win64; x64; rv:80.0) Gecko/20100101 Firefox/80.0",141,"[0.9, 0.5, 0.1]","[0.8, 0.4, 0.2]","[u'blue', u'red', u'black']","[u'left', u'middle', u'right']","[0.8, 0.4, 0.2]","[u'low', u'medium', u'high']","red",50,"middle","medium","False","False",204,6600,NA
"A1P47Q6LZPLQ6P","Mon Sep 14 2020 08:40:50 GMT-0400 (Eastern Daylight Time)","Mon Sep 14 2020 08:46:36 GMT-0400 (Eastern Daylight Time)","Mozilla/5.0 (Windows NT 10.0; Win64; x64; rv:80.0) Gecko/20100101 Firefox/80.0",142,"[0.9, 0.5, 0.1]","[0.8, 0.4, 0.2]","[u'blue', u'red', u'black']","[u'left', u'middle', u'right']","[0.8, 0.4, 0.2]","[u'low', u'medium', u'high']","black",51,"right","high","True","False",97,6700,NA
"A1P47Q6LZPLQ6P","Mon Sep 14 2020 08:40:50 GMT-0400 (Eastern Daylight Time)","Mon Sep 14 2020 08:46:36 GMT-0400 (Eastern Daylight Time)","Mozilla/5.0 (Windows NT 10.0; Win64; x64; rv:80.0) Gecko/20100101 Firefox/80.0",143,"[0.9, 0.5, 0.1]","[0.8, 0.4, 0.2]","[u'blue', u'red', u'black']","[u'left', u'middle', u'right']","[0.8, 0.4, 0.2]","[u'low', u'medium', u'high']","black",51,"right","high","True","False",241,6800,NA
"A1P47Q6LZPLQ6P","Mon Sep 14 2020 08:40:50 GMT-0400 (Eastern Daylight Time)","Mon Sep 14 2020 08:46:36 GMT-0400 (Eastern Daylight Time)","Mozilla/5.0 (Windows NT 10.0; Win64; x64; rv:80.0) Gecko/20100101 Firefox/80.0",144,"[0.9, 0.5, 0.1]","[0.8, 0.4, 0.2]","[u'blue', u'red', u'black']","[u'left', u'middle', u'right']","[0.8, 0.4, 0.2]","[u'low', u'medium', u'high']","black",51,"right","high","True","False",237,6900,NA
"A1P47Q6LZPLQ6P","Mon Sep 14 2020 08:40:50 GMT-0400 (Eastern Daylight Time)","Mon Sep 14 2020 08:46:36 GMT-0400 (Eastern Daylight Time)","Mozilla/5.0 (Windows NT 10.0; Win64; x64; rv:80.0) Gecko/20100101 Firefox/80.0",145,"[0.9, 0.5, 0.1]","[0.8, 0.4, 0.2]","[u'blue', u'red', u'black']","[u'left', u'middle', u'right']","[0.8, 0.4, 0.2]","[u'low', u'medium', u'high']","black",51,"right","high","True","False",243,7000,NA
"A1P47Q6LZPLQ6P","Mon Sep 14 2020 08:40:50 GMT-0400 (Eastern Daylight Time)","Mon Sep 14 2020 08:46:36 GMT-0400 (Eastern Daylight Time)","Mozilla/5.0 (Windows NT 10.0; Win64; x64; rv:80.0) Gecko/20100101 Firefox/80.0",146,"[0.9, 0.5, 0.1]","[0.8, 0.4, 0.2]","[u'blue', u'red', u'black']","[u'left', u'middle', u'right']","[0.8, 0.4, 0.2]","[u'low', u'medium', u'high']","black",51,"right","high","True","False",171,7100,NA
"A1P47Q6LZPLQ6P","Mon Sep 14 2020 08:40:50 GMT-0400 (Eastern Daylight Time)","Mon Sep 14 2020 08:46:36 GMT-0400 (Eastern Daylight Time)","Mozilla/5.0 (Windows NT 10.0; Win64; x64; rv:80.0) Gecko/20100101 Firefox/80.0",147,"[0.9, 0.5, 0.1]","[0.8, 0.4, 0.2]","[u'blue', u'red', u'black']","[u'left', u'middle', u'right']","[0.8, 0.4, 0.2]","[u'low', u'medium', u'high']","black",51,"right","high","False","False",227,7050,NA
"A1P47Q6LZPLQ6P","Mon Sep 14 2020 08:40:50 GMT-0400 (Eastern Daylight Time)","Mon Sep 14 2020 08:46:36 GMT-0400 (Eastern Daylight Time)","Mozilla/5.0 (Windows NT 10.0; Win64; x64; rv:80.0) Gecko/20100101 Firefox/80.0",148,"[0.9, 0.5, 0.1]","[0.8, 0.4, 0.2]","[u'blue', u'red', u'black']","[u'left', u'middle', u'right']","[0.8, 0.4, 0.2]","[u'low', u'medium', u'high']","black",51,"right","high","True","False",221,7150,NA
"A1P47Q6LZPLQ6P","Mon Sep 14 2020 08:40:50 GMT-0400 (Eastern Daylight Time)","Mon Sep 14 2020 08:46:36 GMT-0400 (Eastern Daylight Time)","Mozilla/5.0 (Windows NT 10.0; Win64; x64; rv:80.0) Gecko/20100101 Firefox/80.0",149,"[0.9, 0.5, 0.1]","[0.8, 0.4, 0.2]","[u'blue', u'red', u'black']","[u'left', u'middle', u'right']","[0.8, 0.4, 0.2]","[u'low', u'medium', u'high']","black",51,"right","high","False","False",219,7100,NA
"A1P47Q6LZPLQ6P","Mon Sep 14 2020 08:40:50 GMT-0400 (Eastern Daylight Time)","Mon Sep 14 2020 08:46:36 GMT-0400 (Eastern Daylight Time)","Mozilla/5.0 (Windows NT 10.0; Win64; x64; rv:80.0) Gecko/20100101 Firefox/80.0",150,"[0.9, 0.5, 0.1]","[0.8, 0.4, 0.2]","[u'blue', u'red', u'black']","[u'left', u'middle', u'right']","[0.8, 0.4, 0.2]","[u'low', u'medium', u'high']","black",51,"right","high","True","True",212,7200,NA
"A1P47Q6LZPLQ6P","Mon Sep 14 2020 08:40:50 GMT-0400 (Eastern Daylight Time)","Mon Sep 14 2020 08:46:36 GMT-0400 (Eastern Daylight Time)","Mozilla/5.0 (Windows NT 10.0; Win64; x64; rv:80.0) Gecko/20100101 Firefox/80.0",151,"[0.9, 0.5, 0.1]","[0.8, 0.4, 0.2]","[u'blue', u'red', u'black']","[u'left', u'middle', u'right']","[0.8, 0.4, 0.2]","[u'low', u'high', u'medium']","black",51,"right","medium","True","False",247,7300,NA
"A1P47Q6LZPLQ6P","Mon Sep 14 2020 08:40:50 GMT-0400 (Eastern Daylight Time)","Mon Sep 14 2020 08:46:36 GMT-0400 (Eastern Daylight Time)","Mozilla/5.0 (Windows NT 10.0; Win64; x64; rv:80.0) Gecko/20100101 Firefox/80.0",152,"[0.9, 0.5, 0.1]","[0.8, 0.4, 0.2]","[u'blue', u'red', u'black']","[u'left', u'middle', u'right']","[0.8, 0.4, 0.2]","[u'low', u'high', u'medium']","black",51,"right","medium","True","False",240,7400,NA
"A1P47Q6LZPLQ6P","Mon Sep 14 2020 08:40:50 GMT-0400 (Eastern Daylight Time)","Mon Sep 14 2020 08:46:36 GMT-0400 (Eastern Daylight Time)","Mozilla/5.0 (Windows NT 10.0; Win64; x64; rv:80.0) Gecko/20100101 Firefox/80.0",153,"[0.9, 0.5, 0.1]","[0.8, 0.4, 0.2]","[u'blue', u'red', u'black']","[u'left', u'middle', u'right']","[0.8, 0.4, 0.2]","[u'low', u'high', u'medium']","black",51,"right","medium","False","False",229,7350,NA
"A1P47Q6LZPLQ6P","Mon Sep 14 2020 08:40:50 GMT-0400 (Eastern Daylight Time)","Mon Sep 14 2020 08:46:36 GMT-0400 (Eastern Daylight Time)","Mozilla/5.0 (Windows NT 10.0; Win64; x64; rv:80.0) Gecko/20100101 Firefox/80.0",154,"[0.9, 0.5, 0.1]","[0.8, 0.4, 0.2]","[u'blue', u'red', u'black']","[u'left', u'middle', u'right']","[0.8, 0.4, 0.2]","[u'low', u'high', u'medium']","black",51,"right","medium","False","False",216,7300,NA
"A1P47Q6LZPLQ6P","Mon Sep 14 2020 08:40:50 GMT-0400 (Eastern Daylight Time)","Mon Sep 14 2020 08:46:36 GMT-0400 (Eastern Daylight Time)","Mozilla/5.0 (Windows NT 10.0; Win64; x64; rv:80.0) Gecko/20100101 Firefox/80.0",155,"[0.9, 0.5, 0.1]","[0.8, 0.4, 0.2]","[u'blue', u'red', u'black']","[u'left', u'middle', u'right']","[0.8, 0.4, 0.2]","[u'low', u'high', u'medium']","blue",49,"left","low","False","False",185,7250,NA
"A1P47Q6LZPLQ6P","Mon Sep 14 2020 08:40:50 GMT-0400 (Eastern Daylight Time)","Mon Sep 14 2020 08:46:36 GMT-0400 (Eastern Daylight Time)","Mozilla/5.0 (Windows NT 10.0; Win64; x64; rv:80.0) Gecko/20100101 Firefox/80.0",156,"[0.9, 0.5, 0.1]","[0.8, 0.4, 0.2]","[u'blue', u'red', u'black']","[u'left', u'middle', u'right']","[0.8, 0.4, 0.2]","[u'low', u'high', u'medium']","blue",49,"left","low","False","False",231,7200,NA
"A1P47Q6LZPLQ6P","Mon Sep 14 2020 08:40:50 GMT-0400 (Eastern Daylight Time)","Mon Sep 14 2020 08:46:36 GMT-0400 (Eastern Daylight Time)","Mozilla/5.0 (Windows NT 10.0; Win64; x64; rv:80.0) Gecko/20100101 Firefox/80.0",157,"[0.9, 0.5, 0.1]","[0.8, 0.4, 0.2]","[u'blue', u'red', u'black']","[u'left', u'middle', u'right']","[0.8, 0.4, 0.2]","[u'low', u'high', u'medium']","red",50,"middle","high","False","False",148,7150,NA
"A1P47Q6LZPLQ6P","Mon Sep 14 2020 08:40:50 GMT-0400 (Eastern Daylight Time)","Mon Sep 14 2020 08:46:36 GMT-0400 (Eastern Daylight Time)","Mozilla/5.0 (Windows NT 10.0; Win64; x64; rv:80.0) Gecko/20100101 Firefox/80.0",158,"[0.9, 0.5, 0.1]","[0.8, 0.4, 0.2]","[u'blue', u'red', u'black']","[u'left', u'middle', u'right']","[0.8, 0.4, 0.2]","[u'low', u'high', u'medium']","red",50,"middle","high","True","False",252,7250,NA
"A1P47Q6LZPLQ6P","Mon Sep 14 2020 08:40:50 GMT-0400 (Eastern Daylight Time)","Mon Sep 14 2020 08:46:36 GMT-0400 (Eastern Daylight Time)","Mozilla/5.0 (Windows NT 10.0; Win64; x64; rv:80.0) Gecko/20100101 Firefox/80.0",159,"[0.9, 0.5, 0.1]","[0.8, 0.4, 0.2]","[u'blue', u'red', u'black']","[u'left', u'middle', u'right']","[0.8, 0.4, 0.2]","[u'low', u'high', u'medium']","red",50,"middle","high","True","False",208,7350,NA
"A1P47Q6LZPLQ6P","Mon Sep 14 2020 08:40:50 GMT-0400 (Eastern Daylight Time)","Mon Sep 14 2020 08:46:36 GMT-0400 (Eastern Daylight Time)","Mozilla/5.0 (Windows NT 10.0; Win64; x64; rv:80.0) Gecko/20100101 Firefox/80.0",160,"[0.9, 0.5, 0.1]","[0.8, 0.4, 0.2]","[u'blue', u'red', u'black']","[u'left', u'middle', u'right']","[0.8, 0.4, 0.2]","[u'low', u'high', u'medium']","red",50,"middle","high","True","False",232,7450,NA
