"src_subject_id","start_time","end_time","browser","index","first_half_probabilities","second_half_probabilities","deck_color","deck_position","deck_probabilities","deck_contingencies","response_color","key_press","response_position","response_probability","reward_type","trial_type","rt","reward_tally","exclusion_reason"
"A28AXX4NCWPH1F","Sun Sep 13 2020 12:48:10 GMT-0400 (Eastern Daylight Time)","Sun Sep 13 2020 13:05:09 GMT-0400 (Eastern Daylight Time)","Mozilla/5.0 (Windows NT 10.0; Win64; x64) AppleWebKit/537.36 (KHTML, like Gecko) Chrome/85.0.4183.102 Safari/537.36",1,"[0.9, 0.5, 0.1]","[0.8, 0.4, 0.2]","[u'red', u'blue', u'black']","[u'left', u'middle', u'right']","[0.9, 0.5, 0.1]","[u'high', u'medium', u'low']","red",49,"left","high","True","False",1191,100,NA
"A28AXX4NCWPH1F","Sun Sep 13 2020 12:48:10 GMT-0400 (Eastern Daylight Time)","Sun Sep 13 2020 13:05:09 GMT-0400 (Eastern Daylight Time)","Mozilla/5.0 (Windows NT 10.0; Win64; x64) AppleWebKit/537.36 (KHTML, like Gecko) Chrome/85.0.4183.102 Safari/537.36",2,"[0.9, 0.5, 0.1]","[0.8, 0.4, 0.2]","[u'red', u'blue', u'black']","[u'left', u'middle', u'right']","[0.9, 0.5, 0.1]","[u'high', u'medium', u'low']","blue",50,"middle","medium","True","False",460,200,NA
"A28AXX4NCWPH1F","Sun Sep 13 2020 12:48:10 GMT-0400 (Eastern Daylight Time)","Sun Sep 13 2020 13:05:09 GMT-0400 (Eastern Daylight Time)","Mozilla/5.0 (Windows NT 10.0; Win64; x64) AppleWebKit/537.36 (KHTML, like Gecko) Chrome/85.0.4183.102 Safari/537.36",3,"[0.9, 0.5, 0.1]","[0.8, 0.4, 0.2]","[u'red', u'blue', u'black']","[u'left', u'middle', u'right']","[0.9, 0.5, 0.1]","[u'high', u'medium', u'low']","black",51,"right","low","False","False",296,150,NA
"A28AXX4NCWPH1F","Sun Sep 13 2020 12:48:10 GMT-0400 (Eastern Daylight Time)","Sun Sep 13 2020 13:05:09 GMT-0400 (Eastern Daylight Time)","Mozilla/5.0 (Windows NT 10.0; Win64; x64) AppleWebKit/537.36 (KHTML, like Gecko) Chrome/85.0.4183.102 Safari/537.36",4,"[0.9, 0.5, 0.1]","[0.8, 0.4, 0.2]","[u'red', u'blue', u'black']","[u'left', u'middle', u'right']","[0.9, 0.5, 0.1]","[u'high', u'medium', u'low']","blue",50,"middle","medium","True","False",224,250,NA
"A28AXX4NCWPH1F","Sun Sep 13 2020 12:48:10 GMT-0400 (Eastern Daylight Time)","Sun Sep 13 2020 13:05:09 GMT-0400 (Eastern Daylight Time)","Mozilla/5.0 (Windows NT 10.0; Win64; x64) AppleWebKit/537.36 (KHTML, like Gecko) Chrome/85.0.4183.102 Safari/537.36",5,"[0.9, 0.5, 0.1]","[0.8, 0.4, 0.2]","[u'red', u'blue', u'black']","[u'left', u'middle', u'right']","[0.9, 0.5, 0.1]","[u'high', u'medium', u'low']","red",49,"left","high","True","False",229,350,NA
"A28AXX4NCWPH1F","Sun Sep 13 2020 12:48:10 GMT-0400 (Eastern Daylight Time)","Sun Sep 13 2020 13:05:09 GMT-0400 (Eastern Daylight Time)","Mozilla/5.0 (Windows NT 10.0; Win64; x64) AppleWebKit/537.36 (KHTML, like Gecko) Chrome/85.0.4183.102 Safari/537.36",6,"[0.9, 0.5, 0.1]","[0.8, 0.4, 0.2]","[u'red', u'blue', u'black']","[u'left', u'middle', u'right']","[0.9, 0.5, 0.1]","[u'high', u'medium', u'low']","red",49,"left","high","True","False",213,450,NA
"A28AXX4NCWPH1F","Sun Sep 13 2020 12:48:10 GMT-0400 (Eastern Daylight Time)","Sun Sep 13 2020 13:05:09 GMT-0400 (Eastern Daylight Time)","Mozilla/5.0 (Windows NT 10.0; Win64; x64) AppleWebKit/537.36 (KHTML, like Gecko) Chrome/85.0.4183.102 Safari/537.36",7,"[0.9, 0.5, 0.1]","[0.8, 0.4, 0.2]","[u'red', u'blue', u'black']","[u'left', u'middle', u'right']","[0.9, 0.5, 0.1]","[u'high', u'medium', u'low']","red",49,"left","high","True","False",209,550,NA
"A28AXX4NCWPH1F","Sun Sep 13 2020 12:48:10 GMT-0400 (Eastern Daylight Time)","Sun Sep 13 2020 13:05:09 GMT-0400 (Eastern Daylight Time)","Mozilla/5.0 (Windows NT 10.0; Win64; x64) AppleWebKit/537.36 (KHTML, like Gecko) Chrome/85.0.4183.102 Safari/537.36",8,"[0.9, 0.5, 0.1]","[0.8, 0.4, 0.2]","[u'red', u'blue', u'black']","[u'left', u'middle', u'right']","[0.9, 0.5, 0.1]","[u'high', u'medium', u'low']","red",49,"left","high","True","False",199,650,NA
"A28AXX4NCWPH1F","Sun Sep 13 2020 12:48:10 GMT-0400 (Eastern Daylight Time)","Sun Sep 13 2020 13:05:09 GMT-0400 (Eastern Daylight Time)","Mozilla/5.0 (Windows NT 10.0; Win64; x64) AppleWebKit/537.36 (KHTML, like Gecko) Chrome/85.0.4183.102 Safari/537.36",9,"[0.9, 0.5, 0.1]","[0.8, 0.4, 0.2]","[u'red', u'blue', u'black']","[u'left', u'middle', u'right']","[0.9, 0.5, 0.1]","[u'high', u'medium', u'low']","red",49,"left","high","True","False",198,750,NA
"A28AXX4NCWPH1F","Sun Sep 13 2020 12:48:10 GMT-0400 (Eastern Daylight Time)","Sun Sep 13 2020 13:05:09 GMT-0400 (Eastern Daylight Time)","Mozilla/5.0 (Windows NT 10.0; Win64; x64) AppleWebKit/537.36 (KHTML, like Gecko) Chrome/85.0.4183.102 Safari/537.36",10,"[0.9, 0.5, 0.1]","[0.8, 0.4, 0.2]","[u'red', u'blue', u'black']","[u'left', u'middle', u'right']","[0.9, 0.5, 0.1]","[u'high', u'medium', u'low']","red",49,"left","high","False","False",223,700,NA
"A28AXX4NCWPH1F","Sun Sep 13 2020 12:48:10 GMT-0400 (Eastern Daylight Time)","Sun Sep 13 2020 13:05:09 GMT-0400 (Eastern Daylight Time)","Mozilla/5.0 (Windows NT 10.0; Win64; x64) AppleWebKit/537.36 (KHTML, like Gecko) Chrome/85.0.4183.102 Safari/537.36",11,"[0.9, 0.5, 0.1]","[0.8, 0.4, 0.2]","[u'red', u'blue', u'black']","[u'left', u'middle', u'right']","[0.9, 0.5, 0.1]","[u'high', u'medium', u'low']","blue",50,"middle","medium","True","False",200,800,NA
"A28AXX4NCWPH1F","Sun Sep 13 2020 12:48:10 GMT-0400 (Eastern Daylight Time)","Sun Sep 13 2020 13:05:09 GMT-0400 (Eastern Daylight Time)","Mozilla/5.0 (Windows NT 10.0; Win64; x64) AppleWebKit/537.36 (KHTML, like Gecko) Chrome/85.0.4183.102 Safari/537.36",12,"[0.9, 0.5, 0.1]","[0.8, 0.4, 0.2]","[u'red', u'blue', u'black']","[u'left', u'middle', u'right']","[0.9, 0.5, 0.1]","[u'high', u'medium', u'low']","blue",50,"middle","medium","True","False",237,900,NA
"A28AXX4NCWPH1F","Sun Sep 13 2020 12:48:10 GMT-0400 (Eastern Daylight Time)","Sun Sep 13 2020 13:05:09 GMT-0400 (Eastern Daylight Time)","Mozilla/5.0 (Windows NT 10.0; Win64; x64) AppleWebKit/537.36 (KHTML, like Gecko) Chrome/85.0.4183.102 Safari/537.36",13,"[0.9, 0.5, 0.1]","[0.8, 0.4, 0.2]","[u'red', u'blue', u'black']","[u'left', u'middle', u'right']","[0.9, 0.5, 0.1]","[u'high', u'medium', u'low']","blue",50,"middle","medium","False","False",76,850,NA
"A28AXX4NCWPH1F","Sun Sep 13 2020 12:48:10 GMT-0400 (Eastern Daylight Time)","Sun Sep 13 2020 13:05:09 GMT-0400 (Eastern Daylight Time)","Mozilla/5.0 (Windows NT 10.0; Win64; x64) AppleWebKit/537.36 (KHTML, like Gecko) Chrome/85.0.4183.102 Safari/537.36",14,"[0.9, 0.5, 0.1]","[0.8, 0.4, 0.2]","[u'red', u'blue', u'black']","[u'left', u'middle', u'right']","[0.9, 0.5, 0.1]","[u'high', u'medium', u'low']","red",49,"left","high","True","False",220,950,NA
"A28AXX4NCWPH1F","Sun Sep 13 2020 12:48:10 GMT-0400 (Eastern Daylight Time)","Sun Sep 13 2020 13:05:09 GMT-0400 (Eastern Daylight Time)","Mozilla/5.0 (Windows NT 10.0; Win64; x64) AppleWebKit/537.36 (KHTML, like Gecko) Chrome/85.0.4183.102 Safari/537.36",15,"[0.9, 0.5, 0.1]","[0.8, 0.4, 0.2]","[u'red', u'blue', u'black']","[u'left', u'middle', u'right']","[0.9, 0.5, 0.1]","[u'high', u'medium', u'low']","red",49,"left","high","True","False",302,1050,NA
"A28AXX4NCWPH1F","Sun Sep 13 2020 12:48:10 GMT-0400 (Eastern Daylight Time)","Sun Sep 13 2020 13:05:09 GMT-0400 (Eastern Daylight Time)","Mozilla/5.0 (Windows NT 10.0; Win64; x64) AppleWebKit/537.36 (KHTML, like Gecko) Chrome/85.0.4183.102 Safari/537.36",16,"[0.9, 0.5, 0.1]","[0.8, 0.4, 0.2]","[u'red', u'blue', u'black']","[u'left', u'middle', u'right']","[0.9, 0.5, 0.1]","[u'high', u'medium', u'low']","red",49,"left","high","True","False",377,1150,NA
"A28AXX4NCWPH1F","Sun Sep 13 2020 12:48:10 GMT-0400 (Eastern Daylight Time)","Sun Sep 13 2020 13:05:09 GMT-0400 (Eastern Daylight Time)","Mozilla/5.0 (Windows NT 10.0; Win64; x64) AppleWebKit/537.36 (KHTML, like Gecko) Chrome/85.0.4183.102 Safari/537.36",17,"[0.9, 0.5, 0.1]","[0.8, 0.4, 0.2]","[u'red', u'blue', u'black']","[u'left', u'middle', u'right']","[0.9, 0.5, 0.1]","[u'high', u'medium', u'low']","red",49,"left","high","True","False",208,1250,NA
"A28AXX4NCWPH1F","Sun Sep 13 2020 12:48:10 GMT-0400 (Eastern Daylight Time)","Sun Sep 13 2020 13:05:09 GMT-0400 (Eastern Daylight Time)","Mozilla/5.0 (Windows NT 10.0; Win64; x64) AppleWebKit/537.36 (KHTML, like Gecko) Chrome/85.0.4183.102 Safari/537.36",18,"[0.9, 0.5, 0.1]","[0.8, 0.4, 0.2]","[u'red', u'blue', u'black']","[u'left', u'middle', u'right']","[0.9, 0.5, 0.1]","[u'high', u'medium', u'low']","red",49,"left","high","True","False",490,1350,NA
"A28AXX4NCWPH1F","Sun Sep 13 2020 12:48:10 GMT-0400 (Eastern Daylight Time)","Sun Sep 13 2020 13:05:09 GMT-0400 (Eastern Daylight Time)","Mozilla/5.0 (Windows NT 10.0; Win64; x64) AppleWebKit/537.36 (KHTML, like Gecko) Chrome/85.0.4183.102 Safari/537.36",19,"[0.9, 0.5, 0.1]","[0.8, 0.4, 0.2]","[u'red', u'blue', u'black']","[u'left', u'middle', u'right']","[0.9, 0.5, 0.1]","[u'high', u'medium', u'low']","red",49,"left","high","True","False",265,1450,NA
"A28AXX4NCWPH1F","Sun Sep 13 2020 12:48:10 GMT-0400 (Eastern Daylight Time)","Sun Sep 13 2020 13:05:09 GMT-0400 (Eastern Daylight Time)","Mozilla/5.0 (Windows NT 10.0; Win64; x64) AppleWebKit/537.36 (KHTML, like Gecko) Chrome/85.0.4183.102 Safari/537.36",20,"[0.9, 0.5, 0.1]","[0.8, 0.4, 0.2]","[u'red', u'blue', u'black']","[u'left', u'middle', u'right']","[0.9, 0.5, 0.1]","[u'high', u'medium', u'low']","red",49,"left","high","True","False",781,1550,NA
"A28AXX4NCWPH1F","Sun Sep 13 2020 12:48:10 GMT-0400 (Eastern Daylight Time)","Sun Sep 13 2020 13:05:09 GMT-0400 (Eastern Daylight Time)","Mozilla/5.0 (Windows NT 10.0; Win64; x64) AppleWebKit/537.36 (KHTML, like Gecko) Chrome/85.0.4183.102 Safari/537.36",21,"[0.9, 0.5, 0.1]","[0.8, 0.4, 0.2]","[u'red', u'blue', u'black']","[u'left', u'middle', u'right']","[0.9, 0.5, 0.1]","[u'high', u'medium', u'low']","red",49,"left","high","True","False",240,1650,NA
"A28AXX4NCWPH1F","Sun Sep 13 2020 12:48:10 GMT-0400 (Eastern Daylight Time)","Sun Sep 13 2020 13:05:09 GMT-0400 (Eastern Daylight Time)","Mozilla/5.0 (Windows NT 10.0; Win64; x64) AppleWebKit/537.36 (KHTML, like Gecko) Chrome/85.0.4183.102 Safari/537.36",22,"[0.9, 0.5, 0.1]","[0.8, 0.4, 0.2]","[u'red', u'blue', u'black']","[u'left', u'middle', u'right']","[0.9, 0.5, 0.1]","[u'high', u'medium', u'low']","red",49,"left","high","True","True",219,1750,NA
"A28AXX4NCWPH1F","Sun Sep 13 2020 12:48:10 GMT-0400 (Eastern Daylight Time)","Sun Sep 13 2020 13:05:09 GMT-0400 (Eastern Daylight Time)","Mozilla/5.0 (Windows NT 10.0; Win64; x64) AppleWebKit/537.36 (KHTML, like Gecko) Chrome/85.0.4183.102 Safari/537.36",23,"[0.9, 0.5, 0.1]","[0.8, 0.4, 0.2]","[u'red', u'blue', u'black']","[u'left', u'middle', u'right']","[0.9, 0.5, 0.1]","[u'medium', u'low', u'high']","red",49,"left","medium","False","False",188,1700,NA
"A28AXX4NCWPH1F","Sun Sep 13 2020 12:48:10 GMT-0400 (Eastern Daylight Time)","Sun Sep 13 2020 13:05:09 GMT-0400 (Eastern Daylight Time)","Mozilla/5.0 (Windows NT 10.0; Win64; x64) AppleWebKit/537.36 (KHTML, like Gecko) Chrome/85.0.4183.102 Safari/537.36",24,"[0.9, 0.5, 0.1]","[0.8, 0.4, 0.2]","[u'red', u'blue', u'black']","[u'left', u'middle', u'right']","[0.9, 0.5, 0.1]","[u'medium', u'low', u'high']","blue",50,"middle","low","False","False",248,1650,NA
"A28AXX4NCWPH1F","Sun Sep 13 2020 12:48:10 GMT-0400 (Eastern Daylight Time)","Sun Sep 13 2020 13:05:09 GMT-0400 (Eastern Daylight Time)","Mozilla/5.0 (Windows NT 10.0; Win64; x64) AppleWebKit/537.36 (KHTML, like Gecko) Chrome/85.0.4183.102 Safari/537.36",25,"[0.9, 0.5, 0.1]","[0.8, 0.4, 0.2]","[u'red', u'blue', u'black']","[u'left', u'middle', u'right']","[0.9, 0.5, 0.1]","[u'medium', u'low', u'high']","red",49,"left","medium","True","False",165,1750,NA
"A28AXX4NCWPH1F","Sun Sep 13 2020 12:48:10 GMT-0400 (Eastern Daylight Time)","Sun Sep 13 2020 13:05:09 GMT-0400 (Eastern Daylight Time)","Mozilla/5.0 (Windows NT 10.0; Win64; x64) AppleWebKit/537.36 (KHTML, like Gecko) Chrome/85.0.4183.102 Safari/537.36",26,"[0.9, 0.5, 0.1]","[0.8, 0.4, 0.2]","[u'red', u'blue', u'black']","[u'left', u'middle', u'right']","[0.9, 0.5, 0.1]","[u'medium', u'low', u'high']","red",49,"left","medium","False","False",289,1700,NA
"A28AXX4NCWPH1F","Sun Sep 13 2020 12:48:10 GMT-0400 (Eastern Daylight Time)","Sun Sep 13 2020 13:05:09 GMT-0400 (Eastern Daylight Time)","Mozilla/5.0 (Windows NT 10.0; Win64; x64) AppleWebKit/537.36 (KHTML, like Gecko) Chrome/85.0.4183.102 Safari/537.36",27,"[0.9, 0.5, 0.1]","[0.8, 0.4, 0.2]","[u'red', u'blue', u'black']","[u'left', u'middle', u'right']","[0.9, 0.5, 0.1]","[u'medium', u'low', u'high']","red",49,"left","medium","False","False",255,1650,NA
"A28AXX4NCWPH1F","Sun Sep 13 2020 12:48:10 GMT-0400 (Eastern Daylight Time)","Sun Sep 13 2020 13:05:09 GMT-0400 (Eastern Daylight Time)","Mozilla/5.0 (Windows NT 10.0; Win64; x64) AppleWebKit/537.36 (KHTML, like Gecko) Chrome/85.0.4183.102 Safari/537.36",28,"[0.9, 0.5, 0.1]","[0.8, 0.4, 0.2]","[u'red', u'blue', u'black']","[u'left', u'middle', u'right']","[0.9, 0.5, 0.1]","[u'medium', u'low', u'high']","blue",50,"middle","low","False","False",227,1600,NA
"A28AXX4NCWPH1F","Sun Sep 13 2020 12:48:10 GMT-0400 (Eastern Daylight Time)","Sun Sep 13 2020 13:05:09 GMT-0400 (Eastern Daylight Time)","Mozilla/5.0 (Windows NT 10.0; Win64; x64) AppleWebKit/537.36 (KHTML, like Gecko) Chrome/85.0.4183.102 Safari/537.36",29,"[0.9, 0.5, 0.1]","[0.8, 0.4, 0.2]","[u'red', u'blue', u'black']","[u'left', u'middle', u'right']","[0.9, 0.5, 0.1]","[u'medium', u'low', u'high']","red",49,"left","medium","False","False",280,1550,NA
"A28AXX4NCWPH1F","Sun Sep 13 2020 12:48:10 GMT-0400 (Eastern Daylight Time)","Sun Sep 13 2020 13:05:09 GMT-0400 (Eastern Daylight Time)","Mozilla/5.0 (Windows NT 10.0; Win64; x64) AppleWebKit/537.36 (KHTML, like Gecko) Chrome/85.0.4183.102 Safari/537.36",30,"[0.9, 0.5, 0.1]","[0.8, 0.4, 0.2]","[u'red', u'blue', u'black']","[u'left', u'middle', u'right']","[0.9, 0.5, 0.1]","[u'medium', u'low', u'high']","blue",50,"middle","low","False","False",393,1500,NA
"A28AXX4NCWPH1F","Sun Sep 13 2020 12:48:10 GMT-0400 (Eastern Daylight Time)","Sun Sep 13 2020 13:05:09 GMT-0400 (Eastern Daylight Time)","Mozilla/5.0 (Windows NT 10.0; Win64; x64) AppleWebKit/537.36 (KHTML, like Gecko) Chrome/85.0.4183.102 Safari/537.36",31,"[0.9, 0.5, 0.1]","[0.8, 0.4, 0.2]","[u'red', u'blue', u'black']","[u'left', u'middle', u'right']","[0.9, 0.5, 0.1]","[u'medium', u'low', u'high']","black",51,"right","high","True","False",140,1600,NA
"A28AXX4NCWPH1F","Sun Sep 13 2020 12:48:10 GMT-0400 (Eastern Daylight Time)","Sun Sep 13 2020 13:05:09 GMT-0400 (Eastern Daylight Time)","Mozilla/5.0 (Windows NT 10.0; Win64; x64) AppleWebKit/537.36 (KHTML, like Gecko) Chrome/85.0.4183.102 Safari/537.36",32,"[0.9, 0.5, 0.1]","[0.8, 0.4, 0.2]","[u'red', u'blue', u'black']","[u'left', u'middle', u'right']","[0.9, 0.5, 0.1]","[u'medium', u'low', u'high']","black",51,"right","high","True","False",271,1700,NA
"A28AXX4NCWPH1F","Sun Sep 13 2020 12:48:10 GMT-0400 (Eastern Daylight Time)","Sun Sep 13 2020 13:05:09 GMT-0400 (Eastern Daylight Time)","Mozilla/5.0 (Windows NT 10.0; Win64; x64) AppleWebKit/537.36 (KHTML, like Gecko) Chrome/85.0.4183.102 Safari/537.36",33,"[0.9, 0.5, 0.1]","[0.8, 0.4, 0.2]","[u'red', u'blue', u'black']","[u'left', u'middle', u'right']","[0.9, 0.5, 0.1]","[u'medium', u'low', u'high']","black",51,"right","high","True","False",131,1800,NA
"A28AXX4NCWPH1F","Sun Sep 13 2020 12:48:10 GMT-0400 (Eastern Daylight Time)","Sun Sep 13 2020 13:05:09 GMT-0400 (Eastern Daylight Time)","Mozilla/5.0 (Windows NT 10.0; Win64; x64) AppleWebKit/537.36 (KHTML, like Gecko) Chrome/85.0.4183.102 Safari/537.36",34,"[0.9, 0.5, 0.1]","[0.8, 0.4, 0.2]","[u'red', u'blue', u'black']","[u'left', u'middle', u'right']","[0.9, 0.5, 0.1]","[u'medium', u'low', u'high']","black",51,"right","high","True","False",268,1900,NA
"A28AXX4NCWPH1F","Sun Sep 13 2020 12:48:10 GMT-0400 (Eastern Daylight Time)","Sun Sep 13 2020 13:05:09 GMT-0400 (Eastern Daylight Time)","Mozilla/5.0 (Windows NT 10.0; Win64; x64) AppleWebKit/537.36 (KHTML, like Gecko) Chrome/85.0.4183.102 Safari/537.36",35,"[0.9, 0.5, 0.1]","[0.8, 0.4, 0.2]","[u'red', u'blue', u'black']","[u'left', u'middle', u'right']","[0.9, 0.5, 0.1]","[u'medium', u'low', u'high']","black",51,"right","high","True","False",186,2000,NA
"A28AXX4NCWPH1F","Sun Sep 13 2020 12:48:10 GMT-0400 (Eastern Daylight Time)","Sun Sep 13 2020 13:05:09 GMT-0400 (Eastern Daylight Time)","Mozilla/5.0 (Windows NT 10.0; Win64; x64) AppleWebKit/537.36 (KHTML, like Gecko) Chrome/85.0.4183.102 Safari/537.36",36,"[0.9, 0.5, 0.1]","[0.8, 0.4, 0.2]","[u'red', u'blue', u'black']","[u'left', u'middle', u'right']","[0.9, 0.5, 0.1]","[u'medium', u'low', u'high']","black",51,"right","high","True","False",222,2100,NA
"A28AXX4NCWPH1F","Sun Sep 13 2020 12:48:10 GMT-0400 (Eastern Daylight Time)","Sun Sep 13 2020 13:05:09 GMT-0400 (Eastern Daylight Time)","Mozilla/5.0 (Windows NT 10.0; Win64; x64) AppleWebKit/537.36 (KHTML, like Gecko) Chrome/85.0.4183.102 Safari/537.36",37,"[0.9, 0.5, 0.1]","[0.8, 0.4, 0.2]","[u'red', u'blue', u'black']","[u'left', u'middle', u'right']","[0.9, 0.5, 0.1]","[u'medium', u'low', u'high']","black",51,"right","high","True","False",197,2200,NA
"A28AXX4NCWPH1F","Sun Sep 13 2020 12:48:10 GMT-0400 (Eastern Daylight Time)","Sun Sep 13 2020 13:05:09 GMT-0400 (Eastern Daylight Time)","Mozilla/5.0 (Windows NT 10.0; Win64; x64) AppleWebKit/537.36 (KHTML, like Gecko) Chrome/85.0.4183.102 Safari/537.36",38,"[0.9, 0.5, 0.1]","[0.8, 0.4, 0.2]","[u'red', u'blue', u'black']","[u'left', u'middle', u'right']","[0.9, 0.5, 0.1]","[u'medium', u'low', u'high']","black",51,"right","high","True","False",362,2300,NA
"A28AXX4NCWPH1F","Sun Sep 13 2020 12:48:10 GMT-0400 (Eastern Daylight Time)","Sun Sep 13 2020 13:05:09 GMT-0400 (Eastern Daylight Time)","Mozilla/5.0 (Windows NT 10.0; Win64; x64) AppleWebKit/537.36 (KHTML, like Gecko) Chrome/85.0.4183.102 Safari/537.36",39,"[0.9, 0.5, 0.1]","[0.8, 0.4, 0.2]","[u'red', u'blue', u'black']","[u'left', u'middle', u'right']","[0.9, 0.5, 0.1]","[u'medium', u'low', u'high']","black",51,"right","high","True","True",195,2400,NA
"A28AXX4NCWPH1F","Sun Sep 13 2020 12:48:10 GMT-0400 (Eastern Daylight Time)","Sun Sep 13 2020 13:05:09 GMT-0400 (Eastern Daylight Time)","Mozilla/5.0 (Windows NT 10.0; Win64; x64) AppleWebKit/537.36 (KHTML, like Gecko) Chrome/85.0.4183.102 Safari/537.36",40,"[0.9, 0.5, 0.1]","[0.8, 0.4, 0.2]","[u'red', u'blue', u'black']","[u'left', u'middle', u'right']","[0.9, 0.5, 0.1]","[u'low', u'high', u'medium']","black",51,"right","medium","False","False",80,2350,NA
"A28AXX4NCWPH1F","Sun Sep 13 2020 12:48:10 GMT-0400 (Eastern Daylight Time)","Sun Sep 13 2020 13:05:09 GMT-0400 (Eastern Daylight Time)","Mozilla/5.0 (Windows NT 10.0; Win64; x64) AppleWebKit/537.36 (KHTML, like Gecko) Chrome/85.0.4183.102 Safari/537.36",41,"[0.9, 0.5, 0.1]","[0.8, 0.4, 0.2]","[u'red', u'blue', u'black']","[u'left', u'middle', u'right']","[0.9, 0.5, 0.1]","[u'high', u'medium', u'low']","red",49,"left","high","True","False",343,2450,NA
"A28AXX4NCWPH1F","Sun Sep 13 2020 12:48:10 GMT-0400 (Eastern Daylight Time)","Sun Sep 13 2020 13:05:09 GMT-0400 (Eastern Daylight Time)","Mozilla/5.0 (Windows NT 10.0; Win64; x64) AppleWebKit/537.36 (KHTML, like Gecko) Chrome/85.0.4183.102 Safari/537.36",42,"[0.9, 0.5, 0.1]","[0.8, 0.4, 0.2]","[u'red', u'blue', u'black']","[u'left', u'middle', u'right']","[0.9, 0.5, 0.1]","[u'high', u'medium', u'low']","red",49,"left","high","True","False",189,2550,NA
"A28AXX4NCWPH1F","Sun Sep 13 2020 12:48:10 GMT-0400 (Eastern Daylight Time)","Sun Sep 13 2020 13:05:09 GMT-0400 (Eastern Daylight Time)","Mozilla/5.0 (Windows NT 10.0; Win64; x64) AppleWebKit/537.36 (KHTML, like Gecko) Chrome/85.0.4183.102 Safari/537.36",43,"[0.9, 0.5, 0.1]","[0.8, 0.4, 0.2]","[u'red', u'blue', u'black']","[u'left', u'middle', u'right']","[0.9, 0.5, 0.1]","[u'high', u'medium', u'low']","red",49,"left","high","True","False",184,2650,NA
"A28AXX4NCWPH1F","Sun Sep 13 2020 12:48:10 GMT-0400 (Eastern Daylight Time)","Sun Sep 13 2020 13:05:09 GMT-0400 (Eastern Daylight Time)","Mozilla/5.0 (Windows NT 10.0; Win64; x64) AppleWebKit/537.36 (KHTML, like Gecko) Chrome/85.0.4183.102 Safari/537.36",44,"[0.9, 0.5, 0.1]","[0.8, 0.4, 0.2]","[u'red', u'blue', u'black']","[u'left', u'middle', u'right']","[0.9, 0.5, 0.1]","[u'high', u'medium', u'low']","red",49,"left","high","True","False",201,2750,NA
"A28AXX4NCWPH1F","Sun Sep 13 2020 12:48:10 GMT-0400 (Eastern Daylight Time)","Sun Sep 13 2020 13:05:09 GMT-0400 (Eastern Daylight Time)","Mozilla/5.0 (Windows NT 10.0; Win64; x64) AppleWebKit/537.36 (KHTML, like Gecko) Chrome/85.0.4183.102 Safari/537.36",45,"[0.9, 0.5, 0.1]","[0.8, 0.4, 0.2]","[u'red', u'blue', u'black']","[u'left', u'middle', u'right']","[0.9, 0.5, 0.1]","[u'high', u'medium', u'low']","red",49,"left","high","True","False",171,2850,NA
"A28AXX4NCWPH1F","Sun Sep 13 2020 12:48:10 GMT-0400 (Eastern Daylight Time)","Sun Sep 13 2020 13:05:09 GMT-0400 (Eastern Daylight Time)","Mozilla/5.0 (Windows NT 10.0; Win64; x64) AppleWebKit/537.36 (KHTML, like Gecko) Chrome/85.0.4183.102 Safari/537.36",46,"[0.9, 0.5, 0.1]","[0.8, 0.4, 0.2]","[u'red', u'blue', u'black']","[u'left', u'middle', u'right']","[0.9, 0.5, 0.1]","[u'high', u'medium', u'low']","red",49,"left","high","True","False",194,2950,NA
"A28AXX4NCWPH1F","Sun Sep 13 2020 12:48:10 GMT-0400 (Eastern Daylight Time)","Sun Sep 13 2020 13:05:09 GMT-0400 (Eastern Daylight Time)","Mozilla/5.0 (Windows NT 10.0; Win64; x64) AppleWebKit/537.36 (KHTML, like Gecko) Chrome/85.0.4183.102 Safari/537.36",47,"[0.9, 0.5, 0.1]","[0.8, 0.4, 0.2]","[u'red', u'blue', u'black']","[u'left', u'middle', u'right']","[0.9, 0.5, 0.1]","[u'high', u'medium', u'low']","red",49,"left","high","False","False",183,2900,NA
"A28AXX4NCWPH1F","Sun Sep 13 2020 12:48:10 GMT-0400 (Eastern Daylight Time)","Sun Sep 13 2020 13:05:09 GMT-0400 (Eastern Daylight Time)","Mozilla/5.0 (Windows NT 10.0; Win64; x64) AppleWebKit/537.36 (KHTML, like Gecko) Chrome/85.0.4183.102 Safari/537.36",48,"[0.9, 0.5, 0.1]","[0.8, 0.4, 0.2]","[u'red', u'blue', u'black']","[u'left', u'middle', u'right']","[0.9, 0.5, 0.1]","[u'high', u'medium', u'low']","blue",50,"middle","medium","True","False",118,3000,NA
"A28AXX4NCWPH1F","Sun Sep 13 2020 12:48:10 GMT-0400 (Eastern Daylight Time)","Sun Sep 13 2020 13:05:09 GMT-0400 (Eastern Daylight Time)","Mozilla/5.0 (Windows NT 10.0; Win64; x64) AppleWebKit/537.36 (KHTML, like Gecko) Chrome/85.0.4183.102 Safari/537.36",49,"[0.9, 0.5, 0.1]","[0.8, 0.4, 0.2]","[u'red', u'blue', u'black']","[u'left', u'middle', u'right']","[0.9, 0.5, 0.1]","[u'high', u'medium', u'low']","blue",50,"middle","medium","False","False",126,2950,NA
"A28AXX4NCWPH1F","Sun Sep 13 2020 12:48:10 GMT-0400 (Eastern Daylight Time)","Sun Sep 13 2020 13:05:09 GMT-0400 (Eastern Daylight Time)","Mozilla/5.0 (Windows NT 10.0; Win64; x64) AppleWebKit/537.36 (KHTML, like Gecko) Chrome/85.0.4183.102 Safari/537.36",50,"[0.9, 0.5, 0.1]","[0.8, 0.4, 0.2]","[u'red', u'blue', u'black']","[u'left', u'middle', u'right']","[0.9, 0.5, 0.1]","[u'high', u'medium', u'low']","black",51,"right","low","True","False",39,3050,NA
"A28AXX4NCWPH1F","Sun Sep 13 2020 12:48:10 GMT-0400 (Eastern Daylight Time)","Sun Sep 13 2020 13:05:09 GMT-0400 (Eastern Daylight Time)","Mozilla/5.0 (Windows NT 10.0; Win64; x64) AppleWebKit/537.36 (KHTML, like Gecko) Chrome/85.0.4183.102 Safari/537.36",51,"[0.9, 0.5, 0.1]","[0.8, 0.4, 0.2]","[u'red', u'blue', u'black']","[u'left', u'middle', u'right']","[0.9, 0.5, 0.1]","[u'high', u'medium', u'low']","black",51,"right","low","False","False",194,3000,NA
"A28AXX4NCWPH1F","Sun Sep 13 2020 12:48:10 GMT-0400 (Eastern Daylight Time)","Sun Sep 13 2020 13:05:09 GMT-0400 (Eastern Daylight Time)","Mozilla/5.0 (Windows NT 10.0; Win64; x64) AppleWebKit/537.36 (KHTML, like Gecko) Chrome/85.0.4183.102 Safari/537.36",52,"[0.9, 0.5, 0.1]","[0.8, 0.4, 0.2]","[u'red', u'blue', u'black']","[u'left', u'middle', u'right']","[0.9, 0.5, 0.1]","[u'high', u'medium', u'low']","red",49,"left","high","True","False",118,3100,NA
"A28AXX4NCWPH1F","Sun Sep 13 2020 12:48:10 GMT-0400 (Eastern Daylight Time)","Sun Sep 13 2020 13:05:09 GMT-0400 (Eastern Daylight Time)","Mozilla/5.0 (Windows NT 10.0; Win64; x64) AppleWebKit/537.36 (KHTML, like Gecko) Chrome/85.0.4183.102 Safari/537.36",53,"[0.9, 0.5, 0.1]","[0.8, 0.4, 0.2]","[u'red', u'blue', u'black']","[u'left', u'middle', u'right']","[0.9, 0.5, 0.1]","[u'high', u'medium', u'low']","blue",50,"middle","medium","False","False",174,3050,NA
"A28AXX4NCWPH1F","Sun Sep 13 2020 12:48:10 GMT-0400 (Eastern Daylight Time)","Sun Sep 13 2020 13:05:09 GMT-0400 (Eastern Daylight Time)","Mozilla/5.0 (Windows NT 10.0; Win64; x64) AppleWebKit/537.36 (KHTML, like Gecko) Chrome/85.0.4183.102 Safari/537.36",54,"[0.9, 0.5, 0.1]","[0.8, 0.4, 0.2]","[u'red', u'blue', u'black']","[u'left', u'middle', u'right']","[0.9, 0.5, 0.1]","[u'high', u'medium', u'low']","blue",50,"middle","medium","False","False",183,3000,NA
"A28AXX4NCWPH1F","Sun Sep 13 2020 12:48:10 GMT-0400 (Eastern Daylight Time)","Sun Sep 13 2020 13:05:09 GMT-0400 (Eastern Daylight Time)","Mozilla/5.0 (Windows NT 10.0; Win64; x64) AppleWebKit/537.36 (KHTML, like Gecko) Chrome/85.0.4183.102 Safari/537.36",55,"[0.9, 0.5, 0.1]","[0.8, 0.4, 0.2]","[u'red', u'blue', u'black']","[u'left', u'middle', u'right']","[0.9, 0.5, 0.1]","[u'high', u'medium', u'low']","red",49,"left","high","True","False",170,3100,NA
"A28AXX4NCWPH1F","Sun Sep 13 2020 12:48:10 GMT-0400 (Eastern Daylight Time)","Sun Sep 13 2020 13:05:09 GMT-0400 (Eastern Daylight Time)","Mozilla/5.0 (Windows NT 10.0; Win64; x64) AppleWebKit/537.36 (KHTML, like Gecko) Chrome/85.0.4183.102 Safari/537.36",56,"[0.9, 0.5, 0.1]","[0.8, 0.4, 0.2]","[u'red', u'blue', u'black']","[u'left', u'middle', u'right']","[0.9, 0.5, 0.1]","[u'high', u'medium', u'low']","red",49,"left","high","True","False",98,3200,NA
"A28AXX4NCWPH1F","Sun Sep 13 2020 12:48:10 GMT-0400 (Eastern Daylight Time)","Sun Sep 13 2020 13:05:09 GMT-0400 (Eastern Daylight Time)","Mozilla/5.0 (Windows NT 10.0; Win64; x64) AppleWebKit/537.36 (KHTML, like Gecko) Chrome/85.0.4183.102 Safari/537.36",57,"[0.9, 0.5, 0.1]","[0.8, 0.4, 0.2]","[u'red', u'blue', u'black']","[u'left', u'middle', u'right']","[0.9, 0.5, 0.1]","[u'high', u'medium', u'low']","red",49,"left","high","True","False",73,3300,NA
"A28AXX4NCWPH1F","Sun Sep 13 2020 12:48:10 GMT-0400 (Eastern Daylight Time)","Sun Sep 13 2020 13:05:09 GMT-0400 (Eastern Daylight Time)","Mozilla/5.0 (Windows NT 10.0; Win64; x64) AppleWebKit/537.36 (KHTML, like Gecko) Chrome/85.0.4183.102 Safari/537.36",58,"[0.9, 0.5, 0.1]","[0.8, 0.4, 0.2]","[u'red', u'blue', u'black']","[u'left', u'middle', u'right']","[0.9, 0.5, 0.1]","[u'high', u'medium', u'low']","red",49,"left","high","False","False",208,3250,NA
"A28AXX4NCWPH1F","Sun Sep 13 2020 12:48:10 GMT-0400 (Eastern Daylight Time)","Sun Sep 13 2020 13:05:09 GMT-0400 (Eastern Daylight Time)","Mozilla/5.0 (Windows NT 10.0; Win64; x64) AppleWebKit/537.36 (KHTML, like Gecko) Chrome/85.0.4183.102 Safari/537.36",59,"[0.9, 0.5, 0.1]","[0.8, 0.4, 0.2]","[u'red', u'blue', u'black']","[u'left', u'middle', u'right']","[0.9, 0.5, 0.1]","[u'high', u'medium', u'low']","blue",50,"middle","medium","False","False",192,3200,NA
"A28AXX4NCWPH1F","Sun Sep 13 2020 12:48:10 GMT-0400 (Eastern Daylight Time)","Sun Sep 13 2020 13:05:09 GMT-0400 (Eastern Daylight Time)","Mozilla/5.0 (Windows NT 10.0; Win64; x64) AppleWebKit/537.36 (KHTML, like Gecko) Chrome/85.0.4183.102 Safari/537.36",60,"[0.9, 0.5, 0.1]","[0.8, 0.4, 0.2]","[u'red', u'blue', u'black']","[u'left', u'middle', u'right']","[0.9, 0.5, 0.1]","[u'high', u'medium', u'low']","black",51,"right","low","False","False",178,3150,NA
"A28AXX4NCWPH1F","Sun Sep 13 2020 12:48:10 GMT-0400 (Eastern Daylight Time)","Sun Sep 13 2020 13:05:09 GMT-0400 (Eastern Daylight Time)","Mozilla/5.0 (Windows NT 10.0; Win64; x64) AppleWebKit/537.36 (KHTML, like Gecko) Chrome/85.0.4183.102 Safari/537.36",61,"[0.9, 0.5, 0.1]","[0.8, 0.4, 0.2]","[u'red', u'blue', u'black']","[u'left', u'middle', u'right']","[0.9, 0.5, 0.1]","[u'high', u'medium', u'low']","red",49,"left","high","True","False",20,3250,NA
"A28AXX4NCWPH1F","Sun Sep 13 2020 12:48:10 GMT-0400 (Eastern Daylight Time)","Sun Sep 13 2020 13:05:09 GMT-0400 (Eastern Daylight Time)","Mozilla/5.0 (Windows NT 10.0; Win64; x64) AppleWebKit/537.36 (KHTML, like Gecko) Chrome/85.0.4183.102 Safari/537.36",62,"[0.9, 0.5, 0.1]","[0.8, 0.4, 0.2]","[u'red', u'blue', u'black']","[u'left', u'middle', u'right']","[0.9, 0.5, 0.1]","[u'high', u'medium', u'low']","red",49,"left","high","True","False",272,3350,NA
"A28AXX4NCWPH1F","Sun Sep 13 2020 12:48:10 GMT-0400 (Eastern Daylight Time)","Sun Sep 13 2020 13:05:09 GMT-0400 (Eastern Daylight Time)","Mozilla/5.0 (Windows NT 10.0; Win64; x64) AppleWebKit/537.36 (KHTML, like Gecko) Chrome/85.0.4183.102 Safari/537.36",63,"[0.9, 0.5, 0.1]","[0.8, 0.4, 0.2]","[u'red', u'blue', u'black']","[u'left', u'middle', u'right']","[0.9, 0.5, 0.1]","[u'high', u'medium', u'low']","red",49,"left","high","False","False",254,3300,NA
"A28AXX4NCWPH1F","Sun Sep 13 2020 12:48:10 GMT-0400 (Eastern Daylight Time)","Sun Sep 13 2020 13:05:09 GMT-0400 (Eastern Daylight Time)","Mozilla/5.0 (Windows NT 10.0; Win64; x64) AppleWebKit/537.36 (KHTML, like Gecko) Chrome/85.0.4183.102 Safari/537.36",64,"[0.9, 0.5, 0.1]","[0.8, 0.4, 0.2]","[u'red', u'blue', u'black']","[u'left', u'middle', u'right']","[0.9, 0.5, 0.1]","[u'high', u'medium', u'low']","blue",50,"middle","medium","False","False",52,3250,NA
"A28AXX4NCWPH1F","Sun Sep 13 2020 12:48:10 GMT-0400 (Eastern Daylight Time)","Sun Sep 13 2020 13:05:09 GMT-0400 (Eastern Daylight Time)","Mozilla/5.0 (Windows NT 10.0; Win64; x64) AppleWebKit/537.36 (KHTML, like Gecko) Chrome/85.0.4183.102 Safari/537.36",65,"[0.9, 0.5, 0.1]","[0.8, 0.4, 0.2]","[u'red', u'blue', u'black']","[u'left', u'middle', u'right']","[0.9, 0.5, 0.1]","[u'high', u'medium', u'low']","red",49,"left","high","True","False",152,3350,NA
"A28AXX4NCWPH1F","Sun Sep 13 2020 12:48:10 GMT-0400 (Eastern Daylight Time)","Sun Sep 13 2020 13:05:09 GMT-0400 (Eastern Daylight Time)","Mozilla/5.0 (Windows NT 10.0; Win64; x64) AppleWebKit/537.36 (KHTML, like Gecko) Chrome/85.0.4183.102 Safari/537.36",66,"[0.9, 0.5, 0.1]","[0.8, 0.4, 0.2]","[u'red', u'blue', u'black']","[u'left', u'middle', u'right']","[0.9, 0.5, 0.1]","[u'high', u'medium', u'low']","red",49,"left","high","True","False",155,3450,NA
"A28AXX4NCWPH1F","Sun Sep 13 2020 12:48:10 GMT-0400 (Eastern Daylight Time)","Sun Sep 13 2020 13:05:09 GMT-0400 (Eastern Daylight Time)","Mozilla/5.0 (Windows NT 10.0; Win64; x64) AppleWebKit/537.36 (KHTML, like Gecko) Chrome/85.0.4183.102 Safari/537.36",67,"[0.9, 0.5, 0.1]","[0.8, 0.4, 0.2]","[u'red', u'blue', u'black']","[u'left', u'middle', u'right']","[0.9, 0.5, 0.1]","[u'high', u'medium', u'low']","red",49,"left","high","False","False",265,3400,NA
"A28AXX4NCWPH1F","Sun Sep 13 2020 12:48:10 GMT-0400 (Eastern Daylight Time)","Sun Sep 13 2020 13:05:09 GMT-0400 (Eastern Daylight Time)","Mozilla/5.0 (Windows NT 10.0; Win64; x64) AppleWebKit/537.36 (KHTML, like Gecko) Chrome/85.0.4183.102 Safari/537.36",68,"[0.9, 0.5, 0.1]","[0.8, 0.4, 0.2]","[u'red', u'blue', u'black']","[u'left', u'middle', u'right']","[0.9, 0.5, 0.1]","[u'high', u'medium', u'low']","black",51,"right","low","False","False",192,3350,NA
"A28AXX4NCWPH1F","Sun Sep 13 2020 12:48:10 GMT-0400 (Eastern Daylight Time)","Sun Sep 13 2020 13:05:09 GMT-0400 (Eastern Daylight Time)","Mozilla/5.0 (Windows NT 10.0; Win64; x64) AppleWebKit/537.36 (KHTML, like Gecko) Chrome/85.0.4183.102 Safari/537.36",69,"[0.9, 0.5, 0.1]","[0.8, 0.4, 0.2]","[u'red', u'blue', u'black']","[u'left', u'middle', u'right']","[0.9, 0.5, 0.1]","[u'high', u'medium', u'low']","blue",50,"middle","medium","False","False",114,3300,NA
"A28AXX4NCWPH1F","Sun Sep 13 2020 12:48:10 GMT-0400 (Eastern Daylight Time)","Sun Sep 13 2020 13:05:09 GMT-0400 (Eastern Daylight Time)","Mozilla/5.0 (Windows NT 10.0; Win64; x64) AppleWebKit/537.36 (KHTML, like Gecko) Chrome/85.0.4183.102 Safari/537.36",70,"[0.9, 0.5, 0.1]","[0.8, 0.4, 0.2]","[u'red', u'blue', u'black']","[u'left', u'middle', u'right']","[0.9, 0.5, 0.1]","[u'high', u'medium', u'low']","red",49,"left","high","True","False",161,3400,NA
"A28AXX4NCWPH1F","Sun Sep 13 2020 12:48:10 GMT-0400 (Eastern Daylight Time)","Sun Sep 13 2020 13:05:09 GMT-0400 (Eastern Daylight Time)","Mozilla/5.0 (Windows NT 10.0; Win64; x64) AppleWebKit/537.36 (KHTML, like Gecko) Chrome/85.0.4183.102 Safari/537.36",71,"[0.9, 0.5, 0.1]","[0.8, 0.4, 0.2]","[u'red', u'blue', u'black']","[u'left', u'middle', u'right']","[0.9, 0.5, 0.1]","[u'high', u'medium', u'low']","red",49,"left","high","True","False",283,3500,NA
"A28AXX4NCWPH1F","Sun Sep 13 2020 12:48:10 GMT-0400 (Eastern Daylight Time)","Sun Sep 13 2020 13:05:09 GMT-0400 (Eastern Daylight Time)","Mozilla/5.0 (Windows NT 10.0; Win64; x64) AppleWebKit/537.36 (KHTML, like Gecko) Chrome/85.0.4183.102 Safari/537.36",72,"[0.9, 0.5, 0.1]","[0.8, 0.4, 0.2]","[u'red', u'blue', u'black']","[u'left', u'middle', u'right']","[0.9, 0.5, 0.1]","[u'high', u'medium', u'low']","red",49,"left","high","True","False",250,3600,NA
"A28AXX4NCWPH1F","Sun Sep 13 2020 12:48:10 GMT-0400 (Eastern Daylight Time)","Sun Sep 13 2020 13:05:09 GMT-0400 (Eastern Daylight Time)","Mozilla/5.0 (Windows NT 10.0; Win64; x64) AppleWebKit/537.36 (KHTML, like Gecko) Chrome/85.0.4183.102 Safari/537.36",73,"[0.9, 0.5, 0.1]","[0.8, 0.4, 0.2]","[u'red', u'blue', u'black']","[u'left', u'middle', u'right']","[0.9, 0.5, 0.1]","[u'high', u'medium', u'low']","red",49,"left","high","True","False",227,3700,NA
"A28AXX4NCWPH1F","Sun Sep 13 2020 12:48:10 GMT-0400 (Eastern Daylight Time)","Sun Sep 13 2020 13:05:09 GMT-0400 (Eastern Daylight Time)","Mozilla/5.0 (Windows NT 10.0; Win64; x64) AppleWebKit/537.36 (KHTML, like Gecko) Chrome/85.0.4183.102 Safari/537.36",74,"[0.9, 0.5, 0.1]","[0.8, 0.4, 0.2]","[u'red', u'blue', u'black']","[u'left', u'middle', u'right']","[0.9, 0.5, 0.1]","[u'high', u'medium', u'low']","red",49,"left","high","True","False",128,3800,NA
"A28AXX4NCWPH1F","Sun Sep 13 2020 12:48:10 GMT-0400 (Eastern Daylight Time)","Sun Sep 13 2020 13:05:09 GMT-0400 (Eastern Daylight Time)","Mozilla/5.0 (Windows NT 10.0; Win64; x64) AppleWebKit/537.36 (KHTML, like Gecko) Chrome/85.0.4183.102 Safari/537.36",75,"[0.9, 0.5, 0.1]","[0.8, 0.4, 0.2]","[u'red', u'blue', u'black']","[u'left', u'middle', u'right']","[0.9, 0.5, 0.1]","[u'high', u'medium', u'low']","red",49,"left","high","True","False",221,3900,NA
"A28AXX4NCWPH1F","Sun Sep 13 2020 12:48:10 GMT-0400 (Eastern Daylight Time)","Sun Sep 13 2020 13:05:09 GMT-0400 (Eastern Daylight Time)","Mozilla/5.0 (Windows NT 10.0; Win64; x64) AppleWebKit/537.36 (KHTML, like Gecko) Chrome/85.0.4183.102 Safari/537.36",76,"[0.9, 0.5, 0.1]","[0.8, 0.4, 0.2]","[u'red', u'blue', u'black']","[u'left', u'middle', u'right']","[0.9, 0.5, 0.1]","[u'high', u'medium', u'low']","red",49,"left","high","True","False",177,4000,NA
"A28AXX4NCWPH1F","Sun Sep 13 2020 12:48:10 GMT-0400 (Eastern Daylight Time)","Sun Sep 13 2020 13:05:09 GMT-0400 (Eastern Daylight Time)","Mozilla/5.0 (Windows NT 10.0; Win64; x64) AppleWebKit/537.36 (KHTML, like Gecko) Chrome/85.0.4183.102 Safari/537.36",77,"[0.9, 0.5, 0.1]","[0.8, 0.4, 0.2]","[u'red', u'blue', u'black']","[u'left', u'middle', u'right']","[0.9, 0.5, 0.1]","[u'high', u'medium', u'low']","red",49,"left","high","True","False",220,4100,NA
"A28AXX4NCWPH1F","Sun Sep 13 2020 12:48:10 GMT-0400 (Eastern Daylight Time)","Sun Sep 13 2020 13:05:09 GMT-0400 (Eastern Daylight Time)","Mozilla/5.0 (Windows NT 10.0; Win64; x64) AppleWebKit/537.36 (KHTML, like Gecko) Chrome/85.0.4183.102 Safari/537.36",78,"[0.9, 0.5, 0.1]","[0.8, 0.4, 0.2]","[u'red', u'blue', u'black']","[u'left', u'middle', u'right']","[0.9, 0.5, 0.1]","[u'high', u'medium', u'low']","red",49,"left","high","True","True",214,4200,NA
"A28AXX4NCWPH1F","Sun Sep 13 2020 12:48:10 GMT-0400 (Eastern Daylight Time)","Sun Sep 13 2020 13:05:09 GMT-0400 (Eastern Daylight Time)","Mozilla/5.0 (Windows NT 10.0; Win64; x64) AppleWebKit/537.36 (KHTML, like Gecko) Chrome/85.0.4183.102 Safari/537.36",79,"[0.9, 0.5, 0.1]","[0.8, 0.4, 0.2]","[u'red', u'blue', u'black']","[u'left', u'middle', u'right']","[0.9, 0.5, 0.1]","[u'low', u'high', u'medium']","red",49,"left","low","False","False",268,4150,NA
"A28AXX4NCWPH1F","Sun Sep 13 2020 12:48:10 GMT-0400 (Eastern Daylight Time)","Sun Sep 13 2020 13:05:09 GMT-0400 (Eastern Daylight Time)","Mozilla/5.0 (Windows NT 10.0; Win64; x64) AppleWebKit/537.36 (KHTML, like Gecko) Chrome/85.0.4183.102 Safari/537.36",80,"[0.9, 0.5, 0.1]","[0.8, 0.4, 0.2]","[u'red', u'blue', u'black']","[u'left', u'middle', u'right']","[0.9, 0.5, 0.1]","[u'low', u'high', u'medium']","blue",50,"middle","high","True","False",65,4250,NA
"A28AXX4NCWPH1F","Sun Sep 13 2020 12:48:10 GMT-0400 (Eastern Daylight Time)","Sun Sep 13 2020 13:05:09 GMT-0400 (Eastern Daylight Time)","Mozilla/5.0 (Windows NT 10.0; Win64; x64) AppleWebKit/537.36 (KHTML, like Gecko) Chrome/85.0.4183.102 Safari/537.36",81,"[0.9, 0.5, 0.1]","[0.8, 0.4, 0.2]","[u'red', u'blue', u'black']","[u'left', u'middle', u'right']","[0.8, 0.4, 0.2]","[u'high', u'medium', u'low']","blue",50,"middle","medium","False","False",282,4200,NA
"A28AXX4NCWPH1F","Sun Sep 13 2020 12:48:10 GMT-0400 (Eastern Daylight Time)","Sun Sep 13 2020 13:05:09 GMT-0400 (Eastern Daylight Time)","Mozilla/5.0 (Windows NT 10.0; Win64; x64) AppleWebKit/537.36 (KHTML, like Gecko) Chrome/85.0.4183.102 Safari/537.36",82,"[0.9, 0.5, 0.1]","[0.8, 0.4, 0.2]","[u'red', u'blue', u'black']","[u'left', u'middle', u'right']","[0.8, 0.4, 0.2]","[u'high', u'medium', u'low']","red",49,"left","high","False","False",104,4150,NA
"A28AXX4NCWPH1F","Sun Sep 13 2020 12:48:10 GMT-0400 (Eastern Daylight Time)","Sun Sep 13 2020 13:05:09 GMT-0400 (Eastern Daylight Time)","Mozilla/5.0 (Windows NT 10.0; Win64; x64) AppleWebKit/537.36 (KHTML, like Gecko) Chrome/85.0.4183.102 Safari/537.36",83,"[0.9, 0.5, 0.1]","[0.8, 0.4, 0.2]","[u'red', u'blue', u'black']","[u'left', u'middle', u'right']","[0.8, 0.4, 0.2]","[u'high', u'medium', u'low']","black",51,"right","low","False","False",76,4100,NA
"A28AXX4NCWPH1F","Sun Sep 13 2020 12:48:10 GMT-0400 (Eastern Daylight Time)","Sun Sep 13 2020 13:05:09 GMT-0400 (Eastern Daylight Time)","Mozilla/5.0 (Windows NT 10.0; Win64; x64) AppleWebKit/537.36 (KHTML, like Gecko) Chrome/85.0.4183.102 Safari/537.36",84,"[0.9, 0.5, 0.1]","[0.8, 0.4, 0.2]","[u'red', u'blue', u'black']","[u'left', u'middle', u'right']","[0.8, 0.4, 0.2]","[u'high', u'medium', u'low']","red",49,"left","high","True","False",164,4200,NA
"A28AXX4NCWPH1F","Sun Sep 13 2020 12:48:10 GMT-0400 (Eastern Daylight Time)","Sun Sep 13 2020 13:05:09 GMT-0400 (Eastern Daylight Time)","Mozilla/5.0 (Windows NT 10.0; Win64; x64) AppleWebKit/537.36 (KHTML, like Gecko) Chrome/85.0.4183.102 Safari/537.36",85,"[0.9, 0.5, 0.1]","[0.8, 0.4, 0.2]","[u'red', u'blue', u'black']","[u'left', u'middle', u'right']","[0.8, 0.4, 0.2]","[u'high', u'medium', u'low']","red",49,"left","high","True","False",159,4300,NA
"A28AXX4NCWPH1F","Sun Sep 13 2020 12:48:10 GMT-0400 (Eastern Daylight Time)","Sun Sep 13 2020 13:05:09 GMT-0400 (Eastern Daylight Time)","Mozilla/5.0 (Windows NT 10.0; Win64; x64) AppleWebKit/537.36 (KHTML, like Gecko) Chrome/85.0.4183.102 Safari/537.36",86,"[0.9, 0.5, 0.1]","[0.8, 0.4, 0.2]","[u'red', u'blue', u'black']","[u'left', u'middle', u'right']","[0.8, 0.4, 0.2]","[u'high', u'medium', u'low']","red",49,"left","high","True","False",182,4400,NA
"A28AXX4NCWPH1F","Sun Sep 13 2020 12:48:10 GMT-0400 (Eastern Daylight Time)","Sun Sep 13 2020 13:05:09 GMT-0400 (Eastern Daylight Time)","Mozilla/5.0 (Windows NT 10.0; Win64; x64) AppleWebKit/537.36 (KHTML, like Gecko) Chrome/85.0.4183.102 Safari/537.36",87,"[0.9, 0.5, 0.1]","[0.8, 0.4, 0.2]","[u'red', u'blue', u'black']","[u'left', u'middle', u'right']","[0.8, 0.4, 0.2]","[u'high', u'medium', u'low']","red",49,"left","high","True","False",106,4500,NA
"A28AXX4NCWPH1F","Sun Sep 13 2020 12:48:10 GMT-0400 (Eastern Daylight Time)","Sun Sep 13 2020 13:05:09 GMT-0400 (Eastern Daylight Time)","Mozilla/5.0 (Windows NT 10.0; Win64; x64) AppleWebKit/537.36 (KHTML, like Gecko) Chrome/85.0.4183.102 Safari/537.36",88,"[0.9, 0.5, 0.1]","[0.8, 0.4, 0.2]","[u'red', u'blue', u'black']","[u'left', u'middle', u'right']","[0.8, 0.4, 0.2]","[u'high', u'medium', u'low']","red",49,"left","high","False","False",74,4450,NA
"A28AXX4NCWPH1F","Sun Sep 13 2020 12:48:10 GMT-0400 (Eastern Daylight Time)","Sun Sep 13 2020 13:05:09 GMT-0400 (Eastern Daylight Time)","Mozilla/5.0 (Windows NT 10.0; Win64; x64) AppleWebKit/537.36 (KHTML, like Gecko) Chrome/85.0.4183.102 Safari/537.36",89,"[0.9, 0.5, 0.1]","[0.8, 0.4, 0.2]","[u'red', u'blue', u'black']","[u'left', u'middle', u'right']","[0.8, 0.4, 0.2]","[u'high', u'medium', u'low']","blue",50,"middle","medium","False","False",114,4400,NA
"A28AXX4NCWPH1F","Sun Sep 13 2020 12:48:10 GMT-0400 (Eastern Daylight Time)","Sun Sep 13 2020 13:05:09 GMT-0400 (Eastern Daylight Time)","Mozilla/5.0 (Windows NT 10.0; Win64; x64) AppleWebKit/537.36 (KHTML, like Gecko) Chrome/85.0.4183.102 Safari/537.36",90,"[0.9, 0.5, 0.1]","[0.8, 0.4, 0.2]","[u'red', u'blue', u'black']","[u'left', u'middle', u'right']","[0.8, 0.4, 0.2]","[u'high', u'medium', u'low']","red",49,"left","high","True","False",43,4500,NA
"A28AXX4NCWPH1F","Sun Sep 13 2020 12:48:10 GMT-0400 (Eastern Daylight Time)","Sun Sep 13 2020 13:05:09 GMT-0400 (Eastern Daylight Time)","Mozilla/5.0 (Windows NT 10.0; Win64; x64) AppleWebKit/537.36 (KHTML, like Gecko) Chrome/85.0.4183.102 Safari/537.36",91,"[0.9, 0.5, 0.1]","[0.8, 0.4, 0.2]","[u'red', u'blue', u'black']","[u'left', u'middle', u'right']","[0.8, 0.4, 0.2]","[u'high', u'medium', u'low']","red",49,"left","high","True","False",117,4600,NA
"A28AXX4NCWPH1F","Sun Sep 13 2020 12:48:10 GMT-0400 (Eastern Daylight Time)","Sun Sep 13 2020 13:05:09 GMT-0400 (Eastern Daylight Time)","Mozilla/5.0 (Windows NT 10.0; Win64; x64) AppleWebKit/537.36 (KHTML, like Gecko) Chrome/85.0.4183.102 Safari/537.36",92,"[0.9, 0.5, 0.1]","[0.8, 0.4, 0.2]","[u'red', u'blue', u'black']","[u'left', u'middle', u'right']","[0.8, 0.4, 0.2]","[u'high', u'medium', u'low']","red",49,"left","high","True","False",185,4700,NA
"A28AXX4NCWPH1F","Sun Sep 13 2020 12:48:10 GMT-0400 (Eastern Daylight Time)","Sun Sep 13 2020 13:05:09 GMT-0400 (Eastern Daylight Time)","Mozilla/5.0 (Windows NT 10.0; Win64; x64) AppleWebKit/537.36 (KHTML, like Gecko) Chrome/85.0.4183.102 Safari/537.36",93,"[0.9, 0.5, 0.1]","[0.8, 0.4, 0.2]","[u'red', u'blue', u'black']","[u'left', u'middle', u'right']","[0.8, 0.4, 0.2]","[u'high', u'medium', u'low']","red",49,"left","high","False","False",156,4650,NA
"A28AXX4NCWPH1F","Sun Sep 13 2020 12:48:10 GMT-0400 (Eastern Daylight Time)","Sun Sep 13 2020 13:05:09 GMT-0400 (Eastern Daylight Time)","Mozilla/5.0 (Windows NT 10.0; Win64; x64) AppleWebKit/537.36 (KHTML, like Gecko) Chrome/85.0.4183.102 Safari/537.36",94,"[0.9, 0.5, 0.1]","[0.8, 0.4, 0.2]","[u'red', u'blue', u'black']","[u'left', u'middle', u'right']","[0.8, 0.4, 0.2]","[u'high', u'medium', u'low']","blue",50,"middle","medium","False","False",173,4600,NA
"A28AXX4NCWPH1F","Sun Sep 13 2020 12:48:10 GMT-0400 (Eastern Daylight Time)","Sun Sep 13 2020 13:05:09 GMT-0400 (Eastern Daylight Time)","Mozilla/5.0 (Windows NT 10.0; Win64; x64) AppleWebKit/537.36 (KHTML, like Gecko) Chrome/85.0.4183.102 Safari/537.36",95,"[0.9, 0.5, 0.1]","[0.8, 0.4, 0.2]","[u'red', u'blue', u'black']","[u'left', u'middle', u'right']","[0.8, 0.4, 0.2]","[u'high', u'medium', u'low']","red",49,"left","high","True","False",170,4700,NA
"A28AXX4NCWPH1F","Sun Sep 13 2020 12:48:10 GMT-0400 (Eastern Daylight Time)","Sun Sep 13 2020 13:05:09 GMT-0400 (Eastern Daylight Time)","Mozilla/5.0 (Windows NT 10.0; Win64; x64) AppleWebKit/537.36 (KHTML, like Gecko) Chrome/85.0.4183.102 Safari/537.36",96,"[0.9, 0.5, 0.1]","[0.8, 0.4, 0.2]","[u'red', u'blue', u'black']","[u'left', u'middle', u'right']","[0.8, 0.4, 0.2]","[u'high', u'medium', u'low']","red",49,"left","high","True","False",109,4800,NA
"A28AXX4NCWPH1F","Sun Sep 13 2020 12:48:10 GMT-0400 (Eastern Daylight Time)","Sun Sep 13 2020 13:05:09 GMT-0400 (Eastern Daylight Time)","Mozilla/5.0 (Windows NT 10.0; Win64; x64) AppleWebKit/537.36 (KHTML, like Gecko) Chrome/85.0.4183.102 Safari/537.36",97,"[0.9, 0.5, 0.1]","[0.8, 0.4, 0.2]","[u'red', u'blue', u'black']","[u'left', u'middle', u'right']","[0.8, 0.4, 0.2]","[u'high', u'medium', u'low']","red",49,"left","high","True","False",154,4900,NA
"A28AXX4NCWPH1F","Sun Sep 13 2020 12:48:10 GMT-0400 (Eastern Daylight Time)","Sun Sep 13 2020 13:05:09 GMT-0400 (Eastern Daylight Time)","Mozilla/5.0 (Windows NT 10.0; Win64; x64) AppleWebKit/537.36 (KHTML, like Gecko) Chrome/85.0.4183.102 Safari/537.36",98,"[0.9, 0.5, 0.1]","[0.8, 0.4, 0.2]","[u'red', u'blue', u'black']","[u'left', u'middle', u'right']","[0.8, 0.4, 0.2]","[u'high', u'medium', u'low']","red",49,"left","high","True","False",146,5000,NA
"A28AXX4NCWPH1F","Sun Sep 13 2020 12:48:10 GMT-0400 (Eastern Daylight Time)","Sun Sep 13 2020 13:05:09 GMT-0400 (Eastern Daylight Time)","Mozilla/5.0 (Windows NT 10.0; Win64; x64) AppleWebKit/537.36 (KHTML, like Gecko) Chrome/85.0.4183.102 Safari/537.36",99,"[0.9, 0.5, 0.1]","[0.8, 0.4, 0.2]","[u'red', u'blue', u'black']","[u'left', u'middle', u'right']","[0.8, 0.4, 0.2]","[u'high', u'medium', u'low']","red",49,"left","high","True","True",103,5100,NA
"A28AXX4NCWPH1F","Sun Sep 13 2020 12:48:10 GMT-0400 (Eastern Daylight Time)","Sun Sep 13 2020 13:05:09 GMT-0400 (Eastern Daylight Time)","Mozilla/5.0 (Windows NT 10.0; Win64; x64) AppleWebKit/537.36 (KHTML, like Gecko) Chrome/85.0.4183.102 Safari/537.36",100,"[0.9, 0.5, 0.1]","[0.8, 0.4, 0.2]","[u'red', u'blue', u'black']","[u'left', u'middle', u'right']","[0.8, 0.4, 0.2]","[u'medium', u'low', u'high']","red",49,"left","medium","False","False",149,5050,NA
"A28AXX4NCWPH1F","Sun Sep 13 2020 12:48:10 GMT-0400 (Eastern Daylight Time)","Sun Sep 13 2020 13:05:09 GMT-0400 (Eastern Daylight Time)","Mozilla/5.0 (Windows NT 10.0; Win64; x64) AppleWebKit/537.36 (KHTML, like Gecko) Chrome/85.0.4183.102 Safari/537.36",101,"[0.9, 0.5, 0.1]","[0.8, 0.4, 0.2]","[u'red', u'blue', u'black']","[u'left', u'middle', u'right']","[0.8, 0.4, 0.2]","[u'medium', u'low', u'high']","red",49,"left","medium","True","False",188,5150,NA
"A28AXX4NCWPH1F","Sun Sep 13 2020 12:48:10 GMT-0400 (Eastern Daylight Time)","Sun Sep 13 2020 13:05:09 GMT-0400 (Eastern Daylight Time)","Mozilla/5.0 (Windows NT 10.0; Win64; x64) AppleWebKit/537.36 (KHTML, like Gecko) Chrome/85.0.4183.102 Safari/537.36",102,"[0.9, 0.5, 0.1]","[0.8, 0.4, 0.2]","[u'red', u'blue', u'black']","[u'left', u'middle', u'right']","[0.8, 0.4, 0.2]","[u'medium', u'low', u'high']","red",49,"left","medium","False","False",132,5100,NA
"A28AXX4NCWPH1F","Sun Sep 13 2020 12:48:10 GMT-0400 (Eastern Daylight Time)","Sun Sep 13 2020 13:05:09 GMT-0400 (Eastern Daylight Time)","Mozilla/5.0 (Windows NT 10.0; Win64; x64) AppleWebKit/537.36 (KHTML, like Gecko) Chrome/85.0.4183.102 Safari/537.36",103,"[0.9, 0.5, 0.1]","[0.8, 0.4, 0.2]","[u'red', u'blue', u'black']","[u'left', u'middle', u'right']","[0.8, 0.4, 0.2]","[u'medium', u'low', u'high']","red",49,"left","medium","True","False",140,5200,NA
"A28AXX4NCWPH1F","Sun Sep 13 2020 12:48:10 GMT-0400 (Eastern Daylight Time)","Sun Sep 13 2020 13:05:09 GMT-0400 (Eastern Daylight Time)","Mozilla/5.0 (Windows NT 10.0; Win64; x64) AppleWebKit/537.36 (KHTML, like Gecko) Chrome/85.0.4183.102 Safari/537.36",104,"[0.9, 0.5, 0.1]","[0.8, 0.4, 0.2]","[u'red', u'blue', u'black']","[u'left', u'middle', u'right']","[0.8, 0.4, 0.2]","[u'medium', u'low', u'high']","red",49,"left","medium","False","False",107,5150,NA
"A28AXX4NCWPH1F","Sun Sep 13 2020 12:48:10 GMT-0400 (Eastern Daylight Time)","Sun Sep 13 2020 13:05:09 GMT-0400 (Eastern Daylight Time)","Mozilla/5.0 (Windows NT 10.0; Win64; x64) AppleWebKit/537.36 (KHTML, like Gecko) Chrome/85.0.4183.102 Safari/537.36",105,"[0.9, 0.5, 0.1]","[0.8, 0.4, 0.2]","[u'red', u'blue', u'black']","[u'left', u'middle', u'right']","[0.8, 0.4, 0.2]","[u'medium', u'low', u'high']","red",49,"left","medium","False","False",273,5100,NA
"A28AXX4NCWPH1F","Sun Sep 13 2020 12:48:10 GMT-0400 (Eastern Daylight Time)","Sun Sep 13 2020 13:05:09 GMT-0400 (Eastern Daylight Time)","Mozilla/5.0 (Windows NT 10.0; Win64; x64) AppleWebKit/537.36 (KHTML, like Gecko) Chrome/85.0.4183.102 Safari/537.36",106,"[0.9, 0.5, 0.1]","[0.8, 0.4, 0.2]","[u'red', u'blue', u'black']","[u'left', u'middle', u'right']","[0.8, 0.4, 0.2]","[u'medium', u'low', u'high']","blue",50,"middle","low","False","False",47,5050,NA
"A28AXX4NCWPH1F","Sun Sep 13 2020 12:48:10 GMT-0400 (Eastern Daylight Time)","Sun Sep 13 2020 13:05:09 GMT-0400 (Eastern Daylight Time)","Mozilla/5.0 (Windows NT 10.0; Win64; x64) AppleWebKit/537.36 (KHTML, like Gecko) Chrome/85.0.4183.102 Safari/537.36",107,"[0.9, 0.5, 0.1]","[0.8, 0.4, 0.2]","[u'red', u'blue', u'black']","[u'left', u'middle', u'right']","[0.8, 0.4, 0.2]","[u'medium', u'low', u'high']","black",51,"right","high","True","False",77,5150,NA
"A28AXX4NCWPH1F","Sun Sep 13 2020 12:48:10 GMT-0400 (Eastern Daylight Time)","Sun Sep 13 2020 13:05:09 GMT-0400 (Eastern Daylight Time)","Mozilla/5.0 (Windows NT 10.0; Win64; x64) AppleWebKit/537.36 (KHTML, like Gecko) Chrome/85.0.4183.102 Safari/537.36",108,"[0.9, 0.5, 0.1]","[0.8, 0.4, 0.2]","[u'red', u'blue', u'black']","[u'left', u'middle', u'right']","[0.8, 0.4, 0.2]","[u'medium', u'low', u'high']","black",51,"right","high","True","False",155,5250,NA
"A28AXX4NCWPH1F","Sun Sep 13 2020 12:48:10 GMT-0400 (Eastern Daylight Time)","Sun Sep 13 2020 13:05:09 GMT-0400 (Eastern Daylight Time)","Mozilla/5.0 (Windows NT 10.0; Win64; x64) AppleWebKit/537.36 (KHTML, like Gecko) Chrome/85.0.4183.102 Safari/537.36",109,"[0.9, 0.5, 0.1]","[0.8, 0.4, 0.2]","[u'red', u'blue', u'black']","[u'left', u'middle', u'right']","[0.8, 0.4, 0.2]","[u'medium', u'low', u'high']","black",51,"right","high","True","False",146,5350,NA
"A28AXX4NCWPH1F","Sun Sep 13 2020 12:48:10 GMT-0400 (Eastern Daylight Time)","Sun Sep 13 2020 13:05:09 GMT-0400 (Eastern Daylight Time)","Mozilla/5.0 (Windows NT 10.0; Win64; x64) AppleWebKit/537.36 (KHTML, like Gecko) Chrome/85.0.4183.102 Safari/537.36",110,"[0.9, 0.5, 0.1]","[0.8, 0.4, 0.2]","[u'red', u'blue', u'black']","[u'left', u'middle', u'right']","[0.8, 0.4, 0.2]","[u'medium', u'low', u'high']","black",51,"right","high","True","False",78,5450,NA
"A28AXX4NCWPH1F","Sun Sep 13 2020 12:48:10 GMT-0400 (Eastern Daylight Time)","Sun Sep 13 2020 13:05:09 GMT-0400 (Eastern Daylight Time)","Mozilla/5.0 (Windows NT 10.0; Win64; x64) AppleWebKit/537.36 (KHTML, like Gecko) Chrome/85.0.4183.102 Safari/537.36",111,"[0.9, 0.5, 0.1]","[0.8, 0.4, 0.2]","[u'red', u'blue', u'black']","[u'left', u'middle', u'right']","[0.8, 0.4, 0.2]","[u'medium', u'low', u'high']","black",51,"right","high","False","False",167,5400,NA
"A28AXX4NCWPH1F","Sun Sep 13 2020 12:48:10 GMT-0400 (Eastern Daylight Time)","Sun Sep 13 2020 13:05:09 GMT-0400 (Eastern Daylight Time)","Mozilla/5.0 (Windows NT 10.0; Win64; x64) AppleWebKit/537.36 (KHTML, like Gecko) Chrome/85.0.4183.102 Safari/537.36",112,"[0.9, 0.5, 0.1]","[0.8, 0.4, 0.2]","[u'red', u'blue', u'black']","[u'left', u'middle', u'right']","[0.8, 0.4, 0.2]","[u'medium', u'low', u'high']","red",49,"left","medium","True","False",128,5500,NA
"A28AXX4NCWPH1F","Sun Sep 13 2020 12:48:10 GMT-0400 (Eastern Daylight Time)","Sun Sep 13 2020 13:05:09 GMT-0400 (Eastern Daylight Time)","Mozilla/5.0 (Windows NT 10.0; Win64; x64) AppleWebKit/537.36 (KHTML, like Gecko) Chrome/85.0.4183.102 Safari/537.36",113,"[0.9, 0.5, 0.1]","[0.8, 0.4, 0.2]","[u'red', u'blue', u'black']","[u'left', u'middle', u'right']","[0.8, 0.4, 0.2]","[u'medium', u'low', u'high']","red",49,"left","medium","False","False",72,5450,NA
"A28AXX4NCWPH1F","Sun Sep 13 2020 12:48:10 GMT-0400 (Eastern Daylight Time)","Sun Sep 13 2020 13:05:09 GMT-0400 (Eastern Daylight Time)","Mozilla/5.0 (Windows NT 10.0; Win64; x64) AppleWebKit/537.36 (KHTML, like Gecko) Chrome/85.0.4183.102 Safari/537.36",114,"[0.9, 0.5, 0.1]","[0.8, 0.4, 0.2]","[u'red', u'blue', u'black']","[u'left', u'middle', u'right']","[0.8, 0.4, 0.2]","[u'medium', u'low', u'high']","blue",50,"middle","low","False","False",378,5400,NA
"A28AXX4NCWPH1F","Sun Sep 13 2020 12:48:10 GMT-0400 (Eastern Daylight Time)","Sun Sep 13 2020 13:05:09 GMT-0400 (Eastern Daylight Time)","Mozilla/5.0 (Windows NT 10.0; Win64; x64) AppleWebKit/537.36 (KHTML, like Gecko) Chrome/85.0.4183.102 Safari/537.36",115,"[0.9, 0.5, 0.1]","[0.8, 0.4, 0.2]","[u'red', u'blue', u'black']","[u'left', u'middle', u'right']","[0.8, 0.4, 0.2]","[u'medium', u'low', u'high']","red",49,"left","medium","True","False",139,5500,NA
"A28AXX4NCWPH1F","Sun Sep 13 2020 12:48:10 GMT-0400 (Eastern Daylight Time)","Sun Sep 13 2020 13:05:09 GMT-0400 (Eastern Daylight Time)","Mozilla/5.0 (Windows NT 10.0; Win64; x64) AppleWebKit/537.36 (KHTML, like Gecko) Chrome/85.0.4183.102 Safari/537.36",116,"[0.9, 0.5, 0.1]","[0.8, 0.4, 0.2]","[u'red', u'blue', u'black']","[u'left', u'middle', u'right']","[0.8, 0.4, 0.2]","[u'medium', u'low', u'high']","red",49,"left","medium","True","False",172,5600,NA
"A28AXX4NCWPH1F","Sun Sep 13 2020 12:48:10 GMT-0400 (Eastern Daylight Time)","Sun Sep 13 2020 13:05:09 GMT-0400 (Eastern Daylight Time)","Mozilla/5.0 (Windows NT 10.0; Win64; x64) AppleWebKit/537.36 (KHTML, like Gecko) Chrome/85.0.4183.102 Safari/537.36",117,"[0.9, 0.5, 0.1]","[0.8, 0.4, 0.2]","[u'red', u'blue', u'black']","[u'left', u'middle', u'right']","[0.8, 0.4, 0.2]","[u'medium', u'low', u'high']","red",49,"left","medium","True","False",130,5700,NA
"A28AXX4NCWPH1F","Sun Sep 13 2020 12:48:10 GMT-0400 (Eastern Daylight Time)","Sun Sep 13 2020 13:05:09 GMT-0400 (Eastern Daylight Time)","Mozilla/5.0 (Windows NT 10.0; Win64; x64) AppleWebKit/537.36 (KHTML, like Gecko) Chrome/85.0.4183.102 Safari/537.36",118,"[0.9, 0.5, 0.1]","[0.8, 0.4, 0.2]","[u'red', u'blue', u'black']","[u'left', u'middle', u'right']","[0.8, 0.4, 0.2]","[u'medium', u'low', u'high']","red",49,"left","medium","False","False",87,5650,NA
"A28AXX4NCWPH1F","Sun Sep 13 2020 12:48:10 GMT-0400 (Eastern Daylight Time)","Sun Sep 13 2020 13:05:09 GMT-0400 (Eastern Daylight Time)","Mozilla/5.0 (Windows NT 10.0; Win64; x64) AppleWebKit/537.36 (KHTML, like Gecko) Chrome/85.0.4183.102 Safari/537.36",119,"[0.9, 0.5, 0.1]","[0.8, 0.4, 0.2]","[u'red', u'blue', u'black']","[u'left', u'middle', u'right']","[0.8, 0.4, 0.2]","[u'medium', u'low', u'high']","black",51,"right","high","True","False",281,5750,NA
"A28AXX4NCWPH1F","Sun Sep 13 2020 12:48:10 GMT-0400 (Eastern Daylight Time)","Sun Sep 13 2020 13:05:09 GMT-0400 (Eastern Daylight Time)","Mozilla/5.0 (Windows NT 10.0; Win64; x64) AppleWebKit/537.36 (KHTML, like Gecko) Chrome/85.0.4183.102 Safari/537.36",120,"[0.9, 0.5, 0.1]","[0.8, 0.4, 0.2]","[u'red', u'blue', u'black']","[u'left', u'middle', u'right']","[0.8, 0.4, 0.2]","[u'medium', u'low', u'high']","black",51,"right","high","True","False",98,5850,NA
"A28AXX4NCWPH1F","Sun Sep 13 2020 12:48:10 GMT-0400 (Eastern Daylight Time)","Sun Sep 13 2020 13:05:09 GMT-0400 (Eastern Daylight Time)","Mozilla/5.0 (Windows NT 10.0; Win64; x64) AppleWebKit/537.36 (KHTML, like Gecko) Chrome/85.0.4183.102 Safari/537.36",121,"[0.9, 0.5, 0.1]","[0.8, 0.4, 0.2]","[u'red', u'blue', u'black']","[u'left', u'middle', u'right']","[0.8, 0.4, 0.2]","[u'high', u'medium', u'low']","red",49,"left","high","True","False",317,5950,NA
"A28AXX4NCWPH1F","Sun Sep 13 2020 12:48:10 GMT-0400 (Eastern Daylight Time)","Sun Sep 13 2020 13:05:09 GMT-0400 (Eastern Daylight Time)","Mozilla/5.0 (Windows NT 10.0; Win64; x64) AppleWebKit/537.36 (KHTML, like Gecko) Chrome/85.0.4183.102 Safari/537.36",122,"[0.9, 0.5, 0.1]","[0.8, 0.4, 0.2]","[u'red', u'blue', u'black']","[u'left', u'middle', u'right']","[0.8, 0.4, 0.2]","[u'high', u'medium', u'low']","red",49,"left","high","True","False",172,6050,NA
"A28AXX4NCWPH1F","Sun Sep 13 2020 12:48:10 GMT-0400 (Eastern Daylight Time)","Sun Sep 13 2020 13:05:09 GMT-0400 (Eastern Daylight Time)","Mozilla/5.0 (Windows NT 10.0; Win64; x64) AppleWebKit/537.36 (KHTML, like Gecko) Chrome/85.0.4183.102 Safari/537.36",123,"[0.9, 0.5, 0.1]","[0.8, 0.4, 0.2]","[u'red', u'blue', u'black']","[u'left', u'middle', u'right']","[0.8, 0.4, 0.2]","[u'high', u'medium', u'low']","red",49,"left","high","True","False",167,6150,NA
"A28AXX4NCWPH1F","Sun Sep 13 2020 12:48:10 GMT-0400 (Eastern Daylight Time)","Sun Sep 13 2020 13:05:09 GMT-0400 (Eastern Daylight Time)","Mozilla/5.0 (Windows NT 10.0; Win64; x64) AppleWebKit/537.36 (KHTML, like Gecko) Chrome/85.0.4183.102 Safari/537.36",124,"[0.9, 0.5, 0.1]","[0.8, 0.4, 0.2]","[u'red', u'blue', u'black']","[u'left', u'middle', u'right']","[0.8, 0.4, 0.2]","[u'high', u'medium', u'low']","red",49,"left","high","True","False",208,6250,NA
"A28AXX4NCWPH1F","Sun Sep 13 2020 12:48:10 GMT-0400 (Eastern Daylight Time)","Sun Sep 13 2020 13:05:09 GMT-0400 (Eastern Daylight Time)","Mozilla/5.0 (Windows NT 10.0; Win64; x64) AppleWebKit/537.36 (KHTML, like Gecko) Chrome/85.0.4183.102 Safari/537.36",125,"[0.9, 0.5, 0.1]","[0.8, 0.4, 0.2]","[u'red', u'blue', u'black']","[u'left', u'middle', u'right']","[0.8, 0.4, 0.2]","[u'high', u'medium', u'low']","red",49,"left","high","True","False",211,6350,NA
"A28AXX4NCWPH1F","Sun Sep 13 2020 12:48:10 GMT-0400 (Eastern Daylight Time)","Sun Sep 13 2020 13:05:09 GMT-0400 (Eastern Daylight Time)","Mozilla/5.0 (Windows NT 10.0; Win64; x64) AppleWebKit/537.36 (KHTML, like Gecko) Chrome/85.0.4183.102 Safari/537.36",126,"[0.9, 0.5, 0.1]","[0.8, 0.4, 0.2]","[u'red', u'blue', u'black']","[u'left', u'middle', u'right']","[0.8, 0.4, 0.2]","[u'high', u'medium', u'low']","red",49,"left","high","True","False",247,6450,NA
"A28AXX4NCWPH1F","Sun Sep 13 2020 12:48:10 GMT-0400 (Eastern Daylight Time)","Sun Sep 13 2020 13:05:09 GMT-0400 (Eastern Daylight Time)","Mozilla/5.0 (Windows NT 10.0; Win64; x64) AppleWebKit/537.36 (KHTML, like Gecko) Chrome/85.0.4183.102 Safari/537.36",127,"[0.9, 0.5, 0.1]","[0.8, 0.4, 0.2]","[u'red', u'blue', u'black']","[u'left', u'middle', u'right']","[0.8, 0.4, 0.2]","[u'high', u'medium', u'low']","red",49,"left","high","True","False",94,6550,NA
"A28AXX4NCWPH1F","Sun Sep 13 2020 12:48:10 GMT-0400 (Eastern Daylight Time)","Sun Sep 13 2020 13:05:09 GMT-0400 (Eastern Daylight Time)","Mozilla/5.0 (Windows NT 10.0; Win64; x64) AppleWebKit/537.36 (KHTML, like Gecko) Chrome/85.0.4183.102 Safari/537.36",128,"[0.9, 0.5, 0.1]","[0.8, 0.4, 0.2]","[u'red', u'blue', u'black']","[u'left', u'middle', u'right']","[0.8, 0.4, 0.2]","[u'high', u'medium', u'low']","red",49,"left","high","True","False",132,6650,NA
"A28AXX4NCWPH1F","Sun Sep 13 2020 12:48:10 GMT-0400 (Eastern Daylight Time)","Sun Sep 13 2020 13:05:09 GMT-0400 (Eastern Daylight Time)","Mozilla/5.0 (Windows NT 10.0; Win64; x64) AppleWebKit/537.36 (KHTML, like Gecko) Chrome/85.0.4183.102 Safari/537.36",129,"[0.9, 0.5, 0.1]","[0.8, 0.4, 0.2]","[u'red', u'blue', u'black']","[u'left', u'middle', u'right']","[0.8, 0.4, 0.2]","[u'high', u'medium', u'low']","red",49,"left","high","False","True",88,6600,NA
"A28AXX4NCWPH1F","Sun Sep 13 2020 12:48:10 GMT-0400 (Eastern Daylight Time)","Sun Sep 13 2020 13:05:09 GMT-0400 (Eastern Daylight Time)","Mozilla/5.0 (Windows NT 10.0; Win64; x64) AppleWebKit/537.36 (KHTML, like Gecko) Chrome/85.0.4183.102 Safari/537.36",130,"[0.9, 0.5, 0.1]","[0.8, 0.4, 0.2]","[u'red', u'blue', u'black']","[u'left', u'middle', u'right']","[0.8, 0.4, 0.2]","[u'low', u'high', u'medium']","blue",50,"middle","high","True","False",114,6700,NA
"A28AXX4NCWPH1F","Sun Sep 13 2020 12:48:10 GMT-0400 (Eastern Daylight Time)","Sun Sep 13 2020 13:05:09 GMT-0400 (Eastern Daylight Time)","Mozilla/5.0 (Windows NT 10.0; Win64; x64) AppleWebKit/537.36 (KHTML, like Gecko) Chrome/85.0.4183.102 Safari/537.36",131,"[0.9, 0.5, 0.1]","[0.8, 0.4, 0.2]","[u'red', u'blue', u'black']","[u'left', u'middle', u'right']","[0.8, 0.4, 0.2]","[u'low', u'high', u'medium']","blue",50,"middle","high","False","False",114,6650,NA
"A28AXX4NCWPH1F","Sun Sep 13 2020 12:48:10 GMT-0400 (Eastern Daylight Time)","Sun Sep 13 2020 13:05:09 GMT-0400 (Eastern Daylight Time)","Mozilla/5.0 (Windows NT 10.0; Win64; x64) AppleWebKit/537.36 (KHTML, like Gecko) Chrome/85.0.4183.102 Safari/537.36",132,"[0.9, 0.5, 0.1]","[0.8, 0.4, 0.2]","[u'red', u'blue', u'black']","[u'left', u'middle', u'right']","[0.8, 0.4, 0.2]","[u'low', u'high', u'medium']","red",49,"left","low","False","False",166,6600,NA
"A28AXX4NCWPH1F","Sun Sep 13 2020 12:48:10 GMT-0400 (Eastern Daylight Time)","Sun Sep 13 2020 13:05:09 GMT-0400 (Eastern Daylight Time)","Mozilla/5.0 (Windows NT 10.0; Win64; x64) AppleWebKit/537.36 (KHTML, like Gecko) Chrome/85.0.4183.102 Safari/537.36",133,"[0.9, 0.5, 0.1]","[0.8, 0.4, 0.2]","[u'red', u'blue', u'black']","[u'left', u'middle', u'right']","[0.8, 0.4, 0.2]","[u'low', u'high', u'medium']","black",51,"right","medium","False","False",236,6550,NA
"A28AXX4NCWPH1F","Sun Sep 13 2020 12:48:10 GMT-0400 (Eastern Daylight Time)","Sun Sep 13 2020 13:05:09 GMT-0400 (Eastern Daylight Time)","Mozilla/5.0 (Windows NT 10.0; Win64; x64) AppleWebKit/537.36 (KHTML, like Gecko) Chrome/85.0.4183.102 Safari/537.36",134,"[0.9, 0.5, 0.1]","[0.8, 0.4, 0.2]","[u'red', u'blue', u'black']","[u'left', u'middle', u'right']","[0.8, 0.4, 0.2]","[u'low', u'high', u'medium']","red",49,"left","low","False","False",166,6500,NA
"A28AXX4NCWPH1F","Sun Sep 13 2020 12:48:10 GMT-0400 (Eastern Daylight Time)","Sun Sep 13 2020 13:05:09 GMT-0400 (Eastern Daylight Time)","Mozilla/5.0 (Windows NT 10.0; Win64; x64) AppleWebKit/537.36 (KHTML, like Gecko) Chrome/85.0.4183.102 Safari/537.36",135,"[0.9, 0.5, 0.1]","[0.8, 0.4, 0.2]","[u'red', u'blue', u'black']","[u'left', u'middle', u'right']","[0.8, 0.4, 0.2]","[u'low', u'high', u'medium']","blue",50,"middle","high","True","False",151,6600,NA
"A28AXX4NCWPH1F","Sun Sep 13 2020 12:48:10 GMT-0400 (Eastern Daylight Time)","Sun Sep 13 2020 13:05:09 GMT-0400 (Eastern Daylight Time)","Mozilla/5.0 (Windows NT 10.0; Win64; x64) AppleWebKit/537.36 (KHTML, like Gecko) Chrome/85.0.4183.102 Safari/537.36",136,"[0.9, 0.5, 0.1]","[0.8, 0.4, 0.2]","[u'red', u'blue', u'black']","[u'left', u'middle', u'right']","[0.8, 0.4, 0.2]","[u'low', u'high', u'medium']","blue",50,"middle","high","True","False",49,6700,NA
"A28AXX4NCWPH1F","Sun Sep 13 2020 12:48:10 GMT-0400 (Eastern Daylight Time)","Sun Sep 13 2020 13:05:09 GMT-0400 (Eastern Daylight Time)","Mozilla/5.0 (Windows NT 10.0; Win64; x64) AppleWebKit/537.36 (KHTML, like Gecko) Chrome/85.0.4183.102 Safari/537.36",137,"[0.9, 0.5, 0.1]","[0.8, 0.4, 0.2]","[u'red', u'blue', u'black']","[u'left', u'middle', u'right']","[0.8, 0.4, 0.2]","[u'low', u'high', u'medium']","blue",50,"middle","high","False","False",48,6650,NA
"A28AXX4NCWPH1F","Sun Sep 13 2020 12:48:10 GMT-0400 (Eastern Daylight Time)","Sun Sep 13 2020 13:05:09 GMT-0400 (Eastern Daylight Time)","Mozilla/5.0 (Windows NT 10.0; Win64; x64) AppleWebKit/537.36 (KHTML, like Gecko) Chrome/85.0.4183.102 Safari/537.36",138,"[0.9, 0.5, 0.1]","[0.8, 0.4, 0.2]","[u'red', u'blue', u'black']","[u'left', u'middle', u'right']","[0.8, 0.4, 0.2]","[u'low', u'high', u'medium']","red",49,"left","low","False","False",79,6600,NA
"A28AXX4NCWPH1F","Sun Sep 13 2020 12:48:10 GMT-0400 (Eastern Daylight Time)","Sun Sep 13 2020 13:05:09 GMT-0400 (Eastern Daylight Time)","Mozilla/5.0 (Windows NT 10.0; Win64; x64) AppleWebKit/537.36 (KHTML, like Gecko) Chrome/85.0.4183.102 Safari/537.36",139,"[0.9, 0.5, 0.1]","[0.8, 0.4, 0.2]","[u'red', u'blue', u'black']","[u'left', u'middle', u'right']","[0.8, 0.4, 0.2]","[u'low', u'high', u'medium']","blue",50,"middle","high","True","False",371,6700,NA
"A28AXX4NCWPH1F","Sun Sep 13 2020 12:48:10 GMT-0400 (Eastern Daylight Time)","Sun Sep 13 2020 13:05:09 GMT-0400 (Eastern Daylight Time)","Mozilla/5.0 (Windows NT 10.0; Win64; x64) AppleWebKit/537.36 (KHTML, like Gecko) Chrome/85.0.4183.102 Safari/537.36",140,"[0.9, 0.5, 0.1]","[0.8, 0.4, 0.2]","[u'red', u'blue', u'black']","[u'left', u'middle', u'right']","[0.8, 0.4, 0.2]","[u'low', u'high', u'medium']","blue",50,"middle","high","True","False",93,6800,NA
"A28AXX4NCWPH1F","Sun Sep 13 2020 12:48:10 GMT-0400 (Eastern Daylight Time)","Sun Sep 13 2020 13:05:09 GMT-0400 (Eastern Daylight Time)","Mozilla/5.0 (Windows NT 10.0; Win64; x64) AppleWebKit/537.36 (KHTML, like Gecko) Chrome/85.0.4183.102 Safari/537.36",141,"[0.9, 0.5, 0.1]","[0.8, 0.4, 0.2]","[u'red', u'blue', u'black']","[u'left', u'middle', u'right']","[0.8, 0.4, 0.2]","[u'low', u'high', u'medium']","blue",50,"middle","high","False","False",88,6750,NA
"A28AXX4NCWPH1F","Sun Sep 13 2020 12:48:10 GMT-0400 (Eastern Daylight Time)","Sun Sep 13 2020 13:05:09 GMT-0400 (Eastern Daylight Time)","Mozilla/5.0 (Windows NT 10.0; Win64; x64) AppleWebKit/537.36 (KHTML, like Gecko) Chrome/85.0.4183.102 Safari/537.36",142,"[0.9, 0.5, 0.1]","[0.8, 0.4, 0.2]","[u'red', u'blue', u'black']","[u'left', u'middle', u'right']","[0.8, 0.4, 0.2]","[u'low', u'high', u'medium']","blue",50,"middle","high","True","False",215,6850,NA
"A28AXX4NCWPH1F","Sun Sep 13 2020 12:48:10 GMT-0400 (Eastern Daylight Time)","Sun Sep 13 2020 13:05:09 GMT-0400 (Eastern Daylight Time)","Mozilla/5.0 (Windows NT 10.0; Win64; x64) AppleWebKit/537.36 (KHTML, like Gecko) Chrome/85.0.4183.102 Safari/537.36",143,"[0.9, 0.5, 0.1]","[0.8, 0.4, 0.2]","[u'red', u'blue', u'black']","[u'left', u'middle', u'right']","[0.8, 0.4, 0.2]","[u'low', u'high', u'medium']","blue",50,"middle","high","True","False",51,6950,NA
"A28AXX4NCWPH1F","Sun Sep 13 2020 12:48:10 GMT-0400 (Eastern Daylight Time)","Sun Sep 13 2020 13:05:09 GMT-0400 (Eastern Daylight Time)","Mozilla/5.0 (Windows NT 10.0; Win64; x64) AppleWebKit/537.36 (KHTML, like Gecko) Chrome/85.0.4183.102 Safari/537.36",144,"[0.9, 0.5, 0.1]","[0.8, 0.4, 0.2]","[u'red', u'blue', u'black']","[u'left', u'middle', u'right']","[0.8, 0.4, 0.2]","[u'low', u'high', u'medium']","blue",50,"middle","high","True","True",195,7050,NA
"A28AXX4NCWPH1F","Sun Sep 13 2020 12:48:10 GMT-0400 (Eastern Daylight Time)","Sun Sep 13 2020 13:05:09 GMT-0400 (Eastern Daylight Time)","Mozilla/5.0 (Windows NT 10.0; Win64; x64) AppleWebKit/537.36 (KHTML, like Gecko) Chrome/85.0.4183.102 Safari/537.36",145,"[0.9, 0.5, 0.1]","[0.8, 0.4, 0.2]","[u'red', u'blue', u'black']","[u'left', u'middle', u'right']","[0.8, 0.4, 0.2]","[u'high', u'low', u'medium']","blue",50,"middle","low","False","False",85,7000,NA
"A28AXX4NCWPH1F","Sun Sep 13 2020 12:48:10 GMT-0400 (Eastern Daylight Time)","Sun Sep 13 2020 13:05:09 GMT-0400 (Eastern Daylight Time)","Mozilla/5.0 (Windows NT 10.0; Win64; x64) AppleWebKit/537.36 (KHTML, like Gecko) Chrome/85.0.4183.102 Safari/537.36",146,"[0.9, 0.5, 0.1]","[0.8, 0.4, 0.2]","[u'red', u'blue', u'black']","[u'left', u'middle', u'right']","[0.8, 0.4, 0.2]","[u'high', u'low', u'medium']","blue",50,"middle","low","False","False",94,6950,NA
"A28AXX4NCWPH1F","Sun Sep 13 2020 12:48:10 GMT-0400 (Eastern Daylight Time)","Sun Sep 13 2020 13:05:09 GMT-0400 (Eastern Daylight Time)","Mozilla/5.0 (Windows NT 10.0; Win64; x64) AppleWebKit/537.36 (KHTML, like Gecko) Chrome/85.0.4183.102 Safari/537.36",147,"[0.9, 0.5, 0.1]","[0.8, 0.4, 0.2]","[u'red', u'blue', u'black']","[u'left', u'middle', u'right']","[0.8, 0.4, 0.2]","[u'high', u'low', u'medium']","red",49,"left","high","False","False",213,6900,NA
"A28AXX4NCWPH1F","Sun Sep 13 2020 12:48:10 GMT-0400 (Eastern Daylight Time)","Sun Sep 13 2020 13:05:09 GMT-0400 (Eastern Daylight Time)","Mozilla/5.0 (Windows NT 10.0; Win64; x64) AppleWebKit/537.36 (KHTML, like Gecko) Chrome/85.0.4183.102 Safari/537.36",148,"[0.9, 0.5, 0.1]","[0.8, 0.4, 0.2]","[u'red', u'blue', u'black']","[u'left', u'middle', u'right']","[0.8, 0.4, 0.2]","[u'high', u'low', u'medium']","black",51,"right","medium","False","False",162,6850,NA
"A28AXX4NCWPH1F","Sun Sep 13 2020 12:48:10 GMT-0400 (Eastern Daylight Time)","Sun Sep 13 2020 13:05:09 GMT-0400 (Eastern Daylight Time)","Mozilla/5.0 (Windows NT 10.0; Win64; x64) AppleWebKit/537.36 (KHTML, like Gecko) Chrome/85.0.4183.102 Safari/537.36",149,"[0.9, 0.5, 0.1]","[0.8, 0.4, 0.2]","[u'red', u'blue', u'black']","[u'left', u'middle', u'right']","[0.8, 0.4, 0.2]","[u'high', u'low', u'medium']","red",49,"left","high","True","False",193,6950,NA
"A28AXX4NCWPH1F","Sun Sep 13 2020 12:48:10 GMT-0400 (Eastern Daylight Time)","Sun Sep 13 2020 13:05:09 GMT-0400 (Eastern Daylight Time)","Mozilla/5.0 (Windows NT 10.0; Win64; x64) AppleWebKit/537.36 (KHTML, like Gecko) Chrome/85.0.4183.102 Safari/537.36",150,"[0.9, 0.5, 0.1]","[0.8, 0.4, 0.2]","[u'red', u'blue', u'black']","[u'left', u'middle', u'right']","[0.8, 0.4, 0.2]","[u'high', u'low', u'medium']","red",49,"left","high","True","False",140,7050,NA
"A28AXX4NCWPH1F","Sun Sep 13 2020 12:48:10 GMT-0400 (Eastern Daylight Time)","Sun Sep 13 2020 13:05:09 GMT-0400 (Eastern Daylight Time)","Mozilla/5.0 (Windows NT 10.0; Win64; x64) AppleWebKit/537.36 (KHTML, like Gecko) Chrome/85.0.4183.102 Safari/537.36",151,"[0.9, 0.5, 0.1]","[0.8, 0.4, 0.2]","[u'red', u'blue', u'black']","[u'left', u'middle', u'right']","[0.8, 0.4, 0.2]","[u'high', u'low', u'medium']","red",49,"left","high","True","False",94,7150,NA
"A28AXX4NCWPH1F","Sun Sep 13 2020 12:48:10 GMT-0400 (Eastern Daylight Time)","Sun Sep 13 2020 13:05:09 GMT-0400 (Eastern Daylight Time)","Mozilla/5.0 (Windows NT 10.0; Win64; x64) AppleWebKit/537.36 (KHTML, like Gecko) Chrome/85.0.4183.102 Safari/537.36",152,"[0.9, 0.5, 0.1]","[0.8, 0.4, 0.2]","[u'red', u'blue', u'black']","[u'left', u'middle', u'right']","[0.8, 0.4, 0.2]","[u'high', u'low', u'medium']","red",49,"left","high","True","False",189,7250,NA
"A28AXX4NCWPH1F","Sun Sep 13 2020 12:48:10 GMT-0400 (Eastern Daylight Time)","Sun Sep 13 2020 13:05:09 GMT-0400 (Eastern Daylight Time)","Mozilla/5.0 (Windows NT 10.0; Win64; x64) AppleWebKit/537.36 (KHTML, like Gecko) Chrome/85.0.4183.102 Safari/537.36",153,"[0.9, 0.5, 0.1]","[0.8, 0.4, 0.2]","[u'red', u'blue', u'black']","[u'left', u'middle', u'right']","[0.8, 0.4, 0.2]","[u'high', u'low', u'medium']","red",49,"left","high","True","False",55,7350,NA
"A28AXX4NCWPH1F","Sun Sep 13 2020 12:48:10 GMT-0400 (Eastern Daylight Time)","Sun Sep 13 2020 13:05:09 GMT-0400 (Eastern Daylight Time)","Mozilla/5.0 (Windows NT 10.0; Win64; x64) AppleWebKit/537.36 (KHTML, like Gecko) Chrome/85.0.4183.102 Safari/537.36",154,"[0.9, 0.5, 0.1]","[0.8, 0.4, 0.2]","[u'red', u'blue', u'black']","[u'left', u'middle', u'right']","[0.8, 0.4, 0.2]","[u'high', u'low', u'medium']","red",49,"left","high","True","False",124,7450,NA
"A28AXX4NCWPH1F","Sun Sep 13 2020 12:48:10 GMT-0400 (Eastern Daylight Time)","Sun Sep 13 2020 13:05:09 GMT-0400 (Eastern Daylight Time)","Mozilla/5.0 (Windows NT 10.0; Win64; x64) AppleWebKit/537.36 (KHTML, like Gecko) Chrome/85.0.4183.102 Safari/537.36",155,"[0.9, 0.5, 0.1]","[0.8, 0.4, 0.2]","[u'red', u'blue', u'black']","[u'left', u'middle', u'right']","[0.8, 0.4, 0.2]","[u'high', u'low', u'medium']","red",49,"left","high","True","False",188,7550,NA
"A28AXX4NCWPH1F","Sun Sep 13 2020 12:48:10 GMT-0400 (Eastern Daylight Time)","Sun Sep 13 2020 13:05:09 GMT-0400 (Eastern Daylight Time)","Mozilla/5.0 (Windows NT 10.0; Win64; x64) AppleWebKit/537.36 (KHTML, like Gecko) Chrome/85.0.4183.102 Safari/537.36",156,"[0.9, 0.5, 0.1]","[0.8, 0.4, 0.2]","[u'red', u'blue', u'black']","[u'left', u'middle', u'right']","[0.8, 0.4, 0.2]","[u'high', u'low', u'medium']","red",49,"left","high","True","True",297,7650,NA
"A28AXX4NCWPH1F","Sun Sep 13 2020 12:48:10 GMT-0400 (Eastern Daylight Time)","Sun Sep 13 2020 13:05:09 GMT-0400 (Eastern Daylight Time)","Mozilla/5.0 (Windows NT 10.0; Win64; x64) AppleWebKit/537.36 (KHTML, like Gecko) Chrome/85.0.4183.102 Safari/537.36",157,"[0.9, 0.5, 0.1]","[0.8, 0.4, 0.2]","[u'red', u'blue', u'black']","[u'left', u'middle', u'right']","[0.8, 0.4, 0.2]","[u'medium', u'high', u'low']","red",49,"left","medium","True","False",636,7750,NA
"A28AXX4NCWPH1F","Sun Sep 13 2020 12:48:10 GMT-0400 (Eastern Daylight Time)","Sun Sep 13 2020 13:05:09 GMT-0400 (Eastern Daylight Time)","Mozilla/5.0 (Windows NT 10.0; Win64; x64) AppleWebKit/537.36 (KHTML, like Gecko) Chrome/85.0.4183.102 Safari/537.36",158,"[0.9, 0.5, 0.1]","[0.8, 0.4, 0.2]","[u'red', u'blue', u'black']","[u'left', u'middle', u'right']","[0.8, 0.4, 0.2]","[u'medium', u'high', u'low']","red",49,"left","medium","False","False",184,7700,NA
"A28AXX4NCWPH1F","Sun Sep 13 2020 12:48:10 GMT-0400 (Eastern Daylight Time)","Sun Sep 13 2020 13:05:09 GMT-0400 (Eastern Daylight Time)","Mozilla/5.0 (Windows NT 10.0; Win64; x64) AppleWebKit/537.36 (KHTML, like Gecko) Chrome/85.0.4183.102 Safari/537.36",159,"[0.9, 0.5, 0.1]","[0.8, 0.4, 0.2]","[u'red', u'blue', u'black']","[u'left', u'middle', u'right']","[0.8, 0.4, 0.2]","[u'medium', u'high', u'low']","red",49,"left","medium","False","False",121,7650,NA
"A28AXX4NCWPH1F","Sun Sep 13 2020 12:48:10 GMT-0400 (Eastern Daylight Time)","Sun Sep 13 2020 13:05:09 GMT-0400 (Eastern Daylight Time)","Mozilla/5.0 (Windows NT 10.0; Win64; x64) AppleWebKit/537.36 (KHTML, like Gecko) Chrome/85.0.4183.102 Safari/537.36",160,"[0.9, 0.5, 0.1]","[0.8, 0.4, 0.2]","[u'red', u'blue', u'black']","[u'left', u'middle', u'right']","[0.8, 0.4, 0.2]","[u'medium', u'high', u'low']","blue",50,"middle","high","True","False",180,7750,NA
