"src_subject_id","start_time","end_time","browser","index","first_half_probabilities","second_half_probabilities","deck_color","deck_position","deck_probabilities","deck_contingencies","response_color","key_press","response_position","response_probability","reward_type","trial_type","rt","reward_tally","exclusion_reason"
"A18WSAKX5YN2FB","Tue Sep 15 2020 10:41:49 GMT-0400 (Eastern Daylight Time)","Tue Sep 15 2020 10:51:13 GMT-0400 (Eastern Daylight Time)","Mozilla/5.0 (X11; CrOS x86_64 13310.59.0) AppleWebKit/537.36 (KHTML, like Gecko) Chrome/85.0.4183.84 Safari/537.36",1,"[0.9, 0.5, 0.1]","[0.8, 0.4, 0.2]","[u'red', u'blue', u'black']","[u'left', u'middle', u'right']","[0.9, 0.5, 0.1]","[u'low', u'high', u'medium']","red",49,"left","low","False","False",1180,-50,NA
"A18WSAKX5YN2FB","Tue Sep 15 2020 10:41:49 GMT-0400 (Eastern Daylight Time)","Tue Sep 15 2020 10:51:13 GMT-0400 (Eastern Daylight Time)","Mozilla/5.0 (X11; CrOS x86_64 13310.59.0) AppleWebKit/537.36 (KHTML, like Gecko) Chrome/85.0.4183.84 Safari/537.36",2,"[0.9, 0.5, 0.1]","[0.8, 0.4, 0.2]","[u'red', u'blue', u'black']","[u'left', u'middle', u'right']","[0.9, 0.5, 0.1]","[u'low', u'high', u'medium']","blue",50,"middle","high","True","False",510,50,NA
"A18WSAKX5YN2FB","Tue Sep 15 2020 10:41:49 GMT-0400 (Eastern Daylight Time)","Tue Sep 15 2020 10:51:13 GMT-0400 (Eastern Daylight Time)","Mozilla/5.0 (X11; CrOS x86_64 13310.59.0) AppleWebKit/537.36 (KHTML, like Gecko) Chrome/85.0.4183.84 Safari/537.36",3,"[0.9, 0.5, 0.1]","[0.8, 0.4, 0.2]","[u'red', u'blue', u'black']","[u'left', u'middle', u'right']","[0.9, 0.5, 0.1]","[u'low', u'high', u'medium']","blue",50,"middle","high","True","False",710,150,NA
"A18WSAKX5YN2FB","Tue Sep 15 2020 10:41:49 GMT-0400 (Eastern Daylight Time)","Tue Sep 15 2020 10:51:13 GMT-0400 (Eastern Daylight Time)","Mozilla/5.0 (X11; CrOS x86_64 13310.59.0) AppleWebKit/537.36 (KHTML, like Gecko) Chrome/85.0.4183.84 Safari/537.36",4,"[0.9, 0.5, 0.1]","[0.8, 0.4, 0.2]","[u'red', u'blue', u'black']","[u'left', u'middle', u'right']","[0.9, 0.5, 0.1]","[u'low', u'high', u'medium']","blue",50,"middle","high","True","False",777,250,NA
"A18WSAKX5YN2FB","Tue Sep 15 2020 10:41:49 GMT-0400 (Eastern Daylight Time)","Tue Sep 15 2020 10:51:13 GMT-0400 (Eastern Daylight Time)","Mozilla/5.0 (X11; CrOS x86_64 13310.59.0) AppleWebKit/537.36 (KHTML, like Gecko) Chrome/85.0.4183.84 Safari/537.36",5,"[0.9, 0.5, 0.1]","[0.8, 0.4, 0.2]","[u'red', u'blue', u'black']","[u'left', u'middle', u'right']","[0.9, 0.5, 0.1]","[u'low', u'high', u'medium']","blue",50,"middle","high","True","False",467,350,NA
"A18WSAKX5YN2FB","Tue Sep 15 2020 10:41:49 GMT-0400 (Eastern Daylight Time)","Tue Sep 15 2020 10:51:13 GMT-0400 (Eastern Daylight Time)","Mozilla/5.0 (X11; CrOS x86_64 13310.59.0) AppleWebKit/537.36 (KHTML, like Gecko) Chrome/85.0.4183.84 Safari/537.36",6,"[0.9, 0.5, 0.1]","[0.8, 0.4, 0.2]","[u'red', u'blue', u'black']","[u'left', u'middle', u'right']","[0.9, 0.5, 0.1]","[u'low', u'high', u'medium']","blue",50,"middle","high","True","False",424,450,NA
"A18WSAKX5YN2FB","Tue Sep 15 2020 10:41:49 GMT-0400 (Eastern Daylight Time)","Tue Sep 15 2020 10:51:13 GMT-0400 (Eastern Daylight Time)","Mozilla/5.0 (X11; CrOS x86_64 13310.59.0) AppleWebKit/537.36 (KHTML, like Gecko) Chrome/85.0.4183.84 Safari/537.36",7,"[0.9, 0.5, 0.1]","[0.8, 0.4, 0.2]","[u'red', u'blue', u'black']","[u'left', u'middle', u'right']","[0.9, 0.5, 0.1]","[u'low', u'high', u'medium']","blue",50,"middle","high","True","False",369,550,NA
"A18WSAKX5YN2FB","Tue Sep 15 2020 10:41:49 GMT-0400 (Eastern Daylight Time)","Tue Sep 15 2020 10:51:13 GMT-0400 (Eastern Daylight Time)","Mozilla/5.0 (X11; CrOS x86_64 13310.59.0) AppleWebKit/537.36 (KHTML, like Gecko) Chrome/85.0.4183.84 Safari/537.36",8,"[0.9, 0.5, 0.1]","[0.8, 0.4, 0.2]","[u'red', u'blue', u'black']","[u'left', u'middle', u'right']","[0.9, 0.5, 0.1]","[u'low', u'high', u'medium']","blue",50,"middle","high","True","False",389,650,NA
"A18WSAKX5YN2FB","Tue Sep 15 2020 10:41:49 GMT-0400 (Eastern Daylight Time)","Tue Sep 15 2020 10:51:13 GMT-0400 (Eastern Daylight Time)","Mozilla/5.0 (X11; CrOS x86_64 13310.59.0) AppleWebKit/537.36 (KHTML, like Gecko) Chrome/85.0.4183.84 Safari/537.36",9,"[0.9, 0.5, 0.1]","[0.8, 0.4, 0.2]","[u'red', u'blue', u'black']","[u'left', u'middle', u'right']","[0.9, 0.5, 0.1]","[u'low', u'high', u'medium']","blue",50,"middle","high","True","False",328,750,NA
"A18WSAKX5YN2FB","Tue Sep 15 2020 10:41:49 GMT-0400 (Eastern Daylight Time)","Tue Sep 15 2020 10:51:13 GMT-0400 (Eastern Daylight Time)","Mozilla/5.0 (X11; CrOS x86_64 13310.59.0) AppleWebKit/537.36 (KHTML, like Gecko) Chrome/85.0.4183.84 Safari/537.36",10,"[0.9, 0.5, 0.1]","[0.8, 0.4, 0.2]","[u'red', u'blue', u'black']","[u'left', u'middle', u'right']","[0.9, 0.5, 0.1]","[u'low', u'high', u'medium']","blue",50,"middle","high","True","True",291,850,NA
"A18WSAKX5YN2FB","Tue Sep 15 2020 10:41:49 GMT-0400 (Eastern Daylight Time)","Tue Sep 15 2020 10:51:13 GMT-0400 (Eastern Daylight Time)","Mozilla/5.0 (X11; CrOS x86_64 13310.59.0) AppleWebKit/537.36 (KHTML, like Gecko) Chrome/85.0.4183.84 Safari/537.36",11,"[0.9, 0.5, 0.1]","[0.8, 0.4, 0.2]","[u'red', u'blue', u'black']","[u'left', u'middle', u'right']","[0.9, 0.5, 0.1]","[u'medium', u'low', u'high']","blue",50,"middle","low","False","False",388,800,NA
"A18WSAKX5YN2FB","Tue Sep 15 2020 10:41:49 GMT-0400 (Eastern Daylight Time)","Tue Sep 15 2020 10:51:13 GMT-0400 (Eastern Daylight Time)","Mozilla/5.0 (X11; CrOS x86_64 13310.59.0) AppleWebKit/537.36 (KHTML, like Gecko) Chrome/85.0.4183.84 Safari/537.36",12,"[0.9, 0.5, 0.1]","[0.8, 0.4, 0.2]","[u'red', u'blue', u'black']","[u'left', u'middle', u'right']","[0.9, 0.5, 0.1]","[u'medium', u'low', u'high']","blue",50,"middle","low","False","False",13,750,NA
"A18WSAKX5YN2FB","Tue Sep 15 2020 10:41:49 GMT-0400 (Eastern Daylight Time)","Tue Sep 15 2020 10:51:13 GMT-0400 (Eastern Daylight Time)","Mozilla/5.0 (X11; CrOS x86_64 13310.59.0) AppleWebKit/537.36 (KHTML, like Gecko) Chrome/85.0.4183.84 Safari/537.36",13,"[0.9, 0.5, 0.1]","[0.8, 0.4, 0.2]","[u'red', u'blue', u'black']","[u'left', u'middle', u'right']","[0.9, 0.5, 0.1]","[u'medium', u'low', u'high']","black",51,"right","high","True","False",444,850,NA
"A18WSAKX5YN2FB","Tue Sep 15 2020 10:41:49 GMT-0400 (Eastern Daylight Time)","Tue Sep 15 2020 10:51:13 GMT-0400 (Eastern Daylight Time)","Mozilla/5.0 (X11; CrOS x86_64 13310.59.0) AppleWebKit/537.36 (KHTML, like Gecko) Chrome/85.0.4183.84 Safari/537.36",14,"[0.9, 0.5, 0.1]","[0.8, 0.4, 0.2]","[u'red', u'blue', u'black']","[u'left', u'middle', u'right']","[0.9, 0.5, 0.1]","[u'medium', u'low', u'high']","black",51,"right","high","False","False",539,800,NA
"A18WSAKX5YN2FB","Tue Sep 15 2020 10:41:49 GMT-0400 (Eastern Daylight Time)","Tue Sep 15 2020 10:51:13 GMT-0400 (Eastern Daylight Time)","Mozilla/5.0 (X11; CrOS x86_64 13310.59.0) AppleWebKit/537.36 (KHTML, like Gecko) Chrome/85.0.4183.84 Safari/537.36",15,"[0.9, 0.5, 0.1]","[0.8, 0.4, 0.2]","[u'red', u'blue', u'black']","[u'left', u'middle', u'right']","[0.9, 0.5, 0.1]","[u'medium', u'low', u'high']","blue",50,"middle","low","False","False",314,750,NA
"A18WSAKX5YN2FB","Tue Sep 15 2020 10:41:49 GMT-0400 (Eastern Daylight Time)","Tue Sep 15 2020 10:51:13 GMT-0400 (Eastern Daylight Time)","Mozilla/5.0 (X11; CrOS x86_64 13310.59.0) AppleWebKit/537.36 (KHTML, like Gecko) Chrome/85.0.4183.84 Safari/537.36",16,"[0.9, 0.5, 0.1]","[0.8, 0.4, 0.2]","[u'red', u'blue', u'black']","[u'left', u'middle', u'right']","[0.9, 0.5, 0.1]","[u'medium', u'low', u'high']","red",49,"left","medium","True","False",295,850,NA
"A18WSAKX5YN2FB","Tue Sep 15 2020 10:41:49 GMT-0400 (Eastern Daylight Time)","Tue Sep 15 2020 10:51:13 GMT-0400 (Eastern Daylight Time)","Mozilla/5.0 (X11; CrOS x86_64 13310.59.0) AppleWebKit/537.36 (KHTML, like Gecko) Chrome/85.0.4183.84 Safari/537.36",17,"[0.9, 0.5, 0.1]","[0.8, 0.4, 0.2]","[u'red', u'blue', u'black']","[u'left', u'middle', u'right']","[0.9, 0.5, 0.1]","[u'medium', u'low', u'high']","red",49,"left","medium","True","False",583,950,NA
"A18WSAKX5YN2FB","Tue Sep 15 2020 10:41:49 GMT-0400 (Eastern Daylight Time)","Tue Sep 15 2020 10:51:13 GMT-0400 (Eastern Daylight Time)","Mozilla/5.0 (X11; CrOS x86_64 13310.59.0) AppleWebKit/537.36 (KHTML, like Gecko) Chrome/85.0.4183.84 Safari/537.36",18,"[0.9, 0.5, 0.1]","[0.8, 0.4, 0.2]","[u'red', u'blue', u'black']","[u'left', u'middle', u'right']","[0.9, 0.5, 0.1]","[u'medium', u'low', u'high']","red",49,"left","medium","False","False",415,900,NA
"A18WSAKX5YN2FB","Tue Sep 15 2020 10:41:49 GMT-0400 (Eastern Daylight Time)","Tue Sep 15 2020 10:51:13 GMT-0400 (Eastern Daylight Time)","Mozilla/5.0 (X11; CrOS x86_64 13310.59.0) AppleWebKit/537.36 (KHTML, like Gecko) Chrome/85.0.4183.84 Safari/537.36",19,"[0.9, 0.5, 0.1]","[0.8, 0.4, 0.2]","[u'red', u'blue', u'black']","[u'left', u'middle', u'right']","[0.9, 0.5, 0.1]","[u'medium', u'low', u'high']","blue",50,"middle","low","False","False",229,850,NA
"A18WSAKX5YN2FB","Tue Sep 15 2020 10:41:49 GMT-0400 (Eastern Daylight Time)","Tue Sep 15 2020 10:51:13 GMT-0400 (Eastern Daylight Time)","Mozilla/5.0 (X11; CrOS x86_64 13310.59.0) AppleWebKit/537.36 (KHTML, like Gecko) Chrome/85.0.4183.84 Safari/537.36",20,"[0.9, 0.5, 0.1]","[0.8, 0.4, 0.2]","[u'red', u'blue', u'black']","[u'left', u'middle', u'right']","[0.9, 0.5, 0.1]","[u'medium', u'low', u'high']","black",51,"right","high","True","False",362,950,NA
"A18WSAKX5YN2FB","Tue Sep 15 2020 10:41:49 GMT-0400 (Eastern Daylight Time)","Tue Sep 15 2020 10:51:13 GMT-0400 (Eastern Daylight Time)","Mozilla/5.0 (X11; CrOS x86_64 13310.59.0) AppleWebKit/537.36 (KHTML, like Gecko) Chrome/85.0.4183.84 Safari/537.36",21,"[0.9, 0.5, 0.1]","[0.8, 0.4, 0.2]","[u'red', u'blue', u'black']","[u'left', u'middle', u'right']","[0.9, 0.5, 0.1]","[u'medium', u'low', u'high']","black",51,"right","high","True","False",635,1050,NA
"A18WSAKX5YN2FB","Tue Sep 15 2020 10:41:49 GMT-0400 (Eastern Daylight Time)","Tue Sep 15 2020 10:51:13 GMT-0400 (Eastern Daylight Time)","Mozilla/5.0 (X11; CrOS x86_64 13310.59.0) AppleWebKit/537.36 (KHTML, like Gecko) Chrome/85.0.4183.84 Safari/537.36",22,"[0.9, 0.5, 0.1]","[0.8, 0.4, 0.2]","[u'red', u'blue', u'black']","[u'left', u'middle', u'right']","[0.9, 0.5, 0.1]","[u'medium', u'low', u'high']","black",51,"right","high","True","False",367,1150,NA
"A18WSAKX5YN2FB","Tue Sep 15 2020 10:41:49 GMT-0400 (Eastern Daylight Time)","Tue Sep 15 2020 10:51:13 GMT-0400 (Eastern Daylight Time)","Mozilla/5.0 (X11; CrOS x86_64 13310.59.0) AppleWebKit/537.36 (KHTML, like Gecko) Chrome/85.0.4183.84 Safari/537.36",23,"[0.9, 0.5, 0.1]","[0.8, 0.4, 0.2]","[u'red', u'blue', u'black']","[u'left', u'middle', u'right']","[0.9, 0.5, 0.1]","[u'medium', u'low', u'high']","black",51,"right","high","True","False",364,1250,NA
"A18WSAKX5YN2FB","Tue Sep 15 2020 10:41:49 GMT-0400 (Eastern Daylight Time)","Tue Sep 15 2020 10:51:13 GMT-0400 (Eastern Daylight Time)","Mozilla/5.0 (X11; CrOS x86_64 13310.59.0) AppleWebKit/537.36 (KHTML, like Gecko) Chrome/85.0.4183.84 Safari/537.36",24,"[0.9, 0.5, 0.1]","[0.8, 0.4, 0.2]","[u'red', u'blue', u'black']","[u'left', u'middle', u'right']","[0.9, 0.5, 0.1]","[u'medium', u'low', u'high']","black",51,"right","high","False","False",324,1200,NA
"A18WSAKX5YN2FB","Tue Sep 15 2020 10:41:49 GMT-0400 (Eastern Daylight Time)","Tue Sep 15 2020 10:51:13 GMT-0400 (Eastern Daylight Time)","Mozilla/5.0 (X11; CrOS x86_64 13310.59.0) AppleWebKit/537.36 (KHTML, like Gecko) Chrome/85.0.4183.84 Safari/537.36",25,"[0.9, 0.5, 0.1]","[0.8, 0.4, 0.2]","[u'red', u'blue', u'black']","[u'left', u'middle', u'right']","[0.9, 0.5, 0.1]","[u'medium', u'low', u'high']","blue",50,"middle","low","False","False",224,1150,NA
"A18WSAKX5YN2FB","Tue Sep 15 2020 10:41:49 GMT-0400 (Eastern Daylight Time)","Tue Sep 15 2020 10:51:13 GMT-0400 (Eastern Daylight Time)","Mozilla/5.0 (X11; CrOS x86_64 13310.59.0) AppleWebKit/537.36 (KHTML, like Gecko) Chrome/85.0.4183.84 Safari/537.36",26,"[0.9, 0.5, 0.1]","[0.8, 0.4, 0.2]","[u'red', u'blue', u'black']","[u'left', u'middle', u'right']","[0.9, 0.5, 0.1]","[u'medium', u'low', u'high']","red",49,"left","medium","True","False",229,1250,NA
"A18WSAKX5YN2FB","Tue Sep 15 2020 10:41:49 GMT-0400 (Eastern Daylight Time)","Tue Sep 15 2020 10:51:13 GMT-0400 (Eastern Daylight Time)","Mozilla/5.0 (X11; CrOS x86_64 13310.59.0) AppleWebKit/537.36 (KHTML, like Gecko) Chrome/85.0.4183.84 Safari/537.36",27,"[0.9, 0.5, 0.1]","[0.8, 0.4, 0.2]","[u'red', u'blue', u'black']","[u'left', u'middle', u'right']","[0.9, 0.5, 0.1]","[u'medium', u'low', u'high']","red",49,"left","medium","False","False",283,1200,NA
"A18WSAKX5YN2FB","Tue Sep 15 2020 10:41:49 GMT-0400 (Eastern Daylight Time)","Tue Sep 15 2020 10:51:13 GMT-0400 (Eastern Daylight Time)","Mozilla/5.0 (X11; CrOS x86_64 13310.59.0) AppleWebKit/537.36 (KHTML, like Gecko) Chrome/85.0.4183.84 Safari/537.36",28,"[0.9, 0.5, 0.1]","[0.8, 0.4, 0.2]","[u'red', u'blue', u'black']","[u'left', u'middle', u'right']","[0.9, 0.5, 0.1]","[u'medium', u'low', u'high']","blue",50,"middle","low","False","False",230,1150,NA
"A18WSAKX5YN2FB","Tue Sep 15 2020 10:41:49 GMT-0400 (Eastern Daylight Time)","Tue Sep 15 2020 10:51:13 GMT-0400 (Eastern Daylight Time)","Mozilla/5.0 (X11; CrOS x86_64 13310.59.0) AppleWebKit/537.36 (KHTML, like Gecko) Chrome/85.0.4183.84 Safari/537.36",29,"[0.9, 0.5, 0.1]","[0.8, 0.4, 0.2]","[u'red', u'blue', u'black']","[u'left', u'middle', u'right']","[0.9, 0.5, 0.1]","[u'medium', u'low', u'high']","black",51,"right","high","True","False",257,1250,NA
"A18WSAKX5YN2FB","Tue Sep 15 2020 10:41:49 GMT-0400 (Eastern Daylight Time)","Tue Sep 15 2020 10:51:13 GMT-0400 (Eastern Daylight Time)","Mozilla/5.0 (X11; CrOS x86_64 13310.59.0) AppleWebKit/537.36 (KHTML, like Gecko) Chrome/85.0.4183.84 Safari/537.36",30,"[0.9, 0.5, 0.1]","[0.8, 0.4, 0.2]","[u'red', u'blue', u'black']","[u'left', u'middle', u'right']","[0.9, 0.5, 0.1]","[u'medium', u'low', u'high']","black",51,"right","high","True","False",390,1350,NA
"A18WSAKX5YN2FB","Tue Sep 15 2020 10:41:49 GMT-0400 (Eastern Daylight Time)","Tue Sep 15 2020 10:51:13 GMT-0400 (Eastern Daylight Time)","Mozilla/5.0 (X11; CrOS x86_64 13310.59.0) AppleWebKit/537.36 (KHTML, like Gecko) Chrome/85.0.4183.84 Safari/537.36",31,"[0.9, 0.5, 0.1]","[0.8, 0.4, 0.2]","[u'red', u'blue', u'black']","[u'left', u'middle', u'right']","[0.9, 0.5, 0.1]","[u'medium', u'low', u'high']","black",51,"right","high","True","False",469,1450,NA
"A18WSAKX5YN2FB","Tue Sep 15 2020 10:41:49 GMT-0400 (Eastern Daylight Time)","Tue Sep 15 2020 10:51:13 GMT-0400 (Eastern Daylight Time)","Mozilla/5.0 (X11; CrOS x86_64 13310.59.0) AppleWebKit/537.36 (KHTML, like Gecko) Chrome/85.0.4183.84 Safari/537.36",32,"[0.9, 0.5, 0.1]","[0.8, 0.4, 0.2]","[u'red', u'blue', u'black']","[u'left', u'middle', u'right']","[0.9, 0.5, 0.1]","[u'medium', u'low', u'high']","black",51,"right","high","True","False",404,1550,NA
"A18WSAKX5YN2FB","Tue Sep 15 2020 10:41:49 GMT-0400 (Eastern Daylight Time)","Tue Sep 15 2020 10:51:13 GMT-0400 (Eastern Daylight Time)","Mozilla/5.0 (X11; CrOS x86_64 13310.59.0) AppleWebKit/537.36 (KHTML, like Gecko) Chrome/85.0.4183.84 Safari/537.36",33,"[0.9, 0.5, 0.1]","[0.8, 0.4, 0.2]","[u'red', u'blue', u'black']","[u'left', u'middle', u'right']","[0.9, 0.5, 0.1]","[u'medium', u'low', u'high']","black",51,"right","high","False","False",516,1500,NA
"A18WSAKX5YN2FB","Tue Sep 15 2020 10:41:49 GMT-0400 (Eastern Daylight Time)","Tue Sep 15 2020 10:51:13 GMT-0400 (Eastern Daylight Time)","Mozilla/5.0 (X11; CrOS x86_64 13310.59.0) AppleWebKit/537.36 (KHTML, like Gecko) Chrome/85.0.4183.84 Safari/537.36",34,"[0.9, 0.5, 0.1]","[0.8, 0.4, 0.2]","[u'red', u'blue', u'black']","[u'left', u'middle', u'right']","[0.9, 0.5, 0.1]","[u'medium', u'low', u'high']","red",49,"left","medium","True","False",262,1600,NA
"A18WSAKX5YN2FB","Tue Sep 15 2020 10:41:49 GMT-0400 (Eastern Daylight Time)","Tue Sep 15 2020 10:51:13 GMT-0400 (Eastern Daylight Time)","Mozilla/5.0 (X11; CrOS x86_64 13310.59.0) AppleWebKit/537.36 (KHTML, like Gecko) Chrome/85.0.4183.84 Safari/537.36",35,"[0.9, 0.5, 0.1]","[0.8, 0.4, 0.2]","[u'red', u'blue', u'black']","[u'left', u'middle', u'right']","[0.9, 0.5, 0.1]","[u'medium', u'low', u'high']","red",49,"left","medium","False","False",359,1550,NA
"A18WSAKX5YN2FB","Tue Sep 15 2020 10:41:49 GMT-0400 (Eastern Daylight Time)","Tue Sep 15 2020 10:51:13 GMT-0400 (Eastern Daylight Time)","Mozilla/5.0 (X11; CrOS x86_64 13310.59.0) AppleWebKit/537.36 (KHTML, like Gecko) Chrome/85.0.4183.84 Safari/537.36",36,"[0.9, 0.5, 0.1]","[0.8, 0.4, 0.2]","[u'red', u'blue', u'black']","[u'left', u'middle', u'right']","[0.9, 0.5, 0.1]","[u'medium', u'low', u'high']","black",51,"right","high","True","False",274,1650,NA
"A18WSAKX5YN2FB","Tue Sep 15 2020 10:41:49 GMT-0400 (Eastern Daylight Time)","Tue Sep 15 2020 10:51:13 GMT-0400 (Eastern Daylight Time)","Mozilla/5.0 (X11; CrOS x86_64 13310.59.0) AppleWebKit/537.36 (KHTML, like Gecko) Chrome/85.0.4183.84 Safari/537.36",37,"[0.9, 0.5, 0.1]","[0.8, 0.4, 0.2]","[u'red', u'blue', u'black']","[u'left', u'middle', u'right']","[0.9, 0.5, 0.1]","[u'medium', u'low', u'high']","black",51,"right","high","True","False",942,1750,NA
"A18WSAKX5YN2FB","Tue Sep 15 2020 10:41:49 GMT-0400 (Eastern Daylight Time)","Tue Sep 15 2020 10:51:13 GMT-0400 (Eastern Daylight Time)","Mozilla/5.0 (X11; CrOS x86_64 13310.59.0) AppleWebKit/537.36 (KHTML, like Gecko) Chrome/85.0.4183.84 Safari/537.36",38,"[0.9, 0.5, 0.1]","[0.8, 0.4, 0.2]","[u'red', u'blue', u'black']","[u'left', u'middle', u'right']","[0.9, 0.5, 0.1]","[u'medium', u'low', u'high']","black",51,"right","high","True","False",412,1850,NA
"A18WSAKX5YN2FB","Tue Sep 15 2020 10:41:49 GMT-0400 (Eastern Daylight Time)","Tue Sep 15 2020 10:51:13 GMT-0400 (Eastern Daylight Time)","Mozilla/5.0 (X11; CrOS x86_64 13310.59.0) AppleWebKit/537.36 (KHTML, like Gecko) Chrome/85.0.4183.84 Safari/537.36",39,"[0.9, 0.5, 0.1]","[0.8, 0.4, 0.2]","[u'red', u'blue', u'black']","[u'left', u'middle', u'right']","[0.9, 0.5, 0.1]","[u'medium', u'low', u'high']","black",51,"right","high","True","False",341,1950,NA
"A18WSAKX5YN2FB","Tue Sep 15 2020 10:41:49 GMT-0400 (Eastern Daylight Time)","Tue Sep 15 2020 10:51:13 GMT-0400 (Eastern Daylight Time)","Mozilla/5.0 (X11; CrOS x86_64 13310.59.0) AppleWebKit/537.36 (KHTML, like Gecko) Chrome/85.0.4183.84 Safari/537.36",40,"[0.9, 0.5, 0.1]","[0.8, 0.4, 0.2]","[u'red', u'blue', u'black']","[u'left', u'middle', u'right']","[0.9, 0.5, 0.1]","[u'medium', u'low', u'high']","black",51,"right","high","True","False",354,2050,NA
"A18WSAKX5YN2FB","Tue Sep 15 2020 10:41:49 GMT-0400 (Eastern Daylight Time)","Tue Sep 15 2020 10:51:13 GMT-0400 (Eastern Daylight Time)","Mozilla/5.0 (X11; CrOS x86_64 13310.59.0) AppleWebKit/537.36 (KHTML, like Gecko) Chrome/85.0.4183.84 Safari/537.36",41,"[0.9, 0.5, 0.1]","[0.8, 0.4, 0.2]","[u'red', u'blue', u'black']","[u'left', u'middle', u'right']","[0.9, 0.5, 0.1]","[u'high', u'low', u'medium']","black",51,"right","medium","False","False",1508,2000,NA
"A18WSAKX5YN2FB","Tue Sep 15 2020 10:41:49 GMT-0400 (Eastern Daylight Time)","Tue Sep 15 2020 10:51:13 GMT-0400 (Eastern Daylight Time)","Mozilla/5.0 (X11; CrOS x86_64 13310.59.0) AppleWebKit/537.36 (KHTML, like Gecko) Chrome/85.0.4183.84 Safari/537.36",42,"[0.9, 0.5, 0.1]","[0.8, 0.4, 0.2]","[u'red', u'blue', u'black']","[u'left', u'middle', u'right']","[0.9, 0.5, 0.1]","[u'high', u'low', u'medium']","blue",50,"middle","low","False","False",302,1950,NA
"A18WSAKX5YN2FB","Tue Sep 15 2020 10:41:49 GMT-0400 (Eastern Daylight Time)","Tue Sep 15 2020 10:51:13 GMT-0400 (Eastern Daylight Time)","Mozilla/5.0 (X11; CrOS x86_64 13310.59.0) AppleWebKit/537.36 (KHTML, like Gecko) Chrome/85.0.4183.84 Safari/537.36",43,"[0.9, 0.5, 0.1]","[0.8, 0.4, 0.2]","[u'red', u'blue', u'black']","[u'left', u'middle', u'right']","[0.9, 0.5, 0.1]","[u'high', u'low', u'medium']","red",49,"left","high","True","False",344,2050,NA
"A18WSAKX5YN2FB","Tue Sep 15 2020 10:41:49 GMT-0400 (Eastern Daylight Time)","Tue Sep 15 2020 10:51:13 GMT-0400 (Eastern Daylight Time)","Mozilla/5.0 (X11; CrOS x86_64 13310.59.0) AppleWebKit/537.36 (KHTML, like Gecko) Chrome/85.0.4183.84 Safari/537.36",44,"[0.9, 0.5, 0.1]","[0.8, 0.4, 0.2]","[u'red', u'blue', u'black']","[u'left', u'middle', u'right']","[0.9, 0.5, 0.1]","[u'high', u'low', u'medium']","red",49,"left","high","True","False",340,2150,NA
"A18WSAKX5YN2FB","Tue Sep 15 2020 10:41:49 GMT-0400 (Eastern Daylight Time)","Tue Sep 15 2020 10:51:13 GMT-0400 (Eastern Daylight Time)","Mozilla/5.0 (X11; CrOS x86_64 13310.59.0) AppleWebKit/537.36 (KHTML, like Gecko) Chrome/85.0.4183.84 Safari/537.36",45,"[0.9, 0.5, 0.1]","[0.8, 0.4, 0.2]","[u'red', u'blue', u'black']","[u'left', u'middle', u'right']","[0.9, 0.5, 0.1]","[u'high', u'low', u'medium']","red",49,"left","high","True","False",255,2250,NA
"A18WSAKX5YN2FB","Tue Sep 15 2020 10:41:49 GMT-0400 (Eastern Daylight Time)","Tue Sep 15 2020 10:51:13 GMT-0400 (Eastern Daylight Time)","Mozilla/5.0 (X11; CrOS x86_64 13310.59.0) AppleWebKit/537.36 (KHTML, like Gecko) Chrome/85.0.4183.84 Safari/537.36",46,"[0.9, 0.5, 0.1]","[0.8, 0.4, 0.2]","[u'red', u'blue', u'black']","[u'left', u'middle', u'right']","[0.9, 0.5, 0.1]","[u'high', u'low', u'medium']","red",49,"left","high","True","False",295,2350,NA
"A18WSAKX5YN2FB","Tue Sep 15 2020 10:41:49 GMT-0400 (Eastern Daylight Time)","Tue Sep 15 2020 10:51:13 GMT-0400 (Eastern Daylight Time)","Mozilla/5.0 (X11; CrOS x86_64 13310.59.0) AppleWebKit/537.36 (KHTML, like Gecko) Chrome/85.0.4183.84 Safari/537.36",47,"[0.9, 0.5, 0.1]","[0.8, 0.4, 0.2]","[u'red', u'blue', u'black']","[u'left', u'middle', u'right']","[0.9, 0.5, 0.1]","[u'high', u'low', u'medium']","red",49,"left","high","True","False",275,2450,NA
"A18WSAKX5YN2FB","Tue Sep 15 2020 10:41:49 GMT-0400 (Eastern Daylight Time)","Tue Sep 15 2020 10:51:13 GMT-0400 (Eastern Daylight Time)","Mozilla/5.0 (X11; CrOS x86_64 13310.59.0) AppleWebKit/537.36 (KHTML, like Gecko) Chrome/85.0.4183.84 Safari/537.36",48,"[0.9, 0.5, 0.1]","[0.8, 0.4, 0.2]","[u'red', u'blue', u'black']","[u'left', u'middle', u'right']","[0.9, 0.5, 0.1]","[u'high', u'low', u'medium']","red",49,"left","high","True","False",261,2550,NA
"A18WSAKX5YN2FB","Tue Sep 15 2020 10:41:49 GMT-0400 (Eastern Daylight Time)","Tue Sep 15 2020 10:51:13 GMT-0400 (Eastern Daylight Time)","Mozilla/5.0 (X11; CrOS x86_64 13310.59.0) AppleWebKit/537.36 (KHTML, like Gecko) Chrome/85.0.4183.84 Safari/537.36",49,"[0.9, 0.5, 0.1]","[0.8, 0.4, 0.2]","[u'red', u'blue', u'black']","[u'left', u'middle', u'right']","[0.9, 0.5, 0.1]","[u'high', u'low', u'medium']","red",49,"left","high","True","False",269,2650,NA
"A18WSAKX5YN2FB","Tue Sep 15 2020 10:41:49 GMT-0400 (Eastern Daylight Time)","Tue Sep 15 2020 10:51:13 GMT-0400 (Eastern Daylight Time)","Mozilla/5.0 (X11; CrOS x86_64 13310.59.0) AppleWebKit/537.36 (KHTML, like Gecko) Chrome/85.0.4183.84 Safari/537.36",50,"[0.9, 0.5, 0.1]","[0.8, 0.4, 0.2]","[u'red', u'blue', u'black']","[u'left', u'middle', u'right']","[0.9, 0.5, 0.1]","[u'high', u'low', u'medium']","red",49,"left","high","True","False",279,2750,NA
"A18WSAKX5YN2FB","Tue Sep 15 2020 10:41:49 GMT-0400 (Eastern Daylight Time)","Tue Sep 15 2020 10:51:13 GMT-0400 (Eastern Daylight Time)","Mozilla/5.0 (X11; CrOS x86_64 13310.59.0) AppleWebKit/537.36 (KHTML, like Gecko) Chrome/85.0.4183.84 Safari/537.36",51,"[0.9, 0.5, 0.1]","[0.8, 0.4, 0.2]","[u'red', u'blue', u'black']","[u'left', u'middle', u'right']","[0.9, 0.5, 0.1]","[u'high', u'low', u'medium']","red",49,"left","high","True","True",325,2850,NA
"A18WSAKX5YN2FB","Tue Sep 15 2020 10:41:49 GMT-0400 (Eastern Daylight Time)","Tue Sep 15 2020 10:51:13 GMT-0400 (Eastern Daylight Time)","Mozilla/5.0 (X11; CrOS x86_64 13310.59.0) AppleWebKit/537.36 (KHTML, like Gecko) Chrome/85.0.4183.84 Safari/537.36",52,"[0.9, 0.5, 0.1]","[0.8, 0.4, 0.2]","[u'red', u'blue', u'black']","[u'left', u'middle', u'right']","[0.9, 0.5, 0.1]","[u'low', u'high', u'medium']","red",49,"left","low","False","False",275,2800,NA
"A18WSAKX5YN2FB","Tue Sep 15 2020 10:41:49 GMT-0400 (Eastern Daylight Time)","Tue Sep 15 2020 10:51:13 GMT-0400 (Eastern Daylight Time)","Mozilla/5.0 (X11; CrOS x86_64 13310.59.0) AppleWebKit/537.36 (KHTML, like Gecko) Chrome/85.0.4183.84 Safari/537.36",53,"[0.9, 0.5, 0.1]","[0.8, 0.4, 0.2]","[u'red', u'blue', u'black']","[u'left', u'middle', u'right']","[0.9, 0.5, 0.1]","[u'low', u'high', u'medium']","blue",50,"middle","high","True","False",18,2900,NA
"A18WSAKX5YN2FB","Tue Sep 15 2020 10:41:49 GMT-0400 (Eastern Daylight Time)","Tue Sep 15 2020 10:51:13 GMT-0400 (Eastern Daylight Time)","Mozilla/5.0 (X11; CrOS x86_64 13310.59.0) AppleWebKit/537.36 (KHTML, like Gecko) Chrome/85.0.4183.84 Safari/537.36",54,"[0.9, 0.5, 0.1]","[0.8, 0.4, 0.2]","[u'red', u'blue', u'black']","[u'left', u'middle', u'right']","[0.9, 0.5, 0.1]","[u'low', u'high', u'medium']","blue",50,"middle","high","True","False",285,3000,NA
"A18WSAKX5YN2FB","Tue Sep 15 2020 10:41:49 GMT-0400 (Eastern Daylight Time)","Tue Sep 15 2020 10:51:13 GMT-0400 (Eastern Daylight Time)","Mozilla/5.0 (X11; CrOS x86_64 13310.59.0) AppleWebKit/537.36 (KHTML, like Gecko) Chrome/85.0.4183.84 Safari/537.36",55,"[0.9, 0.5, 0.1]","[0.8, 0.4, 0.2]","[u'red', u'blue', u'black']","[u'left', u'middle', u'right']","[0.9, 0.5, 0.1]","[u'low', u'high', u'medium']","blue",50,"middle","high","True","False",308,3100,NA
"A18WSAKX5YN2FB","Tue Sep 15 2020 10:41:49 GMT-0400 (Eastern Daylight Time)","Tue Sep 15 2020 10:51:13 GMT-0400 (Eastern Daylight Time)","Mozilla/5.0 (X11; CrOS x86_64 13310.59.0) AppleWebKit/537.36 (KHTML, like Gecko) Chrome/85.0.4183.84 Safari/537.36",56,"[0.9, 0.5, 0.1]","[0.8, 0.4, 0.2]","[u'red', u'blue', u'black']","[u'left', u'middle', u'right']","[0.9, 0.5, 0.1]","[u'low', u'high', u'medium']","blue",50,"middle","high","True","False",310,3200,NA
"A18WSAKX5YN2FB","Tue Sep 15 2020 10:41:49 GMT-0400 (Eastern Daylight Time)","Tue Sep 15 2020 10:51:13 GMT-0400 (Eastern Daylight Time)","Mozilla/5.0 (X11; CrOS x86_64 13310.59.0) AppleWebKit/537.36 (KHTML, like Gecko) Chrome/85.0.4183.84 Safari/537.36",57,"[0.9, 0.5, 0.1]","[0.8, 0.4, 0.2]","[u'red', u'blue', u'black']","[u'left', u'middle', u'right']","[0.9, 0.5, 0.1]","[u'low', u'high', u'medium']","blue",50,"middle","high","True","False",306,3300,NA
"A18WSAKX5YN2FB","Tue Sep 15 2020 10:41:49 GMT-0400 (Eastern Daylight Time)","Tue Sep 15 2020 10:51:13 GMT-0400 (Eastern Daylight Time)","Mozilla/5.0 (X11; CrOS x86_64 13310.59.0) AppleWebKit/537.36 (KHTML, like Gecko) Chrome/85.0.4183.84 Safari/537.36",58,"[0.9, 0.5, 0.1]","[0.8, 0.4, 0.2]","[u'red', u'blue', u'black']","[u'left', u'middle', u'right']","[0.9, 0.5, 0.1]","[u'low', u'high', u'medium']","blue",50,"middle","high","True","False",419,3400,NA
"A18WSAKX5YN2FB","Tue Sep 15 2020 10:41:49 GMT-0400 (Eastern Daylight Time)","Tue Sep 15 2020 10:51:13 GMT-0400 (Eastern Daylight Time)","Mozilla/5.0 (X11; CrOS x86_64 13310.59.0) AppleWebKit/537.36 (KHTML, like Gecko) Chrome/85.0.4183.84 Safari/537.36",59,"[0.9, 0.5, 0.1]","[0.8, 0.4, 0.2]","[u'red', u'blue', u'black']","[u'left', u'middle', u'right']","[0.9, 0.5, 0.1]","[u'low', u'high', u'medium']","blue",50,"middle","high","True","False",370,3500,NA
"A18WSAKX5YN2FB","Tue Sep 15 2020 10:41:49 GMT-0400 (Eastern Daylight Time)","Tue Sep 15 2020 10:51:13 GMT-0400 (Eastern Daylight Time)","Mozilla/5.0 (X11; CrOS x86_64 13310.59.0) AppleWebKit/537.36 (KHTML, like Gecko) Chrome/85.0.4183.84 Safari/537.36",60,"[0.9, 0.5, 0.1]","[0.8, 0.4, 0.2]","[u'red', u'blue', u'black']","[u'left', u'middle', u'right']","[0.9, 0.5, 0.1]","[u'low', u'high', u'medium']","blue",50,"middle","high","True","False",251,3600,NA
"A18WSAKX5YN2FB","Tue Sep 15 2020 10:41:49 GMT-0400 (Eastern Daylight Time)","Tue Sep 15 2020 10:51:13 GMT-0400 (Eastern Daylight Time)","Mozilla/5.0 (X11; CrOS x86_64 13310.59.0) AppleWebKit/537.36 (KHTML, like Gecko) Chrome/85.0.4183.84 Safari/537.36",61,"[0.9, 0.5, 0.1]","[0.8, 0.4, 0.2]","[u'red', u'blue', u'black']","[u'left', u'middle', u'right']","[0.9, 0.5, 0.1]","[u'low', u'high', u'medium']","blue",50,"middle","high","True","True",392,3700,NA
"A18WSAKX5YN2FB","Tue Sep 15 2020 10:41:49 GMT-0400 (Eastern Daylight Time)","Tue Sep 15 2020 10:51:13 GMT-0400 (Eastern Daylight Time)","Mozilla/5.0 (X11; CrOS x86_64 13310.59.0) AppleWebKit/537.36 (KHTML, like Gecko) Chrome/85.0.4183.84 Safari/537.36",62,"[0.9, 0.5, 0.1]","[0.8, 0.4, 0.2]","[u'red', u'blue', u'black']","[u'left', u'middle', u'right']","[0.9, 0.5, 0.1]","[u'high', u'medium', u'low']","blue",50,"middle","medium","False","False",331,3650,NA
"A18WSAKX5YN2FB","Tue Sep 15 2020 10:41:49 GMT-0400 (Eastern Daylight Time)","Tue Sep 15 2020 10:51:13 GMT-0400 (Eastern Daylight Time)","Mozilla/5.0 (X11; CrOS x86_64 13310.59.0) AppleWebKit/537.36 (KHTML, like Gecko) Chrome/85.0.4183.84 Safari/537.36",63,"[0.9, 0.5, 0.1]","[0.8, 0.4, 0.2]","[u'red', u'blue', u'black']","[u'left', u'middle', u'right']","[0.9, 0.5, 0.1]","[u'high', u'medium', u'low']","red",49,"left","high","True","False",130,3750,NA
"A18WSAKX5YN2FB","Tue Sep 15 2020 10:41:49 GMT-0400 (Eastern Daylight Time)","Tue Sep 15 2020 10:51:13 GMT-0400 (Eastern Daylight Time)","Mozilla/5.0 (X11; CrOS x86_64 13310.59.0) AppleWebKit/537.36 (KHTML, like Gecko) Chrome/85.0.4183.84 Safari/537.36",64,"[0.9, 0.5, 0.1]","[0.8, 0.4, 0.2]","[u'red', u'blue', u'black']","[u'left', u'middle', u'right']","[0.9, 0.5, 0.1]","[u'high', u'medium', u'low']","red",49,"left","high","True","False",239,3850,NA
"A18WSAKX5YN2FB","Tue Sep 15 2020 10:41:49 GMT-0400 (Eastern Daylight Time)","Tue Sep 15 2020 10:51:13 GMT-0400 (Eastern Daylight Time)","Mozilla/5.0 (X11; CrOS x86_64 13310.59.0) AppleWebKit/537.36 (KHTML, like Gecko) Chrome/85.0.4183.84 Safari/537.36",65,"[0.9, 0.5, 0.1]","[0.8, 0.4, 0.2]","[u'red', u'blue', u'black']","[u'left', u'middle', u'right']","[0.9, 0.5, 0.1]","[u'high', u'medium', u'low']","red",49,"left","high","True","False",2783,3950,NA
"A18WSAKX5YN2FB","Tue Sep 15 2020 10:41:49 GMT-0400 (Eastern Daylight Time)","Tue Sep 15 2020 10:51:13 GMT-0400 (Eastern Daylight Time)","Mozilla/5.0 (X11; CrOS x86_64 13310.59.0) AppleWebKit/537.36 (KHTML, like Gecko) Chrome/85.0.4183.84 Safari/537.36",66,"[0.9, 0.5, 0.1]","[0.8, 0.4, 0.2]","[u'red', u'blue', u'black']","[u'left', u'middle', u'right']","[0.9, 0.5, 0.1]","[u'high', u'medium', u'low']","red",49,"left","high","True","False",436,4050,NA
"A18WSAKX5YN2FB","Tue Sep 15 2020 10:41:49 GMT-0400 (Eastern Daylight Time)","Tue Sep 15 2020 10:51:13 GMT-0400 (Eastern Daylight Time)","Mozilla/5.0 (X11; CrOS x86_64 13310.59.0) AppleWebKit/537.36 (KHTML, like Gecko) Chrome/85.0.4183.84 Safari/537.36",67,"[0.9, 0.5, 0.1]","[0.8, 0.4, 0.2]","[u'red', u'blue', u'black']","[u'left', u'middle', u'right']","[0.9, 0.5, 0.1]","[u'high', u'medium', u'low']","red",49,"left","high","True","False",522,4150,NA
"A18WSAKX5YN2FB","Tue Sep 15 2020 10:41:49 GMT-0400 (Eastern Daylight Time)","Tue Sep 15 2020 10:51:13 GMT-0400 (Eastern Daylight Time)","Mozilla/5.0 (X11; CrOS x86_64 13310.59.0) AppleWebKit/537.36 (KHTML, like Gecko) Chrome/85.0.4183.84 Safari/537.36",68,"[0.9, 0.5, 0.1]","[0.8, 0.4, 0.2]","[u'red', u'blue', u'black']","[u'left', u'middle', u'right']","[0.9, 0.5, 0.1]","[u'high', u'medium', u'low']","red",49,"left","high","True","False",542,4250,NA
"A18WSAKX5YN2FB","Tue Sep 15 2020 10:41:49 GMT-0400 (Eastern Daylight Time)","Tue Sep 15 2020 10:51:13 GMT-0400 (Eastern Daylight Time)","Mozilla/5.0 (X11; CrOS x86_64 13310.59.0) AppleWebKit/537.36 (KHTML, like Gecko) Chrome/85.0.4183.84 Safari/537.36",69,"[0.9, 0.5, 0.1]","[0.8, 0.4, 0.2]","[u'red', u'blue', u'black']","[u'left', u'middle', u'right']","[0.9, 0.5, 0.1]","[u'high', u'medium', u'low']","red",49,"left","high","True","False",386,4350,NA
"A18WSAKX5YN2FB","Tue Sep 15 2020 10:41:49 GMT-0400 (Eastern Daylight Time)","Tue Sep 15 2020 10:51:13 GMT-0400 (Eastern Daylight Time)","Mozilla/5.0 (X11; CrOS x86_64 13310.59.0) AppleWebKit/537.36 (KHTML, like Gecko) Chrome/85.0.4183.84 Safari/537.36",70,"[0.9, 0.5, 0.1]","[0.8, 0.4, 0.2]","[u'red', u'blue', u'black']","[u'left', u'middle', u'right']","[0.9, 0.5, 0.1]","[u'high', u'medium', u'low']","red",49,"left","high","False","False",461,4300,NA
"A18WSAKX5YN2FB","Tue Sep 15 2020 10:41:49 GMT-0400 (Eastern Daylight Time)","Tue Sep 15 2020 10:51:13 GMT-0400 (Eastern Daylight Time)","Mozilla/5.0 (X11; CrOS x86_64 13310.59.0) AppleWebKit/537.36 (KHTML, like Gecko) Chrome/85.0.4183.84 Safari/537.36",71,"[0.9, 0.5, 0.1]","[0.8, 0.4, 0.2]","[u'red', u'blue', u'black']","[u'left', u'middle', u'right']","[0.9, 0.5, 0.1]","[u'high', u'medium', u'low']","red",49,"left","high","True","True",11302,4400,NA
"A18WSAKX5YN2FB","Tue Sep 15 2020 10:41:49 GMT-0400 (Eastern Daylight Time)","Tue Sep 15 2020 10:51:13 GMT-0400 (Eastern Daylight Time)","Mozilla/5.0 (X11; CrOS x86_64 13310.59.0) AppleWebKit/537.36 (KHTML, like Gecko) Chrome/85.0.4183.84 Safari/537.36",72,"[0.9, 0.5, 0.1]","[0.8, 0.4, 0.2]","[u'red', u'blue', u'black']","[u'left', u'middle', u'right']","[0.9, 0.5, 0.1]","[u'low', u'high', u'medium']","red",49,"left","low","False","False",287,4350,NA
"A18WSAKX5YN2FB","Tue Sep 15 2020 10:41:49 GMT-0400 (Eastern Daylight Time)","Tue Sep 15 2020 10:51:13 GMT-0400 (Eastern Daylight Time)","Mozilla/5.0 (X11; CrOS x86_64 13310.59.0) AppleWebKit/537.36 (KHTML, like Gecko) Chrome/85.0.4183.84 Safari/537.36",73,"[0.9, 0.5, 0.1]","[0.8, 0.4, 0.2]","[u'red', u'blue', u'black']","[u'left', u'middle', u'right']","[0.9, 0.5, 0.1]","[u'low', u'high', u'medium']","blue",50,"middle","high","True","False",290,4450,NA
"A18WSAKX5YN2FB","Tue Sep 15 2020 10:41:49 GMT-0400 (Eastern Daylight Time)","Tue Sep 15 2020 10:51:13 GMT-0400 (Eastern Daylight Time)","Mozilla/5.0 (X11; CrOS x86_64 13310.59.0) AppleWebKit/537.36 (KHTML, like Gecko) Chrome/85.0.4183.84 Safari/537.36",74,"[0.9, 0.5, 0.1]","[0.8, 0.4, 0.2]","[u'red', u'blue', u'black']","[u'left', u'middle', u'right']","[0.9, 0.5, 0.1]","[u'low', u'high', u'medium']","blue",50,"middle","high","True","False",327,4550,NA
"A18WSAKX5YN2FB","Tue Sep 15 2020 10:41:49 GMT-0400 (Eastern Daylight Time)","Tue Sep 15 2020 10:51:13 GMT-0400 (Eastern Daylight Time)","Mozilla/5.0 (X11; CrOS x86_64 13310.59.0) AppleWebKit/537.36 (KHTML, like Gecko) Chrome/85.0.4183.84 Safari/537.36",75,"[0.9, 0.5, 0.1]","[0.8, 0.4, 0.2]","[u'red', u'blue', u'black']","[u'left', u'middle', u'right']","[0.9, 0.5, 0.1]","[u'low', u'high', u'medium']","blue",50,"middle","high","True","False",432,4650,NA
"A18WSAKX5YN2FB","Tue Sep 15 2020 10:41:49 GMT-0400 (Eastern Daylight Time)","Tue Sep 15 2020 10:51:13 GMT-0400 (Eastern Daylight Time)","Mozilla/5.0 (X11; CrOS x86_64 13310.59.0) AppleWebKit/537.36 (KHTML, like Gecko) Chrome/85.0.4183.84 Safari/537.36",76,"[0.9, 0.5, 0.1]","[0.8, 0.4, 0.2]","[u'red', u'blue', u'black']","[u'left', u'middle', u'right']","[0.9, 0.5, 0.1]","[u'low', u'high', u'medium']","blue",50,"middle","high","True","False",355,4750,NA
"A18WSAKX5YN2FB","Tue Sep 15 2020 10:41:49 GMT-0400 (Eastern Daylight Time)","Tue Sep 15 2020 10:51:13 GMT-0400 (Eastern Daylight Time)","Mozilla/5.0 (X11; CrOS x86_64 13310.59.0) AppleWebKit/537.36 (KHTML, like Gecko) Chrome/85.0.4183.84 Safari/537.36",77,"[0.9, 0.5, 0.1]","[0.8, 0.4, 0.2]","[u'red', u'blue', u'black']","[u'left', u'middle', u'right']","[0.9, 0.5, 0.1]","[u'low', u'high', u'medium']","blue",50,"middle","high","True","False",1174,4850,NA
"A18WSAKX5YN2FB","Tue Sep 15 2020 10:41:49 GMT-0400 (Eastern Daylight Time)","Tue Sep 15 2020 10:51:13 GMT-0400 (Eastern Daylight Time)","Mozilla/5.0 (X11; CrOS x86_64 13310.59.0) AppleWebKit/537.36 (KHTML, like Gecko) Chrome/85.0.4183.84 Safari/537.36",78,"[0.9, 0.5, 0.1]","[0.8, 0.4, 0.2]","[u'red', u'blue', u'black']","[u'left', u'middle', u'right']","[0.9, 0.5, 0.1]","[u'low', u'high', u'medium']","blue",50,"middle","high","True","False",317,4950,NA
"A18WSAKX5YN2FB","Tue Sep 15 2020 10:41:49 GMT-0400 (Eastern Daylight Time)","Tue Sep 15 2020 10:51:13 GMT-0400 (Eastern Daylight Time)","Mozilla/5.0 (X11; CrOS x86_64 13310.59.0) AppleWebKit/537.36 (KHTML, like Gecko) Chrome/85.0.4183.84 Safari/537.36",79,"[0.9, 0.5, 0.1]","[0.8, 0.4, 0.2]","[u'red', u'blue', u'black']","[u'left', u'middle', u'right']","[0.9, 0.5, 0.1]","[u'low', u'high', u'medium']","blue",50,"middle","high","True","False",389,5050,NA
"A18WSAKX5YN2FB","Tue Sep 15 2020 10:41:49 GMT-0400 (Eastern Daylight Time)","Tue Sep 15 2020 10:51:13 GMT-0400 (Eastern Daylight Time)","Mozilla/5.0 (X11; CrOS x86_64 13310.59.0) AppleWebKit/537.36 (KHTML, like Gecko) Chrome/85.0.4183.84 Safari/537.36",80,"[0.9, 0.5, 0.1]","[0.8, 0.4, 0.2]","[u'red', u'blue', u'black']","[u'left', u'middle', u'right']","[0.9, 0.5, 0.1]","[u'low', u'high', u'medium']","blue",50,"middle","high","True","False",633,5150,NA
"A18WSAKX5YN2FB","Tue Sep 15 2020 10:41:49 GMT-0400 (Eastern Daylight Time)","Tue Sep 15 2020 10:51:13 GMT-0400 (Eastern Daylight Time)","Mozilla/5.0 (X11; CrOS x86_64 13310.59.0) AppleWebKit/537.36 (KHTML, like Gecko) Chrome/85.0.4183.84 Safari/537.36",81,"[0.9, 0.5, 0.1]","[0.8, 0.4, 0.2]","[u'red', u'blue', u'black']","[u'left', u'middle', u'right']","[0.8, 0.4, 0.2]","[u'high', u'low', u'medium']","red",49,"left","high","True","False",938,5250,NA
"A18WSAKX5YN2FB","Tue Sep 15 2020 10:41:49 GMT-0400 (Eastern Daylight Time)","Tue Sep 15 2020 10:51:13 GMT-0400 (Eastern Daylight Time)","Mozilla/5.0 (X11; CrOS x86_64 13310.59.0) AppleWebKit/537.36 (KHTML, like Gecko) Chrome/85.0.4183.84 Safari/537.36",82,"[0.9, 0.5, 0.1]","[0.8, 0.4, 0.2]","[u'red', u'blue', u'black']","[u'left', u'middle', u'right']","[0.8, 0.4, 0.2]","[u'high', u'low', u'medium']","red",49,"left","high","True","False",399,5350,NA
"A18WSAKX5YN2FB","Tue Sep 15 2020 10:41:49 GMT-0400 (Eastern Daylight Time)","Tue Sep 15 2020 10:51:13 GMT-0400 (Eastern Daylight Time)","Mozilla/5.0 (X11; CrOS x86_64 13310.59.0) AppleWebKit/537.36 (KHTML, like Gecko) Chrome/85.0.4183.84 Safari/537.36",83,"[0.9, 0.5, 0.1]","[0.8, 0.4, 0.2]","[u'red', u'blue', u'black']","[u'left', u'middle', u'right']","[0.8, 0.4, 0.2]","[u'high', u'low', u'medium']","red",49,"left","high","False","False",355,5300,NA
"A18WSAKX5YN2FB","Tue Sep 15 2020 10:41:49 GMT-0400 (Eastern Daylight Time)","Tue Sep 15 2020 10:51:13 GMT-0400 (Eastern Daylight Time)","Mozilla/5.0 (X11; CrOS x86_64 13310.59.0) AppleWebKit/537.36 (KHTML, like Gecko) Chrome/85.0.4183.84 Safari/537.36",84,"[0.9, 0.5, 0.1]","[0.8, 0.4, 0.2]","[u'red', u'blue', u'black']","[u'left', u'middle', u'right']","[0.8, 0.4, 0.2]","[u'high', u'low', u'medium']","blue",50,"middle","low","True","False",95,5400,NA
"A18WSAKX5YN2FB","Tue Sep 15 2020 10:41:49 GMT-0400 (Eastern Daylight Time)","Tue Sep 15 2020 10:51:13 GMT-0400 (Eastern Daylight Time)","Mozilla/5.0 (X11; CrOS x86_64 13310.59.0) AppleWebKit/537.36 (KHTML, like Gecko) Chrome/85.0.4183.84 Safari/537.36",85,"[0.9, 0.5, 0.1]","[0.8, 0.4, 0.2]","[u'red', u'blue', u'black']","[u'left', u'middle', u'right']","[0.8, 0.4, 0.2]","[u'high', u'low', u'medium']","blue",50,"middle","low","False","False",310,5350,NA
"A18WSAKX5YN2FB","Tue Sep 15 2020 10:41:49 GMT-0400 (Eastern Daylight Time)","Tue Sep 15 2020 10:51:13 GMT-0400 (Eastern Daylight Time)","Mozilla/5.0 (X11; CrOS x86_64 13310.59.0) AppleWebKit/537.36 (KHTML, like Gecko) Chrome/85.0.4183.84 Safari/537.36",86,"[0.9, 0.5, 0.1]","[0.8, 0.4, 0.2]","[u'red', u'blue', u'black']","[u'left', u'middle', u'right']","[0.8, 0.4, 0.2]","[u'high', u'low', u'medium']","black",51,"right","medium","True","False",280,5450,NA
"A18WSAKX5YN2FB","Tue Sep 15 2020 10:41:49 GMT-0400 (Eastern Daylight Time)","Tue Sep 15 2020 10:51:13 GMT-0400 (Eastern Daylight Time)","Mozilla/5.0 (X11; CrOS x86_64 13310.59.0) AppleWebKit/537.36 (KHTML, like Gecko) Chrome/85.0.4183.84 Safari/537.36",87,"[0.9, 0.5, 0.1]","[0.8, 0.4, 0.2]","[u'red', u'blue', u'black']","[u'left', u'middle', u'right']","[0.8, 0.4, 0.2]","[u'high', u'low', u'medium']","black",51,"right","medium","False","False",362,5400,NA
"A18WSAKX5YN2FB","Tue Sep 15 2020 10:41:49 GMT-0400 (Eastern Daylight Time)","Tue Sep 15 2020 10:51:13 GMT-0400 (Eastern Daylight Time)","Mozilla/5.0 (X11; CrOS x86_64 13310.59.0) AppleWebKit/537.36 (KHTML, like Gecko) Chrome/85.0.4183.84 Safari/537.36",88,"[0.9, 0.5, 0.1]","[0.8, 0.4, 0.2]","[u'red', u'blue', u'black']","[u'left', u'middle', u'right']","[0.8, 0.4, 0.2]","[u'high', u'low', u'medium']","red",49,"left","high","True","False",279,5500,NA
"A18WSAKX5YN2FB","Tue Sep 15 2020 10:41:49 GMT-0400 (Eastern Daylight Time)","Tue Sep 15 2020 10:51:13 GMT-0400 (Eastern Daylight Time)","Mozilla/5.0 (X11; CrOS x86_64 13310.59.0) AppleWebKit/537.36 (KHTML, like Gecko) Chrome/85.0.4183.84 Safari/537.36",89,"[0.9, 0.5, 0.1]","[0.8, 0.4, 0.2]","[u'red', u'blue', u'black']","[u'left', u'middle', u'right']","[0.8, 0.4, 0.2]","[u'high', u'low', u'medium']","red",49,"left","high","True","False",319,5600,NA
"A18WSAKX5YN2FB","Tue Sep 15 2020 10:41:49 GMT-0400 (Eastern Daylight Time)","Tue Sep 15 2020 10:51:13 GMT-0400 (Eastern Daylight Time)","Mozilla/5.0 (X11; CrOS x86_64 13310.59.0) AppleWebKit/537.36 (KHTML, like Gecko) Chrome/85.0.4183.84 Safari/537.36",90,"[0.9, 0.5, 0.1]","[0.8, 0.4, 0.2]","[u'red', u'blue', u'black']","[u'left', u'middle', u'right']","[0.8, 0.4, 0.2]","[u'high', u'low', u'medium']","red",49,"left","high","False","False",438,5550,NA
"A18WSAKX5YN2FB","Tue Sep 15 2020 10:41:49 GMT-0400 (Eastern Daylight Time)","Tue Sep 15 2020 10:51:13 GMT-0400 (Eastern Daylight Time)","Mozilla/5.0 (X11; CrOS x86_64 13310.59.0) AppleWebKit/537.36 (KHTML, like Gecko) Chrome/85.0.4183.84 Safari/537.36",91,"[0.9, 0.5, 0.1]","[0.8, 0.4, 0.2]","[u'red', u'blue', u'black']","[u'left', u'middle', u'right']","[0.8, 0.4, 0.2]","[u'high', u'low', u'medium']","blue",50,"middle","low","False","False",215,5500,NA
"A18WSAKX5YN2FB","Tue Sep 15 2020 10:41:49 GMT-0400 (Eastern Daylight Time)","Tue Sep 15 2020 10:51:13 GMT-0400 (Eastern Daylight Time)","Mozilla/5.0 (X11; CrOS x86_64 13310.59.0) AppleWebKit/537.36 (KHTML, like Gecko) Chrome/85.0.4183.84 Safari/537.36",92,"[0.9, 0.5, 0.1]","[0.8, 0.4, 0.2]","[u'red', u'blue', u'black']","[u'left', u'middle', u'right']","[0.8, 0.4, 0.2]","[u'high', u'low', u'medium']","black",51,"right","medium","False","False",145,5450,NA
"A18WSAKX5YN2FB","Tue Sep 15 2020 10:41:49 GMT-0400 (Eastern Daylight Time)","Tue Sep 15 2020 10:51:13 GMT-0400 (Eastern Daylight Time)","Mozilla/5.0 (X11; CrOS x86_64 13310.59.0) AppleWebKit/537.36 (KHTML, like Gecko) Chrome/85.0.4183.84 Safari/537.36",93,"[0.9, 0.5, 0.1]","[0.8, 0.4, 0.2]","[u'red', u'blue', u'black']","[u'left', u'middle', u'right']","[0.8, 0.4, 0.2]","[u'high', u'low', u'medium']","red",49,"left","high","True","False",72,5550,NA
"A18WSAKX5YN2FB","Tue Sep 15 2020 10:41:49 GMT-0400 (Eastern Daylight Time)","Tue Sep 15 2020 10:51:13 GMT-0400 (Eastern Daylight Time)","Mozilla/5.0 (X11; CrOS x86_64 13310.59.0) AppleWebKit/537.36 (KHTML, like Gecko) Chrome/85.0.4183.84 Safari/537.36",94,"[0.9, 0.5, 0.1]","[0.8, 0.4, 0.2]","[u'red', u'blue', u'black']","[u'left', u'middle', u'right']","[0.8, 0.4, 0.2]","[u'high', u'low', u'medium']","red",49,"left","high","True","False",340,5650,NA
"A18WSAKX5YN2FB","Tue Sep 15 2020 10:41:49 GMT-0400 (Eastern Daylight Time)","Tue Sep 15 2020 10:51:13 GMT-0400 (Eastern Daylight Time)","Mozilla/5.0 (X11; CrOS x86_64 13310.59.0) AppleWebKit/537.36 (KHTML, like Gecko) Chrome/85.0.4183.84 Safari/537.36",95,"[0.9, 0.5, 0.1]","[0.8, 0.4, 0.2]","[u'red', u'blue', u'black']","[u'left', u'middle', u'right']","[0.8, 0.4, 0.2]","[u'high', u'low', u'medium']","red",49,"left","high","True","False",368,5750,NA
"A18WSAKX5YN2FB","Tue Sep 15 2020 10:41:49 GMT-0400 (Eastern Daylight Time)","Tue Sep 15 2020 10:51:13 GMT-0400 (Eastern Daylight Time)","Mozilla/5.0 (X11; CrOS x86_64 13310.59.0) AppleWebKit/537.36 (KHTML, like Gecko) Chrome/85.0.4183.84 Safari/537.36",96,"[0.9, 0.5, 0.1]","[0.8, 0.4, 0.2]","[u'red', u'blue', u'black']","[u'left', u'middle', u'right']","[0.8, 0.4, 0.2]","[u'high', u'low', u'medium']","red",49,"left","high","True","False",368,5850,NA
"A18WSAKX5YN2FB","Tue Sep 15 2020 10:41:49 GMT-0400 (Eastern Daylight Time)","Tue Sep 15 2020 10:51:13 GMT-0400 (Eastern Daylight Time)","Mozilla/5.0 (X11; CrOS x86_64 13310.59.0) AppleWebKit/537.36 (KHTML, like Gecko) Chrome/85.0.4183.84 Safari/537.36",97,"[0.9, 0.5, 0.1]","[0.8, 0.4, 0.2]","[u'red', u'blue', u'black']","[u'left', u'middle', u'right']","[0.8, 0.4, 0.2]","[u'high', u'low', u'medium']","red",49,"left","high","True","False",521,5950,NA
"A18WSAKX5YN2FB","Tue Sep 15 2020 10:41:49 GMT-0400 (Eastern Daylight Time)","Tue Sep 15 2020 10:51:13 GMT-0400 (Eastern Daylight Time)","Mozilla/5.0 (X11; CrOS x86_64 13310.59.0) AppleWebKit/537.36 (KHTML, like Gecko) Chrome/85.0.4183.84 Safari/537.36",98,"[0.9, 0.5, 0.1]","[0.8, 0.4, 0.2]","[u'red', u'blue', u'black']","[u'left', u'middle', u'right']","[0.8, 0.4, 0.2]","[u'high', u'low', u'medium']","red",49,"left","high","True","False",677,6050,NA
"A18WSAKX5YN2FB","Tue Sep 15 2020 10:41:49 GMT-0400 (Eastern Daylight Time)","Tue Sep 15 2020 10:51:13 GMT-0400 (Eastern Daylight Time)","Mozilla/5.0 (X11; CrOS x86_64 13310.59.0) AppleWebKit/537.36 (KHTML, like Gecko) Chrome/85.0.4183.84 Safari/537.36",99,"[0.9, 0.5, 0.1]","[0.8, 0.4, 0.2]","[u'red', u'blue', u'black']","[u'left', u'middle', u'right']","[0.8, 0.4, 0.2]","[u'high', u'low', u'medium']","red",49,"left","high","True","False",500,6150,NA
"A18WSAKX5YN2FB","Tue Sep 15 2020 10:41:49 GMT-0400 (Eastern Daylight Time)","Tue Sep 15 2020 10:51:13 GMT-0400 (Eastern Daylight Time)","Mozilla/5.0 (X11; CrOS x86_64 13310.59.0) AppleWebKit/537.36 (KHTML, like Gecko) Chrome/85.0.4183.84 Safari/537.36",100,"[0.9, 0.5, 0.1]","[0.8, 0.4, 0.2]","[u'red', u'blue', u'black']","[u'left', u'middle', u'right']","[0.8, 0.4, 0.2]","[u'high', u'low', u'medium']","red",49,"left","high","True","False",452,6250,NA
"A18WSAKX5YN2FB","Tue Sep 15 2020 10:41:49 GMT-0400 (Eastern Daylight Time)","Tue Sep 15 2020 10:51:13 GMT-0400 (Eastern Daylight Time)","Mozilla/5.0 (X11; CrOS x86_64 13310.59.0) AppleWebKit/537.36 (KHTML, like Gecko) Chrome/85.0.4183.84 Safari/537.36",101,"[0.9, 0.5, 0.1]","[0.8, 0.4, 0.2]","[u'red', u'blue', u'black']","[u'left', u'middle', u'right']","[0.8, 0.4, 0.2]","[u'high', u'low', u'medium']","red",49,"left","high","True","True",450,6350,NA
"A18WSAKX5YN2FB","Tue Sep 15 2020 10:41:49 GMT-0400 (Eastern Daylight Time)","Tue Sep 15 2020 10:51:13 GMT-0400 (Eastern Daylight Time)","Mozilla/5.0 (X11; CrOS x86_64 13310.59.0) AppleWebKit/537.36 (KHTML, like Gecko) Chrome/85.0.4183.84 Safari/537.36",102,"[0.9, 0.5, 0.1]","[0.8, 0.4, 0.2]","[u'red', u'blue', u'black']","[u'left', u'middle', u'right']","[0.8, 0.4, 0.2]","[u'low', u'high', u'medium']","red",49,"left","low","False","False",442,6300,NA
"A18WSAKX5YN2FB","Tue Sep 15 2020 10:41:49 GMT-0400 (Eastern Daylight Time)","Tue Sep 15 2020 10:51:13 GMT-0400 (Eastern Daylight Time)","Mozilla/5.0 (X11; CrOS x86_64 13310.59.0) AppleWebKit/537.36 (KHTML, like Gecko) Chrome/85.0.4183.84 Safari/537.36",103,"[0.9, 0.5, 0.1]","[0.8, 0.4, 0.2]","[u'red', u'blue', u'black']","[u'left', u'middle', u'right']","[0.8, 0.4, 0.2]","[u'low', u'high', u'medium']","blue",50,"middle","high","True","False",261,6400,NA
"A18WSAKX5YN2FB","Tue Sep 15 2020 10:41:49 GMT-0400 (Eastern Daylight Time)","Tue Sep 15 2020 10:51:13 GMT-0400 (Eastern Daylight Time)","Mozilla/5.0 (X11; CrOS x86_64 13310.59.0) AppleWebKit/537.36 (KHTML, like Gecko) Chrome/85.0.4183.84 Safari/537.36",104,"[0.9, 0.5, 0.1]","[0.8, 0.4, 0.2]","[u'red', u'blue', u'black']","[u'left', u'middle', u'right']","[0.8, 0.4, 0.2]","[u'low', u'high', u'medium']","blue",50,"middle","high","True","False",277,6500,NA
"A18WSAKX5YN2FB","Tue Sep 15 2020 10:41:49 GMT-0400 (Eastern Daylight Time)","Tue Sep 15 2020 10:51:13 GMT-0400 (Eastern Daylight Time)","Mozilla/5.0 (X11; CrOS x86_64 13310.59.0) AppleWebKit/537.36 (KHTML, like Gecko) Chrome/85.0.4183.84 Safari/537.36",105,"[0.9, 0.5, 0.1]","[0.8, 0.4, 0.2]","[u'red', u'blue', u'black']","[u'left', u'middle', u'right']","[0.8, 0.4, 0.2]","[u'low', u'high', u'medium']","blue",50,"middle","high","True","False",426,6600,NA
"A18WSAKX5YN2FB","Tue Sep 15 2020 10:41:49 GMT-0400 (Eastern Daylight Time)","Tue Sep 15 2020 10:51:13 GMT-0400 (Eastern Daylight Time)","Mozilla/5.0 (X11; CrOS x86_64 13310.59.0) AppleWebKit/537.36 (KHTML, like Gecko) Chrome/85.0.4183.84 Safari/537.36",106,"[0.9, 0.5, 0.1]","[0.8, 0.4, 0.2]","[u'red', u'blue', u'black']","[u'left', u'middle', u'right']","[0.8, 0.4, 0.2]","[u'low', u'high', u'medium']","blue",50,"middle","high","True","False",399,6700,NA
"A18WSAKX5YN2FB","Tue Sep 15 2020 10:41:49 GMT-0400 (Eastern Daylight Time)","Tue Sep 15 2020 10:51:13 GMT-0400 (Eastern Daylight Time)","Mozilla/5.0 (X11; CrOS x86_64 13310.59.0) AppleWebKit/537.36 (KHTML, like Gecko) Chrome/85.0.4183.84 Safari/537.36",107,"[0.9, 0.5, 0.1]","[0.8, 0.4, 0.2]","[u'red', u'blue', u'black']","[u'left', u'middle', u'right']","[0.8, 0.4, 0.2]","[u'low', u'high', u'medium']","blue",50,"middle","high","True","False",430,6800,NA
"A18WSAKX5YN2FB","Tue Sep 15 2020 10:41:49 GMT-0400 (Eastern Daylight Time)","Tue Sep 15 2020 10:51:13 GMT-0400 (Eastern Daylight Time)","Mozilla/5.0 (X11; CrOS x86_64 13310.59.0) AppleWebKit/537.36 (KHTML, like Gecko) Chrome/85.0.4183.84 Safari/537.36",108,"[0.9, 0.5, 0.1]","[0.8, 0.4, 0.2]","[u'red', u'blue', u'black']","[u'left', u'middle', u'right']","[0.8, 0.4, 0.2]","[u'low', u'high', u'medium']","blue",50,"middle","high","True","False",402,6900,NA
"A18WSAKX5YN2FB","Tue Sep 15 2020 10:41:49 GMT-0400 (Eastern Daylight Time)","Tue Sep 15 2020 10:51:13 GMT-0400 (Eastern Daylight Time)","Mozilla/5.0 (X11; CrOS x86_64 13310.59.0) AppleWebKit/537.36 (KHTML, like Gecko) Chrome/85.0.4183.84 Safari/537.36",109,"[0.9, 0.5, 0.1]","[0.8, 0.4, 0.2]","[u'red', u'blue', u'black']","[u'left', u'middle', u'right']","[0.8, 0.4, 0.2]","[u'low', u'high', u'medium']","blue",50,"middle","high","True","False",279,7000,NA
"A18WSAKX5YN2FB","Tue Sep 15 2020 10:41:49 GMT-0400 (Eastern Daylight Time)","Tue Sep 15 2020 10:51:13 GMT-0400 (Eastern Daylight Time)","Mozilla/5.0 (X11; CrOS x86_64 13310.59.0) AppleWebKit/537.36 (KHTML, like Gecko) Chrome/85.0.4183.84 Safari/537.36",110,"[0.9, 0.5, 0.1]","[0.8, 0.4, 0.2]","[u'red', u'blue', u'black']","[u'left', u'middle', u'right']","[0.8, 0.4, 0.2]","[u'low', u'high', u'medium']","blue",50,"middle","high","True","False",432,7100,NA
"A18WSAKX5YN2FB","Tue Sep 15 2020 10:41:49 GMT-0400 (Eastern Daylight Time)","Tue Sep 15 2020 10:51:13 GMT-0400 (Eastern Daylight Time)","Mozilla/5.0 (X11; CrOS x86_64 13310.59.0) AppleWebKit/537.36 (KHTML, like Gecko) Chrome/85.0.4183.84 Safari/537.36",111,"[0.9, 0.5, 0.1]","[0.8, 0.4, 0.2]","[u'red', u'blue', u'black']","[u'left', u'middle', u'right']","[0.8, 0.4, 0.2]","[u'low', u'high', u'medium']","blue",50,"middle","high","True","True",348,7200,NA
"A18WSAKX5YN2FB","Tue Sep 15 2020 10:41:49 GMT-0400 (Eastern Daylight Time)","Tue Sep 15 2020 10:51:13 GMT-0400 (Eastern Daylight Time)","Mozilla/5.0 (X11; CrOS x86_64 13310.59.0) AppleWebKit/537.36 (KHTML, like Gecko) Chrome/85.0.4183.84 Safari/537.36",112,"[0.9, 0.5, 0.1]","[0.8, 0.4, 0.2]","[u'red', u'blue', u'black']","[u'left', u'middle', u'right']","[0.8, 0.4, 0.2]","[u'low', u'medium', u'high']","blue",50,"middle","medium","False","False",373,7150,NA
"A18WSAKX5YN2FB","Tue Sep 15 2020 10:41:49 GMT-0400 (Eastern Daylight Time)","Tue Sep 15 2020 10:51:13 GMT-0400 (Eastern Daylight Time)","Mozilla/5.0 (X11; CrOS x86_64 13310.59.0) AppleWebKit/537.36 (KHTML, like Gecko) Chrome/85.0.4183.84 Safari/537.36",113,"[0.9, 0.5, 0.1]","[0.8, 0.4, 0.2]","[u'red', u'blue', u'black']","[u'left', u'middle', u'right']","[0.8, 0.4, 0.2]","[u'low', u'medium', u'high']","red",49,"left","low","False","False",303,7100,NA
"A18WSAKX5YN2FB","Tue Sep 15 2020 10:41:49 GMT-0400 (Eastern Daylight Time)","Tue Sep 15 2020 10:51:13 GMT-0400 (Eastern Daylight Time)","Mozilla/5.0 (X11; CrOS x86_64 13310.59.0) AppleWebKit/537.36 (KHTML, like Gecko) Chrome/85.0.4183.84 Safari/537.36",114,"[0.9, 0.5, 0.1]","[0.8, 0.4, 0.2]","[u'red', u'blue', u'black']","[u'left', u'middle', u'right']","[0.8, 0.4, 0.2]","[u'low', u'medium', u'high']","black",51,"right","high","True","False",143,7200,NA
"A18WSAKX5YN2FB","Tue Sep 15 2020 10:41:49 GMT-0400 (Eastern Daylight Time)","Tue Sep 15 2020 10:51:13 GMT-0400 (Eastern Daylight Time)","Mozilla/5.0 (X11; CrOS x86_64 13310.59.0) AppleWebKit/537.36 (KHTML, like Gecko) Chrome/85.0.4183.84 Safari/537.36",115,"[0.9, 0.5, 0.1]","[0.8, 0.4, 0.2]","[u'red', u'blue', u'black']","[u'left', u'middle', u'right']","[0.8, 0.4, 0.2]","[u'low', u'medium', u'high']","black",51,"right","high","True","False",257,7300,NA
"A18WSAKX5YN2FB","Tue Sep 15 2020 10:41:49 GMT-0400 (Eastern Daylight Time)","Tue Sep 15 2020 10:51:13 GMT-0400 (Eastern Daylight Time)","Mozilla/5.0 (X11; CrOS x86_64 13310.59.0) AppleWebKit/537.36 (KHTML, like Gecko) Chrome/85.0.4183.84 Safari/537.36",116,"[0.9, 0.5, 0.1]","[0.8, 0.4, 0.2]","[u'red', u'blue', u'black']","[u'left', u'middle', u'right']","[0.8, 0.4, 0.2]","[u'low', u'medium', u'high']","black",51,"right","high","True","False",338,7400,NA
"A18WSAKX5YN2FB","Tue Sep 15 2020 10:41:49 GMT-0400 (Eastern Daylight Time)","Tue Sep 15 2020 10:51:13 GMT-0400 (Eastern Daylight Time)","Mozilla/5.0 (X11; CrOS x86_64 13310.59.0) AppleWebKit/537.36 (KHTML, like Gecko) Chrome/85.0.4183.84 Safari/537.36",117,"[0.9, 0.5, 0.1]","[0.8, 0.4, 0.2]","[u'red', u'blue', u'black']","[u'left', u'middle', u'right']","[0.8, 0.4, 0.2]","[u'low', u'medium', u'high']","black",51,"right","high","True","False",416,7500,NA
"A18WSAKX5YN2FB","Tue Sep 15 2020 10:41:49 GMT-0400 (Eastern Daylight Time)","Tue Sep 15 2020 10:51:13 GMT-0400 (Eastern Daylight Time)","Mozilla/5.0 (X11; CrOS x86_64 13310.59.0) AppleWebKit/537.36 (KHTML, like Gecko) Chrome/85.0.4183.84 Safari/537.36",118,"[0.9, 0.5, 0.1]","[0.8, 0.4, 0.2]","[u'red', u'blue', u'black']","[u'left', u'middle', u'right']","[0.8, 0.4, 0.2]","[u'low', u'medium', u'high']","black",51,"right","high","True","False",370,7600,NA
"A18WSAKX5YN2FB","Tue Sep 15 2020 10:41:49 GMT-0400 (Eastern Daylight Time)","Tue Sep 15 2020 10:51:13 GMT-0400 (Eastern Daylight Time)","Mozilla/5.0 (X11; CrOS x86_64 13310.59.0) AppleWebKit/537.36 (KHTML, like Gecko) Chrome/85.0.4183.84 Safari/537.36",119,"[0.9, 0.5, 0.1]","[0.8, 0.4, 0.2]","[u'red', u'blue', u'black']","[u'left', u'middle', u'right']","[0.8, 0.4, 0.2]","[u'low', u'medium', u'high']","black",51,"right","high","True","False",319,7700,NA
"A18WSAKX5YN2FB","Tue Sep 15 2020 10:41:49 GMT-0400 (Eastern Daylight Time)","Tue Sep 15 2020 10:51:13 GMT-0400 (Eastern Daylight Time)","Mozilla/5.0 (X11; CrOS x86_64 13310.59.0) AppleWebKit/537.36 (KHTML, like Gecko) Chrome/85.0.4183.84 Safari/537.36",120,"[0.9, 0.5, 0.1]","[0.8, 0.4, 0.2]","[u'red', u'blue', u'black']","[u'left', u'middle', u'right']","[0.8, 0.4, 0.2]","[u'low', u'medium', u'high']","black",51,"right","high","True","False",304,7800,NA
"A18WSAKX5YN2FB","Tue Sep 15 2020 10:41:49 GMT-0400 (Eastern Daylight Time)","Tue Sep 15 2020 10:51:13 GMT-0400 (Eastern Daylight Time)","Mozilla/5.0 (X11; CrOS x86_64 13310.59.0) AppleWebKit/537.36 (KHTML, like Gecko) Chrome/85.0.4183.84 Safari/537.36",121,"[0.9, 0.5, 0.1]","[0.8, 0.4, 0.2]","[u'red', u'blue', u'black']","[u'left', u'middle', u'right']","[0.8, 0.4, 0.2]","[u'low', u'high', u'medium']","red",49,"left","low","False","False",509,7750,NA
"A18WSAKX5YN2FB","Tue Sep 15 2020 10:41:49 GMT-0400 (Eastern Daylight Time)","Tue Sep 15 2020 10:51:13 GMT-0400 (Eastern Daylight Time)","Mozilla/5.0 (X11; CrOS x86_64 13310.59.0) AppleWebKit/537.36 (KHTML, like Gecko) Chrome/85.0.4183.84 Safari/537.36",122,"[0.9, 0.5, 0.1]","[0.8, 0.4, 0.2]","[u'red', u'blue', u'black']","[u'left', u'middle', u'right']","[0.8, 0.4, 0.2]","[u'low', u'high', u'medium']","blue",50,"middle","high","True","False",435,7850,NA
"A18WSAKX5YN2FB","Tue Sep 15 2020 10:41:49 GMT-0400 (Eastern Daylight Time)","Tue Sep 15 2020 10:51:13 GMT-0400 (Eastern Daylight Time)","Mozilla/5.0 (X11; CrOS x86_64 13310.59.0) AppleWebKit/537.36 (KHTML, like Gecko) Chrome/85.0.4183.84 Safari/537.36",123,"[0.9, 0.5, 0.1]","[0.8, 0.4, 0.2]","[u'red', u'blue', u'black']","[u'left', u'middle', u'right']","[0.8, 0.4, 0.2]","[u'low', u'high', u'medium']","blue",50,"middle","high","True","False",296,7950,NA
"A18WSAKX5YN2FB","Tue Sep 15 2020 10:41:49 GMT-0400 (Eastern Daylight Time)","Tue Sep 15 2020 10:51:13 GMT-0400 (Eastern Daylight Time)","Mozilla/5.0 (X11; CrOS x86_64 13310.59.0) AppleWebKit/537.36 (KHTML, like Gecko) Chrome/85.0.4183.84 Safari/537.36",124,"[0.9, 0.5, 0.1]","[0.8, 0.4, 0.2]","[u'red', u'blue', u'black']","[u'left', u'middle', u'right']","[0.8, 0.4, 0.2]","[u'low', u'high', u'medium']","blue",50,"middle","high","True","False",367,8050,NA
"A18WSAKX5YN2FB","Tue Sep 15 2020 10:41:49 GMT-0400 (Eastern Daylight Time)","Tue Sep 15 2020 10:51:13 GMT-0400 (Eastern Daylight Time)","Mozilla/5.0 (X11; CrOS x86_64 13310.59.0) AppleWebKit/537.36 (KHTML, like Gecko) Chrome/85.0.4183.84 Safari/537.36",125,"[0.9, 0.5, 0.1]","[0.8, 0.4, 0.2]","[u'red', u'blue', u'black']","[u'left', u'middle', u'right']","[0.8, 0.4, 0.2]","[u'low', u'high', u'medium']","blue",50,"middle","high","True","False",327,8150,NA
"A18WSAKX5YN2FB","Tue Sep 15 2020 10:41:49 GMT-0400 (Eastern Daylight Time)","Tue Sep 15 2020 10:51:13 GMT-0400 (Eastern Daylight Time)","Mozilla/5.0 (X11; CrOS x86_64 13310.59.0) AppleWebKit/537.36 (KHTML, like Gecko) Chrome/85.0.4183.84 Safari/537.36",126,"[0.9, 0.5, 0.1]","[0.8, 0.4, 0.2]","[u'red', u'blue', u'black']","[u'left', u'middle', u'right']","[0.8, 0.4, 0.2]","[u'low', u'high', u'medium']","blue",50,"middle","high","False","False",306,8100,NA
"A18WSAKX5YN2FB","Tue Sep 15 2020 10:41:49 GMT-0400 (Eastern Daylight Time)","Tue Sep 15 2020 10:51:13 GMT-0400 (Eastern Daylight Time)","Mozilla/5.0 (X11; CrOS x86_64 13310.59.0) AppleWebKit/537.36 (KHTML, like Gecko) Chrome/85.0.4183.84 Safari/537.36",127,"[0.9, 0.5, 0.1]","[0.8, 0.4, 0.2]","[u'red', u'blue', u'black']","[u'left', u'middle', u'right']","[0.8, 0.4, 0.2]","[u'low', u'high', u'medium']","black",51,"right","medium","False","False",121,8050,NA
"A18WSAKX5YN2FB","Tue Sep 15 2020 10:41:49 GMT-0400 (Eastern Daylight Time)","Tue Sep 15 2020 10:51:13 GMT-0400 (Eastern Daylight Time)","Mozilla/5.0 (X11; CrOS x86_64 13310.59.0) AppleWebKit/537.36 (KHTML, like Gecko) Chrome/85.0.4183.84 Safari/537.36",128,"[0.9, 0.5, 0.1]","[0.8, 0.4, 0.2]","[u'red', u'blue', u'black']","[u'left', u'middle', u'right']","[0.8, 0.4, 0.2]","[u'low', u'high', u'medium']","red",49,"left","low","False","False",396,8000,NA
"A18WSAKX5YN2FB","Tue Sep 15 2020 10:41:49 GMT-0400 (Eastern Daylight Time)","Tue Sep 15 2020 10:51:13 GMT-0400 (Eastern Daylight Time)","Mozilla/5.0 (X11; CrOS x86_64 13310.59.0) AppleWebKit/537.36 (KHTML, like Gecko) Chrome/85.0.4183.84 Safari/537.36",129,"[0.9, 0.5, 0.1]","[0.8, 0.4, 0.2]","[u'red', u'blue', u'black']","[u'left', u'middle', u'right']","[0.8, 0.4, 0.2]","[u'low', u'high', u'medium']","blue",50,"middle","high","True","False",437,8100,NA
"A18WSAKX5YN2FB","Tue Sep 15 2020 10:41:49 GMT-0400 (Eastern Daylight Time)","Tue Sep 15 2020 10:51:13 GMT-0400 (Eastern Daylight Time)","Mozilla/5.0 (X11; CrOS x86_64 13310.59.0) AppleWebKit/537.36 (KHTML, like Gecko) Chrome/85.0.4183.84 Safari/537.36",130,"[0.9, 0.5, 0.1]","[0.8, 0.4, 0.2]","[u'red', u'blue', u'black']","[u'left', u'middle', u'right']","[0.8, 0.4, 0.2]","[u'low', u'high', u'medium']","blue",50,"middle","high","True","False",261,8200,NA
"A18WSAKX5YN2FB","Tue Sep 15 2020 10:41:49 GMT-0400 (Eastern Daylight Time)","Tue Sep 15 2020 10:51:13 GMT-0400 (Eastern Daylight Time)","Mozilla/5.0 (X11; CrOS x86_64 13310.59.0) AppleWebKit/537.36 (KHTML, like Gecko) Chrome/85.0.4183.84 Safari/537.36",131,"[0.9, 0.5, 0.1]","[0.8, 0.4, 0.2]","[u'red', u'blue', u'black']","[u'left', u'middle', u'right']","[0.8, 0.4, 0.2]","[u'low', u'high', u'medium']","blue",50,"middle","high","True","False",275,8300,NA
"A18WSAKX5YN2FB","Tue Sep 15 2020 10:41:49 GMT-0400 (Eastern Daylight Time)","Tue Sep 15 2020 10:51:13 GMT-0400 (Eastern Daylight Time)","Mozilla/5.0 (X11; CrOS x86_64 13310.59.0) AppleWebKit/537.36 (KHTML, like Gecko) Chrome/85.0.4183.84 Safari/537.36",132,"[0.9, 0.5, 0.1]","[0.8, 0.4, 0.2]","[u'red', u'blue', u'black']","[u'left', u'middle', u'right']","[0.8, 0.4, 0.2]","[u'low', u'high', u'medium']","blue",50,"middle","high","True","False",290,8400,NA
"A18WSAKX5YN2FB","Tue Sep 15 2020 10:41:49 GMT-0400 (Eastern Daylight Time)","Tue Sep 15 2020 10:51:13 GMT-0400 (Eastern Daylight Time)","Mozilla/5.0 (X11; CrOS x86_64 13310.59.0) AppleWebKit/537.36 (KHTML, like Gecko) Chrome/85.0.4183.84 Safari/537.36",133,"[0.9, 0.5, 0.1]","[0.8, 0.4, 0.2]","[u'red', u'blue', u'black']","[u'left', u'middle', u'right']","[0.8, 0.4, 0.2]","[u'low', u'high', u'medium']","blue",50,"middle","high","True","False",260,8500,NA
"A18WSAKX5YN2FB","Tue Sep 15 2020 10:41:49 GMT-0400 (Eastern Daylight Time)","Tue Sep 15 2020 10:51:13 GMT-0400 (Eastern Daylight Time)","Mozilla/5.0 (X11; CrOS x86_64 13310.59.0) AppleWebKit/537.36 (KHTML, like Gecko) Chrome/85.0.4183.84 Safari/537.36",134,"[0.9, 0.5, 0.1]","[0.8, 0.4, 0.2]","[u'red', u'blue', u'black']","[u'left', u'middle', u'right']","[0.8, 0.4, 0.2]","[u'low', u'high', u'medium']","blue",50,"middle","high","False","False",277,8450,NA
"A18WSAKX5YN2FB","Tue Sep 15 2020 10:41:49 GMT-0400 (Eastern Daylight Time)","Tue Sep 15 2020 10:51:13 GMT-0400 (Eastern Daylight Time)","Mozilla/5.0 (X11; CrOS x86_64 13310.59.0) AppleWebKit/537.36 (KHTML, like Gecko) Chrome/85.0.4183.84 Safari/537.36",135,"[0.9, 0.5, 0.1]","[0.8, 0.4, 0.2]","[u'red', u'blue', u'black']","[u'left', u'middle', u'right']","[0.8, 0.4, 0.2]","[u'low', u'high', u'medium']","red",49,"left","low","True","False",182,8550,NA
"A18WSAKX5YN2FB","Tue Sep 15 2020 10:41:49 GMT-0400 (Eastern Daylight Time)","Tue Sep 15 2020 10:51:13 GMT-0400 (Eastern Daylight Time)","Mozilla/5.0 (X11; CrOS x86_64 13310.59.0) AppleWebKit/537.36 (KHTML, like Gecko) Chrome/85.0.4183.84 Safari/537.36",136,"[0.9, 0.5, 0.1]","[0.8, 0.4, 0.2]","[u'red', u'blue', u'black']","[u'left', u'middle', u'right']","[0.8, 0.4, 0.2]","[u'low', u'high', u'medium']","red",49,"left","low","False","False",212,8500,NA
"A18WSAKX5YN2FB","Tue Sep 15 2020 10:41:49 GMT-0400 (Eastern Daylight Time)","Tue Sep 15 2020 10:51:13 GMT-0400 (Eastern Daylight Time)","Mozilla/5.0 (X11; CrOS x86_64 13310.59.0) AppleWebKit/537.36 (KHTML, like Gecko) Chrome/85.0.4183.84 Safari/537.36",137,"[0.9, 0.5, 0.1]","[0.8, 0.4, 0.2]","[u'red', u'blue', u'black']","[u'left', u'middle', u'right']","[0.8, 0.4, 0.2]","[u'low', u'high', u'medium']","blue",50,"middle","high","True","False",458,8600,NA
"A18WSAKX5YN2FB","Tue Sep 15 2020 10:41:49 GMT-0400 (Eastern Daylight Time)","Tue Sep 15 2020 10:51:13 GMT-0400 (Eastern Daylight Time)","Mozilla/5.0 (X11; CrOS x86_64 13310.59.0) AppleWebKit/537.36 (KHTML, like Gecko) Chrome/85.0.4183.84 Safari/537.36",138,"[0.9, 0.5, 0.1]","[0.8, 0.4, 0.2]","[u'red', u'blue', u'black']","[u'left', u'middle', u'right']","[0.8, 0.4, 0.2]","[u'low', u'high', u'medium']","blue",50,"middle","high","True","False",301,8700,NA
"A18WSAKX5YN2FB","Tue Sep 15 2020 10:41:49 GMT-0400 (Eastern Daylight Time)","Tue Sep 15 2020 10:51:13 GMT-0400 (Eastern Daylight Time)","Mozilla/5.0 (X11; CrOS x86_64 13310.59.0) AppleWebKit/537.36 (KHTML, like Gecko) Chrome/85.0.4183.84 Safari/537.36",139,"[0.9, 0.5, 0.1]","[0.8, 0.4, 0.2]","[u'red', u'blue', u'black']","[u'left', u'middle', u'right']","[0.8, 0.4, 0.2]","[u'low', u'high', u'medium']","blue",50,"middle","high","True","False",325,8800,NA
"A18WSAKX5YN2FB","Tue Sep 15 2020 10:41:49 GMT-0400 (Eastern Daylight Time)","Tue Sep 15 2020 10:51:13 GMT-0400 (Eastern Daylight Time)","Mozilla/5.0 (X11; CrOS x86_64 13310.59.0) AppleWebKit/537.36 (KHTML, like Gecko) Chrome/85.0.4183.84 Safari/537.36",140,"[0.9, 0.5, 0.1]","[0.8, 0.4, 0.2]","[u'red', u'blue', u'black']","[u'left', u'middle', u'right']","[0.8, 0.4, 0.2]","[u'low', u'high', u'medium']","blue",50,"middle","high","True","False",448,8900,NA
"A18WSAKX5YN2FB","Tue Sep 15 2020 10:41:49 GMT-0400 (Eastern Daylight Time)","Tue Sep 15 2020 10:51:13 GMT-0400 (Eastern Daylight Time)","Mozilla/5.0 (X11; CrOS x86_64 13310.59.0) AppleWebKit/537.36 (KHTML, like Gecko) Chrome/85.0.4183.84 Safari/537.36",141,"[0.9, 0.5, 0.1]","[0.8, 0.4, 0.2]","[u'red', u'blue', u'black']","[u'left', u'middle', u'right']","[0.8, 0.4, 0.2]","[u'low', u'high', u'medium']","blue",50,"middle","high","True","False",506,9000,NA
"A18WSAKX5YN2FB","Tue Sep 15 2020 10:41:49 GMT-0400 (Eastern Daylight Time)","Tue Sep 15 2020 10:51:13 GMT-0400 (Eastern Daylight Time)","Mozilla/5.0 (X11; CrOS x86_64 13310.59.0) AppleWebKit/537.36 (KHTML, like Gecko) Chrome/85.0.4183.84 Safari/537.36",142,"[0.9, 0.5, 0.1]","[0.8, 0.4, 0.2]","[u'red', u'blue', u'black']","[u'left', u'middle', u'right']","[0.8, 0.4, 0.2]","[u'low', u'high', u'medium']","blue",50,"middle","high","True","False",494,9100,NA
"A18WSAKX5YN2FB","Tue Sep 15 2020 10:41:49 GMT-0400 (Eastern Daylight Time)","Tue Sep 15 2020 10:51:13 GMT-0400 (Eastern Daylight Time)","Mozilla/5.0 (X11; CrOS x86_64 13310.59.0) AppleWebKit/537.36 (KHTML, like Gecko) Chrome/85.0.4183.84 Safari/537.36",143,"[0.9, 0.5, 0.1]","[0.8, 0.4, 0.2]","[u'red', u'blue', u'black']","[u'left', u'middle', u'right']","[0.8, 0.4, 0.2]","[u'low', u'high', u'medium']","blue",50,"middle","high","True","False",464,9200,NA
"A18WSAKX5YN2FB","Tue Sep 15 2020 10:41:49 GMT-0400 (Eastern Daylight Time)","Tue Sep 15 2020 10:51:13 GMT-0400 (Eastern Daylight Time)","Mozilla/5.0 (X11; CrOS x86_64 13310.59.0) AppleWebKit/537.36 (KHTML, like Gecko) Chrome/85.0.4183.84 Safari/537.36",144,"[0.9, 0.5, 0.1]","[0.8, 0.4, 0.2]","[u'red', u'blue', u'black']","[u'left', u'middle', u'right']","[0.8, 0.4, 0.2]","[u'low', u'high', u'medium']","blue",50,"middle","high","False","False",506,9150,NA
"A18WSAKX5YN2FB","Tue Sep 15 2020 10:41:49 GMT-0400 (Eastern Daylight Time)","Tue Sep 15 2020 10:51:13 GMT-0400 (Eastern Daylight Time)","Mozilla/5.0 (X11; CrOS x86_64 13310.59.0) AppleWebKit/537.36 (KHTML, like Gecko) Chrome/85.0.4183.84 Safari/537.36",145,"[0.9, 0.5, 0.1]","[0.8, 0.4, 0.2]","[u'red', u'blue', u'black']","[u'left', u'middle', u'right']","[0.8, 0.4, 0.2]","[u'low', u'high', u'medium']","red",49,"left","low","False","False",26,9100,NA
"A18WSAKX5YN2FB","Tue Sep 15 2020 10:41:49 GMT-0400 (Eastern Daylight Time)","Tue Sep 15 2020 10:51:13 GMT-0400 (Eastern Daylight Time)","Mozilla/5.0 (X11; CrOS x86_64 13310.59.0) AppleWebKit/537.36 (KHTML, like Gecko) Chrome/85.0.4183.84 Safari/537.36",146,"[0.9, 0.5, 0.1]","[0.8, 0.4, 0.2]","[u'red', u'blue', u'black']","[u'left', u'middle', u'right']","[0.8, 0.4, 0.2]","[u'low', u'high', u'medium']","black",51,"right","medium","True","False",31,9200,NA
"A18WSAKX5YN2FB","Tue Sep 15 2020 10:41:49 GMT-0400 (Eastern Daylight Time)","Tue Sep 15 2020 10:51:13 GMT-0400 (Eastern Daylight Time)","Mozilla/5.0 (X11; CrOS x86_64 13310.59.0) AppleWebKit/537.36 (KHTML, like Gecko) Chrome/85.0.4183.84 Safari/537.36",147,"[0.9, 0.5, 0.1]","[0.8, 0.4, 0.2]","[u'red', u'blue', u'black']","[u'left', u'middle', u'right']","[0.8, 0.4, 0.2]","[u'low', u'high', u'medium']","black",51,"right","medium","False","False",627,9150,NA
"A18WSAKX5YN2FB","Tue Sep 15 2020 10:41:49 GMT-0400 (Eastern Daylight Time)","Tue Sep 15 2020 10:51:13 GMT-0400 (Eastern Daylight Time)","Mozilla/5.0 (X11; CrOS x86_64 13310.59.0) AppleWebKit/537.36 (KHTML, like Gecko) Chrome/85.0.4183.84 Safari/537.36",148,"[0.9, 0.5, 0.1]","[0.8, 0.4, 0.2]","[u'red', u'blue', u'black']","[u'left', u'middle', u'right']","[0.8, 0.4, 0.2]","[u'low', u'high', u'medium']","blue",50,"middle","high","True","False",58,9250,NA
"A18WSAKX5YN2FB","Tue Sep 15 2020 10:41:49 GMT-0400 (Eastern Daylight Time)","Tue Sep 15 2020 10:51:13 GMT-0400 (Eastern Daylight Time)","Mozilla/5.0 (X11; CrOS x86_64 13310.59.0) AppleWebKit/537.36 (KHTML, like Gecko) Chrome/85.0.4183.84 Safari/537.36",149,"[0.9, 0.5, 0.1]","[0.8, 0.4, 0.2]","[u'red', u'blue', u'black']","[u'left', u'middle', u'right']","[0.8, 0.4, 0.2]","[u'low', u'high', u'medium']","blue",50,"middle","high","True","False",342,9350,NA
"A18WSAKX5YN2FB","Tue Sep 15 2020 10:41:49 GMT-0400 (Eastern Daylight Time)","Tue Sep 15 2020 10:51:13 GMT-0400 (Eastern Daylight Time)","Mozilla/5.0 (X11; CrOS x86_64 13310.59.0) AppleWebKit/537.36 (KHTML, like Gecko) Chrome/85.0.4183.84 Safari/537.36",150,"[0.9, 0.5, 0.1]","[0.8, 0.4, 0.2]","[u'red', u'blue', u'black']","[u'left', u'middle', u'right']","[0.8, 0.4, 0.2]","[u'low', u'high', u'medium']","blue",50,"middle","high","True","False",350,9450,NA
"A18WSAKX5YN2FB","Tue Sep 15 2020 10:41:49 GMT-0400 (Eastern Daylight Time)","Tue Sep 15 2020 10:51:13 GMT-0400 (Eastern Daylight Time)","Mozilla/5.0 (X11; CrOS x86_64 13310.59.0) AppleWebKit/537.36 (KHTML, like Gecko) Chrome/85.0.4183.84 Safari/537.36",151,"[0.9, 0.5, 0.1]","[0.8, 0.4, 0.2]","[u'red', u'blue', u'black']","[u'left', u'middle', u'right']","[0.8, 0.4, 0.2]","[u'low', u'high', u'medium']","blue",50,"middle","high","True","False",308,9550,NA
"A18WSAKX5YN2FB","Tue Sep 15 2020 10:41:49 GMT-0400 (Eastern Daylight Time)","Tue Sep 15 2020 10:51:13 GMT-0400 (Eastern Daylight Time)","Mozilla/5.0 (X11; CrOS x86_64 13310.59.0) AppleWebKit/537.36 (KHTML, like Gecko) Chrome/85.0.4183.84 Safari/537.36",152,"[0.9, 0.5, 0.1]","[0.8, 0.4, 0.2]","[u'red', u'blue', u'black']","[u'left', u'middle', u'right']","[0.8, 0.4, 0.2]","[u'low', u'high', u'medium']","blue",50,"middle","high","True","False",448,9650,NA
"A18WSAKX5YN2FB","Tue Sep 15 2020 10:41:49 GMT-0400 (Eastern Daylight Time)","Tue Sep 15 2020 10:51:13 GMT-0400 (Eastern Daylight Time)","Mozilla/5.0 (X11; CrOS x86_64 13310.59.0) AppleWebKit/537.36 (KHTML, like Gecko) Chrome/85.0.4183.84 Safari/537.36",153,"[0.9, 0.5, 0.1]","[0.8, 0.4, 0.2]","[u'red', u'blue', u'black']","[u'left', u'middle', u'right']","[0.8, 0.4, 0.2]","[u'low', u'high', u'medium']","blue",50,"middle","high","True","False",456,9750,NA
"A18WSAKX5YN2FB","Tue Sep 15 2020 10:41:49 GMT-0400 (Eastern Daylight Time)","Tue Sep 15 2020 10:51:13 GMT-0400 (Eastern Daylight Time)","Mozilla/5.0 (X11; CrOS x86_64 13310.59.0) AppleWebKit/537.36 (KHTML, like Gecko) Chrome/85.0.4183.84 Safari/537.36",154,"[0.9, 0.5, 0.1]","[0.8, 0.4, 0.2]","[u'red', u'blue', u'black']","[u'left', u'middle', u'right']","[0.8, 0.4, 0.2]","[u'low', u'high', u'medium']","blue",50,"middle","high","False","False",410,9700,NA
"A18WSAKX5YN2FB","Tue Sep 15 2020 10:41:49 GMT-0400 (Eastern Daylight Time)","Tue Sep 15 2020 10:51:13 GMT-0400 (Eastern Daylight Time)","Mozilla/5.0 (X11; CrOS x86_64 13310.59.0) AppleWebKit/537.36 (KHTML, like Gecko) Chrome/85.0.4183.84 Safari/537.36",155,"[0.9, 0.5, 0.1]","[0.8, 0.4, 0.2]","[u'red', u'blue', u'black']","[u'left', u'middle', u'right']","[0.8, 0.4, 0.2]","[u'low', u'high', u'medium']","red",49,"left","low","False","False",475,9650,NA
"A18WSAKX5YN2FB","Tue Sep 15 2020 10:41:49 GMT-0400 (Eastern Daylight Time)","Tue Sep 15 2020 10:51:13 GMT-0400 (Eastern Daylight Time)","Mozilla/5.0 (X11; CrOS x86_64 13310.59.0) AppleWebKit/537.36 (KHTML, like Gecko) Chrome/85.0.4183.84 Safari/537.36",156,"[0.9, 0.5, 0.1]","[0.8, 0.4, 0.2]","[u'red', u'blue', u'black']","[u'left', u'middle', u'right']","[0.8, 0.4, 0.2]","[u'low', u'high', u'medium']","black",51,"right","medium","True","False",235,9750,NA
"A18WSAKX5YN2FB","Tue Sep 15 2020 10:41:49 GMT-0400 (Eastern Daylight Time)","Tue Sep 15 2020 10:51:13 GMT-0400 (Eastern Daylight Time)","Mozilla/5.0 (X11; CrOS x86_64 13310.59.0) AppleWebKit/537.36 (KHTML, like Gecko) Chrome/85.0.4183.84 Safari/537.36",157,"[0.9, 0.5, 0.1]","[0.8, 0.4, 0.2]","[u'red', u'blue', u'black']","[u'left', u'middle', u'right']","[0.8, 0.4, 0.2]","[u'low', u'high', u'medium']","black",51,"right","medium","False","False",461,9700,NA
"A18WSAKX5YN2FB","Tue Sep 15 2020 10:41:49 GMT-0400 (Eastern Daylight Time)","Tue Sep 15 2020 10:51:13 GMT-0400 (Eastern Daylight Time)","Mozilla/5.0 (X11; CrOS x86_64 13310.59.0) AppleWebKit/537.36 (KHTML, like Gecko) Chrome/85.0.4183.84 Safari/537.36",158,"[0.9, 0.5, 0.1]","[0.8, 0.4, 0.2]","[u'red', u'blue', u'black']","[u'left', u'middle', u'right']","[0.8, 0.4, 0.2]","[u'low', u'high', u'medium']","blue",50,"middle","high","False","False",199,9650,NA
"A18WSAKX5YN2FB","Tue Sep 15 2020 10:41:49 GMT-0400 (Eastern Daylight Time)","Tue Sep 15 2020 10:51:13 GMT-0400 (Eastern Daylight Time)","Mozilla/5.0 (X11; CrOS x86_64 13310.59.0) AppleWebKit/537.36 (KHTML, like Gecko) Chrome/85.0.4183.84 Safari/537.36",159,"[0.9, 0.5, 0.1]","[0.8, 0.4, 0.2]","[u'red', u'blue', u'black']","[u'left', u'middle', u'right']","[0.8, 0.4, 0.2]","[u'low', u'high', u'medium']","red",49,"left","low","False","False",119,9600,NA
"A18WSAKX5YN2FB","Tue Sep 15 2020 10:41:49 GMT-0400 (Eastern Daylight Time)","Tue Sep 15 2020 10:51:13 GMT-0400 (Eastern Daylight Time)","Mozilla/5.0 (X11; CrOS x86_64 13310.59.0) AppleWebKit/537.36 (KHTML, like Gecko) Chrome/85.0.4183.84 Safari/537.36",160,"[0.9, 0.5, 0.1]","[0.8, 0.4, 0.2]","[u'red', u'blue', u'black']","[u'left', u'middle', u'right']","[0.8, 0.4, 0.2]","[u'low', u'high', u'medium']","blue",50,"middle","high","True","False",430,9700,NA
