"src_subject_id","start_time","end_time","browser","index","first_half_probabilities","second_half_probabilities","deck_color","deck_position","deck_probabilities","deck_contingencies","response_color","key_press","response_position","response_probability","reward_type","trial_type","rt","reward_tally","exclusion_reason"
"A1TMZLYXQAK8Q0","Tue Sep 15 2020 09:50:58 GMT-0600 (Mountain Daylight Time)","Tue Sep 15 2020 09:58:56 GMT-0600 (Mountain Daylight Time)","Mozilla/5.0 (Windows NT 10.0; Win64; x64) AppleWebKit/537.36 (KHTML, like Gecko) Chrome/85.0.4183.102 Safari/537.36",1,"[0.9, 0.5, 0.1]","[0.8, 0.4, 0.2]","[u'blue', u'red', u'black']","[u'left', u'middle', u'right']","[0.9, 0.5, 0.1]","[u'low', u'high', u'medium']","red",50,"middle","high","True","False",2185,100,NA
"A1TMZLYXQAK8Q0","Tue Sep 15 2020 09:50:58 GMT-0600 (Mountain Daylight Time)","Tue Sep 15 2020 09:58:56 GMT-0600 (Mountain Daylight Time)","Mozilla/5.0 (Windows NT 10.0; Win64; x64) AppleWebKit/537.36 (KHTML, like Gecko) Chrome/85.0.4183.102 Safari/537.36",2,"[0.9, 0.5, 0.1]","[0.8, 0.4, 0.2]","[u'blue', u'red', u'black']","[u'left', u'middle', u'right']","[0.9, 0.5, 0.1]","[u'low', u'high', u'medium']","red",50,"middle","high","True","False",432,200,NA
"A1TMZLYXQAK8Q0","Tue Sep 15 2020 09:50:58 GMT-0600 (Mountain Daylight Time)","Tue Sep 15 2020 09:58:56 GMT-0600 (Mountain Daylight Time)","Mozilla/5.0 (Windows NT 10.0; Win64; x64) AppleWebKit/537.36 (KHTML, like Gecko) Chrome/85.0.4183.102 Safari/537.36",3,"[0.9, 0.5, 0.1]","[0.8, 0.4, 0.2]","[u'blue', u'red', u'black']","[u'left', u'middle', u'right']","[0.9, 0.5, 0.1]","[u'low', u'high', u'medium']","red",50,"middle","high","True","False",472,300,NA
"A1TMZLYXQAK8Q0","Tue Sep 15 2020 09:50:58 GMT-0600 (Mountain Daylight Time)","Tue Sep 15 2020 09:58:56 GMT-0600 (Mountain Daylight Time)","Mozilla/5.0 (Windows NT 10.0; Win64; x64) AppleWebKit/537.36 (KHTML, like Gecko) Chrome/85.0.4183.102 Safari/537.36",4,"[0.9, 0.5, 0.1]","[0.8, 0.4, 0.2]","[u'blue', u'red', u'black']","[u'left', u'middle', u'right']","[0.9, 0.5, 0.1]","[u'low', u'high', u'medium']","red",50,"middle","high","True","False",798,400,NA
"A1TMZLYXQAK8Q0","Tue Sep 15 2020 09:50:58 GMT-0600 (Mountain Daylight Time)","Tue Sep 15 2020 09:58:56 GMT-0600 (Mountain Daylight Time)","Mozilla/5.0 (Windows NT 10.0; Win64; x64) AppleWebKit/537.36 (KHTML, like Gecko) Chrome/85.0.4183.102 Safari/537.36",5,"[0.9, 0.5, 0.1]","[0.8, 0.4, 0.2]","[u'blue', u'red', u'black']","[u'left', u'middle', u'right']","[0.9, 0.5, 0.1]","[u'low', u'high', u'medium']","red",50,"middle","high","True","False",411,500,NA
"A1TMZLYXQAK8Q0","Tue Sep 15 2020 09:50:58 GMT-0600 (Mountain Daylight Time)","Tue Sep 15 2020 09:58:56 GMT-0600 (Mountain Daylight Time)","Mozilla/5.0 (Windows NT 10.0; Win64; x64) AppleWebKit/537.36 (KHTML, like Gecko) Chrome/85.0.4183.102 Safari/537.36",6,"[0.9, 0.5, 0.1]","[0.8, 0.4, 0.2]","[u'blue', u'red', u'black']","[u'left', u'middle', u'right']","[0.9, 0.5, 0.1]","[u'low', u'high', u'medium']","red",50,"middle","high","True","False",883,600,NA
"A1TMZLYXQAK8Q0","Tue Sep 15 2020 09:50:58 GMT-0600 (Mountain Daylight Time)","Tue Sep 15 2020 09:58:56 GMT-0600 (Mountain Daylight Time)","Mozilla/5.0 (Windows NT 10.0; Win64; x64) AppleWebKit/537.36 (KHTML, like Gecko) Chrome/85.0.4183.102 Safari/537.36",7,"[0.9, 0.5, 0.1]","[0.8, 0.4, 0.2]","[u'blue', u'red', u'black']","[u'left', u'middle', u'right']","[0.9, 0.5, 0.1]","[u'low', u'high', u'medium']","red",50,"middle","high","True","False",413,700,NA
"A1TMZLYXQAK8Q0","Tue Sep 15 2020 09:50:58 GMT-0600 (Mountain Daylight Time)","Tue Sep 15 2020 09:58:56 GMT-0600 (Mountain Daylight Time)","Mozilla/5.0 (Windows NT 10.0; Win64; x64) AppleWebKit/537.36 (KHTML, like Gecko) Chrome/85.0.4183.102 Safari/537.36",8,"[0.9, 0.5, 0.1]","[0.8, 0.4, 0.2]","[u'blue', u'red', u'black']","[u'left', u'middle', u'right']","[0.9, 0.5, 0.1]","[u'low', u'high', u'medium']","red",50,"middle","high","True","False",426,800,NA
"A1TMZLYXQAK8Q0","Tue Sep 15 2020 09:50:58 GMT-0600 (Mountain Daylight Time)","Tue Sep 15 2020 09:58:56 GMT-0600 (Mountain Daylight Time)","Mozilla/5.0 (Windows NT 10.0; Win64; x64) AppleWebKit/537.36 (KHTML, like Gecko) Chrome/85.0.4183.102 Safari/537.36",9,"[0.9, 0.5, 0.1]","[0.8, 0.4, 0.2]","[u'blue', u'red', u'black']","[u'left', u'middle', u'right']","[0.9, 0.5, 0.1]","[u'low', u'high', u'medium']","red",50,"middle","high","True","True",324,900,NA
"A1TMZLYXQAK8Q0","Tue Sep 15 2020 09:50:58 GMT-0600 (Mountain Daylight Time)","Tue Sep 15 2020 09:58:56 GMT-0600 (Mountain Daylight Time)","Mozilla/5.0 (Windows NT 10.0; Win64; x64) AppleWebKit/537.36 (KHTML, like Gecko) Chrome/85.0.4183.102 Safari/537.36",10,"[0.9, 0.5, 0.1]","[0.8, 0.4, 0.2]","[u'blue', u'red', u'black']","[u'left', u'middle', u'right']","[0.9, 0.5, 0.1]","[u'medium', u'low', u'high']","red",50,"middle","low","False","False",400,850,NA
"A1TMZLYXQAK8Q0","Tue Sep 15 2020 09:50:58 GMT-0600 (Mountain Daylight Time)","Tue Sep 15 2020 09:58:56 GMT-0600 (Mountain Daylight Time)","Mozilla/5.0 (Windows NT 10.0; Win64; x64) AppleWebKit/537.36 (KHTML, like Gecko) Chrome/85.0.4183.102 Safari/537.36",11,"[0.9, 0.5, 0.1]","[0.8, 0.4, 0.2]","[u'blue', u'red', u'black']","[u'left', u'middle', u'right']","[0.9, 0.5, 0.1]","[u'medium', u'low', u'high']","red",50,"middle","low","False","False",442,800,NA
"A1TMZLYXQAK8Q0","Tue Sep 15 2020 09:50:58 GMT-0600 (Mountain Daylight Time)","Tue Sep 15 2020 09:58:56 GMT-0600 (Mountain Daylight Time)","Mozilla/5.0 (Windows NT 10.0; Win64; x64) AppleWebKit/537.36 (KHTML, like Gecko) Chrome/85.0.4183.102 Safari/537.36",12,"[0.9, 0.5, 0.1]","[0.8, 0.4, 0.2]","[u'blue', u'red', u'black']","[u'left', u'middle', u'right']","[0.9, 0.5, 0.1]","[u'medium', u'low', u'high']","black",51,"right","high","True","False",308,900,NA
"A1TMZLYXQAK8Q0","Tue Sep 15 2020 09:50:58 GMT-0600 (Mountain Daylight Time)","Tue Sep 15 2020 09:58:56 GMT-0600 (Mountain Daylight Time)","Mozilla/5.0 (Windows NT 10.0; Win64; x64) AppleWebKit/537.36 (KHTML, like Gecko) Chrome/85.0.4183.102 Safari/537.36",13,"[0.9, 0.5, 0.1]","[0.8, 0.4, 0.2]","[u'blue', u'red', u'black']","[u'left', u'middle', u'right']","[0.9, 0.5, 0.1]","[u'medium', u'low', u'high']","black",51,"right","high","True","False",344,1000,NA
"A1TMZLYXQAK8Q0","Tue Sep 15 2020 09:50:58 GMT-0600 (Mountain Daylight Time)","Tue Sep 15 2020 09:58:56 GMT-0600 (Mountain Daylight Time)","Mozilla/5.0 (Windows NT 10.0; Win64; x64) AppleWebKit/537.36 (KHTML, like Gecko) Chrome/85.0.4183.102 Safari/537.36",14,"[0.9, 0.5, 0.1]","[0.8, 0.4, 0.2]","[u'blue', u'red', u'black']","[u'left', u'middle', u'right']","[0.9, 0.5, 0.1]","[u'medium', u'low', u'high']","black",51,"right","high","True","False",365,1100,NA
"A1TMZLYXQAK8Q0","Tue Sep 15 2020 09:50:58 GMT-0600 (Mountain Daylight Time)","Tue Sep 15 2020 09:58:56 GMT-0600 (Mountain Daylight Time)","Mozilla/5.0 (Windows NT 10.0; Win64; x64) AppleWebKit/537.36 (KHTML, like Gecko) Chrome/85.0.4183.102 Safari/537.36",15,"[0.9, 0.5, 0.1]","[0.8, 0.4, 0.2]","[u'blue', u'red', u'black']","[u'left', u'middle', u'right']","[0.9, 0.5, 0.1]","[u'medium', u'low', u'high']","black",51,"right","high","True","False",463,1200,NA
"A1TMZLYXQAK8Q0","Tue Sep 15 2020 09:50:58 GMT-0600 (Mountain Daylight Time)","Tue Sep 15 2020 09:58:56 GMT-0600 (Mountain Daylight Time)","Mozilla/5.0 (Windows NT 10.0; Win64; x64) AppleWebKit/537.36 (KHTML, like Gecko) Chrome/85.0.4183.102 Safari/537.36",16,"[0.9, 0.5, 0.1]","[0.8, 0.4, 0.2]","[u'blue', u'red', u'black']","[u'left', u'middle', u'right']","[0.9, 0.5, 0.1]","[u'medium', u'low', u'high']","black",51,"right","high","True","False",448,1300,NA
"A1TMZLYXQAK8Q0","Tue Sep 15 2020 09:50:58 GMT-0600 (Mountain Daylight Time)","Tue Sep 15 2020 09:58:56 GMT-0600 (Mountain Daylight Time)","Mozilla/5.0 (Windows NT 10.0; Win64; x64) AppleWebKit/537.36 (KHTML, like Gecko) Chrome/85.0.4183.102 Safari/537.36",17,"[0.9, 0.5, 0.1]","[0.8, 0.4, 0.2]","[u'blue', u'red', u'black']","[u'left', u'middle', u'right']","[0.9, 0.5, 0.1]","[u'medium', u'low', u'high']","black",51,"right","high","True","False",459,1400,NA
"A1TMZLYXQAK8Q0","Tue Sep 15 2020 09:50:58 GMT-0600 (Mountain Daylight Time)","Tue Sep 15 2020 09:58:56 GMT-0600 (Mountain Daylight Time)","Mozilla/5.0 (Windows NT 10.0; Win64; x64) AppleWebKit/537.36 (KHTML, like Gecko) Chrome/85.0.4183.102 Safari/537.36",18,"[0.9, 0.5, 0.1]","[0.8, 0.4, 0.2]","[u'blue', u'red', u'black']","[u'left', u'middle', u'right']","[0.9, 0.5, 0.1]","[u'medium', u'low', u'high']","black",51,"right","high","True","False",435,1500,NA
"A1TMZLYXQAK8Q0","Tue Sep 15 2020 09:50:58 GMT-0600 (Mountain Daylight Time)","Tue Sep 15 2020 09:58:56 GMT-0600 (Mountain Daylight Time)","Mozilla/5.0 (Windows NT 10.0; Win64; x64) AppleWebKit/537.36 (KHTML, like Gecko) Chrome/85.0.4183.102 Safari/537.36",19,"[0.9, 0.5, 0.1]","[0.8, 0.4, 0.2]","[u'blue', u'red', u'black']","[u'left', u'middle', u'right']","[0.9, 0.5, 0.1]","[u'medium', u'low', u'high']","black",51,"right","high","True","False",422,1600,NA
"A1TMZLYXQAK8Q0","Tue Sep 15 2020 09:50:58 GMT-0600 (Mountain Daylight Time)","Tue Sep 15 2020 09:58:56 GMT-0600 (Mountain Daylight Time)","Mozilla/5.0 (Windows NT 10.0; Win64; x64) AppleWebKit/537.36 (KHTML, like Gecko) Chrome/85.0.4183.102 Safari/537.36",20,"[0.9, 0.5, 0.1]","[0.8, 0.4, 0.2]","[u'blue', u'red', u'black']","[u'left', u'middle', u'right']","[0.9, 0.5, 0.1]","[u'medium', u'low', u'high']","black",51,"right","high","True","True",391,1700,NA
"A1TMZLYXQAK8Q0","Tue Sep 15 2020 09:50:58 GMT-0600 (Mountain Daylight Time)","Tue Sep 15 2020 09:58:56 GMT-0600 (Mountain Daylight Time)","Mozilla/5.0 (Windows NT 10.0; Win64; x64) AppleWebKit/537.36 (KHTML, like Gecko) Chrome/85.0.4183.102 Safari/537.36",21,"[0.9, 0.5, 0.1]","[0.8, 0.4, 0.2]","[u'blue', u'red', u'black']","[u'left', u'middle', u'right']","[0.9, 0.5, 0.1]","[u'high', u'low', u'medium']","black",51,"right","medium","True","False",381,1800,NA
"A1TMZLYXQAK8Q0","Tue Sep 15 2020 09:50:58 GMT-0600 (Mountain Daylight Time)","Tue Sep 15 2020 09:58:56 GMT-0600 (Mountain Daylight Time)","Mozilla/5.0 (Windows NT 10.0; Win64; x64) AppleWebKit/537.36 (KHTML, like Gecko) Chrome/85.0.4183.102 Safari/537.36",22,"[0.9, 0.5, 0.1]","[0.8, 0.4, 0.2]","[u'blue', u'red', u'black']","[u'left', u'middle', u'right']","[0.9, 0.5, 0.1]","[u'high', u'low', u'medium']","black",51,"right","medium","False","False",385,1750,NA
"A1TMZLYXQAK8Q0","Tue Sep 15 2020 09:50:58 GMT-0600 (Mountain Daylight Time)","Tue Sep 15 2020 09:58:56 GMT-0600 (Mountain Daylight Time)","Mozilla/5.0 (Windows NT 10.0; Win64; x64) AppleWebKit/537.36 (KHTML, like Gecko) Chrome/85.0.4183.102 Safari/537.36",23,"[0.9, 0.5, 0.1]","[0.8, 0.4, 0.2]","[u'blue', u'red', u'black']","[u'left', u'middle', u'right']","[0.9, 0.5, 0.1]","[u'high', u'low', u'medium']","black",51,"right","medium","False","False",316,1700,NA
"A1TMZLYXQAK8Q0","Tue Sep 15 2020 09:50:58 GMT-0600 (Mountain Daylight Time)","Tue Sep 15 2020 09:58:56 GMT-0600 (Mountain Daylight Time)","Mozilla/5.0 (Windows NT 10.0; Win64; x64) AppleWebKit/537.36 (KHTML, like Gecko) Chrome/85.0.4183.102 Safari/537.36",24,"[0.9, 0.5, 0.1]","[0.8, 0.4, 0.2]","[u'blue', u'red', u'black']","[u'left', u'middle', u'right']","[0.9, 0.5, 0.1]","[u'high', u'low', u'medium']","red",50,"middle","low","False","False",348,1650,NA
"A1TMZLYXQAK8Q0","Tue Sep 15 2020 09:50:58 GMT-0600 (Mountain Daylight Time)","Tue Sep 15 2020 09:58:56 GMT-0600 (Mountain Daylight Time)","Mozilla/5.0 (Windows NT 10.0; Win64; x64) AppleWebKit/537.36 (KHTML, like Gecko) Chrome/85.0.4183.102 Safari/537.36",25,"[0.9, 0.5, 0.1]","[0.8, 0.4, 0.2]","[u'blue', u'red', u'black']","[u'left', u'middle', u'right']","[0.9, 0.5, 0.1]","[u'high', u'low', u'medium']","blue",49,"left","high","True","False",233,1750,NA
"A1TMZLYXQAK8Q0","Tue Sep 15 2020 09:50:58 GMT-0600 (Mountain Daylight Time)","Tue Sep 15 2020 09:58:56 GMT-0600 (Mountain Daylight Time)","Mozilla/5.0 (Windows NT 10.0; Win64; x64) AppleWebKit/537.36 (KHTML, like Gecko) Chrome/85.0.4183.102 Safari/537.36",26,"[0.9, 0.5, 0.1]","[0.8, 0.4, 0.2]","[u'blue', u'red', u'black']","[u'left', u'middle', u'right']","[0.9, 0.5, 0.1]","[u'high', u'low', u'medium']","blue",49,"left","high","True","False",355,1850,NA
"A1TMZLYXQAK8Q0","Tue Sep 15 2020 09:50:58 GMT-0600 (Mountain Daylight Time)","Tue Sep 15 2020 09:58:56 GMT-0600 (Mountain Daylight Time)","Mozilla/5.0 (Windows NT 10.0; Win64; x64) AppleWebKit/537.36 (KHTML, like Gecko) Chrome/85.0.4183.102 Safari/537.36",27,"[0.9, 0.5, 0.1]","[0.8, 0.4, 0.2]","[u'blue', u'red', u'black']","[u'left', u'middle', u'right']","[0.9, 0.5, 0.1]","[u'high', u'low', u'medium']","blue",49,"left","high","True","False",350,1950,NA
"A1TMZLYXQAK8Q0","Tue Sep 15 2020 09:50:58 GMT-0600 (Mountain Daylight Time)","Tue Sep 15 2020 09:58:56 GMT-0600 (Mountain Daylight Time)","Mozilla/5.0 (Windows NT 10.0; Win64; x64) AppleWebKit/537.36 (KHTML, like Gecko) Chrome/85.0.4183.102 Safari/537.36",28,"[0.9, 0.5, 0.1]","[0.8, 0.4, 0.2]","[u'blue', u'red', u'black']","[u'left', u'middle', u'right']","[0.9, 0.5, 0.1]","[u'high', u'low', u'medium']","blue",49,"left","high","True","False",512,2050,NA
"A1TMZLYXQAK8Q0","Tue Sep 15 2020 09:50:58 GMT-0600 (Mountain Daylight Time)","Tue Sep 15 2020 09:58:56 GMT-0600 (Mountain Daylight Time)","Mozilla/5.0 (Windows NT 10.0; Win64; x64) AppleWebKit/537.36 (KHTML, like Gecko) Chrome/85.0.4183.102 Safari/537.36",29,"[0.9, 0.5, 0.1]","[0.8, 0.4, 0.2]","[u'blue', u'red', u'black']","[u'left', u'middle', u'right']","[0.9, 0.5, 0.1]","[u'high', u'low', u'medium']","blue",49,"left","high","True","False",377,2150,NA
"A1TMZLYXQAK8Q0","Tue Sep 15 2020 09:50:58 GMT-0600 (Mountain Daylight Time)","Tue Sep 15 2020 09:58:56 GMT-0600 (Mountain Daylight Time)","Mozilla/5.0 (Windows NT 10.0; Win64; x64) AppleWebKit/537.36 (KHTML, like Gecko) Chrome/85.0.4183.102 Safari/537.36",30,"[0.9, 0.5, 0.1]","[0.8, 0.4, 0.2]","[u'blue', u'red', u'black']","[u'left', u'middle', u'right']","[0.9, 0.5, 0.1]","[u'high', u'low', u'medium']","blue",49,"left","high","True","False",384,2250,NA
"A1TMZLYXQAK8Q0","Tue Sep 15 2020 09:50:58 GMT-0600 (Mountain Daylight Time)","Tue Sep 15 2020 09:58:56 GMT-0600 (Mountain Daylight Time)","Mozilla/5.0 (Windows NT 10.0; Win64; x64) AppleWebKit/537.36 (KHTML, like Gecko) Chrome/85.0.4183.102 Safari/537.36",31,"[0.9, 0.5, 0.1]","[0.8, 0.4, 0.2]","[u'blue', u'red', u'black']","[u'left', u'middle', u'right']","[0.9, 0.5, 0.1]","[u'high', u'low', u'medium']","blue",49,"left","high","True","False",318,2350,NA
"A1TMZLYXQAK8Q0","Tue Sep 15 2020 09:50:58 GMT-0600 (Mountain Daylight Time)","Tue Sep 15 2020 09:58:56 GMT-0600 (Mountain Daylight Time)","Mozilla/5.0 (Windows NT 10.0; Win64; x64) AppleWebKit/537.36 (KHTML, like Gecko) Chrome/85.0.4183.102 Safari/537.36",32,"[0.9, 0.5, 0.1]","[0.8, 0.4, 0.2]","[u'blue', u'red', u'black']","[u'left', u'middle', u'right']","[0.9, 0.5, 0.1]","[u'high', u'low', u'medium']","blue",49,"left","high","True","False",339,2450,NA
"A1TMZLYXQAK8Q0","Tue Sep 15 2020 09:50:58 GMT-0600 (Mountain Daylight Time)","Tue Sep 15 2020 09:58:56 GMT-0600 (Mountain Daylight Time)","Mozilla/5.0 (Windows NT 10.0; Win64; x64) AppleWebKit/537.36 (KHTML, like Gecko) Chrome/85.0.4183.102 Safari/537.36",33,"[0.9, 0.5, 0.1]","[0.8, 0.4, 0.2]","[u'blue', u'red', u'black']","[u'left', u'middle', u'right']","[0.9, 0.5, 0.1]","[u'high', u'low', u'medium']","blue",49,"left","high","True","True",349,2550,NA
"A1TMZLYXQAK8Q0","Tue Sep 15 2020 09:50:58 GMT-0600 (Mountain Daylight Time)","Tue Sep 15 2020 09:58:56 GMT-0600 (Mountain Daylight Time)","Mozilla/5.0 (Windows NT 10.0; Win64; x64) AppleWebKit/537.36 (KHTML, like Gecko) Chrome/85.0.4183.102 Safari/537.36",34,"[0.9, 0.5, 0.1]","[0.8, 0.4, 0.2]","[u'blue', u'red', u'black']","[u'left', u'middle', u'right']","[0.9, 0.5, 0.1]","[u'low', u'high', u'medium']","blue",49,"left","low","False","False",406,2500,NA
"A1TMZLYXQAK8Q0","Tue Sep 15 2020 09:50:58 GMT-0600 (Mountain Daylight Time)","Tue Sep 15 2020 09:58:56 GMT-0600 (Mountain Daylight Time)","Mozilla/5.0 (Windows NT 10.0; Win64; x64) AppleWebKit/537.36 (KHTML, like Gecko) Chrome/85.0.4183.102 Safari/537.36",35,"[0.9, 0.5, 0.1]","[0.8, 0.4, 0.2]","[u'blue', u'red', u'black']","[u'left', u'middle', u'right']","[0.9, 0.5, 0.1]","[u'low', u'high', u'medium']","red",50,"middle","high","True","False",320,2600,NA
"A1TMZLYXQAK8Q0","Tue Sep 15 2020 09:50:58 GMT-0600 (Mountain Daylight Time)","Tue Sep 15 2020 09:58:56 GMT-0600 (Mountain Daylight Time)","Mozilla/5.0 (Windows NT 10.0; Win64; x64) AppleWebKit/537.36 (KHTML, like Gecko) Chrome/85.0.4183.102 Safari/537.36",36,"[0.9, 0.5, 0.1]","[0.8, 0.4, 0.2]","[u'blue', u'red', u'black']","[u'left', u'middle', u'right']","[0.9, 0.5, 0.1]","[u'low', u'high', u'medium']","red",50,"middle","high","True","False",330,2700,NA
"A1TMZLYXQAK8Q0","Tue Sep 15 2020 09:50:58 GMT-0600 (Mountain Daylight Time)","Tue Sep 15 2020 09:58:56 GMT-0600 (Mountain Daylight Time)","Mozilla/5.0 (Windows NT 10.0; Win64; x64) AppleWebKit/537.36 (KHTML, like Gecko) Chrome/85.0.4183.102 Safari/537.36",37,"[0.9, 0.5, 0.1]","[0.8, 0.4, 0.2]","[u'blue', u'red', u'black']","[u'left', u'middle', u'right']","[0.9, 0.5, 0.1]","[u'low', u'high', u'medium']","red",50,"middle","high","True","False",309,2800,NA
"A1TMZLYXQAK8Q0","Tue Sep 15 2020 09:50:58 GMT-0600 (Mountain Daylight Time)","Tue Sep 15 2020 09:58:56 GMT-0600 (Mountain Daylight Time)","Mozilla/5.0 (Windows NT 10.0; Win64; x64) AppleWebKit/537.36 (KHTML, like Gecko) Chrome/85.0.4183.102 Safari/537.36",38,"[0.9, 0.5, 0.1]","[0.8, 0.4, 0.2]","[u'blue', u'red', u'black']","[u'left', u'middle', u'right']","[0.9, 0.5, 0.1]","[u'low', u'high', u'medium']","red",50,"middle","high","True","False",320,2900,NA
"A1TMZLYXQAK8Q0","Tue Sep 15 2020 09:50:58 GMT-0600 (Mountain Daylight Time)","Tue Sep 15 2020 09:58:56 GMT-0600 (Mountain Daylight Time)","Mozilla/5.0 (Windows NT 10.0; Win64; x64) AppleWebKit/537.36 (KHTML, like Gecko) Chrome/85.0.4183.102 Safari/537.36",39,"[0.9, 0.5, 0.1]","[0.8, 0.4, 0.2]","[u'blue', u'red', u'black']","[u'left', u'middle', u'right']","[0.9, 0.5, 0.1]","[u'low', u'high', u'medium']","red",50,"middle","high","True","False",321,3000,NA
"A1TMZLYXQAK8Q0","Tue Sep 15 2020 09:50:58 GMT-0600 (Mountain Daylight Time)","Tue Sep 15 2020 09:58:56 GMT-0600 (Mountain Daylight Time)","Mozilla/5.0 (Windows NT 10.0; Win64; x64) AppleWebKit/537.36 (KHTML, like Gecko) Chrome/85.0.4183.102 Safari/537.36",40,"[0.9, 0.5, 0.1]","[0.8, 0.4, 0.2]","[u'blue', u'red', u'black']","[u'left', u'middle', u'right']","[0.9, 0.5, 0.1]","[u'low', u'high', u'medium']","red",50,"middle","high","True","False",435,3100,NA
"A1TMZLYXQAK8Q0","Tue Sep 15 2020 09:50:58 GMT-0600 (Mountain Daylight Time)","Tue Sep 15 2020 09:58:56 GMT-0600 (Mountain Daylight Time)","Mozilla/5.0 (Windows NT 10.0; Win64; x64) AppleWebKit/537.36 (KHTML, like Gecko) Chrome/85.0.4183.102 Safari/537.36",41,"[0.9, 0.5, 0.1]","[0.8, 0.4, 0.2]","[u'blue', u'red', u'black']","[u'left', u'middle', u'right']","[0.9, 0.5, 0.1]","[u'medium', u'low', u'high']","red",50,"middle","low","False","False",1085,3050,NA
"A1TMZLYXQAK8Q0","Tue Sep 15 2020 09:50:58 GMT-0600 (Mountain Daylight Time)","Tue Sep 15 2020 09:58:56 GMT-0600 (Mountain Daylight Time)","Mozilla/5.0 (Windows NT 10.0; Win64; x64) AppleWebKit/537.36 (KHTML, like Gecko) Chrome/85.0.4183.102 Safari/537.36",42,"[0.9, 0.5, 0.1]","[0.8, 0.4, 0.2]","[u'blue', u'red', u'black']","[u'left', u'middle', u'right']","[0.9, 0.5, 0.1]","[u'medium', u'low', u'high']","black",51,"right","high","True","False",283,3150,NA
"A1TMZLYXQAK8Q0","Tue Sep 15 2020 09:50:58 GMT-0600 (Mountain Daylight Time)","Tue Sep 15 2020 09:58:56 GMT-0600 (Mountain Daylight Time)","Mozilla/5.0 (Windows NT 10.0; Win64; x64) AppleWebKit/537.36 (KHTML, like Gecko) Chrome/85.0.4183.102 Safari/537.36",43,"[0.9, 0.5, 0.1]","[0.8, 0.4, 0.2]","[u'blue', u'red', u'black']","[u'left', u'middle', u'right']","[0.9, 0.5, 0.1]","[u'medium', u'low', u'high']","black",51,"right","high","True","False",314,3250,NA
"A1TMZLYXQAK8Q0","Tue Sep 15 2020 09:50:58 GMT-0600 (Mountain Daylight Time)","Tue Sep 15 2020 09:58:56 GMT-0600 (Mountain Daylight Time)","Mozilla/5.0 (Windows NT 10.0; Win64; x64) AppleWebKit/537.36 (KHTML, like Gecko) Chrome/85.0.4183.102 Safari/537.36",44,"[0.9, 0.5, 0.1]","[0.8, 0.4, 0.2]","[u'blue', u'red', u'black']","[u'left', u'middle', u'right']","[0.9, 0.5, 0.1]","[u'medium', u'low', u'high']","black",51,"right","high","True","False",273,3350,NA
"A1TMZLYXQAK8Q0","Tue Sep 15 2020 09:50:58 GMT-0600 (Mountain Daylight Time)","Tue Sep 15 2020 09:58:56 GMT-0600 (Mountain Daylight Time)","Mozilla/5.0 (Windows NT 10.0; Win64; x64) AppleWebKit/537.36 (KHTML, like Gecko) Chrome/85.0.4183.102 Safari/537.36",45,"[0.9, 0.5, 0.1]","[0.8, 0.4, 0.2]","[u'blue', u'red', u'black']","[u'left', u'middle', u'right']","[0.9, 0.5, 0.1]","[u'medium', u'low', u'high']","black",51,"right","high","True","False",307,3450,NA
"A1TMZLYXQAK8Q0","Tue Sep 15 2020 09:50:58 GMT-0600 (Mountain Daylight Time)","Tue Sep 15 2020 09:58:56 GMT-0600 (Mountain Daylight Time)","Mozilla/5.0 (Windows NT 10.0; Win64; x64) AppleWebKit/537.36 (KHTML, like Gecko) Chrome/85.0.4183.102 Safari/537.36",46,"[0.9, 0.5, 0.1]","[0.8, 0.4, 0.2]","[u'blue', u'red', u'black']","[u'left', u'middle', u'right']","[0.9, 0.5, 0.1]","[u'medium', u'low', u'high']","black",51,"right","high","True","False",262,3550,NA
"A1TMZLYXQAK8Q0","Tue Sep 15 2020 09:50:58 GMT-0600 (Mountain Daylight Time)","Tue Sep 15 2020 09:58:56 GMT-0600 (Mountain Daylight Time)","Mozilla/5.0 (Windows NT 10.0; Win64; x64) AppleWebKit/537.36 (KHTML, like Gecko) Chrome/85.0.4183.102 Safari/537.36",47,"[0.9, 0.5, 0.1]","[0.8, 0.4, 0.2]","[u'blue', u'red', u'black']","[u'left', u'middle', u'right']","[0.9, 0.5, 0.1]","[u'medium', u'low', u'high']","black",51,"right","high","True","False",305,3650,NA
"A1TMZLYXQAK8Q0","Tue Sep 15 2020 09:50:58 GMT-0600 (Mountain Daylight Time)","Tue Sep 15 2020 09:58:56 GMT-0600 (Mountain Daylight Time)","Mozilla/5.0 (Windows NT 10.0; Win64; x64) AppleWebKit/537.36 (KHTML, like Gecko) Chrome/85.0.4183.102 Safari/537.36",48,"[0.9, 0.5, 0.1]","[0.8, 0.4, 0.2]","[u'blue', u'red', u'black']","[u'left', u'middle', u'right']","[0.9, 0.5, 0.1]","[u'medium', u'low', u'high']","black",51,"right","high","True","False",374,3750,NA
"A1TMZLYXQAK8Q0","Tue Sep 15 2020 09:50:58 GMT-0600 (Mountain Daylight Time)","Tue Sep 15 2020 09:58:56 GMT-0600 (Mountain Daylight Time)","Mozilla/5.0 (Windows NT 10.0; Win64; x64) AppleWebKit/537.36 (KHTML, like Gecko) Chrome/85.0.4183.102 Safari/537.36",49,"[0.9, 0.5, 0.1]","[0.8, 0.4, 0.2]","[u'blue', u'red', u'black']","[u'left', u'middle', u'right']","[0.9, 0.5, 0.1]","[u'medium', u'low', u'high']","black",51,"right","high","True","False",306,3850,NA
"A1TMZLYXQAK8Q0","Tue Sep 15 2020 09:50:58 GMT-0600 (Mountain Daylight Time)","Tue Sep 15 2020 09:58:56 GMT-0600 (Mountain Daylight Time)","Mozilla/5.0 (Windows NT 10.0; Win64; x64) AppleWebKit/537.36 (KHTML, like Gecko) Chrome/85.0.4183.102 Safari/537.36",50,"[0.9, 0.5, 0.1]","[0.8, 0.4, 0.2]","[u'blue', u'red', u'black']","[u'left', u'middle', u'right']","[0.9, 0.5, 0.1]","[u'medium', u'low', u'high']","black",51,"right","high","True","True",354,3950,NA
"A1TMZLYXQAK8Q0","Tue Sep 15 2020 09:50:58 GMT-0600 (Mountain Daylight Time)","Tue Sep 15 2020 09:58:56 GMT-0600 (Mountain Daylight Time)","Mozilla/5.0 (Windows NT 10.0; Win64; x64) AppleWebKit/537.36 (KHTML, like Gecko) Chrome/85.0.4183.102 Safari/537.36",51,"[0.9, 0.5, 0.1]","[0.8, 0.4, 0.2]","[u'blue', u'red', u'black']","[u'left', u'middle', u'right']","[0.9, 0.5, 0.1]","[u'high', u'medium', u'low']","black",51,"right","low","False","False",299,3900,NA
"A1TMZLYXQAK8Q0","Tue Sep 15 2020 09:50:58 GMT-0600 (Mountain Daylight Time)","Tue Sep 15 2020 09:58:56 GMT-0600 (Mountain Daylight Time)","Mozilla/5.0 (Windows NT 10.0; Win64; x64) AppleWebKit/537.36 (KHTML, like Gecko) Chrome/85.0.4183.102 Safari/537.36",52,"[0.9, 0.5, 0.1]","[0.8, 0.4, 0.2]","[u'blue', u'red', u'black']","[u'left', u'middle', u'right']","[0.9, 0.5, 0.1]","[u'high', u'medium', u'low']","blue",49,"left","high","True","False",312,4000,NA
"A1TMZLYXQAK8Q0","Tue Sep 15 2020 09:50:58 GMT-0600 (Mountain Daylight Time)","Tue Sep 15 2020 09:58:56 GMT-0600 (Mountain Daylight Time)","Mozilla/5.0 (Windows NT 10.0; Win64; x64) AppleWebKit/537.36 (KHTML, like Gecko) Chrome/85.0.4183.102 Safari/537.36",53,"[0.9, 0.5, 0.1]","[0.8, 0.4, 0.2]","[u'blue', u'red', u'black']","[u'left', u'middle', u'right']","[0.9, 0.5, 0.1]","[u'high', u'medium', u'low']","blue",49,"left","high","False","False",313,3950,NA
"A1TMZLYXQAK8Q0","Tue Sep 15 2020 09:50:58 GMT-0600 (Mountain Daylight Time)","Tue Sep 15 2020 09:58:56 GMT-0600 (Mountain Daylight Time)","Mozilla/5.0 (Windows NT 10.0; Win64; x64) AppleWebKit/537.36 (KHTML, like Gecko) Chrome/85.0.4183.102 Safari/537.36",54,"[0.9, 0.5, 0.1]","[0.8, 0.4, 0.2]","[u'blue', u'red', u'black']","[u'left', u'middle', u'right']","[0.9, 0.5, 0.1]","[u'high', u'medium', u'low']","red",50,"middle","medium","False","False",230,3900,NA
"A1TMZLYXQAK8Q0","Tue Sep 15 2020 09:50:58 GMT-0600 (Mountain Daylight Time)","Tue Sep 15 2020 09:58:56 GMT-0600 (Mountain Daylight Time)","Mozilla/5.0 (Windows NT 10.0; Win64; x64) AppleWebKit/537.36 (KHTML, like Gecko) Chrome/85.0.4183.102 Safari/537.36",55,"[0.9, 0.5, 0.1]","[0.8, 0.4, 0.2]","[u'blue', u'red', u'black']","[u'left', u'middle', u'right']","[0.9, 0.5, 0.1]","[u'high', u'medium', u'low']","blue",49,"left","high","True","False",282,4000,NA
"A1TMZLYXQAK8Q0","Tue Sep 15 2020 09:50:58 GMT-0600 (Mountain Daylight Time)","Tue Sep 15 2020 09:58:56 GMT-0600 (Mountain Daylight Time)","Mozilla/5.0 (Windows NT 10.0; Win64; x64) AppleWebKit/537.36 (KHTML, like Gecko) Chrome/85.0.4183.102 Safari/537.36",56,"[0.9, 0.5, 0.1]","[0.8, 0.4, 0.2]","[u'blue', u'red', u'black']","[u'left', u'middle', u'right']","[0.9, 0.5, 0.1]","[u'high', u'medium', u'low']","blue",49,"left","high","True","False",317,4100,NA
"A1TMZLYXQAK8Q0","Tue Sep 15 2020 09:50:58 GMT-0600 (Mountain Daylight Time)","Tue Sep 15 2020 09:58:56 GMT-0600 (Mountain Daylight Time)","Mozilla/5.0 (Windows NT 10.0; Win64; x64) AppleWebKit/537.36 (KHTML, like Gecko) Chrome/85.0.4183.102 Safari/537.36",57,"[0.9, 0.5, 0.1]","[0.8, 0.4, 0.2]","[u'blue', u'red', u'black']","[u'left', u'middle', u'right']","[0.9, 0.5, 0.1]","[u'high', u'medium', u'low']","blue",49,"left","high","True","False",234,4200,NA
"A1TMZLYXQAK8Q0","Tue Sep 15 2020 09:50:58 GMT-0600 (Mountain Daylight Time)","Tue Sep 15 2020 09:58:56 GMT-0600 (Mountain Daylight Time)","Mozilla/5.0 (Windows NT 10.0; Win64; x64) AppleWebKit/537.36 (KHTML, like Gecko) Chrome/85.0.4183.102 Safari/537.36",58,"[0.9, 0.5, 0.1]","[0.8, 0.4, 0.2]","[u'blue', u'red', u'black']","[u'left', u'middle', u'right']","[0.9, 0.5, 0.1]","[u'high', u'medium', u'low']","blue",49,"left","high","True","False",329,4300,NA
"A1TMZLYXQAK8Q0","Tue Sep 15 2020 09:50:58 GMT-0600 (Mountain Daylight Time)","Tue Sep 15 2020 09:58:56 GMT-0600 (Mountain Daylight Time)","Mozilla/5.0 (Windows NT 10.0; Win64; x64) AppleWebKit/537.36 (KHTML, like Gecko) Chrome/85.0.4183.102 Safari/537.36",59,"[0.9, 0.5, 0.1]","[0.8, 0.4, 0.2]","[u'blue', u'red', u'black']","[u'left', u'middle', u'right']","[0.9, 0.5, 0.1]","[u'high', u'medium', u'low']","blue",49,"left","high","True","False",324,4400,NA
"A1TMZLYXQAK8Q0","Tue Sep 15 2020 09:50:58 GMT-0600 (Mountain Daylight Time)","Tue Sep 15 2020 09:58:56 GMT-0600 (Mountain Daylight Time)","Mozilla/5.0 (Windows NT 10.0; Win64; x64) AppleWebKit/537.36 (KHTML, like Gecko) Chrome/85.0.4183.102 Safari/537.36",60,"[0.9, 0.5, 0.1]","[0.8, 0.4, 0.2]","[u'blue', u'red', u'black']","[u'left', u'middle', u'right']","[0.9, 0.5, 0.1]","[u'high', u'medium', u'low']","blue",49,"left","high","True","False",311,4500,NA
"A1TMZLYXQAK8Q0","Tue Sep 15 2020 09:50:58 GMT-0600 (Mountain Daylight Time)","Tue Sep 15 2020 09:58:56 GMT-0600 (Mountain Daylight Time)","Mozilla/5.0 (Windows NT 10.0; Win64; x64) AppleWebKit/537.36 (KHTML, like Gecko) Chrome/85.0.4183.102 Safari/537.36",61,"[0.9, 0.5, 0.1]","[0.8, 0.4, 0.2]","[u'blue', u'red', u'black']","[u'left', u'middle', u'right']","[0.9, 0.5, 0.1]","[u'high', u'medium', u'low']","blue",49,"left","high","True","True",344,4600,NA
"A1TMZLYXQAK8Q0","Tue Sep 15 2020 09:50:58 GMT-0600 (Mountain Daylight Time)","Tue Sep 15 2020 09:58:56 GMT-0600 (Mountain Daylight Time)","Mozilla/5.0 (Windows NT 10.0; Win64; x64) AppleWebKit/537.36 (KHTML, like Gecko) Chrome/85.0.4183.102 Safari/537.36",62,"[0.9, 0.5, 0.1]","[0.8, 0.4, 0.2]","[u'blue', u'red', u'black']","[u'left', u'middle', u'right']","[0.9, 0.5, 0.1]","[u'medium', u'low', u'high']","blue",49,"left","medium","False","False",408,4550,NA
"A1TMZLYXQAK8Q0","Tue Sep 15 2020 09:50:58 GMT-0600 (Mountain Daylight Time)","Tue Sep 15 2020 09:58:56 GMT-0600 (Mountain Daylight Time)","Mozilla/5.0 (Windows NT 10.0; Win64; x64) AppleWebKit/537.36 (KHTML, like Gecko) Chrome/85.0.4183.102 Safari/537.36",63,"[0.9, 0.5, 0.1]","[0.8, 0.4, 0.2]","[u'blue', u'red', u'black']","[u'left', u'middle', u'right']","[0.9, 0.5, 0.1]","[u'medium', u'low', u'high']","red",50,"middle","low","True","False",234,4650,NA
"A1TMZLYXQAK8Q0","Tue Sep 15 2020 09:50:58 GMT-0600 (Mountain Daylight Time)","Tue Sep 15 2020 09:58:56 GMT-0600 (Mountain Daylight Time)","Mozilla/5.0 (Windows NT 10.0; Win64; x64) AppleWebKit/537.36 (KHTML, like Gecko) Chrome/85.0.4183.102 Safari/537.36",64,"[0.9, 0.5, 0.1]","[0.8, 0.4, 0.2]","[u'blue', u'red', u'black']","[u'left', u'middle', u'right']","[0.9, 0.5, 0.1]","[u'medium', u'low', u'high']","red",50,"middle","low","False","False",262,4600,NA
"A1TMZLYXQAK8Q0","Tue Sep 15 2020 09:50:58 GMT-0600 (Mountain Daylight Time)","Tue Sep 15 2020 09:58:56 GMT-0600 (Mountain Daylight Time)","Mozilla/5.0 (Windows NT 10.0; Win64; x64) AppleWebKit/537.36 (KHTML, like Gecko) Chrome/85.0.4183.102 Safari/537.36",65,"[0.9, 0.5, 0.1]","[0.8, 0.4, 0.2]","[u'blue', u'red', u'black']","[u'left', u'middle', u'right']","[0.9, 0.5, 0.1]","[u'medium', u'low', u'high']","red",50,"middle","low","False","False",290,4550,NA
"A1TMZLYXQAK8Q0","Tue Sep 15 2020 09:50:58 GMT-0600 (Mountain Daylight Time)","Tue Sep 15 2020 09:58:56 GMT-0600 (Mountain Daylight Time)","Mozilla/5.0 (Windows NT 10.0; Win64; x64) AppleWebKit/537.36 (KHTML, like Gecko) Chrome/85.0.4183.102 Safari/537.36",66,"[0.9, 0.5, 0.1]","[0.8, 0.4, 0.2]","[u'blue', u'red', u'black']","[u'left', u'middle', u'right']","[0.9, 0.5, 0.1]","[u'medium', u'low', u'high']","black",51,"right","high","True","False",250,4650,NA
"A1TMZLYXQAK8Q0","Tue Sep 15 2020 09:50:58 GMT-0600 (Mountain Daylight Time)","Tue Sep 15 2020 09:58:56 GMT-0600 (Mountain Daylight Time)","Mozilla/5.0 (Windows NT 10.0; Win64; x64) AppleWebKit/537.36 (KHTML, like Gecko) Chrome/85.0.4183.102 Safari/537.36",67,"[0.9, 0.5, 0.1]","[0.8, 0.4, 0.2]","[u'blue', u'red', u'black']","[u'left', u'middle', u'right']","[0.9, 0.5, 0.1]","[u'medium', u'low', u'high']","black",51,"right","high","True","False",317,4750,NA
"A1TMZLYXQAK8Q0","Tue Sep 15 2020 09:50:58 GMT-0600 (Mountain Daylight Time)","Tue Sep 15 2020 09:58:56 GMT-0600 (Mountain Daylight Time)","Mozilla/5.0 (Windows NT 10.0; Win64; x64) AppleWebKit/537.36 (KHTML, like Gecko) Chrome/85.0.4183.102 Safari/537.36",68,"[0.9, 0.5, 0.1]","[0.8, 0.4, 0.2]","[u'blue', u'red', u'black']","[u'left', u'middle', u'right']","[0.9, 0.5, 0.1]","[u'medium', u'low', u'high']","black",51,"right","high","True","False",331,4850,NA
"A1TMZLYXQAK8Q0","Tue Sep 15 2020 09:50:58 GMT-0600 (Mountain Daylight Time)","Tue Sep 15 2020 09:58:56 GMT-0600 (Mountain Daylight Time)","Mozilla/5.0 (Windows NT 10.0; Win64; x64) AppleWebKit/537.36 (KHTML, like Gecko) Chrome/85.0.4183.102 Safari/537.36",69,"[0.9, 0.5, 0.1]","[0.8, 0.4, 0.2]","[u'blue', u'red', u'black']","[u'left', u'middle', u'right']","[0.9, 0.5, 0.1]","[u'medium', u'low', u'high']","black",51,"right","high","True","False",370,4950,NA
"A1TMZLYXQAK8Q0","Tue Sep 15 2020 09:50:58 GMT-0600 (Mountain Daylight Time)","Tue Sep 15 2020 09:58:56 GMT-0600 (Mountain Daylight Time)","Mozilla/5.0 (Windows NT 10.0; Win64; x64) AppleWebKit/537.36 (KHTML, like Gecko) Chrome/85.0.4183.102 Safari/537.36",70,"[0.9, 0.5, 0.1]","[0.8, 0.4, 0.2]","[u'blue', u'red', u'black']","[u'left', u'middle', u'right']","[0.9, 0.5, 0.1]","[u'medium', u'low', u'high']","black",51,"right","high","False","False",467,4900,NA
"A1TMZLYXQAK8Q0","Tue Sep 15 2020 09:50:58 GMT-0600 (Mountain Daylight Time)","Tue Sep 15 2020 09:58:56 GMT-0600 (Mountain Daylight Time)","Mozilla/5.0 (Windows NT 10.0; Win64; x64) AppleWebKit/537.36 (KHTML, like Gecko) Chrome/85.0.4183.102 Safari/537.36",71,"[0.9, 0.5, 0.1]","[0.8, 0.4, 0.2]","[u'blue', u'red', u'black']","[u'left', u'middle', u'right']","[0.9, 0.5, 0.1]","[u'medium', u'low', u'high']","blue",49,"left","medium","False","False",374,4850,NA
"A1TMZLYXQAK8Q0","Tue Sep 15 2020 09:50:58 GMT-0600 (Mountain Daylight Time)","Tue Sep 15 2020 09:58:56 GMT-0600 (Mountain Daylight Time)","Mozilla/5.0 (Windows NT 10.0; Win64; x64) AppleWebKit/537.36 (KHTML, like Gecko) Chrome/85.0.4183.102 Safari/537.36",72,"[0.9, 0.5, 0.1]","[0.8, 0.4, 0.2]","[u'blue', u'red', u'black']","[u'left', u'middle', u'right']","[0.9, 0.5, 0.1]","[u'medium', u'low', u'high']","red",50,"middle","low","False","False",233,4800,NA
"A1TMZLYXQAK8Q0","Tue Sep 15 2020 09:50:58 GMT-0600 (Mountain Daylight Time)","Tue Sep 15 2020 09:58:56 GMT-0600 (Mountain Daylight Time)","Mozilla/5.0 (Windows NT 10.0; Win64; x64) AppleWebKit/537.36 (KHTML, like Gecko) Chrome/85.0.4183.102 Safari/537.36",73,"[0.9, 0.5, 0.1]","[0.8, 0.4, 0.2]","[u'blue', u'red', u'black']","[u'left', u'middle', u'right']","[0.9, 0.5, 0.1]","[u'medium', u'low', u'high']","blue",49,"left","medium","True","False",339,4900,NA
"A1TMZLYXQAK8Q0","Tue Sep 15 2020 09:50:58 GMT-0600 (Mountain Daylight Time)","Tue Sep 15 2020 09:58:56 GMT-0600 (Mountain Daylight Time)","Mozilla/5.0 (Windows NT 10.0; Win64; x64) AppleWebKit/537.36 (KHTML, like Gecko) Chrome/85.0.4183.102 Safari/537.36",74,"[0.9, 0.5, 0.1]","[0.8, 0.4, 0.2]","[u'blue', u'red', u'black']","[u'left', u'middle', u'right']","[0.9, 0.5, 0.1]","[u'medium', u'low', u'high']","blue",49,"left","medium","True","False",292,5000,NA
"A1TMZLYXQAK8Q0","Tue Sep 15 2020 09:50:58 GMT-0600 (Mountain Daylight Time)","Tue Sep 15 2020 09:58:56 GMT-0600 (Mountain Daylight Time)","Mozilla/5.0 (Windows NT 10.0; Win64; x64) AppleWebKit/537.36 (KHTML, like Gecko) Chrome/85.0.4183.102 Safari/537.36",75,"[0.9, 0.5, 0.1]","[0.8, 0.4, 0.2]","[u'blue', u'red', u'black']","[u'left', u'middle', u'right']","[0.9, 0.5, 0.1]","[u'medium', u'low', u'high']","blue",49,"left","medium","True","False",292,5100,NA
"A1TMZLYXQAK8Q0","Tue Sep 15 2020 09:50:58 GMT-0600 (Mountain Daylight Time)","Tue Sep 15 2020 09:58:56 GMT-0600 (Mountain Daylight Time)","Mozilla/5.0 (Windows NT 10.0; Win64; x64) AppleWebKit/537.36 (KHTML, like Gecko) Chrome/85.0.4183.102 Safari/537.36",76,"[0.9, 0.5, 0.1]","[0.8, 0.4, 0.2]","[u'blue', u'red', u'black']","[u'left', u'middle', u'right']","[0.9, 0.5, 0.1]","[u'medium', u'low', u'high']","blue",49,"left","medium","True","False",308,5200,NA
"A1TMZLYXQAK8Q0","Tue Sep 15 2020 09:50:58 GMT-0600 (Mountain Daylight Time)","Tue Sep 15 2020 09:58:56 GMT-0600 (Mountain Daylight Time)","Mozilla/5.0 (Windows NT 10.0; Win64; x64) AppleWebKit/537.36 (KHTML, like Gecko) Chrome/85.0.4183.102 Safari/537.36",77,"[0.9, 0.5, 0.1]","[0.8, 0.4, 0.2]","[u'blue', u'red', u'black']","[u'left', u'middle', u'right']","[0.9, 0.5, 0.1]","[u'medium', u'low', u'high']","blue",49,"left","medium","False","False",420,5150,NA
"A1TMZLYXQAK8Q0","Tue Sep 15 2020 09:50:58 GMT-0600 (Mountain Daylight Time)","Tue Sep 15 2020 09:58:56 GMT-0600 (Mountain Daylight Time)","Mozilla/5.0 (Windows NT 10.0; Win64; x64) AppleWebKit/537.36 (KHTML, like Gecko) Chrome/85.0.4183.102 Safari/537.36",78,"[0.9, 0.5, 0.1]","[0.8, 0.4, 0.2]","[u'blue', u'red', u'black']","[u'left', u'middle', u'right']","[0.9, 0.5, 0.1]","[u'medium', u'low', u'high']","red",50,"middle","low","True","False",298,5250,NA
"A1TMZLYXQAK8Q0","Tue Sep 15 2020 09:50:58 GMT-0600 (Mountain Daylight Time)","Tue Sep 15 2020 09:58:56 GMT-0600 (Mountain Daylight Time)","Mozilla/5.0 (Windows NT 10.0; Win64; x64) AppleWebKit/537.36 (KHTML, like Gecko) Chrome/85.0.4183.102 Safari/537.36",79,"[0.9, 0.5, 0.1]","[0.8, 0.4, 0.2]","[u'blue', u'red', u'black']","[u'left', u'middle', u'right']","[0.9, 0.5, 0.1]","[u'medium', u'low', u'high']","red",50,"middle","low","False","False",275,5200,NA
"A1TMZLYXQAK8Q0","Tue Sep 15 2020 09:50:58 GMT-0600 (Mountain Daylight Time)","Tue Sep 15 2020 09:58:56 GMT-0600 (Mountain Daylight Time)","Mozilla/5.0 (Windows NT 10.0; Win64; x64) AppleWebKit/537.36 (KHTML, like Gecko) Chrome/85.0.4183.102 Safari/537.36",80,"[0.9, 0.5, 0.1]","[0.8, 0.4, 0.2]","[u'blue', u'red', u'black']","[u'left', u'middle', u'right']","[0.9, 0.5, 0.1]","[u'medium', u'low', u'high']","red",50,"middle","low","True","False",531,5300,NA
"A1TMZLYXQAK8Q0","Tue Sep 15 2020 09:50:58 GMT-0600 (Mountain Daylight Time)","Tue Sep 15 2020 09:58:56 GMT-0600 (Mountain Daylight Time)","Mozilla/5.0 (Windows NT 10.0; Win64; x64) AppleWebKit/537.36 (KHTML, like Gecko) Chrome/85.0.4183.102 Safari/537.36",81,"[0.9, 0.5, 0.1]","[0.8, 0.4, 0.2]","[u'blue', u'red', u'black']","[u'left', u'middle', u'right']","[0.8, 0.4, 0.2]","[u'medium', u'high', u'low']","red",50,"middle","high","True","False",531,5400,NA
"A1TMZLYXQAK8Q0","Tue Sep 15 2020 09:50:58 GMT-0600 (Mountain Daylight Time)","Tue Sep 15 2020 09:58:56 GMT-0600 (Mountain Daylight Time)","Mozilla/5.0 (Windows NT 10.0; Win64; x64) AppleWebKit/537.36 (KHTML, like Gecko) Chrome/85.0.4183.102 Safari/537.36",82,"[0.9, 0.5, 0.1]","[0.8, 0.4, 0.2]","[u'blue', u'red', u'black']","[u'left', u'middle', u'right']","[0.8, 0.4, 0.2]","[u'medium', u'high', u'low']","red",50,"middle","high","True","False",294,5500,NA
"A1TMZLYXQAK8Q0","Tue Sep 15 2020 09:50:58 GMT-0600 (Mountain Daylight Time)","Tue Sep 15 2020 09:58:56 GMT-0600 (Mountain Daylight Time)","Mozilla/5.0 (Windows NT 10.0; Win64; x64) AppleWebKit/537.36 (KHTML, like Gecko) Chrome/85.0.4183.102 Safari/537.36",83,"[0.9, 0.5, 0.1]","[0.8, 0.4, 0.2]","[u'blue', u'red', u'black']","[u'left', u'middle', u'right']","[0.8, 0.4, 0.2]","[u'medium', u'high', u'low']","red",50,"middle","high","True","False",337,5600,NA
"A1TMZLYXQAK8Q0","Tue Sep 15 2020 09:50:58 GMT-0600 (Mountain Daylight Time)","Tue Sep 15 2020 09:58:56 GMT-0600 (Mountain Daylight Time)","Mozilla/5.0 (Windows NT 10.0; Win64; x64) AppleWebKit/537.36 (KHTML, like Gecko) Chrome/85.0.4183.102 Safari/537.36",84,"[0.9, 0.5, 0.1]","[0.8, 0.4, 0.2]","[u'blue', u'red', u'black']","[u'left', u'middle', u'right']","[0.8, 0.4, 0.2]","[u'medium', u'high', u'low']","red",50,"middle","high","True","False",380,5700,NA
"A1TMZLYXQAK8Q0","Tue Sep 15 2020 09:50:58 GMT-0600 (Mountain Daylight Time)","Tue Sep 15 2020 09:58:56 GMT-0600 (Mountain Daylight Time)","Mozilla/5.0 (Windows NT 10.0; Win64; x64) AppleWebKit/537.36 (KHTML, like Gecko) Chrome/85.0.4183.102 Safari/537.36",85,"[0.9, 0.5, 0.1]","[0.8, 0.4, 0.2]","[u'blue', u'red', u'black']","[u'left', u'middle', u'right']","[0.8, 0.4, 0.2]","[u'medium', u'high', u'low']","red",50,"middle","high","True","False",362,5800,NA
"A1TMZLYXQAK8Q0","Tue Sep 15 2020 09:50:58 GMT-0600 (Mountain Daylight Time)","Tue Sep 15 2020 09:58:56 GMT-0600 (Mountain Daylight Time)","Mozilla/5.0 (Windows NT 10.0; Win64; x64) AppleWebKit/537.36 (KHTML, like Gecko) Chrome/85.0.4183.102 Safari/537.36",86,"[0.9, 0.5, 0.1]","[0.8, 0.4, 0.2]","[u'blue', u'red', u'black']","[u'left', u'middle', u'right']","[0.8, 0.4, 0.2]","[u'medium', u'high', u'low']","red",50,"middle","high","False","False",382,5750,NA
"A1TMZLYXQAK8Q0","Tue Sep 15 2020 09:50:58 GMT-0600 (Mountain Daylight Time)","Tue Sep 15 2020 09:58:56 GMT-0600 (Mountain Daylight Time)","Mozilla/5.0 (Windows NT 10.0; Win64; x64) AppleWebKit/537.36 (KHTML, like Gecko) Chrome/85.0.4183.102 Safari/537.36",87,"[0.9, 0.5, 0.1]","[0.8, 0.4, 0.2]","[u'blue', u'red', u'black']","[u'left', u'middle', u'right']","[0.8, 0.4, 0.2]","[u'medium', u'high', u'low']","black",51,"right","low","True","False",317,5850,NA
"A1TMZLYXQAK8Q0","Tue Sep 15 2020 09:50:58 GMT-0600 (Mountain Daylight Time)","Tue Sep 15 2020 09:58:56 GMT-0600 (Mountain Daylight Time)","Mozilla/5.0 (Windows NT 10.0; Win64; x64) AppleWebKit/537.36 (KHTML, like Gecko) Chrome/85.0.4183.102 Safari/537.36",88,"[0.9, 0.5, 0.1]","[0.8, 0.4, 0.2]","[u'blue', u'red', u'black']","[u'left', u'middle', u'right']","[0.8, 0.4, 0.2]","[u'medium', u'high', u'low']","black",51,"right","low","False","False",309,5800,NA
"A1TMZLYXQAK8Q0","Tue Sep 15 2020 09:50:58 GMT-0600 (Mountain Daylight Time)","Tue Sep 15 2020 09:58:56 GMT-0600 (Mountain Daylight Time)","Mozilla/5.0 (Windows NT 10.0; Win64; x64) AppleWebKit/537.36 (KHTML, like Gecko) Chrome/85.0.4183.102 Safari/537.36",89,"[0.9, 0.5, 0.1]","[0.8, 0.4, 0.2]","[u'blue', u'red', u'black']","[u'left', u'middle', u'right']","[0.8, 0.4, 0.2]","[u'medium', u'high', u'low']","black",51,"right","low","False","False",300,5750,NA
"A1TMZLYXQAK8Q0","Tue Sep 15 2020 09:50:58 GMT-0600 (Mountain Daylight Time)","Tue Sep 15 2020 09:58:56 GMT-0600 (Mountain Daylight Time)","Mozilla/5.0 (Windows NT 10.0; Win64; x64) AppleWebKit/537.36 (KHTML, like Gecko) Chrome/85.0.4183.102 Safari/537.36",90,"[0.9, 0.5, 0.1]","[0.8, 0.4, 0.2]","[u'blue', u'red', u'black']","[u'left', u'middle', u'right']","[0.8, 0.4, 0.2]","[u'medium', u'high', u'low']","blue",49,"left","medium","True","False",267,5850,NA
"A1TMZLYXQAK8Q0","Tue Sep 15 2020 09:50:58 GMT-0600 (Mountain Daylight Time)","Tue Sep 15 2020 09:58:56 GMT-0600 (Mountain Daylight Time)","Mozilla/5.0 (Windows NT 10.0; Win64; x64) AppleWebKit/537.36 (KHTML, like Gecko) Chrome/85.0.4183.102 Safari/537.36",91,"[0.9, 0.5, 0.1]","[0.8, 0.4, 0.2]","[u'blue', u'red', u'black']","[u'left', u'middle', u'right']","[0.8, 0.4, 0.2]","[u'medium', u'high', u'low']","blue",49,"left","medium","False","False",314,5800,NA
"A1TMZLYXQAK8Q0","Tue Sep 15 2020 09:50:58 GMT-0600 (Mountain Daylight Time)","Tue Sep 15 2020 09:58:56 GMT-0600 (Mountain Daylight Time)","Mozilla/5.0 (Windows NT 10.0; Win64; x64) AppleWebKit/537.36 (KHTML, like Gecko) Chrome/85.0.4183.102 Safari/537.36",92,"[0.9, 0.5, 0.1]","[0.8, 0.4, 0.2]","[u'blue', u'red', u'black']","[u'left', u'middle', u'right']","[0.8, 0.4, 0.2]","[u'medium', u'high', u'low']","red",50,"middle","high","True","False",590,5900,NA
"A1TMZLYXQAK8Q0","Tue Sep 15 2020 09:50:58 GMT-0600 (Mountain Daylight Time)","Tue Sep 15 2020 09:58:56 GMT-0600 (Mountain Daylight Time)","Mozilla/5.0 (Windows NT 10.0; Win64; x64) AppleWebKit/537.36 (KHTML, like Gecko) Chrome/85.0.4183.102 Safari/537.36",93,"[0.9, 0.5, 0.1]","[0.8, 0.4, 0.2]","[u'blue', u'red', u'black']","[u'left', u'middle', u'right']","[0.8, 0.4, 0.2]","[u'medium', u'high', u'low']","red",50,"middle","high","True","False",277,6000,NA
"A1TMZLYXQAK8Q0","Tue Sep 15 2020 09:50:58 GMT-0600 (Mountain Daylight Time)","Tue Sep 15 2020 09:58:56 GMT-0600 (Mountain Daylight Time)","Mozilla/5.0 (Windows NT 10.0; Win64; x64) AppleWebKit/537.36 (KHTML, like Gecko) Chrome/85.0.4183.102 Safari/537.36",94,"[0.9, 0.5, 0.1]","[0.8, 0.4, 0.2]","[u'blue', u'red', u'black']","[u'left', u'middle', u'right']","[0.8, 0.4, 0.2]","[u'medium', u'high', u'low']","red",50,"middle","high","False","False",352,5950,NA
"A1TMZLYXQAK8Q0","Tue Sep 15 2020 09:50:58 GMT-0600 (Mountain Daylight Time)","Tue Sep 15 2020 09:58:56 GMT-0600 (Mountain Daylight Time)","Mozilla/5.0 (Windows NT 10.0; Win64; x64) AppleWebKit/537.36 (KHTML, like Gecko) Chrome/85.0.4183.102 Safari/537.36",95,"[0.9, 0.5, 0.1]","[0.8, 0.4, 0.2]","[u'blue', u'red', u'black']","[u'left', u'middle', u'right']","[0.8, 0.4, 0.2]","[u'medium', u'high', u'low']","black",51,"right","low","False","False",310,5900,NA
"A1TMZLYXQAK8Q0","Tue Sep 15 2020 09:50:58 GMT-0600 (Mountain Daylight Time)","Tue Sep 15 2020 09:58:56 GMT-0600 (Mountain Daylight Time)","Mozilla/5.0 (Windows NT 10.0; Win64; x64) AppleWebKit/537.36 (KHTML, like Gecko) Chrome/85.0.4183.102 Safari/537.36",96,"[0.9, 0.5, 0.1]","[0.8, 0.4, 0.2]","[u'blue', u'red', u'black']","[u'left', u'middle', u'right']","[0.8, 0.4, 0.2]","[u'medium', u'high', u'low']","red",50,"middle","high","False","False",138,5850,NA
"A1TMZLYXQAK8Q0","Tue Sep 15 2020 09:50:58 GMT-0600 (Mountain Daylight Time)","Tue Sep 15 2020 09:58:56 GMT-0600 (Mountain Daylight Time)","Mozilla/5.0 (Windows NT 10.0; Win64; x64) AppleWebKit/537.36 (KHTML, like Gecko) Chrome/85.0.4183.102 Safari/537.36",97,"[0.9, 0.5, 0.1]","[0.8, 0.4, 0.2]","[u'blue', u'red', u'black']","[u'left', u'middle', u'right']","[0.8, 0.4, 0.2]","[u'medium', u'high', u'low']","blue",49,"left","medium","True","False",202,5950,NA
"A1TMZLYXQAK8Q0","Tue Sep 15 2020 09:50:58 GMT-0600 (Mountain Daylight Time)","Tue Sep 15 2020 09:58:56 GMT-0600 (Mountain Daylight Time)","Mozilla/5.0 (Windows NT 10.0; Win64; x64) AppleWebKit/537.36 (KHTML, like Gecko) Chrome/85.0.4183.102 Safari/537.36",98,"[0.9, 0.5, 0.1]","[0.8, 0.4, 0.2]","[u'blue', u'red', u'black']","[u'left', u'middle', u'right']","[0.8, 0.4, 0.2]","[u'medium', u'high', u'low']","blue",49,"left","medium","True","False",252,6050,NA
"A1TMZLYXQAK8Q0","Tue Sep 15 2020 09:50:58 GMT-0600 (Mountain Daylight Time)","Tue Sep 15 2020 09:58:56 GMT-0600 (Mountain Daylight Time)","Mozilla/5.0 (Windows NT 10.0; Win64; x64) AppleWebKit/537.36 (KHTML, like Gecko) Chrome/85.0.4183.102 Safari/537.36",99,"[0.9, 0.5, 0.1]","[0.8, 0.4, 0.2]","[u'blue', u'red', u'black']","[u'left', u'middle', u'right']","[0.8, 0.4, 0.2]","[u'medium', u'high', u'low']","blue",49,"left","medium","True","False",332,6150,NA
"A1TMZLYXQAK8Q0","Tue Sep 15 2020 09:50:58 GMT-0600 (Mountain Daylight Time)","Tue Sep 15 2020 09:58:56 GMT-0600 (Mountain Daylight Time)","Mozilla/5.0 (Windows NT 10.0; Win64; x64) AppleWebKit/537.36 (KHTML, like Gecko) Chrome/85.0.4183.102 Safari/537.36",100,"[0.9, 0.5, 0.1]","[0.8, 0.4, 0.2]","[u'blue', u'red', u'black']","[u'left', u'middle', u'right']","[0.8, 0.4, 0.2]","[u'medium', u'high', u'low']","blue",49,"left","medium","False","False",333,6100,NA
"A1TMZLYXQAK8Q0","Tue Sep 15 2020 09:50:58 GMT-0600 (Mountain Daylight Time)","Tue Sep 15 2020 09:58:56 GMT-0600 (Mountain Daylight Time)","Mozilla/5.0 (Windows NT 10.0; Win64; x64) AppleWebKit/537.36 (KHTML, like Gecko) Chrome/85.0.4183.102 Safari/537.36",101,"[0.9, 0.5, 0.1]","[0.8, 0.4, 0.2]","[u'blue', u'red', u'black']","[u'left', u'middle', u'right']","[0.8, 0.4, 0.2]","[u'medium', u'high', u'low']","red",50,"middle","high","True","False",302,6200,NA
"A1TMZLYXQAK8Q0","Tue Sep 15 2020 09:50:58 GMT-0600 (Mountain Daylight Time)","Tue Sep 15 2020 09:58:56 GMT-0600 (Mountain Daylight Time)","Mozilla/5.0 (Windows NT 10.0; Win64; x64) AppleWebKit/537.36 (KHTML, like Gecko) Chrome/85.0.4183.102 Safari/537.36",102,"[0.9, 0.5, 0.1]","[0.8, 0.4, 0.2]","[u'blue', u'red', u'black']","[u'left', u'middle', u'right']","[0.8, 0.4, 0.2]","[u'medium', u'high', u'low']","red",50,"middle","high","True","False",320,6300,NA
"A1TMZLYXQAK8Q0","Tue Sep 15 2020 09:50:58 GMT-0600 (Mountain Daylight Time)","Tue Sep 15 2020 09:58:56 GMT-0600 (Mountain Daylight Time)","Mozilla/5.0 (Windows NT 10.0; Win64; x64) AppleWebKit/537.36 (KHTML, like Gecko) Chrome/85.0.4183.102 Safari/537.36",103,"[0.9, 0.5, 0.1]","[0.8, 0.4, 0.2]","[u'blue', u'red', u'black']","[u'left', u'middle', u'right']","[0.8, 0.4, 0.2]","[u'medium', u'high', u'low']","red",50,"middle","high","True","False",338,6400,NA
"A1TMZLYXQAK8Q0","Tue Sep 15 2020 09:50:58 GMT-0600 (Mountain Daylight Time)","Tue Sep 15 2020 09:58:56 GMT-0600 (Mountain Daylight Time)","Mozilla/5.0 (Windows NT 10.0; Win64; x64) AppleWebKit/537.36 (KHTML, like Gecko) Chrome/85.0.4183.102 Safari/537.36",104,"[0.9, 0.5, 0.1]","[0.8, 0.4, 0.2]","[u'blue', u'red', u'black']","[u'left', u'middle', u'right']","[0.8, 0.4, 0.2]","[u'medium', u'high', u'low']","red",50,"middle","high","True","False",320,6500,NA
"A1TMZLYXQAK8Q0","Tue Sep 15 2020 09:50:58 GMT-0600 (Mountain Daylight Time)","Tue Sep 15 2020 09:58:56 GMT-0600 (Mountain Daylight Time)","Mozilla/5.0 (Windows NT 10.0; Win64; x64) AppleWebKit/537.36 (KHTML, like Gecko) Chrome/85.0.4183.102 Safari/537.36",105,"[0.9, 0.5, 0.1]","[0.8, 0.4, 0.2]","[u'blue', u'red', u'black']","[u'left', u'middle', u'right']","[0.8, 0.4, 0.2]","[u'medium', u'high', u'low']","red",50,"middle","high","False","False",397,6450,NA
"A1TMZLYXQAK8Q0","Tue Sep 15 2020 09:50:58 GMT-0600 (Mountain Daylight Time)","Tue Sep 15 2020 09:58:56 GMT-0600 (Mountain Daylight Time)","Mozilla/5.0 (Windows NT 10.0; Win64; x64) AppleWebKit/537.36 (KHTML, like Gecko) Chrome/85.0.4183.102 Safari/537.36",106,"[0.9, 0.5, 0.1]","[0.8, 0.4, 0.2]","[u'blue', u'red', u'black']","[u'left', u'middle', u'right']","[0.8, 0.4, 0.2]","[u'medium', u'high', u'low']","black",51,"right","low","False","False",292,6400,NA
"A1TMZLYXQAK8Q0","Tue Sep 15 2020 09:50:58 GMT-0600 (Mountain Daylight Time)","Tue Sep 15 2020 09:58:56 GMT-0600 (Mountain Daylight Time)","Mozilla/5.0 (Windows NT 10.0; Win64; x64) AppleWebKit/537.36 (KHTML, like Gecko) Chrome/85.0.4183.102 Safari/537.36",107,"[0.9, 0.5, 0.1]","[0.8, 0.4, 0.2]","[u'blue', u'red', u'black']","[u'left', u'middle', u'right']","[0.8, 0.4, 0.2]","[u'medium', u'high', u'low']","blue",49,"left","medium","True","False",279,6500,NA
"A1TMZLYXQAK8Q0","Tue Sep 15 2020 09:50:58 GMT-0600 (Mountain Daylight Time)","Tue Sep 15 2020 09:58:56 GMT-0600 (Mountain Daylight Time)","Mozilla/5.0 (Windows NT 10.0; Win64; x64) AppleWebKit/537.36 (KHTML, like Gecko) Chrome/85.0.4183.102 Safari/537.36",108,"[0.9, 0.5, 0.1]","[0.8, 0.4, 0.2]","[u'blue', u'red', u'black']","[u'left', u'middle', u'right']","[0.8, 0.4, 0.2]","[u'medium', u'high', u'low']","blue",49,"left","medium","False","False",285,6450,NA
"A1TMZLYXQAK8Q0","Tue Sep 15 2020 09:50:58 GMT-0600 (Mountain Daylight Time)","Tue Sep 15 2020 09:58:56 GMT-0600 (Mountain Daylight Time)","Mozilla/5.0 (Windows NT 10.0; Win64; x64) AppleWebKit/537.36 (KHTML, like Gecko) Chrome/85.0.4183.102 Safari/537.36",109,"[0.9, 0.5, 0.1]","[0.8, 0.4, 0.2]","[u'blue', u'red', u'black']","[u'left', u'middle', u'right']","[0.8, 0.4, 0.2]","[u'medium', u'high', u'low']","red",50,"middle","high","False","False",253,6400,NA
"A1TMZLYXQAK8Q0","Tue Sep 15 2020 09:50:58 GMT-0600 (Mountain Daylight Time)","Tue Sep 15 2020 09:58:56 GMT-0600 (Mountain Daylight Time)","Mozilla/5.0 (Windows NT 10.0; Win64; x64) AppleWebKit/537.36 (KHTML, like Gecko) Chrome/85.0.4183.102 Safari/537.36",110,"[0.9, 0.5, 0.1]","[0.8, 0.4, 0.2]","[u'blue', u'red', u'black']","[u'left', u'middle', u'right']","[0.8, 0.4, 0.2]","[u'medium', u'high', u'low']","blue",49,"left","medium","False","False",239,6350,NA
"A1TMZLYXQAK8Q0","Tue Sep 15 2020 09:50:58 GMT-0600 (Mountain Daylight Time)","Tue Sep 15 2020 09:58:56 GMT-0600 (Mountain Daylight Time)","Mozilla/5.0 (Windows NT 10.0; Win64; x64) AppleWebKit/537.36 (KHTML, like Gecko) Chrome/85.0.4183.102 Safari/537.36",111,"[0.9, 0.5, 0.1]","[0.8, 0.4, 0.2]","[u'blue', u'red', u'black']","[u'left', u'middle', u'right']","[0.8, 0.4, 0.2]","[u'medium', u'high', u'low']","black",51,"right","low","False","False",168,6300,NA
"A1TMZLYXQAK8Q0","Tue Sep 15 2020 09:50:58 GMT-0600 (Mountain Daylight Time)","Tue Sep 15 2020 09:58:56 GMT-0600 (Mountain Daylight Time)","Mozilla/5.0 (Windows NT 10.0; Win64; x64) AppleWebKit/537.36 (KHTML, like Gecko) Chrome/85.0.4183.102 Safari/537.36",112,"[0.9, 0.5, 0.1]","[0.8, 0.4, 0.2]","[u'blue', u'red', u'black']","[u'left', u'middle', u'right']","[0.8, 0.4, 0.2]","[u'medium', u'high', u'low']","red",50,"middle","high","True","False",218,6400,NA
"A1TMZLYXQAK8Q0","Tue Sep 15 2020 09:50:58 GMT-0600 (Mountain Daylight Time)","Tue Sep 15 2020 09:58:56 GMT-0600 (Mountain Daylight Time)","Mozilla/5.0 (Windows NT 10.0; Win64; x64) AppleWebKit/537.36 (KHTML, like Gecko) Chrome/85.0.4183.102 Safari/537.36",113,"[0.9, 0.5, 0.1]","[0.8, 0.4, 0.2]","[u'blue', u'red', u'black']","[u'left', u'middle', u'right']","[0.8, 0.4, 0.2]","[u'medium', u'high', u'low']","red",50,"middle","high","True","False",250,6500,NA
"A1TMZLYXQAK8Q0","Tue Sep 15 2020 09:50:58 GMT-0600 (Mountain Daylight Time)","Tue Sep 15 2020 09:58:56 GMT-0600 (Mountain Daylight Time)","Mozilla/5.0 (Windows NT 10.0; Win64; x64) AppleWebKit/537.36 (KHTML, like Gecko) Chrome/85.0.4183.102 Safari/537.36",114,"[0.9, 0.5, 0.1]","[0.8, 0.4, 0.2]","[u'blue', u'red', u'black']","[u'left', u'middle', u'right']","[0.8, 0.4, 0.2]","[u'medium', u'high', u'low']","red",50,"middle","high","True","False",291,6600,NA
"A1TMZLYXQAK8Q0","Tue Sep 15 2020 09:50:58 GMT-0600 (Mountain Daylight Time)","Tue Sep 15 2020 09:58:56 GMT-0600 (Mountain Daylight Time)","Mozilla/5.0 (Windows NT 10.0; Win64; x64) AppleWebKit/537.36 (KHTML, like Gecko) Chrome/85.0.4183.102 Safari/537.36",115,"[0.9, 0.5, 0.1]","[0.8, 0.4, 0.2]","[u'blue', u'red', u'black']","[u'left', u'middle', u'right']","[0.8, 0.4, 0.2]","[u'medium', u'high', u'low']","red",50,"middle","high","False","False",391,6550,NA
"A1TMZLYXQAK8Q0","Tue Sep 15 2020 09:50:58 GMT-0600 (Mountain Daylight Time)","Tue Sep 15 2020 09:58:56 GMT-0600 (Mountain Daylight Time)","Mozilla/5.0 (Windows NT 10.0; Win64; x64) AppleWebKit/537.36 (KHTML, like Gecko) Chrome/85.0.4183.102 Safari/537.36",116,"[0.9, 0.5, 0.1]","[0.8, 0.4, 0.2]","[u'blue', u'red', u'black']","[u'left', u'middle', u'right']","[0.8, 0.4, 0.2]","[u'medium', u'high', u'low']","black",51,"right","low","False","False",416,6500,NA
"A1TMZLYXQAK8Q0","Tue Sep 15 2020 09:50:58 GMT-0600 (Mountain Daylight Time)","Tue Sep 15 2020 09:58:56 GMT-0600 (Mountain Daylight Time)","Mozilla/5.0 (Windows NT 10.0; Win64; x64) AppleWebKit/537.36 (KHTML, like Gecko) Chrome/85.0.4183.102 Safari/537.36",117,"[0.9, 0.5, 0.1]","[0.8, 0.4, 0.2]","[u'blue', u'red', u'black']","[u'left', u'middle', u'right']","[0.8, 0.4, 0.2]","[u'medium', u'high', u'low']","red",50,"middle","high","True","False",700,6600,NA
"A1TMZLYXQAK8Q0","Tue Sep 15 2020 09:50:58 GMT-0600 (Mountain Daylight Time)","Tue Sep 15 2020 09:58:56 GMT-0600 (Mountain Daylight Time)","Mozilla/5.0 (Windows NT 10.0; Win64; x64) AppleWebKit/537.36 (KHTML, like Gecko) Chrome/85.0.4183.102 Safari/537.36",118,"[0.9, 0.5, 0.1]","[0.8, 0.4, 0.2]","[u'blue', u'red', u'black']","[u'left', u'middle', u'right']","[0.8, 0.4, 0.2]","[u'medium', u'high', u'low']","red",50,"middle","high","True","False",278,6700,NA
"A1TMZLYXQAK8Q0","Tue Sep 15 2020 09:50:58 GMT-0600 (Mountain Daylight Time)","Tue Sep 15 2020 09:58:56 GMT-0600 (Mountain Daylight Time)","Mozilla/5.0 (Windows NT 10.0; Win64; x64) AppleWebKit/537.36 (KHTML, like Gecko) Chrome/85.0.4183.102 Safari/537.36",119,"[0.9, 0.5, 0.1]","[0.8, 0.4, 0.2]","[u'blue', u'red', u'black']","[u'left', u'middle', u'right']","[0.8, 0.4, 0.2]","[u'medium', u'high', u'low']","red",50,"middle","high","True","False",317,6800,NA
"A1TMZLYXQAK8Q0","Tue Sep 15 2020 09:50:58 GMT-0600 (Mountain Daylight Time)","Tue Sep 15 2020 09:58:56 GMT-0600 (Mountain Daylight Time)","Mozilla/5.0 (Windows NT 10.0; Win64; x64) AppleWebKit/537.36 (KHTML, like Gecko) Chrome/85.0.4183.102 Safari/537.36",120,"[0.9, 0.5, 0.1]","[0.8, 0.4, 0.2]","[u'blue', u'red', u'black']","[u'left', u'middle', u'right']","[0.8, 0.4, 0.2]","[u'medium', u'high', u'low']","red",50,"middle","high","False","False",345,6750,NA
"A1TMZLYXQAK8Q0","Tue Sep 15 2020 09:50:58 GMT-0600 (Mountain Daylight Time)","Tue Sep 15 2020 09:58:56 GMT-0600 (Mountain Daylight Time)","Mozilla/5.0 (Windows NT 10.0; Win64; x64) AppleWebKit/537.36 (KHTML, like Gecko) Chrome/85.0.4183.102 Safari/537.36",121,"[0.9, 0.5, 0.1]","[0.8, 0.4, 0.2]","[u'blue', u'red', u'black']","[u'left', u'middle', u'right']","[0.8, 0.4, 0.2]","[u'low', u'medium', u'high']","black",51,"right","high","True","False",582,6850,NA
"A1TMZLYXQAK8Q0","Tue Sep 15 2020 09:50:58 GMT-0600 (Mountain Daylight Time)","Tue Sep 15 2020 09:58:56 GMT-0600 (Mountain Daylight Time)","Mozilla/5.0 (Windows NT 10.0; Win64; x64) AppleWebKit/537.36 (KHTML, like Gecko) Chrome/85.0.4183.102 Safari/537.36",122,"[0.9, 0.5, 0.1]","[0.8, 0.4, 0.2]","[u'blue', u'red', u'black']","[u'left', u'middle', u'right']","[0.8, 0.4, 0.2]","[u'low', u'medium', u'high']","black",51,"right","high","True","False",288,6950,NA
"A1TMZLYXQAK8Q0","Tue Sep 15 2020 09:50:58 GMT-0600 (Mountain Daylight Time)","Tue Sep 15 2020 09:58:56 GMT-0600 (Mountain Daylight Time)","Mozilla/5.0 (Windows NT 10.0; Win64; x64) AppleWebKit/537.36 (KHTML, like Gecko) Chrome/85.0.4183.102 Safari/537.36",123,"[0.9, 0.5, 0.1]","[0.8, 0.4, 0.2]","[u'blue', u'red', u'black']","[u'left', u'middle', u'right']","[0.8, 0.4, 0.2]","[u'low', u'medium', u'high']","black",51,"right","high","True","False",258,7050,NA
"A1TMZLYXQAK8Q0","Tue Sep 15 2020 09:50:58 GMT-0600 (Mountain Daylight Time)","Tue Sep 15 2020 09:58:56 GMT-0600 (Mountain Daylight Time)","Mozilla/5.0 (Windows NT 10.0; Win64; x64) AppleWebKit/537.36 (KHTML, like Gecko) Chrome/85.0.4183.102 Safari/537.36",124,"[0.9, 0.5, 0.1]","[0.8, 0.4, 0.2]","[u'blue', u'red', u'black']","[u'left', u'middle', u'right']","[0.8, 0.4, 0.2]","[u'low', u'medium', u'high']","black",51,"right","high","True","False",364,7150,NA
"A1TMZLYXQAK8Q0","Tue Sep 15 2020 09:50:58 GMT-0600 (Mountain Daylight Time)","Tue Sep 15 2020 09:58:56 GMT-0600 (Mountain Daylight Time)","Mozilla/5.0 (Windows NT 10.0; Win64; x64) AppleWebKit/537.36 (KHTML, like Gecko) Chrome/85.0.4183.102 Safari/537.36",125,"[0.9, 0.5, 0.1]","[0.8, 0.4, 0.2]","[u'blue', u'red', u'black']","[u'left', u'middle', u'right']","[0.8, 0.4, 0.2]","[u'low', u'medium', u'high']","black",51,"right","high","True","False",412,7250,NA
"A1TMZLYXQAK8Q0","Tue Sep 15 2020 09:50:58 GMT-0600 (Mountain Daylight Time)","Tue Sep 15 2020 09:58:56 GMT-0600 (Mountain Daylight Time)","Mozilla/5.0 (Windows NT 10.0; Win64; x64) AppleWebKit/537.36 (KHTML, like Gecko) Chrome/85.0.4183.102 Safari/537.36",126,"[0.9, 0.5, 0.1]","[0.8, 0.4, 0.2]","[u'blue', u'red', u'black']","[u'left', u'middle', u'right']","[0.8, 0.4, 0.2]","[u'low', u'medium', u'high']","black",51,"right","high","False","False",325,7200,NA
"A1TMZLYXQAK8Q0","Tue Sep 15 2020 09:50:58 GMT-0600 (Mountain Daylight Time)","Tue Sep 15 2020 09:58:56 GMT-0600 (Mountain Daylight Time)","Mozilla/5.0 (Windows NT 10.0; Win64; x64) AppleWebKit/537.36 (KHTML, like Gecko) Chrome/85.0.4183.102 Safari/537.36",127,"[0.9, 0.5, 0.1]","[0.8, 0.4, 0.2]","[u'blue', u'red', u'black']","[u'left', u'middle', u'right']","[0.8, 0.4, 0.2]","[u'low', u'medium', u'high']","blue",49,"left","low","False","False",271,7150,NA
"A1TMZLYXQAK8Q0","Tue Sep 15 2020 09:50:58 GMT-0600 (Mountain Daylight Time)","Tue Sep 15 2020 09:58:56 GMT-0600 (Mountain Daylight Time)","Mozilla/5.0 (Windows NT 10.0; Win64; x64) AppleWebKit/537.36 (KHTML, like Gecko) Chrome/85.0.4183.102 Safari/537.36",128,"[0.9, 0.5, 0.1]","[0.8, 0.4, 0.2]","[u'blue', u'red', u'black']","[u'left', u'middle', u'right']","[0.8, 0.4, 0.2]","[u'low', u'medium', u'high']","red",50,"middle","medium","False","False",1834,7100,NA
"A1TMZLYXQAK8Q0","Tue Sep 15 2020 09:50:58 GMT-0600 (Mountain Daylight Time)","Tue Sep 15 2020 09:58:56 GMT-0600 (Mountain Daylight Time)","Mozilla/5.0 (Windows NT 10.0; Win64; x64) AppleWebKit/537.36 (KHTML, like Gecko) Chrome/85.0.4183.102 Safari/537.36",129,"[0.9, 0.5, 0.1]","[0.8, 0.4, 0.2]","[u'blue', u'red', u'black']","[u'left', u'middle', u'right']","[0.8, 0.4, 0.2]","[u'low', u'medium', u'high']","blue",49,"left","low","True","False",231,7200,NA
"A1TMZLYXQAK8Q0","Tue Sep 15 2020 09:50:58 GMT-0600 (Mountain Daylight Time)","Tue Sep 15 2020 09:58:56 GMT-0600 (Mountain Daylight Time)","Mozilla/5.0 (Windows NT 10.0; Win64; x64) AppleWebKit/537.36 (KHTML, like Gecko) Chrome/85.0.4183.102 Safari/537.36",130,"[0.9, 0.5, 0.1]","[0.8, 0.4, 0.2]","[u'blue', u'red', u'black']","[u'left', u'middle', u'right']","[0.8, 0.4, 0.2]","[u'low', u'medium', u'high']","blue",49,"left","low","True","False",277,7300,NA
"A1TMZLYXQAK8Q0","Tue Sep 15 2020 09:50:58 GMT-0600 (Mountain Daylight Time)","Tue Sep 15 2020 09:58:56 GMT-0600 (Mountain Daylight Time)","Mozilla/5.0 (Windows NT 10.0; Win64; x64) AppleWebKit/537.36 (KHTML, like Gecko) Chrome/85.0.4183.102 Safari/537.36",131,"[0.9, 0.5, 0.1]","[0.8, 0.4, 0.2]","[u'blue', u'red', u'black']","[u'left', u'middle', u'right']","[0.8, 0.4, 0.2]","[u'low', u'medium', u'high']","blue",49,"left","low","False","False",276,7250,NA
"A1TMZLYXQAK8Q0","Tue Sep 15 2020 09:50:58 GMT-0600 (Mountain Daylight Time)","Tue Sep 15 2020 09:58:56 GMT-0600 (Mountain Daylight Time)","Mozilla/5.0 (Windows NT 10.0; Win64; x64) AppleWebKit/537.36 (KHTML, like Gecko) Chrome/85.0.4183.102 Safari/537.36",132,"[0.9, 0.5, 0.1]","[0.8, 0.4, 0.2]","[u'blue', u'red', u'black']","[u'left', u'middle', u'right']","[0.8, 0.4, 0.2]","[u'low', u'medium', u'high']","red",50,"middle","medium","False","False",217,7200,NA
"A1TMZLYXQAK8Q0","Tue Sep 15 2020 09:50:58 GMT-0600 (Mountain Daylight Time)","Tue Sep 15 2020 09:58:56 GMT-0600 (Mountain Daylight Time)","Mozilla/5.0 (Windows NT 10.0; Win64; x64) AppleWebKit/537.36 (KHTML, like Gecko) Chrome/85.0.4183.102 Safari/537.36",133,"[0.9, 0.5, 0.1]","[0.8, 0.4, 0.2]","[u'blue', u'red', u'black']","[u'left', u'middle', u'right']","[0.8, 0.4, 0.2]","[u'low', u'medium', u'high']","black",51,"right","high","False","False",1688,7150,NA
"A1TMZLYXQAK8Q0","Tue Sep 15 2020 09:50:58 GMT-0600 (Mountain Daylight Time)","Tue Sep 15 2020 09:58:56 GMT-0600 (Mountain Daylight Time)","Mozilla/5.0 (Windows NT 10.0; Win64; x64) AppleWebKit/537.36 (KHTML, like Gecko) Chrome/85.0.4183.102 Safari/537.36",134,"[0.9, 0.5, 0.1]","[0.8, 0.4, 0.2]","[u'blue', u'red', u'black']","[u'left', u'middle', u'right']","[0.8, 0.4, 0.2]","[u'low', u'medium', u'high']","blue",49,"left","low","False","False",240,7100,NA
"A1TMZLYXQAK8Q0","Tue Sep 15 2020 09:50:58 GMT-0600 (Mountain Daylight Time)","Tue Sep 15 2020 09:58:56 GMT-0600 (Mountain Daylight Time)","Mozilla/5.0 (Windows NT 10.0; Win64; x64) AppleWebKit/537.36 (KHTML, like Gecko) Chrome/85.0.4183.102 Safari/537.36",135,"[0.9, 0.5, 0.1]","[0.8, 0.4, 0.2]","[u'blue', u'red', u'black']","[u'left', u'middle', u'right']","[0.8, 0.4, 0.2]","[u'low', u'medium', u'high']","red",50,"middle","medium","False","False",142,7050,NA
"A1TMZLYXQAK8Q0","Tue Sep 15 2020 09:50:58 GMT-0600 (Mountain Daylight Time)","Tue Sep 15 2020 09:58:56 GMT-0600 (Mountain Daylight Time)","Mozilla/5.0 (Windows NT 10.0; Win64; x64) AppleWebKit/537.36 (KHTML, like Gecko) Chrome/85.0.4183.102 Safari/537.36",136,"[0.9, 0.5, 0.1]","[0.8, 0.4, 0.2]","[u'blue', u'red', u'black']","[u'left', u'middle', u'right']","[0.8, 0.4, 0.2]","[u'low', u'medium', u'high']","black",51,"right","high","True","False",236,7150,NA
"A1TMZLYXQAK8Q0","Tue Sep 15 2020 09:50:58 GMT-0600 (Mountain Daylight Time)","Tue Sep 15 2020 09:58:56 GMT-0600 (Mountain Daylight Time)","Mozilla/5.0 (Windows NT 10.0; Win64; x64) AppleWebKit/537.36 (KHTML, like Gecko) Chrome/85.0.4183.102 Safari/537.36",137,"[0.9, 0.5, 0.1]","[0.8, 0.4, 0.2]","[u'blue', u'red', u'black']","[u'left', u'middle', u'right']","[0.8, 0.4, 0.2]","[u'low', u'medium', u'high']","black",51,"right","high","False","False",226,7100,NA
"A1TMZLYXQAK8Q0","Tue Sep 15 2020 09:50:58 GMT-0600 (Mountain Daylight Time)","Tue Sep 15 2020 09:58:56 GMT-0600 (Mountain Daylight Time)","Mozilla/5.0 (Windows NT 10.0; Win64; x64) AppleWebKit/537.36 (KHTML, like Gecko) Chrome/85.0.4183.102 Safari/537.36",138,"[0.9, 0.5, 0.1]","[0.8, 0.4, 0.2]","[u'blue', u'red', u'black']","[u'left', u'middle', u'right']","[0.8, 0.4, 0.2]","[u'low', u'medium', u'high']","blue",49,"left","low","False","False",285,7050,NA
"A1TMZLYXQAK8Q0","Tue Sep 15 2020 09:50:58 GMT-0600 (Mountain Daylight Time)","Tue Sep 15 2020 09:58:56 GMT-0600 (Mountain Daylight Time)","Mozilla/5.0 (Windows NT 10.0; Win64; x64) AppleWebKit/537.36 (KHTML, like Gecko) Chrome/85.0.4183.102 Safari/537.36",139,"[0.9, 0.5, 0.1]","[0.8, 0.4, 0.2]","[u'blue', u'red', u'black']","[u'left', u'middle', u'right']","[0.8, 0.4, 0.2]","[u'low', u'medium', u'high']","black",51,"right","high","True","False",289,7150,NA
"A1TMZLYXQAK8Q0","Tue Sep 15 2020 09:50:58 GMT-0600 (Mountain Daylight Time)","Tue Sep 15 2020 09:58:56 GMT-0600 (Mountain Daylight Time)","Mozilla/5.0 (Windows NT 10.0; Win64; x64) AppleWebKit/537.36 (KHTML, like Gecko) Chrome/85.0.4183.102 Safari/537.36",140,"[0.9, 0.5, 0.1]","[0.8, 0.4, 0.2]","[u'blue', u'red', u'black']","[u'left', u'middle', u'right']","[0.8, 0.4, 0.2]","[u'low', u'medium', u'high']","black",51,"right","high","True","False",239,7250,NA
"A1TMZLYXQAK8Q0","Tue Sep 15 2020 09:50:58 GMT-0600 (Mountain Daylight Time)","Tue Sep 15 2020 09:58:56 GMT-0600 (Mountain Daylight Time)","Mozilla/5.0 (Windows NT 10.0; Win64; x64) AppleWebKit/537.36 (KHTML, like Gecko) Chrome/85.0.4183.102 Safari/537.36",141,"[0.9, 0.5, 0.1]","[0.8, 0.4, 0.2]","[u'blue', u'red', u'black']","[u'left', u'middle', u'right']","[0.8, 0.4, 0.2]","[u'low', u'medium', u'high']","black",51,"right","high","True","False",356,7350,NA
"A1TMZLYXQAK8Q0","Tue Sep 15 2020 09:50:58 GMT-0600 (Mountain Daylight Time)","Tue Sep 15 2020 09:58:56 GMT-0600 (Mountain Daylight Time)","Mozilla/5.0 (Windows NT 10.0; Win64; x64) AppleWebKit/537.36 (KHTML, like Gecko) Chrome/85.0.4183.102 Safari/537.36",142,"[0.9, 0.5, 0.1]","[0.8, 0.4, 0.2]","[u'blue', u'red', u'black']","[u'left', u'middle', u'right']","[0.8, 0.4, 0.2]","[u'low', u'medium', u'high']","black",51,"right","high","True","False",300,7450,NA
"A1TMZLYXQAK8Q0","Tue Sep 15 2020 09:50:58 GMT-0600 (Mountain Daylight Time)","Tue Sep 15 2020 09:58:56 GMT-0600 (Mountain Daylight Time)","Mozilla/5.0 (Windows NT 10.0; Win64; x64) AppleWebKit/537.36 (KHTML, like Gecko) Chrome/85.0.4183.102 Safari/537.36",143,"[0.9, 0.5, 0.1]","[0.8, 0.4, 0.2]","[u'blue', u'red', u'black']","[u'left', u'middle', u'right']","[0.8, 0.4, 0.2]","[u'low', u'medium', u'high']","black",51,"right","high","True","False",438,7550,NA
"A1TMZLYXQAK8Q0","Tue Sep 15 2020 09:50:58 GMT-0600 (Mountain Daylight Time)","Tue Sep 15 2020 09:58:56 GMT-0600 (Mountain Daylight Time)","Mozilla/5.0 (Windows NT 10.0; Win64; x64) AppleWebKit/537.36 (KHTML, like Gecko) Chrome/85.0.4183.102 Safari/537.36",144,"[0.9, 0.5, 0.1]","[0.8, 0.4, 0.2]","[u'blue', u'red', u'black']","[u'left', u'middle', u'right']","[0.8, 0.4, 0.2]","[u'low', u'medium', u'high']","black",51,"right","high","True","False",298,7650,NA
"A1TMZLYXQAK8Q0","Tue Sep 15 2020 09:50:58 GMT-0600 (Mountain Daylight Time)","Tue Sep 15 2020 09:58:56 GMT-0600 (Mountain Daylight Time)","Mozilla/5.0 (Windows NT 10.0; Win64; x64) AppleWebKit/537.36 (KHTML, like Gecko) Chrome/85.0.4183.102 Safari/537.36",145,"[0.9, 0.5, 0.1]","[0.8, 0.4, 0.2]","[u'blue', u'red', u'black']","[u'left', u'middle', u'right']","[0.8, 0.4, 0.2]","[u'low', u'medium', u'high']","black",51,"right","high","False","True",286,7600,NA
"A1TMZLYXQAK8Q0","Tue Sep 15 2020 09:50:58 GMT-0600 (Mountain Daylight Time)","Tue Sep 15 2020 09:58:56 GMT-0600 (Mountain Daylight Time)","Mozilla/5.0 (Windows NT 10.0; Win64; x64) AppleWebKit/537.36 (KHTML, like Gecko) Chrome/85.0.4183.102 Safari/537.36",146,"[0.9, 0.5, 0.1]","[0.8, 0.4, 0.2]","[u'blue', u'red', u'black']","[u'left', u'middle', u'right']","[0.8, 0.4, 0.2]","[u'low', u'high', u'medium']","blue",49,"left","low","False","False",271,7550,NA
"A1TMZLYXQAK8Q0","Tue Sep 15 2020 09:50:58 GMT-0600 (Mountain Daylight Time)","Tue Sep 15 2020 09:58:56 GMT-0600 (Mountain Daylight Time)","Mozilla/5.0 (Windows NT 10.0; Win64; x64) AppleWebKit/537.36 (KHTML, like Gecko) Chrome/85.0.4183.102 Safari/537.36",147,"[0.9, 0.5, 0.1]","[0.8, 0.4, 0.2]","[u'blue', u'red', u'black']","[u'left', u'middle', u'right']","[0.8, 0.4, 0.2]","[u'low', u'high', u'medium']","red",50,"middle","high","True","False",459,7650,NA
"A1TMZLYXQAK8Q0","Tue Sep 15 2020 09:50:58 GMT-0600 (Mountain Daylight Time)","Tue Sep 15 2020 09:58:56 GMT-0600 (Mountain Daylight Time)","Mozilla/5.0 (Windows NT 10.0; Win64; x64) AppleWebKit/537.36 (KHTML, like Gecko) Chrome/85.0.4183.102 Safari/537.36",148,"[0.9, 0.5, 0.1]","[0.8, 0.4, 0.2]","[u'blue', u'red', u'black']","[u'left', u'middle', u'right']","[0.8, 0.4, 0.2]","[u'low', u'high', u'medium']","red",50,"middle","high","True","False",321,7750,NA
"A1TMZLYXQAK8Q0","Tue Sep 15 2020 09:50:58 GMT-0600 (Mountain Daylight Time)","Tue Sep 15 2020 09:58:56 GMT-0600 (Mountain Daylight Time)","Mozilla/5.0 (Windows NT 10.0; Win64; x64) AppleWebKit/537.36 (KHTML, like Gecko) Chrome/85.0.4183.102 Safari/537.36",149,"[0.9, 0.5, 0.1]","[0.8, 0.4, 0.2]","[u'blue', u'red', u'black']","[u'left', u'middle', u'right']","[0.8, 0.4, 0.2]","[u'low', u'high', u'medium']","red",50,"middle","high","False","False",285,7700,NA
"A1TMZLYXQAK8Q0","Tue Sep 15 2020 09:50:58 GMT-0600 (Mountain Daylight Time)","Tue Sep 15 2020 09:58:56 GMT-0600 (Mountain Daylight Time)","Mozilla/5.0 (Windows NT 10.0; Win64; x64) AppleWebKit/537.36 (KHTML, like Gecko) Chrome/85.0.4183.102 Safari/537.36",150,"[0.9, 0.5, 0.1]","[0.8, 0.4, 0.2]","[u'blue', u'red', u'black']","[u'left', u'middle', u'right']","[0.8, 0.4, 0.2]","[u'low', u'high', u'medium']","black",51,"right","medium","False","False",255,7650,NA
"A1TMZLYXQAK8Q0","Tue Sep 15 2020 09:50:58 GMT-0600 (Mountain Daylight Time)","Tue Sep 15 2020 09:58:56 GMT-0600 (Mountain Daylight Time)","Mozilla/5.0 (Windows NT 10.0; Win64; x64) AppleWebKit/537.36 (KHTML, like Gecko) Chrome/85.0.4183.102 Safari/537.36",151,"[0.9, 0.5, 0.1]","[0.8, 0.4, 0.2]","[u'blue', u'red', u'black']","[u'left', u'middle', u'right']","[0.8, 0.4, 0.2]","[u'low', u'high', u'medium']","red",50,"middle","high","True","False",188,7750,NA
"A1TMZLYXQAK8Q0","Tue Sep 15 2020 09:50:58 GMT-0600 (Mountain Daylight Time)","Tue Sep 15 2020 09:58:56 GMT-0600 (Mountain Daylight Time)","Mozilla/5.0 (Windows NT 10.0; Win64; x64) AppleWebKit/537.36 (KHTML, like Gecko) Chrome/85.0.4183.102 Safari/537.36",152,"[0.9, 0.5, 0.1]","[0.8, 0.4, 0.2]","[u'blue', u'red', u'black']","[u'left', u'middle', u'right']","[0.8, 0.4, 0.2]","[u'low', u'high', u'medium']","red",50,"middle","high","True","False",253,7850,NA
"A1TMZLYXQAK8Q0","Tue Sep 15 2020 09:50:58 GMT-0600 (Mountain Daylight Time)","Tue Sep 15 2020 09:58:56 GMT-0600 (Mountain Daylight Time)","Mozilla/5.0 (Windows NT 10.0; Win64; x64) AppleWebKit/537.36 (KHTML, like Gecko) Chrome/85.0.4183.102 Safari/537.36",153,"[0.9, 0.5, 0.1]","[0.8, 0.4, 0.2]","[u'blue', u'red', u'black']","[u'left', u'middle', u'right']","[0.8, 0.4, 0.2]","[u'low', u'high', u'medium']","red",50,"middle","high","True","False",303,7950,NA
"A1TMZLYXQAK8Q0","Tue Sep 15 2020 09:50:58 GMT-0600 (Mountain Daylight Time)","Tue Sep 15 2020 09:58:56 GMT-0600 (Mountain Daylight Time)","Mozilla/5.0 (Windows NT 10.0; Win64; x64) AppleWebKit/537.36 (KHTML, like Gecko) Chrome/85.0.4183.102 Safari/537.36",154,"[0.9, 0.5, 0.1]","[0.8, 0.4, 0.2]","[u'blue', u'red', u'black']","[u'left', u'middle', u'right']","[0.8, 0.4, 0.2]","[u'low', u'high', u'medium']","red",50,"middle","high","False","False",291,7900,NA
"A1TMZLYXQAK8Q0","Tue Sep 15 2020 09:50:58 GMT-0600 (Mountain Daylight Time)","Tue Sep 15 2020 09:58:56 GMT-0600 (Mountain Daylight Time)","Mozilla/5.0 (Windows NT 10.0; Win64; x64) AppleWebKit/537.36 (KHTML, like Gecko) Chrome/85.0.4183.102 Safari/537.36",155,"[0.9, 0.5, 0.1]","[0.8, 0.4, 0.2]","[u'blue', u'red', u'black']","[u'left', u'middle', u'right']","[0.8, 0.4, 0.2]","[u'low', u'high', u'medium']","black",51,"right","medium","True","False",221,8000,NA
"A1TMZLYXQAK8Q0","Tue Sep 15 2020 09:50:58 GMT-0600 (Mountain Daylight Time)","Tue Sep 15 2020 09:58:56 GMT-0600 (Mountain Daylight Time)","Mozilla/5.0 (Windows NT 10.0; Win64; x64) AppleWebKit/537.36 (KHTML, like Gecko) Chrome/85.0.4183.102 Safari/537.36",156,"[0.9, 0.5, 0.1]","[0.8, 0.4, 0.2]","[u'blue', u'red', u'black']","[u'left', u'middle', u'right']","[0.8, 0.4, 0.2]","[u'low', u'high', u'medium']","black",51,"right","medium","False","False",283,7950,NA
"A1TMZLYXQAK8Q0","Tue Sep 15 2020 09:50:58 GMT-0600 (Mountain Daylight Time)","Tue Sep 15 2020 09:58:56 GMT-0600 (Mountain Daylight Time)","Mozilla/5.0 (Windows NT 10.0; Win64; x64) AppleWebKit/537.36 (KHTML, like Gecko) Chrome/85.0.4183.102 Safari/537.36",157,"[0.9, 0.5, 0.1]","[0.8, 0.4, 0.2]","[u'blue', u'red', u'black']","[u'left', u'middle', u'right']","[0.8, 0.4, 0.2]","[u'low', u'high', u'medium']","black",51,"right","medium","True","False",234,8050,NA
"A1TMZLYXQAK8Q0","Tue Sep 15 2020 09:50:58 GMT-0600 (Mountain Daylight Time)","Tue Sep 15 2020 09:58:56 GMT-0600 (Mountain Daylight Time)","Mozilla/5.0 (Windows NT 10.0; Win64; x64) AppleWebKit/537.36 (KHTML, like Gecko) Chrome/85.0.4183.102 Safari/537.36",158,"[0.9, 0.5, 0.1]","[0.8, 0.4, 0.2]","[u'blue', u'red', u'black']","[u'left', u'middle', u'right']","[0.8, 0.4, 0.2]","[u'low', u'high', u'medium']","black",51,"right","medium","True","False",286,8150,NA
"A1TMZLYXQAK8Q0","Tue Sep 15 2020 09:50:58 GMT-0600 (Mountain Daylight Time)","Tue Sep 15 2020 09:58:56 GMT-0600 (Mountain Daylight Time)","Mozilla/5.0 (Windows NT 10.0; Win64; x64) AppleWebKit/537.36 (KHTML, like Gecko) Chrome/85.0.4183.102 Safari/537.36",159,"[0.9, 0.5, 0.1]","[0.8, 0.4, 0.2]","[u'blue', u'red', u'black']","[u'left', u'middle', u'right']","[0.8, 0.4, 0.2]","[u'low', u'high', u'medium']","black",51,"right","medium","False","False",274,8100,NA
"A1TMZLYXQAK8Q0","Tue Sep 15 2020 09:50:58 GMT-0600 (Mountain Daylight Time)","Tue Sep 15 2020 09:58:56 GMT-0600 (Mountain Daylight Time)","Mozilla/5.0 (Windows NT 10.0; Win64; x64) AppleWebKit/537.36 (KHTML, like Gecko) Chrome/85.0.4183.102 Safari/537.36",160,"[0.9, 0.5, 0.1]","[0.8, 0.4, 0.2]","[u'blue', u'red', u'black']","[u'left', u'middle', u'right']","[0.8, 0.4, 0.2]","[u'low', u'high', u'medium']","blue",49,"left","low","False","False",263,8050,NA
