"src_subject_id","start_time","end_time","browser","index","first_half_probabilities","second_half_probabilities","deck_color","deck_position","deck_probabilities","deck_contingencies","response_color","key_press","response_position","response_probability","reward_type","trial_type","rt","reward_tally","exclusion_reason"
"A2541C8MY0BYV3","Tue Jan 28 2020 08:37:53 GMT-0500 (Eastern Standard Time)","Tue Jan 28 2020 08:44:01 GMT-0500 (Eastern Standard Time)","Mozilla/5.0 (Windows NT 10.0; Win64; x64; rv:72.0) Gecko/20100101 Firefox/72.0",1,"[0.9, 0.5, 0.1]","[0.8, 0.4, 0.2]","[u'blue', u'black', u'red']","[u'left', u'middle', u'right']","[0.9, 0.5, 0.1]","[u'high', u'low', u'medium']","black",50,"middle","low",FALSE,FALSE,1069,-50,NA
"A2541C8MY0BYV3","Tue Jan 28 2020 08:37:53 GMT-0500 (Eastern Standard Time)","Tue Jan 28 2020 08:44:01 GMT-0500 (Eastern Standard Time)","Mozilla/5.0 (Windows NT 10.0; Win64; x64; rv:72.0) Gecko/20100101 Firefox/72.0",2,"[0.9, 0.5, 0.1]","[0.8, 0.4, 0.2]","[u'blue', u'black', u'red']","[u'left', u'middle', u'right']","[0.9, 0.5, 0.1]","[u'high', u'low', u'medium']","blue",49,"left","high",TRUE,FALSE,415,50,NA
"A2541C8MY0BYV3","Tue Jan 28 2020 08:37:53 GMT-0500 (Eastern Standard Time)","Tue Jan 28 2020 08:44:01 GMT-0500 (Eastern Standard Time)","Mozilla/5.0 (Windows NT 10.0; Win64; x64; rv:72.0) Gecko/20100101 Firefox/72.0",3,"[0.9, 0.5, 0.1]","[0.8, 0.4, 0.2]","[u'blue', u'black', u'red']","[u'left', u'middle', u'right']","[0.9, 0.5, 0.1]","[u'high', u'low', u'medium']","blue",49,"left","high",TRUE,FALSE,287,150,NA
"A2541C8MY0BYV3","Tue Jan 28 2020 08:37:53 GMT-0500 (Eastern Standard Time)","Tue Jan 28 2020 08:44:01 GMT-0500 (Eastern Standard Time)","Mozilla/5.0 (Windows NT 10.0; Win64; x64; rv:72.0) Gecko/20100101 Firefox/72.0",4,"[0.9, 0.5, 0.1]","[0.8, 0.4, 0.2]","[u'blue', u'black', u'red']","[u'left', u'middle', u'right']","[0.9, 0.5, 0.1]","[u'high', u'low', u'medium']","blue",49,"left","high",TRUE,FALSE,276,250,NA
"A2541C8MY0BYV3","Tue Jan 28 2020 08:37:53 GMT-0500 (Eastern Standard Time)","Tue Jan 28 2020 08:44:01 GMT-0500 (Eastern Standard Time)","Mozilla/5.0 (Windows NT 10.0; Win64; x64; rv:72.0) Gecko/20100101 Firefox/72.0",5,"[0.9, 0.5, 0.1]","[0.8, 0.4, 0.2]","[u'blue', u'black', u'red']","[u'left', u'middle', u'right']","[0.9, 0.5, 0.1]","[u'high', u'low', u'medium']","blue",49,"left","high",TRUE,FALSE,427,350,NA
"A2541C8MY0BYV3","Tue Jan 28 2020 08:37:53 GMT-0500 (Eastern Standard Time)","Tue Jan 28 2020 08:44:01 GMT-0500 (Eastern Standard Time)","Mozilla/5.0 (Windows NT 10.0; Win64; x64; rv:72.0) Gecko/20100101 Firefox/72.0",6,"[0.9, 0.5, 0.1]","[0.8, 0.4, 0.2]","[u'blue', u'black', u'red']","[u'left', u'middle', u'right']","[0.9, 0.5, 0.1]","[u'high', u'low', u'medium']","blue",49,"left","high",TRUE,FALSE,277,450,NA
"A2541C8MY0BYV3","Tue Jan 28 2020 08:37:53 GMT-0500 (Eastern Standard Time)","Tue Jan 28 2020 08:44:01 GMT-0500 (Eastern Standard Time)","Mozilla/5.0 (Windows NT 10.0; Win64; x64; rv:72.0) Gecko/20100101 Firefox/72.0",7,"[0.9, 0.5, 0.1]","[0.8, 0.4, 0.2]","[u'blue', u'black', u'red']","[u'left', u'middle', u'right']","[0.9, 0.5, 0.1]","[u'high', u'low', u'medium']","blue",49,"left","high",TRUE,FALSE,129,550,NA
"A2541C8MY0BYV3","Tue Jan 28 2020 08:37:53 GMT-0500 (Eastern Standard Time)","Tue Jan 28 2020 08:44:01 GMT-0500 (Eastern Standard Time)","Mozilla/5.0 (Windows NT 10.0; Win64; x64; rv:72.0) Gecko/20100101 Firefox/72.0",8,"[0.9, 0.5, 0.1]","[0.8, 0.4, 0.2]","[u'blue', u'black', u'red']","[u'left', u'middle', u'right']","[0.9, 0.5, 0.1]","[u'high', u'low', u'medium']","blue",49,"left","high",TRUE,FALSE,308,650,NA
"A2541C8MY0BYV3","Tue Jan 28 2020 08:37:53 GMT-0500 (Eastern Standard Time)","Tue Jan 28 2020 08:44:01 GMT-0500 (Eastern Standard Time)","Mozilla/5.0 (Windows NT 10.0; Win64; x64; rv:72.0) Gecko/20100101 Firefox/72.0",9,"[0.9, 0.5, 0.1]","[0.8, 0.4, 0.2]","[u'blue', u'black', u'red']","[u'left', u'middle', u'right']","[0.9, 0.5, 0.1]","[u'high', u'low', u'medium']","blue",49,"left","high",TRUE,FALSE,357,750,NA
"A2541C8MY0BYV3","Tue Jan 28 2020 08:37:53 GMT-0500 (Eastern Standard Time)","Tue Jan 28 2020 08:44:01 GMT-0500 (Eastern Standard Time)","Mozilla/5.0 (Windows NT 10.0; Win64; x64; rv:72.0) Gecko/20100101 Firefox/72.0",10,"[0.9, 0.5, 0.1]","[0.8, 0.4, 0.2]","[u'blue', u'black', u'red']","[u'left', u'middle', u'right']","[0.9, 0.5, 0.1]","[u'high', u'low', u'medium']","blue",49,"left","high",TRUE,TRUE,2378,850,NA
"A2541C8MY0BYV3","Tue Jan 28 2020 08:37:53 GMT-0500 (Eastern Standard Time)","Tue Jan 28 2020 08:44:01 GMT-0500 (Eastern Standard Time)","Mozilla/5.0 (Windows NT 10.0; Win64; x64; rv:72.0) Gecko/20100101 Firefox/72.0",11,"[0.9, 0.5, 0.1]","[0.8, 0.4, 0.2]","[u'blue', u'black', u'red']","[u'left', u'middle', u'right']","[0.9, 0.5, 0.1]","[u'low', u'high', u'medium']","blue",49,"left","low",FALSE,FALSE,484,800,NA
"A2541C8MY0BYV3","Tue Jan 28 2020 08:37:53 GMT-0500 (Eastern Standard Time)","Tue Jan 28 2020 08:44:01 GMT-0500 (Eastern Standard Time)","Mozilla/5.0 (Windows NT 10.0; Win64; x64; rv:72.0) Gecko/20100101 Firefox/72.0",12,"[0.9, 0.5, 0.1]","[0.8, 0.4, 0.2]","[u'blue', u'black', u'red']","[u'left', u'middle', u'right']","[0.9, 0.5, 0.1]","[u'low', u'high', u'medium']","black",50,"middle","high",TRUE,FALSE,448,900,NA
"A2541C8MY0BYV3","Tue Jan 28 2020 08:37:53 GMT-0500 (Eastern Standard Time)","Tue Jan 28 2020 08:44:01 GMT-0500 (Eastern Standard Time)","Mozilla/5.0 (Windows NT 10.0; Win64; x64; rv:72.0) Gecko/20100101 Firefox/72.0",13,"[0.9, 0.5, 0.1]","[0.8, 0.4, 0.2]","[u'blue', u'black', u'red']","[u'left', u'middle', u'right']","[0.9, 0.5, 0.1]","[u'low', u'high', u'medium']","black",50,"middle","high",TRUE,FALSE,373,1000,NA
"A2541C8MY0BYV3","Tue Jan 28 2020 08:37:53 GMT-0500 (Eastern Standard Time)","Tue Jan 28 2020 08:44:01 GMT-0500 (Eastern Standard Time)","Mozilla/5.0 (Windows NT 10.0; Win64; x64; rv:72.0) Gecko/20100101 Firefox/72.0",14,"[0.9, 0.5, 0.1]","[0.8, 0.4, 0.2]","[u'blue', u'black', u'red']","[u'left', u'middle', u'right']","[0.9, 0.5, 0.1]","[u'low', u'high', u'medium']","black",50,"middle","high",TRUE,FALSE,218,1100,NA
"A2541C8MY0BYV3","Tue Jan 28 2020 08:37:53 GMT-0500 (Eastern Standard Time)","Tue Jan 28 2020 08:44:01 GMT-0500 (Eastern Standard Time)","Mozilla/5.0 (Windows NT 10.0; Win64; x64; rv:72.0) Gecko/20100101 Firefox/72.0",15,"[0.9, 0.5, 0.1]","[0.8, 0.4, 0.2]","[u'blue', u'black', u'red']","[u'left', u'middle', u'right']","[0.9, 0.5, 0.1]","[u'low', u'high', u'medium']","black",50,"middle","high",TRUE,FALSE,248,1200,NA
"A2541C8MY0BYV3","Tue Jan 28 2020 08:37:53 GMT-0500 (Eastern Standard Time)","Tue Jan 28 2020 08:44:01 GMT-0500 (Eastern Standard Time)","Mozilla/5.0 (Windows NT 10.0; Win64; x64; rv:72.0) Gecko/20100101 Firefox/72.0",16,"[0.9, 0.5, 0.1]","[0.8, 0.4, 0.2]","[u'blue', u'black', u'red']","[u'left', u'middle', u'right']","[0.9, 0.5, 0.1]","[u'low', u'high', u'medium']","black",50,"middle","high",TRUE,FALSE,221,1300,NA
"A2541C8MY0BYV3","Tue Jan 28 2020 08:37:53 GMT-0500 (Eastern Standard Time)","Tue Jan 28 2020 08:44:01 GMT-0500 (Eastern Standard Time)","Mozilla/5.0 (Windows NT 10.0; Win64; x64; rv:72.0) Gecko/20100101 Firefox/72.0",17,"[0.9, 0.5, 0.1]","[0.8, 0.4, 0.2]","[u'blue', u'black', u'red']","[u'left', u'middle', u'right']","[0.9, 0.5, 0.1]","[u'low', u'high', u'medium']","black",50,"middle","high",TRUE,FALSE,312,1400,NA
"A2541C8MY0BYV3","Tue Jan 28 2020 08:37:53 GMT-0500 (Eastern Standard Time)","Tue Jan 28 2020 08:44:01 GMT-0500 (Eastern Standard Time)","Mozilla/5.0 (Windows NT 10.0; Win64; x64; rv:72.0) Gecko/20100101 Firefox/72.0",18,"[0.9, 0.5, 0.1]","[0.8, 0.4, 0.2]","[u'blue', u'black', u'red']","[u'left', u'middle', u'right']","[0.9, 0.5, 0.1]","[u'low', u'high', u'medium']","black",50,"middle","high",TRUE,FALSE,443,1500,NA
"A2541C8MY0BYV3","Tue Jan 28 2020 08:37:53 GMT-0500 (Eastern Standard Time)","Tue Jan 28 2020 08:44:01 GMT-0500 (Eastern Standard Time)","Mozilla/5.0 (Windows NT 10.0; Win64; x64; rv:72.0) Gecko/20100101 Firefox/72.0",19,"[0.9, 0.5, 0.1]","[0.8, 0.4, 0.2]","[u'blue', u'black', u'red']","[u'left', u'middle', u'right']","[0.9, 0.5, 0.1]","[u'low', u'high', u'medium']","black",50,"middle","high",TRUE,FALSE,225,1600,NA
"A2541C8MY0BYV3","Tue Jan 28 2020 08:37:53 GMT-0500 (Eastern Standard Time)","Tue Jan 28 2020 08:44:01 GMT-0500 (Eastern Standard Time)","Mozilla/5.0 (Windows NT 10.0; Win64; x64; rv:72.0) Gecko/20100101 Firefox/72.0",20,"[0.9, 0.5, 0.1]","[0.8, 0.4, 0.2]","[u'blue', u'black', u'red']","[u'left', u'middle', u'right']","[0.9, 0.5, 0.1]","[u'low', u'high', u'medium']","black",50,"middle","high",TRUE,TRUE,481,1700,NA
"A2541C8MY0BYV3","Tue Jan 28 2020 08:37:53 GMT-0500 (Eastern Standard Time)","Tue Jan 28 2020 08:44:01 GMT-0500 (Eastern Standard Time)","Mozilla/5.0 (Windows NT 10.0; Win64; x64; rv:72.0) Gecko/20100101 Firefox/72.0",21,"[0.9, 0.5, 0.1]","[0.8, 0.4, 0.2]","[u'blue', u'black', u'red']","[u'left', u'middle', u'right']","[0.9, 0.5, 0.1]","[u'low', u'medium', u'high']","black",50,"middle","medium",TRUE,FALSE,151,1800,NA
"A2541C8MY0BYV3","Tue Jan 28 2020 08:37:53 GMT-0500 (Eastern Standard Time)","Tue Jan 28 2020 08:44:01 GMT-0500 (Eastern Standard Time)","Mozilla/5.0 (Windows NT 10.0; Win64; x64; rv:72.0) Gecko/20100101 Firefox/72.0",22,"[0.9, 0.5, 0.1]","[0.8, 0.4, 0.2]","[u'blue', u'black', u'red']","[u'left', u'middle', u'right']","[0.9, 0.5, 0.1]","[u'low', u'medium', u'high']","black",50,"middle","medium",FALSE,FALSE,391,1750,NA
"A2541C8MY0BYV3","Tue Jan 28 2020 08:37:53 GMT-0500 (Eastern Standard Time)","Tue Jan 28 2020 08:44:01 GMT-0500 (Eastern Standard Time)","Mozilla/5.0 (Windows NT 10.0; Win64; x64; rv:72.0) Gecko/20100101 Firefox/72.0",23,"[0.9, 0.5, 0.1]","[0.8, 0.4, 0.2]","[u'blue', u'black', u'red']","[u'left', u'middle', u'right']","[0.9, 0.5, 0.1]","[u'low', u'medium', u'high']","red",51,"right","high",FALSE,FALSE,223,1700,NA
"A2541C8MY0BYV3","Tue Jan 28 2020 08:37:53 GMT-0500 (Eastern Standard Time)","Tue Jan 28 2020 08:44:01 GMT-0500 (Eastern Standard Time)","Mozilla/5.0 (Windows NT 10.0; Win64; x64; rv:72.0) Gecko/20100101 Firefox/72.0",24,"[0.9, 0.5, 0.1]","[0.8, 0.4, 0.2]","[u'blue', u'black', u'red']","[u'left', u'middle', u'right']","[0.9, 0.5, 0.1]","[u'low', u'medium', u'high']","blue",49,"left","low",FALSE,FALSE,276,1650,NA
"A2541C8MY0BYV3","Tue Jan 28 2020 08:37:53 GMT-0500 (Eastern Standard Time)","Tue Jan 28 2020 08:44:01 GMT-0500 (Eastern Standard Time)","Mozilla/5.0 (Windows NT 10.0; Win64; x64; rv:72.0) Gecko/20100101 Firefox/72.0",25,"[0.9, 0.5, 0.1]","[0.8, 0.4, 0.2]","[u'blue', u'black', u'red']","[u'left', u'middle', u'right']","[0.9, 0.5, 0.1]","[u'low', u'medium', u'high']","black",50,"middle","medium",TRUE,FALSE,148,1750,NA
"A2541C8MY0BYV3","Tue Jan 28 2020 08:37:53 GMT-0500 (Eastern Standard Time)","Tue Jan 28 2020 08:44:01 GMT-0500 (Eastern Standard Time)","Mozilla/5.0 (Windows NT 10.0; Win64; x64; rv:72.0) Gecko/20100101 Firefox/72.0",26,"[0.9, 0.5, 0.1]","[0.8, 0.4, 0.2]","[u'blue', u'black', u'red']","[u'left', u'middle', u'right']","[0.9, 0.5, 0.1]","[u'low', u'medium', u'high']","black",50,"middle","medium",TRUE,FALSE,185,1850,NA
"A2541C8MY0BYV3","Tue Jan 28 2020 08:37:53 GMT-0500 (Eastern Standard Time)","Tue Jan 28 2020 08:44:01 GMT-0500 (Eastern Standard Time)","Mozilla/5.0 (Windows NT 10.0; Win64; x64; rv:72.0) Gecko/20100101 Firefox/72.0",27,"[0.9, 0.5, 0.1]","[0.8, 0.4, 0.2]","[u'blue', u'black', u'red']","[u'left', u'middle', u'right']","[0.9, 0.5, 0.1]","[u'low', u'medium', u'high']","black",50,"middle","medium",FALSE,FALSE,294,1800,NA
"A2541C8MY0BYV3","Tue Jan 28 2020 08:37:53 GMT-0500 (Eastern Standard Time)","Tue Jan 28 2020 08:44:01 GMT-0500 (Eastern Standard Time)","Mozilla/5.0 (Windows NT 10.0; Win64; x64; rv:72.0) Gecko/20100101 Firefox/72.0",28,"[0.9, 0.5, 0.1]","[0.8, 0.4, 0.2]","[u'blue', u'black', u'red']","[u'left', u'middle', u'right']","[0.9, 0.5, 0.1]","[u'low', u'medium', u'high']","red",51,"right","high",FALSE,FALSE,82,1750,NA
"A2541C8MY0BYV3","Tue Jan 28 2020 08:37:53 GMT-0500 (Eastern Standard Time)","Tue Jan 28 2020 08:44:01 GMT-0500 (Eastern Standard Time)","Mozilla/5.0 (Windows NT 10.0; Win64; x64; rv:72.0) Gecko/20100101 Firefox/72.0",29,"[0.9, 0.5, 0.1]","[0.8, 0.4, 0.2]","[u'blue', u'black', u'red']","[u'left', u'middle', u'right']","[0.9, 0.5, 0.1]","[u'low', u'medium', u'high']","blue",49,"left","low",FALSE,FALSE,164,1700,NA
"A2541C8MY0BYV3","Tue Jan 28 2020 08:37:53 GMT-0500 (Eastern Standard Time)","Tue Jan 28 2020 08:44:01 GMT-0500 (Eastern Standard Time)","Mozilla/5.0 (Windows NT 10.0; Win64; x64; rv:72.0) Gecko/20100101 Firefox/72.0",30,"[0.9, 0.5, 0.1]","[0.8, 0.4, 0.2]","[u'blue', u'black', u'red']","[u'left', u'middle', u'right']","[0.9, 0.5, 0.1]","[u'low', u'medium', u'high']","black",50,"middle","medium",TRUE,FALSE,57,1800,NA
"A2541C8MY0BYV3","Tue Jan 28 2020 08:37:53 GMT-0500 (Eastern Standard Time)","Tue Jan 28 2020 08:44:01 GMT-0500 (Eastern Standard Time)","Mozilla/5.0 (Windows NT 10.0; Win64; x64; rv:72.0) Gecko/20100101 Firefox/72.0",31,"[0.9, 0.5, 0.1]","[0.8, 0.4, 0.2]","[u'blue', u'black', u'red']","[u'left', u'middle', u'right']","[0.9, 0.5, 0.1]","[u'low', u'medium', u'high']","black",50,"middle","medium",FALSE,FALSE,195,1750,NA
"A2541C8MY0BYV3","Tue Jan 28 2020 08:37:53 GMT-0500 (Eastern Standard Time)","Tue Jan 28 2020 08:44:01 GMT-0500 (Eastern Standard Time)","Mozilla/5.0 (Windows NT 10.0; Win64; x64; rv:72.0) Gecko/20100101 Firefox/72.0",32,"[0.9, 0.5, 0.1]","[0.8, 0.4, 0.2]","[u'blue', u'black', u'red']","[u'left', u'middle', u'right']","[0.9, 0.5, 0.1]","[u'low', u'medium', u'high']","blue",49,"left","low",FALSE,FALSE,212,1700,NA
"A2541C8MY0BYV3","Tue Jan 28 2020 08:37:53 GMT-0500 (Eastern Standard Time)","Tue Jan 28 2020 08:44:01 GMT-0500 (Eastern Standard Time)","Mozilla/5.0 (Windows NT 10.0; Win64; x64; rv:72.0) Gecko/20100101 Firefox/72.0",33,"[0.9, 0.5, 0.1]","[0.8, 0.4, 0.2]","[u'blue', u'black', u'red']","[u'left', u'middle', u'right']","[0.9, 0.5, 0.1]","[u'low', u'medium', u'high']","red",51,"right","high",TRUE,FALSE,79,1800,NA
"A2541C8MY0BYV3","Tue Jan 28 2020 08:37:53 GMT-0500 (Eastern Standard Time)","Tue Jan 28 2020 08:44:01 GMT-0500 (Eastern Standard Time)","Mozilla/5.0 (Windows NT 10.0; Win64; x64; rv:72.0) Gecko/20100101 Firefox/72.0",34,"[0.9, 0.5, 0.1]","[0.8, 0.4, 0.2]","[u'blue', u'black', u'red']","[u'left', u'middle', u'right']","[0.9, 0.5, 0.1]","[u'low', u'medium', u'high']","red",51,"right","high",TRUE,FALSE,83,1900,NA
"A2541C8MY0BYV3","Tue Jan 28 2020 08:37:53 GMT-0500 (Eastern Standard Time)","Tue Jan 28 2020 08:44:01 GMT-0500 (Eastern Standard Time)","Mozilla/5.0 (Windows NT 10.0; Win64; x64; rv:72.0) Gecko/20100101 Firefox/72.0",35,"[0.9, 0.5, 0.1]","[0.8, 0.4, 0.2]","[u'blue', u'black', u'red']","[u'left', u'middle', u'right']","[0.9, 0.5, 0.1]","[u'low', u'medium', u'high']","red",51,"right","high",TRUE,FALSE,23,2000,NA
"A2541C8MY0BYV3","Tue Jan 28 2020 08:37:53 GMT-0500 (Eastern Standard Time)","Tue Jan 28 2020 08:44:01 GMT-0500 (Eastern Standard Time)","Mozilla/5.0 (Windows NT 10.0; Win64; x64; rv:72.0) Gecko/20100101 Firefox/72.0",36,"[0.9, 0.5, 0.1]","[0.8, 0.4, 0.2]","[u'blue', u'black', u'red']","[u'left', u'middle', u'right']","[0.9, 0.5, 0.1]","[u'low', u'medium', u'high']","red",51,"right","high",FALSE,FALSE,362,1950,NA
"A2541C8MY0BYV3","Tue Jan 28 2020 08:37:53 GMT-0500 (Eastern Standard Time)","Tue Jan 28 2020 08:44:01 GMT-0500 (Eastern Standard Time)","Mozilla/5.0 (Windows NT 10.0; Win64; x64; rv:72.0) Gecko/20100101 Firefox/72.0",37,"[0.9, 0.5, 0.1]","[0.8, 0.4, 0.2]","[u'blue', u'black', u'red']","[u'left', u'middle', u'right']","[0.9, 0.5, 0.1]","[u'low', u'medium', u'high']","black",50,"middle","medium",FALSE,FALSE,223,1900,NA
"A2541C8MY0BYV3","Tue Jan 28 2020 08:37:53 GMT-0500 (Eastern Standard Time)","Tue Jan 28 2020 08:44:01 GMT-0500 (Eastern Standard Time)","Mozilla/5.0 (Windows NT 10.0; Win64; x64; rv:72.0) Gecko/20100101 Firefox/72.0",38,"[0.9, 0.5, 0.1]","[0.8, 0.4, 0.2]","[u'blue', u'black', u'red']","[u'left', u'middle', u'right']","[0.9, 0.5, 0.1]","[u'low', u'medium', u'high']","blue",49,"left","low",FALSE,FALSE,198,1850,NA
"A2541C8MY0BYV3","Tue Jan 28 2020 08:37:53 GMT-0500 (Eastern Standard Time)","Tue Jan 28 2020 08:44:01 GMT-0500 (Eastern Standard Time)","Mozilla/5.0 (Windows NT 10.0; Win64; x64; rv:72.0) Gecko/20100101 Firefox/72.0",39,"[0.9, 0.5, 0.1]","[0.8, 0.4, 0.2]","[u'blue', u'black', u'red']","[u'left', u'middle', u'right']","[0.9, 0.5, 0.1]","[u'low', u'medium', u'high']","blue",49,"left","low",FALSE,FALSE,152,1800,NA
"A2541C8MY0BYV3","Tue Jan 28 2020 08:37:53 GMT-0500 (Eastern Standard Time)","Tue Jan 28 2020 08:44:01 GMT-0500 (Eastern Standard Time)","Mozilla/5.0 (Windows NT 10.0; Win64; x64; rv:72.0) Gecko/20100101 Firefox/72.0",40,"[0.9, 0.5, 0.1]","[0.8, 0.4, 0.2]","[u'blue', u'black', u'red']","[u'left', u'middle', u'right']","[0.9, 0.5, 0.1]","[u'low', u'medium', u'high']","black",50,"middle","medium",FALSE,FALSE,210,1750,NA
"A2541C8MY0BYV3","Tue Jan 28 2020 08:37:53 GMT-0500 (Eastern Standard Time)","Tue Jan 28 2020 08:44:01 GMT-0500 (Eastern Standard Time)","Mozilla/5.0 (Windows NT 10.0; Win64; x64; rv:72.0) Gecko/20100101 Firefox/72.0",41,"[0.9, 0.5, 0.1]","[0.8, 0.4, 0.2]","[u'blue', u'black', u'red']","[u'left', u'middle', u'right']","[0.9, 0.5, 0.1]","[u'medium', u'high', u'low']","blue",49,"left","medium",FALSE,FALSE,711,1700,NA
"A2541C8MY0BYV3","Tue Jan 28 2020 08:37:53 GMT-0500 (Eastern Standard Time)","Tue Jan 28 2020 08:44:01 GMT-0500 (Eastern Standard Time)","Mozilla/5.0 (Windows NT 10.0; Win64; x64; rv:72.0) Gecko/20100101 Firefox/72.0",42,"[0.9, 0.5, 0.1]","[0.8, 0.4, 0.2]","[u'blue', u'black', u'red']","[u'left', u'middle', u'right']","[0.9, 0.5, 0.1]","[u'medium', u'high', u'low']","black",50,"middle","high",TRUE,FALSE,338,1800,NA
"A2541C8MY0BYV3","Tue Jan 28 2020 08:37:53 GMT-0500 (Eastern Standard Time)","Tue Jan 28 2020 08:44:01 GMT-0500 (Eastern Standard Time)","Mozilla/5.0 (Windows NT 10.0; Win64; x64; rv:72.0) Gecko/20100101 Firefox/72.0",43,"[0.9, 0.5, 0.1]","[0.8, 0.4, 0.2]","[u'blue', u'black', u'red']","[u'left', u'middle', u'right']","[0.9, 0.5, 0.1]","[u'medium', u'high', u'low']","black",50,"middle","high",TRUE,FALSE,269,1900,NA
"A2541C8MY0BYV3","Tue Jan 28 2020 08:37:53 GMT-0500 (Eastern Standard Time)","Tue Jan 28 2020 08:44:01 GMT-0500 (Eastern Standard Time)","Mozilla/5.0 (Windows NT 10.0; Win64; x64; rv:72.0) Gecko/20100101 Firefox/72.0",44,"[0.9, 0.5, 0.1]","[0.8, 0.4, 0.2]","[u'blue', u'black', u'red']","[u'left', u'middle', u'right']","[0.9, 0.5, 0.1]","[u'medium', u'high', u'low']","black",50,"middle","high",TRUE,FALSE,288,2000,NA
"A2541C8MY0BYV3","Tue Jan 28 2020 08:37:53 GMT-0500 (Eastern Standard Time)","Tue Jan 28 2020 08:44:01 GMT-0500 (Eastern Standard Time)","Mozilla/5.0 (Windows NT 10.0; Win64; x64; rv:72.0) Gecko/20100101 Firefox/72.0",45,"[0.9, 0.5, 0.1]","[0.8, 0.4, 0.2]","[u'blue', u'black', u'red']","[u'left', u'middle', u'right']","[0.9, 0.5, 0.1]","[u'medium', u'high', u'low']","black",50,"middle","high",TRUE,FALSE,244,2100,NA
"A2541C8MY0BYV3","Tue Jan 28 2020 08:37:53 GMT-0500 (Eastern Standard Time)","Tue Jan 28 2020 08:44:01 GMT-0500 (Eastern Standard Time)","Mozilla/5.0 (Windows NT 10.0; Win64; x64; rv:72.0) Gecko/20100101 Firefox/72.0",46,"[0.9, 0.5, 0.1]","[0.8, 0.4, 0.2]","[u'blue', u'black', u'red']","[u'left', u'middle', u'right']","[0.9, 0.5, 0.1]","[u'medium', u'high', u'low']","black",50,"middle","high",TRUE,FALSE,440,2200,NA
"A2541C8MY0BYV3","Tue Jan 28 2020 08:37:53 GMT-0500 (Eastern Standard Time)","Tue Jan 28 2020 08:44:01 GMT-0500 (Eastern Standard Time)","Mozilla/5.0 (Windows NT 10.0; Win64; x64; rv:72.0) Gecko/20100101 Firefox/72.0",47,"[0.9, 0.5, 0.1]","[0.8, 0.4, 0.2]","[u'blue', u'black', u'red']","[u'left', u'middle', u'right']","[0.9, 0.5, 0.1]","[u'medium', u'high', u'low']","black",50,"middle","high",TRUE,FALSE,184,2300,NA
"A2541C8MY0BYV3","Tue Jan 28 2020 08:37:53 GMT-0500 (Eastern Standard Time)","Tue Jan 28 2020 08:44:01 GMT-0500 (Eastern Standard Time)","Mozilla/5.0 (Windows NT 10.0; Win64; x64; rv:72.0) Gecko/20100101 Firefox/72.0",48,"[0.9, 0.5, 0.1]","[0.8, 0.4, 0.2]","[u'blue', u'black', u'red']","[u'left', u'middle', u'right']","[0.9, 0.5, 0.1]","[u'medium', u'high', u'low']","black",50,"middle","high",TRUE,FALSE,1554,2400,NA
"A2541C8MY0BYV3","Tue Jan 28 2020 08:37:53 GMT-0500 (Eastern Standard Time)","Tue Jan 28 2020 08:44:01 GMT-0500 (Eastern Standard Time)","Mozilla/5.0 (Windows NT 10.0; Win64; x64; rv:72.0) Gecko/20100101 Firefox/72.0",49,"[0.9, 0.5, 0.1]","[0.8, 0.4, 0.2]","[u'blue', u'black', u'red']","[u'left', u'middle', u'right']","[0.9, 0.5, 0.1]","[u'medium', u'high', u'low']","black",50,"middle","high",TRUE,FALSE,795,2500,NA
"A2541C8MY0BYV3","Tue Jan 28 2020 08:37:53 GMT-0500 (Eastern Standard Time)","Tue Jan 28 2020 08:44:01 GMT-0500 (Eastern Standard Time)","Mozilla/5.0 (Windows NT 10.0; Win64; x64; rv:72.0) Gecko/20100101 Firefox/72.0",50,"[0.9, 0.5, 0.1]","[0.8, 0.4, 0.2]","[u'blue', u'black', u'red']","[u'left', u'middle', u'right']","[0.9, 0.5, 0.1]","[u'medium', u'high', u'low']","black",50,"middle","high",TRUE,TRUE,867,2600,NA
"A2541C8MY0BYV3","Tue Jan 28 2020 08:37:53 GMT-0500 (Eastern Standard Time)","Tue Jan 28 2020 08:44:01 GMT-0500 (Eastern Standard Time)","Mozilla/5.0 (Windows NT 10.0; Win64; x64; rv:72.0) Gecko/20100101 Firefox/72.0",51,"[0.9, 0.5, 0.1]","[0.8, 0.4, 0.2]","[u'blue', u'black', u'red']","[u'left', u'middle', u'right']","[0.9, 0.5, 0.1]","[u'high', u'medium', u'low']","black",50,"middle","medium",FALSE,FALSE,366,2550,NA
"A2541C8MY0BYV3","Tue Jan 28 2020 08:37:53 GMT-0500 (Eastern Standard Time)","Tue Jan 28 2020 08:44:01 GMT-0500 (Eastern Standard Time)","Mozilla/5.0 (Windows NT 10.0; Win64; x64; rv:72.0) Gecko/20100101 Firefox/72.0",52,"[0.9, 0.5, 0.1]","[0.8, 0.4, 0.2]","[u'blue', u'black', u'red']","[u'left', u'middle', u'right']","[0.9, 0.5, 0.1]","[u'high', u'medium', u'low']","red",51,"right","low",FALSE,FALSE,357,2500,NA
"A2541C8MY0BYV3","Tue Jan 28 2020 08:37:53 GMT-0500 (Eastern Standard Time)","Tue Jan 28 2020 08:44:01 GMT-0500 (Eastern Standard Time)","Mozilla/5.0 (Windows NT 10.0; Win64; x64; rv:72.0) Gecko/20100101 Firefox/72.0",53,"[0.9, 0.5, 0.1]","[0.8, 0.4, 0.2]","[u'blue', u'black', u'red']","[u'left', u'middle', u'right']","[0.9, 0.5, 0.1]","[u'high', u'medium', u'low']","blue",49,"left","high",TRUE,FALSE,114,2600,NA
"A2541C8MY0BYV3","Tue Jan 28 2020 08:37:53 GMT-0500 (Eastern Standard Time)","Tue Jan 28 2020 08:44:01 GMT-0500 (Eastern Standard Time)","Mozilla/5.0 (Windows NT 10.0; Win64; x64; rv:72.0) Gecko/20100101 Firefox/72.0",54,"[0.9, 0.5, 0.1]","[0.8, 0.4, 0.2]","[u'blue', u'black', u'red']","[u'left', u'middle', u'right']","[0.9, 0.5, 0.1]","[u'high', u'medium', u'low']","blue",49,"left","high",TRUE,FALSE,88,2700,NA
"A2541C8MY0BYV3","Tue Jan 28 2020 08:37:53 GMT-0500 (Eastern Standard Time)","Tue Jan 28 2020 08:44:01 GMT-0500 (Eastern Standard Time)","Mozilla/5.0 (Windows NT 10.0; Win64; x64; rv:72.0) Gecko/20100101 Firefox/72.0",55,"[0.9, 0.5, 0.1]","[0.8, 0.4, 0.2]","[u'blue', u'black', u'red']","[u'left', u'middle', u'right']","[0.9, 0.5, 0.1]","[u'high', u'medium', u'low']","blue",49,"left","high",TRUE,FALSE,245,2800,NA
"A2541C8MY0BYV3","Tue Jan 28 2020 08:37:53 GMT-0500 (Eastern Standard Time)","Tue Jan 28 2020 08:44:01 GMT-0500 (Eastern Standard Time)","Mozilla/5.0 (Windows NT 10.0; Win64; x64; rv:72.0) Gecko/20100101 Firefox/72.0",56,"[0.9, 0.5, 0.1]","[0.8, 0.4, 0.2]","[u'blue', u'black', u'red']","[u'left', u'middle', u'right']","[0.9, 0.5, 0.1]","[u'high', u'medium', u'low']","blue",49,"left","high",TRUE,FALSE,487,2900,NA
"A2541C8MY0BYV3","Tue Jan 28 2020 08:37:53 GMT-0500 (Eastern Standard Time)","Tue Jan 28 2020 08:44:01 GMT-0500 (Eastern Standard Time)","Mozilla/5.0 (Windows NT 10.0; Win64; x64; rv:72.0) Gecko/20100101 Firefox/72.0",57,"[0.9, 0.5, 0.1]","[0.8, 0.4, 0.2]","[u'blue', u'black', u'red']","[u'left', u'middle', u'right']","[0.9, 0.5, 0.1]","[u'high', u'medium', u'low']","blue",49,"left","high",TRUE,FALSE,166,3000,NA
"A2541C8MY0BYV3","Tue Jan 28 2020 08:37:53 GMT-0500 (Eastern Standard Time)","Tue Jan 28 2020 08:44:01 GMT-0500 (Eastern Standard Time)","Mozilla/5.0 (Windows NT 10.0; Win64; x64; rv:72.0) Gecko/20100101 Firefox/72.0",58,"[0.9, 0.5, 0.1]","[0.8, 0.4, 0.2]","[u'blue', u'black', u'red']","[u'left', u'middle', u'right']","[0.9, 0.5, 0.1]","[u'high', u'medium', u'low']","blue",49,"left","high",TRUE,FALSE,217,3100,NA
"A2541C8MY0BYV3","Tue Jan 28 2020 08:37:53 GMT-0500 (Eastern Standard Time)","Tue Jan 28 2020 08:44:01 GMT-0500 (Eastern Standard Time)","Mozilla/5.0 (Windows NT 10.0; Win64; x64; rv:72.0) Gecko/20100101 Firefox/72.0",59,"[0.9, 0.5, 0.1]","[0.8, 0.4, 0.2]","[u'blue', u'black', u'red']","[u'left', u'middle', u'right']","[0.9, 0.5, 0.1]","[u'high', u'medium', u'low']","blue",49,"left","high",TRUE,FALSE,176,3200,NA
"A2541C8MY0BYV3","Tue Jan 28 2020 08:37:53 GMT-0500 (Eastern Standard Time)","Tue Jan 28 2020 08:44:01 GMT-0500 (Eastern Standard Time)","Mozilla/5.0 (Windows NT 10.0; Win64; x64; rv:72.0) Gecko/20100101 Firefox/72.0",60,"[0.9, 0.5, 0.1]","[0.8, 0.4, 0.2]","[u'blue', u'black', u'red']","[u'left', u'middle', u'right']","[0.9, 0.5, 0.1]","[u'high', u'medium', u'low']","blue",49,"left","high",TRUE,FALSE,233,3300,NA
"A2541C8MY0BYV3","Tue Jan 28 2020 08:37:53 GMT-0500 (Eastern Standard Time)","Tue Jan 28 2020 08:44:01 GMT-0500 (Eastern Standard Time)","Mozilla/5.0 (Windows NT 10.0; Win64; x64; rv:72.0) Gecko/20100101 Firefox/72.0",61,"[0.9, 0.5, 0.1]","[0.8, 0.4, 0.2]","[u'blue', u'black', u'red']","[u'left', u'middle', u'right']","[0.9, 0.5, 0.1]","[u'high', u'medium', u'low']","blue",49,"left","high",TRUE,TRUE,234,3400,NA
"A2541C8MY0BYV3","Tue Jan 28 2020 08:37:53 GMT-0500 (Eastern Standard Time)","Tue Jan 28 2020 08:44:01 GMT-0500 (Eastern Standard Time)","Mozilla/5.0 (Windows NT 10.0; Win64; x64; rv:72.0) Gecko/20100101 Firefox/72.0",62,"[0.9, 0.5, 0.1]","[0.8, 0.4, 0.2]","[u'blue', u'black', u'red']","[u'left', u'middle', u'right']","[0.9, 0.5, 0.1]","[u'low', u'high', u'medium']","blue",49,"left","low",FALSE,FALSE,739,3350,NA
"A2541C8MY0BYV3","Tue Jan 28 2020 08:37:53 GMT-0500 (Eastern Standard Time)","Tue Jan 28 2020 08:44:01 GMT-0500 (Eastern Standard Time)","Mozilla/5.0 (Windows NT 10.0; Win64; x64; rv:72.0) Gecko/20100101 Firefox/72.0",63,"[0.9, 0.5, 0.1]","[0.8, 0.4, 0.2]","[u'blue', u'black', u'red']","[u'left', u'middle', u'right']","[0.9, 0.5, 0.1]","[u'low', u'high', u'medium']","red",51,"right","medium",FALSE,FALSE,240,3300,NA
"A2541C8MY0BYV3","Tue Jan 28 2020 08:37:53 GMT-0500 (Eastern Standard Time)","Tue Jan 28 2020 08:44:01 GMT-0500 (Eastern Standard Time)","Mozilla/5.0 (Windows NT 10.0; Win64; x64; rv:72.0) Gecko/20100101 Firefox/72.0",64,"[0.9, 0.5, 0.1]","[0.8, 0.4, 0.2]","[u'blue', u'black', u'red']","[u'left', u'middle', u'right']","[0.9, 0.5, 0.1]","[u'low', u'high', u'medium']","black",50,"middle","high",TRUE,FALSE,266,3400,NA
"A2541C8MY0BYV3","Tue Jan 28 2020 08:37:53 GMT-0500 (Eastern Standard Time)","Tue Jan 28 2020 08:44:01 GMT-0500 (Eastern Standard Time)","Mozilla/5.0 (Windows NT 10.0; Win64; x64; rv:72.0) Gecko/20100101 Firefox/72.0",65,"[0.9, 0.5, 0.1]","[0.8, 0.4, 0.2]","[u'blue', u'black', u'red']","[u'left', u'middle', u'right']","[0.9, 0.5, 0.1]","[u'low', u'high', u'medium']","black",50,"middle","high",TRUE,FALSE,38,3500,NA
"A2541C8MY0BYV3","Tue Jan 28 2020 08:37:53 GMT-0500 (Eastern Standard Time)","Tue Jan 28 2020 08:44:01 GMT-0500 (Eastern Standard Time)","Mozilla/5.0 (Windows NT 10.0; Win64; x64; rv:72.0) Gecko/20100101 Firefox/72.0",66,"[0.9, 0.5, 0.1]","[0.8, 0.4, 0.2]","[u'blue', u'black', u'red']","[u'left', u'middle', u'right']","[0.9, 0.5, 0.1]","[u'low', u'high', u'medium']","black",50,"middle","high",TRUE,FALSE,128,3600,NA
"A2541C8MY0BYV3","Tue Jan 28 2020 08:37:53 GMT-0500 (Eastern Standard Time)","Tue Jan 28 2020 08:44:01 GMT-0500 (Eastern Standard Time)","Mozilla/5.0 (Windows NT 10.0; Win64; x64; rv:72.0) Gecko/20100101 Firefox/72.0",67,"[0.9, 0.5, 0.1]","[0.8, 0.4, 0.2]","[u'blue', u'black', u'red']","[u'left', u'middle', u'right']","[0.9, 0.5, 0.1]","[u'low', u'high', u'medium']","black",50,"middle","high",TRUE,FALSE,55,3700,NA
"A2541C8MY0BYV3","Tue Jan 28 2020 08:37:53 GMT-0500 (Eastern Standard Time)","Tue Jan 28 2020 08:44:01 GMT-0500 (Eastern Standard Time)","Mozilla/5.0 (Windows NT 10.0; Win64; x64; rv:72.0) Gecko/20100101 Firefox/72.0",68,"[0.9, 0.5, 0.1]","[0.8, 0.4, 0.2]","[u'blue', u'black', u'red']","[u'left', u'middle', u'right']","[0.9, 0.5, 0.1]","[u'low', u'high', u'medium']","black",50,"middle","high",TRUE,FALSE,69,3800,NA
"A2541C8MY0BYV3","Tue Jan 28 2020 08:37:53 GMT-0500 (Eastern Standard Time)","Tue Jan 28 2020 08:44:01 GMT-0500 (Eastern Standard Time)","Mozilla/5.0 (Windows NT 10.0; Win64; x64; rv:72.0) Gecko/20100101 Firefox/72.0",69,"[0.9, 0.5, 0.1]","[0.8, 0.4, 0.2]","[u'blue', u'black', u'red']","[u'left', u'middle', u'right']","[0.9, 0.5, 0.1]","[u'low', u'high', u'medium']","black",50,"middle","high",TRUE,FALSE,468,3900,NA
"A2541C8MY0BYV3","Tue Jan 28 2020 08:37:53 GMT-0500 (Eastern Standard Time)","Tue Jan 28 2020 08:44:01 GMT-0500 (Eastern Standard Time)","Mozilla/5.0 (Windows NT 10.0; Win64; x64; rv:72.0) Gecko/20100101 Firefox/72.0",70,"[0.9, 0.5, 0.1]","[0.8, 0.4, 0.2]","[u'blue', u'black', u'red']","[u'left', u'middle', u'right']","[0.9, 0.5, 0.1]","[u'low', u'high', u'medium']","black",50,"middle","high",TRUE,FALSE,258,4000,NA
"A2541C8MY0BYV3","Tue Jan 28 2020 08:37:53 GMT-0500 (Eastern Standard Time)","Tue Jan 28 2020 08:44:01 GMT-0500 (Eastern Standard Time)","Mozilla/5.0 (Windows NT 10.0; Win64; x64; rv:72.0) Gecko/20100101 Firefox/72.0",71,"[0.9, 0.5, 0.1]","[0.8, 0.4, 0.2]","[u'blue', u'black', u'red']","[u'left', u'middle', u'right']","[0.9, 0.5, 0.1]","[u'low', u'high', u'medium']","black",50,"middle","high",TRUE,FALSE,353,4100,NA
"A2541C8MY0BYV3","Tue Jan 28 2020 08:37:53 GMT-0500 (Eastern Standard Time)","Tue Jan 28 2020 08:44:01 GMT-0500 (Eastern Standard Time)","Mozilla/5.0 (Windows NT 10.0; Win64; x64; rv:72.0) Gecko/20100101 Firefox/72.0",72,"[0.9, 0.5, 0.1]","[0.8, 0.4, 0.2]","[u'blue', u'black', u'red']","[u'left', u'middle', u'right']","[0.9, 0.5, 0.1]","[u'low', u'high', u'medium']","black",50,"middle","high",TRUE,TRUE,341,4200,NA
"A2541C8MY0BYV3","Tue Jan 28 2020 08:37:53 GMT-0500 (Eastern Standard Time)","Tue Jan 28 2020 08:44:01 GMT-0500 (Eastern Standard Time)","Mozilla/5.0 (Windows NT 10.0; Win64; x64; rv:72.0) Gecko/20100101 Firefox/72.0",73,"[0.9, 0.5, 0.1]","[0.8, 0.4, 0.2]","[u'blue', u'black', u'red']","[u'left', u'middle', u'right']","[0.9, 0.5, 0.1]","[u'low', u'medium', u'high']","black",50,"middle","medium",TRUE,FALSE,216,4300,NA
"A2541C8MY0BYV3","Tue Jan 28 2020 08:37:53 GMT-0500 (Eastern Standard Time)","Tue Jan 28 2020 08:44:01 GMT-0500 (Eastern Standard Time)","Mozilla/5.0 (Windows NT 10.0; Win64; x64; rv:72.0) Gecko/20100101 Firefox/72.0",74,"[0.9, 0.5, 0.1]","[0.8, 0.4, 0.2]","[u'blue', u'black', u'red']","[u'left', u'middle', u'right']","[0.9, 0.5, 0.1]","[u'low', u'medium', u'high']","black",50,"middle","medium",TRUE,FALSE,139,4400,NA
"A2541C8MY0BYV3","Tue Jan 28 2020 08:37:53 GMT-0500 (Eastern Standard Time)","Tue Jan 28 2020 08:44:01 GMT-0500 (Eastern Standard Time)","Mozilla/5.0 (Windows NT 10.0; Win64; x64; rv:72.0) Gecko/20100101 Firefox/72.0",75,"[0.9, 0.5, 0.1]","[0.8, 0.4, 0.2]","[u'blue', u'black', u'red']","[u'left', u'middle', u'right']","[0.9, 0.5, 0.1]","[u'low', u'medium', u'high']","black",50,"middle","medium",FALSE,FALSE,128,4350,NA
"A2541C8MY0BYV3","Tue Jan 28 2020 08:37:53 GMT-0500 (Eastern Standard Time)","Tue Jan 28 2020 08:44:01 GMT-0500 (Eastern Standard Time)","Mozilla/5.0 (Windows NT 10.0; Win64; x64; rv:72.0) Gecko/20100101 Firefox/72.0",76,"[0.9, 0.5, 0.1]","[0.8, 0.4, 0.2]","[u'blue', u'black', u'red']","[u'left', u'middle', u'right']","[0.9, 0.5, 0.1]","[u'low', u'medium', u'high']","blue",49,"left","low",FALSE,FALSE,89,4300,NA
"A2541C8MY0BYV3","Tue Jan 28 2020 08:37:53 GMT-0500 (Eastern Standard Time)","Tue Jan 28 2020 08:44:01 GMT-0500 (Eastern Standard Time)","Mozilla/5.0 (Windows NT 10.0; Win64; x64; rv:72.0) Gecko/20100101 Firefox/72.0",77,"[0.9, 0.5, 0.1]","[0.8, 0.4, 0.2]","[u'blue', u'black', u'red']","[u'left', u'middle', u'right']","[0.9, 0.5, 0.1]","[u'low', u'medium', u'high']","red",51,"right","high",TRUE,FALSE,207,4400,NA
"A2541C8MY0BYV3","Tue Jan 28 2020 08:37:53 GMT-0500 (Eastern Standard Time)","Tue Jan 28 2020 08:44:01 GMT-0500 (Eastern Standard Time)","Mozilla/5.0 (Windows NT 10.0; Win64; x64; rv:72.0) Gecko/20100101 Firefox/72.0",78,"[0.9, 0.5, 0.1]","[0.8, 0.4, 0.2]","[u'blue', u'black', u'red']","[u'left', u'middle', u'right']","[0.9, 0.5, 0.1]","[u'low', u'medium', u'high']","red",51,"right","high",TRUE,FALSE,302,4500,NA
"A2541C8MY0BYV3","Tue Jan 28 2020 08:37:53 GMT-0500 (Eastern Standard Time)","Tue Jan 28 2020 08:44:01 GMT-0500 (Eastern Standard Time)","Mozilla/5.0 (Windows NT 10.0; Win64; x64; rv:72.0) Gecko/20100101 Firefox/72.0",79,"[0.9, 0.5, 0.1]","[0.8, 0.4, 0.2]","[u'blue', u'black', u'red']","[u'left', u'middle', u'right']","[0.9, 0.5, 0.1]","[u'low', u'medium', u'high']","red",51,"right","high",TRUE,FALSE,312,4600,NA
"A2541C8MY0BYV3","Tue Jan 28 2020 08:37:53 GMT-0500 (Eastern Standard Time)","Tue Jan 28 2020 08:44:01 GMT-0500 (Eastern Standard Time)","Mozilla/5.0 (Windows NT 10.0; Win64; x64; rv:72.0) Gecko/20100101 Firefox/72.0",80,"[0.9, 0.5, 0.1]","[0.8, 0.4, 0.2]","[u'blue', u'black', u'red']","[u'left', u'middle', u'right']","[0.9, 0.5, 0.1]","[u'low', u'medium', u'high']","red",51,"right","high",TRUE,FALSE,77,4700,NA
"A2541C8MY0BYV3","Tue Jan 28 2020 08:37:53 GMT-0500 (Eastern Standard Time)","Tue Jan 28 2020 08:44:01 GMT-0500 (Eastern Standard Time)","Mozilla/5.0 (Windows NT 10.0; Win64; x64; rv:72.0) Gecko/20100101 Firefox/72.0",81,"[0.9, 0.5, 0.1]","[0.8, 0.4, 0.2]","[u'blue', u'black', u'red']","[u'left', u'middle', u'right']","[0.8, 0.4, 0.2]","[u'low', u'high', u'medium']","red",51,"right","medium",FALSE,FALSE,269,4650,NA
"A2541C8MY0BYV3","Tue Jan 28 2020 08:37:53 GMT-0500 (Eastern Standard Time)","Tue Jan 28 2020 08:44:01 GMT-0500 (Eastern Standard Time)","Mozilla/5.0 (Windows NT 10.0; Win64; x64; rv:72.0) Gecko/20100101 Firefox/72.0",82,"[0.9, 0.5, 0.1]","[0.8, 0.4, 0.2]","[u'blue', u'black', u'red']","[u'left', u'middle', u'right']","[0.8, 0.4, 0.2]","[u'low', u'high', u'medium']","blue",49,"left","low",FALSE,FALSE,170,4600,NA
"A2541C8MY0BYV3","Tue Jan 28 2020 08:37:53 GMT-0500 (Eastern Standard Time)","Tue Jan 28 2020 08:44:01 GMT-0500 (Eastern Standard Time)","Mozilla/5.0 (Windows NT 10.0; Win64; x64; rv:72.0) Gecko/20100101 Firefox/72.0",83,"[0.9, 0.5, 0.1]","[0.8, 0.4, 0.2]","[u'blue', u'black', u'red']","[u'left', u'middle', u'right']","[0.8, 0.4, 0.2]","[u'low', u'high', u'medium']","black",50,"middle","high",TRUE,FALSE,115,4700,NA
"A2541C8MY0BYV3","Tue Jan 28 2020 08:37:53 GMT-0500 (Eastern Standard Time)","Tue Jan 28 2020 08:44:01 GMT-0500 (Eastern Standard Time)","Mozilla/5.0 (Windows NT 10.0; Win64; x64; rv:72.0) Gecko/20100101 Firefox/72.0",84,"[0.9, 0.5, 0.1]","[0.8, 0.4, 0.2]","[u'blue', u'black', u'red']","[u'left', u'middle', u'right']","[0.8, 0.4, 0.2]","[u'low', u'high', u'medium']","black",50,"middle","high",TRUE,FALSE,187,4800,NA
"A2541C8MY0BYV3","Tue Jan 28 2020 08:37:53 GMT-0500 (Eastern Standard Time)","Tue Jan 28 2020 08:44:01 GMT-0500 (Eastern Standard Time)","Mozilla/5.0 (Windows NT 10.0; Win64; x64; rv:72.0) Gecko/20100101 Firefox/72.0",85,"[0.9, 0.5, 0.1]","[0.8, 0.4, 0.2]","[u'blue', u'black', u'red']","[u'left', u'middle', u'right']","[0.8, 0.4, 0.2]","[u'low', u'high', u'medium']","black",50,"middle","high",TRUE,FALSE,418,4900,NA
"A2541C8MY0BYV3","Tue Jan 28 2020 08:37:53 GMT-0500 (Eastern Standard Time)","Tue Jan 28 2020 08:44:01 GMT-0500 (Eastern Standard Time)","Mozilla/5.0 (Windows NT 10.0; Win64; x64; rv:72.0) Gecko/20100101 Firefox/72.0",86,"[0.9, 0.5, 0.1]","[0.8, 0.4, 0.2]","[u'blue', u'black', u'red']","[u'left', u'middle', u'right']","[0.8, 0.4, 0.2]","[u'low', u'high', u'medium']","black",50,"middle","high",TRUE,FALSE,64,5000,NA
"A2541C8MY0BYV3","Tue Jan 28 2020 08:37:53 GMT-0500 (Eastern Standard Time)","Tue Jan 28 2020 08:44:01 GMT-0500 (Eastern Standard Time)","Mozilla/5.0 (Windows NT 10.0; Win64; x64; rv:72.0) Gecko/20100101 Firefox/72.0",87,"[0.9, 0.5, 0.1]","[0.8, 0.4, 0.2]","[u'blue', u'black', u'red']","[u'left', u'middle', u'right']","[0.8, 0.4, 0.2]","[u'low', u'high', u'medium']","black",50,"middle","high",TRUE,FALSE,266,5100,NA
"A2541C8MY0BYV3","Tue Jan 28 2020 08:37:53 GMT-0500 (Eastern Standard Time)","Tue Jan 28 2020 08:44:01 GMT-0500 (Eastern Standard Time)","Mozilla/5.0 (Windows NT 10.0; Win64; x64; rv:72.0) Gecko/20100101 Firefox/72.0",88,"[0.9, 0.5, 0.1]","[0.8, 0.4, 0.2]","[u'blue', u'black', u'red']","[u'left', u'middle', u'right']","[0.8, 0.4, 0.2]","[u'low', u'high', u'medium']","black",50,"middle","high",FALSE,FALSE,34,5050,NA
"A2541C8MY0BYV3","Tue Jan 28 2020 08:37:53 GMT-0500 (Eastern Standard Time)","Tue Jan 28 2020 08:44:01 GMT-0500 (Eastern Standard Time)","Mozilla/5.0 (Windows NT 10.0; Win64; x64; rv:72.0) Gecko/20100101 Firefox/72.0",89,"[0.9, 0.5, 0.1]","[0.8, 0.4, 0.2]","[u'blue', u'black', u'red']","[u'left', u'middle', u'right']","[0.8, 0.4, 0.2]","[u'low', u'high', u'medium']","blue",49,"left","low",FALSE,FALSE,148,5000,NA
"A2541C8MY0BYV3","Tue Jan 28 2020 08:37:53 GMT-0500 (Eastern Standard Time)","Tue Jan 28 2020 08:44:01 GMT-0500 (Eastern Standard Time)","Mozilla/5.0 (Windows NT 10.0; Win64; x64; rv:72.0) Gecko/20100101 Firefox/72.0",90,"[0.9, 0.5, 0.1]","[0.8, 0.4, 0.2]","[u'blue', u'black', u'red']","[u'left', u'middle', u'right']","[0.8, 0.4, 0.2]","[u'low', u'high', u'medium']","red",51,"right","medium",TRUE,FALSE,88,5100,NA
"A2541C8MY0BYV3","Tue Jan 28 2020 08:37:53 GMT-0500 (Eastern Standard Time)","Tue Jan 28 2020 08:44:01 GMT-0500 (Eastern Standard Time)","Mozilla/5.0 (Windows NT 10.0; Win64; x64; rv:72.0) Gecko/20100101 Firefox/72.0",91,"[0.9, 0.5, 0.1]","[0.8, 0.4, 0.2]","[u'blue', u'black', u'red']","[u'left', u'middle', u'right']","[0.8, 0.4, 0.2]","[u'low', u'high', u'medium']","red",51,"right","medium",TRUE,FALSE,231,5200,NA
"A2541C8MY0BYV3","Tue Jan 28 2020 08:37:53 GMT-0500 (Eastern Standard Time)","Tue Jan 28 2020 08:44:01 GMT-0500 (Eastern Standard Time)","Mozilla/5.0 (Windows NT 10.0; Win64; x64; rv:72.0) Gecko/20100101 Firefox/72.0",92,"[0.9, 0.5, 0.1]","[0.8, 0.4, 0.2]","[u'blue', u'black', u'red']","[u'left', u'middle', u'right']","[0.8, 0.4, 0.2]","[u'low', u'high', u'medium']","red",51,"right","medium",TRUE,FALSE,53,5300,NA
"A2541C8MY0BYV3","Tue Jan 28 2020 08:37:53 GMT-0500 (Eastern Standard Time)","Tue Jan 28 2020 08:44:01 GMT-0500 (Eastern Standard Time)","Mozilla/5.0 (Windows NT 10.0; Win64; x64; rv:72.0) Gecko/20100101 Firefox/72.0",93,"[0.9, 0.5, 0.1]","[0.8, 0.4, 0.2]","[u'blue', u'black', u'red']","[u'left', u'middle', u'right']","[0.8, 0.4, 0.2]","[u'low', u'high', u'medium']","red",51,"right","medium",FALSE,FALSE,190,5250,NA
"A2541C8MY0BYV3","Tue Jan 28 2020 08:37:53 GMT-0500 (Eastern Standard Time)","Tue Jan 28 2020 08:44:01 GMT-0500 (Eastern Standard Time)","Mozilla/5.0 (Windows NT 10.0; Win64; x64; rv:72.0) Gecko/20100101 Firefox/72.0",94,"[0.9, 0.5, 0.1]","[0.8, 0.4, 0.2]","[u'blue', u'black', u'red']","[u'left', u'middle', u'right']","[0.8, 0.4, 0.2]","[u'low', u'high', u'medium']","blue",49,"left","low",FALSE,FALSE,209,5200,NA
"A2541C8MY0BYV3","Tue Jan 28 2020 08:37:53 GMT-0500 (Eastern Standard Time)","Tue Jan 28 2020 08:44:01 GMT-0500 (Eastern Standard Time)","Mozilla/5.0 (Windows NT 10.0; Win64; x64; rv:72.0) Gecko/20100101 Firefox/72.0",95,"[0.9, 0.5, 0.1]","[0.8, 0.4, 0.2]","[u'blue', u'black', u'red']","[u'left', u'middle', u'right']","[0.8, 0.4, 0.2]","[u'low', u'high', u'medium']","black",50,"middle","high",TRUE,FALSE,74,5300,NA
"A2541C8MY0BYV3","Tue Jan 28 2020 08:37:53 GMT-0500 (Eastern Standard Time)","Tue Jan 28 2020 08:44:01 GMT-0500 (Eastern Standard Time)","Mozilla/5.0 (Windows NT 10.0; Win64; x64; rv:72.0) Gecko/20100101 Firefox/72.0",96,"[0.9, 0.5, 0.1]","[0.8, 0.4, 0.2]","[u'blue', u'black', u'red']","[u'left', u'middle', u'right']","[0.8, 0.4, 0.2]","[u'low', u'high', u'medium']","black",50,"middle","high",FALSE,FALSE,122,5250,NA
"A2541C8MY0BYV3","Tue Jan 28 2020 08:37:53 GMT-0500 (Eastern Standard Time)","Tue Jan 28 2020 08:44:01 GMT-0500 (Eastern Standard Time)","Mozilla/5.0 (Windows NT 10.0; Win64; x64; rv:72.0) Gecko/20100101 Firefox/72.0",97,"[0.9, 0.5, 0.1]","[0.8, 0.4, 0.2]","[u'blue', u'black', u'red']","[u'left', u'middle', u'right']","[0.8, 0.4, 0.2]","[u'low', u'high', u'medium']","blue",49,"left","low",FALSE,FALSE,118,5200,NA
"A2541C8MY0BYV3","Tue Jan 28 2020 08:37:53 GMT-0500 (Eastern Standard Time)","Tue Jan 28 2020 08:44:01 GMT-0500 (Eastern Standard Time)","Mozilla/5.0 (Windows NT 10.0; Win64; x64; rv:72.0) Gecko/20100101 Firefox/72.0",98,"[0.9, 0.5, 0.1]","[0.8, 0.4, 0.2]","[u'blue', u'black', u'red']","[u'left', u'middle', u'right']","[0.8, 0.4, 0.2]","[u'low', u'high', u'medium']","red",51,"right","medium",FALSE,FALSE,58,5150,NA
"A2541C8MY0BYV3","Tue Jan 28 2020 08:37:53 GMT-0500 (Eastern Standard Time)","Tue Jan 28 2020 08:44:01 GMT-0500 (Eastern Standard Time)","Mozilla/5.0 (Windows NT 10.0; Win64; x64; rv:72.0) Gecko/20100101 Firefox/72.0",99,"[0.9, 0.5, 0.1]","[0.8, 0.4, 0.2]","[u'blue', u'black', u'red']","[u'left', u'middle', u'right']","[0.8, 0.4, 0.2]","[u'low', u'high', u'medium']","black",50,"middle","high",TRUE,FALSE,5,5250,NA
"A2541C8MY0BYV3","Tue Jan 28 2020 08:37:53 GMT-0500 (Eastern Standard Time)","Tue Jan 28 2020 08:44:01 GMT-0500 (Eastern Standard Time)","Mozilla/5.0 (Windows NT 10.0; Win64; x64; rv:72.0) Gecko/20100101 Firefox/72.0",100,"[0.9, 0.5, 0.1]","[0.8, 0.4, 0.2]","[u'blue', u'black', u'red']","[u'left', u'middle', u'right']","[0.8, 0.4, 0.2]","[u'low', u'high', u'medium']","black",50,"middle","high",TRUE,FALSE,84,5350,NA
"A2541C8MY0BYV3","Tue Jan 28 2020 08:37:53 GMT-0500 (Eastern Standard Time)","Tue Jan 28 2020 08:44:01 GMT-0500 (Eastern Standard Time)","Mozilla/5.0 (Windows NT 10.0; Win64; x64; rv:72.0) Gecko/20100101 Firefox/72.0",101,"[0.9, 0.5, 0.1]","[0.8, 0.4, 0.2]","[u'blue', u'black', u'red']","[u'left', u'middle', u'right']","[0.8, 0.4, 0.2]","[u'low', u'high', u'medium']","black",50,"middle","high",TRUE,FALSE,158,5450,NA
"A2541C8MY0BYV3","Tue Jan 28 2020 08:37:53 GMT-0500 (Eastern Standard Time)","Tue Jan 28 2020 08:44:01 GMT-0500 (Eastern Standard Time)","Mozilla/5.0 (Windows NT 10.0; Win64; x64; rv:72.0) Gecko/20100101 Firefox/72.0",102,"[0.9, 0.5, 0.1]","[0.8, 0.4, 0.2]","[u'blue', u'black', u'red']","[u'left', u'middle', u'right']","[0.8, 0.4, 0.2]","[u'low', u'high', u'medium']","black",50,"middle","high",TRUE,FALSE,27,5550,NA
"A2541C8MY0BYV3","Tue Jan 28 2020 08:37:53 GMT-0500 (Eastern Standard Time)","Tue Jan 28 2020 08:44:01 GMT-0500 (Eastern Standard Time)","Mozilla/5.0 (Windows NT 10.0; Win64; x64; rv:72.0) Gecko/20100101 Firefox/72.0",103,"[0.9, 0.5, 0.1]","[0.8, 0.4, 0.2]","[u'blue', u'black', u'red']","[u'left', u'middle', u'right']","[0.8, 0.4, 0.2]","[u'low', u'high', u'medium']","black",50,"middle","high",TRUE,FALSE,27,5650,NA
"A2541C8MY0BYV3","Tue Jan 28 2020 08:37:53 GMT-0500 (Eastern Standard Time)","Tue Jan 28 2020 08:44:01 GMT-0500 (Eastern Standard Time)","Mozilla/5.0 (Windows NT 10.0; Win64; x64; rv:72.0) Gecko/20100101 Firefox/72.0",104,"[0.9, 0.5, 0.1]","[0.8, 0.4, 0.2]","[u'blue', u'black', u'red']","[u'left', u'middle', u'right']","[0.8, 0.4, 0.2]","[u'low', u'high', u'medium']","black",50,"middle","high",TRUE,FALSE,175,5750,NA
"A2541C8MY0BYV3","Tue Jan 28 2020 08:37:53 GMT-0500 (Eastern Standard Time)","Tue Jan 28 2020 08:44:01 GMT-0500 (Eastern Standard Time)","Mozilla/5.0 (Windows NT 10.0; Win64; x64; rv:72.0) Gecko/20100101 Firefox/72.0",105,"[0.9, 0.5, 0.1]","[0.8, 0.4, 0.2]","[u'blue', u'black', u'red']","[u'left', u'middle', u'right']","[0.8, 0.4, 0.2]","[u'low', u'high', u'medium']","black",50,"middle","high",FALSE,FALSE,346,5700,NA
"A2541C8MY0BYV3","Tue Jan 28 2020 08:37:53 GMT-0500 (Eastern Standard Time)","Tue Jan 28 2020 08:44:01 GMT-0500 (Eastern Standard Time)","Mozilla/5.0 (Windows NT 10.0; Win64; x64; rv:72.0) Gecko/20100101 Firefox/72.0",106,"[0.9, 0.5, 0.1]","[0.8, 0.4, 0.2]","[u'blue', u'black', u'red']","[u'left', u'middle', u'right']","[0.8, 0.4, 0.2]","[u'low', u'high', u'medium']","blue",49,"left","low",FALSE,FALSE,173,5650,NA
"A2541C8MY0BYV3","Tue Jan 28 2020 08:37:53 GMT-0500 (Eastern Standard Time)","Tue Jan 28 2020 08:44:01 GMT-0500 (Eastern Standard Time)","Mozilla/5.0 (Windows NT 10.0; Win64; x64; rv:72.0) Gecko/20100101 Firefox/72.0",107,"[0.9, 0.5, 0.1]","[0.8, 0.4, 0.2]","[u'blue', u'black', u'red']","[u'left', u'middle', u'right']","[0.8, 0.4, 0.2]","[u'low', u'high', u'medium']","red",51,"right","medium",FALSE,FALSE,118,5600,NA
"A2541C8MY0BYV3","Tue Jan 28 2020 08:37:53 GMT-0500 (Eastern Standard Time)","Tue Jan 28 2020 08:44:01 GMT-0500 (Eastern Standard Time)","Mozilla/5.0 (Windows NT 10.0; Win64; x64; rv:72.0) Gecko/20100101 Firefox/72.0",108,"[0.9, 0.5, 0.1]","[0.8, 0.4, 0.2]","[u'blue', u'black', u'red']","[u'left', u'middle', u'right']","[0.8, 0.4, 0.2]","[u'low', u'high', u'medium']","black",50,"middle","high",TRUE,FALSE,110,5700,NA
"A2541C8MY0BYV3","Tue Jan 28 2020 08:37:53 GMT-0500 (Eastern Standard Time)","Tue Jan 28 2020 08:44:01 GMT-0500 (Eastern Standard Time)","Mozilla/5.0 (Windows NT 10.0; Win64; x64; rv:72.0) Gecko/20100101 Firefox/72.0",109,"[0.9, 0.5, 0.1]","[0.8, 0.4, 0.2]","[u'blue', u'black', u'red']","[u'left', u'middle', u'right']","[0.8, 0.4, 0.2]","[u'low', u'high', u'medium']","black",50,"middle","high",TRUE,FALSE,116,5800,NA
"A2541C8MY0BYV3","Tue Jan 28 2020 08:37:53 GMT-0500 (Eastern Standard Time)","Tue Jan 28 2020 08:44:01 GMT-0500 (Eastern Standard Time)","Mozilla/5.0 (Windows NT 10.0; Win64; x64; rv:72.0) Gecko/20100101 Firefox/72.0",110,"[0.9, 0.5, 0.1]","[0.8, 0.4, 0.2]","[u'blue', u'black', u'red']","[u'left', u'middle', u'right']","[0.8, 0.4, 0.2]","[u'low', u'high', u'medium']","black",50,"middle","high",TRUE,FALSE,158,5900,NA
"A2541C8MY0BYV3","Tue Jan 28 2020 08:37:53 GMT-0500 (Eastern Standard Time)","Tue Jan 28 2020 08:44:01 GMT-0500 (Eastern Standard Time)","Mozilla/5.0 (Windows NT 10.0; Win64; x64; rv:72.0) Gecko/20100101 Firefox/72.0",111,"[0.9, 0.5, 0.1]","[0.8, 0.4, 0.2]","[u'blue', u'black', u'red']","[u'left', u'middle', u'right']","[0.8, 0.4, 0.2]","[u'low', u'high', u'medium']","black",50,"middle","high",FALSE,FALSE,55,5850,NA
"A2541C8MY0BYV3","Tue Jan 28 2020 08:37:53 GMT-0500 (Eastern Standard Time)","Tue Jan 28 2020 08:44:01 GMT-0500 (Eastern Standard Time)","Mozilla/5.0 (Windows NT 10.0; Win64; x64; rv:72.0) Gecko/20100101 Firefox/72.0",112,"[0.9, 0.5, 0.1]","[0.8, 0.4, 0.2]","[u'blue', u'black', u'red']","[u'left', u'middle', u'right']","[0.8, 0.4, 0.2]","[u'low', u'high', u'medium']","red",51,"right","medium",TRUE,FALSE,106,5950,NA
"A2541C8MY0BYV3","Tue Jan 28 2020 08:37:53 GMT-0500 (Eastern Standard Time)","Tue Jan 28 2020 08:44:01 GMT-0500 (Eastern Standard Time)","Mozilla/5.0 (Windows NT 10.0; Win64; x64; rv:72.0) Gecko/20100101 Firefox/72.0",113,"[0.9, 0.5, 0.1]","[0.8, 0.4, 0.2]","[u'blue', u'black', u'red']","[u'left', u'middle', u'right']","[0.8, 0.4, 0.2]","[u'low', u'high', u'medium']","red",51,"right","medium",FALSE,FALSE,154,5900,NA
"A2541C8MY0BYV3","Tue Jan 28 2020 08:37:53 GMT-0500 (Eastern Standard Time)","Tue Jan 28 2020 08:44:01 GMT-0500 (Eastern Standard Time)","Mozilla/5.0 (Windows NT 10.0; Win64; x64; rv:72.0) Gecko/20100101 Firefox/72.0",114,"[0.9, 0.5, 0.1]","[0.8, 0.4, 0.2]","[u'blue', u'black', u'red']","[u'left', u'middle', u'right']","[0.8, 0.4, 0.2]","[u'low', u'high', u'medium']","blue",49,"left","low",FALSE,FALSE,102,5850,NA
"A2541C8MY0BYV3","Tue Jan 28 2020 08:37:53 GMT-0500 (Eastern Standard Time)","Tue Jan 28 2020 08:44:01 GMT-0500 (Eastern Standard Time)","Mozilla/5.0 (Windows NT 10.0; Win64; x64; rv:72.0) Gecko/20100101 Firefox/72.0",115,"[0.9, 0.5, 0.1]","[0.8, 0.4, 0.2]","[u'blue', u'black', u'red']","[u'left', u'middle', u'right']","[0.8, 0.4, 0.2]","[u'low', u'high', u'medium']","black",50,"middle","high",FALSE,FALSE,157,5800,NA
"A2541C8MY0BYV3","Tue Jan 28 2020 08:37:53 GMT-0500 (Eastern Standard Time)","Tue Jan 28 2020 08:44:01 GMT-0500 (Eastern Standard Time)","Mozilla/5.0 (Windows NT 10.0; Win64; x64; rv:72.0) Gecko/20100101 Firefox/72.0",116,"[0.9, 0.5, 0.1]","[0.8, 0.4, 0.2]","[u'blue', u'black', u'red']","[u'left', u'middle', u'right']","[0.8, 0.4, 0.2]","[u'low', u'high', u'medium']","red",51,"right","medium",FALSE,FALSE,185,5750,NA
"A2541C8MY0BYV3","Tue Jan 28 2020 08:37:53 GMT-0500 (Eastern Standard Time)","Tue Jan 28 2020 08:44:01 GMT-0500 (Eastern Standard Time)","Mozilla/5.0 (Windows NT 10.0; Win64; x64; rv:72.0) Gecko/20100101 Firefox/72.0",117,"[0.9, 0.5, 0.1]","[0.8, 0.4, 0.2]","[u'blue', u'black', u'red']","[u'left', u'middle', u'right']","[0.8, 0.4, 0.2]","[u'low', u'high', u'medium']","blue",49,"left","low",FALSE,FALSE,36,5700,NA
"A2541C8MY0BYV3","Tue Jan 28 2020 08:37:53 GMT-0500 (Eastern Standard Time)","Tue Jan 28 2020 08:44:01 GMT-0500 (Eastern Standard Time)","Mozilla/5.0 (Windows NT 10.0; Win64; x64; rv:72.0) Gecko/20100101 Firefox/72.0",118,"[0.9, 0.5, 0.1]","[0.8, 0.4, 0.2]","[u'blue', u'black', u'red']","[u'left', u'middle', u'right']","[0.8, 0.4, 0.2]","[u'low', u'high', u'medium']","black",50,"middle","high",TRUE,FALSE,345,5800,NA
"A2541C8MY0BYV3","Tue Jan 28 2020 08:37:53 GMT-0500 (Eastern Standard Time)","Tue Jan 28 2020 08:44:01 GMT-0500 (Eastern Standard Time)","Mozilla/5.0 (Windows NT 10.0; Win64; x64; rv:72.0) Gecko/20100101 Firefox/72.0",119,"[0.9, 0.5, 0.1]","[0.8, 0.4, 0.2]","[u'blue', u'black', u'red']","[u'left', u'middle', u'right']","[0.8, 0.4, 0.2]","[u'low', u'high', u'medium']","black",50,"middle","high",TRUE,FALSE,83,5900,NA
"A2541C8MY0BYV3","Tue Jan 28 2020 08:37:53 GMT-0500 (Eastern Standard Time)","Tue Jan 28 2020 08:44:01 GMT-0500 (Eastern Standard Time)","Mozilla/5.0 (Windows NT 10.0; Win64; x64; rv:72.0) Gecko/20100101 Firefox/72.0",120,"[0.9, 0.5, 0.1]","[0.8, 0.4, 0.2]","[u'blue', u'black', u'red']","[u'left', u'middle', u'right']","[0.8, 0.4, 0.2]","[u'low', u'high', u'medium']","black",50,"middle","high",FALSE,FALSE,193,5850,NA
"A2541C8MY0BYV3","Tue Jan 28 2020 08:37:53 GMT-0500 (Eastern Standard Time)","Tue Jan 28 2020 08:44:01 GMT-0500 (Eastern Standard Time)","Mozilla/5.0 (Windows NT 10.0; Win64; x64; rv:72.0) Gecko/20100101 Firefox/72.0",121,"[0.9, 0.5, 0.1]","[0.8, 0.4, 0.2]","[u'blue', u'black', u'red']","[u'left', u'middle', u'right']","[0.8, 0.4, 0.2]","[u'high', u'low', u'medium']","red",51,"right","medium",FALSE,FALSE,331,5800,NA
"A2541C8MY0BYV3","Tue Jan 28 2020 08:37:53 GMT-0500 (Eastern Standard Time)","Tue Jan 28 2020 08:44:01 GMT-0500 (Eastern Standard Time)","Mozilla/5.0 (Windows NT 10.0; Win64; x64; rv:72.0) Gecko/20100101 Firefox/72.0",122,"[0.9, 0.5, 0.1]","[0.8, 0.4, 0.2]","[u'blue', u'black', u'red']","[u'left', u'middle', u'right']","[0.8, 0.4, 0.2]","[u'high', u'low', u'medium']","black",50,"middle","low",FALSE,FALSE,194,5750,NA
"A2541C8MY0BYV3","Tue Jan 28 2020 08:37:53 GMT-0500 (Eastern Standard Time)","Tue Jan 28 2020 08:44:01 GMT-0500 (Eastern Standard Time)","Mozilla/5.0 (Windows NT 10.0; Win64; x64; rv:72.0) Gecko/20100101 Firefox/72.0",123,"[0.9, 0.5, 0.1]","[0.8, 0.4, 0.2]","[u'blue', u'black', u'red']","[u'left', u'middle', u'right']","[0.8, 0.4, 0.2]","[u'high', u'low', u'medium']","blue",49,"left","high",TRUE,FALSE,61,5850,NA
"A2541C8MY0BYV3","Tue Jan 28 2020 08:37:53 GMT-0500 (Eastern Standard Time)","Tue Jan 28 2020 08:44:01 GMT-0500 (Eastern Standard Time)","Mozilla/5.0 (Windows NT 10.0; Win64; x64; rv:72.0) Gecko/20100101 Firefox/72.0",124,"[0.9, 0.5, 0.1]","[0.8, 0.4, 0.2]","[u'blue', u'black', u'red']","[u'left', u'middle', u'right']","[0.8, 0.4, 0.2]","[u'high', u'low', u'medium']","blue",49,"left","high",TRUE,FALSE,51,5950,NA
"A2541C8MY0BYV3","Tue Jan 28 2020 08:37:53 GMT-0500 (Eastern Standard Time)","Tue Jan 28 2020 08:44:01 GMT-0500 (Eastern Standard Time)","Mozilla/5.0 (Windows NT 10.0; Win64; x64; rv:72.0) Gecko/20100101 Firefox/72.0",125,"[0.9, 0.5, 0.1]","[0.8, 0.4, 0.2]","[u'blue', u'black', u'red']","[u'left', u'middle', u'right']","[0.8, 0.4, 0.2]","[u'high', u'low', u'medium']","blue",49,"left","high",TRUE,FALSE,100,6050,NA
"A2541C8MY0BYV3","Tue Jan 28 2020 08:37:53 GMT-0500 (Eastern Standard Time)","Tue Jan 28 2020 08:44:01 GMT-0500 (Eastern Standard Time)","Mozilla/5.0 (Windows NT 10.0; Win64; x64; rv:72.0) Gecko/20100101 Firefox/72.0",126,"[0.9, 0.5, 0.1]","[0.8, 0.4, 0.2]","[u'blue', u'black', u'red']","[u'left', u'middle', u'right']","[0.8, 0.4, 0.2]","[u'high', u'low', u'medium']","blue",49,"left","high",TRUE,FALSE,71,6150,NA
"A2541C8MY0BYV3","Tue Jan 28 2020 08:37:53 GMT-0500 (Eastern Standard Time)","Tue Jan 28 2020 08:44:01 GMT-0500 (Eastern Standard Time)","Mozilla/5.0 (Windows NT 10.0; Win64; x64; rv:72.0) Gecko/20100101 Firefox/72.0",127,"[0.9, 0.5, 0.1]","[0.8, 0.4, 0.2]","[u'blue', u'black', u'red']","[u'left', u'middle', u'right']","[0.8, 0.4, 0.2]","[u'high', u'low', u'medium']","blue",49,"left","high",TRUE,FALSE,108,6250,NA
"A2541C8MY0BYV3","Tue Jan 28 2020 08:37:53 GMT-0500 (Eastern Standard Time)","Tue Jan 28 2020 08:44:01 GMT-0500 (Eastern Standard Time)","Mozilla/5.0 (Windows NT 10.0; Win64; x64; rv:72.0) Gecko/20100101 Firefox/72.0",128,"[0.9, 0.5, 0.1]","[0.8, 0.4, 0.2]","[u'blue', u'black', u'red']","[u'left', u'middle', u'right']","[0.8, 0.4, 0.2]","[u'high', u'low', u'medium']","blue",49,"left","high",FALSE,FALSE,358,6200,NA
"A2541C8MY0BYV3","Tue Jan 28 2020 08:37:53 GMT-0500 (Eastern Standard Time)","Tue Jan 28 2020 08:44:01 GMT-0500 (Eastern Standard Time)","Mozilla/5.0 (Windows NT 10.0; Win64; x64; rv:72.0) Gecko/20100101 Firefox/72.0",129,"[0.9, 0.5, 0.1]","[0.8, 0.4, 0.2]","[u'blue', u'black', u'red']","[u'left', u'middle', u'right']","[0.8, 0.4, 0.2]","[u'high', u'low', u'medium']","red",51,"right","medium",TRUE,FALSE,241,6300,NA
"A2541C8MY0BYV3","Tue Jan 28 2020 08:37:53 GMT-0500 (Eastern Standard Time)","Tue Jan 28 2020 08:44:01 GMT-0500 (Eastern Standard Time)","Mozilla/5.0 (Windows NT 10.0; Win64; x64; rv:72.0) Gecko/20100101 Firefox/72.0",130,"[0.9, 0.5, 0.1]","[0.8, 0.4, 0.2]","[u'blue', u'black', u'red']","[u'left', u'middle', u'right']","[0.8, 0.4, 0.2]","[u'high', u'low', u'medium']","red",51,"right","medium",TRUE,FALSE,179,6400,NA
"A2541C8MY0BYV3","Tue Jan 28 2020 08:37:53 GMT-0500 (Eastern Standard Time)","Tue Jan 28 2020 08:44:01 GMT-0500 (Eastern Standard Time)","Mozilla/5.0 (Windows NT 10.0; Win64; x64; rv:72.0) Gecko/20100101 Firefox/72.0",131,"[0.9, 0.5, 0.1]","[0.8, 0.4, 0.2]","[u'blue', u'black', u'red']","[u'left', u'middle', u'right']","[0.8, 0.4, 0.2]","[u'high', u'low', u'medium']","red",51,"right","medium",FALSE,FALSE,132,6350,NA
"A2541C8MY0BYV3","Tue Jan 28 2020 08:37:53 GMT-0500 (Eastern Standard Time)","Tue Jan 28 2020 08:44:01 GMT-0500 (Eastern Standard Time)","Mozilla/5.0 (Windows NT 10.0; Win64; x64; rv:72.0) Gecko/20100101 Firefox/72.0",132,"[0.9, 0.5, 0.1]","[0.8, 0.4, 0.2]","[u'blue', u'black', u'red']","[u'left', u'middle', u'right']","[0.8, 0.4, 0.2]","[u'high', u'low', u'medium']","black",50,"middle","low",FALSE,FALSE,146,6300,NA
"A2541C8MY0BYV3","Tue Jan 28 2020 08:37:53 GMT-0500 (Eastern Standard Time)","Tue Jan 28 2020 08:44:01 GMT-0500 (Eastern Standard Time)","Mozilla/5.0 (Windows NT 10.0; Win64; x64; rv:72.0) Gecko/20100101 Firefox/72.0",133,"[0.9, 0.5, 0.1]","[0.8, 0.4, 0.2]","[u'blue', u'black', u'red']","[u'left', u'middle', u'right']","[0.8, 0.4, 0.2]","[u'high', u'low', u'medium']","blue",49,"left","high",FALSE,FALSE,69,6250,NA
"A2541C8MY0BYV3","Tue Jan 28 2020 08:37:53 GMT-0500 (Eastern Standard Time)","Tue Jan 28 2020 08:44:01 GMT-0500 (Eastern Standard Time)","Mozilla/5.0 (Windows NT 10.0; Win64; x64; rv:72.0) Gecko/20100101 Firefox/72.0",134,"[0.9, 0.5, 0.1]","[0.8, 0.4, 0.2]","[u'blue', u'black', u'red']","[u'left', u'middle', u'right']","[0.8, 0.4, 0.2]","[u'high', u'low', u'medium']","red",51,"right","medium",TRUE,FALSE,97,6350,NA
"A2541C8MY0BYV3","Tue Jan 28 2020 08:37:53 GMT-0500 (Eastern Standard Time)","Tue Jan 28 2020 08:44:01 GMT-0500 (Eastern Standard Time)","Mozilla/5.0 (Windows NT 10.0; Win64; x64; rv:72.0) Gecko/20100101 Firefox/72.0",135,"[0.9, 0.5, 0.1]","[0.8, 0.4, 0.2]","[u'blue', u'black', u'red']","[u'left', u'middle', u'right']","[0.8, 0.4, 0.2]","[u'high', u'low', u'medium']","red",51,"right","medium",TRUE,FALSE,103,6450,NA
"A2541C8MY0BYV3","Tue Jan 28 2020 08:37:53 GMT-0500 (Eastern Standard Time)","Tue Jan 28 2020 08:44:01 GMT-0500 (Eastern Standard Time)","Mozilla/5.0 (Windows NT 10.0; Win64; x64; rv:72.0) Gecko/20100101 Firefox/72.0",136,"[0.9, 0.5, 0.1]","[0.8, 0.4, 0.2]","[u'blue', u'black', u'red']","[u'left', u'middle', u'right']","[0.8, 0.4, 0.2]","[u'high', u'low', u'medium']","red",51,"right","medium",FALSE,FALSE,110,6400,NA
"A2541C8MY0BYV3","Tue Jan 28 2020 08:37:53 GMT-0500 (Eastern Standard Time)","Tue Jan 28 2020 08:44:01 GMT-0500 (Eastern Standard Time)","Mozilla/5.0 (Windows NT 10.0; Win64; x64; rv:72.0) Gecko/20100101 Firefox/72.0",137,"[0.9, 0.5, 0.1]","[0.8, 0.4, 0.2]","[u'blue', u'black', u'red']","[u'left', u'middle', u'right']","[0.8, 0.4, 0.2]","[u'high', u'low', u'medium']","black",50,"middle","low",FALSE,FALSE,96,6350,NA
"A2541C8MY0BYV3","Tue Jan 28 2020 08:37:53 GMT-0500 (Eastern Standard Time)","Tue Jan 28 2020 08:44:01 GMT-0500 (Eastern Standard Time)","Mozilla/5.0 (Windows NT 10.0; Win64; x64; rv:72.0) Gecko/20100101 Firefox/72.0",138,"[0.9, 0.5, 0.1]","[0.8, 0.4, 0.2]","[u'blue', u'black', u'red']","[u'left', u'middle', u'right']","[0.8, 0.4, 0.2]","[u'high', u'low', u'medium']","blue",49,"left","high",TRUE,FALSE,88,6450,NA
"A2541C8MY0BYV3","Tue Jan 28 2020 08:37:53 GMT-0500 (Eastern Standard Time)","Tue Jan 28 2020 08:44:01 GMT-0500 (Eastern Standard Time)","Mozilla/5.0 (Windows NT 10.0; Win64; x64; rv:72.0) Gecko/20100101 Firefox/72.0",139,"[0.9, 0.5, 0.1]","[0.8, 0.4, 0.2]","[u'blue', u'black', u'red']","[u'left', u'middle', u'right']","[0.8, 0.4, 0.2]","[u'high', u'low', u'medium']","blue",49,"left","high",TRUE,FALSE,4,6550,NA
"A2541C8MY0BYV3","Tue Jan 28 2020 08:37:53 GMT-0500 (Eastern Standard Time)","Tue Jan 28 2020 08:44:01 GMT-0500 (Eastern Standard Time)","Mozilla/5.0 (Windows NT 10.0; Win64; x64; rv:72.0) Gecko/20100101 Firefox/72.0",140,"[0.9, 0.5, 0.1]","[0.8, 0.4, 0.2]","[u'blue', u'black', u'red']","[u'left', u'middle', u'right']","[0.8, 0.4, 0.2]","[u'high', u'low', u'medium']","blue",49,"left","high",TRUE,FALSE,27,6650,NA
"A2541C8MY0BYV3","Tue Jan 28 2020 08:37:53 GMT-0500 (Eastern Standard Time)","Tue Jan 28 2020 08:44:01 GMT-0500 (Eastern Standard Time)","Mozilla/5.0 (Windows NT 10.0; Win64; x64; rv:72.0) Gecko/20100101 Firefox/72.0",141,"[0.9, 0.5, 0.1]","[0.8, 0.4, 0.2]","[u'blue', u'black', u'red']","[u'left', u'middle', u'right']","[0.8, 0.4, 0.2]","[u'high', u'low', u'medium']","blue",49,"left","high",TRUE,FALSE,129,6750,NA
"A2541C8MY0BYV3","Tue Jan 28 2020 08:37:53 GMT-0500 (Eastern Standard Time)","Tue Jan 28 2020 08:44:01 GMT-0500 (Eastern Standard Time)","Mozilla/5.0 (Windows NT 10.0; Win64; x64; rv:72.0) Gecko/20100101 Firefox/72.0",142,"[0.9, 0.5, 0.1]","[0.8, 0.4, 0.2]","[u'blue', u'black', u'red']","[u'left', u'middle', u'right']","[0.8, 0.4, 0.2]","[u'high', u'low', u'medium']","blue",49,"left","high",FALSE,FALSE,102,6700,NA
"A2541C8MY0BYV3","Tue Jan 28 2020 08:37:53 GMT-0500 (Eastern Standard Time)","Tue Jan 28 2020 08:44:01 GMT-0500 (Eastern Standard Time)","Mozilla/5.0 (Windows NT 10.0; Win64; x64; rv:72.0) Gecko/20100101 Firefox/72.0",143,"[0.9, 0.5, 0.1]","[0.8, 0.4, 0.2]","[u'blue', u'black', u'red']","[u'left', u'middle', u'right']","[0.8, 0.4, 0.2]","[u'high', u'low', u'medium']","red",51,"right","medium",TRUE,FALSE,104,6800,NA
"A2541C8MY0BYV3","Tue Jan 28 2020 08:37:53 GMT-0500 (Eastern Standard Time)","Tue Jan 28 2020 08:44:01 GMT-0500 (Eastern Standard Time)","Mozilla/5.0 (Windows NT 10.0; Win64; x64; rv:72.0) Gecko/20100101 Firefox/72.0",144,"[0.9, 0.5, 0.1]","[0.8, 0.4, 0.2]","[u'blue', u'black', u'red']","[u'left', u'middle', u'right']","[0.8, 0.4, 0.2]","[u'high', u'low', u'medium']","red",51,"right","medium",FALSE,FALSE,134,6750,NA
"A2541C8MY0BYV3","Tue Jan 28 2020 08:37:53 GMT-0500 (Eastern Standard Time)","Tue Jan 28 2020 08:44:01 GMT-0500 (Eastern Standard Time)","Mozilla/5.0 (Windows NT 10.0; Win64; x64; rv:72.0) Gecko/20100101 Firefox/72.0",145,"[0.9, 0.5, 0.1]","[0.8, 0.4, 0.2]","[u'blue', u'black', u'red']","[u'left', u'middle', u'right']","[0.8, 0.4, 0.2]","[u'high', u'low', u'medium']","black",50,"middle","low",FALSE,FALSE,117,6700,NA
"A2541C8MY0BYV3","Tue Jan 28 2020 08:37:53 GMT-0500 (Eastern Standard Time)","Tue Jan 28 2020 08:44:01 GMT-0500 (Eastern Standard Time)","Mozilla/5.0 (Windows NT 10.0; Win64; x64; rv:72.0) Gecko/20100101 Firefox/72.0",146,"[0.9, 0.5, 0.1]","[0.8, 0.4, 0.2]","[u'blue', u'black', u'red']","[u'left', u'middle', u'right']","[0.8, 0.4, 0.2]","[u'high', u'low', u'medium']","blue",49,"left","high",FALSE,FALSE,132,6650,NA
"A2541C8MY0BYV3","Tue Jan 28 2020 08:37:53 GMT-0500 (Eastern Standard Time)","Tue Jan 28 2020 08:44:01 GMT-0500 (Eastern Standard Time)","Mozilla/5.0 (Windows NT 10.0; Win64; x64; rv:72.0) Gecko/20100101 Firefox/72.0",147,"[0.9, 0.5, 0.1]","[0.8, 0.4, 0.2]","[u'blue', u'black', u'red']","[u'left', u'middle', u'right']","[0.8, 0.4, 0.2]","[u'high', u'low', u'medium']","black",50,"middle","low",FALSE,FALSE,53,6600,NA
"A2541C8MY0BYV3","Tue Jan 28 2020 08:37:53 GMT-0500 (Eastern Standard Time)","Tue Jan 28 2020 08:44:01 GMT-0500 (Eastern Standard Time)","Mozilla/5.0 (Windows NT 10.0; Win64; x64; rv:72.0) Gecko/20100101 Firefox/72.0",148,"[0.9, 0.5, 0.1]","[0.8, 0.4, 0.2]","[u'blue', u'black', u'red']","[u'left', u'middle', u'right']","[0.8, 0.4, 0.2]","[u'high', u'low', u'medium']","red",51,"right","medium",TRUE,FALSE,6,6700,NA
"A2541C8MY0BYV3","Tue Jan 28 2020 08:37:53 GMT-0500 (Eastern Standard Time)","Tue Jan 28 2020 08:44:01 GMT-0500 (Eastern Standard Time)","Mozilla/5.0 (Windows NT 10.0; Win64; x64; rv:72.0) Gecko/20100101 Firefox/72.0",149,"[0.9, 0.5, 0.1]","[0.8, 0.4, 0.2]","[u'blue', u'black', u'red']","[u'left', u'middle', u'right']","[0.8, 0.4, 0.2]","[u'high', u'low', u'medium']","red",51,"right","medium",FALSE,FALSE,766,6650,NA
"A2541C8MY0BYV3","Tue Jan 28 2020 08:37:53 GMT-0500 (Eastern Standard Time)","Tue Jan 28 2020 08:44:01 GMT-0500 (Eastern Standard Time)","Mozilla/5.0 (Windows NT 10.0; Win64; x64; rv:72.0) Gecko/20100101 Firefox/72.0",150,"[0.9, 0.5, 0.1]","[0.8, 0.4, 0.2]","[u'blue', u'black', u'red']","[u'left', u'middle', u'right']","[0.8, 0.4, 0.2]","[u'high', u'low', u'medium']","blue",49,"left","high",TRUE,FALSE,110,6750,NA
"A2541C8MY0BYV3","Tue Jan 28 2020 08:37:53 GMT-0500 (Eastern Standard Time)","Tue Jan 28 2020 08:44:01 GMT-0500 (Eastern Standard Time)","Mozilla/5.0 (Windows NT 10.0; Win64; x64; rv:72.0) Gecko/20100101 Firefox/72.0",151,"[0.9, 0.5, 0.1]","[0.8, 0.4, 0.2]","[u'blue', u'black', u'red']","[u'left', u'middle', u'right']","[0.8, 0.4, 0.2]","[u'high', u'low', u'medium']","blue",49,"left","high",TRUE,FALSE,35,6850,NA
"A2541C8MY0BYV3","Tue Jan 28 2020 08:37:53 GMT-0500 (Eastern Standard Time)","Tue Jan 28 2020 08:44:01 GMT-0500 (Eastern Standard Time)","Mozilla/5.0 (Windows NT 10.0; Win64; x64; rv:72.0) Gecko/20100101 Firefox/72.0",152,"[0.9, 0.5, 0.1]","[0.8, 0.4, 0.2]","[u'blue', u'black', u'red']","[u'left', u'middle', u'right']","[0.8, 0.4, 0.2]","[u'high', u'low', u'medium']","blue",49,"left","high",FALSE,FALSE,103,6800,NA
"A2541C8MY0BYV3","Tue Jan 28 2020 08:37:53 GMT-0500 (Eastern Standard Time)","Tue Jan 28 2020 08:44:01 GMT-0500 (Eastern Standard Time)","Mozilla/5.0 (Windows NT 10.0; Win64; x64; rv:72.0) Gecko/20100101 Firefox/72.0",153,"[0.9, 0.5, 0.1]","[0.8, 0.4, 0.2]","[u'blue', u'black', u'red']","[u'left', u'middle', u'right']","[0.8, 0.4, 0.2]","[u'high', u'low', u'medium']","black",50,"middle","low",FALSE,FALSE,161,6750,NA
"A2541C8MY0BYV3","Tue Jan 28 2020 08:37:53 GMT-0500 (Eastern Standard Time)","Tue Jan 28 2020 08:44:01 GMT-0500 (Eastern Standard Time)","Mozilla/5.0 (Windows NT 10.0; Win64; x64; rv:72.0) Gecko/20100101 Firefox/72.0",154,"[0.9, 0.5, 0.1]","[0.8, 0.4, 0.2]","[u'blue', u'black', u'red']","[u'left', u'middle', u'right']","[0.8, 0.4, 0.2]","[u'high', u'low', u'medium']","red",51,"right","medium",TRUE,FALSE,626,6850,NA
"A2541C8MY0BYV3","Tue Jan 28 2020 08:37:53 GMT-0500 (Eastern Standard Time)","Tue Jan 28 2020 08:44:01 GMT-0500 (Eastern Standard Time)","Mozilla/5.0 (Windows NT 10.0; Win64; x64; rv:72.0) Gecko/20100101 Firefox/72.0",155,"[0.9, 0.5, 0.1]","[0.8, 0.4, 0.2]","[u'blue', u'black', u'red']","[u'left', u'middle', u'right']","[0.8, 0.4, 0.2]","[u'high', u'low', u'medium']","red",51,"right","medium",FALSE,FALSE,99,6800,NA
"A2541C8MY0BYV3","Tue Jan 28 2020 08:37:53 GMT-0500 (Eastern Standard Time)","Tue Jan 28 2020 08:44:01 GMT-0500 (Eastern Standard Time)","Mozilla/5.0 (Windows NT 10.0; Win64; x64; rv:72.0) Gecko/20100101 Firefox/72.0",156,"[0.9, 0.5, 0.1]","[0.8, 0.4, 0.2]","[u'blue', u'black', u'red']","[u'left', u'middle', u'right']","[0.8, 0.4, 0.2]","[u'high', u'low', u'medium']","blue",49,"left","high",TRUE,FALSE,192,6900,NA
"A2541C8MY0BYV3","Tue Jan 28 2020 08:37:53 GMT-0500 (Eastern Standard Time)","Tue Jan 28 2020 08:44:01 GMT-0500 (Eastern Standard Time)","Mozilla/5.0 (Windows NT 10.0; Win64; x64; rv:72.0) Gecko/20100101 Firefox/72.0",157,"[0.9, 0.5, 0.1]","[0.8, 0.4, 0.2]","[u'blue', u'black', u'red']","[u'left', u'middle', u'right']","[0.8, 0.4, 0.2]","[u'high', u'low', u'medium']","blue",49,"left","high",TRUE,FALSE,92,7000,NA
"A2541C8MY0BYV3","Tue Jan 28 2020 08:37:53 GMT-0500 (Eastern Standard Time)","Tue Jan 28 2020 08:44:01 GMT-0500 (Eastern Standard Time)","Mozilla/5.0 (Windows NT 10.0; Win64; x64; rv:72.0) Gecko/20100101 Firefox/72.0",158,"[0.9, 0.5, 0.1]","[0.8, 0.4, 0.2]","[u'blue', u'black', u'red']","[u'left', u'middle', u'right']","[0.8, 0.4, 0.2]","[u'high', u'low', u'medium']","blue",49,"left","high",FALSE,FALSE,75,6950,NA
"A2541C8MY0BYV3","Tue Jan 28 2020 08:37:53 GMT-0500 (Eastern Standard Time)","Tue Jan 28 2020 08:44:01 GMT-0500 (Eastern Standard Time)","Mozilla/5.0 (Windows NT 10.0; Win64; x64; rv:72.0) Gecko/20100101 Firefox/72.0",159,"[0.9, 0.5, 0.1]","[0.8, 0.4, 0.2]","[u'blue', u'black', u'red']","[u'left', u'middle', u'right']","[0.8, 0.4, 0.2]","[u'high', u'low', u'medium']","black",50,"middle","low",FALSE,FALSE,89,6900,NA
"A2541C8MY0BYV3","Tue Jan 28 2020 08:37:53 GMT-0500 (Eastern Standard Time)","Tue Jan 28 2020 08:44:01 GMT-0500 (Eastern Standard Time)","Mozilla/5.0 (Windows NT 10.0; Win64; x64; rv:72.0) Gecko/20100101 Firefox/72.0",160,"[0.9, 0.5, 0.1]","[0.8, 0.4, 0.2]","[u'blue', u'black', u'red']","[u'left', u'middle', u'right']","[0.8, 0.4, 0.2]","[u'high', u'low', u'medium']","red",51,"right","medium",FALSE,FALSE,102,6850,NA
