"src_subject_id","start_time","end_time","browser","index","first_half_probabilities","second_half_probabilities","deck_color","deck_position","deck_probabilities","deck_contingencies","response_color","key_press","response_position","response_probability","reward_type","trial_type","rt","reward_tally","exclusion_reason"
"A1AKL5YH9NLD2V","Thu Sep 17 2020 13:56:48 GMT-0500 (Central Daylight Time)","Thu Sep 17 2020 14:03:26 GMT-0500 (Central Daylight Time)","Mozilla/5.0 (Windows NT 6.1; Win64; x64) AppleWebKit/537.36 (KHTML, like Gecko) Chrome/85.0.4183.102 Safari/537.36",1,"[0.9, 0.5, 0.1]","[0.8, 0.4, 0.2]","[u'blue', u'black', u'red']","[u'left', u'middle', u'right']","[0.9, 0.5, 0.1]","[u'high', u'medium', u'low']","blue",49,"left","high","True","False",1006,100,NA
"A1AKL5YH9NLD2V","Thu Sep 17 2020 13:56:48 GMT-0500 (Central Daylight Time)","Thu Sep 17 2020 14:03:26 GMT-0500 (Central Daylight Time)","Mozilla/5.0 (Windows NT 6.1; Win64; x64) AppleWebKit/537.36 (KHTML, like Gecko) Chrome/85.0.4183.102 Safari/537.36",2,"[0.9, 0.5, 0.1]","[0.8, 0.4, 0.2]","[u'blue', u'black', u'red']","[u'left', u'middle', u'right']","[0.9, 0.5, 0.1]","[u'high', u'medium', u'low']","blue",49,"left","high","True","False",306,200,NA
"A1AKL5YH9NLD2V","Thu Sep 17 2020 13:56:48 GMT-0500 (Central Daylight Time)","Thu Sep 17 2020 14:03:26 GMT-0500 (Central Daylight Time)","Mozilla/5.0 (Windows NT 6.1; Win64; x64) AppleWebKit/537.36 (KHTML, like Gecko) Chrome/85.0.4183.102 Safari/537.36",3,"[0.9, 0.5, 0.1]","[0.8, 0.4, 0.2]","[u'blue', u'black', u'red']","[u'left', u'middle', u'right']","[0.9, 0.5, 0.1]","[u'high', u'medium', u'low']","blue",49,"left","high","True","False",259,300,NA
"A1AKL5YH9NLD2V","Thu Sep 17 2020 13:56:48 GMT-0500 (Central Daylight Time)","Thu Sep 17 2020 14:03:26 GMT-0500 (Central Daylight Time)","Mozilla/5.0 (Windows NT 6.1; Win64; x64) AppleWebKit/537.36 (KHTML, like Gecko) Chrome/85.0.4183.102 Safari/537.36",4,"[0.9, 0.5, 0.1]","[0.8, 0.4, 0.2]","[u'blue', u'black', u'red']","[u'left', u'middle', u'right']","[0.9, 0.5, 0.1]","[u'high', u'medium', u'low']","blue",49,"left","high","True","False",251,400,NA
"A1AKL5YH9NLD2V","Thu Sep 17 2020 13:56:48 GMT-0500 (Central Daylight Time)","Thu Sep 17 2020 14:03:26 GMT-0500 (Central Daylight Time)","Mozilla/5.0 (Windows NT 6.1; Win64; x64) AppleWebKit/537.36 (KHTML, like Gecko) Chrome/85.0.4183.102 Safari/537.36",5,"[0.9, 0.5, 0.1]","[0.8, 0.4, 0.2]","[u'blue', u'black', u'red']","[u'left', u'middle', u'right']","[0.9, 0.5, 0.1]","[u'high', u'medium', u'low']","blue",49,"left","high","True","False",250,500,NA
"A1AKL5YH9NLD2V","Thu Sep 17 2020 13:56:48 GMT-0500 (Central Daylight Time)","Thu Sep 17 2020 14:03:26 GMT-0500 (Central Daylight Time)","Mozilla/5.0 (Windows NT 6.1; Win64; x64) AppleWebKit/537.36 (KHTML, like Gecko) Chrome/85.0.4183.102 Safari/537.36",6,"[0.9, 0.5, 0.1]","[0.8, 0.4, 0.2]","[u'blue', u'black', u'red']","[u'left', u'middle', u'right']","[0.9, 0.5, 0.1]","[u'high', u'medium', u'low']","blue",49,"left","high","True","False",220,600,NA
"A1AKL5YH9NLD2V","Thu Sep 17 2020 13:56:48 GMT-0500 (Central Daylight Time)","Thu Sep 17 2020 14:03:26 GMT-0500 (Central Daylight Time)","Mozilla/5.0 (Windows NT 6.1; Win64; x64) AppleWebKit/537.36 (KHTML, like Gecko) Chrome/85.0.4183.102 Safari/537.36",7,"[0.9, 0.5, 0.1]","[0.8, 0.4, 0.2]","[u'blue', u'black', u'red']","[u'left', u'middle', u'right']","[0.9, 0.5, 0.1]","[u'high', u'medium', u'low']","black",50,"middle","medium","False","False",170,550,NA
"A1AKL5YH9NLD2V","Thu Sep 17 2020 13:56:48 GMT-0500 (Central Daylight Time)","Thu Sep 17 2020 14:03:26 GMT-0500 (Central Daylight Time)","Mozilla/5.0 (Windows NT 6.1; Win64; x64) AppleWebKit/537.36 (KHTML, like Gecko) Chrome/85.0.4183.102 Safari/537.36",8,"[0.9, 0.5, 0.1]","[0.8, 0.4, 0.2]","[u'blue', u'black', u'red']","[u'left', u'middle', u'right']","[0.9, 0.5, 0.1]","[u'high', u'medium', u'low']","blue",49,"left","high","True","False",147,650,NA
"A1AKL5YH9NLD2V","Thu Sep 17 2020 13:56:48 GMT-0500 (Central Daylight Time)","Thu Sep 17 2020 14:03:26 GMT-0500 (Central Daylight Time)","Mozilla/5.0 (Windows NT 6.1; Win64; x64) AppleWebKit/537.36 (KHTML, like Gecko) Chrome/85.0.4183.102 Safari/537.36",9,"[0.9, 0.5, 0.1]","[0.8, 0.4, 0.2]","[u'blue', u'black', u'red']","[u'left', u'middle', u'right']","[0.9, 0.5, 0.1]","[u'high', u'medium', u'low']","blue",49,"left","high","False","False",219,600,NA
"A1AKL5YH9NLD2V","Thu Sep 17 2020 13:56:48 GMT-0500 (Central Daylight Time)","Thu Sep 17 2020 14:03:26 GMT-0500 (Central Daylight Time)","Mozilla/5.0 (Windows NT 6.1; Win64; x64) AppleWebKit/537.36 (KHTML, like Gecko) Chrome/85.0.4183.102 Safari/537.36",10,"[0.9, 0.5, 0.1]","[0.8, 0.4, 0.2]","[u'blue', u'black', u'red']","[u'left', u'middle', u'right']","[0.9, 0.5, 0.1]","[u'high', u'medium', u'low']","blue",49,"left","high","True","True",123,700,NA
"A1AKL5YH9NLD2V","Thu Sep 17 2020 13:56:48 GMT-0500 (Central Daylight Time)","Thu Sep 17 2020 14:03:26 GMT-0500 (Central Daylight Time)","Mozilla/5.0 (Windows NT 6.1; Win64; x64) AppleWebKit/537.36 (KHTML, like Gecko) Chrome/85.0.4183.102 Safari/537.36",11,"[0.9, 0.5, 0.1]","[0.8, 0.4, 0.2]","[u'blue', u'black', u'red']","[u'left', u'middle', u'right']","[0.9, 0.5, 0.1]","[u'low', u'medium', u'high']","blue",49,"left","low","False","False",115,650,NA
"A1AKL5YH9NLD2V","Thu Sep 17 2020 13:56:48 GMT-0500 (Central Daylight Time)","Thu Sep 17 2020 14:03:26 GMT-0500 (Central Daylight Time)","Mozilla/5.0 (Windows NT 6.1; Win64; x64) AppleWebKit/537.36 (KHTML, like Gecko) Chrome/85.0.4183.102 Safari/537.36",12,"[0.9, 0.5, 0.1]","[0.8, 0.4, 0.2]","[u'blue', u'black', u'red']","[u'left', u'middle', u'right']","[0.9, 0.5, 0.1]","[u'low', u'medium', u'high']","blue",49,"left","low","False","False",115,600,NA
"A1AKL5YH9NLD2V","Thu Sep 17 2020 13:56:48 GMT-0500 (Central Daylight Time)","Thu Sep 17 2020 14:03:26 GMT-0500 (Central Daylight Time)","Mozilla/5.0 (Windows NT 6.1; Win64; x64) AppleWebKit/537.36 (KHTML, like Gecko) Chrome/85.0.4183.102 Safari/537.36",13,"[0.9, 0.5, 0.1]","[0.8, 0.4, 0.2]","[u'blue', u'black', u'red']","[u'left', u'middle', u'right']","[0.9, 0.5, 0.1]","[u'low', u'medium', u'high']","blue",49,"left","low","True","False",108,700,NA
"A1AKL5YH9NLD2V","Thu Sep 17 2020 13:56:48 GMT-0500 (Central Daylight Time)","Thu Sep 17 2020 14:03:26 GMT-0500 (Central Daylight Time)","Mozilla/5.0 (Windows NT 6.1; Win64; x64) AppleWebKit/537.36 (KHTML, like Gecko) Chrome/85.0.4183.102 Safari/537.36",14,"[0.9, 0.5, 0.1]","[0.8, 0.4, 0.2]","[u'blue', u'black', u'red']","[u'left', u'middle', u'right']","[0.9, 0.5, 0.1]","[u'low', u'medium', u'high']","blue",49,"left","low","False","False",26,650,NA
"A1AKL5YH9NLD2V","Thu Sep 17 2020 13:56:48 GMT-0500 (Central Daylight Time)","Thu Sep 17 2020 14:03:26 GMT-0500 (Central Daylight Time)","Mozilla/5.0 (Windows NT 6.1; Win64; x64) AppleWebKit/537.36 (KHTML, like Gecko) Chrome/85.0.4183.102 Safari/537.36",15,"[0.9, 0.5, 0.1]","[0.8, 0.4, 0.2]","[u'blue', u'black', u'red']","[u'left', u'middle', u'right']","[0.9, 0.5, 0.1]","[u'low', u'medium', u'high']","red",51,"right","high","True","False",60,750,NA
"A1AKL5YH9NLD2V","Thu Sep 17 2020 13:56:48 GMT-0500 (Central Daylight Time)","Thu Sep 17 2020 14:03:26 GMT-0500 (Central Daylight Time)","Mozilla/5.0 (Windows NT 6.1; Win64; x64) AppleWebKit/537.36 (KHTML, like Gecko) Chrome/85.0.4183.102 Safari/537.36",16,"[0.9, 0.5, 0.1]","[0.8, 0.4, 0.2]","[u'blue', u'black', u'red']","[u'left', u'middle', u'right']","[0.9, 0.5, 0.1]","[u'low', u'medium', u'high']","red",51,"right","high","True","False",148,850,NA
"A1AKL5YH9NLD2V","Thu Sep 17 2020 13:56:48 GMT-0500 (Central Daylight Time)","Thu Sep 17 2020 14:03:26 GMT-0500 (Central Daylight Time)","Mozilla/5.0 (Windows NT 6.1; Win64; x64) AppleWebKit/537.36 (KHTML, like Gecko) Chrome/85.0.4183.102 Safari/537.36",17,"[0.9, 0.5, 0.1]","[0.8, 0.4, 0.2]","[u'blue', u'black', u'red']","[u'left', u'middle', u'right']","[0.9, 0.5, 0.1]","[u'low', u'medium', u'high']","red",51,"right","high","True","False",91,950,NA
"A1AKL5YH9NLD2V","Thu Sep 17 2020 13:56:48 GMT-0500 (Central Daylight Time)","Thu Sep 17 2020 14:03:26 GMT-0500 (Central Daylight Time)","Mozilla/5.0 (Windows NT 6.1; Win64; x64) AppleWebKit/537.36 (KHTML, like Gecko) Chrome/85.0.4183.102 Safari/537.36",18,"[0.9, 0.5, 0.1]","[0.8, 0.4, 0.2]","[u'blue', u'black', u'red']","[u'left', u'middle', u'right']","[0.9, 0.5, 0.1]","[u'low', u'medium', u'high']","red",51,"right","high","True","False",124,1050,NA
"A1AKL5YH9NLD2V","Thu Sep 17 2020 13:56:48 GMT-0500 (Central Daylight Time)","Thu Sep 17 2020 14:03:26 GMT-0500 (Central Daylight Time)","Mozilla/5.0 (Windows NT 6.1; Win64; x64) AppleWebKit/537.36 (KHTML, like Gecko) Chrome/85.0.4183.102 Safari/537.36",19,"[0.9, 0.5, 0.1]","[0.8, 0.4, 0.2]","[u'blue', u'black', u'red']","[u'left', u'middle', u'right']","[0.9, 0.5, 0.1]","[u'low', u'medium', u'high']","red",51,"right","high","True","False",4,1150,NA
"A1AKL5YH9NLD2V","Thu Sep 17 2020 13:56:48 GMT-0500 (Central Daylight Time)","Thu Sep 17 2020 14:03:26 GMT-0500 (Central Daylight Time)","Mozilla/5.0 (Windows NT 6.1; Win64; x64) AppleWebKit/537.36 (KHTML, like Gecko) Chrome/85.0.4183.102 Safari/537.36",20,"[0.9, 0.5, 0.1]","[0.8, 0.4, 0.2]","[u'blue', u'black', u'red']","[u'left', u'middle', u'right']","[0.9, 0.5, 0.1]","[u'low', u'medium', u'high']","red",51,"right","high","True","False",53,1250,NA
"A1AKL5YH9NLD2V","Thu Sep 17 2020 13:56:48 GMT-0500 (Central Daylight Time)","Thu Sep 17 2020 14:03:26 GMT-0500 (Central Daylight Time)","Mozilla/5.0 (Windows NT 6.1; Win64; x64) AppleWebKit/537.36 (KHTML, like Gecko) Chrome/85.0.4183.102 Safari/537.36",21,"[0.9, 0.5, 0.1]","[0.8, 0.4, 0.2]","[u'blue', u'black', u'red']","[u'left', u'middle', u'right']","[0.9, 0.5, 0.1]","[u'low', u'medium', u'high']","red",51,"right","high","True","False",439,1350,NA
"A1AKL5YH9NLD2V","Thu Sep 17 2020 13:56:48 GMT-0500 (Central Daylight Time)","Thu Sep 17 2020 14:03:26 GMT-0500 (Central Daylight Time)","Mozilla/5.0 (Windows NT 6.1; Win64; x64) AppleWebKit/537.36 (KHTML, like Gecko) Chrome/85.0.4183.102 Safari/537.36",22,"[0.9, 0.5, 0.1]","[0.8, 0.4, 0.2]","[u'blue', u'black', u'red']","[u'left', u'middle', u'right']","[0.9, 0.5, 0.1]","[u'low', u'medium', u'high']","red",51,"right","high","True","False",203,1450,NA
"A1AKL5YH9NLD2V","Thu Sep 17 2020 13:56:48 GMT-0500 (Central Daylight Time)","Thu Sep 17 2020 14:03:26 GMT-0500 (Central Daylight Time)","Mozilla/5.0 (Windows NT 6.1; Win64; x64) AppleWebKit/537.36 (KHTML, like Gecko) Chrome/85.0.4183.102 Safari/537.36",23,"[0.9, 0.5, 0.1]","[0.8, 0.4, 0.2]","[u'blue', u'black', u'red']","[u'left', u'middle', u'right']","[0.9, 0.5, 0.1]","[u'low', u'medium', u'high']","red",51,"right","high","True","True",116,1550,NA
"A1AKL5YH9NLD2V","Thu Sep 17 2020 13:56:48 GMT-0500 (Central Daylight Time)","Thu Sep 17 2020 14:03:26 GMT-0500 (Central Daylight Time)","Mozilla/5.0 (Windows NT 6.1; Win64; x64) AppleWebKit/537.36 (KHTML, like Gecko) Chrome/85.0.4183.102 Safari/537.36",24,"[0.9, 0.5, 0.1]","[0.8, 0.4, 0.2]","[u'blue', u'black', u'red']","[u'left', u'middle', u'right']","[0.9, 0.5, 0.1]","[u'low', u'high', u'medium']","red",51,"right","medium","False","False",195,1500,NA
"A1AKL5YH9NLD2V","Thu Sep 17 2020 13:56:48 GMT-0500 (Central Daylight Time)","Thu Sep 17 2020 14:03:26 GMT-0500 (Central Daylight Time)","Mozilla/5.0 (Windows NT 6.1; Win64; x64) AppleWebKit/537.36 (KHTML, like Gecko) Chrome/85.0.4183.102 Safari/537.36",25,"[0.9, 0.5, 0.1]","[0.8, 0.4, 0.2]","[u'blue', u'black', u'red']","[u'left', u'middle', u'right']","[0.9, 0.5, 0.1]","[u'low', u'high', u'medium']","red",51,"right","medium","False","False",11,1450,NA
"A1AKL5YH9NLD2V","Thu Sep 17 2020 13:56:48 GMT-0500 (Central Daylight Time)","Thu Sep 17 2020 14:03:26 GMT-0500 (Central Daylight Time)","Mozilla/5.0 (Windows NT 6.1; Win64; x64) AppleWebKit/537.36 (KHTML, like Gecko) Chrome/85.0.4183.102 Safari/537.36",26,"[0.9, 0.5, 0.1]","[0.8, 0.4, 0.2]","[u'blue', u'black', u'red']","[u'left', u'middle', u'right']","[0.9, 0.5, 0.1]","[u'low', u'high', u'medium']","red",51,"right","medium","False","False",36,1400,NA
"A1AKL5YH9NLD2V","Thu Sep 17 2020 13:56:48 GMT-0500 (Central Daylight Time)","Thu Sep 17 2020 14:03:26 GMT-0500 (Central Daylight Time)","Mozilla/5.0 (Windows NT 6.1; Win64; x64) AppleWebKit/537.36 (KHTML, like Gecko) Chrome/85.0.4183.102 Safari/537.36",27,"[0.9, 0.5, 0.1]","[0.8, 0.4, 0.2]","[u'blue', u'black', u'red']","[u'left', u'middle', u'right']","[0.9, 0.5, 0.1]","[u'low', u'high', u'medium']","black",50,"middle","high","False","False",82,1350,NA
"A1AKL5YH9NLD2V","Thu Sep 17 2020 13:56:48 GMT-0500 (Central Daylight Time)","Thu Sep 17 2020 14:03:26 GMT-0500 (Central Daylight Time)","Mozilla/5.0 (Windows NT 6.1; Win64; x64) AppleWebKit/537.36 (KHTML, like Gecko) Chrome/85.0.4183.102 Safari/537.36",28,"[0.9, 0.5, 0.1]","[0.8, 0.4, 0.2]","[u'blue', u'black', u'red']","[u'left', u'middle', u'right']","[0.9, 0.5, 0.1]","[u'low', u'high', u'medium']","black",50,"middle","high","True","False",51,1450,NA
"A1AKL5YH9NLD2V","Thu Sep 17 2020 13:56:48 GMT-0500 (Central Daylight Time)","Thu Sep 17 2020 14:03:26 GMT-0500 (Central Daylight Time)","Mozilla/5.0 (Windows NT 6.1; Win64; x64) AppleWebKit/537.36 (KHTML, like Gecko) Chrome/85.0.4183.102 Safari/537.36",29,"[0.9, 0.5, 0.1]","[0.8, 0.4, 0.2]","[u'blue', u'black', u'red']","[u'left', u'middle', u'right']","[0.9, 0.5, 0.1]","[u'low', u'high', u'medium']","black",50,"middle","high","True","False",92,1550,NA
"A1AKL5YH9NLD2V","Thu Sep 17 2020 13:56:48 GMT-0500 (Central Daylight Time)","Thu Sep 17 2020 14:03:26 GMT-0500 (Central Daylight Time)","Mozilla/5.0 (Windows NT 6.1; Win64; x64) AppleWebKit/537.36 (KHTML, like Gecko) Chrome/85.0.4183.102 Safari/537.36",30,"[0.9, 0.5, 0.1]","[0.8, 0.4, 0.2]","[u'blue', u'black', u'red']","[u'left', u'middle', u'right']","[0.9, 0.5, 0.1]","[u'low', u'high', u'medium']","black",50,"middle","high","True","False",154,1650,NA
"A1AKL5YH9NLD2V","Thu Sep 17 2020 13:56:48 GMT-0500 (Central Daylight Time)","Thu Sep 17 2020 14:03:26 GMT-0500 (Central Daylight Time)","Mozilla/5.0 (Windows NT 6.1; Win64; x64) AppleWebKit/537.36 (KHTML, like Gecko) Chrome/85.0.4183.102 Safari/537.36",31,"[0.9, 0.5, 0.1]","[0.8, 0.4, 0.2]","[u'blue', u'black', u'red']","[u'left', u'middle', u'right']","[0.9, 0.5, 0.1]","[u'low', u'high', u'medium']","black",50,"middle","high","True","False",59,1750,NA
"A1AKL5YH9NLD2V","Thu Sep 17 2020 13:56:48 GMT-0500 (Central Daylight Time)","Thu Sep 17 2020 14:03:26 GMT-0500 (Central Daylight Time)","Mozilla/5.0 (Windows NT 6.1; Win64; x64) AppleWebKit/537.36 (KHTML, like Gecko) Chrome/85.0.4183.102 Safari/537.36",32,"[0.9, 0.5, 0.1]","[0.8, 0.4, 0.2]","[u'blue', u'black', u'red']","[u'left', u'middle', u'right']","[0.9, 0.5, 0.1]","[u'low', u'high', u'medium']","black",50,"middle","high","True","False",123,1850,NA
"A1AKL5YH9NLD2V","Thu Sep 17 2020 13:56:48 GMT-0500 (Central Daylight Time)","Thu Sep 17 2020 14:03:26 GMT-0500 (Central Daylight Time)","Mozilla/5.0 (Windows NT 6.1; Win64; x64) AppleWebKit/537.36 (KHTML, like Gecko) Chrome/85.0.4183.102 Safari/537.36",33,"[0.9, 0.5, 0.1]","[0.8, 0.4, 0.2]","[u'blue', u'black', u'red']","[u'left', u'middle', u'right']","[0.9, 0.5, 0.1]","[u'low', u'high', u'medium']","black",50,"middle","high","True","False",92,1950,NA
"A1AKL5YH9NLD2V","Thu Sep 17 2020 13:56:48 GMT-0500 (Central Daylight Time)","Thu Sep 17 2020 14:03:26 GMT-0500 (Central Daylight Time)","Mozilla/5.0 (Windows NT 6.1; Win64; x64) AppleWebKit/537.36 (KHTML, like Gecko) Chrome/85.0.4183.102 Safari/537.36",34,"[0.9, 0.5, 0.1]","[0.8, 0.4, 0.2]","[u'blue', u'black', u'red']","[u'left', u'middle', u'right']","[0.9, 0.5, 0.1]","[u'low', u'high', u'medium']","black",50,"middle","high","True","False",98,2050,NA
"A1AKL5YH9NLD2V","Thu Sep 17 2020 13:56:48 GMT-0500 (Central Daylight Time)","Thu Sep 17 2020 14:03:26 GMT-0500 (Central Daylight Time)","Mozilla/5.0 (Windows NT 6.1; Win64; x64) AppleWebKit/537.36 (KHTML, like Gecko) Chrome/85.0.4183.102 Safari/537.36",35,"[0.9, 0.5, 0.1]","[0.8, 0.4, 0.2]","[u'blue', u'black', u'red']","[u'left', u'middle', u'right']","[0.9, 0.5, 0.1]","[u'low', u'high', u'medium']","black",50,"middle","high","False","True",203,2000,NA
"A1AKL5YH9NLD2V","Thu Sep 17 2020 13:56:48 GMT-0500 (Central Daylight Time)","Thu Sep 17 2020 14:03:26 GMT-0500 (Central Daylight Time)","Mozilla/5.0 (Windows NT 6.1; Win64; x64) AppleWebKit/537.36 (KHTML, like Gecko) Chrome/85.0.4183.102 Safari/537.36",36,"[0.9, 0.5, 0.1]","[0.8, 0.4, 0.2]","[u'blue', u'black', u'red']","[u'left', u'middle', u'right']","[0.9, 0.5, 0.1]","[u'low', u'medium', u'high']","black",50,"middle","medium","False","False",139,1950,NA
"A1AKL5YH9NLD2V","Thu Sep 17 2020 13:56:48 GMT-0500 (Central Daylight Time)","Thu Sep 17 2020 14:03:26 GMT-0500 (Central Daylight Time)","Mozilla/5.0 (Windows NT 6.1; Win64; x64) AppleWebKit/537.36 (KHTML, like Gecko) Chrome/85.0.4183.102 Safari/537.36",37,"[0.9, 0.5, 0.1]","[0.8, 0.4, 0.2]","[u'blue', u'black', u'red']","[u'left', u'middle', u'right']","[0.9, 0.5, 0.1]","[u'low', u'medium', u'high']","red",51,"right","high","True","False",235,2050,NA
"A1AKL5YH9NLD2V","Thu Sep 17 2020 13:56:48 GMT-0500 (Central Daylight Time)","Thu Sep 17 2020 14:03:26 GMT-0500 (Central Daylight Time)","Mozilla/5.0 (Windows NT 6.1; Win64; x64) AppleWebKit/537.36 (KHTML, like Gecko) Chrome/85.0.4183.102 Safari/537.36",38,"[0.9, 0.5, 0.1]","[0.8, 0.4, 0.2]","[u'blue', u'black', u'red']","[u'left', u'middle', u'right']","[0.9, 0.5, 0.1]","[u'low', u'medium', u'high']","red",51,"right","high","True","False",108,2150,NA
"A1AKL5YH9NLD2V","Thu Sep 17 2020 13:56:48 GMT-0500 (Central Daylight Time)","Thu Sep 17 2020 14:03:26 GMT-0500 (Central Daylight Time)","Mozilla/5.0 (Windows NT 6.1; Win64; x64) AppleWebKit/537.36 (KHTML, like Gecko) Chrome/85.0.4183.102 Safari/537.36",39,"[0.9, 0.5, 0.1]","[0.8, 0.4, 0.2]","[u'blue', u'black', u'red']","[u'left', u'middle', u'right']","[0.9, 0.5, 0.1]","[u'low', u'medium', u'high']","red",51,"right","high","False","False",164,2100,NA
"A1AKL5YH9NLD2V","Thu Sep 17 2020 13:56:48 GMT-0500 (Central Daylight Time)","Thu Sep 17 2020 14:03:26 GMT-0500 (Central Daylight Time)","Mozilla/5.0 (Windows NT 6.1; Win64; x64) AppleWebKit/537.36 (KHTML, like Gecko) Chrome/85.0.4183.102 Safari/537.36",40,"[0.9, 0.5, 0.1]","[0.8, 0.4, 0.2]","[u'blue', u'black', u'red']","[u'left', u'middle', u'right']","[0.9, 0.5, 0.1]","[u'low', u'medium', u'high']","red",51,"right","high","True","False",85,2200,NA
"A1AKL5YH9NLD2V","Thu Sep 17 2020 13:56:48 GMT-0500 (Central Daylight Time)","Thu Sep 17 2020 14:03:26 GMT-0500 (Central Daylight Time)","Mozilla/5.0 (Windows NT 6.1; Win64; x64) AppleWebKit/537.36 (KHTML, like Gecko) Chrome/85.0.4183.102 Safari/537.36",41,"[0.9, 0.5, 0.1]","[0.8, 0.4, 0.2]","[u'blue', u'black', u'red']","[u'left', u'middle', u'right']","[0.9, 0.5, 0.1]","[u'low', u'high', u'medium']","red",51,"right","medium","False","False",756,2150,NA
"A1AKL5YH9NLD2V","Thu Sep 17 2020 13:56:48 GMT-0500 (Central Daylight Time)","Thu Sep 17 2020 14:03:26 GMT-0500 (Central Daylight Time)","Mozilla/5.0 (Windows NT 6.1; Win64; x64) AppleWebKit/537.36 (KHTML, like Gecko) Chrome/85.0.4183.102 Safari/537.36",42,"[0.9, 0.5, 0.1]","[0.8, 0.4, 0.2]","[u'blue', u'black', u'red']","[u'left', u'middle', u'right']","[0.9, 0.5, 0.1]","[u'low', u'high', u'medium']","blue",49,"left","low","False","False",235,2100,NA
"A1AKL5YH9NLD2V","Thu Sep 17 2020 13:56:48 GMT-0500 (Central Daylight Time)","Thu Sep 17 2020 14:03:26 GMT-0500 (Central Daylight Time)","Mozilla/5.0 (Windows NT 6.1; Win64; x64) AppleWebKit/537.36 (KHTML, like Gecko) Chrome/85.0.4183.102 Safari/537.36",43,"[0.9, 0.5, 0.1]","[0.8, 0.4, 0.2]","[u'blue', u'black', u'red']","[u'left', u'middle', u'right']","[0.9, 0.5, 0.1]","[u'low', u'high', u'medium']","black",50,"middle","high","True","False",130,2200,NA
"A1AKL5YH9NLD2V","Thu Sep 17 2020 13:56:48 GMT-0500 (Central Daylight Time)","Thu Sep 17 2020 14:03:26 GMT-0500 (Central Daylight Time)","Mozilla/5.0 (Windows NT 6.1; Win64; x64) AppleWebKit/537.36 (KHTML, like Gecko) Chrome/85.0.4183.102 Safari/537.36",44,"[0.9, 0.5, 0.1]","[0.8, 0.4, 0.2]","[u'blue', u'black', u'red']","[u'left', u'middle', u'right']","[0.9, 0.5, 0.1]","[u'low', u'high', u'medium']","black",50,"middle","high","True","False",114,2300,NA
"A1AKL5YH9NLD2V","Thu Sep 17 2020 13:56:48 GMT-0500 (Central Daylight Time)","Thu Sep 17 2020 14:03:26 GMT-0500 (Central Daylight Time)","Mozilla/5.0 (Windows NT 6.1; Win64; x64) AppleWebKit/537.36 (KHTML, like Gecko) Chrome/85.0.4183.102 Safari/537.36",45,"[0.9, 0.5, 0.1]","[0.8, 0.4, 0.2]","[u'blue', u'black', u'red']","[u'left', u'middle', u'right']","[0.9, 0.5, 0.1]","[u'low', u'high', u'medium']","black",50,"middle","high","True","False",163,2400,NA
"A1AKL5YH9NLD2V","Thu Sep 17 2020 13:56:48 GMT-0500 (Central Daylight Time)","Thu Sep 17 2020 14:03:26 GMT-0500 (Central Daylight Time)","Mozilla/5.0 (Windows NT 6.1; Win64; x64) AppleWebKit/537.36 (KHTML, like Gecko) Chrome/85.0.4183.102 Safari/537.36",46,"[0.9, 0.5, 0.1]","[0.8, 0.4, 0.2]","[u'blue', u'black', u'red']","[u'left', u'middle', u'right']","[0.9, 0.5, 0.1]","[u'low', u'high', u'medium']","black",50,"middle","high","True","False",161,2500,NA
"A1AKL5YH9NLD2V","Thu Sep 17 2020 13:56:48 GMT-0500 (Central Daylight Time)","Thu Sep 17 2020 14:03:26 GMT-0500 (Central Daylight Time)","Mozilla/5.0 (Windows NT 6.1; Win64; x64) AppleWebKit/537.36 (KHTML, like Gecko) Chrome/85.0.4183.102 Safari/537.36",47,"[0.9, 0.5, 0.1]","[0.8, 0.4, 0.2]","[u'blue', u'black', u'red']","[u'left', u'middle', u'right']","[0.9, 0.5, 0.1]","[u'low', u'high', u'medium']","black",50,"middle","high","False","False",299,2450,NA
"A1AKL5YH9NLD2V","Thu Sep 17 2020 13:56:48 GMT-0500 (Central Daylight Time)","Thu Sep 17 2020 14:03:26 GMT-0500 (Central Daylight Time)","Mozilla/5.0 (Windows NT 6.1; Win64; x64) AppleWebKit/537.36 (KHTML, like Gecko) Chrome/85.0.4183.102 Safari/537.36",48,"[0.9, 0.5, 0.1]","[0.8, 0.4, 0.2]","[u'blue', u'black', u'red']","[u'left', u'middle', u'right']","[0.9, 0.5, 0.1]","[u'low', u'high', u'medium']","black",50,"middle","high","True","False",99,2550,NA
"A1AKL5YH9NLD2V","Thu Sep 17 2020 13:56:48 GMT-0500 (Central Daylight Time)","Thu Sep 17 2020 14:03:26 GMT-0500 (Central Daylight Time)","Mozilla/5.0 (Windows NT 6.1; Win64; x64) AppleWebKit/537.36 (KHTML, like Gecko) Chrome/85.0.4183.102 Safari/537.36",49,"[0.9, 0.5, 0.1]","[0.8, 0.4, 0.2]","[u'blue', u'black', u'red']","[u'left', u'middle', u'right']","[0.9, 0.5, 0.1]","[u'low', u'high', u'medium']","black",50,"middle","high","True","False",123,2650,NA
"A1AKL5YH9NLD2V","Thu Sep 17 2020 13:56:48 GMT-0500 (Central Daylight Time)","Thu Sep 17 2020 14:03:26 GMT-0500 (Central Daylight Time)","Mozilla/5.0 (Windows NT 6.1; Win64; x64) AppleWebKit/537.36 (KHTML, like Gecko) Chrome/85.0.4183.102 Safari/537.36",50,"[0.9, 0.5, 0.1]","[0.8, 0.4, 0.2]","[u'blue', u'black', u'red']","[u'left', u'middle', u'right']","[0.9, 0.5, 0.1]","[u'low', u'high', u'medium']","black",50,"middle","high","True","False",107,2750,NA
"A1AKL5YH9NLD2V","Thu Sep 17 2020 13:56:48 GMT-0500 (Central Daylight Time)","Thu Sep 17 2020 14:03:26 GMT-0500 (Central Daylight Time)","Mozilla/5.0 (Windows NT 6.1; Win64; x64) AppleWebKit/537.36 (KHTML, like Gecko) Chrome/85.0.4183.102 Safari/537.36",51,"[0.9, 0.5, 0.1]","[0.8, 0.4, 0.2]","[u'blue', u'black', u'red']","[u'left', u'middle', u'right']","[0.9, 0.5, 0.1]","[u'low', u'high', u'medium']","black",50,"middle","high","True","True",98,2850,NA
"A1AKL5YH9NLD2V","Thu Sep 17 2020 13:56:48 GMT-0500 (Central Daylight Time)","Thu Sep 17 2020 14:03:26 GMT-0500 (Central Daylight Time)","Mozilla/5.0 (Windows NT 6.1; Win64; x64) AppleWebKit/537.36 (KHTML, like Gecko) Chrome/85.0.4183.102 Safari/537.36",52,"[0.9, 0.5, 0.1]","[0.8, 0.4, 0.2]","[u'blue', u'black', u'red']","[u'left', u'middle', u'right']","[0.9, 0.5, 0.1]","[u'medium', u'low', u'high']","black",50,"middle","low","False","False",148,2800,NA
"A1AKL5YH9NLD2V","Thu Sep 17 2020 13:56:48 GMT-0500 (Central Daylight Time)","Thu Sep 17 2020 14:03:26 GMT-0500 (Central Daylight Time)","Mozilla/5.0 (Windows NT 6.1; Win64; x64) AppleWebKit/537.36 (KHTML, like Gecko) Chrome/85.0.4183.102 Safari/537.36",53,"[0.9, 0.5, 0.1]","[0.8, 0.4, 0.2]","[u'blue', u'black', u'red']","[u'left', u'middle', u'right']","[0.9, 0.5, 0.1]","[u'medium', u'low', u'high']","black",50,"middle","low","False","False",106,2750,NA
"A1AKL5YH9NLD2V","Thu Sep 17 2020 13:56:48 GMT-0500 (Central Daylight Time)","Thu Sep 17 2020 14:03:26 GMT-0500 (Central Daylight Time)","Mozilla/5.0 (Windows NT 6.1; Win64; x64) AppleWebKit/537.36 (KHTML, like Gecko) Chrome/85.0.4183.102 Safari/537.36",54,"[0.9, 0.5, 0.1]","[0.8, 0.4, 0.2]","[u'blue', u'black', u'red']","[u'left', u'middle', u'right']","[0.9, 0.5, 0.1]","[u'medium', u'low', u'high']","blue",49,"left","medium","False","False",35,2700,NA
"A1AKL5YH9NLD2V","Thu Sep 17 2020 13:56:48 GMT-0500 (Central Daylight Time)","Thu Sep 17 2020 14:03:26 GMT-0500 (Central Daylight Time)","Mozilla/5.0 (Windows NT 6.1; Win64; x64) AppleWebKit/537.36 (KHTML, like Gecko) Chrome/85.0.4183.102 Safari/537.36",55,"[0.9, 0.5, 0.1]","[0.8, 0.4, 0.2]","[u'blue', u'black', u'red']","[u'left', u'middle', u'right']","[0.9, 0.5, 0.1]","[u'medium', u'low', u'high']","blue",49,"left","medium","True","False",35,2800,NA
"A1AKL5YH9NLD2V","Thu Sep 17 2020 13:56:48 GMT-0500 (Central Daylight Time)","Thu Sep 17 2020 14:03:26 GMT-0500 (Central Daylight Time)","Mozilla/5.0 (Windows NT 6.1; Win64; x64) AppleWebKit/537.36 (KHTML, like Gecko) Chrome/85.0.4183.102 Safari/537.36",56,"[0.9, 0.5, 0.1]","[0.8, 0.4, 0.2]","[u'blue', u'black', u'red']","[u'left', u'middle', u'right']","[0.9, 0.5, 0.1]","[u'medium', u'low', u'high']","blue",49,"left","medium","False","False",44,2750,NA
"A1AKL5YH9NLD2V","Thu Sep 17 2020 13:56:48 GMT-0500 (Central Daylight Time)","Thu Sep 17 2020 14:03:26 GMT-0500 (Central Daylight Time)","Mozilla/5.0 (Windows NT 6.1; Win64; x64) AppleWebKit/537.36 (KHTML, like Gecko) Chrome/85.0.4183.102 Safari/537.36",57,"[0.9, 0.5, 0.1]","[0.8, 0.4, 0.2]","[u'blue', u'black', u'red']","[u'left', u'middle', u'right']","[0.9, 0.5, 0.1]","[u'medium', u'low', u'high']","red",51,"right","high","True","False",52,2850,NA
"A1AKL5YH9NLD2V","Thu Sep 17 2020 13:56:48 GMT-0500 (Central Daylight Time)","Thu Sep 17 2020 14:03:26 GMT-0500 (Central Daylight Time)","Mozilla/5.0 (Windows NT 6.1; Win64; x64) AppleWebKit/537.36 (KHTML, like Gecko) Chrome/85.0.4183.102 Safari/537.36",58,"[0.9, 0.5, 0.1]","[0.8, 0.4, 0.2]","[u'blue', u'black', u'red']","[u'left', u'middle', u'right']","[0.9, 0.5, 0.1]","[u'medium', u'low', u'high']","red",51,"right","high","True","False",380,2950,NA
"A1AKL5YH9NLD2V","Thu Sep 17 2020 13:56:48 GMT-0500 (Central Daylight Time)","Thu Sep 17 2020 14:03:26 GMT-0500 (Central Daylight Time)","Mozilla/5.0 (Windows NT 6.1; Win64; x64) AppleWebKit/537.36 (KHTML, like Gecko) Chrome/85.0.4183.102 Safari/537.36",59,"[0.9, 0.5, 0.1]","[0.8, 0.4, 0.2]","[u'blue', u'black', u'red']","[u'left', u'middle', u'right']","[0.9, 0.5, 0.1]","[u'medium', u'low', u'high']","red",51,"right","high","True","False",142,3050,NA
"A1AKL5YH9NLD2V","Thu Sep 17 2020 13:56:48 GMT-0500 (Central Daylight Time)","Thu Sep 17 2020 14:03:26 GMT-0500 (Central Daylight Time)","Mozilla/5.0 (Windows NT 6.1; Win64; x64) AppleWebKit/537.36 (KHTML, like Gecko) Chrome/85.0.4183.102 Safari/537.36",60,"[0.9, 0.5, 0.1]","[0.8, 0.4, 0.2]","[u'blue', u'black', u'red']","[u'left', u'middle', u'right']","[0.9, 0.5, 0.1]","[u'medium', u'low', u'high']","red",51,"right","high","True","False",160,3150,NA
"A1AKL5YH9NLD2V","Thu Sep 17 2020 13:56:48 GMT-0500 (Central Daylight Time)","Thu Sep 17 2020 14:03:26 GMT-0500 (Central Daylight Time)","Mozilla/5.0 (Windows NT 6.1; Win64; x64) AppleWebKit/537.36 (KHTML, like Gecko) Chrome/85.0.4183.102 Safari/537.36",61,"[0.9, 0.5, 0.1]","[0.8, 0.4, 0.2]","[u'blue', u'black', u'red']","[u'left', u'middle', u'right']","[0.9, 0.5, 0.1]","[u'medium', u'low', u'high']","red",51,"right","high","True","False",83,3250,NA
"A1AKL5YH9NLD2V","Thu Sep 17 2020 13:56:48 GMT-0500 (Central Daylight Time)","Thu Sep 17 2020 14:03:26 GMT-0500 (Central Daylight Time)","Mozilla/5.0 (Windows NT 6.1; Win64; x64) AppleWebKit/537.36 (KHTML, like Gecko) Chrome/85.0.4183.102 Safari/537.36",62,"[0.9, 0.5, 0.1]","[0.8, 0.4, 0.2]","[u'blue', u'black', u'red']","[u'left', u'middle', u'right']","[0.9, 0.5, 0.1]","[u'medium', u'low', u'high']","red",51,"right","high","True","False",427,3350,NA
"A1AKL5YH9NLD2V","Thu Sep 17 2020 13:56:48 GMT-0500 (Central Daylight Time)","Thu Sep 17 2020 14:03:26 GMT-0500 (Central Daylight Time)","Mozilla/5.0 (Windows NT 6.1; Win64; x64) AppleWebKit/537.36 (KHTML, like Gecko) Chrome/85.0.4183.102 Safari/537.36",63,"[0.9, 0.5, 0.1]","[0.8, 0.4, 0.2]","[u'blue', u'black', u'red']","[u'left', u'middle', u'right']","[0.9, 0.5, 0.1]","[u'medium', u'low', u'high']","red",51,"right","high","True","False",275,3450,NA
"A1AKL5YH9NLD2V","Thu Sep 17 2020 13:56:48 GMT-0500 (Central Daylight Time)","Thu Sep 17 2020 14:03:26 GMT-0500 (Central Daylight Time)","Mozilla/5.0 (Windows NT 6.1; Win64; x64) AppleWebKit/537.36 (KHTML, like Gecko) Chrome/85.0.4183.102 Safari/537.36",64,"[0.9, 0.5, 0.1]","[0.8, 0.4, 0.2]","[u'blue', u'black', u'red']","[u'left', u'middle', u'right']","[0.9, 0.5, 0.1]","[u'medium', u'low', u'high']","red",51,"right","high","True","False",179,3550,NA
"A1AKL5YH9NLD2V","Thu Sep 17 2020 13:56:48 GMT-0500 (Central Daylight Time)","Thu Sep 17 2020 14:03:26 GMT-0500 (Central Daylight Time)","Mozilla/5.0 (Windows NT 6.1; Win64; x64) AppleWebKit/537.36 (KHTML, like Gecko) Chrome/85.0.4183.102 Safari/537.36",65,"[0.9, 0.5, 0.1]","[0.8, 0.4, 0.2]","[u'blue', u'black', u'red']","[u'left', u'middle', u'right']","[0.9, 0.5, 0.1]","[u'medium', u'low', u'high']","red",51,"right","high","True","True",140,3650,NA
"A1AKL5YH9NLD2V","Thu Sep 17 2020 13:56:48 GMT-0500 (Central Daylight Time)","Thu Sep 17 2020 14:03:26 GMT-0500 (Central Daylight Time)","Mozilla/5.0 (Windows NT 6.1; Win64; x64) AppleWebKit/537.36 (KHTML, like Gecko) Chrome/85.0.4183.102 Safari/537.36",66,"[0.9, 0.5, 0.1]","[0.8, 0.4, 0.2]","[u'blue', u'black', u'red']","[u'left', u'middle', u'right']","[0.9, 0.5, 0.1]","[u'high', u'medium', u'low']","red",51,"right","low","False","False",226,3600,NA
"A1AKL5YH9NLD2V","Thu Sep 17 2020 13:56:48 GMT-0500 (Central Daylight Time)","Thu Sep 17 2020 14:03:26 GMT-0500 (Central Daylight Time)","Mozilla/5.0 (Windows NT 6.1; Win64; x64) AppleWebKit/537.36 (KHTML, like Gecko) Chrome/85.0.4183.102 Safari/537.36",67,"[0.9, 0.5, 0.1]","[0.8, 0.4, 0.2]","[u'blue', u'black', u'red']","[u'left', u'middle', u'right']","[0.9, 0.5, 0.1]","[u'high', u'medium', u'low']","red",51,"right","low","False","False",100,3550,NA
"A1AKL5YH9NLD2V","Thu Sep 17 2020 13:56:48 GMT-0500 (Central Daylight Time)","Thu Sep 17 2020 14:03:26 GMT-0500 (Central Daylight Time)","Mozilla/5.0 (Windows NT 6.1; Win64; x64) AppleWebKit/537.36 (KHTML, like Gecko) Chrome/85.0.4183.102 Safari/537.36",68,"[0.9, 0.5, 0.1]","[0.8, 0.4, 0.2]","[u'blue', u'black', u'red']","[u'left', u'middle', u'right']","[0.9, 0.5, 0.1]","[u'high', u'medium', u'low']","blue",49,"left","high","True","False",44,3650,NA
"A1AKL5YH9NLD2V","Thu Sep 17 2020 13:56:48 GMT-0500 (Central Daylight Time)","Thu Sep 17 2020 14:03:26 GMT-0500 (Central Daylight Time)","Mozilla/5.0 (Windows NT 6.1; Win64; x64) AppleWebKit/537.36 (KHTML, like Gecko) Chrome/85.0.4183.102 Safari/537.36",69,"[0.9, 0.5, 0.1]","[0.8, 0.4, 0.2]","[u'blue', u'black', u'red']","[u'left', u'middle', u'right']","[0.9, 0.5, 0.1]","[u'high', u'medium', u'low']","blue",49,"left","high","True","False",68,3750,NA
"A1AKL5YH9NLD2V","Thu Sep 17 2020 13:56:48 GMT-0500 (Central Daylight Time)","Thu Sep 17 2020 14:03:26 GMT-0500 (Central Daylight Time)","Mozilla/5.0 (Windows NT 6.1; Win64; x64) AppleWebKit/537.36 (KHTML, like Gecko) Chrome/85.0.4183.102 Safari/537.36",70,"[0.9, 0.5, 0.1]","[0.8, 0.4, 0.2]","[u'blue', u'black', u'red']","[u'left', u'middle', u'right']","[0.9, 0.5, 0.1]","[u'high', u'medium', u'low']","blue",49,"left","high","True","False",83,3850,NA
"A1AKL5YH9NLD2V","Thu Sep 17 2020 13:56:48 GMT-0500 (Central Daylight Time)","Thu Sep 17 2020 14:03:26 GMT-0500 (Central Daylight Time)","Mozilla/5.0 (Windows NT 6.1; Win64; x64) AppleWebKit/537.36 (KHTML, like Gecko) Chrome/85.0.4183.102 Safari/537.36",71,"[0.9, 0.5, 0.1]","[0.8, 0.4, 0.2]","[u'blue', u'black', u'red']","[u'left', u'middle', u'right']","[0.9, 0.5, 0.1]","[u'high', u'medium', u'low']","blue",49,"left","high","True","False",76,3950,NA
"A1AKL5YH9NLD2V","Thu Sep 17 2020 13:56:48 GMT-0500 (Central Daylight Time)","Thu Sep 17 2020 14:03:26 GMT-0500 (Central Daylight Time)","Mozilla/5.0 (Windows NT 6.1; Win64; x64) AppleWebKit/537.36 (KHTML, like Gecko) Chrome/85.0.4183.102 Safari/537.36",72,"[0.9, 0.5, 0.1]","[0.8, 0.4, 0.2]","[u'blue', u'black', u'red']","[u'left', u'middle', u'right']","[0.9, 0.5, 0.1]","[u'high', u'medium', u'low']","blue",49,"left","high","True","False",92,4050,NA
"A1AKL5YH9NLD2V","Thu Sep 17 2020 13:56:48 GMT-0500 (Central Daylight Time)","Thu Sep 17 2020 14:03:26 GMT-0500 (Central Daylight Time)","Mozilla/5.0 (Windows NT 6.1; Win64; x64) AppleWebKit/537.36 (KHTML, like Gecko) Chrome/85.0.4183.102 Safari/537.36",73,"[0.9, 0.5, 0.1]","[0.8, 0.4, 0.2]","[u'blue', u'black', u'red']","[u'left', u'middle', u'right']","[0.9, 0.5, 0.1]","[u'high', u'medium', u'low']","blue",49,"left","high","True","False",113,4150,NA
"A1AKL5YH9NLD2V","Thu Sep 17 2020 13:56:48 GMT-0500 (Central Daylight Time)","Thu Sep 17 2020 14:03:26 GMT-0500 (Central Daylight Time)","Mozilla/5.0 (Windows NT 6.1; Win64; x64) AppleWebKit/537.36 (KHTML, like Gecko) Chrome/85.0.4183.102 Safari/537.36",74,"[0.9, 0.5, 0.1]","[0.8, 0.4, 0.2]","[u'blue', u'black', u'red']","[u'left', u'middle', u'right']","[0.9, 0.5, 0.1]","[u'high', u'medium', u'low']","blue",49,"left","high","True","False",115,4250,NA
"A1AKL5YH9NLD2V","Thu Sep 17 2020 13:56:48 GMT-0500 (Central Daylight Time)","Thu Sep 17 2020 14:03:26 GMT-0500 (Central Daylight Time)","Mozilla/5.0 (Windows NT 6.1; Win64; x64) AppleWebKit/537.36 (KHTML, like Gecko) Chrome/85.0.4183.102 Safari/537.36",75,"[0.9, 0.5, 0.1]","[0.8, 0.4, 0.2]","[u'blue', u'black', u'red']","[u'left', u'middle', u'right']","[0.9, 0.5, 0.1]","[u'high', u'medium', u'low']","blue",49,"left","high","True","False",146,4350,NA
"A1AKL5YH9NLD2V","Thu Sep 17 2020 13:56:48 GMT-0500 (Central Daylight Time)","Thu Sep 17 2020 14:03:26 GMT-0500 (Central Daylight Time)","Mozilla/5.0 (Windows NT 6.1; Win64; x64) AppleWebKit/537.36 (KHTML, like Gecko) Chrome/85.0.4183.102 Safari/537.36",76,"[0.9, 0.5, 0.1]","[0.8, 0.4, 0.2]","[u'blue', u'black', u'red']","[u'left', u'middle', u'right']","[0.9, 0.5, 0.1]","[u'high', u'medium', u'low']","blue",49,"left","high","True","True",90,4450,NA
"A1AKL5YH9NLD2V","Thu Sep 17 2020 13:56:48 GMT-0500 (Central Daylight Time)","Thu Sep 17 2020 14:03:26 GMT-0500 (Central Daylight Time)","Mozilla/5.0 (Windows NT 6.1; Win64; x64) AppleWebKit/537.36 (KHTML, like Gecko) Chrome/85.0.4183.102 Safari/537.36",77,"[0.9, 0.5, 0.1]","[0.8, 0.4, 0.2]","[u'blue', u'black', u'red']","[u'left', u'middle', u'right']","[0.9, 0.5, 0.1]","[u'low', u'high', u'medium']","blue",49,"left","low","False","False",171,4400,NA
"A1AKL5YH9NLD2V","Thu Sep 17 2020 13:56:48 GMT-0500 (Central Daylight Time)","Thu Sep 17 2020 14:03:26 GMT-0500 (Central Daylight Time)","Mozilla/5.0 (Windows NT 6.1; Win64; x64) AppleWebKit/537.36 (KHTML, like Gecko) Chrome/85.0.4183.102 Safari/537.36",78,"[0.9, 0.5, 0.1]","[0.8, 0.4, 0.2]","[u'blue', u'black', u'red']","[u'left', u'middle', u'right']","[0.9, 0.5, 0.1]","[u'low', u'high', u'medium']","blue",49,"left","low","False","False",35,4350,NA
"A1AKL5YH9NLD2V","Thu Sep 17 2020 13:56:48 GMT-0500 (Central Daylight Time)","Thu Sep 17 2020 14:03:26 GMT-0500 (Central Daylight Time)","Mozilla/5.0 (Windows NT 6.1; Win64; x64) AppleWebKit/537.36 (KHTML, like Gecko) Chrome/85.0.4183.102 Safari/537.36",79,"[0.9, 0.5, 0.1]","[0.8, 0.4, 0.2]","[u'blue', u'black', u'red']","[u'left', u'middle', u'right']","[0.9, 0.5, 0.1]","[u'low', u'high', u'medium']","black",50,"middle","high","True","False",31,4450,NA
"A1AKL5YH9NLD2V","Thu Sep 17 2020 13:56:48 GMT-0500 (Central Daylight Time)","Thu Sep 17 2020 14:03:26 GMT-0500 (Central Daylight Time)","Mozilla/5.0 (Windows NT 6.1; Win64; x64) AppleWebKit/537.36 (KHTML, like Gecko) Chrome/85.0.4183.102 Safari/537.36",80,"[0.9, 0.5, 0.1]","[0.8, 0.4, 0.2]","[u'blue', u'black', u'red']","[u'left', u'middle', u'right']","[0.9, 0.5, 0.1]","[u'low', u'high', u'medium']","black",50,"middle","high","True","False",103,4550,NA
"A1AKL5YH9NLD2V","Thu Sep 17 2020 13:56:48 GMT-0500 (Central Daylight Time)","Thu Sep 17 2020 14:03:26 GMT-0500 (Central Daylight Time)","Mozilla/5.0 (Windows NT 6.1; Win64; x64) AppleWebKit/537.36 (KHTML, like Gecko) Chrome/85.0.4183.102 Safari/537.36",81,"[0.9, 0.5, 0.1]","[0.8, 0.4, 0.2]","[u'blue', u'black', u'red']","[u'left', u'middle', u'right']","[0.8, 0.4, 0.2]","[u'high', u'medium', u'low']","black",50,"middle","medium","False","False",451,4500,NA
"A1AKL5YH9NLD2V","Thu Sep 17 2020 13:56:48 GMT-0500 (Central Daylight Time)","Thu Sep 17 2020 14:03:26 GMT-0500 (Central Daylight Time)","Mozilla/5.0 (Windows NT 6.1; Win64; x64) AppleWebKit/537.36 (KHTML, like Gecko) Chrome/85.0.4183.102 Safari/537.36",82,"[0.9, 0.5, 0.1]","[0.8, 0.4, 0.2]","[u'blue', u'black', u'red']","[u'left', u'middle', u'right']","[0.8, 0.4, 0.2]","[u'high', u'medium', u'low']","red",51,"right","low","False","False",35,4450,NA
"A1AKL5YH9NLD2V","Thu Sep 17 2020 13:56:48 GMT-0500 (Central Daylight Time)","Thu Sep 17 2020 14:03:26 GMT-0500 (Central Daylight Time)","Mozilla/5.0 (Windows NT 6.1; Win64; x64) AppleWebKit/537.36 (KHTML, like Gecko) Chrome/85.0.4183.102 Safari/537.36",83,"[0.9, 0.5, 0.1]","[0.8, 0.4, 0.2]","[u'blue', u'black', u'red']","[u'left', u'middle', u'right']","[0.8, 0.4, 0.2]","[u'high', u'medium', u'low']","blue",49,"left","high","True","False",91,4550,NA
"A1AKL5YH9NLD2V","Thu Sep 17 2020 13:56:48 GMT-0500 (Central Daylight Time)","Thu Sep 17 2020 14:03:26 GMT-0500 (Central Daylight Time)","Mozilla/5.0 (Windows NT 6.1; Win64; x64) AppleWebKit/537.36 (KHTML, like Gecko) Chrome/85.0.4183.102 Safari/537.36",84,"[0.9, 0.5, 0.1]","[0.8, 0.4, 0.2]","[u'blue', u'black', u'red']","[u'left', u'middle', u'right']","[0.8, 0.4, 0.2]","[u'high', u'medium', u'low']","blue",49,"left","high","True","False",131,4650,NA
"A1AKL5YH9NLD2V","Thu Sep 17 2020 13:56:48 GMT-0500 (Central Daylight Time)","Thu Sep 17 2020 14:03:26 GMT-0500 (Central Daylight Time)","Mozilla/5.0 (Windows NT 6.1; Win64; x64) AppleWebKit/537.36 (KHTML, like Gecko) Chrome/85.0.4183.102 Safari/537.36",85,"[0.9, 0.5, 0.1]","[0.8, 0.4, 0.2]","[u'blue', u'black', u'red']","[u'left', u'middle', u'right']","[0.8, 0.4, 0.2]","[u'high', u'medium', u'low']","blue",49,"left","high","True","False",116,4750,NA
"A1AKL5YH9NLD2V","Thu Sep 17 2020 13:56:48 GMT-0500 (Central Daylight Time)","Thu Sep 17 2020 14:03:26 GMT-0500 (Central Daylight Time)","Mozilla/5.0 (Windows NT 6.1; Win64; x64) AppleWebKit/537.36 (KHTML, like Gecko) Chrome/85.0.4183.102 Safari/537.36",86,"[0.9, 0.5, 0.1]","[0.8, 0.4, 0.2]","[u'blue', u'black', u'red']","[u'left', u'middle', u'right']","[0.8, 0.4, 0.2]","[u'high', u'medium', u'low']","blue",49,"left","high","True","False",122,4850,NA
"A1AKL5YH9NLD2V","Thu Sep 17 2020 13:56:48 GMT-0500 (Central Daylight Time)","Thu Sep 17 2020 14:03:26 GMT-0500 (Central Daylight Time)","Mozilla/5.0 (Windows NT 6.1; Win64; x64) AppleWebKit/537.36 (KHTML, like Gecko) Chrome/85.0.4183.102 Safari/537.36",87,"[0.9, 0.5, 0.1]","[0.8, 0.4, 0.2]","[u'blue', u'black', u'red']","[u'left', u'middle', u'right']","[0.8, 0.4, 0.2]","[u'high', u'medium', u'low']","blue",49,"left","high","True","False",156,4950,NA
"A1AKL5YH9NLD2V","Thu Sep 17 2020 13:56:48 GMT-0500 (Central Daylight Time)","Thu Sep 17 2020 14:03:26 GMT-0500 (Central Daylight Time)","Mozilla/5.0 (Windows NT 6.1; Win64; x64) AppleWebKit/537.36 (KHTML, like Gecko) Chrome/85.0.4183.102 Safari/537.36",88,"[0.9, 0.5, 0.1]","[0.8, 0.4, 0.2]","[u'blue', u'black', u'red']","[u'left', u'middle', u'right']","[0.8, 0.4, 0.2]","[u'high', u'medium', u'low']","blue",49,"left","high","False","False",203,4900,NA
"A1AKL5YH9NLD2V","Thu Sep 17 2020 13:56:48 GMT-0500 (Central Daylight Time)","Thu Sep 17 2020 14:03:26 GMT-0500 (Central Daylight Time)","Mozilla/5.0 (Windows NT 6.1; Win64; x64) AppleWebKit/537.36 (KHTML, like Gecko) Chrome/85.0.4183.102 Safari/537.36",89,"[0.9, 0.5, 0.1]","[0.8, 0.4, 0.2]","[u'blue', u'black', u'red']","[u'left', u'middle', u'right']","[0.8, 0.4, 0.2]","[u'high', u'medium', u'low']","blue",49,"left","high","True","False",92,5000,NA
"A1AKL5YH9NLD2V","Thu Sep 17 2020 13:56:48 GMT-0500 (Central Daylight Time)","Thu Sep 17 2020 14:03:26 GMT-0500 (Central Daylight Time)","Mozilla/5.0 (Windows NT 6.1; Win64; x64) AppleWebKit/537.36 (KHTML, like Gecko) Chrome/85.0.4183.102 Safari/537.36",90,"[0.9, 0.5, 0.1]","[0.8, 0.4, 0.2]","[u'blue', u'black', u'red']","[u'left', u'middle', u'right']","[0.8, 0.4, 0.2]","[u'high', u'medium', u'low']","blue",49,"left","high","True","False",76,5100,NA
"A1AKL5YH9NLD2V","Thu Sep 17 2020 13:56:48 GMT-0500 (Central Daylight Time)","Thu Sep 17 2020 14:03:26 GMT-0500 (Central Daylight Time)","Mozilla/5.0 (Windows NT 6.1; Win64; x64) AppleWebKit/537.36 (KHTML, like Gecko) Chrome/85.0.4183.102 Safari/537.36",91,"[0.9, 0.5, 0.1]","[0.8, 0.4, 0.2]","[u'blue', u'black', u'red']","[u'left', u'middle', u'right']","[0.8, 0.4, 0.2]","[u'high', u'medium', u'low']","blue",49,"left","high","False","True",34,5050,NA
"A1AKL5YH9NLD2V","Thu Sep 17 2020 13:56:48 GMT-0500 (Central Daylight Time)","Thu Sep 17 2020 14:03:26 GMT-0500 (Central Daylight Time)","Mozilla/5.0 (Windows NT 6.1; Win64; x64) AppleWebKit/537.36 (KHTML, like Gecko) Chrome/85.0.4183.102 Safari/537.36",92,"[0.9, 0.5, 0.1]","[0.8, 0.4, 0.2]","[u'blue', u'black', u'red']","[u'left', u'middle', u'right']","[0.8, 0.4, 0.2]","[u'low', u'medium', u'high']","black",50,"middle","medium","True","False",36,5150,NA
"A1AKL5YH9NLD2V","Thu Sep 17 2020 13:56:48 GMT-0500 (Central Daylight Time)","Thu Sep 17 2020 14:03:26 GMT-0500 (Central Daylight Time)","Mozilla/5.0 (Windows NT 6.1; Win64; x64) AppleWebKit/537.36 (KHTML, like Gecko) Chrome/85.0.4183.102 Safari/537.36",93,"[0.9, 0.5, 0.1]","[0.8, 0.4, 0.2]","[u'blue', u'black', u'red']","[u'left', u'middle', u'right']","[0.8, 0.4, 0.2]","[u'low', u'medium', u'high']","black",50,"middle","medium","True","False",50,5250,NA
"A1AKL5YH9NLD2V","Thu Sep 17 2020 13:56:48 GMT-0500 (Central Daylight Time)","Thu Sep 17 2020 14:03:26 GMT-0500 (Central Daylight Time)","Mozilla/5.0 (Windows NT 6.1; Win64; x64) AppleWebKit/537.36 (KHTML, like Gecko) Chrome/85.0.4183.102 Safari/537.36",94,"[0.9, 0.5, 0.1]","[0.8, 0.4, 0.2]","[u'blue', u'black', u'red']","[u'left', u'middle', u'right']","[0.8, 0.4, 0.2]","[u'low', u'medium', u'high']","black",50,"middle","medium","True","False",211,5350,NA
"A1AKL5YH9NLD2V","Thu Sep 17 2020 13:56:48 GMT-0500 (Central Daylight Time)","Thu Sep 17 2020 14:03:26 GMT-0500 (Central Daylight Time)","Mozilla/5.0 (Windows NT 6.1; Win64; x64) AppleWebKit/537.36 (KHTML, like Gecko) Chrome/85.0.4183.102 Safari/537.36",95,"[0.9, 0.5, 0.1]","[0.8, 0.4, 0.2]","[u'blue', u'black', u'red']","[u'left', u'middle', u'right']","[0.8, 0.4, 0.2]","[u'low', u'medium', u'high']","black",50,"middle","medium","False","False",163,5300,NA
"A1AKL5YH9NLD2V","Thu Sep 17 2020 13:56:48 GMT-0500 (Central Daylight Time)","Thu Sep 17 2020 14:03:26 GMT-0500 (Central Daylight Time)","Mozilla/5.0 (Windows NT 6.1; Win64; x64) AppleWebKit/537.36 (KHTML, like Gecko) Chrome/85.0.4183.102 Safari/537.36",96,"[0.9, 0.5, 0.1]","[0.8, 0.4, 0.2]","[u'blue', u'black', u'red']","[u'left', u'middle', u'right']","[0.8, 0.4, 0.2]","[u'low', u'medium', u'high']","black",50,"middle","medium","False","False",83,5250,NA
"A1AKL5YH9NLD2V","Thu Sep 17 2020 13:56:48 GMT-0500 (Central Daylight Time)","Thu Sep 17 2020 14:03:26 GMT-0500 (Central Daylight Time)","Mozilla/5.0 (Windows NT 6.1; Win64; x64) AppleWebKit/537.36 (KHTML, like Gecko) Chrome/85.0.4183.102 Safari/537.36",97,"[0.9, 0.5, 0.1]","[0.8, 0.4, 0.2]","[u'blue', u'black', u'red']","[u'left', u'middle', u'right']","[0.8, 0.4, 0.2]","[u'low', u'medium', u'high']","red",51,"right","high","True","False",52,5350,NA
"A1AKL5YH9NLD2V","Thu Sep 17 2020 13:56:48 GMT-0500 (Central Daylight Time)","Thu Sep 17 2020 14:03:26 GMT-0500 (Central Daylight Time)","Mozilla/5.0 (Windows NT 6.1; Win64; x64) AppleWebKit/537.36 (KHTML, like Gecko) Chrome/85.0.4183.102 Safari/537.36",98,"[0.9, 0.5, 0.1]","[0.8, 0.4, 0.2]","[u'blue', u'black', u'red']","[u'left', u'middle', u'right']","[0.8, 0.4, 0.2]","[u'low', u'medium', u'high']","red",51,"right","high","True","False",60,5450,NA
"A1AKL5YH9NLD2V","Thu Sep 17 2020 13:56:48 GMT-0500 (Central Daylight Time)","Thu Sep 17 2020 14:03:26 GMT-0500 (Central Daylight Time)","Mozilla/5.0 (Windows NT 6.1; Win64; x64) AppleWebKit/537.36 (KHTML, like Gecko) Chrome/85.0.4183.102 Safari/537.36",99,"[0.9, 0.5, 0.1]","[0.8, 0.4, 0.2]","[u'blue', u'black', u'red']","[u'left', u'middle', u'right']","[0.8, 0.4, 0.2]","[u'low', u'medium', u'high']","red",51,"right","high","False","False",53,5400,NA
"A1AKL5YH9NLD2V","Thu Sep 17 2020 13:56:48 GMT-0500 (Central Daylight Time)","Thu Sep 17 2020 14:03:26 GMT-0500 (Central Daylight Time)","Mozilla/5.0 (Windows NT 6.1; Win64; x64) AppleWebKit/537.36 (KHTML, like Gecko) Chrome/85.0.4183.102 Safari/537.36",100,"[0.9, 0.5, 0.1]","[0.8, 0.4, 0.2]","[u'blue', u'black', u'red']","[u'left', u'middle', u'right']","[0.8, 0.4, 0.2]","[u'low', u'medium', u'high']","blue",49,"left","low","False","False",2,5350,NA
"A1AKL5YH9NLD2V","Thu Sep 17 2020 13:56:48 GMT-0500 (Central Daylight Time)","Thu Sep 17 2020 14:03:26 GMT-0500 (Central Daylight Time)","Mozilla/5.0 (Windows NT 6.1; Win64; x64) AppleWebKit/537.36 (KHTML, like Gecko) Chrome/85.0.4183.102 Safari/537.36",101,"[0.9, 0.5, 0.1]","[0.8, 0.4, 0.2]","[u'blue', u'black', u'red']","[u'left', u'middle', u'right']","[0.8, 0.4, 0.2]","[u'low', u'medium', u'high']","black",50,"middle","medium","False","False",356,5300,NA
"A1AKL5YH9NLD2V","Thu Sep 17 2020 13:56:48 GMT-0500 (Central Daylight Time)","Thu Sep 17 2020 14:03:26 GMT-0500 (Central Daylight Time)","Mozilla/5.0 (Windows NT 6.1; Win64; x64) AppleWebKit/537.36 (KHTML, like Gecko) Chrome/85.0.4183.102 Safari/537.36",102,"[0.9, 0.5, 0.1]","[0.8, 0.4, 0.2]","[u'blue', u'black', u'red']","[u'left', u'middle', u'right']","[0.8, 0.4, 0.2]","[u'low', u'medium', u'high']","red",51,"right","high","True","False",108,5400,NA
"A1AKL5YH9NLD2V","Thu Sep 17 2020 13:56:48 GMT-0500 (Central Daylight Time)","Thu Sep 17 2020 14:03:26 GMT-0500 (Central Daylight Time)","Mozilla/5.0 (Windows NT 6.1; Win64; x64) AppleWebKit/537.36 (KHTML, like Gecko) Chrome/85.0.4183.102 Safari/537.36",103,"[0.9, 0.5, 0.1]","[0.8, 0.4, 0.2]","[u'blue', u'black', u'red']","[u'left', u'middle', u'right']","[0.8, 0.4, 0.2]","[u'low', u'medium', u'high']","red",51,"right","high","True","False",84,5500,NA
"A1AKL5YH9NLD2V","Thu Sep 17 2020 13:56:48 GMT-0500 (Central Daylight Time)","Thu Sep 17 2020 14:03:26 GMT-0500 (Central Daylight Time)","Mozilla/5.0 (Windows NT 6.1; Win64; x64) AppleWebKit/537.36 (KHTML, like Gecko) Chrome/85.0.4183.102 Safari/537.36",104,"[0.9, 0.5, 0.1]","[0.8, 0.4, 0.2]","[u'blue', u'black', u'red']","[u'left', u'middle', u'right']","[0.8, 0.4, 0.2]","[u'low', u'medium', u'high']","red",51,"right","high","True","False",107,5600,NA
"A1AKL5YH9NLD2V","Thu Sep 17 2020 13:56:48 GMT-0500 (Central Daylight Time)","Thu Sep 17 2020 14:03:26 GMT-0500 (Central Daylight Time)","Mozilla/5.0 (Windows NT 6.1; Win64; x64) AppleWebKit/537.36 (KHTML, like Gecko) Chrome/85.0.4183.102 Safari/537.36",105,"[0.9, 0.5, 0.1]","[0.8, 0.4, 0.2]","[u'blue', u'black', u'red']","[u'left', u'middle', u'right']","[0.8, 0.4, 0.2]","[u'low', u'medium', u'high']","red",51,"right","high","True","False",75,5700,NA
"A1AKL5YH9NLD2V","Thu Sep 17 2020 13:56:48 GMT-0500 (Central Daylight Time)","Thu Sep 17 2020 14:03:26 GMT-0500 (Central Daylight Time)","Mozilla/5.0 (Windows NT 6.1; Win64; x64) AppleWebKit/537.36 (KHTML, like Gecko) Chrome/85.0.4183.102 Safari/537.36",106,"[0.9, 0.5, 0.1]","[0.8, 0.4, 0.2]","[u'blue', u'black', u'red']","[u'left', u'middle', u'right']","[0.8, 0.4, 0.2]","[u'low', u'medium', u'high']","red",51,"right","high","False","False",115,5650,NA
"A1AKL5YH9NLD2V","Thu Sep 17 2020 13:56:48 GMT-0500 (Central Daylight Time)","Thu Sep 17 2020 14:03:26 GMT-0500 (Central Daylight Time)","Mozilla/5.0 (Windows NT 6.1; Win64; x64) AppleWebKit/537.36 (KHTML, like Gecko) Chrome/85.0.4183.102 Safari/537.36",107,"[0.9, 0.5, 0.1]","[0.8, 0.4, 0.2]","[u'blue', u'black', u'red']","[u'left', u'middle', u'right']","[0.8, 0.4, 0.2]","[u'low', u'medium', u'high']","red",51,"right","high","True","False",384,5750,NA
"A1AKL5YH9NLD2V","Thu Sep 17 2020 13:56:48 GMT-0500 (Central Daylight Time)","Thu Sep 17 2020 14:03:26 GMT-0500 (Central Daylight Time)","Mozilla/5.0 (Windows NT 6.1; Win64; x64) AppleWebKit/537.36 (KHTML, like Gecko) Chrome/85.0.4183.102 Safari/537.36",108,"[0.9, 0.5, 0.1]","[0.8, 0.4, 0.2]","[u'blue', u'black', u'red']","[u'left', u'middle', u'right']","[0.8, 0.4, 0.2]","[u'low', u'medium', u'high']","red",51,"right","high","True","False",67,5850,NA
"A1AKL5YH9NLD2V","Thu Sep 17 2020 13:56:48 GMT-0500 (Central Daylight Time)","Thu Sep 17 2020 14:03:26 GMT-0500 (Central Daylight Time)","Mozilla/5.0 (Windows NT 6.1; Win64; x64) AppleWebKit/537.36 (KHTML, like Gecko) Chrome/85.0.4183.102 Safari/537.36",109,"[0.9, 0.5, 0.1]","[0.8, 0.4, 0.2]","[u'blue', u'black', u'red']","[u'left', u'middle', u'right']","[0.8, 0.4, 0.2]","[u'low', u'medium', u'high']","red",51,"right","high","True","False",90,5950,NA
"A1AKL5YH9NLD2V","Thu Sep 17 2020 13:56:48 GMT-0500 (Central Daylight Time)","Thu Sep 17 2020 14:03:26 GMT-0500 (Central Daylight Time)","Mozilla/5.0 (Windows NT 6.1; Win64; x64) AppleWebKit/537.36 (KHTML, like Gecko) Chrome/85.0.4183.102 Safari/537.36",110,"[0.9, 0.5, 0.1]","[0.8, 0.4, 0.2]","[u'blue', u'black', u'red']","[u'left', u'middle', u'right']","[0.8, 0.4, 0.2]","[u'low', u'medium', u'high']","red",51,"right","high","True","True",139,6050,NA
"A1AKL5YH9NLD2V","Thu Sep 17 2020 13:56:48 GMT-0500 (Central Daylight Time)","Thu Sep 17 2020 14:03:26 GMT-0500 (Central Daylight Time)","Mozilla/5.0 (Windows NT 6.1; Win64; x64) AppleWebKit/537.36 (KHTML, like Gecko) Chrome/85.0.4183.102 Safari/537.36",111,"[0.9, 0.5, 0.1]","[0.8, 0.4, 0.2]","[u'blue', u'black', u'red']","[u'left', u'middle', u'right']","[0.8, 0.4, 0.2]","[u'high', u'low', u'medium']","red",51,"right","medium","False","False",107,6000,NA
"A1AKL5YH9NLD2V","Thu Sep 17 2020 13:56:48 GMT-0500 (Central Daylight Time)","Thu Sep 17 2020 14:03:26 GMT-0500 (Central Daylight Time)","Mozilla/5.0 (Windows NT 6.1; Win64; x64) AppleWebKit/537.36 (KHTML, like Gecko) Chrome/85.0.4183.102 Safari/537.36",112,"[0.9, 0.5, 0.1]","[0.8, 0.4, 0.2]","[u'blue', u'black', u'red']","[u'left', u'middle', u'right']","[0.8, 0.4, 0.2]","[u'high', u'low', u'medium']","red",51,"right","medium","False","False",59,5950,NA
"A1AKL5YH9NLD2V","Thu Sep 17 2020 13:56:48 GMT-0500 (Central Daylight Time)","Thu Sep 17 2020 14:03:26 GMT-0500 (Central Daylight Time)","Mozilla/5.0 (Windows NT 6.1; Win64; x64) AppleWebKit/537.36 (KHTML, like Gecko) Chrome/85.0.4183.102 Safari/537.36",113,"[0.9, 0.5, 0.1]","[0.8, 0.4, 0.2]","[u'blue', u'black', u'red']","[u'left', u'middle', u'right']","[0.8, 0.4, 0.2]","[u'high', u'low', u'medium']","blue",49,"left","high","True","False",52,6050,NA
"A1AKL5YH9NLD2V","Thu Sep 17 2020 13:56:48 GMT-0500 (Central Daylight Time)","Thu Sep 17 2020 14:03:26 GMT-0500 (Central Daylight Time)","Mozilla/5.0 (Windows NT 6.1; Win64; x64) AppleWebKit/537.36 (KHTML, like Gecko) Chrome/85.0.4183.102 Safari/537.36",114,"[0.9, 0.5, 0.1]","[0.8, 0.4, 0.2]","[u'blue', u'black', u'red']","[u'left', u'middle', u'right']","[0.8, 0.4, 0.2]","[u'high', u'low', u'medium']","blue",49,"left","high","True","False",395,6150,NA
"A1AKL5YH9NLD2V","Thu Sep 17 2020 13:56:48 GMT-0500 (Central Daylight Time)","Thu Sep 17 2020 14:03:26 GMT-0500 (Central Daylight Time)","Mozilla/5.0 (Windows NT 6.1; Win64; x64) AppleWebKit/537.36 (KHTML, like Gecko) Chrome/85.0.4183.102 Safari/537.36",115,"[0.9, 0.5, 0.1]","[0.8, 0.4, 0.2]","[u'blue', u'black', u'red']","[u'left', u'middle', u'right']","[0.8, 0.4, 0.2]","[u'high', u'low', u'medium']","blue",49,"left","high","True","False",116,6250,NA
"A1AKL5YH9NLD2V","Thu Sep 17 2020 13:56:48 GMT-0500 (Central Daylight Time)","Thu Sep 17 2020 14:03:26 GMT-0500 (Central Daylight Time)","Mozilla/5.0 (Windows NT 6.1; Win64; x64) AppleWebKit/537.36 (KHTML, like Gecko) Chrome/85.0.4183.102 Safari/537.36",116,"[0.9, 0.5, 0.1]","[0.8, 0.4, 0.2]","[u'blue', u'black', u'red']","[u'left', u'middle', u'right']","[0.8, 0.4, 0.2]","[u'high', u'low', u'medium']","blue",49,"left","high","False","False",122,6200,NA
"A1AKL5YH9NLD2V","Thu Sep 17 2020 13:56:48 GMT-0500 (Central Daylight Time)","Thu Sep 17 2020 14:03:26 GMT-0500 (Central Daylight Time)","Mozilla/5.0 (Windows NT 6.1; Win64; x64) AppleWebKit/537.36 (KHTML, like Gecko) Chrome/85.0.4183.102 Safari/537.36",117,"[0.9, 0.5, 0.1]","[0.8, 0.4, 0.2]","[u'blue', u'black', u'red']","[u'left', u'middle', u'right']","[0.8, 0.4, 0.2]","[u'high', u'low', u'medium']","blue",49,"left","high","True","False",59,6300,NA
"A1AKL5YH9NLD2V","Thu Sep 17 2020 13:56:48 GMT-0500 (Central Daylight Time)","Thu Sep 17 2020 14:03:26 GMT-0500 (Central Daylight Time)","Mozilla/5.0 (Windows NT 6.1; Win64; x64) AppleWebKit/537.36 (KHTML, like Gecko) Chrome/85.0.4183.102 Safari/537.36",118,"[0.9, 0.5, 0.1]","[0.8, 0.4, 0.2]","[u'blue', u'black', u'red']","[u'left', u'middle', u'right']","[0.8, 0.4, 0.2]","[u'high', u'low', u'medium']","blue",49,"left","high","False","False",91,6250,NA
"A1AKL5YH9NLD2V","Thu Sep 17 2020 13:56:48 GMT-0500 (Central Daylight Time)","Thu Sep 17 2020 14:03:26 GMT-0500 (Central Daylight Time)","Mozilla/5.0 (Windows NT 6.1; Win64; x64) AppleWebKit/537.36 (KHTML, like Gecko) Chrome/85.0.4183.102 Safari/537.36",119,"[0.9, 0.5, 0.1]","[0.8, 0.4, 0.2]","[u'blue', u'black', u'red']","[u'left', u'middle', u'right']","[0.8, 0.4, 0.2]","[u'high', u'low', u'medium']","blue",49,"left","high","True","False",123,6350,NA
"A1AKL5YH9NLD2V","Thu Sep 17 2020 13:56:48 GMT-0500 (Central Daylight Time)","Thu Sep 17 2020 14:03:26 GMT-0500 (Central Daylight Time)","Mozilla/5.0 (Windows NT 6.1; Win64; x64) AppleWebKit/537.36 (KHTML, like Gecko) Chrome/85.0.4183.102 Safari/537.36",120,"[0.9, 0.5, 0.1]","[0.8, 0.4, 0.2]","[u'blue', u'black', u'red']","[u'left', u'middle', u'right']","[0.8, 0.4, 0.2]","[u'high', u'low', u'medium']","blue",49,"left","high","True","False",108,6450,NA
"A1AKL5YH9NLD2V","Thu Sep 17 2020 13:56:48 GMT-0500 (Central Daylight Time)","Thu Sep 17 2020 14:03:26 GMT-0500 (Central Daylight Time)","Mozilla/5.0 (Windows NT 6.1; Win64; x64) AppleWebKit/537.36 (KHTML, like Gecko) Chrome/85.0.4183.102 Safari/537.36",121,"[0.9, 0.5, 0.1]","[0.8, 0.4, 0.2]","[u'blue', u'black', u'red']","[u'left', u'middle', u'right']","[0.8, 0.4, 0.2]","[u'low', u'high', u'medium']","black",50,"middle","high","True","False",771,6550,NA
"A1AKL5YH9NLD2V","Thu Sep 17 2020 13:56:48 GMT-0500 (Central Daylight Time)","Thu Sep 17 2020 14:03:26 GMT-0500 (Central Daylight Time)","Mozilla/5.0 (Windows NT 6.1; Win64; x64) AppleWebKit/537.36 (KHTML, like Gecko) Chrome/85.0.4183.102 Safari/537.36",122,"[0.9, 0.5, 0.1]","[0.8, 0.4, 0.2]","[u'blue', u'black', u'red']","[u'left', u'middle', u'right']","[0.8, 0.4, 0.2]","[u'low', u'high', u'medium']","black",50,"middle","high","False","False",115,6500,NA
"A1AKL5YH9NLD2V","Thu Sep 17 2020 13:56:48 GMT-0500 (Central Daylight Time)","Thu Sep 17 2020 14:03:26 GMT-0500 (Central Daylight Time)","Mozilla/5.0 (Windows NT 6.1; Win64; x64) AppleWebKit/537.36 (KHTML, like Gecko) Chrome/85.0.4183.102 Safari/537.36",123,"[0.9, 0.5, 0.1]","[0.8, 0.4, 0.2]","[u'blue', u'black', u'red']","[u'left', u'middle', u'right']","[0.8, 0.4, 0.2]","[u'low', u'high', u'medium']","black",50,"middle","high","True","False",99,6600,NA
"A1AKL5YH9NLD2V","Thu Sep 17 2020 13:56:48 GMT-0500 (Central Daylight Time)","Thu Sep 17 2020 14:03:26 GMT-0500 (Central Daylight Time)","Mozilla/5.0 (Windows NT 6.1; Win64; x64) AppleWebKit/537.36 (KHTML, like Gecko) Chrome/85.0.4183.102 Safari/537.36",124,"[0.9, 0.5, 0.1]","[0.8, 0.4, 0.2]","[u'blue', u'black', u'red']","[u'left', u'middle', u'right']","[0.8, 0.4, 0.2]","[u'low', u'high', u'medium']","black",50,"middle","high","True","False",91,6700,NA
"A1AKL5YH9NLD2V","Thu Sep 17 2020 13:56:48 GMT-0500 (Central Daylight Time)","Thu Sep 17 2020 14:03:26 GMT-0500 (Central Daylight Time)","Mozilla/5.0 (Windows NT 6.1; Win64; x64) AppleWebKit/537.36 (KHTML, like Gecko) Chrome/85.0.4183.102 Safari/537.36",125,"[0.9, 0.5, 0.1]","[0.8, 0.4, 0.2]","[u'blue', u'black', u'red']","[u'left', u'middle', u'right']","[0.8, 0.4, 0.2]","[u'low', u'high', u'medium']","black",50,"middle","high","False","False",148,6650,NA
"A1AKL5YH9NLD2V","Thu Sep 17 2020 13:56:48 GMT-0500 (Central Daylight Time)","Thu Sep 17 2020 14:03:26 GMT-0500 (Central Daylight Time)","Mozilla/5.0 (Windows NT 6.1; Win64; x64) AppleWebKit/537.36 (KHTML, like Gecko) Chrome/85.0.4183.102 Safari/537.36",126,"[0.9, 0.5, 0.1]","[0.8, 0.4, 0.2]","[u'blue', u'black', u'red']","[u'left', u'middle', u'right']","[0.8, 0.4, 0.2]","[u'low', u'high', u'medium']","black",50,"middle","high","True","False",121,6750,NA
"A1AKL5YH9NLD2V","Thu Sep 17 2020 13:56:48 GMT-0500 (Central Daylight Time)","Thu Sep 17 2020 14:03:26 GMT-0500 (Central Daylight Time)","Mozilla/5.0 (Windows NT 6.1; Win64; x64) AppleWebKit/537.36 (KHTML, like Gecko) Chrome/85.0.4183.102 Safari/537.36",127,"[0.9, 0.5, 0.1]","[0.8, 0.4, 0.2]","[u'blue', u'black', u'red']","[u'left', u'middle', u'right']","[0.8, 0.4, 0.2]","[u'low', u'high', u'medium']","black",50,"middle","high","True","False",83,6850,NA
"A1AKL5YH9NLD2V","Thu Sep 17 2020 13:56:48 GMT-0500 (Central Daylight Time)","Thu Sep 17 2020 14:03:26 GMT-0500 (Central Daylight Time)","Mozilla/5.0 (Windows NT 6.1; Win64; x64) AppleWebKit/537.36 (KHTML, like Gecko) Chrome/85.0.4183.102 Safari/537.36",128,"[0.9, 0.5, 0.1]","[0.8, 0.4, 0.2]","[u'blue', u'black', u'red']","[u'left', u'middle', u'right']","[0.8, 0.4, 0.2]","[u'low', u'high', u'medium']","black",50,"middle","high","True","False",115,6950,NA
"A1AKL5YH9NLD2V","Thu Sep 17 2020 13:56:48 GMT-0500 (Central Daylight Time)","Thu Sep 17 2020 14:03:26 GMT-0500 (Central Daylight Time)","Mozilla/5.0 (Windows NT 6.1; Win64; x64) AppleWebKit/537.36 (KHTML, like Gecko) Chrome/85.0.4183.102 Safari/537.36",129,"[0.9, 0.5, 0.1]","[0.8, 0.4, 0.2]","[u'blue', u'black', u'red']","[u'left', u'middle', u'right']","[0.8, 0.4, 0.2]","[u'low', u'high', u'medium']","black",50,"middle","high","True","True",100,7050,NA
"A1AKL5YH9NLD2V","Thu Sep 17 2020 13:56:48 GMT-0500 (Central Daylight Time)","Thu Sep 17 2020 14:03:26 GMT-0500 (Central Daylight Time)","Mozilla/5.0 (Windows NT 6.1; Win64; x64) AppleWebKit/537.36 (KHTML, like Gecko) Chrome/85.0.4183.102 Safari/537.36",130,"[0.9, 0.5, 0.1]","[0.8, 0.4, 0.2]","[u'blue', u'black', u'red']","[u'left', u'middle', u'right']","[0.8, 0.4, 0.2]","[u'low', u'medium', u'high']","black",50,"middle","medium","False","False",100,7000,NA
"A1AKL5YH9NLD2V","Thu Sep 17 2020 13:56:48 GMT-0500 (Central Daylight Time)","Thu Sep 17 2020 14:03:26 GMT-0500 (Central Daylight Time)","Mozilla/5.0 (Windows NT 6.1; Win64; x64) AppleWebKit/537.36 (KHTML, like Gecko) Chrome/85.0.4183.102 Safari/537.36",131,"[0.9, 0.5, 0.1]","[0.8, 0.4, 0.2]","[u'blue', u'black', u'red']","[u'left', u'middle', u'right']","[0.8, 0.4, 0.2]","[u'low', u'medium', u'high']","black",50,"middle","medium","False","False",363,6950,NA
"A1AKL5YH9NLD2V","Thu Sep 17 2020 13:56:48 GMT-0500 (Central Daylight Time)","Thu Sep 17 2020 14:03:26 GMT-0500 (Central Daylight Time)","Mozilla/5.0 (Windows NT 6.1; Win64; x64) AppleWebKit/537.36 (KHTML, like Gecko) Chrome/85.0.4183.102 Safari/537.36",132,"[0.9, 0.5, 0.1]","[0.8, 0.4, 0.2]","[u'blue', u'black', u'red']","[u'left', u'middle', u'right']","[0.8, 0.4, 0.2]","[u'low', u'medium', u'high']","red",51,"right","high","True","False",44,7050,NA
"A1AKL5YH9NLD2V","Thu Sep 17 2020 13:56:48 GMT-0500 (Central Daylight Time)","Thu Sep 17 2020 14:03:26 GMT-0500 (Central Daylight Time)","Mozilla/5.0 (Windows NT 6.1; Win64; x64) AppleWebKit/537.36 (KHTML, like Gecko) Chrome/85.0.4183.102 Safari/537.36",133,"[0.9, 0.5, 0.1]","[0.8, 0.4, 0.2]","[u'blue', u'black', u'red']","[u'left', u'middle', u'right']","[0.8, 0.4, 0.2]","[u'low', u'medium', u'high']","red",51,"right","high","True","False",154,7150,NA
"A1AKL5YH9NLD2V","Thu Sep 17 2020 13:56:48 GMT-0500 (Central Daylight Time)","Thu Sep 17 2020 14:03:26 GMT-0500 (Central Daylight Time)","Mozilla/5.0 (Windows NT 6.1; Win64; x64) AppleWebKit/537.36 (KHTML, like Gecko) Chrome/85.0.4183.102 Safari/537.36",134,"[0.9, 0.5, 0.1]","[0.8, 0.4, 0.2]","[u'blue', u'black', u'red']","[u'left', u'middle', u'right']","[0.8, 0.4, 0.2]","[u'low', u'medium', u'high']","red",51,"right","high","True","False",59,7250,NA
"A1AKL5YH9NLD2V","Thu Sep 17 2020 13:56:48 GMT-0500 (Central Daylight Time)","Thu Sep 17 2020 14:03:26 GMT-0500 (Central Daylight Time)","Mozilla/5.0 (Windows NT 6.1; Win64; x64) AppleWebKit/537.36 (KHTML, like Gecko) Chrome/85.0.4183.102 Safari/537.36",135,"[0.9, 0.5, 0.1]","[0.8, 0.4, 0.2]","[u'blue', u'black', u'red']","[u'left', u'middle', u'right']","[0.8, 0.4, 0.2]","[u'low', u'medium', u'high']","red",51,"right","high","True","False",203,7350,NA
"A1AKL5YH9NLD2V","Thu Sep 17 2020 13:56:48 GMT-0500 (Central Daylight Time)","Thu Sep 17 2020 14:03:26 GMT-0500 (Central Daylight Time)","Mozilla/5.0 (Windows NT 6.1; Win64; x64) AppleWebKit/537.36 (KHTML, like Gecko) Chrome/85.0.4183.102 Safari/537.36",136,"[0.9, 0.5, 0.1]","[0.8, 0.4, 0.2]","[u'blue', u'black', u'red']","[u'left', u'middle', u'right']","[0.8, 0.4, 0.2]","[u'low', u'medium', u'high']","red",51,"right","high","False","False",195,7300,NA
"A1AKL5YH9NLD2V","Thu Sep 17 2020 13:56:48 GMT-0500 (Central Daylight Time)","Thu Sep 17 2020 14:03:26 GMT-0500 (Central Daylight Time)","Mozilla/5.0 (Windows NT 6.1; Win64; x64) AppleWebKit/537.36 (KHTML, like Gecko) Chrome/85.0.4183.102 Safari/537.36",137,"[0.9, 0.5, 0.1]","[0.8, 0.4, 0.2]","[u'blue', u'black', u'red']","[u'left', u'middle', u'right']","[0.8, 0.4, 0.2]","[u'low', u'medium', u'high']","red",51,"right","high","True","False",123,7400,NA
"A1AKL5YH9NLD2V","Thu Sep 17 2020 13:56:48 GMT-0500 (Central Daylight Time)","Thu Sep 17 2020 14:03:26 GMT-0500 (Central Daylight Time)","Mozilla/5.0 (Windows NT 6.1; Win64; x64) AppleWebKit/537.36 (KHTML, like Gecko) Chrome/85.0.4183.102 Safari/537.36",138,"[0.9, 0.5, 0.1]","[0.8, 0.4, 0.2]","[u'blue', u'black', u'red']","[u'left', u'middle', u'right']","[0.8, 0.4, 0.2]","[u'low', u'medium', u'high']","red",51,"right","high","True","False",83,7500,NA
"A1AKL5YH9NLD2V","Thu Sep 17 2020 13:56:48 GMT-0500 (Central Daylight Time)","Thu Sep 17 2020 14:03:26 GMT-0500 (Central Daylight Time)","Mozilla/5.0 (Windows NT 6.1; Win64; x64) AppleWebKit/537.36 (KHTML, like Gecko) Chrome/85.0.4183.102 Safari/537.36",139,"[0.9, 0.5, 0.1]","[0.8, 0.4, 0.2]","[u'blue', u'black', u'red']","[u'left', u'middle', u'right']","[0.8, 0.4, 0.2]","[u'low', u'medium', u'high']","red",51,"right","high","True","False",100,7600,NA
"A1AKL5YH9NLD2V","Thu Sep 17 2020 13:56:48 GMT-0500 (Central Daylight Time)","Thu Sep 17 2020 14:03:26 GMT-0500 (Central Daylight Time)","Mozilla/5.0 (Windows NT 6.1; Win64; x64) AppleWebKit/537.36 (KHTML, like Gecko) Chrome/85.0.4183.102 Safari/537.36",140,"[0.9, 0.5, 0.1]","[0.8, 0.4, 0.2]","[u'blue', u'black', u'red']","[u'left', u'middle', u'right']","[0.8, 0.4, 0.2]","[u'low', u'medium', u'high']","red",51,"right","high","True","True",147,7700,NA
"A1AKL5YH9NLD2V","Thu Sep 17 2020 13:56:48 GMT-0500 (Central Daylight Time)","Thu Sep 17 2020 14:03:26 GMT-0500 (Central Daylight Time)","Mozilla/5.0 (Windows NT 6.1; Win64; x64) AppleWebKit/537.36 (KHTML, like Gecko) Chrome/85.0.4183.102 Safari/537.36",141,"[0.9, 0.5, 0.1]","[0.8, 0.4, 0.2]","[u'blue', u'black', u'red']","[u'left', u'middle', u'right']","[0.8, 0.4, 0.2]","[u'high', u'medium', u'low']","red",51,"right","low","False","False",476,7650,NA
"A1AKL5YH9NLD2V","Thu Sep 17 2020 13:56:48 GMT-0500 (Central Daylight Time)","Thu Sep 17 2020 14:03:26 GMT-0500 (Central Daylight Time)","Mozilla/5.0 (Windows NT 6.1; Win64; x64) AppleWebKit/537.36 (KHTML, like Gecko) Chrome/85.0.4183.102 Safari/537.36",142,"[0.9, 0.5, 0.1]","[0.8, 0.4, 0.2]","[u'blue', u'black', u'red']","[u'left', u'middle', u'right']","[0.8, 0.4, 0.2]","[u'high', u'medium', u'low']","red",51,"right","low","False","False",84,7600,NA
"A1AKL5YH9NLD2V","Thu Sep 17 2020 13:56:48 GMT-0500 (Central Daylight Time)","Thu Sep 17 2020 14:03:26 GMT-0500 (Central Daylight Time)","Mozilla/5.0 (Windows NT 6.1; Win64; x64) AppleWebKit/537.36 (KHTML, like Gecko) Chrome/85.0.4183.102 Safari/537.36",143,"[0.9, 0.5, 0.1]","[0.8, 0.4, 0.2]","[u'blue', u'black', u'red']","[u'left', u'middle', u'right']","[0.8, 0.4, 0.2]","[u'high', u'medium', u'low']","blue",49,"left","high","True","False",59,7700,NA
"A1AKL5YH9NLD2V","Thu Sep 17 2020 13:56:48 GMT-0500 (Central Daylight Time)","Thu Sep 17 2020 14:03:26 GMT-0500 (Central Daylight Time)","Mozilla/5.0 (Windows NT 6.1; Win64; x64) AppleWebKit/537.36 (KHTML, like Gecko) Chrome/85.0.4183.102 Safari/537.36",144,"[0.9, 0.5, 0.1]","[0.8, 0.4, 0.2]","[u'blue', u'black', u'red']","[u'left', u'middle', u'right']","[0.8, 0.4, 0.2]","[u'high', u'medium', u'low']","blue",49,"left","high","False","False",125,7650,NA
"A1AKL5YH9NLD2V","Thu Sep 17 2020 13:56:48 GMT-0500 (Central Daylight Time)","Thu Sep 17 2020 14:03:26 GMT-0500 (Central Daylight Time)","Mozilla/5.0 (Windows NT 6.1; Win64; x64) AppleWebKit/537.36 (KHTML, like Gecko) Chrome/85.0.4183.102 Safari/537.36",145,"[0.9, 0.5, 0.1]","[0.8, 0.4, 0.2]","[u'blue', u'black', u'red']","[u'left', u'middle', u'right']","[0.8, 0.4, 0.2]","[u'high', u'medium', u'low']","blue",49,"left","high","True","False",53,7750,NA
"A1AKL5YH9NLD2V","Thu Sep 17 2020 13:56:48 GMT-0500 (Central Daylight Time)","Thu Sep 17 2020 14:03:26 GMT-0500 (Central Daylight Time)","Mozilla/5.0 (Windows NT 6.1; Win64; x64) AppleWebKit/537.36 (KHTML, like Gecko) Chrome/85.0.4183.102 Safari/537.36",146,"[0.9, 0.5, 0.1]","[0.8, 0.4, 0.2]","[u'blue', u'black', u'red']","[u'left', u'middle', u'right']","[0.8, 0.4, 0.2]","[u'high', u'medium', u'low']","blue",49,"left","high","True","False",124,7850,NA
"A1AKL5YH9NLD2V","Thu Sep 17 2020 13:56:48 GMT-0500 (Central Daylight Time)","Thu Sep 17 2020 14:03:26 GMT-0500 (Central Daylight Time)","Mozilla/5.0 (Windows NT 6.1; Win64; x64) AppleWebKit/537.36 (KHTML, like Gecko) Chrome/85.0.4183.102 Safari/537.36",147,"[0.9, 0.5, 0.1]","[0.8, 0.4, 0.2]","[u'blue', u'black', u'red']","[u'left', u'middle', u'right']","[0.8, 0.4, 0.2]","[u'high', u'medium', u'low']","blue",49,"left","high","True","False",105,7950,NA
"A1AKL5YH9NLD2V","Thu Sep 17 2020 13:56:48 GMT-0500 (Central Daylight Time)","Thu Sep 17 2020 14:03:26 GMT-0500 (Central Daylight Time)","Mozilla/5.0 (Windows NT 6.1; Win64; x64) AppleWebKit/537.36 (KHTML, like Gecko) Chrome/85.0.4183.102 Safari/537.36",148,"[0.9, 0.5, 0.1]","[0.8, 0.4, 0.2]","[u'blue', u'black', u'red']","[u'left', u'middle', u'right']","[0.8, 0.4, 0.2]","[u'high', u'medium', u'low']","blue",49,"left","high","True","False",82,8050,NA
"A1AKL5YH9NLD2V","Thu Sep 17 2020 13:56:48 GMT-0500 (Central Daylight Time)","Thu Sep 17 2020 14:03:26 GMT-0500 (Central Daylight Time)","Mozilla/5.0 (Windows NT 6.1; Win64; x64) AppleWebKit/537.36 (KHTML, like Gecko) Chrome/85.0.4183.102 Safari/537.36",149,"[0.9, 0.5, 0.1]","[0.8, 0.4, 0.2]","[u'blue', u'black', u'red']","[u'left', u'middle', u'right']","[0.8, 0.4, 0.2]","[u'high', u'medium', u'low']","blue",49,"left","high","True","False",314,8150,NA
"A1AKL5YH9NLD2V","Thu Sep 17 2020 13:56:48 GMT-0500 (Central Daylight Time)","Thu Sep 17 2020 14:03:26 GMT-0500 (Central Daylight Time)","Mozilla/5.0 (Windows NT 6.1; Win64; x64) AppleWebKit/537.36 (KHTML, like Gecko) Chrome/85.0.4183.102 Safari/537.36",150,"[0.9, 0.5, 0.1]","[0.8, 0.4, 0.2]","[u'blue', u'black', u'red']","[u'left', u'middle', u'right']","[0.8, 0.4, 0.2]","[u'high', u'medium', u'low']","blue",49,"left","high","True","False",50,8250,NA
"A1AKL5YH9NLD2V","Thu Sep 17 2020 13:56:48 GMT-0500 (Central Daylight Time)","Thu Sep 17 2020 14:03:26 GMT-0500 (Central Daylight Time)","Mozilla/5.0 (Windows NT 6.1; Win64; x64) AppleWebKit/537.36 (KHTML, like Gecko) Chrome/85.0.4183.102 Safari/537.36",151,"[0.9, 0.5, 0.1]","[0.8, 0.4, 0.2]","[u'blue', u'black', u'red']","[u'left', u'middle', u'right']","[0.8, 0.4, 0.2]","[u'high', u'medium', u'low']","blue",49,"left","high","True","True",107,8350,NA
"A1AKL5YH9NLD2V","Thu Sep 17 2020 13:56:48 GMT-0500 (Central Daylight Time)","Thu Sep 17 2020 14:03:26 GMT-0500 (Central Daylight Time)","Mozilla/5.0 (Windows NT 6.1; Win64; x64) AppleWebKit/537.36 (KHTML, like Gecko) Chrome/85.0.4183.102 Safari/537.36",152,"[0.9, 0.5, 0.1]","[0.8, 0.4, 0.2]","[u'blue', u'black', u'red']","[u'left', u'middle', u'right']","[0.8, 0.4, 0.2]","[u'medium', u'high', u'low']","blue",49,"left","medium","False","False",91,8300,NA
"A1AKL5YH9NLD2V","Thu Sep 17 2020 13:56:48 GMT-0500 (Central Daylight Time)","Thu Sep 17 2020 14:03:26 GMT-0500 (Central Daylight Time)","Mozilla/5.0 (Windows NT 6.1; Win64; x64) AppleWebKit/537.36 (KHTML, like Gecko) Chrome/85.0.4183.102 Safari/537.36",153,"[0.9, 0.5, 0.1]","[0.8, 0.4, 0.2]","[u'blue', u'black', u'red']","[u'left', u'middle', u'right']","[0.8, 0.4, 0.2]","[u'medium', u'high', u'low']","blue",49,"left","medium","True","False",92,8400,NA
"A1AKL5YH9NLD2V","Thu Sep 17 2020 13:56:48 GMT-0500 (Central Daylight Time)","Thu Sep 17 2020 14:03:26 GMT-0500 (Central Daylight Time)","Mozilla/5.0 (Windows NT 6.1; Win64; x64) AppleWebKit/537.36 (KHTML, like Gecko) Chrome/85.0.4183.102 Safari/537.36",154,"[0.9, 0.5, 0.1]","[0.8, 0.4, 0.2]","[u'blue', u'black', u'red']","[u'left', u'middle', u'right']","[0.8, 0.4, 0.2]","[u'medium', u'high', u'low']","blue",49,"left","medium","True","False",74,8500,NA
"A1AKL5YH9NLD2V","Thu Sep 17 2020 13:56:48 GMT-0500 (Central Daylight Time)","Thu Sep 17 2020 14:03:26 GMT-0500 (Central Daylight Time)","Mozilla/5.0 (Windows NT 6.1; Win64; x64) AppleWebKit/537.36 (KHTML, like Gecko) Chrome/85.0.4183.102 Safari/537.36",155,"[0.9, 0.5, 0.1]","[0.8, 0.4, 0.2]","[u'blue', u'black', u'red']","[u'left', u'middle', u'right']","[0.8, 0.4, 0.2]","[u'medium', u'high', u'low']","blue",49,"left","medium","False","False",75,8450,NA
"A1AKL5YH9NLD2V","Thu Sep 17 2020 13:56:48 GMT-0500 (Central Daylight Time)","Thu Sep 17 2020 14:03:26 GMT-0500 (Central Daylight Time)","Mozilla/5.0 (Windows NT 6.1; Win64; x64) AppleWebKit/537.36 (KHTML, like Gecko) Chrome/85.0.4183.102 Safari/537.36",156,"[0.9, 0.5, 0.1]","[0.8, 0.4, 0.2]","[u'blue', u'black', u'red']","[u'left', u'middle', u'right']","[0.8, 0.4, 0.2]","[u'medium', u'high', u'low']","blue",49,"left","medium","True","False",27,8550,NA
"A1AKL5YH9NLD2V","Thu Sep 17 2020 13:56:48 GMT-0500 (Central Daylight Time)","Thu Sep 17 2020 14:03:26 GMT-0500 (Central Daylight Time)","Mozilla/5.0 (Windows NT 6.1; Win64; x64) AppleWebKit/537.36 (KHTML, like Gecko) Chrome/85.0.4183.102 Safari/537.36",157,"[0.9, 0.5, 0.1]","[0.8, 0.4, 0.2]","[u'blue', u'black', u'red']","[u'left', u'middle', u'right']","[0.8, 0.4, 0.2]","[u'medium', u'high', u'low']","blue",49,"left","medium","False","False",75,8500,NA
"A1AKL5YH9NLD2V","Thu Sep 17 2020 13:56:48 GMT-0500 (Central Daylight Time)","Thu Sep 17 2020 14:03:26 GMT-0500 (Central Daylight Time)","Mozilla/5.0 (Windows NT 6.1; Win64; x64) AppleWebKit/537.36 (KHTML, like Gecko) Chrome/85.0.4183.102 Safari/537.36",158,"[0.9, 0.5, 0.1]","[0.8, 0.4, 0.2]","[u'blue', u'black', u'red']","[u'left', u'middle', u'right']","[0.8, 0.4, 0.2]","[u'medium', u'high', u'low']","blue",49,"left","medium","True","False",131,8600,NA
"A1AKL5YH9NLD2V","Thu Sep 17 2020 13:56:48 GMT-0500 (Central Daylight Time)","Thu Sep 17 2020 14:03:26 GMT-0500 (Central Daylight Time)","Mozilla/5.0 (Windows NT 6.1; Win64; x64) AppleWebKit/537.36 (KHTML, like Gecko) Chrome/85.0.4183.102 Safari/537.36",159,"[0.9, 0.5, 0.1]","[0.8, 0.4, 0.2]","[u'blue', u'black', u'red']","[u'left', u'middle', u'right']","[0.8, 0.4, 0.2]","[u'medium', u'high', u'low']","blue",49,"left","medium","False","False",163,8550,NA
"A1AKL5YH9NLD2V","Thu Sep 17 2020 13:56:48 GMT-0500 (Central Daylight Time)","Thu Sep 17 2020 14:03:26 GMT-0500 (Central Daylight Time)","Mozilla/5.0 (Windows NT 6.1; Win64; x64) AppleWebKit/537.36 (KHTML, like Gecko) Chrome/85.0.4183.102 Safari/537.36",160,"[0.9, 0.5, 0.1]","[0.8, 0.4, 0.2]","[u'blue', u'black', u'red']","[u'left', u'middle', u'right']","[0.8, 0.4, 0.2]","[u'medium', u'high', u'low']","blue",49,"left","medium","False","False",84,8500,NA
