"src_subject_id","start_time","end_time","browser","index","first_half_probabilities","second_half_probabilities","deck_color","deck_position","deck_probabilities","deck_contingencies","response_color","key_press","response_position","response_probability","reward_type","trial_type","rt","reward_tally","exclusion_reason"
"A1I72NHC21347A","Tue Sep 15 2020 13:18:11 GMT-0400 (Eastern Daylight Time)","Tue Sep 15 2020 13:25:43 GMT-0400 (Eastern Daylight Time)","Mozilla/5.0 (Windows NT 10.0; Win64; x64) AppleWebKit/537.36 (KHTML, like Gecko) Chrome/85.0.4183.83 Safari/537.36",1,"[0.9, 0.5, 0.1]","[0.8, 0.4, 0.2]","[u'black', u'blue', u'red']","[u'left', u'middle', u'right']","[0.9, 0.5, 0.1]","[u'low', u'high', u'medium']","black",49,"left","low","False","False",1480,-50,NA
"A1I72NHC21347A","Tue Sep 15 2020 13:18:11 GMT-0400 (Eastern Daylight Time)","Tue Sep 15 2020 13:25:43 GMT-0400 (Eastern Daylight Time)","Mozilla/5.0 (Windows NT 10.0; Win64; x64) AppleWebKit/537.36 (KHTML, like Gecko) Chrome/85.0.4183.83 Safari/537.36",2,"[0.9, 0.5, 0.1]","[0.8, 0.4, 0.2]","[u'black', u'blue', u'red']","[u'left', u'middle', u'right']","[0.9, 0.5, 0.1]","[u'low', u'high', u'medium']","blue",50,"middle","high","True","False",753,50,NA
"A1I72NHC21347A","Tue Sep 15 2020 13:18:11 GMT-0400 (Eastern Daylight Time)","Tue Sep 15 2020 13:25:43 GMT-0400 (Eastern Daylight Time)","Mozilla/5.0 (Windows NT 10.0; Win64; x64) AppleWebKit/537.36 (KHTML, like Gecko) Chrome/85.0.4183.83 Safari/537.36",3,"[0.9, 0.5, 0.1]","[0.8, 0.4, 0.2]","[u'black', u'blue', u'red']","[u'left', u'middle', u'right']","[0.9, 0.5, 0.1]","[u'low', u'high', u'medium']","red",51,"right","medium","False","False",584,0,NA
"A1I72NHC21347A","Tue Sep 15 2020 13:18:11 GMT-0400 (Eastern Daylight Time)","Tue Sep 15 2020 13:25:43 GMT-0400 (Eastern Daylight Time)","Mozilla/5.0 (Windows NT 10.0; Win64; x64) AppleWebKit/537.36 (KHTML, like Gecko) Chrome/85.0.4183.83 Safari/537.36",4,"[0.9, 0.5, 0.1]","[0.8, 0.4, 0.2]","[u'black', u'blue', u'red']","[u'left', u'middle', u'right']","[0.9, 0.5, 0.1]","[u'low', u'high', u'medium']","blue",50,"middle","high","True","False",522,100,NA
"A1I72NHC21347A","Tue Sep 15 2020 13:18:11 GMT-0400 (Eastern Daylight Time)","Tue Sep 15 2020 13:25:43 GMT-0400 (Eastern Daylight Time)","Mozilla/5.0 (Windows NT 10.0; Win64; x64) AppleWebKit/537.36 (KHTML, like Gecko) Chrome/85.0.4183.83 Safari/537.36",5,"[0.9, 0.5, 0.1]","[0.8, 0.4, 0.2]","[u'black', u'blue', u'red']","[u'left', u'middle', u'right']","[0.9, 0.5, 0.1]","[u'low', u'high', u'medium']","blue",50,"middle","high","True","False",460,200,NA
"A1I72NHC21347A","Tue Sep 15 2020 13:18:11 GMT-0400 (Eastern Daylight Time)","Tue Sep 15 2020 13:25:43 GMT-0400 (Eastern Daylight Time)","Mozilla/5.0 (Windows NT 10.0; Win64; x64) AppleWebKit/537.36 (KHTML, like Gecko) Chrome/85.0.4183.83 Safari/537.36",6,"[0.9, 0.5, 0.1]","[0.8, 0.4, 0.2]","[u'black', u'blue', u'red']","[u'left', u'middle', u'right']","[0.9, 0.5, 0.1]","[u'low', u'high', u'medium']","blue",50,"middle","high","True","False",698,300,NA
"A1I72NHC21347A","Tue Sep 15 2020 13:18:11 GMT-0400 (Eastern Daylight Time)","Tue Sep 15 2020 13:25:43 GMT-0400 (Eastern Daylight Time)","Mozilla/5.0 (Windows NT 10.0; Win64; x64) AppleWebKit/537.36 (KHTML, like Gecko) Chrome/85.0.4183.83 Safari/537.36",7,"[0.9, 0.5, 0.1]","[0.8, 0.4, 0.2]","[u'black', u'blue', u'red']","[u'left', u'middle', u'right']","[0.9, 0.5, 0.1]","[u'low', u'high', u'medium']","blue",50,"middle","high","True","False",418,400,NA
"A1I72NHC21347A","Tue Sep 15 2020 13:18:11 GMT-0400 (Eastern Daylight Time)","Tue Sep 15 2020 13:25:43 GMT-0400 (Eastern Daylight Time)","Mozilla/5.0 (Windows NT 10.0; Win64; x64) AppleWebKit/537.36 (KHTML, like Gecko) Chrome/85.0.4183.83 Safari/537.36",8,"[0.9, 0.5, 0.1]","[0.8, 0.4, 0.2]","[u'black', u'blue', u'red']","[u'left', u'middle', u'right']","[0.9, 0.5, 0.1]","[u'low', u'high', u'medium']","blue",50,"middle","high","True","False",431,500,NA
"A1I72NHC21347A","Tue Sep 15 2020 13:18:11 GMT-0400 (Eastern Daylight Time)","Tue Sep 15 2020 13:25:43 GMT-0400 (Eastern Daylight Time)","Mozilla/5.0 (Windows NT 10.0; Win64; x64) AppleWebKit/537.36 (KHTML, like Gecko) Chrome/85.0.4183.83 Safari/537.36",9,"[0.9, 0.5, 0.1]","[0.8, 0.4, 0.2]","[u'black', u'blue', u'red']","[u'left', u'middle', u'right']","[0.9, 0.5, 0.1]","[u'low', u'high', u'medium']","blue",50,"middle","high","True","False",411,600,NA
"A1I72NHC21347A","Tue Sep 15 2020 13:18:11 GMT-0400 (Eastern Daylight Time)","Tue Sep 15 2020 13:25:43 GMT-0400 (Eastern Daylight Time)","Mozilla/5.0 (Windows NT 10.0; Win64; x64) AppleWebKit/537.36 (KHTML, like Gecko) Chrome/85.0.4183.83 Safari/537.36",10,"[0.9, 0.5, 0.1]","[0.8, 0.4, 0.2]","[u'black', u'blue', u'red']","[u'left', u'middle', u'right']","[0.9, 0.5, 0.1]","[u'low', u'high', u'medium']","blue",50,"middle","high","True","False",919,700,NA
"A1I72NHC21347A","Tue Sep 15 2020 13:18:11 GMT-0400 (Eastern Daylight Time)","Tue Sep 15 2020 13:25:43 GMT-0400 (Eastern Daylight Time)","Mozilla/5.0 (Windows NT 10.0; Win64; x64) AppleWebKit/537.36 (KHTML, like Gecko) Chrome/85.0.4183.83 Safari/537.36",11,"[0.9, 0.5, 0.1]","[0.8, 0.4, 0.2]","[u'black', u'blue', u'red']","[u'left', u'middle', u'right']","[0.9, 0.5, 0.1]","[u'low', u'high', u'medium']","blue",50,"middle","high","True","True",532,800,NA
"A1I72NHC21347A","Tue Sep 15 2020 13:18:11 GMT-0400 (Eastern Daylight Time)","Tue Sep 15 2020 13:25:43 GMT-0400 (Eastern Daylight Time)","Mozilla/5.0 (Windows NT 10.0; Win64; x64) AppleWebKit/537.36 (KHTML, like Gecko) Chrome/85.0.4183.83 Safari/537.36",12,"[0.9, 0.5, 0.1]","[0.8, 0.4, 0.2]","[u'black', u'blue', u'red']","[u'left', u'middle', u'right']","[0.9, 0.5, 0.1]","[u'medium', u'low', u'high']","blue",50,"middle","low","False","False",476,750,NA
"A1I72NHC21347A","Tue Sep 15 2020 13:18:11 GMT-0400 (Eastern Daylight Time)","Tue Sep 15 2020 13:25:43 GMT-0400 (Eastern Daylight Time)","Mozilla/5.0 (Windows NT 10.0; Win64; x64) AppleWebKit/537.36 (KHTML, like Gecko) Chrome/85.0.4183.83 Safari/537.36",13,"[0.9, 0.5, 0.1]","[0.8, 0.4, 0.2]","[u'black', u'blue', u'red']","[u'left', u'middle', u'right']","[0.9, 0.5, 0.1]","[u'medium', u'low', u'high']","black",49,"left","medium","True","False",397,850,NA
"A1I72NHC21347A","Tue Sep 15 2020 13:18:11 GMT-0400 (Eastern Daylight Time)","Tue Sep 15 2020 13:25:43 GMT-0400 (Eastern Daylight Time)","Mozilla/5.0 (Windows NT 10.0; Win64; x64) AppleWebKit/537.36 (KHTML, like Gecko) Chrome/85.0.4183.83 Safari/537.36",14,"[0.9, 0.5, 0.1]","[0.8, 0.4, 0.2]","[u'black', u'blue', u'red']","[u'left', u'middle', u'right']","[0.9, 0.5, 0.1]","[u'medium', u'low', u'high']","black",49,"left","medium","False","False",352,800,NA
"A1I72NHC21347A","Tue Sep 15 2020 13:18:11 GMT-0400 (Eastern Daylight Time)","Tue Sep 15 2020 13:25:43 GMT-0400 (Eastern Daylight Time)","Mozilla/5.0 (Windows NT 10.0; Win64; x64) AppleWebKit/537.36 (KHTML, like Gecko) Chrome/85.0.4183.83 Safari/537.36",15,"[0.9, 0.5, 0.1]","[0.8, 0.4, 0.2]","[u'black', u'blue', u'red']","[u'left', u'middle', u'right']","[0.9, 0.5, 0.1]","[u'medium', u'low', u'high']","red",51,"right","high","True","False",1057,900,NA
"A1I72NHC21347A","Tue Sep 15 2020 13:18:11 GMT-0400 (Eastern Daylight Time)","Tue Sep 15 2020 13:25:43 GMT-0400 (Eastern Daylight Time)","Mozilla/5.0 (Windows NT 10.0; Win64; x64) AppleWebKit/537.36 (KHTML, like Gecko) Chrome/85.0.4183.83 Safari/537.36",16,"[0.9, 0.5, 0.1]","[0.8, 0.4, 0.2]","[u'black', u'blue', u'red']","[u'left', u'middle', u'right']","[0.9, 0.5, 0.1]","[u'medium', u'low', u'high']","red",51,"right","high","True","False",480,1000,NA
"A1I72NHC21347A","Tue Sep 15 2020 13:18:11 GMT-0400 (Eastern Daylight Time)","Tue Sep 15 2020 13:25:43 GMT-0400 (Eastern Daylight Time)","Mozilla/5.0 (Windows NT 10.0; Win64; x64) AppleWebKit/537.36 (KHTML, like Gecko) Chrome/85.0.4183.83 Safari/537.36",17,"[0.9, 0.5, 0.1]","[0.8, 0.4, 0.2]","[u'black', u'blue', u'red']","[u'left', u'middle', u'right']","[0.9, 0.5, 0.1]","[u'medium', u'low', u'high']","red",51,"right","high","True","False",503,1100,NA
"A1I72NHC21347A","Tue Sep 15 2020 13:18:11 GMT-0400 (Eastern Daylight Time)","Tue Sep 15 2020 13:25:43 GMT-0400 (Eastern Daylight Time)","Mozilla/5.0 (Windows NT 10.0; Win64; x64) AppleWebKit/537.36 (KHTML, like Gecko) Chrome/85.0.4183.83 Safari/537.36",18,"[0.9, 0.5, 0.1]","[0.8, 0.4, 0.2]","[u'black', u'blue', u'red']","[u'left', u'middle', u'right']","[0.9, 0.5, 0.1]","[u'medium', u'low', u'high']","red",51,"right","high","True","False",476,1200,NA
"A1I72NHC21347A","Tue Sep 15 2020 13:18:11 GMT-0400 (Eastern Daylight Time)","Tue Sep 15 2020 13:25:43 GMT-0400 (Eastern Daylight Time)","Mozilla/5.0 (Windows NT 10.0; Win64; x64) AppleWebKit/537.36 (KHTML, like Gecko) Chrome/85.0.4183.83 Safari/537.36",19,"[0.9, 0.5, 0.1]","[0.8, 0.4, 0.2]","[u'black', u'blue', u'red']","[u'left', u'middle', u'right']","[0.9, 0.5, 0.1]","[u'medium', u'low', u'high']","red",51,"right","high","True","False",443,1300,NA
"A1I72NHC21347A","Tue Sep 15 2020 13:18:11 GMT-0400 (Eastern Daylight Time)","Tue Sep 15 2020 13:25:43 GMT-0400 (Eastern Daylight Time)","Mozilla/5.0 (Windows NT 10.0; Win64; x64) AppleWebKit/537.36 (KHTML, like Gecko) Chrome/85.0.4183.83 Safari/537.36",20,"[0.9, 0.5, 0.1]","[0.8, 0.4, 0.2]","[u'black', u'blue', u'red']","[u'left', u'middle', u'right']","[0.9, 0.5, 0.1]","[u'medium', u'low', u'high']","red",51,"right","high","True","False",524,1400,NA
"A1I72NHC21347A","Tue Sep 15 2020 13:18:11 GMT-0400 (Eastern Daylight Time)","Tue Sep 15 2020 13:25:43 GMT-0400 (Eastern Daylight Time)","Mozilla/5.0 (Windows NT 10.0; Win64; x64) AppleWebKit/537.36 (KHTML, like Gecko) Chrome/85.0.4183.83 Safari/537.36",21,"[0.9, 0.5, 0.1]","[0.8, 0.4, 0.2]","[u'black', u'blue', u'red']","[u'left', u'middle', u'right']","[0.9, 0.5, 0.1]","[u'medium', u'low', u'high']","red",51,"right","high","False","False",547,1350,NA
"A1I72NHC21347A","Tue Sep 15 2020 13:18:11 GMT-0400 (Eastern Daylight Time)","Tue Sep 15 2020 13:25:43 GMT-0400 (Eastern Daylight Time)","Mozilla/5.0 (Windows NT 10.0; Win64; x64) AppleWebKit/537.36 (KHTML, like Gecko) Chrome/85.0.4183.83 Safari/537.36",22,"[0.9, 0.5, 0.1]","[0.8, 0.4, 0.2]","[u'black', u'blue', u'red']","[u'left', u'middle', u'right']","[0.9, 0.5, 0.1]","[u'medium', u'low', u'high']","blue",50,"middle","low","False","False",400,1300,NA
"A1I72NHC21347A","Tue Sep 15 2020 13:18:11 GMT-0400 (Eastern Daylight Time)","Tue Sep 15 2020 13:25:43 GMT-0400 (Eastern Daylight Time)","Mozilla/5.0 (Windows NT 10.0; Win64; x64) AppleWebKit/537.36 (KHTML, like Gecko) Chrome/85.0.4183.83 Safari/537.36",23,"[0.9, 0.5, 0.1]","[0.8, 0.4, 0.2]","[u'black', u'blue', u'red']","[u'left', u'middle', u'right']","[0.9, 0.5, 0.1]","[u'medium', u'low', u'high']","black",49,"left","medium","False","False",368,1250,NA
"A1I72NHC21347A","Tue Sep 15 2020 13:18:11 GMT-0400 (Eastern Daylight Time)","Tue Sep 15 2020 13:25:43 GMT-0400 (Eastern Daylight Time)","Mozilla/5.0 (Windows NT 10.0; Win64; x64) AppleWebKit/537.36 (KHTML, like Gecko) Chrome/85.0.4183.83 Safari/537.36",24,"[0.9, 0.5, 0.1]","[0.8, 0.4, 0.2]","[u'black', u'blue', u'red']","[u'left', u'middle', u'right']","[0.9, 0.5, 0.1]","[u'medium', u'low', u'high']","black",49,"left","medium","False","False",517,1200,NA
"A1I72NHC21347A","Tue Sep 15 2020 13:18:11 GMT-0400 (Eastern Daylight Time)","Tue Sep 15 2020 13:25:43 GMT-0400 (Eastern Daylight Time)","Mozilla/5.0 (Windows NT 10.0; Win64; x64) AppleWebKit/537.36 (KHTML, like Gecko) Chrome/85.0.4183.83 Safari/537.36",25,"[0.9, 0.5, 0.1]","[0.8, 0.4, 0.2]","[u'black', u'blue', u'red']","[u'left', u'middle', u'right']","[0.9, 0.5, 0.1]","[u'medium', u'low', u'high']","blue",50,"middle","low","False","False",335,1150,NA
"A1I72NHC21347A","Tue Sep 15 2020 13:18:11 GMT-0400 (Eastern Daylight Time)","Tue Sep 15 2020 13:25:43 GMT-0400 (Eastern Daylight Time)","Mozilla/5.0 (Windows NT 10.0; Win64; x64) AppleWebKit/537.36 (KHTML, like Gecko) Chrome/85.0.4183.83 Safari/537.36",26,"[0.9, 0.5, 0.1]","[0.8, 0.4, 0.2]","[u'black', u'blue', u'red']","[u'left', u'middle', u'right']","[0.9, 0.5, 0.1]","[u'medium', u'low', u'high']","red",51,"right","high","True","False",346,1250,NA
"A1I72NHC21347A","Tue Sep 15 2020 13:18:11 GMT-0400 (Eastern Daylight Time)","Tue Sep 15 2020 13:25:43 GMT-0400 (Eastern Daylight Time)","Mozilla/5.0 (Windows NT 10.0; Win64; x64) AppleWebKit/537.36 (KHTML, like Gecko) Chrome/85.0.4183.83 Safari/537.36",27,"[0.9, 0.5, 0.1]","[0.8, 0.4, 0.2]","[u'black', u'blue', u'red']","[u'left', u'middle', u'right']","[0.9, 0.5, 0.1]","[u'medium', u'low', u'high']","red",51,"right","high","True","False",264,1350,NA
"A1I72NHC21347A","Tue Sep 15 2020 13:18:11 GMT-0400 (Eastern Daylight Time)","Tue Sep 15 2020 13:25:43 GMT-0400 (Eastern Daylight Time)","Mozilla/5.0 (Windows NT 10.0; Win64; x64) AppleWebKit/537.36 (KHTML, like Gecko) Chrome/85.0.4183.83 Safari/537.36",28,"[0.9, 0.5, 0.1]","[0.8, 0.4, 0.2]","[u'black', u'blue', u'red']","[u'left', u'middle', u'right']","[0.9, 0.5, 0.1]","[u'medium', u'low', u'high']","red",51,"right","high","False","False",222,1300,NA
"A1I72NHC21347A","Tue Sep 15 2020 13:18:11 GMT-0400 (Eastern Daylight Time)","Tue Sep 15 2020 13:25:43 GMT-0400 (Eastern Daylight Time)","Mozilla/5.0 (Windows NT 10.0; Win64; x64) AppleWebKit/537.36 (KHTML, like Gecko) Chrome/85.0.4183.83 Safari/537.36",29,"[0.9, 0.5, 0.1]","[0.8, 0.4, 0.2]","[u'black', u'blue', u'red']","[u'left', u'middle', u'right']","[0.9, 0.5, 0.1]","[u'medium', u'low', u'high']","red",51,"right","high","True","False",113,1400,NA
"A1I72NHC21347A","Tue Sep 15 2020 13:18:11 GMT-0400 (Eastern Daylight Time)","Tue Sep 15 2020 13:25:43 GMT-0400 (Eastern Daylight Time)","Mozilla/5.0 (Windows NT 10.0; Win64; x64) AppleWebKit/537.36 (KHTML, like Gecko) Chrome/85.0.4183.83 Safari/537.36",30,"[0.9, 0.5, 0.1]","[0.8, 0.4, 0.2]","[u'black', u'blue', u'red']","[u'left', u'middle', u'right']","[0.9, 0.5, 0.1]","[u'medium', u'low', u'high']","red",51,"right","high","True","False",330,1500,NA
"A1I72NHC21347A","Tue Sep 15 2020 13:18:11 GMT-0400 (Eastern Daylight Time)","Tue Sep 15 2020 13:25:43 GMT-0400 (Eastern Daylight Time)","Mozilla/5.0 (Windows NT 10.0; Win64; x64) AppleWebKit/537.36 (KHTML, like Gecko) Chrome/85.0.4183.83 Safari/537.36",31,"[0.9, 0.5, 0.1]","[0.8, 0.4, 0.2]","[u'black', u'blue', u'red']","[u'left', u'middle', u'right']","[0.9, 0.5, 0.1]","[u'medium', u'low', u'high']","red",51,"right","high","True","False",276,1600,NA
"A1I72NHC21347A","Tue Sep 15 2020 13:18:11 GMT-0400 (Eastern Daylight Time)","Tue Sep 15 2020 13:25:43 GMT-0400 (Eastern Daylight Time)","Mozilla/5.0 (Windows NT 10.0; Win64; x64) AppleWebKit/537.36 (KHTML, like Gecko) Chrome/85.0.4183.83 Safari/537.36",32,"[0.9, 0.5, 0.1]","[0.8, 0.4, 0.2]","[u'black', u'blue', u'red']","[u'left', u'middle', u'right']","[0.9, 0.5, 0.1]","[u'medium', u'low', u'high']","red",51,"right","high","False","False",458,1550,NA
"A1I72NHC21347A","Tue Sep 15 2020 13:18:11 GMT-0400 (Eastern Daylight Time)","Tue Sep 15 2020 13:25:43 GMT-0400 (Eastern Daylight Time)","Mozilla/5.0 (Windows NT 10.0; Win64; x64) AppleWebKit/537.36 (KHTML, like Gecko) Chrome/85.0.4183.83 Safari/537.36",33,"[0.9, 0.5, 0.1]","[0.8, 0.4, 0.2]","[u'black', u'blue', u'red']","[u'left', u'middle', u'right']","[0.9, 0.5, 0.1]","[u'medium', u'low', u'high']","red",51,"right","high","True","False",241,1650,NA
"A1I72NHC21347A","Tue Sep 15 2020 13:18:11 GMT-0400 (Eastern Daylight Time)","Tue Sep 15 2020 13:25:43 GMT-0400 (Eastern Daylight Time)","Mozilla/5.0 (Windows NT 10.0; Win64; x64) AppleWebKit/537.36 (KHTML, like Gecko) Chrome/85.0.4183.83 Safari/537.36",34,"[0.9, 0.5, 0.1]","[0.8, 0.4, 0.2]","[u'black', u'blue', u'red']","[u'left', u'middle', u'right']","[0.9, 0.5, 0.1]","[u'medium', u'low', u'high']","red",51,"right","high","True","True",380,1750,NA
"A1I72NHC21347A","Tue Sep 15 2020 13:18:11 GMT-0400 (Eastern Daylight Time)","Tue Sep 15 2020 13:25:43 GMT-0400 (Eastern Daylight Time)","Mozilla/5.0 (Windows NT 10.0; Win64; x64) AppleWebKit/537.36 (KHTML, like Gecko) Chrome/85.0.4183.83 Safari/537.36",35,"[0.9, 0.5, 0.1]","[0.8, 0.4, 0.2]","[u'black', u'blue', u'red']","[u'left', u'middle', u'right']","[0.9, 0.5, 0.1]","[u'high', u'low', u'medium']","red",51,"right","medium","False","False",181,1700,NA
"A1I72NHC21347A","Tue Sep 15 2020 13:18:11 GMT-0400 (Eastern Daylight Time)","Tue Sep 15 2020 13:25:43 GMT-0400 (Eastern Daylight Time)","Mozilla/5.0 (Windows NT 10.0; Win64; x64) AppleWebKit/537.36 (KHTML, like Gecko) Chrome/85.0.4183.83 Safari/537.36",36,"[0.9, 0.5, 0.1]","[0.8, 0.4, 0.2]","[u'black', u'blue', u'red']","[u'left', u'middle', u'right']","[0.9, 0.5, 0.1]","[u'high', u'low', u'medium']","red",51,"right","medium","True","False",274,1800,NA
"A1I72NHC21347A","Tue Sep 15 2020 13:18:11 GMT-0400 (Eastern Daylight Time)","Tue Sep 15 2020 13:25:43 GMT-0400 (Eastern Daylight Time)","Mozilla/5.0 (Windows NT 10.0; Win64; x64) AppleWebKit/537.36 (KHTML, like Gecko) Chrome/85.0.4183.83 Safari/537.36",37,"[0.9, 0.5, 0.1]","[0.8, 0.4, 0.2]","[u'black', u'blue', u'red']","[u'left', u'middle', u'right']","[0.9, 0.5, 0.1]","[u'high', u'low', u'medium']","red",51,"right","medium","False","False",394,1750,NA
"A1I72NHC21347A","Tue Sep 15 2020 13:18:11 GMT-0400 (Eastern Daylight Time)","Tue Sep 15 2020 13:25:43 GMT-0400 (Eastern Daylight Time)","Mozilla/5.0 (Windows NT 10.0; Win64; x64) AppleWebKit/537.36 (KHTML, like Gecko) Chrome/85.0.4183.83 Safari/537.36",38,"[0.9, 0.5, 0.1]","[0.8, 0.4, 0.2]","[u'black', u'blue', u'red']","[u'left', u'middle', u'right']","[0.9, 0.5, 0.1]","[u'high', u'low', u'medium']","red",51,"right","medium","True","False",230,1850,NA
"A1I72NHC21347A","Tue Sep 15 2020 13:18:11 GMT-0400 (Eastern Daylight Time)","Tue Sep 15 2020 13:25:43 GMT-0400 (Eastern Daylight Time)","Mozilla/5.0 (Windows NT 10.0; Win64; x64) AppleWebKit/537.36 (KHTML, like Gecko) Chrome/85.0.4183.83 Safari/537.36",39,"[0.9, 0.5, 0.1]","[0.8, 0.4, 0.2]","[u'black', u'blue', u'red']","[u'left', u'middle', u'right']","[0.9, 0.5, 0.1]","[u'high', u'low', u'medium']","red",51,"right","medium","True","False",357,1950,NA
"A1I72NHC21347A","Tue Sep 15 2020 13:18:11 GMT-0400 (Eastern Daylight Time)","Tue Sep 15 2020 13:25:43 GMT-0400 (Eastern Daylight Time)","Mozilla/5.0 (Windows NT 10.0; Win64; x64) AppleWebKit/537.36 (KHTML, like Gecko) Chrome/85.0.4183.83 Safari/537.36",40,"[0.9, 0.5, 0.1]","[0.8, 0.4, 0.2]","[u'black', u'blue', u'red']","[u'left', u'middle', u'right']","[0.9, 0.5, 0.1]","[u'high', u'low', u'medium']","black",49,"left","high","True","False",286,2050,NA
"A1I72NHC21347A","Tue Sep 15 2020 13:18:11 GMT-0400 (Eastern Daylight Time)","Tue Sep 15 2020 13:25:43 GMT-0400 (Eastern Daylight Time)","Mozilla/5.0 (Windows NT 10.0; Win64; x64) AppleWebKit/537.36 (KHTML, like Gecko) Chrome/85.0.4183.83 Safari/537.36",41,"[0.9, 0.5, 0.1]","[0.8, 0.4, 0.2]","[u'black', u'blue', u'red']","[u'left', u'middle', u'right']","[0.9, 0.5, 0.1]","[u'low', u'medium', u'high']","red",51,"right","high","True","False",1071,2150,NA
"A1I72NHC21347A","Tue Sep 15 2020 13:18:11 GMT-0400 (Eastern Daylight Time)","Tue Sep 15 2020 13:25:43 GMT-0400 (Eastern Daylight Time)","Mozilla/5.0 (Windows NT 10.0; Win64; x64) AppleWebKit/537.36 (KHTML, like Gecko) Chrome/85.0.4183.83 Safari/537.36",42,"[0.9, 0.5, 0.1]","[0.8, 0.4, 0.2]","[u'black', u'blue', u'red']","[u'left', u'middle', u'right']","[0.9, 0.5, 0.1]","[u'low', u'medium', u'high']","red",51,"right","high","True","False",391,2250,NA
"A1I72NHC21347A","Tue Sep 15 2020 13:18:11 GMT-0400 (Eastern Daylight Time)","Tue Sep 15 2020 13:25:43 GMT-0400 (Eastern Daylight Time)","Mozilla/5.0 (Windows NT 10.0; Win64; x64) AppleWebKit/537.36 (KHTML, like Gecko) Chrome/85.0.4183.83 Safari/537.36",43,"[0.9, 0.5, 0.1]","[0.8, 0.4, 0.2]","[u'black', u'blue', u'red']","[u'left', u'middle', u'right']","[0.9, 0.5, 0.1]","[u'low', u'medium', u'high']","black",49,"left","low","False","False",294,2200,NA
"A1I72NHC21347A","Tue Sep 15 2020 13:18:11 GMT-0400 (Eastern Daylight Time)","Tue Sep 15 2020 13:25:43 GMT-0400 (Eastern Daylight Time)","Mozilla/5.0 (Windows NT 10.0; Win64; x64) AppleWebKit/537.36 (KHTML, like Gecko) Chrome/85.0.4183.83 Safari/537.36",44,"[0.9, 0.5, 0.1]","[0.8, 0.4, 0.2]","[u'black', u'blue', u'red']","[u'left', u'middle', u'right']","[0.9, 0.5, 0.1]","[u'low', u'medium', u'high']","red",51,"right","high","False","False",291,2150,NA
"A1I72NHC21347A","Tue Sep 15 2020 13:18:11 GMT-0400 (Eastern Daylight Time)","Tue Sep 15 2020 13:25:43 GMT-0400 (Eastern Daylight Time)","Mozilla/5.0 (Windows NT 10.0; Win64; x64) AppleWebKit/537.36 (KHTML, like Gecko) Chrome/85.0.4183.83 Safari/537.36",45,"[0.9, 0.5, 0.1]","[0.8, 0.4, 0.2]","[u'black', u'blue', u'red']","[u'left', u'middle', u'right']","[0.9, 0.5, 0.1]","[u'low', u'medium', u'high']","blue",50,"middle","medium","False","False",305,2100,NA
"A1I72NHC21347A","Tue Sep 15 2020 13:18:11 GMT-0400 (Eastern Daylight Time)","Tue Sep 15 2020 13:25:43 GMT-0400 (Eastern Daylight Time)","Mozilla/5.0 (Windows NT 10.0; Win64; x64) AppleWebKit/537.36 (KHTML, like Gecko) Chrome/85.0.4183.83 Safari/537.36",46,"[0.9, 0.5, 0.1]","[0.8, 0.4, 0.2]","[u'black', u'blue', u'red']","[u'left', u'middle', u'right']","[0.9, 0.5, 0.1]","[u'low', u'medium', u'high']","red",51,"right","high","True","False",737,2200,NA
"A1I72NHC21347A","Tue Sep 15 2020 13:18:11 GMT-0400 (Eastern Daylight Time)","Tue Sep 15 2020 13:25:43 GMT-0400 (Eastern Daylight Time)","Mozilla/5.0 (Windows NT 10.0; Win64; x64) AppleWebKit/537.36 (KHTML, like Gecko) Chrome/85.0.4183.83 Safari/537.36",47,"[0.9, 0.5, 0.1]","[0.8, 0.4, 0.2]","[u'black', u'blue', u'red']","[u'left', u'middle', u'right']","[0.9, 0.5, 0.1]","[u'low', u'medium', u'high']","red",51,"right","high","True","False",314,2300,NA
"A1I72NHC21347A","Tue Sep 15 2020 13:18:11 GMT-0400 (Eastern Daylight Time)","Tue Sep 15 2020 13:25:43 GMT-0400 (Eastern Daylight Time)","Mozilla/5.0 (Windows NT 10.0; Win64; x64) AppleWebKit/537.36 (KHTML, like Gecko) Chrome/85.0.4183.83 Safari/537.36",48,"[0.9, 0.5, 0.1]","[0.8, 0.4, 0.2]","[u'black', u'blue', u'red']","[u'left', u'middle', u'right']","[0.9, 0.5, 0.1]","[u'low', u'medium', u'high']","red",51,"right","high","True","False",306,2400,NA
"A1I72NHC21347A","Tue Sep 15 2020 13:18:11 GMT-0400 (Eastern Daylight Time)","Tue Sep 15 2020 13:25:43 GMT-0400 (Eastern Daylight Time)","Mozilla/5.0 (Windows NT 10.0; Win64; x64) AppleWebKit/537.36 (KHTML, like Gecko) Chrome/85.0.4183.83 Safari/537.36",49,"[0.9, 0.5, 0.1]","[0.8, 0.4, 0.2]","[u'black', u'blue', u'red']","[u'left', u'middle', u'right']","[0.9, 0.5, 0.1]","[u'low', u'medium', u'high']","red",51,"right","high","True","False",400,2500,NA
"A1I72NHC21347A","Tue Sep 15 2020 13:18:11 GMT-0400 (Eastern Daylight Time)","Tue Sep 15 2020 13:25:43 GMT-0400 (Eastern Daylight Time)","Mozilla/5.0 (Windows NT 10.0; Win64; x64) AppleWebKit/537.36 (KHTML, like Gecko) Chrome/85.0.4183.83 Safari/537.36",50,"[0.9, 0.5, 0.1]","[0.8, 0.4, 0.2]","[u'black', u'blue', u'red']","[u'left', u'middle', u'right']","[0.9, 0.5, 0.1]","[u'low', u'medium', u'high']","red",51,"right","high","True","False",345,2600,NA
"A1I72NHC21347A","Tue Sep 15 2020 13:18:11 GMT-0400 (Eastern Daylight Time)","Tue Sep 15 2020 13:25:43 GMT-0400 (Eastern Daylight Time)","Mozilla/5.0 (Windows NT 10.0; Win64; x64) AppleWebKit/537.36 (KHTML, like Gecko) Chrome/85.0.4183.83 Safari/537.36",51,"[0.9, 0.5, 0.1]","[0.8, 0.4, 0.2]","[u'black', u'blue', u'red']","[u'left', u'middle', u'right']","[0.9, 0.5, 0.1]","[u'low', u'medium', u'high']","red",51,"right","high","True","False",515,2700,NA
"A1I72NHC21347A","Tue Sep 15 2020 13:18:11 GMT-0400 (Eastern Daylight Time)","Tue Sep 15 2020 13:25:43 GMT-0400 (Eastern Daylight Time)","Mozilla/5.0 (Windows NT 10.0; Win64; x64) AppleWebKit/537.36 (KHTML, like Gecko) Chrome/85.0.4183.83 Safari/537.36",52,"[0.9, 0.5, 0.1]","[0.8, 0.4, 0.2]","[u'black', u'blue', u'red']","[u'left', u'middle', u'right']","[0.9, 0.5, 0.1]","[u'low', u'medium', u'high']","red",51,"right","high","True","False",382,2800,NA
"A1I72NHC21347A","Tue Sep 15 2020 13:18:11 GMT-0400 (Eastern Daylight Time)","Tue Sep 15 2020 13:25:43 GMT-0400 (Eastern Daylight Time)","Mozilla/5.0 (Windows NT 10.0; Win64; x64) AppleWebKit/537.36 (KHTML, like Gecko) Chrome/85.0.4183.83 Safari/537.36",53,"[0.9, 0.5, 0.1]","[0.8, 0.4, 0.2]","[u'black', u'blue', u'red']","[u'left', u'middle', u'right']","[0.9, 0.5, 0.1]","[u'low', u'medium', u'high']","red",51,"right","high","True","False",789,2900,NA
"A1I72NHC21347A","Tue Sep 15 2020 13:18:11 GMT-0400 (Eastern Daylight Time)","Tue Sep 15 2020 13:25:43 GMT-0400 (Eastern Daylight Time)","Mozilla/5.0 (Windows NT 10.0; Win64; x64) AppleWebKit/537.36 (KHTML, like Gecko) Chrome/85.0.4183.83 Safari/537.36",54,"[0.9, 0.5, 0.1]","[0.8, 0.4, 0.2]","[u'black', u'blue', u'red']","[u'left', u'middle', u'right']","[0.9, 0.5, 0.1]","[u'low', u'medium', u'high']","red",51,"right","high","True","True",264,3000,NA
"A1I72NHC21347A","Tue Sep 15 2020 13:18:11 GMT-0400 (Eastern Daylight Time)","Tue Sep 15 2020 13:25:43 GMT-0400 (Eastern Daylight Time)","Mozilla/5.0 (Windows NT 10.0; Win64; x64) AppleWebKit/537.36 (KHTML, like Gecko) Chrome/85.0.4183.83 Safari/537.36",55,"[0.9, 0.5, 0.1]","[0.8, 0.4, 0.2]","[u'black', u'blue', u'red']","[u'left', u'middle', u'right']","[0.9, 0.5, 0.1]","[u'medium', u'high', u'low']","red",51,"right","low","False","False",414,2950,NA
"A1I72NHC21347A","Tue Sep 15 2020 13:18:11 GMT-0400 (Eastern Daylight Time)","Tue Sep 15 2020 13:25:43 GMT-0400 (Eastern Daylight Time)","Mozilla/5.0 (Windows NT 10.0; Win64; x64) AppleWebKit/537.36 (KHTML, like Gecko) Chrome/85.0.4183.83 Safari/537.36",56,"[0.9, 0.5, 0.1]","[0.8, 0.4, 0.2]","[u'black', u'blue', u'red']","[u'left', u'middle', u'right']","[0.9, 0.5, 0.1]","[u'medium', u'high', u'low']","blue",50,"middle","high","True","False",308,3050,NA
"A1I72NHC21347A","Tue Sep 15 2020 13:18:11 GMT-0400 (Eastern Daylight Time)","Tue Sep 15 2020 13:25:43 GMT-0400 (Eastern Daylight Time)","Mozilla/5.0 (Windows NT 10.0; Win64; x64) AppleWebKit/537.36 (KHTML, like Gecko) Chrome/85.0.4183.83 Safari/537.36",57,"[0.9, 0.5, 0.1]","[0.8, 0.4, 0.2]","[u'black', u'blue', u'red']","[u'left', u'middle', u'right']","[0.9, 0.5, 0.1]","[u'medium', u'high', u'low']","red",51,"right","low","False","False",287,3000,NA
"A1I72NHC21347A","Tue Sep 15 2020 13:18:11 GMT-0400 (Eastern Daylight Time)","Tue Sep 15 2020 13:25:43 GMT-0400 (Eastern Daylight Time)","Mozilla/5.0 (Windows NT 10.0; Win64; x64) AppleWebKit/537.36 (KHTML, like Gecko) Chrome/85.0.4183.83 Safari/537.36",58,"[0.9, 0.5, 0.1]","[0.8, 0.4, 0.2]","[u'black', u'blue', u'red']","[u'left', u'middle', u'right']","[0.9, 0.5, 0.1]","[u'medium', u'high', u'low']","blue",50,"middle","high","True","False",111,3100,NA
"A1I72NHC21347A","Tue Sep 15 2020 13:18:11 GMT-0400 (Eastern Daylight Time)","Tue Sep 15 2020 13:25:43 GMT-0400 (Eastern Daylight Time)","Mozilla/5.0 (Windows NT 10.0; Win64; x64) AppleWebKit/537.36 (KHTML, like Gecko) Chrome/85.0.4183.83 Safari/537.36",59,"[0.9, 0.5, 0.1]","[0.8, 0.4, 0.2]","[u'black', u'blue', u'red']","[u'left', u'middle', u'right']","[0.9, 0.5, 0.1]","[u'medium', u'high', u'low']","blue",50,"middle","high","True","False",276,3200,NA
"A1I72NHC21347A","Tue Sep 15 2020 13:18:11 GMT-0400 (Eastern Daylight Time)","Tue Sep 15 2020 13:25:43 GMT-0400 (Eastern Daylight Time)","Mozilla/5.0 (Windows NT 10.0; Win64; x64) AppleWebKit/537.36 (KHTML, like Gecko) Chrome/85.0.4183.83 Safari/537.36",60,"[0.9, 0.5, 0.1]","[0.8, 0.4, 0.2]","[u'black', u'blue', u'red']","[u'left', u'middle', u'right']","[0.9, 0.5, 0.1]","[u'medium', u'high', u'low']","blue",50,"middle","high","True","False",541,3300,NA
"A1I72NHC21347A","Tue Sep 15 2020 13:18:11 GMT-0400 (Eastern Daylight Time)","Tue Sep 15 2020 13:25:43 GMT-0400 (Eastern Daylight Time)","Mozilla/5.0 (Windows NT 10.0; Win64; x64) AppleWebKit/537.36 (KHTML, like Gecko) Chrome/85.0.4183.83 Safari/537.36",61,"[0.9, 0.5, 0.1]","[0.8, 0.4, 0.2]","[u'black', u'blue', u'red']","[u'left', u'middle', u'right']","[0.9, 0.5, 0.1]","[u'medium', u'high', u'low']","blue",50,"middle","high","True","False",459,3400,NA
"A1I72NHC21347A","Tue Sep 15 2020 13:18:11 GMT-0400 (Eastern Daylight Time)","Tue Sep 15 2020 13:25:43 GMT-0400 (Eastern Daylight Time)","Mozilla/5.0 (Windows NT 10.0; Win64; x64) AppleWebKit/537.36 (KHTML, like Gecko) Chrome/85.0.4183.83 Safari/537.36",62,"[0.9, 0.5, 0.1]","[0.8, 0.4, 0.2]","[u'black', u'blue', u'red']","[u'left', u'middle', u'right']","[0.9, 0.5, 0.1]","[u'medium', u'high', u'low']","blue",50,"middle","high","False","False",385,3350,NA
"A1I72NHC21347A","Tue Sep 15 2020 13:18:11 GMT-0400 (Eastern Daylight Time)","Tue Sep 15 2020 13:25:43 GMT-0400 (Eastern Daylight Time)","Mozilla/5.0 (Windows NT 10.0; Win64; x64) AppleWebKit/537.36 (KHTML, like Gecko) Chrome/85.0.4183.83 Safari/537.36",63,"[0.9, 0.5, 0.1]","[0.8, 0.4, 0.2]","[u'black', u'blue', u'red']","[u'left', u'middle', u'right']","[0.9, 0.5, 0.1]","[u'medium', u'high', u'low']","blue",50,"middle","high","True","False",309,3450,NA
"A1I72NHC21347A","Tue Sep 15 2020 13:18:11 GMT-0400 (Eastern Daylight Time)","Tue Sep 15 2020 13:25:43 GMT-0400 (Eastern Daylight Time)","Mozilla/5.0 (Windows NT 10.0; Win64; x64) AppleWebKit/537.36 (KHTML, like Gecko) Chrome/85.0.4183.83 Safari/537.36",64,"[0.9, 0.5, 0.1]","[0.8, 0.4, 0.2]","[u'black', u'blue', u'red']","[u'left', u'middle', u'right']","[0.9, 0.5, 0.1]","[u'medium', u'high', u'low']","blue",50,"middle","high","True","False",329,3550,NA
"A1I72NHC21347A","Tue Sep 15 2020 13:18:11 GMT-0400 (Eastern Daylight Time)","Tue Sep 15 2020 13:25:43 GMT-0400 (Eastern Daylight Time)","Mozilla/5.0 (Windows NT 10.0; Win64; x64) AppleWebKit/537.36 (KHTML, like Gecko) Chrome/85.0.4183.83 Safari/537.36",65,"[0.9, 0.5, 0.1]","[0.8, 0.4, 0.2]","[u'black', u'blue', u'red']","[u'left', u'middle', u'right']","[0.9, 0.5, 0.1]","[u'medium', u'high', u'low']","blue",50,"middle","high","True","True",468,3650,NA
"A1I72NHC21347A","Tue Sep 15 2020 13:18:11 GMT-0400 (Eastern Daylight Time)","Tue Sep 15 2020 13:25:43 GMT-0400 (Eastern Daylight Time)","Mozilla/5.0 (Windows NT 10.0; Win64; x64) AppleWebKit/537.36 (KHTML, like Gecko) Chrome/85.0.4183.83 Safari/537.36",66,"[0.9, 0.5, 0.1]","[0.8, 0.4, 0.2]","[u'black', u'blue', u'red']","[u'left', u'middle', u'right']","[0.9, 0.5, 0.1]","[u'low', u'medium', u'high']","blue",50,"middle","medium","False","False",343,3600,NA
"A1I72NHC21347A","Tue Sep 15 2020 13:18:11 GMT-0400 (Eastern Daylight Time)","Tue Sep 15 2020 13:25:43 GMT-0400 (Eastern Daylight Time)","Mozilla/5.0 (Windows NT 10.0; Win64; x64) AppleWebKit/537.36 (KHTML, like Gecko) Chrome/85.0.4183.83 Safari/537.36",67,"[0.9, 0.5, 0.1]","[0.8, 0.4, 0.2]","[u'black', u'blue', u'red']","[u'left', u'middle', u'right']","[0.9, 0.5, 0.1]","[u'low', u'medium', u'high']","red",51,"right","high","True","False",279,3700,NA
"A1I72NHC21347A","Tue Sep 15 2020 13:18:11 GMT-0400 (Eastern Daylight Time)","Tue Sep 15 2020 13:25:43 GMT-0400 (Eastern Daylight Time)","Mozilla/5.0 (Windows NT 10.0; Win64; x64) AppleWebKit/537.36 (KHTML, like Gecko) Chrome/85.0.4183.83 Safari/537.36",68,"[0.9, 0.5, 0.1]","[0.8, 0.4, 0.2]","[u'black', u'blue', u'red']","[u'left', u'middle', u'right']","[0.9, 0.5, 0.1]","[u'low', u'medium', u'high']","red",51,"right","high","True","False",312,3800,NA
"A1I72NHC21347A","Tue Sep 15 2020 13:18:11 GMT-0400 (Eastern Daylight Time)","Tue Sep 15 2020 13:25:43 GMT-0400 (Eastern Daylight Time)","Mozilla/5.0 (Windows NT 10.0; Win64; x64) AppleWebKit/537.36 (KHTML, like Gecko) Chrome/85.0.4183.83 Safari/537.36",69,"[0.9, 0.5, 0.1]","[0.8, 0.4, 0.2]","[u'black', u'blue', u'red']","[u'left', u'middle', u'right']","[0.9, 0.5, 0.1]","[u'low', u'medium', u'high']","red",51,"right","high","True","False",551,3900,NA
"A1I72NHC21347A","Tue Sep 15 2020 13:18:11 GMT-0400 (Eastern Daylight Time)","Tue Sep 15 2020 13:25:43 GMT-0400 (Eastern Daylight Time)","Mozilla/5.0 (Windows NT 10.0; Win64; x64) AppleWebKit/537.36 (KHTML, like Gecko) Chrome/85.0.4183.83 Safari/537.36",70,"[0.9, 0.5, 0.1]","[0.8, 0.4, 0.2]","[u'black', u'blue', u'red']","[u'left', u'middle', u'right']","[0.9, 0.5, 0.1]","[u'low', u'medium', u'high']","red",51,"right","high","True","False",403,4000,NA
"A1I72NHC21347A","Tue Sep 15 2020 13:18:11 GMT-0400 (Eastern Daylight Time)","Tue Sep 15 2020 13:25:43 GMT-0400 (Eastern Daylight Time)","Mozilla/5.0 (Windows NT 10.0; Win64; x64) AppleWebKit/537.36 (KHTML, like Gecko) Chrome/85.0.4183.83 Safari/537.36",71,"[0.9, 0.5, 0.1]","[0.8, 0.4, 0.2]","[u'black', u'blue', u'red']","[u'left', u'middle', u'right']","[0.9, 0.5, 0.1]","[u'low', u'medium', u'high']","red",51,"right","high","True","False",399,4100,NA
"A1I72NHC21347A","Tue Sep 15 2020 13:18:11 GMT-0400 (Eastern Daylight Time)","Tue Sep 15 2020 13:25:43 GMT-0400 (Eastern Daylight Time)","Mozilla/5.0 (Windows NT 10.0; Win64; x64) AppleWebKit/537.36 (KHTML, like Gecko) Chrome/85.0.4183.83 Safari/537.36",72,"[0.9, 0.5, 0.1]","[0.8, 0.4, 0.2]","[u'black', u'blue', u'red']","[u'left', u'middle', u'right']","[0.9, 0.5, 0.1]","[u'low', u'medium', u'high']","red",51,"right","high","True","False",389,4200,NA
"A1I72NHC21347A","Tue Sep 15 2020 13:18:11 GMT-0400 (Eastern Daylight Time)","Tue Sep 15 2020 13:25:43 GMT-0400 (Eastern Daylight Time)","Mozilla/5.0 (Windows NT 10.0; Win64; x64) AppleWebKit/537.36 (KHTML, like Gecko) Chrome/85.0.4183.83 Safari/537.36",73,"[0.9, 0.5, 0.1]","[0.8, 0.4, 0.2]","[u'black', u'blue', u'red']","[u'left', u'middle', u'right']","[0.9, 0.5, 0.1]","[u'low', u'medium', u'high']","red",51,"right","high","True","False",385,4300,NA
"A1I72NHC21347A","Tue Sep 15 2020 13:18:11 GMT-0400 (Eastern Daylight Time)","Tue Sep 15 2020 13:25:43 GMT-0400 (Eastern Daylight Time)","Mozilla/5.0 (Windows NT 10.0; Win64; x64) AppleWebKit/537.36 (KHTML, like Gecko) Chrome/85.0.4183.83 Safari/537.36",74,"[0.9, 0.5, 0.1]","[0.8, 0.4, 0.2]","[u'black', u'blue', u'red']","[u'left', u'middle', u'right']","[0.9, 0.5, 0.1]","[u'low', u'medium', u'high']","red",51,"right","high","True","False",426,4400,NA
"A1I72NHC21347A","Tue Sep 15 2020 13:18:11 GMT-0400 (Eastern Daylight Time)","Tue Sep 15 2020 13:25:43 GMT-0400 (Eastern Daylight Time)","Mozilla/5.0 (Windows NT 10.0; Win64; x64) AppleWebKit/537.36 (KHTML, like Gecko) Chrome/85.0.4183.83 Safari/537.36",75,"[0.9, 0.5, 0.1]","[0.8, 0.4, 0.2]","[u'black', u'blue', u'red']","[u'left', u'middle', u'right']","[0.9, 0.5, 0.1]","[u'low', u'medium', u'high']","red",51,"right","high","True","True",487,4500,NA
"A1I72NHC21347A","Tue Sep 15 2020 13:18:11 GMT-0400 (Eastern Daylight Time)","Tue Sep 15 2020 13:25:43 GMT-0400 (Eastern Daylight Time)","Mozilla/5.0 (Windows NT 10.0; Win64; x64) AppleWebKit/537.36 (KHTML, like Gecko) Chrome/85.0.4183.83 Safari/537.36",76,"[0.9, 0.5, 0.1]","[0.8, 0.4, 0.2]","[u'black', u'blue', u'red']","[u'left', u'middle', u'right']","[0.9, 0.5, 0.1]","[u'high', u'medium', u'low']","red",51,"right","low","False","False",331,4450,NA
"A1I72NHC21347A","Tue Sep 15 2020 13:18:11 GMT-0400 (Eastern Daylight Time)","Tue Sep 15 2020 13:25:43 GMT-0400 (Eastern Daylight Time)","Mozilla/5.0 (Windows NT 10.0; Win64; x64) AppleWebKit/537.36 (KHTML, like Gecko) Chrome/85.0.4183.83 Safari/537.36",77,"[0.9, 0.5, 0.1]","[0.8, 0.4, 0.2]","[u'black', u'blue', u'red']","[u'left', u'middle', u'right']","[0.9, 0.5, 0.1]","[u'high', u'medium', u'low']","blue",50,"middle","medium","False","False",345,4400,NA
"A1I72NHC21347A","Tue Sep 15 2020 13:18:11 GMT-0400 (Eastern Daylight Time)","Tue Sep 15 2020 13:25:43 GMT-0400 (Eastern Daylight Time)","Mozilla/5.0 (Windows NT 10.0; Win64; x64) AppleWebKit/537.36 (KHTML, like Gecko) Chrome/85.0.4183.83 Safari/537.36",78,"[0.9, 0.5, 0.1]","[0.8, 0.4, 0.2]","[u'black', u'blue', u'red']","[u'left', u'middle', u'right']","[0.9, 0.5, 0.1]","[u'high', u'medium', u'low']","red",51,"right","low","False","False",324,4350,NA
"A1I72NHC21347A","Tue Sep 15 2020 13:18:11 GMT-0400 (Eastern Daylight Time)","Tue Sep 15 2020 13:25:43 GMT-0400 (Eastern Daylight Time)","Mozilla/5.0 (Windows NT 10.0; Win64; x64) AppleWebKit/537.36 (KHTML, like Gecko) Chrome/85.0.4183.83 Safari/537.36",79,"[0.9, 0.5, 0.1]","[0.8, 0.4, 0.2]","[u'black', u'blue', u'red']","[u'left', u'middle', u'right']","[0.9, 0.5, 0.1]","[u'high', u'medium', u'low']","blue",50,"middle","medium","False","False",411,4300,NA
"A1I72NHC21347A","Tue Sep 15 2020 13:18:11 GMT-0400 (Eastern Daylight Time)","Tue Sep 15 2020 13:25:43 GMT-0400 (Eastern Daylight Time)","Mozilla/5.0 (Windows NT 10.0; Win64; x64) AppleWebKit/537.36 (KHTML, like Gecko) Chrome/85.0.4183.83 Safari/537.36",80,"[0.9, 0.5, 0.1]","[0.8, 0.4, 0.2]","[u'black', u'blue', u'red']","[u'left', u'middle', u'right']","[0.9, 0.5, 0.1]","[u'high', u'medium', u'low']","black",49,"left","high","True","False",282,4400,NA
"A1I72NHC21347A","Tue Sep 15 2020 13:18:11 GMT-0400 (Eastern Daylight Time)","Tue Sep 15 2020 13:25:43 GMT-0400 (Eastern Daylight Time)","Mozilla/5.0 (Windows NT 10.0; Win64; x64) AppleWebKit/537.36 (KHTML, like Gecko) Chrome/85.0.4183.83 Safari/537.36",81,"[0.9, 0.5, 0.1]","[0.8, 0.4, 0.2]","[u'black', u'blue', u'red']","[u'left', u'middle', u'right']","[0.8, 0.4, 0.2]","[u'medium', u'low', u'high']","black",49,"left","medium","True","False",484,4500,NA
"A1I72NHC21347A","Tue Sep 15 2020 13:18:11 GMT-0400 (Eastern Daylight Time)","Tue Sep 15 2020 13:25:43 GMT-0400 (Eastern Daylight Time)","Mozilla/5.0 (Windows NT 10.0; Win64; x64) AppleWebKit/537.36 (KHTML, like Gecko) Chrome/85.0.4183.83 Safari/537.36",82,"[0.9, 0.5, 0.1]","[0.8, 0.4, 0.2]","[u'black', u'blue', u'red']","[u'left', u'middle', u'right']","[0.8, 0.4, 0.2]","[u'medium', u'low', u'high']","black",49,"left","medium","False","False",319,4450,NA
"A1I72NHC21347A","Tue Sep 15 2020 13:18:11 GMT-0400 (Eastern Daylight Time)","Tue Sep 15 2020 13:25:43 GMT-0400 (Eastern Daylight Time)","Mozilla/5.0 (Windows NT 10.0; Win64; x64) AppleWebKit/537.36 (KHTML, like Gecko) Chrome/85.0.4183.83 Safari/537.36",83,"[0.9, 0.5, 0.1]","[0.8, 0.4, 0.2]","[u'black', u'blue', u'red']","[u'left', u'middle', u'right']","[0.8, 0.4, 0.2]","[u'medium', u'low', u'high']","black",49,"left","medium","True","False",356,4550,NA
"A1I72NHC21347A","Tue Sep 15 2020 13:18:11 GMT-0400 (Eastern Daylight Time)","Tue Sep 15 2020 13:25:43 GMT-0400 (Eastern Daylight Time)","Mozilla/5.0 (Windows NT 10.0; Win64; x64) AppleWebKit/537.36 (KHTML, like Gecko) Chrome/85.0.4183.83 Safari/537.36",84,"[0.9, 0.5, 0.1]","[0.8, 0.4, 0.2]","[u'black', u'blue', u'red']","[u'left', u'middle', u'right']","[0.8, 0.4, 0.2]","[u'medium', u'low', u'high']","black",49,"left","medium","False","False",328,4500,NA
"A1I72NHC21347A","Tue Sep 15 2020 13:18:11 GMT-0400 (Eastern Daylight Time)","Tue Sep 15 2020 13:25:43 GMT-0400 (Eastern Daylight Time)","Mozilla/5.0 (Windows NT 10.0; Win64; x64) AppleWebKit/537.36 (KHTML, like Gecko) Chrome/85.0.4183.83 Safari/537.36",85,"[0.9, 0.5, 0.1]","[0.8, 0.4, 0.2]","[u'black', u'blue', u'red']","[u'left', u'middle', u'right']","[0.8, 0.4, 0.2]","[u'medium', u'low', u'high']","black",49,"left","medium","True","False",270,4600,NA
"A1I72NHC21347A","Tue Sep 15 2020 13:18:11 GMT-0400 (Eastern Daylight Time)","Tue Sep 15 2020 13:25:43 GMT-0400 (Eastern Daylight Time)","Mozilla/5.0 (Windows NT 10.0; Win64; x64) AppleWebKit/537.36 (KHTML, like Gecko) Chrome/85.0.4183.83 Safari/537.36",86,"[0.9, 0.5, 0.1]","[0.8, 0.4, 0.2]","[u'black', u'blue', u'red']","[u'left', u'middle', u'right']","[0.8, 0.4, 0.2]","[u'medium', u'low', u'high']","black",49,"left","medium","False","False",308,4550,NA
"A1I72NHC21347A","Tue Sep 15 2020 13:18:11 GMT-0400 (Eastern Daylight Time)","Tue Sep 15 2020 13:25:43 GMT-0400 (Eastern Daylight Time)","Mozilla/5.0 (Windows NT 10.0; Win64; x64) AppleWebKit/537.36 (KHTML, like Gecko) Chrome/85.0.4183.83 Safari/537.36",87,"[0.9, 0.5, 0.1]","[0.8, 0.4, 0.2]","[u'black', u'blue', u'red']","[u'left', u'middle', u'right']","[0.8, 0.4, 0.2]","[u'medium', u'low', u'high']","blue",50,"middle","low","False","False",44,4500,NA
"A1I72NHC21347A","Tue Sep 15 2020 13:18:11 GMT-0400 (Eastern Daylight Time)","Tue Sep 15 2020 13:25:43 GMT-0400 (Eastern Daylight Time)","Mozilla/5.0 (Windows NT 10.0; Win64; x64) AppleWebKit/537.36 (KHTML, like Gecko) Chrome/85.0.4183.83 Safari/537.36",88,"[0.9, 0.5, 0.1]","[0.8, 0.4, 0.2]","[u'black', u'blue', u'red']","[u'left', u'middle', u'right']","[0.8, 0.4, 0.2]","[u'medium', u'low', u'high']","red",51,"right","high","True","False",368,4600,NA
"A1I72NHC21347A","Tue Sep 15 2020 13:18:11 GMT-0400 (Eastern Daylight Time)","Tue Sep 15 2020 13:25:43 GMT-0400 (Eastern Daylight Time)","Mozilla/5.0 (Windows NT 10.0; Win64; x64) AppleWebKit/537.36 (KHTML, like Gecko) Chrome/85.0.4183.83 Safari/537.36",89,"[0.9, 0.5, 0.1]","[0.8, 0.4, 0.2]","[u'black', u'blue', u'red']","[u'left', u'middle', u'right']","[0.8, 0.4, 0.2]","[u'medium', u'low', u'high']","red",51,"right","high","False","False",298,4550,NA
"A1I72NHC21347A","Tue Sep 15 2020 13:18:11 GMT-0400 (Eastern Daylight Time)","Tue Sep 15 2020 13:25:43 GMT-0400 (Eastern Daylight Time)","Mozilla/5.0 (Windows NT 10.0; Win64; x64) AppleWebKit/537.36 (KHTML, like Gecko) Chrome/85.0.4183.83 Safari/537.36",90,"[0.9, 0.5, 0.1]","[0.8, 0.4, 0.2]","[u'black', u'blue', u'red']","[u'left', u'middle', u'right']","[0.8, 0.4, 0.2]","[u'medium', u'low', u'high']","red",51,"right","high","False","False",3,4500,NA
"A1I72NHC21347A","Tue Sep 15 2020 13:18:11 GMT-0400 (Eastern Daylight Time)","Tue Sep 15 2020 13:25:43 GMT-0400 (Eastern Daylight Time)","Mozilla/5.0 (Windows NT 10.0; Win64; x64) AppleWebKit/537.36 (KHTML, like Gecko) Chrome/85.0.4183.83 Safari/537.36",91,"[0.9, 0.5, 0.1]","[0.8, 0.4, 0.2]","[u'black', u'blue', u'red']","[u'left', u'middle', u'right']","[0.8, 0.4, 0.2]","[u'medium', u'low', u'high']","blue",50,"middle","low","True","False",386,4600,NA
"A1I72NHC21347A","Tue Sep 15 2020 13:18:11 GMT-0400 (Eastern Daylight Time)","Tue Sep 15 2020 13:25:43 GMT-0400 (Eastern Daylight Time)","Mozilla/5.0 (Windows NT 10.0; Win64; x64) AppleWebKit/537.36 (KHTML, like Gecko) Chrome/85.0.4183.83 Safari/537.36",92,"[0.9, 0.5, 0.1]","[0.8, 0.4, 0.2]","[u'black', u'blue', u'red']","[u'left', u'middle', u'right']","[0.8, 0.4, 0.2]","[u'medium', u'low', u'high']","blue",50,"middle","low","False","False",404,4550,NA
"A1I72NHC21347A","Tue Sep 15 2020 13:18:11 GMT-0400 (Eastern Daylight Time)","Tue Sep 15 2020 13:25:43 GMT-0400 (Eastern Daylight Time)","Mozilla/5.0 (Windows NT 10.0; Win64; x64) AppleWebKit/537.36 (KHTML, like Gecko) Chrome/85.0.4183.83 Safari/537.36",93,"[0.9, 0.5, 0.1]","[0.8, 0.4, 0.2]","[u'black', u'blue', u'red']","[u'left', u'middle', u'right']","[0.8, 0.4, 0.2]","[u'medium', u'low', u'high']","blue",50,"middle","low","False","False",339,4500,NA
"A1I72NHC21347A","Tue Sep 15 2020 13:18:11 GMT-0400 (Eastern Daylight Time)","Tue Sep 15 2020 13:25:43 GMT-0400 (Eastern Daylight Time)","Mozilla/5.0 (Windows NT 10.0; Win64; x64) AppleWebKit/537.36 (KHTML, like Gecko) Chrome/85.0.4183.83 Safari/537.36",94,"[0.9, 0.5, 0.1]","[0.8, 0.4, 0.2]","[u'black', u'blue', u'red']","[u'left', u'middle', u'right']","[0.8, 0.4, 0.2]","[u'medium', u'low', u'high']","black",49,"left","medium","False","False",350,4450,NA
"A1I72NHC21347A","Tue Sep 15 2020 13:18:11 GMT-0400 (Eastern Daylight Time)","Tue Sep 15 2020 13:25:43 GMT-0400 (Eastern Daylight Time)","Mozilla/5.0 (Windows NT 10.0; Win64; x64) AppleWebKit/537.36 (KHTML, like Gecko) Chrome/85.0.4183.83 Safari/537.36",95,"[0.9, 0.5, 0.1]","[0.8, 0.4, 0.2]","[u'black', u'blue', u'red']","[u'left', u'middle', u'right']","[0.8, 0.4, 0.2]","[u'medium', u'low', u'high']","black",49,"left","medium","True","False",14,4550,NA
"A1I72NHC21347A","Tue Sep 15 2020 13:18:11 GMT-0400 (Eastern Daylight Time)","Tue Sep 15 2020 13:25:43 GMT-0400 (Eastern Daylight Time)","Mozilla/5.0 (Windows NT 10.0; Win64; x64) AppleWebKit/537.36 (KHTML, like Gecko) Chrome/85.0.4183.83 Safari/537.36",96,"[0.9, 0.5, 0.1]","[0.8, 0.4, 0.2]","[u'black', u'blue', u'red']","[u'left', u'middle', u'right']","[0.8, 0.4, 0.2]","[u'medium', u'low', u'high']","black",49,"left","medium","False","False",332,4500,NA
"A1I72NHC21347A","Tue Sep 15 2020 13:18:11 GMT-0400 (Eastern Daylight Time)","Tue Sep 15 2020 13:25:43 GMT-0400 (Eastern Daylight Time)","Mozilla/5.0 (Windows NT 10.0; Win64; x64) AppleWebKit/537.36 (KHTML, like Gecko) Chrome/85.0.4183.83 Safari/537.36",97,"[0.9, 0.5, 0.1]","[0.8, 0.4, 0.2]","[u'black', u'blue', u'red']","[u'left', u'middle', u'right']","[0.8, 0.4, 0.2]","[u'medium', u'low', u'high']","black",49,"left","medium","False","False",325,4450,NA
"A1I72NHC21347A","Tue Sep 15 2020 13:18:11 GMT-0400 (Eastern Daylight Time)","Tue Sep 15 2020 13:25:43 GMT-0400 (Eastern Daylight Time)","Mozilla/5.0 (Windows NT 10.0; Win64; x64) AppleWebKit/537.36 (KHTML, like Gecko) Chrome/85.0.4183.83 Safari/537.36",98,"[0.9, 0.5, 0.1]","[0.8, 0.4, 0.2]","[u'black', u'blue', u'red']","[u'left', u'middle', u'right']","[0.8, 0.4, 0.2]","[u'medium', u'low', u'high']","red",51,"right","high","True","False",314,4550,NA
"A1I72NHC21347A","Tue Sep 15 2020 13:18:11 GMT-0400 (Eastern Daylight Time)","Tue Sep 15 2020 13:25:43 GMT-0400 (Eastern Daylight Time)","Mozilla/5.0 (Windows NT 10.0; Win64; x64) AppleWebKit/537.36 (KHTML, like Gecko) Chrome/85.0.4183.83 Safari/537.36",99,"[0.9, 0.5, 0.1]","[0.8, 0.4, 0.2]","[u'black', u'blue', u'red']","[u'left', u'middle', u'right']","[0.8, 0.4, 0.2]","[u'medium', u'low', u'high']","red",51,"right","high","True","False",345,4650,NA
"A1I72NHC21347A","Tue Sep 15 2020 13:18:11 GMT-0400 (Eastern Daylight Time)","Tue Sep 15 2020 13:25:43 GMT-0400 (Eastern Daylight Time)","Mozilla/5.0 (Windows NT 10.0; Win64; x64) AppleWebKit/537.36 (KHTML, like Gecko) Chrome/85.0.4183.83 Safari/537.36",100,"[0.9, 0.5, 0.1]","[0.8, 0.4, 0.2]","[u'black', u'blue', u'red']","[u'left', u'middle', u'right']","[0.8, 0.4, 0.2]","[u'medium', u'low', u'high']","red",51,"right","high","True","False",404,4750,NA
"A1I72NHC21347A","Tue Sep 15 2020 13:18:11 GMT-0400 (Eastern Daylight Time)","Tue Sep 15 2020 13:25:43 GMT-0400 (Eastern Daylight Time)","Mozilla/5.0 (Windows NT 10.0; Win64; x64) AppleWebKit/537.36 (KHTML, like Gecko) Chrome/85.0.4183.83 Safari/537.36",101,"[0.9, 0.5, 0.1]","[0.8, 0.4, 0.2]","[u'black', u'blue', u'red']","[u'left', u'middle', u'right']","[0.8, 0.4, 0.2]","[u'medium', u'low', u'high']","red",51,"right","high","True","False",398,4850,NA
"A1I72NHC21347A","Tue Sep 15 2020 13:18:11 GMT-0400 (Eastern Daylight Time)","Tue Sep 15 2020 13:25:43 GMT-0400 (Eastern Daylight Time)","Mozilla/5.0 (Windows NT 10.0; Win64; x64) AppleWebKit/537.36 (KHTML, like Gecko) Chrome/85.0.4183.83 Safari/537.36",102,"[0.9, 0.5, 0.1]","[0.8, 0.4, 0.2]","[u'black', u'blue', u'red']","[u'left', u'middle', u'right']","[0.8, 0.4, 0.2]","[u'medium', u'low', u'high']","red",51,"right","high","False","False",351,4800,NA
"A1I72NHC21347A","Tue Sep 15 2020 13:18:11 GMT-0400 (Eastern Daylight Time)","Tue Sep 15 2020 13:25:43 GMT-0400 (Eastern Daylight Time)","Mozilla/5.0 (Windows NT 10.0; Win64; x64) AppleWebKit/537.36 (KHTML, like Gecko) Chrome/85.0.4183.83 Safari/537.36",103,"[0.9, 0.5, 0.1]","[0.8, 0.4, 0.2]","[u'black', u'blue', u'red']","[u'left', u'middle', u'right']","[0.8, 0.4, 0.2]","[u'medium', u'low', u'high']","red",51,"right","high","True","False",419,4900,NA
"A1I72NHC21347A","Tue Sep 15 2020 13:18:11 GMT-0400 (Eastern Daylight Time)","Tue Sep 15 2020 13:25:43 GMT-0400 (Eastern Daylight Time)","Mozilla/5.0 (Windows NT 10.0; Win64; x64) AppleWebKit/537.36 (KHTML, like Gecko) Chrome/85.0.4183.83 Safari/537.36",104,"[0.9, 0.5, 0.1]","[0.8, 0.4, 0.2]","[u'black', u'blue', u'red']","[u'left', u'middle', u'right']","[0.8, 0.4, 0.2]","[u'medium', u'low', u'high']","red",51,"right","high","False","False",473,4850,NA
"A1I72NHC21347A","Tue Sep 15 2020 13:18:11 GMT-0400 (Eastern Daylight Time)","Tue Sep 15 2020 13:25:43 GMT-0400 (Eastern Daylight Time)","Mozilla/5.0 (Windows NT 10.0; Win64; x64) AppleWebKit/537.36 (KHTML, like Gecko) Chrome/85.0.4183.83 Safari/537.36",105,"[0.9, 0.5, 0.1]","[0.8, 0.4, 0.2]","[u'black', u'blue', u'red']","[u'left', u'middle', u'right']","[0.8, 0.4, 0.2]","[u'medium', u'low', u'high']","red",51,"right","high","True","False",434,4950,NA
"A1I72NHC21347A","Tue Sep 15 2020 13:18:11 GMT-0400 (Eastern Daylight Time)","Tue Sep 15 2020 13:25:43 GMT-0400 (Eastern Daylight Time)","Mozilla/5.0 (Windows NT 10.0; Win64; x64) AppleWebKit/537.36 (KHTML, like Gecko) Chrome/85.0.4183.83 Safari/537.36",106,"[0.9, 0.5, 0.1]","[0.8, 0.4, 0.2]","[u'black', u'blue', u'red']","[u'left', u'middle', u'right']","[0.8, 0.4, 0.2]","[u'medium', u'low', u'high']","red",51,"right","high","True","True",369,5050,NA
"A1I72NHC21347A","Tue Sep 15 2020 13:18:11 GMT-0400 (Eastern Daylight Time)","Tue Sep 15 2020 13:25:43 GMT-0400 (Eastern Daylight Time)","Mozilla/5.0 (Windows NT 10.0; Win64; x64) AppleWebKit/537.36 (KHTML, like Gecko) Chrome/85.0.4183.83 Safari/537.36",107,"[0.9, 0.5, 0.1]","[0.8, 0.4, 0.2]","[u'black', u'blue', u'red']","[u'left', u'middle', u'right']","[0.8, 0.4, 0.2]","[u'high', u'medium', u'low']","red",51,"right","low","False","False",340,5000,NA
"A1I72NHC21347A","Tue Sep 15 2020 13:18:11 GMT-0400 (Eastern Daylight Time)","Tue Sep 15 2020 13:25:43 GMT-0400 (Eastern Daylight Time)","Mozilla/5.0 (Windows NT 10.0; Win64; x64) AppleWebKit/537.36 (KHTML, like Gecko) Chrome/85.0.4183.83 Safari/537.36",108,"[0.9, 0.5, 0.1]","[0.8, 0.4, 0.2]","[u'black', u'blue', u'red']","[u'left', u'middle', u'right']","[0.8, 0.4, 0.2]","[u'high', u'medium', u'low']","red",51,"right","low","False","False",369,4950,NA
"A1I72NHC21347A","Tue Sep 15 2020 13:18:11 GMT-0400 (Eastern Daylight Time)","Tue Sep 15 2020 13:25:43 GMT-0400 (Eastern Daylight Time)","Mozilla/5.0 (Windows NT 10.0; Win64; x64) AppleWebKit/537.36 (KHTML, like Gecko) Chrome/85.0.4183.83 Safari/537.36",109,"[0.9, 0.5, 0.1]","[0.8, 0.4, 0.2]","[u'black', u'blue', u'red']","[u'left', u'middle', u'right']","[0.8, 0.4, 0.2]","[u'high', u'medium', u'low']","red",51,"right","low","False","False",350,4900,NA
"A1I72NHC21347A","Tue Sep 15 2020 13:18:11 GMT-0400 (Eastern Daylight Time)","Tue Sep 15 2020 13:25:43 GMT-0400 (Eastern Daylight Time)","Mozilla/5.0 (Windows NT 10.0; Win64; x64) AppleWebKit/537.36 (KHTML, like Gecko) Chrome/85.0.4183.83 Safari/537.36",110,"[0.9, 0.5, 0.1]","[0.8, 0.4, 0.2]","[u'black', u'blue', u'red']","[u'left', u'middle', u'right']","[0.8, 0.4, 0.2]","[u'high', u'medium', u'low']","red",51,"right","low","False","False",419,4850,NA
"A1I72NHC21347A","Tue Sep 15 2020 13:18:11 GMT-0400 (Eastern Daylight Time)","Tue Sep 15 2020 13:25:43 GMT-0400 (Eastern Daylight Time)","Mozilla/5.0 (Windows NT 10.0; Win64; x64) AppleWebKit/537.36 (KHTML, like Gecko) Chrome/85.0.4183.83 Safari/537.36",111,"[0.9, 0.5, 0.1]","[0.8, 0.4, 0.2]","[u'black', u'blue', u'red']","[u'left', u'middle', u'right']","[0.8, 0.4, 0.2]","[u'high', u'medium', u'low']","red",51,"right","low","False","False",337,4800,NA
"A1I72NHC21347A","Tue Sep 15 2020 13:18:11 GMT-0400 (Eastern Daylight Time)","Tue Sep 15 2020 13:25:43 GMT-0400 (Eastern Daylight Time)","Mozilla/5.0 (Windows NT 10.0; Win64; x64) AppleWebKit/537.36 (KHTML, like Gecko) Chrome/85.0.4183.83 Safari/537.36",112,"[0.9, 0.5, 0.1]","[0.8, 0.4, 0.2]","[u'black', u'blue', u'red']","[u'left', u'middle', u'right']","[0.8, 0.4, 0.2]","[u'high', u'medium', u'low']","red",51,"right","low","False","False",382,4750,NA
"A1I72NHC21347A","Tue Sep 15 2020 13:18:11 GMT-0400 (Eastern Daylight Time)","Tue Sep 15 2020 13:25:43 GMT-0400 (Eastern Daylight Time)","Mozilla/5.0 (Windows NT 10.0; Win64; x64) AppleWebKit/537.36 (KHTML, like Gecko) Chrome/85.0.4183.83 Safari/537.36",113,"[0.9, 0.5, 0.1]","[0.8, 0.4, 0.2]","[u'black', u'blue', u'red']","[u'left', u'middle', u'right']","[0.8, 0.4, 0.2]","[u'high', u'medium', u'low']","red",51,"right","low","False","False",260,4700,NA
"A1I72NHC21347A","Tue Sep 15 2020 13:18:11 GMT-0400 (Eastern Daylight Time)","Tue Sep 15 2020 13:25:43 GMT-0400 (Eastern Daylight Time)","Mozilla/5.0 (Windows NT 10.0; Win64; x64) AppleWebKit/537.36 (KHTML, like Gecko) Chrome/85.0.4183.83 Safari/537.36",114,"[0.9, 0.5, 0.1]","[0.8, 0.4, 0.2]","[u'black', u'blue', u'red']","[u'left', u'middle', u'right']","[0.8, 0.4, 0.2]","[u'high', u'medium', u'low']","blue",50,"middle","medium","False","False",364,4650,NA
"A1I72NHC21347A","Tue Sep 15 2020 13:18:11 GMT-0400 (Eastern Daylight Time)","Tue Sep 15 2020 13:25:43 GMT-0400 (Eastern Daylight Time)","Mozilla/5.0 (Windows NT 10.0; Win64; x64) AppleWebKit/537.36 (KHTML, like Gecko) Chrome/85.0.4183.83 Safari/537.36",115,"[0.9, 0.5, 0.1]","[0.8, 0.4, 0.2]","[u'black', u'blue', u'red']","[u'left', u'middle', u'right']","[0.8, 0.4, 0.2]","[u'high', u'medium', u'low']","blue",50,"middle","medium","True","False",293,4750,NA
"A1I72NHC21347A","Tue Sep 15 2020 13:18:11 GMT-0400 (Eastern Daylight Time)","Tue Sep 15 2020 13:25:43 GMT-0400 (Eastern Daylight Time)","Mozilla/5.0 (Windows NT 10.0; Win64; x64) AppleWebKit/537.36 (KHTML, like Gecko) Chrome/85.0.4183.83 Safari/537.36",116,"[0.9, 0.5, 0.1]","[0.8, 0.4, 0.2]","[u'black', u'blue', u'red']","[u'left', u'middle', u'right']","[0.8, 0.4, 0.2]","[u'high', u'medium', u'low']","blue",50,"middle","medium","True","False",334,4850,NA
"A1I72NHC21347A","Tue Sep 15 2020 13:18:11 GMT-0400 (Eastern Daylight Time)","Tue Sep 15 2020 13:25:43 GMT-0400 (Eastern Daylight Time)","Mozilla/5.0 (Windows NT 10.0; Win64; x64) AppleWebKit/537.36 (KHTML, like Gecko) Chrome/85.0.4183.83 Safari/537.36",117,"[0.9, 0.5, 0.1]","[0.8, 0.4, 0.2]","[u'black', u'blue', u'red']","[u'left', u'middle', u'right']","[0.8, 0.4, 0.2]","[u'high', u'medium', u'low']","blue",50,"middle","medium","False","False",307,4800,NA
"A1I72NHC21347A","Tue Sep 15 2020 13:18:11 GMT-0400 (Eastern Daylight Time)","Tue Sep 15 2020 13:25:43 GMT-0400 (Eastern Daylight Time)","Mozilla/5.0 (Windows NT 10.0; Win64; x64) AppleWebKit/537.36 (KHTML, like Gecko) Chrome/85.0.4183.83 Safari/537.36",118,"[0.9, 0.5, 0.1]","[0.8, 0.4, 0.2]","[u'black', u'blue', u'red']","[u'left', u'middle', u'right']","[0.8, 0.4, 0.2]","[u'high', u'medium', u'low']","black",49,"left","high","False","False",325,4750,NA
"A1I72NHC21347A","Tue Sep 15 2020 13:18:11 GMT-0400 (Eastern Daylight Time)","Tue Sep 15 2020 13:25:43 GMT-0400 (Eastern Daylight Time)","Mozilla/5.0 (Windows NT 10.0; Win64; x64) AppleWebKit/537.36 (KHTML, like Gecko) Chrome/85.0.4183.83 Safari/537.36",119,"[0.9, 0.5, 0.1]","[0.8, 0.4, 0.2]","[u'black', u'blue', u'red']","[u'left', u'middle', u'right']","[0.8, 0.4, 0.2]","[u'high', u'medium', u'low']","black",49,"left","high","True","False",265,4850,NA
"A1I72NHC21347A","Tue Sep 15 2020 13:18:11 GMT-0400 (Eastern Daylight Time)","Tue Sep 15 2020 13:25:43 GMT-0400 (Eastern Daylight Time)","Mozilla/5.0 (Windows NT 10.0; Win64; x64) AppleWebKit/537.36 (KHTML, like Gecko) Chrome/85.0.4183.83 Safari/537.36",120,"[0.9, 0.5, 0.1]","[0.8, 0.4, 0.2]","[u'black', u'blue', u'red']","[u'left', u'middle', u'right']","[0.8, 0.4, 0.2]","[u'high', u'medium', u'low']","black",49,"left","high","True","False",299,4950,NA
"A1I72NHC21347A","Tue Sep 15 2020 13:18:11 GMT-0400 (Eastern Daylight Time)","Tue Sep 15 2020 13:25:43 GMT-0400 (Eastern Daylight Time)","Mozilla/5.0 (Windows NT 10.0; Win64; x64) AppleWebKit/537.36 (KHTML, like Gecko) Chrome/85.0.4183.83 Safari/537.36",121,"[0.9, 0.5, 0.1]","[0.8, 0.4, 0.2]","[u'black', u'blue', u'red']","[u'left', u'middle', u'right']","[0.8, 0.4, 0.2]","[u'low', u'medium', u'high']","black",49,"left","low","False","False",423,4900,NA
"A1I72NHC21347A","Tue Sep 15 2020 13:18:11 GMT-0400 (Eastern Daylight Time)","Tue Sep 15 2020 13:25:43 GMT-0400 (Eastern Daylight Time)","Mozilla/5.0 (Windows NT 10.0; Win64; x64) AppleWebKit/537.36 (KHTML, like Gecko) Chrome/85.0.4183.83 Safari/537.36",122,"[0.9, 0.5, 0.1]","[0.8, 0.4, 0.2]","[u'black', u'blue', u'red']","[u'left', u'middle', u'right']","[0.8, 0.4, 0.2]","[u'low', u'medium', u'high']","black",49,"left","low","False","False",399,4850,NA
"A1I72NHC21347A","Tue Sep 15 2020 13:18:11 GMT-0400 (Eastern Daylight Time)","Tue Sep 15 2020 13:25:43 GMT-0400 (Eastern Daylight Time)","Mozilla/5.0 (Windows NT 10.0; Win64; x64) AppleWebKit/537.36 (KHTML, like Gecko) Chrome/85.0.4183.83 Safari/537.36",123,"[0.9, 0.5, 0.1]","[0.8, 0.4, 0.2]","[u'black', u'blue', u'red']","[u'left', u'middle', u'right']","[0.8, 0.4, 0.2]","[u'low', u'medium', u'high']","black",49,"left","low","True","False",105,4950,NA
"A1I72NHC21347A","Tue Sep 15 2020 13:18:11 GMT-0400 (Eastern Daylight Time)","Tue Sep 15 2020 13:25:43 GMT-0400 (Eastern Daylight Time)","Mozilla/5.0 (Windows NT 10.0; Win64; x64) AppleWebKit/537.36 (KHTML, like Gecko) Chrome/85.0.4183.83 Safari/537.36",124,"[0.9, 0.5, 0.1]","[0.8, 0.4, 0.2]","[u'black', u'blue', u'red']","[u'left', u'middle', u'right']","[0.8, 0.4, 0.2]","[u'low', u'medium', u'high']","black",49,"left","low","True","False",745,5050,NA
"A1I72NHC21347A","Tue Sep 15 2020 13:18:11 GMT-0400 (Eastern Daylight Time)","Tue Sep 15 2020 13:25:43 GMT-0400 (Eastern Daylight Time)","Mozilla/5.0 (Windows NT 10.0; Win64; x64) AppleWebKit/537.36 (KHTML, like Gecko) Chrome/85.0.4183.83 Safari/537.36",125,"[0.9, 0.5, 0.1]","[0.8, 0.4, 0.2]","[u'black', u'blue', u'red']","[u'left', u'middle', u'right']","[0.8, 0.4, 0.2]","[u'low', u'medium', u'high']","black",49,"left","low","False","False",564,5000,NA
"A1I72NHC21347A","Tue Sep 15 2020 13:18:11 GMT-0400 (Eastern Daylight Time)","Tue Sep 15 2020 13:25:43 GMT-0400 (Eastern Daylight Time)","Mozilla/5.0 (Windows NT 10.0; Win64; x64) AppleWebKit/537.36 (KHTML, like Gecko) Chrome/85.0.4183.83 Safari/537.36",126,"[0.9, 0.5, 0.1]","[0.8, 0.4, 0.2]","[u'black', u'blue', u'red']","[u'left', u'middle', u'right']","[0.8, 0.4, 0.2]","[u'low', u'medium', u'high']","blue",50,"middle","medium","False","False",437,4950,NA
"A1I72NHC21347A","Tue Sep 15 2020 13:18:11 GMT-0400 (Eastern Daylight Time)","Tue Sep 15 2020 13:25:43 GMT-0400 (Eastern Daylight Time)","Mozilla/5.0 (Windows NT 10.0; Win64; x64) AppleWebKit/537.36 (KHTML, like Gecko) Chrome/85.0.4183.83 Safari/537.36",127,"[0.9, 0.5, 0.1]","[0.8, 0.4, 0.2]","[u'black', u'blue', u'red']","[u'left', u'middle', u'right']","[0.8, 0.4, 0.2]","[u'low', u'medium', u'high']","black",49,"left","low","False","False",352,4900,NA
"A1I72NHC21347A","Tue Sep 15 2020 13:18:11 GMT-0400 (Eastern Daylight Time)","Tue Sep 15 2020 13:25:43 GMT-0400 (Eastern Daylight Time)","Mozilla/5.0 (Windows NT 10.0; Win64; x64) AppleWebKit/537.36 (KHTML, like Gecko) Chrome/85.0.4183.83 Safari/537.36",128,"[0.9, 0.5, 0.1]","[0.8, 0.4, 0.2]","[u'black', u'blue', u'red']","[u'left', u'middle', u'right']","[0.8, 0.4, 0.2]","[u'low', u'medium', u'high']","black",49,"left","low","False","False",318,4850,NA
"A1I72NHC21347A","Tue Sep 15 2020 13:18:11 GMT-0400 (Eastern Daylight Time)","Tue Sep 15 2020 13:25:43 GMT-0400 (Eastern Daylight Time)","Mozilla/5.0 (Windows NT 10.0; Win64; x64) AppleWebKit/537.36 (KHTML, like Gecko) Chrome/85.0.4183.83 Safari/537.36",129,"[0.9, 0.5, 0.1]","[0.8, 0.4, 0.2]","[u'black', u'blue', u'red']","[u'left', u'middle', u'right']","[0.8, 0.4, 0.2]","[u'low', u'medium', u'high']","blue",50,"middle","medium","False","False",319,4800,NA
"A1I72NHC21347A","Tue Sep 15 2020 13:18:11 GMT-0400 (Eastern Daylight Time)","Tue Sep 15 2020 13:25:43 GMT-0400 (Eastern Daylight Time)","Mozilla/5.0 (Windows NT 10.0; Win64; x64) AppleWebKit/537.36 (KHTML, like Gecko) Chrome/85.0.4183.83 Safari/537.36",130,"[0.9, 0.5, 0.1]","[0.8, 0.4, 0.2]","[u'black', u'blue', u'red']","[u'left', u'middle', u'right']","[0.8, 0.4, 0.2]","[u'low', u'medium', u'high']","red",51,"right","high","True","False",329,4900,NA
"A1I72NHC21347A","Tue Sep 15 2020 13:18:11 GMT-0400 (Eastern Daylight Time)","Tue Sep 15 2020 13:25:43 GMT-0400 (Eastern Daylight Time)","Mozilla/5.0 (Windows NT 10.0; Win64; x64) AppleWebKit/537.36 (KHTML, like Gecko) Chrome/85.0.4183.83 Safari/537.36",131,"[0.9, 0.5, 0.1]","[0.8, 0.4, 0.2]","[u'black', u'blue', u'red']","[u'left', u'middle', u'right']","[0.8, 0.4, 0.2]","[u'low', u'medium', u'high']","red",51,"right","high","True","False",395,5000,NA
"A1I72NHC21347A","Tue Sep 15 2020 13:18:11 GMT-0400 (Eastern Daylight Time)","Tue Sep 15 2020 13:25:43 GMT-0400 (Eastern Daylight Time)","Mozilla/5.0 (Windows NT 10.0; Win64; x64) AppleWebKit/537.36 (KHTML, like Gecko) Chrome/85.0.4183.83 Safari/537.36",132,"[0.9, 0.5, 0.1]","[0.8, 0.4, 0.2]","[u'black', u'blue', u'red']","[u'left', u'middle', u'right']","[0.8, 0.4, 0.2]","[u'low', u'medium', u'high']","red",51,"right","high","True","False",326,5100,NA
"A1I72NHC21347A","Tue Sep 15 2020 13:18:11 GMT-0400 (Eastern Daylight Time)","Tue Sep 15 2020 13:25:43 GMT-0400 (Eastern Daylight Time)","Mozilla/5.0 (Windows NT 10.0; Win64; x64) AppleWebKit/537.36 (KHTML, like Gecko) Chrome/85.0.4183.83 Safari/537.36",133,"[0.9, 0.5, 0.1]","[0.8, 0.4, 0.2]","[u'black', u'blue', u'red']","[u'left', u'middle', u'right']","[0.8, 0.4, 0.2]","[u'low', u'medium', u'high']","red",51,"right","high","True","False",393,5200,NA
"A1I72NHC21347A","Tue Sep 15 2020 13:18:11 GMT-0400 (Eastern Daylight Time)","Tue Sep 15 2020 13:25:43 GMT-0400 (Eastern Daylight Time)","Mozilla/5.0 (Windows NT 10.0; Win64; x64) AppleWebKit/537.36 (KHTML, like Gecko) Chrome/85.0.4183.83 Safari/537.36",134,"[0.9, 0.5, 0.1]","[0.8, 0.4, 0.2]","[u'black', u'blue', u'red']","[u'left', u'middle', u'right']","[0.8, 0.4, 0.2]","[u'low', u'medium', u'high']","red",51,"right","high","True","False",644,5300,NA
"A1I72NHC21347A","Tue Sep 15 2020 13:18:11 GMT-0400 (Eastern Daylight Time)","Tue Sep 15 2020 13:25:43 GMT-0400 (Eastern Daylight Time)","Mozilla/5.0 (Windows NT 10.0; Win64; x64) AppleWebKit/537.36 (KHTML, like Gecko) Chrome/85.0.4183.83 Safari/537.36",135,"[0.9, 0.5, 0.1]","[0.8, 0.4, 0.2]","[u'black', u'blue', u'red']","[u'left', u'middle', u'right']","[0.8, 0.4, 0.2]","[u'low', u'medium', u'high']","red",51,"right","high","True","False",788,5400,NA
"A1I72NHC21347A","Tue Sep 15 2020 13:18:11 GMT-0400 (Eastern Daylight Time)","Tue Sep 15 2020 13:25:43 GMT-0400 (Eastern Daylight Time)","Mozilla/5.0 (Windows NT 10.0; Win64; x64) AppleWebKit/537.36 (KHTML, like Gecko) Chrome/85.0.4183.83 Safari/537.36",136,"[0.9, 0.5, 0.1]","[0.8, 0.4, 0.2]","[u'black', u'blue', u'red']","[u'left', u'middle', u'right']","[0.8, 0.4, 0.2]","[u'low', u'medium', u'high']","blue",50,"middle","medium","True","False",410,5500,NA
"A1I72NHC21347A","Tue Sep 15 2020 13:18:11 GMT-0400 (Eastern Daylight Time)","Tue Sep 15 2020 13:25:43 GMT-0400 (Eastern Daylight Time)","Mozilla/5.0 (Windows NT 10.0; Win64; x64) AppleWebKit/537.36 (KHTML, like Gecko) Chrome/85.0.4183.83 Safari/537.36",137,"[0.9, 0.5, 0.1]","[0.8, 0.4, 0.2]","[u'black', u'blue', u'red']","[u'left', u'middle', u'right']","[0.8, 0.4, 0.2]","[u'low', u'medium', u'high']","blue",50,"middle","medium","False","False",565,5450,NA
"A1I72NHC21347A","Tue Sep 15 2020 13:18:11 GMT-0400 (Eastern Daylight Time)","Tue Sep 15 2020 13:25:43 GMT-0400 (Eastern Daylight Time)","Mozilla/5.0 (Windows NT 10.0; Win64; x64) AppleWebKit/537.36 (KHTML, like Gecko) Chrome/85.0.4183.83 Safari/537.36",138,"[0.9, 0.5, 0.1]","[0.8, 0.4, 0.2]","[u'black', u'blue', u'red']","[u'left', u'middle', u'right']","[0.8, 0.4, 0.2]","[u'low', u'medium', u'high']","red",51,"right","high","True","False",30,5550,NA
"A1I72NHC21347A","Tue Sep 15 2020 13:18:11 GMT-0400 (Eastern Daylight Time)","Tue Sep 15 2020 13:25:43 GMT-0400 (Eastern Daylight Time)","Mozilla/5.0 (Windows NT 10.0; Win64; x64) AppleWebKit/537.36 (KHTML, like Gecko) Chrome/85.0.4183.83 Safari/537.36",139,"[0.9, 0.5, 0.1]","[0.8, 0.4, 0.2]","[u'black', u'blue', u'red']","[u'left', u'middle', u'right']","[0.8, 0.4, 0.2]","[u'low', u'medium', u'high']","red",51,"right","high","False","False",347,5500,NA
"A1I72NHC21347A","Tue Sep 15 2020 13:18:11 GMT-0400 (Eastern Daylight Time)","Tue Sep 15 2020 13:25:43 GMT-0400 (Eastern Daylight Time)","Mozilla/5.0 (Windows NT 10.0; Win64; x64) AppleWebKit/537.36 (KHTML, like Gecko) Chrome/85.0.4183.83 Safari/537.36",140,"[0.9, 0.5, 0.1]","[0.8, 0.4, 0.2]","[u'black', u'blue', u'red']","[u'left', u'middle', u'right']","[0.8, 0.4, 0.2]","[u'low', u'medium', u'high']","red",51,"right","high","True","False",267,5600,NA
"A1I72NHC21347A","Tue Sep 15 2020 13:18:11 GMT-0400 (Eastern Daylight Time)","Tue Sep 15 2020 13:25:43 GMT-0400 (Eastern Daylight Time)","Mozilla/5.0 (Windows NT 10.0; Win64; x64) AppleWebKit/537.36 (KHTML, like Gecko) Chrome/85.0.4183.83 Safari/537.36",141,"[0.9, 0.5, 0.1]","[0.8, 0.4, 0.2]","[u'black', u'blue', u'red']","[u'left', u'middle', u'right']","[0.8, 0.4, 0.2]","[u'low', u'medium', u'high']","red",51,"right","high","True","False",355,5700,NA
"A1I72NHC21347A","Tue Sep 15 2020 13:18:11 GMT-0400 (Eastern Daylight Time)","Tue Sep 15 2020 13:25:43 GMT-0400 (Eastern Daylight Time)","Mozilla/5.0 (Windows NT 10.0; Win64; x64) AppleWebKit/537.36 (KHTML, like Gecko) Chrome/85.0.4183.83 Safari/537.36",142,"[0.9, 0.5, 0.1]","[0.8, 0.4, 0.2]","[u'black', u'blue', u'red']","[u'left', u'middle', u'right']","[0.8, 0.4, 0.2]","[u'low', u'medium', u'high']","red",51,"right","high","False","False",426,5650,NA
"A1I72NHC21347A","Tue Sep 15 2020 13:18:11 GMT-0400 (Eastern Daylight Time)","Tue Sep 15 2020 13:25:43 GMT-0400 (Eastern Daylight Time)","Mozilla/5.0 (Windows NT 10.0; Win64; x64) AppleWebKit/537.36 (KHTML, like Gecko) Chrome/85.0.4183.83 Safari/537.36",143,"[0.9, 0.5, 0.1]","[0.8, 0.4, 0.2]","[u'black', u'blue', u'red']","[u'left', u'middle', u'right']","[0.8, 0.4, 0.2]","[u'low', u'medium', u'high']","red",51,"right","high","True","False",87,5750,NA
"A1I72NHC21347A","Tue Sep 15 2020 13:18:11 GMT-0400 (Eastern Daylight Time)","Tue Sep 15 2020 13:25:43 GMT-0400 (Eastern Daylight Time)","Mozilla/5.0 (Windows NT 10.0; Win64; x64) AppleWebKit/537.36 (KHTML, like Gecko) Chrome/85.0.4183.83 Safari/537.36",144,"[0.9, 0.5, 0.1]","[0.8, 0.4, 0.2]","[u'black', u'blue', u'red']","[u'left', u'middle', u'right']","[0.8, 0.4, 0.2]","[u'low', u'medium', u'high']","red",51,"right","high","True","False",405,5850,NA
"A1I72NHC21347A","Tue Sep 15 2020 13:18:11 GMT-0400 (Eastern Daylight Time)","Tue Sep 15 2020 13:25:43 GMT-0400 (Eastern Daylight Time)","Mozilla/5.0 (Windows NT 10.0; Win64; x64) AppleWebKit/537.36 (KHTML, like Gecko) Chrome/85.0.4183.83 Safari/537.36",145,"[0.9, 0.5, 0.1]","[0.8, 0.4, 0.2]","[u'black', u'blue', u'red']","[u'left', u'middle', u'right']","[0.8, 0.4, 0.2]","[u'low', u'medium', u'high']","red",51,"right","high","True","False",313,5950,NA
"A1I72NHC21347A","Tue Sep 15 2020 13:18:11 GMT-0400 (Eastern Daylight Time)","Tue Sep 15 2020 13:25:43 GMT-0400 (Eastern Daylight Time)","Mozilla/5.0 (Windows NT 10.0; Win64; x64) AppleWebKit/537.36 (KHTML, like Gecko) Chrome/85.0.4183.83 Safari/537.36",146,"[0.9, 0.5, 0.1]","[0.8, 0.4, 0.2]","[u'black', u'blue', u'red']","[u'left', u'middle', u'right']","[0.8, 0.4, 0.2]","[u'low', u'medium', u'high']","red",51,"right","high","True","True",336,6050,NA
"A1I72NHC21347A","Tue Sep 15 2020 13:18:11 GMT-0400 (Eastern Daylight Time)","Tue Sep 15 2020 13:25:43 GMT-0400 (Eastern Daylight Time)","Mozilla/5.0 (Windows NT 10.0; Win64; x64) AppleWebKit/537.36 (KHTML, like Gecko) Chrome/85.0.4183.83 Safari/537.36",147,"[0.9, 0.5, 0.1]","[0.8, 0.4, 0.2]","[u'black', u'blue', u'red']","[u'left', u'middle', u'right']","[0.8, 0.4, 0.2]","[u'high', u'medium', u'low']","red",51,"right","low","False","False",215,6000,NA
"A1I72NHC21347A","Tue Sep 15 2020 13:18:11 GMT-0400 (Eastern Daylight Time)","Tue Sep 15 2020 13:25:43 GMT-0400 (Eastern Daylight Time)","Mozilla/5.0 (Windows NT 10.0; Win64; x64) AppleWebKit/537.36 (KHTML, like Gecko) Chrome/85.0.4183.83 Safari/537.36",148,"[0.9, 0.5, 0.1]","[0.8, 0.4, 0.2]","[u'black', u'blue', u'red']","[u'left', u'middle', u'right']","[0.8, 0.4, 0.2]","[u'high', u'medium', u'low']","red",51,"right","low","False","False",205,5950,NA
"A1I72NHC21347A","Tue Sep 15 2020 13:18:11 GMT-0400 (Eastern Daylight Time)","Tue Sep 15 2020 13:25:43 GMT-0400 (Eastern Daylight Time)","Mozilla/5.0 (Windows NT 10.0; Win64; x64) AppleWebKit/537.36 (KHTML, like Gecko) Chrome/85.0.4183.83 Safari/537.36",149,"[0.9, 0.5, 0.1]","[0.8, 0.4, 0.2]","[u'black', u'blue', u'red']","[u'left', u'middle', u'right']","[0.8, 0.4, 0.2]","[u'high', u'medium', u'low']","red",51,"right","low","False","False",132,5900,NA
"A1I72NHC21347A","Tue Sep 15 2020 13:18:11 GMT-0400 (Eastern Daylight Time)","Tue Sep 15 2020 13:25:43 GMT-0400 (Eastern Daylight Time)","Mozilla/5.0 (Windows NT 10.0; Win64; x64) AppleWebKit/537.36 (KHTML, like Gecko) Chrome/85.0.4183.83 Safari/537.36",150,"[0.9, 0.5, 0.1]","[0.8, 0.4, 0.2]","[u'black', u'blue', u'red']","[u'left', u'middle', u'right']","[0.8, 0.4, 0.2]","[u'high', u'medium', u'low']","red",51,"right","low","False","False",225,5850,NA
"A1I72NHC21347A","Tue Sep 15 2020 13:18:11 GMT-0400 (Eastern Daylight Time)","Tue Sep 15 2020 13:25:43 GMT-0400 (Eastern Daylight Time)","Mozilla/5.0 (Windows NT 10.0; Win64; x64) AppleWebKit/537.36 (KHTML, like Gecko) Chrome/85.0.4183.83 Safari/537.36",151,"[0.9, 0.5, 0.1]","[0.8, 0.4, 0.2]","[u'black', u'blue', u'red']","[u'left', u'middle', u'right']","[0.8, 0.4, 0.2]","[u'high', u'medium', u'low']","red",51,"right","low","False","False",248,5800,NA
"A1I72NHC21347A","Tue Sep 15 2020 13:18:11 GMT-0400 (Eastern Daylight Time)","Tue Sep 15 2020 13:25:43 GMT-0400 (Eastern Daylight Time)","Mozilla/5.0 (Windows NT 10.0; Win64; x64) AppleWebKit/537.36 (KHTML, like Gecko) Chrome/85.0.4183.83 Safari/537.36",152,"[0.9, 0.5, 0.1]","[0.8, 0.4, 0.2]","[u'black', u'blue', u'red']","[u'left', u'middle', u'right']","[0.8, 0.4, 0.2]","[u'high', u'medium', u'low']","red",51,"right","low","True","False",259,5900,NA
"A1I72NHC21347A","Tue Sep 15 2020 13:18:11 GMT-0400 (Eastern Daylight Time)","Tue Sep 15 2020 13:25:43 GMT-0400 (Eastern Daylight Time)","Mozilla/5.0 (Windows NT 10.0; Win64; x64) AppleWebKit/537.36 (KHTML, like Gecko) Chrome/85.0.4183.83 Safari/537.36",153,"[0.9, 0.5, 0.1]","[0.8, 0.4, 0.2]","[u'black', u'blue', u'red']","[u'left', u'middle', u'right']","[0.8, 0.4, 0.2]","[u'high', u'medium', u'low']","red",51,"right","low","False","False",373,5850,NA
"A1I72NHC21347A","Tue Sep 15 2020 13:18:11 GMT-0400 (Eastern Daylight Time)","Tue Sep 15 2020 13:25:43 GMT-0400 (Eastern Daylight Time)","Mozilla/5.0 (Windows NT 10.0; Win64; x64) AppleWebKit/537.36 (KHTML, like Gecko) Chrome/85.0.4183.83 Safari/537.36",154,"[0.9, 0.5, 0.1]","[0.8, 0.4, 0.2]","[u'black', u'blue', u'red']","[u'left', u'middle', u'right']","[0.8, 0.4, 0.2]","[u'high', u'medium', u'low']","red",51,"right","low","False","False",344,5800,NA
"A1I72NHC21347A","Tue Sep 15 2020 13:18:11 GMT-0400 (Eastern Daylight Time)","Tue Sep 15 2020 13:25:43 GMT-0400 (Eastern Daylight Time)","Mozilla/5.0 (Windows NT 10.0; Win64; x64) AppleWebKit/537.36 (KHTML, like Gecko) Chrome/85.0.4183.83 Safari/537.36",155,"[0.9, 0.5, 0.1]","[0.8, 0.4, 0.2]","[u'black', u'blue', u'red']","[u'left', u'middle', u'right']","[0.8, 0.4, 0.2]","[u'high', u'medium', u'low']","red",51,"right","low","False","False",208,5750,NA
"A1I72NHC21347A","Tue Sep 15 2020 13:18:11 GMT-0400 (Eastern Daylight Time)","Tue Sep 15 2020 13:25:43 GMT-0400 (Eastern Daylight Time)","Mozilla/5.0 (Windows NT 10.0; Win64; x64) AppleWebKit/537.36 (KHTML, like Gecko) Chrome/85.0.4183.83 Safari/537.36",156,"[0.9, 0.5, 0.1]","[0.8, 0.4, 0.2]","[u'black', u'blue', u'red']","[u'left', u'middle', u'right']","[0.8, 0.4, 0.2]","[u'high', u'medium', u'low']","red",51,"right","low","True","False",189,5850,NA
"A1I72NHC21347A","Tue Sep 15 2020 13:18:11 GMT-0400 (Eastern Daylight Time)","Tue Sep 15 2020 13:25:43 GMT-0400 (Eastern Daylight Time)","Mozilla/5.0 (Windows NT 10.0; Win64; x64) AppleWebKit/537.36 (KHTML, like Gecko) Chrome/85.0.4183.83 Safari/537.36",157,"[0.9, 0.5, 0.1]","[0.8, 0.4, 0.2]","[u'black', u'blue', u'red']","[u'left', u'middle', u'right']","[0.8, 0.4, 0.2]","[u'high', u'medium', u'low']","red",51,"right","low","False","False",348,5800,NA
"A1I72NHC21347A","Tue Sep 15 2020 13:18:11 GMT-0400 (Eastern Daylight Time)","Tue Sep 15 2020 13:25:43 GMT-0400 (Eastern Daylight Time)","Mozilla/5.0 (Windows NT 10.0; Win64; x64) AppleWebKit/537.36 (KHTML, like Gecko) Chrome/85.0.4183.83 Safari/537.36",158,"[0.9, 0.5, 0.1]","[0.8, 0.4, 0.2]","[u'black', u'blue', u'red']","[u'left', u'middle', u'right']","[0.8, 0.4, 0.2]","[u'high', u'medium', u'low']","blue",50,"middle","medium","False","False",337,5750,NA
"A1I72NHC21347A","Tue Sep 15 2020 13:18:11 GMT-0400 (Eastern Daylight Time)","Tue Sep 15 2020 13:25:43 GMT-0400 (Eastern Daylight Time)","Mozilla/5.0 (Windows NT 10.0; Win64; x64) AppleWebKit/537.36 (KHTML, like Gecko) Chrome/85.0.4183.83 Safari/537.36",159,"[0.9, 0.5, 0.1]","[0.8, 0.4, 0.2]","[u'black', u'blue', u'red']","[u'left', u'middle', u'right']","[0.8, 0.4, 0.2]","[u'high', u'medium', u'low']","black",49,"left","high","False","False",368,5700,NA
"A1I72NHC21347A","Tue Sep 15 2020 13:18:11 GMT-0400 (Eastern Daylight Time)","Tue Sep 15 2020 13:25:43 GMT-0400 (Eastern Daylight Time)","Mozilla/5.0 (Windows NT 10.0; Win64; x64) AppleWebKit/537.36 (KHTML, like Gecko) Chrome/85.0.4183.83 Safari/537.36",160,"[0.9, 0.5, 0.1]","[0.8, 0.4, 0.2]","[u'black', u'blue', u'red']","[u'left', u'middle', u'right']","[0.8, 0.4, 0.2]","[u'high', u'medium', u'low']","red",51,"right","low","False","False",332,5650,NA
