"src_subject_id","start_time","end_time","browser","index","first_half_probabilities","second_half_probabilities","deck_color","deck_position","deck_probabilities","deck_contingencies","response_color","key_press","response_position","response_probability","reward_type","trial_type","rt","reward_tally","exclusion_reason"
"A1720HSKGQ41VJ","Tue Sep 15 2020 09:50:37 GMT-0500 (Central Daylight Time)","Tue Sep 15 2020 10:00:08 GMT-0500 (Central Daylight Time)","Mozilla/5.0 (Windows NT 10.0; Win64; x64; rv:80.0) Gecko/20100101 Firefox/80.0",1,"[0.9, 0.5, 0.1]","[0.8, 0.4, 0.2]","[u'black', u'red', u'blue']","[u'left', u'middle', u'right']","[0.9, 0.5, 0.1]","[u'low', u'high', u'medium']","black",49,"left","low","True","False",909,100,NA
"A1720HSKGQ41VJ","Tue Sep 15 2020 09:50:37 GMT-0500 (Central Daylight Time)","Tue Sep 15 2020 10:00:08 GMT-0500 (Central Daylight Time)","Mozilla/5.0 (Windows NT 10.0; Win64; x64; rv:80.0) Gecko/20100101 Firefox/80.0",2,"[0.9, 0.5, 0.1]","[0.8, 0.4, 0.2]","[u'black', u'red', u'blue']","[u'left', u'middle', u'right']","[0.9, 0.5, 0.1]","[u'low', u'high', u'medium']","black",49,"left","low","False","False",492,50,NA
"A1720HSKGQ41VJ","Tue Sep 15 2020 09:50:37 GMT-0500 (Central Daylight Time)","Tue Sep 15 2020 10:00:08 GMT-0500 (Central Daylight Time)","Mozilla/5.0 (Windows NT 10.0; Win64; x64; rv:80.0) Gecko/20100101 Firefox/80.0",3,"[0.9, 0.5, 0.1]","[0.8, 0.4, 0.2]","[u'black', u'red', u'blue']","[u'left', u'middle', u'right']","[0.9, 0.5, 0.1]","[u'low', u'high', u'medium']","black",49,"left","low","False","False",471,0,NA
"A1720HSKGQ41VJ","Tue Sep 15 2020 09:50:37 GMT-0500 (Central Daylight Time)","Tue Sep 15 2020 10:00:08 GMT-0500 (Central Daylight Time)","Mozilla/5.0 (Windows NT 10.0; Win64; x64; rv:80.0) Gecko/20100101 Firefox/80.0",4,"[0.9, 0.5, 0.1]","[0.8, 0.4, 0.2]","[u'black', u'red', u'blue']","[u'left', u'middle', u'right']","[0.9, 0.5, 0.1]","[u'low', u'high', u'medium']","red",50,"middle","high","True","False",319,100,NA
"A1720HSKGQ41VJ","Tue Sep 15 2020 09:50:37 GMT-0500 (Central Daylight Time)","Tue Sep 15 2020 10:00:08 GMT-0500 (Central Daylight Time)","Mozilla/5.0 (Windows NT 10.0; Win64; x64; rv:80.0) Gecko/20100101 Firefox/80.0",5,"[0.9, 0.5, 0.1]","[0.8, 0.4, 0.2]","[u'black', u'red', u'blue']","[u'left', u'middle', u'right']","[0.9, 0.5, 0.1]","[u'low', u'high', u'medium']","red",50,"middle","high","True","False",419,200,NA
"A1720HSKGQ41VJ","Tue Sep 15 2020 09:50:37 GMT-0500 (Central Daylight Time)","Tue Sep 15 2020 10:00:08 GMT-0500 (Central Daylight Time)","Mozilla/5.0 (Windows NT 10.0; Win64; x64; rv:80.0) Gecko/20100101 Firefox/80.0",6,"[0.9, 0.5, 0.1]","[0.8, 0.4, 0.2]","[u'black', u'red', u'blue']","[u'left', u'middle', u'right']","[0.9, 0.5, 0.1]","[u'low', u'high', u'medium']","red",50,"middle","high","True","False",444,300,NA
"A1720HSKGQ41VJ","Tue Sep 15 2020 09:50:37 GMT-0500 (Central Daylight Time)","Tue Sep 15 2020 10:00:08 GMT-0500 (Central Daylight Time)","Mozilla/5.0 (Windows NT 10.0; Win64; x64; rv:80.0) Gecko/20100101 Firefox/80.0",7,"[0.9, 0.5, 0.1]","[0.8, 0.4, 0.2]","[u'black', u'red', u'blue']","[u'left', u'middle', u'right']","[0.9, 0.5, 0.1]","[u'low', u'high', u'medium']","red",50,"middle","high","False","False",469,250,NA
"A1720HSKGQ41VJ","Tue Sep 15 2020 09:50:37 GMT-0500 (Central Daylight Time)","Tue Sep 15 2020 10:00:08 GMT-0500 (Central Daylight Time)","Mozilla/5.0 (Windows NT 10.0; Win64; x64; rv:80.0) Gecko/20100101 Firefox/80.0",8,"[0.9, 0.5, 0.1]","[0.8, 0.4, 0.2]","[u'black', u'red', u'blue']","[u'left', u'middle', u'right']","[0.9, 0.5, 0.1]","[u'low', u'high', u'medium']","blue",51,"right","medium","False","False",310,200,NA
"A1720HSKGQ41VJ","Tue Sep 15 2020 09:50:37 GMT-0500 (Central Daylight Time)","Tue Sep 15 2020 10:00:08 GMT-0500 (Central Daylight Time)","Mozilla/5.0 (Windows NT 10.0; Win64; x64; rv:80.0) Gecko/20100101 Firefox/80.0",9,"[0.9, 0.5, 0.1]","[0.8, 0.4, 0.2]","[u'black', u'red', u'blue']","[u'left', u'middle', u'right']","[0.9, 0.5, 0.1]","[u'low', u'high', u'medium']","black",49,"left","low","False","False",64,150,NA
"A1720HSKGQ41VJ","Tue Sep 15 2020 09:50:37 GMT-0500 (Central Daylight Time)","Tue Sep 15 2020 10:00:08 GMT-0500 (Central Daylight Time)","Mozilla/5.0 (Windows NT 10.0; Win64; x64; rv:80.0) Gecko/20100101 Firefox/80.0",10,"[0.9, 0.5, 0.1]","[0.8, 0.4, 0.2]","[u'black', u'red', u'blue']","[u'left', u'middle', u'right']","[0.9, 0.5, 0.1]","[u'low', u'high', u'medium']","red",50,"middle","high","True","False",478,250,NA
"A1720HSKGQ41VJ","Tue Sep 15 2020 09:50:37 GMT-0500 (Central Daylight Time)","Tue Sep 15 2020 10:00:08 GMT-0500 (Central Daylight Time)","Mozilla/5.0 (Windows NT 10.0; Win64; x64; rv:80.0) Gecko/20100101 Firefox/80.0",11,"[0.9, 0.5, 0.1]","[0.8, 0.4, 0.2]","[u'black', u'red', u'blue']","[u'left', u'middle', u'right']","[0.9, 0.5, 0.1]","[u'low', u'high', u'medium']","red",50,"middle","high","True","False",454,350,NA
"A1720HSKGQ41VJ","Tue Sep 15 2020 09:50:37 GMT-0500 (Central Daylight Time)","Tue Sep 15 2020 10:00:08 GMT-0500 (Central Daylight Time)","Mozilla/5.0 (Windows NT 10.0; Win64; x64; rv:80.0) Gecko/20100101 Firefox/80.0",12,"[0.9, 0.5, 0.1]","[0.8, 0.4, 0.2]","[u'black', u'red', u'blue']","[u'left', u'middle', u'right']","[0.9, 0.5, 0.1]","[u'low', u'high', u'medium']","red",50,"middle","high","True","False",374,450,NA
"A1720HSKGQ41VJ","Tue Sep 15 2020 09:50:37 GMT-0500 (Central Daylight Time)","Tue Sep 15 2020 10:00:08 GMT-0500 (Central Daylight Time)","Mozilla/5.0 (Windows NT 10.0; Win64; x64; rv:80.0) Gecko/20100101 Firefox/80.0",13,"[0.9, 0.5, 0.1]","[0.8, 0.4, 0.2]","[u'black', u'red', u'blue']","[u'left', u'middle', u'right']","[0.9, 0.5, 0.1]","[u'low', u'high', u'medium']","red",50,"middle","high","True","False",356,550,NA
"A1720HSKGQ41VJ","Tue Sep 15 2020 09:50:37 GMT-0500 (Central Daylight Time)","Tue Sep 15 2020 10:00:08 GMT-0500 (Central Daylight Time)","Mozilla/5.0 (Windows NT 10.0; Win64; x64; rv:80.0) Gecko/20100101 Firefox/80.0",14,"[0.9, 0.5, 0.1]","[0.8, 0.4, 0.2]","[u'black', u'red', u'blue']","[u'left', u'middle', u'right']","[0.9, 0.5, 0.1]","[u'low', u'high', u'medium']","red",50,"middle","high","True","False",144,650,NA
"A1720HSKGQ41VJ","Tue Sep 15 2020 09:50:37 GMT-0500 (Central Daylight Time)","Tue Sep 15 2020 10:00:08 GMT-0500 (Central Daylight Time)","Mozilla/5.0 (Windows NT 10.0; Win64; x64; rv:80.0) Gecko/20100101 Firefox/80.0",15,"[0.9, 0.5, 0.1]","[0.8, 0.4, 0.2]","[u'black', u'red', u'blue']","[u'left', u'middle', u'right']","[0.9, 0.5, 0.1]","[u'low', u'high', u'medium']","red",50,"middle","high","True","False",461,750,NA
"A1720HSKGQ41VJ","Tue Sep 15 2020 09:50:37 GMT-0500 (Central Daylight Time)","Tue Sep 15 2020 10:00:08 GMT-0500 (Central Daylight Time)","Mozilla/5.0 (Windows NT 10.0; Win64; x64; rv:80.0) Gecko/20100101 Firefox/80.0",16,"[0.9, 0.5, 0.1]","[0.8, 0.4, 0.2]","[u'black', u'red', u'blue']","[u'left', u'middle', u'right']","[0.9, 0.5, 0.1]","[u'low', u'high', u'medium']","red",50,"middle","high","True","False",588,850,NA
"A1720HSKGQ41VJ","Tue Sep 15 2020 09:50:37 GMT-0500 (Central Daylight Time)","Tue Sep 15 2020 10:00:08 GMT-0500 (Central Daylight Time)","Mozilla/5.0 (Windows NT 10.0; Win64; x64; rv:80.0) Gecko/20100101 Firefox/80.0",17,"[0.9, 0.5, 0.1]","[0.8, 0.4, 0.2]","[u'black', u'red', u'blue']","[u'left', u'middle', u'right']","[0.9, 0.5, 0.1]","[u'low', u'high', u'medium']","red",50,"middle","high","True","False",414,950,NA
"A1720HSKGQ41VJ","Tue Sep 15 2020 09:50:37 GMT-0500 (Central Daylight Time)","Tue Sep 15 2020 10:00:08 GMT-0500 (Central Daylight Time)","Mozilla/5.0 (Windows NT 10.0; Win64; x64; rv:80.0) Gecko/20100101 Firefox/80.0",18,"[0.9, 0.5, 0.1]","[0.8, 0.4, 0.2]","[u'black', u'red', u'blue']","[u'left', u'middle', u'right']","[0.9, 0.5, 0.1]","[u'low', u'high', u'medium']","red",50,"middle","high","True","True",364,1050,NA
"A1720HSKGQ41VJ","Tue Sep 15 2020 09:50:37 GMT-0500 (Central Daylight Time)","Tue Sep 15 2020 10:00:08 GMT-0500 (Central Daylight Time)","Mozilla/5.0 (Windows NT 10.0; Win64; x64; rv:80.0) Gecko/20100101 Firefox/80.0",19,"[0.9, 0.5, 0.1]","[0.8, 0.4, 0.2]","[u'black', u'red', u'blue']","[u'left', u'middle', u'right']","[0.9, 0.5, 0.1]","[u'low', u'medium', u'high']","red",50,"middle","medium","False","False",380,1000,NA
"A1720HSKGQ41VJ","Tue Sep 15 2020 09:50:37 GMT-0500 (Central Daylight Time)","Tue Sep 15 2020 10:00:08 GMT-0500 (Central Daylight Time)","Mozilla/5.0 (Windows NT 10.0; Win64; x64; rv:80.0) Gecko/20100101 Firefox/80.0",20,"[0.9, 0.5, 0.1]","[0.8, 0.4, 0.2]","[u'black', u'red', u'blue']","[u'left', u'middle', u'right']","[0.9, 0.5, 0.1]","[u'low', u'medium', u'high']","red",50,"middle","medium","False","False",400,950,NA
"A1720HSKGQ41VJ","Tue Sep 15 2020 09:50:37 GMT-0500 (Central Daylight Time)","Tue Sep 15 2020 10:00:08 GMT-0500 (Central Daylight Time)","Mozilla/5.0 (Windows NT 10.0; Win64; x64; rv:80.0) Gecko/20100101 Firefox/80.0",21,"[0.9, 0.5, 0.1]","[0.8, 0.4, 0.2]","[u'black', u'red', u'blue']","[u'left', u'middle', u'right']","[0.9, 0.5, 0.1]","[u'low', u'medium', u'high']","black",49,"left","low","False","False",347,900,NA
"A1720HSKGQ41VJ","Tue Sep 15 2020 09:50:37 GMT-0500 (Central Daylight Time)","Tue Sep 15 2020 10:00:08 GMT-0500 (Central Daylight Time)","Mozilla/5.0 (Windows NT 10.0; Win64; x64; rv:80.0) Gecko/20100101 Firefox/80.0",22,"[0.9, 0.5, 0.1]","[0.8, 0.4, 0.2]","[u'black', u'red', u'blue']","[u'left', u'middle', u'right']","[0.9, 0.5, 0.1]","[u'low', u'medium', u'high']","blue",51,"right","high","True","False",299,1000,NA
"A1720HSKGQ41VJ","Tue Sep 15 2020 09:50:37 GMT-0500 (Central Daylight Time)","Tue Sep 15 2020 10:00:08 GMT-0500 (Central Daylight Time)","Mozilla/5.0 (Windows NT 10.0; Win64; x64; rv:80.0) Gecko/20100101 Firefox/80.0",23,"[0.9, 0.5, 0.1]","[0.8, 0.4, 0.2]","[u'black', u'red', u'blue']","[u'left', u'middle', u'right']","[0.9, 0.5, 0.1]","[u'low', u'medium', u'high']","blue",51,"right","high","True","False",294,1100,NA
"A1720HSKGQ41VJ","Tue Sep 15 2020 09:50:37 GMT-0500 (Central Daylight Time)","Tue Sep 15 2020 10:00:08 GMT-0500 (Central Daylight Time)","Mozilla/5.0 (Windows NT 10.0; Win64; x64; rv:80.0) Gecko/20100101 Firefox/80.0",24,"[0.9, 0.5, 0.1]","[0.8, 0.4, 0.2]","[u'black', u'red', u'blue']","[u'left', u'middle', u'right']","[0.9, 0.5, 0.1]","[u'low', u'medium', u'high']","blue",51,"right","high","True","False",371,1200,NA
"A1720HSKGQ41VJ","Tue Sep 15 2020 09:50:37 GMT-0500 (Central Daylight Time)","Tue Sep 15 2020 10:00:08 GMT-0500 (Central Daylight Time)","Mozilla/5.0 (Windows NT 10.0; Win64; x64; rv:80.0) Gecko/20100101 Firefox/80.0",25,"[0.9, 0.5, 0.1]","[0.8, 0.4, 0.2]","[u'black', u'red', u'blue']","[u'left', u'middle', u'right']","[0.9, 0.5, 0.1]","[u'low', u'medium', u'high']","blue",51,"right","high","False","False",306,1150,NA
"A1720HSKGQ41VJ","Tue Sep 15 2020 09:50:37 GMT-0500 (Central Daylight Time)","Tue Sep 15 2020 10:00:08 GMT-0500 (Central Daylight Time)","Mozilla/5.0 (Windows NT 10.0; Win64; x64; rv:80.0) Gecko/20100101 Firefox/80.0",26,"[0.9, 0.5, 0.1]","[0.8, 0.4, 0.2]","[u'black', u'red', u'blue']","[u'left', u'middle', u'right']","[0.9, 0.5, 0.1]","[u'low', u'medium', u'high']","blue",51,"right","high","True","False",320,1250,NA
"A1720HSKGQ41VJ","Tue Sep 15 2020 09:50:37 GMT-0500 (Central Daylight Time)","Tue Sep 15 2020 10:00:08 GMT-0500 (Central Daylight Time)","Mozilla/5.0 (Windows NT 10.0; Win64; x64; rv:80.0) Gecko/20100101 Firefox/80.0",27,"[0.9, 0.5, 0.1]","[0.8, 0.4, 0.2]","[u'black', u'red', u'blue']","[u'left', u'middle', u'right']","[0.9, 0.5, 0.1]","[u'low', u'medium', u'high']","blue",51,"right","high","True","False",273,1350,NA
"A1720HSKGQ41VJ","Tue Sep 15 2020 09:50:37 GMT-0500 (Central Daylight Time)","Tue Sep 15 2020 10:00:08 GMT-0500 (Central Daylight Time)","Mozilla/5.0 (Windows NT 10.0; Win64; x64; rv:80.0) Gecko/20100101 Firefox/80.0",28,"[0.9, 0.5, 0.1]","[0.8, 0.4, 0.2]","[u'black', u'red', u'blue']","[u'left', u'middle', u'right']","[0.9, 0.5, 0.1]","[u'low', u'medium', u'high']","blue",51,"right","high","True","False",341,1450,NA
"A1720HSKGQ41VJ","Tue Sep 15 2020 09:50:37 GMT-0500 (Central Daylight Time)","Tue Sep 15 2020 10:00:08 GMT-0500 (Central Daylight Time)","Mozilla/5.0 (Windows NT 10.0; Win64; x64; rv:80.0) Gecko/20100101 Firefox/80.0",29,"[0.9, 0.5, 0.1]","[0.8, 0.4, 0.2]","[u'black', u'red', u'blue']","[u'left', u'middle', u'right']","[0.9, 0.5, 0.1]","[u'low', u'medium', u'high']","blue",51,"right","high","True","False",270,1550,NA
"A1720HSKGQ41VJ","Tue Sep 15 2020 09:50:37 GMT-0500 (Central Daylight Time)","Tue Sep 15 2020 10:00:08 GMT-0500 (Central Daylight Time)","Mozilla/5.0 (Windows NT 10.0; Win64; x64; rv:80.0) Gecko/20100101 Firefox/80.0",30,"[0.9, 0.5, 0.1]","[0.8, 0.4, 0.2]","[u'black', u'red', u'blue']","[u'left', u'middle', u'right']","[0.9, 0.5, 0.1]","[u'low', u'medium', u'high']","blue",51,"right","high","True","True",282,1650,NA
"A1720HSKGQ41VJ","Tue Sep 15 2020 09:50:37 GMT-0500 (Central Daylight Time)","Tue Sep 15 2020 10:00:08 GMT-0500 (Central Daylight Time)","Mozilla/5.0 (Windows NT 10.0; Win64; x64; rv:80.0) Gecko/20100101 Firefox/80.0",31,"[0.9, 0.5, 0.1]","[0.8, 0.4, 0.2]","[u'black', u'red', u'blue']","[u'left', u'middle', u'right']","[0.9, 0.5, 0.1]","[u'low', u'high', u'medium']","blue",51,"right","medium","True","False",300,1750,NA
"A1720HSKGQ41VJ","Tue Sep 15 2020 09:50:37 GMT-0500 (Central Daylight Time)","Tue Sep 15 2020 10:00:08 GMT-0500 (Central Daylight Time)","Mozilla/5.0 (Windows NT 10.0; Win64; x64; rv:80.0) Gecko/20100101 Firefox/80.0",32,"[0.9, 0.5, 0.1]","[0.8, 0.4, 0.2]","[u'black', u'red', u'blue']","[u'left', u'middle', u'right']","[0.9, 0.5, 0.1]","[u'low', u'high', u'medium']","blue",51,"right","medium","True","False",321,1850,NA
"A1720HSKGQ41VJ","Tue Sep 15 2020 09:50:37 GMT-0500 (Central Daylight Time)","Tue Sep 15 2020 10:00:08 GMT-0500 (Central Daylight Time)","Mozilla/5.0 (Windows NT 10.0; Win64; x64; rv:80.0) Gecko/20100101 Firefox/80.0",33,"[0.9, 0.5, 0.1]","[0.8, 0.4, 0.2]","[u'black', u'red', u'blue']","[u'left', u'middle', u'right']","[0.9, 0.5, 0.1]","[u'low', u'high', u'medium']","blue",51,"right","medium","False","False",426,1800,NA
"A1720HSKGQ41VJ","Tue Sep 15 2020 09:50:37 GMT-0500 (Central Daylight Time)","Tue Sep 15 2020 10:00:08 GMT-0500 (Central Daylight Time)","Mozilla/5.0 (Windows NT 10.0; Win64; x64; rv:80.0) Gecko/20100101 Firefox/80.0",34,"[0.9, 0.5, 0.1]","[0.8, 0.4, 0.2]","[u'black', u'red', u'blue']","[u'left', u'middle', u'right']","[0.9, 0.5, 0.1]","[u'low', u'high', u'medium']","blue",51,"right","medium","True","False",242,1900,NA
"A1720HSKGQ41VJ","Tue Sep 15 2020 09:50:37 GMT-0500 (Central Daylight Time)","Tue Sep 15 2020 10:00:08 GMT-0500 (Central Daylight Time)","Mozilla/5.0 (Windows NT 10.0; Win64; x64; rv:80.0) Gecko/20100101 Firefox/80.0",35,"[0.9, 0.5, 0.1]","[0.8, 0.4, 0.2]","[u'black', u'red', u'blue']","[u'left', u'middle', u'right']","[0.9, 0.5, 0.1]","[u'low', u'high', u'medium']","blue",51,"right","medium","True","False",279,2000,NA
"A1720HSKGQ41VJ","Tue Sep 15 2020 09:50:37 GMT-0500 (Central Daylight Time)","Tue Sep 15 2020 10:00:08 GMT-0500 (Central Daylight Time)","Mozilla/5.0 (Windows NT 10.0; Win64; x64; rv:80.0) Gecko/20100101 Firefox/80.0",36,"[0.9, 0.5, 0.1]","[0.8, 0.4, 0.2]","[u'black', u'red', u'blue']","[u'left', u'middle', u'right']","[0.9, 0.5, 0.1]","[u'low', u'high', u'medium']","blue",51,"right","medium","True","False",307,2100,NA
"A1720HSKGQ41VJ","Tue Sep 15 2020 09:50:37 GMT-0500 (Central Daylight Time)","Tue Sep 15 2020 10:00:08 GMT-0500 (Central Daylight Time)","Mozilla/5.0 (Windows NT 10.0; Win64; x64; rv:80.0) Gecko/20100101 Firefox/80.0",37,"[0.9, 0.5, 0.1]","[0.8, 0.4, 0.2]","[u'black', u'red', u'blue']","[u'left', u'middle', u'right']","[0.9, 0.5, 0.1]","[u'low', u'high', u'medium']","blue",51,"right","medium","True","False",290,2200,NA
"A1720HSKGQ41VJ","Tue Sep 15 2020 09:50:37 GMT-0500 (Central Daylight Time)","Tue Sep 15 2020 10:00:08 GMT-0500 (Central Daylight Time)","Mozilla/5.0 (Windows NT 10.0; Win64; x64; rv:80.0) Gecko/20100101 Firefox/80.0",38,"[0.9, 0.5, 0.1]","[0.8, 0.4, 0.2]","[u'black', u'red', u'blue']","[u'left', u'middle', u'right']","[0.9, 0.5, 0.1]","[u'low', u'high', u'medium']","blue",51,"right","medium","False","False",291,2150,NA
"A1720HSKGQ41VJ","Tue Sep 15 2020 09:50:37 GMT-0500 (Central Daylight Time)","Tue Sep 15 2020 10:00:08 GMT-0500 (Central Daylight Time)","Mozilla/5.0 (Windows NT 10.0; Win64; x64; rv:80.0) Gecko/20100101 Firefox/80.0",39,"[0.9, 0.5, 0.1]","[0.8, 0.4, 0.2]","[u'black', u'red', u'blue']","[u'left', u'middle', u'right']","[0.9, 0.5, 0.1]","[u'low', u'high', u'medium']","blue",51,"right","medium","False","False",152,2100,NA
"A1720HSKGQ41VJ","Tue Sep 15 2020 09:50:37 GMT-0500 (Central Daylight Time)","Tue Sep 15 2020 10:00:08 GMT-0500 (Central Daylight Time)","Mozilla/5.0 (Windows NT 10.0; Win64; x64; rv:80.0) Gecko/20100101 Firefox/80.0",40,"[0.9, 0.5, 0.1]","[0.8, 0.4, 0.2]","[u'black', u'red', u'blue']","[u'left', u'middle', u'right']","[0.9, 0.5, 0.1]","[u'low', u'high', u'medium']","red",50,"middle","high","True","False",149,2200,NA
"A1720HSKGQ41VJ","Tue Sep 15 2020 09:50:37 GMT-0500 (Central Daylight Time)","Tue Sep 15 2020 10:00:08 GMT-0500 (Central Daylight Time)","Mozilla/5.0 (Windows NT 10.0; Win64; x64; rv:80.0) Gecko/20100101 Firefox/80.0",41,"[0.9, 0.5, 0.1]","[0.8, 0.4, 0.2]","[u'black', u'red', u'blue']","[u'left', u'middle', u'right']","[0.9, 0.5, 0.1]","[u'high', u'medium', u'low']","red",50,"middle","medium","True","False",987,2300,NA
"A1720HSKGQ41VJ","Tue Sep 15 2020 09:50:37 GMT-0500 (Central Daylight Time)","Tue Sep 15 2020 10:00:08 GMT-0500 (Central Daylight Time)","Mozilla/5.0 (Windows NT 10.0; Win64; x64; rv:80.0) Gecko/20100101 Firefox/80.0",42,"[0.9, 0.5, 0.1]","[0.8, 0.4, 0.2]","[u'black', u'red', u'blue']","[u'left', u'middle', u'right']","[0.9, 0.5, 0.1]","[u'high', u'medium', u'low']","red",50,"middle","medium","False","False",310,2250,NA
"A1720HSKGQ41VJ","Tue Sep 15 2020 09:50:37 GMT-0500 (Central Daylight Time)","Tue Sep 15 2020 10:00:08 GMT-0500 (Central Daylight Time)","Mozilla/5.0 (Windows NT 10.0; Win64; x64; rv:80.0) Gecko/20100101 Firefox/80.0",43,"[0.9, 0.5, 0.1]","[0.8, 0.4, 0.2]","[u'black', u'red', u'blue']","[u'left', u'middle', u'right']","[0.9, 0.5, 0.1]","[u'high', u'medium', u'low']","red",50,"middle","medium","False","False",307,2200,NA
"A1720HSKGQ41VJ","Tue Sep 15 2020 09:50:37 GMT-0500 (Central Daylight Time)","Tue Sep 15 2020 10:00:08 GMT-0500 (Central Daylight Time)","Mozilla/5.0 (Windows NT 10.0; Win64; x64; rv:80.0) Gecko/20100101 Firefox/80.0",44,"[0.9, 0.5, 0.1]","[0.8, 0.4, 0.2]","[u'black', u'red', u'blue']","[u'left', u'middle', u'right']","[0.9, 0.5, 0.1]","[u'high', u'medium', u'low']","black",49,"left","high","True","False",167,2300,NA
"A1720HSKGQ41VJ","Tue Sep 15 2020 09:50:37 GMT-0500 (Central Daylight Time)","Tue Sep 15 2020 10:00:08 GMT-0500 (Central Daylight Time)","Mozilla/5.0 (Windows NT 10.0; Win64; x64; rv:80.0) Gecko/20100101 Firefox/80.0",45,"[0.9, 0.5, 0.1]","[0.8, 0.4, 0.2]","[u'black', u'red', u'blue']","[u'left', u'middle', u'right']","[0.9, 0.5, 0.1]","[u'high', u'medium', u'low']","black",49,"left","high","True","False",275,2400,NA
"A1720HSKGQ41VJ","Tue Sep 15 2020 09:50:37 GMT-0500 (Central Daylight Time)","Tue Sep 15 2020 10:00:08 GMT-0500 (Central Daylight Time)","Mozilla/5.0 (Windows NT 10.0; Win64; x64; rv:80.0) Gecko/20100101 Firefox/80.0",46,"[0.9, 0.5, 0.1]","[0.8, 0.4, 0.2]","[u'black', u'red', u'blue']","[u'left', u'middle', u'right']","[0.9, 0.5, 0.1]","[u'high', u'medium', u'low']","black",49,"left","high","True","False",396,2500,NA
"A1720HSKGQ41VJ","Tue Sep 15 2020 09:50:37 GMT-0500 (Central Daylight Time)","Tue Sep 15 2020 10:00:08 GMT-0500 (Central Daylight Time)","Mozilla/5.0 (Windows NT 10.0; Win64; x64; rv:80.0) Gecko/20100101 Firefox/80.0",47,"[0.9, 0.5, 0.1]","[0.8, 0.4, 0.2]","[u'black', u'red', u'blue']","[u'left', u'middle', u'right']","[0.9, 0.5, 0.1]","[u'high', u'medium', u'low']","black",49,"left","high","False","False",117,2450,NA
"A1720HSKGQ41VJ","Tue Sep 15 2020 09:50:37 GMT-0500 (Central Daylight Time)","Tue Sep 15 2020 10:00:08 GMT-0500 (Central Daylight Time)","Mozilla/5.0 (Windows NT 10.0; Win64; x64; rv:80.0) Gecko/20100101 Firefox/80.0",48,"[0.9, 0.5, 0.1]","[0.8, 0.4, 0.2]","[u'black', u'red', u'blue']","[u'left', u'middle', u'right']","[0.9, 0.5, 0.1]","[u'high', u'medium', u'low']","black",49,"left","high","True","False",195,2550,NA
"A1720HSKGQ41VJ","Tue Sep 15 2020 09:50:37 GMT-0500 (Central Daylight Time)","Tue Sep 15 2020 10:00:08 GMT-0500 (Central Daylight Time)","Mozilla/5.0 (Windows NT 10.0; Win64; x64; rv:80.0) Gecko/20100101 Firefox/80.0",49,"[0.9, 0.5, 0.1]","[0.8, 0.4, 0.2]","[u'black', u'red', u'blue']","[u'left', u'middle', u'right']","[0.9, 0.5, 0.1]","[u'high', u'medium', u'low']","black",49,"left","high","True","False",267,2650,NA
"A1720HSKGQ41VJ","Tue Sep 15 2020 09:50:37 GMT-0500 (Central Daylight Time)","Tue Sep 15 2020 10:00:08 GMT-0500 (Central Daylight Time)","Mozilla/5.0 (Windows NT 10.0; Win64; x64; rv:80.0) Gecko/20100101 Firefox/80.0",50,"[0.9, 0.5, 0.1]","[0.8, 0.4, 0.2]","[u'black', u'red', u'blue']","[u'left', u'middle', u'right']","[0.9, 0.5, 0.1]","[u'high', u'medium', u'low']","black",49,"left","high","True","False",267,2750,NA
"A1720HSKGQ41VJ","Tue Sep 15 2020 09:50:37 GMT-0500 (Central Daylight Time)","Tue Sep 15 2020 10:00:08 GMT-0500 (Central Daylight Time)","Mozilla/5.0 (Windows NT 10.0; Win64; x64; rv:80.0) Gecko/20100101 Firefox/80.0",51,"[0.9, 0.5, 0.1]","[0.8, 0.4, 0.2]","[u'black', u'red', u'blue']","[u'left', u'middle', u'right']","[0.9, 0.5, 0.1]","[u'high', u'medium', u'low']","black",49,"left","high","True","False",256,2850,NA
"A1720HSKGQ41VJ","Tue Sep 15 2020 09:50:37 GMT-0500 (Central Daylight Time)","Tue Sep 15 2020 10:00:08 GMT-0500 (Central Daylight Time)","Mozilla/5.0 (Windows NT 10.0; Win64; x64; rv:80.0) Gecko/20100101 Firefox/80.0",52,"[0.9, 0.5, 0.1]","[0.8, 0.4, 0.2]","[u'black', u'red', u'blue']","[u'left', u'middle', u'right']","[0.9, 0.5, 0.1]","[u'high', u'medium', u'low']","black",49,"left","high","True","True",228,2950,NA
"A1720HSKGQ41VJ","Tue Sep 15 2020 09:50:37 GMT-0500 (Central Daylight Time)","Tue Sep 15 2020 10:00:08 GMT-0500 (Central Daylight Time)","Mozilla/5.0 (Windows NT 10.0; Win64; x64; rv:80.0) Gecko/20100101 Firefox/80.0",53,"[0.9, 0.5, 0.1]","[0.8, 0.4, 0.2]","[u'black', u'red', u'blue']","[u'left', u'middle', u'right']","[0.9, 0.5, 0.1]","[u'medium', u'high', u'low']","black",49,"left","medium","False","False",255,2900,NA
"A1720HSKGQ41VJ","Tue Sep 15 2020 09:50:37 GMT-0500 (Central Daylight Time)","Tue Sep 15 2020 10:00:08 GMT-0500 (Central Daylight Time)","Mozilla/5.0 (Windows NT 10.0; Win64; x64; rv:80.0) Gecko/20100101 Firefox/80.0",54,"[0.9, 0.5, 0.1]","[0.8, 0.4, 0.2]","[u'black', u'red', u'blue']","[u'left', u'middle', u'right']","[0.9, 0.5, 0.1]","[u'medium', u'high', u'low']","black",49,"left","medium","True","False",216,3000,NA
"A1720HSKGQ41VJ","Tue Sep 15 2020 09:50:37 GMT-0500 (Central Daylight Time)","Tue Sep 15 2020 10:00:08 GMT-0500 (Central Daylight Time)","Mozilla/5.0 (Windows NT 10.0; Win64; x64; rv:80.0) Gecko/20100101 Firefox/80.0",55,"[0.9, 0.5, 0.1]","[0.8, 0.4, 0.2]","[u'black', u'red', u'blue']","[u'left', u'middle', u'right']","[0.9, 0.5, 0.1]","[u'medium', u'high', u'low']","black",49,"left","medium","False","False",262,2950,NA
"A1720HSKGQ41VJ","Tue Sep 15 2020 09:50:37 GMT-0500 (Central Daylight Time)","Tue Sep 15 2020 10:00:08 GMT-0500 (Central Daylight Time)","Mozilla/5.0 (Windows NT 10.0; Win64; x64; rv:80.0) Gecko/20100101 Firefox/80.0",56,"[0.9, 0.5, 0.1]","[0.8, 0.4, 0.2]","[u'black', u'red', u'blue']","[u'left', u'middle', u'right']","[0.9, 0.5, 0.1]","[u'medium', u'high', u'low']","black",49,"left","medium","True","False",303,3050,NA
"A1720HSKGQ41VJ","Tue Sep 15 2020 09:50:37 GMT-0500 (Central Daylight Time)","Tue Sep 15 2020 10:00:08 GMT-0500 (Central Daylight Time)","Mozilla/5.0 (Windows NT 10.0; Win64; x64; rv:80.0) Gecko/20100101 Firefox/80.0",57,"[0.9, 0.5, 0.1]","[0.8, 0.4, 0.2]","[u'black', u'red', u'blue']","[u'left', u'middle', u'right']","[0.9, 0.5, 0.1]","[u'medium', u'high', u'low']","black",49,"left","medium","False","False",332,3000,NA
"A1720HSKGQ41VJ","Tue Sep 15 2020 09:50:37 GMT-0500 (Central Daylight Time)","Tue Sep 15 2020 10:00:08 GMT-0500 (Central Daylight Time)","Mozilla/5.0 (Windows NT 10.0; Win64; x64; rv:80.0) Gecko/20100101 Firefox/80.0",58,"[0.9, 0.5, 0.1]","[0.8, 0.4, 0.2]","[u'black', u'red', u'blue']","[u'left', u'middle', u'right']","[0.9, 0.5, 0.1]","[u'medium', u'high', u'low']","black",49,"left","medium","False","False",301,2950,NA
"A1720HSKGQ41VJ","Tue Sep 15 2020 09:50:37 GMT-0500 (Central Daylight Time)","Tue Sep 15 2020 10:00:08 GMT-0500 (Central Daylight Time)","Mozilla/5.0 (Windows NT 10.0; Win64; x64; rv:80.0) Gecko/20100101 Firefox/80.0",59,"[0.9, 0.5, 0.1]","[0.8, 0.4, 0.2]","[u'black', u'red', u'blue']","[u'left', u'middle', u'right']","[0.9, 0.5, 0.1]","[u'medium', u'high', u'low']","blue",51,"right","low","False","False",270,2900,NA
"A1720HSKGQ41VJ","Tue Sep 15 2020 09:50:37 GMT-0500 (Central Daylight Time)","Tue Sep 15 2020 10:00:08 GMT-0500 (Central Daylight Time)","Mozilla/5.0 (Windows NT 10.0; Win64; x64; rv:80.0) Gecko/20100101 Firefox/80.0",60,"[0.9, 0.5, 0.1]","[0.8, 0.4, 0.2]","[u'black', u'red', u'blue']","[u'left', u'middle', u'right']","[0.9, 0.5, 0.1]","[u'medium', u'high', u'low']","red",50,"middle","high","True","False",222,3000,NA
"A1720HSKGQ41VJ","Tue Sep 15 2020 09:50:37 GMT-0500 (Central Daylight Time)","Tue Sep 15 2020 10:00:08 GMT-0500 (Central Daylight Time)","Mozilla/5.0 (Windows NT 10.0; Win64; x64; rv:80.0) Gecko/20100101 Firefox/80.0",61,"[0.9, 0.5, 0.1]","[0.8, 0.4, 0.2]","[u'black', u'red', u'blue']","[u'left', u'middle', u'right']","[0.9, 0.5, 0.1]","[u'medium', u'high', u'low']","red",50,"middle","high","True","False",222,3100,NA
"A1720HSKGQ41VJ","Tue Sep 15 2020 09:50:37 GMT-0500 (Central Daylight Time)","Tue Sep 15 2020 10:00:08 GMT-0500 (Central Daylight Time)","Mozilla/5.0 (Windows NT 10.0; Win64; x64; rv:80.0) Gecko/20100101 Firefox/80.0",62,"[0.9, 0.5, 0.1]","[0.8, 0.4, 0.2]","[u'black', u'red', u'blue']","[u'left', u'middle', u'right']","[0.9, 0.5, 0.1]","[u'medium', u'high', u'low']","red",50,"middle","high","True","False",413,3200,NA
"A1720HSKGQ41VJ","Tue Sep 15 2020 09:50:37 GMT-0500 (Central Daylight Time)","Tue Sep 15 2020 10:00:08 GMT-0500 (Central Daylight Time)","Mozilla/5.0 (Windows NT 10.0; Win64; x64; rv:80.0) Gecko/20100101 Firefox/80.0",63,"[0.9, 0.5, 0.1]","[0.8, 0.4, 0.2]","[u'black', u'red', u'blue']","[u'left', u'middle', u'right']","[0.9, 0.5, 0.1]","[u'medium', u'high', u'low']","red",50,"middle","high","True","False",286,3300,NA
"A1720HSKGQ41VJ","Tue Sep 15 2020 09:50:37 GMT-0500 (Central Daylight Time)","Tue Sep 15 2020 10:00:08 GMT-0500 (Central Daylight Time)","Mozilla/5.0 (Windows NT 10.0; Win64; x64; rv:80.0) Gecko/20100101 Firefox/80.0",64,"[0.9, 0.5, 0.1]","[0.8, 0.4, 0.2]","[u'black', u'red', u'blue']","[u'left', u'middle', u'right']","[0.9, 0.5, 0.1]","[u'medium', u'high', u'low']","red",50,"middle","high","True","False",260,3400,NA
"A1720HSKGQ41VJ","Tue Sep 15 2020 09:50:37 GMT-0500 (Central Daylight Time)","Tue Sep 15 2020 10:00:08 GMT-0500 (Central Daylight Time)","Mozilla/5.0 (Windows NT 10.0; Win64; x64; rv:80.0) Gecko/20100101 Firefox/80.0",65,"[0.9, 0.5, 0.1]","[0.8, 0.4, 0.2]","[u'black', u'red', u'blue']","[u'left', u'middle', u'right']","[0.9, 0.5, 0.1]","[u'medium', u'high', u'low']","red",50,"middle","high","True","False",331,3500,NA
"A1720HSKGQ41VJ","Tue Sep 15 2020 09:50:37 GMT-0500 (Central Daylight Time)","Tue Sep 15 2020 10:00:08 GMT-0500 (Central Daylight Time)","Mozilla/5.0 (Windows NT 10.0; Win64; x64; rv:80.0) Gecko/20100101 Firefox/80.0",66,"[0.9, 0.5, 0.1]","[0.8, 0.4, 0.2]","[u'black', u'red', u'blue']","[u'left', u'middle', u'right']","[0.9, 0.5, 0.1]","[u'medium', u'high', u'low']","red",50,"middle","high","True","False",415,3600,NA
"A1720HSKGQ41VJ","Tue Sep 15 2020 09:50:37 GMT-0500 (Central Daylight Time)","Tue Sep 15 2020 10:00:08 GMT-0500 (Central Daylight Time)","Mozilla/5.0 (Windows NT 10.0; Win64; x64; rv:80.0) Gecko/20100101 Firefox/80.0",67,"[0.9, 0.5, 0.1]","[0.8, 0.4, 0.2]","[u'black', u'red', u'blue']","[u'left', u'middle', u'right']","[0.9, 0.5, 0.1]","[u'medium', u'high', u'low']","red",50,"middle","high","True","False",225,3700,NA
"A1720HSKGQ41VJ","Tue Sep 15 2020 09:50:37 GMT-0500 (Central Daylight Time)","Tue Sep 15 2020 10:00:08 GMT-0500 (Central Daylight Time)","Mozilla/5.0 (Windows NT 10.0; Win64; x64; rv:80.0) Gecko/20100101 Firefox/80.0",68,"[0.9, 0.5, 0.1]","[0.8, 0.4, 0.2]","[u'black', u'red', u'blue']","[u'left', u'middle', u'right']","[0.9, 0.5, 0.1]","[u'medium', u'high', u'low']","red",50,"middle","high","True","True",300,3800,NA
"A1720HSKGQ41VJ","Tue Sep 15 2020 09:50:37 GMT-0500 (Central Daylight Time)","Tue Sep 15 2020 10:00:08 GMT-0500 (Central Daylight Time)","Mozilla/5.0 (Windows NT 10.0; Win64; x64; rv:80.0) Gecko/20100101 Firefox/80.0",69,"[0.9, 0.5, 0.1]","[0.8, 0.4, 0.2]","[u'black', u'red', u'blue']","[u'left', u'middle', u'right']","[0.9, 0.5, 0.1]","[u'high', u'medium', u'low']","red",50,"middle","medium","True","False",151,3900,NA
"A1720HSKGQ41VJ","Tue Sep 15 2020 09:50:37 GMT-0500 (Central Daylight Time)","Tue Sep 15 2020 10:00:08 GMT-0500 (Central Daylight Time)","Mozilla/5.0 (Windows NT 10.0; Win64; x64; rv:80.0) Gecko/20100101 Firefox/80.0",70,"[0.9, 0.5, 0.1]","[0.8, 0.4, 0.2]","[u'black', u'red', u'blue']","[u'left', u'middle', u'right']","[0.9, 0.5, 0.1]","[u'high', u'medium', u'low']","red",50,"middle","medium","True","False",225,4000,NA
"A1720HSKGQ41VJ","Tue Sep 15 2020 09:50:37 GMT-0500 (Central Daylight Time)","Tue Sep 15 2020 10:00:08 GMT-0500 (Central Daylight Time)","Mozilla/5.0 (Windows NT 10.0; Win64; x64; rv:80.0) Gecko/20100101 Firefox/80.0",71,"[0.9, 0.5, 0.1]","[0.8, 0.4, 0.2]","[u'black', u'red', u'blue']","[u'left', u'middle', u'right']","[0.9, 0.5, 0.1]","[u'high', u'medium', u'low']","red",50,"middle","medium","True","False",374,4100,NA
"A1720HSKGQ41VJ","Tue Sep 15 2020 09:50:37 GMT-0500 (Central Daylight Time)","Tue Sep 15 2020 10:00:08 GMT-0500 (Central Daylight Time)","Mozilla/5.0 (Windows NT 10.0; Win64; x64; rv:80.0) Gecko/20100101 Firefox/80.0",72,"[0.9, 0.5, 0.1]","[0.8, 0.4, 0.2]","[u'black', u'red', u'blue']","[u'left', u'middle', u'right']","[0.9, 0.5, 0.1]","[u'high', u'medium', u'low']","red",50,"middle","medium","False","False",293,4050,NA
"A1720HSKGQ41VJ","Tue Sep 15 2020 09:50:37 GMT-0500 (Central Daylight Time)","Tue Sep 15 2020 10:00:08 GMT-0500 (Central Daylight Time)","Mozilla/5.0 (Windows NT 10.0; Win64; x64; rv:80.0) Gecko/20100101 Firefox/80.0",73,"[0.9, 0.5, 0.1]","[0.8, 0.4, 0.2]","[u'black', u'red', u'blue']","[u'left', u'middle', u'right']","[0.9, 0.5, 0.1]","[u'high', u'medium', u'low']","red",50,"middle","medium","False","False",377,4000,NA
"A1720HSKGQ41VJ","Tue Sep 15 2020 09:50:37 GMT-0500 (Central Daylight Time)","Tue Sep 15 2020 10:00:08 GMT-0500 (Central Daylight Time)","Mozilla/5.0 (Windows NT 10.0; Win64; x64; rv:80.0) Gecko/20100101 Firefox/80.0",74,"[0.9, 0.5, 0.1]","[0.8, 0.4, 0.2]","[u'black', u'red', u'blue']","[u'left', u'middle', u'right']","[0.9, 0.5, 0.1]","[u'high', u'medium', u'low']","blue",51,"right","low","False","False",306,3950,NA
"A1720HSKGQ41VJ","Tue Sep 15 2020 09:50:37 GMT-0500 (Central Daylight Time)","Tue Sep 15 2020 10:00:08 GMT-0500 (Central Daylight Time)","Mozilla/5.0 (Windows NT 10.0; Win64; x64; rv:80.0) Gecko/20100101 Firefox/80.0",75,"[0.9, 0.5, 0.1]","[0.8, 0.4, 0.2]","[u'black', u'red', u'blue']","[u'left', u'middle', u'right']","[0.9, 0.5, 0.1]","[u'high', u'medium', u'low']","black",49,"left","high","True","False",342,4050,NA
"A1720HSKGQ41VJ","Tue Sep 15 2020 09:50:37 GMT-0500 (Central Daylight Time)","Tue Sep 15 2020 10:00:08 GMT-0500 (Central Daylight Time)","Mozilla/5.0 (Windows NT 10.0; Win64; x64; rv:80.0) Gecko/20100101 Firefox/80.0",76,"[0.9, 0.5, 0.1]","[0.8, 0.4, 0.2]","[u'black', u'red', u'blue']","[u'left', u'middle', u'right']","[0.9, 0.5, 0.1]","[u'high', u'medium', u'low']","black",49,"left","high","True","False",243,4150,NA
"A1720HSKGQ41VJ","Tue Sep 15 2020 09:50:37 GMT-0500 (Central Daylight Time)","Tue Sep 15 2020 10:00:08 GMT-0500 (Central Daylight Time)","Mozilla/5.0 (Windows NT 10.0; Win64; x64; rv:80.0) Gecko/20100101 Firefox/80.0",77,"[0.9, 0.5, 0.1]","[0.8, 0.4, 0.2]","[u'black', u'red', u'blue']","[u'left', u'middle', u'right']","[0.9, 0.5, 0.1]","[u'high', u'medium', u'low']","black",49,"left","high","True","False",294,4250,NA
"A1720HSKGQ41VJ","Tue Sep 15 2020 09:50:37 GMT-0500 (Central Daylight Time)","Tue Sep 15 2020 10:00:08 GMT-0500 (Central Daylight Time)","Mozilla/5.0 (Windows NT 10.0; Win64; x64; rv:80.0) Gecko/20100101 Firefox/80.0",78,"[0.9, 0.5, 0.1]","[0.8, 0.4, 0.2]","[u'black', u'red', u'blue']","[u'left', u'middle', u'right']","[0.9, 0.5, 0.1]","[u'high', u'medium', u'low']","black",49,"left","high","True","False",154,4350,NA
"A1720HSKGQ41VJ","Tue Sep 15 2020 09:50:37 GMT-0500 (Central Daylight Time)","Tue Sep 15 2020 10:00:08 GMT-0500 (Central Daylight Time)","Mozilla/5.0 (Windows NT 10.0; Win64; x64; rv:80.0) Gecko/20100101 Firefox/80.0",79,"[0.9, 0.5, 0.1]","[0.8, 0.4, 0.2]","[u'black', u'red', u'blue']","[u'left', u'middle', u'right']","[0.9, 0.5, 0.1]","[u'high', u'medium', u'low']","black",49,"left","high","True","False",287,4450,NA
"A1720HSKGQ41VJ","Tue Sep 15 2020 09:50:37 GMT-0500 (Central Daylight Time)","Tue Sep 15 2020 10:00:08 GMT-0500 (Central Daylight Time)","Mozilla/5.0 (Windows NT 10.0; Win64; x64; rv:80.0) Gecko/20100101 Firefox/80.0",80,"[0.9, 0.5, 0.1]","[0.8, 0.4, 0.2]","[u'black', u'red', u'blue']","[u'left', u'middle', u'right']","[0.9, 0.5, 0.1]","[u'high', u'medium', u'low']","black",49,"left","high","True","False",222,4550,NA
"A1720HSKGQ41VJ","Tue Sep 15 2020 09:50:37 GMT-0500 (Central Daylight Time)","Tue Sep 15 2020 10:00:08 GMT-0500 (Central Daylight Time)","Mozilla/5.0 (Windows NT 10.0; Win64; x64; rv:80.0) Gecko/20100101 Firefox/80.0",81,"[0.9, 0.5, 0.1]","[0.8, 0.4, 0.2]","[u'black', u'red', u'blue']","[u'left', u'middle', u'right']","[0.8, 0.4, 0.2]","[u'low', u'medium', u'high']","black",49,"left","low","False","False",590,4500,NA
"A1720HSKGQ41VJ","Tue Sep 15 2020 09:50:37 GMT-0500 (Central Daylight Time)","Tue Sep 15 2020 10:00:08 GMT-0500 (Central Daylight Time)","Mozilla/5.0 (Windows NT 10.0; Win64; x64; rv:80.0) Gecko/20100101 Firefox/80.0",82,"[0.9, 0.5, 0.1]","[0.8, 0.4, 0.2]","[u'black', u'red', u'blue']","[u'left', u'middle', u'right']","[0.8, 0.4, 0.2]","[u'low', u'medium', u'high']","red",50,"middle","medium","True","False",699,4600,NA
"A1720HSKGQ41VJ","Tue Sep 15 2020 09:50:37 GMT-0500 (Central Daylight Time)","Tue Sep 15 2020 10:00:08 GMT-0500 (Central Daylight Time)","Mozilla/5.0 (Windows NT 10.0; Win64; x64; rv:80.0) Gecko/20100101 Firefox/80.0",83,"[0.9, 0.5, 0.1]","[0.8, 0.4, 0.2]","[u'black', u'red', u'blue']","[u'left', u'middle', u'right']","[0.8, 0.4, 0.2]","[u'low', u'medium', u'high']","red",50,"middle","medium","True","False",224,4700,NA
"A1720HSKGQ41VJ","Tue Sep 15 2020 09:50:37 GMT-0500 (Central Daylight Time)","Tue Sep 15 2020 10:00:08 GMT-0500 (Central Daylight Time)","Mozilla/5.0 (Windows NT 10.0; Win64; x64; rv:80.0) Gecko/20100101 Firefox/80.0",84,"[0.9, 0.5, 0.1]","[0.8, 0.4, 0.2]","[u'black', u'red', u'blue']","[u'left', u'middle', u'right']","[0.8, 0.4, 0.2]","[u'low', u'medium', u'high']","red",50,"middle","medium","True","False",240,4800,NA
"A1720HSKGQ41VJ","Tue Sep 15 2020 09:50:37 GMT-0500 (Central Daylight Time)","Tue Sep 15 2020 10:00:08 GMT-0500 (Central Daylight Time)","Mozilla/5.0 (Windows NT 10.0; Win64; x64; rv:80.0) Gecko/20100101 Firefox/80.0",85,"[0.9, 0.5, 0.1]","[0.8, 0.4, 0.2]","[u'black', u'red', u'blue']","[u'left', u'middle', u'right']","[0.8, 0.4, 0.2]","[u'low', u'medium', u'high']","red",50,"middle","medium","True","False",222,4900,NA
"A1720HSKGQ41VJ","Tue Sep 15 2020 09:50:37 GMT-0500 (Central Daylight Time)","Tue Sep 15 2020 10:00:08 GMT-0500 (Central Daylight Time)","Mozilla/5.0 (Windows NT 10.0; Win64; x64; rv:80.0) Gecko/20100101 Firefox/80.0",86,"[0.9, 0.5, 0.1]","[0.8, 0.4, 0.2]","[u'black', u'red', u'blue']","[u'left', u'middle', u'right']","[0.8, 0.4, 0.2]","[u'low', u'medium', u'high']","red",50,"middle","medium","True","False",210,5000,NA
"A1720HSKGQ41VJ","Tue Sep 15 2020 09:50:37 GMT-0500 (Central Daylight Time)","Tue Sep 15 2020 10:00:08 GMT-0500 (Central Daylight Time)","Mozilla/5.0 (Windows NT 10.0; Win64; x64; rv:80.0) Gecko/20100101 Firefox/80.0",87,"[0.9, 0.5, 0.1]","[0.8, 0.4, 0.2]","[u'black', u'red', u'blue']","[u'left', u'middle', u'right']","[0.8, 0.4, 0.2]","[u'low', u'medium', u'high']","red",50,"middle","medium","False","False",262,4950,NA
"A1720HSKGQ41VJ","Tue Sep 15 2020 09:50:37 GMT-0500 (Central Daylight Time)","Tue Sep 15 2020 10:00:08 GMT-0500 (Central Daylight Time)","Mozilla/5.0 (Windows NT 10.0; Win64; x64; rv:80.0) Gecko/20100101 Firefox/80.0",88,"[0.9, 0.5, 0.1]","[0.8, 0.4, 0.2]","[u'black', u'red', u'blue']","[u'left', u'middle', u'right']","[0.8, 0.4, 0.2]","[u'low', u'medium', u'high']","red",50,"middle","medium","True","False",244,5050,NA
"A1720HSKGQ41VJ","Tue Sep 15 2020 09:50:37 GMT-0500 (Central Daylight Time)","Tue Sep 15 2020 10:00:08 GMT-0500 (Central Daylight Time)","Mozilla/5.0 (Windows NT 10.0; Win64; x64; rv:80.0) Gecko/20100101 Firefox/80.0",89,"[0.9, 0.5, 0.1]","[0.8, 0.4, 0.2]","[u'black', u'red', u'blue']","[u'left', u'middle', u'right']","[0.8, 0.4, 0.2]","[u'low', u'medium', u'high']","red",50,"middle","medium","False","False",54,5000,NA
"A1720HSKGQ41VJ","Tue Sep 15 2020 09:50:37 GMT-0500 (Central Daylight Time)","Tue Sep 15 2020 10:00:08 GMT-0500 (Central Daylight Time)","Mozilla/5.0 (Windows NT 10.0; Win64; x64; rv:80.0) Gecko/20100101 Firefox/80.0",90,"[0.9, 0.5, 0.1]","[0.8, 0.4, 0.2]","[u'black', u'red', u'blue']","[u'left', u'middle', u'right']","[0.8, 0.4, 0.2]","[u'low', u'medium', u'high']","red",50,"middle","medium","True","False",432,5100,NA
"A1720HSKGQ41VJ","Tue Sep 15 2020 09:50:37 GMT-0500 (Central Daylight Time)","Tue Sep 15 2020 10:00:08 GMT-0500 (Central Daylight Time)","Mozilla/5.0 (Windows NT 10.0; Win64; x64; rv:80.0) Gecko/20100101 Firefox/80.0",91,"[0.9, 0.5, 0.1]","[0.8, 0.4, 0.2]","[u'black', u'red', u'blue']","[u'left', u'middle', u'right']","[0.8, 0.4, 0.2]","[u'low', u'medium', u'high']","red",50,"middle","medium","False","False",446,5050,NA
"A1720HSKGQ41VJ","Tue Sep 15 2020 09:50:37 GMT-0500 (Central Daylight Time)","Tue Sep 15 2020 10:00:08 GMT-0500 (Central Daylight Time)","Mozilla/5.0 (Windows NT 10.0; Win64; x64; rv:80.0) Gecko/20100101 Firefox/80.0",92,"[0.9, 0.5, 0.1]","[0.8, 0.4, 0.2]","[u'black', u'red', u'blue']","[u'left', u'middle', u'right']","[0.8, 0.4, 0.2]","[u'low', u'medium', u'high']","red",50,"middle","medium","True","False",472,5150,NA
"A1720HSKGQ41VJ","Tue Sep 15 2020 09:50:37 GMT-0500 (Central Daylight Time)","Tue Sep 15 2020 10:00:08 GMT-0500 (Central Daylight Time)","Mozilla/5.0 (Windows NT 10.0; Win64; x64; rv:80.0) Gecko/20100101 Firefox/80.0",93,"[0.9, 0.5, 0.1]","[0.8, 0.4, 0.2]","[u'black', u'red', u'blue']","[u'left', u'middle', u'right']","[0.8, 0.4, 0.2]","[u'low', u'medium', u'high']","red",50,"middle","medium","False","False",483,5100,NA
"A1720HSKGQ41VJ","Tue Sep 15 2020 09:50:37 GMT-0500 (Central Daylight Time)","Tue Sep 15 2020 10:00:08 GMT-0500 (Central Daylight Time)","Mozilla/5.0 (Windows NT 10.0; Win64; x64; rv:80.0) Gecko/20100101 Firefox/80.0",94,"[0.9, 0.5, 0.1]","[0.8, 0.4, 0.2]","[u'black', u'red', u'blue']","[u'left', u'middle', u'right']","[0.8, 0.4, 0.2]","[u'low', u'medium', u'high']","blue",51,"right","high","False","False",377,5050,NA
"A1720HSKGQ41VJ","Tue Sep 15 2020 09:50:37 GMT-0500 (Central Daylight Time)","Tue Sep 15 2020 10:00:08 GMT-0500 (Central Daylight Time)","Mozilla/5.0 (Windows NT 10.0; Win64; x64; rv:80.0) Gecko/20100101 Firefox/80.0",95,"[0.9, 0.5, 0.1]","[0.8, 0.4, 0.2]","[u'black', u'red', u'blue']","[u'left', u'middle', u'right']","[0.8, 0.4, 0.2]","[u'low', u'medium', u'high']","black",49,"left","low","False","False",291,5000,NA
"A1720HSKGQ41VJ","Tue Sep 15 2020 09:50:37 GMT-0500 (Central Daylight Time)","Tue Sep 15 2020 10:00:08 GMT-0500 (Central Daylight Time)","Mozilla/5.0 (Windows NT 10.0; Win64; x64; rv:80.0) Gecko/20100101 Firefox/80.0",96,"[0.9, 0.5, 0.1]","[0.8, 0.4, 0.2]","[u'black', u'red', u'blue']","[u'left', u'middle', u'right']","[0.8, 0.4, 0.2]","[u'low', u'medium', u'high']","red",50,"middle","medium","False","False",444,4950,NA
"A1720HSKGQ41VJ","Tue Sep 15 2020 09:50:37 GMT-0500 (Central Daylight Time)","Tue Sep 15 2020 10:00:08 GMT-0500 (Central Daylight Time)","Mozilla/5.0 (Windows NT 10.0; Win64; x64; rv:80.0) Gecko/20100101 Firefox/80.0",97,"[0.9, 0.5, 0.1]","[0.8, 0.4, 0.2]","[u'black', u'red', u'blue']","[u'left', u'middle', u'right']","[0.8, 0.4, 0.2]","[u'low', u'medium', u'high']","red",50,"middle","medium","False","False",223,4900,NA
"A1720HSKGQ41VJ","Tue Sep 15 2020 09:50:37 GMT-0500 (Central Daylight Time)","Tue Sep 15 2020 10:00:08 GMT-0500 (Central Daylight Time)","Mozilla/5.0 (Windows NT 10.0; Win64; x64; rv:80.0) Gecko/20100101 Firefox/80.0",98,"[0.9, 0.5, 0.1]","[0.8, 0.4, 0.2]","[u'black', u'red', u'blue']","[u'left', u'middle', u'right']","[0.8, 0.4, 0.2]","[u'low', u'medium', u'high']","blue",51,"right","high","False","False",367,4850,NA
"A1720HSKGQ41VJ","Tue Sep 15 2020 09:50:37 GMT-0500 (Central Daylight Time)","Tue Sep 15 2020 10:00:08 GMT-0500 (Central Daylight Time)","Mozilla/5.0 (Windows NT 10.0; Win64; x64; rv:80.0) Gecko/20100101 Firefox/80.0",99,"[0.9, 0.5, 0.1]","[0.8, 0.4, 0.2]","[u'black', u'red', u'blue']","[u'left', u'middle', u'right']","[0.8, 0.4, 0.2]","[u'low', u'medium', u'high']","black",49,"left","low","False","False",266,4800,NA
"A1720HSKGQ41VJ","Tue Sep 15 2020 09:50:37 GMT-0500 (Central Daylight Time)","Tue Sep 15 2020 10:00:08 GMT-0500 (Central Daylight Time)","Mozilla/5.0 (Windows NT 10.0; Win64; x64; rv:80.0) Gecko/20100101 Firefox/80.0",100,"[0.9, 0.5, 0.1]","[0.8, 0.4, 0.2]","[u'black', u'red', u'blue']","[u'left', u'middle', u'right']","[0.8, 0.4, 0.2]","[u'low', u'medium', u'high']","black",49,"left","low","False","False",268,4750,NA
"A1720HSKGQ41VJ","Tue Sep 15 2020 09:50:37 GMT-0500 (Central Daylight Time)","Tue Sep 15 2020 10:00:08 GMT-0500 (Central Daylight Time)","Mozilla/5.0 (Windows NT 10.0; Win64; x64; rv:80.0) Gecko/20100101 Firefox/80.0",101,"[0.9, 0.5, 0.1]","[0.8, 0.4, 0.2]","[u'black', u'red', u'blue']","[u'left', u'middle', u'right']","[0.8, 0.4, 0.2]","[u'low', u'medium', u'high']","red",50,"middle","medium","False","False",295,4700,NA
"A1720HSKGQ41VJ","Tue Sep 15 2020 09:50:37 GMT-0500 (Central Daylight Time)","Tue Sep 15 2020 10:00:08 GMT-0500 (Central Daylight Time)","Mozilla/5.0 (Windows NT 10.0; Win64; x64; rv:80.0) Gecko/20100101 Firefox/80.0",102,"[0.9, 0.5, 0.1]","[0.8, 0.4, 0.2]","[u'black', u'red', u'blue']","[u'left', u'middle', u'right']","[0.8, 0.4, 0.2]","[u'low', u'medium', u'high']","red",50,"middle","medium","True","False",289,4800,NA
"A1720HSKGQ41VJ","Tue Sep 15 2020 09:50:37 GMT-0500 (Central Daylight Time)","Tue Sep 15 2020 10:00:08 GMT-0500 (Central Daylight Time)","Mozilla/5.0 (Windows NT 10.0; Win64; x64; rv:80.0) Gecko/20100101 Firefox/80.0",103,"[0.9, 0.5, 0.1]","[0.8, 0.4, 0.2]","[u'black', u'red', u'blue']","[u'left', u'middle', u'right']","[0.8, 0.4, 0.2]","[u'low', u'medium', u'high']","red",50,"middle","medium","False","False",149,4750,NA
"A1720HSKGQ41VJ","Tue Sep 15 2020 09:50:37 GMT-0500 (Central Daylight Time)","Tue Sep 15 2020 10:00:08 GMT-0500 (Central Daylight Time)","Mozilla/5.0 (Windows NT 10.0; Win64; x64; rv:80.0) Gecko/20100101 Firefox/80.0",104,"[0.9, 0.5, 0.1]","[0.8, 0.4, 0.2]","[u'black', u'red', u'blue']","[u'left', u'middle', u'right']","[0.8, 0.4, 0.2]","[u'low', u'medium', u'high']","blue",51,"right","high","True","False",569,4850,NA
"A1720HSKGQ41VJ","Tue Sep 15 2020 09:50:37 GMT-0500 (Central Daylight Time)","Tue Sep 15 2020 10:00:08 GMT-0500 (Central Daylight Time)","Mozilla/5.0 (Windows NT 10.0; Win64; x64; rv:80.0) Gecko/20100101 Firefox/80.0",105,"[0.9, 0.5, 0.1]","[0.8, 0.4, 0.2]","[u'black', u'red', u'blue']","[u'left', u'middle', u'right']","[0.8, 0.4, 0.2]","[u'low', u'medium', u'high']","blue",51,"right","high","True","False",378,4950,NA
"A1720HSKGQ41VJ","Tue Sep 15 2020 09:50:37 GMT-0500 (Central Daylight Time)","Tue Sep 15 2020 10:00:08 GMT-0500 (Central Daylight Time)","Mozilla/5.0 (Windows NT 10.0; Win64; x64; rv:80.0) Gecko/20100101 Firefox/80.0",106,"[0.9, 0.5, 0.1]","[0.8, 0.4, 0.2]","[u'black', u'red', u'blue']","[u'left', u'middle', u'right']","[0.8, 0.4, 0.2]","[u'low', u'medium', u'high']","blue",51,"right","high","True","False",348,5050,NA
"A1720HSKGQ41VJ","Tue Sep 15 2020 09:50:37 GMT-0500 (Central Daylight Time)","Tue Sep 15 2020 10:00:08 GMT-0500 (Central Daylight Time)","Mozilla/5.0 (Windows NT 10.0; Win64; x64; rv:80.0) Gecko/20100101 Firefox/80.0",107,"[0.9, 0.5, 0.1]","[0.8, 0.4, 0.2]","[u'black', u'red', u'blue']","[u'left', u'middle', u'right']","[0.8, 0.4, 0.2]","[u'low', u'medium', u'high']","blue",51,"right","high","True","False",274,5150,NA
"A1720HSKGQ41VJ","Tue Sep 15 2020 09:50:37 GMT-0500 (Central Daylight Time)","Tue Sep 15 2020 10:00:08 GMT-0500 (Central Daylight Time)","Mozilla/5.0 (Windows NT 10.0; Win64; x64; rv:80.0) Gecko/20100101 Firefox/80.0",108,"[0.9, 0.5, 0.1]","[0.8, 0.4, 0.2]","[u'black', u'red', u'blue']","[u'left', u'middle', u'right']","[0.8, 0.4, 0.2]","[u'low', u'medium', u'high']","blue",51,"right","high","False","False",345,5100,NA
"A1720HSKGQ41VJ","Tue Sep 15 2020 09:50:37 GMT-0500 (Central Daylight Time)","Tue Sep 15 2020 10:00:08 GMT-0500 (Central Daylight Time)","Mozilla/5.0 (Windows NT 10.0; Win64; x64; rv:80.0) Gecko/20100101 Firefox/80.0",109,"[0.9, 0.5, 0.1]","[0.8, 0.4, 0.2]","[u'black', u'red', u'blue']","[u'left', u'middle', u'right']","[0.8, 0.4, 0.2]","[u'low', u'medium', u'high']","blue",51,"right","high","True","False",251,5200,NA
"A1720HSKGQ41VJ","Tue Sep 15 2020 09:50:37 GMT-0500 (Central Daylight Time)","Tue Sep 15 2020 10:00:08 GMT-0500 (Central Daylight Time)","Mozilla/5.0 (Windows NT 10.0; Win64; x64; rv:80.0) Gecko/20100101 Firefox/80.0",110,"[0.9, 0.5, 0.1]","[0.8, 0.4, 0.2]","[u'black', u'red', u'blue']","[u'left', u'middle', u'right']","[0.8, 0.4, 0.2]","[u'low', u'medium', u'high']","blue",51,"right","high","False","False",247,5150,NA
"A1720HSKGQ41VJ","Tue Sep 15 2020 09:50:37 GMT-0500 (Central Daylight Time)","Tue Sep 15 2020 10:00:08 GMT-0500 (Central Daylight Time)","Mozilla/5.0 (Windows NT 10.0; Win64; x64; rv:80.0) Gecko/20100101 Firefox/80.0",111,"[0.9, 0.5, 0.1]","[0.8, 0.4, 0.2]","[u'black', u'red', u'blue']","[u'left', u'middle', u'right']","[0.8, 0.4, 0.2]","[u'low', u'medium', u'high']","blue",51,"right","high","True","False",398,5250,NA
"A1720HSKGQ41VJ","Tue Sep 15 2020 09:50:37 GMT-0500 (Central Daylight Time)","Tue Sep 15 2020 10:00:08 GMT-0500 (Central Daylight Time)","Mozilla/5.0 (Windows NT 10.0; Win64; x64; rv:80.0) Gecko/20100101 Firefox/80.0",112,"[0.9, 0.5, 0.1]","[0.8, 0.4, 0.2]","[u'black', u'red', u'blue']","[u'left', u'middle', u'right']","[0.8, 0.4, 0.2]","[u'low', u'medium', u'high']","red",50,"middle","medium","True","False",297,5350,NA
"A1720HSKGQ41VJ","Tue Sep 15 2020 09:50:37 GMT-0500 (Central Daylight Time)","Tue Sep 15 2020 10:00:08 GMT-0500 (Central Daylight Time)","Mozilla/5.0 (Windows NT 10.0; Win64; x64; rv:80.0) Gecko/20100101 Firefox/80.0",113,"[0.9, 0.5, 0.1]","[0.8, 0.4, 0.2]","[u'black', u'red', u'blue']","[u'left', u'middle', u'right']","[0.8, 0.4, 0.2]","[u'low', u'medium', u'high']","red",50,"middle","medium","True","False",291,5450,NA
"A1720HSKGQ41VJ","Tue Sep 15 2020 09:50:37 GMT-0500 (Central Daylight Time)","Tue Sep 15 2020 10:00:08 GMT-0500 (Central Daylight Time)","Mozilla/5.0 (Windows NT 10.0; Win64; x64; rv:80.0) Gecko/20100101 Firefox/80.0",114,"[0.9, 0.5, 0.1]","[0.8, 0.4, 0.2]","[u'black', u'red', u'blue']","[u'left', u'middle', u'right']","[0.8, 0.4, 0.2]","[u'low', u'medium', u'high']","red",50,"middle","medium","False","False",255,5400,NA
"A1720HSKGQ41VJ","Tue Sep 15 2020 09:50:37 GMT-0500 (Central Daylight Time)","Tue Sep 15 2020 10:00:08 GMT-0500 (Central Daylight Time)","Mozilla/5.0 (Windows NT 10.0; Win64; x64; rv:80.0) Gecko/20100101 Firefox/80.0",115,"[0.9, 0.5, 0.1]","[0.8, 0.4, 0.2]","[u'black', u'red', u'blue']","[u'left', u'middle', u'right']","[0.8, 0.4, 0.2]","[u'low', u'medium', u'high']","blue",51,"right","high","True","False",379,5500,NA
"A1720HSKGQ41VJ","Tue Sep 15 2020 09:50:37 GMT-0500 (Central Daylight Time)","Tue Sep 15 2020 10:00:08 GMT-0500 (Central Daylight Time)","Mozilla/5.0 (Windows NT 10.0; Win64; x64; rv:80.0) Gecko/20100101 Firefox/80.0",116,"[0.9, 0.5, 0.1]","[0.8, 0.4, 0.2]","[u'black', u'red', u'blue']","[u'left', u'middle', u'right']","[0.8, 0.4, 0.2]","[u'low', u'medium', u'high']","blue",51,"right","high","True","False",835,5600,NA
"A1720HSKGQ41VJ","Tue Sep 15 2020 09:50:37 GMT-0500 (Central Daylight Time)","Tue Sep 15 2020 10:00:08 GMT-0500 (Central Daylight Time)","Mozilla/5.0 (Windows NT 10.0; Win64; x64; rv:80.0) Gecko/20100101 Firefox/80.0",117,"[0.9, 0.5, 0.1]","[0.8, 0.4, 0.2]","[u'black', u'red', u'blue']","[u'left', u'middle', u'right']","[0.8, 0.4, 0.2]","[u'low', u'medium', u'high']","red",50,"middle","medium","False","False",1261,5550,NA
"A1720HSKGQ41VJ","Tue Sep 15 2020 09:50:37 GMT-0500 (Central Daylight Time)","Tue Sep 15 2020 10:00:08 GMT-0500 (Central Daylight Time)","Mozilla/5.0 (Windows NT 10.0; Win64; x64; rv:80.0) Gecko/20100101 Firefox/80.0",118,"[0.9, 0.5, 0.1]","[0.8, 0.4, 0.2]","[u'black', u'red', u'blue']","[u'left', u'middle', u'right']","[0.8, 0.4, 0.2]","[u'low', u'medium', u'high']","blue",51,"right","high","True","False",296,5650,NA
"A1720HSKGQ41VJ","Tue Sep 15 2020 09:50:37 GMT-0500 (Central Daylight Time)","Tue Sep 15 2020 10:00:08 GMT-0500 (Central Daylight Time)","Mozilla/5.0 (Windows NT 10.0; Win64; x64; rv:80.0) Gecko/20100101 Firefox/80.0",119,"[0.9, 0.5, 0.1]","[0.8, 0.4, 0.2]","[u'black', u'red', u'blue']","[u'left', u'middle', u'right']","[0.8, 0.4, 0.2]","[u'low', u'medium', u'high']","blue",51,"right","high","True","False",262,5750,NA
"A1720HSKGQ41VJ","Tue Sep 15 2020 09:50:37 GMT-0500 (Central Daylight Time)","Tue Sep 15 2020 10:00:08 GMT-0500 (Central Daylight Time)","Mozilla/5.0 (Windows NT 10.0; Win64; x64; rv:80.0) Gecko/20100101 Firefox/80.0",120,"[0.9, 0.5, 0.1]","[0.8, 0.4, 0.2]","[u'black', u'red', u'blue']","[u'left', u'middle', u'right']","[0.8, 0.4, 0.2]","[u'low', u'medium', u'high']","blue",51,"right","high","True","False",261,5850,NA
"A1720HSKGQ41VJ","Tue Sep 15 2020 09:50:37 GMT-0500 (Central Daylight Time)","Tue Sep 15 2020 10:00:08 GMT-0500 (Central Daylight Time)","Mozilla/5.0 (Windows NT 10.0; Win64; x64; rv:80.0) Gecko/20100101 Firefox/80.0",121,"[0.9, 0.5, 0.1]","[0.8, 0.4, 0.2]","[u'black', u'red', u'blue']","[u'left', u'middle', u'right']","[0.8, 0.4, 0.2]","[u'high', u'medium', u'low']","blue",51,"right","low","False","False",775,5800,NA
"A1720HSKGQ41VJ","Tue Sep 15 2020 09:50:37 GMT-0500 (Central Daylight Time)","Tue Sep 15 2020 10:00:08 GMT-0500 (Central Daylight Time)","Mozilla/5.0 (Windows NT 10.0; Win64; x64; rv:80.0) Gecko/20100101 Firefox/80.0",122,"[0.9, 0.5, 0.1]","[0.8, 0.4, 0.2]","[u'black', u'red', u'blue']","[u'left', u'middle', u'right']","[0.8, 0.4, 0.2]","[u'high', u'medium', u'low']","red",50,"middle","medium","True","False",234,5900,NA
"A1720HSKGQ41VJ","Tue Sep 15 2020 09:50:37 GMT-0500 (Central Daylight Time)","Tue Sep 15 2020 10:00:08 GMT-0500 (Central Daylight Time)","Mozilla/5.0 (Windows NT 10.0; Win64; x64; rv:80.0) Gecko/20100101 Firefox/80.0",123,"[0.9, 0.5, 0.1]","[0.8, 0.4, 0.2]","[u'black', u'red', u'blue']","[u'left', u'middle', u'right']","[0.8, 0.4, 0.2]","[u'high', u'medium', u'low']","red",50,"middle","medium","True","False",238,6000,NA
"A1720HSKGQ41VJ","Tue Sep 15 2020 09:50:37 GMT-0500 (Central Daylight Time)","Tue Sep 15 2020 10:00:08 GMT-0500 (Central Daylight Time)","Mozilla/5.0 (Windows NT 10.0; Win64; x64; rv:80.0) Gecko/20100101 Firefox/80.0",124,"[0.9, 0.5, 0.1]","[0.8, 0.4, 0.2]","[u'black', u'red', u'blue']","[u'left', u'middle', u'right']","[0.8, 0.4, 0.2]","[u'high', u'medium', u'low']","red",50,"middle","medium","False","False",261,5950,NA
"A1720HSKGQ41VJ","Tue Sep 15 2020 09:50:37 GMT-0500 (Central Daylight Time)","Tue Sep 15 2020 10:00:08 GMT-0500 (Central Daylight Time)","Mozilla/5.0 (Windows NT 10.0; Win64; x64; rv:80.0) Gecko/20100101 Firefox/80.0",125,"[0.9, 0.5, 0.1]","[0.8, 0.4, 0.2]","[u'black', u'red', u'blue']","[u'left', u'middle', u'right']","[0.8, 0.4, 0.2]","[u'high', u'medium', u'low']","red",50,"middle","medium","True","False",128,6050,NA
"A1720HSKGQ41VJ","Tue Sep 15 2020 09:50:37 GMT-0500 (Central Daylight Time)","Tue Sep 15 2020 10:00:08 GMT-0500 (Central Daylight Time)","Mozilla/5.0 (Windows NT 10.0; Win64; x64; rv:80.0) Gecko/20100101 Firefox/80.0",126,"[0.9, 0.5, 0.1]","[0.8, 0.4, 0.2]","[u'black', u'red', u'blue']","[u'left', u'middle', u'right']","[0.8, 0.4, 0.2]","[u'high', u'medium', u'low']","red",50,"middle","medium","False","False",267,6000,NA
"A1720HSKGQ41VJ","Tue Sep 15 2020 09:50:37 GMT-0500 (Central Daylight Time)","Tue Sep 15 2020 10:00:08 GMT-0500 (Central Daylight Time)","Mozilla/5.0 (Windows NT 10.0; Win64; x64; rv:80.0) Gecko/20100101 Firefox/80.0",127,"[0.9, 0.5, 0.1]","[0.8, 0.4, 0.2]","[u'black', u'red', u'blue']","[u'left', u'middle', u'right']","[0.8, 0.4, 0.2]","[u'high', u'medium', u'low']","red",50,"middle","medium","True","False",563,6100,NA
"A1720HSKGQ41VJ","Tue Sep 15 2020 09:50:37 GMT-0500 (Central Daylight Time)","Tue Sep 15 2020 10:00:08 GMT-0500 (Central Daylight Time)","Mozilla/5.0 (Windows NT 10.0; Win64; x64; rv:80.0) Gecko/20100101 Firefox/80.0",128,"[0.9, 0.5, 0.1]","[0.8, 0.4, 0.2]","[u'black', u'red', u'blue']","[u'left', u'middle', u'right']","[0.8, 0.4, 0.2]","[u'high', u'medium', u'low']","blue",51,"right","low","True","False",468,6200,NA
"A1720HSKGQ41VJ","Tue Sep 15 2020 09:50:37 GMT-0500 (Central Daylight Time)","Tue Sep 15 2020 10:00:08 GMT-0500 (Central Daylight Time)","Mozilla/5.0 (Windows NT 10.0; Win64; x64; rv:80.0) Gecko/20100101 Firefox/80.0",129,"[0.9, 0.5, 0.1]","[0.8, 0.4, 0.2]","[u'black', u'red', u'blue']","[u'left', u'middle', u'right']","[0.8, 0.4, 0.2]","[u'high', u'medium', u'low']","blue",51,"right","low","False","False",248,6150,NA
"A1720HSKGQ41VJ","Tue Sep 15 2020 09:50:37 GMT-0500 (Central Daylight Time)","Tue Sep 15 2020 10:00:08 GMT-0500 (Central Daylight Time)","Mozilla/5.0 (Windows NT 10.0; Win64; x64; rv:80.0) Gecko/20100101 Firefox/80.0",130,"[0.9, 0.5, 0.1]","[0.8, 0.4, 0.2]","[u'black', u'red', u'blue']","[u'left', u'middle', u'right']","[0.8, 0.4, 0.2]","[u'high', u'medium', u'low']","red",50,"middle","medium","False","False",357,6100,NA
"A1720HSKGQ41VJ","Tue Sep 15 2020 09:50:37 GMT-0500 (Central Daylight Time)","Tue Sep 15 2020 10:00:08 GMT-0500 (Central Daylight Time)","Mozilla/5.0 (Windows NT 10.0; Win64; x64; rv:80.0) Gecko/20100101 Firefox/80.0",131,"[0.9, 0.5, 0.1]","[0.8, 0.4, 0.2]","[u'black', u'red', u'blue']","[u'left', u'middle', u'right']","[0.8, 0.4, 0.2]","[u'high', u'medium', u'low']","blue",51,"right","low","False","False",282,6050,NA
"A1720HSKGQ41VJ","Tue Sep 15 2020 09:50:37 GMT-0500 (Central Daylight Time)","Tue Sep 15 2020 10:00:08 GMT-0500 (Central Daylight Time)","Mozilla/5.0 (Windows NT 10.0; Win64; x64; rv:80.0) Gecko/20100101 Firefox/80.0",132,"[0.9, 0.5, 0.1]","[0.8, 0.4, 0.2]","[u'black', u'red', u'blue']","[u'left', u'middle', u'right']","[0.8, 0.4, 0.2]","[u'high', u'medium', u'low']","black",49,"left","high","True","False",235,6150,NA
"A1720HSKGQ41VJ","Tue Sep 15 2020 09:50:37 GMT-0500 (Central Daylight Time)","Tue Sep 15 2020 10:00:08 GMT-0500 (Central Daylight Time)","Mozilla/5.0 (Windows NT 10.0; Win64; x64; rv:80.0) Gecko/20100101 Firefox/80.0",133,"[0.9, 0.5, 0.1]","[0.8, 0.4, 0.2]","[u'black', u'red', u'blue']","[u'left', u'middle', u'right']","[0.8, 0.4, 0.2]","[u'high', u'medium', u'low']","black",49,"left","high","True","False",311,6250,NA
"A1720HSKGQ41VJ","Tue Sep 15 2020 09:50:37 GMT-0500 (Central Daylight Time)","Tue Sep 15 2020 10:00:08 GMT-0500 (Central Daylight Time)","Mozilla/5.0 (Windows NT 10.0; Win64; x64; rv:80.0) Gecko/20100101 Firefox/80.0",134,"[0.9, 0.5, 0.1]","[0.8, 0.4, 0.2]","[u'black', u'red', u'blue']","[u'left', u'middle', u'right']","[0.8, 0.4, 0.2]","[u'high', u'medium', u'low']","black",49,"left","high","True","False",210,6350,NA
"A1720HSKGQ41VJ","Tue Sep 15 2020 09:50:37 GMT-0500 (Central Daylight Time)","Tue Sep 15 2020 10:00:08 GMT-0500 (Central Daylight Time)","Mozilla/5.0 (Windows NT 10.0; Win64; x64; rv:80.0) Gecko/20100101 Firefox/80.0",135,"[0.9, 0.5, 0.1]","[0.8, 0.4, 0.2]","[u'black', u'red', u'blue']","[u'left', u'middle', u'right']","[0.8, 0.4, 0.2]","[u'high', u'medium', u'low']","black",49,"left","high","True","False",205,6450,NA
"A1720HSKGQ41VJ","Tue Sep 15 2020 09:50:37 GMT-0500 (Central Daylight Time)","Tue Sep 15 2020 10:00:08 GMT-0500 (Central Daylight Time)","Mozilla/5.0 (Windows NT 10.0; Win64; x64; rv:80.0) Gecko/20100101 Firefox/80.0",136,"[0.9, 0.5, 0.1]","[0.8, 0.4, 0.2]","[u'black', u'red', u'blue']","[u'left', u'middle', u'right']","[0.8, 0.4, 0.2]","[u'high', u'medium', u'low']","black",49,"left","high","True","False",167,6550,NA
"A1720HSKGQ41VJ","Tue Sep 15 2020 09:50:37 GMT-0500 (Central Daylight Time)","Tue Sep 15 2020 10:00:08 GMT-0500 (Central Daylight Time)","Mozilla/5.0 (Windows NT 10.0; Win64; x64; rv:80.0) Gecko/20100101 Firefox/80.0",137,"[0.9, 0.5, 0.1]","[0.8, 0.4, 0.2]","[u'black', u'red', u'blue']","[u'left', u'middle', u'right']","[0.8, 0.4, 0.2]","[u'high', u'medium', u'low']","black",49,"left","high","True","False",253,6650,NA
"A1720HSKGQ41VJ","Tue Sep 15 2020 09:50:37 GMT-0500 (Central Daylight Time)","Tue Sep 15 2020 10:00:08 GMT-0500 (Central Daylight Time)","Mozilla/5.0 (Windows NT 10.0; Win64; x64; rv:80.0) Gecko/20100101 Firefox/80.0",138,"[0.9, 0.5, 0.1]","[0.8, 0.4, 0.2]","[u'black', u'red', u'blue']","[u'left', u'middle', u'right']","[0.8, 0.4, 0.2]","[u'high', u'medium', u'low']","black",49,"left","high","True","False",257,6750,NA
"A1720HSKGQ41VJ","Tue Sep 15 2020 09:50:37 GMT-0500 (Central Daylight Time)","Tue Sep 15 2020 10:00:08 GMT-0500 (Central Daylight Time)","Mozilla/5.0 (Windows NT 10.0; Win64; x64; rv:80.0) Gecko/20100101 Firefox/80.0",139,"[0.9, 0.5, 0.1]","[0.8, 0.4, 0.2]","[u'black', u'red', u'blue']","[u'left', u'middle', u'right']","[0.8, 0.4, 0.2]","[u'high', u'medium', u'low']","black",49,"left","high","True","False",163,6850,NA
"A1720HSKGQ41VJ","Tue Sep 15 2020 09:50:37 GMT-0500 (Central Daylight Time)","Tue Sep 15 2020 10:00:08 GMT-0500 (Central Daylight Time)","Mozilla/5.0 (Windows NT 10.0; Win64; x64; rv:80.0) Gecko/20100101 Firefox/80.0",140,"[0.9, 0.5, 0.1]","[0.8, 0.4, 0.2]","[u'black', u'red', u'blue']","[u'left', u'middle', u'right']","[0.8, 0.4, 0.2]","[u'high', u'medium', u'low']","black",49,"left","high","True","True",277,6950,NA
"A1720HSKGQ41VJ","Tue Sep 15 2020 09:50:37 GMT-0500 (Central Daylight Time)","Tue Sep 15 2020 10:00:08 GMT-0500 (Central Daylight Time)","Mozilla/5.0 (Windows NT 10.0; Win64; x64; rv:80.0) Gecko/20100101 Firefox/80.0",141,"[0.9, 0.5, 0.1]","[0.8, 0.4, 0.2]","[u'black', u'red', u'blue']","[u'left', u'middle', u'right']","[0.8, 0.4, 0.2]","[u'low', u'medium', u'high']","black",49,"left","low","False","False",279,6900,NA
"A1720HSKGQ41VJ","Tue Sep 15 2020 09:50:37 GMT-0500 (Central Daylight Time)","Tue Sep 15 2020 10:00:08 GMT-0500 (Central Daylight Time)","Mozilla/5.0 (Windows NT 10.0; Win64; x64; rv:80.0) Gecko/20100101 Firefox/80.0",142,"[0.9, 0.5, 0.1]","[0.8, 0.4, 0.2]","[u'black', u'red', u'blue']","[u'left', u'middle', u'right']","[0.8, 0.4, 0.2]","[u'low', u'medium', u'high']","red",50,"middle","medium","False","False",280,6850,NA
"A1720HSKGQ41VJ","Tue Sep 15 2020 09:50:37 GMT-0500 (Central Daylight Time)","Tue Sep 15 2020 10:00:08 GMT-0500 (Central Daylight Time)","Mozilla/5.0 (Windows NT 10.0; Win64; x64; rv:80.0) Gecko/20100101 Firefox/80.0",143,"[0.9, 0.5, 0.1]","[0.8, 0.4, 0.2]","[u'black', u'red', u'blue']","[u'left', u'middle', u'right']","[0.8, 0.4, 0.2]","[u'low', u'medium', u'high']","black",49,"left","low","True","False",100,6950,NA
"A1720HSKGQ41VJ","Tue Sep 15 2020 09:50:37 GMT-0500 (Central Daylight Time)","Tue Sep 15 2020 10:00:08 GMT-0500 (Central Daylight Time)","Mozilla/5.0 (Windows NT 10.0; Win64; x64; rv:80.0) Gecko/20100101 Firefox/80.0",144,"[0.9, 0.5, 0.1]","[0.8, 0.4, 0.2]","[u'black', u'red', u'blue']","[u'left', u'middle', u'right']","[0.8, 0.4, 0.2]","[u'low', u'medium', u'high']","black",49,"left","low","False","False",223,6900,NA
"A1720HSKGQ41VJ","Tue Sep 15 2020 09:50:37 GMT-0500 (Central Daylight Time)","Tue Sep 15 2020 10:00:08 GMT-0500 (Central Daylight Time)","Mozilla/5.0 (Windows NT 10.0; Win64; x64; rv:80.0) Gecko/20100101 Firefox/80.0",145,"[0.9, 0.5, 0.1]","[0.8, 0.4, 0.2]","[u'black', u'red', u'blue']","[u'left', u'middle', u'right']","[0.8, 0.4, 0.2]","[u'low', u'medium', u'high']","black",49,"left","low","False","False",409,6850,NA
"A1720HSKGQ41VJ","Tue Sep 15 2020 09:50:37 GMT-0500 (Central Daylight Time)","Tue Sep 15 2020 10:00:08 GMT-0500 (Central Daylight Time)","Mozilla/5.0 (Windows NT 10.0; Win64; x64; rv:80.0) Gecko/20100101 Firefox/80.0",146,"[0.9, 0.5, 0.1]","[0.8, 0.4, 0.2]","[u'black', u'red', u'blue']","[u'left', u'middle', u'right']","[0.8, 0.4, 0.2]","[u'low', u'medium', u'high']","blue",51,"right","high","False","False",338,6800,NA
"A1720HSKGQ41VJ","Tue Sep 15 2020 09:50:37 GMT-0500 (Central Daylight Time)","Tue Sep 15 2020 10:00:08 GMT-0500 (Central Daylight Time)","Mozilla/5.0 (Windows NT 10.0; Win64; x64; rv:80.0) Gecko/20100101 Firefox/80.0",147,"[0.9, 0.5, 0.1]","[0.8, 0.4, 0.2]","[u'black', u'red', u'blue']","[u'left', u'middle', u'right']","[0.8, 0.4, 0.2]","[u'low', u'medium', u'high']","red",50,"middle","medium","False","False",214,6750,NA
"A1720HSKGQ41VJ","Tue Sep 15 2020 09:50:37 GMT-0500 (Central Daylight Time)","Tue Sep 15 2020 10:00:08 GMT-0500 (Central Daylight Time)","Mozilla/5.0 (Windows NT 10.0; Win64; x64; rv:80.0) Gecko/20100101 Firefox/80.0",148,"[0.9, 0.5, 0.1]","[0.8, 0.4, 0.2]","[u'black', u'red', u'blue']","[u'left', u'middle', u'right']","[0.8, 0.4, 0.2]","[u'low', u'medium', u'high']","red",50,"middle","medium","True","False",273,6850,NA
"A1720HSKGQ41VJ","Tue Sep 15 2020 09:50:37 GMT-0500 (Central Daylight Time)","Tue Sep 15 2020 10:00:08 GMT-0500 (Central Daylight Time)","Mozilla/5.0 (Windows NT 10.0; Win64; x64; rv:80.0) Gecko/20100101 Firefox/80.0",149,"[0.9, 0.5, 0.1]","[0.8, 0.4, 0.2]","[u'black', u'red', u'blue']","[u'left', u'middle', u'right']","[0.8, 0.4, 0.2]","[u'low', u'medium', u'high']","red",50,"middle","medium","False","False",130,6800,NA
"A1720HSKGQ41VJ","Tue Sep 15 2020 09:50:37 GMT-0500 (Central Daylight Time)","Tue Sep 15 2020 10:00:08 GMT-0500 (Central Daylight Time)","Mozilla/5.0 (Windows NT 10.0; Win64; x64; rv:80.0) Gecko/20100101 Firefox/80.0",150,"[0.9, 0.5, 0.1]","[0.8, 0.4, 0.2]","[u'black', u'red', u'blue']","[u'left', u'middle', u'right']","[0.8, 0.4, 0.2]","[u'low', u'medium', u'high']","red",50,"middle","medium","True","False",365,6900,NA
"A1720HSKGQ41VJ","Tue Sep 15 2020 09:50:37 GMT-0500 (Central Daylight Time)","Tue Sep 15 2020 10:00:08 GMT-0500 (Central Daylight Time)","Mozilla/5.0 (Windows NT 10.0; Win64; x64; rv:80.0) Gecko/20100101 Firefox/80.0",151,"[0.9, 0.5, 0.1]","[0.8, 0.4, 0.2]","[u'black', u'red', u'blue']","[u'left', u'middle', u'right']","[0.8, 0.4, 0.2]","[u'low', u'medium', u'high']","red",50,"middle","medium","True","False",582,7000,NA
"A1720HSKGQ41VJ","Tue Sep 15 2020 09:50:37 GMT-0500 (Central Daylight Time)","Tue Sep 15 2020 10:00:08 GMT-0500 (Central Daylight Time)","Mozilla/5.0 (Windows NT 10.0; Win64; x64; rv:80.0) Gecko/20100101 Firefox/80.0",152,"[0.9, 0.5, 0.1]","[0.8, 0.4, 0.2]","[u'black', u'red', u'blue']","[u'left', u'middle', u'right']","[0.8, 0.4, 0.2]","[u'low', u'medium', u'high']","red",50,"middle","medium","False","False",292,6950,NA
"A1720HSKGQ41VJ","Tue Sep 15 2020 09:50:37 GMT-0500 (Central Daylight Time)","Tue Sep 15 2020 10:00:08 GMT-0500 (Central Daylight Time)","Mozilla/5.0 (Windows NT 10.0; Win64; x64; rv:80.0) Gecko/20100101 Firefox/80.0",153,"[0.9, 0.5, 0.1]","[0.8, 0.4, 0.2]","[u'black', u'red', u'blue']","[u'left', u'middle', u'right']","[0.8, 0.4, 0.2]","[u'low', u'medium', u'high']","blue",51,"right","high","True","False",302,7050,NA
"A1720HSKGQ41VJ","Tue Sep 15 2020 09:50:37 GMT-0500 (Central Daylight Time)","Tue Sep 15 2020 10:00:08 GMT-0500 (Central Daylight Time)","Mozilla/5.0 (Windows NT 10.0; Win64; x64; rv:80.0) Gecko/20100101 Firefox/80.0",154,"[0.9, 0.5, 0.1]","[0.8, 0.4, 0.2]","[u'black', u'red', u'blue']","[u'left', u'middle', u'right']","[0.8, 0.4, 0.2]","[u'low', u'medium', u'high']","blue",51,"right","high","True","False",237,7150,NA
"A1720HSKGQ41VJ","Tue Sep 15 2020 09:50:37 GMT-0500 (Central Daylight Time)","Tue Sep 15 2020 10:00:08 GMT-0500 (Central Daylight Time)","Mozilla/5.0 (Windows NT 10.0; Win64; x64; rv:80.0) Gecko/20100101 Firefox/80.0",155,"[0.9, 0.5, 0.1]","[0.8, 0.4, 0.2]","[u'black', u'red', u'blue']","[u'left', u'middle', u'right']","[0.8, 0.4, 0.2]","[u'low', u'medium', u'high']","blue",51,"right","high","True","False",252,7250,NA
"A1720HSKGQ41VJ","Tue Sep 15 2020 09:50:37 GMT-0500 (Central Daylight Time)","Tue Sep 15 2020 10:00:08 GMT-0500 (Central Daylight Time)","Mozilla/5.0 (Windows NT 10.0; Win64; x64; rv:80.0) Gecko/20100101 Firefox/80.0",156,"[0.9, 0.5, 0.1]","[0.8, 0.4, 0.2]","[u'black', u'red', u'blue']","[u'left', u'middle', u'right']","[0.8, 0.4, 0.2]","[u'low', u'medium', u'high']","blue",51,"right","high","True","False",241,7350,NA
"A1720HSKGQ41VJ","Tue Sep 15 2020 09:50:37 GMT-0500 (Central Daylight Time)","Tue Sep 15 2020 10:00:08 GMT-0500 (Central Daylight Time)","Mozilla/5.0 (Windows NT 10.0; Win64; x64; rv:80.0) Gecko/20100101 Firefox/80.0",157,"[0.9, 0.5, 0.1]","[0.8, 0.4, 0.2]","[u'black', u'red', u'blue']","[u'left', u'middle', u'right']","[0.8, 0.4, 0.2]","[u'low', u'medium', u'high']","blue",51,"right","high","True","False",254,7450,NA
"A1720HSKGQ41VJ","Tue Sep 15 2020 09:50:37 GMT-0500 (Central Daylight Time)","Tue Sep 15 2020 10:00:08 GMT-0500 (Central Daylight Time)","Mozilla/5.0 (Windows NT 10.0; Win64; x64; rv:80.0) Gecko/20100101 Firefox/80.0",158,"[0.9, 0.5, 0.1]","[0.8, 0.4, 0.2]","[u'black', u'red', u'blue']","[u'left', u'middle', u'right']","[0.8, 0.4, 0.2]","[u'low', u'medium', u'high']","blue",51,"right","high","True","False",252,7550,NA
"A1720HSKGQ41VJ","Tue Sep 15 2020 09:50:37 GMT-0500 (Central Daylight Time)","Tue Sep 15 2020 10:00:08 GMT-0500 (Central Daylight Time)","Mozilla/5.0 (Windows NT 10.0; Win64; x64; rv:80.0) Gecko/20100101 Firefox/80.0",159,"[0.9, 0.5, 0.1]","[0.8, 0.4, 0.2]","[u'black', u'red', u'blue']","[u'left', u'middle', u'right']","[0.8, 0.4, 0.2]","[u'low', u'medium', u'high']","blue",51,"right","high","True","False",80,7650,NA
"A1720HSKGQ41VJ","Tue Sep 15 2020 09:50:37 GMT-0500 (Central Daylight Time)","Tue Sep 15 2020 10:00:08 GMT-0500 (Central Daylight Time)","Mozilla/5.0 (Windows NT 10.0; Win64; x64; rv:80.0) Gecko/20100101 Firefox/80.0",160,"[0.9, 0.5, 0.1]","[0.8, 0.4, 0.2]","[u'black', u'red', u'blue']","[u'left', u'middle', u'right']","[0.8, 0.4, 0.2]","[u'low', u'medium', u'high']","blue",51,"right","high","True","False",331,7750,NA
