"src_subject_id","start_time","end_time","browser","index","first_half_probabilities","second_half_probabilities","deck_color","deck_position","deck_probabilities","deck_contingencies","response_color","key_press","response_position","response_probability","reward_type","trial_type","rt","reward_tally","exclusion_reason"
"AV6C736XAEG67","Thu Sep 17 2020 12:56:29 GMT-0600 (Mountain Daylight Time)","Thu Sep 17 2020 13:04:45 GMT-0600 (Mountain Daylight Time)","Mozilla/5.0 (X11; CrOS x86_64 13310.76.0) AppleWebKit/537.36 (KHTML, like Gecko) Chrome/85.0.4183.108 Safari/537.36",1,"[0.9, 0.5, 0.1]","[0.8, 0.4, 0.2]","[u'black', u'blue', u'red']","[u'left', u'middle', u'right']","[0.9, 0.5, 0.1]","[u'low', u'high', u'medium']","black",49,"left","low","False","False",2008,-50,NA
"AV6C736XAEG67","Thu Sep 17 2020 12:56:29 GMT-0600 (Mountain Daylight Time)","Thu Sep 17 2020 13:04:45 GMT-0600 (Mountain Daylight Time)","Mozilla/5.0 (X11; CrOS x86_64 13310.76.0) AppleWebKit/537.36 (KHTML, like Gecko) Chrome/85.0.4183.108 Safari/537.36",2,"[0.9, 0.5, 0.1]","[0.8, 0.4, 0.2]","[u'black', u'blue', u'red']","[u'left', u'middle', u'right']","[0.9, 0.5, 0.1]","[u'low', u'high', u'medium']","red",51,"right","medium","False","False",1494,-100,NA
"AV6C736XAEG67","Thu Sep 17 2020 12:56:29 GMT-0600 (Mountain Daylight Time)","Thu Sep 17 2020 13:04:45 GMT-0600 (Mountain Daylight Time)","Mozilla/5.0 (X11; CrOS x86_64 13310.76.0) AppleWebKit/537.36 (KHTML, like Gecko) Chrome/85.0.4183.108 Safari/537.36",3,"[0.9, 0.5, 0.1]","[0.8, 0.4, 0.2]","[u'black', u'blue', u'red']","[u'left', u'middle', u'right']","[0.9, 0.5, 0.1]","[u'low', u'high', u'medium']","blue",50,"middle","high","True","False",31,0,NA
"AV6C736XAEG67","Thu Sep 17 2020 12:56:29 GMT-0600 (Mountain Daylight Time)","Thu Sep 17 2020 13:04:45 GMT-0600 (Mountain Daylight Time)","Mozilla/5.0 (X11; CrOS x86_64 13310.76.0) AppleWebKit/537.36 (KHTML, like Gecko) Chrome/85.0.4183.108 Safari/537.36",4,"[0.9, 0.5, 0.1]","[0.8, 0.4, 0.2]","[u'black', u'blue', u'red']","[u'left', u'middle', u'right']","[0.9, 0.5, 0.1]","[u'low', u'high', u'medium']","black",49,"left","low","False","False",1563,-50,NA
"AV6C736XAEG67","Thu Sep 17 2020 12:56:29 GMT-0600 (Mountain Daylight Time)","Thu Sep 17 2020 13:04:45 GMT-0600 (Mountain Daylight Time)","Mozilla/5.0 (X11; CrOS x86_64 13310.76.0) AppleWebKit/537.36 (KHTML, like Gecko) Chrome/85.0.4183.108 Safari/537.36",5,"[0.9, 0.5, 0.1]","[0.8, 0.4, 0.2]","[u'black', u'blue', u'red']","[u'left', u'middle', u'right']","[0.9, 0.5, 0.1]","[u'low', u'high', u'medium']","red",51,"right","medium","True","False",955,50,NA
"AV6C736XAEG67","Thu Sep 17 2020 12:56:29 GMT-0600 (Mountain Daylight Time)","Thu Sep 17 2020 13:04:45 GMT-0600 (Mountain Daylight Time)","Mozilla/5.0 (X11; CrOS x86_64 13310.76.0) AppleWebKit/537.36 (KHTML, like Gecko) Chrome/85.0.4183.108 Safari/537.36",6,"[0.9, 0.5, 0.1]","[0.8, 0.4, 0.2]","[u'black', u'blue', u'red']","[u'left', u'middle', u'right']","[0.9, 0.5, 0.1]","[u'low', u'high', u'medium']","blue",50,"middle","high","False","False",231,0,NA
"AV6C736XAEG67","Thu Sep 17 2020 12:56:29 GMT-0600 (Mountain Daylight Time)","Thu Sep 17 2020 13:04:45 GMT-0600 (Mountain Daylight Time)","Mozilla/5.0 (X11; CrOS x86_64 13310.76.0) AppleWebKit/537.36 (KHTML, like Gecko) Chrome/85.0.4183.108 Safari/537.36",7,"[0.9, 0.5, 0.1]","[0.8, 0.4, 0.2]","[u'black', u'blue', u'red']","[u'left', u'middle', u'right']","[0.9, 0.5, 0.1]","[u'low', u'high', u'medium']","red",51,"right","medium","True","False",1726,100,NA
"AV6C736XAEG67","Thu Sep 17 2020 12:56:29 GMT-0600 (Mountain Daylight Time)","Thu Sep 17 2020 13:04:45 GMT-0600 (Mountain Daylight Time)","Mozilla/5.0 (X11; CrOS x86_64 13310.76.0) AppleWebKit/537.36 (KHTML, like Gecko) Chrome/85.0.4183.108 Safari/537.36",8,"[0.9, 0.5, 0.1]","[0.8, 0.4, 0.2]","[u'black', u'blue', u'red']","[u'left', u'middle', u'right']","[0.9, 0.5, 0.1]","[u'low', u'high', u'medium']","black",49,"left","low","False","False",913,50,NA
"AV6C736XAEG67","Thu Sep 17 2020 12:56:29 GMT-0600 (Mountain Daylight Time)","Thu Sep 17 2020 13:04:45 GMT-0600 (Mountain Daylight Time)","Mozilla/5.0 (X11; CrOS x86_64 13310.76.0) AppleWebKit/537.36 (KHTML, like Gecko) Chrome/85.0.4183.108 Safari/537.36",9,"[0.9, 0.5, 0.1]","[0.8, 0.4, 0.2]","[u'black', u'blue', u'red']","[u'left', u'middle', u'right']","[0.9, 0.5, 0.1]","[u'low', u'high', u'medium']","red",51,"right","medium","False","False",224,0,NA
"AV6C736XAEG67","Thu Sep 17 2020 12:56:29 GMT-0600 (Mountain Daylight Time)","Thu Sep 17 2020 13:04:45 GMT-0600 (Mountain Daylight Time)","Mozilla/5.0 (X11; CrOS x86_64 13310.76.0) AppleWebKit/537.36 (KHTML, like Gecko) Chrome/85.0.4183.108 Safari/537.36",10,"[0.9, 0.5, 0.1]","[0.8, 0.4, 0.2]","[u'black', u'blue', u'red']","[u'left', u'middle', u'right']","[0.9, 0.5, 0.1]","[u'low', u'high', u'medium']","blue",50,"middle","high","True","False",164,100,NA
"AV6C736XAEG67","Thu Sep 17 2020 12:56:29 GMT-0600 (Mountain Daylight Time)","Thu Sep 17 2020 13:04:45 GMT-0600 (Mountain Daylight Time)","Mozilla/5.0 (X11; CrOS x86_64 13310.76.0) AppleWebKit/537.36 (KHTML, like Gecko) Chrome/85.0.4183.108 Safari/537.36",11,"[0.9, 0.5, 0.1]","[0.8, 0.4, 0.2]","[u'black', u'blue', u'red']","[u'left', u'middle', u'right']","[0.9, 0.5, 0.1]","[u'low', u'high', u'medium']","red",51,"right","medium","True","False",1084,200,NA
"AV6C736XAEG67","Thu Sep 17 2020 12:56:29 GMT-0600 (Mountain Daylight Time)","Thu Sep 17 2020 13:04:45 GMT-0600 (Mountain Daylight Time)","Mozilla/5.0 (X11; CrOS x86_64 13310.76.0) AppleWebKit/537.36 (KHTML, like Gecko) Chrome/85.0.4183.108 Safari/537.36",12,"[0.9, 0.5, 0.1]","[0.8, 0.4, 0.2]","[u'black', u'blue', u'red']","[u'left', u'middle', u'right']","[0.9, 0.5, 0.1]","[u'low', u'high', u'medium']","red",51,"right","medium","True","False",1031,300,NA
"AV6C736XAEG67","Thu Sep 17 2020 12:56:29 GMT-0600 (Mountain Daylight Time)","Thu Sep 17 2020 13:04:45 GMT-0600 (Mountain Daylight Time)","Mozilla/5.0 (X11; CrOS x86_64 13310.76.0) AppleWebKit/537.36 (KHTML, like Gecko) Chrome/85.0.4183.108 Safari/537.36",13,"[0.9, 0.5, 0.1]","[0.8, 0.4, 0.2]","[u'black', u'blue', u'red']","[u'left', u'middle', u'right']","[0.9, 0.5, 0.1]","[u'low', u'high', u'medium']","red",51,"right","medium","True","False",906,400,NA
"AV6C736XAEG67","Thu Sep 17 2020 12:56:29 GMT-0600 (Mountain Daylight Time)","Thu Sep 17 2020 13:04:45 GMT-0600 (Mountain Daylight Time)","Mozilla/5.0 (X11; CrOS x86_64 13310.76.0) AppleWebKit/537.36 (KHTML, like Gecko) Chrome/85.0.4183.108 Safari/537.36",14,"[0.9, 0.5, 0.1]","[0.8, 0.4, 0.2]","[u'black', u'blue', u'red']","[u'left', u'middle', u'right']","[0.9, 0.5, 0.1]","[u'low', u'high', u'medium']","red",51,"right","medium","False","False",875,350,NA
"AV6C736XAEG67","Thu Sep 17 2020 12:56:29 GMT-0600 (Mountain Daylight Time)","Thu Sep 17 2020 13:04:45 GMT-0600 (Mountain Daylight Time)","Mozilla/5.0 (X11; CrOS x86_64 13310.76.0) AppleWebKit/537.36 (KHTML, like Gecko) Chrome/85.0.4183.108 Safari/537.36",15,"[0.9, 0.5, 0.1]","[0.8, 0.4, 0.2]","[u'black', u'blue', u'red']","[u'left', u'middle', u'right']","[0.9, 0.5, 0.1]","[u'low', u'high', u'medium']","blue",50,"middle","high","True","False",1108,450,NA
"AV6C736XAEG67","Thu Sep 17 2020 12:56:29 GMT-0600 (Mountain Daylight Time)","Thu Sep 17 2020 13:04:45 GMT-0600 (Mountain Daylight Time)","Mozilla/5.0 (X11; CrOS x86_64 13310.76.0) AppleWebKit/537.36 (KHTML, like Gecko) Chrome/85.0.4183.108 Safari/537.36",16,"[0.9, 0.5, 0.1]","[0.8, 0.4, 0.2]","[u'black', u'blue', u'red']","[u'left', u'middle', u'right']","[0.9, 0.5, 0.1]","[u'low', u'high', u'medium']","blue",50,"middle","high","True","False",1163,550,NA
"AV6C736XAEG67","Thu Sep 17 2020 12:56:29 GMT-0600 (Mountain Daylight Time)","Thu Sep 17 2020 13:04:45 GMT-0600 (Mountain Daylight Time)","Mozilla/5.0 (X11; CrOS x86_64 13310.76.0) AppleWebKit/537.36 (KHTML, like Gecko) Chrome/85.0.4183.108 Safari/537.36",17,"[0.9, 0.5, 0.1]","[0.8, 0.4, 0.2]","[u'black', u'blue', u'red']","[u'left', u'middle', u'right']","[0.9, 0.5, 0.1]","[u'low', u'high', u'medium']","blue",50,"middle","high","True","False",568,650,NA
"AV6C736XAEG67","Thu Sep 17 2020 12:56:29 GMT-0600 (Mountain Daylight Time)","Thu Sep 17 2020 13:04:45 GMT-0600 (Mountain Daylight Time)","Mozilla/5.0 (X11; CrOS x86_64 13310.76.0) AppleWebKit/537.36 (KHTML, like Gecko) Chrome/85.0.4183.108 Safari/537.36",18,"[0.9, 0.5, 0.1]","[0.8, 0.4, 0.2]","[u'black', u'blue', u'red']","[u'left', u'middle', u'right']","[0.9, 0.5, 0.1]","[u'low', u'high', u'medium']","blue",50,"middle","high","True","False",831,750,NA
"AV6C736XAEG67","Thu Sep 17 2020 12:56:29 GMT-0600 (Mountain Daylight Time)","Thu Sep 17 2020 13:04:45 GMT-0600 (Mountain Daylight Time)","Mozilla/5.0 (X11; CrOS x86_64 13310.76.0) AppleWebKit/537.36 (KHTML, like Gecko) Chrome/85.0.4183.108 Safari/537.36",19,"[0.9, 0.5, 0.1]","[0.8, 0.4, 0.2]","[u'black', u'blue', u'red']","[u'left', u'middle', u'right']","[0.9, 0.5, 0.1]","[u'low', u'high', u'medium']","blue",50,"middle","high","True","False",558,850,NA
"AV6C736XAEG67","Thu Sep 17 2020 12:56:29 GMT-0600 (Mountain Daylight Time)","Thu Sep 17 2020 13:04:45 GMT-0600 (Mountain Daylight Time)","Mozilla/5.0 (X11; CrOS x86_64 13310.76.0) AppleWebKit/537.36 (KHTML, like Gecko) Chrome/85.0.4183.108 Safari/537.36",20,"[0.9, 0.5, 0.1]","[0.8, 0.4, 0.2]","[u'black', u'blue', u'red']","[u'left', u'middle', u'right']","[0.9, 0.5, 0.1]","[u'low', u'high', u'medium']","blue",50,"middle","high","False","False",636,800,NA
"AV6C736XAEG67","Thu Sep 17 2020 12:56:29 GMT-0600 (Mountain Daylight Time)","Thu Sep 17 2020 13:04:45 GMT-0600 (Mountain Daylight Time)","Mozilla/5.0 (X11; CrOS x86_64 13310.76.0) AppleWebKit/537.36 (KHTML, like Gecko) Chrome/85.0.4183.108 Safari/537.36",21,"[0.9, 0.5, 0.1]","[0.8, 0.4, 0.2]","[u'black', u'blue', u'red']","[u'left', u'middle', u'right']","[0.9, 0.5, 0.1]","[u'low', u'high', u'medium']","red",51,"right","medium","False","False",1267,750,NA
"AV6C736XAEG67","Thu Sep 17 2020 12:56:29 GMT-0600 (Mountain Daylight Time)","Thu Sep 17 2020 13:04:45 GMT-0600 (Mountain Daylight Time)","Mozilla/5.0 (X11; CrOS x86_64 13310.76.0) AppleWebKit/537.36 (KHTML, like Gecko) Chrome/85.0.4183.108 Safari/537.36",22,"[0.9, 0.5, 0.1]","[0.8, 0.4, 0.2]","[u'black', u'blue', u'red']","[u'left', u'middle', u'right']","[0.9, 0.5, 0.1]","[u'low', u'high', u'medium']","black",49,"left","low","False","False",299,700,NA
"AV6C736XAEG67","Thu Sep 17 2020 12:56:29 GMT-0600 (Mountain Daylight Time)","Thu Sep 17 2020 13:04:45 GMT-0600 (Mountain Daylight Time)","Mozilla/5.0 (X11; CrOS x86_64 13310.76.0) AppleWebKit/537.36 (KHTML, like Gecko) Chrome/85.0.4183.108 Safari/537.36",23,"[0.9, 0.5, 0.1]","[0.8, 0.4, 0.2]","[u'black', u'blue', u'red']","[u'left', u'middle', u'right']","[0.9, 0.5, 0.1]","[u'low', u'high', u'medium']","blue",50,"middle","high","True","False",49,800,NA
"AV6C736XAEG67","Thu Sep 17 2020 12:56:29 GMT-0600 (Mountain Daylight Time)","Thu Sep 17 2020 13:04:45 GMT-0600 (Mountain Daylight Time)","Mozilla/5.0 (X11; CrOS x86_64 13310.76.0) AppleWebKit/537.36 (KHTML, like Gecko) Chrome/85.0.4183.108 Safari/537.36",24,"[0.9, 0.5, 0.1]","[0.8, 0.4, 0.2]","[u'black', u'blue', u'red']","[u'left', u'middle', u'right']","[0.9, 0.5, 0.1]","[u'low', u'high', u'medium']","blue",50,"middle","high","True","False",197,900,NA
"AV6C736XAEG67","Thu Sep 17 2020 12:56:29 GMT-0600 (Mountain Daylight Time)","Thu Sep 17 2020 13:04:45 GMT-0600 (Mountain Daylight Time)","Mozilla/5.0 (X11; CrOS x86_64 13310.76.0) AppleWebKit/537.36 (KHTML, like Gecko) Chrome/85.0.4183.108 Safari/537.36",25,"[0.9, 0.5, 0.1]","[0.8, 0.4, 0.2]","[u'black', u'blue', u'red']","[u'left', u'middle', u'right']","[0.9, 0.5, 0.1]","[u'low', u'high', u'medium']","blue",50,"middle","high","True","False",1211,1000,NA
"AV6C736XAEG67","Thu Sep 17 2020 12:56:29 GMT-0600 (Mountain Daylight Time)","Thu Sep 17 2020 13:04:45 GMT-0600 (Mountain Daylight Time)","Mozilla/5.0 (X11; CrOS x86_64 13310.76.0) AppleWebKit/537.36 (KHTML, like Gecko) Chrome/85.0.4183.108 Safari/537.36",26,"[0.9, 0.5, 0.1]","[0.8, 0.4, 0.2]","[u'black', u'blue', u'red']","[u'left', u'middle', u'right']","[0.9, 0.5, 0.1]","[u'low', u'high', u'medium']","blue",50,"middle","high","True","False",1083,1100,NA
"AV6C736XAEG67","Thu Sep 17 2020 12:56:29 GMT-0600 (Mountain Daylight Time)","Thu Sep 17 2020 13:04:45 GMT-0600 (Mountain Daylight Time)","Mozilla/5.0 (X11; CrOS x86_64 13310.76.0) AppleWebKit/537.36 (KHTML, like Gecko) Chrome/85.0.4183.108 Safari/537.36",27,"[0.9, 0.5, 0.1]","[0.8, 0.4, 0.2]","[u'black', u'blue', u'red']","[u'left', u'middle', u'right']","[0.9, 0.5, 0.1]","[u'low', u'high', u'medium']","blue",50,"middle","high","True","False",913,1200,NA
"AV6C736XAEG67","Thu Sep 17 2020 12:56:29 GMT-0600 (Mountain Daylight Time)","Thu Sep 17 2020 13:04:45 GMT-0600 (Mountain Daylight Time)","Mozilla/5.0 (X11; CrOS x86_64 13310.76.0) AppleWebKit/537.36 (KHTML, like Gecko) Chrome/85.0.4183.108 Safari/537.36",28,"[0.9, 0.5, 0.1]","[0.8, 0.4, 0.2]","[u'black', u'blue', u'red']","[u'left', u'middle', u'right']","[0.9, 0.5, 0.1]","[u'low', u'high', u'medium']","blue",50,"middle","high","True","False",628,1300,NA
"AV6C736XAEG67","Thu Sep 17 2020 12:56:29 GMT-0600 (Mountain Daylight Time)","Thu Sep 17 2020 13:04:45 GMT-0600 (Mountain Daylight Time)","Mozilla/5.0 (X11; CrOS x86_64 13310.76.0) AppleWebKit/537.36 (KHTML, like Gecko) Chrome/85.0.4183.108 Safari/537.36",29,"[0.9, 0.5, 0.1]","[0.8, 0.4, 0.2]","[u'black', u'blue', u'red']","[u'left', u'middle', u'right']","[0.9, 0.5, 0.1]","[u'low', u'high', u'medium']","blue",50,"middle","high","True","False",689,1400,NA
"AV6C736XAEG67","Thu Sep 17 2020 12:56:29 GMT-0600 (Mountain Daylight Time)","Thu Sep 17 2020 13:04:45 GMT-0600 (Mountain Daylight Time)","Mozilla/5.0 (X11; CrOS x86_64 13310.76.0) AppleWebKit/537.36 (KHTML, like Gecko) Chrome/85.0.4183.108 Safari/537.36",30,"[0.9, 0.5, 0.1]","[0.8, 0.4, 0.2]","[u'black', u'blue', u'red']","[u'left', u'middle', u'right']","[0.9, 0.5, 0.1]","[u'low', u'high', u'medium']","blue",50,"middle","high","True","False",728,1500,NA
"AV6C736XAEG67","Thu Sep 17 2020 12:56:29 GMT-0600 (Mountain Daylight Time)","Thu Sep 17 2020 13:04:45 GMT-0600 (Mountain Daylight Time)","Mozilla/5.0 (X11; CrOS x86_64 13310.76.0) AppleWebKit/537.36 (KHTML, like Gecko) Chrome/85.0.4183.108 Safari/537.36",31,"[0.9, 0.5, 0.1]","[0.8, 0.4, 0.2]","[u'black', u'blue', u'red']","[u'left', u'middle', u'right']","[0.9, 0.5, 0.1]","[u'low', u'high', u'medium']","blue",50,"middle","high","True","True",413,1600,NA
"AV6C736XAEG67","Thu Sep 17 2020 12:56:29 GMT-0600 (Mountain Daylight Time)","Thu Sep 17 2020 13:04:45 GMT-0600 (Mountain Daylight Time)","Mozilla/5.0 (X11; CrOS x86_64 13310.76.0) AppleWebKit/537.36 (KHTML, like Gecko) Chrome/85.0.4183.108 Safari/537.36",32,"[0.9, 0.5, 0.1]","[0.8, 0.4, 0.2]","[u'black', u'blue', u'red']","[u'left', u'middle', u'right']","[0.9, 0.5, 0.1]","[u'high', u'medium', u'low']","blue",50,"middle","medium","True","False",82,1700,NA
"AV6C736XAEG67","Thu Sep 17 2020 12:56:29 GMT-0600 (Mountain Daylight Time)","Thu Sep 17 2020 13:04:45 GMT-0600 (Mountain Daylight Time)","Mozilla/5.0 (X11; CrOS x86_64 13310.76.0) AppleWebKit/537.36 (KHTML, like Gecko) Chrome/85.0.4183.108 Safari/537.36",33,"[0.9, 0.5, 0.1]","[0.8, 0.4, 0.2]","[u'black', u'blue', u'red']","[u'left', u'middle', u'right']","[0.9, 0.5, 0.1]","[u'high', u'medium', u'low']","blue",50,"middle","medium","True","False",208,1800,NA
"AV6C736XAEG67","Thu Sep 17 2020 12:56:29 GMT-0600 (Mountain Daylight Time)","Thu Sep 17 2020 13:04:45 GMT-0600 (Mountain Daylight Time)","Mozilla/5.0 (X11; CrOS x86_64 13310.76.0) AppleWebKit/537.36 (KHTML, like Gecko) Chrome/85.0.4183.108 Safari/537.36",34,"[0.9, 0.5, 0.1]","[0.8, 0.4, 0.2]","[u'black', u'blue', u'red']","[u'left', u'middle', u'right']","[0.9, 0.5, 0.1]","[u'high', u'medium', u'low']","blue",50,"middle","medium","False","False",169,1750,NA
"AV6C736XAEG67","Thu Sep 17 2020 12:56:29 GMT-0600 (Mountain Daylight Time)","Thu Sep 17 2020 13:04:45 GMT-0600 (Mountain Daylight Time)","Mozilla/5.0 (X11; CrOS x86_64 13310.76.0) AppleWebKit/537.36 (KHTML, like Gecko) Chrome/85.0.4183.108 Safari/537.36",35,"[0.9, 0.5, 0.1]","[0.8, 0.4, 0.2]","[u'black', u'blue', u'red']","[u'left', u'middle', u'right']","[0.9, 0.5, 0.1]","[u'high', u'medium', u'low']","blue",50,"middle","medium","True","False",377,1850,NA
"AV6C736XAEG67","Thu Sep 17 2020 12:56:29 GMT-0600 (Mountain Daylight Time)","Thu Sep 17 2020 13:04:45 GMT-0600 (Mountain Daylight Time)","Mozilla/5.0 (X11; CrOS x86_64 13310.76.0) AppleWebKit/537.36 (KHTML, like Gecko) Chrome/85.0.4183.108 Safari/537.36",36,"[0.9, 0.5, 0.1]","[0.8, 0.4, 0.2]","[u'black', u'blue', u'red']","[u'left', u'middle', u'right']","[0.9, 0.5, 0.1]","[u'high', u'medium', u'low']","blue",50,"middle","medium","False","False",1386,1800,NA
"AV6C736XAEG67","Thu Sep 17 2020 12:56:29 GMT-0600 (Mountain Daylight Time)","Thu Sep 17 2020 13:04:45 GMT-0600 (Mountain Daylight Time)","Mozilla/5.0 (X11; CrOS x86_64 13310.76.0) AppleWebKit/537.36 (KHTML, like Gecko) Chrome/85.0.4183.108 Safari/537.36",37,"[0.9, 0.5, 0.1]","[0.8, 0.4, 0.2]","[u'black', u'blue', u'red']","[u'left', u'middle', u'right']","[0.9, 0.5, 0.1]","[u'high', u'medium', u'low']","blue",50,"middle","medium","True","False",91,1900,NA
"AV6C736XAEG67","Thu Sep 17 2020 12:56:29 GMT-0600 (Mountain Daylight Time)","Thu Sep 17 2020 13:04:45 GMT-0600 (Mountain Daylight Time)","Mozilla/5.0 (X11; CrOS x86_64 13310.76.0) AppleWebKit/537.36 (KHTML, like Gecko) Chrome/85.0.4183.108 Safari/537.36",38,"[0.9, 0.5, 0.1]","[0.8, 0.4, 0.2]","[u'black', u'blue', u'red']","[u'left', u'middle', u'right']","[0.9, 0.5, 0.1]","[u'high', u'medium', u'low']","blue",50,"middle","medium","False","False",241,1850,NA
"AV6C736XAEG67","Thu Sep 17 2020 12:56:29 GMT-0600 (Mountain Daylight Time)","Thu Sep 17 2020 13:04:45 GMT-0600 (Mountain Daylight Time)","Mozilla/5.0 (X11; CrOS x86_64 13310.76.0) AppleWebKit/537.36 (KHTML, like Gecko) Chrome/85.0.4183.108 Safari/537.36",39,"[0.9, 0.5, 0.1]","[0.8, 0.4, 0.2]","[u'black', u'blue', u'red']","[u'left', u'middle', u'right']","[0.9, 0.5, 0.1]","[u'high', u'medium', u'low']","blue",50,"middle","medium","True","False",845,1950,NA
"AV6C736XAEG67","Thu Sep 17 2020 12:56:29 GMT-0600 (Mountain Daylight Time)","Thu Sep 17 2020 13:04:45 GMT-0600 (Mountain Daylight Time)","Mozilla/5.0 (X11; CrOS x86_64 13310.76.0) AppleWebKit/537.36 (KHTML, like Gecko) Chrome/85.0.4183.108 Safari/537.36",40,"[0.9, 0.5, 0.1]","[0.8, 0.4, 0.2]","[u'black', u'blue', u'red']","[u'left', u'middle', u'right']","[0.9, 0.5, 0.1]","[u'high', u'medium', u'low']","blue",50,"middle","medium","False","False",786,1900,NA
"AV6C736XAEG67","Thu Sep 17 2020 12:56:29 GMT-0600 (Mountain Daylight Time)","Thu Sep 17 2020 13:04:45 GMT-0600 (Mountain Daylight Time)","Mozilla/5.0 (X11; CrOS x86_64 13310.76.0) AppleWebKit/537.36 (KHTML, like Gecko) Chrome/85.0.4183.108 Safari/537.36",41,"[0.9, 0.5, 0.1]","[0.8, 0.4, 0.2]","[u'black', u'blue', u'red']","[u'left', u'middle', u'right']","[0.9, 0.5, 0.1]","[u'low', u'high', u'medium']","blue",50,"middle","high","True","False",1029,2000,NA
"AV6C736XAEG67","Thu Sep 17 2020 12:56:29 GMT-0600 (Mountain Daylight Time)","Thu Sep 17 2020 13:04:45 GMT-0600 (Mountain Daylight Time)","Mozilla/5.0 (X11; CrOS x86_64 13310.76.0) AppleWebKit/537.36 (KHTML, like Gecko) Chrome/85.0.4183.108 Safari/537.36",42,"[0.9, 0.5, 0.1]","[0.8, 0.4, 0.2]","[u'black', u'blue', u'red']","[u'left', u'middle', u'right']","[0.9, 0.5, 0.1]","[u'low', u'high', u'medium']","blue",50,"middle","high","True","False",848,2100,NA
"AV6C736XAEG67","Thu Sep 17 2020 12:56:29 GMT-0600 (Mountain Daylight Time)","Thu Sep 17 2020 13:04:45 GMT-0600 (Mountain Daylight Time)","Mozilla/5.0 (X11; CrOS x86_64 13310.76.0) AppleWebKit/537.36 (KHTML, like Gecko) Chrome/85.0.4183.108 Safari/537.36",43,"[0.9, 0.5, 0.1]","[0.8, 0.4, 0.2]","[u'black', u'blue', u'red']","[u'left', u'middle', u'right']","[0.9, 0.5, 0.1]","[u'low', u'high', u'medium']","blue",50,"middle","high","True","False",85,2200,NA
"AV6C736XAEG67","Thu Sep 17 2020 12:56:29 GMT-0600 (Mountain Daylight Time)","Thu Sep 17 2020 13:04:45 GMT-0600 (Mountain Daylight Time)","Mozilla/5.0 (X11; CrOS x86_64 13310.76.0) AppleWebKit/537.36 (KHTML, like Gecko) Chrome/85.0.4183.108 Safari/537.36",44,"[0.9, 0.5, 0.1]","[0.8, 0.4, 0.2]","[u'black', u'blue', u'red']","[u'left', u'middle', u'right']","[0.9, 0.5, 0.1]","[u'low', u'high', u'medium']","blue",50,"middle","high","True","False",8,2300,NA
"AV6C736XAEG67","Thu Sep 17 2020 12:56:29 GMT-0600 (Mountain Daylight Time)","Thu Sep 17 2020 13:04:45 GMT-0600 (Mountain Daylight Time)","Mozilla/5.0 (X11; CrOS x86_64 13310.76.0) AppleWebKit/537.36 (KHTML, like Gecko) Chrome/85.0.4183.108 Safari/537.36",45,"[0.9, 0.5, 0.1]","[0.8, 0.4, 0.2]","[u'black', u'blue', u'red']","[u'left', u'middle', u'right']","[0.9, 0.5, 0.1]","[u'low', u'high', u'medium']","blue",50,"middle","high","True","False",821,2400,NA
"AV6C736XAEG67","Thu Sep 17 2020 12:56:29 GMT-0600 (Mountain Daylight Time)","Thu Sep 17 2020 13:04:45 GMT-0600 (Mountain Daylight Time)","Mozilla/5.0 (X11; CrOS x86_64 13310.76.0) AppleWebKit/537.36 (KHTML, like Gecko) Chrome/85.0.4183.108 Safari/537.36",46,"[0.9, 0.5, 0.1]","[0.8, 0.4, 0.2]","[u'black', u'blue', u'red']","[u'left', u'middle', u'right']","[0.9, 0.5, 0.1]","[u'low', u'high', u'medium']","blue",50,"middle","high","False","False",286,2350,NA
"AV6C736XAEG67","Thu Sep 17 2020 12:56:29 GMT-0600 (Mountain Daylight Time)","Thu Sep 17 2020 13:04:45 GMT-0600 (Mountain Daylight Time)","Mozilla/5.0 (X11; CrOS x86_64 13310.76.0) AppleWebKit/537.36 (KHTML, like Gecko) Chrome/85.0.4183.108 Safari/537.36",47,"[0.9, 0.5, 0.1]","[0.8, 0.4, 0.2]","[u'black', u'blue', u'red']","[u'left', u'middle', u'right']","[0.9, 0.5, 0.1]","[u'low', u'high', u'medium']","blue",50,"middle","high","True","False",11,2450,NA
"AV6C736XAEG67","Thu Sep 17 2020 12:56:29 GMT-0600 (Mountain Daylight Time)","Thu Sep 17 2020 13:04:45 GMT-0600 (Mountain Daylight Time)","Mozilla/5.0 (X11; CrOS x86_64 13310.76.0) AppleWebKit/537.36 (KHTML, like Gecko) Chrome/85.0.4183.108 Safari/537.36",48,"[0.9, 0.5, 0.1]","[0.8, 0.4, 0.2]","[u'black', u'blue', u'red']","[u'left', u'middle', u'right']","[0.9, 0.5, 0.1]","[u'low', u'high', u'medium']","blue",50,"middle","high","True","False",17,2550,NA
"AV6C736XAEG67","Thu Sep 17 2020 12:56:29 GMT-0600 (Mountain Daylight Time)","Thu Sep 17 2020 13:04:45 GMT-0600 (Mountain Daylight Time)","Mozilla/5.0 (X11; CrOS x86_64 13310.76.0) AppleWebKit/537.36 (KHTML, like Gecko) Chrome/85.0.4183.108 Safari/537.36",49,"[0.9, 0.5, 0.1]","[0.8, 0.4, 0.2]","[u'black', u'blue', u'red']","[u'left', u'middle', u'right']","[0.9, 0.5, 0.1]","[u'low', u'high', u'medium']","blue",50,"middle","high","True","True",834,2650,NA
"AV6C736XAEG67","Thu Sep 17 2020 12:56:29 GMT-0600 (Mountain Daylight Time)","Thu Sep 17 2020 13:04:45 GMT-0600 (Mountain Daylight Time)","Mozilla/5.0 (X11; CrOS x86_64 13310.76.0) AppleWebKit/537.36 (KHTML, like Gecko) Chrome/85.0.4183.108 Safari/537.36",50,"[0.9, 0.5, 0.1]","[0.8, 0.4, 0.2]","[u'black', u'blue', u'red']","[u'left', u'middle', u'right']","[0.9, 0.5, 0.1]","[u'high', u'medium', u'low']","blue",50,"middle","medium","False","False",374,2600,NA
"AV6C736XAEG67","Thu Sep 17 2020 12:56:29 GMT-0600 (Mountain Daylight Time)","Thu Sep 17 2020 13:04:45 GMT-0600 (Mountain Daylight Time)","Mozilla/5.0 (X11; CrOS x86_64 13310.76.0) AppleWebKit/537.36 (KHTML, like Gecko) Chrome/85.0.4183.108 Safari/537.36",51,"[0.9, 0.5, 0.1]","[0.8, 0.4, 0.2]","[u'black', u'blue', u'red']","[u'left', u'middle', u'right']","[0.9, 0.5, 0.1]","[u'high', u'medium', u'low']","blue",50,"middle","medium","True","False",131,2700,NA
"AV6C736XAEG67","Thu Sep 17 2020 12:56:29 GMT-0600 (Mountain Daylight Time)","Thu Sep 17 2020 13:04:45 GMT-0600 (Mountain Daylight Time)","Mozilla/5.0 (X11; CrOS x86_64 13310.76.0) AppleWebKit/537.36 (KHTML, like Gecko) Chrome/85.0.4183.108 Safari/537.36",52,"[0.9, 0.5, 0.1]","[0.8, 0.4, 0.2]","[u'black', u'blue', u'red']","[u'left', u'middle', u'right']","[0.9, 0.5, 0.1]","[u'high', u'medium', u'low']","blue",50,"middle","medium","False","False",53,2650,NA
"AV6C736XAEG67","Thu Sep 17 2020 12:56:29 GMT-0600 (Mountain Daylight Time)","Thu Sep 17 2020 13:04:45 GMT-0600 (Mountain Daylight Time)","Mozilla/5.0 (X11; CrOS x86_64 13310.76.0) AppleWebKit/537.36 (KHTML, like Gecko) Chrome/85.0.4183.108 Safari/537.36",53,"[0.9, 0.5, 0.1]","[0.8, 0.4, 0.2]","[u'black', u'blue', u'red']","[u'left', u'middle', u'right']","[0.9, 0.5, 0.1]","[u'high', u'medium', u'low']","blue",50,"middle","medium","False","False",1469,2600,NA
"AV6C736XAEG67","Thu Sep 17 2020 12:56:29 GMT-0600 (Mountain Daylight Time)","Thu Sep 17 2020 13:04:45 GMT-0600 (Mountain Daylight Time)","Mozilla/5.0 (X11; CrOS x86_64 13310.76.0) AppleWebKit/537.36 (KHTML, like Gecko) Chrome/85.0.4183.108 Safari/537.36",54,"[0.9, 0.5, 0.1]","[0.8, 0.4, 0.2]","[u'black', u'blue', u'red']","[u'left', u'middle', u'right']","[0.9, 0.5, 0.1]","[u'high', u'medium', u'low']","blue",50,"middle","medium","False","False",739,2550,NA
"AV6C736XAEG67","Thu Sep 17 2020 12:56:29 GMT-0600 (Mountain Daylight Time)","Thu Sep 17 2020 13:04:45 GMT-0600 (Mountain Daylight Time)","Mozilla/5.0 (X11; CrOS x86_64 13310.76.0) AppleWebKit/537.36 (KHTML, like Gecko) Chrome/85.0.4183.108 Safari/537.36",55,"[0.9, 0.5, 0.1]","[0.8, 0.4, 0.2]","[u'black', u'blue', u'red']","[u'left', u'middle', u'right']","[0.9, 0.5, 0.1]","[u'high', u'medium', u'low']","blue",50,"middle","medium","True","False",471,2650,NA
"AV6C736XAEG67","Thu Sep 17 2020 12:56:29 GMT-0600 (Mountain Daylight Time)","Thu Sep 17 2020 13:04:45 GMT-0600 (Mountain Daylight Time)","Mozilla/5.0 (X11; CrOS x86_64 13310.76.0) AppleWebKit/537.36 (KHTML, like Gecko) Chrome/85.0.4183.108 Safari/537.36",56,"[0.9, 0.5, 0.1]","[0.8, 0.4, 0.2]","[u'black', u'blue', u'red']","[u'left', u'middle', u'right']","[0.9, 0.5, 0.1]","[u'high', u'medium', u'low']","blue",50,"middle","medium","True","False",497,2750,NA
"AV6C736XAEG67","Thu Sep 17 2020 12:56:29 GMT-0600 (Mountain Daylight Time)","Thu Sep 17 2020 13:04:45 GMT-0600 (Mountain Daylight Time)","Mozilla/5.0 (X11; CrOS x86_64 13310.76.0) AppleWebKit/537.36 (KHTML, like Gecko) Chrome/85.0.4183.108 Safari/537.36",57,"[0.9, 0.5, 0.1]","[0.8, 0.4, 0.2]","[u'black', u'blue', u'red']","[u'left', u'middle', u'right']","[0.9, 0.5, 0.1]","[u'high', u'medium', u'low']","blue",50,"middle","medium","False","False",450,2700,NA
"AV6C736XAEG67","Thu Sep 17 2020 12:56:29 GMT-0600 (Mountain Daylight Time)","Thu Sep 17 2020 13:04:45 GMT-0600 (Mountain Daylight Time)","Mozilla/5.0 (X11; CrOS x86_64 13310.76.0) AppleWebKit/537.36 (KHTML, like Gecko) Chrome/85.0.4183.108 Safari/537.36",58,"[0.9, 0.5, 0.1]","[0.8, 0.4, 0.2]","[u'black', u'blue', u'red']","[u'left', u'middle', u'right']","[0.9, 0.5, 0.1]","[u'high', u'medium', u'low']","blue",50,"middle","medium","False","False",491,2650,NA
"AV6C736XAEG67","Thu Sep 17 2020 12:56:29 GMT-0600 (Mountain Daylight Time)","Thu Sep 17 2020 13:04:45 GMT-0600 (Mountain Daylight Time)","Mozilla/5.0 (X11; CrOS x86_64 13310.76.0) AppleWebKit/537.36 (KHTML, like Gecko) Chrome/85.0.4183.108 Safari/537.36",59,"[0.9, 0.5, 0.1]","[0.8, 0.4, 0.2]","[u'black', u'blue', u'red']","[u'left', u'middle', u'right']","[0.9, 0.5, 0.1]","[u'high', u'medium', u'low']","blue",50,"middle","medium","True","False",105,2750,NA
"AV6C736XAEG67","Thu Sep 17 2020 12:56:29 GMT-0600 (Mountain Daylight Time)","Thu Sep 17 2020 13:04:45 GMT-0600 (Mountain Daylight Time)","Mozilla/5.0 (X11; CrOS x86_64 13310.76.0) AppleWebKit/537.36 (KHTML, like Gecko) Chrome/85.0.4183.108 Safari/537.36",60,"[0.9, 0.5, 0.1]","[0.8, 0.4, 0.2]","[u'black', u'blue', u'red']","[u'left', u'middle', u'right']","[0.9, 0.5, 0.1]","[u'high', u'medium', u'low']","blue",50,"middle","medium","False","False",104,2700,NA
"AV6C736XAEG67","Thu Sep 17 2020 12:56:29 GMT-0600 (Mountain Daylight Time)","Thu Sep 17 2020 13:04:45 GMT-0600 (Mountain Daylight Time)","Mozilla/5.0 (X11; CrOS x86_64 13310.76.0) AppleWebKit/537.36 (KHTML, like Gecko) Chrome/85.0.4183.108 Safari/537.36",61,"[0.9, 0.5, 0.1]","[0.8, 0.4, 0.2]","[u'black', u'blue', u'red']","[u'left', u'middle', u'right']","[0.9, 0.5, 0.1]","[u'high', u'medium', u'low']","blue",50,"middle","medium","True","False",542,2800,NA
"AV6C736XAEG67","Thu Sep 17 2020 12:56:29 GMT-0600 (Mountain Daylight Time)","Thu Sep 17 2020 13:04:45 GMT-0600 (Mountain Daylight Time)","Mozilla/5.0 (X11; CrOS x86_64 13310.76.0) AppleWebKit/537.36 (KHTML, like Gecko) Chrome/85.0.4183.108 Safari/537.36",62,"[0.9, 0.5, 0.1]","[0.8, 0.4, 0.2]","[u'black', u'blue', u'red']","[u'left', u'middle', u'right']","[0.9, 0.5, 0.1]","[u'high', u'medium', u'low']","blue",50,"middle","medium","False","False",891,2750,NA
"AV6C736XAEG67","Thu Sep 17 2020 12:56:29 GMT-0600 (Mountain Daylight Time)","Thu Sep 17 2020 13:04:45 GMT-0600 (Mountain Daylight Time)","Mozilla/5.0 (X11; CrOS x86_64 13310.76.0) AppleWebKit/537.36 (KHTML, like Gecko) Chrome/85.0.4183.108 Safari/537.36",63,"[0.9, 0.5, 0.1]","[0.8, 0.4, 0.2]","[u'black', u'blue', u'red']","[u'left', u'middle', u'right']","[0.9, 0.5, 0.1]","[u'high', u'medium', u'low']","blue",50,"middle","medium","False","False",592,2700,NA
"AV6C736XAEG67","Thu Sep 17 2020 12:56:29 GMT-0600 (Mountain Daylight Time)","Thu Sep 17 2020 13:04:45 GMT-0600 (Mountain Daylight Time)","Mozilla/5.0 (X11; CrOS x86_64 13310.76.0) AppleWebKit/537.36 (KHTML, like Gecko) Chrome/85.0.4183.108 Safari/537.36",64,"[0.9, 0.5, 0.1]","[0.8, 0.4, 0.2]","[u'black', u'blue', u'red']","[u'left', u'middle', u'right']","[0.9, 0.5, 0.1]","[u'high', u'medium', u'low']","blue",50,"middle","medium","True","False",277,2800,NA
"AV6C736XAEG67","Thu Sep 17 2020 12:56:29 GMT-0600 (Mountain Daylight Time)","Thu Sep 17 2020 13:04:45 GMT-0600 (Mountain Daylight Time)","Mozilla/5.0 (X11; CrOS x86_64 13310.76.0) AppleWebKit/537.36 (KHTML, like Gecko) Chrome/85.0.4183.108 Safari/537.36",65,"[0.9, 0.5, 0.1]","[0.8, 0.4, 0.2]","[u'black', u'blue', u'red']","[u'left', u'middle', u'right']","[0.9, 0.5, 0.1]","[u'high', u'medium', u'low']","blue",50,"middle","medium","False","False",173,2750,NA
"AV6C736XAEG67","Thu Sep 17 2020 12:56:29 GMT-0600 (Mountain Daylight Time)","Thu Sep 17 2020 13:04:45 GMT-0600 (Mountain Daylight Time)","Mozilla/5.0 (X11; CrOS x86_64 13310.76.0) AppleWebKit/537.36 (KHTML, like Gecko) Chrome/85.0.4183.108 Safari/537.36",66,"[0.9, 0.5, 0.1]","[0.8, 0.4, 0.2]","[u'black', u'blue', u'red']","[u'left', u'middle', u'right']","[0.9, 0.5, 0.1]","[u'high', u'medium', u'low']","blue",50,"middle","medium","False","False",25,2700,NA
"AV6C736XAEG67","Thu Sep 17 2020 12:56:29 GMT-0600 (Mountain Daylight Time)","Thu Sep 17 2020 13:04:45 GMT-0600 (Mountain Daylight Time)","Mozilla/5.0 (X11; CrOS x86_64 13310.76.0) AppleWebKit/537.36 (KHTML, like Gecko) Chrome/85.0.4183.108 Safari/537.36",67,"[0.9, 0.5, 0.1]","[0.8, 0.4, 0.2]","[u'black', u'blue', u'red']","[u'left', u'middle', u'right']","[0.9, 0.5, 0.1]","[u'high', u'medium', u'low']","blue",50,"middle","medium","True","False",799,2800,NA
"AV6C736XAEG67","Thu Sep 17 2020 12:56:29 GMT-0600 (Mountain Daylight Time)","Thu Sep 17 2020 13:04:45 GMT-0600 (Mountain Daylight Time)","Mozilla/5.0 (X11; CrOS x86_64 13310.76.0) AppleWebKit/537.36 (KHTML, like Gecko) Chrome/85.0.4183.108 Safari/537.36",68,"[0.9, 0.5, 0.1]","[0.8, 0.4, 0.2]","[u'black', u'blue', u'red']","[u'left', u'middle', u'right']","[0.9, 0.5, 0.1]","[u'high', u'medium', u'low']","blue",50,"middle","medium","False","False",171,2750,NA
"AV6C736XAEG67","Thu Sep 17 2020 12:56:29 GMT-0600 (Mountain Daylight Time)","Thu Sep 17 2020 13:04:45 GMT-0600 (Mountain Daylight Time)","Mozilla/5.0 (X11; CrOS x86_64 13310.76.0) AppleWebKit/537.36 (KHTML, like Gecko) Chrome/85.0.4183.108 Safari/537.36",69,"[0.9, 0.5, 0.1]","[0.8, 0.4, 0.2]","[u'black', u'blue', u'red']","[u'left', u'middle', u'right']","[0.9, 0.5, 0.1]","[u'high', u'medium', u'low']","blue",50,"middle","medium","True","False",328,2850,NA
"AV6C736XAEG67","Thu Sep 17 2020 12:56:29 GMT-0600 (Mountain Daylight Time)","Thu Sep 17 2020 13:04:45 GMT-0600 (Mountain Daylight Time)","Mozilla/5.0 (X11; CrOS x86_64 13310.76.0) AppleWebKit/537.36 (KHTML, like Gecko) Chrome/85.0.4183.108 Safari/537.36",70,"[0.9, 0.5, 0.1]","[0.8, 0.4, 0.2]","[u'black', u'blue', u'red']","[u'left', u'middle', u'right']","[0.9, 0.5, 0.1]","[u'high', u'medium', u'low']","blue",50,"middle","medium","False","False",195,2800,NA
"AV6C736XAEG67","Thu Sep 17 2020 12:56:29 GMT-0600 (Mountain Daylight Time)","Thu Sep 17 2020 13:04:45 GMT-0600 (Mountain Daylight Time)","Mozilla/5.0 (X11; CrOS x86_64 13310.76.0) AppleWebKit/537.36 (KHTML, like Gecko) Chrome/85.0.4183.108 Safari/537.36",71,"[0.9, 0.5, 0.1]","[0.8, 0.4, 0.2]","[u'black', u'blue', u'red']","[u'left', u'middle', u'right']","[0.9, 0.5, 0.1]","[u'high', u'medium', u'low']","blue",50,"middle","medium","False","False",369,2750,NA
"AV6C736XAEG67","Thu Sep 17 2020 12:56:29 GMT-0600 (Mountain Daylight Time)","Thu Sep 17 2020 13:04:45 GMT-0600 (Mountain Daylight Time)","Mozilla/5.0 (X11; CrOS x86_64 13310.76.0) AppleWebKit/537.36 (KHTML, like Gecko) Chrome/85.0.4183.108 Safari/537.36",72,"[0.9, 0.5, 0.1]","[0.8, 0.4, 0.2]","[u'black', u'blue', u'red']","[u'left', u'middle', u'right']","[0.9, 0.5, 0.1]","[u'high', u'medium', u'low']","blue",50,"middle","medium","True","False",341,2850,NA
"AV6C736XAEG67","Thu Sep 17 2020 12:56:29 GMT-0600 (Mountain Daylight Time)","Thu Sep 17 2020 13:04:45 GMT-0600 (Mountain Daylight Time)","Mozilla/5.0 (X11; CrOS x86_64 13310.76.0) AppleWebKit/537.36 (KHTML, like Gecko) Chrome/85.0.4183.108 Safari/537.36",73,"[0.9, 0.5, 0.1]","[0.8, 0.4, 0.2]","[u'black', u'blue', u'red']","[u'left', u'middle', u'right']","[0.9, 0.5, 0.1]","[u'high', u'medium', u'low']","blue",50,"middle","medium","False","False",77,2800,NA
"AV6C736XAEG67","Thu Sep 17 2020 12:56:29 GMT-0600 (Mountain Daylight Time)","Thu Sep 17 2020 13:04:45 GMT-0600 (Mountain Daylight Time)","Mozilla/5.0 (X11; CrOS x86_64 13310.76.0) AppleWebKit/537.36 (KHTML, like Gecko) Chrome/85.0.4183.108 Safari/537.36",74,"[0.9, 0.5, 0.1]","[0.8, 0.4, 0.2]","[u'black', u'blue', u'red']","[u'left', u'middle', u'right']","[0.9, 0.5, 0.1]","[u'high', u'medium', u'low']","blue",50,"middle","medium","False","False",22,2750,NA
"AV6C736XAEG67","Thu Sep 17 2020 12:56:29 GMT-0600 (Mountain Daylight Time)","Thu Sep 17 2020 13:04:45 GMT-0600 (Mountain Daylight Time)","Mozilla/5.0 (X11; CrOS x86_64 13310.76.0) AppleWebKit/537.36 (KHTML, like Gecko) Chrome/85.0.4183.108 Safari/537.36",75,"[0.9, 0.5, 0.1]","[0.8, 0.4, 0.2]","[u'black', u'blue', u'red']","[u'left', u'middle', u'right']","[0.9, 0.5, 0.1]","[u'high', u'medium', u'low']","blue",50,"middle","medium","True","False",742,2850,NA
"AV6C736XAEG67","Thu Sep 17 2020 12:56:29 GMT-0600 (Mountain Daylight Time)","Thu Sep 17 2020 13:04:45 GMT-0600 (Mountain Daylight Time)","Mozilla/5.0 (X11; CrOS x86_64 13310.76.0) AppleWebKit/537.36 (KHTML, like Gecko) Chrome/85.0.4183.108 Safari/537.36",76,"[0.9, 0.5, 0.1]","[0.8, 0.4, 0.2]","[u'black', u'blue', u'red']","[u'left', u'middle', u'right']","[0.9, 0.5, 0.1]","[u'high', u'medium', u'low']","blue",50,"middle","medium","False","False",406,2800,NA
"AV6C736XAEG67","Thu Sep 17 2020 12:56:29 GMT-0600 (Mountain Daylight Time)","Thu Sep 17 2020 13:04:45 GMT-0600 (Mountain Daylight Time)","Mozilla/5.0 (X11; CrOS x86_64 13310.76.0) AppleWebKit/537.36 (KHTML, like Gecko) Chrome/85.0.4183.108 Safari/537.36",77,"[0.9, 0.5, 0.1]","[0.8, 0.4, 0.2]","[u'black', u'blue', u'red']","[u'left', u'middle', u'right']","[0.9, 0.5, 0.1]","[u'high', u'medium', u'low']","blue",50,"middle","medium","True","False",11,2900,NA
"AV6C736XAEG67","Thu Sep 17 2020 12:56:29 GMT-0600 (Mountain Daylight Time)","Thu Sep 17 2020 13:04:45 GMT-0600 (Mountain Daylight Time)","Mozilla/5.0 (X11; CrOS x86_64 13310.76.0) AppleWebKit/537.36 (KHTML, like Gecko) Chrome/85.0.4183.108 Safari/537.36",78,"[0.9, 0.5, 0.1]","[0.8, 0.4, 0.2]","[u'black', u'blue', u'red']","[u'left', u'middle', u'right']","[0.9, 0.5, 0.1]","[u'high', u'medium', u'low']","blue",50,"middle","medium","False","False",361,2850,NA
"AV6C736XAEG67","Thu Sep 17 2020 12:56:29 GMT-0600 (Mountain Daylight Time)","Thu Sep 17 2020 13:04:45 GMT-0600 (Mountain Daylight Time)","Mozilla/5.0 (X11; CrOS x86_64 13310.76.0) AppleWebKit/537.36 (KHTML, like Gecko) Chrome/85.0.4183.108 Safari/537.36",79,"[0.9, 0.5, 0.1]","[0.8, 0.4, 0.2]","[u'black', u'blue', u'red']","[u'left', u'middle', u'right']","[0.9, 0.5, 0.1]","[u'high', u'medium', u'low']","blue",50,"middle","medium","False","False",142,2800,NA
"AV6C736XAEG67","Thu Sep 17 2020 12:56:29 GMT-0600 (Mountain Daylight Time)","Thu Sep 17 2020 13:04:45 GMT-0600 (Mountain Daylight Time)","Mozilla/5.0 (X11; CrOS x86_64 13310.76.0) AppleWebKit/537.36 (KHTML, like Gecko) Chrome/85.0.4183.108 Safari/537.36",80,"[0.9, 0.5, 0.1]","[0.8, 0.4, 0.2]","[u'black', u'blue', u'red']","[u'left', u'middle', u'right']","[0.9, 0.5, 0.1]","[u'high', u'medium', u'low']","blue",50,"middle","medium","True","False",60,2900,NA
"AV6C736XAEG67","Thu Sep 17 2020 12:56:29 GMT-0600 (Mountain Daylight Time)","Thu Sep 17 2020 13:04:45 GMT-0600 (Mountain Daylight Time)","Mozilla/5.0 (X11; CrOS x86_64 13310.76.0) AppleWebKit/537.36 (KHTML, like Gecko) Chrome/85.0.4183.108 Safari/537.36",81,"[0.9, 0.5, 0.1]","[0.8, 0.4, 0.2]","[u'black', u'blue', u'red']","[u'left', u'middle', u'right']","[0.8, 0.4, 0.2]","[u'medium', u'high', u'low']","blue",50,"middle","high","False","False",831,2850,NA
"AV6C736XAEG67","Thu Sep 17 2020 12:56:29 GMT-0600 (Mountain Daylight Time)","Thu Sep 17 2020 13:04:45 GMT-0600 (Mountain Daylight Time)","Mozilla/5.0 (X11; CrOS x86_64 13310.76.0) AppleWebKit/537.36 (KHTML, like Gecko) Chrome/85.0.4183.108 Safari/537.36",82,"[0.9, 0.5, 0.1]","[0.8, 0.4, 0.2]","[u'black', u'blue', u'red']","[u'left', u'middle', u'right']","[0.8, 0.4, 0.2]","[u'medium', u'high', u'low']","blue",50,"middle","high","True","False",643,2950,NA
"AV6C736XAEG67","Thu Sep 17 2020 12:56:29 GMT-0600 (Mountain Daylight Time)","Thu Sep 17 2020 13:04:45 GMT-0600 (Mountain Daylight Time)","Mozilla/5.0 (X11; CrOS x86_64 13310.76.0) AppleWebKit/537.36 (KHTML, like Gecko) Chrome/85.0.4183.108 Safari/537.36",83,"[0.9, 0.5, 0.1]","[0.8, 0.4, 0.2]","[u'black', u'blue', u'red']","[u'left', u'middle', u'right']","[0.8, 0.4, 0.2]","[u'medium', u'high', u'low']","blue",50,"middle","high","True","False",125,3050,NA
"AV6C736XAEG67","Thu Sep 17 2020 12:56:29 GMT-0600 (Mountain Daylight Time)","Thu Sep 17 2020 13:04:45 GMT-0600 (Mountain Daylight Time)","Mozilla/5.0 (X11; CrOS x86_64 13310.76.0) AppleWebKit/537.36 (KHTML, like Gecko) Chrome/85.0.4183.108 Safari/537.36",84,"[0.9, 0.5, 0.1]","[0.8, 0.4, 0.2]","[u'black', u'blue', u'red']","[u'left', u'middle', u'right']","[0.8, 0.4, 0.2]","[u'medium', u'high', u'low']","blue",50,"middle","high","False","False",47,3000,NA
"AV6C736XAEG67","Thu Sep 17 2020 12:56:29 GMT-0600 (Mountain Daylight Time)","Thu Sep 17 2020 13:04:45 GMT-0600 (Mountain Daylight Time)","Mozilla/5.0 (X11; CrOS x86_64 13310.76.0) AppleWebKit/537.36 (KHTML, like Gecko) Chrome/85.0.4183.108 Safari/537.36",85,"[0.9, 0.5, 0.1]","[0.8, 0.4, 0.2]","[u'black', u'blue', u'red']","[u'left', u'middle', u'right']","[0.8, 0.4, 0.2]","[u'medium', u'high', u'low']","blue",50,"middle","high","True","False",137,3100,NA
"AV6C736XAEG67","Thu Sep 17 2020 12:56:29 GMT-0600 (Mountain Daylight Time)","Thu Sep 17 2020 13:04:45 GMT-0600 (Mountain Daylight Time)","Mozilla/5.0 (X11; CrOS x86_64 13310.76.0) AppleWebKit/537.36 (KHTML, like Gecko) Chrome/85.0.4183.108 Safari/537.36",86,"[0.9, 0.5, 0.1]","[0.8, 0.4, 0.2]","[u'black', u'blue', u'red']","[u'left', u'middle', u'right']","[0.8, 0.4, 0.2]","[u'medium', u'high', u'low']","blue",50,"middle","high","True","False",34,3200,NA
"AV6C736XAEG67","Thu Sep 17 2020 12:56:29 GMT-0600 (Mountain Daylight Time)","Thu Sep 17 2020 13:04:45 GMT-0600 (Mountain Daylight Time)","Mozilla/5.0 (X11; CrOS x86_64 13310.76.0) AppleWebKit/537.36 (KHTML, like Gecko) Chrome/85.0.4183.108 Safari/537.36",87,"[0.9, 0.5, 0.1]","[0.8, 0.4, 0.2]","[u'black', u'blue', u'red']","[u'left', u'middle', u'right']","[0.8, 0.4, 0.2]","[u'medium', u'high', u'low']","blue",50,"middle","high","True","False",61,3300,NA
"AV6C736XAEG67","Thu Sep 17 2020 12:56:29 GMT-0600 (Mountain Daylight Time)","Thu Sep 17 2020 13:04:45 GMT-0600 (Mountain Daylight Time)","Mozilla/5.0 (X11; CrOS x86_64 13310.76.0) AppleWebKit/537.36 (KHTML, like Gecko) Chrome/85.0.4183.108 Safari/537.36",88,"[0.9, 0.5, 0.1]","[0.8, 0.4, 0.2]","[u'black', u'blue', u'red']","[u'left', u'middle', u'right']","[0.8, 0.4, 0.2]","[u'medium', u'high', u'low']","blue",50,"middle","high","False","False",46,3250,NA
"AV6C736XAEG67","Thu Sep 17 2020 12:56:29 GMT-0600 (Mountain Daylight Time)","Thu Sep 17 2020 13:04:45 GMT-0600 (Mountain Daylight Time)","Mozilla/5.0 (X11; CrOS x86_64 13310.76.0) AppleWebKit/537.36 (KHTML, like Gecko) Chrome/85.0.4183.108 Safari/537.36",89,"[0.9, 0.5, 0.1]","[0.8, 0.4, 0.2]","[u'black', u'blue', u'red']","[u'left', u'middle', u'right']","[0.8, 0.4, 0.2]","[u'medium', u'high', u'low']","blue",50,"middle","high","True","True",127,3350,NA
"AV6C736XAEG67","Thu Sep 17 2020 12:56:29 GMT-0600 (Mountain Daylight Time)","Thu Sep 17 2020 13:04:45 GMT-0600 (Mountain Daylight Time)","Mozilla/5.0 (X11; CrOS x86_64 13310.76.0) AppleWebKit/537.36 (KHTML, like Gecko) Chrome/85.0.4183.108 Safari/537.36",90,"[0.9, 0.5, 0.1]","[0.8, 0.4, 0.2]","[u'black', u'blue', u'red']","[u'left', u'middle', u'right']","[0.8, 0.4, 0.2]","[u'high', u'medium', u'low']","blue",50,"middle","medium","False","False",17,3300,NA
"AV6C736XAEG67","Thu Sep 17 2020 12:56:29 GMT-0600 (Mountain Daylight Time)","Thu Sep 17 2020 13:04:45 GMT-0600 (Mountain Daylight Time)","Mozilla/5.0 (X11; CrOS x86_64 13310.76.0) AppleWebKit/537.36 (KHTML, like Gecko) Chrome/85.0.4183.108 Safari/537.36",91,"[0.9, 0.5, 0.1]","[0.8, 0.4, 0.2]","[u'black', u'blue', u'red']","[u'left', u'middle', u'right']","[0.8, 0.4, 0.2]","[u'high', u'medium', u'low']","blue",50,"middle","medium","False","False",827,3250,NA
"AV6C736XAEG67","Thu Sep 17 2020 12:56:29 GMT-0600 (Mountain Daylight Time)","Thu Sep 17 2020 13:04:45 GMT-0600 (Mountain Daylight Time)","Mozilla/5.0 (X11; CrOS x86_64 13310.76.0) AppleWebKit/537.36 (KHTML, like Gecko) Chrome/85.0.4183.108 Safari/537.36",92,"[0.9, 0.5, 0.1]","[0.8, 0.4, 0.2]","[u'black', u'blue', u'red']","[u'left', u'middle', u'right']","[0.8, 0.4, 0.2]","[u'high', u'medium', u'low']","blue",50,"middle","medium","False","False",80,3200,NA
"AV6C736XAEG67","Thu Sep 17 2020 12:56:29 GMT-0600 (Mountain Daylight Time)","Thu Sep 17 2020 13:04:45 GMT-0600 (Mountain Daylight Time)","Mozilla/5.0 (X11; CrOS x86_64 13310.76.0) AppleWebKit/537.36 (KHTML, like Gecko) Chrome/85.0.4183.108 Safari/537.36",93,"[0.9, 0.5, 0.1]","[0.8, 0.4, 0.2]","[u'black', u'blue', u'red']","[u'left', u'middle', u'right']","[0.8, 0.4, 0.2]","[u'high', u'medium', u'low']","blue",50,"middle","medium","True","False",87,3300,NA
"AV6C736XAEG67","Thu Sep 17 2020 12:56:29 GMT-0600 (Mountain Daylight Time)","Thu Sep 17 2020 13:04:45 GMT-0600 (Mountain Daylight Time)","Mozilla/5.0 (X11; CrOS x86_64 13310.76.0) AppleWebKit/537.36 (KHTML, like Gecko) Chrome/85.0.4183.108 Safari/537.36",94,"[0.9, 0.5, 0.1]","[0.8, 0.4, 0.2]","[u'black', u'blue', u'red']","[u'left', u'middle', u'right']","[0.8, 0.4, 0.2]","[u'high', u'medium', u'low']","blue",50,"middle","medium","False","False",978,3250,NA
"AV6C736XAEG67","Thu Sep 17 2020 12:56:29 GMT-0600 (Mountain Daylight Time)","Thu Sep 17 2020 13:04:45 GMT-0600 (Mountain Daylight Time)","Mozilla/5.0 (X11; CrOS x86_64 13310.76.0) AppleWebKit/537.36 (KHTML, like Gecko) Chrome/85.0.4183.108 Safari/537.36",95,"[0.9, 0.5, 0.1]","[0.8, 0.4, 0.2]","[u'black', u'blue', u'red']","[u'left', u'middle', u'right']","[0.8, 0.4, 0.2]","[u'high', u'medium', u'low']","blue",50,"middle","medium","False","False",743,3200,NA
"AV6C736XAEG67","Thu Sep 17 2020 12:56:29 GMT-0600 (Mountain Daylight Time)","Thu Sep 17 2020 13:04:45 GMT-0600 (Mountain Daylight Time)","Mozilla/5.0 (X11; CrOS x86_64 13310.76.0) AppleWebKit/537.36 (KHTML, like Gecko) Chrome/85.0.4183.108 Safari/537.36",96,"[0.9, 0.5, 0.1]","[0.8, 0.4, 0.2]","[u'black', u'blue', u'red']","[u'left', u'middle', u'right']","[0.8, 0.4, 0.2]","[u'high', u'medium', u'low']","blue",50,"middle","medium","False","False",89,3150,NA
"AV6C736XAEG67","Thu Sep 17 2020 12:56:29 GMT-0600 (Mountain Daylight Time)","Thu Sep 17 2020 13:04:45 GMT-0600 (Mountain Daylight Time)","Mozilla/5.0 (X11; CrOS x86_64 13310.76.0) AppleWebKit/537.36 (KHTML, like Gecko) Chrome/85.0.4183.108 Safari/537.36",97,"[0.9, 0.5, 0.1]","[0.8, 0.4, 0.2]","[u'black', u'blue', u'red']","[u'left', u'middle', u'right']","[0.8, 0.4, 0.2]","[u'high', u'medium', u'low']","blue",50,"middle","medium","False","False",26,3100,NA
"AV6C736XAEG67","Thu Sep 17 2020 12:56:29 GMT-0600 (Mountain Daylight Time)","Thu Sep 17 2020 13:04:45 GMT-0600 (Mountain Daylight Time)","Mozilla/5.0 (X11; CrOS x86_64 13310.76.0) AppleWebKit/537.36 (KHTML, like Gecko) Chrome/85.0.4183.108 Safari/537.36",98,"[0.9, 0.5, 0.1]","[0.8, 0.4, 0.2]","[u'black', u'blue', u'red']","[u'left', u'middle', u'right']","[0.8, 0.4, 0.2]","[u'high', u'medium', u'low']","blue",50,"middle","medium","False","False",137,3050,NA
"AV6C736XAEG67","Thu Sep 17 2020 12:56:29 GMT-0600 (Mountain Daylight Time)","Thu Sep 17 2020 13:04:45 GMT-0600 (Mountain Daylight Time)","Mozilla/5.0 (X11; CrOS x86_64 13310.76.0) AppleWebKit/537.36 (KHTML, like Gecko) Chrome/85.0.4183.108 Safari/537.36",99,"[0.9, 0.5, 0.1]","[0.8, 0.4, 0.2]","[u'black', u'blue', u'red']","[u'left', u'middle', u'right']","[0.8, 0.4, 0.2]","[u'high', u'medium', u'low']","blue",50,"middle","medium","False","False",886,3000,NA
"AV6C736XAEG67","Thu Sep 17 2020 12:56:29 GMT-0600 (Mountain Daylight Time)","Thu Sep 17 2020 13:04:45 GMT-0600 (Mountain Daylight Time)","Mozilla/5.0 (X11; CrOS x86_64 13310.76.0) AppleWebKit/537.36 (KHTML, like Gecko) Chrome/85.0.4183.108 Safari/537.36",100,"[0.9, 0.5, 0.1]","[0.8, 0.4, 0.2]","[u'black', u'blue', u'red']","[u'left', u'middle', u'right']","[0.8, 0.4, 0.2]","[u'high', u'medium', u'low']","blue",50,"middle","medium","False","False",380,2950,NA
"AV6C736XAEG67","Thu Sep 17 2020 12:56:29 GMT-0600 (Mountain Daylight Time)","Thu Sep 17 2020 13:04:45 GMT-0600 (Mountain Daylight Time)","Mozilla/5.0 (X11; CrOS x86_64 13310.76.0) AppleWebKit/537.36 (KHTML, like Gecko) Chrome/85.0.4183.108 Safari/537.36",101,"[0.9, 0.5, 0.1]","[0.8, 0.4, 0.2]","[u'black', u'blue', u'red']","[u'left', u'middle', u'right']","[0.8, 0.4, 0.2]","[u'high', u'medium', u'low']","blue",50,"middle","medium","True","False",734,3050,NA
"AV6C736XAEG67","Thu Sep 17 2020 12:56:29 GMT-0600 (Mountain Daylight Time)","Thu Sep 17 2020 13:04:45 GMT-0600 (Mountain Daylight Time)","Mozilla/5.0 (X11; CrOS x86_64 13310.76.0) AppleWebKit/537.36 (KHTML, like Gecko) Chrome/85.0.4183.108 Safari/537.36",102,"[0.9, 0.5, 0.1]","[0.8, 0.4, 0.2]","[u'black', u'blue', u'red']","[u'left', u'middle', u'right']","[0.8, 0.4, 0.2]","[u'high', u'medium', u'low']","blue",50,"middle","medium","True","False",100,3150,NA
"AV6C736XAEG67","Thu Sep 17 2020 12:56:29 GMT-0600 (Mountain Daylight Time)","Thu Sep 17 2020 13:04:45 GMT-0600 (Mountain Daylight Time)","Mozilla/5.0 (X11; CrOS x86_64 13310.76.0) AppleWebKit/537.36 (KHTML, like Gecko) Chrome/85.0.4183.108 Safari/537.36",103,"[0.9, 0.5, 0.1]","[0.8, 0.4, 0.2]","[u'black', u'blue', u'red']","[u'left', u'middle', u'right']","[0.8, 0.4, 0.2]","[u'high', u'medium', u'low']","blue",50,"middle","medium","False","False",577,3100,NA
"AV6C736XAEG67","Thu Sep 17 2020 12:56:29 GMT-0600 (Mountain Daylight Time)","Thu Sep 17 2020 13:04:45 GMT-0600 (Mountain Daylight Time)","Mozilla/5.0 (X11; CrOS x86_64 13310.76.0) AppleWebKit/537.36 (KHTML, like Gecko) Chrome/85.0.4183.108 Safari/537.36",104,"[0.9, 0.5, 0.1]","[0.8, 0.4, 0.2]","[u'black', u'blue', u'red']","[u'left', u'middle', u'right']","[0.8, 0.4, 0.2]","[u'high', u'medium', u'low']","blue",50,"middle","medium","False","False",438,3050,NA
"AV6C736XAEG67","Thu Sep 17 2020 12:56:29 GMT-0600 (Mountain Daylight Time)","Thu Sep 17 2020 13:04:45 GMT-0600 (Mountain Daylight Time)","Mozilla/5.0 (X11; CrOS x86_64 13310.76.0) AppleWebKit/537.36 (KHTML, like Gecko) Chrome/85.0.4183.108 Safari/537.36",105,"[0.9, 0.5, 0.1]","[0.8, 0.4, 0.2]","[u'black', u'blue', u'red']","[u'left', u'middle', u'right']","[0.8, 0.4, 0.2]","[u'high', u'medium', u'low']","blue",50,"middle","medium","False","False",97,3000,NA
"AV6C736XAEG67","Thu Sep 17 2020 12:56:29 GMT-0600 (Mountain Daylight Time)","Thu Sep 17 2020 13:04:45 GMT-0600 (Mountain Daylight Time)","Mozilla/5.0 (X11; CrOS x86_64 13310.76.0) AppleWebKit/537.36 (KHTML, like Gecko) Chrome/85.0.4183.108 Safari/537.36",106,"[0.9, 0.5, 0.1]","[0.8, 0.4, 0.2]","[u'black', u'blue', u'red']","[u'left', u'middle', u'right']","[0.8, 0.4, 0.2]","[u'high', u'medium', u'low']","blue",50,"middle","medium","False","False",37,2950,NA
"AV6C736XAEG67","Thu Sep 17 2020 12:56:29 GMT-0600 (Mountain Daylight Time)","Thu Sep 17 2020 13:04:45 GMT-0600 (Mountain Daylight Time)","Mozilla/5.0 (X11; CrOS x86_64 13310.76.0) AppleWebKit/537.36 (KHTML, like Gecko) Chrome/85.0.4183.108 Safari/537.36",107,"[0.9, 0.5, 0.1]","[0.8, 0.4, 0.2]","[u'black', u'blue', u'red']","[u'left', u'middle', u'right']","[0.8, 0.4, 0.2]","[u'high', u'medium', u'low']","blue",50,"middle","medium","False","False",480,2900,NA
"AV6C736XAEG67","Thu Sep 17 2020 12:56:29 GMT-0600 (Mountain Daylight Time)","Thu Sep 17 2020 13:04:45 GMT-0600 (Mountain Daylight Time)","Mozilla/5.0 (X11; CrOS x86_64 13310.76.0) AppleWebKit/537.36 (KHTML, like Gecko) Chrome/85.0.4183.108 Safari/537.36",108,"[0.9, 0.5, 0.1]","[0.8, 0.4, 0.2]","[u'black', u'blue', u'red']","[u'left', u'middle', u'right']","[0.8, 0.4, 0.2]","[u'high', u'medium', u'low']","blue",50,"middle","medium","False","False",18,2850,NA
"AV6C736XAEG67","Thu Sep 17 2020 12:56:29 GMT-0600 (Mountain Daylight Time)","Thu Sep 17 2020 13:04:45 GMT-0600 (Mountain Daylight Time)","Mozilla/5.0 (X11; CrOS x86_64 13310.76.0) AppleWebKit/537.36 (KHTML, like Gecko) Chrome/85.0.4183.108 Safari/537.36",109,"[0.9, 0.5, 0.1]","[0.8, 0.4, 0.2]","[u'black', u'blue', u'red']","[u'left', u'middle', u'right']","[0.8, 0.4, 0.2]","[u'high', u'medium', u'low']","blue",50,"middle","medium","False","False",615,2800,NA
"AV6C736XAEG67","Thu Sep 17 2020 12:56:29 GMT-0600 (Mountain Daylight Time)","Thu Sep 17 2020 13:04:45 GMT-0600 (Mountain Daylight Time)","Mozilla/5.0 (X11; CrOS x86_64 13310.76.0) AppleWebKit/537.36 (KHTML, like Gecko) Chrome/85.0.4183.108 Safari/537.36",110,"[0.9, 0.5, 0.1]","[0.8, 0.4, 0.2]","[u'black', u'blue', u'red']","[u'left', u'middle', u'right']","[0.8, 0.4, 0.2]","[u'high', u'medium', u'low']","blue",50,"middle","medium","False","False",176,2750,NA
"AV6C736XAEG67","Thu Sep 17 2020 12:56:29 GMT-0600 (Mountain Daylight Time)","Thu Sep 17 2020 13:04:45 GMT-0600 (Mountain Daylight Time)","Mozilla/5.0 (X11; CrOS x86_64 13310.76.0) AppleWebKit/537.36 (KHTML, like Gecko) Chrome/85.0.4183.108 Safari/537.36",111,"[0.9, 0.5, 0.1]","[0.8, 0.4, 0.2]","[u'black', u'blue', u'red']","[u'left', u'middle', u'right']","[0.8, 0.4, 0.2]","[u'high', u'medium', u'low']","blue",50,"middle","medium","False","False",530,2700,NA
"AV6C736XAEG67","Thu Sep 17 2020 12:56:29 GMT-0600 (Mountain Daylight Time)","Thu Sep 17 2020 13:04:45 GMT-0600 (Mountain Daylight Time)","Mozilla/5.0 (X11; CrOS x86_64 13310.76.0) AppleWebKit/537.36 (KHTML, like Gecko) Chrome/85.0.4183.108 Safari/537.36",112,"[0.9, 0.5, 0.1]","[0.8, 0.4, 0.2]","[u'black', u'blue', u'red']","[u'left', u'middle', u'right']","[0.8, 0.4, 0.2]","[u'high', u'medium', u'low']","blue",50,"middle","medium","False","False",65,2650,NA
"AV6C736XAEG67","Thu Sep 17 2020 12:56:29 GMT-0600 (Mountain Daylight Time)","Thu Sep 17 2020 13:04:45 GMT-0600 (Mountain Daylight Time)","Mozilla/5.0 (X11; CrOS x86_64 13310.76.0) AppleWebKit/537.36 (KHTML, like Gecko) Chrome/85.0.4183.108 Safari/537.36",113,"[0.9, 0.5, 0.1]","[0.8, 0.4, 0.2]","[u'black', u'blue', u'red']","[u'left', u'middle', u'right']","[0.8, 0.4, 0.2]","[u'high', u'medium', u'low']","blue",50,"middle","medium","False","False",609,2600,NA
"AV6C736XAEG67","Thu Sep 17 2020 12:56:29 GMT-0600 (Mountain Daylight Time)","Thu Sep 17 2020 13:04:45 GMT-0600 (Mountain Daylight Time)","Mozilla/5.0 (X11; CrOS x86_64 13310.76.0) AppleWebKit/537.36 (KHTML, like Gecko) Chrome/85.0.4183.108 Safari/537.36",114,"[0.9, 0.5, 0.1]","[0.8, 0.4, 0.2]","[u'black', u'blue', u'red']","[u'left', u'middle', u'right']","[0.8, 0.4, 0.2]","[u'high', u'medium', u'low']","blue",50,"middle","medium","True","False",46,2700,NA
"AV6C736XAEG67","Thu Sep 17 2020 12:56:29 GMT-0600 (Mountain Daylight Time)","Thu Sep 17 2020 13:04:45 GMT-0600 (Mountain Daylight Time)","Mozilla/5.0 (X11; CrOS x86_64 13310.76.0) AppleWebKit/537.36 (KHTML, like Gecko) Chrome/85.0.4183.108 Safari/537.36",115,"[0.9, 0.5, 0.1]","[0.8, 0.4, 0.2]","[u'black', u'blue', u'red']","[u'left', u'middle', u'right']","[0.8, 0.4, 0.2]","[u'high', u'medium', u'low']","blue",50,"middle","medium","False","False",371,2650,NA
"AV6C736XAEG67","Thu Sep 17 2020 12:56:29 GMT-0600 (Mountain Daylight Time)","Thu Sep 17 2020 13:04:45 GMT-0600 (Mountain Daylight Time)","Mozilla/5.0 (X11; CrOS x86_64 13310.76.0) AppleWebKit/537.36 (KHTML, like Gecko) Chrome/85.0.4183.108 Safari/537.36",116,"[0.9, 0.5, 0.1]","[0.8, 0.4, 0.2]","[u'black', u'blue', u'red']","[u'left', u'middle', u'right']","[0.8, 0.4, 0.2]","[u'high', u'medium', u'low']","blue",50,"middle","medium","False","False",90,2600,NA
"AV6C736XAEG67","Thu Sep 17 2020 12:56:29 GMT-0600 (Mountain Daylight Time)","Thu Sep 17 2020 13:04:45 GMT-0600 (Mountain Daylight Time)","Mozilla/5.0 (X11; CrOS x86_64 13310.76.0) AppleWebKit/537.36 (KHTML, like Gecko) Chrome/85.0.4183.108 Safari/537.36",117,"[0.9, 0.5, 0.1]","[0.8, 0.4, 0.2]","[u'black', u'blue', u'red']","[u'left', u'middle', u'right']","[0.8, 0.4, 0.2]","[u'high', u'medium', u'low']","blue",50,"middle","medium","False","False",796,2550,NA
"AV6C736XAEG67","Thu Sep 17 2020 12:56:29 GMT-0600 (Mountain Daylight Time)","Thu Sep 17 2020 13:04:45 GMT-0600 (Mountain Daylight Time)","Mozilla/5.0 (X11; CrOS x86_64 13310.76.0) AppleWebKit/537.36 (KHTML, like Gecko) Chrome/85.0.4183.108 Safari/537.36",118,"[0.9, 0.5, 0.1]","[0.8, 0.4, 0.2]","[u'black', u'blue', u'red']","[u'left', u'middle', u'right']","[0.8, 0.4, 0.2]","[u'high', u'medium', u'low']","blue",50,"middle","medium","True","False",131,2650,NA
"AV6C736XAEG67","Thu Sep 17 2020 12:56:29 GMT-0600 (Mountain Daylight Time)","Thu Sep 17 2020 13:04:45 GMT-0600 (Mountain Daylight Time)","Mozilla/5.0 (X11; CrOS x86_64 13310.76.0) AppleWebKit/537.36 (KHTML, like Gecko) Chrome/85.0.4183.108 Safari/537.36",119,"[0.9, 0.5, 0.1]","[0.8, 0.4, 0.2]","[u'black', u'blue', u'red']","[u'left', u'middle', u'right']","[0.8, 0.4, 0.2]","[u'high', u'medium', u'low']","blue",50,"middle","medium","False","False",77,2600,NA
"AV6C736XAEG67","Thu Sep 17 2020 12:56:29 GMT-0600 (Mountain Daylight Time)","Thu Sep 17 2020 13:04:45 GMT-0600 (Mountain Daylight Time)","Mozilla/5.0 (X11; CrOS x86_64 13310.76.0) AppleWebKit/537.36 (KHTML, like Gecko) Chrome/85.0.4183.108 Safari/537.36",120,"[0.9, 0.5, 0.1]","[0.8, 0.4, 0.2]","[u'black', u'blue', u'red']","[u'left', u'middle', u'right']","[0.8, 0.4, 0.2]","[u'high', u'medium', u'low']","blue",50,"middle","medium","False","False",185,2550,NA
"AV6C736XAEG67","Thu Sep 17 2020 12:56:29 GMT-0600 (Mountain Daylight Time)","Thu Sep 17 2020 13:04:45 GMT-0600 (Mountain Daylight Time)","Mozilla/5.0 (X11; CrOS x86_64 13310.76.0) AppleWebKit/537.36 (KHTML, like Gecko) Chrome/85.0.4183.108 Safari/537.36",121,"[0.9, 0.5, 0.1]","[0.8, 0.4, 0.2]","[u'black', u'blue', u'red']","[u'left', u'middle', u'right']","[0.8, 0.4, 0.2]","[u'low', u'medium', u'high']","blue",50,"middle","medium","True","False",1018,2650,NA
"AV6C736XAEG67","Thu Sep 17 2020 12:56:29 GMT-0600 (Mountain Daylight Time)","Thu Sep 17 2020 13:04:45 GMT-0600 (Mountain Daylight Time)","Mozilla/5.0 (X11; CrOS x86_64 13310.76.0) AppleWebKit/537.36 (KHTML, like Gecko) Chrome/85.0.4183.108 Safari/537.36",122,"[0.9, 0.5, 0.1]","[0.8, 0.4, 0.2]","[u'black', u'blue', u'red']","[u'left', u'middle', u'right']","[0.8, 0.4, 0.2]","[u'low', u'medium', u'high']","blue",50,"middle","medium","True","False",606,2750,NA
"AV6C736XAEG67","Thu Sep 17 2020 12:56:29 GMT-0600 (Mountain Daylight Time)","Thu Sep 17 2020 13:04:45 GMT-0600 (Mountain Daylight Time)","Mozilla/5.0 (X11; CrOS x86_64 13310.76.0) AppleWebKit/537.36 (KHTML, like Gecko) Chrome/85.0.4183.108 Safari/537.36",123,"[0.9, 0.5, 0.1]","[0.8, 0.4, 0.2]","[u'black', u'blue', u'red']","[u'left', u'middle', u'right']","[0.8, 0.4, 0.2]","[u'low', u'medium', u'high']","blue",50,"middle","medium","False","False",114,2700,NA
"AV6C736XAEG67","Thu Sep 17 2020 12:56:29 GMT-0600 (Mountain Daylight Time)","Thu Sep 17 2020 13:04:45 GMT-0600 (Mountain Daylight Time)","Mozilla/5.0 (X11; CrOS x86_64 13310.76.0) AppleWebKit/537.36 (KHTML, like Gecko) Chrome/85.0.4183.108 Safari/537.36",124,"[0.9, 0.5, 0.1]","[0.8, 0.4, 0.2]","[u'black', u'blue', u'red']","[u'left', u'middle', u'right']","[0.8, 0.4, 0.2]","[u'low', u'medium', u'high']","blue",50,"middle","medium","True","False",64,2800,NA
"AV6C736XAEG67","Thu Sep 17 2020 12:56:29 GMT-0600 (Mountain Daylight Time)","Thu Sep 17 2020 13:04:45 GMT-0600 (Mountain Daylight Time)","Mozilla/5.0 (X11; CrOS x86_64 13310.76.0) AppleWebKit/537.36 (KHTML, like Gecko) Chrome/85.0.4183.108 Safari/537.36",125,"[0.9, 0.5, 0.1]","[0.8, 0.4, 0.2]","[u'black', u'blue', u'red']","[u'left', u'middle', u'right']","[0.8, 0.4, 0.2]","[u'low', u'medium', u'high']","blue",50,"middle","medium","False","False",165,2750,NA
"AV6C736XAEG67","Thu Sep 17 2020 12:56:29 GMT-0600 (Mountain Daylight Time)","Thu Sep 17 2020 13:04:45 GMT-0600 (Mountain Daylight Time)","Mozilla/5.0 (X11; CrOS x86_64 13310.76.0) AppleWebKit/537.36 (KHTML, like Gecko) Chrome/85.0.4183.108 Safari/537.36",126,"[0.9, 0.5, 0.1]","[0.8, 0.4, 0.2]","[u'black', u'blue', u'red']","[u'left', u'middle', u'right']","[0.8, 0.4, 0.2]","[u'low', u'medium', u'high']","blue",50,"middle","medium","False","False",343,2700,NA
"AV6C736XAEG67","Thu Sep 17 2020 12:56:29 GMT-0600 (Mountain Daylight Time)","Thu Sep 17 2020 13:04:45 GMT-0600 (Mountain Daylight Time)","Mozilla/5.0 (X11; CrOS x86_64 13310.76.0) AppleWebKit/537.36 (KHTML, like Gecko) Chrome/85.0.4183.108 Safari/537.36",127,"[0.9, 0.5, 0.1]","[0.8, 0.4, 0.2]","[u'black', u'blue', u'red']","[u'left', u'middle', u'right']","[0.8, 0.4, 0.2]","[u'low', u'medium', u'high']","blue",50,"middle","medium","False","False",387,2650,NA
"AV6C736XAEG67","Thu Sep 17 2020 12:56:29 GMT-0600 (Mountain Daylight Time)","Thu Sep 17 2020 13:04:45 GMT-0600 (Mountain Daylight Time)","Mozilla/5.0 (X11; CrOS x86_64 13310.76.0) AppleWebKit/537.36 (KHTML, like Gecko) Chrome/85.0.4183.108 Safari/537.36",128,"[0.9, 0.5, 0.1]","[0.8, 0.4, 0.2]","[u'black', u'blue', u'red']","[u'left', u'middle', u'right']","[0.8, 0.4, 0.2]","[u'low', u'medium', u'high']","blue",50,"middle","medium","False","False",271,2600,NA
"AV6C736XAEG67","Thu Sep 17 2020 12:56:29 GMT-0600 (Mountain Daylight Time)","Thu Sep 17 2020 13:04:45 GMT-0600 (Mountain Daylight Time)","Mozilla/5.0 (X11; CrOS x86_64 13310.76.0) AppleWebKit/537.36 (KHTML, like Gecko) Chrome/85.0.4183.108 Safari/537.36",129,"[0.9, 0.5, 0.1]","[0.8, 0.4, 0.2]","[u'black', u'blue', u'red']","[u'left', u'middle', u'right']","[0.8, 0.4, 0.2]","[u'low', u'medium', u'high']","blue",50,"middle","medium","True","False",223,2700,NA
"AV6C736XAEG67","Thu Sep 17 2020 12:56:29 GMT-0600 (Mountain Daylight Time)","Thu Sep 17 2020 13:04:45 GMT-0600 (Mountain Daylight Time)","Mozilla/5.0 (X11; CrOS x86_64 13310.76.0) AppleWebKit/537.36 (KHTML, like Gecko) Chrome/85.0.4183.108 Safari/537.36",130,"[0.9, 0.5, 0.1]","[0.8, 0.4, 0.2]","[u'black', u'blue', u'red']","[u'left', u'middle', u'right']","[0.8, 0.4, 0.2]","[u'low', u'medium', u'high']","blue",50,"middle","medium","True","False",43,2800,NA
"AV6C736XAEG67","Thu Sep 17 2020 12:56:29 GMT-0600 (Mountain Daylight Time)","Thu Sep 17 2020 13:04:45 GMT-0600 (Mountain Daylight Time)","Mozilla/5.0 (X11; CrOS x86_64 13310.76.0) AppleWebKit/537.36 (KHTML, like Gecko) Chrome/85.0.4183.108 Safari/537.36",131,"[0.9, 0.5, 0.1]","[0.8, 0.4, 0.2]","[u'black', u'blue', u'red']","[u'left', u'middle', u'right']","[0.8, 0.4, 0.2]","[u'low', u'medium', u'high']","blue",50,"middle","medium","False","False",456,2750,NA
"AV6C736XAEG67","Thu Sep 17 2020 12:56:29 GMT-0600 (Mountain Daylight Time)","Thu Sep 17 2020 13:04:45 GMT-0600 (Mountain Daylight Time)","Mozilla/5.0 (X11; CrOS x86_64 13310.76.0) AppleWebKit/537.36 (KHTML, like Gecko) Chrome/85.0.4183.108 Safari/537.36",132,"[0.9, 0.5, 0.1]","[0.8, 0.4, 0.2]","[u'black', u'blue', u'red']","[u'left', u'middle', u'right']","[0.8, 0.4, 0.2]","[u'low', u'medium', u'high']","blue",50,"middle","medium","False","False",1175,2700,NA
"AV6C736XAEG67","Thu Sep 17 2020 12:56:29 GMT-0600 (Mountain Daylight Time)","Thu Sep 17 2020 13:04:45 GMT-0600 (Mountain Daylight Time)","Mozilla/5.0 (X11; CrOS x86_64 13310.76.0) AppleWebKit/537.36 (KHTML, like Gecko) Chrome/85.0.4183.108 Safari/537.36",133,"[0.9, 0.5, 0.1]","[0.8, 0.4, 0.2]","[u'black', u'blue', u'red']","[u'left', u'middle', u'right']","[0.8, 0.4, 0.2]","[u'low', u'medium', u'high']","blue",50,"middle","medium","True","False",568,2800,NA
"AV6C736XAEG67","Thu Sep 17 2020 12:56:29 GMT-0600 (Mountain Daylight Time)","Thu Sep 17 2020 13:04:45 GMT-0600 (Mountain Daylight Time)","Mozilla/5.0 (X11; CrOS x86_64 13310.76.0) AppleWebKit/537.36 (KHTML, like Gecko) Chrome/85.0.4183.108 Safari/537.36",134,"[0.9, 0.5, 0.1]","[0.8, 0.4, 0.2]","[u'black', u'blue', u'red']","[u'left', u'middle', u'right']","[0.8, 0.4, 0.2]","[u'low', u'medium', u'high']","blue",50,"middle","medium","False","False",397,2750,NA
"AV6C736XAEG67","Thu Sep 17 2020 12:56:29 GMT-0600 (Mountain Daylight Time)","Thu Sep 17 2020 13:04:45 GMT-0600 (Mountain Daylight Time)","Mozilla/5.0 (X11; CrOS x86_64 13310.76.0) AppleWebKit/537.36 (KHTML, like Gecko) Chrome/85.0.4183.108 Safari/537.36",135,"[0.9, 0.5, 0.1]","[0.8, 0.4, 0.2]","[u'black', u'blue', u'red']","[u'left', u'middle', u'right']","[0.8, 0.4, 0.2]","[u'low', u'medium', u'high']","blue",50,"middle","medium","True","False",305,2850,NA
"AV6C736XAEG67","Thu Sep 17 2020 12:56:29 GMT-0600 (Mountain Daylight Time)","Thu Sep 17 2020 13:04:45 GMT-0600 (Mountain Daylight Time)","Mozilla/5.0 (X11; CrOS x86_64 13310.76.0) AppleWebKit/537.36 (KHTML, like Gecko) Chrome/85.0.4183.108 Safari/537.36",136,"[0.9, 0.5, 0.1]","[0.8, 0.4, 0.2]","[u'black', u'blue', u'red']","[u'left', u'middle', u'right']","[0.8, 0.4, 0.2]","[u'low', u'medium', u'high']","blue",50,"middle","medium","True","False",49,2950,NA
"AV6C736XAEG67","Thu Sep 17 2020 12:56:29 GMT-0600 (Mountain Daylight Time)","Thu Sep 17 2020 13:04:45 GMT-0600 (Mountain Daylight Time)","Mozilla/5.0 (X11; CrOS x86_64 13310.76.0) AppleWebKit/537.36 (KHTML, like Gecko) Chrome/85.0.4183.108 Safari/537.36",137,"[0.9, 0.5, 0.1]","[0.8, 0.4, 0.2]","[u'black', u'blue', u'red']","[u'left', u'middle', u'right']","[0.8, 0.4, 0.2]","[u'low', u'medium', u'high']","blue",50,"middle","medium","False","False",9,2900,NA
"AV6C736XAEG67","Thu Sep 17 2020 12:56:29 GMT-0600 (Mountain Daylight Time)","Thu Sep 17 2020 13:04:45 GMT-0600 (Mountain Daylight Time)","Mozilla/5.0 (X11; CrOS x86_64 13310.76.0) AppleWebKit/537.36 (KHTML, like Gecko) Chrome/85.0.4183.108 Safari/537.36",138,"[0.9, 0.5, 0.1]","[0.8, 0.4, 0.2]","[u'black', u'blue', u'red']","[u'left', u'middle', u'right']","[0.8, 0.4, 0.2]","[u'low', u'medium', u'high']","blue",50,"middle","medium","True","False",101,3000,NA
"AV6C736XAEG67","Thu Sep 17 2020 12:56:29 GMT-0600 (Mountain Daylight Time)","Thu Sep 17 2020 13:04:45 GMT-0600 (Mountain Daylight Time)","Mozilla/5.0 (X11; CrOS x86_64 13310.76.0) AppleWebKit/537.36 (KHTML, like Gecko) Chrome/85.0.4183.108 Safari/537.36",139,"[0.9, 0.5, 0.1]","[0.8, 0.4, 0.2]","[u'black', u'blue', u'red']","[u'left', u'middle', u'right']","[0.8, 0.4, 0.2]","[u'low', u'medium', u'high']","blue",50,"middle","medium","True","False",857,3100,NA
"AV6C736XAEG67","Thu Sep 17 2020 12:56:29 GMT-0600 (Mountain Daylight Time)","Thu Sep 17 2020 13:04:45 GMT-0600 (Mountain Daylight Time)","Mozilla/5.0 (X11; CrOS x86_64 13310.76.0) AppleWebKit/537.36 (KHTML, like Gecko) Chrome/85.0.4183.108 Safari/537.36",140,"[0.9, 0.5, 0.1]","[0.8, 0.4, 0.2]","[u'black', u'blue', u'red']","[u'left', u'middle', u'right']","[0.8, 0.4, 0.2]","[u'low', u'medium', u'high']","blue",50,"middle","medium","True","False",55,3200,NA
"AV6C736XAEG67","Thu Sep 17 2020 12:56:29 GMT-0600 (Mountain Daylight Time)","Thu Sep 17 2020 13:04:45 GMT-0600 (Mountain Daylight Time)","Mozilla/5.0 (X11; CrOS x86_64 13310.76.0) AppleWebKit/537.36 (KHTML, like Gecko) Chrome/85.0.4183.108 Safari/537.36",141,"[0.9, 0.5, 0.1]","[0.8, 0.4, 0.2]","[u'black', u'blue', u'red']","[u'left', u'middle', u'right']","[0.8, 0.4, 0.2]","[u'low', u'medium', u'high']","blue",50,"middle","medium","True","False",555,3300,NA
"AV6C736XAEG67","Thu Sep 17 2020 12:56:29 GMT-0600 (Mountain Daylight Time)","Thu Sep 17 2020 13:04:45 GMT-0600 (Mountain Daylight Time)","Mozilla/5.0 (X11; CrOS x86_64 13310.76.0) AppleWebKit/537.36 (KHTML, like Gecko) Chrome/85.0.4183.108 Safari/537.36",142,"[0.9, 0.5, 0.1]","[0.8, 0.4, 0.2]","[u'black', u'blue', u'red']","[u'left', u'middle', u'right']","[0.8, 0.4, 0.2]","[u'low', u'medium', u'high']","blue",50,"middle","medium","False","False",333,3250,NA
"AV6C736XAEG67","Thu Sep 17 2020 12:56:29 GMT-0600 (Mountain Daylight Time)","Thu Sep 17 2020 13:04:45 GMT-0600 (Mountain Daylight Time)","Mozilla/5.0 (X11; CrOS x86_64 13310.76.0) AppleWebKit/537.36 (KHTML, like Gecko) Chrome/85.0.4183.108 Safari/537.36",143,"[0.9, 0.5, 0.1]","[0.8, 0.4, 0.2]","[u'black', u'blue', u'red']","[u'left', u'middle', u'right']","[0.8, 0.4, 0.2]","[u'low', u'medium', u'high']","blue",50,"middle","medium","False","False",128,3200,NA
"AV6C736XAEG67","Thu Sep 17 2020 12:56:29 GMT-0600 (Mountain Daylight Time)","Thu Sep 17 2020 13:04:45 GMT-0600 (Mountain Daylight Time)","Mozilla/5.0 (X11; CrOS x86_64 13310.76.0) AppleWebKit/537.36 (KHTML, like Gecko) Chrome/85.0.4183.108 Safari/537.36",144,"[0.9, 0.5, 0.1]","[0.8, 0.4, 0.2]","[u'black', u'blue', u'red']","[u'left', u'middle', u'right']","[0.8, 0.4, 0.2]","[u'low', u'medium', u'high']","blue",50,"middle","medium","False","False",3,3150,NA
"AV6C736XAEG67","Thu Sep 17 2020 12:56:29 GMT-0600 (Mountain Daylight Time)","Thu Sep 17 2020 13:04:45 GMT-0600 (Mountain Daylight Time)","Mozilla/5.0 (X11; CrOS x86_64 13310.76.0) AppleWebKit/537.36 (KHTML, like Gecko) Chrome/85.0.4183.108 Safari/537.36",145,"[0.9, 0.5, 0.1]","[0.8, 0.4, 0.2]","[u'black', u'blue', u'red']","[u'left', u'middle', u'right']","[0.8, 0.4, 0.2]","[u'low', u'medium', u'high']","blue",50,"middle","medium","False","False",613,3100,NA
"AV6C736XAEG67","Thu Sep 17 2020 12:56:29 GMT-0600 (Mountain Daylight Time)","Thu Sep 17 2020 13:04:45 GMT-0600 (Mountain Daylight Time)","Mozilla/5.0 (X11; CrOS x86_64 13310.76.0) AppleWebKit/537.36 (KHTML, like Gecko) Chrome/85.0.4183.108 Safari/537.36",146,"[0.9, 0.5, 0.1]","[0.8, 0.4, 0.2]","[u'black', u'blue', u'red']","[u'left', u'middle', u'right']","[0.8, 0.4, 0.2]","[u'low', u'medium', u'high']","blue",50,"middle","medium","False","False",742,3050,NA
"AV6C736XAEG67","Thu Sep 17 2020 12:56:29 GMT-0600 (Mountain Daylight Time)","Thu Sep 17 2020 13:04:45 GMT-0600 (Mountain Daylight Time)","Mozilla/5.0 (X11; CrOS x86_64 13310.76.0) AppleWebKit/537.36 (KHTML, like Gecko) Chrome/85.0.4183.108 Safari/537.36",147,"[0.9, 0.5, 0.1]","[0.8, 0.4, 0.2]","[u'black', u'blue', u'red']","[u'left', u'middle', u'right']","[0.8, 0.4, 0.2]","[u'low', u'medium', u'high']","blue",50,"middle","medium","False","False",14,3000,NA
"AV6C736XAEG67","Thu Sep 17 2020 12:56:29 GMT-0600 (Mountain Daylight Time)","Thu Sep 17 2020 13:04:45 GMT-0600 (Mountain Daylight Time)","Mozilla/5.0 (X11; CrOS x86_64 13310.76.0) AppleWebKit/537.36 (KHTML, like Gecko) Chrome/85.0.4183.108 Safari/537.36",148,"[0.9, 0.5, 0.1]","[0.8, 0.4, 0.2]","[u'black', u'blue', u'red']","[u'left', u'middle', u'right']","[0.8, 0.4, 0.2]","[u'low', u'medium', u'high']","blue",50,"middle","medium","True","False",545,3100,NA
"AV6C736XAEG67","Thu Sep 17 2020 12:56:29 GMT-0600 (Mountain Daylight Time)","Thu Sep 17 2020 13:04:45 GMT-0600 (Mountain Daylight Time)","Mozilla/5.0 (X11; CrOS x86_64 13310.76.0) AppleWebKit/537.36 (KHTML, like Gecko) Chrome/85.0.4183.108 Safari/537.36",149,"[0.9, 0.5, 0.1]","[0.8, 0.4, 0.2]","[u'black', u'blue', u'red']","[u'left', u'middle', u'right']","[0.8, 0.4, 0.2]","[u'low', u'medium', u'high']","blue",50,"middle","medium","True","False",571,3200,NA
"AV6C736XAEG67","Thu Sep 17 2020 12:56:29 GMT-0600 (Mountain Daylight Time)","Thu Sep 17 2020 13:04:45 GMT-0600 (Mountain Daylight Time)","Mozilla/5.0 (X11; CrOS x86_64 13310.76.0) AppleWebKit/537.36 (KHTML, like Gecko) Chrome/85.0.4183.108 Safari/537.36",150,"[0.9, 0.5, 0.1]","[0.8, 0.4, 0.2]","[u'black', u'blue', u'red']","[u'left', u'middle', u'right']","[0.8, 0.4, 0.2]","[u'low', u'medium', u'high']","blue",50,"middle","medium","False","False",308,3150,NA
"AV6C736XAEG67","Thu Sep 17 2020 12:56:29 GMT-0600 (Mountain Daylight Time)","Thu Sep 17 2020 13:04:45 GMT-0600 (Mountain Daylight Time)","Mozilla/5.0 (X11; CrOS x86_64 13310.76.0) AppleWebKit/537.36 (KHTML, like Gecko) Chrome/85.0.4183.108 Safari/537.36",151,"[0.9, 0.5, 0.1]","[0.8, 0.4, 0.2]","[u'black', u'blue', u'red']","[u'left', u'middle', u'right']","[0.8, 0.4, 0.2]","[u'low', u'medium', u'high']","blue",50,"middle","medium","False","False",456,3100,NA
"AV6C736XAEG67","Thu Sep 17 2020 12:56:29 GMT-0600 (Mountain Daylight Time)","Thu Sep 17 2020 13:04:45 GMT-0600 (Mountain Daylight Time)","Mozilla/5.0 (X11; CrOS x86_64 13310.76.0) AppleWebKit/537.36 (KHTML, like Gecko) Chrome/85.0.4183.108 Safari/537.36",152,"[0.9, 0.5, 0.1]","[0.8, 0.4, 0.2]","[u'black', u'blue', u'red']","[u'left', u'middle', u'right']","[0.8, 0.4, 0.2]","[u'low', u'medium', u'high']","blue",50,"middle","medium","False","False",67,3050,NA
"AV6C736XAEG67","Thu Sep 17 2020 12:56:29 GMT-0600 (Mountain Daylight Time)","Thu Sep 17 2020 13:04:45 GMT-0600 (Mountain Daylight Time)","Mozilla/5.0 (X11; CrOS x86_64 13310.76.0) AppleWebKit/537.36 (KHTML, like Gecko) Chrome/85.0.4183.108 Safari/537.36",153,"[0.9, 0.5, 0.1]","[0.8, 0.4, 0.2]","[u'black', u'blue', u'red']","[u'left', u'middle', u'right']","[0.8, 0.4, 0.2]","[u'low', u'medium', u'high']","blue",50,"middle","medium","False","False",821,3000,NA
"AV6C736XAEG67","Thu Sep 17 2020 12:56:29 GMT-0600 (Mountain Daylight Time)","Thu Sep 17 2020 13:04:45 GMT-0600 (Mountain Daylight Time)","Mozilla/5.0 (X11; CrOS x86_64 13310.76.0) AppleWebKit/537.36 (KHTML, like Gecko) Chrome/85.0.4183.108 Safari/537.36",154,"[0.9, 0.5, 0.1]","[0.8, 0.4, 0.2]","[u'black', u'blue', u'red']","[u'left', u'middle', u'right']","[0.8, 0.4, 0.2]","[u'low', u'medium', u'high']","blue",50,"middle","medium","True","False",200,3100,NA
"AV6C736XAEG67","Thu Sep 17 2020 12:56:29 GMT-0600 (Mountain Daylight Time)","Thu Sep 17 2020 13:04:45 GMT-0600 (Mountain Daylight Time)","Mozilla/5.0 (X11; CrOS x86_64 13310.76.0) AppleWebKit/537.36 (KHTML, like Gecko) Chrome/85.0.4183.108 Safari/537.36",155,"[0.9, 0.5, 0.1]","[0.8, 0.4, 0.2]","[u'black', u'blue', u'red']","[u'left', u'middle', u'right']","[0.8, 0.4, 0.2]","[u'low', u'medium', u'high']","blue",50,"middle","medium","True","False",391,3200,NA
"AV6C736XAEG67","Thu Sep 17 2020 12:56:29 GMT-0600 (Mountain Daylight Time)","Thu Sep 17 2020 13:04:45 GMT-0600 (Mountain Daylight Time)","Mozilla/5.0 (X11; CrOS x86_64 13310.76.0) AppleWebKit/537.36 (KHTML, like Gecko) Chrome/85.0.4183.108 Safari/537.36",156,"[0.9, 0.5, 0.1]","[0.8, 0.4, 0.2]","[u'black', u'blue', u'red']","[u'left', u'middle', u'right']","[0.8, 0.4, 0.2]","[u'low', u'medium', u'high']","blue",50,"middle","medium","False","False",195,3150,NA
"AV6C736XAEG67","Thu Sep 17 2020 12:56:29 GMT-0600 (Mountain Daylight Time)","Thu Sep 17 2020 13:04:45 GMT-0600 (Mountain Daylight Time)","Mozilla/5.0 (X11; CrOS x86_64 13310.76.0) AppleWebKit/537.36 (KHTML, like Gecko) Chrome/85.0.4183.108 Safari/537.36",157,"[0.9, 0.5, 0.1]","[0.8, 0.4, 0.2]","[u'black', u'blue', u'red']","[u'left', u'middle', u'right']","[0.8, 0.4, 0.2]","[u'low', u'medium', u'high']","blue",50,"middle","medium","False","False",515,3100,NA
"AV6C736XAEG67","Thu Sep 17 2020 12:56:29 GMT-0600 (Mountain Daylight Time)","Thu Sep 17 2020 13:04:45 GMT-0600 (Mountain Daylight Time)","Mozilla/5.0 (X11; CrOS x86_64 13310.76.0) AppleWebKit/537.36 (KHTML, like Gecko) Chrome/85.0.4183.108 Safari/537.36",158,"[0.9, 0.5, 0.1]","[0.8, 0.4, 0.2]","[u'black', u'blue', u'red']","[u'left', u'middle', u'right']","[0.8, 0.4, 0.2]","[u'low', u'medium', u'high']","blue",50,"middle","medium","True","False",42,3200,NA
"AV6C736XAEG67","Thu Sep 17 2020 12:56:29 GMT-0600 (Mountain Daylight Time)","Thu Sep 17 2020 13:04:45 GMT-0600 (Mountain Daylight Time)","Mozilla/5.0 (X11; CrOS x86_64 13310.76.0) AppleWebKit/537.36 (KHTML, like Gecko) Chrome/85.0.4183.108 Safari/537.36",159,"[0.9, 0.5, 0.1]","[0.8, 0.4, 0.2]","[u'black', u'blue', u'red']","[u'left', u'middle', u'right']","[0.8, 0.4, 0.2]","[u'low', u'medium', u'high']","blue",50,"middle","medium","False","False",655,3150,NA
"AV6C736XAEG67","Thu Sep 17 2020 12:56:29 GMT-0600 (Mountain Daylight Time)","Thu Sep 17 2020 13:04:45 GMT-0600 (Mountain Daylight Time)","Mozilla/5.0 (X11; CrOS x86_64 13310.76.0) AppleWebKit/537.36 (KHTML, like Gecko) Chrome/85.0.4183.108 Safari/537.36",160,"[0.9, 0.5, 0.1]","[0.8, 0.4, 0.2]","[u'black', u'blue', u'red']","[u'left', u'middle', u'right']","[0.8, 0.4, 0.2]","[u'low', u'medium', u'high']","blue",50,"middle","medium","False","False",634,3100,NA
