"src_subject_id","start_time","end_time","browser","index","first_half_probabilities","second_half_probabilities","deck_color","deck_position","deck_probabilities","deck_contingencies","response_color","key_press","response_position","response_probability","reward_type","trial_type","rt","reward_tally","exclusion_reason"
"AH4MHB0B0PJMU","Tue Jan 28 2020 08:43:08 GMT-0500 (Eastern Standard Time)","Tue Jan 28 2020 08:51:26 GMT-0500 (Eastern Standard Time)","Mozilla/5.0 (Windows NT 6.3; Win64; x64) AppleWebKit/537.36 (KHTML, like Gecko) Chrome/79.0.3945.130 Safari/537.36",1,"[0.9, 0.5, 0.1]","[0.8, 0.4, 0.2]","[u'red', u'blue', u'black']","[u'left', u'middle', u'right']","[0.9, 0.5, 0.1]","[u'high', u'medium', u'low']","blue",50,"middle","medium","False","False",1125,-50,NA
"AH4MHB0B0PJMU","Tue Jan 28 2020 08:43:08 GMT-0500 (Eastern Standard Time)","Tue Jan 28 2020 08:51:26 GMT-0500 (Eastern Standard Time)","Mozilla/5.0 (Windows NT 6.3; Win64; x64) AppleWebKit/537.36 (KHTML, like Gecko) Chrome/79.0.3945.130 Safari/537.36",2,"[0.9, 0.5, 0.1]","[0.8, 0.4, 0.2]","[u'red', u'blue', u'black']","[u'left', u'middle', u'right']","[0.9, 0.5, 0.1]","[u'high', u'medium', u'low']","red",49,"left","high","False","False",427,-100,NA
"AH4MHB0B0PJMU","Tue Jan 28 2020 08:43:08 GMT-0500 (Eastern Standard Time)","Tue Jan 28 2020 08:51:26 GMT-0500 (Eastern Standard Time)","Mozilla/5.0 (Windows NT 6.3; Win64; x64) AppleWebKit/537.36 (KHTML, like Gecko) Chrome/79.0.3945.130 Safari/537.36",3,"[0.9, 0.5, 0.1]","[0.8, 0.4, 0.2]","[u'red', u'blue', u'black']","[u'left', u'middle', u'right']","[0.9, 0.5, 0.1]","[u'high', u'medium', u'low']","black",51,"right","low","False","False",282,-150,NA
"AH4MHB0B0PJMU","Tue Jan 28 2020 08:43:08 GMT-0500 (Eastern Standard Time)","Tue Jan 28 2020 08:51:26 GMT-0500 (Eastern Standard Time)","Mozilla/5.0 (Windows NT 6.3; Win64; x64) AppleWebKit/537.36 (KHTML, like Gecko) Chrome/79.0.3945.130 Safari/537.36",4,"[0.9, 0.5, 0.1]","[0.8, 0.4, 0.2]","[u'red', u'blue', u'black']","[u'left', u'middle', u'right']","[0.9, 0.5, 0.1]","[u'high', u'medium', u'low']","blue",50,"middle","medium","False","False",307,-200,NA
"AH4MHB0B0PJMU","Tue Jan 28 2020 08:43:08 GMT-0500 (Eastern Standard Time)","Tue Jan 28 2020 08:51:26 GMT-0500 (Eastern Standard Time)","Mozilla/5.0 (Windows NT 6.3; Win64; x64) AppleWebKit/537.36 (KHTML, like Gecko) Chrome/79.0.3945.130 Safari/537.36",5,"[0.9, 0.5, 0.1]","[0.8, 0.4, 0.2]","[u'red', u'blue', u'black']","[u'left', u'middle', u'right']","[0.9, 0.5, 0.1]","[u'high', u'medium', u'low']","black",51,"right","low","False","False",323,-250,NA
"AH4MHB0B0PJMU","Tue Jan 28 2020 08:43:08 GMT-0500 (Eastern Standard Time)","Tue Jan 28 2020 08:51:26 GMT-0500 (Eastern Standard Time)","Mozilla/5.0 (Windows NT 6.3; Win64; x64) AppleWebKit/537.36 (KHTML, like Gecko) Chrome/79.0.3945.130 Safari/537.36",6,"[0.9, 0.5, 0.1]","[0.8, 0.4, 0.2]","[u'red', u'blue', u'black']","[u'left', u'middle', u'right']","[0.9, 0.5, 0.1]","[u'high', u'medium', u'low']","red",49,"left","high","True","False",203,-150,NA
"AH4MHB0B0PJMU","Tue Jan 28 2020 08:43:08 GMT-0500 (Eastern Standard Time)","Tue Jan 28 2020 08:51:26 GMT-0500 (Eastern Standard Time)","Mozilla/5.0 (Windows NT 6.3; Win64; x64) AppleWebKit/537.36 (KHTML, like Gecko) Chrome/79.0.3945.130 Safari/537.36",7,"[0.9, 0.5, 0.1]","[0.8, 0.4, 0.2]","[u'red', u'blue', u'black']","[u'left', u'middle', u'right']","[0.9, 0.5, 0.1]","[u'high', u'medium', u'low']","red",49,"left","high","True","False",226,-50,NA
"AH4MHB0B0PJMU","Tue Jan 28 2020 08:43:08 GMT-0500 (Eastern Standard Time)","Tue Jan 28 2020 08:51:26 GMT-0500 (Eastern Standard Time)","Mozilla/5.0 (Windows NT 6.3; Win64; x64) AppleWebKit/537.36 (KHTML, like Gecko) Chrome/79.0.3945.130 Safari/537.36",8,"[0.9, 0.5, 0.1]","[0.8, 0.4, 0.2]","[u'red', u'blue', u'black']","[u'left', u'middle', u'right']","[0.9, 0.5, 0.1]","[u'high', u'medium', u'low']","red",49,"left","high","False","False",147,-100,NA
"AH4MHB0B0PJMU","Tue Jan 28 2020 08:43:08 GMT-0500 (Eastern Standard Time)","Tue Jan 28 2020 08:51:26 GMT-0500 (Eastern Standard Time)","Mozilla/5.0 (Windows NT 6.3; Win64; x64) AppleWebKit/537.36 (KHTML, like Gecko) Chrome/79.0.3945.130 Safari/537.36",9,"[0.9, 0.5, 0.1]","[0.8, 0.4, 0.2]","[u'red', u'blue', u'black']","[u'left', u'middle', u'right']","[0.9, 0.5, 0.1]","[u'high', u'medium', u'low']","red",49,"left","high","True","False",139,0,NA
"AH4MHB0B0PJMU","Tue Jan 28 2020 08:43:08 GMT-0500 (Eastern Standard Time)","Tue Jan 28 2020 08:51:26 GMT-0500 (Eastern Standard Time)","Mozilla/5.0 (Windows NT 6.3; Win64; x64) AppleWebKit/537.36 (KHTML, like Gecko) Chrome/79.0.3945.130 Safari/537.36",10,"[0.9, 0.5, 0.1]","[0.8, 0.4, 0.2]","[u'red', u'blue', u'black']","[u'left', u'middle', u'right']","[0.9, 0.5, 0.1]","[u'high', u'medium', u'low']","red",49,"left","high","True","False",418,100,NA
"AH4MHB0B0PJMU","Tue Jan 28 2020 08:43:08 GMT-0500 (Eastern Standard Time)","Tue Jan 28 2020 08:51:26 GMT-0500 (Eastern Standard Time)","Mozilla/5.0 (Windows NT 6.3; Win64; x64) AppleWebKit/537.36 (KHTML, like Gecko) Chrome/79.0.3945.130 Safari/537.36",11,"[0.9, 0.5, 0.1]","[0.8, 0.4, 0.2]","[u'red', u'blue', u'black']","[u'left', u'middle', u'right']","[0.9, 0.5, 0.1]","[u'high', u'medium', u'low']","red",49,"left","high","True","False",219,200,NA
"AH4MHB0B0PJMU","Tue Jan 28 2020 08:43:08 GMT-0500 (Eastern Standard Time)","Tue Jan 28 2020 08:51:26 GMT-0500 (Eastern Standard Time)","Mozilla/5.0 (Windows NT 6.3; Win64; x64) AppleWebKit/537.36 (KHTML, like Gecko) Chrome/79.0.3945.130 Safari/537.36",12,"[0.9, 0.5, 0.1]","[0.8, 0.4, 0.2]","[u'red', u'blue', u'black']","[u'left', u'middle', u'right']","[0.9, 0.5, 0.1]","[u'high', u'medium', u'low']","red",49,"left","high","True","False",259,300,NA
"AH4MHB0B0PJMU","Tue Jan 28 2020 08:43:08 GMT-0500 (Eastern Standard Time)","Tue Jan 28 2020 08:51:26 GMT-0500 (Eastern Standard Time)","Mozilla/5.0 (Windows NT 6.3; Win64; x64) AppleWebKit/537.36 (KHTML, like Gecko) Chrome/79.0.3945.130 Safari/537.36",13,"[0.9, 0.5, 0.1]","[0.8, 0.4, 0.2]","[u'red', u'blue', u'black']","[u'left', u'middle', u'right']","[0.9, 0.5, 0.1]","[u'high', u'medium', u'low']","red",49,"left","high","True","False",107,400,NA
"AH4MHB0B0PJMU","Tue Jan 28 2020 08:43:08 GMT-0500 (Eastern Standard Time)","Tue Jan 28 2020 08:51:26 GMT-0500 (Eastern Standard Time)","Mozilla/5.0 (Windows NT 6.3; Win64; x64) AppleWebKit/537.36 (KHTML, like Gecko) Chrome/79.0.3945.130 Safari/537.36",14,"[0.9, 0.5, 0.1]","[0.8, 0.4, 0.2]","[u'red', u'blue', u'black']","[u'left', u'middle', u'right']","[0.9, 0.5, 0.1]","[u'high', u'medium', u'low']","red",49,"left","high","True","True",147,500,NA
"AH4MHB0B0PJMU","Tue Jan 28 2020 08:43:08 GMT-0500 (Eastern Standard Time)","Tue Jan 28 2020 08:51:26 GMT-0500 (Eastern Standard Time)","Mozilla/5.0 (Windows NT 6.3; Win64; x64) AppleWebKit/537.36 (KHTML, like Gecko) Chrome/79.0.3945.130 Safari/537.36",15,"[0.9, 0.5, 0.1]","[0.8, 0.4, 0.2]","[u'red', u'blue', u'black']","[u'left', u'middle', u'right']","[0.9, 0.5, 0.1]","[u'medium', u'high', u'low']","red",49,"left","medium","False","False",227,450,NA
"AH4MHB0B0PJMU","Tue Jan 28 2020 08:43:08 GMT-0500 (Eastern Standard Time)","Tue Jan 28 2020 08:51:26 GMT-0500 (Eastern Standard Time)","Mozilla/5.0 (Windows NT 6.3; Win64; x64) AppleWebKit/537.36 (KHTML, like Gecko) Chrome/79.0.3945.130 Safari/537.36",16,"[0.9, 0.5, 0.1]","[0.8, 0.4, 0.2]","[u'red', u'blue', u'black']","[u'left', u'middle', u'right']","[0.9, 0.5, 0.1]","[u'medium', u'high', u'low']","red",49,"left","medium","True","False",27,550,NA
"AH4MHB0B0PJMU","Tue Jan 28 2020 08:43:08 GMT-0500 (Eastern Standard Time)","Tue Jan 28 2020 08:51:26 GMT-0500 (Eastern Standard Time)","Mozilla/5.0 (Windows NT 6.3; Win64; x64) AppleWebKit/537.36 (KHTML, like Gecko) Chrome/79.0.3945.130 Safari/537.36",17,"[0.9, 0.5, 0.1]","[0.8, 0.4, 0.2]","[u'red', u'blue', u'black']","[u'left', u'middle', u'right']","[0.9, 0.5, 0.1]","[u'medium', u'high', u'low']","red",49,"left","medium","True","False",179,650,NA
"AH4MHB0B0PJMU","Tue Jan 28 2020 08:43:08 GMT-0500 (Eastern Standard Time)","Tue Jan 28 2020 08:51:26 GMT-0500 (Eastern Standard Time)","Mozilla/5.0 (Windows NT 6.3; Win64; x64) AppleWebKit/537.36 (KHTML, like Gecko) Chrome/79.0.3945.130 Safari/537.36",18,"[0.9, 0.5, 0.1]","[0.8, 0.4, 0.2]","[u'red', u'blue', u'black']","[u'left', u'middle', u'right']","[0.9, 0.5, 0.1]","[u'medium', u'high', u'low']","red",49,"left","medium","True","False",43,750,NA
"AH4MHB0B0PJMU","Tue Jan 28 2020 08:43:08 GMT-0500 (Eastern Standard Time)","Tue Jan 28 2020 08:51:26 GMT-0500 (Eastern Standard Time)","Mozilla/5.0 (Windows NT 6.3; Win64; x64) AppleWebKit/537.36 (KHTML, like Gecko) Chrome/79.0.3945.130 Safari/537.36",19,"[0.9, 0.5, 0.1]","[0.8, 0.4, 0.2]","[u'red', u'blue', u'black']","[u'left', u'middle', u'right']","[0.9, 0.5, 0.1]","[u'medium', u'high', u'low']","red",49,"left","medium","True","False",107,850,NA
"AH4MHB0B0PJMU","Tue Jan 28 2020 08:43:08 GMT-0500 (Eastern Standard Time)","Tue Jan 28 2020 08:51:26 GMT-0500 (Eastern Standard Time)","Mozilla/5.0 (Windows NT 6.3; Win64; x64) AppleWebKit/537.36 (KHTML, like Gecko) Chrome/79.0.3945.130 Safari/537.36",20,"[0.9, 0.5, 0.1]","[0.8, 0.4, 0.2]","[u'red', u'blue', u'black']","[u'left', u'middle', u'right']","[0.9, 0.5, 0.1]","[u'medium', u'high', u'low']","red",49,"left","medium","True","False",187,950,NA
"AH4MHB0B0PJMU","Tue Jan 28 2020 08:43:08 GMT-0500 (Eastern Standard Time)","Tue Jan 28 2020 08:51:26 GMT-0500 (Eastern Standard Time)","Mozilla/5.0 (Windows NT 6.3; Win64; x64) AppleWebKit/537.36 (KHTML, like Gecko) Chrome/79.0.3945.130 Safari/537.36",21,"[0.9, 0.5, 0.1]","[0.8, 0.4, 0.2]","[u'red', u'blue', u'black']","[u'left', u'middle', u'right']","[0.9, 0.5, 0.1]","[u'medium', u'high', u'low']","red",49,"left","medium","True","False",172,1050,NA
"AH4MHB0B0PJMU","Tue Jan 28 2020 08:43:08 GMT-0500 (Eastern Standard Time)","Tue Jan 28 2020 08:51:26 GMT-0500 (Eastern Standard Time)","Mozilla/5.0 (Windows NT 6.3; Win64; x64) AppleWebKit/537.36 (KHTML, like Gecko) Chrome/79.0.3945.130 Safari/537.36",22,"[0.9, 0.5, 0.1]","[0.8, 0.4, 0.2]","[u'red', u'blue', u'black']","[u'left', u'middle', u'right']","[0.9, 0.5, 0.1]","[u'medium', u'high', u'low']","red",49,"left","medium","False","False",67,1000,NA
"AH4MHB0B0PJMU","Tue Jan 28 2020 08:43:08 GMT-0500 (Eastern Standard Time)","Tue Jan 28 2020 08:51:26 GMT-0500 (Eastern Standard Time)","Mozilla/5.0 (Windows NT 6.3; Win64; x64) AppleWebKit/537.36 (KHTML, like Gecko) Chrome/79.0.3945.130 Safari/537.36",23,"[0.9, 0.5, 0.1]","[0.8, 0.4, 0.2]","[u'red', u'blue', u'black']","[u'left', u'middle', u'right']","[0.9, 0.5, 0.1]","[u'medium', u'high', u'low']","red",49,"left","medium","False","False",259,950,NA
"AH4MHB0B0PJMU","Tue Jan 28 2020 08:43:08 GMT-0500 (Eastern Standard Time)","Tue Jan 28 2020 08:51:26 GMT-0500 (Eastern Standard Time)","Mozilla/5.0 (Windows NT 6.3; Win64; x64) AppleWebKit/537.36 (KHTML, like Gecko) Chrome/79.0.3945.130 Safari/537.36",24,"[0.9, 0.5, 0.1]","[0.8, 0.4, 0.2]","[u'red', u'blue', u'black']","[u'left', u'middle', u'right']","[0.9, 0.5, 0.1]","[u'medium', u'high', u'low']","blue",50,"middle","high","True","False",115,1050,NA
"AH4MHB0B0PJMU","Tue Jan 28 2020 08:43:08 GMT-0500 (Eastern Standard Time)","Tue Jan 28 2020 08:51:26 GMT-0500 (Eastern Standard Time)","Mozilla/5.0 (Windows NT 6.3; Win64; x64) AppleWebKit/537.36 (KHTML, like Gecko) Chrome/79.0.3945.130 Safari/537.36",25,"[0.9, 0.5, 0.1]","[0.8, 0.4, 0.2]","[u'red', u'blue', u'black']","[u'left', u'middle', u'right']","[0.9, 0.5, 0.1]","[u'medium', u'high', u'low']","blue",50,"middle","high","True","False",68,1150,NA
"AH4MHB0B0PJMU","Tue Jan 28 2020 08:43:08 GMT-0500 (Eastern Standard Time)","Tue Jan 28 2020 08:51:26 GMT-0500 (Eastern Standard Time)","Mozilla/5.0 (Windows NT 6.3; Win64; x64) AppleWebKit/537.36 (KHTML, like Gecko) Chrome/79.0.3945.130 Safari/537.36",26,"[0.9, 0.5, 0.1]","[0.8, 0.4, 0.2]","[u'red', u'blue', u'black']","[u'left', u'middle', u'right']","[0.9, 0.5, 0.1]","[u'medium', u'high', u'low']","blue",50,"middle","high","True","False",19,1250,NA
"AH4MHB0B0PJMU","Tue Jan 28 2020 08:43:08 GMT-0500 (Eastern Standard Time)","Tue Jan 28 2020 08:51:26 GMT-0500 (Eastern Standard Time)","Mozilla/5.0 (Windows NT 6.3; Win64; x64) AppleWebKit/537.36 (KHTML, like Gecko) Chrome/79.0.3945.130 Safari/537.36",27,"[0.9, 0.5, 0.1]","[0.8, 0.4, 0.2]","[u'red', u'blue', u'black']","[u'left', u'middle', u'right']","[0.9, 0.5, 0.1]","[u'medium', u'high', u'low']","blue",50,"middle","high","True","False",179,1350,NA
"AH4MHB0B0PJMU","Tue Jan 28 2020 08:43:08 GMT-0500 (Eastern Standard Time)","Tue Jan 28 2020 08:51:26 GMT-0500 (Eastern Standard Time)","Mozilla/5.0 (Windows NT 6.3; Win64; x64) AppleWebKit/537.36 (KHTML, like Gecko) Chrome/79.0.3945.130 Safari/537.36",28,"[0.9, 0.5, 0.1]","[0.8, 0.4, 0.2]","[u'red', u'blue', u'black']","[u'left', u'middle', u'right']","[0.9, 0.5, 0.1]","[u'medium', u'high', u'low']","blue",50,"middle","high","True","False",76,1450,NA
"AH4MHB0B0PJMU","Tue Jan 28 2020 08:43:08 GMT-0500 (Eastern Standard Time)","Tue Jan 28 2020 08:51:26 GMT-0500 (Eastern Standard Time)","Mozilla/5.0 (Windows NT 6.3; Win64; x64) AppleWebKit/537.36 (KHTML, like Gecko) Chrome/79.0.3945.130 Safari/537.36",29,"[0.9, 0.5, 0.1]","[0.8, 0.4, 0.2]","[u'red', u'blue', u'black']","[u'left', u'middle', u'right']","[0.9, 0.5, 0.1]","[u'medium', u'high', u'low']","blue",50,"middle","high","True","False",75,1550,NA
"AH4MHB0B0PJMU","Tue Jan 28 2020 08:43:08 GMT-0500 (Eastern Standard Time)","Tue Jan 28 2020 08:51:26 GMT-0500 (Eastern Standard Time)","Mozilla/5.0 (Windows NT 6.3; Win64; x64) AppleWebKit/537.36 (KHTML, like Gecko) Chrome/79.0.3945.130 Safari/537.36",30,"[0.9, 0.5, 0.1]","[0.8, 0.4, 0.2]","[u'red', u'blue', u'black']","[u'left', u'middle', u'right']","[0.9, 0.5, 0.1]","[u'medium', u'high', u'low']","blue",50,"middle","high","True","False",51,1650,NA
"AH4MHB0B0PJMU","Tue Jan 28 2020 08:43:08 GMT-0500 (Eastern Standard Time)","Tue Jan 28 2020 08:51:26 GMT-0500 (Eastern Standard Time)","Mozilla/5.0 (Windows NT 6.3; Win64; x64) AppleWebKit/537.36 (KHTML, like Gecko) Chrome/79.0.3945.130 Safari/537.36",31,"[0.9, 0.5, 0.1]","[0.8, 0.4, 0.2]","[u'red', u'blue', u'black']","[u'left', u'middle', u'right']","[0.9, 0.5, 0.1]","[u'medium', u'high', u'low']","blue",50,"middle","high","False","False",179,1600,NA
"AH4MHB0B0PJMU","Tue Jan 28 2020 08:43:08 GMT-0500 (Eastern Standard Time)","Tue Jan 28 2020 08:51:26 GMT-0500 (Eastern Standard Time)","Mozilla/5.0 (Windows NT 6.3; Win64; x64) AppleWebKit/537.36 (KHTML, like Gecko) Chrome/79.0.3945.130 Safari/537.36",32,"[0.9, 0.5, 0.1]","[0.8, 0.4, 0.2]","[u'red', u'blue', u'black']","[u'left', u'middle', u'right']","[0.9, 0.5, 0.1]","[u'medium', u'high', u'low']","blue",50,"middle","high","True","True",324,1700,NA
"AH4MHB0B0PJMU","Tue Jan 28 2020 08:43:08 GMT-0500 (Eastern Standard Time)","Tue Jan 28 2020 08:51:26 GMT-0500 (Eastern Standard Time)","Mozilla/5.0 (Windows NT 6.3; Win64; x64) AppleWebKit/537.36 (KHTML, like Gecko) Chrome/79.0.3945.130 Safari/537.36",33,"[0.9, 0.5, 0.1]","[0.8, 0.4, 0.2]","[u'red', u'blue', u'black']","[u'left', u'middle', u'right']","[0.9, 0.5, 0.1]","[u'medium', u'low', u'high']","blue",50,"middle","low","False","False",115,1650,NA
"AH4MHB0B0PJMU","Tue Jan 28 2020 08:43:08 GMT-0500 (Eastern Standard Time)","Tue Jan 28 2020 08:51:26 GMT-0500 (Eastern Standard Time)","Mozilla/5.0 (Windows NT 6.3; Win64; x64) AppleWebKit/537.36 (KHTML, like Gecko) Chrome/79.0.3945.130 Safari/537.36",34,"[0.9, 0.5, 0.1]","[0.8, 0.4, 0.2]","[u'red', u'blue', u'black']","[u'left', u'middle', u'right']","[0.9, 0.5, 0.1]","[u'medium', u'low', u'high']","blue",50,"middle","low","False","False",123,1600,NA
"AH4MHB0B0PJMU","Tue Jan 28 2020 08:43:08 GMT-0500 (Eastern Standard Time)","Tue Jan 28 2020 08:51:26 GMT-0500 (Eastern Standard Time)","Mozilla/5.0 (Windows NT 6.3; Win64; x64) AppleWebKit/537.36 (KHTML, like Gecko) Chrome/79.0.3945.130 Safari/537.36",35,"[0.9, 0.5, 0.1]","[0.8, 0.4, 0.2]","[u'red', u'blue', u'black']","[u'left', u'middle', u'right']","[0.9, 0.5, 0.1]","[u'medium', u'low', u'high']","black",51,"right","high","True","False",83,1700,NA
"AH4MHB0B0PJMU","Tue Jan 28 2020 08:43:08 GMT-0500 (Eastern Standard Time)","Tue Jan 28 2020 08:51:26 GMT-0500 (Eastern Standard Time)","Mozilla/5.0 (Windows NT 6.3; Win64; x64) AppleWebKit/537.36 (KHTML, like Gecko) Chrome/79.0.3945.130 Safari/537.36",36,"[0.9, 0.5, 0.1]","[0.8, 0.4, 0.2]","[u'red', u'blue', u'black']","[u'left', u'middle', u'right']","[0.9, 0.5, 0.1]","[u'medium', u'low', u'high']","black",51,"right","high","True","False",243,1800,NA
"AH4MHB0B0PJMU","Tue Jan 28 2020 08:43:08 GMT-0500 (Eastern Standard Time)","Tue Jan 28 2020 08:51:26 GMT-0500 (Eastern Standard Time)","Mozilla/5.0 (Windows NT 6.3; Win64; x64) AppleWebKit/537.36 (KHTML, like Gecko) Chrome/79.0.3945.130 Safari/537.36",37,"[0.9, 0.5, 0.1]","[0.8, 0.4, 0.2]","[u'red', u'blue', u'black']","[u'left', u'middle', u'right']","[0.9, 0.5, 0.1]","[u'medium', u'low', u'high']","black",51,"right","high","True","False",196,1900,NA
"AH4MHB0B0PJMU","Tue Jan 28 2020 08:43:08 GMT-0500 (Eastern Standard Time)","Tue Jan 28 2020 08:51:26 GMT-0500 (Eastern Standard Time)","Mozilla/5.0 (Windows NT 6.3; Win64; x64) AppleWebKit/537.36 (KHTML, like Gecko) Chrome/79.0.3945.130 Safari/537.36",38,"[0.9, 0.5, 0.1]","[0.8, 0.4, 0.2]","[u'red', u'blue', u'black']","[u'left', u'middle', u'right']","[0.9, 0.5, 0.1]","[u'medium', u'low', u'high']","black",51,"right","high","False","False",60,1850,NA
"AH4MHB0B0PJMU","Tue Jan 28 2020 08:43:08 GMT-0500 (Eastern Standard Time)","Tue Jan 28 2020 08:51:26 GMT-0500 (Eastern Standard Time)","Mozilla/5.0 (Windows NT 6.3; Win64; x64) AppleWebKit/537.36 (KHTML, like Gecko) Chrome/79.0.3945.130 Safari/537.36",39,"[0.9, 0.5, 0.1]","[0.8, 0.4, 0.2]","[u'red', u'blue', u'black']","[u'left', u'middle', u'right']","[0.9, 0.5, 0.1]","[u'medium', u'low', u'high']","black",51,"right","high","False","False",34,1800,NA
"AH4MHB0B0PJMU","Tue Jan 28 2020 08:43:08 GMT-0500 (Eastern Standard Time)","Tue Jan 28 2020 08:51:26 GMT-0500 (Eastern Standard Time)","Mozilla/5.0 (Windows NT 6.3; Win64; x64) AppleWebKit/537.36 (KHTML, like Gecko) Chrome/79.0.3945.130 Safari/537.36",40,"[0.9, 0.5, 0.1]","[0.8, 0.4, 0.2]","[u'red', u'blue', u'black']","[u'left', u'middle', u'right']","[0.9, 0.5, 0.1]","[u'medium', u'low', u'high']","red",49,"left","medium","True","False",180,1900,NA
"AH4MHB0B0PJMU","Tue Jan 28 2020 08:43:08 GMT-0500 (Eastern Standard Time)","Tue Jan 28 2020 08:51:26 GMT-0500 (Eastern Standard Time)","Mozilla/5.0 (Windows NT 6.3; Win64; x64) AppleWebKit/537.36 (KHTML, like Gecko) Chrome/79.0.3945.130 Safari/537.36",41,"[0.9, 0.5, 0.1]","[0.8, 0.4, 0.2]","[u'red', u'blue', u'black']","[u'left', u'middle', u'right']","[0.9, 0.5, 0.1]","[u'medium', u'high', u'low']","red",49,"left","medium","False","False",963,1850,NA
"AH4MHB0B0PJMU","Tue Jan 28 2020 08:43:08 GMT-0500 (Eastern Standard Time)","Tue Jan 28 2020 08:51:26 GMT-0500 (Eastern Standard Time)","Mozilla/5.0 (Windows NT 6.3; Win64; x64) AppleWebKit/537.36 (KHTML, like Gecko) Chrome/79.0.3945.130 Safari/537.36",42,"[0.9, 0.5, 0.1]","[0.8, 0.4, 0.2]","[u'red', u'blue', u'black']","[u'left', u'middle', u'right']","[0.9, 0.5, 0.1]","[u'medium', u'high', u'low']","red",49,"left","medium","False","False",251,1800,NA
"AH4MHB0B0PJMU","Tue Jan 28 2020 08:43:08 GMT-0500 (Eastern Standard Time)","Tue Jan 28 2020 08:51:26 GMT-0500 (Eastern Standard Time)","Mozilla/5.0 (Windows NT 6.3; Win64; x64) AppleWebKit/537.36 (KHTML, like Gecko) Chrome/79.0.3945.130 Safari/537.36",43,"[0.9, 0.5, 0.1]","[0.8, 0.4, 0.2]","[u'red', u'blue', u'black']","[u'left', u'middle', u'right']","[0.9, 0.5, 0.1]","[u'medium', u'high', u'low']","blue",50,"middle","high","True","False",179,1900,NA
"AH4MHB0B0PJMU","Tue Jan 28 2020 08:43:08 GMT-0500 (Eastern Standard Time)","Tue Jan 28 2020 08:51:26 GMT-0500 (Eastern Standard Time)","Mozilla/5.0 (Windows NT 6.3; Win64; x64) AppleWebKit/537.36 (KHTML, like Gecko) Chrome/79.0.3945.130 Safari/537.36",44,"[0.9, 0.5, 0.1]","[0.8, 0.4, 0.2]","[u'red', u'blue', u'black']","[u'left', u'middle', u'right']","[0.9, 0.5, 0.1]","[u'medium', u'high', u'low']","blue",50,"middle","high","True","False",140,2000,NA
"AH4MHB0B0PJMU","Tue Jan 28 2020 08:43:08 GMT-0500 (Eastern Standard Time)","Tue Jan 28 2020 08:51:26 GMT-0500 (Eastern Standard Time)","Mozilla/5.0 (Windows NT 6.3; Win64; x64) AppleWebKit/537.36 (KHTML, like Gecko) Chrome/79.0.3945.130 Safari/537.36",45,"[0.9, 0.5, 0.1]","[0.8, 0.4, 0.2]","[u'red', u'blue', u'black']","[u'left', u'middle', u'right']","[0.9, 0.5, 0.1]","[u'medium', u'high', u'low']","blue",50,"middle","high","True","False",26,2100,NA
"AH4MHB0B0PJMU","Tue Jan 28 2020 08:43:08 GMT-0500 (Eastern Standard Time)","Tue Jan 28 2020 08:51:26 GMT-0500 (Eastern Standard Time)","Mozilla/5.0 (Windows NT 6.3; Win64; x64) AppleWebKit/537.36 (KHTML, like Gecko) Chrome/79.0.3945.130 Safari/537.36",46,"[0.9, 0.5, 0.1]","[0.8, 0.4, 0.2]","[u'red', u'blue', u'black']","[u'left', u'middle', u'right']","[0.9, 0.5, 0.1]","[u'medium', u'high', u'low']","blue",50,"middle","high","True","False",27,2200,NA
"AH4MHB0B0PJMU","Tue Jan 28 2020 08:43:08 GMT-0500 (Eastern Standard Time)","Tue Jan 28 2020 08:51:26 GMT-0500 (Eastern Standard Time)","Mozilla/5.0 (Windows NT 6.3; Win64; x64) AppleWebKit/537.36 (KHTML, like Gecko) Chrome/79.0.3945.130 Safari/537.36",47,"[0.9, 0.5, 0.1]","[0.8, 0.4, 0.2]","[u'red', u'blue', u'black']","[u'left', u'middle', u'right']","[0.9, 0.5, 0.1]","[u'medium', u'high', u'low']","blue",50,"middle","high","True","False",145,2300,NA
"AH4MHB0B0PJMU","Tue Jan 28 2020 08:43:08 GMT-0500 (Eastern Standard Time)","Tue Jan 28 2020 08:51:26 GMT-0500 (Eastern Standard Time)","Mozilla/5.0 (Windows NT 6.3; Win64; x64) AppleWebKit/537.36 (KHTML, like Gecko) Chrome/79.0.3945.130 Safari/537.36",48,"[0.9, 0.5, 0.1]","[0.8, 0.4, 0.2]","[u'red', u'blue', u'black']","[u'left', u'middle', u'right']","[0.9, 0.5, 0.1]","[u'medium', u'high', u'low']","blue",50,"middle","high","True","False",179,2400,NA
"AH4MHB0B0PJMU","Tue Jan 28 2020 08:43:08 GMT-0500 (Eastern Standard Time)","Tue Jan 28 2020 08:51:26 GMT-0500 (Eastern Standard Time)","Mozilla/5.0 (Windows NT 6.3; Win64; x64) AppleWebKit/537.36 (KHTML, like Gecko) Chrome/79.0.3945.130 Safari/537.36",49,"[0.9, 0.5, 0.1]","[0.8, 0.4, 0.2]","[u'red', u'blue', u'black']","[u'left', u'middle', u'right']","[0.9, 0.5, 0.1]","[u'medium', u'high', u'low']","blue",50,"middle","high","True","False",170,2500,NA
"AH4MHB0B0PJMU","Tue Jan 28 2020 08:43:08 GMT-0500 (Eastern Standard Time)","Tue Jan 28 2020 08:51:26 GMT-0500 (Eastern Standard Time)","Mozilla/5.0 (Windows NT 6.3; Win64; x64) AppleWebKit/537.36 (KHTML, like Gecko) Chrome/79.0.3945.130 Safari/537.36",50,"[0.9, 0.5, 0.1]","[0.8, 0.4, 0.2]","[u'red', u'blue', u'black']","[u'left', u'middle', u'right']","[0.9, 0.5, 0.1]","[u'medium', u'high', u'low']","blue",50,"middle","high","True","False",123,2600,NA
"AH4MHB0B0PJMU","Tue Jan 28 2020 08:43:08 GMT-0500 (Eastern Standard Time)","Tue Jan 28 2020 08:51:26 GMT-0500 (Eastern Standard Time)","Mozilla/5.0 (Windows NT 6.3; Win64; x64) AppleWebKit/537.36 (KHTML, like Gecko) Chrome/79.0.3945.130 Safari/537.36",51,"[0.9, 0.5, 0.1]","[0.8, 0.4, 0.2]","[u'red', u'blue', u'black']","[u'left', u'middle', u'right']","[0.9, 0.5, 0.1]","[u'medium', u'high', u'low']","blue",50,"middle","high","False","True",283,2550,NA
"AH4MHB0B0PJMU","Tue Jan 28 2020 08:43:08 GMT-0500 (Eastern Standard Time)","Tue Jan 28 2020 08:51:26 GMT-0500 (Eastern Standard Time)","Mozilla/5.0 (Windows NT 6.3; Win64; x64) AppleWebKit/537.36 (KHTML, like Gecko) Chrome/79.0.3945.130 Safari/537.36",52,"[0.9, 0.5, 0.1]","[0.8, 0.4, 0.2]","[u'red', u'blue', u'black']","[u'left', u'middle', u'right']","[0.9, 0.5, 0.1]","[u'low', u'medium', u'high']","black",51,"right","high","True","False",43,2650,NA
"AH4MHB0B0PJMU","Tue Jan 28 2020 08:43:08 GMT-0500 (Eastern Standard Time)","Tue Jan 28 2020 08:51:26 GMT-0500 (Eastern Standard Time)","Mozilla/5.0 (Windows NT 6.3; Win64; x64) AppleWebKit/537.36 (KHTML, like Gecko) Chrome/79.0.3945.130 Safari/537.36",53,"[0.9, 0.5, 0.1]","[0.8, 0.4, 0.2]","[u'red', u'blue', u'black']","[u'left', u'middle', u'right']","[0.9, 0.5, 0.1]","[u'low', u'medium', u'high']","black",51,"right","high","True","False",98,2750,NA
"AH4MHB0B0PJMU","Tue Jan 28 2020 08:43:08 GMT-0500 (Eastern Standard Time)","Tue Jan 28 2020 08:51:26 GMT-0500 (Eastern Standard Time)","Mozilla/5.0 (Windows NT 6.3; Win64; x64) AppleWebKit/537.36 (KHTML, like Gecko) Chrome/79.0.3945.130 Safari/537.36",54,"[0.9, 0.5, 0.1]","[0.8, 0.4, 0.2]","[u'red', u'blue', u'black']","[u'left', u'middle', u'right']","[0.9, 0.5, 0.1]","[u'low', u'medium', u'high']","black",51,"right","high","True","False",59,2850,NA
"AH4MHB0B0PJMU","Tue Jan 28 2020 08:43:08 GMT-0500 (Eastern Standard Time)","Tue Jan 28 2020 08:51:26 GMT-0500 (Eastern Standard Time)","Mozilla/5.0 (Windows NT 6.3; Win64; x64) AppleWebKit/537.36 (KHTML, like Gecko) Chrome/79.0.3945.130 Safari/537.36",55,"[0.9, 0.5, 0.1]","[0.8, 0.4, 0.2]","[u'red', u'blue', u'black']","[u'left', u'middle', u'right']","[0.9, 0.5, 0.1]","[u'low', u'medium', u'high']","black",51,"right","high","True","False",27,2950,NA
"AH4MHB0B0PJMU","Tue Jan 28 2020 08:43:08 GMT-0500 (Eastern Standard Time)","Tue Jan 28 2020 08:51:26 GMT-0500 (Eastern Standard Time)","Mozilla/5.0 (Windows NT 6.3; Win64; x64) AppleWebKit/537.36 (KHTML, like Gecko) Chrome/79.0.3945.130 Safari/537.36",56,"[0.9, 0.5, 0.1]","[0.8, 0.4, 0.2]","[u'red', u'blue', u'black']","[u'left', u'middle', u'right']","[0.9, 0.5, 0.1]","[u'low', u'medium', u'high']","black",51,"right","high","True","False",90,3050,NA
"AH4MHB0B0PJMU","Tue Jan 28 2020 08:43:08 GMT-0500 (Eastern Standard Time)","Tue Jan 28 2020 08:51:26 GMT-0500 (Eastern Standard Time)","Mozilla/5.0 (Windows NT 6.3; Win64; x64) AppleWebKit/537.36 (KHTML, like Gecko) Chrome/79.0.3945.130 Safari/537.36",57,"[0.9, 0.5, 0.1]","[0.8, 0.4, 0.2]","[u'red', u'blue', u'black']","[u'left', u'middle', u'right']","[0.9, 0.5, 0.1]","[u'low', u'medium', u'high']","black",51,"right","high","True","False",122,3150,NA
"AH4MHB0B0PJMU","Tue Jan 28 2020 08:43:08 GMT-0500 (Eastern Standard Time)","Tue Jan 28 2020 08:51:26 GMT-0500 (Eastern Standard Time)","Mozilla/5.0 (Windows NT 6.3; Win64; x64) AppleWebKit/537.36 (KHTML, like Gecko) Chrome/79.0.3945.130 Safari/537.36",58,"[0.9, 0.5, 0.1]","[0.8, 0.4, 0.2]","[u'red', u'blue', u'black']","[u'left', u'middle', u'right']","[0.9, 0.5, 0.1]","[u'low', u'medium', u'high']","black",51,"right","high","True","False",76,3250,NA
"AH4MHB0B0PJMU","Tue Jan 28 2020 08:43:08 GMT-0500 (Eastern Standard Time)","Tue Jan 28 2020 08:51:26 GMT-0500 (Eastern Standard Time)","Mozilla/5.0 (Windows NT 6.3; Win64; x64) AppleWebKit/537.36 (KHTML, like Gecko) Chrome/79.0.3945.130 Safari/537.36",59,"[0.9, 0.5, 0.1]","[0.8, 0.4, 0.2]","[u'red', u'blue', u'black']","[u'left', u'middle', u'right']","[0.9, 0.5, 0.1]","[u'low', u'medium', u'high']","black",51,"right","high","True","False",98,3350,NA
"AH4MHB0B0PJMU","Tue Jan 28 2020 08:43:08 GMT-0500 (Eastern Standard Time)","Tue Jan 28 2020 08:51:26 GMT-0500 (Eastern Standard Time)","Mozilla/5.0 (Windows NT 6.3; Win64; x64) AppleWebKit/537.36 (KHTML, like Gecko) Chrome/79.0.3945.130 Safari/537.36",60,"[0.9, 0.5, 0.1]","[0.8, 0.4, 0.2]","[u'red', u'blue', u'black']","[u'left', u'middle', u'right']","[0.9, 0.5, 0.1]","[u'low', u'medium', u'high']","black",51,"right","high","True","True",155,3450,NA
"AH4MHB0B0PJMU","Tue Jan 28 2020 08:43:08 GMT-0500 (Eastern Standard Time)","Tue Jan 28 2020 08:51:26 GMT-0500 (Eastern Standard Time)","Mozilla/5.0 (Windows NT 6.3; Win64; x64) AppleWebKit/537.36 (KHTML, like Gecko) Chrome/79.0.3945.130 Safari/537.36",61,"[0.9, 0.5, 0.1]","[0.8, 0.4, 0.2]","[u'red', u'blue', u'black']","[u'left', u'middle', u'right']","[0.9, 0.5, 0.1]","[u'high', u'medium', u'low']","black",51,"right","low","True","False",146,3550,NA
"AH4MHB0B0PJMU","Tue Jan 28 2020 08:43:08 GMT-0500 (Eastern Standard Time)","Tue Jan 28 2020 08:51:26 GMT-0500 (Eastern Standard Time)","Mozilla/5.0 (Windows NT 6.3; Win64; x64) AppleWebKit/537.36 (KHTML, like Gecko) Chrome/79.0.3945.130 Safari/537.36",62,"[0.9, 0.5, 0.1]","[0.8, 0.4, 0.2]","[u'red', u'blue', u'black']","[u'left', u'middle', u'right']","[0.9, 0.5, 0.1]","[u'high', u'medium', u'low']","black",51,"right","low","False","False",34,3500,NA
"AH4MHB0B0PJMU","Tue Jan 28 2020 08:43:08 GMT-0500 (Eastern Standard Time)","Tue Jan 28 2020 08:51:26 GMT-0500 (Eastern Standard Time)","Mozilla/5.0 (Windows NT 6.3; Win64; x64) AppleWebKit/537.36 (KHTML, like Gecko) Chrome/79.0.3945.130 Safari/537.36",63,"[0.9, 0.5, 0.1]","[0.8, 0.4, 0.2]","[u'red', u'blue', u'black']","[u'left', u'middle', u'right']","[0.9, 0.5, 0.1]","[u'high', u'medium', u'low']","red",49,"left","high","True","False",43,3600,NA
"AH4MHB0B0PJMU","Tue Jan 28 2020 08:43:08 GMT-0500 (Eastern Standard Time)","Tue Jan 28 2020 08:51:26 GMT-0500 (Eastern Standard Time)","Mozilla/5.0 (Windows NT 6.3; Win64; x64) AppleWebKit/537.36 (KHTML, like Gecko) Chrome/79.0.3945.130 Safari/537.36",64,"[0.9, 0.5, 0.1]","[0.8, 0.4, 0.2]","[u'red', u'blue', u'black']","[u'left', u'middle', u'right']","[0.9, 0.5, 0.1]","[u'high', u'medium', u'low']","red",49,"left","high","True","False",139,3700,NA
"AH4MHB0B0PJMU","Tue Jan 28 2020 08:43:08 GMT-0500 (Eastern Standard Time)","Tue Jan 28 2020 08:51:26 GMT-0500 (Eastern Standard Time)","Mozilla/5.0 (Windows NT 6.3; Win64; x64) AppleWebKit/537.36 (KHTML, like Gecko) Chrome/79.0.3945.130 Safari/537.36",65,"[0.9, 0.5, 0.1]","[0.8, 0.4, 0.2]","[u'red', u'blue', u'black']","[u'left', u'middle', u'right']","[0.9, 0.5, 0.1]","[u'high', u'medium', u'low']","red",49,"left","high","True","False",220,3800,NA
"AH4MHB0B0PJMU","Tue Jan 28 2020 08:43:08 GMT-0500 (Eastern Standard Time)","Tue Jan 28 2020 08:51:26 GMT-0500 (Eastern Standard Time)","Mozilla/5.0 (Windows NT 6.3; Win64; x64) AppleWebKit/537.36 (KHTML, like Gecko) Chrome/79.0.3945.130 Safari/537.36",66,"[0.9, 0.5, 0.1]","[0.8, 0.4, 0.2]","[u'red', u'blue', u'black']","[u'left', u'middle', u'right']","[0.9, 0.5, 0.1]","[u'high', u'medium', u'low']","red",49,"left","high","True","False",99,3900,NA
"AH4MHB0B0PJMU","Tue Jan 28 2020 08:43:08 GMT-0500 (Eastern Standard Time)","Tue Jan 28 2020 08:51:26 GMT-0500 (Eastern Standard Time)","Mozilla/5.0 (Windows NT 6.3; Win64; x64) AppleWebKit/537.36 (KHTML, like Gecko) Chrome/79.0.3945.130 Safari/537.36",67,"[0.9, 0.5, 0.1]","[0.8, 0.4, 0.2]","[u'red', u'blue', u'black']","[u'left', u'middle', u'right']","[0.9, 0.5, 0.1]","[u'high', u'medium', u'low']","red",49,"left","high","True","False",195,4000,NA
"AH4MHB0B0PJMU","Tue Jan 28 2020 08:43:08 GMT-0500 (Eastern Standard Time)","Tue Jan 28 2020 08:51:26 GMT-0500 (Eastern Standard Time)","Mozilla/5.0 (Windows NT 6.3; Win64; x64) AppleWebKit/537.36 (KHTML, like Gecko) Chrome/79.0.3945.130 Safari/537.36",68,"[0.9, 0.5, 0.1]","[0.8, 0.4, 0.2]","[u'red', u'blue', u'black']","[u'left', u'middle', u'right']","[0.9, 0.5, 0.1]","[u'high', u'medium', u'low']","red",49,"left","high","True","False",27,4100,NA
"AH4MHB0B0PJMU","Tue Jan 28 2020 08:43:08 GMT-0500 (Eastern Standard Time)","Tue Jan 28 2020 08:51:26 GMT-0500 (Eastern Standard Time)","Mozilla/5.0 (Windows NT 6.3; Win64; x64) AppleWebKit/537.36 (KHTML, like Gecko) Chrome/79.0.3945.130 Safari/537.36",69,"[0.9, 0.5, 0.1]","[0.8, 0.4, 0.2]","[u'red', u'blue', u'black']","[u'left', u'middle', u'right']","[0.9, 0.5, 0.1]","[u'high', u'medium', u'low']","red",49,"left","high","True","False",90,4200,NA
"AH4MHB0B0PJMU","Tue Jan 28 2020 08:43:08 GMT-0500 (Eastern Standard Time)","Tue Jan 28 2020 08:51:26 GMT-0500 (Eastern Standard Time)","Mozilla/5.0 (Windows NT 6.3; Win64; x64) AppleWebKit/537.36 (KHTML, like Gecko) Chrome/79.0.3945.130 Safari/537.36",70,"[0.9, 0.5, 0.1]","[0.8, 0.4, 0.2]","[u'red', u'blue', u'black']","[u'left', u'middle', u'right']","[0.9, 0.5, 0.1]","[u'high', u'medium', u'low']","red",49,"left","high","True","False",12,4300,NA
"AH4MHB0B0PJMU","Tue Jan 28 2020 08:43:08 GMT-0500 (Eastern Standard Time)","Tue Jan 28 2020 08:51:26 GMT-0500 (Eastern Standard Time)","Mozilla/5.0 (Windows NT 6.3; Win64; x64) AppleWebKit/537.36 (KHTML, like Gecko) Chrome/79.0.3945.130 Safari/537.36",71,"[0.9, 0.5, 0.1]","[0.8, 0.4, 0.2]","[u'red', u'blue', u'black']","[u'left', u'middle', u'right']","[0.9, 0.5, 0.1]","[u'high', u'medium', u'low']","red",49,"left","high","True","True",92,4400,NA
"AH4MHB0B0PJMU","Tue Jan 28 2020 08:43:08 GMT-0500 (Eastern Standard Time)","Tue Jan 28 2020 08:51:26 GMT-0500 (Eastern Standard Time)","Mozilla/5.0 (Windows NT 6.3; Win64; x64) AppleWebKit/537.36 (KHTML, like Gecko) Chrome/79.0.3945.130 Safari/537.36",72,"[0.9, 0.5, 0.1]","[0.8, 0.4, 0.2]","[u'red', u'blue', u'black']","[u'left', u'middle', u'right']","[0.9, 0.5, 0.1]","[u'medium', u'low', u'high']","red",49,"left","medium","True","False",108,4500,NA
"AH4MHB0B0PJMU","Tue Jan 28 2020 08:43:08 GMT-0500 (Eastern Standard Time)","Tue Jan 28 2020 08:51:26 GMT-0500 (Eastern Standard Time)","Mozilla/5.0 (Windows NT 6.3; Win64; x64) AppleWebKit/537.36 (KHTML, like Gecko) Chrome/79.0.3945.130 Safari/537.36",73,"[0.9, 0.5, 0.1]","[0.8, 0.4, 0.2]","[u'red', u'blue', u'black']","[u'left', u'middle', u'right']","[0.9, 0.5, 0.1]","[u'medium', u'low', u'high']","red",49,"left","medium","False","False",107,4450,NA
"AH4MHB0B0PJMU","Tue Jan 28 2020 08:43:08 GMT-0500 (Eastern Standard Time)","Tue Jan 28 2020 08:51:26 GMT-0500 (Eastern Standard Time)","Mozilla/5.0 (Windows NT 6.3; Win64; x64) AppleWebKit/537.36 (KHTML, like Gecko) Chrome/79.0.3945.130 Safari/537.36",74,"[0.9, 0.5, 0.1]","[0.8, 0.4, 0.2]","[u'red', u'blue', u'black']","[u'left', u'middle', u'right']","[0.9, 0.5, 0.1]","[u'medium', u'low', u'high']","blue",50,"middle","low","False","False",27,4400,NA
"AH4MHB0B0PJMU","Tue Jan 28 2020 08:43:08 GMT-0500 (Eastern Standard Time)","Tue Jan 28 2020 08:51:26 GMT-0500 (Eastern Standard Time)","Mozilla/5.0 (Windows NT 6.3; Win64; x64) AppleWebKit/537.36 (KHTML, like Gecko) Chrome/79.0.3945.130 Safari/537.36",75,"[0.9, 0.5, 0.1]","[0.8, 0.4, 0.2]","[u'red', u'blue', u'black']","[u'left', u'middle', u'right']","[0.9, 0.5, 0.1]","[u'medium', u'low', u'high']","black",51,"right","high","True","False",364,4500,NA
"AH4MHB0B0PJMU","Tue Jan 28 2020 08:43:08 GMT-0500 (Eastern Standard Time)","Tue Jan 28 2020 08:51:26 GMT-0500 (Eastern Standard Time)","Mozilla/5.0 (Windows NT 6.3; Win64; x64) AppleWebKit/537.36 (KHTML, like Gecko) Chrome/79.0.3945.130 Safari/537.36",76,"[0.9, 0.5, 0.1]","[0.8, 0.4, 0.2]","[u'red', u'blue', u'black']","[u'left', u'middle', u'right']","[0.9, 0.5, 0.1]","[u'medium', u'low', u'high']","black",51,"right","high","True","False",42,4600,NA
"AH4MHB0B0PJMU","Tue Jan 28 2020 08:43:08 GMT-0500 (Eastern Standard Time)","Tue Jan 28 2020 08:51:26 GMT-0500 (Eastern Standard Time)","Mozilla/5.0 (Windows NT 6.3; Win64; x64) AppleWebKit/537.36 (KHTML, like Gecko) Chrome/79.0.3945.130 Safari/537.36",77,"[0.9, 0.5, 0.1]","[0.8, 0.4, 0.2]","[u'red', u'blue', u'black']","[u'left', u'middle', u'right']","[0.9, 0.5, 0.1]","[u'medium', u'low', u'high']","black",51,"right","high","True","False",138,4700,NA
"AH4MHB0B0PJMU","Tue Jan 28 2020 08:43:08 GMT-0500 (Eastern Standard Time)","Tue Jan 28 2020 08:51:26 GMT-0500 (Eastern Standard Time)","Mozilla/5.0 (Windows NT 6.3; Win64; x64) AppleWebKit/537.36 (KHTML, like Gecko) Chrome/79.0.3945.130 Safari/537.36",78,"[0.9, 0.5, 0.1]","[0.8, 0.4, 0.2]","[u'red', u'blue', u'black']","[u'left', u'middle', u'right']","[0.9, 0.5, 0.1]","[u'medium', u'low', u'high']","black",51,"right","high","True","False",131,4800,NA
"AH4MHB0B0PJMU","Tue Jan 28 2020 08:43:08 GMT-0500 (Eastern Standard Time)","Tue Jan 28 2020 08:51:26 GMT-0500 (Eastern Standard Time)","Mozilla/5.0 (Windows NT 6.3; Win64; x64) AppleWebKit/537.36 (KHTML, like Gecko) Chrome/79.0.3945.130 Safari/537.36",79,"[0.9, 0.5, 0.1]","[0.8, 0.4, 0.2]","[u'red', u'blue', u'black']","[u'left', u'middle', u'right']","[0.9, 0.5, 0.1]","[u'medium', u'low', u'high']","black",51,"right","high","True","False",284,4900,NA
"AH4MHB0B0PJMU","Tue Jan 28 2020 08:43:08 GMT-0500 (Eastern Standard Time)","Tue Jan 28 2020 08:51:26 GMT-0500 (Eastern Standard Time)","Mozilla/5.0 (Windows NT 6.3; Win64; x64) AppleWebKit/537.36 (KHTML, like Gecko) Chrome/79.0.3945.130 Safari/537.36",80,"[0.9, 0.5, 0.1]","[0.8, 0.4, 0.2]","[u'red', u'blue', u'black']","[u'left', u'middle', u'right']","[0.9, 0.5, 0.1]","[u'medium', u'low', u'high']","black",51,"right","high","True","False",426,5000,NA
"AH4MHB0B0PJMU","Tue Jan 28 2020 08:43:08 GMT-0500 (Eastern Standard Time)","Tue Jan 28 2020 08:51:26 GMT-0500 (Eastern Standard Time)","Mozilla/5.0 (Windows NT 6.3; Win64; x64) AppleWebKit/537.36 (KHTML, like Gecko) Chrome/79.0.3945.130 Safari/537.36",81,"[0.9, 0.5, 0.1]","[0.8, 0.4, 0.2]","[u'red', u'blue', u'black']","[u'left', u'middle', u'right']","[0.8, 0.4, 0.2]","[u'medium', u'high', u'low']","red",49,"left","medium","True","False",498,5100,NA
"AH4MHB0B0PJMU","Tue Jan 28 2020 08:43:08 GMT-0500 (Eastern Standard Time)","Tue Jan 28 2020 08:51:26 GMT-0500 (Eastern Standard Time)","Mozilla/5.0 (Windows NT 6.3; Win64; x64) AppleWebKit/537.36 (KHTML, like Gecko) Chrome/79.0.3945.130 Safari/537.36",82,"[0.9, 0.5, 0.1]","[0.8, 0.4, 0.2]","[u'red', u'blue', u'black']","[u'left', u'middle', u'right']","[0.8, 0.4, 0.2]","[u'medium', u'high', u'low']","red",49,"left","medium","False","False",348,5050,NA
"AH4MHB0B0PJMU","Tue Jan 28 2020 08:43:08 GMT-0500 (Eastern Standard Time)","Tue Jan 28 2020 08:51:26 GMT-0500 (Eastern Standard Time)","Mozilla/5.0 (Windows NT 6.3; Win64; x64) AppleWebKit/537.36 (KHTML, like Gecko) Chrome/79.0.3945.130 Safari/537.36",83,"[0.9, 0.5, 0.1]","[0.8, 0.4, 0.2]","[u'red', u'blue', u'black']","[u'left', u'middle', u'right']","[0.8, 0.4, 0.2]","[u'medium', u'high', u'low']","red",49,"left","medium","True","False",267,5150,NA
"AH4MHB0B0PJMU","Tue Jan 28 2020 08:43:08 GMT-0500 (Eastern Standard Time)","Tue Jan 28 2020 08:51:26 GMT-0500 (Eastern Standard Time)","Mozilla/5.0 (Windows NT 6.3; Win64; x64) AppleWebKit/537.36 (KHTML, like Gecko) Chrome/79.0.3945.130 Safari/537.36",84,"[0.9, 0.5, 0.1]","[0.8, 0.4, 0.2]","[u'red', u'blue', u'black']","[u'left', u'middle', u'right']","[0.8, 0.4, 0.2]","[u'medium', u'high', u'low']","red",49,"left","medium","False","False",220,5100,NA
"AH4MHB0B0PJMU","Tue Jan 28 2020 08:43:08 GMT-0500 (Eastern Standard Time)","Tue Jan 28 2020 08:51:26 GMT-0500 (Eastern Standard Time)","Mozilla/5.0 (Windows NT 6.3; Win64; x64) AppleWebKit/537.36 (KHTML, like Gecko) Chrome/79.0.3945.130 Safari/537.36",85,"[0.9, 0.5, 0.1]","[0.8, 0.4, 0.2]","[u'red', u'blue', u'black']","[u'left', u'middle', u'right']","[0.8, 0.4, 0.2]","[u'medium', u'high', u'low']","blue",50,"middle","high","True","False",163,5200,NA
"AH4MHB0B0PJMU","Tue Jan 28 2020 08:43:08 GMT-0500 (Eastern Standard Time)","Tue Jan 28 2020 08:51:26 GMT-0500 (Eastern Standard Time)","Mozilla/5.0 (Windows NT 6.3; Win64; x64) AppleWebKit/537.36 (KHTML, like Gecko) Chrome/79.0.3945.130 Safari/537.36",86,"[0.9, 0.5, 0.1]","[0.8, 0.4, 0.2]","[u'red', u'blue', u'black']","[u'left', u'middle', u'right']","[0.8, 0.4, 0.2]","[u'medium', u'high', u'low']","blue",50,"middle","high","True","False",43,5300,NA
"AH4MHB0B0PJMU","Tue Jan 28 2020 08:43:08 GMT-0500 (Eastern Standard Time)","Tue Jan 28 2020 08:51:26 GMT-0500 (Eastern Standard Time)","Mozilla/5.0 (Windows NT 6.3; Win64; x64) AppleWebKit/537.36 (KHTML, like Gecko) Chrome/79.0.3945.130 Safari/537.36",87,"[0.9, 0.5, 0.1]","[0.8, 0.4, 0.2]","[u'red', u'blue', u'black']","[u'left', u'middle', u'right']","[0.8, 0.4, 0.2]","[u'medium', u'high', u'low']","blue",50,"middle","high","True","False",122,5400,NA
"AH4MHB0B0PJMU","Tue Jan 28 2020 08:43:08 GMT-0500 (Eastern Standard Time)","Tue Jan 28 2020 08:51:26 GMT-0500 (Eastern Standard Time)","Mozilla/5.0 (Windows NT 6.3; Win64; x64) AppleWebKit/537.36 (KHTML, like Gecko) Chrome/79.0.3945.130 Safari/537.36",88,"[0.9, 0.5, 0.1]","[0.8, 0.4, 0.2]","[u'red', u'blue', u'black']","[u'left', u'middle', u'right']","[0.8, 0.4, 0.2]","[u'medium', u'high', u'low']","blue",50,"middle","high","False","False",98,5350,NA
"AH4MHB0B0PJMU","Tue Jan 28 2020 08:43:08 GMT-0500 (Eastern Standard Time)","Tue Jan 28 2020 08:51:26 GMT-0500 (Eastern Standard Time)","Mozilla/5.0 (Windows NT 6.3; Win64; x64) AppleWebKit/537.36 (KHTML, like Gecko) Chrome/79.0.3945.130 Safari/537.36",89,"[0.9, 0.5, 0.1]","[0.8, 0.4, 0.2]","[u'red', u'blue', u'black']","[u'left', u'middle', u'right']","[0.8, 0.4, 0.2]","[u'medium', u'high', u'low']","black",51,"right","low","False","False",146,5300,NA
"AH4MHB0B0PJMU","Tue Jan 28 2020 08:43:08 GMT-0500 (Eastern Standard Time)","Tue Jan 28 2020 08:51:26 GMT-0500 (Eastern Standard Time)","Mozilla/5.0 (Windows NT 6.3; Win64; x64) AppleWebKit/537.36 (KHTML, like Gecko) Chrome/79.0.3945.130 Safari/537.36",90,"[0.9, 0.5, 0.1]","[0.8, 0.4, 0.2]","[u'red', u'blue', u'black']","[u'left', u'middle', u'right']","[0.8, 0.4, 0.2]","[u'medium', u'high', u'low']","red",49,"left","medium","False","False",268,5250,NA
"AH4MHB0B0PJMU","Tue Jan 28 2020 08:43:08 GMT-0500 (Eastern Standard Time)","Tue Jan 28 2020 08:51:26 GMT-0500 (Eastern Standard Time)","Mozilla/5.0 (Windows NT 6.3; Win64; x64) AppleWebKit/537.36 (KHTML, like Gecko) Chrome/79.0.3945.130 Safari/537.36",91,"[0.9, 0.5, 0.1]","[0.8, 0.4, 0.2]","[u'red', u'blue', u'black']","[u'left', u'middle', u'right']","[0.8, 0.4, 0.2]","[u'medium', u'high', u'low']","blue",50,"middle","high","False","False",146,5200,NA
"AH4MHB0B0PJMU","Tue Jan 28 2020 08:43:08 GMT-0500 (Eastern Standard Time)","Tue Jan 28 2020 08:51:26 GMT-0500 (Eastern Standard Time)","Mozilla/5.0 (Windows NT 6.3; Win64; x64) AppleWebKit/537.36 (KHTML, like Gecko) Chrome/79.0.3945.130 Safari/537.36",92,"[0.9, 0.5, 0.1]","[0.8, 0.4, 0.2]","[u'red', u'blue', u'black']","[u'left', u'middle', u'right']","[0.8, 0.4, 0.2]","[u'medium', u'high', u'low']","blue",50,"middle","high","True","False",147,5300,NA
"AH4MHB0B0PJMU","Tue Jan 28 2020 08:43:08 GMT-0500 (Eastern Standard Time)","Tue Jan 28 2020 08:51:26 GMT-0500 (Eastern Standard Time)","Mozilla/5.0 (Windows NT 6.3; Win64; x64) AppleWebKit/537.36 (KHTML, like Gecko) Chrome/79.0.3945.130 Safari/537.36",93,"[0.9, 0.5, 0.1]","[0.8, 0.4, 0.2]","[u'red', u'blue', u'black']","[u'left', u'middle', u'right']","[0.8, 0.4, 0.2]","[u'medium', u'high', u'low']","blue",50,"middle","high","True","False",139,5400,NA
"AH4MHB0B0PJMU","Tue Jan 28 2020 08:43:08 GMT-0500 (Eastern Standard Time)","Tue Jan 28 2020 08:51:26 GMT-0500 (Eastern Standard Time)","Mozilla/5.0 (Windows NT 6.3; Win64; x64) AppleWebKit/537.36 (KHTML, like Gecko) Chrome/79.0.3945.130 Safari/537.36",94,"[0.9, 0.5, 0.1]","[0.8, 0.4, 0.2]","[u'red', u'blue', u'black']","[u'left', u'middle', u'right']","[0.8, 0.4, 0.2]","[u'medium', u'high', u'low']","blue",50,"middle","high","True","False",138,5500,NA
"AH4MHB0B0PJMU","Tue Jan 28 2020 08:43:08 GMT-0500 (Eastern Standard Time)","Tue Jan 28 2020 08:51:26 GMT-0500 (Eastern Standard Time)","Mozilla/5.0 (Windows NT 6.3; Win64; x64) AppleWebKit/537.36 (KHTML, like Gecko) Chrome/79.0.3945.130 Safari/537.36",95,"[0.9, 0.5, 0.1]","[0.8, 0.4, 0.2]","[u'red', u'blue', u'black']","[u'left', u'middle', u'right']","[0.8, 0.4, 0.2]","[u'medium', u'high', u'low']","blue",50,"middle","high","True","False",91,5600,NA
"AH4MHB0B0PJMU","Tue Jan 28 2020 08:43:08 GMT-0500 (Eastern Standard Time)","Tue Jan 28 2020 08:51:26 GMT-0500 (Eastern Standard Time)","Mozilla/5.0 (Windows NT 6.3; Win64; x64) AppleWebKit/537.36 (KHTML, like Gecko) Chrome/79.0.3945.130 Safari/537.36",96,"[0.9, 0.5, 0.1]","[0.8, 0.4, 0.2]","[u'red', u'blue', u'black']","[u'left', u'middle', u'right']","[0.8, 0.4, 0.2]","[u'medium', u'high', u'low']","blue",50,"middle","high","True","False",138,5700,NA
"AH4MHB0B0PJMU","Tue Jan 28 2020 08:43:08 GMT-0500 (Eastern Standard Time)","Tue Jan 28 2020 08:51:26 GMT-0500 (Eastern Standard Time)","Mozilla/5.0 (Windows NT 6.3; Win64; x64) AppleWebKit/537.36 (KHTML, like Gecko) Chrome/79.0.3945.130 Safari/537.36",97,"[0.9, 0.5, 0.1]","[0.8, 0.4, 0.2]","[u'red', u'blue', u'black']","[u'left', u'middle', u'right']","[0.8, 0.4, 0.2]","[u'medium', u'high', u'low']","blue",50,"middle","high","True","False",179,5800,NA
"AH4MHB0B0PJMU","Tue Jan 28 2020 08:43:08 GMT-0500 (Eastern Standard Time)","Tue Jan 28 2020 08:51:26 GMT-0500 (Eastern Standard Time)","Mozilla/5.0 (Windows NT 6.3; Win64; x64) AppleWebKit/537.36 (KHTML, like Gecko) Chrome/79.0.3945.130 Safari/537.36",98,"[0.9, 0.5, 0.1]","[0.8, 0.4, 0.2]","[u'red', u'blue', u'black']","[u'left', u'middle', u'right']","[0.8, 0.4, 0.2]","[u'medium', u'high', u'low']","blue",50,"middle","high","True","False",91,5900,NA
"AH4MHB0B0PJMU","Tue Jan 28 2020 08:43:08 GMT-0500 (Eastern Standard Time)","Tue Jan 28 2020 08:51:26 GMT-0500 (Eastern Standard Time)","Mozilla/5.0 (Windows NT 6.3; Win64; x64) AppleWebKit/537.36 (KHTML, like Gecko) Chrome/79.0.3945.130 Safari/537.36",99,"[0.9, 0.5, 0.1]","[0.8, 0.4, 0.2]","[u'red', u'blue', u'black']","[u'left', u'middle', u'right']","[0.8, 0.4, 0.2]","[u'medium', u'high', u'low']","blue",50,"middle","high","True","True",82,6000,NA
"AH4MHB0B0PJMU","Tue Jan 28 2020 08:43:08 GMT-0500 (Eastern Standard Time)","Tue Jan 28 2020 08:51:26 GMT-0500 (Eastern Standard Time)","Mozilla/5.0 (Windows NT 6.3; Win64; x64) AppleWebKit/537.36 (KHTML, like Gecko) Chrome/79.0.3945.130 Safari/537.36",100,"[0.9, 0.5, 0.1]","[0.8, 0.4, 0.2]","[u'red', u'blue', u'black']","[u'left', u'middle', u'right']","[0.8, 0.4, 0.2]","[u'high', u'medium', u'low']","blue",50,"middle","medium","True","False",138,6100,NA
"AH4MHB0B0PJMU","Tue Jan 28 2020 08:43:08 GMT-0500 (Eastern Standard Time)","Tue Jan 28 2020 08:51:26 GMT-0500 (Eastern Standard Time)","Mozilla/5.0 (Windows NT 6.3; Win64; x64) AppleWebKit/537.36 (KHTML, like Gecko) Chrome/79.0.3945.130 Safari/537.36",101,"[0.9, 0.5, 0.1]","[0.8, 0.4, 0.2]","[u'red', u'blue', u'black']","[u'left', u'middle', u'right']","[0.8, 0.4, 0.2]","[u'high', u'medium', u'low']","blue",50,"middle","medium","True","False",66,6200,NA
"AH4MHB0B0PJMU","Tue Jan 28 2020 08:43:08 GMT-0500 (Eastern Standard Time)","Tue Jan 28 2020 08:51:26 GMT-0500 (Eastern Standard Time)","Mozilla/5.0 (Windows NT 6.3; Win64; x64) AppleWebKit/537.36 (KHTML, like Gecko) Chrome/79.0.3945.130 Safari/537.36",102,"[0.9, 0.5, 0.1]","[0.8, 0.4, 0.2]","[u'red', u'blue', u'black']","[u'left', u'middle', u'right']","[0.8, 0.4, 0.2]","[u'high', u'medium', u'low']","blue",50,"middle","medium","False","False",90,6150,NA
"AH4MHB0B0PJMU","Tue Jan 28 2020 08:43:08 GMT-0500 (Eastern Standard Time)","Tue Jan 28 2020 08:51:26 GMT-0500 (Eastern Standard Time)","Mozilla/5.0 (Windows NT 6.3; Win64; x64) AppleWebKit/537.36 (KHTML, like Gecko) Chrome/79.0.3945.130 Safari/537.36",103,"[0.9, 0.5, 0.1]","[0.8, 0.4, 0.2]","[u'red', u'blue', u'black']","[u'left', u'middle', u'right']","[0.8, 0.4, 0.2]","[u'high', u'medium', u'low']","black",51,"right","low","False","False",251,6100,NA
"AH4MHB0B0PJMU","Tue Jan 28 2020 08:43:08 GMT-0500 (Eastern Standard Time)","Tue Jan 28 2020 08:51:26 GMT-0500 (Eastern Standard Time)","Mozilla/5.0 (Windows NT 6.3; Win64; x64) AppleWebKit/537.36 (KHTML, like Gecko) Chrome/79.0.3945.130 Safari/537.36",104,"[0.9, 0.5, 0.1]","[0.8, 0.4, 0.2]","[u'red', u'blue', u'black']","[u'left', u'middle', u'right']","[0.8, 0.4, 0.2]","[u'high', u'medium', u'low']","red",49,"left","high","True","False",180,6200,NA
"AH4MHB0B0PJMU","Tue Jan 28 2020 08:43:08 GMT-0500 (Eastern Standard Time)","Tue Jan 28 2020 08:51:26 GMT-0500 (Eastern Standard Time)","Mozilla/5.0 (Windows NT 6.3; Win64; x64) AppleWebKit/537.36 (KHTML, like Gecko) Chrome/79.0.3945.130 Safari/537.36",105,"[0.9, 0.5, 0.1]","[0.8, 0.4, 0.2]","[u'red', u'blue', u'black']","[u'left', u'middle', u'right']","[0.8, 0.4, 0.2]","[u'high', u'medium', u'low']","red",49,"left","high","True","False",179,6300,NA
"AH4MHB0B0PJMU","Tue Jan 28 2020 08:43:08 GMT-0500 (Eastern Standard Time)","Tue Jan 28 2020 08:51:26 GMT-0500 (Eastern Standard Time)","Mozilla/5.0 (Windows NT 6.3; Win64; x64) AppleWebKit/537.36 (KHTML, like Gecko) Chrome/79.0.3945.130 Safari/537.36",106,"[0.9, 0.5, 0.1]","[0.8, 0.4, 0.2]","[u'red', u'blue', u'black']","[u'left', u'middle', u'right']","[0.8, 0.4, 0.2]","[u'high', u'medium', u'low']","red",49,"left","high","True","False",155,6400,NA
"AH4MHB0B0PJMU","Tue Jan 28 2020 08:43:08 GMT-0500 (Eastern Standard Time)","Tue Jan 28 2020 08:51:26 GMT-0500 (Eastern Standard Time)","Mozilla/5.0 (Windows NT 6.3; Win64; x64) AppleWebKit/537.36 (KHTML, like Gecko) Chrome/79.0.3945.130 Safari/537.36",107,"[0.9, 0.5, 0.1]","[0.8, 0.4, 0.2]","[u'red', u'blue', u'black']","[u'left', u'middle', u'right']","[0.8, 0.4, 0.2]","[u'high', u'medium', u'low']","red",49,"left","high","True","False",307,6500,NA
"AH4MHB0B0PJMU","Tue Jan 28 2020 08:43:08 GMT-0500 (Eastern Standard Time)","Tue Jan 28 2020 08:51:26 GMT-0500 (Eastern Standard Time)","Mozilla/5.0 (Windows NT 6.3; Win64; x64) AppleWebKit/537.36 (KHTML, like Gecko) Chrome/79.0.3945.130 Safari/537.36",108,"[0.9, 0.5, 0.1]","[0.8, 0.4, 0.2]","[u'red', u'blue', u'black']","[u'left', u'middle', u'right']","[0.8, 0.4, 0.2]","[u'high', u'medium', u'low']","red",49,"left","high","True","False",226,6600,NA
"AH4MHB0B0PJMU","Tue Jan 28 2020 08:43:08 GMT-0500 (Eastern Standard Time)","Tue Jan 28 2020 08:51:26 GMT-0500 (Eastern Standard Time)","Mozilla/5.0 (Windows NT 6.3; Win64; x64) AppleWebKit/537.36 (KHTML, like Gecko) Chrome/79.0.3945.130 Safari/537.36",109,"[0.9, 0.5, 0.1]","[0.8, 0.4, 0.2]","[u'red', u'blue', u'black']","[u'left', u'middle', u'right']","[0.8, 0.4, 0.2]","[u'high', u'medium', u'low']","red",49,"left","high","True","False",290,6700,NA
"AH4MHB0B0PJMU","Tue Jan 28 2020 08:43:08 GMT-0500 (Eastern Standard Time)","Tue Jan 28 2020 08:51:26 GMT-0500 (Eastern Standard Time)","Mozilla/5.0 (Windows NT 6.3; Win64; x64) AppleWebKit/537.36 (KHTML, like Gecko) Chrome/79.0.3945.130 Safari/537.36",110,"[0.9, 0.5, 0.1]","[0.8, 0.4, 0.2]","[u'red', u'blue', u'black']","[u'left', u'middle', u'right']","[0.8, 0.4, 0.2]","[u'high', u'medium', u'low']","red",49,"left","high","True","False",284,6800,NA
"AH4MHB0B0PJMU","Tue Jan 28 2020 08:43:08 GMT-0500 (Eastern Standard Time)","Tue Jan 28 2020 08:51:26 GMT-0500 (Eastern Standard Time)","Mozilla/5.0 (Windows NT 6.3; Win64; x64) AppleWebKit/537.36 (KHTML, like Gecko) Chrome/79.0.3945.130 Safari/537.36",111,"[0.9, 0.5, 0.1]","[0.8, 0.4, 0.2]","[u'red', u'blue', u'black']","[u'left', u'middle', u'right']","[0.8, 0.4, 0.2]","[u'high', u'medium', u'low']","red",49,"left","high","False","False",283,6750,NA
"AH4MHB0B0PJMU","Tue Jan 28 2020 08:43:08 GMT-0500 (Eastern Standard Time)","Tue Jan 28 2020 08:51:26 GMT-0500 (Eastern Standard Time)","Mozilla/5.0 (Windows NT 6.3; Win64; x64) AppleWebKit/537.36 (KHTML, like Gecko) Chrome/79.0.3945.130 Safari/537.36",112,"[0.9, 0.5, 0.1]","[0.8, 0.4, 0.2]","[u'red', u'blue', u'black']","[u'left', u'middle', u'right']","[0.8, 0.4, 0.2]","[u'high', u'medium', u'low']","blue",50,"middle","medium","False","False",83,6700,NA
"AH4MHB0B0PJMU","Tue Jan 28 2020 08:43:08 GMT-0500 (Eastern Standard Time)","Tue Jan 28 2020 08:51:26 GMT-0500 (Eastern Standard Time)","Mozilla/5.0 (Windows NT 6.3; Win64; x64) AppleWebKit/537.36 (KHTML, like Gecko) Chrome/79.0.3945.130 Safari/537.36",113,"[0.9, 0.5, 0.1]","[0.8, 0.4, 0.2]","[u'red', u'blue', u'black']","[u'left', u'middle', u'right']","[0.8, 0.4, 0.2]","[u'high', u'medium', u'low']","black",51,"right","low","False","False",114,6650,NA
"AH4MHB0B0PJMU","Tue Jan 28 2020 08:43:08 GMT-0500 (Eastern Standard Time)","Tue Jan 28 2020 08:51:26 GMT-0500 (Eastern Standard Time)","Mozilla/5.0 (Windows NT 6.3; Win64; x64) AppleWebKit/537.36 (KHTML, like Gecko) Chrome/79.0.3945.130 Safari/537.36",114,"[0.9, 0.5, 0.1]","[0.8, 0.4, 0.2]","[u'red', u'blue', u'black']","[u'left', u'middle', u'right']","[0.8, 0.4, 0.2]","[u'high', u'medium', u'low']","red",49,"left","high","True","False",323,6750,NA
"AH4MHB0B0PJMU","Tue Jan 28 2020 08:43:08 GMT-0500 (Eastern Standard Time)","Tue Jan 28 2020 08:51:26 GMT-0500 (Eastern Standard Time)","Mozilla/5.0 (Windows NT 6.3; Win64; x64) AppleWebKit/537.36 (KHTML, like Gecko) Chrome/79.0.3945.130 Safari/537.36",115,"[0.9, 0.5, 0.1]","[0.8, 0.4, 0.2]","[u'red', u'blue', u'black']","[u'left', u'middle', u'right']","[0.8, 0.4, 0.2]","[u'high', u'medium', u'low']","red",49,"left","high","True","False",243,6850,NA
"AH4MHB0B0PJMU","Tue Jan 28 2020 08:43:08 GMT-0500 (Eastern Standard Time)","Tue Jan 28 2020 08:51:26 GMT-0500 (Eastern Standard Time)","Mozilla/5.0 (Windows NT 6.3; Win64; x64) AppleWebKit/537.36 (KHTML, like Gecko) Chrome/79.0.3945.130 Safari/537.36",116,"[0.9, 0.5, 0.1]","[0.8, 0.4, 0.2]","[u'red', u'blue', u'black']","[u'left', u'middle', u'right']","[0.8, 0.4, 0.2]","[u'high', u'medium', u'low']","red",49,"left","high","True","False",332,6950,NA
"AH4MHB0B0PJMU","Tue Jan 28 2020 08:43:08 GMT-0500 (Eastern Standard Time)","Tue Jan 28 2020 08:51:26 GMT-0500 (Eastern Standard Time)","Mozilla/5.0 (Windows NT 6.3; Win64; x64) AppleWebKit/537.36 (KHTML, like Gecko) Chrome/79.0.3945.130 Safari/537.36",117,"[0.9, 0.5, 0.1]","[0.8, 0.4, 0.2]","[u'red', u'blue', u'black']","[u'left', u'middle', u'right']","[0.8, 0.4, 0.2]","[u'high', u'medium', u'low']","red",49,"left","high","True","False",490,7050,NA
"AH4MHB0B0PJMU","Tue Jan 28 2020 08:43:08 GMT-0500 (Eastern Standard Time)","Tue Jan 28 2020 08:51:26 GMT-0500 (Eastern Standard Time)","Mozilla/5.0 (Windows NT 6.3; Win64; x64) AppleWebKit/537.36 (KHTML, like Gecko) Chrome/79.0.3945.130 Safari/537.36",118,"[0.9, 0.5, 0.1]","[0.8, 0.4, 0.2]","[u'red', u'blue', u'black']","[u'left', u'middle', u'right']","[0.8, 0.4, 0.2]","[u'high', u'medium', u'low']","red",49,"left","high","True","False",226,7150,NA
"AH4MHB0B0PJMU","Tue Jan 28 2020 08:43:08 GMT-0500 (Eastern Standard Time)","Tue Jan 28 2020 08:51:26 GMT-0500 (Eastern Standard Time)","Mozilla/5.0 (Windows NT 6.3; Win64; x64) AppleWebKit/537.36 (KHTML, like Gecko) Chrome/79.0.3945.130 Safari/537.36",119,"[0.9, 0.5, 0.1]","[0.8, 0.4, 0.2]","[u'red', u'blue', u'black']","[u'left', u'middle', u'right']","[0.8, 0.4, 0.2]","[u'high', u'medium', u'low']","red",49,"left","high","True","False",107,7250,NA
"AH4MHB0B0PJMU","Tue Jan 28 2020 08:43:08 GMT-0500 (Eastern Standard Time)","Tue Jan 28 2020 08:51:26 GMT-0500 (Eastern Standard Time)","Mozilla/5.0 (Windows NT 6.3; Win64; x64) AppleWebKit/537.36 (KHTML, like Gecko) Chrome/79.0.3945.130 Safari/537.36",120,"[0.9, 0.5, 0.1]","[0.8, 0.4, 0.2]","[u'red', u'blue', u'black']","[u'left', u'middle', u'right']","[0.8, 0.4, 0.2]","[u'high', u'medium', u'low']","red",49,"left","high","False","False",74,7200,NA
"AH4MHB0B0PJMU","Tue Jan 28 2020 08:43:08 GMT-0500 (Eastern Standard Time)","Tue Jan 28 2020 08:51:26 GMT-0500 (Eastern Standard Time)","Mozilla/5.0 (Windows NT 6.3; Win64; x64) AppleWebKit/537.36 (KHTML, like Gecko) Chrome/79.0.3945.130 Safari/537.36",121,"[0.9, 0.5, 0.1]","[0.8, 0.4, 0.2]","[u'red', u'blue', u'black']","[u'left', u'middle', u'right']","[0.8, 0.4, 0.2]","[u'low', u'medium', u'high']","black",51,"right","high","False","False",315,7150,NA
"AH4MHB0B0PJMU","Tue Jan 28 2020 08:43:08 GMT-0500 (Eastern Standard Time)","Tue Jan 28 2020 08:51:26 GMT-0500 (Eastern Standard Time)","Mozilla/5.0 (Windows NT 6.3; Win64; x64) AppleWebKit/537.36 (KHTML, like Gecko) Chrome/79.0.3945.130 Safari/537.36",122,"[0.9, 0.5, 0.1]","[0.8, 0.4, 0.2]","[u'red', u'blue', u'black']","[u'left', u'middle', u'right']","[0.8, 0.4, 0.2]","[u'low', u'medium', u'high']","red",49,"left","low","False","False",58,7100,NA
"AH4MHB0B0PJMU","Tue Jan 28 2020 08:43:08 GMT-0500 (Eastern Standard Time)","Tue Jan 28 2020 08:51:26 GMT-0500 (Eastern Standard Time)","Mozilla/5.0 (Windows NT 6.3; Win64; x64) AppleWebKit/537.36 (KHTML, like Gecko) Chrome/79.0.3945.130 Safari/537.36",123,"[0.9, 0.5, 0.1]","[0.8, 0.4, 0.2]","[u'red', u'blue', u'black']","[u'left', u'middle', u'right']","[0.8, 0.4, 0.2]","[u'low', u'medium', u'high']","blue",50,"middle","medium","True","False",179,7200,NA
"AH4MHB0B0PJMU","Tue Jan 28 2020 08:43:08 GMT-0500 (Eastern Standard Time)","Tue Jan 28 2020 08:51:26 GMT-0500 (Eastern Standard Time)","Mozilla/5.0 (Windows NT 6.3; Win64; x64) AppleWebKit/537.36 (KHTML, like Gecko) Chrome/79.0.3945.130 Safari/537.36",124,"[0.9, 0.5, 0.1]","[0.8, 0.4, 0.2]","[u'red', u'blue', u'black']","[u'left', u'middle', u'right']","[0.8, 0.4, 0.2]","[u'low', u'medium', u'high']","blue",50,"middle","medium","False","False",67,7150,NA
"AH4MHB0B0PJMU","Tue Jan 28 2020 08:43:08 GMT-0500 (Eastern Standard Time)","Tue Jan 28 2020 08:51:26 GMT-0500 (Eastern Standard Time)","Mozilla/5.0 (Windows NT 6.3; Win64; x64) AppleWebKit/537.36 (KHTML, like Gecko) Chrome/79.0.3945.130 Safari/537.36",125,"[0.9, 0.5, 0.1]","[0.8, 0.4, 0.2]","[u'red', u'blue', u'black']","[u'left', u'middle', u'right']","[0.8, 0.4, 0.2]","[u'low', u'medium', u'high']","blue",50,"middle","medium","False","False",532,7100,NA
"AH4MHB0B0PJMU","Tue Jan 28 2020 08:43:08 GMT-0500 (Eastern Standard Time)","Tue Jan 28 2020 08:51:26 GMT-0500 (Eastern Standard Time)","Mozilla/5.0 (Windows NT 6.3; Win64; x64) AppleWebKit/537.36 (KHTML, like Gecko) Chrome/79.0.3945.130 Safari/537.36",126,"[0.9, 0.5, 0.1]","[0.8, 0.4, 0.2]","[u'red', u'blue', u'black']","[u'left', u'middle', u'right']","[0.8, 0.4, 0.2]","[u'low', u'medium', u'high']","black",51,"right","high","False","False",306,7050,NA
"AH4MHB0B0PJMU","Tue Jan 28 2020 08:43:08 GMT-0500 (Eastern Standard Time)","Tue Jan 28 2020 08:51:26 GMT-0500 (Eastern Standard Time)","Mozilla/5.0 (Windows NT 6.3; Win64; x64) AppleWebKit/537.36 (KHTML, like Gecko) Chrome/79.0.3945.130 Safari/537.36",127,"[0.9, 0.5, 0.1]","[0.8, 0.4, 0.2]","[u'red', u'blue', u'black']","[u'left', u'middle', u'right']","[0.8, 0.4, 0.2]","[u'low', u'medium', u'high']","blue",50,"middle","medium","True","False",243,7150,NA
"AH4MHB0B0PJMU","Tue Jan 28 2020 08:43:08 GMT-0500 (Eastern Standard Time)","Tue Jan 28 2020 08:51:26 GMT-0500 (Eastern Standard Time)","Mozilla/5.0 (Windows NT 6.3; Win64; x64) AppleWebKit/537.36 (KHTML, like Gecko) Chrome/79.0.3945.130 Safari/537.36",128,"[0.9, 0.5, 0.1]","[0.8, 0.4, 0.2]","[u'red', u'blue', u'black']","[u'left', u'middle', u'right']","[0.8, 0.4, 0.2]","[u'low', u'medium', u'high']","blue",50,"middle","medium","False","False",259,7100,NA
"AH4MHB0B0PJMU","Tue Jan 28 2020 08:43:08 GMT-0500 (Eastern Standard Time)","Tue Jan 28 2020 08:51:26 GMT-0500 (Eastern Standard Time)","Mozilla/5.0 (Windows NT 6.3; Win64; x64) AppleWebKit/537.36 (KHTML, like Gecko) Chrome/79.0.3945.130 Safari/537.36",129,"[0.9, 0.5, 0.1]","[0.8, 0.4, 0.2]","[u'red', u'blue', u'black']","[u'left', u'middle', u'right']","[0.8, 0.4, 0.2]","[u'low', u'medium', u'high']","red",49,"left","low","False","False",147,7050,NA
"AH4MHB0B0PJMU","Tue Jan 28 2020 08:43:08 GMT-0500 (Eastern Standard Time)","Tue Jan 28 2020 08:51:26 GMT-0500 (Eastern Standard Time)","Mozilla/5.0 (Windows NT 6.3; Win64; x64) AppleWebKit/537.36 (KHTML, like Gecko) Chrome/79.0.3945.130 Safari/537.36",130,"[0.9, 0.5, 0.1]","[0.8, 0.4, 0.2]","[u'red', u'blue', u'black']","[u'left', u'middle', u'right']","[0.8, 0.4, 0.2]","[u'low', u'medium', u'high']","red",49,"left","low","False","False",138,7000,NA
"AH4MHB0B0PJMU","Tue Jan 28 2020 08:43:08 GMT-0500 (Eastern Standard Time)","Tue Jan 28 2020 08:51:26 GMT-0500 (Eastern Standard Time)","Mozilla/5.0 (Windows NT 6.3; Win64; x64) AppleWebKit/537.36 (KHTML, like Gecko) Chrome/79.0.3945.130 Safari/537.36",131,"[0.9, 0.5, 0.1]","[0.8, 0.4, 0.2]","[u'red', u'blue', u'black']","[u'left', u'middle', u'right']","[0.8, 0.4, 0.2]","[u'low', u'medium', u'high']","blue",50,"middle","medium","True","False",44,7100,NA
"AH4MHB0B0PJMU","Tue Jan 28 2020 08:43:08 GMT-0500 (Eastern Standard Time)","Tue Jan 28 2020 08:51:26 GMT-0500 (Eastern Standard Time)","Mozilla/5.0 (Windows NT 6.3; Win64; x64) AppleWebKit/537.36 (KHTML, like Gecko) Chrome/79.0.3945.130 Safari/537.36",132,"[0.9, 0.5, 0.1]","[0.8, 0.4, 0.2]","[u'red', u'blue', u'black']","[u'left', u'middle', u'right']","[0.8, 0.4, 0.2]","[u'low', u'medium', u'high']","blue",50,"middle","medium","False","False",219,7050,NA
"AH4MHB0B0PJMU","Tue Jan 28 2020 08:43:08 GMT-0500 (Eastern Standard Time)","Tue Jan 28 2020 08:51:26 GMT-0500 (Eastern Standard Time)","Mozilla/5.0 (Windows NT 6.3; Win64; x64) AppleWebKit/537.36 (KHTML, like Gecko) Chrome/79.0.3945.130 Safari/537.36",133,"[0.9, 0.5, 0.1]","[0.8, 0.4, 0.2]","[u'red', u'blue', u'black']","[u'left', u'middle', u'right']","[0.8, 0.4, 0.2]","[u'low', u'medium', u'high']","blue",50,"middle","medium","False","False",147,7000,NA
"AH4MHB0B0PJMU","Tue Jan 28 2020 08:43:08 GMT-0500 (Eastern Standard Time)","Tue Jan 28 2020 08:51:26 GMT-0500 (Eastern Standard Time)","Mozilla/5.0 (Windows NT 6.3; Win64; x64) AppleWebKit/537.36 (KHTML, like Gecko) Chrome/79.0.3945.130 Safari/537.36",134,"[0.9, 0.5, 0.1]","[0.8, 0.4, 0.2]","[u'red', u'blue', u'black']","[u'left', u'middle', u'right']","[0.8, 0.4, 0.2]","[u'low', u'medium', u'high']","black",51,"right","high","True","False",83,7100,NA
"AH4MHB0B0PJMU","Tue Jan 28 2020 08:43:08 GMT-0500 (Eastern Standard Time)","Tue Jan 28 2020 08:51:26 GMT-0500 (Eastern Standard Time)","Mozilla/5.0 (Windows NT 6.3; Win64; x64) AppleWebKit/537.36 (KHTML, like Gecko) Chrome/79.0.3945.130 Safari/537.36",135,"[0.9, 0.5, 0.1]","[0.8, 0.4, 0.2]","[u'red', u'blue', u'black']","[u'left', u'middle', u'right']","[0.8, 0.4, 0.2]","[u'low', u'medium', u'high']","black",51,"right","high","True","False",27,7200,NA
"AH4MHB0B0PJMU","Tue Jan 28 2020 08:43:08 GMT-0500 (Eastern Standard Time)","Tue Jan 28 2020 08:51:26 GMT-0500 (Eastern Standard Time)","Mozilla/5.0 (Windows NT 6.3; Win64; x64) AppleWebKit/537.36 (KHTML, like Gecko) Chrome/79.0.3945.130 Safari/537.36",136,"[0.9, 0.5, 0.1]","[0.8, 0.4, 0.2]","[u'red', u'blue', u'black']","[u'left', u'middle', u'right']","[0.8, 0.4, 0.2]","[u'low', u'medium', u'high']","black",51,"right","high","True","False",147,7300,NA
"AH4MHB0B0PJMU","Tue Jan 28 2020 08:43:08 GMT-0500 (Eastern Standard Time)","Tue Jan 28 2020 08:51:26 GMT-0500 (Eastern Standard Time)","Mozilla/5.0 (Windows NT 6.3; Win64; x64) AppleWebKit/537.36 (KHTML, like Gecko) Chrome/79.0.3945.130 Safari/537.36",137,"[0.9, 0.5, 0.1]","[0.8, 0.4, 0.2]","[u'red', u'blue', u'black']","[u'left', u'middle', u'right']","[0.8, 0.4, 0.2]","[u'low', u'medium', u'high']","black",51,"right","high","True","False",131,7400,NA
"AH4MHB0B0PJMU","Tue Jan 28 2020 08:43:08 GMT-0500 (Eastern Standard Time)","Tue Jan 28 2020 08:51:26 GMT-0500 (Eastern Standard Time)","Mozilla/5.0 (Windows NT 6.3; Win64; x64) AppleWebKit/537.36 (KHTML, like Gecko) Chrome/79.0.3945.130 Safari/537.36",138,"[0.9, 0.5, 0.1]","[0.8, 0.4, 0.2]","[u'red', u'blue', u'black']","[u'left', u'middle', u'right']","[0.8, 0.4, 0.2]","[u'low', u'medium', u'high']","black",51,"right","high","True","False",84,7500,NA
"AH4MHB0B0PJMU","Tue Jan 28 2020 08:43:08 GMT-0500 (Eastern Standard Time)","Tue Jan 28 2020 08:51:26 GMT-0500 (Eastern Standard Time)","Mozilla/5.0 (Windows NT 6.3; Win64; x64) AppleWebKit/537.36 (KHTML, like Gecko) Chrome/79.0.3945.130 Safari/537.36",139,"[0.9, 0.5, 0.1]","[0.8, 0.4, 0.2]","[u'red', u'blue', u'black']","[u'left', u'middle', u'right']","[0.8, 0.4, 0.2]","[u'low', u'medium', u'high']","black",51,"right","high","True","False",290,7600,NA
"AH4MHB0B0PJMU","Tue Jan 28 2020 08:43:08 GMT-0500 (Eastern Standard Time)","Tue Jan 28 2020 08:51:26 GMT-0500 (Eastern Standard Time)","Mozilla/5.0 (Windows NT 6.3; Win64; x64) AppleWebKit/537.36 (KHTML, like Gecko) Chrome/79.0.3945.130 Safari/537.36",140,"[0.9, 0.5, 0.1]","[0.8, 0.4, 0.2]","[u'red', u'blue', u'black']","[u'left', u'middle', u'right']","[0.8, 0.4, 0.2]","[u'low', u'medium', u'high']","black",51,"right","high","True","False",251,7700,NA
"AH4MHB0B0PJMU","Tue Jan 28 2020 08:43:08 GMT-0500 (Eastern Standard Time)","Tue Jan 28 2020 08:51:26 GMT-0500 (Eastern Standard Time)","Mozilla/5.0 (Windows NT 6.3; Win64; x64) AppleWebKit/537.36 (KHTML, like Gecko) Chrome/79.0.3945.130 Safari/537.36",141,"[0.9, 0.5, 0.1]","[0.8, 0.4, 0.2]","[u'red', u'blue', u'black']","[u'left', u'middle', u'right']","[0.8, 0.4, 0.2]","[u'low', u'medium', u'high']","black",51,"right","high","True","False",171,7800,NA
"AH4MHB0B0PJMU","Tue Jan 28 2020 08:43:08 GMT-0500 (Eastern Standard Time)","Tue Jan 28 2020 08:51:26 GMT-0500 (Eastern Standard Time)","Mozilla/5.0 (Windows NT 6.3; Win64; x64) AppleWebKit/537.36 (KHTML, like Gecko) Chrome/79.0.3945.130 Safari/537.36",142,"[0.9, 0.5, 0.1]","[0.8, 0.4, 0.2]","[u'red', u'blue', u'black']","[u'left', u'middle', u'right']","[0.8, 0.4, 0.2]","[u'low', u'medium', u'high']","black",51,"right","high","True","True",162,7900,NA
"AH4MHB0B0PJMU","Tue Jan 28 2020 08:43:08 GMT-0500 (Eastern Standard Time)","Tue Jan 28 2020 08:51:26 GMT-0500 (Eastern Standard Time)","Mozilla/5.0 (Windows NT 6.3; Win64; x64) AppleWebKit/537.36 (KHTML, like Gecko) Chrome/79.0.3945.130 Safari/537.36",143,"[0.9, 0.5, 0.1]","[0.8, 0.4, 0.2]","[u'red', u'blue', u'black']","[u'left', u'middle', u'right']","[0.8, 0.4, 0.2]","[u'high', u'low', u'medium']","black",51,"right","medium","False","False",51,7850,NA
"AH4MHB0B0PJMU","Tue Jan 28 2020 08:43:08 GMT-0500 (Eastern Standard Time)","Tue Jan 28 2020 08:51:26 GMT-0500 (Eastern Standard Time)","Mozilla/5.0 (Windows NT 6.3; Win64; x64) AppleWebKit/537.36 (KHTML, like Gecko) Chrome/79.0.3945.130 Safari/537.36",144,"[0.9, 0.5, 0.1]","[0.8, 0.4, 0.2]","[u'red', u'blue', u'black']","[u'left', u'middle', u'right']","[0.8, 0.4, 0.2]","[u'high', u'low', u'medium']","black",51,"right","medium","False","False",252,7800,NA
"AH4MHB0B0PJMU","Tue Jan 28 2020 08:43:08 GMT-0500 (Eastern Standard Time)","Tue Jan 28 2020 08:51:26 GMT-0500 (Eastern Standard Time)","Mozilla/5.0 (Windows NT 6.3; Win64; x64) AppleWebKit/537.36 (KHTML, like Gecko) Chrome/79.0.3945.130 Safari/537.36",145,"[0.9, 0.5, 0.1]","[0.8, 0.4, 0.2]","[u'red', u'blue', u'black']","[u'left', u'middle', u'right']","[0.8, 0.4, 0.2]","[u'high', u'low', u'medium']","blue",50,"middle","low","False","False",163,7750,NA
"AH4MHB0B0PJMU","Tue Jan 28 2020 08:43:08 GMT-0500 (Eastern Standard Time)","Tue Jan 28 2020 08:51:26 GMT-0500 (Eastern Standard Time)","Mozilla/5.0 (Windows NT 6.3; Win64; x64) AppleWebKit/537.36 (KHTML, like Gecko) Chrome/79.0.3945.130 Safari/537.36",146,"[0.9, 0.5, 0.1]","[0.8, 0.4, 0.2]","[u'red', u'blue', u'black']","[u'left', u'middle', u'right']","[0.8, 0.4, 0.2]","[u'high', u'low', u'medium']","red",49,"left","high","True","False",3,7850,NA
"AH4MHB0B0PJMU","Tue Jan 28 2020 08:43:08 GMT-0500 (Eastern Standard Time)","Tue Jan 28 2020 08:51:26 GMT-0500 (Eastern Standard Time)","Mozilla/5.0 (Windows NT 6.3; Win64; x64) AppleWebKit/537.36 (KHTML, like Gecko) Chrome/79.0.3945.130 Safari/537.36",147,"[0.9, 0.5, 0.1]","[0.8, 0.4, 0.2]","[u'red', u'blue', u'black']","[u'left', u'middle', u'right']","[0.8, 0.4, 0.2]","[u'high', u'low', u'medium']","red",49,"left","high","False","False",75,7800,NA
"AH4MHB0B0PJMU","Tue Jan 28 2020 08:43:08 GMT-0500 (Eastern Standard Time)","Tue Jan 28 2020 08:51:26 GMT-0500 (Eastern Standard Time)","Mozilla/5.0 (Windows NT 6.3; Win64; x64) AppleWebKit/537.36 (KHTML, like Gecko) Chrome/79.0.3945.130 Safari/537.36",148,"[0.9, 0.5, 0.1]","[0.8, 0.4, 0.2]","[u'red', u'blue', u'black']","[u'left', u'middle', u'right']","[0.8, 0.4, 0.2]","[u'high', u'low', u'medium']","blue",50,"middle","low","False","False",35,7750,NA
"AH4MHB0B0PJMU","Tue Jan 28 2020 08:43:08 GMT-0500 (Eastern Standard Time)","Tue Jan 28 2020 08:51:26 GMT-0500 (Eastern Standard Time)","Mozilla/5.0 (Windows NT 6.3; Win64; x64) AppleWebKit/537.36 (KHTML, like Gecko) Chrome/79.0.3945.130 Safari/537.36",149,"[0.9, 0.5, 0.1]","[0.8, 0.4, 0.2]","[u'red', u'blue', u'black']","[u'left', u'middle', u'right']","[0.8, 0.4, 0.2]","[u'high', u'low', u'medium']","red",49,"left","high","True","False",67,7850,NA
"AH4MHB0B0PJMU","Tue Jan 28 2020 08:43:08 GMT-0500 (Eastern Standard Time)","Tue Jan 28 2020 08:51:26 GMT-0500 (Eastern Standard Time)","Mozilla/5.0 (Windows NT 6.3; Win64; x64) AppleWebKit/537.36 (KHTML, like Gecko) Chrome/79.0.3945.130 Safari/537.36",150,"[0.9, 0.5, 0.1]","[0.8, 0.4, 0.2]","[u'red', u'blue', u'black']","[u'left', u'middle', u'right']","[0.8, 0.4, 0.2]","[u'high', u'low', u'medium']","red",49,"left","high","True","False",139,7950,NA
"AH4MHB0B0PJMU","Tue Jan 28 2020 08:43:08 GMT-0500 (Eastern Standard Time)","Tue Jan 28 2020 08:51:26 GMT-0500 (Eastern Standard Time)","Mozilla/5.0 (Windows NT 6.3; Win64; x64) AppleWebKit/537.36 (KHTML, like Gecko) Chrome/79.0.3945.130 Safari/537.36",151,"[0.9, 0.5, 0.1]","[0.8, 0.4, 0.2]","[u'red', u'blue', u'black']","[u'left', u'middle', u'right']","[0.8, 0.4, 0.2]","[u'high', u'low', u'medium']","red",49,"left","high","False","False",268,7900,NA
"AH4MHB0B0PJMU","Tue Jan 28 2020 08:43:08 GMT-0500 (Eastern Standard Time)","Tue Jan 28 2020 08:51:26 GMT-0500 (Eastern Standard Time)","Mozilla/5.0 (Windows NT 6.3; Win64; x64) AppleWebKit/537.36 (KHTML, like Gecko) Chrome/79.0.3945.130 Safari/537.36",152,"[0.9, 0.5, 0.1]","[0.8, 0.4, 0.2]","[u'red', u'blue', u'black']","[u'left', u'middle', u'right']","[0.8, 0.4, 0.2]","[u'high', u'low', u'medium']","red",49,"left","high","True","False",130,8000,NA
"AH4MHB0B0PJMU","Tue Jan 28 2020 08:43:08 GMT-0500 (Eastern Standard Time)","Tue Jan 28 2020 08:51:26 GMT-0500 (Eastern Standard Time)","Mozilla/5.0 (Windows NT 6.3; Win64; x64) AppleWebKit/537.36 (KHTML, like Gecko) Chrome/79.0.3945.130 Safari/537.36",153,"[0.9, 0.5, 0.1]","[0.8, 0.4, 0.2]","[u'red', u'blue', u'black']","[u'left', u'middle', u'right']","[0.8, 0.4, 0.2]","[u'high', u'low', u'medium']","red",49,"left","high","True","False",115,8100,NA
"AH4MHB0B0PJMU","Tue Jan 28 2020 08:43:08 GMT-0500 (Eastern Standard Time)","Tue Jan 28 2020 08:51:26 GMT-0500 (Eastern Standard Time)","Mozilla/5.0 (Windows NT 6.3; Win64; x64) AppleWebKit/537.36 (KHTML, like Gecko) Chrome/79.0.3945.130 Safari/537.36",154,"[0.9, 0.5, 0.1]","[0.8, 0.4, 0.2]","[u'red', u'blue', u'black']","[u'left', u'middle', u'right']","[0.8, 0.4, 0.2]","[u'high', u'low', u'medium']","red",49,"left","high","True","False",339,8200,NA
"AH4MHB0B0PJMU","Tue Jan 28 2020 08:43:08 GMT-0500 (Eastern Standard Time)","Tue Jan 28 2020 08:51:26 GMT-0500 (Eastern Standard Time)","Mozilla/5.0 (Windows NT 6.3; Win64; x64) AppleWebKit/537.36 (KHTML, like Gecko) Chrome/79.0.3945.130 Safari/537.36",155,"[0.9, 0.5, 0.1]","[0.8, 0.4, 0.2]","[u'red', u'blue', u'black']","[u'left', u'middle', u'right']","[0.8, 0.4, 0.2]","[u'high', u'low', u'medium']","red",49,"left","high","True","True",170,8300,NA
"AH4MHB0B0PJMU","Tue Jan 28 2020 08:43:08 GMT-0500 (Eastern Standard Time)","Tue Jan 28 2020 08:51:26 GMT-0500 (Eastern Standard Time)","Mozilla/5.0 (Windows NT 6.3; Win64; x64) AppleWebKit/537.36 (KHTML, like Gecko) Chrome/79.0.3945.130 Safari/537.36",156,"[0.9, 0.5, 0.1]","[0.8, 0.4, 0.2]","[u'red', u'blue', u'black']","[u'left', u'middle', u'right']","[0.8, 0.4, 0.2]","[u'medium', u'high', u'low']","red",49,"left","medium","False","False",242,8250,NA
"AH4MHB0B0PJMU","Tue Jan 28 2020 08:43:08 GMT-0500 (Eastern Standard Time)","Tue Jan 28 2020 08:51:26 GMT-0500 (Eastern Standard Time)","Mozilla/5.0 (Windows NT 6.3; Win64; x64) AppleWebKit/537.36 (KHTML, like Gecko) Chrome/79.0.3945.130 Safari/537.36",157,"[0.9, 0.5, 0.1]","[0.8, 0.4, 0.2]","[u'red', u'blue', u'black']","[u'left', u'middle', u'right']","[0.8, 0.4, 0.2]","[u'medium', u'high', u'low']","red",49,"left","medium","True","False",148,8350,NA
"AH4MHB0B0PJMU","Tue Jan 28 2020 08:43:08 GMT-0500 (Eastern Standard Time)","Tue Jan 28 2020 08:51:26 GMT-0500 (Eastern Standard Time)","Mozilla/5.0 (Windows NT 6.3; Win64; x64) AppleWebKit/537.36 (KHTML, like Gecko) Chrome/79.0.3945.130 Safari/537.36",158,"[0.9, 0.5, 0.1]","[0.8, 0.4, 0.2]","[u'red', u'blue', u'black']","[u'left', u'middle', u'right']","[0.8, 0.4, 0.2]","[u'medium', u'high', u'low']","red",49,"left","medium","False","False",298,8300,NA
"AH4MHB0B0PJMU","Tue Jan 28 2020 08:43:08 GMT-0500 (Eastern Standard Time)","Tue Jan 28 2020 08:51:26 GMT-0500 (Eastern Standard Time)","Mozilla/5.0 (Windows NT 6.3; Win64; x64) AppleWebKit/537.36 (KHTML, like Gecko) Chrome/79.0.3945.130 Safari/537.36",159,"[0.9, 0.5, 0.1]","[0.8, 0.4, 0.2]","[u'red', u'blue', u'black']","[u'left', u'middle', u'right']","[0.8, 0.4, 0.2]","[u'medium', u'high', u'low']","red",49,"left","medium","False","False",290,8250,NA
"AH4MHB0B0PJMU","Tue Jan 28 2020 08:43:08 GMT-0500 (Eastern Standard Time)","Tue Jan 28 2020 08:51:26 GMT-0500 (Eastern Standard Time)","Mozilla/5.0 (Windows NT 6.3; Win64; x64) AppleWebKit/537.36 (KHTML, like Gecko) Chrome/79.0.3945.130 Safari/537.36",160,"[0.9, 0.5, 0.1]","[0.8, 0.4, 0.2]","[u'red', u'blue', u'black']","[u'left', u'middle', u'right']","[0.8, 0.4, 0.2]","[u'medium', u'high', u'low']","blue",50,"middle","high","True","False",242,8350,NA
