"src_subject_id","start_time","end_time","browser","index","first_half_probabilities","second_half_probabilities","deck_color","deck_position","deck_probabilities","deck_contingencies","response_color","key_press","response_position","response_probability","reward_type","trial_type","rt","reward_tally","exclusion_reason"
"AUCHGHY1IKZZK","Tue Jan 28 2020 08:56:49 GMT-0500 (Eastern Standard Time)","Tue Jan 28 2020 09:04:15 GMT-0500 (Eastern Standard Time)","Mozilla/5.0 (X11; U; U; Linux x86_64; en-us) AppleWebKit/537.36 (KHTML, like Gecko) Chrome/69.0.3497.100 Safari/537.36 Puffin/8.2.1.41222AP",1,"[0.9, 0.5, 0.1]","[0.8, 0.4, 0.2]","[u'blue', u'red', u'black']","[u'left', u'middle', u'right']","[0.9, 0.5, 0.1]","[u'low', u'medium', u'high']","black",51,"right","high","True","False",1162,100,NA
"AUCHGHY1IKZZK","Tue Jan 28 2020 08:56:49 GMT-0500 (Eastern Standard Time)","Tue Jan 28 2020 09:04:15 GMT-0500 (Eastern Standard Time)","Mozilla/5.0 (X11; U; U; Linux x86_64; en-us) AppleWebKit/537.36 (KHTML, like Gecko) Chrome/69.0.3497.100 Safari/537.36 Puffin/8.2.1.41222AP",2,"[0.9, 0.5, 0.1]","[0.8, 0.4, 0.2]","[u'blue', u'red', u'black']","[u'left', u'middle', u'right']","[0.9, 0.5, 0.1]","[u'low', u'medium', u'high']","red",50,"middle","medium","True","False",142,200,NA
"AUCHGHY1IKZZK","Tue Jan 28 2020 08:56:49 GMT-0500 (Eastern Standard Time)","Tue Jan 28 2020 09:04:15 GMT-0500 (Eastern Standard Time)","Mozilla/5.0 (X11; U; U; Linux x86_64; en-us) AppleWebKit/537.36 (KHTML, like Gecko) Chrome/69.0.3497.100 Safari/537.36 Puffin/8.2.1.41222AP",3,"[0.9, 0.5, 0.1]","[0.8, 0.4, 0.2]","[u'blue', u'red', u'black']","[u'left', u'middle', u'right']","[0.9, 0.5, 0.1]","[u'low', u'medium', u'high']","blue",49,"left","low","False","False",630,150,NA
"AUCHGHY1IKZZK","Tue Jan 28 2020 08:56:49 GMT-0500 (Eastern Standard Time)","Tue Jan 28 2020 09:04:15 GMT-0500 (Eastern Standard Time)","Mozilla/5.0 (X11; U; U; Linux x86_64; en-us) AppleWebKit/537.36 (KHTML, like Gecko) Chrome/69.0.3497.100 Safari/537.36 Puffin/8.2.1.41222AP",4,"[0.9, 0.5, 0.1]","[0.8, 0.4, 0.2]","[u'blue', u'red', u'black']","[u'left', u'middle', u'right']","[0.9, 0.5, 0.1]","[u'low', u'medium', u'high']","black",51,"right","high","True","False",363,250,NA
"AUCHGHY1IKZZK","Tue Jan 28 2020 08:56:49 GMT-0500 (Eastern Standard Time)","Tue Jan 28 2020 09:04:15 GMT-0500 (Eastern Standard Time)","Mozilla/5.0 (X11; U; U; Linux x86_64; en-us) AppleWebKit/537.36 (KHTML, like Gecko) Chrome/69.0.3497.100 Safari/537.36 Puffin/8.2.1.41222AP",5,"[0.9, 0.5, 0.1]","[0.8, 0.4, 0.2]","[u'blue', u'red', u'black']","[u'left', u'middle', u'right']","[0.9, 0.5, 0.1]","[u'low', u'medium', u'high']","black",51,"right","high","False","False",237,200,NA
"AUCHGHY1IKZZK","Tue Jan 28 2020 08:56:49 GMT-0500 (Eastern Standard Time)","Tue Jan 28 2020 09:04:15 GMT-0500 (Eastern Standard Time)","Mozilla/5.0 (X11; U; U; Linux x86_64; en-us) AppleWebKit/537.36 (KHTML, like Gecko) Chrome/69.0.3497.100 Safari/537.36 Puffin/8.2.1.41222AP",6,"[0.9, 0.5, 0.1]","[0.8, 0.4, 0.2]","[u'blue', u'red', u'black']","[u'left', u'middle', u'right']","[0.9, 0.5, 0.1]","[u'low', u'medium', u'high']","red",50,"middle","medium","False","False",291,150,NA
"AUCHGHY1IKZZK","Tue Jan 28 2020 08:56:49 GMT-0500 (Eastern Standard Time)","Tue Jan 28 2020 09:04:15 GMT-0500 (Eastern Standard Time)","Mozilla/5.0 (X11; U; U; Linux x86_64; en-us) AppleWebKit/537.36 (KHTML, like Gecko) Chrome/69.0.3497.100 Safari/537.36 Puffin/8.2.1.41222AP",7,"[0.9, 0.5, 0.1]","[0.8, 0.4, 0.2]","[u'blue', u'red', u'black']","[u'left', u'middle', u'right']","[0.9, 0.5, 0.1]","[u'low', u'medium', u'high']","blue",49,"left","low","False","False",703,100,NA
"AUCHGHY1IKZZK","Tue Jan 28 2020 08:56:49 GMT-0500 (Eastern Standard Time)","Tue Jan 28 2020 09:04:15 GMT-0500 (Eastern Standard Time)","Mozilla/5.0 (X11; U; U; Linux x86_64; en-us) AppleWebKit/537.36 (KHTML, like Gecko) Chrome/69.0.3497.100 Safari/537.36 Puffin/8.2.1.41222AP",8,"[0.9, 0.5, 0.1]","[0.8, 0.4, 0.2]","[u'blue', u'red', u'black']","[u'left', u'middle', u'right']","[0.9, 0.5, 0.1]","[u'low', u'medium', u'high']","black",51,"right","high","True","False",109,200,NA
"AUCHGHY1IKZZK","Tue Jan 28 2020 08:56:49 GMT-0500 (Eastern Standard Time)","Tue Jan 28 2020 09:04:15 GMT-0500 (Eastern Standard Time)","Mozilla/5.0 (X11; U; U; Linux x86_64; en-us) AppleWebKit/537.36 (KHTML, like Gecko) Chrome/69.0.3497.100 Safari/537.36 Puffin/8.2.1.41222AP",9,"[0.9, 0.5, 0.1]","[0.8, 0.4, 0.2]","[u'blue', u'red', u'black']","[u'left', u'middle', u'right']","[0.9, 0.5, 0.1]","[u'low', u'medium', u'high']","black",51,"right","high","True","False",433,300,NA
"AUCHGHY1IKZZK","Tue Jan 28 2020 08:56:49 GMT-0500 (Eastern Standard Time)","Tue Jan 28 2020 09:04:15 GMT-0500 (Eastern Standard Time)","Mozilla/5.0 (X11; U; U; Linux x86_64; en-us) AppleWebKit/537.36 (KHTML, like Gecko) Chrome/69.0.3497.100 Safari/537.36 Puffin/8.2.1.41222AP",10,"[0.9, 0.5, 0.1]","[0.8, 0.4, 0.2]","[u'blue', u'red', u'black']","[u'left', u'middle', u'right']","[0.9, 0.5, 0.1]","[u'low', u'medium', u'high']","black",51,"right","high","True","False",418,400,NA
"AUCHGHY1IKZZK","Tue Jan 28 2020 08:56:49 GMT-0500 (Eastern Standard Time)","Tue Jan 28 2020 09:04:15 GMT-0500 (Eastern Standard Time)","Mozilla/5.0 (X11; U; U; Linux x86_64; en-us) AppleWebKit/537.36 (KHTML, like Gecko) Chrome/69.0.3497.100 Safari/537.36 Puffin/8.2.1.41222AP",11,"[0.9, 0.5, 0.1]","[0.8, 0.4, 0.2]","[u'blue', u'red', u'black']","[u'left', u'middle', u'right']","[0.9, 0.5, 0.1]","[u'low', u'medium', u'high']","black",51,"right","high","True","False",620,500,NA
"AUCHGHY1IKZZK","Tue Jan 28 2020 08:56:49 GMT-0500 (Eastern Standard Time)","Tue Jan 28 2020 09:04:15 GMT-0500 (Eastern Standard Time)","Mozilla/5.0 (X11; U; U; Linux x86_64; en-us) AppleWebKit/537.36 (KHTML, like Gecko) Chrome/69.0.3497.100 Safari/537.36 Puffin/8.2.1.41222AP",12,"[0.9, 0.5, 0.1]","[0.8, 0.4, 0.2]","[u'blue', u'red', u'black']","[u'left', u'middle', u'right']","[0.9, 0.5, 0.1]","[u'low', u'medium', u'high']","black",51,"right","high","True","False",855,600,NA
"AUCHGHY1IKZZK","Tue Jan 28 2020 08:56:49 GMT-0500 (Eastern Standard Time)","Tue Jan 28 2020 09:04:15 GMT-0500 (Eastern Standard Time)","Mozilla/5.0 (X11; U; U; Linux x86_64; en-us) AppleWebKit/537.36 (KHTML, like Gecko) Chrome/69.0.3497.100 Safari/537.36 Puffin/8.2.1.41222AP",13,"[0.9, 0.5, 0.1]","[0.8, 0.4, 0.2]","[u'blue', u'red', u'black']","[u'left', u'middle', u'right']","[0.9, 0.5, 0.1]","[u'low', u'medium', u'high']","black",51,"right","high","False","False",238,550,NA
"AUCHGHY1IKZZK","Tue Jan 28 2020 08:56:49 GMT-0500 (Eastern Standard Time)","Tue Jan 28 2020 09:04:15 GMT-0500 (Eastern Standard Time)","Mozilla/5.0 (X11; U; U; Linux x86_64; en-us) AppleWebKit/537.36 (KHTML, like Gecko) Chrome/69.0.3497.100 Safari/537.36 Puffin/8.2.1.41222AP",14,"[0.9, 0.5, 0.1]","[0.8, 0.4, 0.2]","[u'blue', u'red', u'black']","[u'left', u'middle', u'right']","[0.9, 0.5, 0.1]","[u'low', u'medium', u'high']","red",50,"middle","medium","True","False",311,650,NA
"AUCHGHY1IKZZK","Tue Jan 28 2020 08:56:49 GMT-0500 (Eastern Standard Time)","Tue Jan 28 2020 09:04:15 GMT-0500 (Eastern Standard Time)","Mozilla/5.0 (X11; U; U; Linux x86_64; en-us) AppleWebKit/537.36 (KHTML, like Gecko) Chrome/69.0.3497.100 Safari/537.36 Puffin/8.2.1.41222AP",15,"[0.9, 0.5, 0.1]","[0.8, 0.4, 0.2]","[u'blue', u'red', u'black']","[u'left', u'middle', u'right']","[0.9, 0.5, 0.1]","[u'low', u'medium', u'high']","red",50,"middle","medium","False","False",100,600,NA
"AUCHGHY1IKZZK","Tue Jan 28 2020 08:56:49 GMT-0500 (Eastern Standard Time)","Tue Jan 28 2020 09:04:15 GMT-0500 (Eastern Standard Time)","Mozilla/5.0 (X11; U; U; Linux x86_64; en-us) AppleWebKit/537.36 (KHTML, like Gecko) Chrome/69.0.3497.100 Safari/537.36 Puffin/8.2.1.41222AP",16,"[0.9, 0.5, 0.1]","[0.8, 0.4, 0.2]","[u'blue', u'red', u'black']","[u'left', u'middle', u'right']","[0.9, 0.5, 0.1]","[u'low', u'medium', u'high']","blue",49,"left","low","False","False",705,550,NA
"AUCHGHY1IKZZK","Tue Jan 28 2020 08:56:49 GMT-0500 (Eastern Standard Time)","Tue Jan 28 2020 09:04:15 GMT-0500 (Eastern Standard Time)","Mozilla/5.0 (X11; U; U; Linux x86_64; en-us) AppleWebKit/537.36 (KHTML, like Gecko) Chrome/69.0.3497.100 Safari/537.36 Puffin/8.2.1.41222AP",17,"[0.9, 0.5, 0.1]","[0.8, 0.4, 0.2]","[u'blue', u'red', u'black']","[u'left', u'middle', u'right']","[0.9, 0.5, 0.1]","[u'low', u'medium', u'high']","black",51,"right","high","True","False",30,650,NA
"AUCHGHY1IKZZK","Tue Jan 28 2020 08:56:49 GMT-0500 (Eastern Standard Time)","Tue Jan 28 2020 09:04:15 GMT-0500 (Eastern Standard Time)","Mozilla/5.0 (X11; U; U; Linux x86_64; en-us) AppleWebKit/537.36 (KHTML, like Gecko) Chrome/69.0.3497.100 Safari/537.36 Puffin/8.2.1.41222AP",18,"[0.9, 0.5, 0.1]","[0.8, 0.4, 0.2]","[u'blue', u'red', u'black']","[u'left', u'middle', u'right']","[0.9, 0.5, 0.1]","[u'low', u'medium', u'high']","black",51,"right","high","True","False",402,750,NA
"AUCHGHY1IKZZK","Tue Jan 28 2020 08:56:49 GMT-0500 (Eastern Standard Time)","Tue Jan 28 2020 09:04:15 GMT-0500 (Eastern Standard Time)","Mozilla/5.0 (X11; U; U; Linux x86_64; en-us) AppleWebKit/537.36 (KHTML, like Gecko) Chrome/69.0.3497.100 Safari/537.36 Puffin/8.2.1.41222AP",19,"[0.9, 0.5, 0.1]","[0.8, 0.4, 0.2]","[u'blue', u'red', u'black']","[u'left', u'middle', u'right']","[0.9, 0.5, 0.1]","[u'low', u'medium', u'high']","black",51,"right","high","True","False",215,850,NA
"AUCHGHY1IKZZK","Tue Jan 28 2020 08:56:49 GMT-0500 (Eastern Standard Time)","Tue Jan 28 2020 09:04:15 GMT-0500 (Eastern Standard Time)","Mozilla/5.0 (X11; U; U; Linux x86_64; en-us) AppleWebKit/537.36 (KHTML, like Gecko) Chrome/69.0.3497.100 Safari/537.36 Puffin/8.2.1.41222AP",20,"[0.9, 0.5, 0.1]","[0.8, 0.4, 0.2]","[u'blue', u'red', u'black']","[u'left', u'middle', u'right']","[0.9, 0.5, 0.1]","[u'low', u'medium', u'high']","black",51,"right","high","True","False",1193,950,NA
"AUCHGHY1IKZZK","Tue Jan 28 2020 08:56:49 GMT-0500 (Eastern Standard Time)","Tue Jan 28 2020 09:04:15 GMT-0500 (Eastern Standard Time)","Mozilla/5.0 (X11; U; U; Linux x86_64; en-us) AppleWebKit/537.36 (KHTML, like Gecko) Chrome/69.0.3497.100 Safari/537.36 Puffin/8.2.1.41222AP",21,"[0.9, 0.5, 0.1]","[0.8, 0.4, 0.2]","[u'blue', u'red', u'black']","[u'left', u'middle', u'right']","[0.9, 0.5, 0.1]","[u'low', u'medium', u'high']","black",51,"right","high","True","False",415,1050,NA
"AUCHGHY1IKZZK","Tue Jan 28 2020 08:56:49 GMT-0500 (Eastern Standard Time)","Tue Jan 28 2020 09:04:15 GMT-0500 (Eastern Standard Time)","Mozilla/5.0 (X11; U; U; Linux x86_64; en-us) AppleWebKit/537.36 (KHTML, like Gecko) Chrome/69.0.3497.100 Safari/537.36 Puffin/8.2.1.41222AP",22,"[0.9, 0.5, 0.1]","[0.8, 0.4, 0.2]","[u'blue', u'red', u'black']","[u'left', u'middle', u'right']","[0.9, 0.5, 0.1]","[u'low', u'medium', u'high']","black",51,"right","high","True","False",502,1150,NA
"AUCHGHY1IKZZK","Tue Jan 28 2020 08:56:49 GMT-0500 (Eastern Standard Time)","Tue Jan 28 2020 09:04:15 GMT-0500 (Eastern Standard Time)","Mozilla/5.0 (X11; U; U; Linux x86_64; en-us) AppleWebKit/537.36 (KHTML, like Gecko) Chrome/69.0.3497.100 Safari/537.36 Puffin/8.2.1.41222AP",23,"[0.9, 0.5, 0.1]","[0.8, 0.4, 0.2]","[u'blue', u'red', u'black']","[u'left', u'middle', u'right']","[0.9, 0.5, 0.1]","[u'low', u'medium', u'high']","black",51,"right","high","True","False",193,1250,NA
"AUCHGHY1IKZZK","Tue Jan 28 2020 08:56:49 GMT-0500 (Eastern Standard Time)","Tue Jan 28 2020 09:04:15 GMT-0500 (Eastern Standard Time)","Mozilla/5.0 (X11; U; U; Linux x86_64; en-us) AppleWebKit/537.36 (KHTML, like Gecko) Chrome/69.0.3497.100 Safari/537.36 Puffin/8.2.1.41222AP",24,"[0.9, 0.5, 0.1]","[0.8, 0.4, 0.2]","[u'blue', u'red', u'black']","[u'left', u'middle', u'right']","[0.9, 0.5, 0.1]","[u'low', u'medium', u'high']","black",51,"right","high","False","False",288,1200,NA
"AUCHGHY1IKZZK","Tue Jan 28 2020 08:56:49 GMT-0500 (Eastern Standard Time)","Tue Jan 28 2020 09:04:15 GMT-0500 (Eastern Standard Time)","Mozilla/5.0 (X11; U; U; Linux x86_64; en-us) AppleWebKit/537.36 (KHTML, like Gecko) Chrome/69.0.3497.100 Safari/537.36 Puffin/8.2.1.41222AP",25,"[0.9, 0.5, 0.1]","[0.8, 0.4, 0.2]","[u'blue', u'red', u'black']","[u'left', u'middle', u'right']","[0.9, 0.5, 0.1]","[u'low', u'medium', u'high']","black",51,"right","high","True","True",188,1300,NA
"AUCHGHY1IKZZK","Tue Jan 28 2020 08:56:49 GMT-0500 (Eastern Standard Time)","Tue Jan 28 2020 09:04:15 GMT-0500 (Eastern Standard Time)","Mozilla/5.0 (X11; U; U; Linux x86_64; en-us) AppleWebKit/537.36 (KHTML, like Gecko) Chrome/69.0.3497.100 Safari/537.36 Puffin/8.2.1.41222AP",26,"[0.9, 0.5, 0.1]","[0.8, 0.4, 0.2]","[u'blue', u'red', u'black']","[u'left', u'middle', u'right']","[0.9, 0.5, 0.1]","[u'low', u'high', u'medium']","black",51,"right","medium","False","False",669,1250,NA
"AUCHGHY1IKZZK","Tue Jan 28 2020 08:56:49 GMT-0500 (Eastern Standard Time)","Tue Jan 28 2020 09:04:15 GMT-0500 (Eastern Standard Time)","Mozilla/5.0 (X11; U; U; Linux x86_64; en-us) AppleWebKit/537.36 (KHTML, like Gecko) Chrome/69.0.3497.100 Safari/537.36 Puffin/8.2.1.41222AP",27,"[0.9, 0.5, 0.1]","[0.8, 0.4, 0.2]","[u'blue', u'red', u'black']","[u'left', u'middle', u'right']","[0.9, 0.5, 0.1]","[u'low', u'high', u'medium']","red",50,"middle","high","True","False",639,1350,NA
"AUCHGHY1IKZZK","Tue Jan 28 2020 08:56:49 GMT-0500 (Eastern Standard Time)","Tue Jan 28 2020 09:04:15 GMT-0500 (Eastern Standard Time)","Mozilla/5.0 (X11; U; U; Linux x86_64; en-us) AppleWebKit/537.36 (KHTML, like Gecko) Chrome/69.0.3497.100 Safari/537.36 Puffin/8.2.1.41222AP",28,"[0.9, 0.5, 0.1]","[0.8, 0.4, 0.2]","[u'blue', u'red', u'black']","[u'left', u'middle', u'right']","[0.9, 0.5, 0.1]","[u'low', u'high', u'medium']","black",51,"right","medium","True","False",475,1450,NA
"AUCHGHY1IKZZK","Tue Jan 28 2020 08:56:49 GMT-0500 (Eastern Standard Time)","Tue Jan 28 2020 09:04:15 GMT-0500 (Eastern Standard Time)","Mozilla/5.0 (X11; U; U; Linux x86_64; en-us) AppleWebKit/537.36 (KHTML, like Gecko) Chrome/69.0.3497.100 Safari/537.36 Puffin/8.2.1.41222AP",29,"[0.9, 0.5, 0.1]","[0.8, 0.4, 0.2]","[u'blue', u'red', u'black']","[u'left', u'middle', u'right']","[0.9, 0.5, 0.1]","[u'low', u'high', u'medium']","black",51,"right","medium","False","False",305,1400,NA
"AUCHGHY1IKZZK","Tue Jan 28 2020 08:56:49 GMT-0500 (Eastern Standard Time)","Tue Jan 28 2020 09:04:15 GMT-0500 (Eastern Standard Time)","Mozilla/5.0 (X11; U; U; Linux x86_64; en-us) AppleWebKit/537.36 (KHTML, like Gecko) Chrome/69.0.3497.100 Safari/537.36 Puffin/8.2.1.41222AP",30,"[0.9, 0.5, 0.1]","[0.8, 0.4, 0.2]","[u'blue', u'red', u'black']","[u'left', u'middle', u'right']","[0.9, 0.5, 0.1]","[u'low', u'high', u'medium']","red",50,"middle","high","True","False",288,1500,NA
"AUCHGHY1IKZZK","Tue Jan 28 2020 08:56:49 GMT-0500 (Eastern Standard Time)","Tue Jan 28 2020 09:04:15 GMT-0500 (Eastern Standard Time)","Mozilla/5.0 (X11; U; U; Linux x86_64; en-us) AppleWebKit/537.36 (KHTML, like Gecko) Chrome/69.0.3497.100 Safari/537.36 Puffin/8.2.1.41222AP",31,"[0.9, 0.5, 0.1]","[0.8, 0.4, 0.2]","[u'blue', u'red', u'black']","[u'left', u'middle', u'right']","[0.9, 0.5, 0.1]","[u'low', u'high', u'medium']","black",51,"right","medium","False","False",585,1450,NA
"AUCHGHY1IKZZK","Tue Jan 28 2020 08:56:49 GMT-0500 (Eastern Standard Time)","Tue Jan 28 2020 09:04:15 GMT-0500 (Eastern Standard Time)","Mozilla/5.0 (X11; U; U; Linux x86_64; en-us) AppleWebKit/537.36 (KHTML, like Gecko) Chrome/69.0.3497.100 Safari/537.36 Puffin/8.2.1.41222AP",32,"[0.9, 0.5, 0.1]","[0.8, 0.4, 0.2]","[u'blue', u'red', u'black']","[u'left', u'middle', u'right']","[0.9, 0.5, 0.1]","[u'low', u'high', u'medium']","red",50,"middle","high","False","False",570,1400,NA
"AUCHGHY1IKZZK","Tue Jan 28 2020 08:56:49 GMT-0500 (Eastern Standard Time)","Tue Jan 28 2020 09:04:15 GMT-0500 (Eastern Standard Time)","Mozilla/5.0 (X11; U; U; Linux x86_64; en-us) AppleWebKit/537.36 (KHTML, like Gecko) Chrome/69.0.3497.100 Safari/537.36 Puffin/8.2.1.41222AP",33,"[0.9, 0.5, 0.1]","[0.8, 0.4, 0.2]","[u'blue', u'red', u'black']","[u'left', u'middle', u'right']","[0.9, 0.5, 0.1]","[u'low', u'high', u'medium']","blue",49,"left","low","False","False",999,1350,NA
"AUCHGHY1IKZZK","Tue Jan 28 2020 08:56:49 GMT-0500 (Eastern Standard Time)","Tue Jan 28 2020 09:04:15 GMT-0500 (Eastern Standard Time)","Mozilla/5.0 (X11; U; U; Linux x86_64; en-us) AppleWebKit/537.36 (KHTML, like Gecko) Chrome/69.0.3497.100 Safari/537.36 Puffin/8.2.1.41222AP",34,"[0.9, 0.5, 0.1]","[0.8, 0.4, 0.2]","[u'blue', u'red', u'black']","[u'left', u'middle', u'right']","[0.9, 0.5, 0.1]","[u'low', u'high', u'medium']","black",51,"right","medium","True","False",355,1450,NA
"AUCHGHY1IKZZK","Tue Jan 28 2020 08:56:49 GMT-0500 (Eastern Standard Time)","Tue Jan 28 2020 09:04:15 GMT-0500 (Eastern Standard Time)","Mozilla/5.0 (X11; U; U; Linux x86_64; en-us) AppleWebKit/537.36 (KHTML, like Gecko) Chrome/69.0.3497.100 Safari/537.36 Puffin/8.2.1.41222AP",35,"[0.9, 0.5, 0.1]","[0.8, 0.4, 0.2]","[u'blue', u'red', u'black']","[u'left', u'middle', u'right']","[0.9, 0.5, 0.1]","[u'low', u'high', u'medium']","black",51,"right","medium","True","False",2224,1550,NA
"AUCHGHY1IKZZK","Tue Jan 28 2020 08:56:49 GMT-0500 (Eastern Standard Time)","Tue Jan 28 2020 09:04:15 GMT-0500 (Eastern Standard Time)","Mozilla/5.0 (X11; U; U; Linux x86_64; en-us) AppleWebKit/537.36 (KHTML, like Gecko) Chrome/69.0.3497.100 Safari/537.36 Puffin/8.2.1.41222AP",36,"[0.9, 0.5, 0.1]","[0.8, 0.4, 0.2]","[u'blue', u'red', u'black']","[u'left', u'middle', u'right']","[0.9, 0.5, 0.1]","[u'low', u'high', u'medium']","black",51,"right","medium","False","False",620,1500,NA
"AUCHGHY1IKZZK","Tue Jan 28 2020 08:56:49 GMT-0500 (Eastern Standard Time)","Tue Jan 28 2020 09:04:15 GMT-0500 (Eastern Standard Time)","Mozilla/5.0 (X11; U; U; Linux x86_64; en-us) AppleWebKit/537.36 (KHTML, like Gecko) Chrome/69.0.3497.100 Safari/537.36 Puffin/8.2.1.41222AP",37,"[0.9, 0.5, 0.1]","[0.8, 0.4, 0.2]","[u'blue', u'red', u'black']","[u'left', u'middle', u'right']","[0.9, 0.5, 0.1]","[u'low', u'high', u'medium']","black",51,"right","medium","True","False",475,1600,NA
"AUCHGHY1IKZZK","Tue Jan 28 2020 08:56:49 GMT-0500 (Eastern Standard Time)","Tue Jan 28 2020 09:04:15 GMT-0500 (Eastern Standard Time)","Mozilla/5.0 (X11; U; U; Linux x86_64; en-us) AppleWebKit/537.36 (KHTML, like Gecko) Chrome/69.0.3497.100 Safari/537.36 Puffin/8.2.1.41222AP",38,"[0.9, 0.5, 0.1]","[0.8, 0.4, 0.2]","[u'blue', u'red', u'black']","[u'left', u'middle', u'right']","[0.9, 0.5, 0.1]","[u'low', u'high', u'medium']","red",50,"middle","high","True","False",877,1700,NA
"AUCHGHY1IKZZK","Tue Jan 28 2020 08:56:49 GMT-0500 (Eastern Standard Time)","Tue Jan 28 2020 09:04:15 GMT-0500 (Eastern Standard Time)","Mozilla/5.0 (X11; U; U; Linux x86_64; en-us) AppleWebKit/537.36 (KHTML, like Gecko) Chrome/69.0.3497.100 Safari/537.36 Puffin/8.2.1.41222AP",39,"[0.9, 0.5, 0.1]","[0.8, 0.4, 0.2]","[u'blue', u'red', u'black']","[u'left', u'middle', u'right']","[0.9, 0.5, 0.1]","[u'low', u'high', u'medium']","red",50,"middle","high","True","False",556,1800,NA
"AUCHGHY1IKZZK","Tue Jan 28 2020 08:56:49 GMT-0500 (Eastern Standard Time)","Tue Jan 28 2020 09:04:15 GMT-0500 (Eastern Standard Time)","Mozilla/5.0 (X11; U; U; Linux x86_64; en-us) AppleWebKit/537.36 (KHTML, like Gecko) Chrome/69.0.3497.100 Safari/537.36 Puffin/8.2.1.41222AP",40,"[0.9, 0.5, 0.1]","[0.8, 0.4, 0.2]","[u'blue', u'red', u'black']","[u'left', u'middle', u'right']","[0.9, 0.5, 0.1]","[u'low', u'high', u'medium']","black",51,"right","medium","True","False",2148,1900,NA
"AUCHGHY1IKZZK","Tue Jan 28 2020 08:56:49 GMT-0500 (Eastern Standard Time)","Tue Jan 28 2020 09:04:15 GMT-0500 (Eastern Standard Time)","Mozilla/5.0 (X11; U; U; Linux x86_64; en-us) AppleWebKit/537.36 (KHTML, like Gecko) Chrome/69.0.3497.100 Safari/537.36 Puffin/8.2.1.41222AP",41,"[0.9, 0.5, 0.1]","[0.8, 0.4, 0.2]","[u'blue', u'red', u'black']","[u'left', u'middle', u'right']","[0.9, 0.5, 0.1]","[u'high', u'medium', u'low']","black",51,"right","low","False","False",1699,1850,NA
"AUCHGHY1IKZZK","Tue Jan 28 2020 08:56:49 GMT-0500 (Eastern Standard Time)","Tue Jan 28 2020 09:04:15 GMT-0500 (Eastern Standard Time)","Mozilla/5.0 (X11; U; U; Linux x86_64; en-us) AppleWebKit/537.36 (KHTML, like Gecko) Chrome/69.0.3497.100 Safari/537.36 Puffin/8.2.1.41222AP",42,"[0.9, 0.5, 0.1]","[0.8, 0.4, 0.2]","[u'blue', u'red', u'black']","[u'left', u'middle', u'right']","[0.9, 0.5, 0.1]","[u'high', u'medium', u'low']","blue",49,"left","high","True","False",388,1950,NA
"AUCHGHY1IKZZK","Tue Jan 28 2020 08:56:49 GMT-0500 (Eastern Standard Time)","Tue Jan 28 2020 09:04:15 GMT-0500 (Eastern Standard Time)","Mozilla/5.0 (X11; U; U; Linux x86_64; en-us) AppleWebKit/537.36 (KHTML, like Gecko) Chrome/69.0.3497.100 Safari/537.36 Puffin/8.2.1.41222AP",43,"[0.9, 0.5, 0.1]","[0.8, 0.4, 0.2]","[u'blue', u'red', u'black']","[u'left', u'middle', u'right']","[0.9, 0.5, 0.1]","[u'high', u'medium', u'low']","blue",49,"left","high","True","False",326,2050,NA
"AUCHGHY1IKZZK","Tue Jan 28 2020 08:56:49 GMT-0500 (Eastern Standard Time)","Tue Jan 28 2020 09:04:15 GMT-0500 (Eastern Standard Time)","Mozilla/5.0 (X11; U; U; Linux x86_64; en-us) AppleWebKit/537.36 (KHTML, like Gecko) Chrome/69.0.3497.100 Safari/537.36 Puffin/8.2.1.41222AP",44,"[0.9, 0.5, 0.1]","[0.8, 0.4, 0.2]","[u'blue', u'red', u'black']","[u'left', u'middle', u'right']","[0.9, 0.5, 0.1]","[u'high', u'medium', u'low']","blue",49,"left","high","True","False",597,2150,NA
"AUCHGHY1IKZZK","Tue Jan 28 2020 08:56:49 GMT-0500 (Eastern Standard Time)","Tue Jan 28 2020 09:04:15 GMT-0500 (Eastern Standard Time)","Mozilla/5.0 (X11; U; U; Linux x86_64; en-us) AppleWebKit/537.36 (KHTML, like Gecko) Chrome/69.0.3497.100 Safari/537.36 Puffin/8.2.1.41222AP",45,"[0.9, 0.5, 0.1]","[0.8, 0.4, 0.2]","[u'blue', u'red', u'black']","[u'left', u'middle', u'right']","[0.9, 0.5, 0.1]","[u'high', u'medium', u'low']","blue",49,"left","high","False","False",392,2100,NA
"AUCHGHY1IKZZK","Tue Jan 28 2020 08:56:49 GMT-0500 (Eastern Standard Time)","Tue Jan 28 2020 09:04:15 GMT-0500 (Eastern Standard Time)","Mozilla/5.0 (X11; U; U; Linux x86_64; en-us) AppleWebKit/537.36 (KHTML, like Gecko) Chrome/69.0.3497.100 Safari/537.36 Puffin/8.2.1.41222AP",46,"[0.9, 0.5, 0.1]","[0.8, 0.4, 0.2]","[u'blue', u'red', u'black']","[u'left', u'middle', u'right']","[0.9, 0.5, 0.1]","[u'high', u'medium', u'low']","black",51,"right","low","False","False",401,2050,NA
"AUCHGHY1IKZZK","Tue Jan 28 2020 08:56:49 GMT-0500 (Eastern Standard Time)","Tue Jan 28 2020 09:04:15 GMT-0500 (Eastern Standard Time)","Mozilla/5.0 (X11; U; U; Linux x86_64; en-us) AppleWebKit/537.36 (KHTML, like Gecko) Chrome/69.0.3497.100 Safari/537.36 Puffin/8.2.1.41222AP",47,"[0.9, 0.5, 0.1]","[0.8, 0.4, 0.2]","[u'blue', u'red', u'black']","[u'left', u'middle', u'right']","[0.9, 0.5, 0.1]","[u'high', u'medium', u'low']","black",51,"right","low","False","False",747,2000,NA
"AUCHGHY1IKZZK","Tue Jan 28 2020 08:56:49 GMT-0500 (Eastern Standard Time)","Tue Jan 28 2020 09:04:15 GMT-0500 (Eastern Standard Time)","Mozilla/5.0 (X11; U; U; Linux x86_64; en-us) AppleWebKit/537.36 (KHTML, like Gecko) Chrome/69.0.3497.100 Safari/537.36 Puffin/8.2.1.41222AP",48,"[0.9, 0.5, 0.1]","[0.8, 0.4, 0.2]","[u'blue', u'red', u'black']","[u'left', u'middle', u'right']","[0.9, 0.5, 0.1]","[u'high', u'medium', u'low']","red",50,"middle","medium","True","False",345,2100,NA
"AUCHGHY1IKZZK","Tue Jan 28 2020 08:56:49 GMT-0500 (Eastern Standard Time)","Tue Jan 28 2020 09:04:15 GMT-0500 (Eastern Standard Time)","Mozilla/5.0 (X11; U; U; Linux x86_64; en-us) AppleWebKit/537.36 (KHTML, like Gecko) Chrome/69.0.3497.100 Safari/537.36 Puffin/8.2.1.41222AP",49,"[0.9, 0.5, 0.1]","[0.8, 0.4, 0.2]","[u'blue', u'red', u'black']","[u'left', u'middle', u'right']","[0.9, 0.5, 0.1]","[u'high', u'medium', u'low']","red",50,"middle","medium","False","False",636,2050,NA
"AUCHGHY1IKZZK","Tue Jan 28 2020 08:56:49 GMT-0500 (Eastern Standard Time)","Tue Jan 28 2020 09:04:15 GMT-0500 (Eastern Standard Time)","Mozilla/5.0 (X11; U; U; Linux x86_64; en-us) AppleWebKit/537.36 (KHTML, like Gecko) Chrome/69.0.3497.100 Safari/537.36 Puffin/8.2.1.41222AP",50,"[0.9, 0.5, 0.1]","[0.8, 0.4, 0.2]","[u'blue', u'red', u'black']","[u'left', u'middle', u'right']","[0.9, 0.5, 0.1]","[u'high', u'medium', u'low']","black",51,"right","low","False","False",619,2000,NA
"AUCHGHY1IKZZK","Tue Jan 28 2020 08:56:49 GMT-0500 (Eastern Standard Time)","Tue Jan 28 2020 09:04:15 GMT-0500 (Eastern Standard Time)","Mozilla/5.0 (X11; U; U; Linux x86_64; en-us) AppleWebKit/537.36 (KHTML, like Gecko) Chrome/69.0.3497.100 Safari/537.36 Puffin/8.2.1.41222AP",51,"[0.9, 0.5, 0.1]","[0.8, 0.4, 0.2]","[u'blue', u'red', u'black']","[u'left', u'middle', u'right']","[0.9, 0.5, 0.1]","[u'high', u'medium', u'low']","blue",49,"left","high","True","False",228,2100,NA
"AUCHGHY1IKZZK","Tue Jan 28 2020 08:56:49 GMT-0500 (Eastern Standard Time)","Tue Jan 28 2020 09:04:15 GMT-0500 (Eastern Standard Time)","Mozilla/5.0 (X11; U; U; Linux x86_64; en-us) AppleWebKit/537.36 (KHTML, like Gecko) Chrome/69.0.3497.100 Safari/537.36 Puffin/8.2.1.41222AP",52,"[0.9, 0.5, 0.1]","[0.8, 0.4, 0.2]","[u'blue', u'red', u'black']","[u'left', u'middle', u'right']","[0.9, 0.5, 0.1]","[u'high', u'medium', u'low']","blue",49,"left","high","True","False",308,2200,NA
"AUCHGHY1IKZZK","Tue Jan 28 2020 08:56:49 GMT-0500 (Eastern Standard Time)","Tue Jan 28 2020 09:04:15 GMT-0500 (Eastern Standard Time)","Mozilla/5.0 (X11; U; U; Linux x86_64; en-us) AppleWebKit/537.36 (KHTML, like Gecko) Chrome/69.0.3497.100 Safari/537.36 Puffin/8.2.1.41222AP",53,"[0.9, 0.5, 0.1]","[0.8, 0.4, 0.2]","[u'blue', u'red', u'black']","[u'left', u'middle', u'right']","[0.9, 0.5, 0.1]","[u'high', u'medium', u'low']","blue",49,"left","high","True","False",626,2300,NA
"AUCHGHY1IKZZK","Tue Jan 28 2020 08:56:49 GMT-0500 (Eastern Standard Time)","Tue Jan 28 2020 09:04:15 GMT-0500 (Eastern Standard Time)","Mozilla/5.0 (X11; U; U; Linux x86_64; en-us) AppleWebKit/537.36 (KHTML, like Gecko) Chrome/69.0.3497.100 Safari/537.36 Puffin/8.2.1.41222AP",54,"[0.9, 0.5, 0.1]","[0.8, 0.4, 0.2]","[u'blue', u'red', u'black']","[u'left', u'middle', u'right']","[0.9, 0.5, 0.1]","[u'high', u'medium', u'low']","blue",49,"left","high","True","False",490,2400,NA
"AUCHGHY1IKZZK","Tue Jan 28 2020 08:56:49 GMT-0500 (Eastern Standard Time)","Tue Jan 28 2020 09:04:15 GMT-0500 (Eastern Standard Time)","Mozilla/5.0 (X11; U; U; Linux x86_64; en-us) AppleWebKit/537.36 (KHTML, like Gecko) Chrome/69.0.3497.100 Safari/537.36 Puffin/8.2.1.41222AP",55,"[0.9, 0.5, 0.1]","[0.8, 0.4, 0.2]","[u'blue', u'red', u'black']","[u'left', u'middle', u'right']","[0.9, 0.5, 0.1]","[u'high', u'medium', u'low']","blue",49,"left","high","True","False",425,2500,NA
"AUCHGHY1IKZZK","Tue Jan 28 2020 08:56:49 GMT-0500 (Eastern Standard Time)","Tue Jan 28 2020 09:04:15 GMT-0500 (Eastern Standard Time)","Mozilla/5.0 (X11; U; U; Linux x86_64; en-us) AppleWebKit/537.36 (KHTML, like Gecko) Chrome/69.0.3497.100 Safari/537.36 Puffin/8.2.1.41222AP",56,"[0.9, 0.5, 0.1]","[0.8, 0.4, 0.2]","[u'blue', u'red', u'black']","[u'left', u'middle', u'right']","[0.9, 0.5, 0.1]","[u'high', u'medium', u'low']","blue",49,"left","high","True","False",3623,2600,NA
"AUCHGHY1IKZZK","Tue Jan 28 2020 08:56:49 GMT-0500 (Eastern Standard Time)","Tue Jan 28 2020 09:04:15 GMT-0500 (Eastern Standard Time)","Mozilla/5.0 (X11; U; U; Linux x86_64; en-us) AppleWebKit/537.36 (KHTML, like Gecko) Chrome/69.0.3497.100 Safari/537.36 Puffin/8.2.1.41222AP",57,"[0.9, 0.5, 0.1]","[0.8, 0.4, 0.2]","[u'blue', u'red', u'black']","[u'left', u'middle', u'right']","[0.9, 0.5, 0.1]","[u'high', u'medium', u'low']","blue",49,"left","high","True","False",859,2700,NA
"AUCHGHY1IKZZK","Tue Jan 28 2020 08:56:49 GMT-0500 (Eastern Standard Time)","Tue Jan 28 2020 09:04:15 GMT-0500 (Eastern Standard Time)","Mozilla/5.0 (X11; U; U; Linux x86_64; en-us) AppleWebKit/537.36 (KHTML, like Gecko) Chrome/69.0.3497.100 Safari/537.36 Puffin/8.2.1.41222AP",58,"[0.9, 0.5, 0.1]","[0.8, 0.4, 0.2]","[u'blue', u'red', u'black']","[u'left', u'middle', u'right']","[0.9, 0.5, 0.1]","[u'high', u'medium', u'low']","blue",49,"left","high","True","False",991,2800,NA
"AUCHGHY1IKZZK","Tue Jan 28 2020 08:56:49 GMT-0500 (Eastern Standard Time)","Tue Jan 28 2020 09:04:15 GMT-0500 (Eastern Standard Time)","Mozilla/5.0 (X11; U; U; Linux x86_64; en-us) AppleWebKit/537.36 (KHTML, like Gecko) Chrome/69.0.3497.100 Safari/537.36 Puffin/8.2.1.41222AP",59,"[0.9, 0.5, 0.1]","[0.8, 0.4, 0.2]","[u'blue', u'red', u'black']","[u'left', u'middle', u'right']","[0.9, 0.5, 0.1]","[u'high', u'medium', u'low']","blue",49,"left","high","True","True",879,2900,NA
"AUCHGHY1IKZZK","Tue Jan 28 2020 08:56:49 GMT-0500 (Eastern Standard Time)","Tue Jan 28 2020 09:04:15 GMT-0500 (Eastern Standard Time)","Mozilla/5.0 (X11; U; U; Linux x86_64; en-us) AppleWebKit/537.36 (KHTML, like Gecko) Chrome/69.0.3497.100 Safari/537.36 Puffin/8.2.1.41222AP",60,"[0.9, 0.5, 0.1]","[0.8, 0.4, 0.2]","[u'blue', u'red', u'black']","[u'left', u'middle', u'right']","[0.9, 0.5, 0.1]","[u'low', u'high', u'medium']","blue",49,"left","low","False","False",458,2850,NA
"AUCHGHY1IKZZK","Tue Jan 28 2020 08:56:49 GMT-0500 (Eastern Standard Time)","Tue Jan 28 2020 09:04:15 GMT-0500 (Eastern Standard Time)","Mozilla/5.0 (X11; U; U; Linux x86_64; en-us) AppleWebKit/537.36 (KHTML, like Gecko) Chrome/69.0.3497.100 Safari/537.36 Puffin/8.2.1.41222AP",61,"[0.9, 0.5, 0.1]","[0.8, 0.4, 0.2]","[u'blue', u'red', u'black']","[u'left', u'middle', u'right']","[0.9, 0.5, 0.1]","[u'low', u'high', u'medium']","blue",49,"left","low","False","False",748,2800,NA
"AUCHGHY1IKZZK","Tue Jan 28 2020 08:56:49 GMT-0500 (Eastern Standard Time)","Tue Jan 28 2020 09:04:15 GMT-0500 (Eastern Standard Time)","Mozilla/5.0 (X11; U; U; Linux x86_64; en-us) AppleWebKit/537.36 (KHTML, like Gecko) Chrome/69.0.3497.100 Safari/537.36 Puffin/8.2.1.41222AP",62,"[0.9, 0.5, 0.1]","[0.8, 0.4, 0.2]","[u'blue', u'red', u'black']","[u'left', u'middle', u'right']","[0.9, 0.5, 0.1]","[u'low', u'high', u'medium']","red",50,"middle","high","True","False",1647,2900,NA
"AUCHGHY1IKZZK","Tue Jan 28 2020 08:56:49 GMT-0500 (Eastern Standard Time)","Tue Jan 28 2020 09:04:15 GMT-0500 (Eastern Standard Time)","Mozilla/5.0 (X11; U; U; Linux x86_64; en-us) AppleWebKit/537.36 (KHTML, like Gecko) Chrome/69.0.3497.100 Safari/537.36 Puffin/8.2.1.41222AP",63,"[0.9, 0.5, 0.1]","[0.8, 0.4, 0.2]","[u'blue', u'red', u'black']","[u'left', u'middle', u'right']","[0.9, 0.5, 0.1]","[u'low', u'high', u'medium']","black",51,"right","medium","True","False",561,3000,NA
"AUCHGHY1IKZZK","Tue Jan 28 2020 08:56:49 GMT-0500 (Eastern Standard Time)","Tue Jan 28 2020 09:04:15 GMT-0500 (Eastern Standard Time)","Mozilla/5.0 (X11; U; U; Linux x86_64; en-us) AppleWebKit/537.36 (KHTML, like Gecko) Chrome/69.0.3497.100 Safari/537.36 Puffin/8.2.1.41222AP",64,"[0.9, 0.5, 0.1]","[0.8, 0.4, 0.2]","[u'blue', u'red', u'black']","[u'left', u'middle', u'right']","[0.9, 0.5, 0.1]","[u'low', u'high', u'medium']","red",50,"middle","high","True","False",304,3100,NA
"AUCHGHY1IKZZK","Tue Jan 28 2020 08:56:49 GMT-0500 (Eastern Standard Time)","Tue Jan 28 2020 09:04:15 GMT-0500 (Eastern Standard Time)","Mozilla/5.0 (X11; U; U; Linux x86_64; en-us) AppleWebKit/537.36 (KHTML, like Gecko) Chrome/69.0.3497.100 Safari/537.36 Puffin/8.2.1.41222AP",65,"[0.9, 0.5, 0.1]","[0.8, 0.4, 0.2]","[u'blue', u'red', u'black']","[u'left', u'middle', u'right']","[0.9, 0.5, 0.1]","[u'low', u'high', u'medium']","black",51,"right","medium","False","False",203,3050,NA
"AUCHGHY1IKZZK","Tue Jan 28 2020 08:56:49 GMT-0500 (Eastern Standard Time)","Tue Jan 28 2020 09:04:15 GMT-0500 (Eastern Standard Time)","Mozilla/5.0 (X11; U; U; Linux x86_64; en-us) AppleWebKit/537.36 (KHTML, like Gecko) Chrome/69.0.3497.100 Safari/537.36 Puffin/8.2.1.41222AP",66,"[0.9, 0.5, 0.1]","[0.8, 0.4, 0.2]","[u'blue', u'red', u'black']","[u'left', u'middle', u'right']","[0.9, 0.5, 0.1]","[u'low', u'high', u'medium']","red",50,"middle","high","True","False",438,3150,NA
"AUCHGHY1IKZZK","Tue Jan 28 2020 08:56:49 GMT-0500 (Eastern Standard Time)","Tue Jan 28 2020 09:04:15 GMT-0500 (Eastern Standard Time)","Mozilla/5.0 (X11; U; U; Linux x86_64; en-us) AppleWebKit/537.36 (KHTML, like Gecko) Chrome/69.0.3497.100 Safari/537.36 Puffin/8.2.1.41222AP",67,"[0.9, 0.5, 0.1]","[0.8, 0.4, 0.2]","[u'blue', u'red', u'black']","[u'left', u'middle', u'right']","[0.9, 0.5, 0.1]","[u'low', u'high', u'medium']","blue",49,"left","low","False","False",570,3100,NA
"AUCHGHY1IKZZK","Tue Jan 28 2020 08:56:49 GMT-0500 (Eastern Standard Time)","Tue Jan 28 2020 09:04:15 GMT-0500 (Eastern Standard Time)","Mozilla/5.0 (X11; U; U; Linux x86_64; en-us) AppleWebKit/537.36 (KHTML, like Gecko) Chrome/69.0.3497.100 Safari/537.36 Puffin/8.2.1.41222AP",68,"[0.9, 0.5, 0.1]","[0.8, 0.4, 0.2]","[u'blue', u'red', u'black']","[u'left', u'middle', u'right']","[0.9, 0.5, 0.1]","[u'low', u'high', u'medium']","red",50,"middle","high","True","False",273,3200,NA
"AUCHGHY1IKZZK","Tue Jan 28 2020 08:56:49 GMT-0500 (Eastern Standard Time)","Tue Jan 28 2020 09:04:15 GMT-0500 (Eastern Standard Time)","Mozilla/5.0 (X11; U; U; Linux x86_64; en-us) AppleWebKit/537.36 (KHTML, like Gecko) Chrome/69.0.3497.100 Safari/537.36 Puffin/8.2.1.41222AP",69,"[0.9, 0.5, 0.1]","[0.8, 0.4, 0.2]","[u'blue', u'red', u'black']","[u'left', u'middle', u'right']","[0.9, 0.5, 0.1]","[u'low', u'high', u'medium']","red",50,"middle","high","True","False",655,3300,NA
"AUCHGHY1IKZZK","Tue Jan 28 2020 08:56:49 GMT-0500 (Eastern Standard Time)","Tue Jan 28 2020 09:04:15 GMT-0500 (Eastern Standard Time)","Mozilla/5.0 (X11; U; U; Linux x86_64; en-us) AppleWebKit/537.36 (KHTML, like Gecko) Chrome/69.0.3497.100 Safari/537.36 Puffin/8.2.1.41222AP",70,"[0.9, 0.5, 0.1]","[0.8, 0.4, 0.2]","[u'blue', u'red', u'black']","[u'left', u'middle', u'right']","[0.9, 0.5, 0.1]","[u'low', u'high', u'medium']","red",50,"middle","high","True","False",719,3400,NA
"AUCHGHY1IKZZK","Tue Jan 28 2020 08:56:49 GMT-0500 (Eastern Standard Time)","Tue Jan 28 2020 09:04:15 GMT-0500 (Eastern Standard Time)","Mozilla/5.0 (X11; U; U; Linux x86_64; en-us) AppleWebKit/537.36 (KHTML, like Gecko) Chrome/69.0.3497.100 Safari/537.36 Puffin/8.2.1.41222AP",71,"[0.9, 0.5, 0.1]","[0.8, 0.4, 0.2]","[u'blue', u'red', u'black']","[u'left', u'middle', u'right']","[0.9, 0.5, 0.1]","[u'low', u'high', u'medium']","red",50,"middle","high","False","False",1293,3350,NA
"AUCHGHY1IKZZK","Tue Jan 28 2020 08:56:49 GMT-0500 (Eastern Standard Time)","Tue Jan 28 2020 09:04:15 GMT-0500 (Eastern Standard Time)","Mozilla/5.0 (X11; U; U; Linux x86_64; en-us) AppleWebKit/537.36 (KHTML, like Gecko) Chrome/69.0.3497.100 Safari/537.36 Puffin/8.2.1.41222AP",72,"[0.9, 0.5, 0.1]","[0.8, 0.4, 0.2]","[u'blue', u'red', u'black']","[u'left', u'middle', u'right']","[0.9, 0.5, 0.1]","[u'low', u'high', u'medium']","red",50,"middle","high","True","False",2611,3450,NA
"AUCHGHY1IKZZK","Tue Jan 28 2020 08:56:49 GMT-0500 (Eastern Standard Time)","Tue Jan 28 2020 09:04:15 GMT-0500 (Eastern Standard Time)","Mozilla/5.0 (X11; U; U; Linux x86_64; en-us) AppleWebKit/537.36 (KHTML, like Gecko) Chrome/69.0.3497.100 Safari/537.36 Puffin/8.2.1.41222AP",73,"[0.9, 0.5, 0.1]","[0.8, 0.4, 0.2]","[u'blue', u'red', u'black']","[u'left', u'middle', u'right']","[0.9, 0.5, 0.1]","[u'low', u'high', u'medium']","red",50,"middle","high","True","False",319,3550,NA
"AUCHGHY1IKZZK","Tue Jan 28 2020 08:56:49 GMT-0500 (Eastern Standard Time)","Tue Jan 28 2020 09:04:15 GMT-0500 (Eastern Standard Time)","Mozilla/5.0 (X11; U; U; Linux x86_64; en-us) AppleWebKit/537.36 (KHTML, like Gecko) Chrome/69.0.3497.100 Safari/537.36 Puffin/8.2.1.41222AP",74,"[0.9, 0.5, 0.1]","[0.8, 0.4, 0.2]","[u'blue', u'red', u'black']","[u'left', u'middle', u'right']","[0.9, 0.5, 0.1]","[u'low', u'high', u'medium']","red",50,"middle","high","True","False",690,3650,NA
"AUCHGHY1IKZZK","Tue Jan 28 2020 08:56:49 GMT-0500 (Eastern Standard Time)","Tue Jan 28 2020 09:04:15 GMT-0500 (Eastern Standard Time)","Mozilla/5.0 (X11; U; U; Linux x86_64; en-us) AppleWebKit/537.36 (KHTML, like Gecko) Chrome/69.0.3497.100 Safari/537.36 Puffin/8.2.1.41222AP",75,"[0.9, 0.5, 0.1]","[0.8, 0.4, 0.2]","[u'blue', u'red', u'black']","[u'left', u'middle', u'right']","[0.9, 0.5, 0.1]","[u'low', u'high', u'medium']","red",50,"middle","high","True","True",429,3750,NA
"AUCHGHY1IKZZK","Tue Jan 28 2020 08:56:49 GMT-0500 (Eastern Standard Time)","Tue Jan 28 2020 09:04:15 GMT-0500 (Eastern Standard Time)","Mozilla/5.0 (X11; U; U; Linux x86_64; en-us) AppleWebKit/537.36 (KHTML, like Gecko) Chrome/69.0.3497.100 Safari/537.36 Puffin/8.2.1.41222AP",76,"[0.9, 0.5, 0.1]","[0.8, 0.4, 0.2]","[u'blue', u'red', u'black']","[u'left', u'middle', u'right']","[0.9, 0.5, 0.1]","[u'medium', u'low', u'high']","red",50,"middle","low","False","False",424,3700,NA
"AUCHGHY1IKZZK","Tue Jan 28 2020 08:56:49 GMT-0500 (Eastern Standard Time)","Tue Jan 28 2020 09:04:15 GMT-0500 (Eastern Standard Time)","Mozilla/5.0 (X11; U; U; Linux x86_64; en-us) AppleWebKit/537.36 (KHTML, like Gecko) Chrome/69.0.3497.100 Safari/537.36 Puffin/8.2.1.41222AP",77,"[0.9, 0.5, 0.1]","[0.8, 0.4, 0.2]","[u'blue', u'red', u'black']","[u'left', u'middle', u'right']","[0.9, 0.5, 0.1]","[u'medium', u'low', u'high']","blue",49,"left","medium","False","False",427,3650,NA
"AUCHGHY1IKZZK","Tue Jan 28 2020 08:56:49 GMT-0500 (Eastern Standard Time)","Tue Jan 28 2020 09:04:15 GMT-0500 (Eastern Standard Time)","Mozilla/5.0 (X11; U; U; Linux x86_64; en-us) AppleWebKit/537.36 (KHTML, like Gecko) Chrome/69.0.3497.100 Safari/537.36 Puffin/8.2.1.41222AP",78,"[0.9, 0.5, 0.1]","[0.8, 0.4, 0.2]","[u'blue', u'red', u'black']","[u'left', u'middle', u'right']","[0.9, 0.5, 0.1]","[u'medium', u'low', u'high']","black",51,"right","high","True","False",332,3750,NA
"AUCHGHY1IKZZK","Tue Jan 28 2020 08:56:49 GMT-0500 (Eastern Standard Time)","Tue Jan 28 2020 09:04:15 GMT-0500 (Eastern Standard Time)","Mozilla/5.0 (X11; U; U; Linux x86_64; en-us) AppleWebKit/537.36 (KHTML, like Gecko) Chrome/69.0.3497.100 Safari/537.36 Puffin/8.2.1.41222AP",79,"[0.9, 0.5, 0.1]","[0.8, 0.4, 0.2]","[u'blue', u'red', u'black']","[u'left', u'middle', u'right']","[0.9, 0.5, 0.1]","[u'medium', u'low', u'high']","black",51,"right","high","True","False",697,3850,NA
"AUCHGHY1IKZZK","Tue Jan 28 2020 08:56:49 GMT-0500 (Eastern Standard Time)","Tue Jan 28 2020 09:04:15 GMT-0500 (Eastern Standard Time)","Mozilla/5.0 (X11; U; U; Linux x86_64; en-us) AppleWebKit/537.36 (KHTML, like Gecko) Chrome/69.0.3497.100 Safari/537.36 Puffin/8.2.1.41222AP",80,"[0.9, 0.5, 0.1]","[0.8, 0.4, 0.2]","[u'blue', u'red', u'black']","[u'left', u'middle', u'right']","[0.9, 0.5, 0.1]","[u'medium', u'low', u'high']","black",51,"right","high","True","False",842,3950,NA
"AUCHGHY1IKZZK","Tue Jan 28 2020 08:56:49 GMT-0500 (Eastern Standard Time)","Tue Jan 28 2020 09:04:15 GMT-0500 (Eastern Standard Time)","Mozilla/5.0 (X11; U; U; Linux x86_64; en-us) AppleWebKit/537.36 (KHTML, like Gecko) Chrome/69.0.3497.100 Safari/537.36 Puffin/8.2.1.41222AP",81,"[0.9, 0.5, 0.1]","[0.8, 0.4, 0.2]","[u'blue', u'red', u'black']","[u'left', u'middle', u'right']","[0.8, 0.4, 0.2]","[u'low', u'high', u'medium']","blue",49,"left","low","True","False",6321,4050,NA
"AUCHGHY1IKZZK","Tue Jan 28 2020 08:56:49 GMT-0500 (Eastern Standard Time)","Tue Jan 28 2020 09:04:15 GMT-0500 (Eastern Standard Time)","Mozilla/5.0 (X11; U; U; Linux x86_64; en-us) AppleWebKit/537.36 (KHTML, like Gecko) Chrome/69.0.3497.100 Safari/537.36 Puffin/8.2.1.41222AP",82,"[0.9, 0.5, 0.1]","[0.8, 0.4, 0.2]","[u'blue', u'red', u'black']","[u'left', u'middle', u'right']","[0.8, 0.4, 0.2]","[u'low', u'high', u'medium']","blue",49,"left","low","False","False",3389,4000,NA
"AUCHGHY1IKZZK","Tue Jan 28 2020 08:56:49 GMT-0500 (Eastern Standard Time)","Tue Jan 28 2020 09:04:15 GMT-0500 (Eastern Standard Time)","Mozilla/5.0 (X11; U; U; Linux x86_64; en-us) AppleWebKit/537.36 (KHTML, like Gecko) Chrome/69.0.3497.100 Safari/537.36 Puffin/8.2.1.41222AP",83,"[0.9, 0.5, 0.1]","[0.8, 0.4, 0.2]","[u'blue', u'red', u'black']","[u'left', u'middle', u'right']","[0.8, 0.4, 0.2]","[u'low', u'high', u'medium']","red",50,"middle","high","True","False",457,4100,NA
"AUCHGHY1IKZZK","Tue Jan 28 2020 08:56:49 GMT-0500 (Eastern Standard Time)","Tue Jan 28 2020 09:04:15 GMT-0500 (Eastern Standard Time)","Mozilla/5.0 (X11; U; U; Linux x86_64; en-us) AppleWebKit/537.36 (KHTML, like Gecko) Chrome/69.0.3497.100 Safari/537.36 Puffin/8.2.1.41222AP",84,"[0.9, 0.5, 0.1]","[0.8, 0.4, 0.2]","[u'blue', u'red', u'black']","[u'left', u'middle', u'right']","[0.8, 0.4, 0.2]","[u'low', u'high', u'medium']","red",50,"middle","high","True","False",1912,4200,NA
"AUCHGHY1IKZZK","Tue Jan 28 2020 08:56:49 GMT-0500 (Eastern Standard Time)","Tue Jan 28 2020 09:04:15 GMT-0500 (Eastern Standard Time)","Mozilla/5.0 (X11; U; U; Linux x86_64; en-us) AppleWebKit/537.36 (KHTML, like Gecko) Chrome/69.0.3497.100 Safari/537.36 Puffin/8.2.1.41222AP",85,"[0.9, 0.5, 0.1]","[0.8, 0.4, 0.2]","[u'blue', u'red', u'black']","[u'left', u'middle', u'right']","[0.8, 0.4, 0.2]","[u'low', u'high', u'medium']","red",50,"middle","high","True","False",440,4300,NA
"AUCHGHY1IKZZK","Tue Jan 28 2020 08:56:49 GMT-0500 (Eastern Standard Time)","Tue Jan 28 2020 09:04:15 GMT-0500 (Eastern Standard Time)","Mozilla/5.0 (X11; U; U; Linux x86_64; en-us) AppleWebKit/537.36 (KHTML, like Gecko) Chrome/69.0.3497.100 Safari/537.36 Puffin/8.2.1.41222AP",86,"[0.9, 0.5, 0.1]","[0.8, 0.4, 0.2]","[u'blue', u'red', u'black']","[u'left', u'middle', u'right']","[0.8, 0.4, 0.2]","[u'low', u'high', u'medium']","black",51,"right","medium","False","False",319,4250,NA
"AUCHGHY1IKZZK","Tue Jan 28 2020 08:56:49 GMT-0500 (Eastern Standard Time)","Tue Jan 28 2020 09:04:15 GMT-0500 (Eastern Standard Time)","Mozilla/5.0 (X11; U; U; Linux x86_64; en-us) AppleWebKit/537.36 (KHTML, like Gecko) Chrome/69.0.3497.100 Safari/537.36 Puffin/8.2.1.41222AP",87,"[0.9, 0.5, 0.1]","[0.8, 0.4, 0.2]","[u'blue', u'red', u'black']","[u'left', u'middle', u'right']","[0.8, 0.4, 0.2]","[u'low', u'high', u'medium']","red",50,"middle","high","True","False",180,4350,NA
"AUCHGHY1IKZZK","Tue Jan 28 2020 08:56:49 GMT-0500 (Eastern Standard Time)","Tue Jan 28 2020 09:04:15 GMT-0500 (Eastern Standard Time)","Mozilla/5.0 (X11; U; U; Linux x86_64; en-us) AppleWebKit/537.36 (KHTML, like Gecko) Chrome/69.0.3497.100 Safari/537.36 Puffin/8.2.1.41222AP",88,"[0.9, 0.5, 0.1]","[0.8, 0.4, 0.2]","[u'blue', u'red', u'black']","[u'left', u'middle', u'right']","[0.8, 0.4, 0.2]","[u'low', u'high', u'medium']","red",50,"middle","high","False","False",132,4300,NA
"AUCHGHY1IKZZK","Tue Jan 28 2020 08:56:49 GMT-0500 (Eastern Standard Time)","Tue Jan 28 2020 09:04:15 GMT-0500 (Eastern Standard Time)","Mozilla/5.0 (X11; U; U; Linux x86_64; en-us) AppleWebKit/537.36 (KHTML, like Gecko) Chrome/69.0.3497.100 Safari/537.36 Puffin/8.2.1.41222AP",89,"[0.9, 0.5, 0.1]","[0.8, 0.4, 0.2]","[u'blue', u'red', u'black']","[u'left', u'middle', u'right']","[0.8, 0.4, 0.2]","[u'low', u'high', u'medium']","blue",49,"left","low","False","False",60,4250,NA
"AUCHGHY1IKZZK","Tue Jan 28 2020 08:56:49 GMT-0500 (Eastern Standard Time)","Tue Jan 28 2020 09:04:15 GMT-0500 (Eastern Standard Time)","Mozilla/5.0 (X11; U; U; Linux x86_64; en-us) AppleWebKit/537.36 (KHTML, like Gecko) Chrome/69.0.3497.100 Safari/537.36 Puffin/8.2.1.41222AP",90,"[0.9, 0.5, 0.1]","[0.8, 0.4, 0.2]","[u'blue', u'red', u'black']","[u'left', u'middle', u'right']","[0.8, 0.4, 0.2]","[u'low', u'high', u'medium']","red",50,"middle","high","False","False",355,4200,NA
"AUCHGHY1IKZZK","Tue Jan 28 2020 08:56:49 GMT-0500 (Eastern Standard Time)","Tue Jan 28 2020 09:04:15 GMT-0500 (Eastern Standard Time)","Mozilla/5.0 (X11; U; U; Linux x86_64; en-us) AppleWebKit/537.36 (KHTML, like Gecko) Chrome/69.0.3497.100 Safari/537.36 Puffin/8.2.1.41222AP",91,"[0.9, 0.5, 0.1]","[0.8, 0.4, 0.2]","[u'blue', u'red', u'black']","[u'left', u'middle', u'right']","[0.8, 0.4, 0.2]","[u'low', u'high', u'medium']","red",50,"middle","high","True","False",340,4300,NA
"AUCHGHY1IKZZK","Tue Jan 28 2020 08:56:49 GMT-0500 (Eastern Standard Time)","Tue Jan 28 2020 09:04:15 GMT-0500 (Eastern Standard Time)","Mozilla/5.0 (X11; U; U; Linux x86_64; en-us) AppleWebKit/537.36 (KHTML, like Gecko) Chrome/69.0.3497.100 Safari/537.36 Puffin/8.2.1.41222AP",92,"[0.9, 0.5, 0.1]","[0.8, 0.4, 0.2]","[u'blue', u'red', u'black']","[u'left', u'middle', u'right']","[0.8, 0.4, 0.2]","[u'low', u'high', u'medium']","red",50,"middle","high","False","False",768,4250,NA
"AUCHGHY1IKZZK","Tue Jan 28 2020 08:56:49 GMT-0500 (Eastern Standard Time)","Tue Jan 28 2020 09:04:15 GMT-0500 (Eastern Standard Time)","Mozilla/5.0 (X11; U; U; Linux x86_64; en-us) AppleWebKit/537.36 (KHTML, like Gecko) Chrome/69.0.3497.100 Safari/537.36 Puffin/8.2.1.41222AP",93,"[0.9, 0.5, 0.1]","[0.8, 0.4, 0.2]","[u'blue', u'red', u'black']","[u'left', u'middle', u'right']","[0.8, 0.4, 0.2]","[u'low', u'high', u'medium']","black",51,"right","medium","True","False",323,4350,NA
"AUCHGHY1IKZZK","Tue Jan 28 2020 08:56:49 GMT-0500 (Eastern Standard Time)","Tue Jan 28 2020 09:04:15 GMT-0500 (Eastern Standard Time)","Mozilla/5.0 (X11; U; U; Linux x86_64; en-us) AppleWebKit/537.36 (KHTML, like Gecko) Chrome/69.0.3497.100 Safari/537.36 Puffin/8.2.1.41222AP",94,"[0.9, 0.5, 0.1]","[0.8, 0.4, 0.2]","[u'blue', u'red', u'black']","[u'left', u'middle', u'right']","[0.8, 0.4, 0.2]","[u'low', u'high', u'medium']","black",51,"right","medium","False","False",556,4300,NA
"AUCHGHY1IKZZK","Tue Jan 28 2020 08:56:49 GMT-0500 (Eastern Standard Time)","Tue Jan 28 2020 09:04:15 GMT-0500 (Eastern Standard Time)","Mozilla/5.0 (X11; U; U; Linux x86_64; en-us) AppleWebKit/537.36 (KHTML, like Gecko) Chrome/69.0.3497.100 Safari/537.36 Puffin/8.2.1.41222AP",95,"[0.9, 0.5, 0.1]","[0.8, 0.4, 0.2]","[u'blue', u'red', u'black']","[u'left', u'middle', u'right']","[0.8, 0.4, 0.2]","[u'low', u'high', u'medium']","red",50,"middle","high","True","False",424,4400,NA
"AUCHGHY1IKZZK","Tue Jan 28 2020 08:56:49 GMT-0500 (Eastern Standard Time)","Tue Jan 28 2020 09:04:15 GMT-0500 (Eastern Standard Time)","Mozilla/5.0 (X11; U; U; Linux x86_64; en-us) AppleWebKit/537.36 (KHTML, like Gecko) Chrome/69.0.3497.100 Safari/537.36 Puffin/8.2.1.41222AP",96,"[0.9, 0.5, 0.1]","[0.8, 0.4, 0.2]","[u'blue', u'red', u'black']","[u'left', u'middle', u'right']","[0.8, 0.4, 0.2]","[u'low', u'high', u'medium']","blue",49,"left","low","False","False",341,4350,NA
"AUCHGHY1IKZZK","Tue Jan 28 2020 08:56:49 GMT-0500 (Eastern Standard Time)","Tue Jan 28 2020 09:04:15 GMT-0500 (Eastern Standard Time)","Mozilla/5.0 (X11; U; U; Linux x86_64; en-us) AppleWebKit/537.36 (KHTML, like Gecko) Chrome/69.0.3497.100 Safari/537.36 Puffin/8.2.1.41222AP",97,"[0.9, 0.5, 0.1]","[0.8, 0.4, 0.2]","[u'blue', u'red', u'black']","[u'left', u'middle', u'right']","[0.8, 0.4, 0.2]","[u'low', u'high', u'medium']","red",50,"middle","high","True","False",223,4450,NA
"AUCHGHY1IKZZK","Tue Jan 28 2020 08:56:49 GMT-0500 (Eastern Standard Time)","Tue Jan 28 2020 09:04:15 GMT-0500 (Eastern Standard Time)","Mozilla/5.0 (X11; U; U; Linux x86_64; en-us) AppleWebKit/537.36 (KHTML, like Gecko) Chrome/69.0.3497.100 Safari/537.36 Puffin/8.2.1.41222AP",98,"[0.9, 0.5, 0.1]","[0.8, 0.4, 0.2]","[u'blue', u'red', u'black']","[u'left', u'middle', u'right']","[0.8, 0.4, 0.2]","[u'low', u'high', u'medium']","black",51,"right","medium","True","False",484,4550,NA
"AUCHGHY1IKZZK","Tue Jan 28 2020 08:56:49 GMT-0500 (Eastern Standard Time)","Tue Jan 28 2020 09:04:15 GMT-0500 (Eastern Standard Time)","Mozilla/5.0 (X11; U; U; Linux x86_64; en-us) AppleWebKit/537.36 (KHTML, like Gecko) Chrome/69.0.3497.100 Safari/537.36 Puffin/8.2.1.41222AP",99,"[0.9, 0.5, 0.1]","[0.8, 0.4, 0.2]","[u'blue', u'red', u'black']","[u'left', u'middle', u'right']","[0.8, 0.4, 0.2]","[u'low', u'high', u'medium']","red",50,"middle","high","True","False",246,4650,NA
"AUCHGHY1IKZZK","Tue Jan 28 2020 08:56:49 GMT-0500 (Eastern Standard Time)","Tue Jan 28 2020 09:04:15 GMT-0500 (Eastern Standard Time)","Mozilla/5.0 (X11; U; U; Linux x86_64; en-us) AppleWebKit/537.36 (KHTML, like Gecko) Chrome/69.0.3497.100 Safari/537.36 Puffin/8.2.1.41222AP",100,"[0.9, 0.5, 0.1]","[0.8, 0.4, 0.2]","[u'blue', u'red', u'black']","[u'left', u'middle', u'right']","[0.8, 0.4, 0.2]","[u'low', u'high', u'medium']","black",51,"right","medium","False","False",372,4600,NA
"AUCHGHY1IKZZK","Tue Jan 28 2020 08:56:49 GMT-0500 (Eastern Standard Time)","Tue Jan 28 2020 09:04:15 GMT-0500 (Eastern Standard Time)","Mozilla/5.0 (X11; U; U; Linux x86_64; en-us) AppleWebKit/537.36 (KHTML, like Gecko) Chrome/69.0.3497.100 Safari/537.36 Puffin/8.2.1.41222AP",101,"[0.9, 0.5, 0.1]","[0.8, 0.4, 0.2]","[u'blue', u'red', u'black']","[u'left', u'middle', u'right']","[0.8, 0.4, 0.2]","[u'low', u'high', u'medium']","red",50,"middle","high","False","False",377,4550,NA
"AUCHGHY1IKZZK","Tue Jan 28 2020 08:56:49 GMT-0500 (Eastern Standard Time)","Tue Jan 28 2020 09:04:15 GMT-0500 (Eastern Standard Time)","Mozilla/5.0 (X11; U; U; Linux x86_64; en-us) AppleWebKit/537.36 (KHTML, like Gecko) Chrome/69.0.3497.100 Safari/537.36 Puffin/8.2.1.41222AP",102,"[0.9, 0.5, 0.1]","[0.8, 0.4, 0.2]","[u'blue', u'red', u'black']","[u'left', u'middle', u'right']","[0.8, 0.4, 0.2]","[u'low', u'high', u'medium']","red",50,"middle","high","True","False",273,4650,NA
"AUCHGHY1IKZZK","Tue Jan 28 2020 08:56:49 GMT-0500 (Eastern Standard Time)","Tue Jan 28 2020 09:04:15 GMT-0500 (Eastern Standard Time)","Mozilla/5.0 (X11; U; U; Linux x86_64; en-us) AppleWebKit/537.36 (KHTML, like Gecko) Chrome/69.0.3497.100 Safari/537.36 Puffin/8.2.1.41222AP",103,"[0.9, 0.5, 0.1]","[0.8, 0.4, 0.2]","[u'blue', u'red', u'black']","[u'left', u'middle', u'right']","[0.8, 0.4, 0.2]","[u'low', u'high', u'medium']","black",51,"right","medium","False","False",248,4600,NA
"AUCHGHY1IKZZK","Tue Jan 28 2020 08:56:49 GMT-0500 (Eastern Standard Time)","Tue Jan 28 2020 09:04:15 GMT-0500 (Eastern Standard Time)","Mozilla/5.0 (X11; U; U; Linux x86_64; en-us) AppleWebKit/537.36 (KHTML, like Gecko) Chrome/69.0.3497.100 Safari/537.36 Puffin/8.2.1.41222AP",104,"[0.9, 0.5, 0.1]","[0.8, 0.4, 0.2]","[u'blue', u'red', u'black']","[u'left', u'middle', u'right']","[0.8, 0.4, 0.2]","[u'low', u'high', u'medium']","blue",49,"left","low","False","False",231,4550,NA
"AUCHGHY1IKZZK","Tue Jan 28 2020 08:56:49 GMT-0500 (Eastern Standard Time)","Tue Jan 28 2020 09:04:15 GMT-0500 (Eastern Standard Time)","Mozilla/5.0 (X11; U; U; Linux x86_64; en-us) AppleWebKit/537.36 (KHTML, like Gecko) Chrome/69.0.3497.100 Safari/537.36 Puffin/8.2.1.41222AP",105,"[0.9, 0.5, 0.1]","[0.8, 0.4, 0.2]","[u'blue', u'red', u'black']","[u'left', u'middle', u'right']","[0.8, 0.4, 0.2]","[u'low', u'high', u'medium']","red",50,"middle","high","True","False",353,4650,NA
"AUCHGHY1IKZZK","Tue Jan 28 2020 08:56:49 GMT-0500 (Eastern Standard Time)","Tue Jan 28 2020 09:04:15 GMT-0500 (Eastern Standard Time)","Mozilla/5.0 (X11; U; U; Linux x86_64; en-us) AppleWebKit/537.36 (KHTML, like Gecko) Chrome/69.0.3497.100 Safari/537.36 Puffin/8.2.1.41222AP",106,"[0.9, 0.5, 0.1]","[0.8, 0.4, 0.2]","[u'blue', u'red', u'black']","[u'left', u'middle', u'right']","[0.8, 0.4, 0.2]","[u'low', u'high', u'medium']","red",50,"middle","high","True","False",326,4750,NA
"AUCHGHY1IKZZK","Tue Jan 28 2020 08:56:49 GMT-0500 (Eastern Standard Time)","Tue Jan 28 2020 09:04:15 GMT-0500 (Eastern Standard Time)","Mozilla/5.0 (X11; U; U; Linux x86_64; en-us) AppleWebKit/537.36 (KHTML, like Gecko) Chrome/69.0.3497.100 Safari/537.36 Puffin/8.2.1.41222AP",107,"[0.9, 0.5, 0.1]","[0.8, 0.4, 0.2]","[u'blue', u'red', u'black']","[u'left', u'middle', u'right']","[0.8, 0.4, 0.2]","[u'low', u'high', u'medium']","red",50,"middle","high","True","False",553,4850,NA
"AUCHGHY1IKZZK","Tue Jan 28 2020 08:56:49 GMT-0500 (Eastern Standard Time)","Tue Jan 28 2020 09:04:15 GMT-0500 (Eastern Standard Time)","Mozilla/5.0 (X11; U; U; Linux x86_64; en-us) AppleWebKit/537.36 (KHTML, like Gecko) Chrome/69.0.3497.100 Safari/537.36 Puffin/8.2.1.41222AP",108,"[0.9, 0.5, 0.1]","[0.8, 0.4, 0.2]","[u'blue', u'red', u'black']","[u'left', u'middle', u'right']","[0.8, 0.4, 0.2]","[u'low', u'high', u'medium']","black",51,"right","medium","True","False",564,4950,NA
"AUCHGHY1IKZZK","Tue Jan 28 2020 08:56:49 GMT-0500 (Eastern Standard Time)","Tue Jan 28 2020 09:04:15 GMT-0500 (Eastern Standard Time)","Mozilla/5.0 (X11; U; U; Linux x86_64; en-us) AppleWebKit/537.36 (KHTML, like Gecko) Chrome/69.0.3497.100 Safari/537.36 Puffin/8.2.1.41222AP",109,"[0.9, 0.5, 0.1]","[0.8, 0.4, 0.2]","[u'blue', u'red', u'black']","[u'left', u'middle', u'right']","[0.8, 0.4, 0.2]","[u'low', u'high', u'medium']","blue",49,"left","low","False","False",654,4900,NA
"AUCHGHY1IKZZK","Tue Jan 28 2020 08:56:49 GMT-0500 (Eastern Standard Time)","Tue Jan 28 2020 09:04:15 GMT-0500 (Eastern Standard Time)","Mozilla/5.0 (X11; U; U; Linux x86_64; en-us) AppleWebKit/537.36 (KHTML, like Gecko) Chrome/69.0.3497.100 Safari/537.36 Puffin/8.2.1.41222AP",110,"[0.9, 0.5, 0.1]","[0.8, 0.4, 0.2]","[u'blue', u'red', u'black']","[u'left', u'middle', u'right']","[0.8, 0.4, 0.2]","[u'low', u'high', u'medium']","red",50,"middle","high","True","False",238,5000,NA
"AUCHGHY1IKZZK","Tue Jan 28 2020 08:56:49 GMT-0500 (Eastern Standard Time)","Tue Jan 28 2020 09:04:15 GMT-0500 (Eastern Standard Time)","Mozilla/5.0 (X11; U; U; Linux x86_64; en-us) AppleWebKit/537.36 (KHTML, like Gecko) Chrome/69.0.3497.100 Safari/537.36 Puffin/8.2.1.41222AP",111,"[0.9, 0.5, 0.1]","[0.8, 0.4, 0.2]","[u'blue', u'red', u'black']","[u'left', u'middle', u'right']","[0.8, 0.4, 0.2]","[u'low', u'high', u'medium']","black",51,"right","medium","True","False",300,5100,NA
"AUCHGHY1IKZZK","Tue Jan 28 2020 08:56:49 GMT-0500 (Eastern Standard Time)","Tue Jan 28 2020 09:04:15 GMT-0500 (Eastern Standard Time)","Mozilla/5.0 (X11; U; U; Linux x86_64; en-us) AppleWebKit/537.36 (KHTML, like Gecko) Chrome/69.0.3497.100 Safari/537.36 Puffin/8.2.1.41222AP",112,"[0.9, 0.5, 0.1]","[0.8, 0.4, 0.2]","[u'blue', u'red', u'black']","[u'left', u'middle', u'right']","[0.8, 0.4, 0.2]","[u'low', u'high', u'medium']","black",51,"right","medium","False","False",144,5050,NA
"AUCHGHY1IKZZK","Tue Jan 28 2020 08:56:49 GMT-0500 (Eastern Standard Time)","Tue Jan 28 2020 09:04:15 GMT-0500 (Eastern Standard Time)","Mozilla/5.0 (X11; U; U; Linux x86_64; en-us) AppleWebKit/537.36 (KHTML, like Gecko) Chrome/69.0.3497.100 Safari/537.36 Puffin/8.2.1.41222AP",113,"[0.9, 0.5, 0.1]","[0.8, 0.4, 0.2]","[u'blue', u'red', u'black']","[u'left', u'middle', u'right']","[0.8, 0.4, 0.2]","[u'low', u'high', u'medium']","red",50,"middle","high","True","False",222,5150,NA
"AUCHGHY1IKZZK","Tue Jan 28 2020 08:56:49 GMT-0500 (Eastern Standard Time)","Tue Jan 28 2020 09:04:15 GMT-0500 (Eastern Standard Time)","Mozilla/5.0 (X11; U; U; Linux x86_64; en-us) AppleWebKit/537.36 (KHTML, like Gecko) Chrome/69.0.3497.100 Safari/537.36 Puffin/8.2.1.41222AP",114,"[0.9, 0.5, 0.1]","[0.8, 0.4, 0.2]","[u'blue', u'red', u'black']","[u'left', u'middle', u'right']","[0.8, 0.4, 0.2]","[u'low', u'high', u'medium']","red",50,"middle","high","True","False",392,5250,NA
"AUCHGHY1IKZZK","Tue Jan 28 2020 08:56:49 GMT-0500 (Eastern Standard Time)","Tue Jan 28 2020 09:04:15 GMT-0500 (Eastern Standard Time)","Mozilla/5.0 (X11; U; U; Linux x86_64; en-us) AppleWebKit/537.36 (KHTML, like Gecko) Chrome/69.0.3497.100 Safari/537.36 Puffin/8.2.1.41222AP",115,"[0.9, 0.5, 0.1]","[0.8, 0.4, 0.2]","[u'blue', u'red', u'black']","[u'left', u'middle', u'right']","[0.8, 0.4, 0.2]","[u'low', u'high', u'medium']","red",50,"middle","high","False","False",450,5200,NA
"AUCHGHY1IKZZK","Tue Jan 28 2020 08:56:49 GMT-0500 (Eastern Standard Time)","Tue Jan 28 2020 09:04:15 GMT-0500 (Eastern Standard Time)","Mozilla/5.0 (X11; U; U; Linux x86_64; en-us) AppleWebKit/537.36 (KHTML, like Gecko) Chrome/69.0.3497.100 Safari/537.36 Puffin/8.2.1.41222AP",116,"[0.9, 0.5, 0.1]","[0.8, 0.4, 0.2]","[u'blue', u'red', u'black']","[u'left', u'middle', u'right']","[0.8, 0.4, 0.2]","[u'low', u'high', u'medium']","blue",49,"left","low","False","False",161,5150,NA
"AUCHGHY1IKZZK","Tue Jan 28 2020 08:56:49 GMT-0500 (Eastern Standard Time)","Tue Jan 28 2020 09:04:15 GMT-0500 (Eastern Standard Time)","Mozilla/5.0 (X11; U; U; Linux x86_64; en-us) AppleWebKit/537.36 (KHTML, like Gecko) Chrome/69.0.3497.100 Safari/537.36 Puffin/8.2.1.41222AP",117,"[0.9, 0.5, 0.1]","[0.8, 0.4, 0.2]","[u'blue', u'red', u'black']","[u'left', u'middle', u'right']","[0.8, 0.4, 0.2]","[u'low', u'high', u'medium']","black",51,"right","medium","True","False",227,5250,NA
"AUCHGHY1IKZZK","Tue Jan 28 2020 08:56:49 GMT-0500 (Eastern Standard Time)","Tue Jan 28 2020 09:04:15 GMT-0500 (Eastern Standard Time)","Mozilla/5.0 (X11; U; U; Linux x86_64; en-us) AppleWebKit/537.36 (KHTML, like Gecko) Chrome/69.0.3497.100 Safari/537.36 Puffin/8.2.1.41222AP",118,"[0.9, 0.5, 0.1]","[0.8, 0.4, 0.2]","[u'blue', u'red', u'black']","[u'left', u'middle', u'right']","[0.8, 0.4, 0.2]","[u'low', u'high', u'medium']","red",50,"middle","high","True","False",177,5350,NA
"AUCHGHY1IKZZK","Tue Jan 28 2020 08:56:49 GMT-0500 (Eastern Standard Time)","Tue Jan 28 2020 09:04:15 GMT-0500 (Eastern Standard Time)","Mozilla/5.0 (X11; U; U; Linux x86_64; en-us) AppleWebKit/537.36 (KHTML, like Gecko) Chrome/69.0.3497.100 Safari/537.36 Puffin/8.2.1.41222AP",119,"[0.9, 0.5, 0.1]","[0.8, 0.4, 0.2]","[u'blue', u'red', u'black']","[u'left', u'middle', u'right']","[0.8, 0.4, 0.2]","[u'low', u'high', u'medium']","red",50,"middle","high","False","False",194,5300,NA
"AUCHGHY1IKZZK","Tue Jan 28 2020 08:56:49 GMT-0500 (Eastern Standard Time)","Tue Jan 28 2020 09:04:15 GMT-0500 (Eastern Standard Time)","Mozilla/5.0 (X11; U; U; Linux x86_64; en-us) AppleWebKit/537.36 (KHTML, like Gecko) Chrome/69.0.3497.100 Safari/537.36 Puffin/8.2.1.41222AP",120,"[0.9, 0.5, 0.1]","[0.8, 0.4, 0.2]","[u'blue', u'red', u'black']","[u'left', u'middle', u'right']","[0.8, 0.4, 0.2]","[u'low', u'high', u'medium']","black",51,"right","medium","False","False",255,5250,NA
"AUCHGHY1IKZZK","Tue Jan 28 2020 08:56:49 GMT-0500 (Eastern Standard Time)","Tue Jan 28 2020 09:04:15 GMT-0500 (Eastern Standard Time)","Mozilla/5.0 (X11; U; U; Linux x86_64; en-us) AppleWebKit/537.36 (KHTML, like Gecko) Chrome/69.0.3497.100 Safari/537.36 Puffin/8.2.1.41222AP",121,"[0.9, 0.5, 0.1]","[0.8, 0.4, 0.2]","[u'blue', u'red', u'black']","[u'left', u'middle', u'right']","[0.8, 0.4, 0.2]","[u'high', u'low', u'medium']","blue",49,"left","high","True","False",852,5350,NA
"AUCHGHY1IKZZK","Tue Jan 28 2020 08:56:49 GMT-0500 (Eastern Standard Time)","Tue Jan 28 2020 09:04:15 GMT-0500 (Eastern Standard Time)","Mozilla/5.0 (X11; U; U; Linux x86_64; en-us) AppleWebKit/537.36 (KHTML, like Gecko) Chrome/69.0.3497.100 Safari/537.36 Puffin/8.2.1.41222AP",122,"[0.9, 0.5, 0.1]","[0.8, 0.4, 0.2]","[u'blue', u'red', u'black']","[u'left', u'middle', u'right']","[0.8, 0.4, 0.2]","[u'high', u'low', u'medium']","blue",49,"left","high","True","False",387,5450,NA
"AUCHGHY1IKZZK","Tue Jan 28 2020 08:56:49 GMT-0500 (Eastern Standard Time)","Tue Jan 28 2020 09:04:15 GMT-0500 (Eastern Standard Time)","Mozilla/5.0 (X11; U; U; Linux x86_64; en-us) AppleWebKit/537.36 (KHTML, like Gecko) Chrome/69.0.3497.100 Safari/537.36 Puffin/8.2.1.41222AP",123,"[0.9, 0.5, 0.1]","[0.8, 0.4, 0.2]","[u'blue', u'red', u'black']","[u'left', u'middle', u'right']","[0.8, 0.4, 0.2]","[u'high', u'low', u'medium']","blue",49,"left","high","True","False",439,5550,NA
"AUCHGHY1IKZZK","Tue Jan 28 2020 08:56:49 GMT-0500 (Eastern Standard Time)","Tue Jan 28 2020 09:04:15 GMT-0500 (Eastern Standard Time)","Mozilla/5.0 (X11; U; U; Linux x86_64; en-us) AppleWebKit/537.36 (KHTML, like Gecko) Chrome/69.0.3497.100 Safari/537.36 Puffin/8.2.1.41222AP",124,"[0.9, 0.5, 0.1]","[0.8, 0.4, 0.2]","[u'blue', u'red', u'black']","[u'left', u'middle', u'right']","[0.8, 0.4, 0.2]","[u'high', u'low', u'medium']","blue",49,"left","high","True","False",337,5650,NA
"AUCHGHY1IKZZK","Tue Jan 28 2020 08:56:49 GMT-0500 (Eastern Standard Time)","Tue Jan 28 2020 09:04:15 GMT-0500 (Eastern Standard Time)","Mozilla/5.0 (X11; U; U; Linux x86_64; en-us) AppleWebKit/537.36 (KHTML, like Gecko) Chrome/69.0.3497.100 Safari/537.36 Puffin/8.2.1.41222AP",125,"[0.9, 0.5, 0.1]","[0.8, 0.4, 0.2]","[u'blue', u'red', u'black']","[u'left', u'middle', u'right']","[0.8, 0.4, 0.2]","[u'high', u'low', u'medium']","blue",49,"left","high","True","False",235,5750,NA
"AUCHGHY1IKZZK","Tue Jan 28 2020 08:56:49 GMT-0500 (Eastern Standard Time)","Tue Jan 28 2020 09:04:15 GMT-0500 (Eastern Standard Time)","Mozilla/5.0 (X11; U; U; Linux x86_64; en-us) AppleWebKit/537.36 (KHTML, like Gecko) Chrome/69.0.3497.100 Safari/537.36 Puffin/8.2.1.41222AP",126,"[0.9, 0.5, 0.1]","[0.8, 0.4, 0.2]","[u'blue', u'red', u'black']","[u'left', u'middle', u'right']","[0.8, 0.4, 0.2]","[u'high', u'low', u'medium']","blue",49,"left","high","True","False",95,5850,NA
"AUCHGHY1IKZZK","Tue Jan 28 2020 08:56:49 GMT-0500 (Eastern Standard Time)","Tue Jan 28 2020 09:04:15 GMT-0500 (Eastern Standard Time)","Mozilla/5.0 (X11; U; U; Linux x86_64; en-us) AppleWebKit/537.36 (KHTML, like Gecko) Chrome/69.0.3497.100 Safari/537.36 Puffin/8.2.1.41222AP",127,"[0.9, 0.5, 0.1]","[0.8, 0.4, 0.2]","[u'blue', u'red', u'black']","[u'left', u'middle', u'right']","[0.8, 0.4, 0.2]","[u'high', u'low', u'medium']","blue",49,"left","high","True","False",343,5950,NA
"AUCHGHY1IKZZK","Tue Jan 28 2020 08:56:49 GMT-0500 (Eastern Standard Time)","Tue Jan 28 2020 09:04:15 GMT-0500 (Eastern Standard Time)","Mozilla/5.0 (X11; U; U; Linux x86_64; en-us) AppleWebKit/537.36 (KHTML, like Gecko) Chrome/69.0.3497.100 Safari/537.36 Puffin/8.2.1.41222AP",128,"[0.9, 0.5, 0.1]","[0.8, 0.4, 0.2]","[u'blue', u'red', u'black']","[u'left', u'middle', u'right']","[0.8, 0.4, 0.2]","[u'high', u'low', u'medium']","blue",49,"left","high","True","False",323,6050,NA
"AUCHGHY1IKZZK","Tue Jan 28 2020 08:56:49 GMT-0500 (Eastern Standard Time)","Tue Jan 28 2020 09:04:15 GMT-0500 (Eastern Standard Time)","Mozilla/5.0 (X11; U; U; Linux x86_64; en-us) AppleWebKit/537.36 (KHTML, like Gecko) Chrome/69.0.3497.100 Safari/537.36 Puffin/8.2.1.41222AP",129,"[0.9, 0.5, 0.1]","[0.8, 0.4, 0.2]","[u'blue', u'red', u'black']","[u'left', u'middle', u'right']","[0.8, 0.4, 0.2]","[u'high', u'low', u'medium']","blue",49,"left","high","True","True",273,6150,NA
"AUCHGHY1IKZZK","Tue Jan 28 2020 08:56:49 GMT-0500 (Eastern Standard Time)","Tue Jan 28 2020 09:04:15 GMT-0500 (Eastern Standard Time)","Mozilla/5.0 (X11; U; U; Linux x86_64; en-us) AppleWebKit/537.36 (KHTML, like Gecko) Chrome/69.0.3497.100 Safari/537.36 Puffin/8.2.1.41222AP",130,"[0.9, 0.5, 0.1]","[0.8, 0.4, 0.2]","[u'blue', u'red', u'black']","[u'left', u'middle', u'right']","[0.8, 0.4, 0.2]","[u'medium', u'low', u'high']","blue",49,"left","medium","False","False",376,6100,NA
"AUCHGHY1IKZZK","Tue Jan 28 2020 08:56:49 GMT-0500 (Eastern Standard Time)","Tue Jan 28 2020 09:04:15 GMT-0500 (Eastern Standard Time)","Mozilla/5.0 (X11; U; U; Linux x86_64; en-us) AppleWebKit/537.36 (KHTML, like Gecko) Chrome/69.0.3497.100 Safari/537.36 Puffin/8.2.1.41222AP",131,"[0.9, 0.5, 0.1]","[0.8, 0.4, 0.2]","[u'blue', u'red', u'black']","[u'left', u'middle', u'right']","[0.8, 0.4, 0.2]","[u'medium', u'low', u'high']","blue",49,"left","medium","False","False",688,6050,NA
"AUCHGHY1IKZZK","Tue Jan 28 2020 08:56:49 GMT-0500 (Eastern Standard Time)","Tue Jan 28 2020 09:04:15 GMT-0500 (Eastern Standard Time)","Mozilla/5.0 (X11; U; U; Linux x86_64; en-us) AppleWebKit/537.36 (KHTML, like Gecko) Chrome/69.0.3497.100 Safari/537.36 Puffin/8.2.1.41222AP",132,"[0.9, 0.5, 0.1]","[0.8, 0.4, 0.2]","[u'blue', u'red', u'black']","[u'left', u'middle', u'right']","[0.8, 0.4, 0.2]","[u'medium', u'low', u'high']","red",50,"middle","low","False","False",103,6000,NA
"AUCHGHY1IKZZK","Tue Jan 28 2020 08:56:49 GMT-0500 (Eastern Standard Time)","Tue Jan 28 2020 09:04:15 GMT-0500 (Eastern Standard Time)","Mozilla/5.0 (X11; U; U; Linux x86_64; en-us) AppleWebKit/537.36 (KHTML, like Gecko) Chrome/69.0.3497.100 Safari/537.36 Puffin/8.2.1.41222AP",133,"[0.9, 0.5, 0.1]","[0.8, 0.4, 0.2]","[u'blue', u'red', u'black']","[u'left', u'middle', u'right']","[0.8, 0.4, 0.2]","[u'medium', u'low', u'high']","black",51,"right","high","True","False",127,6100,NA
"AUCHGHY1IKZZK","Tue Jan 28 2020 08:56:49 GMT-0500 (Eastern Standard Time)","Tue Jan 28 2020 09:04:15 GMT-0500 (Eastern Standard Time)","Mozilla/5.0 (X11; U; U; Linux x86_64; en-us) AppleWebKit/537.36 (KHTML, like Gecko) Chrome/69.0.3497.100 Safari/537.36 Puffin/8.2.1.41222AP",134,"[0.9, 0.5, 0.1]","[0.8, 0.4, 0.2]","[u'blue', u'red', u'black']","[u'left', u'middle', u'right']","[0.8, 0.4, 0.2]","[u'medium', u'low', u'high']","black",51,"right","high","True","False",145,6200,NA
"AUCHGHY1IKZZK","Tue Jan 28 2020 08:56:49 GMT-0500 (Eastern Standard Time)","Tue Jan 28 2020 09:04:15 GMT-0500 (Eastern Standard Time)","Mozilla/5.0 (X11; U; U; Linux x86_64; en-us) AppleWebKit/537.36 (KHTML, like Gecko) Chrome/69.0.3497.100 Safari/537.36 Puffin/8.2.1.41222AP",135,"[0.9, 0.5, 0.1]","[0.8, 0.4, 0.2]","[u'blue', u'red', u'black']","[u'left', u'middle', u'right']","[0.8, 0.4, 0.2]","[u'medium', u'low', u'high']","black",51,"right","high","True","False",311,6300,NA
"AUCHGHY1IKZZK","Tue Jan 28 2020 08:56:49 GMT-0500 (Eastern Standard Time)","Tue Jan 28 2020 09:04:15 GMT-0500 (Eastern Standard Time)","Mozilla/5.0 (X11; U; U; Linux x86_64; en-us) AppleWebKit/537.36 (KHTML, like Gecko) Chrome/69.0.3497.100 Safari/537.36 Puffin/8.2.1.41222AP",136,"[0.9, 0.5, 0.1]","[0.8, 0.4, 0.2]","[u'blue', u'red', u'black']","[u'left', u'middle', u'right']","[0.8, 0.4, 0.2]","[u'medium', u'low', u'high']","black",51,"right","high","True","False",127,6400,NA
"AUCHGHY1IKZZK","Tue Jan 28 2020 08:56:49 GMT-0500 (Eastern Standard Time)","Tue Jan 28 2020 09:04:15 GMT-0500 (Eastern Standard Time)","Mozilla/5.0 (X11; U; U; Linux x86_64; en-us) AppleWebKit/537.36 (KHTML, like Gecko) Chrome/69.0.3497.100 Safari/537.36 Puffin/8.2.1.41222AP",137,"[0.9, 0.5, 0.1]","[0.8, 0.4, 0.2]","[u'blue', u'red', u'black']","[u'left', u'middle', u'right']","[0.8, 0.4, 0.2]","[u'medium', u'low', u'high']","black",51,"right","high","True","False",256,6500,NA
"AUCHGHY1IKZZK","Tue Jan 28 2020 08:56:49 GMT-0500 (Eastern Standard Time)","Tue Jan 28 2020 09:04:15 GMT-0500 (Eastern Standard Time)","Mozilla/5.0 (X11; U; U; Linux x86_64; en-us) AppleWebKit/537.36 (KHTML, like Gecko) Chrome/69.0.3497.100 Safari/537.36 Puffin/8.2.1.41222AP",138,"[0.9, 0.5, 0.1]","[0.8, 0.4, 0.2]","[u'blue', u'red', u'black']","[u'left', u'middle', u'right']","[0.8, 0.4, 0.2]","[u'medium', u'low', u'high']","black",51,"right","high","True","False",266,6600,NA
"AUCHGHY1IKZZK","Tue Jan 28 2020 08:56:49 GMT-0500 (Eastern Standard Time)","Tue Jan 28 2020 09:04:15 GMT-0500 (Eastern Standard Time)","Mozilla/5.0 (X11; U; U; Linux x86_64; en-us) AppleWebKit/537.36 (KHTML, like Gecko) Chrome/69.0.3497.100 Safari/537.36 Puffin/8.2.1.41222AP",139,"[0.9, 0.5, 0.1]","[0.8, 0.4, 0.2]","[u'blue', u'red', u'black']","[u'left', u'middle', u'right']","[0.8, 0.4, 0.2]","[u'medium', u'low', u'high']","black",51,"right","high","True","False",163,6700,NA
"AUCHGHY1IKZZK","Tue Jan 28 2020 08:56:49 GMT-0500 (Eastern Standard Time)","Tue Jan 28 2020 09:04:15 GMT-0500 (Eastern Standard Time)","Mozilla/5.0 (X11; U; U; Linux x86_64; en-us) AppleWebKit/537.36 (KHTML, like Gecko) Chrome/69.0.3497.100 Safari/537.36 Puffin/8.2.1.41222AP",140,"[0.9, 0.5, 0.1]","[0.8, 0.4, 0.2]","[u'blue', u'red', u'black']","[u'left', u'middle', u'right']","[0.8, 0.4, 0.2]","[u'medium', u'low', u'high']","black",51,"right","high","True","False",297,6800,NA
"AUCHGHY1IKZZK","Tue Jan 28 2020 08:56:49 GMT-0500 (Eastern Standard Time)","Tue Jan 28 2020 09:04:15 GMT-0500 (Eastern Standard Time)","Mozilla/5.0 (X11; U; U; Linux x86_64; en-us) AppleWebKit/537.36 (KHTML, like Gecko) Chrome/69.0.3497.100 Safari/537.36 Puffin/8.2.1.41222AP",141,"[0.9, 0.5, 0.1]","[0.8, 0.4, 0.2]","[u'blue', u'red', u'black']","[u'left', u'middle', u'right']","[0.8, 0.4, 0.2]","[u'medium', u'low', u'high']","red",50,"middle","low","False","False",126,6750,NA
"AUCHGHY1IKZZK","Tue Jan 28 2020 08:56:49 GMT-0500 (Eastern Standard Time)","Tue Jan 28 2020 09:04:15 GMT-0500 (Eastern Standard Time)","Mozilla/5.0 (X11; U; U; Linux x86_64; en-us) AppleWebKit/537.36 (KHTML, like Gecko) Chrome/69.0.3497.100 Safari/537.36 Puffin/8.2.1.41222AP",142,"[0.9, 0.5, 0.1]","[0.8, 0.4, 0.2]","[u'blue', u'red', u'black']","[u'left', u'middle', u'right']","[0.8, 0.4, 0.2]","[u'medium', u'low', u'high']","black",51,"right","high","True","True",37,6850,NA
"AUCHGHY1IKZZK","Tue Jan 28 2020 08:56:49 GMT-0500 (Eastern Standard Time)","Tue Jan 28 2020 09:04:15 GMT-0500 (Eastern Standard Time)","Mozilla/5.0 (X11; U; U; Linux x86_64; en-us) AppleWebKit/537.36 (KHTML, like Gecko) Chrome/69.0.3497.100 Safari/537.36 Puffin/8.2.1.41222AP",143,"[0.9, 0.5, 0.1]","[0.8, 0.4, 0.2]","[u'blue', u'red', u'black']","[u'left', u'middle', u'right']","[0.8, 0.4, 0.2]","[u'low', u'high', u'medium']","black",51,"right","medium","False","False",113,6800,NA
"AUCHGHY1IKZZK","Tue Jan 28 2020 08:56:49 GMT-0500 (Eastern Standard Time)","Tue Jan 28 2020 09:04:15 GMT-0500 (Eastern Standard Time)","Mozilla/5.0 (X11; U; U; Linux x86_64; en-us) AppleWebKit/537.36 (KHTML, like Gecko) Chrome/69.0.3497.100 Safari/537.36 Puffin/8.2.1.41222AP",144,"[0.9, 0.5, 0.1]","[0.8, 0.4, 0.2]","[u'blue', u'red', u'black']","[u'left', u'middle', u'right']","[0.8, 0.4, 0.2]","[u'low', u'high', u'medium']","red",50,"middle","high","True","False",56,6900,NA
"AUCHGHY1IKZZK","Tue Jan 28 2020 08:56:49 GMT-0500 (Eastern Standard Time)","Tue Jan 28 2020 09:04:15 GMT-0500 (Eastern Standard Time)","Mozilla/5.0 (X11; U; U; Linux x86_64; en-us) AppleWebKit/537.36 (KHTML, like Gecko) Chrome/69.0.3497.100 Safari/537.36 Puffin/8.2.1.41222AP",145,"[0.9, 0.5, 0.1]","[0.8, 0.4, 0.2]","[u'blue', u'red', u'black']","[u'left', u'middle', u'right']","[0.8, 0.4, 0.2]","[u'low', u'high', u'medium']","red",50,"middle","high","True","False",136,7000,NA
"AUCHGHY1IKZZK","Tue Jan 28 2020 08:56:49 GMT-0500 (Eastern Standard Time)","Tue Jan 28 2020 09:04:15 GMT-0500 (Eastern Standard Time)","Mozilla/5.0 (X11; U; U; Linux x86_64; en-us) AppleWebKit/537.36 (KHTML, like Gecko) Chrome/69.0.3497.100 Safari/537.36 Puffin/8.2.1.41222AP",146,"[0.9, 0.5, 0.1]","[0.8, 0.4, 0.2]","[u'blue', u'red', u'black']","[u'left', u'middle', u'right']","[0.8, 0.4, 0.2]","[u'low', u'high', u'medium']","red",50,"middle","high","True","False",279,7100,NA
"AUCHGHY1IKZZK","Tue Jan 28 2020 08:56:49 GMT-0500 (Eastern Standard Time)","Tue Jan 28 2020 09:04:15 GMT-0500 (Eastern Standard Time)","Mozilla/5.0 (X11; U; U; Linux x86_64; en-us) AppleWebKit/537.36 (KHTML, like Gecko) Chrome/69.0.3497.100 Safari/537.36 Puffin/8.2.1.41222AP",147,"[0.9, 0.5, 0.1]","[0.8, 0.4, 0.2]","[u'blue', u'red', u'black']","[u'left', u'middle', u'right']","[0.8, 0.4, 0.2]","[u'low', u'high', u'medium']","red",50,"middle","high","False","False",170,7050,NA
"AUCHGHY1IKZZK","Tue Jan 28 2020 08:56:49 GMT-0500 (Eastern Standard Time)","Tue Jan 28 2020 09:04:15 GMT-0500 (Eastern Standard Time)","Mozilla/5.0 (X11; U; U; Linux x86_64; en-us) AppleWebKit/537.36 (KHTML, like Gecko) Chrome/69.0.3497.100 Safari/537.36 Puffin/8.2.1.41222AP",148,"[0.9, 0.5, 0.1]","[0.8, 0.4, 0.2]","[u'blue', u'red', u'black']","[u'left', u'middle', u'right']","[0.8, 0.4, 0.2]","[u'low', u'high', u'medium']","blue",49,"left","low","True","False",700,7150,NA
"AUCHGHY1IKZZK","Tue Jan 28 2020 08:56:49 GMT-0500 (Eastern Standard Time)","Tue Jan 28 2020 09:04:15 GMT-0500 (Eastern Standard Time)","Mozilla/5.0 (X11; U; U; Linux x86_64; en-us) AppleWebKit/537.36 (KHTML, like Gecko) Chrome/69.0.3497.100 Safari/537.36 Puffin/8.2.1.41222AP",149,"[0.9, 0.5, 0.1]","[0.8, 0.4, 0.2]","[u'blue', u'red', u'black']","[u'left', u'middle', u'right']","[0.8, 0.4, 0.2]","[u'low', u'high', u'medium']","blue",49,"left","low","True","False",23,7250,NA
"AUCHGHY1IKZZK","Tue Jan 28 2020 08:56:49 GMT-0500 (Eastern Standard Time)","Tue Jan 28 2020 09:04:15 GMT-0500 (Eastern Standard Time)","Mozilla/5.0 (X11; U; U; Linux x86_64; en-us) AppleWebKit/537.36 (KHTML, like Gecko) Chrome/69.0.3497.100 Safari/537.36 Puffin/8.2.1.41222AP",150,"[0.9, 0.5, 0.1]","[0.8, 0.4, 0.2]","[u'blue', u'red', u'black']","[u'left', u'middle', u'right']","[0.8, 0.4, 0.2]","[u'low', u'high', u'medium']","blue",49,"left","low","False","False",178,7200,NA
"AUCHGHY1IKZZK","Tue Jan 28 2020 08:56:49 GMT-0500 (Eastern Standard Time)","Tue Jan 28 2020 09:04:15 GMT-0500 (Eastern Standard Time)","Mozilla/5.0 (X11; U; U; Linux x86_64; en-us) AppleWebKit/537.36 (KHTML, like Gecko) Chrome/69.0.3497.100 Safari/537.36 Puffin/8.2.1.41222AP",151,"[0.9, 0.5, 0.1]","[0.8, 0.4, 0.2]","[u'blue', u'red', u'black']","[u'left', u'middle', u'right']","[0.8, 0.4, 0.2]","[u'low', u'high', u'medium']","black",51,"right","medium","True","False",352,7300,NA
"AUCHGHY1IKZZK","Tue Jan 28 2020 08:56:49 GMT-0500 (Eastern Standard Time)","Tue Jan 28 2020 09:04:15 GMT-0500 (Eastern Standard Time)","Mozilla/5.0 (X11; U; U; Linux x86_64; en-us) AppleWebKit/537.36 (KHTML, like Gecko) Chrome/69.0.3497.100 Safari/537.36 Puffin/8.2.1.41222AP",152,"[0.9, 0.5, 0.1]","[0.8, 0.4, 0.2]","[u'blue', u'red', u'black']","[u'left', u'middle', u'right']","[0.8, 0.4, 0.2]","[u'low', u'high', u'medium']","black",51,"right","medium","True","False",83,7400,NA
"AUCHGHY1IKZZK","Tue Jan 28 2020 08:56:49 GMT-0500 (Eastern Standard Time)","Tue Jan 28 2020 09:04:15 GMT-0500 (Eastern Standard Time)","Mozilla/5.0 (X11; U; U; Linux x86_64; en-us) AppleWebKit/537.36 (KHTML, like Gecko) Chrome/69.0.3497.100 Safari/537.36 Puffin/8.2.1.41222AP",153,"[0.9, 0.5, 0.1]","[0.8, 0.4, 0.2]","[u'blue', u'red', u'black']","[u'left', u'middle', u'right']","[0.8, 0.4, 0.2]","[u'low', u'high', u'medium']","black",51,"right","medium","True","False",29,7500,NA
"AUCHGHY1IKZZK","Tue Jan 28 2020 08:56:49 GMT-0500 (Eastern Standard Time)","Tue Jan 28 2020 09:04:15 GMT-0500 (Eastern Standard Time)","Mozilla/5.0 (X11; U; U; Linux x86_64; en-us) AppleWebKit/537.36 (KHTML, like Gecko) Chrome/69.0.3497.100 Safari/537.36 Puffin/8.2.1.41222AP",154,"[0.9, 0.5, 0.1]","[0.8, 0.4, 0.2]","[u'blue', u'red', u'black']","[u'left', u'middle', u'right']","[0.8, 0.4, 0.2]","[u'low', u'high', u'medium']","black",51,"right","medium","True","False",102,7600,NA
"AUCHGHY1IKZZK","Tue Jan 28 2020 08:56:49 GMT-0500 (Eastern Standard Time)","Tue Jan 28 2020 09:04:15 GMT-0500 (Eastern Standard Time)","Mozilla/5.0 (X11; U; U; Linux x86_64; en-us) AppleWebKit/537.36 (KHTML, like Gecko) Chrome/69.0.3497.100 Safari/537.36 Puffin/8.2.1.41222AP",155,"[0.9, 0.5, 0.1]","[0.8, 0.4, 0.2]","[u'blue', u'red', u'black']","[u'left', u'middle', u'right']","[0.8, 0.4, 0.2]","[u'low', u'high', u'medium']","black",51,"right","medium","True","False",517,7700,NA
"AUCHGHY1IKZZK","Tue Jan 28 2020 08:56:49 GMT-0500 (Eastern Standard Time)","Tue Jan 28 2020 09:04:15 GMT-0500 (Eastern Standard Time)","Mozilla/5.0 (X11; U; U; Linux x86_64; en-us) AppleWebKit/537.36 (KHTML, like Gecko) Chrome/69.0.3497.100 Safari/537.36 Puffin/8.2.1.41222AP",156,"[0.9, 0.5, 0.1]","[0.8, 0.4, 0.2]","[u'blue', u'red', u'black']","[u'left', u'middle', u'right']","[0.8, 0.4, 0.2]","[u'low', u'high', u'medium']","red",50,"middle","high","False","False",79,7650,NA
"AUCHGHY1IKZZK","Tue Jan 28 2020 08:56:49 GMT-0500 (Eastern Standard Time)","Tue Jan 28 2020 09:04:15 GMT-0500 (Eastern Standard Time)","Mozilla/5.0 (X11; U; U; Linux x86_64; en-us) AppleWebKit/537.36 (KHTML, like Gecko) Chrome/69.0.3497.100 Safari/537.36 Puffin/8.2.1.41222AP",157,"[0.9, 0.5, 0.1]","[0.8, 0.4, 0.2]","[u'blue', u'red', u'black']","[u'left', u'middle', u'right']","[0.8, 0.4, 0.2]","[u'low', u'high', u'medium']","black",51,"right","medium","False","False",387,7600,NA
"AUCHGHY1IKZZK","Tue Jan 28 2020 08:56:49 GMT-0500 (Eastern Standard Time)","Tue Jan 28 2020 09:04:15 GMT-0500 (Eastern Standard Time)","Mozilla/5.0 (X11; U; U; Linux x86_64; en-us) AppleWebKit/537.36 (KHTML, like Gecko) Chrome/69.0.3497.100 Safari/537.36 Puffin/8.2.1.41222AP",158,"[0.9, 0.5, 0.1]","[0.8, 0.4, 0.2]","[u'blue', u'red', u'black']","[u'left', u'middle', u'right']","[0.8, 0.4, 0.2]","[u'low', u'high', u'medium']","black",51,"right","medium","True","False",275,7700,NA
"AUCHGHY1IKZZK","Tue Jan 28 2020 08:56:49 GMT-0500 (Eastern Standard Time)","Tue Jan 28 2020 09:04:15 GMT-0500 (Eastern Standard Time)","Mozilla/5.0 (X11; U; U; Linux x86_64; en-us) AppleWebKit/537.36 (KHTML, like Gecko) Chrome/69.0.3497.100 Safari/537.36 Puffin/8.2.1.41222AP",159,"[0.9, 0.5, 0.1]","[0.8, 0.4, 0.2]","[u'blue', u'red', u'black']","[u'left', u'middle', u'right']","[0.8, 0.4, 0.2]","[u'low', u'high', u'medium']","black",51,"right","medium","True","False",283,7800,NA
"AUCHGHY1IKZZK","Tue Jan 28 2020 08:56:49 GMT-0500 (Eastern Standard Time)","Tue Jan 28 2020 09:04:15 GMT-0500 (Eastern Standard Time)","Mozilla/5.0 (X11; U; U; Linux x86_64; en-us) AppleWebKit/537.36 (KHTML, like Gecko) Chrome/69.0.3497.100 Safari/537.36 Puffin/8.2.1.41222AP",160,"[0.9, 0.5, 0.1]","[0.8, 0.4, 0.2]","[u'blue', u'red', u'black']","[u'left', u'middle', u'right']","[0.8, 0.4, 0.2]","[u'low', u'high', u'medium']","black",51,"right","medium","True","False",520,7900,NA
