"src_subject_id","start_time","end_time","browser","index","first_half_probabilities","second_half_probabilities","deck_color","deck_position","deck_probabilities","deck_contingencies","response_color","key_press","response_position","response_probability","reward_type","trial_type","rt","reward_tally","exclusion_reason"
"A2G7F8S617H0BB","Thu Sep 17 2020 14:10:37 GMT-0700 (Pacific Daylight Time)","Thu Sep 17 2020 14:16:24 GMT-0700 (Pacific Daylight Time)","Mozilla/5.0 (X11; CrOS x86_64 13310.59.0) AppleWebKit/537.36 (KHTML, like Gecko) Chrome/85.0.4183.84 Safari/537.36",1,"[0.9, 0.5, 0.1]","[0.8, 0.4, 0.2]","[u'blue', u'black', u'red']","[u'left', u'middle', u'right']","[0.9, 0.5, 0.1]","[u'high', u'low', u'medium']","black",50,"middle","low","False","False",740,-50,NA
"A2G7F8S617H0BB","Thu Sep 17 2020 14:10:37 GMT-0700 (Pacific Daylight Time)","Thu Sep 17 2020 14:16:24 GMT-0700 (Pacific Daylight Time)","Mozilla/5.0 (X11; CrOS x86_64 13310.59.0) AppleWebKit/537.36 (KHTML, like Gecko) Chrome/85.0.4183.84 Safari/537.36",2,"[0.9, 0.5, 0.1]","[0.8, 0.4, 0.2]","[u'blue', u'black', u'red']","[u'left', u'middle', u'right']","[0.9, 0.5, 0.1]","[u'high', u'low', u'medium']","red",51,"right","medium","True","False",288,50,NA
"A2G7F8S617H0BB","Thu Sep 17 2020 14:10:37 GMT-0700 (Pacific Daylight Time)","Thu Sep 17 2020 14:16:24 GMT-0700 (Pacific Daylight Time)","Mozilla/5.0 (X11; CrOS x86_64 13310.59.0) AppleWebKit/537.36 (KHTML, like Gecko) Chrome/85.0.4183.84 Safari/537.36",3,"[0.9, 0.5, 0.1]","[0.8, 0.4, 0.2]","[u'blue', u'black', u'red']","[u'left', u'middle', u'right']","[0.9, 0.5, 0.1]","[u'high', u'low', u'medium']","red",51,"right","medium","False","False",227,0,NA
"A2G7F8S617H0BB","Thu Sep 17 2020 14:10:37 GMT-0700 (Pacific Daylight Time)","Thu Sep 17 2020 14:16:24 GMT-0700 (Pacific Daylight Time)","Mozilla/5.0 (X11; CrOS x86_64 13310.59.0) AppleWebKit/537.36 (KHTML, like Gecko) Chrome/85.0.4183.84 Safari/537.36",4,"[0.9, 0.5, 0.1]","[0.8, 0.4, 0.2]","[u'blue', u'black', u'red']","[u'left', u'middle', u'right']","[0.9, 0.5, 0.1]","[u'high', u'low', u'medium']","red",51,"right","medium","True","False",194,100,NA
"A2G7F8S617H0BB","Thu Sep 17 2020 14:10:37 GMT-0700 (Pacific Daylight Time)","Thu Sep 17 2020 14:16:24 GMT-0700 (Pacific Daylight Time)","Mozilla/5.0 (X11; CrOS x86_64 13310.59.0) AppleWebKit/537.36 (KHTML, like Gecko) Chrome/85.0.4183.84 Safari/537.36",5,"[0.9, 0.5, 0.1]","[0.8, 0.4, 0.2]","[u'blue', u'black', u'red']","[u'left', u'middle', u'right']","[0.9, 0.5, 0.1]","[u'high', u'low', u'medium']","red",51,"right","medium","False","False",202,50,NA
"A2G7F8S617H0BB","Thu Sep 17 2020 14:10:37 GMT-0700 (Pacific Daylight Time)","Thu Sep 17 2020 14:16:24 GMT-0700 (Pacific Daylight Time)","Mozilla/5.0 (X11; CrOS x86_64 13310.59.0) AppleWebKit/537.36 (KHTML, like Gecko) Chrome/85.0.4183.84 Safari/537.36",6,"[0.9, 0.5, 0.1]","[0.8, 0.4, 0.2]","[u'blue', u'black', u'red']","[u'left', u'middle', u'right']","[0.9, 0.5, 0.1]","[u'high', u'low', u'medium']","red",51,"right","medium","True","False",22,150,NA
"A2G7F8S617H0BB","Thu Sep 17 2020 14:10:37 GMT-0700 (Pacific Daylight Time)","Thu Sep 17 2020 14:16:24 GMT-0700 (Pacific Daylight Time)","Mozilla/5.0 (X11; CrOS x86_64 13310.59.0) AppleWebKit/537.36 (KHTML, like Gecko) Chrome/85.0.4183.84 Safari/537.36",7,"[0.9, 0.5, 0.1]","[0.8, 0.4, 0.2]","[u'blue', u'black', u'red']","[u'left', u'middle', u'right']","[0.9, 0.5, 0.1]","[u'high', u'low', u'medium']","blue",49,"left","high","True","False",27,250,NA
"A2G7F8S617H0BB","Thu Sep 17 2020 14:10:37 GMT-0700 (Pacific Daylight Time)","Thu Sep 17 2020 14:16:24 GMT-0700 (Pacific Daylight Time)","Mozilla/5.0 (X11; CrOS x86_64 13310.59.0) AppleWebKit/537.36 (KHTML, like Gecko) Chrome/85.0.4183.84 Safari/537.36",8,"[0.9, 0.5, 0.1]","[0.8, 0.4, 0.2]","[u'blue', u'black', u'red']","[u'left', u'middle', u'right']","[0.9, 0.5, 0.1]","[u'high', u'low', u'medium']","blue",49,"left","high","False","False",43,200,NA
"A2G7F8S617H0BB","Thu Sep 17 2020 14:10:37 GMT-0700 (Pacific Daylight Time)","Thu Sep 17 2020 14:16:24 GMT-0700 (Pacific Daylight Time)","Mozilla/5.0 (X11; CrOS x86_64 13310.59.0) AppleWebKit/537.36 (KHTML, like Gecko) Chrome/85.0.4183.84 Safari/537.36",9,"[0.9, 0.5, 0.1]","[0.8, 0.4, 0.2]","[u'blue', u'black', u'red']","[u'left', u'middle', u'right']","[0.9, 0.5, 0.1]","[u'high', u'low', u'medium']","blue",49,"left","high","False","False",13,150,NA
"A2G7F8S617H0BB","Thu Sep 17 2020 14:10:37 GMT-0700 (Pacific Daylight Time)","Thu Sep 17 2020 14:16:24 GMT-0700 (Pacific Daylight Time)","Mozilla/5.0 (X11; CrOS x86_64 13310.59.0) AppleWebKit/537.36 (KHTML, like Gecko) Chrome/85.0.4183.84 Safari/537.36",10,"[0.9, 0.5, 0.1]","[0.8, 0.4, 0.2]","[u'blue', u'black', u'red']","[u'left', u'middle', u'right']","[0.9, 0.5, 0.1]","[u'high', u'low', u'medium']","blue",49,"left","high","True","False",21,250,NA
"A2G7F8S617H0BB","Thu Sep 17 2020 14:10:37 GMT-0700 (Pacific Daylight Time)","Thu Sep 17 2020 14:16:24 GMT-0700 (Pacific Daylight Time)","Mozilla/5.0 (X11; CrOS x86_64 13310.59.0) AppleWebKit/537.36 (KHTML, like Gecko) Chrome/85.0.4183.84 Safari/537.36",11,"[0.9, 0.5, 0.1]","[0.8, 0.4, 0.2]","[u'blue', u'black', u'red']","[u'left', u'middle', u'right']","[0.9, 0.5, 0.1]","[u'high', u'low', u'medium']","black",50,"middle","low","False","False",263,200,NA
"A2G7F8S617H0BB","Thu Sep 17 2020 14:10:37 GMT-0700 (Pacific Daylight Time)","Thu Sep 17 2020 14:16:24 GMT-0700 (Pacific Daylight Time)","Mozilla/5.0 (X11; CrOS x86_64 13310.59.0) AppleWebKit/537.36 (KHTML, like Gecko) Chrome/85.0.4183.84 Safari/537.36",12,"[0.9, 0.5, 0.1]","[0.8, 0.4, 0.2]","[u'blue', u'black', u'red']","[u'left', u'middle', u'right']","[0.9, 0.5, 0.1]","[u'high', u'low', u'medium']","black",50,"middle","low","False","False",95,150,NA
"A2G7F8S617H0BB","Thu Sep 17 2020 14:10:37 GMT-0700 (Pacific Daylight Time)","Thu Sep 17 2020 14:16:24 GMT-0700 (Pacific Daylight Time)","Mozilla/5.0 (X11; CrOS x86_64 13310.59.0) AppleWebKit/537.36 (KHTML, like Gecko) Chrome/85.0.4183.84 Safari/537.36",13,"[0.9, 0.5, 0.1]","[0.8, 0.4, 0.2]","[u'blue', u'black', u'red']","[u'left', u'middle', u'right']","[0.9, 0.5, 0.1]","[u'high', u'low', u'medium']","red",51,"right","medium","True","False",206,250,NA
"A2G7F8S617H0BB","Thu Sep 17 2020 14:10:37 GMT-0700 (Pacific Daylight Time)","Thu Sep 17 2020 14:16:24 GMT-0700 (Pacific Daylight Time)","Mozilla/5.0 (X11; CrOS x86_64 13310.59.0) AppleWebKit/537.36 (KHTML, like Gecko) Chrome/85.0.4183.84 Safari/537.36",14,"[0.9, 0.5, 0.1]","[0.8, 0.4, 0.2]","[u'blue', u'black', u'red']","[u'left', u'middle', u'right']","[0.9, 0.5, 0.1]","[u'high', u'low', u'medium']","red",51,"right","medium","False","False",37,200,NA
"A2G7F8S617H0BB","Thu Sep 17 2020 14:10:37 GMT-0700 (Pacific Daylight Time)","Thu Sep 17 2020 14:16:24 GMT-0700 (Pacific Daylight Time)","Mozilla/5.0 (X11; CrOS x86_64 13310.59.0) AppleWebKit/537.36 (KHTML, like Gecko) Chrome/85.0.4183.84 Safari/537.36",15,"[0.9, 0.5, 0.1]","[0.8, 0.4, 0.2]","[u'blue', u'black', u'red']","[u'left', u'middle', u'right']","[0.9, 0.5, 0.1]","[u'high', u'low', u'medium']","red",51,"right","medium","True","False",96,300,NA
"A2G7F8S617H0BB","Thu Sep 17 2020 14:10:37 GMT-0700 (Pacific Daylight Time)","Thu Sep 17 2020 14:16:24 GMT-0700 (Pacific Daylight Time)","Mozilla/5.0 (X11; CrOS x86_64 13310.59.0) AppleWebKit/537.36 (KHTML, like Gecko) Chrome/85.0.4183.84 Safari/537.36",16,"[0.9, 0.5, 0.1]","[0.8, 0.4, 0.2]","[u'blue', u'black', u'red']","[u'left', u'middle', u'right']","[0.9, 0.5, 0.1]","[u'high', u'low', u'medium']","red",51,"right","medium","True","False",115,400,NA
"A2G7F8S617H0BB","Thu Sep 17 2020 14:10:37 GMT-0700 (Pacific Daylight Time)","Thu Sep 17 2020 14:16:24 GMT-0700 (Pacific Daylight Time)","Mozilla/5.0 (X11; CrOS x86_64 13310.59.0) AppleWebKit/537.36 (KHTML, like Gecko) Chrome/85.0.4183.84 Safari/537.36",17,"[0.9, 0.5, 0.1]","[0.8, 0.4, 0.2]","[u'blue', u'black', u'red']","[u'left', u'middle', u'right']","[0.9, 0.5, 0.1]","[u'high', u'low', u'medium']","red",51,"right","medium","True","False",161,500,NA
"A2G7F8S617H0BB","Thu Sep 17 2020 14:10:37 GMT-0700 (Pacific Daylight Time)","Thu Sep 17 2020 14:16:24 GMT-0700 (Pacific Daylight Time)","Mozilla/5.0 (X11; CrOS x86_64 13310.59.0) AppleWebKit/537.36 (KHTML, like Gecko) Chrome/85.0.4183.84 Safari/537.36",18,"[0.9, 0.5, 0.1]","[0.8, 0.4, 0.2]","[u'blue', u'black', u'red']","[u'left', u'middle', u'right']","[0.9, 0.5, 0.1]","[u'high', u'low', u'medium']","red",51,"right","medium","True","False",67,600,NA
"A2G7F8S617H0BB","Thu Sep 17 2020 14:10:37 GMT-0700 (Pacific Daylight Time)","Thu Sep 17 2020 14:16:24 GMT-0700 (Pacific Daylight Time)","Mozilla/5.0 (X11; CrOS x86_64 13310.59.0) AppleWebKit/537.36 (KHTML, like Gecko) Chrome/85.0.4183.84 Safari/537.36",19,"[0.9, 0.5, 0.1]","[0.8, 0.4, 0.2]","[u'blue', u'black', u'red']","[u'left', u'middle', u'right']","[0.9, 0.5, 0.1]","[u'high', u'low', u'medium']","red",51,"right","medium","True","False",232,700,NA
"A2G7F8S617H0BB","Thu Sep 17 2020 14:10:37 GMT-0700 (Pacific Daylight Time)","Thu Sep 17 2020 14:16:24 GMT-0700 (Pacific Daylight Time)","Mozilla/5.0 (X11; CrOS x86_64 13310.59.0) AppleWebKit/537.36 (KHTML, like Gecko) Chrome/85.0.4183.84 Safari/537.36",20,"[0.9, 0.5, 0.1]","[0.8, 0.4, 0.2]","[u'blue', u'black', u'red']","[u'left', u'middle', u'right']","[0.9, 0.5, 0.1]","[u'high', u'low', u'medium']","red",51,"right","medium","False","False",129,650,NA
"A2G7F8S617H0BB","Thu Sep 17 2020 14:10:37 GMT-0700 (Pacific Daylight Time)","Thu Sep 17 2020 14:16:24 GMT-0700 (Pacific Daylight Time)","Mozilla/5.0 (X11; CrOS x86_64 13310.59.0) AppleWebKit/537.36 (KHTML, like Gecko) Chrome/85.0.4183.84 Safari/537.36",21,"[0.9, 0.5, 0.1]","[0.8, 0.4, 0.2]","[u'blue', u'black', u'red']","[u'left', u'middle', u'right']","[0.9, 0.5, 0.1]","[u'high', u'low', u'medium']","red",51,"right","medium","True","False",27,750,NA
"A2G7F8S617H0BB","Thu Sep 17 2020 14:10:37 GMT-0700 (Pacific Daylight Time)","Thu Sep 17 2020 14:16:24 GMT-0700 (Pacific Daylight Time)","Mozilla/5.0 (X11; CrOS x86_64 13310.59.0) AppleWebKit/537.36 (KHTML, like Gecko) Chrome/85.0.4183.84 Safari/537.36",22,"[0.9, 0.5, 0.1]","[0.8, 0.4, 0.2]","[u'blue', u'black', u'red']","[u'left', u'middle', u'right']","[0.9, 0.5, 0.1]","[u'high', u'low', u'medium']","red",51,"right","medium","True","False",9,850,NA
"A2G7F8S617H0BB","Thu Sep 17 2020 14:10:37 GMT-0700 (Pacific Daylight Time)","Thu Sep 17 2020 14:16:24 GMT-0700 (Pacific Daylight Time)","Mozilla/5.0 (X11; CrOS x86_64 13310.59.0) AppleWebKit/537.36 (KHTML, like Gecko) Chrome/85.0.4183.84 Safari/537.36",23,"[0.9, 0.5, 0.1]","[0.8, 0.4, 0.2]","[u'blue', u'black', u'red']","[u'left', u'middle', u'right']","[0.9, 0.5, 0.1]","[u'high', u'low', u'medium']","red",51,"right","medium","True","False",267,950,NA
"A2G7F8S617H0BB","Thu Sep 17 2020 14:10:37 GMT-0700 (Pacific Daylight Time)","Thu Sep 17 2020 14:16:24 GMT-0700 (Pacific Daylight Time)","Mozilla/5.0 (X11; CrOS x86_64 13310.59.0) AppleWebKit/537.36 (KHTML, like Gecko) Chrome/85.0.4183.84 Safari/537.36",24,"[0.9, 0.5, 0.1]","[0.8, 0.4, 0.2]","[u'blue', u'black', u'red']","[u'left', u'middle', u'right']","[0.9, 0.5, 0.1]","[u'high', u'low', u'medium']","red",51,"right","medium","True","False",167,1050,NA
"A2G7F8S617H0BB","Thu Sep 17 2020 14:10:37 GMT-0700 (Pacific Daylight Time)","Thu Sep 17 2020 14:16:24 GMT-0700 (Pacific Daylight Time)","Mozilla/5.0 (X11; CrOS x86_64 13310.59.0) AppleWebKit/537.36 (KHTML, like Gecko) Chrome/85.0.4183.84 Safari/537.36",25,"[0.9, 0.5, 0.1]","[0.8, 0.4, 0.2]","[u'blue', u'black', u'red']","[u'left', u'middle', u'right']","[0.9, 0.5, 0.1]","[u'high', u'low', u'medium']","red",51,"right","medium","False","False",85,1000,NA
"A2G7F8S617H0BB","Thu Sep 17 2020 14:10:37 GMT-0700 (Pacific Daylight Time)","Thu Sep 17 2020 14:16:24 GMT-0700 (Pacific Daylight Time)","Mozilla/5.0 (X11; CrOS x86_64 13310.59.0) AppleWebKit/537.36 (KHTML, like Gecko) Chrome/85.0.4183.84 Safari/537.36",26,"[0.9, 0.5, 0.1]","[0.8, 0.4, 0.2]","[u'blue', u'black', u'red']","[u'left', u'middle', u'right']","[0.9, 0.5, 0.1]","[u'high', u'low', u'medium']","red",51,"right","medium","True","False",38,1100,NA
"A2G7F8S617H0BB","Thu Sep 17 2020 14:10:37 GMT-0700 (Pacific Daylight Time)","Thu Sep 17 2020 14:16:24 GMT-0700 (Pacific Daylight Time)","Mozilla/5.0 (X11; CrOS x86_64 13310.59.0) AppleWebKit/537.36 (KHTML, like Gecko) Chrome/85.0.4183.84 Safari/537.36",27,"[0.9, 0.5, 0.1]","[0.8, 0.4, 0.2]","[u'blue', u'black', u'red']","[u'left', u'middle', u'right']","[0.9, 0.5, 0.1]","[u'high', u'low', u'medium']","red",51,"right","medium","True","False",152,1200,NA
"A2G7F8S617H0BB","Thu Sep 17 2020 14:10:37 GMT-0700 (Pacific Daylight Time)","Thu Sep 17 2020 14:16:24 GMT-0700 (Pacific Daylight Time)","Mozilla/5.0 (X11; CrOS x86_64 13310.59.0) AppleWebKit/537.36 (KHTML, like Gecko) Chrome/85.0.4183.84 Safari/537.36",28,"[0.9, 0.5, 0.1]","[0.8, 0.4, 0.2]","[u'blue', u'black', u'red']","[u'left', u'middle', u'right']","[0.9, 0.5, 0.1]","[u'high', u'low', u'medium']","red",51,"right","medium","False","False",159,1150,NA
"A2G7F8S617H0BB","Thu Sep 17 2020 14:10:37 GMT-0700 (Pacific Daylight Time)","Thu Sep 17 2020 14:16:24 GMT-0700 (Pacific Daylight Time)","Mozilla/5.0 (X11; CrOS x86_64 13310.59.0) AppleWebKit/537.36 (KHTML, like Gecko) Chrome/85.0.4183.84 Safari/537.36",29,"[0.9, 0.5, 0.1]","[0.8, 0.4, 0.2]","[u'blue', u'black', u'red']","[u'left', u'middle', u'right']","[0.9, 0.5, 0.1]","[u'high', u'low', u'medium']","red",51,"right","medium","True","False",41,1250,NA
"A2G7F8S617H0BB","Thu Sep 17 2020 14:10:37 GMT-0700 (Pacific Daylight Time)","Thu Sep 17 2020 14:16:24 GMT-0700 (Pacific Daylight Time)","Mozilla/5.0 (X11; CrOS x86_64 13310.59.0) AppleWebKit/537.36 (KHTML, like Gecko) Chrome/85.0.4183.84 Safari/537.36",30,"[0.9, 0.5, 0.1]","[0.8, 0.4, 0.2]","[u'blue', u'black', u'red']","[u'left', u'middle', u'right']","[0.9, 0.5, 0.1]","[u'high', u'low', u'medium']","red",51,"right","medium","False","False",53,1200,NA
"A2G7F8S617H0BB","Thu Sep 17 2020 14:10:37 GMT-0700 (Pacific Daylight Time)","Thu Sep 17 2020 14:16:24 GMT-0700 (Pacific Daylight Time)","Mozilla/5.0 (X11; CrOS x86_64 13310.59.0) AppleWebKit/537.36 (KHTML, like Gecko) Chrome/85.0.4183.84 Safari/537.36",31,"[0.9, 0.5, 0.1]","[0.8, 0.4, 0.2]","[u'blue', u'black', u'red']","[u'left', u'middle', u'right']","[0.9, 0.5, 0.1]","[u'high', u'low', u'medium']","red",51,"right","medium","True","False",34,1300,NA
"A2G7F8S617H0BB","Thu Sep 17 2020 14:10:37 GMT-0700 (Pacific Daylight Time)","Thu Sep 17 2020 14:16:24 GMT-0700 (Pacific Daylight Time)","Mozilla/5.0 (X11; CrOS x86_64 13310.59.0) AppleWebKit/537.36 (KHTML, like Gecko) Chrome/85.0.4183.84 Safari/537.36",32,"[0.9, 0.5, 0.1]","[0.8, 0.4, 0.2]","[u'blue', u'black', u'red']","[u'left', u'middle', u'right']","[0.9, 0.5, 0.1]","[u'high', u'low', u'medium']","red",51,"right","medium","True","False",86,1400,NA
"A2G7F8S617H0BB","Thu Sep 17 2020 14:10:37 GMT-0700 (Pacific Daylight Time)","Thu Sep 17 2020 14:16:24 GMT-0700 (Pacific Daylight Time)","Mozilla/5.0 (X11; CrOS x86_64 13310.59.0) AppleWebKit/537.36 (KHTML, like Gecko) Chrome/85.0.4183.84 Safari/537.36",33,"[0.9, 0.5, 0.1]","[0.8, 0.4, 0.2]","[u'blue', u'black', u'red']","[u'left', u'middle', u'right']","[0.9, 0.5, 0.1]","[u'high', u'low', u'medium']","red",51,"right","medium","True","False",67,1500,NA
"A2G7F8S617H0BB","Thu Sep 17 2020 14:10:37 GMT-0700 (Pacific Daylight Time)","Thu Sep 17 2020 14:16:24 GMT-0700 (Pacific Daylight Time)","Mozilla/5.0 (X11; CrOS x86_64 13310.59.0) AppleWebKit/537.36 (KHTML, like Gecko) Chrome/85.0.4183.84 Safari/537.36",34,"[0.9, 0.5, 0.1]","[0.8, 0.4, 0.2]","[u'blue', u'black', u'red']","[u'left', u'middle', u'right']","[0.9, 0.5, 0.1]","[u'high', u'low', u'medium']","red",51,"right","medium","False","False",133,1450,NA
"A2G7F8S617H0BB","Thu Sep 17 2020 14:10:37 GMT-0700 (Pacific Daylight Time)","Thu Sep 17 2020 14:16:24 GMT-0700 (Pacific Daylight Time)","Mozilla/5.0 (X11; CrOS x86_64 13310.59.0) AppleWebKit/537.36 (KHTML, like Gecko) Chrome/85.0.4183.84 Safari/537.36",35,"[0.9, 0.5, 0.1]","[0.8, 0.4, 0.2]","[u'blue', u'black', u'red']","[u'left', u'middle', u'right']","[0.9, 0.5, 0.1]","[u'high', u'low', u'medium']","red",51,"right","medium","False","False",51,1400,NA
"A2G7F8S617H0BB","Thu Sep 17 2020 14:10:37 GMT-0700 (Pacific Daylight Time)","Thu Sep 17 2020 14:16:24 GMT-0700 (Pacific Daylight Time)","Mozilla/5.0 (X11; CrOS x86_64 13310.59.0) AppleWebKit/537.36 (KHTML, like Gecko) Chrome/85.0.4183.84 Safari/537.36",36,"[0.9, 0.5, 0.1]","[0.8, 0.4, 0.2]","[u'blue', u'black', u'red']","[u'left', u'middle', u'right']","[0.9, 0.5, 0.1]","[u'high', u'low', u'medium']","red",51,"right","medium","True","False",99,1500,NA
"A2G7F8S617H0BB","Thu Sep 17 2020 14:10:37 GMT-0700 (Pacific Daylight Time)","Thu Sep 17 2020 14:16:24 GMT-0700 (Pacific Daylight Time)","Mozilla/5.0 (X11; CrOS x86_64 13310.59.0) AppleWebKit/537.36 (KHTML, like Gecko) Chrome/85.0.4183.84 Safari/537.36",37,"[0.9, 0.5, 0.1]","[0.8, 0.4, 0.2]","[u'blue', u'black', u'red']","[u'left', u'middle', u'right']","[0.9, 0.5, 0.1]","[u'high', u'low', u'medium']","red",51,"right","medium","True","False",80,1600,NA
"A2G7F8S617H0BB","Thu Sep 17 2020 14:10:37 GMT-0700 (Pacific Daylight Time)","Thu Sep 17 2020 14:16:24 GMT-0700 (Pacific Daylight Time)","Mozilla/5.0 (X11; CrOS x86_64 13310.59.0) AppleWebKit/537.36 (KHTML, like Gecko) Chrome/85.0.4183.84 Safari/537.36",38,"[0.9, 0.5, 0.1]","[0.8, 0.4, 0.2]","[u'blue', u'black', u'red']","[u'left', u'middle', u'right']","[0.9, 0.5, 0.1]","[u'high', u'low', u'medium']","red",51,"right","medium","False","False",102,1550,NA
"A2G7F8S617H0BB","Thu Sep 17 2020 14:10:37 GMT-0700 (Pacific Daylight Time)","Thu Sep 17 2020 14:16:24 GMT-0700 (Pacific Daylight Time)","Mozilla/5.0 (X11; CrOS x86_64 13310.59.0) AppleWebKit/537.36 (KHTML, like Gecko) Chrome/85.0.4183.84 Safari/537.36",39,"[0.9, 0.5, 0.1]","[0.8, 0.4, 0.2]","[u'blue', u'black', u'red']","[u'left', u'middle', u'right']","[0.9, 0.5, 0.1]","[u'high', u'low', u'medium']","red",51,"right","medium","False","False",90,1500,NA
"A2G7F8S617H0BB","Thu Sep 17 2020 14:10:37 GMT-0700 (Pacific Daylight Time)","Thu Sep 17 2020 14:16:24 GMT-0700 (Pacific Daylight Time)","Mozilla/5.0 (X11; CrOS x86_64 13310.59.0) AppleWebKit/537.36 (KHTML, like Gecko) Chrome/85.0.4183.84 Safari/537.36",40,"[0.9, 0.5, 0.1]","[0.8, 0.4, 0.2]","[u'blue', u'black', u'red']","[u'left', u'middle', u'right']","[0.9, 0.5, 0.1]","[u'high', u'low', u'medium']","black",50,"middle","low","False","False",60,1450,NA
"A2G7F8S617H0BB","Thu Sep 17 2020 14:10:37 GMT-0700 (Pacific Daylight Time)","Thu Sep 17 2020 14:16:24 GMT-0700 (Pacific Daylight Time)","Mozilla/5.0 (X11; CrOS x86_64 13310.59.0) AppleWebKit/537.36 (KHTML, like Gecko) Chrome/85.0.4183.84 Safari/537.36",41,"[0.9, 0.5, 0.1]","[0.8, 0.4, 0.2]","[u'blue', u'black', u'red']","[u'left', u'middle', u'right']","[0.9, 0.5, 0.1]","[u'medium', u'high', u'low']","black",50,"middle","high","False","False",524,1400,NA
"A2G7F8S617H0BB","Thu Sep 17 2020 14:10:37 GMT-0700 (Pacific Daylight Time)","Thu Sep 17 2020 14:16:24 GMT-0700 (Pacific Daylight Time)","Mozilla/5.0 (X11; CrOS x86_64 13310.59.0) AppleWebKit/537.36 (KHTML, like Gecko) Chrome/85.0.4183.84 Safari/537.36",42,"[0.9, 0.5, 0.1]","[0.8, 0.4, 0.2]","[u'blue', u'black', u'red']","[u'left', u'middle', u'right']","[0.9, 0.5, 0.1]","[u'medium', u'high', u'low']","black",50,"middle","high","True","False",23,1500,NA
"A2G7F8S617H0BB","Thu Sep 17 2020 14:10:37 GMT-0700 (Pacific Daylight Time)","Thu Sep 17 2020 14:16:24 GMT-0700 (Pacific Daylight Time)","Mozilla/5.0 (X11; CrOS x86_64 13310.59.0) AppleWebKit/537.36 (KHTML, like Gecko) Chrome/85.0.4183.84 Safari/537.36",43,"[0.9, 0.5, 0.1]","[0.8, 0.4, 0.2]","[u'blue', u'black', u'red']","[u'left', u'middle', u'right']","[0.9, 0.5, 0.1]","[u'medium', u'high', u'low']","black",50,"middle","high","True","False",7,1600,NA
"A2G7F8S617H0BB","Thu Sep 17 2020 14:10:37 GMT-0700 (Pacific Daylight Time)","Thu Sep 17 2020 14:16:24 GMT-0700 (Pacific Daylight Time)","Mozilla/5.0 (X11; CrOS x86_64 13310.59.0) AppleWebKit/537.36 (KHTML, like Gecko) Chrome/85.0.4183.84 Safari/537.36",44,"[0.9, 0.5, 0.1]","[0.8, 0.4, 0.2]","[u'blue', u'black', u'red']","[u'left', u'middle', u'right']","[0.9, 0.5, 0.1]","[u'medium', u'high', u'low']","black",50,"middle","high","False","False",350,1550,NA
"A2G7F8S617H0BB","Thu Sep 17 2020 14:10:37 GMT-0700 (Pacific Daylight Time)","Thu Sep 17 2020 14:16:24 GMT-0700 (Pacific Daylight Time)","Mozilla/5.0 (X11; CrOS x86_64 13310.59.0) AppleWebKit/537.36 (KHTML, like Gecko) Chrome/85.0.4183.84 Safari/537.36",45,"[0.9, 0.5, 0.1]","[0.8, 0.4, 0.2]","[u'blue', u'black', u'red']","[u'left', u'middle', u'right']","[0.9, 0.5, 0.1]","[u'medium', u'high', u'low']","black",50,"middle","high","False","False",94,1500,NA
"A2G7F8S617H0BB","Thu Sep 17 2020 14:10:37 GMT-0700 (Pacific Daylight Time)","Thu Sep 17 2020 14:16:24 GMT-0700 (Pacific Daylight Time)","Mozilla/5.0 (X11; CrOS x86_64 13310.59.0) AppleWebKit/537.36 (KHTML, like Gecko) Chrome/85.0.4183.84 Safari/537.36",46,"[0.9, 0.5, 0.1]","[0.8, 0.4, 0.2]","[u'blue', u'black', u'red']","[u'left', u'middle', u'right']","[0.9, 0.5, 0.1]","[u'medium', u'high', u'low']","black",50,"middle","high","True","False",67,1600,NA
"A2G7F8S617H0BB","Thu Sep 17 2020 14:10:37 GMT-0700 (Pacific Daylight Time)","Thu Sep 17 2020 14:16:24 GMT-0700 (Pacific Daylight Time)","Mozilla/5.0 (X11; CrOS x86_64 13310.59.0) AppleWebKit/537.36 (KHTML, like Gecko) Chrome/85.0.4183.84 Safari/537.36",47,"[0.9, 0.5, 0.1]","[0.8, 0.4, 0.2]","[u'blue', u'black', u'red']","[u'left', u'middle', u'right']","[0.9, 0.5, 0.1]","[u'medium', u'high', u'low']","blue",49,"left","medium","False","False",64,1550,NA
"A2G7F8S617H0BB","Thu Sep 17 2020 14:10:37 GMT-0700 (Pacific Daylight Time)","Thu Sep 17 2020 14:16:24 GMT-0700 (Pacific Daylight Time)","Mozilla/5.0 (X11; CrOS x86_64 13310.59.0) AppleWebKit/537.36 (KHTML, like Gecko) Chrome/85.0.4183.84 Safari/537.36",48,"[0.9, 0.5, 0.1]","[0.8, 0.4, 0.2]","[u'blue', u'black', u'red']","[u'left', u'middle', u'right']","[0.9, 0.5, 0.1]","[u'medium', u'high', u'low']","blue",49,"left","medium","True","False",123,1650,NA
"A2G7F8S617H0BB","Thu Sep 17 2020 14:10:37 GMT-0700 (Pacific Daylight Time)","Thu Sep 17 2020 14:16:24 GMT-0700 (Pacific Daylight Time)","Mozilla/5.0 (X11; CrOS x86_64 13310.59.0) AppleWebKit/537.36 (KHTML, like Gecko) Chrome/85.0.4183.84 Safari/537.36",49,"[0.9, 0.5, 0.1]","[0.8, 0.4, 0.2]","[u'blue', u'black', u'red']","[u'left', u'middle', u'right']","[0.9, 0.5, 0.1]","[u'medium', u'high', u'low']","blue",49,"left","medium","False","False",58,1600,NA
"A2G7F8S617H0BB","Thu Sep 17 2020 14:10:37 GMT-0700 (Pacific Daylight Time)","Thu Sep 17 2020 14:16:24 GMT-0700 (Pacific Daylight Time)","Mozilla/5.0 (X11; CrOS x86_64 13310.59.0) AppleWebKit/537.36 (KHTML, like Gecko) Chrome/85.0.4183.84 Safari/537.36",50,"[0.9, 0.5, 0.1]","[0.8, 0.4, 0.2]","[u'blue', u'black', u'red']","[u'left', u'middle', u'right']","[0.9, 0.5, 0.1]","[u'medium', u'high', u'low']","blue",49,"left","medium","False","False",50,1550,NA
"A2G7F8S617H0BB","Thu Sep 17 2020 14:10:37 GMT-0700 (Pacific Daylight Time)","Thu Sep 17 2020 14:16:24 GMT-0700 (Pacific Daylight Time)","Mozilla/5.0 (X11; CrOS x86_64 13310.59.0) AppleWebKit/537.36 (KHTML, like Gecko) Chrome/85.0.4183.84 Safari/537.36",51,"[0.9, 0.5, 0.1]","[0.8, 0.4, 0.2]","[u'blue', u'black', u'red']","[u'left', u'middle', u'right']","[0.9, 0.5, 0.1]","[u'medium', u'high', u'low']","red",51,"right","low","False","False",300,1500,NA
"A2G7F8S617H0BB","Thu Sep 17 2020 14:10:37 GMT-0700 (Pacific Daylight Time)","Thu Sep 17 2020 14:16:24 GMT-0700 (Pacific Daylight Time)","Mozilla/5.0 (X11; CrOS x86_64 13310.59.0) AppleWebKit/537.36 (KHTML, like Gecko) Chrome/85.0.4183.84 Safari/537.36",52,"[0.9, 0.5, 0.1]","[0.8, 0.4, 0.2]","[u'blue', u'black', u'red']","[u'left', u'middle', u'right']","[0.9, 0.5, 0.1]","[u'medium', u'high', u'low']","red",51,"right","low","False","False",45,1450,NA
"A2G7F8S617H0BB","Thu Sep 17 2020 14:10:37 GMT-0700 (Pacific Daylight Time)","Thu Sep 17 2020 14:16:24 GMT-0700 (Pacific Daylight Time)","Mozilla/5.0 (X11; CrOS x86_64 13310.59.0) AppleWebKit/537.36 (KHTML, like Gecko) Chrome/85.0.4183.84 Safari/537.36",53,"[0.9, 0.5, 0.1]","[0.8, 0.4, 0.2]","[u'blue', u'black', u'red']","[u'left', u'middle', u'right']","[0.9, 0.5, 0.1]","[u'medium', u'high', u'low']","red",51,"right","low","False","False",62,1400,NA
"A2G7F8S617H0BB","Thu Sep 17 2020 14:10:37 GMT-0700 (Pacific Daylight Time)","Thu Sep 17 2020 14:16:24 GMT-0700 (Pacific Daylight Time)","Mozilla/5.0 (X11; CrOS x86_64 13310.59.0) AppleWebKit/537.36 (KHTML, like Gecko) Chrome/85.0.4183.84 Safari/537.36",54,"[0.9, 0.5, 0.1]","[0.8, 0.4, 0.2]","[u'blue', u'black', u'red']","[u'left', u'middle', u'right']","[0.9, 0.5, 0.1]","[u'medium', u'high', u'low']","black",50,"middle","high","True","False",59,1500,NA
"A2G7F8S617H0BB","Thu Sep 17 2020 14:10:37 GMT-0700 (Pacific Daylight Time)","Thu Sep 17 2020 14:16:24 GMT-0700 (Pacific Daylight Time)","Mozilla/5.0 (X11; CrOS x86_64 13310.59.0) AppleWebKit/537.36 (KHTML, like Gecko) Chrome/85.0.4183.84 Safari/537.36",55,"[0.9, 0.5, 0.1]","[0.8, 0.4, 0.2]","[u'blue', u'black', u'red']","[u'left', u'middle', u'right']","[0.9, 0.5, 0.1]","[u'medium', u'high', u'low']","black",50,"middle","high","False","False",55,1450,NA
"A2G7F8S617H0BB","Thu Sep 17 2020 14:10:37 GMT-0700 (Pacific Daylight Time)","Thu Sep 17 2020 14:16:24 GMT-0700 (Pacific Daylight Time)","Mozilla/5.0 (X11; CrOS x86_64 13310.59.0) AppleWebKit/537.36 (KHTML, like Gecko) Chrome/85.0.4183.84 Safari/537.36",56,"[0.9, 0.5, 0.1]","[0.8, 0.4, 0.2]","[u'blue', u'black', u'red']","[u'left', u'middle', u'right']","[0.9, 0.5, 0.1]","[u'medium', u'high', u'low']","black",50,"middle","high","True","False",39,1550,NA
"A2G7F8S617H0BB","Thu Sep 17 2020 14:10:37 GMT-0700 (Pacific Daylight Time)","Thu Sep 17 2020 14:16:24 GMT-0700 (Pacific Daylight Time)","Mozilla/5.0 (X11; CrOS x86_64 13310.59.0) AppleWebKit/537.36 (KHTML, like Gecko) Chrome/85.0.4183.84 Safari/537.36",57,"[0.9, 0.5, 0.1]","[0.8, 0.4, 0.2]","[u'blue', u'black', u'red']","[u'left', u'middle', u'right']","[0.9, 0.5, 0.1]","[u'medium', u'high', u'low']","black",50,"middle","high","True","False",57,1650,NA
"A2G7F8S617H0BB","Thu Sep 17 2020 14:10:37 GMT-0700 (Pacific Daylight Time)","Thu Sep 17 2020 14:16:24 GMT-0700 (Pacific Daylight Time)","Mozilla/5.0 (X11; CrOS x86_64 13310.59.0) AppleWebKit/537.36 (KHTML, like Gecko) Chrome/85.0.4183.84 Safari/537.36",58,"[0.9, 0.5, 0.1]","[0.8, 0.4, 0.2]","[u'blue', u'black', u'red']","[u'left', u'middle', u'right']","[0.9, 0.5, 0.1]","[u'medium', u'high', u'low']","black",50,"middle","high","True","False",62,1750,NA
"A2G7F8S617H0BB","Thu Sep 17 2020 14:10:37 GMT-0700 (Pacific Daylight Time)","Thu Sep 17 2020 14:16:24 GMT-0700 (Pacific Daylight Time)","Mozilla/5.0 (X11; CrOS x86_64 13310.59.0) AppleWebKit/537.36 (KHTML, like Gecko) Chrome/85.0.4183.84 Safari/537.36",59,"[0.9, 0.5, 0.1]","[0.8, 0.4, 0.2]","[u'blue', u'black', u'red']","[u'left', u'middle', u'right']","[0.9, 0.5, 0.1]","[u'medium', u'high', u'low']","black",50,"middle","high","False","False",75,1700,NA
"A2G7F8S617H0BB","Thu Sep 17 2020 14:10:37 GMT-0700 (Pacific Daylight Time)","Thu Sep 17 2020 14:16:24 GMT-0700 (Pacific Daylight Time)","Mozilla/5.0 (X11; CrOS x86_64 13310.59.0) AppleWebKit/537.36 (KHTML, like Gecko) Chrome/85.0.4183.84 Safari/537.36",60,"[0.9, 0.5, 0.1]","[0.8, 0.4, 0.2]","[u'blue', u'black', u'red']","[u'left', u'middle', u'right']","[0.9, 0.5, 0.1]","[u'medium', u'high', u'low']","black",50,"middle","high","True","False",52,1800,NA
"A2G7F8S617H0BB","Thu Sep 17 2020 14:10:37 GMT-0700 (Pacific Daylight Time)","Thu Sep 17 2020 14:16:24 GMT-0700 (Pacific Daylight Time)","Mozilla/5.0 (X11; CrOS x86_64 13310.59.0) AppleWebKit/537.36 (KHTML, like Gecko) Chrome/85.0.4183.84 Safari/537.36",61,"[0.9, 0.5, 0.1]","[0.8, 0.4, 0.2]","[u'blue', u'black', u'red']","[u'left', u'middle', u'right']","[0.9, 0.5, 0.1]","[u'medium', u'high', u'low']","black",50,"middle","high","True","False",6,1900,NA
"A2G7F8S617H0BB","Thu Sep 17 2020 14:10:37 GMT-0700 (Pacific Daylight Time)","Thu Sep 17 2020 14:16:24 GMT-0700 (Pacific Daylight Time)","Mozilla/5.0 (X11; CrOS x86_64 13310.59.0) AppleWebKit/537.36 (KHTML, like Gecko) Chrome/85.0.4183.84 Safari/537.36",62,"[0.9, 0.5, 0.1]","[0.8, 0.4, 0.2]","[u'blue', u'black', u'red']","[u'left', u'middle', u'right']","[0.9, 0.5, 0.1]","[u'medium', u'high', u'low']","black",50,"middle","high","False","True",395,1850,NA
"A2G7F8S617H0BB","Thu Sep 17 2020 14:10:37 GMT-0700 (Pacific Daylight Time)","Thu Sep 17 2020 14:16:24 GMT-0700 (Pacific Daylight Time)","Mozilla/5.0 (X11; CrOS x86_64 13310.59.0) AppleWebKit/537.36 (KHTML, like Gecko) Chrome/85.0.4183.84 Safari/537.36",63,"[0.9, 0.5, 0.1]","[0.8, 0.4, 0.2]","[u'blue', u'black', u'red']","[u'left', u'middle', u'right']","[0.9, 0.5, 0.1]","[u'medium', u'low', u'high']","black",50,"middle","low","False","False",72,1800,NA
"A2G7F8S617H0BB","Thu Sep 17 2020 14:10:37 GMT-0700 (Pacific Daylight Time)","Thu Sep 17 2020 14:16:24 GMT-0700 (Pacific Daylight Time)","Mozilla/5.0 (X11; CrOS x86_64 13310.59.0) AppleWebKit/537.36 (KHTML, like Gecko) Chrome/85.0.4183.84 Safari/537.36",64,"[0.9, 0.5, 0.1]","[0.8, 0.4, 0.2]","[u'blue', u'black', u'red']","[u'left', u'middle', u'right']","[0.9, 0.5, 0.1]","[u'medium', u'low', u'high']","black",50,"middle","low","False","False",87,1750,NA
"A2G7F8S617H0BB","Thu Sep 17 2020 14:10:37 GMT-0700 (Pacific Daylight Time)","Thu Sep 17 2020 14:16:24 GMT-0700 (Pacific Daylight Time)","Mozilla/5.0 (X11; CrOS x86_64 13310.59.0) AppleWebKit/537.36 (KHTML, like Gecko) Chrome/85.0.4183.84 Safari/537.36",65,"[0.9, 0.5, 0.1]","[0.8, 0.4, 0.2]","[u'blue', u'black', u'red']","[u'left', u'middle', u'right']","[0.9, 0.5, 0.1]","[u'medium', u'low', u'high']","blue",49,"left","medium","True","False",353,1850,NA
"A2G7F8S617H0BB","Thu Sep 17 2020 14:10:37 GMT-0700 (Pacific Daylight Time)","Thu Sep 17 2020 14:16:24 GMT-0700 (Pacific Daylight Time)","Mozilla/5.0 (X11; CrOS x86_64 13310.59.0) AppleWebKit/537.36 (KHTML, like Gecko) Chrome/85.0.4183.84 Safari/537.36",66,"[0.9, 0.5, 0.1]","[0.8, 0.4, 0.2]","[u'blue', u'black', u'red']","[u'left', u'middle', u'right']","[0.9, 0.5, 0.1]","[u'medium', u'low', u'high']","blue",49,"left","medium","False","False",86,1800,NA
"A2G7F8S617H0BB","Thu Sep 17 2020 14:10:37 GMT-0700 (Pacific Daylight Time)","Thu Sep 17 2020 14:16:24 GMT-0700 (Pacific Daylight Time)","Mozilla/5.0 (X11; CrOS x86_64 13310.59.0) AppleWebKit/537.36 (KHTML, like Gecko) Chrome/85.0.4183.84 Safari/537.36",67,"[0.9, 0.5, 0.1]","[0.8, 0.4, 0.2]","[u'blue', u'black', u'red']","[u'left', u'middle', u'right']","[0.9, 0.5, 0.1]","[u'medium', u'low', u'high']","blue",49,"left","medium","False","False",58,1750,NA
"A2G7F8S617H0BB","Thu Sep 17 2020 14:10:37 GMT-0700 (Pacific Daylight Time)","Thu Sep 17 2020 14:16:24 GMT-0700 (Pacific Daylight Time)","Mozilla/5.0 (X11; CrOS x86_64 13310.59.0) AppleWebKit/537.36 (KHTML, like Gecko) Chrome/85.0.4183.84 Safari/537.36",68,"[0.9, 0.5, 0.1]","[0.8, 0.4, 0.2]","[u'blue', u'black', u'red']","[u'left', u'middle', u'right']","[0.9, 0.5, 0.1]","[u'medium', u'low', u'high']","blue",49,"left","medium","True","False",60,1850,NA
"A2G7F8S617H0BB","Thu Sep 17 2020 14:10:37 GMT-0700 (Pacific Daylight Time)","Thu Sep 17 2020 14:16:24 GMT-0700 (Pacific Daylight Time)","Mozilla/5.0 (X11; CrOS x86_64 13310.59.0) AppleWebKit/537.36 (KHTML, like Gecko) Chrome/85.0.4183.84 Safari/537.36",69,"[0.9, 0.5, 0.1]","[0.8, 0.4, 0.2]","[u'blue', u'black', u'red']","[u'left', u'middle', u'right']","[0.9, 0.5, 0.1]","[u'medium', u'low', u'high']","blue",49,"left","medium","False","False",27,1800,NA
"A2G7F8S617H0BB","Thu Sep 17 2020 14:10:37 GMT-0700 (Pacific Daylight Time)","Thu Sep 17 2020 14:16:24 GMT-0700 (Pacific Daylight Time)","Mozilla/5.0 (X11; CrOS x86_64 13310.59.0) AppleWebKit/537.36 (KHTML, like Gecko) Chrome/85.0.4183.84 Safari/537.36",70,"[0.9, 0.5, 0.1]","[0.8, 0.4, 0.2]","[u'blue', u'black', u'red']","[u'left', u'middle', u'right']","[0.9, 0.5, 0.1]","[u'medium', u'low', u'high']","blue",49,"left","medium","False","False",224,1750,NA
"A2G7F8S617H0BB","Thu Sep 17 2020 14:10:37 GMT-0700 (Pacific Daylight Time)","Thu Sep 17 2020 14:16:24 GMT-0700 (Pacific Daylight Time)","Mozilla/5.0 (X11; CrOS x86_64 13310.59.0) AppleWebKit/537.36 (KHTML, like Gecko) Chrome/85.0.4183.84 Safari/537.36",71,"[0.9, 0.5, 0.1]","[0.8, 0.4, 0.2]","[u'blue', u'black', u'red']","[u'left', u'middle', u'right']","[0.9, 0.5, 0.1]","[u'medium', u'low', u'high']","blue",49,"left","medium","True","False",125,1850,NA
"A2G7F8S617H0BB","Thu Sep 17 2020 14:10:37 GMT-0700 (Pacific Daylight Time)","Thu Sep 17 2020 14:16:24 GMT-0700 (Pacific Daylight Time)","Mozilla/5.0 (X11; CrOS x86_64 13310.59.0) AppleWebKit/537.36 (KHTML, like Gecko) Chrome/85.0.4183.84 Safari/537.36",72,"[0.9, 0.5, 0.1]","[0.8, 0.4, 0.2]","[u'blue', u'black', u'red']","[u'left', u'middle', u'right']","[0.9, 0.5, 0.1]","[u'medium', u'low', u'high']","blue",49,"left","medium","True","False",352,1950,NA
"A2G7F8S617H0BB","Thu Sep 17 2020 14:10:37 GMT-0700 (Pacific Daylight Time)","Thu Sep 17 2020 14:16:24 GMT-0700 (Pacific Daylight Time)","Mozilla/5.0 (X11; CrOS x86_64 13310.59.0) AppleWebKit/537.36 (KHTML, like Gecko) Chrome/85.0.4183.84 Safari/537.36",73,"[0.9, 0.5, 0.1]","[0.8, 0.4, 0.2]","[u'blue', u'black', u'red']","[u'left', u'middle', u'right']","[0.9, 0.5, 0.1]","[u'medium', u'low', u'high']","blue",49,"left","medium","True","False",160,2050,NA
"A2G7F8S617H0BB","Thu Sep 17 2020 14:10:37 GMT-0700 (Pacific Daylight Time)","Thu Sep 17 2020 14:16:24 GMT-0700 (Pacific Daylight Time)","Mozilla/5.0 (X11; CrOS x86_64 13310.59.0) AppleWebKit/537.36 (KHTML, like Gecko) Chrome/85.0.4183.84 Safari/537.36",74,"[0.9, 0.5, 0.1]","[0.8, 0.4, 0.2]","[u'blue', u'black', u'red']","[u'left', u'middle', u'right']","[0.9, 0.5, 0.1]","[u'medium', u'low', u'high']","blue",49,"left","medium","False","False",112,2000,NA
"A2G7F8S617H0BB","Thu Sep 17 2020 14:10:37 GMT-0700 (Pacific Daylight Time)","Thu Sep 17 2020 14:16:24 GMT-0700 (Pacific Daylight Time)","Mozilla/5.0 (X11; CrOS x86_64 13310.59.0) AppleWebKit/537.36 (KHTML, like Gecko) Chrome/85.0.4183.84 Safari/537.36",75,"[0.9, 0.5, 0.1]","[0.8, 0.4, 0.2]","[u'blue', u'black', u'red']","[u'left', u'middle', u'right']","[0.9, 0.5, 0.1]","[u'medium', u'low', u'high']","blue",49,"left","medium","True","False",125,2100,NA
"A2G7F8S617H0BB","Thu Sep 17 2020 14:10:37 GMT-0700 (Pacific Daylight Time)","Thu Sep 17 2020 14:16:24 GMT-0700 (Pacific Daylight Time)","Mozilla/5.0 (X11; CrOS x86_64 13310.59.0) AppleWebKit/537.36 (KHTML, like Gecko) Chrome/85.0.4183.84 Safari/537.36",76,"[0.9, 0.5, 0.1]","[0.8, 0.4, 0.2]","[u'blue', u'black', u'red']","[u'left', u'middle', u'right']","[0.9, 0.5, 0.1]","[u'medium', u'low', u'high']","blue",49,"left","medium","False","False",244,2050,NA
"A2G7F8S617H0BB","Thu Sep 17 2020 14:10:37 GMT-0700 (Pacific Daylight Time)","Thu Sep 17 2020 14:16:24 GMT-0700 (Pacific Daylight Time)","Mozilla/5.0 (X11; CrOS x86_64 13310.59.0) AppleWebKit/537.36 (KHTML, like Gecko) Chrome/85.0.4183.84 Safari/537.36",77,"[0.9, 0.5, 0.1]","[0.8, 0.4, 0.2]","[u'blue', u'black', u'red']","[u'left', u'middle', u'right']","[0.9, 0.5, 0.1]","[u'medium', u'low', u'high']","red",51,"right","high","True","False",67,2150,NA
"A2G7F8S617H0BB","Thu Sep 17 2020 14:10:37 GMT-0700 (Pacific Daylight Time)","Thu Sep 17 2020 14:16:24 GMT-0700 (Pacific Daylight Time)","Mozilla/5.0 (X11; CrOS x86_64 13310.59.0) AppleWebKit/537.36 (KHTML, like Gecko) Chrome/85.0.4183.84 Safari/537.36",78,"[0.9, 0.5, 0.1]","[0.8, 0.4, 0.2]","[u'blue', u'black', u'red']","[u'left', u'middle', u'right']","[0.9, 0.5, 0.1]","[u'medium', u'low', u'high']","red",51,"right","high","False","False",405,2100,NA
"A2G7F8S617H0BB","Thu Sep 17 2020 14:10:37 GMT-0700 (Pacific Daylight Time)","Thu Sep 17 2020 14:16:24 GMT-0700 (Pacific Daylight Time)","Mozilla/5.0 (X11; CrOS x86_64 13310.59.0) AppleWebKit/537.36 (KHTML, like Gecko) Chrome/85.0.4183.84 Safari/537.36",79,"[0.9, 0.5, 0.1]","[0.8, 0.4, 0.2]","[u'blue', u'black', u'red']","[u'left', u'middle', u'right']","[0.9, 0.5, 0.1]","[u'medium', u'low', u'high']","red",51,"right","high","True","False",114,2200,NA
"A2G7F8S617H0BB","Thu Sep 17 2020 14:10:37 GMT-0700 (Pacific Daylight Time)","Thu Sep 17 2020 14:16:24 GMT-0700 (Pacific Daylight Time)","Mozilla/5.0 (X11; CrOS x86_64 13310.59.0) AppleWebKit/537.36 (KHTML, like Gecko) Chrome/85.0.4183.84 Safari/537.36",80,"[0.9, 0.5, 0.1]","[0.8, 0.4, 0.2]","[u'blue', u'black', u'red']","[u'left', u'middle', u'right']","[0.9, 0.5, 0.1]","[u'medium', u'low', u'high']","red",51,"right","high","True","False",138,2300,NA
"A2G7F8S617H0BB","Thu Sep 17 2020 14:10:37 GMT-0700 (Pacific Daylight Time)","Thu Sep 17 2020 14:16:24 GMT-0700 (Pacific Daylight Time)","Mozilla/5.0 (X11; CrOS x86_64 13310.59.0) AppleWebKit/537.36 (KHTML, like Gecko) Chrome/85.0.4183.84 Safari/537.36",81,"[0.9, 0.5, 0.1]","[0.8, 0.4, 0.2]","[u'blue', u'black', u'red']","[u'left', u'middle', u'right']","[0.8, 0.4, 0.2]","[u'high', u'medium', u'low']","red",51,"right","low","False","False",490,2250,NA
"A2G7F8S617H0BB","Thu Sep 17 2020 14:10:37 GMT-0700 (Pacific Daylight Time)","Thu Sep 17 2020 14:16:24 GMT-0700 (Pacific Daylight Time)","Mozilla/5.0 (X11; CrOS x86_64 13310.59.0) AppleWebKit/537.36 (KHTML, like Gecko) Chrome/85.0.4183.84 Safari/537.36",82,"[0.9, 0.5, 0.1]","[0.8, 0.4, 0.2]","[u'blue', u'black', u'red']","[u'left', u'middle', u'right']","[0.8, 0.4, 0.2]","[u'high', u'medium', u'low']","red",51,"right","low","False","False",629,2200,NA
"A2G7F8S617H0BB","Thu Sep 17 2020 14:10:37 GMT-0700 (Pacific Daylight Time)","Thu Sep 17 2020 14:16:24 GMT-0700 (Pacific Daylight Time)","Mozilla/5.0 (X11; CrOS x86_64 13310.59.0) AppleWebKit/537.36 (KHTML, like Gecko) Chrome/85.0.4183.84 Safari/537.36",83,"[0.9, 0.5, 0.1]","[0.8, 0.4, 0.2]","[u'blue', u'black', u'red']","[u'left', u'middle', u'right']","[0.8, 0.4, 0.2]","[u'high', u'medium', u'low']","red",51,"right","low","False","False",85,2150,NA
"A2G7F8S617H0BB","Thu Sep 17 2020 14:10:37 GMT-0700 (Pacific Daylight Time)","Thu Sep 17 2020 14:16:24 GMT-0700 (Pacific Daylight Time)","Mozilla/5.0 (X11; CrOS x86_64 13310.59.0) AppleWebKit/537.36 (KHTML, like Gecko) Chrome/85.0.4183.84 Safari/537.36",84,"[0.9, 0.5, 0.1]","[0.8, 0.4, 0.2]","[u'blue', u'black', u'red']","[u'left', u'middle', u'right']","[0.8, 0.4, 0.2]","[u'high', u'medium', u'low']","black",50,"middle","medium","False","False",251,2100,NA
"A2G7F8S617H0BB","Thu Sep 17 2020 14:10:37 GMT-0700 (Pacific Daylight Time)","Thu Sep 17 2020 14:16:24 GMT-0700 (Pacific Daylight Time)","Mozilla/5.0 (X11; CrOS x86_64 13310.59.0) AppleWebKit/537.36 (KHTML, like Gecko) Chrome/85.0.4183.84 Safari/537.36",85,"[0.9, 0.5, 0.1]","[0.8, 0.4, 0.2]","[u'blue', u'black', u'red']","[u'left', u'middle', u'right']","[0.8, 0.4, 0.2]","[u'high', u'medium', u'low']","black",50,"middle","medium","False","False",54,2050,NA
"A2G7F8S617H0BB","Thu Sep 17 2020 14:10:37 GMT-0700 (Pacific Daylight Time)","Thu Sep 17 2020 14:16:24 GMT-0700 (Pacific Daylight Time)","Mozilla/5.0 (X11; CrOS x86_64 13310.59.0) AppleWebKit/537.36 (KHTML, like Gecko) Chrome/85.0.4183.84 Safari/537.36",86,"[0.9, 0.5, 0.1]","[0.8, 0.4, 0.2]","[u'blue', u'black', u'red']","[u'left', u'middle', u'right']","[0.8, 0.4, 0.2]","[u'high', u'medium', u'low']","black",50,"middle","medium","False","False",178,2000,NA
"A2G7F8S617H0BB","Thu Sep 17 2020 14:10:37 GMT-0700 (Pacific Daylight Time)","Thu Sep 17 2020 14:16:24 GMT-0700 (Pacific Daylight Time)","Mozilla/5.0 (X11; CrOS x86_64 13310.59.0) AppleWebKit/537.36 (KHTML, like Gecko) Chrome/85.0.4183.84 Safari/537.36",87,"[0.9, 0.5, 0.1]","[0.8, 0.4, 0.2]","[u'blue', u'black', u'red']","[u'left', u'middle', u'right']","[0.8, 0.4, 0.2]","[u'high', u'medium', u'low']","blue",49,"left","high","False","False",153,1950,NA
"A2G7F8S617H0BB","Thu Sep 17 2020 14:10:37 GMT-0700 (Pacific Daylight Time)","Thu Sep 17 2020 14:16:24 GMT-0700 (Pacific Daylight Time)","Mozilla/5.0 (X11; CrOS x86_64 13310.59.0) AppleWebKit/537.36 (KHTML, like Gecko) Chrome/85.0.4183.84 Safari/537.36",88,"[0.9, 0.5, 0.1]","[0.8, 0.4, 0.2]","[u'blue', u'black', u'red']","[u'left', u'middle', u'right']","[0.8, 0.4, 0.2]","[u'high', u'medium', u'low']","blue",49,"left","high","True","False",129,2050,NA
"A2G7F8S617H0BB","Thu Sep 17 2020 14:10:37 GMT-0700 (Pacific Daylight Time)","Thu Sep 17 2020 14:16:24 GMT-0700 (Pacific Daylight Time)","Mozilla/5.0 (X11; CrOS x86_64 13310.59.0) AppleWebKit/537.36 (KHTML, like Gecko) Chrome/85.0.4183.84 Safari/537.36",89,"[0.9, 0.5, 0.1]","[0.8, 0.4, 0.2]","[u'blue', u'black', u'red']","[u'left', u'middle', u'right']","[0.8, 0.4, 0.2]","[u'high', u'medium', u'low']","blue",49,"left","high","False","False",101,2000,NA
"A2G7F8S617H0BB","Thu Sep 17 2020 14:10:37 GMT-0700 (Pacific Daylight Time)","Thu Sep 17 2020 14:16:24 GMT-0700 (Pacific Daylight Time)","Mozilla/5.0 (X11; CrOS x86_64 13310.59.0) AppleWebKit/537.36 (KHTML, like Gecko) Chrome/85.0.4183.84 Safari/537.36",90,"[0.9, 0.5, 0.1]","[0.8, 0.4, 0.2]","[u'blue', u'black', u'red']","[u'left', u'middle', u'right']","[0.8, 0.4, 0.2]","[u'high', u'medium', u'low']","blue",49,"left","high","True","False",180,2100,NA
"A2G7F8S617H0BB","Thu Sep 17 2020 14:10:37 GMT-0700 (Pacific Daylight Time)","Thu Sep 17 2020 14:16:24 GMT-0700 (Pacific Daylight Time)","Mozilla/5.0 (X11; CrOS x86_64 13310.59.0) AppleWebKit/537.36 (KHTML, like Gecko) Chrome/85.0.4183.84 Safari/537.36",91,"[0.9, 0.5, 0.1]","[0.8, 0.4, 0.2]","[u'blue', u'black', u'red']","[u'left', u'middle', u'right']","[0.8, 0.4, 0.2]","[u'high', u'medium', u'low']","blue",49,"left","high","True","False",146,2200,NA
"A2G7F8S617H0BB","Thu Sep 17 2020 14:10:37 GMT-0700 (Pacific Daylight Time)","Thu Sep 17 2020 14:16:24 GMT-0700 (Pacific Daylight Time)","Mozilla/5.0 (X11; CrOS x86_64 13310.59.0) AppleWebKit/537.36 (KHTML, like Gecko) Chrome/85.0.4183.84 Safari/537.36",92,"[0.9, 0.5, 0.1]","[0.8, 0.4, 0.2]","[u'blue', u'black', u'red']","[u'left', u'middle', u'right']","[0.8, 0.4, 0.2]","[u'high', u'medium', u'low']","blue",49,"left","high","True","False",41,2300,NA
"A2G7F8S617H0BB","Thu Sep 17 2020 14:10:37 GMT-0700 (Pacific Daylight Time)","Thu Sep 17 2020 14:16:24 GMT-0700 (Pacific Daylight Time)","Mozilla/5.0 (X11; CrOS x86_64 13310.59.0) AppleWebKit/537.36 (KHTML, like Gecko) Chrome/85.0.4183.84 Safari/537.36",93,"[0.9, 0.5, 0.1]","[0.8, 0.4, 0.2]","[u'blue', u'black', u'red']","[u'left', u'middle', u'right']","[0.8, 0.4, 0.2]","[u'high', u'medium', u'low']","blue",49,"left","high","True","False",371,2400,NA
"A2G7F8S617H0BB","Thu Sep 17 2020 14:10:37 GMT-0700 (Pacific Daylight Time)","Thu Sep 17 2020 14:16:24 GMT-0700 (Pacific Daylight Time)","Mozilla/5.0 (X11; CrOS x86_64 13310.59.0) AppleWebKit/537.36 (KHTML, like Gecko) Chrome/85.0.4183.84 Safari/537.36",94,"[0.9, 0.5, 0.1]","[0.8, 0.4, 0.2]","[u'blue', u'black', u'red']","[u'left', u'middle', u'right']","[0.8, 0.4, 0.2]","[u'high', u'medium', u'low']","blue",49,"left","high","True","False",29,2500,NA
"A2G7F8S617H0BB","Thu Sep 17 2020 14:10:37 GMT-0700 (Pacific Daylight Time)","Thu Sep 17 2020 14:16:24 GMT-0700 (Pacific Daylight Time)","Mozilla/5.0 (X11; CrOS x86_64 13310.59.0) AppleWebKit/537.36 (KHTML, like Gecko) Chrome/85.0.4183.84 Safari/537.36",95,"[0.9, 0.5, 0.1]","[0.8, 0.4, 0.2]","[u'blue', u'black', u'red']","[u'left', u'middle', u'right']","[0.8, 0.4, 0.2]","[u'high', u'medium', u'low']","blue",49,"left","high","True","True",15,2600,NA
"A2G7F8S617H0BB","Thu Sep 17 2020 14:10:37 GMT-0700 (Pacific Daylight Time)","Thu Sep 17 2020 14:16:24 GMT-0700 (Pacific Daylight Time)","Mozilla/5.0 (X11; CrOS x86_64 13310.59.0) AppleWebKit/537.36 (KHTML, like Gecko) Chrome/85.0.4183.84 Safari/537.36",96,"[0.9, 0.5, 0.1]","[0.8, 0.4, 0.2]","[u'blue', u'black', u'red']","[u'left', u'middle', u'right']","[0.8, 0.4, 0.2]","[u'low', u'medium', u'high']","blue",49,"left","low","False","False",41,2550,NA
"A2G7F8S617H0BB","Thu Sep 17 2020 14:10:37 GMT-0700 (Pacific Daylight Time)","Thu Sep 17 2020 14:16:24 GMT-0700 (Pacific Daylight Time)","Mozilla/5.0 (X11; CrOS x86_64 13310.59.0) AppleWebKit/537.36 (KHTML, like Gecko) Chrome/85.0.4183.84 Safari/537.36",97,"[0.9, 0.5, 0.1]","[0.8, 0.4, 0.2]","[u'blue', u'black', u'red']","[u'left', u'middle', u'right']","[0.8, 0.4, 0.2]","[u'low', u'medium', u'high']","blue",49,"left","low","False","False",26,2500,NA
"A2G7F8S617H0BB","Thu Sep 17 2020 14:10:37 GMT-0700 (Pacific Daylight Time)","Thu Sep 17 2020 14:16:24 GMT-0700 (Pacific Daylight Time)","Mozilla/5.0 (X11; CrOS x86_64 13310.59.0) AppleWebKit/537.36 (KHTML, like Gecko) Chrome/85.0.4183.84 Safari/537.36",98,"[0.9, 0.5, 0.1]","[0.8, 0.4, 0.2]","[u'blue', u'black', u'red']","[u'left', u'middle', u'right']","[0.8, 0.4, 0.2]","[u'low', u'medium', u'high']","blue",49,"left","low","False","False",26,2450,NA
"A2G7F8S617H0BB","Thu Sep 17 2020 14:10:37 GMT-0700 (Pacific Daylight Time)","Thu Sep 17 2020 14:16:24 GMT-0700 (Pacific Daylight Time)","Mozilla/5.0 (X11; CrOS x86_64 13310.59.0) AppleWebKit/537.36 (KHTML, like Gecko) Chrome/85.0.4183.84 Safari/537.36",99,"[0.9, 0.5, 0.1]","[0.8, 0.4, 0.2]","[u'blue', u'black', u'red']","[u'left', u'middle', u'right']","[0.8, 0.4, 0.2]","[u'low', u'medium', u'high']","blue",49,"left","low","False","False",78,2400,NA
"A2G7F8S617H0BB","Thu Sep 17 2020 14:10:37 GMT-0700 (Pacific Daylight Time)","Thu Sep 17 2020 14:16:24 GMT-0700 (Pacific Daylight Time)","Mozilla/5.0 (X11; CrOS x86_64 13310.59.0) AppleWebKit/537.36 (KHTML, like Gecko) Chrome/85.0.4183.84 Safari/537.36",100,"[0.9, 0.5, 0.1]","[0.8, 0.4, 0.2]","[u'blue', u'black', u'red']","[u'left', u'middle', u'right']","[0.8, 0.4, 0.2]","[u'low', u'medium', u'high']","red",51,"right","high","False","False",164,2350,NA
"A2G7F8S617H0BB","Thu Sep 17 2020 14:10:37 GMT-0700 (Pacific Daylight Time)","Thu Sep 17 2020 14:16:24 GMT-0700 (Pacific Daylight Time)","Mozilla/5.0 (X11; CrOS x86_64 13310.59.0) AppleWebKit/537.36 (KHTML, like Gecko) Chrome/85.0.4183.84 Safari/537.36",101,"[0.9, 0.5, 0.1]","[0.8, 0.4, 0.2]","[u'blue', u'black', u'red']","[u'left', u'middle', u'right']","[0.8, 0.4, 0.2]","[u'low', u'medium', u'high']","black",50,"middle","medium","True","False",80,2450,NA
"A2G7F8S617H0BB","Thu Sep 17 2020 14:10:37 GMT-0700 (Pacific Daylight Time)","Thu Sep 17 2020 14:16:24 GMT-0700 (Pacific Daylight Time)","Mozilla/5.0 (X11; CrOS x86_64 13310.59.0) AppleWebKit/537.36 (KHTML, like Gecko) Chrome/85.0.4183.84 Safari/537.36",102,"[0.9, 0.5, 0.1]","[0.8, 0.4, 0.2]","[u'blue', u'black', u'red']","[u'left', u'middle', u'right']","[0.8, 0.4, 0.2]","[u'low', u'medium', u'high']","black",50,"middle","medium","False","False",21,2400,NA
"A2G7F8S617H0BB","Thu Sep 17 2020 14:10:37 GMT-0700 (Pacific Daylight Time)","Thu Sep 17 2020 14:16:24 GMT-0700 (Pacific Daylight Time)","Mozilla/5.0 (X11; CrOS x86_64 13310.59.0) AppleWebKit/537.36 (KHTML, like Gecko) Chrome/85.0.4183.84 Safari/537.36",103,"[0.9, 0.5, 0.1]","[0.8, 0.4, 0.2]","[u'blue', u'black', u'red']","[u'left', u'middle', u'right']","[0.8, 0.4, 0.2]","[u'low', u'medium', u'high']","black",50,"middle","medium","False","False",318,2350,NA
"A2G7F8S617H0BB","Thu Sep 17 2020 14:10:37 GMT-0700 (Pacific Daylight Time)","Thu Sep 17 2020 14:16:24 GMT-0700 (Pacific Daylight Time)","Mozilla/5.0 (X11; CrOS x86_64 13310.59.0) AppleWebKit/537.36 (KHTML, like Gecko) Chrome/85.0.4183.84 Safari/537.36",104,"[0.9, 0.5, 0.1]","[0.8, 0.4, 0.2]","[u'blue', u'black', u'red']","[u'left', u'middle', u'right']","[0.8, 0.4, 0.2]","[u'low', u'medium', u'high']","red",51,"right","high","True","False",48,2450,NA
"A2G7F8S617H0BB","Thu Sep 17 2020 14:10:37 GMT-0700 (Pacific Daylight Time)","Thu Sep 17 2020 14:16:24 GMT-0700 (Pacific Daylight Time)","Mozilla/5.0 (X11; CrOS x86_64 13310.59.0) AppleWebKit/537.36 (KHTML, like Gecko) Chrome/85.0.4183.84 Safari/537.36",105,"[0.9, 0.5, 0.1]","[0.8, 0.4, 0.2]","[u'blue', u'black', u'red']","[u'left', u'middle', u'right']","[0.8, 0.4, 0.2]","[u'low', u'medium', u'high']","blue",49,"left","low","False","False",136,2400,NA
"A2G7F8S617H0BB","Thu Sep 17 2020 14:10:37 GMT-0700 (Pacific Daylight Time)","Thu Sep 17 2020 14:16:24 GMT-0700 (Pacific Daylight Time)","Mozilla/5.0 (X11; CrOS x86_64 13310.59.0) AppleWebKit/537.36 (KHTML, like Gecko) Chrome/85.0.4183.84 Safari/537.36",106,"[0.9, 0.5, 0.1]","[0.8, 0.4, 0.2]","[u'blue', u'black', u'red']","[u'left', u'middle', u'right']","[0.8, 0.4, 0.2]","[u'low', u'medium', u'high']","red",51,"right","high","True","False",24,2500,NA
"A2G7F8S617H0BB","Thu Sep 17 2020 14:10:37 GMT-0700 (Pacific Daylight Time)","Thu Sep 17 2020 14:16:24 GMT-0700 (Pacific Daylight Time)","Mozilla/5.0 (X11; CrOS x86_64 13310.59.0) AppleWebKit/537.36 (KHTML, like Gecko) Chrome/85.0.4183.84 Safari/537.36",107,"[0.9, 0.5, 0.1]","[0.8, 0.4, 0.2]","[u'blue', u'black', u'red']","[u'left', u'middle', u'right']","[0.8, 0.4, 0.2]","[u'low', u'medium', u'high']","red",51,"right","high","True","False",64,2600,NA
"A2G7F8S617H0BB","Thu Sep 17 2020 14:10:37 GMT-0700 (Pacific Daylight Time)","Thu Sep 17 2020 14:16:24 GMT-0700 (Pacific Daylight Time)","Mozilla/5.0 (X11; CrOS x86_64 13310.59.0) AppleWebKit/537.36 (KHTML, like Gecko) Chrome/85.0.4183.84 Safari/537.36",108,"[0.9, 0.5, 0.1]","[0.8, 0.4, 0.2]","[u'blue', u'black', u'red']","[u'left', u'middle', u'right']","[0.8, 0.4, 0.2]","[u'low', u'medium', u'high']","red",51,"right","high","False","False",91,2550,NA
"A2G7F8S617H0BB","Thu Sep 17 2020 14:10:37 GMT-0700 (Pacific Daylight Time)","Thu Sep 17 2020 14:16:24 GMT-0700 (Pacific Daylight Time)","Mozilla/5.0 (X11; CrOS x86_64 13310.59.0) AppleWebKit/537.36 (KHTML, like Gecko) Chrome/85.0.4183.84 Safari/537.36",109,"[0.9, 0.5, 0.1]","[0.8, 0.4, 0.2]","[u'blue', u'black', u'red']","[u'left', u'middle', u'right']","[0.8, 0.4, 0.2]","[u'low', u'medium', u'high']","red",51,"right","high","False","False",49,2500,NA
"A2G7F8S617H0BB","Thu Sep 17 2020 14:10:37 GMT-0700 (Pacific Daylight Time)","Thu Sep 17 2020 14:16:24 GMT-0700 (Pacific Daylight Time)","Mozilla/5.0 (X11; CrOS x86_64 13310.59.0) AppleWebKit/537.36 (KHTML, like Gecko) Chrome/85.0.4183.84 Safari/537.36",110,"[0.9, 0.5, 0.1]","[0.8, 0.4, 0.2]","[u'blue', u'black', u'red']","[u'left', u'middle', u'right']","[0.8, 0.4, 0.2]","[u'low', u'medium', u'high']","red",51,"right","high","True","False",72,2600,NA
"A2G7F8S617H0BB","Thu Sep 17 2020 14:10:37 GMT-0700 (Pacific Daylight Time)","Thu Sep 17 2020 14:16:24 GMT-0700 (Pacific Daylight Time)","Mozilla/5.0 (X11; CrOS x86_64 13310.59.0) AppleWebKit/537.36 (KHTML, like Gecko) Chrome/85.0.4183.84 Safari/537.36",111,"[0.9, 0.5, 0.1]","[0.8, 0.4, 0.2]","[u'blue', u'black', u'red']","[u'left', u'middle', u'right']","[0.8, 0.4, 0.2]","[u'low', u'medium', u'high']","red",51,"right","high","False","False",325,2550,NA
"A2G7F8S617H0BB","Thu Sep 17 2020 14:10:37 GMT-0700 (Pacific Daylight Time)","Thu Sep 17 2020 14:16:24 GMT-0700 (Pacific Daylight Time)","Mozilla/5.0 (X11; CrOS x86_64 13310.59.0) AppleWebKit/537.36 (KHTML, like Gecko) Chrome/85.0.4183.84 Safari/537.36",112,"[0.9, 0.5, 0.1]","[0.8, 0.4, 0.2]","[u'blue', u'black', u'red']","[u'left', u'middle', u'right']","[0.8, 0.4, 0.2]","[u'low', u'medium', u'high']","red",51,"right","high","True","False",50,2650,NA
"A2G7F8S617H0BB","Thu Sep 17 2020 14:10:37 GMT-0700 (Pacific Daylight Time)","Thu Sep 17 2020 14:16:24 GMT-0700 (Pacific Daylight Time)","Mozilla/5.0 (X11; CrOS x86_64 13310.59.0) AppleWebKit/537.36 (KHTML, like Gecko) Chrome/85.0.4183.84 Safari/537.36",113,"[0.9, 0.5, 0.1]","[0.8, 0.4, 0.2]","[u'blue', u'black', u'red']","[u'left', u'middle', u'right']","[0.8, 0.4, 0.2]","[u'low', u'medium', u'high']","red",51,"right","high","True","True",56,2750,NA
"A2G7F8S617H0BB","Thu Sep 17 2020 14:10:37 GMT-0700 (Pacific Daylight Time)","Thu Sep 17 2020 14:16:24 GMT-0700 (Pacific Daylight Time)","Mozilla/5.0 (X11; CrOS x86_64 13310.59.0) AppleWebKit/537.36 (KHTML, like Gecko) Chrome/85.0.4183.84 Safari/537.36",114,"[0.9, 0.5, 0.1]","[0.8, 0.4, 0.2]","[u'blue', u'black', u'red']","[u'left', u'middle', u'right']","[0.8, 0.4, 0.2]","[u'low', u'high', u'medium']","red",51,"right","medium","True","False",11,2850,NA
"A2G7F8S617H0BB","Thu Sep 17 2020 14:10:37 GMT-0700 (Pacific Daylight Time)","Thu Sep 17 2020 14:16:24 GMT-0700 (Pacific Daylight Time)","Mozilla/5.0 (X11; CrOS x86_64 13310.59.0) AppleWebKit/537.36 (KHTML, like Gecko) Chrome/85.0.4183.84 Safari/537.36",115,"[0.9, 0.5, 0.1]","[0.8, 0.4, 0.2]","[u'blue', u'black', u'red']","[u'left', u'middle', u'right']","[0.8, 0.4, 0.2]","[u'low', u'high', u'medium']","red",51,"right","medium","False","False",38,2800,NA
"A2G7F8S617H0BB","Thu Sep 17 2020 14:10:37 GMT-0700 (Pacific Daylight Time)","Thu Sep 17 2020 14:16:24 GMT-0700 (Pacific Daylight Time)","Mozilla/5.0 (X11; CrOS x86_64 13310.59.0) AppleWebKit/537.36 (KHTML, like Gecko) Chrome/85.0.4183.84 Safari/537.36",116,"[0.9, 0.5, 0.1]","[0.8, 0.4, 0.2]","[u'blue', u'black', u'red']","[u'left', u'middle', u'right']","[0.8, 0.4, 0.2]","[u'low', u'high', u'medium']","red",51,"right","medium","False","False",671,2750,NA
"A2G7F8S617H0BB","Thu Sep 17 2020 14:10:37 GMT-0700 (Pacific Daylight Time)","Thu Sep 17 2020 14:16:24 GMT-0700 (Pacific Daylight Time)","Mozilla/5.0 (X11; CrOS x86_64 13310.59.0) AppleWebKit/537.36 (KHTML, like Gecko) Chrome/85.0.4183.84 Safari/537.36",117,"[0.9, 0.5, 0.1]","[0.8, 0.4, 0.2]","[u'blue', u'black', u'red']","[u'left', u'middle', u'right']","[0.8, 0.4, 0.2]","[u'low', u'high', u'medium']","red",51,"right","medium","True","False",15,2850,NA
"A2G7F8S617H0BB","Thu Sep 17 2020 14:10:37 GMT-0700 (Pacific Daylight Time)","Thu Sep 17 2020 14:16:24 GMT-0700 (Pacific Daylight Time)","Mozilla/5.0 (X11; CrOS x86_64 13310.59.0) AppleWebKit/537.36 (KHTML, like Gecko) Chrome/85.0.4183.84 Safari/537.36",118,"[0.9, 0.5, 0.1]","[0.8, 0.4, 0.2]","[u'blue', u'black', u'red']","[u'left', u'middle', u'right']","[0.8, 0.4, 0.2]","[u'low', u'high', u'medium']","red",51,"right","medium","False","False",161,2800,NA
"A2G7F8S617H0BB","Thu Sep 17 2020 14:10:37 GMT-0700 (Pacific Daylight Time)","Thu Sep 17 2020 14:16:24 GMT-0700 (Pacific Daylight Time)","Mozilla/5.0 (X11; CrOS x86_64 13310.59.0) AppleWebKit/537.36 (KHTML, like Gecko) Chrome/85.0.4183.84 Safari/537.36",119,"[0.9, 0.5, 0.1]","[0.8, 0.4, 0.2]","[u'blue', u'black', u'red']","[u'left', u'middle', u'right']","[0.8, 0.4, 0.2]","[u'low', u'high', u'medium']","red",51,"right","medium","False","False",76,2750,NA
"A2G7F8S617H0BB","Thu Sep 17 2020 14:10:37 GMT-0700 (Pacific Daylight Time)","Thu Sep 17 2020 14:16:24 GMT-0700 (Pacific Daylight Time)","Mozilla/5.0 (X11; CrOS x86_64 13310.59.0) AppleWebKit/537.36 (KHTML, like Gecko) Chrome/85.0.4183.84 Safari/537.36",120,"[0.9, 0.5, 0.1]","[0.8, 0.4, 0.2]","[u'blue', u'black', u'red']","[u'left', u'middle', u'right']","[0.8, 0.4, 0.2]","[u'low', u'high', u'medium']","black",50,"middle","high","True","False",80,2850,NA
"A2G7F8S617H0BB","Thu Sep 17 2020 14:10:37 GMT-0700 (Pacific Daylight Time)","Thu Sep 17 2020 14:16:24 GMT-0700 (Pacific Daylight Time)","Mozilla/5.0 (X11; CrOS x86_64 13310.59.0) AppleWebKit/537.36 (KHTML, like Gecko) Chrome/85.0.4183.84 Safari/537.36",121,"[0.9, 0.5, 0.1]","[0.8, 0.4, 0.2]","[u'blue', u'black', u'red']","[u'left', u'middle', u'right']","[0.8, 0.4, 0.2]","[u'medium', u'low', u'high']","black",50,"middle","low","True","False",236,2950,NA
"A2G7F8S617H0BB","Thu Sep 17 2020 14:10:37 GMT-0700 (Pacific Daylight Time)","Thu Sep 17 2020 14:16:24 GMT-0700 (Pacific Daylight Time)","Mozilla/5.0 (X11; CrOS x86_64 13310.59.0) AppleWebKit/537.36 (KHTML, like Gecko) Chrome/85.0.4183.84 Safari/537.36",122,"[0.9, 0.5, 0.1]","[0.8, 0.4, 0.2]","[u'blue', u'black', u'red']","[u'left', u'middle', u'right']","[0.8, 0.4, 0.2]","[u'medium', u'low', u'high']","black",50,"middle","low","True","False",100,3050,NA
"A2G7F8S617H0BB","Thu Sep 17 2020 14:10:37 GMT-0700 (Pacific Daylight Time)","Thu Sep 17 2020 14:16:24 GMT-0700 (Pacific Daylight Time)","Mozilla/5.0 (X11; CrOS x86_64 13310.59.0) AppleWebKit/537.36 (KHTML, like Gecko) Chrome/85.0.4183.84 Safari/537.36",123,"[0.9, 0.5, 0.1]","[0.8, 0.4, 0.2]","[u'blue', u'black', u'red']","[u'left', u'middle', u'right']","[0.8, 0.4, 0.2]","[u'medium', u'low', u'high']","black",50,"middle","low","False","False",19,3000,NA
"A2G7F8S617H0BB","Thu Sep 17 2020 14:10:37 GMT-0700 (Pacific Daylight Time)","Thu Sep 17 2020 14:16:24 GMT-0700 (Pacific Daylight Time)","Mozilla/5.0 (X11; CrOS x86_64 13310.59.0) AppleWebKit/537.36 (KHTML, like Gecko) Chrome/85.0.4183.84 Safari/537.36",124,"[0.9, 0.5, 0.1]","[0.8, 0.4, 0.2]","[u'blue', u'black', u'red']","[u'left', u'middle', u'right']","[0.8, 0.4, 0.2]","[u'medium', u'low', u'high']","black",50,"middle","low","False","False",135,2950,NA
"A2G7F8S617H0BB","Thu Sep 17 2020 14:10:37 GMT-0700 (Pacific Daylight Time)","Thu Sep 17 2020 14:16:24 GMT-0700 (Pacific Daylight Time)","Mozilla/5.0 (X11; CrOS x86_64 13310.59.0) AppleWebKit/537.36 (KHTML, like Gecko) Chrome/85.0.4183.84 Safari/537.36",125,"[0.9, 0.5, 0.1]","[0.8, 0.4, 0.2]","[u'blue', u'black', u'red']","[u'left', u'middle', u'right']","[0.8, 0.4, 0.2]","[u'medium', u'low', u'high']","blue",49,"left","medium","False","False",144,2900,NA
"A2G7F8S617H0BB","Thu Sep 17 2020 14:10:37 GMT-0700 (Pacific Daylight Time)","Thu Sep 17 2020 14:16:24 GMT-0700 (Pacific Daylight Time)","Mozilla/5.0 (X11; CrOS x86_64 13310.59.0) AppleWebKit/537.36 (KHTML, like Gecko) Chrome/85.0.4183.84 Safari/537.36",126,"[0.9, 0.5, 0.1]","[0.8, 0.4, 0.2]","[u'blue', u'black', u'red']","[u'left', u'middle', u'right']","[0.8, 0.4, 0.2]","[u'medium', u'low', u'high']","blue",49,"left","medium","True","False",98,3000,NA
"A2G7F8S617H0BB","Thu Sep 17 2020 14:10:37 GMT-0700 (Pacific Daylight Time)","Thu Sep 17 2020 14:16:24 GMT-0700 (Pacific Daylight Time)","Mozilla/5.0 (X11; CrOS x86_64 13310.59.0) AppleWebKit/537.36 (KHTML, like Gecko) Chrome/85.0.4183.84 Safari/537.36",127,"[0.9, 0.5, 0.1]","[0.8, 0.4, 0.2]","[u'blue', u'black', u'red']","[u'left', u'middle', u'right']","[0.8, 0.4, 0.2]","[u'medium', u'low', u'high']","blue",49,"left","medium","True","False",53,3100,NA
"A2G7F8S617H0BB","Thu Sep 17 2020 14:10:37 GMT-0700 (Pacific Daylight Time)","Thu Sep 17 2020 14:16:24 GMT-0700 (Pacific Daylight Time)","Mozilla/5.0 (X11; CrOS x86_64 13310.59.0) AppleWebKit/537.36 (KHTML, like Gecko) Chrome/85.0.4183.84 Safari/537.36",128,"[0.9, 0.5, 0.1]","[0.8, 0.4, 0.2]","[u'blue', u'black', u'red']","[u'left', u'middle', u'right']","[0.8, 0.4, 0.2]","[u'medium', u'low', u'high']","blue",49,"left","medium","False","False",208,3050,NA
"A2G7F8S617H0BB","Thu Sep 17 2020 14:10:37 GMT-0700 (Pacific Daylight Time)","Thu Sep 17 2020 14:16:24 GMT-0700 (Pacific Daylight Time)","Mozilla/5.0 (X11; CrOS x86_64 13310.59.0) AppleWebKit/537.36 (KHTML, like Gecko) Chrome/85.0.4183.84 Safari/537.36",129,"[0.9, 0.5, 0.1]","[0.8, 0.4, 0.2]","[u'blue', u'black', u'red']","[u'left', u'middle', u'right']","[0.8, 0.4, 0.2]","[u'medium', u'low', u'high']","blue",49,"left","medium","False","False",90,3000,NA
"A2G7F8S617H0BB","Thu Sep 17 2020 14:10:37 GMT-0700 (Pacific Daylight Time)","Thu Sep 17 2020 14:16:24 GMT-0700 (Pacific Daylight Time)","Mozilla/5.0 (X11; CrOS x86_64 13310.59.0) AppleWebKit/537.36 (KHTML, like Gecko) Chrome/85.0.4183.84 Safari/537.36",130,"[0.9, 0.5, 0.1]","[0.8, 0.4, 0.2]","[u'blue', u'black', u'red']","[u'left', u'middle', u'right']","[0.8, 0.4, 0.2]","[u'medium', u'low', u'high']","blue",49,"left","medium","True","False",77,3100,NA
"A2G7F8S617H0BB","Thu Sep 17 2020 14:10:37 GMT-0700 (Pacific Daylight Time)","Thu Sep 17 2020 14:16:24 GMT-0700 (Pacific Daylight Time)","Mozilla/5.0 (X11; CrOS x86_64 13310.59.0) AppleWebKit/537.36 (KHTML, like Gecko) Chrome/85.0.4183.84 Safari/537.36",131,"[0.9, 0.5, 0.1]","[0.8, 0.4, 0.2]","[u'blue', u'black', u'red']","[u'left', u'middle', u'right']","[0.8, 0.4, 0.2]","[u'medium', u'low', u'high']","blue",49,"left","medium","True","False",55,3200,NA
"A2G7F8S617H0BB","Thu Sep 17 2020 14:10:37 GMT-0700 (Pacific Daylight Time)","Thu Sep 17 2020 14:16:24 GMT-0700 (Pacific Daylight Time)","Mozilla/5.0 (X11; CrOS x86_64 13310.59.0) AppleWebKit/537.36 (KHTML, like Gecko) Chrome/85.0.4183.84 Safari/537.36",132,"[0.9, 0.5, 0.1]","[0.8, 0.4, 0.2]","[u'blue', u'black', u'red']","[u'left', u'middle', u'right']","[0.8, 0.4, 0.2]","[u'medium', u'low', u'high']","blue",49,"left","medium","False","False",134,3150,NA
"A2G7F8S617H0BB","Thu Sep 17 2020 14:10:37 GMT-0700 (Pacific Daylight Time)","Thu Sep 17 2020 14:16:24 GMT-0700 (Pacific Daylight Time)","Mozilla/5.0 (X11; CrOS x86_64 13310.59.0) AppleWebKit/537.36 (KHTML, like Gecko) Chrome/85.0.4183.84 Safari/537.36",133,"[0.9, 0.5, 0.1]","[0.8, 0.4, 0.2]","[u'blue', u'black', u'red']","[u'left', u'middle', u'right']","[0.8, 0.4, 0.2]","[u'medium', u'low', u'high']","blue",49,"left","medium","False","False",66,3100,NA
"A2G7F8S617H0BB","Thu Sep 17 2020 14:10:37 GMT-0700 (Pacific Daylight Time)","Thu Sep 17 2020 14:16:24 GMT-0700 (Pacific Daylight Time)","Mozilla/5.0 (X11; CrOS x86_64 13310.59.0) AppleWebKit/537.36 (KHTML, like Gecko) Chrome/85.0.4183.84 Safari/537.36",134,"[0.9, 0.5, 0.1]","[0.8, 0.4, 0.2]","[u'blue', u'black', u'red']","[u'left', u'middle', u'right']","[0.8, 0.4, 0.2]","[u'medium', u'low', u'high']","red",51,"right","high","True","False",84,3200,NA
"A2G7F8S617H0BB","Thu Sep 17 2020 14:10:37 GMT-0700 (Pacific Daylight Time)","Thu Sep 17 2020 14:16:24 GMT-0700 (Pacific Daylight Time)","Mozilla/5.0 (X11; CrOS x86_64 13310.59.0) AppleWebKit/537.36 (KHTML, like Gecko) Chrome/85.0.4183.84 Safari/537.36",135,"[0.9, 0.5, 0.1]","[0.8, 0.4, 0.2]","[u'blue', u'black', u'red']","[u'left', u'middle', u'right']","[0.8, 0.4, 0.2]","[u'medium', u'low', u'high']","red",51,"right","high","True","False",49,3300,NA
"A2G7F8S617H0BB","Thu Sep 17 2020 14:10:37 GMT-0700 (Pacific Daylight Time)","Thu Sep 17 2020 14:16:24 GMT-0700 (Pacific Daylight Time)","Mozilla/5.0 (X11; CrOS x86_64 13310.59.0) AppleWebKit/537.36 (KHTML, like Gecko) Chrome/85.0.4183.84 Safari/537.36",136,"[0.9, 0.5, 0.1]","[0.8, 0.4, 0.2]","[u'blue', u'black', u'red']","[u'left', u'middle', u'right']","[0.8, 0.4, 0.2]","[u'medium', u'low', u'high']","red",51,"right","high","True","False",123,3400,NA
"A2G7F8S617H0BB","Thu Sep 17 2020 14:10:37 GMT-0700 (Pacific Daylight Time)","Thu Sep 17 2020 14:16:24 GMT-0700 (Pacific Daylight Time)","Mozilla/5.0 (X11; CrOS x86_64 13310.59.0) AppleWebKit/537.36 (KHTML, like Gecko) Chrome/85.0.4183.84 Safari/537.36",137,"[0.9, 0.5, 0.1]","[0.8, 0.4, 0.2]","[u'blue', u'black', u'red']","[u'left', u'middle', u'right']","[0.8, 0.4, 0.2]","[u'medium', u'low', u'high']","red",51,"right","high","False","False",96,3350,NA
"A2G7F8S617H0BB","Thu Sep 17 2020 14:10:37 GMT-0700 (Pacific Daylight Time)","Thu Sep 17 2020 14:16:24 GMT-0700 (Pacific Daylight Time)","Mozilla/5.0 (X11; CrOS x86_64 13310.59.0) AppleWebKit/537.36 (KHTML, like Gecko) Chrome/85.0.4183.84 Safari/537.36",138,"[0.9, 0.5, 0.1]","[0.8, 0.4, 0.2]","[u'blue', u'black', u'red']","[u'left', u'middle', u'right']","[0.8, 0.4, 0.2]","[u'medium', u'low', u'high']","red",51,"right","high","True","False",108,3450,NA
"A2G7F8S617H0BB","Thu Sep 17 2020 14:10:37 GMT-0700 (Pacific Daylight Time)","Thu Sep 17 2020 14:16:24 GMT-0700 (Pacific Daylight Time)","Mozilla/5.0 (X11; CrOS x86_64 13310.59.0) AppleWebKit/537.36 (KHTML, like Gecko) Chrome/85.0.4183.84 Safari/537.36",139,"[0.9, 0.5, 0.1]","[0.8, 0.4, 0.2]","[u'blue', u'black', u'red']","[u'left', u'middle', u'right']","[0.8, 0.4, 0.2]","[u'medium', u'low', u'high']","red",51,"right","high","False","False",127,3400,NA
"A2G7F8S617H0BB","Thu Sep 17 2020 14:10:37 GMT-0700 (Pacific Daylight Time)","Thu Sep 17 2020 14:16:24 GMT-0700 (Pacific Daylight Time)","Mozilla/5.0 (X11; CrOS x86_64 13310.59.0) AppleWebKit/537.36 (KHTML, like Gecko) Chrome/85.0.4183.84 Safari/537.36",140,"[0.9, 0.5, 0.1]","[0.8, 0.4, 0.2]","[u'blue', u'black', u'red']","[u'left', u'middle', u'right']","[0.8, 0.4, 0.2]","[u'medium', u'low', u'high']","red",51,"right","high","True","False",148,3500,NA
"A2G7F8S617H0BB","Thu Sep 17 2020 14:10:37 GMT-0700 (Pacific Daylight Time)","Thu Sep 17 2020 14:16:24 GMT-0700 (Pacific Daylight Time)","Mozilla/5.0 (X11; CrOS x86_64 13310.59.0) AppleWebKit/537.36 (KHTML, like Gecko) Chrome/85.0.4183.84 Safari/537.36",141,"[0.9, 0.5, 0.1]","[0.8, 0.4, 0.2]","[u'blue', u'black', u'red']","[u'left', u'middle', u'right']","[0.8, 0.4, 0.2]","[u'medium', u'low', u'high']","red",51,"right","high","True","False",107,3600,NA
"A2G7F8S617H0BB","Thu Sep 17 2020 14:10:37 GMT-0700 (Pacific Daylight Time)","Thu Sep 17 2020 14:16:24 GMT-0700 (Pacific Daylight Time)","Mozilla/5.0 (X11; CrOS x86_64 13310.59.0) AppleWebKit/537.36 (KHTML, like Gecko) Chrome/85.0.4183.84 Safari/537.36",142,"[0.9, 0.5, 0.1]","[0.8, 0.4, 0.2]","[u'blue', u'black', u'red']","[u'left', u'middle', u'right']","[0.8, 0.4, 0.2]","[u'medium', u'low', u'high']","red",51,"right","high","True","True",117,3700,NA
"A2G7F8S617H0BB","Thu Sep 17 2020 14:10:37 GMT-0700 (Pacific Daylight Time)","Thu Sep 17 2020 14:16:24 GMT-0700 (Pacific Daylight Time)","Mozilla/5.0 (X11; CrOS x86_64 13310.59.0) AppleWebKit/537.36 (KHTML, like Gecko) Chrome/85.0.4183.84 Safari/537.36",143,"[0.9, 0.5, 0.1]","[0.8, 0.4, 0.2]","[u'blue', u'black', u'red']","[u'left', u'middle', u'right']","[0.8, 0.4, 0.2]","[u'low', u'high', u'medium']","red",51,"right","medium","False","False",107,3650,NA
"A2G7F8S617H0BB","Thu Sep 17 2020 14:10:37 GMT-0700 (Pacific Daylight Time)","Thu Sep 17 2020 14:16:24 GMT-0700 (Pacific Daylight Time)","Mozilla/5.0 (X11; CrOS x86_64 13310.59.0) AppleWebKit/537.36 (KHTML, like Gecko) Chrome/85.0.4183.84 Safari/537.36",144,"[0.9, 0.5, 0.1]","[0.8, 0.4, 0.2]","[u'blue', u'black', u'red']","[u'left', u'middle', u'right']","[0.8, 0.4, 0.2]","[u'low', u'high', u'medium']","red",51,"right","medium","True","False",247,3750,NA
"A2G7F8S617H0BB","Thu Sep 17 2020 14:10:37 GMT-0700 (Pacific Daylight Time)","Thu Sep 17 2020 14:16:24 GMT-0700 (Pacific Daylight Time)","Mozilla/5.0 (X11; CrOS x86_64 13310.59.0) AppleWebKit/537.36 (KHTML, like Gecko) Chrome/85.0.4183.84 Safari/537.36",145,"[0.9, 0.5, 0.1]","[0.8, 0.4, 0.2]","[u'blue', u'black', u'red']","[u'left', u'middle', u'right']","[0.8, 0.4, 0.2]","[u'low', u'high', u'medium']","red",51,"right","medium","True","False",187,3850,NA
"A2G7F8S617H0BB","Thu Sep 17 2020 14:10:37 GMT-0700 (Pacific Daylight Time)","Thu Sep 17 2020 14:16:24 GMT-0700 (Pacific Daylight Time)","Mozilla/5.0 (X11; CrOS x86_64 13310.59.0) AppleWebKit/537.36 (KHTML, like Gecko) Chrome/85.0.4183.84 Safari/537.36",146,"[0.9, 0.5, 0.1]","[0.8, 0.4, 0.2]","[u'blue', u'black', u'red']","[u'left', u'middle', u'right']","[0.8, 0.4, 0.2]","[u'low', u'high', u'medium']","red",51,"right","medium","True","False",244,3950,NA
"A2G7F8S617H0BB","Thu Sep 17 2020 14:10:37 GMT-0700 (Pacific Daylight Time)","Thu Sep 17 2020 14:16:24 GMT-0700 (Pacific Daylight Time)","Mozilla/5.0 (X11; CrOS x86_64 13310.59.0) AppleWebKit/537.36 (KHTML, like Gecko) Chrome/85.0.4183.84 Safari/537.36",147,"[0.9, 0.5, 0.1]","[0.8, 0.4, 0.2]","[u'blue', u'black', u'red']","[u'left', u'middle', u'right']","[0.8, 0.4, 0.2]","[u'low', u'high', u'medium']","red",51,"right","medium","False","False",161,3900,NA
"A2G7F8S617H0BB","Thu Sep 17 2020 14:10:37 GMT-0700 (Pacific Daylight Time)","Thu Sep 17 2020 14:16:24 GMT-0700 (Pacific Daylight Time)","Mozilla/5.0 (X11; CrOS x86_64 13310.59.0) AppleWebKit/537.36 (KHTML, like Gecko) Chrome/85.0.4183.84 Safari/537.36",148,"[0.9, 0.5, 0.1]","[0.8, 0.4, 0.2]","[u'blue', u'black', u'red']","[u'left', u'middle', u'right']","[0.8, 0.4, 0.2]","[u'low', u'high', u'medium']","black",50,"middle","high","True","False",126,4000,NA
"A2G7F8S617H0BB","Thu Sep 17 2020 14:10:37 GMT-0700 (Pacific Daylight Time)","Thu Sep 17 2020 14:16:24 GMT-0700 (Pacific Daylight Time)","Mozilla/5.0 (X11; CrOS x86_64 13310.59.0) AppleWebKit/537.36 (KHTML, like Gecko) Chrome/85.0.4183.84 Safari/537.36",149,"[0.9, 0.5, 0.1]","[0.8, 0.4, 0.2]","[u'blue', u'black', u'red']","[u'left', u'middle', u'right']","[0.8, 0.4, 0.2]","[u'low', u'high', u'medium']","black",50,"middle","high","True","False",123,4100,NA
"A2G7F8S617H0BB","Thu Sep 17 2020 14:10:37 GMT-0700 (Pacific Daylight Time)","Thu Sep 17 2020 14:16:24 GMT-0700 (Pacific Daylight Time)","Mozilla/5.0 (X11; CrOS x86_64 13310.59.0) AppleWebKit/537.36 (KHTML, like Gecko) Chrome/85.0.4183.84 Safari/537.36",150,"[0.9, 0.5, 0.1]","[0.8, 0.4, 0.2]","[u'blue', u'black', u'red']","[u'left', u'middle', u'right']","[0.8, 0.4, 0.2]","[u'low', u'high', u'medium']","black",50,"middle","high","True","False",137,4200,NA
"A2G7F8S617H0BB","Thu Sep 17 2020 14:10:37 GMT-0700 (Pacific Daylight Time)","Thu Sep 17 2020 14:16:24 GMT-0700 (Pacific Daylight Time)","Mozilla/5.0 (X11; CrOS x86_64 13310.59.0) AppleWebKit/537.36 (KHTML, like Gecko) Chrome/85.0.4183.84 Safari/537.36",151,"[0.9, 0.5, 0.1]","[0.8, 0.4, 0.2]","[u'blue', u'black', u'red']","[u'left', u'middle', u'right']","[0.8, 0.4, 0.2]","[u'low', u'high', u'medium']","black",50,"middle","high","True","False",72,4300,NA
"A2G7F8S617H0BB","Thu Sep 17 2020 14:10:37 GMT-0700 (Pacific Daylight Time)","Thu Sep 17 2020 14:16:24 GMT-0700 (Pacific Daylight Time)","Mozilla/5.0 (X11; CrOS x86_64 13310.59.0) AppleWebKit/537.36 (KHTML, like Gecko) Chrome/85.0.4183.84 Safari/537.36",152,"[0.9, 0.5, 0.1]","[0.8, 0.4, 0.2]","[u'blue', u'black', u'red']","[u'left', u'middle', u'right']","[0.8, 0.4, 0.2]","[u'low', u'high', u'medium']","black",50,"middle","high","True","False",26,4400,NA
"A2G7F8S617H0BB","Thu Sep 17 2020 14:10:37 GMT-0700 (Pacific Daylight Time)","Thu Sep 17 2020 14:16:24 GMT-0700 (Pacific Daylight Time)","Mozilla/5.0 (X11; CrOS x86_64 13310.59.0) AppleWebKit/537.36 (KHTML, like Gecko) Chrome/85.0.4183.84 Safari/537.36",153,"[0.9, 0.5, 0.1]","[0.8, 0.4, 0.2]","[u'blue', u'black', u'red']","[u'left', u'middle', u'right']","[0.8, 0.4, 0.2]","[u'low', u'high', u'medium']","black",50,"middle","high","True","False",133,4500,NA
"A2G7F8S617H0BB","Thu Sep 17 2020 14:10:37 GMT-0700 (Pacific Daylight Time)","Thu Sep 17 2020 14:16:24 GMT-0700 (Pacific Daylight Time)","Mozilla/5.0 (X11; CrOS x86_64 13310.59.0) AppleWebKit/537.36 (KHTML, like Gecko) Chrome/85.0.4183.84 Safari/537.36",154,"[0.9, 0.5, 0.1]","[0.8, 0.4, 0.2]","[u'blue', u'black', u'red']","[u'left', u'middle', u'right']","[0.8, 0.4, 0.2]","[u'low', u'high', u'medium']","black",50,"middle","high","True","False",142,4600,NA
"A2G7F8S617H0BB","Thu Sep 17 2020 14:10:37 GMT-0700 (Pacific Daylight Time)","Thu Sep 17 2020 14:16:24 GMT-0700 (Pacific Daylight Time)","Mozilla/5.0 (X11; CrOS x86_64 13310.59.0) AppleWebKit/537.36 (KHTML, like Gecko) Chrome/85.0.4183.84 Safari/537.36",155,"[0.9, 0.5, 0.1]","[0.8, 0.4, 0.2]","[u'blue', u'black', u'red']","[u'left', u'middle', u'right']","[0.8, 0.4, 0.2]","[u'low', u'high', u'medium']","black",50,"middle","high","True","False",83,4700,NA
"A2G7F8S617H0BB","Thu Sep 17 2020 14:10:37 GMT-0700 (Pacific Daylight Time)","Thu Sep 17 2020 14:16:24 GMT-0700 (Pacific Daylight Time)","Mozilla/5.0 (X11; CrOS x86_64 13310.59.0) AppleWebKit/537.36 (KHTML, like Gecko) Chrome/85.0.4183.84 Safari/537.36",156,"[0.9, 0.5, 0.1]","[0.8, 0.4, 0.2]","[u'blue', u'black', u'red']","[u'left', u'middle', u'right']","[0.8, 0.4, 0.2]","[u'low', u'high', u'medium']","black",50,"middle","high","True","True",114,4800,NA
"A2G7F8S617H0BB","Thu Sep 17 2020 14:10:37 GMT-0700 (Pacific Daylight Time)","Thu Sep 17 2020 14:16:24 GMT-0700 (Pacific Daylight Time)","Mozilla/5.0 (X11; CrOS x86_64 13310.59.0) AppleWebKit/537.36 (KHTML, like Gecko) Chrome/85.0.4183.84 Safari/537.36",157,"[0.9, 0.5, 0.1]","[0.8, 0.4, 0.2]","[u'blue', u'black', u'red']","[u'left', u'middle', u'right']","[0.8, 0.4, 0.2]","[u'high', u'medium', u'low']","black",50,"middle","medium","False","False",127,4750,NA
"A2G7F8S617H0BB","Thu Sep 17 2020 14:10:37 GMT-0700 (Pacific Daylight Time)","Thu Sep 17 2020 14:16:24 GMT-0700 (Pacific Daylight Time)","Mozilla/5.0 (X11; CrOS x86_64 13310.59.0) AppleWebKit/537.36 (KHTML, like Gecko) Chrome/85.0.4183.84 Safari/537.36",158,"[0.9, 0.5, 0.1]","[0.8, 0.4, 0.2]","[u'blue', u'black', u'red']","[u'left', u'middle', u'right']","[0.8, 0.4, 0.2]","[u'high', u'medium', u'low']","black",50,"middle","medium","False","False",137,4700,NA
"A2G7F8S617H0BB","Thu Sep 17 2020 14:10:37 GMT-0700 (Pacific Daylight Time)","Thu Sep 17 2020 14:16:24 GMT-0700 (Pacific Daylight Time)","Mozilla/5.0 (X11; CrOS x86_64 13310.59.0) AppleWebKit/537.36 (KHTML, like Gecko) Chrome/85.0.4183.84 Safari/537.36",159,"[0.9, 0.5, 0.1]","[0.8, 0.4, 0.2]","[u'blue', u'black', u'red']","[u'left', u'middle', u'right']","[0.8, 0.4, 0.2]","[u'high', u'medium', u'low']","black",50,"middle","medium","False","False",51,4650,NA
"A2G7F8S617H0BB","Thu Sep 17 2020 14:10:37 GMT-0700 (Pacific Daylight Time)","Thu Sep 17 2020 14:16:24 GMT-0700 (Pacific Daylight Time)","Mozilla/5.0 (X11; CrOS x86_64 13310.59.0) AppleWebKit/537.36 (KHTML, like Gecko) Chrome/85.0.4183.84 Safari/537.36",160,"[0.9, 0.5, 0.1]","[0.8, 0.4, 0.2]","[u'blue', u'black', u'red']","[u'left', u'middle', u'right']","[0.8, 0.4, 0.2]","[u'high', u'medium', u'low']","blue",49,"left","high","True","False",96,4750,NA
