"src_subject_id","start_time","end_time","browser","index","first_half_probabilities","second_half_probabilities","deck_color","deck_position","deck_probabilities","deck_contingencies","response_color","key_press","response_position","response_probability","reward_type","trial_type","rt","reward_tally","exclusion_reason"
"A2CWNRI11XJ7WX","Tue Jan 28 2020 13:43:54 GMT+0000 (Greenwich Mean Time)","Tue Jan 28 2020 13:50:52 GMT+0000 (Greenwich Mean Time)","Mozilla/5.0 (Windows NT 10.0; Win64; x64) AppleWebKit/537.36 (KHTML, like Gecko) Chrome/79.0.3945.130 Safari/537.36",1,"[0.9, 0.5, 0.1]","[0.8, 0.4, 0.2]","[u'black', u'red', u'blue']","[u'left', u'middle', u'right']","[0.9, 0.5, 0.1]","[u'medium', u'low', u'high']","black",49,"left","medium","False","False",542,-50,NA
"A2CWNRI11XJ7WX","Tue Jan 28 2020 13:43:54 GMT+0000 (Greenwich Mean Time)","Tue Jan 28 2020 13:50:52 GMT+0000 (Greenwich Mean Time)","Mozilla/5.0 (Windows NT 10.0; Win64; x64) AppleWebKit/537.36 (KHTML, like Gecko) Chrome/79.0.3945.130 Safari/537.36",2,"[0.9, 0.5, 0.1]","[0.8, 0.4, 0.2]","[u'black', u'red', u'blue']","[u'left', u'middle', u'right']","[0.9, 0.5, 0.1]","[u'medium', u'low', u'high']","black",49,"left","medium","False","False",514,-100,NA
"A2CWNRI11XJ7WX","Tue Jan 28 2020 13:43:54 GMT+0000 (Greenwich Mean Time)","Tue Jan 28 2020 13:50:52 GMT+0000 (Greenwich Mean Time)","Mozilla/5.0 (Windows NT 10.0; Win64; x64) AppleWebKit/537.36 (KHTML, like Gecko) Chrome/79.0.3945.130 Safari/537.36",3,"[0.9, 0.5, 0.1]","[0.8, 0.4, 0.2]","[u'black', u'red', u'blue']","[u'left', u'middle', u'right']","[0.9, 0.5, 0.1]","[u'medium', u'low', u'high']","red",50,"middle","low","False","False",658,-150,NA
"A2CWNRI11XJ7WX","Tue Jan 28 2020 13:43:54 GMT+0000 (Greenwich Mean Time)","Tue Jan 28 2020 13:50:52 GMT+0000 (Greenwich Mean Time)","Mozilla/5.0 (Windows NT 10.0; Win64; x64) AppleWebKit/537.36 (KHTML, like Gecko) Chrome/79.0.3945.130 Safari/537.36",4,"[0.9, 0.5, 0.1]","[0.8, 0.4, 0.2]","[u'black', u'red', u'blue']","[u'left', u'middle', u'right']","[0.9, 0.5, 0.1]","[u'medium', u'low', u'high']","blue",51,"right","high","True","False",369,-50,NA
"A2CWNRI11XJ7WX","Tue Jan 28 2020 13:43:54 GMT+0000 (Greenwich Mean Time)","Tue Jan 28 2020 13:50:52 GMT+0000 (Greenwich Mean Time)","Mozilla/5.0 (Windows NT 10.0; Win64; x64) AppleWebKit/537.36 (KHTML, like Gecko) Chrome/79.0.3945.130 Safari/537.36",5,"[0.9, 0.5, 0.1]","[0.8, 0.4, 0.2]","[u'black', u'red', u'blue']","[u'left', u'middle', u'right']","[0.9, 0.5, 0.1]","[u'medium', u'low', u'high']","blue",51,"right","high","True","False",315,50,NA
"A2CWNRI11XJ7WX","Tue Jan 28 2020 13:43:54 GMT+0000 (Greenwich Mean Time)","Tue Jan 28 2020 13:50:52 GMT+0000 (Greenwich Mean Time)","Mozilla/5.0 (Windows NT 10.0; Win64; x64) AppleWebKit/537.36 (KHTML, like Gecko) Chrome/79.0.3945.130 Safari/537.36",6,"[0.9, 0.5, 0.1]","[0.8, 0.4, 0.2]","[u'black', u'red', u'blue']","[u'left', u'middle', u'right']","[0.9, 0.5, 0.1]","[u'medium', u'low', u'high']","blue",51,"right","high","True","False",338,150,NA
"A2CWNRI11XJ7WX","Tue Jan 28 2020 13:43:54 GMT+0000 (Greenwich Mean Time)","Tue Jan 28 2020 13:50:52 GMT+0000 (Greenwich Mean Time)","Mozilla/5.0 (Windows NT 10.0; Win64; x64) AppleWebKit/537.36 (KHTML, like Gecko) Chrome/79.0.3945.130 Safari/537.36",7,"[0.9, 0.5, 0.1]","[0.8, 0.4, 0.2]","[u'black', u'red', u'blue']","[u'left', u'middle', u'right']","[0.9, 0.5, 0.1]","[u'medium', u'low', u'high']","black",49,"left","medium","False","False",274,100,NA
"A2CWNRI11XJ7WX","Tue Jan 28 2020 13:43:54 GMT+0000 (Greenwich Mean Time)","Tue Jan 28 2020 13:50:52 GMT+0000 (Greenwich Mean Time)","Mozilla/5.0 (Windows NT 10.0; Win64; x64) AppleWebKit/537.36 (KHTML, like Gecko) Chrome/79.0.3945.130 Safari/537.36",8,"[0.9, 0.5, 0.1]","[0.8, 0.4, 0.2]","[u'black', u'red', u'blue']","[u'left', u'middle', u'right']","[0.9, 0.5, 0.1]","[u'medium', u'low', u'high']","blue",51,"right","high","True","False",299,200,NA
"A2CWNRI11XJ7WX","Tue Jan 28 2020 13:43:54 GMT+0000 (Greenwich Mean Time)","Tue Jan 28 2020 13:50:52 GMT+0000 (Greenwich Mean Time)","Mozilla/5.0 (Windows NT 10.0; Win64; x64) AppleWebKit/537.36 (KHTML, like Gecko) Chrome/79.0.3945.130 Safari/537.36",9,"[0.9, 0.5, 0.1]","[0.8, 0.4, 0.2]","[u'black', u'red', u'blue']","[u'left', u'middle', u'right']","[0.9, 0.5, 0.1]","[u'medium', u'low', u'high']","blue",51,"right","high","True","False",337,300,NA
"A2CWNRI11XJ7WX","Tue Jan 28 2020 13:43:54 GMT+0000 (Greenwich Mean Time)","Tue Jan 28 2020 13:50:52 GMT+0000 (Greenwich Mean Time)","Mozilla/5.0 (Windows NT 10.0; Win64; x64) AppleWebKit/537.36 (KHTML, like Gecko) Chrome/79.0.3945.130 Safari/537.36",10,"[0.9, 0.5, 0.1]","[0.8, 0.4, 0.2]","[u'black', u'red', u'blue']","[u'left', u'middle', u'right']","[0.9, 0.5, 0.1]","[u'medium', u'low', u'high']","blue",51,"right","high","True","False",411,400,NA
"A2CWNRI11XJ7WX","Tue Jan 28 2020 13:43:54 GMT+0000 (Greenwich Mean Time)","Tue Jan 28 2020 13:50:52 GMT+0000 (Greenwich Mean Time)","Mozilla/5.0 (Windows NT 10.0; Win64; x64) AppleWebKit/537.36 (KHTML, like Gecko) Chrome/79.0.3945.130 Safari/537.36",11,"[0.9, 0.5, 0.1]","[0.8, 0.4, 0.2]","[u'black', u'red', u'blue']","[u'left', u'middle', u'right']","[0.9, 0.5, 0.1]","[u'medium', u'low', u'high']","blue",51,"right","high","True","False",282,500,NA
"A2CWNRI11XJ7WX","Tue Jan 28 2020 13:43:54 GMT+0000 (Greenwich Mean Time)","Tue Jan 28 2020 13:50:52 GMT+0000 (Greenwich Mean Time)","Mozilla/5.0 (Windows NT 10.0; Win64; x64) AppleWebKit/537.36 (KHTML, like Gecko) Chrome/79.0.3945.130 Safari/537.36",12,"[0.9, 0.5, 0.1]","[0.8, 0.4, 0.2]","[u'black', u'red', u'blue']","[u'left', u'middle', u'right']","[0.9, 0.5, 0.1]","[u'medium', u'low', u'high']","blue",51,"right","high","True","False",276,600,NA
"A2CWNRI11XJ7WX","Tue Jan 28 2020 13:43:54 GMT+0000 (Greenwich Mean Time)","Tue Jan 28 2020 13:50:52 GMT+0000 (Greenwich Mean Time)","Mozilla/5.0 (Windows NT 10.0; Win64; x64) AppleWebKit/537.36 (KHTML, like Gecko) Chrome/79.0.3945.130 Safari/537.36",13,"[0.9, 0.5, 0.1]","[0.8, 0.4, 0.2]","[u'black', u'red', u'blue']","[u'left', u'middle', u'right']","[0.9, 0.5, 0.1]","[u'medium', u'low', u'high']","blue",51,"right","high","True","True",346,700,NA
"A2CWNRI11XJ7WX","Tue Jan 28 2020 13:43:54 GMT+0000 (Greenwich Mean Time)","Tue Jan 28 2020 13:50:52 GMT+0000 (Greenwich Mean Time)","Mozilla/5.0 (Windows NT 10.0; Win64; x64) AppleWebKit/537.36 (KHTML, like Gecko) Chrome/79.0.3945.130 Safari/537.36",14,"[0.9, 0.5, 0.1]","[0.8, 0.4, 0.2]","[u'black', u'red', u'blue']","[u'left', u'middle', u'right']","[0.9, 0.5, 0.1]","[u'high', u'low', u'medium']","blue",51,"right","medium","False","False",274,650,NA
"A2CWNRI11XJ7WX","Tue Jan 28 2020 13:43:54 GMT+0000 (Greenwich Mean Time)","Tue Jan 28 2020 13:50:52 GMT+0000 (Greenwich Mean Time)","Mozilla/5.0 (Windows NT 10.0; Win64; x64) AppleWebKit/537.36 (KHTML, like Gecko) Chrome/79.0.3945.130 Safari/537.36",15,"[0.9, 0.5, 0.1]","[0.8, 0.4, 0.2]","[u'black', u'red', u'blue']","[u'left', u'middle', u'right']","[0.9, 0.5, 0.1]","[u'high', u'low', u'medium']","black",49,"left","high","True","False",139,750,NA
"A2CWNRI11XJ7WX","Tue Jan 28 2020 13:43:54 GMT+0000 (Greenwich Mean Time)","Tue Jan 28 2020 13:50:52 GMT+0000 (Greenwich Mean Time)","Mozilla/5.0 (Windows NT 10.0; Win64; x64) AppleWebKit/537.36 (KHTML, like Gecko) Chrome/79.0.3945.130 Safari/537.36",16,"[0.9, 0.5, 0.1]","[0.8, 0.4, 0.2]","[u'black', u'red', u'blue']","[u'left', u'middle', u'right']","[0.9, 0.5, 0.1]","[u'high', u'low', u'medium']","black",49,"left","high","True","False",219,850,NA
"A2CWNRI11XJ7WX","Tue Jan 28 2020 13:43:54 GMT+0000 (Greenwich Mean Time)","Tue Jan 28 2020 13:50:52 GMT+0000 (Greenwich Mean Time)","Mozilla/5.0 (Windows NT 10.0; Win64; x64) AppleWebKit/537.36 (KHTML, like Gecko) Chrome/79.0.3945.130 Safari/537.36",17,"[0.9, 0.5, 0.1]","[0.8, 0.4, 0.2]","[u'black', u'red', u'blue']","[u'left', u'middle', u'right']","[0.9, 0.5, 0.1]","[u'high', u'low', u'medium']","black",49,"left","high","True","False",282,950,NA
"A2CWNRI11XJ7WX","Tue Jan 28 2020 13:43:54 GMT+0000 (Greenwich Mean Time)","Tue Jan 28 2020 13:50:52 GMT+0000 (Greenwich Mean Time)","Mozilla/5.0 (Windows NT 10.0; Win64; x64) AppleWebKit/537.36 (KHTML, like Gecko) Chrome/79.0.3945.130 Safari/537.36",18,"[0.9, 0.5, 0.1]","[0.8, 0.4, 0.2]","[u'black', u'red', u'blue']","[u'left', u'middle', u'right']","[0.9, 0.5, 0.1]","[u'high', u'low', u'medium']","black",49,"left","high","True","False",285,1050,NA
"A2CWNRI11XJ7WX","Tue Jan 28 2020 13:43:54 GMT+0000 (Greenwich Mean Time)","Tue Jan 28 2020 13:50:52 GMT+0000 (Greenwich Mean Time)","Mozilla/5.0 (Windows NT 10.0; Win64; x64) AppleWebKit/537.36 (KHTML, like Gecko) Chrome/79.0.3945.130 Safari/537.36",19,"[0.9, 0.5, 0.1]","[0.8, 0.4, 0.2]","[u'black', u'red', u'blue']","[u'left', u'middle', u'right']","[0.9, 0.5, 0.1]","[u'high', u'low', u'medium']","black",49,"left","high","True","False",275,1150,NA
"A2CWNRI11XJ7WX","Tue Jan 28 2020 13:43:54 GMT+0000 (Greenwich Mean Time)","Tue Jan 28 2020 13:50:52 GMT+0000 (Greenwich Mean Time)","Mozilla/5.0 (Windows NT 10.0; Win64; x64) AppleWebKit/537.36 (KHTML, like Gecko) Chrome/79.0.3945.130 Safari/537.36",20,"[0.9, 0.5, 0.1]","[0.8, 0.4, 0.2]","[u'black', u'red', u'blue']","[u'left', u'middle', u'right']","[0.9, 0.5, 0.1]","[u'high', u'low', u'medium']","black",49,"left","high","True","False",283,1250,NA
"A2CWNRI11XJ7WX","Tue Jan 28 2020 13:43:54 GMT+0000 (Greenwich Mean Time)","Tue Jan 28 2020 13:50:52 GMT+0000 (Greenwich Mean Time)","Mozilla/5.0 (Windows NT 10.0; Win64; x64) AppleWebKit/537.36 (KHTML, like Gecko) Chrome/79.0.3945.130 Safari/537.36",21,"[0.9, 0.5, 0.1]","[0.8, 0.4, 0.2]","[u'black', u'red', u'blue']","[u'left', u'middle', u'right']","[0.9, 0.5, 0.1]","[u'high', u'low', u'medium']","black",49,"left","high","True","False",266,1350,NA
"A2CWNRI11XJ7WX","Tue Jan 28 2020 13:43:54 GMT+0000 (Greenwich Mean Time)","Tue Jan 28 2020 13:50:52 GMT+0000 (Greenwich Mean Time)","Mozilla/5.0 (Windows NT 10.0; Win64; x64) AppleWebKit/537.36 (KHTML, like Gecko) Chrome/79.0.3945.130 Safari/537.36",22,"[0.9, 0.5, 0.1]","[0.8, 0.4, 0.2]","[u'black', u'red', u'blue']","[u'left', u'middle', u'right']","[0.9, 0.5, 0.1]","[u'high', u'low', u'medium']","black",49,"left","high","True","False",203,1450,NA
"A2CWNRI11XJ7WX","Tue Jan 28 2020 13:43:54 GMT+0000 (Greenwich Mean Time)","Tue Jan 28 2020 13:50:52 GMT+0000 (Greenwich Mean Time)","Mozilla/5.0 (Windows NT 10.0; Win64; x64) AppleWebKit/537.36 (KHTML, like Gecko) Chrome/79.0.3945.130 Safari/537.36",23,"[0.9, 0.5, 0.1]","[0.8, 0.4, 0.2]","[u'black', u'red', u'blue']","[u'left', u'middle', u'right']","[0.9, 0.5, 0.1]","[u'high', u'low', u'medium']","black",49,"left","high","True","True",249,1550,NA
"A2CWNRI11XJ7WX","Tue Jan 28 2020 13:43:54 GMT+0000 (Greenwich Mean Time)","Tue Jan 28 2020 13:50:52 GMT+0000 (Greenwich Mean Time)","Mozilla/5.0 (Windows NT 10.0; Win64; x64) AppleWebKit/537.36 (KHTML, like Gecko) Chrome/79.0.3945.130 Safari/537.36",24,"[0.9, 0.5, 0.1]","[0.8, 0.4, 0.2]","[u'black', u'red', u'blue']","[u'left', u'middle', u'right']","[0.9, 0.5, 0.1]","[u'low', u'medium', u'high']","black",49,"left","low","False","False",227,1500,NA
"A2CWNRI11XJ7WX","Tue Jan 28 2020 13:43:54 GMT+0000 (Greenwich Mean Time)","Tue Jan 28 2020 13:50:52 GMT+0000 (Greenwich Mean Time)","Mozilla/5.0 (Windows NT 10.0; Win64; x64) AppleWebKit/537.36 (KHTML, like Gecko) Chrome/79.0.3945.130 Safari/537.36",25,"[0.9, 0.5, 0.1]","[0.8, 0.4, 0.2]","[u'black', u'red', u'blue']","[u'left', u'middle', u'right']","[0.9, 0.5, 0.1]","[u'low', u'medium', u'high']","red",50,"middle","medium","False","False",105,1450,NA
"A2CWNRI11XJ7WX","Tue Jan 28 2020 13:43:54 GMT+0000 (Greenwich Mean Time)","Tue Jan 28 2020 13:50:52 GMT+0000 (Greenwich Mean Time)","Mozilla/5.0 (Windows NT 10.0; Win64; x64) AppleWebKit/537.36 (KHTML, like Gecko) Chrome/79.0.3945.130 Safari/537.36",26,"[0.9, 0.5, 0.1]","[0.8, 0.4, 0.2]","[u'black', u'red', u'blue']","[u'left', u'middle', u'right']","[0.9, 0.5, 0.1]","[u'low', u'medium', u'high']","blue",51,"right","high","True","False",147,1550,NA
"A2CWNRI11XJ7WX","Tue Jan 28 2020 13:43:54 GMT+0000 (Greenwich Mean Time)","Tue Jan 28 2020 13:50:52 GMT+0000 (Greenwich Mean Time)","Mozilla/5.0 (Windows NT 10.0; Win64; x64) AppleWebKit/537.36 (KHTML, like Gecko) Chrome/79.0.3945.130 Safari/537.36",27,"[0.9, 0.5, 0.1]","[0.8, 0.4, 0.2]","[u'black', u'red', u'blue']","[u'left', u'middle', u'right']","[0.9, 0.5, 0.1]","[u'low', u'medium', u'high']","blue",51,"right","high","True","False",179,1650,NA
"A2CWNRI11XJ7WX","Tue Jan 28 2020 13:43:54 GMT+0000 (Greenwich Mean Time)","Tue Jan 28 2020 13:50:52 GMT+0000 (Greenwich Mean Time)","Mozilla/5.0 (Windows NT 10.0; Win64; x64) AppleWebKit/537.36 (KHTML, like Gecko) Chrome/79.0.3945.130 Safari/537.36",28,"[0.9, 0.5, 0.1]","[0.8, 0.4, 0.2]","[u'black', u'red', u'blue']","[u'left', u'middle', u'right']","[0.9, 0.5, 0.1]","[u'low', u'medium', u'high']","blue",51,"right","high","True","False",227,1750,NA
"A2CWNRI11XJ7WX","Tue Jan 28 2020 13:43:54 GMT+0000 (Greenwich Mean Time)","Tue Jan 28 2020 13:50:52 GMT+0000 (Greenwich Mean Time)","Mozilla/5.0 (Windows NT 10.0; Win64; x64) AppleWebKit/537.36 (KHTML, like Gecko) Chrome/79.0.3945.130 Safari/537.36",29,"[0.9, 0.5, 0.1]","[0.8, 0.4, 0.2]","[u'black', u'red', u'blue']","[u'left', u'middle', u'right']","[0.9, 0.5, 0.1]","[u'low', u'medium', u'high']","blue",51,"right","high","True","False",242,1850,NA
"A2CWNRI11XJ7WX","Tue Jan 28 2020 13:43:54 GMT+0000 (Greenwich Mean Time)","Tue Jan 28 2020 13:50:52 GMT+0000 (Greenwich Mean Time)","Mozilla/5.0 (Windows NT 10.0; Win64; x64) AppleWebKit/537.36 (KHTML, like Gecko) Chrome/79.0.3945.130 Safari/537.36",30,"[0.9, 0.5, 0.1]","[0.8, 0.4, 0.2]","[u'black', u'red', u'blue']","[u'left', u'middle', u'right']","[0.9, 0.5, 0.1]","[u'low', u'medium', u'high']","blue",51,"right","high","True","False",292,1950,NA
"A2CWNRI11XJ7WX","Tue Jan 28 2020 13:43:54 GMT+0000 (Greenwich Mean Time)","Tue Jan 28 2020 13:50:52 GMT+0000 (Greenwich Mean Time)","Mozilla/5.0 (Windows NT 10.0; Win64; x64) AppleWebKit/537.36 (KHTML, like Gecko) Chrome/79.0.3945.130 Safari/537.36",31,"[0.9, 0.5, 0.1]","[0.8, 0.4, 0.2]","[u'black', u'red', u'blue']","[u'left', u'middle', u'right']","[0.9, 0.5, 0.1]","[u'low', u'medium', u'high']","blue",51,"right","high","True","False",274,2050,NA
"A2CWNRI11XJ7WX","Tue Jan 28 2020 13:43:54 GMT+0000 (Greenwich Mean Time)","Tue Jan 28 2020 13:50:52 GMT+0000 (Greenwich Mean Time)","Mozilla/5.0 (Windows NT 10.0; Win64; x64) AppleWebKit/537.36 (KHTML, like Gecko) Chrome/79.0.3945.130 Safari/537.36",32,"[0.9, 0.5, 0.1]","[0.8, 0.4, 0.2]","[u'black', u'red', u'blue']","[u'left', u'middle', u'right']","[0.9, 0.5, 0.1]","[u'low', u'medium', u'high']","blue",51,"right","high","True","False",241,2150,NA
"A2CWNRI11XJ7WX","Tue Jan 28 2020 13:43:54 GMT+0000 (Greenwich Mean Time)","Tue Jan 28 2020 13:50:52 GMT+0000 (Greenwich Mean Time)","Mozilla/5.0 (Windows NT 10.0; Win64; x64) AppleWebKit/537.36 (KHTML, like Gecko) Chrome/79.0.3945.130 Safari/537.36",33,"[0.9, 0.5, 0.1]","[0.8, 0.4, 0.2]","[u'black', u'red', u'blue']","[u'left', u'middle', u'right']","[0.9, 0.5, 0.1]","[u'low', u'medium', u'high']","black",49,"left","low","False","False",123,2100,NA
"A2CWNRI11XJ7WX","Tue Jan 28 2020 13:43:54 GMT+0000 (Greenwich Mean Time)","Tue Jan 28 2020 13:50:52 GMT+0000 (Greenwich Mean Time)","Mozilla/5.0 (Windows NT 10.0; Win64; x64) AppleWebKit/537.36 (KHTML, like Gecko) Chrome/79.0.3945.130 Safari/537.36",34,"[0.9, 0.5, 0.1]","[0.8, 0.4, 0.2]","[u'black', u'red', u'blue']","[u'left', u'middle', u'right']","[0.9, 0.5, 0.1]","[u'low', u'medium', u'high']","blue",51,"right","high","True","False",105,2200,NA
"A2CWNRI11XJ7WX","Tue Jan 28 2020 13:43:54 GMT+0000 (Greenwich Mean Time)","Tue Jan 28 2020 13:50:52 GMT+0000 (Greenwich Mean Time)","Mozilla/5.0 (Windows NT 10.0; Win64; x64) AppleWebKit/537.36 (KHTML, like Gecko) Chrome/79.0.3945.130 Safari/537.36",35,"[0.9, 0.5, 0.1]","[0.8, 0.4, 0.2]","[u'black', u'red', u'blue']","[u'left', u'middle', u'right']","[0.9, 0.5, 0.1]","[u'low', u'medium', u'high']","blue",51,"right","high","True","True",249,2300,NA
"A2CWNRI11XJ7WX","Tue Jan 28 2020 13:43:54 GMT+0000 (Greenwich Mean Time)","Tue Jan 28 2020 13:50:52 GMT+0000 (Greenwich Mean Time)","Mozilla/5.0 (Windows NT 10.0; Win64; x64) AppleWebKit/537.36 (KHTML, like Gecko) Chrome/79.0.3945.130 Safari/537.36",36,"[0.9, 0.5, 0.1]","[0.8, 0.4, 0.2]","[u'black', u'red', u'blue']","[u'left', u'middle', u'right']","[0.9, 0.5, 0.1]","[u'low', u'high', u'medium']","blue",51,"right","medium","False","False",155,2250,NA
"A2CWNRI11XJ7WX","Tue Jan 28 2020 13:43:54 GMT+0000 (Greenwich Mean Time)","Tue Jan 28 2020 13:50:52 GMT+0000 (Greenwich Mean Time)","Mozilla/5.0 (Windows NT 10.0; Win64; x64) AppleWebKit/537.36 (KHTML, like Gecko) Chrome/79.0.3945.130 Safari/537.36",37,"[0.9, 0.5, 0.1]","[0.8, 0.4, 0.2]","[u'black', u'red', u'blue']","[u'left', u'middle', u'right']","[0.9, 0.5, 0.1]","[u'low', u'high', u'medium']","red",50,"middle","high","True","False",114,2350,NA
"A2CWNRI11XJ7WX","Tue Jan 28 2020 13:43:54 GMT+0000 (Greenwich Mean Time)","Tue Jan 28 2020 13:50:52 GMT+0000 (Greenwich Mean Time)","Mozilla/5.0 (Windows NT 10.0; Win64; x64) AppleWebKit/537.36 (KHTML, like Gecko) Chrome/79.0.3945.130 Safari/537.36",38,"[0.9, 0.5, 0.1]","[0.8, 0.4, 0.2]","[u'black', u'red', u'blue']","[u'left', u'middle', u'right']","[0.9, 0.5, 0.1]","[u'low', u'high', u'medium']","red",50,"middle","high","False","False",107,2300,NA
"A2CWNRI11XJ7WX","Tue Jan 28 2020 13:43:54 GMT+0000 (Greenwich Mean Time)","Tue Jan 28 2020 13:50:52 GMT+0000 (Greenwich Mean Time)","Mozilla/5.0 (Windows NT 10.0; Win64; x64) AppleWebKit/537.36 (KHTML, like Gecko) Chrome/79.0.3945.130 Safari/537.36",39,"[0.9, 0.5, 0.1]","[0.8, 0.4, 0.2]","[u'black', u'red', u'blue']","[u'left', u'middle', u'right']","[0.9, 0.5, 0.1]","[u'low', u'high', u'medium']","black",49,"left","low","True","False",203,2400,NA
"A2CWNRI11XJ7WX","Tue Jan 28 2020 13:43:54 GMT+0000 (Greenwich Mean Time)","Tue Jan 28 2020 13:50:52 GMT+0000 (Greenwich Mean Time)","Mozilla/5.0 (Windows NT 10.0; Win64; x64) AppleWebKit/537.36 (KHTML, like Gecko) Chrome/79.0.3945.130 Safari/537.36",40,"[0.9, 0.5, 0.1]","[0.8, 0.4, 0.2]","[u'black', u'red', u'blue']","[u'left', u'middle', u'right']","[0.9, 0.5, 0.1]","[u'low', u'high', u'medium']","black",49,"left","low","False","False",250,2350,NA
"A2CWNRI11XJ7WX","Tue Jan 28 2020 13:43:54 GMT+0000 (Greenwich Mean Time)","Tue Jan 28 2020 13:50:52 GMT+0000 (Greenwich Mean Time)","Mozilla/5.0 (Windows NT 10.0; Win64; x64) AppleWebKit/537.36 (KHTML, like Gecko) Chrome/79.0.3945.130 Safari/537.36",41,"[0.9, 0.5, 0.1]","[0.8, 0.4, 0.2]","[u'black', u'red', u'blue']","[u'left', u'middle', u'right']","[0.9, 0.5, 0.1]","[u'low', u'medium', u'high']","red",50,"middle","medium","True","False",569,2450,NA
"A2CWNRI11XJ7WX","Tue Jan 28 2020 13:43:54 GMT+0000 (Greenwich Mean Time)","Tue Jan 28 2020 13:50:52 GMT+0000 (Greenwich Mean Time)","Mozilla/5.0 (Windows NT 10.0; Win64; x64) AppleWebKit/537.36 (KHTML, like Gecko) Chrome/79.0.3945.130 Safari/537.36",42,"[0.9, 0.5, 0.1]","[0.8, 0.4, 0.2]","[u'black', u'red', u'blue']","[u'left', u'middle', u'right']","[0.9, 0.5, 0.1]","[u'low', u'medium', u'high']","red",50,"middle","medium","False","False",547,2400,NA
"A2CWNRI11XJ7WX","Tue Jan 28 2020 13:43:54 GMT+0000 (Greenwich Mean Time)","Tue Jan 28 2020 13:50:52 GMT+0000 (Greenwich Mean Time)","Mozilla/5.0 (Windows NT 10.0; Win64; x64) AppleWebKit/537.36 (KHTML, like Gecko) Chrome/79.0.3945.130 Safari/537.36",43,"[0.9, 0.5, 0.1]","[0.8, 0.4, 0.2]","[u'black', u'red', u'blue']","[u'left', u'middle', u'right']","[0.9, 0.5, 0.1]","[u'low', u'medium', u'high']","black",49,"left","low","False","False",211,2350,NA
"A2CWNRI11XJ7WX","Tue Jan 28 2020 13:43:54 GMT+0000 (Greenwich Mean Time)","Tue Jan 28 2020 13:50:52 GMT+0000 (Greenwich Mean Time)","Mozilla/5.0 (Windows NT 10.0; Win64; x64) AppleWebKit/537.36 (KHTML, like Gecko) Chrome/79.0.3945.130 Safari/537.36",44,"[0.9, 0.5, 0.1]","[0.8, 0.4, 0.2]","[u'black', u'red', u'blue']","[u'left', u'middle', u'right']","[0.9, 0.5, 0.1]","[u'low', u'medium', u'high']","blue",51,"right","high","True","False",474,2450,NA
"A2CWNRI11XJ7WX","Tue Jan 28 2020 13:43:54 GMT+0000 (Greenwich Mean Time)","Tue Jan 28 2020 13:50:52 GMT+0000 (Greenwich Mean Time)","Mozilla/5.0 (Windows NT 10.0; Win64; x64) AppleWebKit/537.36 (KHTML, like Gecko) Chrome/79.0.3945.130 Safari/537.36",45,"[0.9, 0.5, 0.1]","[0.8, 0.4, 0.2]","[u'black', u'red', u'blue']","[u'left', u'middle', u'right']","[0.9, 0.5, 0.1]","[u'low', u'medium', u'high']","blue",51,"right","high","True","False",291,2550,NA
"A2CWNRI11XJ7WX","Tue Jan 28 2020 13:43:54 GMT+0000 (Greenwich Mean Time)","Tue Jan 28 2020 13:50:52 GMT+0000 (Greenwich Mean Time)","Mozilla/5.0 (Windows NT 10.0; Win64; x64) AppleWebKit/537.36 (KHTML, like Gecko) Chrome/79.0.3945.130 Safari/537.36",46,"[0.9, 0.5, 0.1]","[0.8, 0.4, 0.2]","[u'black', u'red', u'blue']","[u'left', u'middle', u'right']","[0.9, 0.5, 0.1]","[u'low', u'medium', u'high']","blue",51,"right","high","True","False",363,2650,NA
"A2CWNRI11XJ7WX","Tue Jan 28 2020 13:43:54 GMT+0000 (Greenwich Mean Time)","Tue Jan 28 2020 13:50:52 GMT+0000 (Greenwich Mean Time)","Mozilla/5.0 (Windows NT 10.0; Win64; x64) AppleWebKit/537.36 (KHTML, like Gecko) Chrome/79.0.3945.130 Safari/537.36",47,"[0.9, 0.5, 0.1]","[0.8, 0.4, 0.2]","[u'black', u'red', u'blue']","[u'left', u'middle', u'right']","[0.9, 0.5, 0.1]","[u'low', u'medium', u'high']","blue",51,"right","high","True","False",243,2750,NA
"A2CWNRI11XJ7WX","Tue Jan 28 2020 13:43:54 GMT+0000 (Greenwich Mean Time)","Tue Jan 28 2020 13:50:52 GMT+0000 (Greenwich Mean Time)","Mozilla/5.0 (Windows NT 10.0; Win64; x64) AppleWebKit/537.36 (KHTML, like Gecko) Chrome/79.0.3945.130 Safari/537.36",48,"[0.9, 0.5, 0.1]","[0.8, 0.4, 0.2]","[u'black', u'red', u'blue']","[u'left', u'middle', u'right']","[0.9, 0.5, 0.1]","[u'low', u'medium', u'high']","blue",51,"right","high","True","False",291,2850,NA
"A2CWNRI11XJ7WX","Tue Jan 28 2020 13:43:54 GMT+0000 (Greenwich Mean Time)","Tue Jan 28 2020 13:50:52 GMT+0000 (Greenwich Mean Time)","Mozilla/5.0 (Windows NT 10.0; Win64; x64) AppleWebKit/537.36 (KHTML, like Gecko) Chrome/79.0.3945.130 Safari/537.36",49,"[0.9, 0.5, 0.1]","[0.8, 0.4, 0.2]","[u'black', u'red', u'blue']","[u'left', u'middle', u'right']","[0.9, 0.5, 0.1]","[u'low', u'medium', u'high']","blue",51,"right","high","True","False",290,2950,NA
"A2CWNRI11XJ7WX","Tue Jan 28 2020 13:43:54 GMT+0000 (Greenwich Mean Time)","Tue Jan 28 2020 13:50:52 GMT+0000 (Greenwich Mean Time)","Mozilla/5.0 (Windows NT 10.0; Win64; x64) AppleWebKit/537.36 (KHTML, like Gecko) Chrome/79.0.3945.130 Safari/537.36",50,"[0.9, 0.5, 0.1]","[0.8, 0.4, 0.2]","[u'black', u'red', u'blue']","[u'left', u'middle', u'right']","[0.9, 0.5, 0.1]","[u'low', u'medium', u'high']","blue",51,"right","high","True","False",275,3050,NA
"A2CWNRI11XJ7WX","Tue Jan 28 2020 13:43:54 GMT+0000 (Greenwich Mean Time)","Tue Jan 28 2020 13:50:52 GMT+0000 (Greenwich Mean Time)","Mozilla/5.0 (Windows NT 10.0; Win64; x64) AppleWebKit/537.36 (KHTML, like Gecko) Chrome/79.0.3945.130 Safari/537.36",51,"[0.9, 0.5, 0.1]","[0.8, 0.4, 0.2]","[u'black', u'red', u'blue']","[u'left', u'middle', u'right']","[0.9, 0.5, 0.1]","[u'low', u'medium', u'high']","blue",51,"right","high","True","False",274,3150,NA
"A2CWNRI11XJ7WX","Tue Jan 28 2020 13:43:54 GMT+0000 (Greenwich Mean Time)","Tue Jan 28 2020 13:50:52 GMT+0000 (Greenwich Mean Time)","Mozilla/5.0 (Windows NT 10.0; Win64; x64) AppleWebKit/537.36 (KHTML, like Gecko) Chrome/79.0.3945.130 Safari/537.36",52,"[0.9, 0.5, 0.1]","[0.8, 0.4, 0.2]","[u'black', u'red', u'blue']","[u'left', u'middle', u'right']","[0.9, 0.5, 0.1]","[u'low', u'medium', u'high']","blue",51,"right","high","True","True",292,3250,NA
"A2CWNRI11XJ7WX","Tue Jan 28 2020 13:43:54 GMT+0000 (Greenwich Mean Time)","Tue Jan 28 2020 13:50:52 GMT+0000 (Greenwich Mean Time)","Mozilla/5.0 (Windows NT 10.0; Win64; x64) AppleWebKit/537.36 (KHTML, like Gecko) Chrome/79.0.3945.130 Safari/537.36",53,"[0.9, 0.5, 0.1]","[0.8, 0.4, 0.2]","[u'black', u'red', u'blue']","[u'left', u'middle', u'right']","[0.9, 0.5, 0.1]","[u'low', u'high', u'medium']","blue",51,"right","medium","False","False",249,3200,NA
"A2CWNRI11XJ7WX","Tue Jan 28 2020 13:43:54 GMT+0000 (Greenwich Mean Time)","Tue Jan 28 2020 13:50:52 GMT+0000 (Greenwich Mean Time)","Mozilla/5.0 (Windows NT 10.0; Win64; x64) AppleWebKit/537.36 (KHTML, like Gecko) Chrome/79.0.3945.130 Safari/537.36",54,"[0.9, 0.5, 0.1]","[0.8, 0.4, 0.2]","[u'black', u'red', u'blue']","[u'left', u'middle', u'right']","[0.9, 0.5, 0.1]","[u'low', u'high', u'medium']","black",49,"left","low","True","False",147,3300,NA
"A2CWNRI11XJ7WX","Tue Jan 28 2020 13:43:54 GMT+0000 (Greenwich Mean Time)","Tue Jan 28 2020 13:50:52 GMT+0000 (Greenwich Mean Time)","Mozilla/5.0 (Windows NT 10.0; Win64; x64) AppleWebKit/537.36 (KHTML, like Gecko) Chrome/79.0.3945.130 Safari/537.36",55,"[0.9, 0.5, 0.1]","[0.8, 0.4, 0.2]","[u'black', u'red', u'blue']","[u'left', u'middle', u'right']","[0.9, 0.5, 0.1]","[u'low', u'high', u'medium']","black",49,"left","low","False","False",426,3250,NA
"A2CWNRI11XJ7WX","Tue Jan 28 2020 13:43:54 GMT+0000 (Greenwich Mean Time)","Tue Jan 28 2020 13:50:52 GMT+0000 (Greenwich Mean Time)","Mozilla/5.0 (Windows NT 10.0; Win64; x64) AppleWebKit/537.36 (KHTML, like Gecko) Chrome/79.0.3945.130 Safari/537.36",56,"[0.9, 0.5, 0.1]","[0.8, 0.4, 0.2]","[u'black', u'red', u'blue']","[u'left', u'middle', u'right']","[0.9, 0.5, 0.1]","[u'low', u'high', u'medium']","red",50,"middle","high","True","False",262,3350,NA
"A2CWNRI11XJ7WX","Tue Jan 28 2020 13:43:54 GMT+0000 (Greenwich Mean Time)","Tue Jan 28 2020 13:50:52 GMT+0000 (Greenwich Mean Time)","Mozilla/5.0 (Windows NT 10.0; Win64; x64) AppleWebKit/537.36 (KHTML, like Gecko) Chrome/79.0.3945.130 Safari/537.36",57,"[0.9, 0.5, 0.1]","[0.8, 0.4, 0.2]","[u'black', u'red', u'blue']","[u'left', u'middle', u'right']","[0.9, 0.5, 0.1]","[u'low', u'high', u'medium']","red",50,"middle","high","False","False",278,3300,NA
"A2CWNRI11XJ7WX","Tue Jan 28 2020 13:43:54 GMT+0000 (Greenwich Mean Time)","Tue Jan 28 2020 13:50:52 GMT+0000 (Greenwich Mean Time)","Mozilla/5.0 (Windows NT 10.0; Win64; x64) AppleWebKit/537.36 (KHTML, like Gecko) Chrome/79.0.3945.130 Safari/537.36",58,"[0.9, 0.5, 0.1]","[0.8, 0.4, 0.2]","[u'black', u'red', u'blue']","[u'left', u'middle', u'right']","[0.9, 0.5, 0.1]","[u'low', u'high', u'medium']","blue",51,"right","medium","True","False",268,3400,NA
"A2CWNRI11XJ7WX","Tue Jan 28 2020 13:43:54 GMT+0000 (Greenwich Mean Time)","Tue Jan 28 2020 13:50:52 GMT+0000 (Greenwich Mean Time)","Mozilla/5.0 (Windows NT 10.0; Win64; x64) AppleWebKit/537.36 (KHTML, like Gecko) Chrome/79.0.3945.130 Safari/537.36",59,"[0.9, 0.5, 0.1]","[0.8, 0.4, 0.2]","[u'black', u'red', u'blue']","[u'left', u'middle', u'right']","[0.9, 0.5, 0.1]","[u'low', u'high', u'medium']","blue",51,"right","medium","True","False",291,3500,NA
"A2CWNRI11XJ7WX","Tue Jan 28 2020 13:43:54 GMT+0000 (Greenwich Mean Time)","Tue Jan 28 2020 13:50:52 GMT+0000 (Greenwich Mean Time)","Mozilla/5.0 (Windows NT 10.0; Win64; x64) AppleWebKit/537.36 (KHTML, like Gecko) Chrome/79.0.3945.130 Safari/537.36",60,"[0.9, 0.5, 0.1]","[0.8, 0.4, 0.2]","[u'black', u'red', u'blue']","[u'left', u'middle', u'right']","[0.9, 0.5, 0.1]","[u'low', u'high', u'medium']","blue",51,"right","medium","True","False",217,3600,NA
"A2CWNRI11XJ7WX","Tue Jan 28 2020 13:43:54 GMT+0000 (Greenwich Mean Time)","Tue Jan 28 2020 13:50:52 GMT+0000 (Greenwich Mean Time)","Mozilla/5.0 (Windows NT 10.0; Win64; x64) AppleWebKit/537.36 (KHTML, like Gecko) Chrome/79.0.3945.130 Safari/537.36",61,"[0.9, 0.5, 0.1]","[0.8, 0.4, 0.2]","[u'black', u'red', u'blue']","[u'left', u'middle', u'right']","[0.9, 0.5, 0.1]","[u'low', u'high', u'medium']","blue",51,"right","medium","False","False",315,3550,NA
"A2CWNRI11XJ7WX","Tue Jan 28 2020 13:43:54 GMT+0000 (Greenwich Mean Time)","Tue Jan 28 2020 13:50:52 GMT+0000 (Greenwich Mean Time)","Mozilla/5.0 (Windows NT 10.0; Win64; x64) AppleWebKit/537.36 (KHTML, like Gecko) Chrome/79.0.3945.130 Safari/537.36",62,"[0.9, 0.5, 0.1]","[0.8, 0.4, 0.2]","[u'black', u'red', u'blue']","[u'left', u'middle', u'right']","[0.9, 0.5, 0.1]","[u'low', u'high', u'medium']","black",49,"left","low","False","False",275,3500,NA
"A2CWNRI11XJ7WX","Tue Jan 28 2020 13:43:54 GMT+0000 (Greenwich Mean Time)","Tue Jan 28 2020 13:50:52 GMT+0000 (Greenwich Mean Time)","Mozilla/5.0 (Windows NT 10.0; Win64; x64) AppleWebKit/537.36 (KHTML, like Gecko) Chrome/79.0.3945.130 Safari/537.36",63,"[0.9, 0.5, 0.1]","[0.8, 0.4, 0.2]","[u'black', u'red', u'blue']","[u'left', u'middle', u'right']","[0.9, 0.5, 0.1]","[u'low', u'high', u'medium']","red",50,"middle","high","True","False",266,3600,NA
"A2CWNRI11XJ7WX","Tue Jan 28 2020 13:43:54 GMT+0000 (Greenwich Mean Time)","Tue Jan 28 2020 13:50:52 GMT+0000 (Greenwich Mean Time)","Mozilla/5.0 (Windows NT 10.0; Win64; x64) AppleWebKit/537.36 (KHTML, like Gecko) Chrome/79.0.3945.130 Safari/537.36",64,"[0.9, 0.5, 0.1]","[0.8, 0.4, 0.2]","[u'black', u'red', u'blue']","[u'left', u'middle', u'right']","[0.9, 0.5, 0.1]","[u'low', u'high', u'medium']","red",50,"middle","high","True","False",233,3700,NA
"A2CWNRI11XJ7WX","Tue Jan 28 2020 13:43:54 GMT+0000 (Greenwich Mean Time)","Tue Jan 28 2020 13:50:52 GMT+0000 (Greenwich Mean Time)","Mozilla/5.0 (Windows NT 10.0; Win64; x64) AppleWebKit/537.36 (KHTML, like Gecko) Chrome/79.0.3945.130 Safari/537.36",65,"[0.9, 0.5, 0.1]","[0.8, 0.4, 0.2]","[u'black', u'red', u'blue']","[u'left', u'middle', u'right']","[0.9, 0.5, 0.1]","[u'low', u'high', u'medium']","red",50,"middle","high","True","False",266,3800,NA
"A2CWNRI11XJ7WX","Tue Jan 28 2020 13:43:54 GMT+0000 (Greenwich Mean Time)","Tue Jan 28 2020 13:50:52 GMT+0000 (Greenwich Mean Time)","Mozilla/5.0 (Windows NT 10.0; Win64; x64) AppleWebKit/537.36 (KHTML, like Gecko) Chrome/79.0.3945.130 Safari/537.36",66,"[0.9, 0.5, 0.1]","[0.8, 0.4, 0.2]","[u'black', u'red', u'blue']","[u'left', u'middle', u'right']","[0.9, 0.5, 0.1]","[u'low', u'high', u'medium']","red",50,"middle","high","True","False",306,3900,NA
"A2CWNRI11XJ7WX","Tue Jan 28 2020 13:43:54 GMT+0000 (Greenwich Mean Time)","Tue Jan 28 2020 13:50:52 GMT+0000 (Greenwich Mean Time)","Mozilla/5.0 (Windows NT 10.0; Win64; x64) AppleWebKit/537.36 (KHTML, like Gecko) Chrome/79.0.3945.130 Safari/537.36",67,"[0.9, 0.5, 0.1]","[0.8, 0.4, 0.2]","[u'black', u'red', u'blue']","[u'left', u'middle', u'right']","[0.9, 0.5, 0.1]","[u'low', u'high', u'medium']","red",50,"middle","high","True","False",242,4000,NA
"A2CWNRI11XJ7WX","Tue Jan 28 2020 13:43:54 GMT+0000 (Greenwich Mean Time)","Tue Jan 28 2020 13:50:52 GMT+0000 (Greenwich Mean Time)","Mozilla/5.0 (Windows NT 10.0; Win64; x64) AppleWebKit/537.36 (KHTML, like Gecko) Chrome/79.0.3945.130 Safari/537.36",68,"[0.9, 0.5, 0.1]","[0.8, 0.4, 0.2]","[u'black', u'red', u'blue']","[u'left', u'middle', u'right']","[0.9, 0.5, 0.1]","[u'low', u'high', u'medium']","red",50,"middle","high","True","False",283,4100,NA
"A2CWNRI11XJ7WX","Tue Jan 28 2020 13:43:54 GMT+0000 (Greenwich Mean Time)","Tue Jan 28 2020 13:50:52 GMT+0000 (Greenwich Mean Time)","Mozilla/5.0 (Windows NT 10.0; Win64; x64) AppleWebKit/537.36 (KHTML, like Gecko) Chrome/79.0.3945.130 Safari/537.36",69,"[0.9, 0.5, 0.1]","[0.8, 0.4, 0.2]","[u'black', u'red', u'blue']","[u'left', u'middle', u'right']","[0.9, 0.5, 0.1]","[u'low', u'high', u'medium']","red",50,"middle","high","True","False",275,4200,NA
"A2CWNRI11XJ7WX","Tue Jan 28 2020 13:43:54 GMT+0000 (Greenwich Mean Time)","Tue Jan 28 2020 13:50:52 GMT+0000 (Greenwich Mean Time)","Mozilla/5.0 (Windows NT 10.0; Win64; x64) AppleWebKit/537.36 (KHTML, like Gecko) Chrome/79.0.3945.130 Safari/537.36",70,"[0.9, 0.5, 0.1]","[0.8, 0.4, 0.2]","[u'black', u'red', u'blue']","[u'left', u'middle', u'right']","[0.9, 0.5, 0.1]","[u'low', u'high', u'medium']","red",50,"middle","high","True","False",282,4300,NA
"A2CWNRI11XJ7WX","Tue Jan 28 2020 13:43:54 GMT+0000 (Greenwich Mean Time)","Tue Jan 28 2020 13:50:52 GMT+0000 (Greenwich Mean Time)","Mozilla/5.0 (Windows NT 10.0; Win64; x64) AppleWebKit/537.36 (KHTML, like Gecko) Chrome/79.0.3945.130 Safari/537.36",71,"[0.9, 0.5, 0.1]","[0.8, 0.4, 0.2]","[u'black', u'red', u'blue']","[u'left', u'middle', u'right']","[0.9, 0.5, 0.1]","[u'low', u'high', u'medium']","red",50,"middle","high","True","True",322,4400,NA
"A2CWNRI11XJ7WX","Tue Jan 28 2020 13:43:54 GMT+0000 (Greenwich Mean Time)","Tue Jan 28 2020 13:50:52 GMT+0000 (Greenwich Mean Time)","Mozilla/5.0 (Windows NT 10.0; Win64; x64) AppleWebKit/537.36 (KHTML, like Gecko) Chrome/79.0.3945.130 Safari/537.36",72,"[0.9, 0.5, 0.1]","[0.8, 0.4, 0.2]","[u'black', u'red', u'blue']","[u'left', u'middle', u'right']","[0.9, 0.5, 0.1]","[u'medium', u'low', u'high']","red",50,"middle","low","True","False",308,4500,NA
"A2CWNRI11XJ7WX","Tue Jan 28 2020 13:43:54 GMT+0000 (Greenwich Mean Time)","Tue Jan 28 2020 13:50:52 GMT+0000 (Greenwich Mean Time)","Mozilla/5.0 (Windows NT 10.0; Win64; x64) AppleWebKit/537.36 (KHTML, like Gecko) Chrome/79.0.3945.130 Safari/537.36",73,"[0.9, 0.5, 0.1]","[0.8, 0.4, 0.2]","[u'black', u'red', u'blue']","[u'left', u'middle', u'right']","[0.9, 0.5, 0.1]","[u'medium', u'low', u'high']","red",50,"middle","low","False","False",267,4450,NA
"A2CWNRI11XJ7WX","Tue Jan 28 2020 13:43:54 GMT+0000 (Greenwich Mean Time)","Tue Jan 28 2020 13:50:52 GMT+0000 (Greenwich Mean Time)","Mozilla/5.0 (Windows NT 10.0; Win64; x64) AppleWebKit/537.36 (KHTML, like Gecko) Chrome/79.0.3945.130 Safari/537.36",74,"[0.9, 0.5, 0.1]","[0.8, 0.4, 0.2]","[u'black', u'red', u'blue']","[u'left', u'middle', u'right']","[0.9, 0.5, 0.1]","[u'medium', u'low', u'high']","black",49,"left","medium","True","False",227,4550,NA
"A2CWNRI11XJ7WX","Tue Jan 28 2020 13:43:54 GMT+0000 (Greenwich Mean Time)","Tue Jan 28 2020 13:50:52 GMT+0000 (Greenwich Mean Time)","Mozilla/5.0 (Windows NT 10.0; Win64; x64) AppleWebKit/537.36 (KHTML, like Gecko) Chrome/79.0.3945.130 Safari/537.36",75,"[0.9, 0.5, 0.1]","[0.8, 0.4, 0.2]","[u'black', u'red', u'blue']","[u'left', u'middle', u'right']","[0.9, 0.5, 0.1]","[u'medium', u'low', u'high']","black",49,"left","medium","False","False",228,4500,NA
"A2CWNRI11XJ7WX","Tue Jan 28 2020 13:43:54 GMT+0000 (Greenwich Mean Time)","Tue Jan 28 2020 13:50:52 GMT+0000 (Greenwich Mean Time)","Mozilla/5.0 (Windows NT 10.0; Win64; x64) AppleWebKit/537.36 (KHTML, like Gecko) Chrome/79.0.3945.130 Safari/537.36",76,"[0.9, 0.5, 0.1]","[0.8, 0.4, 0.2]","[u'black', u'red', u'blue']","[u'left', u'middle', u'right']","[0.9, 0.5, 0.1]","[u'medium', u'low', u'high']","blue",51,"right","high","True","False",138,4600,NA
"A2CWNRI11XJ7WX","Tue Jan 28 2020 13:43:54 GMT+0000 (Greenwich Mean Time)","Tue Jan 28 2020 13:50:52 GMT+0000 (Greenwich Mean Time)","Mozilla/5.0 (Windows NT 10.0; Win64; x64) AppleWebKit/537.36 (KHTML, like Gecko) Chrome/79.0.3945.130 Safari/537.36",77,"[0.9, 0.5, 0.1]","[0.8, 0.4, 0.2]","[u'black', u'red', u'blue']","[u'left', u'middle', u'right']","[0.9, 0.5, 0.1]","[u'medium', u'low', u'high']","blue",51,"right","high","True","False",218,4700,NA
"A2CWNRI11XJ7WX","Tue Jan 28 2020 13:43:54 GMT+0000 (Greenwich Mean Time)","Tue Jan 28 2020 13:50:52 GMT+0000 (Greenwich Mean Time)","Mozilla/5.0 (Windows NT 10.0; Win64; x64) AppleWebKit/537.36 (KHTML, like Gecko) Chrome/79.0.3945.130 Safari/537.36",78,"[0.9, 0.5, 0.1]","[0.8, 0.4, 0.2]","[u'black', u'red', u'blue']","[u'left', u'middle', u'right']","[0.9, 0.5, 0.1]","[u'medium', u'low', u'high']","blue",51,"right","high","True","False",226,4800,NA
"A2CWNRI11XJ7WX","Tue Jan 28 2020 13:43:54 GMT+0000 (Greenwich Mean Time)","Tue Jan 28 2020 13:50:52 GMT+0000 (Greenwich Mean Time)","Mozilla/5.0 (Windows NT 10.0; Win64; x64) AppleWebKit/537.36 (KHTML, like Gecko) Chrome/79.0.3945.130 Safari/537.36",79,"[0.9, 0.5, 0.1]","[0.8, 0.4, 0.2]","[u'black', u'red', u'blue']","[u'left', u'middle', u'right']","[0.9, 0.5, 0.1]","[u'medium', u'low', u'high']","blue",51,"right","high","True","False",267,4900,NA
"A2CWNRI11XJ7WX","Tue Jan 28 2020 13:43:54 GMT+0000 (Greenwich Mean Time)","Tue Jan 28 2020 13:50:52 GMT+0000 (Greenwich Mean Time)","Mozilla/5.0 (Windows NT 10.0; Win64; x64) AppleWebKit/537.36 (KHTML, like Gecko) Chrome/79.0.3945.130 Safari/537.36",80,"[0.9, 0.5, 0.1]","[0.8, 0.4, 0.2]","[u'black', u'red', u'blue']","[u'left', u'middle', u'right']","[0.9, 0.5, 0.1]","[u'medium', u'low', u'high']","blue",51,"right","high","True","False",298,5000,NA
"A2CWNRI11XJ7WX","Tue Jan 28 2020 13:43:54 GMT+0000 (Greenwich Mean Time)","Tue Jan 28 2020 13:50:52 GMT+0000 (Greenwich Mean Time)","Mozilla/5.0 (Windows NT 10.0; Win64; x64) AppleWebKit/537.36 (KHTML, like Gecko) Chrome/79.0.3945.130 Safari/537.36",81,"[0.9, 0.5, 0.1]","[0.8, 0.4, 0.2]","[u'black', u'red', u'blue']","[u'left', u'middle', u'right']","[0.8, 0.4, 0.2]","[u'high', u'medium', u'low']","blue",51,"right","low","False","False",577,4950,NA
"A2CWNRI11XJ7WX","Tue Jan 28 2020 13:43:54 GMT+0000 (Greenwich Mean Time)","Tue Jan 28 2020 13:50:52 GMT+0000 (Greenwich Mean Time)","Mozilla/5.0 (Windows NT 10.0; Win64; x64) AppleWebKit/537.36 (KHTML, like Gecko) Chrome/79.0.3945.130 Safari/537.36",82,"[0.9, 0.5, 0.1]","[0.8, 0.4, 0.2]","[u'black', u'red', u'blue']","[u'left', u'middle', u'right']","[0.8, 0.4, 0.2]","[u'high', u'medium', u'low']","blue",51,"right","low","False","False",305,4900,NA
"A2CWNRI11XJ7WX","Tue Jan 28 2020 13:43:54 GMT+0000 (Greenwich Mean Time)","Tue Jan 28 2020 13:50:52 GMT+0000 (Greenwich Mean Time)","Mozilla/5.0 (Windows NT 10.0; Win64; x64) AppleWebKit/537.36 (KHTML, like Gecko) Chrome/79.0.3945.130 Safari/537.36",83,"[0.9, 0.5, 0.1]","[0.8, 0.4, 0.2]","[u'black', u'red', u'blue']","[u'left', u'middle', u'right']","[0.8, 0.4, 0.2]","[u'high', u'medium', u'low']","black",49,"left","high","True","False",219,5000,NA
"A2CWNRI11XJ7WX","Tue Jan 28 2020 13:43:54 GMT+0000 (Greenwich Mean Time)","Tue Jan 28 2020 13:50:52 GMT+0000 (Greenwich Mean Time)","Mozilla/5.0 (Windows NT 10.0; Win64; x64) AppleWebKit/537.36 (KHTML, like Gecko) Chrome/79.0.3945.130 Safari/537.36",84,"[0.9, 0.5, 0.1]","[0.8, 0.4, 0.2]","[u'black', u'red', u'blue']","[u'left', u'middle', u'right']","[0.8, 0.4, 0.2]","[u'high', u'medium', u'low']","black",49,"left","high","True","False",299,5100,NA
"A2CWNRI11XJ7WX","Tue Jan 28 2020 13:43:54 GMT+0000 (Greenwich Mean Time)","Tue Jan 28 2020 13:50:52 GMT+0000 (Greenwich Mean Time)","Mozilla/5.0 (Windows NT 10.0; Win64; x64) AppleWebKit/537.36 (KHTML, like Gecko) Chrome/79.0.3945.130 Safari/537.36",85,"[0.9, 0.5, 0.1]","[0.8, 0.4, 0.2]","[u'black', u'red', u'blue']","[u'left', u'middle', u'right']","[0.8, 0.4, 0.2]","[u'high', u'medium', u'low']","black",49,"left","high","False","False",259,5050,NA
"A2CWNRI11XJ7WX","Tue Jan 28 2020 13:43:54 GMT+0000 (Greenwich Mean Time)","Tue Jan 28 2020 13:50:52 GMT+0000 (Greenwich Mean Time)","Mozilla/5.0 (Windows NT 10.0; Win64; x64) AppleWebKit/537.36 (KHTML, like Gecko) Chrome/79.0.3945.130 Safari/537.36",86,"[0.9, 0.5, 0.1]","[0.8, 0.4, 0.2]","[u'black', u'red', u'blue']","[u'left', u'middle', u'right']","[0.8, 0.4, 0.2]","[u'high', u'medium', u'low']","blue",51,"right","low","True","False",458,5150,NA
"A2CWNRI11XJ7WX","Tue Jan 28 2020 13:43:54 GMT+0000 (Greenwich Mean Time)","Tue Jan 28 2020 13:50:52 GMT+0000 (Greenwich Mean Time)","Mozilla/5.0 (Windows NT 10.0; Win64; x64) AppleWebKit/537.36 (KHTML, like Gecko) Chrome/79.0.3945.130 Safari/537.36",87,"[0.9, 0.5, 0.1]","[0.8, 0.4, 0.2]","[u'black', u'red', u'blue']","[u'left', u'middle', u'right']","[0.8, 0.4, 0.2]","[u'high', u'medium', u'low']","blue",51,"right","low","True","False",291,5250,NA
"A2CWNRI11XJ7WX","Tue Jan 28 2020 13:43:54 GMT+0000 (Greenwich Mean Time)","Tue Jan 28 2020 13:50:52 GMT+0000 (Greenwich Mean Time)","Mozilla/5.0 (Windows NT 10.0; Win64; x64) AppleWebKit/537.36 (KHTML, like Gecko) Chrome/79.0.3945.130 Safari/537.36",88,"[0.9, 0.5, 0.1]","[0.8, 0.4, 0.2]","[u'black', u'red', u'blue']","[u'left', u'middle', u'right']","[0.8, 0.4, 0.2]","[u'high', u'medium', u'low']","blue",51,"right","low","True","False",322,5350,NA
"A2CWNRI11XJ7WX","Tue Jan 28 2020 13:43:54 GMT+0000 (Greenwich Mean Time)","Tue Jan 28 2020 13:50:52 GMT+0000 (Greenwich Mean Time)","Mozilla/5.0 (Windows NT 10.0; Win64; x64) AppleWebKit/537.36 (KHTML, like Gecko) Chrome/79.0.3945.130 Safari/537.36",89,"[0.9, 0.5, 0.1]","[0.8, 0.4, 0.2]","[u'black', u'red', u'blue']","[u'left', u'middle', u'right']","[0.8, 0.4, 0.2]","[u'high', u'medium', u'low']","blue",51,"right","low","False","False",274,5300,NA
"A2CWNRI11XJ7WX","Tue Jan 28 2020 13:43:54 GMT+0000 (Greenwich Mean Time)","Tue Jan 28 2020 13:50:52 GMT+0000 (Greenwich Mean Time)","Mozilla/5.0 (Windows NT 10.0; Win64; x64) AppleWebKit/537.36 (KHTML, like Gecko) Chrome/79.0.3945.130 Safari/537.36",90,"[0.9, 0.5, 0.1]","[0.8, 0.4, 0.2]","[u'black', u'red', u'blue']","[u'left', u'middle', u'right']","[0.8, 0.4, 0.2]","[u'high', u'medium', u'low']","black",49,"left","high","True","False",234,5400,NA
"A2CWNRI11XJ7WX","Tue Jan 28 2020 13:43:54 GMT+0000 (Greenwich Mean Time)","Tue Jan 28 2020 13:50:52 GMT+0000 (Greenwich Mean Time)","Mozilla/5.0 (Windows NT 10.0; Win64; x64) AppleWebKit/537.36 (KHTML, like Gecko) Chrome/79.0.3945.130 Safari/537.36",91,"[0.9, 0.5, 0.1]","[0.8, 0.4, 0.2]","[u'black', u'red', u'blue']","[u'left', u'middle', u'right']","[0.8, 0.4, 0.2]","[u'high', u'medium', u'low']","red",50,"middle","medium","True","False",234,5500,NA
"A2CWNRI11XJ7WX","Tue Jan 28 2020 13:43:54 GMT+0000 (Greenwich Mean Time)","Tue Jan 28 2020 13:50:52 GMT+0000 (Greenwich Mean Time)","Mozilla/5.0 (Windows NT 10.0; Win64; x64) AppleWebKit/537.36 (KHTML, like Gecko) Chrome/79.0.3945.130 Safari/537.36",92,"[0.9, 0.5, 0.1]","[0.8, 0.4, 0.2]","[u'black', u'red', u'blue']","[u'left', u'middle', u'right']","[0.8, 0.4, 0.2]","[u'high', u'medium', u'low']","blue",51,"right","low","False","False",146,5450,NA
"A2CWNRI11XJ7WX","Tue Jan 28 2020 13:43:54 GMT+0000 (Greenwich Mean Time)","Tue Jan 28 2020 13:50:52 GMT+0000 (Greenwich Mean Time)","Mozilla/5.0 (Windows NT 10.0; Win64; x64) AppleWebKit/537.36 (KHTML, like Gecko) Chrome/79.0.3945.130 Safari/537.36",93,"[0.9, 0.5, 0.1]","[0.8, 0.4, 0.2]","[u'black', u'red', u'blue']","[u'left', u'middle', u'right']","[0.8, 0.4, 0.2]","[u'high', u'medium', u'low']","red",50,"middle","medium","False","False",306,5400,NA
"A2CWNRI11XJ7WX","Tue Jan 28 2020 13:43:54 GMT+0000 (Greenwich Mean Time)","Tue Jan 28 2020 13:50:52 GMT+0000 (Greenwich Mean Time)","Mozilla/5.0 (Windows NT 10.0; Win64; x64) AppleWebKit/537.36 (KHTML, like Gecko) Chrome/79.0.3945.130 Safari/537.36",94,"[0.9, 0.5, 0.1]","[0.8, 0.4, 0.2]","[u'black', u'red', u'blue']","[u'left', u'middle', u'right']","[0.8, 0.4, 0.2]","[u'high', u'medium', u'low']","black",49,"left","high","False","False",233,5350,NA
"A2CWNRI11XJ7WX","Tue Jan 28 2020 13:43:54 GMT+0000 (Greenwich Mean Time)","Tue Jan 28 2020 13:50:52 GMT+0000 (Greenwich Mean Time)","Mozilla/5.0 (Windows NT 10.0; Win64; x64) AppleWebKit/537.36 (KHTML, like Gecko) Chrome/79.0.3945.130 Safari/537.36",95,"[0.9, 0.5, 0.1]","[0.8, 0.4, 0.2]","[u'black', u'red', u'blue']","[u'left', u'middle', u'right']","[0.8, 0.4, 0.2]","[u'high', u'medium', u'low']","blue",51,"right","low","False","False",250,5300,NA
"A2CWNRI11XJ7WX","Tue Jan 28 2020 13:43:54 GMT+0000 (Greenwich Mean Time)","Tue Jan 28 2020 13:50:52 GMT+0000 (Greenwich Mean Time)","Mozilla/5.0 (Windows NT 10.0; Win64; x64) AppleWebKit/537.36 (KHTML, like Gecko) Chrome/79.0.3945.130 Safari/537.36",96,"[0.9, 0.5, 0.1]","[0.8, 0.4, 0.2]","[u'black', u'red', u'blue']","[u'left', u'middle', u'right']","[0.8, 0.4, 0.2]","[u'high', u'medium', u'low']","red",50,"middle","medium","True","False",298,5400,NA
"A2CWNRI11XJ7WX","Tue Jan 28 2020 13:43:54 GMT+0000 (Greenwich Mean Time)","Tue Jan 28 2020 13:50:52 GMT+0000 (Greenwich Mean Time)","Mozilla/5.0 (Windows NT 10.0; Win64; x64) AppleWebKit/537.36 (KHTML, like Gecko) Chrome/79.0.3945.130 Safari/537.36",97,"[0.9, 0.5, 0.1]","[0.8, 0.4, 0.2]","[u'black', u'red', u'blue']","[u'left', u'middle', u'right']","[0.8, 0.4, 0.2]","[u'high', u'medium', u'low']","red",50,"middle","medium","False","False",258,5350,NA
"A2CWNRI11XJ7WX","Tue Jan 28 2020 13:43:54 GMT+0000 (Greenwich Mean Time)","Tue Jan 28 2020 13:50:52 GMT+0000 (Greenwich Mean Time)","Mozilla/5.0 (Windows NT 10.0; Win64; x64) AppleWebKit/537.36 (KHTML, like Gecko) Chrome/79.0.3945.130 Safari/537.36",98,"[0.9, 0.5, 0.1]","[0.8, 0.4, 0.2]","[u'black', u'red', u'blue']","[u'left', u'middle', u'right']","[0.8, 0.4, 0.2]","[u'high', u'medium', u'low']","red",50,"middle","medium","False","False",140,5300,NA
"A2CWNRI11XJ7WX","Tue Jan 28 2020 13:43:54 GMT+0000 (Greenwich Mean Time)","Tue Jan 28 2020 13:50:52 GMT+0000 (Greenwich Mean Time)","Mozilla/5.0 (Windows NT 10.0; Win64; x64) AppleWebKit/537.36 (KHTML, like Gecko) Chrome/79.0.3945.130 Safari/537.36",99,"[0.9, 0.5, 0.1]","[0.8, 0.4, 0.2]","[u'black', u'red', u'blue']","[u'left', u'middle', u'right']","[0.8, 0.4, 0.2]","[u'high', u'medium', u'low']","blue",51,"right","low","True","False",218,5400,NA
"A2CWNRI11XJ7WX","Tue Jan 28 2020 13:43:54 GMT+0000 (Greenwich Mean Time)","Tue Jan 28 2020 13:50:52 GMT+0000 (Greenwich Mean Time)","Mozilla/5.0 (Windows NT 10.0; Win64; x64) AppleWebKit/537.36 (KHTML, like Gecko) Chrome/79.0.3945.130 Safari/537.36",100,"[0.9, 0.5, 0.1]","[0.8, 0.4, 0.2]","[u'black', u'red', u'blue']","[u'left', u'middle', u'right']","[0.8, 0.4, 0.2]","[u'high', u'medium', u'low']","blue",51,"right","low","True","False",332,5500,NA
"A2CWNRI11XJ7WX","Tue Jan 28 2020 13:43:54 GMT+0000 (Greenwich Mean Time)","Tue Jan 28 2020 13:50:52 GMT+0000 (Greenwich Mean Time)","Mozilla/5.0 (Windows NT 10.0; Win64; x64) AppleWebKit/537.36 (KHTML, like Gecko) Chrome/79.0.3945.130 Safari/537.36",101,"[0.9, 0.5, 0.1]","[0.8, 0.4, 0.2]","[u'black', u'red', u'blue']","[u'left', u'middle', u'right']","[0.8, 0.4, 0.2]","[u'high', u'medium', u'low']","blue",51,"right","low","True","False",265,5600,NA
"A2CWNRI11XJ7WX","Tue Jan 28 2020 13:43:54 GMT+0000 (Greenwich Mean Time)","Tue Jan 28 2020 13:50:52 GMT+0000 (Greenwich Mean Time)","Mozilla/5.0 (Windows NT 10.0; Win64; x64) AppleWebKit/537.36 (KHTML, like Gecko) Chrome/79.0.3945.130 Safari/537.36",102,"[0.9, 0.5, 0.1]","[0.8, 0.4, 0.2]","[u'black', u'red', u'blue']","[u'left', u'middle', u'right']","[0.8, 0.4, 0.2]","[u'high', u'medium', u'low']","blue",51,"right","low","False","False",283,5550,NA
"A2CWNRI11XJ7WX","Tue Jan 28 2020 13:43:54 GMT+0000 (Greenwich Mean Time)","Tue Jan 28 2020 13:50:52 GMT+0000 (Greenwich Mean Time)","Mozilla/5.0 (Windows NT 10.0; Win64; x64) AppleWebKit/537.36 (KHTML, like Gecko) Chrome/79.0.3945.130 Safari/537.36",103,"[0.9, 0.5, 0.1]","[0.8, 0.4, 0.2]","[u'black', u'red', u'blue']","[u'left', u'middle', u'right']","[0.8, 0.4, 0.2]","[u'high', u'medium', u'low']","black",49,"left","high","True","False",241,5650,NA
"A2CWNRI11XJ7WX","Tue Jan 28 2020 13:43:54 GMT+0000 (Greenwich Mean Time)","Tue Jan 28 2020 13:50:52 GMT+0000 (Greenwich Mean Time)","Mozilla/5.0 (Windows NT 10.0; Win64; x64) AppleWebKit/537.36 (KHTML, like Gecko) Chrome/79.0.3945.130 Safari/537.36",104,"[0.9, 0.5, 0.1]","[0.8, 0.4, 0.2]","[u'black', u'red', u'blue']","[u'left', u'middle', u'right']","[0.8, 0.4, 0.2]","[u'high', u'medium', u'low']","red",50,"middle","medium","False","False",356,5600,NA
"A2CWNRI11XJ7WX","Tue Jan 28 2020 13:43:54 GMT+0000 (Greenwich Mean Time)","Tue Jan 28 2020 13:50:52 GMT+0000 (Greenwich Mean Time)","Mozilla/5.0 (Windows NT 10.0; Win64; x64) AppleWebKit/537.36 (KHTML, like Gecko) Chrome/79.0.3945.130 Safari/537.36",105,"[0.9, 0.5, 0.1]","[0.8, 0.4, 0.2]","[u'black', u'red', u'blue']","[u'left', u'middle', u'right']","[0.8, 0.4, 0.2]","[u'high', u'medium', u'low']","blue",51,"right","low","False","False",217,5550,NA
"A2CWNRI11XJ7WX","Tue Jan 28 2020 13:43:54 GMT+0000 (Greenwich Mean Time)","Tue Jan 28 2020 13:50:52 GMT+0000 (Greenwich Mean Time)","Mozilla/5.0 (Windows NT 10.0; Win64; x64) AppleWebKit/537.36 (KHTML, like Gecko) Chrome/79.0.3945.130 Safari/537.36",106,"[0.9, 0.5, 0.1]","[0.8, 0.4, 0.2]","[u'black', u'red', u'blue']","[u'left', u'middle', u'right']","[0.8, 0.4, 0.2]","[u'high', u'medium', u'low']","black",49,"left","high","True","False",188,5650,NA
"A2CWNRI11XJ7WX","Tue Jan 28 2020 13:43:54 GMT+0000 (Greenwich Mean Time)","Tue Jan 28 2020 13:50:52 GMT+0000 (Greenwich Mean Time)","Mozilla/5.0 (Windows NT 10.0; Win64; x64) AppleWebKit/537.36 (KHTML, like Gecko) Chrome/79.0.3945.130 Safari/537.36",107,"[0.9, 0.5, 0.1]","[0.8, 0.4, 0.2]","[u'black', u'red', u'blue']","[u'left', u'middle', u'right']","[0.8, 0.4, 0.2]","[u'high', u'medium', u'low']","black",49,"left","high","True","False",305,5750,NA
"A2CWNRI11XJ7WX","Tue Jan 28 2020 13:43:54 GMT+0000 (Greenwich Mean Time)","Tue Jan 28 2020 13:50:52 GMT+0000 (Greenwich Mean Time)","Mozilla/5.0 (Windows NT 10.0; Win64; x64) AppleWebKit/537.36 (KHTML, like Gecko) Chrome/79.0.3945.130 Safari/537.36",108,"[0.9, 0.5, 0.1]","[0.8, 0.4, 0.2]","[u'black', u'red', u'blue']","[u'left', u'middle', u'right']","[0.8, 0.4, 0.2]","[u'high', u'medium', u'low']","black",49,"left","high","True","False",379,5850,NA
"A2CWNRI11XJ7WX","Tue Jan 28 2020 13:43:54 GMT+0000 (Greenwich Mean Time)","Tue Jan 28 2020 13:50:52 GMT+0000 (Greenwich Mean Time)","Mozilla/5.0 (Windows NT 10.0; Win64; x64) AppleWebKit/537.36 (KHTML, like Gecko) Chrome/79.0.3945.130 Safari/537.36",109,"[0.9, 0.5, 0.1]","[0.8, 0.4, 0.2]","[u'black', u'red', u'blue']","[u'left', u'middle', u'right']","[0.8, 0.4, 0.2]","[u'high', u'medium', u'low']","black",49,"left","high","False","False",282,5800,NA
"A2CWNRI11XJ7WX","Tue Jan 28 2020 13:43:54 GMT+0000 (Greenwich Mean Time)","Tue Jan 28 2020 13:50:52 GMT+0000 (Greenwich Mean Time)","Mozilla/5.0 (Windows NT 10.0; Win64; x64) AppleWebKit/537.36 (KHTML, like Gecko) Chrome/79.0.3945.130 Safari/537.36",110,"[0.9, 0.5, 0.1]","[0.8, 0.4, 0.2]","[u'black', u'red', u'blue']","[u'left', u'middle', u'right']","[0.8, 0.4, 0.2]","[u'high', u'medium', u'low']","blue",51,"right","low","False","False",170,5750,NA
"A2CWNRI11XJ7WX","Tue Jan 28 2020 13:43:54 GMT+0000 (Greenwich Mean Time)","Tue Jan 28 2020 13:50:52 GMT+0000 (Greenwich Mean Time)","Mozilla/5.0 (Windows NT 10.0; Win64; x64) AppleWebKit/537.36 (KHTML, like Gecko) Chrome/79.0.3945.130 Safari/537.36",111,"[0.9, 0.5, 0.1]","[0.8, 0.4, 0.2]","[u'black', u'red', u'blue']","[u'left', u'middle', u'right']","[0.8, 0.4, 0.2]","[u'high', u'medium', u'low']","red",50,"middle","medium","False","False",266,5700,NA
"A2CWNRI11XJ7WX","Tue Jan 28 2020 13:43:54 GMT+0000 (Greenwich Mean Time)","Tue Jan 28 2020 13:50:52 GMT+0000 (Greenwich Mean Time)","Mozilla/5.0 (Windows NT 10.0; Win64; x64) AppleWebKit/537.36 (KHTML, like Gecko) Chrome/79.0.3945.130 Safari/537.36",112,"[0.9, 0.5, 0.1]","[0.8, 0.4, 0.2]","[u'black', u'red', u'blue']","[u'left', u'middle', u'right']","[0.8, 0.4, 0.2]","[u'high', u'medium', u'low']","black",49,"left","high","True","False",290,5800,NA
"A2CWNRI11XJ7WX","Tue Jan 28 2020 13:43:54 GMT+0000 (Greenwich Mean Time)","Tue Jan 28 2020 13:50:52 GMT+0000 (Greenwich Mean Time)","Mozilla/5.0 (Windows NT 10.0; Win64; x64) AppleWebKit/537.36 (KHTML, like Gecko) Chrome/79.0.3945.130 Safari/537.36",113,"[0.9, 0.5, 0.1]","[0.8, 0.4, 0.2]","[u'black', u'red', u'blue']","[u'left', u'middle', u'right']","[0.8, 0.4, 0.2]","[u'high', u'medium', u'low']","black",49,"left","high","True","False",306,5900,NA
"A2CWNRI11XJ7WX","Tue Jan 28 2020 13:43:54 GMT+0000 (Greenwich Mean Time)","Tue Jan 28 2020 13:50:52 GMT+0000 (Greenwich Mean Time)","Mozilla/5.0 (Windows NT 10.0; Win64; x64) AppleWebKit/537.36 (KHTML, like Gecko) Chrome/79.0.3945.130 Safari/537.36",114,"[0.9, 0.5, 0.1]","[0.8, 0.4, 0.2]","[u'black', u'red', u'blue']","[u'left', u'middle', u'right']","[0.8, 0.4, 0.2]","[u'high', u'medium', u'low']","black",49,"left","high","False","False",330,5850,NA
"A2CWNRI11XJ7WX","Tue Jan 28 2020 13:43:54 GMT+0000 (Greenwich Mean Time)","Tue Jan 28 2020 13:50:52 GMT+0000 (Greenwich Mean Time)","Mozilla/5.0 (Windows NT 10.0; Win64; x64) AppleWebKit/537.36 (KHTML, like Gecko) Chrome/79.0.3945.130 Safari/537.36",115,"[0.9, 0.5, 0.1]","[0.8, 0.4, 0.2]","[u'black', u'red', u'blue']","[u'left', u'middle', u'right']","[0.8, 0.4, 0.2]","[u'high', u'medium', u'low']","blue",51,"right","low","False","False",282,5800,NA
"A2CWNRI11XJ7WX","Tue Jan 28 2020 13:43:54 GMT+0000 (Greenwich Mean Time)","Tue Jan 28 2020 13:50:52 GMT+0000 (Greenwich Mean Time)","Mozilla/5.0 (Windows NT 10.0; Win64; x64) AppleWebKit/537.36 (KHTML, like Gecko) Chrome/79.0.3945.130 Safari/537.36",116,"[0.9, 0.5, 0.1]","[0.8, 0.4, 0.2]","[u'black', u'red', u'blue']","[u'left', u'middle', u'right']","[0.8, 0.4, 0.2]","[u'high', u'medium', u'low']","black",49,"left","high","True","False",467,5900,NA
"A2CWNRI11XJ7WX","Tue Jan 28 2020 13:43:54 GMT+0000 (Greenwich Mean Time)","Tue Jan 28 2020 13:50:52 GMT+0000 (Greenwich Mean Time)","Mozilla/5.0 (Windows NT 10.0; Win64; x64) AppleWebKit/537.36 (KHTML, like Gecko) Chrome/79.0.3945.130 Safari/537.36",117,"[0.9, 0.5, 0.1]","[0.8, 0.4, 0.2]","[u'black', u'red', u'blue']","[u'left', u'middle', u'right']","[0.8, 0.4, 0.2]","[u'high', u'medium', u'low']","black",49,"left","high","False","False",371,5850,NA
"A2CWNRI11XJ7WX","Tue Jan 28 2020 13:43:54 GMT+0000 (Greenwich Mean Time)","Tue Jan 28 2020 13:50:52 GMT+0000 (Greenwich Mean Time)","Mozilla/5.0 (Windows NT 10.0; Win64; x64) AppleWebKit/537.36 (KHTML, like Gecko) Chrome/79.0.3945.130 Safari/537.36",118,"[0.9, 0.5, 0.1]","[0.8, 0.4, 0.2]","[u'black', u'red', u'blue']","[u'left', u'middle', u'right']","[0.8, 0.4, 0.2]","[u'high', u'medium', u'low']","red",50,"middle","medium","False","False",250,5800,NA
"A2CWNRI11XJ7WX","Tue Jan 28 2020 13:43:54 GMT+0000 (Greenwich Mean Time)","Tue Jan 28 2020 13:50:52 GMT+0000 (Greenwich Mean Time)","Mozilla/5.0 (Windows NT 10.0; Win64; x64) AppleWebKit/537.36 (KHTML, like Gecko) Chrome/79.0.3945.130 Safari/537.36",119,"[0.9, 0.5, 0.1]","[0.8, 0.4, 0.2]","[u'black', u'red', u'blue']","[u'left', u'middle', u'right']","[0.8, 0.4, 0.2]","[u'high', u'medium', u'low']","black",49,"left","high","False","False",273,5750,NA
"A2CWNRI11XJ7WX","Tue Jan 28 2020 13:43:54 GMT+0000 (Greenwich Mean Time)","Tue Jan 28 2020 13:50:52 GMT+0000 (Greenwich Mean Time)","Mozilla/5.0 (Windows NT 10.0; Win64; x64) AppleWebKit/537.36 (KHTML, like Gecko) Chrome/79.0.3945.130 Safari/537.36",120,"[0.9, 0.5, 0.1]","[0.8, 0.4, 0.2]","[u'black', u'red', u'blue']","[u'left', u'middle', u'right']","[0.8, 0.4, 0.2]","[u'high', u'medium', u'low']","blue",51,"right","low","False","False",268,5700,NA
"A2CWNRI11XJ7WX","Tue Jan 28 2020 13:43:54 GMT+0000 (Greenwich Mean Time)","Tue Jan 28 2020 13:50:52 GMT+0000 (Greenwich Mean Time)","Mozilla/5.0 (Windows NT 10.0; Win64; x64) AppleWebKit/537.36 (KHTML, like Gecko) Chrome/79.0.3945.130 Safari/537.36",121,"[0.9, 0.5, 0.1]","[0.8, 0.4, 0.2]","[u'black', u'red', u'blue']","[u'left', u'middle', u'right']","[0.8, 0.4, 0.2]","[u'medium', u'high', u'low']","black",49,"left","medium","False","False",433,5650,NA
"A2CWNRI11XJ7WX","Tue Jan 28 2020 13:43:54 GMT+0000 (Greenwich Mean Time)","Tue Jan 28 2020 13:50:52 GMT+0000 (Greenwich Mean Time)","Mozilla/5.0 (Windows NT 10.0; Win64; x64) AppleWebKit/537.36 (KHTML, like Gecko) Chrome/79.0.3945.130 Safari/537.36",122,"[0.9, 0.5, 0.1]","[0.8, 0.4, 0.2]","[u'black', u'red', u'blue']","[u'left', u'middle', u'right']","[0.8, 0.4, 0.2]","[u'medium', u'high', u'low']","red",50,"middle","high","True","False",218,5750,NA
"A2CWNRI11XJ7WX","Tue Jan 28 2020 13:43:54 GMT+0000 (Greenwich Mean Time)","Tue Jan 28 2020 13:50:52 GMT+0000 (Greenwich Mean Time)","Mozilla/5.0 (Windows NT 10.0; Win64; x64) AppleWebKit/537.36 (KHTML, like Gecko) Chrome/79.0.3945.130 Safari/537.36",123,"[0.9, 0.5, 0.1]","[0.8, 0.4, 0.2]","[u'black', u'red', u'blue']","[u'left', u'middle', u'right']","[0.8, 0.4, 0.2]","[u'medium', u'high', u'low']","red",50,"middle","high","False","False",316,5700,NA
"A2CWNRI11XJ7WX","Tue Jan 28 2020 13:43:54 GMT+0000 (Greenwich Mean Time)","Tue Jan 28 2020 13:50:52 GMT+0000 (Greenwich Mean Time)","Mozilla/5.0 (Windows NT 10.0; Win64; x64) AppleWebKit/537.36 (KHTML, like Gecko) Chrome/79.0.3945.130 Safari/537.36",124,"[0.9, 0.5, 0.1]","[0.8, 0.4, 0.2]","[u'black', u'red', u'blue']","[u'left', u'middle', u'right']","[0.8, 0.4, 0.2]","[u'medium', u'high', u'low']","blue",51,"right","low","False","False",296,5650,NA
"A2CWNRI11XJ7WX","Tue Jan 28 2020 13:43:54 GMT+0000 (Greenwich Mean Time)","Tue Jan 28 2020 13:50:52 GMT+0000 (Greenwich Mean Time)","Mozilla/5.0 (Windows NT 10.0; Win64; x64) AppleWebKit/537.36 (KHTML, like Gecko) Chrome/79.0.3945.130 Safari/537.36",125,"[0.9, 0.5, 0.1]","[0.8, 0.4, 0.2]","[u'black', u'red', u'blue']","[u'left', u'middle', u'right']","[0.8, 0.4, 0.2]","[u'medium', u'high', u'low']","black",49,"left","medium","False","False",376,5600,NA
"A2CWNRI11XJ7WX","Tue Jan 28 2020 13:43:54 GMT+0000 (Greenwich Mean Time)","Tue Jan 28 2020 13:50:52 GMT+0000 (Greenwich Mean Time)","Mozilla/5.0 (Windows NT 10.0; Win64; x64) AppleWebKit/537.36 (KHTML, like Gecko) Chrome/79.0.3945.130 Safari/537.36",126,"[0.9, 0.5, 0.1]","[0.8, 0.4, 0.2]","[u'black', u'red', u'blue']","[u'left', u'middle', u'right']","[0.8, 0.4, 0.2]","[u'medium', u'high', u'low']","blue",51,"right","low","False","False",659,5550,NA
"A2CWNRI11XJ7WX","Tue Jan 28 2020 13:43:54 GMT+0000 (Greenwich Mean Time)","Tue Jan 28 2020 13:50:52 GMT+0000 (Greenwich Mean Time)","Mozilla/5.0 (Windows NT 10.0; Win64; x64) AppleWebKit/537.36 (KHTML, like Gecko) Chrome/79.0.3945.130 Safari/537.36",127,"[0.9, 0.5, 0.1]","[0.8, 0.4, 0.2]","[u'black', u'red', u'blue']","[u'left', u'middle', u'right']","[0.8, 0.4, 0.2]","[u'medium', u'high', u'low']","red",50,"middle","high","True","False",259,5650,NA
"A2CWNRI11XJ7WX","Tue Jan 28 2020 13:43:54 GMT+0000 (Greenwich Mean Time)","Tue Jan 28 2020 13:50:52 GMT+0000 (Greenwich Mean Time)","Mozilla/5.0 (Windows NT 10.0; Win64; x64) AppleWebKit/537.36 (KHTML, like Gecko) Chrome/79.0.3945.130 Safari/537.36",128,"[0.9, 0.5, 0.1]","[0.8, 0.4, 0.2]","[u'black', u'red', u'blue']","[u'left', u'middle', u'right']","[0.8, 0.4, 0.2]","[u'medium', u'high', u'low']","red",50,"middle","high","True","False",498,5750,NA
"A2CWNRI11XJ7WX","Tue Jan 28 2020 13:43:54 GMT+0000 (Greenwich Mean Time)","Tue Jan 28 2020 13:50:52 GMT+0000 (Greenwich Mean Time)","Mozilla/5.0 (Windows NT 10.0; Win64; x64) AppleWebKit/537.36 (KHTML, like Gecko) Chrome/79.0.3945.130 Safari/537.36",129,"[0.9, 0.5, 0.1]","[0.8, 0.4, 0.2]","[u'black', u'red', u'blue']","[u'left', u'middle', u'right']","[0.8, 0.4, 0.2]","[u'medium', u'high', u'low']","red",50,"middle","high","True","False",307,5850,NA
"A2CWNRI11XJ7WX","Tue Jan 28 2020 13:43:54 GMT+0000 (Greenwich Mean Time)","Tue Jan 28 2020 13:50:52 GMT+0000 (Greenwich Mean Time)","Mozilla/5.0 (Windows NT 10.0; Win64; x64) AppleWebKit/537.36 (KHTML, like Gecko) Chrome/79.0.3945.130 Safari/537.36",130,"[0.9, 0.5, 0.1]","[0.8, 0.4, 0.2]","[u'black', u'red', u'blue']","[u'left', u'middle', u'right']","[0.8, 0.4, 0.2]","[u'medium', u'high', u'low']","red",50,"middle","high","True","False",306,5950,NA
"A2CWNRI11XJ7WX","Tue Jan 28 2020 13:43:54 GMT+0000 (Greenwich Mean Time)","Tue Jan 28 2020 13:50:52 GMT+0000 (Greenwich Mean Time)","Mozilla/5.0 (Windows NT 10.0; Win64; x64) AppleWebKit/537.36 (KHTML, like Gecko) Chrome/79.0.3945.130 Safari/537.36",131,"[0.9, 0.5, 0.1]","[0.8, 0.4, 0.2]","[u'black', u'red', u'blue']","[u'left', u'middle', u'right']","[0.8, 0.4, 0.2]","[u'medium', u'high', u'low']","red",50,"middle","high","True","False",266,6050,NA
"A2CWNRI11XJ7WX","Tue Jan 28 2020 13:43:54 GMT+0000 (Greenwich Mean Time)","Tue Jan 28 2020 13:50:52 GMT+0000 (Greenwich Mean Time)","Mozilla/5.0 (Windows NT 10.0; Win64; x64) AppleWebKit/537.36 (KHTML, like Gecko) Chrome/79.0.3945.130 Safari/537.36",132,"[0.9, 0.5, 0.1]","[0.8, 0.4, 0.2]","[u'black', u'red', u'blue']","[u'left', u'middle', u'right']","[0.8, 0.4, 0.2]","[u'medium', u'high', u'low']","red",50,"middle","high","False","False",291,6000,NA
"A2CWNRI11XJ7WX","Tue Jan 28 2020 13:43:54 GMT+0000 (Greenwich Mean Time)","Tue Jan 28 2020 13:50:52 GMT+0000 (Greenwich Mean Time)","Mozilla/5.0 (Windows NT 10.0; Win64; x64) AppleWebKit/537.36 (KHTML, like Gecko) Chrome/79.0.3945.130 Safari/537.36",133,"[0.9, 0.5, 0.1]","[0.8, 0.4, 0.2]","[u'black', u'red', u'blue']","[u'left', u'middle', u'right']","[0.8, 0.4, 0.2]","[u'medium', u'high', u'low']","black",49,"left","medium","False","False",219,5950,NA
"A2CWNRI11XJ7WX","Tue Jan 28 2020 13:43:54 GMT+0000 (Greenwich Mean Time)","Tue Jan 28 2020 13:50:52 GMT+0000 (Greenwich Mean Time)","Mozilla/5.0 (Windows NT 10.0; Win64; x64) AppleWebKit/537.36 (KHTML, like Gecko) Chrome/79.0.3945.130 Safari/537.36",134,"[0.9, 0.5, 0.1]","[0.8, 0.4, 0.2]","[u'black', u'red', u'blue']","[u'left', u'middle', u'right']","[0.8, 0.4, 0.2]","[u'medium', u'high', u'low']","black",49,"left","medium","True","False",139,6050,NA
"A2CWNRI11XJ7WX","Tue Jan 28 2020 13:43:54 GMT+0000 (Greenwich Mean Time)","Tue Jan 28 2020 13:50:52 GMT+0000 (Greenwich Mean Time)","Mozilla/5.0 (Windows NT 10.0; Win64; x64) AppleWebKit/537.36 (KHTML, like Gecko) Chrome/79.0.3945.130 Safari/537.36",135,"[0.9, 0.5, 0.1]","[0.8, 0.4, 0.2]","[u'black', u'red', u'blue']","[u'left', u'middle', u'right']","[0.8, 0.4, 0.2]","[u'medium', u'high', u'low']","black",49,"left","medium","False","False",267,6000,NA
"A2CWNRI11XJ7WX","Tue Jan 28 2020 13:43:54 GMT+0000 (Greenwich Mean Time)","Tue Jan 28 2020 13:50:52 GMT+0000 (Greenwich Mean Time)","Mozilla/5.0 (Windows NT 10.0; Win64; x64) AppleWebKit/537.36 (KHTML, like Gecko) Chrome/79.0.3945.130 Safari/537.36",136,"[0.9, 0.5, 0.1]","[0.8, 0.4, 0.2]","[u'black', u'red', u'blue']","[u'left', u'middle', u'right']","[0.8, 0.4, 0.2]","[u'medium', u'high', u'low']","blue",51,"right","low","True","False",178,6100,NA
"A2CWNRI11XJ7WX","Tue Jan 28 2020 13:43:54 GMT+0000 (Greenwich Mean Time)","Tue Jan 28 2020 13:50:52 GMT+0000 (Greenwich Mean Time)","Mozilla/5.0 (Windows NT 10.0; Win64; x64) AppleWebKit/537.36 (KHTML, like Gecko) Chrome/79.0.3945.130 Safari/537.36",137,"[0.9, 0.5, 0.1]","[0.8, 0.4, 0.2]","[u'black', u'red', u'blue']","[u'left', u'middle', u'right']","[0.8, 0.4, 0.2]","[u'medium', u'high', u'low']","blue",51,"right","low","False","False",266,6050,NA
"A2CWNRI11XJ7WX","Tue Jan 28 2020 13:43:54 GMT+0000 (Greenwich Mean Time)","Tue Jan 28 2020 13:50:52 GMT+0000 (Greenwich Mean Time)","Mozilla/5.0 (Windows NT 10.0; Win64; x64) AppleWebKit/537.36 (KHTML, like Gecko) Chrome/79.0.3945.130 Safari/537.36",138,"[0.9, 0.5, 0.1]","[0.8, 0.4, 0.2]","[u'black', u'red', u'blue']","[u'left', u'middle', u'right']","[0.8, 0.4, 0.2]","[u'medium', u'high', u'low']","red",50,"middle","high","False","False",260,6000,NA
"A2CWNRI11XJ7WX","Tue Jan 28 2020 13:43:54 GMT+0000 (Greenwich Mean Time)","Tue Jan 28 2020 13:50:52 GMT+0000 (Greenwich Mean Time)","Mozilla/5.0 (Windows NT 10.0; Win64; x64) AppleWebKit/537.36 (KHTML, like Gecko) Chrome/79.0.3945.130 Safari/537.36",139,"[0.9, 0.5, 0.1]","[0.8, 0.4, 0.2]","[u'black', u'red', u'blue']","[u'left', u'middle', u'right']","[0.8, 0.4, 0.2]","[u'medium', u'high', u'low']","black",49,"left","medium","True","False",290,6100,NA
"A2CWNRI11XJ7WX","Tue Jan 28 2020 13:43:54 GMT+0000 (Greenwich Mean Time)","Tue Jan 28 2020 13:50:52 GMT+0000 (Greenwich Mean Time)","Mozilla/5.0 (Windows NT 10.0; Win64; x64) AppleWebKit/537.36 (KHTML, like Gecko) Chrome/79.0.3945.130 Safari/537.36",140,"[0.9, 0.5, 0.1]","[0.8, 0.4, 0.2]","[u'black', u'red', u'blue']","[u'left', u'middle', u'right']","[0.8, 0.4, 0.2]","[u'medium', u'high', u'low']","black",49,"left","medium","True","False",363,6200,NA
"A2CWNRI11XJ7WX","Tue Jan 28 2020 13:43:54 GMT+0000 (Greenwich Mean Time)","Tue Jan 28 2020 13:50:52 GMT+0000 (Greenwich Mean Time)","Mozilla/5.0 (Windows NT 10.0; Win64; x64) AppleWebKit/537.36 (KHTML, like Gecko) Chrome/79.0.3945.130 Safari/537.36",141,"[0.9, 0.5, 0.1]","[0.8, 0.4, 0.2]","[u'black', u'red', u'blue']","[u'left', u'middle', u'right']","[0.8, 0.4, 0.2]","[u'medium', u'high', u'low']","red",50,"middle","high","False","False",610,6150,NA
"A2CWNRI11XJ7WX","Tue Jan 28 2020 13:43:54 GMT+0000 (Greenwich Mean Time)","Tue Jan 28 2020 13:50:52 GMT+0000 (Greenwich Mean Time)","Mozilla/5.0 (Windows NT 10.0; Win64; x64) AppleWebKit/537.36 (KHTML, like Gecko) Chrome/79.0.3945.130 Safari/537.36",142,"[0.9, 0.5, 0.1]","[0.8, 0.4, 0.2]","[u'black', u'red', u'blue']","[u'left', u'middle', u'right']","[0.8, 0.4, 0.2]","[u'medium', u'high', u'low']","blue",51,"right","low","False","False",298,6100,NA
"A2CWNRI11XJ7WX","Tue Jan 28 2020 13:43:54 GMT+0000 (Greenwich Mean Time)","Tue Jan 28 2020 13:50:52 GMT+0000 (Greenwich Mean Time)","Mozilla/5.0 (Windows NT 10.0; Win64; x64) AppleWebKit/537.36 (KHTML, like Gecko) Chrome/79.0.3945.130 Safari/537.36",143,"[0.9, 0.5, 0.1]","[0.8, 0.4, 0.2]","[u'black', u'red', u'blue']","[u'left', u'middle', u'right']","[0.8, 0.4, 0.2]","[u'medium', u'high', u'low']","black",49,"left","medium","True","False",339,6200,NA
"A2CWNRI11XJ7WX","Tue Jan 28 2020 13:43:54 GMT+0000 (Greenwich Mean Time)","Tue Jan 28 2020 13:50:52 GMT+0000 (Greenwich Mean Time)","Mozilla/5.0 (Windows NT 10.0; Win64; x64) AppleWebKit/537.36 (KHTML, like Gecko) Chrome/79.0.3945.130 Safari/537.36",144,"[0.9, 0.5, 0.1]","[0.8, 0.4, 0.2]","[u'black', u'red', u'blue']","[u'left', u'middle', u'right']","[0.8, 0.4, 0.2]","[u'medium', u'high', u'low']","black",49,"left","medium","False","False",291,6150,NA
"A2CWNRI11XJ7WX","Tue Jan 28 2020 13:43:54 GMT+0000 (Greenwich Mean Time)","Tue Jan 28 2020 13:50:52 GMT+0000 (Greenwich Mean Time)","Mozilla/5.0 (Windows NT 10.0; Win64; x64) AppleWebKit/537.36 (KHTML, like Gecko) Chrome/79.0.3945.130 Safari/537.36",145,"[0.9, 0.5, 0.1]","[0.8, 0.4, 0.2]","[u'black', u'red', u'blue']","[u'left', u'middle', u'right']","[0.8, 0.4, 0.2]","[u'medium', u'high', u'low']","blue",51,"right","low","False","False",241,6100,NA
"A2CWNRI11XJ7WX","Tue Jan 28 2020 13:43:54 GMT+0000 (Greenwich Mean Time)","Tue Jan 28 2020 13:50:52 GMT+0000 (Greenwich Mean Time)","Mozilla/5.0 (Windows NT 10.0; Win64; x64) AppleWebKit/537.36 (KHTML, like Gecko) Chrome/79.0.3945.130 Safari/537.36",146,"[0.9, 0.5, 0.1]","[0.8, 0.4, 0.2]","[u'black', u'red', u'blue']","[u'left', u'middle', u'right']","[0.8, 0.4, 0.2]","[u'medium', u'high', u'low']","red",50,"middle","high","True","False",147,6200,NA
"A2CWNRI11XJ7WX","Tue Jan 28 2020 13:43:54 GMT+0000 (Greenwich Mean Time)","Tue Jan 28 2020 13:50:52 GMT+0000 (Greenwich Mean Time)","Mozilla/5.0 (Windows NT 10.0; Win64; x64) AppleWebKit/537.36 (KHTML, like Gecko) Chrome/79.0.3945.130 Safari/537.36",147,"[0.9, 0.5, 0.1]","[0.8, 0.4, 0.2]","[u'black', u'red', u'blue']","[u'left', u'middle', u'right']","[0.8, 0.4, 0.2]","[u'medium', u'high', u'low']","red",50,"middle","high","True","False",355,6300,NA
"A2CWNRI11XJ7WX","Tue Jan 28 2020 13:43:54 GMT+0000 (Greenwich Mean Time)","Tue Jan 28 2020 13:50:52 GMT+0000 (Greenwich Mean Time)","Mozilla/5.0 (Windows NT 10.0; Win64; x64) AppleWebKit/537.36 (KHTML, like Gecko) Chrome/79.0.3945.130 Safari/537.36",148,"[0.9, 0.5, 0.1]","[0.8, 0.4, 0.2]","[u'black', u'red', u'blue']","[u'left', u'middle', u'right']","[0.8, 0.4, 0.2]","[u'medium', u'high', u'low']","red",50,"middle","high","True","False",386,6400,NA
"A2CWNRI11XJ7WX","Tue Jan 28 2020 13:43:54 GMT+0000 (Greenwich Mean Time)","Tue Jan 28 2020 13:50:52 GMT+0000 (Greenwich Mean Time)","Mozilla/5.0 (Windows NT 10.0; Win64; x64) AppleWebKit/537.36 (KHTML, like Gecko) Chrome/79.0.3945.130 Safari/537.36",149,"[0.9, 0.5, 0.1]","[0.8, 0.4, 0.2]","[u'black', u'red', u'blue']","[u'left', u'middle', u'right']","[0.8, 0.4, 0.2]","[u'medium', u'high', u'low']","red",50,"middle","high","True","False",450,6500,NA
"A2CWNRI11XJ7WX","Tue Jan 28 2020 13:43:54 GMT+0000 (Greenwich Mean Time)","Tue Jan 28 2020 13:50:52 GMT+0000 (Greenwich Mean Time)","Mozilla/5.0 (Windows NT 10.0; Win64; x64) AppleWebKit/537.36 (KHTML, like Gecko) Chrome/79.0.3945.130 Safari/537.36",150,"[0.9, 0.5, 0.1]","[0.8, 0.4, 0.2]","[u'black', u'red', u'blue']","[u'left', u'middle', u'right']","[0.8, 0.4, 0.2]","[u'medium', u'high', u'low']","red",50,"middle","high","True","False",322,6600,NA
"A2CWNRI11XJ7WX","Tue Jan 28 2020 13:43:54 GMT+0000 (Greenwich Mean Time)","Tue Jan 28 2020 13:50:52 GMT+0000 (Greenwich Mean Time)","Mozilla/5.0 (Windows NT 10.0; Win64; x64) AppleWebKit/537.36 (KHTML, like Gecko) Chrome/79.0.3945.130 Safari/537.36",151,"[0.9, 0.5, 0.1]","[0.8, 0.4, 0.2]","[u'black', u'red', u'blue']","[u'left', u'middle', u'right']","[0.8, 0.4, 0.2]","[u'medium', u'high', u'low']","black",49,"left","medium","False","False",284,6550,NA
"A2CWNRI11XJ7WX","Tue Jan 28 2020 13:43:54 GMT+0000 (Greenwich Mean Time)","Tue Jan 28 2020 13:50:52 GMT+0000 (Greenwich Mean Time)","Mozilla/5.0 (Windows NT 10.0; Win64; x64) AppleWebKit/537.36 (KHTML, like Gecko) Chrome/79.0.3945.130 Safari/537.36",152,"[0.9, 0.5, 0.1]","[0.8, 0.4, 0.2]","[u'black', u'red', u'blue']","[u'left', u'middle', u'right']","[0.8, 0.4, 0.2]","[u'medium', u'high', u'low']","red",50,"middle","high","True","False",296,6650,NA
"A2CWNRI11XJ7WX","Tue Jan 28 2020 13:43:54 GMT+0000 (Greenwich Mean Time)","Tue Jan 28 2020 13:50:52 GMT+0000 (Greenwich Mean Time)","Mozilla/5.0 (Windows NT 10.0; Win64; x64) AppleWebKit/537.36 (KHTML, like Gecko) Chrome/79.0.3945.130 Safari/537.36",153,"[0.9, 0.5, 0.1]","[0.8, 0.4, 0.2]","[u'black', u'red', u'blue']","[u'left', u'middle', u'right']","[0.8, 0.4, 0.2]","[u'medium', u'high', u'low']","red",50,"middle","high","True","False",330,6750,NA
"A2CWNRI11XJ7WX","Tue Jan 28 2020 13:43:54 GMT+0000 (Greenwich Mean Time)","Tue Jan 28 2020 13:50:52 GMT+0000 (Greenwich Mean Time)","Mozilla/5.0 (Windows NT 10.0; Win64; x64) AppleWebKit/537.36 (KHTML, like Gecko) Chrome/79.0.3945.130 Safari/537.36",154,"[0.9, 0.5, 0.1]","[0.8, 0.4, 0.2]","[u'black', u'red', u'blue']","[u'left', u'middle', u'right']","[0.8, 0.4, 0.2]","[u'medium', u'high', u'low']","red",50,"middle","high","True","False",315,6850,NA
"A2CWNRI11XJ7WX","Tue Jan 28 2020 13:43:54 GMT+0000 (Greenwich Mean Time)","Tue Jan 28 2020 13:50:52 GMT+0000 (Greenwich Mean Time)","Mozilla/5.0 (Windows NT 10.0; Win64; x64) AppleWebKit/537.36 (KHTML, like Gecko) Chrome/79.0.3945.130 Safari/537.36",155,"[0.9, 0.5, 0.1]","[0.8, 0.4, 0.2]","[u'black', u'red', u'blue']","[u'left', u'middle', u'right']","[0.8, 0.4, 0.2]","[u'medium', u'high', u'low']","red",50,"middle","high","False","True",299,6800,NA
"A2CWNRI11XJ7WX","Tue Jan 28 2020 13:43:54 GMT+0000 (Greenwich Mean Time)","Tue Jan 28 2020 13:50:52 GMT+0000 (Greenwich Mean Time)","Mozilla/5.0 (Windows NT 10.0; Win64; x64) AppleWebKit/537.36 (KHTML, like Gecko) Chrome/79.0.3945.130 Safari/537.36",156,"[0.9, 0.5, 0.1]","[0.8, 0.4, 0.2]","[u'black', u'red', u'blue']","[u'left', u'middle', u'right']","[0.8, 0.4, 0.2]","[u'low', u'medium', u'high']","blue",51,"right","high","True","False",202,6900,NA
"A2CWNRI11XJ7WX","Tue Jan 28 2020 13:43:54 GMT+0000 (Greenwich Mean Time)","Tue Jan 28 2020 13:50:52 GMT+0000 (Greenwich Mean Time)","Mozilla/5.0 (Windows NT 10.0; Win64; x64) AppleWebKit/537.36 (KHTML, like Gecko) Chrome/79.0.3945.130 Safari/537.36",157,"[0.9, 0.5, 0.1]","[0.8, 0.4, 0.2]","[u'black', u'red', u'blue']","[u'left', u'middle', u'right']","[0.8, 0.4, 0.2]","[u'low', u'medium', u'high']","blue",51,"right","high","True","False",290,7000,NA
"A2CWNRI11XJ7WX","Tue Jan 28 2020 13:43:54 GMT+0000 (Greenwich Mean Time)","Tue Jan 28 2020 13:50:52 GMT+0000 (Greenwich Mean Time)","Mozilla/5.0 (Windows NT 10.0; Win64; x64) AppleWebKit/537.36 (KHTML, like Gecko) Chrome/79.0.3945.130 Safari/537.36",158,"[0.9, 0.5, 0.1]","[0.8, 0.4, 0.2]","[u'black', u'red', u'blue']","[u'left', u'middle', u'right']","[0.8, 0.4, 0.2]","[u'low', u'medium', u'high']","blue",51,"right","high","False","False",339,6950,NA
"A2CWNRI11XJ7WX","Tue Jan 28 2020 13:43:54 GMT+0000 (Greenwich Mean Time)","Tue Jan 28 2020 13:50:52 GMT+0000 (Greenwich Mean Time)","Mozilla/5.0 (Windows NT 10.0; Win64; x64) AppleWebKit/537.36 (KHTML, like Gecko) Chrome/79.0.3945.130 Safari/537.36",159,"[0.9, 0.5, 0.1]","[0.8, 0.4, 0.2]","[u'black', u'red', u'blue']","[u'left', u'middle', u'right']","[0.8, 0.4, 0.2]","[u'low', u'medium', u'high']","black",49,"left","low","False","False",171,6900,NA
"A2CWNRI11XJ7WX","Tue Jan 28 2020 13:43:54 GMT+0000 (Greenwich Mean Time)","Tue Jan 28 2020 13:50:52 GMT+0000 (Greenwich Mean Time)","Mozilla/5.0 (Windows NT 10.0; Win64; x64) AppleWebKit/537.36 (KHTML, like Gecko) Chrome/79.0.3945.130 Safari/537.36",160,"[0.9, 0.5, 0.1]","[0.8, 0.4, 0.2]","[u'black', u'red', u'blue']","[u'left', u'middle', u'right']","[0.8, 0.4, 0.2]","[u'low', u'medium', u'high']","blue",51,"right","high","True","False",259,7000,NA
