"src_subject_id","start_time","end_time","browser","index","first_half_probabilities","second_half_probabilities","deck_color","deck_position","deck_probabilities","deck_contingencies","response_color","key_press","response_position","response_probability","reward_type","trial_type","rt","reward_tally","exclusion_reason"
"A2R75YFKVALBXE","Thu Sep 17 2020 17:59:12 GMT-0500 (Central Daylight Time)","Thu Sep 17 2020 18:07:53 GMT-0500 (Central Daylight Time)","Mozilla/5.0 (Macintosh; Intel Mac OS X 10.14; rv:80.0) Gecko/20100101 Firefox/80.0",1,"[0.9, 0.5, 0.1]","[0.8, 0.4, 0.2]","[u'blue', u'red', u'black']","[u'left', u'middle', u'right']","[0.9, 0.5, 0.1]","[u'low', u'high', u'medium']","blue",49,"left","low","False","False",1210,-50,NA
"A2R75YFKVALBXE","Thu Sep 17 2020 17:59:12 GMT-0500 (Central Daylight Time)","Thu Sep 17 2020 18:07:53 GMT-0500 (Central Daylight Time)","Mozilla/5.0 (Macintosh; Intel Mac OS X 10.14; rv:80.0) Gecko/20100101 Firefox/80.0",2,"[0.9, 0.5, 0.1]","[0.8, 0.4, 0.2]","[u'blue', u'red', u'black']","[u'left', u'middle', u'right']","[0.9, 0.5, 0.1]","[u'low', u'high', u'medium']","blue",49,"left","low","False","False",534,-100,NA
"A2R75YFKVALBXE","Thu Sep 17 2020 17:59:12 GMT-0500 (Central Daylight Time)","Thu Sep 17 2020 18:07:53 GMT-0500 (Central Daylight Time)","Mozilla/5.0 (Macintosh; Intel Mac OS X 10.14; rv:80.0) Gecko/20100101 Firefox/80.0",3,"[0.9, 0.5, 0.1]","[0.8, 0.4, 0.2]","[u'blue', u'red', u'black']","[u'left', u'middle', u'right']","[0.9, 0.5, 0.1]","[u'low', u'high', u'medium']","red",50,"middle","high","True","False",789,0,NA
"A2R75YFKVALBXE","Thu Sep 17 2020 17:59:12 GMT-0500 (Central Daylight Time)","Thu Sep 17 2020 18:07:53 GMT-0500 (Central Daylight Time)","Mozilla/5.0 (Macintosh; Intel Mac OS X 10.14; rv:80.0) Gecko/20100101 Firefox/80.0",4,"[0.9, 0.5, 0.1]","[0.8, 0.4, 0.2]","[u'blue', u'red', u'black']","[u'left', u'middle', u'right']","[0.9, 0.5, 0.1]","[u'low', u'high', u'medium']","red",50,"middle","high","False","False",522,-50,NA
"A2R75YFKVALBXE","Thu Sep 17 2020 17:59:12 GMT-0500 (Central Daylight Time)","Thu Sep 17 2020 18:07:53 GMT-0500 (Central Daylight Time)","Mozilla/5.0 (Macintosh; Intel Mac OS X 10.14; rv:80.0) Gecko/20100101 Firefox/80.0",5,"[0.9, 0.5, 0.1]","[0.8, 0.4, 0.2]","[u'blue', u'red', u'black']","[u'left', u'middle', u'right']","[0.9, 0.5, 0.1]","[u'low', u'high', u'medium']","black",51,"right","medium","False","False",674,-100,NA
"A2R75YFKVALBXE","Thu Sep 17 2020 17:59:12 GMT-0500 (Central Daylight Time)","Thu Sep 17 2020 18:07:53 GMT-0500 (Central Daylight Time)","Mozilla/5.0 (Macintosh; Intel Mac OS X 10.14; rv:80.0) Gecko/20100101 Firefox/80.0",6,"[0.9, 0.5, 0.1]","[0.8, 0.4, 0.2]","[u'blue', u'red', u'black']","[u'left', u'middle', u'right']","[0.9, 0.5, 0.1]","[u'low', u'high', u'medium']","red",50,"middle","high","True","False",538,0,NA
"A2R75YFKVALBXE","Thu Sep 17 2020 17:59:12 GMT-0500 (Central Daylight Time)","Thu Sep 17 2020 18:07:53 GMT-0500 (Central Daylight Time)","Mozilla/5.0 (Macintosh; Intel Mac OS X 10.14; rv:80.0) Gecko/20100101 Firefox/80.0",7,"[0.9, 0.5, 0.1]","[0.8, 0.4, 0.2]","[u'blue', u'red', u'black']","[u'left', u'middle', u'right']","[0.9, 0.5, 0.1]","[u'low', u'high', u'medium']","red",50,"middle","high","True","False",567,100,NA
"A2R75YFKVALBXE","Thu Sep 17 2020 17:59:12 GMT-0500 (Central Daylight Time)","Thu Sep 17 2020 18:07:53 GMT-0500 (Central Daylight Time)","Mozilla/5.0 (Macintosh; Intel Mac OS X 10.14; rv:80.0) Gecko/20100101 Firefox/80.0",8,"[0.9, 0.5, 0.1]","[0.8, 0.4, 0.2]","[u'blue', u'red', u'black']","[u'left', u'middle', u'right']","[0.9, 0.5, 0.1]","[u'low', u'high', u'medium']","red",50,"middle","high","True","False",551,200,NA
"A2R75YFKVALBXE","Thu Sep 17 2020 17:59:12 GMT-0500 (Central Daylight Time)","Thu Sep 17 2020 18:07:53 GMT-0500 (Central Daylight Time)","Mozilla/5.0 (Macintosh; Intel Mac OS X 10.14; rv:80.0) Gecko/20100101 Firefox/80.0",9,"[0.9, 0.5, 0.1]","[0.8, 0.4, 0.2]","[u'blue', u'red', u'black']","[u'left', u'middle', u'right']","[0.9, 0.5, 0.1]","[u'low', u'high', u'medium']","red",50,"middle","high","True","False",504,300,NA
"A2R75YFKVALBXE","Thu Sep 17 2020 17:59:12 GMT-0500 (Central Daylight Time)","Thu Sep 17 2020 18:07:53 GMT-0500 (Central Daylight Time)","Mozilla/5.0 (Macintosh; Intel Mac OS X 10.14; rv:80.0) Gecko/20100101 Firefox/80.0",10,"[0.9, 0.5, 0.1]","[0.8, 0.4, 0.2]","[u'blue', u'red', u'black']","[u'left', u'middle', u'right']","[0.9, 0.5, 0.1]","[u'low', u'high', u'medium']","red",50,"middle","high","True","False",560,400,NA
"A2R75YFKVALBXE","Thu Sep 17 2020 17:59:12 GMT-0500 (Central Daylight Time)","Thu Sep 17 2020 18:07:53 GMT-0500 (Central Daylight Time)","Mozilla/5.0 (Macintosh; Intel Mac OS X 10.14; rv:80.0) Gecko/20100101 Firefox/80.0",11,"[0.9, 0.5, 0.1]","[0.8, 0.4, 0.2]","[u'blue', u'red', u'black']","[u'left', u'middle', u'right']","[0.9, 0.5, 0.1]","[u'low', u'high', u'medium']","red",50,"middle","high","True","False",591,500,NA
"A2R75YFKVALBXE","Thu Sep 17 2020 17:59:12 GMT-0500 (Central Daylight Time)","Thu Sep 17 2020 18:07:53 GMT-0500 (Central Daylight Time)","Mozilla/5.0 (Macintosh; Intel Mac OS X 10.14; rv:80.0) Gecko/20100101 Firefox/80.0",12,"[0.9, 0.5, 0.1]","[0.8, 0.4, 0.2]","[u'blue', u'red', u'black']","[u'left', u'middle', u'right']","[0.9, 0.5, 0.1]","[u'low', u'high', u'medium']","red",50,"middle","high","True","True",527,600,NA
"A2R75YFKVALBXE","Thu Sep 17 2020 17:59:12 GMT-0500 (Central Daylight Time)","Thu Sep 17 2020 18:07:53 GMT-0500 (Central Daylight Time)","Mozilla/5.0 (Macintosh; Intel Mac OS X 10.14; rv:80.0) Gecko/20100101 Firefox/80.0",13,"[0.9, 0.5, 0.1]","[0.8, 0.4, 0.2]","[u'blue', u'red', u'black']","[u'left', u'middle', u'right']","[0.9, 0.5, 0.1]","[u'high', u'medium', u'low']","red",50,"middle","medium","False","False",487,550,NA
"A2R75YFKVALBXE","Thu Sep 17 2020 17:59:12 GMT-0500 (Central Daylight Time)","Thu Sep 17 2020 18:07:53 GMT-0500 (Central Daylight Time)","Mozilla/5.0 (Macintosh; Intel Mac OS X 10.14; rv:80.0) Gecko/20100101 Firefox/80.0",14,"[0.9, 0.5, 0.1]","[0.8, 0.4, 0.2]","[u'blue', u'red', u'black']","[u'left', u'middle', u'right']","[0.9, 0.5, 0.1]","[u'high', u'medium', u'low']","red",50,"middle","medium","True","False",468,650,NA
"A2R75YFKVALBXE","Thu Sep 17 2020 17:59:12 GMT-0500 (Central Daylight Time)","Thu Sep 17 2020 18:07:53 GMT-0500 (Central Daylight Time)","Mozilla/5.0 (Macintosh; Intel Mac OS X 10.14; rv:80.0) Gecko/20100101 Firefox/80.0",15,"[0.9, 0.5, 0.1]","[0.8, 0.4, 0.2]","[u'blue', u'red', u'black']","[u'left', u'middle', u'right']","[0.9, 0.5, 0.1]","[u'high', u'medium', u'low']","red",50,"middle","medium","False","False",489,600,NA
"A2R75YFKVALBXE","Thu Sep 17 2020 17:59:12 GMT-0500 (Central Daylight Time)","Thu Sep 17 2020 18:07:53 GMT-0500 (Central Daylight Time)","Mozilla/5.0 (Macintosh; Intel Mac OS X 10.14; rv:80.0) Gecko/20100101 Firefox/80.0",16,"[0.9, 0.5, 0.1]","[0.8, 0.4, 0.2]","[u'blue', u'red', u'black']","[u'left', u'middle', u'right']","[0.9, 0.5, 0.1]","[u'high', u'medium', u'low']","red",50,"middle","medium","False","False",555,550,NA
"A2R75YFKVALBXE","Thu Sep 17 2020 17:59:12 GMT-0500 (Central Daylight Time)","Thu Sep 17 2020 18:07:53 GMT-0500 (Central Daylight Time)","Mozilla/5.0 (Macintosh; Intel Mac OS X 10.14; rv:80.0) Gecko/20100101 Firefox/80.0",17,"[0.9, 0.5, 0.1]","[0.8, 0.4, 0.2]","[u'blue', u'red', u'black']","[u'left', u'middle', u'right']","[0.9, 0.5, 0.1]","[u'high', u'medium', u'low']","red",50,"middle","medium","True","False",708,650,NA
"A2R75YFKVALBXE","Thu Sep 17 2020 17:59:12 GMT-0500 (Central Daylight Time)","Thu Sep 17 2020 18:07:53 GMT-0500 (Central Daylight Time)","Mozilla/5.0 (Macintosh; Intel Mac OS X 10.14; rv:80.0) Gecko/20100101 Firefox/80.0",18,"[0.9, 0.5, 0.1]","[0.8, 0.4, 0.2]","[u'blue', u'red', u'black']","[u'left', u'middle', u'right']","[0.9, 0.5, 0.1]","[u'high', u'medium', u'low']","red",50,"middle","medium","True","False",624,750,NA
"A2R75YFKVALBXE","Thu Sep 17 2020 17:59:12 GMT-0500 (Central Daylight Time)","Thu Sep 17 2020 18:07:53 GMT-0500 (Central Daylight Time)","Mozilla/5.0 (Macintosh; Intel Mac OS X 10.14; rv:80.0) Gecko/20100101 Firefox/80.0",19,"[0.9, 0.5, 0.1]","[0.8, 0.4, 0.2]","[u'blue', u'red', u'black']","[u'left', u'middle', u'right']","[0.9, 0.5, 0.1]","[u'high', u'medium', u'low']","red",50,"middle","medium","False","False",559,700,NA
"A2R75YFKVALBXE","Thu Sep 17 2020 17:59:12 GMT-0500 (Central Daylight Time)","Thu Sep 17 2020 18:07:53 GMT-0500 (Central Daylight Time)","Mozilla/5.0 (Macintosh; Intel Mac OS X 10.14; rv:80.0) Gecko/20100101 Firefox/80.0",20,"[0.9, 0.5, 0.1]","[0.8, 0.4, 0.2]","[u'blue', u'red', u'black']","[u'left', u'middle', u'right']","[0.9, 0.5, 0.1]","[u'high', u'medium', u'low']","red",50,"middle","medium","True","False",524,800,NA
"A2R75YFKVALBXE","Thu Sep 17 2020 17:59:12 GMT-0500 (Central Daylight Time)","Thu Sep 17 2020 18:07:53 GMT-0500 (Central Daylight Time)","Mozilla/5.0 (Macintosh; Intel Mac OS X 10.14; rv:80.0) Gecko/20100101 Firefox/80.0",21,"[0.9, 0.5, 0.1]","[0.8, 0.4, 0.2]","[u'blue', u'red', u'black']","[u'left', u'middle', u'right']","[0.9, 0.5, 0.1]","[u'high', u'medium', u'low']","red",50,"middle","medium","True","False",519,900,NA
"A2R75YFKVALBXE","Thu Sep 17 2020 17:59:12 GMT-0500 (Central Daylight Time)","Thu Sep 17 2020 18:07:53 GMT-0500 (Central Daylight Time)","Mozilla/5.0 (Macintosh; Intel Mac OS X 10.14; rv:80.0) Gecko/20100101 Firefox/80.0",22,"[0.9, 0.5, 0.1]","[0.8, 0.4, 0.2]","[u'blue', u'red', u'black']","[u'left', u'middle', u'right']","[0.9, 0.5, 0.1]","[u'high', u'medium', u'low']","red",50,"middle","medium","False","False",547,850,NA
"A2R75YFKVALBXE","Thu Sep 17 2020 17:59:12 GMT-0500 (Central Daylight Time)","Thu Sep 17 2020 18:07:53 GMT-0500 (Central Daylight Time)","Mozilla/5.0 (Macintosh; Intel Mac OS X 10.14; rv:80.0) Gecko/20100101 Firefox/80.0",23,"[0.9, 0.5, 0.1]","[0.8, 0.4, 0.2]","[u'blue', u'red', u'black']","[u'left', u'middle', u'right']","[0.9, 0.5, 0.1]","[u'high', u'medium', u'low']","red",50,"middle","medium","False","False",574,800,NA
"A2R75YFKVALBXE","Thu Sep 17 2020 17:59:12 GMT-0500 (Central Daylight Time)","Thu Sep 17 2020 18:07:53 GMT-0500 (Central Daylight Time)","Mozilla/5.0 (Macintosh; Intel Mac OS X 10.14; rv:80.0) Gecko/20100101 Firefox/80.0",24,"[0.9, 0.5, 0.1]","[0.8, 0.4, 0.2]","[u'blue', u'red', u'black']","[u'left', u'middle', u'right']","[0.9, 0.5, 0.1]","[u'high', u'medium', u'low']","red",50,"middle","medium","False","False",570,750,NA
"A2R75YFKVALBXE","Thu Sep 17 2020 17:59:12 GMT-0500 (Central Daylight Time)","Thu Sep 17 2020 18:07:53 GMT-0500 (Central Daylight Time)","Mozilla/5.0 (Macintosh; Intel Mac OS X 10.14; rv:80.0) Gecko/20100101 Firefox/80.0",25,"[0.9, 0.5, 0.1]","[0.8, 0.4, 0.2]","[u'blue', u'red', u'black']","[u'left', u'middle', u'right']","[0.9, 0.5, 0.1]","[u'high', u'medium', u'low']","red",50,"middle","medium","False","False",568,700,NA
"A2R75YFKVALBXE","Thu Sep 17 2020 17:59:12 GMT-0500 (Central Daylight Time)","Thu Sep 17 2020 18:07:53 GMT-0500 (Central Daylight Time)","Mozilla/5.0 (Macintosh; Intel Mac OS X 10.14; rv:80.0) Gecko/20100101 Firefox/80.0",26,"[0.9, 0.5, 0.1]","[0.8, 0.4, 0.2]","[u'blue', u'red', u'black']","[u'left', u'middle', u'right']","[0.9, 0.5, 0.1]","[u'high', u'medium', u'low']","blue",49,"left","high","True","False",542,800,NA
"A2R75YFKVALBXE","Thu Sep 17 2020 17:59:12 GMT-0500 (Central Daylight Time)","Thu Sep 17 2020 18:07:53 GMT-0500 (Central Daylight Time)","Mozilla/5.0 (Macintosh; Intel Mac OS X 10.14; rv:80.0) Gecko/20100101 Firefox/80.0",27,"[0.9, 0.5, 0.1]","[0.8, 0.4, 0.2]","[u'blue', u'red', u'black']","[u'left', u'middle', u'right']","[0.9, 0.5, 0.1]","[u'high', u'medium', u'low']","blue",49,"left","high","True","False",550,900,NA
"A2R75YFKVALBXE","Thu Sep 17 2020 17:59:12 GMT-0500 (Central Daylight Time)","Thu Sep 17 2020 18:07:53 GMT-0500 (Central Daylight Time)","Mozilla/5.0 (Macintosh; Intel Mac OS X 10.14; rv:80.0) Gecko/20100101 Firefox/80.0",28,"[0.9, 0.5, 0.1]","[0.8, 0.4, 0.2]","[u'blue', u'red', u'black']","[u'left', u'middle', u'right']","[0.9, 0.5, 0.1]","[u'high', u'medium', u'low']","blue",49,"left","high","True","False",544,1000,NA
"A2R75YFKVALBXE","Thu Sep 17 2020 17:59:12 GMT-0500 (Central Daylight Time)","Thu Sep 17 2020 18:07:53 GMT-0500 (Central Daylight Time)","Mozilla/5.0 (Macintosh; Intel Mac OS X 10.14; rv:80.0) Gecko/20100101 Firefox/80.0",29,"[0.9, 0.5, 0.1]","[0.8, 0.4, 0.2]","[u'blue', u'red', u'black']","[u'left', u'middle', u'right']","[0.9, 0.5, 0.1]","[u'high', u'medium', u'low']","blue",49,"left","high","True","False",558,1100,NA
"A2R75YFKVALBXE","Thu Sep 17 2020 17:59:12 GMT-0500 (Central Daylight Time)","Thu Sep 17 2020 18:07:53 GMT-0500 (Central Daylight Time)","Mozilla/5.0 (Macintosh; Intel Mac OS X 10.14; rv:80.0) Gecko/20100101 Firefox/80.0",30,"[0.9, 0.5, 0.1]","[0.8, 0.4, 0.2]","[u'blue', u'red', u'black']","[u'left', u'middle', u'right']","[0.9, 0.5, 0.1]","[u'high', u'medium', u'low']","blue",49,"left","high","True","False",568,1200,NA
"A2R75YFKVALBXE","Thu Sep 17 2020 17:59:12 GMT-0500 (Central Daylight Time)","Thu Sep 17 2020 18:07:53 GMT-0500 (Central Daylight Time)","Mozilla/5.0 (Macintosh; Intel Mac OS X 10.14; rv:80.0) Gecko/20100101 Firefox/80.0",31,"[0.9, 0.5, 0.1]","[0.8, 0.4, 0.2]","[u'blue', u'red', u'black']","[u'left', u'middle', u'right']","[0.9, 0.5, 0.1]","[u'high', u'medium', u'low']","blue",49,"left","high","True","False",554,1300,NA
"A2R75YFKVALBXE","Thu Sep 17 2020 17:59:12 GMT-0500 (Central Daylight Time)","Thu Sep 17 2020 18:07:53 GMT-0500 (Central Daylight Time)","Mozilla/5.0 (Macintosh; Intel Mac OS X 10.14; rv:80.0) Gecko/20100101 Firefox/80.0",32,"[0.9, 0.5, 0.1]","[0.8, 0.4, 0.2]","[u'blue', u'red', u'black']","[u'left', u'middle', u'right']","[0.9, 0.5, 0.1]","[u'high', u'medium', u'low']","blue",49,"left","high","True","False",546,1400,NA
"A2R75YFKVALBXE","Thu Sep 17 2020 17:59:12 GMT-0500 (Central Daylight Time)","Thu Sep 17 2020 18:07:53 GMT-0500 (Central Daylight Time)","Mozilla/5.0 (Macintosh; Intel Mac OS X 10.14; rv:80.0) Gecko/20100101 Firefox/80.0",33,"[0.9, 0.5, 0.1]","[0.8, 0.4, 0.2]","[u'blue', u'red', u'black']","[u'left', u'middle', u'right']","[0.9, 0.5, 0.1]","[u'high', u'medium', u'low']","blue",49,"left","high","False","False",482,1350,NA
"A2R75YFKVALBXE","Thu Sep 17 2020 17:59:12 GMT-0500 (Central Daylight Time)","Thu Sep 17 2020 18:07:53 GMT-0500 (Central Daylight Time)","Mozilla/5.0 (Macintosh; Intel Mac OS X 10.14; rv:80.0) Gecko/20100101 Firefox/80.0",34,"[0.9, 0.5, 0.1]","[0.8, 0.4, 0.2]","[u'blue', u'red', u'black']","[u'left', u'middle', u'right']","[0.9, 0.5, 0.1]","[u'high', u'medium', u'low']","blue",49,"left","high","True","True",585,1450,NA
"A2R75YFKVALBXE","Thu Sep 17 2020 17:59:12 GMT-0500 (Central Daylight Time)","Thu Sep 17 2020 18:07:53 GMT-0500 (Central Daylight Time)","Mozilla/5.0 (Macintosh; Intel Mac OS X 10.14; rv:80.0) Gecko/20100101 Firefox/80.0",35,"[0.9, 0.5, 0.1]","[0.8, 0.4, 0.2]","[u'blue', u'red', u'black']","[u'left', u'middle', u'right']","[0.9, 0.5, 0.1]","[u'low', u'medium', u'high']","blue",49,"left","low","False","False",586,1400,NA
"A2R75YFKVALBXE","Thu Sep 17 2020 17:59:12 GMT-0500 (Central Daylight Time)","Thu Sep 17 2020 18:07:53 GMT-0500 (Central Daylight Time)","Mozilla/5.0 (Macintosh; Intel Mac OS X 10.14; rv:80.0) Gecko/20100101 Firefox/80.0",36,"[0.9, 0.5, 0.1]","[0.8, 0.4, 0.2]","[u'blue', u'red', u'black']","[u'left', u'middle', u'right']","[0.9, 0.5, 0.1]","[u'low', u'medium', u'high']","blue",49,"left","low","False","False",547,1350,NA
"A2R75YFKVALBXE","Thu Sep 17 2020 17:59:12 GMT-0500 (Central Daylight Time)","Thu Sep 17 2020 18:07:53 GMT-0500 (Central Daylight Time)","Mozilla/5.0 (Macintosh; Intel Mac OS X 10.14; rv:80.0) Gecko/20100101 Firefox/80.0",37,"[0.9, 0.5, 0.1]","[0.8, 0.4, 0.2]","[u'blue', u'red', u'black']","[u'left', u'middle', u'right']","[0.9, 0.5, 0.1]","[u'low', u'medium', u'high']","blue",49,"left","low","False","False",608,1300,NA
"A2R75YFKVALBXE","Thu Sep 17 2020 17:59:12 GMT-0500 (Central Daylight Time)","Thu Sep 17 2020 18:07:53 GMT-0500 (Central Daylight Time)","Mozilla/5.0 (Macintosh; Intel Mac OS X 10.14; rv:80.0) Gecko/20100101 Firefox/80.0",38,"[0.9, 0.5, 0.1]","[0.8, 0.4, 0.2]","[u'blue', u'red', u'black']","[u'left', u'middle', u'right']","[0.9, 0.5, 0.1]","[u'low', u'medium', u'high']","black",51,"right","high","True","False",566,1400,NA
"A2R75YFKVALBXE","Thu Sep 17 2020 17:59:12 GMT-0500 (Central Daylight Time)","Thu Sep 17 2020 18:07:53 GMT-0500 (Central Daylight Time)","Mozilla/5.0 (Macintosh; Intel Mac OS X 10.14; rv:80.0) Gecko/20100101 Firefox/80.0",39,"[0.9, 0.5, 0.1]","[0.8, 0.4, 0.2]","[u'blue', u'red', u'black']","[u'left', u'middle', u'right']","[0.9, 0.5, 0.1]","[u'low', u'medium', u'high']","black",51,"right","high","True","False",534,1500,NA
"A2R75YFKVALBXE","Thu Sep 17 2020 17:59:12 GMT-0500 (Central Daylight Time)","Thu Sep 17 2020 18:07:53 GMT-0500 (Central Daylight Time)","Mozilla/5.0 (Macintosh; Intel Mac OS X 10.14; rv:80.0) Gecko/20100101 Firefox/80.0",40,"[0.9, 0.5, 0.1]","[0.8, 0.4, 0.2]","[u'blue', u'red', u'black']","[u'left', u'middle', u'right']","[0.9, 0.5, 0.1]","[u'low', u'medium', u'high']","black",51,"right","high","True","False",537,1600,NA
"A2R75YFKVALBXE","Thu Sep 17 2020 17:59:12 GMT-0500 (Central Daylight Time)","Thu Sep 17 2020 18:07:53 GMT-0500 (Central Daylight Time)","Mozilla/5.0 (Macintosh; Intel Mac OS X 10.14; rv:80.0) Gecko/20100101 Firefox/80.0",41,"[0.9, 0.5, 0.1]","[0.8, 0.4, 0.2]","[u'blue', u'red', u'black']","[u'left', u'middle', u'right']","[0.9, 0.5, 0.1]","[u'high', u'medium', u'low']","black",51,"right","low","True","False",625,1700,NA
"A2R75YFKVALBXE","Thu Sep 17 2020 17:59:12 GMT-0500 (Central Daylight Time)","Thu Sep 17 2020 18:07:53 GMT-0500 (Central Daylight Time)","Mozilla/5.0 (Macintosh; Intel Mac OS X 10.14; rv:80.0) Gecko/20100101 Firefox/80.0",42,"[0.9, 0.5, 0.1]","[0.8, 0.4, 0.2]","[u'blue', u'red', u'black']","[u'left', u'middle', u'right']","[0.9, 0.5, 0.1]","[u'high', u'medium', u'low']","black",51,"right","low","False","False",424,1650,NA
"A2R75YFKVALBXE","Thu Sep 17 2020 17:59:12 GMT-0500 (Central Daylight Time)","Thu Sep 17 2020 18:07:53 GMT-0500 (Central Daylight Time)","Mozilla/5.0 (Macintosh; Intel Mac OS X 10.14; rv:80.0) Gecko/20100101 Firefox/80.0",43,"[0.9, 0.5, 0.1]","[0.8, 0.4, 0.2]","[u'blue', u'red', u'black']","[u'left', u'middle', u'right']","[0.9, 0.5, 0.1]","[u'high', u'medium', u'low']","black",51,"right","low","False","False",526,1600,NA
"A2R75YFKVALBXE","Thu Sep 17 2020 17:59:12 GMT-0500 (Central Daylight Time)","Thu Sep 17 2020 18:07:53 GMT-0500 (Central Daylight Time)","Mozilla/5.0 (Macintosh; Intel Mac OS X 10.14; rv:80.0) Gecko/20100101 Firefox/80.0",44,"[0.9, 0.5, 0.1]","[0.8, 0.4, 0.2]","[u'blue', u'red', u'black']","[u'left', u'middle', u'right']","[0.9, 0.5, 0.1]","[u'high', u'medium', u'low']","black",51,"right","low","False","False",596,1550,NA
"A2R75YFKVALBXE","Thu Sep 17 2020 17:59:12 GMT-0500 (Central Daylight Time)","Thu Sep 17 2020 18:07:53 GMT-0500 (Central Daylight Time)","Mozilla/5.0 (Macintosh; Intel Mac OS X 10.14; rv:80.0) Gecko/20100101 Firefox/80.0",45,"[0.9, 0.5, 0.1]","[0.8, 0.4, 0.2]","[u'blue', u'red', u'black']","[u'left', u'middle', u'right']","[0.9, 0.5, 0.1]","[u'high', u'medium', u'low']","red",50,"middle","medium","True","False",547,1650,NA
"A2R75YFKVALBXE","Thu Sep 17 2020 17:59:12 GMT-0500 (Central Daylight Time)","Thu Sep 17 2020 18:07:53 GMT-0500 (Central Daylight Time)","Mozilla/5.0 (Macintosh; Intel Mac OS X 10.14; rv:80.0) Gecko/20100101 Firefox/80.0",46,"[0.9, 0.5, 0.1]","[0.8, 0.4, 0.2]","[u'blue', u'red', u'black']","[u'left', u'middle', u'right']","[0.9, 0.5, 0.1]","[u'high', u'medium', u'low']","red",50,"middle","medium","True","False",547,1750,NA
"A2R75YFKVALBXE","Thu Sep 17 2020 17:59:12 GMT-0500 (Central Daylight Time)","Thu Sep 17 2020 18:07:53 GMT-0500 (Central Daylight Time)","Mozilla/5.0 (Macintosh; Intel Mac OS X 10.14; rv:80.0) Gecko/20100101 Firefox/80.0",47,"[0.9, 0.5, 0.1]","[0.8, 0.4, 0.2]","[u'blue', u'red', u'black']","[u'left', u'middle', u'right']","[0.9, 0.5, 0.1]","[u'high', u'medium', u'low']","red",50,"middle","medium","True","False",486,1850,NA
"A2R75YFKVALBXE","Thu Sep 17 2020 17:59:12 GMT-0500 (Central Daylight Time)","Thu Sep 17 2020 18:07:53 GMT-0500 (Central Daylight Time)","Mozilla/5.0 (Macintosh; Intel Mac OS X 10.14; rv:80.0) Gecko/20100101 Firefox/80.0",48,"[0.9, 0.5, 0.1]","[0.8, 0.4, 0.2]","[u'blue', u'red', u'black']","[u'left', u'middle', u'right']","[0.9, 0.5, 0.1]","[u'high', u'medium', u'low']","red",50,"middle","medium","True","False",527,1950,NA
"A2R75YFKVALBXE","Thu Sep 17 2020 17:59:12 GMT-0500 (Central Daylight Time)","Thu Sep 17 2020 18:07:53 GMT-0500 (Central Daylight Time)","Mozilla/5.0 (Macintosh; Intel Mac OS X 10.14; rv:80.0) Gecko/20100101 Firefox/80.0",49,"[0.9, 0.5, 0.1]","[0.8, 0.4, 0.2]","[u'blue', u'red', u'black']","[u'left', u'middle', u'right']","[0.9, 0.5, 0.1]","[u'high', u'medium', u'low']","red",50,"middle","medium","True","False",631,2050,NA
"A2R75YFKVALBXE","Thu Sep 17 2020 17:59:12 GMT-0500 (Central Daylight Time)","Thu Sep 17 2020 18:07:53 GMT-0500 (Central Daylight Time)","Mozilla/5.0 (Macintosh; Intel Mac OS X 10.14; rv:80.0) Gecko/20100101 Firefox/80.0",50,"[0.9, 0.5, 0.1]","[0.8, 0.4, 0.2]","[u'blue', u'red', u'black']","[u'left', u'middle', u'right']","[0.9, 0.5, 0.1]","[u'high', u'medium', u'low']","red",50,"middle","medium","False","False",467,2000,NA
"A2R75YFKVALBXE","Thu Sep 17 2020 17:59:12 GMT-0500 (Central Daylight Time)","Thu Sep 17 2020 18:07:53 GMT-0500 (Central Daylight Time)","Mozilla/5.0 (Macintosh; Intel Mac OS X 10.14; rv:80.0) Gecko/20100101 Firefox/80.0",51,"[0.9, 0.5, 0.1]","[0.8, 0.4, 0.2]","[u'blue', u'red', u'black']","[u'left', u'middle', u'right']","[0.9, 0.5, 0.1]","[u'high', u'medium', u'low']","red",50,"middle","medium","True","False",593,2100,NA
"A2R75YFKVALBXE","Thu Sep 17 2020 17:59:12 GMT-0500 (Central Daylight Time)","Thu Sep 17 2020 18:07:53 GMT-0500 (Central Daylight Time)","Mozilla/5.0 (Macintosh; Intel Mac OS X 10.14; rv:80.0) Gecko/20100101 Firefox/80.0",52,"[0.9, 0.5, 0.1]","[0.8, 0.4, 0.2]","[u'blue', u'red', u'black']","[u'left', u'middle', u'right']","[0.9, 0.5, 0.1]","[u'high', u'medium', u'low']","red",50,"middle","medium","False","False",670,2050,NA
"A2R75YFKVALBXE","Thu Sep 17 2020 17:59:12 GMT-0500 (Central Daylight Time)","Thu Sep 17 2020 18:07:53 GMT-0500 (Central Daylight Time)","Mozilla/5.0 (Macintosh; Intel Mac OS X 10.14; rv:80.0) Gecko/20100101 Firefox/80.0",53,"[0.9, 0.5, 0.1]","[0.8, 0.4, 0.2]","[u'blue', u'red', u'black']","[u'left', u'middle', u'right']","[0.9, 0.5, 0.1]","[u'high', u'medium', u'low']","red",50,"middle","medium","False","False",600,2000,NA
"A2R75YFKVALBXE","Thu Sep 17 2020 17:59:12 GMT-0500 (Central Daylight Time)","Thu Sep 17 2020 18:07:53 GMT-0500 (Central Daylight Time)","Mozilla/5.0 (Macintosh; Intel Mac OS X 10.14; rv:80.0) Gecko/20100101 Firefox/80.0",54,"[0.9, 0.5, 0.1]","[0.8, 0.4, 0.2]","[u'blue', u'red', u'black']","[u'left', u'middle', u'right']","[0.9, 0.5, 0.1]","[u'high', u'medium', u'low']","red",50,"middle","medium","False","False",702,1950,NA
"A2R75YFKVALBXE","Thu Sep 17 2020 17:59:12 GMT-0500 (Central Daylight Time)","Thu Sep 17 2020 18:07:53 GMT-0500 (Central Daylight Time)","Mozilla/5.0 (Macintosh; Intel Mac OS X 10.14; rv:80.0) Gecko/20100101 Firefox/80.0",55,"[0.9, 0.5, 0.1]","[0.8, 0.4, 0.2]","[u'blue', u'red', u'black']","[u'left', u'middle', u'right']","[0.9, 0.5, 0.1]","[u'high', u'medium', u'low']","black",51,"right","low","False","False",619,1900,NA
"A2R75YFKVALBXE","Thu Sep 17 2020 17:59:12 GMT-0500 (Central Daylight Time)","Thu Sep 17 2020 18:07:53 GMT-0500 (Central Daylight Time)","Mozilla/5.0 (Macintosh; Intel Mac OS X 10.14; rv:80.0) Gecko/20100101 Firefox/80.0",56,"[0.9, 0.5, 0.1]","[0.8, 0.4, 0.2]","[u'blue', u'red', u'black']","[u'left', u'middle', u'right']","[0.9, 0.5, 0.1]","[u'high', u'medium', u'low']","blue",49,"left","high","True","False",657,2000,NA
"A2R75YFKVALBXE","Thu Sep 17 2020 17:59:12 GMT-0500 (Central Daylight Time)","Thu Sep 17 2020 18:07:53 GMT-0500 (Central Daylight Time)","Mozilla/5.0 (Macintosh; Intel Mac OS X 10.14; rv:80.0) Gecko/20100101 Firefox/80.0",57,"[0.9, 0.5, 0.1]","[0.8, 0.4, 0.2]","[u'blue', u'red', u'black']","[u'left', u'middle', u'right']","[0.9, 0.5, 0.1]","[u'high', u'medium', u'low']","blue",49,"left","high","True","False",630,2100,NA
"A2R75YFKVALBXE","Thu Sep 17 2020 17:59:12 GMT-0500 (Central Daylight Time)","Thu Sep 17 2020 18:07:53 GMT-0500 (Central Daylight Time)","Mozilla/5.0 (Macintosh; Intel Mac OS X 10.14; rv:80.0) Gecko/20100101 Firefox/80.0",58,"[0.9, 0.5, 0.1]","[0.8, 0.4, 0.2]","[u'blue', u'red', u'black']","[u'left', u'middle', u'right']","[0.9, 0.5, 0.1]","[u'high', u'medium', u'low']","blue",49,"left","high","True","False",490,2200,NA
"A2R75YFKVALBXE","Thu Sep 17 2020 17:59:12 GMT-0500 (Central Daylight Time)","Thu Sep 17 2020 18:07:53 GMT-0500 (Central Daylight Time)","Mozilla/5.0 (Macintosh; Intel Mac OS X 10.14; rv:80.0) Gecko/20100101 Firefox/80.0",59,"[0.9, 0.5, 0.1]","[0.8, 0.4, 0.2]","[u'blue', u'red', u'black']","[u'left', u'middle', u'right']","[0.9, 0.5, 0.1]","[u'high', u'medium', u'low']","blue",49,"left","high","True","False",630,2300,NA
"A2R75YFKVALBXE","Thu Sep 17 2020 17:59:12 GMT-0500 (Central Daylight Time)","Thu Sep 17 2020 18:07:53 GMT-0500 (Central Daylight Time)","Mozilla/5.0 (Macintosh; Intel Mac OS X 10.14; rv:80.0) Gecko/20100101 Firefox/80.0",60,"[0.9, 0.5, 0.1]","[0.8, 0.4, 0.2]","[u'blue', u'red', u'black']","[u'left', u'middle', u'right']","[0.9, 0.5, 0.1]","[u'high', u'medium', u'low']","blue",49,"left","high","True","False",494,2400,NA
"A2R75YFKVALBXE","Thu Sep 17 2020 17:59:12 GMT-0500 (Central Daylight Time)","Thu Sep 17 2020 18:07:53 GMT-0500 (Central Daylight Time)","Mozilla/5.0 (Macintosh; Intel Mac OS X 10.14; rv:80.0) Gecko/20100101 Firefox/80.0",61,"[0.9, 0.5, 0.1]","[0.8, 0.4, 0.2]","[u'blue', u'red', u'black']","[u'left', u'middle', u'right']","[0.9, 0.5, 0.1]","[u'high', u'medium', u'low']","blue",49,"left","high","True","False",615,2500,NA
"A2R75YFKVALBXE","Thu Sep 17 2020 17:59:12 GMT-0500 (Central Daylight Time)","Thu Sep 17 2020 18:07:53 GMT-0500 (Central Daylight Time)","Mozilla/5.0 (Macintosh; Intel Mac OS X 10.14; rv:80.0) Gecko/20100101 Firefox/80.0",62,"[0.9, 0.5, 0.1]","[0.8, 0.4, 0.2]","[u'blue', u'red', u'black']","[u'left', u'middle', u'right']","[0.9, 0.5, 0.1]","[u'high', u'medium', u'low']","blue",49,"left","high","True","False",558,2600,NA
"A2R75YFKVALBXE","Thu Sep 17 2020 17:59:12 GMT-0500 (Central Daylight Time)","Thu Sep 17 2020 18:07:53 GMT-0500 (Central Daylight Time)","Mozilla/5.0 (Macintosh; Intel Mac OS X 10.14; rv:80.0) Gecko/20100101 Firefox/80.0",63,"[0.9, 0.5, 0.1]","[0.8, 0.4, 0.2]","[u'blue', u'red', u'black']","[u'left', u'middle', u'right']","[0.9, 0.5, 0.1]","[u'high', u'medium', u'low']","blue",49,"left","high","True","False",678,2700,NA
"A2R75YFKVALBXE","Thu Sep 17 2020 17:59:12 GMT-0500 (Central Daylight Time)","Thu Sep 17 2020 18:07:53 GMT-0500 (Central Daylight Time)","Mozilla/5.0 (Macintosh; Intel Mac OS X 10.14; rv:80.0) Gecko/20100101 Firefox/80.0",64,"[0.9, 0.5, 0.1]","[0.8, 0.4, 0.2]","[u'blue', u'red', u'black']","[u'left', u'middle', u'right']","[0.9, 0.5, 0.1]","[u'high', u'medium', u'low']","blue",49,"left","high","False","True",599,2650,NA
"A2R75YFKVALBXE","Thu Sep 17 2020 17:59:12 GMT-0500 (Central Daylight Time)","Thu Sep 17 2020 18:07:53 GMT-0500 (Central Daylight Time)","Mozilla/5.0 (Macintosh; Intel Mac OS X 10.14; rv:80.0) Gecko/20100101 Firefox/80.0",65,"[0.9, 0.5, 0.1]","[0.8, 0.4, 0.2]","[u'blue', u'red', u'black']","[u'left', u'middle', u'right']","[0.9, 0.5, 0.1]","[u'medium', u'low', u'high']","blue",49,"left","medium","True","False",642,2750,NA
"A2R75YFKVALBXE","Thu Sep 17 2020 17:59:12 GMT-0500 (Central Daylight Time)","Thu Sep 17 2020 18:07:53 GMT-0500 (Central Daylight Time)","Mozilla/5.0 (Macintosh; Intel Mac OS X 10.14; rv:80.0) Gecko/20100101 Firefox/80.0",66,"[0.9, 0.5, 0.1]","[0.8, 0.4, 0.2]","[u'blue', u'red', u'black']","[u'left', u'middle', u'right']","[0.9, 0.5, 0.1]","[u'medium', u'low', u'high']","blue",49,"left","medium","False","False",695,2700,NA
"A2R75YFKVALBXE","Thu Sep 17 2020 17:59:12 GMT-0500 (Central Daylight Time)","Thu Sep 17 2020 18:07:53 GMT-0500 (Central Daylight Time)","Mozilla/5.0 (Macintosh; Intel Mac OS X 10.14; rv:80.0) Gecko/20100101 Firefox/80.0",67,"[0.9, 0.5, 0.1]","[0.8, 0.4, 0.2]","[u'blue', u'red', u'black']","[u'left', u'middle', u'right']","[0.9, 0.5, 0.1]","[u'medium', u'low', u'high']","blue",49,"left","medium","True","False",583,2800,NA
"A2R75YFKVALBXE","Thu Sep 17 2020 17:59:12 GMT-0500 (Central Daylight Time)","Thu Sep 17 2020 18:07:53 GMT-0500 (Central Daylight Time)","Mozilla/5.0 (Macintosh; Intel Mac OS X 10.14; rv:80.0) Gecko/20100101 Firefox/80.0",68,"[0.9, 0.5, 0.1]","[0.8, 0.4, 0.2]","[u'blue', u'red', u'black']","[u'left', u'middle', u'right']","[0.9, 0.5, 0.1]","[u'medium', u'low', u'high']","blue",49,"left","medium","True","False",519,2900,NA
"A2R75YFKVALBXE","Thu Sep 17 2020 17:59:12 GMT-0500 (Central Daylight Time)","Thu Sep 17 2020 18:07:53 GMT-0500 (Central Daylight Time)","Mozilla/5.0 (Macintosh; Intel Mac OS X 10.14; rv:80.0) Gecko/20100101 Firefox/80.0",69,"[0.9, 0.5, 0.1]","[0.8, 0.4, 0.2]","[u'blue', u'red', u'black']","[u'left', u'middle', u'right']","[0.9, 0.5, 0.1]","[u'medium', u'low', u'high']","blue",49,"left","medium","False","False",503,2850,NA
"A2R75YFKVALBXE","Thu Sep 17 2020 17:59:12 GMT-0500 (Central Daylight Time)","Thu Sep 17 2020 18:07:53 GMT-0500 (Central Daylight Time)","Mozilla/5.0 (Macintosh; Intel Mac OS X 10.14; rv:80.0) Gecko/20100101 Firefox/80.0",70,"[0.9, 0.5, 0.1]","[0.8, 0.4, 0.2]","[u'blue', u'red', u'black']","[u'left', u'middle', u'right']","[0.9, 0.5, 0.1]","[u'medium', u'low', u'high']","blue",49,"left","medium","False","False",581,2800,NA
"A2R75YFKVALBXE","Thu Sep 17 2020 17:59:12 GMT-0500 (Central Daylight Time)","Thu Sep 17 2020 18:07:53 GMT-0500 (Central Daylight Time)","Mozilla/5.0 (Macintosh; Intel Mac OS X 10.14; rv:80.0) Gecko/20100101 Firefox/80.0",71,"[0.9, 0.5, 0.1]","[0.8, 0.4, 0.2]","[u'blue', u'red', u'black']","[u'left', u'middle', u'right']","[0.9, 0.5, 0.1]","[u'medium', u'low', u'high']","blue",49,"left","medium","True","False",626,2900,NA
"A2R75YFKVALBXE","Thu Sep 17 2020 17:59:12 GMT-0500 (Central Daylight Time)","Thu Sep 17 2020 18:07:53 GMT-0500 (Central Daylight Time)","Mozilla/5.0 (Macintosh; Intel Mac OS X 10.14; rv:80.0) Gecko/20100101 Firefox/80.0",72,"[0.9, 0.5, 0.1]","[0.8, 0.4, 0.2]","[u'blue', u'red', u'black']","[u'left', u'middle', u'right']","[0.9, 0.5, 0.1]","[u'medium', u'low', u'high']","blue",49,"left","medium","False","False",583,2850,NA
"A2R75YFKVALBXE","Thu Sep 17 2020 17:59:12 GMT-0500 (Central Daylight Time)","Thu Sep 17 2020 18:07:53 GMT-0500 (Central Daylight Time)","Mozilla/5.0 (Macintosh; Intel Mac OS X 10.14; rv:80.0) Gecko/20100101 Firefox/80.0",73,"[0.9, 0.5, 0.1]","[0.8, 0.4, 0.2]","[u'blue', u'red', u'black']","[u'left', u'middle', u'right']","[0.9, 0.5, 0.1]","[u'medium', u'low', u'high']","blue",49,"left","medium","False","False",521,2800,NA
"A2R75YFKVALBXE","Thu Sep 17 2020 17:59:12 GMT-0500 (Central Daylight Time)","Thu Sep 17 2020 18:07:53 GMT-0500 (Central Daylight Time)","Mozilla/5.0 (Macintosh; Intel Mac OS X 10.14; rv:80.0) Gecko/20100101 Firefox/80.0",74,"[0.9, 0.5, 0.1]","[0.8, 0.4, 0.2]","[u'blue', u'red', u'black']","[u'left', u'middle', u'right']","[0.9, 0.5, 0.1]","[u'medium', u'low', u'high']","black",51,"right","high","True","False",537,2900,NA
"A2R75YFKVALBXE","Thu Sep 17 2020 17:59:12 GMT-0500 (Central Daylight Time)","Thu Sep 17 2020 18:07:53 GMT-0500 (Central Daylight Time)","Mozilla/5.0 (Macintosh; Intel Mac OS X 10.14; rv:80.0) Gecko/20100101 Firefox/80.0",75,"[0.9, 0.5, 0.1]","[0.8, 0.4, 0.2]","[u'blue', u'red', u'black']","[u'left', u'middle', u'right']","[0.9, 0.5, 0.1]","[u'medium', u'low', u'high']","black",51,"right","high","True","False",561,3000,NA
"A2R75YFKVALBXE","Thu Sep 17 2020 17:59:12 GMT-0500 (Central Daylight Time)","Thu Sep 17 2020 18:07:53 GMT-0500 (Central Daylight Time)","Mozilla/5.0 (Macintosh; Intel Mac OS X 10.14; rv:80.0) Gecko/20100101 Firefox/80.0",76,"[0.9, 0.5, 0.1]","[0.8, 0.4, 0.2]","[u'blue', u'red', u'black']","[u'left', u'middle', u'right']","[0.9, 0.5, 0.1]","[u'medium', u'low', u'high']","black",51,"right","high","True","False",529,3100,NA
"A2R75YFKVALBXE","Thu Sep 17 2020 17:59:12 GMT-0500 (Central Daylight Time)","Thu Sep 17 2020 18:07:53 GMT-0500 (Central Daylight Time)","Mozilla/5.0 (Macintosh; Intel Mac OS X 10.14; rv:80.0) Gecko/20100101 Firefox/80.0",77,"[0.9, 0.5, 0.1]","[0.8, 0.4, 0.2]","[u'blue', u'red', u'black']","[u'left', u'middle', u'right']","[0.9, 0.5, 0.1]","[u'medium', u'low', u'high']","black",51,"right","high","True","False",571,3200,NA
"A2R75YFKVALBXE","Thu Sep 17 2020 17:59:12 GMT-0500 (Central Daylight Time)","Thu Sep 17 2020 18:07:53 GMT-0500 (Central Daylight Time)","Mozilla/5.0 (Macintosh; Intel Mac OS X 10.14; rv:80.0) Gecko/20100101 Firefox/80.0",78,"[0.9, 0.5, 0.1]","[0.8, 0.4, 0.2]","[u'blue', u'red', u'black']","[u'left', u'middle', u'right']","[0.9, 0.5, 0.1]","[u'medium', u'low', u'high']","black",51,"right","high","True","False",496,3300,NA
"A2R75YFKVALBXE","Thu Sep 17 2020 17:59:12 GMT-0500 (Central Daylight Time)","Thu Sep 17 2020 18:07:53 GMT-0500 (Central Daylight Time)","Mozilla/5.0 (Macintosh; Intel Mac OS X 10.14; rv:80.0) Gecko/20100101 Firefox/80.0",79,"[0.9, 0.5, 0.1]","[0.8, 0.4, 0.2]","[u'blue', u'red', u'black']","[u'left', u'middle', u'right']","[0.9, 0.5, 0.1]","[u'medium', u'low', u'high']","black",51,"right","high","True","False",566,3400,NA
"A2R75YFKVALBXE","Thu Sep 17 2020 17:59:12 GMT-0500 (Central Daylight Time)","Thu Sep 17 2020 18:07:53 GMT-0500 (Central Daylight Time)","Mozilla/5.0 (Macintosh; Intel Mac OS X 10.14; rv:80.0) Gecko/20100101 Firefox/80.0",80,"[0.9, 0.5, 0.1]","[0.8, 0.4, 0.2]","[u'blue', u'red', u'black']","[u'left', u'middle', u'right']","[0.9, 0.5, 0.1]","[u'medium', u'low', u'high']","black",51,"right","high","False","False",538,3350,NA
"A2R75YFKVALBXE","Thu Sep 17 2020 17:59:12 GMT-0500 (Central Daylight Time)","Thu Sep 17 2020 18:07:53 GMT-0500 (Central Daylight Time)","Mozilla/5.0 (Macintosh; Intel Mac OS X 10.14; rv:80.0) Gecko/20100101 Firefox/80.0",81,"[0.9, 0.5, 0.1]","[0.8, 0.4, 0.2]","[u'blue', u'red', u'black']","[u'left', u'middle', u'right']","[0.8, 0.4, 0.2]","[u'low', u'high', u'medium']","blue",49,"left","low","False","False",825,3300,NA
"A2R75YFKVALBXE","Thu Sep 17 2020 17:59:12 GMT-0500 (Central Daylight Time)","Thu Sep 17 2020 18:07:53 GMT-0500 (Central Daylight Time)","Mozilla/5.0 (Macintosh; Intel Mac OS X 10.14; rv:80.0) Gecko/20100101 Firefox/80.0",82,"[0.9, 0.5, 0.1]","[0.8, 0.4, 0.2]","[u'blue', u'red', u'black']","[u'left', u'middle', u'right']","[0.8, 0.4, 0.2]","[u'low', u'high', u'medium']","black",51,"right","medium","True","False",632,3400,NA
"A2R75YFKVALBXE","Thu Sep 17 2020 17:59:12 GMT-0500 (Central Daylight Time)","Thu Sep 17 2020 18:07:53 GMT-0500 (Central Daylight Time)","Mozilla/5.0 (Macintosh; Intel Mac OS X 10.14; rv:80.0) Gecko/20100101 Firefox/80.0",83,"[0.9, 0.5, 0.1]","[0.8, 0.4, 0.2]","[u'blue', u'red', u'black']","[u'left', u'middle', u'right']","[0.8, 0.4, 0.2]","[u'low', u'high', u'medium']","black",51,"right","medium","True","False",663,3500,NA
"A2R75YFKVALBXE","Thu Sep 17 2020 17:59:12 GMT-0500 (Central Daylight Time)","Thu Sep 17 2020 18:07:53 GMT-0500 (Central Daylight Time)","Mozilla/5.0 (Macintosh; Intel Mac OS X 10.14; rv:80.0) Gecko/20100101 Firefox/80.0",84,"[0.9, 0.5, 0.1]","[0.8, 0.4, 0.2]","[u'blue', u'red', u'black']","[u'left', u'middle', u'right']","[0.8, 0.4, 0.2]","[u'low', u'high', u'medium']","black",51,"right","medium","True","False",526,3600,NA
"A2R75YFKVALBXE","Thu Sep 17 2020 17:59:12 GMT-0500 (Central Daylight Time)","Thu Sep 17 2020 18:07:53 GMT-0500 (Central Daylight Time)","Mozilla/5.0 (Macintosh; Intel Mac OS X 10.14; rv:80.0) Gecko/20100101 Firefox/80.0",85,"[0.9, 0.5, 0.1]","[0.8, 0.4, 0.2]","[u'blue', u'red', u'black']","[u'left', u'middle', u'right']","[0.8, 0.4, 0.2]","[u'low', u'high', u'medium']","black",51,"right","medium","False","False",530,3550,NA
"A2R75YFKVALBXE","Thu Sep 17 2020 17:59:12 GMT-0500 (Central Daylight Time)","Thu Sep 17 2020 18:07:53 GMT-0500 (Central Daylight Time)","Mozilla/5.0 (Macintosh; Intel Mac OS X 10.14; rv:80.0) Gecko/20100101 Firefox/80.0",86,"[0.9, 0.5, 0.1]","[0.8, 0.4, 0.2]","[u'blue', u'red', u'black']","[u'left', u'middle', u'right']","[0.8, 0.4, 0.2]","[u'low', u'high', u'medium']","black",51,"right","medium","False","False",543,3500,NA
"A2R75YFKVALBXE","Thu Sep 17 2020 17:59:12 GMT-0500 (Central Daylight Time)","Thu Sep 17 2020 18:07:53 GMT-0500 (Central Daylight Time)","Mozilla/5.0 (Macintosh; Intel Mac OS X 10.14; rv:80.0) Gecko/20100101 Firefox/80.0",87,"[0.9, 0.5, 0.1]","[0.8, 0.4, 0.2]","[u'blue', u'red', u'black']","[u'left', u'middle', u'right']","[0.8, 0.4, 0.2]","[u'low', u'high', u'medium']","red",50,"middle","high","False","False",574,3450,NA
"A2R75YFKVALBXE","Thu Sep 17 2020 17:59:12 GMT-0500 (Central Daylight Time)","Thu Sep 17 2020 18:07:53 GMT-0500 (Central Daylight Time)","Mozilla/5.0 (Macintosh; Intel Mac OS X 10.14; rv:80.0) Gecko/20100101 Firefox/80.0",88,"[0.9, 0.5, 0.1]","[0.8, 0.4, 0.2]","[u'blue', u'red', u'black']","[u'left', u'middle', u'right']","[0.8, 0.4, 0.2]","[u'low', u'high', u'medium']","blue",49,"left","low","False","False",659,3400,NA
"A2R75YFKVALBXE","Thu Sep 17 2020 17:59:12 GMT-0500 (Central Daylight Time)","Thu Sep 17 2020 18:07:53 GMT-0500 (Central Daylight Time)","Mozilla/5.0 (Macintosh; Intel Mac OS X 10.14; rv:80.0) Gecko/20100101 Firefox/80.0",89,"[0.9, 0.5, 0.1]","[0.8, 0.4, 0.2]","[u'blue', u'red', u'black']","[u'left', u'middle', u'right']","[0.8, 0.4, 0.2]","[u'low', u'high', u'medium']","red",50,"middle","high","True","False",618,3500,NA
"A2R75YFKVALBXE","Thu Sep 17 2020 17:59:12 GMT-0500 (Central Daylight Time)","Thu Sep 17 2020 18:07:53 GMT-0500 (Central Daylight Time)","Mozilla/5.0 (Macintosh; Intel Mac OS X 10.14; rv:80.0) Gecko/20100101 Firefox/80.0",90,"[0.9, 0.5, 0.1]","[0.8, 0.4, 0.2]","[u'blue', u'red', u'black']","[u'left', u'middle', u'right']","[0.8, 0.4, 0.2]","[u'low', u'high', u'medium']","red",50,"middle","high","True","False",581,3600,NA
"A2R75YFKVALBXE","Thu Sep 17 2020 17:59:12 GMT-0500 (Central Daylight Time)","Thu Sep 17 2020 18:07:53 GMT-0500 (Central Daylight Time)","Mozilla/5.0 (Macintosh; Intel Mac OS X 10.14; rv:80.0) Gecko/20100101 Firefox/80.0",91,"[0.9, 0.5, 0.1]","[0.8, 0.4, 0.2]","[u'blue', u'red', u'black']","[u'left', u'middle', u'right']","[0.8, 0.4, 0.2]","[u'low', u'high', u'medium']","red",50,"middle","high","True","False",568,3700,NA
"A2R75YFKVALBXE","Thu Sep 17 2020 17:59:12 GMT-0500 (Central Daylight Time)","Thu Sep 17 2020 18:07:53 GMT-0500 (Central Daylight Time)","Mozilla/5.0 (Macintosh; Intel Mac OS X 10.14; rv:80.0) Gecko/20100101 Firefox/80.0",92,"[0.9, 0.5, 0.1]","[0.8, 0.4, 0.2]","[u'blue', u'red', u'black']","[u'left', u'middle', u'right']","[0.8, 0.4, 0.2]","[u'low', u'high', u'medium']","red",50,"middle","high","True","False",591,3800,NA
"A2R75YFKVALBXE","Thu Sep 17 2020 17:59:12 GMT-0500 (Central Daylight Time)","Thu Sep 17 2020 18:07:53 GMT-0500 (Central Daylight Time)","Mozilla/5.0 (Macintosh; Intel Mac OS X 10.14; rv:80.0) Gecko/20100101 Firefox/80.0",93,"[0.9, 0.5, 0.1]","[0.8, 0.4, 0.2]","[u'blue', u'red', u'black']","[u'left', u'middle', u'right']","[0.8, 0.4, 0.2]","[u'low', u'high', u'medium']","red",50,"middle","high","True","False",626,3900,NA
"A2R75YFKVALBXE","Thu Sep 17 2020 17:59:12 GMT-0500 (Central Daylight Time)","Thu Sep 17 2020 18:07:53 GMT-0500 (Central Daylight Time)","Mozilla/5.0 (Macintosh; Intel Mac OS X 10.14; rv:80.0) Gecko/20100101 Firefox/80.0",94,"[0.9, 0.5, 0.1]","[0.8, 0.4, 0.2]","[u'blue', u'red', u'black']","[u'left', u'middle', u'right']","[0.8, 0.4, 0.2]","[u'low', u'high', u'medium']","red",50,"middle","high","False","False",574,3850,NA
"A2R75YFKVALBXE","Thu Sep 17 2020 17:59:12 GMT-0500 (Central Daylight Time)","Thu Sep 17 2020 18:07:53 GMT-0500 (Central Daylight Time)","Mozilla/5.0 (Macintosh; Intel Mac OS X 10.14; rv:80.0) Gecko/20100101 Firefox/80.0",95,"[0.9, 0.5, 0.1]","[0.8, 0.4, 0.2]","[u'blue', u'red', u'black']","[u'left', u'middle', u'right']","[0.8, 0.4, 0.2]","[u'low', u'high', u'medium']","red",50,"middle","high","True","False",546,3950,NA
"A2R75YFKVALBXE","Thu Sep 17 2020 17:59:12 GMT-0500 (Central Daylight Time)","Thu Sep 17 2020 18:07:53 GMT-0500 (Central Daylight Time)","Mozilla/5.0 (Macintosh; Intel Mac OS X 10.14; rv:80.0) Gecko/20100101 Firefox/80.0",96,"[0.9, 0.5, 0.1]","[0.8, 0.4, 0.2]","[u'blue', u'red', u'black']","[u'left', u'middle', u'right']","[0.8, 0.4, 0.2]","[u'low', u'high', u'medium']","red",50,"middle","high","True","True",627,4050,NA
"A2R75YFKVALBXE","Thu Sep 17 2020 17:59:12 GMT-0500 (Central Daylight Time)","Thu Sep 17 2020 18:07:53 GMT-0500 (Central Daylight Time)","Mozilla/5.0 (Macintosh; Intel Mac OS X 10.14; rv:80.0) Gecko/20100101 Firefox/80.0",97,"[0.9, 0.5, 0.1]","[0.8, 0.4, 0.2]","[u'blue', u'red', u'black']","[u'left', u'middle', u'right']","[0.8, 0.4, 0.2]","[u'high', u'medium', u'low']","red",50,"middle","medium","True","False",630,4150,NA
"A2R75YFKVALBXE","Thu Sep 17 2020 17:59:12 GMT-0500 (Central Daylight Time)","Thu Sep 17 2020 18:07:53 GMT-0500 (Central Daylight Time)","Mozilla/5.0 (Macintosh; Intel Mac OS X 10.14; rv:80.0) Gecko/20100101 Firefox/80.0",98,"[0.9, 0.5, 0.1]","[0.8, 0.4, 0.2]","[u'blue', u'red', u'black']","[u'left', u'middle', u'right']","[0.8, 0.4, 0.2]","[u'high', u'medium', u'low']","red",50,"middle","medium","False","False",585,4100,NA
"A2R75YFKVALBXE","Thu Sep 17 2020 17:59:12 GMT-0500 (Central Daylight Time)","Thu Sep 17 2020 18:07:53 GMT-0500 (Central Daylight Time)","Mozilla/5.0 (Macintosh; Intel Mac OS X 10.14; rv:80.0) Gecko/20100101 Firefox/80.0",99,"[0.9, 0.5, 0.1]","[0.8, 0.4, 0.2]","[u'blue', u'red', u'black']","[u'left', u'middle', u'right']","[0.8, 0.4, 0.2]","[u'high', u'medium', u'low']","red",50,"middle","medium","True","False",542,4200,NA
"A2R75YFKVALBXE","Thu Sep 17 2020 17:59:12 GMT-0500 (Central Daylight Time)","Thu Sep 17 2020 18:07:53 GMT-0500 (Central Daylight Time)","Mozilla/5.0 (Macintosh; Intel Mac OS X 10.14; rv:80.0) Gecko/20100101 Firefox/80.0",100,"[0.9, 0.5, 0.1]","[0.8, 0.4, 0.2]","[u'blue', u'red', u'black']","[u'left', u'middle', u'right']","[0.8, 0.4, 0.2]","[u'high', u'medium', u'low']","red",50,"middle","medium","True","False",550,4300,NA
"A2R75YFKVALBXE","Thu Sep 17 2020 17:59:12 GMT-0500 (Central Daylight Time)","Thu Sep 17 2020 18:07:53 GMT-0500 (Central Daylight Time)","Mozilla/5.0 (Macintosh; Intel Mac OS X 10.14; rv:80.0) Gecko/20100101 Firefox/80.0",101,"[0.9, 0.5, 0.1]","[0.8, 0.4, 0.2]","[u'blue', u'red', u'black']","[u'left', u'middle', u'right']","[0.8, 0.4, 0.2]","[u'high', u'medium', u'low']","red",50,"middle","medium","False","False",511,4250,NA
"A2R75YFKVALBXE","Thu Sep 17 2020 17:59:12 GMT-0500 (Central Daylight Time)","Thu Sep 17 2020 18:07:53 GMT-0500 (Central Daylight Time)","Mozilla/5.0 (Macintosh; Intel Mac OS X 10.14; rv:80.0) Gecko/20100101 Firefox/80.0",102,"[0.9, 0.5, 0.1]","[0.8, 0.4, 0.2]","[u'blue', u'red', u'black']","[u'left', u'middle', u'right']","[0.8, 0.4, 0.2]","[u'high', u'medium', u'low']","red",50,"middle","medium","False","False",426,4200,NA
"A2R75YFKVALBXE","Thu Sep 17 2020 17:59:12 GMT-0500 (Central Daylight Time)","Thu Sep 17 2020 18:07:53 GMT-0500 (Central Daylight Time)","Mozilla/5.0 (Macintosh; Intel Mac OS X 10.14; rv:80.0) Gecko/20100101 Firefox/80.0",103,"[0.9, 0.5, 0.1]","[0.8, 0.4, 0.2]","[u'blue', u'red', u'black']","[u'left', u'middle', u'right']","[0.8, 0.4, 0.2]","[u'high', u'medium', u'low']","red",50,"middle","medium","False","False",684,4150,NA
"A2R75YFKVALBXE","Thu Sep 17 2020 17:59:12 GMT-0500 (Central Daylight Time)","Thu Sep 17 2020 18:07:53 GMT-0500 (Central Daylight Time)","Mozilla/5.0 (Macintosh; Intel Mac OS X 10.14; rv:80.0) Gecko/20100101 Firefox/80.0",104,"[0.9, 0.5, 0.1]","[0.8, 0.4, 0.2]","[u'blue', u'red', u'black']","[u'left', u'middle', u'right']","[0.8, 0.4, 0.2]","[u'high', u'medium', u'low']","black",51,"right","low","False","False",607,4100,NA
"A2R75YFKVALBXE","Thu Sep 17 2020 17:59:12 GMT-0500 (Central Daylight Time)","Thu Sep 17 2020 18:07:53 GMT-0500 (Central Daylight Time)","Mozilla/5.0 (Macintosh; Intel Mac OS X 10.14; rv:80.0) Gecko/20100101 Firefox/80.0",105,"[0.9, 0.5, 0.1]","[0.8, 0.4, 0.2]","[u'blue', u'red', u'black']","[u'left', u'middle', u'right']","[0.8, 0.4, 0.2]","[u'high', u'medium', u'low']","blue",49,"left","high","True","False",457,4200,NA
"A2R75YFKVALBXE","Thu Sep 17 2020 17:59:12 GMT-0500 (Central Daylight Time)","Thu Sep 17 2020 18:07:53 GMT-0500 (Central Daylight Time)","Mozilla/5.0 (Macintosh; Intel Mac OS X 10.14; rv:80.0) Gecko/20100101 Firefox/80.0",106,"[0.9, 0.5, 0.1]","[0.8, 0.4, 0.2]","[u'blue', u'red', u'black']","[u'left', u'middle', u'right']","[0.8, 0.4, 0.2]","[u'high', u'medium', u'low']","blue",49,"left","high","True","False",543,4300,NA
"A2R75YFKVALBXE","Thu Sep 17 2020 17:59:12 GMT-0500 (Central Daylight Time)","Thu Sep 17 2020 18:07:53 GMT-0500 (Central Daylight Time)","Mozilla/5.0 (Macintosh; Intel Mac OS X 10.14; rv:80.0) Gecko/20100101 Firefox/80.0",107,"[0.9, 0.5, 0.1]","[0.8, 0.4, 0.2]","[u'blue', u'red', u'black']","[u'left', u'middle', u'right']","[0.8, 0.4, 0.2]","[u'high', u'medium', u'low']","blue",49,"left","high","True","False",642,4400,NA
"A2R75YFKVALBXE","Thu Sep 17 2020 17:59:12 GMT-0500 (Central Daylight Time)","Thu Sep 17 2020 18:07:53 GMT-0500 (Central Daylight Time)","Mozilla/5.0 (Macintosh; Intel Mac OS X 10.14; rv:80.0) Gecko/20100101 Firefox/80.0",108,"[0.9, 0.5, 0.1]","[0.8, 0.4, 0.2]","[u'blue', u'red', u'black']","[u'left', u'middle', u'right']","[0.8, 0.4, 0.2]","[u'high', u'medium', u'low']","blue",49,"left","high","True","False",551,4500,NA
"A2R75YFKVALBXE","Thu Sep 17 2020 17:59:12 GMT-0500 (Central Daylight Time)","Thu Sep 17 2020 18:07:53 GMT-0500 (Central Daylight Time)","Mozilla/5.0 (Macintosh; Intel Mac OS X 10.14; rv:80.0) Gecko/20100101 Firefox/80.0",109,"[0.9, 0.5, 0.1]","[0.8, 0.4, 0.2]","[u'blue', u'red', u'black']","[u'left', u'middle', u'right']","[0.8, 0.4, 0.2]","[u'high', u'medium', u'low']","blue",49,"left","high","False","False",553,4450,NA
"A2R75YFKVALBXE","Thu Sep 17 2020 17:59:12 GMT-0500 (Central Daylight Time)","Thu Sep 17 2020 18:07:53 GMT-0500 (Central Daylight Time)","Mozilla/5.0 (Macintosh; Intel Mac OS X 10.14; rv:80.0) Gecko/20100101 Firefox/80.0",110,"[0.9, 0.5, 0.1]","[0.8, 0.4, 0.2]","[u'blue', u'red', u'black']","[u'left', u'middle', u'right']","[0.8, 0.4, 0.2]","[u'high', u'medium', u'low']","blue",49,"left","high","True","False",576,4550,NA
"A2R75YFKVALBXE","Thu Sep 17 2020 17:59:12 GMT-0500 (Central Daylight Time)","Thu Sep 17 2020 18:07:53 GMT-0500 (Central Daylight Time)","Mozilla/5.0 (Macintosh; Intel Mac OS X 10.14; rv:80.0) Gecko/20100101 Firefox/80.0",111,"[0.9, 0.5, 0.1]","[0.8, 0.4, 0.2]","[u'blue', u'red', u'black']","[u'left', u'middle', u'right']","[0.8, 0.4, 0.2]","[u'high', u'medium', u'low']","blue",49,"left","high","False","False",494,4500,NA
"A2R75YFKVALBXE","Thu Sep 17 2020 17:59:12 GMT-0500 (Central Daylight Time)","Thu Sep 17 2020 18:07:53 GMT-0500 (Central Daylight Time)","Mozilla/5.0 (Macintosh; Intel Mac OS X 10.14; rv:80.0) Gecko/20100101 Firefox/80.0",112,"[0.9, 0.5, 0.1]","[0.8, 0.4, 0.2]","[u'blue', u'red', u'black']","[u'left', u'middle', u'right']","[0.8, 0.4, 0.2]","[u'high', u'medium', u'low']","blue",49,"left","high","True","False",599,4600,NA
"A2R75YFKVALBXE","Thu Sep 17 2020 17:59:12 GMT-0500 (Central Daylight Time)","Thu Sep 17 2020 18:07:53 GMT-0500 (Central Daylight Time)","Mozilla/5.0 (Macintosh; Intel Mac OS X 10.14; rv:80.0) Gecko/20100101 Firefox/80.0",113,"[0.9, 0.5, 0.1]","[0.8, 0.4, 0.2]","[u'blue', u'red', u'black']","[u'left', u'middle', u'right']","[0.8, 0.4, 0.2]","[u'high', u'medium', u'low']","blue",49,"left","high","False","True",658,4550,NA
"A2R75YFKVALBXE","Thu Sep 17 2020 17:59:12 GMT-0500 (Central Daylight Time)","Thu Sep 17 2020 18:07:53 GMT-0500 (Central Daylight Time)","Mozilla/5.0 (Macintosh; Intel Mac OS X 10.14; rv:80.0) Gecko/20100101 Firefox/80.0",114,"[0.9, 0.5, 0.1]","[0.8, 0.4, 0.2]","[u'blue', u'red', u'black']","[u'left', u'middle', u'right']","[0.8, 0.4, 0.2]","[u'medium', u'high', u'low']","blue",49,"left","medium","False","False",578,4500,NA
"A2R75YFKVALBXE","Thu Sep 17 2020 17:59:12 GMT-0500 (Central Daylight Time)","Thu Sep 17 2020 18:07:53 GMT-0500 (Central Daylight Time)","Mozilla/5.0 (Macintosh; Intel Mac OS X 10.14; rv:80.0) Gecko/20100101 Firefox/80.0",115,"[0.9, 0.5, 0.1]","[0.8, 0.4, 0.2]","[u'blue', u'red', u'black']","[u'left', u'middle', u'right']","[0.8, 0.4, 0.2]","[u'medium', u'high', u'low']","black",51,"right","low","False","False",599,4450,NA
"A2R75YFKVALBXE","Thu Sep 17 2020 17:59:12 GMT-0500 (Central Daylight Time)","Thu Sep 17 2020 18:07:53 GMT-0500 (Central Daylight Time)","Mozilla/5.0 (Macintosh; Intel Mac OS X 10.14; rv:80.0) Gecko/20100101 Firefox/80.0",116,"[0.9, 0.5, 0.1]","[0.8, 0.4, 0.2]","[u'blue', u'red', u'black']","[u'left', u'middle', u'right']","[0.8, 0.4, 0.2]","[u'medium', u'high', u'low']","black",51,"right","low","False","False",538,4400,NA
"A2R75YFKVALBXE","Thu Sep 17 2020 17:59:12 GMT-0500 (Central Daylight Time)","Thu Sep 17 2020 18:07:53 GMT-0500 (Central Daylight Time)","Mozilla/5.0 (Macintosh; Intel Mac OS X 10.14; rv:80.0) Gecko/20100101 Firefox/80.0",117,"[0.9, 0.5, 0.1]","[0.8, 0.4, 0.2]","[u'blue', u'red', u'black']","[u'left', u'middle', u'right']","[0.8, 0.4, 0.2]","[u'medium', u'high', u'low']","red",50,"middle","high","True","False",550,4500,NA
"A2R75YFKVALBXE","Thu Sep 17 2020 17:59:12 GMT-0500 (Central Daylight Time)","Thu Sep 17 2020 18:07:53 GMT-0500 (Central Daylight Time)","Mozilla/5.0 (Macintosh; Intel Mac OS X 10.14; rv:80.0) Gecko/20100101 Firefox/80.0",118,"[0.9, 0.5, 0.1]","[0.8, 0.4, 0.2]","[u'blue', u'red', u'black']","[u'left', u'middle', u'right']","[0.8, 0.4, 0.2]","[u'medium', u'high', u'low']","red",50,"middle","high","True","False",535,4600,NA
"A2R75YFKVALBXE","Thu Sep 17 2020 17:59:12 GMT-0500 (Central Daylight Time)","Thu Sep 17 2020 18:07:53 GMT-0500 (Central Daylight Time)","Mozilla/5.0 (Macintosh; Intel Mac OS X 10.14; rv:80.0) Gecko/20100101 Firefox/80.0",119,"[0.9, 0.5, 0.1]","[0.8, 0.4, 0.2]","[u'blue', u'red', u'black']","[u'left', u'middle', u'right']","[0.8, 0.4, 0.2]","[u'medium', u'high', u'low']","red",50,"middle","high","False","False",564,4550,NA
"A2R75YFKVALBXE","Thu Sep 17 2020 17:59:12 GMT-0500 (Central Daylight Time)","Thu Sep 17 2020 18:07:53 GMT-0500 (Central Daylight Time)","Mozilla/5.0 (Macintosh; Intel Mac OS X 10.14; rv:80.0) Gecko/20100101 Firefox/80.0",120,"[0.9, 0.5, 0.1]","[0.8, 0.4, 0.2]","[u'blue', u'red', u'black']","[u'left', u'middle', u'right']","[0.8, 0.4, 0.2]","[u'medium', u'high', u'low']","red",50,"middle","high","True","False",586,4650,NA
"A2R75YFKVALBXE","Thu Sep 17 2020 17:59:12 GMT-0500 (Central Daylight Time)","Thu Sep 17 2020 18:07:53 GMT-0500 (Central Daylight Time)","Mozilla/5.0 (Macintosh; Intel Mac OS X 10.14; rv:80.0) Gecko/20100101 Firefox/80.0",121,"[0.9, 0.5, 0.1]","[0.8, 0.4, 0.2]","[u'blue', u'red', u'black']","[u'left', u'middle', u'right']","[0.8, 0.4, 0.2]","[u'high', u'low', u'medium']","blue",49,"left","high","False","False",743,4600,NA
"A2R75YFKVALBXE","Thu Sep 17 2020 17:59:12 GMT-0500 (Central Daylight Time)","Thu Sep 17 2020 18:07:53 GMT-0500 (Central Daylight Time)","Mozilla/5.0 (Macintosh; Intel Mac OS X 10.14; rv:80.0) Gecko/20100101 Firefox/80.0",122,"[0.9, 0.5, 0.1]","[0.8, 0.4, 0.2]","[u'blue', u'red', u'black']","[u'left', u'middle', u'right']","[0.8, 0.4, 0.2]","[u'high', u'low', u'medium']","red",50,"middle","low","False","False",479,4550,NA
"A2R75YFKVALBXE","Thu Sep 17 2020 17:59:12 GMT-0500 (Central Daylight Time)","Thu Sep 17 2020 18:07:53 GMT-0500 (Central Daylight Time)","Mozilla/5.0 (Macintosh; Intel Mac OS X 10.14; rv:80.0) Gecko/20100101 Firefox/80.0",123,"[0.9, 0.5, 0.1]","[0.8, 0.4, 0.2]","[u'blue', u'red', u'black']","[u'left', u'middle', u'right']","[0.8, 0.4, 0.2]","[u'high', u'low', u'medium']","blue",49,"left","high","True","False",534,4650,NA
"A2R75YFKVALBXE","Thu Sep 17 2020 17:59:12 GMT-0500 (Central Daylight Time)","Thu Sep 17 2020 18:07:53 GMT-0500 (Central Daylight Time)","Mozilla/5.0 (Macintosh; Intel Mac OS X 10.14; rv:80.0) Gecko/20100101 Firefox/80.0",124,"[0.9, 0.5, 0.1]","[0.8, 0.4, 0.2]","[u'blue', u'red', u'black']","[u'left', u'middle', u'right']","[0.8, 0.4, 0.2]","[u'high', u'low', u'medium']","blue",49,"left","high","True","False",637,4750,NA
"A2R75YFKVALBXE","Thu Sep 17 2020 17:59:12 GMT-0500 (Central Daylight Time)","Thu Sep 17 2020 18:07:53 GMT-0500 (Central Daylight Time)","Mozilla/5.0 (Macintosh; Intel Mac OS X 10.14; rv:80.0) Gecko/20100101 Firefox/80.0",125,"[0.9, 0.5, 0.1]","[0.8, 0.4, 0.2]","[u'blue', u'red', u'black']","[u'left', u'middle', u'right']","[0.8, 0.4, 0.2]","[u'high', u'low', u'medium']","blue",49,"left","high","False","False",668,4700,NA
"A2R75YFKVALBXE","Thu Sep 17 2020 17:59:12 GMT-0500 (Central Daylight Time)","Thu Sep 17 2020 18:07:53 GMT-0500 (Central Daylight Time)","Mozilla/5.0 (Macintosh; Intel Mac OS X 10.14; rv:80.0) Gecko/20100101 Firefox/80.0",126,"[0.9, 0.5, 0.1]","[0.8, 0.4, 0.2]","[u'blue', u'red', u'black']","[u'left', u'middle', u'right']","[0.8, 0.4, 0.2]","[u'high', u'low', u'medium']","blue",49,"left","high","True","False",481,4800,NA
"A2R75YFKVALBXE","Thu Sep 17 2020 17:59:12 GMT-0500 (Central Daylight Time)","Thu Sep 17 2020 18:07:53 GMT-0500 (Central Daylight Time)","Mozilla/5.0 (Macintosh; Intel Mac OS X 10.14; rv:80.0) Gecko/20100101 Firefox/80.0",127,"[0.9, 0.5, 0.1]","[0.8, 0.4, 0.2]","[u'blue', u'red', u'black']","[u'left', u'middle', u'right']","[0.8, 0.4, 0.2]","[u'high', u'low', u'medium']","blue",49,"left","high","True","False",659,4900,NA
"A2R75YFKVALBXE","Thu Sep 17 2020 17:59:12 GMT-0500 (Central Daylight Time)","Thu Sep 17 2020 18:07:53 GMT-0500 (Central Daylight Time)","Mozilla/5.0 (Macintosh; Intel Mac OS X 10.14; rv:80.0) Gecko/20100101 Firefox/80.0",128,"[0.9, 0.5, 0.1]","[0.8, 0.4, 0.2]","[u'blue', u'red', u'black']","[u'left', u'middle', u'right']","[0.8, 0.4, 0.2]","[u'high', u'low', u'medium']","blue",49,"left","high","True","False",639,5000,NA
"A2R75YFKVALBXE","Thu Sep 17 2020 17:59:12 GMT-0500 (Central Daylight Time)","Thu Sep 17 2020 18:07:53 GMT-0500 (Central Daylight Time)","Mozilla/5.0 (Macintosh; Intel Mac OS X 10.14; rv:80.0) Gecko/20100101 Firefox/80.0",129,"[0.9, 0.5, 0.1]","[0.8, 0.4, 0.2]","[u'blue', u'red', u'black']","[u'left', u'middle', u'right']","[0.8, 0.4, 0.2]","[u'high', u'low', u'medium']","blue",49,"left","high","True","False",661,5100,NA
"A2R75YFKVALBXE","Thu Sep 17 2020 17:59:12 GMT-0500 (Central Daylight Time)","Thu Sep 17 2020 18:07:53 GMT-0500 (Central Daylight Time)","Mozilla/5.0 (Macintosh; Intel Mac OS X 10.14; rv:80.0) Gecko/20100101 Firefox/80.0",130,"[0.9, 0.5, 0.1]","[0.8, 0.4, 0.2]","[u'blue', u'red', u'black']","[u'left', u'middle', u'right']","[0.8, 0.4, 0.2]","[u'high', u'low', u'medium']","blue",49,"left","high","True","True",583,5200,NA
"A2R75YFKVALBXE","Thu Sep 17 2020 17:59:12 GMT-0500 (Central Daylight Time)","Thu Sep 17 2020 18:07:53 GMT-0500 (Central Daylight Time)","Mozilla/5.0 (Macintosh; Intel Mac OS X 10.14; rv:80.0) Gecko/20100101 Firefox/80.0",131,"[0.9, 0.5, 0.1]","[0.8, 0.4, 0.2]","[u'blue', u'red', u'black']","[u'left', u'middle', u'right']","[0.8, 0.4, 0.2]","[u'low', u'high', u'medium']","blue",49,"left","low","False","False",560,5150,NA
"A2R75YFKVALBXE","Thu Sep 17 2020 17:59:12 GMT-0500 (Central Daylight Time)","Thu Sep 17 2020 18:07:53 GMT-0500 (Central Daylight Time)","Mozilla/5.0 (Macintosh; Intel Mac OS X 10.14; rv:80.0) Gecko/20100101 Firefox/80.0",132,"[0.9, 0.5, 0.1]","[0.8, 0.4, 0.2]","[u'blue', u'red', u'black']","[u'left', u'middle', u'right']","[0.8, 0.4, 0.2]","[u'low', u'high', u'medium']","blue",49,"left","low","False","False",580,5100,NA
"A2R75YFKVALBXE","Thu Sep 17 2020 17:59:12 GMT-0500 (Central Daylight Time)","Thu Sep 17 2020 18:07:53 GMT-0500 (Central Daylight Time)","Mozilla/5.0 (Macintosh; Intel Mac OS X 10.14; rv:80.0) Gecko/20100101 Firefox/80.0",133,"[0.9, 0.5, 0.1]","[0.8, 0.4, 0.2]","[u'blue', u'red', u'black']","[u'left', u'middle', u'right']","[0.8, 0.4, 0.2]","[u'low', u'high', u'medium']","blue",49,"left","low","False","False",559,5050,NA
"A2R75YFKVALBXE","Thu Sep 17 2020 17:59:12 GMT-0500 (Central Daylight Time)","Thu Sep 17 2020 18:07:53 GMT-0500 (Central Daylight Time)","Mozilla/5.0 (Macintosh; Intel Mac OS X 10.14; rv:80.0) Gecko/20100101 Firefox/80.0",134,"[0.9, 0.5, 0.1]","[0.8, 0.4, 0.2]","[u'blue', u'red', u'black']","[u'left', u'middle', u'right']","[0.8, 0.4, 0.2]","[u'low', u'high', u'medium']","red",50,"middle","high","True","False",611,5150,NA
"A2R75YFKVALBXE","Thu Sep 17 2020 17:59:12 GMT-0500 (Central Daylight Time)","Thu Sep 17 2020 18:07:53 GMT-0500 (Central Daylight Time)","Mozilla/5.0 (Macintosh; Intel Mac OS X 10.14; rv:80.0) Gecko/20100101 Firefox/80.0",135,"[0.9, 0.5, 0.1]","[0.8, 0.4, 0.2]","[u'blue', u'red', u'black']","[u'left', u'middle', u'right']","[0.8, 0.4, 0.2]","[u'low', u'high', u'medium']","red",50,"middle","high","True","False",563,5250,NA
"A2R75YFKVALBXE","Thu Sep 17 2020 17:59:12 GMT-0500 (Central Daylight Time)","Thu Sep 17 2020 18:07:53 GMT-0500 (Central Daylight Time)","Mozilla/5.0 (Macintosh; Intel Mac OS X 10.14; rv:80.0) Gecko/20100101 Firefox/80.0",136,"[0.9, 0.5, 0.1]","[0.8, 0.4, 0.2]","[u'blue', u'red', u'black']","[u'left', u'middle', u'right']","[0.8, 0.4, 0.2]","[u'low', u'high', u'medium']","red",50,"middle","high","True","False",583,5350,NA
"A2R75YFKVALBXE","Thu Sep 17 2020 17:59:12 GMT-0500 (Central Daylight Time)","Thu Sep 17 2020 18:07:53 GMT-0500 (Central Daylight Time)","Mozilla/5.0 (Macintosh; Intel Mac OS X 10.14; rv:80.0) Gecko/20100101 Firefox/80.0",137,"[0.9, 0.5, 0.1]","[0.8, 0.4, 0.2]","[u'blue', u'red', u'black']","[u'left', u'middle', u'right']","[0.8, 0.4, 0.2]","[u'low', u'high', u'medium']","red",50,"middle","high","True","False",566,5450,NA
"A2R75YFKVALBXE","Thu Sep 17 2020 17:59:12 GMT-0500 (Central Daylight Time)","Thu Sep 17 2020 18:07:53 GMT-0500 (Central Daylight Time)","Mozilla/5.0 (Macintosh; Intel Mac OS X 10.14; rv:80.0) Gecko/20100101 Firefox/80.0",138,"[0.9, 0.5, 0.1]","[0.8, 0.4, 0.2]","[u'blue', u'red', u'black']","[u'left', u'middle', u'right']","[0.8, 0.4, 0.2]","[u'low', u'high', u'medium']","red",50,"middle","high","True","False",577,5550,NA
"A2R75YFKVALBXE","Thu Sep 17 2020 17:59:12 GMT-0500 (Central Daylight Time)","Thu Sep 17 2020 18:07:53 GMT-0500 (Central Daylight Time)","Mozilla/5.0 (Macintosh; Intel Mac OS X 10.14; rv:80.0) Gecko/20100101 Firefox/80.0",139,"[0.9, 0.5, 0.1]","[0.8, 0.4, 0.2]","[u'blue', u'red', u'black']","[u'left', u'middle', u'right']","[0.8, 0.4, 0.2]","[u'low', u'high', u'medium']","red",50,"middle","high","True","False",576,5650,NA
"A2R75YFKVALBXE","Thu Sep 17 2020 17:59:12 GMT-0500 (Central Daylight Time)","Thu Sep 17 2020 18:07:53 GMT-0500 (Central Daylight Time)","Mozilla/5.0 (Macintosh; Intel Mac OS X 10.14; rv:80.0) Gecko/20100101 Firefox/80.0",140,"[0.9, 0.5, 0.1]","[0.8, 0.4, 0.2]","[u'blue', u'red', u'black']","[u'left', u'middle', u'right']","[0.8, 0.4, 0.2]","[u'low', u'high', u'medium']","red",50,"middle","high","True","False",686,5750,NA
"A2R75YFKVALBXE","Thu Sep 17 2020 17:59:12 GMT-0500 (Central Daylight Time)","Thu Sep 17 2020 18:07:53 GMT-0500 (Central Daylight Time)","Mozilla/5.0 (Macintosh; Intel Mac OS X 10.14; rv:80.0) Gecko/20100101 Firefox/80.0",141,"[0.9, 0.5, 0.1]","[0.8, 0.4, 0.2]","[u'blue', u'red', u'black']","[u'left', u'middle', u'right']","[0.8, 0.4, 0.2]","[u'low', u'high', u'medium']","red",50,"middle","high","True","False",584,5850,NA
"A2R75YFKVALBXE","Thu Sep 17 2020 17:59:12 GMT-0500 (Central Daylight Time)","Thu Sep 17 2020 18:07:53 GMT-0500 (Central Daylight Time)","Mozilla/5.0 (Macintosh; Intel Mac OS X 10.14; rv:80.0) Gecko/20100101 Firefox/80.0",142,"[0.9, 0.5, 0.1]","[0.8, 0.4, 0.2]","[u'blue', u'red', u'black']","[u'left', u'middle', u'right']","[0.8, 0.4, 0.2]","[u'low', u'high', u'medium']","red",50,"middle","high","True","True",615,5950,NA
"A2R75YFKVALBXE","Thu Sep 17 2020 17:59:12 GMT-0500 (Central Daylight Time)","Thu Sep 17 2020 18:07:53 GMT-0500 (Central Daylight Time)","Mozilla/5.0 (Macintosh; Intel Mac OS X 10.14; rv:80.0) Gecko/20100101 Firefox/80.0",143,"[0.9, 0.5, 0.1]","[0.8, 0.4, 0.2]","[u'blue', u'red', u'black']","[u'left', u'middle', u'right']","[0.8, 0.4, 0.2]","[u'medium', u'low', u'high']","red",50,"middle","low","False","False",519,5900,NA
"A2R75YFKVALBXE","Thu Sep 17 2020 17:59:12 GMT-0500 (Central Daylight Time)","Thu Sep 17 2020 18:07:53 GMT-0500 (Central Daylight Time)","Mozilla/5.0 (Macintosh; Intel Mac OS X 10.14; rv:80.0) Gecko/20100101 Firefox/80.0",144,"[0.9, 0.5, 0.1]","[0.8, 0.4, 0.2]","[u'blue', u'red', u'black']","[u'left', u'middle', u'right']","[0.8, 0.4, 0.2]","[u'medium', u'low', u'high']","red",50,"middle","low","False","False",630,5850,NA
"A2R75YFKVALBXE","Thu Sep 17 2020 17:59:12 GMT-0500 (Central Daylight Time)","Thu Sep 17 2020 18:07:53 GMT-0500 (Central Daylight Time)","Mozilla/5.0 (Macintosh; Intel Mac OS X 10.14; rv:80.0) Gecko/20100101 Firefox/80.0",145,"[0.9, 0.5, 0.1]","[0.8, 0.4, 0.2]","[u'blue', u'red', u'black']","[u'left', u'middle', u'right']","[0.8, 0.4, 0.2]","[u'medium', u'low', u'high']","black",51,"right","high","True","False",581,5950,NA
"A2R75YFKVALBXE","Thu Sep 17 2020 17:59:12 GMT-0500 (Central Daylight Time)","Thu Sep 17 2020 18:07:53 GMT-0500 (Central Daylight Time)","Mozilla/5.0 (Macintosh; Intel Mac OS X 10.14; rv:80.0) Gecko/20100101 Firefox/80.0",146,"[0.9, 0.5, 0.1]","[0.8, 0.4, 0.2]","[u'blue', u'red', u'black']","[u'left', u'middle', u'right']","[0.8, 0.4, 0.2]","[u'medium', u'low', u'high']","black",51,"right","high","True","False",607,6050,NA
"A2R75YFKVALBXE","Thu Sep 17 2020 17:59:12 GMT-0500 (Central Daylight Time)","Thu Sep 17 2020 18:07:53 GMT-0500 (Central Daylight Time)","Mozilla/5.0 (Macintosh; Intel Mac OS X 10.14; rv:80.0) Gecko/20100101 Firefox/80.0",147,"[0.9, 0.5, 0.1]","[0.8, 0.4, 0.2]","[u'blue', u'red', u'black']","[u'left', u'middle', u'right']","[0.8, 0.4, 0.2]","[u'medium', u'low', u'high']","black",51,"right","high","False","False",506,6000,NA
"A2R75YFKVALBXE","Thu Sep 17 2020 17:59:12 GMT-0500 (Central Daylight Time)","Thu Sep 17 2020 18:07:53 GMT-0500 (Central Daylight Time)","Mozilla/5.0 (Macintosh; Intel Mac OS X 10.14; rv:80.0) Gecko/20100101 Firefox/80.0",148,"[0.9, 0.5, 0.1]","[0.8, 0.4, 0.2]","[u'blue', u'red', u'black']","[u'left', u'middle', u'right']","[0.8, 0.4, 0.2]","[u'medium', u'low', u'high']","black",51,"right","high","True","False",550,6100,NA
"A2R75YFKVALBXE","Thu Sep 17 2020 17:59:12 GMT-0500 (Central Daylight Time)","Thu Sep 17 2020 18:07:53 GMT-0500 (Central Daylight Time)","Mozilla/5.0 (Macintosh; Intel Mac OS X 10.14; rv:80.0) Gecko/20100101 Firefox/80.0",149,"[0.9, 0.5, 0.1]","[0.8, 0.4, 0.2]","[u'blue', u'red', u'black']","[u'left', u'middle', u'right']","[0.8, 0.4, 0.2]","[u'medium', u'low', u'high']","black",51,"right","high","True","False",623,6200,NA
"A2R75YFKVALBXE","Thu Sep 17 2020 17:59:12 GMT-0500 (Central Daylight Time)","Thu Sep 17 2020 18:07:53 GMT-0500 (Central Daylight Time)","Mozilla/5.0 (Macintosh; Intel Mac OS X 10.14; rv:80.0) Gecko/20100101 Firefox/80.0",150,"[0.9, 0.5, 0.1]","[0.8, 0.4, 0.2]","[u'blue', u'red', u'black']","[u'left', u'middle', u'right']","[0.8, 0.4, 0.2]","[u'medium', u'low', u'high']","black",51,"right","high","False","False",687,6150,NA
"A2R75YFKVALBXE","Thu Sep 17 2020 17:59:12 GMT-0500 (Central Daylight Time)","Thu Sep 17 2020 18:07:53 GMT-0500 (Central Daylight Time)","Mozilla/5.0 (Macintosh; Intel Mac OS X 10.14; rv:80.0) Gecko/20100101 Firefox/80.0",151,"[0.9, 0.5, 0.1]","[0.8, 0.4, 0.2]","[u'blue', u'red', u'black']","[u'left', u'middle', u'right']","[0.8, 0.4, 0.2]","[u'medium', u'low', u'high']","black",51,"right","high","True","False",633,6250,NA
"A2R75YFKVALBXE","Thu Sep 17 2020 17:59:12 GMT-0500 (Central Daylight Time)","Thu Sep 17 2020 18:07:53 GMT-0500 (Central Daylight Time)","Mozilla/5.0 (Macintosh; Intel Mac OS X 10.14; rv:80.0) Gecko/20100101 Firefox/80.0",152,"[0.9, 0.5, 0.1]","[0.8, 0.4, 0.2]","[u'blue', u'red', u'black']","[u'left', u'middle', u'right']","[0.8, 0.4, 0.2]","[u'medium', u'low', u'high']","black",51,"right","high","True","False",545,6350,NA
"A2R75YFKVALBXE","Thu Sep 17 2020 17:59:12 GMT-0500 (Central Daylight Time)","Thu Sep 17 2020 18:07:53 GMT-0500 (Central Daylight Time)","Mozilla/5.0 (Macintosh; Intel Mac OS X 10.14; rv:80.0) Gecko/20100101 Firefox/80.0",153,"[0.9, 0.5, 0.1]","[0.8, 0.4, 0.2]","[u'blue', u'red', u'black']","[u'left', u'middle', u'right']","[0.8, 0.4, 0.2]","[u'medium', u'low', u'high']","black",51,"right","high","True","True",602,6450,NA
"A2R75YFKVALBXE","Thu Sep 17 2020 17:59:12 GMT-0500 (Central Daylight Time)","Thu Sep 17 2020 18:07:53 GMT-0500 (Central Daylight Time)","Mozilla/5.0 (Macintosh; Intel Mac OS X 10.14; rv:80.0) Gecko/20100101 Firefox/80.0",154,"[0.9, 0.5, 0.1]","[0.8, 0.4, 0.2]","[u'blue', u'red', u'black']","[u'left', u'middle', u'right']","[0.8, 0.4, 0.2]","[u'high', u'low', u'medium']","black",51,"right","medium","False","False",662,6400,NA
"A2R75YFKVALBXE","Thu Sep 17 2020 17:59:12 GMT-0500 (Central Daylight Time)","Thu Sep 17 2020 18:07:53 GMT-0500 (Central Daylight Time)","Mozilla/5.0 (Macintosh; Intel Mac OS X 10.14; rv:80.0) Gecko/20100101 Firefox/80.0",155,"[0.9, 0.5, 0.1]","[0.8, 0.4, 0.2]","[u'blue', u'red', u'black']","[u'left', u'middle', u'right']","[0.8, 0.4, 0.2]","[u'high', u'low', u'medium']","black",51,"right","medium","False","False",659,6350,NA
"A2R75YFKVALBXE","Thu Sep 17 2020 17:59:12 GMT-0500 (Central Daylight Time)","Thu Sep 17 2020 18:07:53 GMT-0500 (Central Daylight Time)","Mozilla/5.0 (Macintosh; Intel Mac OS X 10.14; rv:80.0) Gecko/20100101 Firefox/80.0",156,"[0.9, 0.5, 0.1]","[0.8, 0.4, 0.2]","[u'blue', u'red', u'black']","[u'left', u'middle', u'right']","[0.8, 0.4, 0.2]","[u'high', u'low', u'medium']","blue",49,"left","high","True","False",673,6450,NA
"A2R75YFKVALBXE","Thu Sep 17 2020 17:59:12 GMT-0500 (Central Daylight Time)","Thu Sep 17 2020 18:07:53 GMT-0500 (Central Daylight Time)","Mozilla/5.0 (Macintosh; Intel Mac OS X 10.14; rv:80.0) Gecko/20100101 Firefox/80.0",157,"[0.9, 0.5, 0.1]","[0.8, 0.4, 0.2]","[u'blue', u'red', u'black']","[u'left', u'middle', u'right']","[0.8, 0.4, 0.2]","[u'high', u'low', u'medium']","blue",49,"left","high","True","False",607,6550,NA
"A2R75YFKVALBXE","Thu Sep 17 2020 17:59:12 GMT-0500 (Central Daylight Time)","Thu Sep 17 2020 18:07:53 GMT-0500 (Central Daylight Time)","Mozilla/5.0 (Macintosh; Intel Mac OS X 10.14; rv:80.0) Gecko/20100101 Firefox/80.0",158,"[0.9, 0.5, 0.1]","[0.8, 0.4, 0.2]","[u'blue', u'red', u'black']","[u'left', u'middle', u'right']","[0.8, 0.4, 0.2]","[u'high', u'low', u'medium']","blue",49,"left","high","True","False",566,6650,NA
"A2R75YFKVALBXE","Thu Sep 17 2020 17:59:12 GMT-0500 (Central Daylight Time)","Thu Sep 17 2020 18:07:53 GMT-0500 (Central Daylight Time)","Mozilla/5.0 (Macintosh; Intel Mac OS X 10.14; rv:80.0) Gecko/20100101 Firefox/80.0",159,"[0.9, 0.5, 0.1]","[0.8, 0.4, 0.2]","[u'blue', u'red', u'black']","[u'left', u'middle', u'right']","[0.8, 0.4, 0.2]","[u'high', u'low', u'medium']","blue",49,"left","high","True","False",616,6750,NA
"A2R75YFKVALBXE","Thu Sep 17 2020 17:59:12 GMT-0500 (Central Daylight Time)","Thu Sep 17 2020 18:07:53 GMT-0500 (Central Daylight Time)","Mozilla/5.0 (Macintosh; Intel Mac OS X 10.14; rv:80.0) Gecko/20100101 Firefox/80.0",160,"[0.9, 0.5, 0.1]","[0.8, 0.4, 0.2]","[u'blue', u'red', u'black']","[u'left', u'middle', u'right']","[0.8, 0.4, 0.2]","[u'high', u'low', u'medium']","blue",49,"left","high","True","False",577,6850,NA
