"src_subject_id","start_time","end_time","browser","index","first_half_probabilities","second_half_probabilities","deck_color","deck_position","deck_probabilities","deck_contingencies","response_color","key_press","response_position","response_probability","reward_type","trial_type","rt","reward_tally","exclusion_reason"
"A36DK84J5YJ942","Fri Sep 18 2020 10:22:20 GMT-0500 (Central Daylight Time)","Fri Sep 18 2020 10:34:29 GMT-0500 (Central Daylight Time)","Mozilla/5.0 (Windows NT 10.0; Win64; x64) AppleWebKit/537.36 (KHTML, like Gecko) Chrome/84.0.4147.105 Safari/537.36 Edg/84.0.522.52",1,"[0.9, 0.5, 0.1]","[0.8, 0.4, 0.2]","[u'red', u'black', u'blue']","[u'left', u'middle', u'right']","[0.9, 0.5, 0.1]","[u'high', u'low', u'medium']","red",49,"left","high","True","False",1259,100,NA
"A36DK84J5YJ942","Fri Sep 18 2020 10:22:20 GMT-0500 (Central Daylight Time)","Fri Sep 18 2020 10:34:29 GMT-0500 (Central Daylight Time)","Mozilla/5.0 (Windows NT 10.0; Win64; x64) AppleWebKit/537.36 (KHTML, like Gecko) Chrome/84.0.4147.105 Safari/537.36 Edg/84.0.522.52",2,"[0.9, 0.5, 0.1]","[0.8, 0.4, 0.2]","[u'red', u'black', u'blue']","[u'left', u'middle', u'right']","[0.9, 0.5, 0.1]","[u'high', u'low', u'medium']","red",49,"left","high","True","False",570,200,NA
"A36DK84J5YJ942","Fri Sep 18 2020 10:22:20 GMT-0500 (Central Daylight Time)","Fri Sep 18 2020 10:34:29 GMT-0500 (Central Daylight Time)","Mozilla/5.0 (Windows NT 10.0; Win64; x64) AppleWebKit/537.36 (KHTML, like Gecko) Chrome/84.0.4147.105 Safari/537.36 Edg/84.0.522.52",3,"[0.9, 0.5, 0.1]","[0.8, 0.4, 0.2]","[u'red', u'black', u'blue']","[u'left', u'middle', u'right']","[0.9, 0.5, 0.1]","[u'high', u'low', u'medium']","red",49,"left","high","True","False",731,300,NA
"A36DK84J5YJ942","Fri Sep 18 2020 10:22:20 GMT-0500 (Central Daylight Time)","Fri Sep 18 2020 10:34:29 GMT-0500 (Central Daylight Time)","Mozilla/5.0 (Windows NT 10.0; Win64; x64) AppleWebKit/537.36 (KHTML, like Gecko) Chrome/84.0.4147.105 Safari/537.36 Edg/84.0.522.52",4,"[0.9, 0.5, 0.1]","[0.8, 0.4, 0.2]","[u'red', u'black', u'blue']","[u'left', u'middle', u'right']","[0.9, 0.5, 0.1]","[u'high', u'low', u'medium']","red",49,"left","high","True","False",323,400,NA
"A36DK84J5YJ942","Fri Sep 18 2020 10:22:20 GMT-0500 (Central Daylight Time)","Fri Sep 18 2020 10:34:29 GMT-0500 (Central Daylight Time)","Mozilla/5.0 (Windows NT 10.0; Win64; x64) AppleWebKit/537.36 (KHTML, like Gecko) Chrome/84.0.4147.105 Safari/537.36 Edg/84.0.522.52",5,"[0.9, 0.5, 0.1]","[0.8, 0.4, 0.2]","[u'red', u'black', u'blue']","[u'left', u'middle', u'right']","[0.9, 0.5, 0.1]","[u'high', u'low', u'medium']","red",49,"left","high","True","False",467,500,NA
"A36DK84J5YJ942","Fri Sep 18 2020 10:22:20 GMT-0500 (Central Daylight Time)","Fri Sep 18 2020 10:34:29 GMT-0500 (Central Daylight Time)","Mozilla/5.0 (Windows NT 10.0; Win64; x64) AppleWebKit/537.36 (KHTML, like Gecko) Chrome/84.0.4147.105 Safari/537.36 Edg/84.0.522.52",6,"[0.9, 0.5, 0.1]","[0.8, 0.4, 0.2]","[u'red', u'black', u'blue']","[u'left', u'middle', u'right']","[0.9, 0.5, 0.1]","[u'high', u'low', u'medium']","red",49,"left","high","True","False",1515,600,NA
"A36DK84J5YJ942","Fri Sep 18 2020 10:22:20 GMT-0500 (Central Daylight Time)","Fri Sep 18 2020 10:34:29 GMT-0500 (Central Daylight Time)","Mozilla/5.0 (Windows NT 10.0; Win64; x64) AppleWebKit/537.36 (KHTML, like Gecko) Chrome/84.0.4147.105 Safari/537.36 Edg/84.0.522.52",7,"[0.9, 0.5, 0.1]","[0.8, 0.4, 0.2]","[u'red', u'black', u'blue']","[u'left', u'middle', u'right']","[0.9, 0.5, 0.1]","[u'high', u'low', u'medium']","red",49,"left","high","True","False",635,700,NA
"A36DK84J5YJ942","Fri Sep 18 2020 10:22:20 GMT-0500 (Central Daylight Time)","Fri Sep 18 2020 10:34:29 GMT-0500 (Central Daylight Time)","Mozilla/5.0 (Windows NT 10.0; Win64; x64) AppleWebKit/537.36 (KHTML, like Gecko) Chrome/84.0.4147.105 Safari/537.36 Edg/84.0.522.52",8,"[0.9, 0.5, 0.1]","[0.8, 0.4, 0.2]","[u'red', u'black', u'blue']","[u'left', u'middle', u'right']","[0.9, 0.5, 0.1]","[u'high', u'low', u'medium']","red",49,"left","high","True","False",802,800,NA
"A36DK84J5YJ942","Fri Sep 18 2020 10:22:20 GMT-0500 (Central Daylight Time)","Fri Sep 18 2020 10:34:29 GMT-0500 (Central Daylight Time)","Mozilla/5.0 (Windows NT 10.0; Win64; x64) AppleWebKit/537.36 (KHTML, like Gecko) Chrome/84.0.4147.105 Safari/537.36 Edg/84.0.522.52",9,"[0.9, 0.5, 0.1]","[0.8, 0.4, 0.2]","[u'red', u'black', u'blue']","[u'left', u'middle', u'right']","[0.9, 0.5, 0.1]","[u'high', u'low', u'medium']","red",49,"left","high","False","True",643,750,NA
"A36DK84J5YJ942","Fri Sep 18 2020 10:22:20 GMT-0500 (Central Daylight Time)","Fri Sep 18 2020 10:34:29 GMT-0500 (Central Daylight Time)","Mozilla/5.0 (Windows NT 10.0; Win64; x64) AppleWebKit/537.36 (KHTML, like Gecko) Chrome/84.0.4147.105 Safari/537.36 Edg/84.0.522.52",10,"[0.9, 0.5, 0.1]","[0.8, 0.4, 0.2]","[u'red', u'black', u'blue']","[u'left', u'middle', u'right']","[0.9, 0.5, 0.1]","[u'medium', u'high', u'low']","black",50,"middle","high","True","False",290,850,NA
"A36DK84J5YJ942","Fri Sep 18 2020 10:22:20 GMT-0500 (Central Daylight Time)","Fri Sep 18 2020 10:34:29 GMT-0500 (Central Daylight Time)","Mozilla/5.0 (Windows NT 10.0; Win64; x64) AppleWebKit/537.36 (KHTML, like Gecko) Chrome/84.0.4147.105 Safari/537.36 Edg/84.0.522.52",11,"[0.9, 0.5, 0.1]","[0.8, 0.4, 0.2]","[u'red', u'black', u'blue']","[u'left', u'middle', u'right']","[0.9, 0.5, 0.1]","[u'medium', u'high', u'low']","black",50,"middle","high","False","False",459,800,NA
"A36DK84J5YJ942","Fri Sep 18 2020 10:22:20 GMT-0500 (Central Daylight Time)","Fri Sep 18 2020 10:34:29 GMT-0500 (Central Daylight Time)","Mozilla/5.0 (Windows NT 10.0; Win64; x64) AppleWebKit/537.36 (KHTML, like Gecko) Chrome/84.0.4147.105 Safari/537.36 Edg/84.0.522.52",12,"[0.9, 0.5, 0.1]","[0.8, 0.4, 0.2]","[u'red', u'black', u'blue']","[u'left', u'middle', u'right']","[0.9, 0.5, 0.1]","[u'medium', u'high', u'low']","blue",51,"right","low","False","False",331,750,NA
"A36DK84J5YJ942","Fri Sep 18 2020 10:22:20 GMT-0500 (Central Daylight Time)","Fri Sep 18 2020 10:34:29 GMT-0500 (Central Daylight Time)","Mozilla/5.0 (Windows NT 10.0; Win64; x64) AppleWebKit/537.36 (KHTML, like Gecko) Chrome/84.0.4147.105 Safari/537.36 Edg/84.0.522.52",13,"[0.9, 0.5, 0.1]","[0.8, 0.4, 0.2]","[u'red', u'black', u'blue']","[u'left', u'middle', u'right']","[0.9, 0.5, 0.1]","[u'medium', u'high', u'low']","red",49,"left","medium","True","False",267,850,NA
"A36DK84J5YJ942","Fri Sep 18 2020 10:22:20 GMT-0500 (Central Daylight Time)","Fri Sep 18 2020 10:34:29 GMT-0500 (Central Daylight Time)","Mozilla/5.0 (Windows NT 10.0; Win64; x64) AppleWebKit/537.36 (KHTML, like Gecko) Chrome/84.0.4147.105 Safari/537.36 Edg/84.0.522.52",14,"[0.9, 0.5, 0.1]","[0.8, 0.4, 0.2]","[u'red', u'black', u'blue']","[u'left', u'middle', u'right']","[0.9, 0.5, 0.1]","[u'medium', u'high', u'low']","red",49,"left","medium","True","False",299,950,NA
"A36DK84J5YJ942","Fri Sep 18 2020 10:22:20 GMT-0500 (Central Daylight Time)","Fri Sep 18 2020 10:34:29 GMT-0500 (Central Daylight Time)","Mozilla/5.0 (Windows NT 10.0; Win64; x64) AppleWebKit/537.36 (KHTML, like Gecko) Chrome/84.0.4147.105 Safari/537.36 Edg/84.0.522.52",15,"[0.9, 0.5, 0.1]","[0.8, 0.4, 0.2]","[u'red', u'black', u'blue']","[u'left', u'middle', u'right']","[0.9, 0.5, 0.1]","[u'medium', u'high', u'low']","red",49,"left","medium","True","False",338,1050,NA
"A36DK84J5YJ942","Fri Sep 18 2020 10:22:20 GMT-0500 (Central Daylight Time)","Fri Sep 18 2020 10:34:29 GMT-0500 (Central Daylight Time)","Mozilla/5.0 (Windows NT 10.0; Win64; x64) AppleWebKit/537.36 (KHTML, like Gecko) Chrome/84.0.4147.105 Safari/537.36 Edg/84.0.522.52",16,"[0.9, 0.5, 0.1]","[0.8, 0.4, 0.2]","[u'red', u'black', u'blue']","[u'left', u'middle', u'right']","[0.9, 0.5, 0.1]","[u'medium', u'high', u'low']","red",49,"left","medium","False","False",306,1000,NA
"A36DK84J5YJ942","Fri Sep 18 2020 10:22:20 GMT-0500 (Central Daylight Time)","Fri Sep 18 2020 10:34:29 GMT-0500 (Central Daylight Time)","Mozilla/5.0 (Windows NT 10.0; Win64; x64) AppleWebKit/537.36 (KHTML, like Gecko) Chrome/84.0.4147.105 Safari/537.36 Edg/84.0.522.52",17,"[0.9, 0.5, 0.1]","[0.8, 0.4, 0.2]","[u'red', u'black', u'blue']","[u'left', u'middle', u'right']","[0.9, 0.5, 0.1]","[u'medium', u'high', u'low']","blue",51,"right","low","False","False",291,950,NA
"A36DK84J5YJ942","Fri Sep 18 2020 10:22:20 GMT-0500 (Central Daylight Time)","Fri Sep 18 2020 10:34:29 GMT-0500 (Central Daylight Time)","Mozilla/5.0 (Windows NT 10.0; Win64; x64) AppleWebKit/537.36 (KHTML, like Gecko) Chrome/84.0.4147.105 Safari/537.36 Edg/84.0.522.52",18,"[0.9, 0.5, 0.1]","[0.8, 0.4, 0.2]","[u'red', u'black', u'blue']","[u'left', u'middle', u'right']","[0.9, 0.5, 0.1]","[u'medium', u'high', u'low']","red",49,"left","medium","True","False",258,1050,NA
"A36DK84J5YJ942","Fri Sep 18 2020 10:22:20 GMT-0500 (Central Daylight Time)","Fri Sep 18 2020 10:34:29 GMT-0500 (Central Daylight Time)","Mozilla/5.0 (Windows NT 10.0; Win64; x64) AppleWebKit/537.36 (KHTML, like Gecko) Chrome/84.0.4147.105 Safari/537.36 Edg/84.0.522.52",19,"[0.9, 0.5, 0.1]","[0.8, 0.4, 0.2]","[u'red', u'black', u'blue']","[u'left', u'middle', u'right']","[0.9, 0.5, 0.1]","[u'medium', u'high', u'low']","red",49,"left","medium","True","False",282,1150,NA
"A36DK84J5YJ942","Fri Sep 18 2020 10:22:20 GMT-0500 (Central Daylight Time)","Fri Sep 18 2020 10:34:29 GMT-0500 (Central Daylight Time)","Mozilla/5.0 (Windows NT 10.0; Win64; x64) AppleWebKit/537.36 (KHTML, like Gecko) Chrome/84.0.4147.105 Safari/537.36 Edg/84.0.522.52",20,"[0.9, 0.5, 0.1]","[0.8, 0.4, 0.2]","[u'red', u'black', u'blue']","[u'left', u'middle', u'right']","[0.9, 0.5, 0.1]","[u'medium', u'high', u'low']","red",49,"left","medium","True","False",250,1250,NA
"A36DK84J5YJ942","Fri Sep 18 2020 10:22:20 GMT-0500 (Central Daylight Time)","Fri Sep 18 2020 10:34:29 GMT-0500 (Central Daylight Time)","Mozilla/5.0 (Windows NT 10.0; Win64; x64) AppleWebKit/537.36 (KHTML, like Gecko) Chrome/84.0.4147.105 Safari/537.36 Edg/84.0.522.52",21,"[0.9, 0.5, 0.1]","[0.8, 0.4, 0.2]","[u'red', u'black', u'blue']","[u'left', u'middle', u'right']","[0.9, 0.5, 0.1]","[u'medium', u'high', u'low']","red",49,"left","medium","True","False",123,1350,NA
"A36DK84J5YJ942","Fri Sep 18 2020 10:22:20 GMT-0500 (Central Daylight Time)","Fri Sep 18 2020 10:34:29 GMT-0500 (Central Daylight Time)","Mozilla/5.0 (Windows NT 10.0; Win64; x64) AppleWebKit/537.36 (KHTML, like Gecko) Chrome/84.0.4147.105 Safari/537.36 Edg/84.0.522.52",22,"[0.9, 0.5, 0.1]","[0.8, 0.4, 0.2]","[u'red', u'black', u'blue']","[u'left', u'middle', u'right']","[0.9, 0.5, 0.1]","[u'medium', u'high', u'low']","red",49,"left","medium","False","False",338,1300,NA
"A36DK84J5YJ942","Fri Sep 18 2020 10:22:20 GMT-0500 (Central Daylight Time)","Fri Sep 18 2020 10:34:29 GMT-0500 (Central Daylight Time)","Mozilla/5.0 (Windows NT 10.0; Win64; x64) AppleWebKit/537.36 (KHTML, like Gecko) Chrome/84.0.4147.105 Safari/537.36 Edg/84.0.522.52",23,"[0.9, 0.5, 0.1]","[0.8, 0.4, 0.2]","[u'red', u'black', u'blue']","[u'left', u'middle', u'right']","[0.9, 0.5, 0.1]","[u'medium', u'high', u'low']","black",50,"middle","high","False","False",228,1250,NA
"A36DK84J5YJ942","Fri Sep 18 2020 10:22:20 GMT-0500 (Central Daylight Time)","Fri Sep 18 2020 10:34:29 GMT-0500 (Central Daylight Time)","Mozilla/5.0 (Windows NT 10.0; Win64; x64) AppleWebKit/537.36 (KHTML, like Gecko) Chrome/84.0.4147.105 Safari/537.36 Edg/84.0.522.52",24,"[0.9, 0.5, 0.1]","[0.8, 0.4, 0.2]","[u'red', u'black', u'blue']","[u'left', u'middle', u'right']","[0.9, 0.5, 0.1]","[u'medium', u'high', u'low']","red",49,"left","medium","True","False",226,1350,NA
"A36DK84J5YJ942","Fri Sep 18 2020 10:22:20 GMT-0500 (Central Daylight Time)","Fri Sep 18 2020 10:34:29 GMT-0500 (Central Daylight Time)","Mozilla/5.0 (Windows NT 10.0; Win64; x64) AppleWebKit/537.36 (KHTML, like Gecko) Chrome/84.0.4147.105 Safari/537.36 Edg/84.0.522.52",25,"[0.9, 0.5, 0.1]","[0.8, 0.4, 0.2]","[u'red', u'black', u'blue']","[u'left', u'middle', u'right']","[0.9, 0.5, 0.1]","[u'medium', u'high', u'low']","red",49,"left","medium","True","False",219,1450,NA
"A36DK84J5YJ942","Fri Sep 18 2020 10:22:20 GMT-0500 (Central Daylight Time)","Fri Sep 18 2020 10:34:29 GMT-0500 (Central Daylight Time)","Mozilla/5.0 (Windows NT 10.0; Win64; x64) AppleWebKit/537.36 (KHTML, like Gecko) Chrome/84.0.4147.105 Safari/537.36 Edg/84.0.522.52",26,"[0.9, 0.5, 0.1]","[0.8, 0.4, 0.2]","[u'red', u'black', u'blue']","[u'left', u'middle', u'right']","[0.9, 0.5, 0.1]","[u'medium', u'high', u'low']","red",49,"left","medium","True","False",235,1550,NA
"A36DK84J5YJ942","Fri Sep 18 2020 10:22:20 GMT-0500 (Central Daylight Time)","Fri Sep 18 2020 10:34:29 GMT-0500 (Central Daylight Time)","Mozilla/5.0 (Windows NT 10.0; Win64; x64) AppleWebKit/537.36 (KHTML, like Gecko) Chrome/84.0.4147.105 Safari/537.36 Edg/84.0.522.52",27,"[0.9, 0.5, 0.1]","[0.8, 0.4, 0.2]","[u'red', u'black', u'blue']","[u'left', u'middle', u'right']","[0.9, 0.5, 0.1]","[u'medium', u'high', u'low']","red",49,"left","medium","False","False",259,1500,NA
"A36DK84J5YJ942","Fri Sep 18 2020 10:22:20 GMT-0500 (Central Daylight Time)","Fri Sep 18 2020 10:34:29 GMT-0500 (Central Daylight Time)","Mozilla/5.0 (Windows NT 10.0; Win64; x64) AppleWebKit/537.36 (KHTML, like Gecko) Chrome/84.0.4147.105 Safari/537.36 Edg/84.0.522.52",28,"[0.9, 0.5, 0.1]","[0.8, 0.4, 0.2]","[u'red', u'black', u'blue']","[u'left', u'middle', u'right']","[0.9, 0.5, 0.1]","[u'medium', u'high', u'low']","blue",51,"right","low","True","False",402,1600,NA
"A36DK84J5YJ942","Fri Sep 18 2020 10:22:20 GMT-0500 (Central Daylight Time)","Fri Sep 18 2020 10:34:29 GMT-0500 (Central Daylight Time)","Mozilla/5.0 (Windows NT 10.0; Win64; x64) AppleWebKit/537.36 (KHTML, like Gecko) Chrome/84.0.4147.105 Safari/537.36 Edg/84.0.522.52",29,"[0.9, 0.5, 0.1]","[0.8, 0.4, 0.2]","[u'red', u'black', u'blue']","[u'left', u'middle', u'right']","[0.9, 0.5, 0.1]","[u'medium', u'high', u'low']","red",49,"left","medium","False","False",347,1550,NA
"A36DK84J5YJ942","Fri Sep 18 2020 10:22:20 GMT-0500 (Central Daylight Time)","Fri Sep 18 2020 10:34:29 GMT-0500 (Central Daylight Time)","Mozilla/5.0 (Windows NT 10.0; Win64; x64) AppleWebKit/537.36 (KHTML, like Gecko) Chrome/84.0.4147.105 Safari/537.36 Edg/84.0.522.52",30,"[0.9, 0.5, 0.1]","[0.8, 0.4, 0.2]","[u'red', u'black', u'blue']","[u'left', u'middle', u'right']","[0.9, 0.5, 0.1]","[u'medium', u'high', u'low']","red",49,"left","medium","True","False",467,1650,NA
"A36DK84J5YJ942","Fri Sep 18 2020 10:22:20 GMT-0500 (Central Daylight Time)","Fri Sep 18 2020 10:34:29 GMT-0500 (Central Daylight Time)","Mozilla/5.0 (Windows NT 10.0; Win64; x64) AppleWebKit/537.36 (KHTML, like Gecko) Chrome/84.0.4147.105 Safari/537.36 Edg/84.0.522.52",31,"[0.9, 0.5, 0.1]","[0.8, 0.4, 0.2]","[u'red', u'black', u'blue']","[u'left', u'middle', u'right']","[0.9, 0.5, 0.1]","[u'medium', u'high', u'low']","red",49,"left","medium","True","False",260,1750,NA
"A36DK84J5YJ942","Fri Sep 18 2020 10:22:20 GMT-0500 (Central Daylight Time)","Fri Sep 18 2020 10:34:29 GMT-0500 (Central Daylight Time)","Mozilla/5.0 (Windows NT 10.0; Win64; x64) AppleWebKit/537.36 (KHTML, like Gecko) Chrome/84.0.4147.105 Safari/537.36 Edg/84.0.522.52",32,"[0.9, 0.5, 0.1]","[0.8, 0.4, 0.2]","[u'red', u'black', u'blue']","[u'left', u'middle', u'right']","[0.9, 0.5, 0.1]","[u'medium', u'high', u'low']","red",49,"left","medium","True","False",234,1850,NA
"A36DK84J5YJ942","Fri Sep 18 2020 10:22:20 GMT-0500 (Central Daylight Time)","Fri Sep 18 2020 10:34:29 GMT-0500 (Central Daylight Time)","Mozilla/5.0 (Windows NT 10.0; Win64; x64) AppleWebKit/537.36 (KHTML, like Gecko) Chrome/84.0.4147.105 Safari/537.36 Edg/84.0.522.52",33,"[0.9, 0.5, 0.1]","[0.8, 0.4, 0.2]","[u'red', u'black', u'blue']","[u'left', u'middle', u'right']","[0.9, 0.5, 0.1]","[u'medium', u'high', u'low']","red",49,"left","medium","False","False",50,1800,NA
"A36DK84J5YJ942","Fri Sep 18 2020 10:22:20 GMT-0500 (Central Daylight Time)","Fri Sep 18 2020 10:34:29 GMT-0500 (Central Daylight Time)","Mozilla/5.0 (Windows NT 10.0; Win64; x64) AppleWebKit/537.36 (KHTML, like Gecko) Chrome/84.0.4147.105 Safari/537.36 Edg/84.0.522.52",34,"[0.9, 0.5, 0.1]","[0.8, 0.4, 0.2]","[u'red', u'black', u'blue']","[u'left', u'middle', u'right']","[0.9, 0.5, 0.1]","[u'medium', u'high', u'low']","black",50,"middle","high","False","False",554,1750,NA
"A36DK84J5YJ942","Fri Sep 18 2020 10:22:20 GMT-0500 (Central Daylight Time)","Fri Sep 18 2020 10:34:29 GMT-0500 (Central Daylight Time)","Mozilla/5.0 (Windows NT 10.0; Win64; x64) AppleWebKit/537.36 (KHTML, like Gecko) Chrome/84.0.4147.105 Safari/537.36 Edg/84.0.522.52",35,"[0.9, 0.5, 0.1]","[0.8, 0.4, 0.2]","[u'red', u'black', u'blue']","[u'left', u'middle', u'right']","[0.9, 0.5, 0.1]","[u'medium', u'high', u'low']","red",49,"left","medium","False","False",234,1700,NA
"A36DK84J5YJ942","Fri Sep 18 2020 10:22:20 GMT-0500 (Central Daylight Time)","Fri Sep 18 2020 10:34:29 GMT-0500 (Central Daylight Time)","Mozilla/5.0 (Windows NT 10.0; Win64; x64) AppleWebKit/537.36 (KHTML, like Gecko) Chrome/84.0.4147.105 Safari/537.36 Edg/84.0.522.52",36,"[0.9, 0.5, 0.1]","[0.8, 0.4, 0.2]","[u'red', u'black', u'blue']","[u'left', u'middle', u'right']","[0.9, 0.5, 0.1]","[u'medium', u'high', u'low']","red",49,"left","medium","False","False",243,1650,NA
"A36DK84J5YJ942","Fri Sep 18 2020 10:22:20 GMT-0500 (Central Daylight Time)","Fri Sep 18 2020 10:34:29 GMT-0500 (Central Daylight Time)","Mozilla/5.0 (Windows NT 10.0; Win64; x64) AppleWebKit/537.36 (KHTML, like Gecko) Chrome/84.0.4147.105 Safari/537.36 Edg/84.0.522.52",37,"[0.9, 0.5, 0.1]","[0.8, 0.4, 0.2]","[u'red', u'black', u'blue']","[u'left', u'middle', u'right']","[0.9, 0.5, 0.1]","[u'medium', u'high', u'low']","blue",51,"right","low","False","False",283,1600,NA
"A36DK84J5YJ942","Fri Sep 18 2020 10:22:20 GMT-0500 (Central Daylight Time)","Fri Sep 18 2020 10:34:29 GMT-0500 (Central Daylight Time)","Mozilla/5.0 (Windows NT 10.0; Win64; x64) AppleWebKit/537.36 (KHTML, like Gecko) Chrome/84.0.4147.105 Safari/537.36 Edg/84.0.522.52",38,"[0.9, 0.5, 0.1]","[0.8, 0.4, 0.2]","[u'red', u'black', u'blue']","[u'left', u'middle', u'right']","[0.9, 0.5, 0.1]","[u'medium', u'high', u'low']","red",49,"left","medium","True","False",252,1700,NA
"A36DK84J5YJ942","Fri Sep 18 2020 10:22:20 GMT-0500 (Central Daylight Time)","Fri Sep 18 2020 10:34:29 GMT-0500 (Central Daylight Time)","Mozilla/5.0 (Windows NT 10.0; Win64; x64) AppleWebKit/537.36 (KHTML, like Gecko) Chrome/84.0.4147.105 Safari/537.36 Edg/84.0.522.52",39,"[0.9, 0.5, 0.1]","[0.8, 0.4, 0.2]","[u'red', u'black', u'blue']","[u'left', u'middle', u'right']","[0.9, 0.5, 0.1]","[u'medium', u'high', u'low']","red",49,"left","medium","False","False",209,1650,NA
"A36DK84J5YJ942","Fri Sep 18 2020 10:22:20 GMT-0500 (Central Daylight Time)","Fri Sep 18 2020 10:34:29 GMT-0500 (Central Daylight Time)","Mozilla/5.0 (Windows NT 10.0; Win64; x64) AppleWebKit/537.36 (KHTML, like Gecko) Chrome/84.0.4147.105 Safari/537.36 Edg/84.0.522.52",40,"[0.9, 0.5, 0.1]","[0.8, 0.4, 0.2]","[u'red', u'black', u'blue']","[u'left', u'middle', u'right']","[0.9, 0.5, 0.1]","[u'medium', u'high', u'low']","black",50,"middle","high","True","False",350,1750,NA
"A36DK84J5YJ942","Fri Sep 18 2020 10:22:20 GMT-0500 (Central Daylight Time)","Fri Sep 18 2020 10:34:29 GMT-0500 (Central Daylight Time)","Mozilla/5.0 (Windows NT 10.0; Win64; x64) AppleWebKit/537.36 (KHTML, like Gecko) Chrome/84.0.4147.105 Safari/537.36 Edg/84.0.522.52",41,"[0.9, 0.5, 0.1]","[0.8, 0.4, 0.2]","[u'red', u'black', u'blue']","[u'left', u'middle', u'right']","[0.9, 0.5, 0.1]","[u'high', u'low', u'medium']","red",49,"left","high","True","False",314,1850,NA
"A36DK84J5YJ942","Fri Sep 18 2020 10:22:20 GMT-0500 (Central Daylight Time)","Fri Sep 18 2020 10:34:29 GMT-0500 (Central Daylight Time)","Mozilla/5.0 (Windows NT 10.0; Win64; x64) AppleWebKit/537.36 (KHTML, like Gecko) Chrome/84.0.4147.105 Safari/537.36 Edg/84.0.522.52",42,"[0.9, 0.5, 0.1]","[0.8, 0.4, 0.2]","[u'red', u'black', u'blue']","[u'left', u'middle', u'right']","[0.9, 0.5, 0.1]","[u'high', u'low', u'medium']","red",49,"left","high","True","False",347,1950,NA
"A36DK84J5YJ942","Fri Sep 18 2020 10:22:20 GMT-0500 (Central Daylight Time)","Fri Sep 18 2020 10:34:29 GMT-0500 (Central Daylight Time)","Mozilla/5.0 (Windows NT 10.0; Win64; x64) AppleWebKit/537.36 (KHTML, like Gecko) Chrome/84.0.4147.105 Safari/537.36 Edg/84.0.522.52",43,"[0.9, 0.5, 0.1]","[0.8, 0.4, 0.2]","[u'red', u'black', u'blue']","[u'left', u'middle', u'right']","[0.9, 0.5, 0.1]","[u'high', u'low', u'medium']","red",49,"left","high","True","False",235,2050,NA
"A36DK84J5YJ942","Fri Sep 18 2020 10:22:20 GMT-0500 (Central Daylight Time)","Fri Sep 18 2020 10:34:29 GMT-0500 (Central Daylight Time)","Mozilla/5.0 (Windows NT 10.0; Win64; x64) AppleWebKit/537.36 (KHTML, like Gecko) Chrome/84.0.4147.105 Safari/537.36 Edg/84.0.522.52",44,"[0.9, 0.5, 0.1]","[0.8, 0.4, 0.2]","[u'red', u'black', u'blue']","[u'left', u'middle', u'right']","[0.9, 0.5, 0.1]","[u'high', u'low', u'medium']","red",49,"left","high","True","False",83,2150,NA
"A36DK84J5YJ942","Fri Sep 18 2020 10:22:20 GMT-0500 (Central Daylight Time)","Fri Sep 18 2020 10:34:29 GMT-0500 (Central Daylight Time)","Mozilla/5.0 (Windows NT 10.0; Win64; x64) AppleWebKit/537.36 (KHTML, like Gecko) Chrome/84.0.4147.105 Safari/537.36 Edg/84.0.522.52",45,"[0.9, 0.5, 0.1]","[0.8, 0.4, 0.2]","[u'red', u'black', u'blue']","[u'left', u'middle', u'right']","[0.9, 0.5, 0.1]","[u'high', u'low', u'medium']","red",49,"left","high","True","False",35,2250,NA
"A36DK84J5YJ942","Fri Sep 18 2020 10:22:20 GMT-0500 (Central Daylight Time)","Fri Sep 18 2020 10:34:29 GMT-0500 (Central Daylight Time)","Mozilla/5.0 (Windows NT 10.0; Win64; x64) AppleWebKit/537.36 (KHTML, like Gecko) Chrome/84.0.4147.105 Safari/537.36 Edg/84.0.522.52",46,"[0.9, 0.5, 0.1]","[0.8, 0.4, 0.2]","[u'red', u'black', u'blue']","[u'left', u'middle', u'right']","[0.9, 0.5, 0.1]","[u'high', u'low', u'medium']","red",49,"left","high","True","False",366,2350,NA
"A36DK84J5YJ942","Fri Sep 18 2020 10:22:20 GMT-0500 (Central Daylight Time)","Fri Sep 18 2020 10:34:29 GMT-0500 (Central Daylight Time)","Mozilla/5.0 (Windows NT 10.0; Win64; x64) AppleWebKit/537.36 (KHTML, like Gecko) Chrome/84.0.4147.105 Safari/537.36 Edg/84.0.522.52",47,"[0.9, 0.5, 0.1]","[0.8, 0.4, 0.2]","[u'red', u'black', u'blue']","[u'left', u'middle', u'right']","[0.9, 0.5, 0.1]","[u'high', u'low', u'medium']","red",49,"left","high","True","False",264,2450,NA
"A36DK84J5YJ942","Fri Sep 18 2020 10:22:20 GMT-0500 (Central Daylight Time)","Fri Sep 18 2020 10:34:29 GMT-0500 (Central Daylight Time)","Mozilla/5.0 (Windows NT 10.0; Win64; x64) AppleWebKit/537.36 (KHTML, like Gecko) Chrome/84.0.4147.105 Safari/537.36 Edg/84.0.522.52",48,"[0.9, 0.5, 0.1]","[0.8, 0.4, 0.2]","[u'red', u'black', u'blue']","[u'left', u'middle', u'right']","[0.9, 0.5, 0.1]","[u'high', u'low', u'medium']","red",49,"left","high","True","False",235,2550,NA
"A36DK84J5YJ942","Fri Sep 18 2020 10:22:20 GMT-0500 (Central Daylight Time)","Fri Sep 18 2020 10:34:29 GMT-0500 (Central Daylight Time)","Mozilla/5.0 (Windows NT 10.0; Win64; x64) AppleWebKit/537.36 (KHTML, like Gecko) Chrome/84.0.4147.105 Safari/537.36 Edg/84.0.522.52",49,"[0.9, 0.5, 0.1]","[0.8, 0.4, 0.2]","[u'red', u'black', u'blue']","[u'left', u'middle', u'right']","[0.9, 0.5, 0.1]","[u'high', u'low', u'medium']","red",49,"left","high","True","True",426,2650,NA
"A36DK84J5YJ942","Fri Sep 18 2020 10:22:20 GMT-0500 (Central Daylight Time)","Fri Sep 18 2020 10:34:29 GMT-0500 (Central Daylight Time)","Mozilla/5.0 (Windows NT 10.0; Win64; x64) AppleWebKit/537.36 (KHTML, like Gecko) Chrome/84.0.4147.105 Safari/537.36 Edg/84.0.522.52",50,"[0.9, 0.5, 0.1]","[0.8, 0.4, 0.2]","[u'red', u'black', u'blue']","[u'left', u'middle', u'right']","[0.9, 0.5, 0.1]","[u'low', u'high', u'medium']","red",49,"left","low","False","False",442,2600,NA
"A36DK84J5YJ942","Fri Sep 18 2020 10:22:20 GMT-0500 (Central Daylight Time)","Fri Sep 18 2020 10:34:29 GMT-0500 (Central Daylight Time)","Mozilla/5.0 (Windows NT 10.0; Win64; x64) AppleWebKit/537.36 (KHTML, like Gecko) Chrome/84.0.4147.105 Safari/537.36 Edg/84.0.522.52",51,"[0.9, 0.5, 0.1]","[0.8, 0.4, 0.2]","[u'red', u'black', u'blue']","[u'left', u'middle', u'right']","[0.9, 0.5, 0.1]","[u'low', u'high', u'medium']","black",50,"middle","high","True","False",291,2700,NA
"A36DK84J5YJ942","Fri Sep 18 2020 10:22:20 GMT-0500 (Central Daylight Time)","Fri Sep 18 2020 10:34:29 GMT-0500 (Central Daylight Time)","Mozilla/5.0 (Windows NT 10.0; Win64; x64) AppleWebKit/537.36 (KHTML, like Gecko) Chrome/84.0.4147.105 Safari/537.36 Edg/84.0.522.52",52,"[0.9, 0.5, 0.1]","[0.8, 0.4, 0.2]","[u'red', u'black', u'blue']","[u'left', u'middle', u'right']","[0.9, 0.5, 0.1]","[u'low', u'high', u'medium']","black",50,"middle","high","True","False",411,2800,NA
"A36DK84J5YJ942","Fri Sep 18 2020 10:22:20 GMT-0500 (Central Daylight Time)","Fri Sep 18 2020 10:34:29 GMT-0500 (Central Daylight Time)","Mozilla/5.0 (Windows NT 10.0; Win64; x64) AppleWebKit/537.36 (KHTML, like Gecko) Chrome/84.0.4147.105 Safari/537.36 Edg/84.0.522.52",53,"[0.9, 0.5, 0.1]","[0.8, 0.4, 0.2]","[u'red', u'black', u'blue']","[u'left', u'middle', u'right']","[0.9, 0.5, 0.1]","[u'low', u'high', u'medium']","black",50,"middle","high","False","False",450,2750,NA
"A36DK84J5YJ942","Fri Sep 18 2020 10:22:20 GMT-0500 (Central Daylight Time)","Fri Sep 18 2020 10:34:29 GMT-0500 (Central Daylight Time)","Mozilla/5.0 (Windows NT 10.0; Win64; x64) AppleWebKit/537.36 (KHTML, like Gecko) Chrome/84.0.4147.105 Safari/537.36 Edg/84.0.522.52",54,"[0.9, 0.5, 0.1]","[0.8, 0.4, 0.2]","[u'red', u'black', u'blue']","[u'left', u'middle', u'right']","[0.9, 0.5, 0.1]","[u'low', u'high', u'medium']","red",49,"left","low","False","False",338,2700,NA
"A36DK84J5YJ942","Fri Sep 18 2020 10:22:20 GMT-0500 (Central Daylight Time)","Fri Sep 18 2020 10:34:29 GMT-0500 (Central Daylight Time)","Mozilla/5.0 (Windows NT 10.0; Win64; x64) AppleWebKit/537.36 (KHTML, like Gecko) Chrome/84.0.4147.105 Safari/537.36 Edg/84.0.522.52",55,"[0.9, 0.5, 0.1]","[0.8, 0.4, 0.2]","[u'red', u'black', u'blue']","[u'left', u'middle', u'right']","[0.9, 0.5, 0.1]","[u'low', u'high', u'medium']","red",49,"left","low","True","False",1438,2800,NA
"A36DK84J5YJ942","Fri Sep 18 2020 10:22:20 GMT-0500 (Central Daylight Time)","Fri Sep 18 2020 10:34:29 GMT-0500 (Central Daylight Time)","Mozilla/5.0 (Windows NT 10.0; Win64; x64) AppleWebKit/537.36 (KHTML, like Gecko) Chrome/84.0.4147.105 Safari/537.36 Edg/84.0.522.52",56,"[0.9, 0.5, 0.1]","[0.8, 0.4, 0.2]","[u'red', u'black', u'blue']","[u'left', u'middle', u'right']","[0.9, 0.5, 0.1]","[u'low', u'high', u'medium']","red",49,"left","low","False","False",280,2750,NA
"A36DK84J5YJ942","Fri Sep 18 2020 10:22:20 GMT-0500 (Central Daylight Time)","Fri Sep 18 2020 10:34:29 GMT-0500 (Central Daylight Time)","Mozilla/5.0 (Windows NT 10.0; Win64; x64) AppleWebKit/537.36 (KHTML, like Gecko) Chrome/84.0.4147.105 Safari/537.36 Edg/84.0.522.52",57,"[0.9, 0.5, 0.1]","[0.8, 0.4, 0.2]","[u'red', u'black', u'blue']","[u'left', u'middle', u'right']","[0.9, 0.5, 0.1]","[u'low', u'high', u'medium']","black",50,"middle","high","True","False",339,2850,NA
"A36DK84J5YJ942","Fri Sep 18 2020 10:22:20 GMT-0500 (Central Daylight Time)","Fri Sep 18 2020 10:34:29 GMT-0500 (Central Daylight Time)","Mozilla/5.0 (Windows NT 10.0; Win64; x64) AppleWebKit/537.36 (KHTML, like Gecko) Chrome/84.0.4147.105 Safari/537.36 Edg/84.0.522.52",58,"[0.9, 0.5, 0.1]","[0.8, 0.4, 0.2]","[u'red', u'black', u'blue']","[u'left', u'middle', u'right']","[0.9, 0.5, 0.1]","[u'low', u'high', u'medium']","black",50,"middle","high","True","False",1029,2950,NA
"A36DK84J5YJ942","Fri Sep 18 2020 10:22:20 GMT-0500 (Central Daylight Time)","Fri Sep 18 2020 10:34:29 GMT-0500 (Central Daylight Time)","Mozilla/5.0 (Windows NT 10.0; Win64; x64) AppleWebKit/537.36 (KHTML, like Gecko) Chrome/84.0.4147.105 Safari/537.36 Edg/84.0.522.52",59,"[0.9, 0.5, 0.1]","[0.8, 0.4, 0.2]","[u'red', u'black', u'blue']","[u'left', u'middle', u'right']","[0.9, 0.5, 0.1]","[u'low', u'high', u'medium']","black",50,"middle","high","True","False",1511,3050,NA
"A36DK84J5YJ942","Fri Sep 18 2020 10:22:20 GMT-0500 (Central Daylight Time)","Fri Sep 18 2020 10:34:29 GMT-0500 (Central Daylight Time)","Mozilla/5.0 (Windows NT 10.0; Win64; x64) AppleWebKit/537.36 (KHTML, like Gecko) Chrome/84.0.4147.105 Safari/537.36 Edg/84.0.522.52",60,"[0.9, 0.5, 0.1]","[0.8, 0.4, 0.2]","[u'red', u'black', u'blue']","[u'left', u'middle', u'right']","[0.9, 0.5, 0.1]","[u'low', u'high', u'medium']","black",50,"middle","high","True","False",251,3150,NA
"A36DK84J5YJ942","Fri Sep 18 2020 10:22:20 GMT-0500 (Central Daylight Time)","Fri Sep 18 2020 10:34:29 GMT-0500 (Central Daylight Time)","Mozilla/5.0 (Windows NT 10.0; Win64; x64) AppleWebKit/537.36 (KHTML, like Gecko) Chrome/84.0.4147.105 Safari/537.36 Edg/84.0.522.52",61,"[0.9, 0.5, 0.1]","[0.8, 0.4, 0.2]","[u'red', u'black', u'blue']","[u'left', u'middle', u'right']","[0.9, 0.5, 0.1]","[u'low', u'high', u'medium']","black",50,"middle","high","True","False",263,3250,NA
"A36DK84J5YJ942","Fri Sep 18 2020 10:22:20 GMT-0500 (Central Daylight Time)","Fri Sep 18 2020 10:34:29 GMT-0500 (Central Daylight Time)","Mozilla/5.0 (Windows NT 10.0; Win64; x64) AppleWebKit/537.36 (KHTML, like Gecko) Chrome/84.0.4147.105 Safari/537.36 Edg/84.0.522.52",62,"[0.9, 0.5, 0.1]","[0.8, 0.4, 0.2]","[u'red', u'black', u'blue']","[u'left', u'middle', u'right']","[0.9, 0.5, 0.1]","[u'low', u'high', u'medium']","black",50,"middle","high","True","False",280,3350,NA
"A36DK84J5YJ942","Fri Sep 18 2020 10:22:20 GMT-0500 (Central Daylight Time)","Fri Sep 18 2020 10:34:29 GMT-0500 (Central Daylight Time)","Mozilla/5.0 (Windows NT 10.0; Win64; x64) AppleWebKit/537.36 (KHTML, like Gecko) Chrome/84.0.4147.105 Safari/537.36 Edg/84.0.522.52",63,"[0.9, 0.5, 0.1]","[0.8, 0.4, 0.2]","[u'red', u'black', u'blue']","[u'left', u'middle', u'right']","[0.9, 0.5, 0.1]","[u'low', u'high', u'medium']","black",50,"middle","high","True","False",346,3450,NA
"A36DK84J5YJ942","Fri Sep 18 2020 10:22:20 GMT-0500 (Central Daylight Time)","Fri Sep 18 2020 10:34:29 GMT-0500 (Central Daylight Time)","Mozilla/5.0 (Windows NT 10.0; Win64; x64) AppleWebKit/537.36 (KHTML, like Gecko) Chrome/84.0.4147.105 Safari/537.36 Edg/84.0.522.52",64,"[0.9, 0.5, 0.1]","[0.8, 0.4, 0.2]","[u'red', u'black', u'blue']","[u'left', u'middle', u'right']","[0.9, 0.5, 0.1]","[u'low', u'high', u'medium']","black",50,"middle","high","True","False",235,3550,NA
"A36DK84J5YJ942","Fri Sep 18 2020 10:22:20 GMT-0500 (Central Daylight Time)","Fri Sep 18 2020 10:34:29 GMT-0500 (Central Daylight Time)","Mozilla/5.0 (Windows NT 10.0; Win64; x64) AppleWebKit/537.36 (KHTML, like Gecko) Chrome/84.0.4147.105 Safari/537.36 Edg/84.0.522.52",65,"[0.9, 0.5, 0.1]","[0.8, 0.4, 0.2]","[u'red', u'black', u'blue']","[u'left', u'middle', u'right']","[0.9, 0.5, 0.1]","[u'low', u'high', u'medium']","black",50,"middle","high","True","True",346,3650,NA
"A36DK84J5YJ942","Fri Sep 18 2020 10:22:20 GMT-0500 (Central Daylight Time)","Fri Sep 18 2020 10:34:29 GMT-0500 (Central Daylight Time)","Mozilla/5.0 (Windows NT 10.0; Win64; x64) AppleWebKit/537.36 (KHTML, like Gecko) Chrome/84.0.4147.105 Safari/537.36 Edg/84.0.522.52",66,"[0.9, 0.5, 0.1]","[0.8, 0.4, 0.2]","[u'red', u'black', u'blue']","[u'left', u'middle', u'right']","[0.9, 0.5, 0.1]","[u'high', u'medium', u'low']","black",50,"middle","medium","True","False",283,3750,NA
"A36DK84J5YJ942","Fri Sep 18 2020 10:22:20 GMT-0500 (Central Daylight Time)","Fri Sep 18 2020 10:34:29 GMT-0500 (Central Daylight Time)","Mozilla/5.0 (Windows NT 10.0; Win64; x64) AppleWebKit/537.36 (KHTML, like Gecko) Chrome/84.0.4147.105 Safari/537.36 Edg/84.0.522.52",67,"[0.9, 0.5, 0.1]","[0.8, 0.4, 0.2]","[u'red', u'black', u'blue']","[u'left', u'middle', u'right']","[0.9, 0.5, 0.1]","[u'high', u'medium', u'low']","black",50,"middle","medium","True","False",284,3850,NA
"A36DK84J5YJ942","Fri Sep 18 2020 10:22:20 GMT-0500 (Central Daylight Time)","Fri Sep 18 2020 10:34:29 GMT-0500 (Central Daylight Time)","Mozilla/5.0 (Windows NT 10.0; Win64; x64) AppleWebKit/537.36 (KHTML, like Gecko) Chrome/84.0.4147.105 Safari/537.36 Edg/84.0.522.52",68,"[0.9, 0.5, 0.1]","[0.8, 0.4, 0.2]","[u'red', u'black', u'blue']","[u'left', u'middle', u'right']","[0.9, 0.5, 0.1]","[u'high', u'medium', u'low']","black",50,"middle","medium","True","False",331,3950,NA
"A36DK84J5YJ942","Fri Sep 18 2020 10:22:20 GMT-0500 (Central Daylight Time)","Fri Sep 18 2020 10:34:29 GMT-0500 (Central Daylight Time)","Mozilla/5.0 (Windows NT 10.0; Win64; x64) AppleWebKit/537.36 (KHTML, like Gecko) Chrome/84.0.4147.105 Safari/537.36 Edg/84.0.522.52",69,"[0.9, 0.5, 0.1]","[0.8, 0.4, 0.2]","[u'red', u'black', u'blue']","[u'left', u'middle', u'right']","[0.9, 0.5, 0.1]","[u'high', u'medium', u'low']","black",50,"middle","medium","False","False",292,3900,NA
"A36DK84J5YJ942","Fri Sep 18 2020 10:22:20 GMT-0500 (Central Daylight Time)","Fri Sep 18 2020 10:34:29 GMT-0500 (Central Daylight Time)","Mozilla/5.0 (Windows NT 10.0; Win64; x64) AppleWebKit/537.36 (KHTML, like Gecko) Chrome/84.0.4147.105 Safari/537.36 Edg/84.0.522.52",70,"[0.9, 0.5, 0.1]","[0.8, 0.4, 0.2]","[u'red', u'black', u'blue']","[u'left', u'middle', u'right']","[0.9, 0.5, 0.1]","[u'high', u'medium', u'low']","red",49,"left","high","True","False",258,4000,NA
"A36DK84J5YJ942","Fri Sep 18 2020 10:22:20 GMT-0500 (Central Daylight Time)","Fri Sep 18 2020 10:34:29 GMT-0500 (Central Daylight Time)","Mozilla/5.0 (Windows NT 10.0; Win64; x64) AppleWebKit/537.36 (KHTML, like Gecko) Chrome/84.0.4147.105 Safari/537.36 Edg/84.0.522.52",71,"[0.9, 0.5, 0.1]","[0.8, 0.4, 0.2]","[u'red', u'black', u'blue']","[u'left', u'middle', u'right']","[0.9, 0.5, 0.1]","[u'high', u'medium', u'low']","red",49,"left","high","True","False",258,4100,NA
"A36DK84J5YJ942","Fri Sep 18 2020 10:22:20 GMT-0500 (Central Daylight Time)","Fri Sep 18 2020 10:34:29 GMT-0500 (Central Daylight Time)","Mozilla/5.0 (Windows NT 10.0; Win64; x64) AppleWebKit/537.36 (KHTML, like Gecko) Chrome/84.0.4147.105 Safari/537.36 Edg/84.0.522.52",72,"[0.9, 0.5, 0.1]","[0.8, 0.4, 0.2]","[u'red', u'black', u'blue']","[u'left', u'middle', u'right']","[0.9, 0.5, 0.1]","[u'high', u'medium', u'low']","red",49,"left","high","True","False",243,4200,NA
"A36DK84J5YJ942","Fri Sep 18 2020 10:22:20 GMT-0500 (Central Daylight Time)","Fri Sep 18 2020 10:34:29 GMT-0500 (Central Daylight Time)","Mozilla/5.0 (Windows NT 10.0; Win64; x64) AppleWebKit/537.36 (KHTML, like Gecko) Chrome/84.0.4147.105 Safari/537.36 Edg/84.0.522.52",73,"[0.9, 0.5, 0.1]","[0.8, 0.4, 0.2]","[u'red', u'black', u'blue']","[u'left', u'middle', u'right']","[0.9, 0.5, 0.1]","[u'high', u'medium', u'low']","red",49,"left","high","True","False",290,4300,NA
"A36DK84J5YJ942","Fri Sep 18 2020 10:22:20 GMT-0500 (Central Daylight Time)","Fri Sep 18 2020 10:34:29 GMT-0500 (Central Daylight Time)","Mozilla/5.0 (Windows NT 10.0; Win64; x64) AppleWebKit/537.36 (KHTML, like Gecko) Chrome/84.0.4147.105 Safari/537.36 Edg/84.0.522.52",74,"[0.9, 0.5, 0.1]","[0.8, 0.4, 0.2]","[u'red', u'black', u'blue']","[u'left', u'middle', u'right']","[0.9, 0.5, 0.1]","[u'high', u'medium', u'low']","red",49,"left","high","False","False",250,4250,NA
"A36DK84J5YJ942","Fri Sep 18 2020 10:22:20 GMT-0500 (Central Daylight Time)","Fri Sep 18 2020 10:34:29 GMT-0500 (Central Daylight Time)","Mozilla/5.0 (Windows NT 10.0; Win64; x64) AppleWebKit/537.36 (KHTML, like Gecko) Chrome/84.0.4147.105 Safari/537.36 Edg/84.0.522.52",75,"[0.9, 0.5, 0.1]","[0.8, 0.4, 0.2]","[u'red', u'black', u'blue']","[u'left', u'middle', u'right']","[0.9, 0.5, 0.1]","[u'high', u'medium', u'low']","blue",51,"right","low","False","False",235,4200,NA
"A36DK84J5YJ942","Fri Sep 18 2020 10:22:20 GMT-0500 (Central Daylight Time)","Fri Sep 18 2020 10:34:29 GMT-0500 (Central Daylight Time)","Mozilla/5.0 (Windows NT 10.0; Win64; x64) AppleWebKit/537.36 (KHTML, like Gecko) Chrome/84.0.4147.105 Safari/537.36 Edg/84.0.522.52",76,"[0.9, 0.5, 0.1]","[0.8, 0.4, 0.2]","[u'red', u'black', u'blue']","[u'left', u'middle', u'right']","[0.9, 0.5, 0.1]","[u'high', u'medium', u'low']","black",50,"middle","medium","False","False",234,4150,NA
"A36DK84J5YJ942","Fri Sep 18 2020 10:22:20 GMT-0500 (Central Daylight Time)","Fri Sep 18 2020 10:34:29 GMT-0500 (Central Daylight Time)","Mozilla/5.0 (Windows NT 10.0; Win64; x64) AppleWebKit/537.36 (KHTML, like Gecko) Chrome/84.0.4147.105 Safari/537.36 Edg/84.0.522.52",77,"[0.9, 0.5, 0.1]","[0.8, 0.4, 0.2]","[u'red', u'black', u'blue']","[u'left', u'middle', u'right']","[0.9, 0.5, 0.1]","[u'high', u'medium', u'low']","red",49,"left","high","True","False",219,4250,NA
"A36DK84J5YJ942","Fri Sep 18 2020 10:22:20 GMT-0500 (Central Daylight Time)","Fri Sep 18 2020 10:34:29 GMT-0500 (Central Daylight Time)","Mozilla/5.0 (Windows NT 10.0; Win64; x64) AppleWebKit/537.36 (KHTML, like Gecko) Chrome/84.0.4147.105 Safari/537.36 Edg/84.0.522.52",78,"[0.9, 0.5, 0.1]","[0.8, 0.4, 0.2]","[u'red', u'black', u'blue']","[u'left', u'middle', u'right']","[0.9, 0.5, 0.1]","[u'high', u'medium', u'low']","red",49,"left","high","True","False",242,4350,NA
"A36DK84J5YJ942","Fri Sep 18 2020 10:22:20 GMT-0500 (Central Daylight Time)","Fri Sep 18 2020 10:34:29 GMT-0500 (Central Daylight Time)","Mozilla/5.0 (Windows NT 10.0; Win64; x64) AppleWebKit/537.36 (KHTML, like Gecko) Chrome/84.0.4147.105 Safari/537.36 Edg/84.0.522.52",79,"[0.9, 0.5, 0.1]","[0.8, 0.4, 0.2]","[u'red', u'black', u'blue']","[u'left', u'middle', u'right']","[0.9, 0.5, 0.1]","[u'high', u'medium', u'low']","red",49,"left","high","True","False",258,4450,NA
"A36DK84J5YJ942","Fri Sep 18 2020 10:22:20 GMT-0500 (Central Daylight Time)","Fri Sep 18 2020 10:34:29 GMT-0500 (Central Daylight Time)","Mozilla/5.0 (Windows NT 10.0; Win64; x64) AppleWebKit/537.36 (KHTML, like Gecko) Chrome/84.0.4147.105 Safari/537.36 Edg/84.0.522.52",80,"[0.9, 0.5, 0.1]","[0.8, 0.4, 0.2]","[u'red', u'black', u'blue']","[u'left', u'middle', u'right']","[0.9, 0.5, 0.1]","[u'high', u'medium', u'low']","red",49,"left","high","True","False",266,4550,NA
"A36DK84J5YJ942","Fri Sep 18 2020 10:22:20 GMT-0500 (Central Daylight Time)","Fri Sep 18 2020 10:34:29 GMT-0500 (Central Daylight Time)","Mozilla/5.0 (Windows NT 10.0; Win64; x64) AppleWebKit/537.36 (KHTML, like Gecko) Chrome/84.0.4147.105 Safari/537.36 Edg/84.0.522.52",81,"[0.9, 0.5, 0.1]","[0.8, 0.4, 0.2]","[u'red', u'black', u'blue']","[u'left', u'middle', u'right']","[0.8, 0.4, 0.2]","[u'medium', u'low', u'high']","red",49,"left","medium","False","False",284,4500,NA
"A36DK84J5YJ942","Fri Sep 18 2020 10:22:20 GMT-0500 (Central Daylight Time)","Fri Sep 18 2020 10:34:29 GMT-0500 (Central Daylight Time)","Mozilla/5.0 (Windows NT 10.0; Win64; x64) AppleWebKit/537.36 (KHTML, like Gecko) Chrome/84.0.4147.105 Safari/537.36 Edg/84.0.522.52",82,"[0.9, 0.5, 0.1]","[0.8, 0.4, 0.2]","[u'red', u'black', u'blue']","[u'left', u'middle', u'right']","[0.8, 0.4, 0.2]","[u'medium', u'low', u'high']","red",49,"left","medium","False","False",457,4450,NA
"A36DK84J5YJ942","Fri Sep 18 2020 10:22:20 GMT-0500 (Central Daylight Time)","Fri Sep 18 2020 10:34:29 GMT-0500 (Central Daylight Time)","Mozilla/5.0 (Windows NT 10.0; Win64; x64) AppleWebKit/537.36 (KHTML, like Gecko) Chrome/84.0.4147.105 Safari/537.36 Edg/84.0.522.52",83,"[0.9, 0.5, 0.1]","[0.8, 0.4, 0.2]","[u'red', u'black', u'blue']","[u'left', u'middle', u'right']","[0.8, 0.4, 0.2]","[u'medium', u'low', u'high']","black",50,"middle","low","True","False",154,4550,NA
"A36DK84J5YJ942","Fri Sep 18 2020 10:22:20 GMT-0500 (Central Daylight Time)","Fri Sep 18 2020 10:34:29 GMT-0500 (Central Daylight Time)","Mozilla/5.0 (Windows NT 10.0; Win64; x64) AppleWebKit/537.36 (KHTML, like Gecko) Chrome/84.0.4147.105 Safari/537.36 Edg/84.0.522.52",84,"[0.9, 0.5, 0.1]","[0.8, 0.4, 0.2]","[u'red', u'black', u'blue']","[u'left', u'middle', u'right']","[0.8, 0.4, 0.2]","[u'medium', u'low', u'high']","red",49,"left","medium","False","False",615,4500,NA
"A36DK84J5YJ942","Fri Sep 18 2020 10:22:20 GMT-0500 (Central Daylight Time)","Fri Sep 18 2020 10:34:29 GMT-0500 (Central Daylight Time)","Mozilla/5.0 (Windows NT 10.0; Win64; x64) AppleWebKit/537.36 (KHTML, like Gecko) Chrome/84.0.4147.105 Safari/537.36 Edg/84.0.522.52",85,"[0.9, 0.5, 0.1]","[0.8, 0.4, 0.2]","[u'red', u'black', u'blue']","[u'left', u'middle', u'right']","[0.8, 0.4, 0.2]","[u'medium', u'low', u'high']","black",50,"middle","low","False","False",310,4450,NA
"A36DK84J5YJ942","Fri Sep 18 2020 10:22:20 GMT-0500 (Central Daylight Time)","Fri Sep 18 2020 10:34:29 GMT-0500 (Central Daylight Time)","Mozilla/5.0 (Windows NT 10.0; Win64; x64) AppleWebKit/537.36 (KHTML, like Gecko) Chrome/84.0.4147.105 Safari/537.36 Edg/84.0.522.52",86,"[0.9, 0.5, 0.1]","[0.8, 0.4, 0.2]","[u'red', u'black', u'blue']","[u'left', u'middle', u'right']","[0.8, 0.4, 0.2]","[u'medium', u'low', u'high']","blue",51,"right","high","False","False",283,4400,NA
"A36DK84J5YJ942","Fri Sep 18 2020 10:22:20 GMT-0500 (Central Daylight Time)","Fri Sep 18 2020 10:34:29 GMT-0500 (Central Daylight Time)","Mozilla/5.0 (Windows NT 10.0; Win64; x64) AppleWebKit/537.36 (KHTML, like Gecko) Chrome/84.0.4147.105 Safari/537.36 Edg/84.0.522.52",87,"[0.9, 0.5, 0.1]","[0.8, 0.4, 0.2]","[u'red', u'black', u'blue']","[u'left', u'middle', u'right']","[0.8, 0.4, 0.2]","[u'medium', u'low', u'high']","red",49,"left","medium","False","False",59,4350,NA
"A36DK84J5YJ942","Fri Sep 18 2020 10:22:20 GMT-0500 (Central Daylight Time)","Fri Sep 18 2020 10:34:29 GMT-0500 (Central Daylight Time)","Mozilla/5.0 (Windows NT 10.0; Win64; x64) AppleWebKit/537.36 (KHTML, like Gecko) Chrome/84.0.4147.105 Safari/537.36 Edg/84.0.522.52",88,"[0.9, 0.5, 0.1]","[0.8, 0.4, 0.2]","[u'red', u'black', u'blue']","[u'left', u'middle', u'right']","[0.8, 0.4, 0.2]","[u'medium', u'low', u'high']","black",50,"middle","low","False","False",258,4300,NA
"A36DK84J5YJ942","Fri Sep 18 2020 10:22:20 GMT-0500 (Central Daylight Time)","Fri Sep 18 2020 10:34:29 GMT-0500 (Central Daylight Time)","Mozilla/5.0 (Windows NT 10.0; Win64; x64) AppleWebKit/537.36 (KHTML, like Gecko) Chrome/84.0.4147.105 Safari/537.36 Edg/84.0.522.52",89,"[0.9, 0.5, 0.1]","[0.8, 0.4, 0.2]","[u'red', u'black', u'blue']","[u'left', u'middle', u'right']","[0.8, 0.4, 0.2]","[u'medium', u'low', u'high']","red",49,"left","medium","False","False",99,4250,NA
"A36DK84J5YJ942","Fri Sep 18 2020 10:22:20 GMT-0500 (Central Daylight Time)","Fri Sep 18 2020 10:34:29 GMT-0500 (Central Daylight Time)","Mozilla/5.0 (Windows NT 10.0; Win64; x64) AppleWebKit/537.36 (KHTML, like Gecko) Chrome/84.0.4147.105 Safari/537.36 Edg/84.0.522.52",90,"[0.9, 0.5, 0.1]","[0.8, 0.4, 0.2]","[u'red', u'black', u'blue']","[u'left', u'middle', u'right']","[0.8, 0.4, 0.2]","[u'medium', u'low', u'high']","blue",51,"right","high","True","False",260,4350,NA
"A36DK84J5YJ942","Fri Sep 18 2020 10:22:20 GMT-0500 (Central Daylight Time)","Fri Sep 18 2020 10:34:29 GMT-0500 (Central Daylight Time)","Mozilla/5.0 (Windows NT 10.0; Win64; x64) AppleWebKit/537.36 (KHTML, like Gecko) Chrome/84.0.4147.105 Safari/537.36 Edg/84.0.522.52",91,"[0.9, 0.5, 0.1]","[0.8, 0.4, 0.2]","[u'red', u'black', u'blue']","[u'left', u'middle', u'right']","[0.8, 0.4, 0.2]","[u'medium', u'low', u'high']","blue",51,"right","high","True","False",242,4450,NA
"A36DK84J5YJ942","Fri Sep 18 2020 10:22:20 GMT-0500 (Central Daylight Time)","Fri Sep 18 2020 10:34:29 GMT-0500 (Central Daylight Time)","Mozilla/5.0 (Windows NT 10.0; Win64; x64) AppleWebKit/537.36 (KHTML, like Gecko) Chrome/84.0.4147.105 Safari/537.36 Edg/84.0.522.52",92,"[0.9, 0.5, 0.1]","[0.8, 0.4, 0.2]","[u'red', u'black', u'blue']","[u'left', u'middle', u'right']","[0.8, 0.4, 0.2]","[u'medium', u'low', u'high']","blue",51,"right","high","True","False",231,4550,NA
"A36DK84J5YJ942","Fri Sep 18 2020 10:22:20 GMT-0500 (Central Daylight Time)","Fri Sep 18 2020 10:34:29 GMT-0500 (Central Daylight Time)","Mozilla/5.0 (Windows NT 10.0; Win64; x64) AppleWebKit/537.36 (KHTML, like Gecko) Chrome/84.0.4147.105 Safari/537.36 Edg/84.0.522.52",93,"[0.9, 0.5, 0.1]","[0.8, 0.4, 0.2]","[u'red', u'black', u'blue']","[u'left', u'middle', u'right']","[0.8, 0.4, 0.2]","[u'medium', u'low', u'high']","blue",51,"right","high","True","False",263,4650,NA
"A36DK84J5YJ942","Fri Sep 18 2020 10:22:20 GMT-0500 (Central Daylight Time)","Fri Sep 18 2020 10:34:29 GMT-0500 (Central Daylight Time)","Mozilla/5.0 (Windows NT 10.0; Win64; x64) AppleWebKit/537.36 (KHTML, like Gecko) Chrome/84.0.4147.105 Safari/537.36 Edg/84.0.522.52",94,"[0.9, 0.5, 0.1]","[0.8, 0.4, 0.2]","[u'red', u'black', u'blue']","[u'left', u'middle', u'right']","[0.8, 0.4, 0.2]","[u'medium', u'low', u'high']","blue",51,"right","high","False","False",1251,4600,NA
"A36DK84J5YJ942","Fri Sep 18 2020 10:22:20 GMT-0500 (Central Daylight Time)","Fri Sep 18 2020 10:34:29 GMT-0500 (Central Daylight Time)","Mozilla/5.0 (Windows NT 10.0; Win64; x64) AppleWebKit/537.36 (KHTML, like Gecko) Chrome/84.0.4147.105 Safari/537.36 Edg/84.0.522.52",95,"[0.9, 0.5, 0.1]","[0.8, 0.4, 0.2]","[u'red', u'black', u'blue']","[u'left', u'middle', u'right']","[0.8, 0.4, 0.2]","[u'medium', u'low', u'high']","red",49,"left","medium","True","False",314,4700,NA
"A36DK84J5YJ942","Fri Sep 18 2020 10:22:20 GMT-0500 (Central Daylight Time)","Fri Sep 18 2020 10:34:29 GMT-0500 (Central Daylight Time)","Mozilla/5.0 (Windows NT 10.0; Win64; x64) AppleWebKit/537.36 (KHTML, like Gecko) Chrome/84.0.4147.105 Safari/537.36 Edg/84.0.522.52",96,"[0.9, 0.5, 0.1]","[0.8, 0.4, 0.2]","[u'red', u'black', u'blue']","[u'left', u'middle', u'right']","[0.8, 0.4, 0.2]","[u'medium', u'low', u'high']","red",49,"left","medium","False","False",203,4650,NA
"A36DK84J5YJ942","Fri Sep 18 2020 10:22:20 GMT-0500 (Central Daylight Time)","Fri Sep 18 2020 10:34:29 GMT-0500 (Central Daylight Time)","Mozilla/5.0 (Windows NT 10.0; Win64; x64) AppleWebKit/537.36 (KHTML, like Gecko) Chrome/84.0.4147.105 Safari/537.36 Edg/84.0.522.52",97,"[0.9, 0.5, 0.1]","[0.8, 0.4, 0.2]","[u'red', u'black', u'blue']","[u'left', u'middle', u'right']","[0.8, 0.4, 0.2]","[u'medium', u'low', u'high']","black",50,"middle","low","False","False",883,4600,NA
"A36DK84J5YJ942","Fri Sep 18 2020 10:22:20 GMT-0500 (Central Daylight Time)","Fri Sep 18 2020 10:34:29 GMT-0500 (Central Daylight Time)","Mozilla/5.0 (Windows NT 10.0; Win64; x64) AppleWebKit/537.36 (KHTML, like Gecko) Chrome/84.0.4147.105 Safari/537.36 Edg/84.0.522.52",98,"[0.9, 0.5, 0.1]","[0.8, 0.4, 0.2]","[u'red', u'black', u'blue']","[u'left', u'middle', u'right']","[0.8, 0.4, 0.2]","[u'medium', u'low', u'high']","red",49,"left","medium","False","False",468,4550,NA
"A36DK84J5YJ942","Fri Sep 18 2020 10:22:20 GMT-0500 (Central Daylight Time)","Fri Sep 18 2020 10:34:29 GMT-0500 (Central Daylight Time)","Mozilla/5.0 (Windows NT 10.0; Win64; x64) AppleWebKit/537.36 (KHTML, like Gecko) Chrome/84.0.4147.105 Safari/537.36 Edg/84.0.522.52",99,"[0.9, 0.5, 0.1]","[0.8, 0.4, 0.2]","[u'red', u'black', u'blue']","[u'left', u'middle', u'right']","[0.8, 0.4, 0.2]","[u'medium', u'low', u'high']","blue",51,"right","high","True","False",249,4650,NA
"A36DK84J5YJ942","Fri Sep 18 2020 10:22:20 GMT-0500 (Central Daylight Time)","Fri Sep 18 2020 10:34:29 GMT-0500 (Central Daylight Time)","Mozilla/5.0 (Windows NT 10.0; Win64; x64) AppleWebKit/537.36 (KHTML, like Gecko) Chrome/84.0.4147.105 Safari/537.36 Edg/84.0.522.52",100,"[0.9, 0.5, 0.1]","[0.8, 0.4, 0.2]","[u'red', u'black', u'blue']","[u'left', u'middle', u'right']","[0.8, 0.4, 0.2]","[u'medium', u'low', u'high']","blue",51,"right","high","True","False",322,4750,NA
"A36DK84J5YJ942","Fri Sep 18 2020 10:22:20 GMT-0500 (Central Daylight Time)","Fri Sep 18 2020 10:34:29 GMT-0500 (Central Daylight Time)","Mozilla/5.0 (Windows NT 10.0; Win64; x64) AppleWebKit/537.36 (KHTML, like Gecko) Chrome/84.0.4147.105 Safari/537.36 Edg/84.0.522.52",101,"[0.9, 0.5, 0.1]","[0.8, 0.4, 0.2]","[u'red', u'black', u'blue']","[u'left', u'middle', u'right']","[0.8, 0.4, 0.2]","[u'medium', u'low', u'high']","blue",51,"right","high","True","False",258,4850,NA
"A36DK84J5YJ942","Fri Sep 18 2020 10:22:20 GMT-0500 (Central Daylight Time)","Fri Sep 18 2020 10:34:29 GMT-0500 (Central Daylight Time)","Mozilla/5.0 (Windows NT 10.0; Win64; x64) AppleWebKit/537.36 (KHTML, like Gecko) Chrome/84.0.4147.105 Safari/537.36 Edg/84.0.522.52",102,"[0.9, 0.5, 0.1]","[0.8, 0.4, 0.2]","[u'red', u'black', u'blue']","[u'left', u'middle', u'right']","[0.8, 0.4, 0.2]","[u'medium', u'low', u'high']","blue",51,"right","high","True","False",1377,4950,NA
"A36DK84J5YJ942","Fri Sep 18 2020 10:22:20 GMT-0500 (Central Daylight Time)","Fri Sep 18 2020 10:34:29 GMT-0500 (Central Daylight Time)","Mozilla/5.0 (Windows NT 10.0; Win64; x64) AppleWebKit/537.36 (KHTML, like Gecko) Chrome/84.0.4147.105 Safari/537.36 Edg/84.0.522.52",103,"[0.9, 0.5, 0.1]","[0.8, 0.4, 0.2]","[u'red', u'black', u'blue']","[u'left', u'middle', u'right']","[0.8, 0.4, 0.2]","[u'medium', u'low', u'high']","blue",51,"right","high","True","False",1100,5050,NA
"A36DK84J5YJ942","Fri Sep 18 2020 10:22:20 GMT-0500 (Central Daylight Time)","Fri Sep 18 2020 10:34:29 GMT-0500 (Central Daylight Time)","Mozilla/5.0 (Windows NT 10.0; Win64; x64) AppleWebKit/537.36 (KHTML, like Gecko) Chrome/84.0.4147.105 Safari/537.36 Edg/84.0.522.52",104,"[0.9, 0.5, 0.1]","[0.8, 0.4, 0.2]","[u'red', u'black', u'blue']","[u'left', u'middle', u'right']","[0.8, 0.4, 0.2]","[u'medium', u'low', u'high']","blue",51,"right","high","True","False",1622,5150,NA
"A36DK84J5YJ942","Fri Sep 18 2020 10:22:20 GMT-0500 (Central Daylight Time)","Fri Sep 18 2020 10:34:29 GMT-0500 (Central Daylight Time)","Mozilla/5.0 (Windows NT 10.0; Win64; x64) AppleWebKit/537.36 (KHTML, like Gecko) Chrome/84.0.4147.105 Safari/537.36 Edg/84.0.522.52",105,"[0.9, 0.5, 0.1]","[0.8, 0.4, 0.2]","[u'red', u'black', u'blue']","[u'left', u'middle', u'right']","[0.8, 0.4, 0.2]","[u'medium', u'low', u'high']","blue",51,"right","high","False","False",192,5100,NA
"A36DK84J5YJ942","Fri Sep 18 2020 10:22:20 GMT-0500 (Central Daylight Time)","Fri Sep 18 2020 10:34:29 GMT-0500 (Central Daylight Time)","Mozilla/5.0 (Windows NT 10.0; Win64; x64) AppleWebKit/537.36 (KHTML, like Gecko) Chrome/84.0.4147.105 Safari/537.36 Edg/84.0.522.52",106,"[0.9, 0.5, 0.1]","[0.8, 0.4, 0.2]","[u'red', u'black', u'blue']","[u'left', u'middle', u'right']","[0.8, 0.4, 0.2]","[u'medium', u'low', u'high']","red",49,"left","medium","True","False",387,5200,NA
"A36DK84J5YJ942","Fri Sep 18 2020 10:22:20 GMT-0500 (Central Daylight Time)","Fri Sep 18 2020 10:34:29 GMT-0500 (Central Daylight Time)","Mozilla/5.0 (Windows NT 10.0; Win64; x64) AppleWebKit/537.36 (KHTML, like Gecko) Chrome/84.0.4147.105 Safari/537.36 Edg/84.0.522.52",107,"[0.9, 0.5, 0.1]","[0.8, 0.4, 0.2]","[u'red', u'black', u'blue']","[u'left', u'middle', u'right']","[0.8, 0.4, 0.2]","[u'medium', u'low', u'high']","red",49,"left","medium","False","False",450,5150,NA
"A36DK84J5YJ942","Fri Sep 18 2020 10:22:20 GMT-0500 (Central Daylight Time)","Fri Sep 18 2020 10:34:29 GMT-0500 (Central Daylight Time)","Mozilla/5.0 (Windows NT 10.0; Win64; x64) AppleWebKit/537.36 (KHTML, like Gecko) Chrome/84.0.4147.105 Safari/537.36 Edg/84.0.522.52",108,"[0.9, 0.5, 0.1]","[0.8, 0.4, 0.2]","[u'red', u'black', u'blue']","[u'left', u'middle', u'right']","[0.8, 0.4, 0.2]","[u'medium', u'low', u'high']","black",50,"middle","low","True","False",1091,5250,NA
"A36DK84J5YJ942","Fri Sep 18 2020 10:22:20 GMT-0500 (Central Daylight Time)","Fri Sep 18 2020 10:34:29 GMT-0500 (Central Daylight Time)","Mozilla/5.0 (Windows NT 10.0; Win64; x64) AppleWebKit/537.36 (KHTML, like Gecko) Chrome/84.0.4147.105 Safari/537.36 Edg/84.0.522.52",109,"[0.9, 0.5, 0.1]","[0.8, 0.4, 0.2]","[u'red', u'black', u'blue']","[u'left', u'middle', u'right']","[0.8, 0.4, 0.2]","[u'medium', u'low', u'high']","black",50,"middle","low","False","False",300,5200,NA
"A36DK84J5YJ942","Fri Sep 18 2020 10:22:20 GMT-0500 (Central Daylight Time)","Fri Sep 18 2020 10:34:29 GMT-0500 (Central Daylight Time)","Mozilla/5.0 (Windows NT 10.0; Win64; x64) AppleWebKit/537.36 (KHTML, like Gecko) Chrome/84.0.4147.105 Safari/537.36 Edg/84.0.522.52",110,"[0.9, 0.5, 0.1]","[0.8, 0.4, 0.2]","[u'red', u'black', u'blue']","[u'left', u'middle', u'right']","[0.8, 0.4, 0.2]","[u'medium', u'low', u'high']","red",49,"left","medium","False","False",329,5150,NA
"A36DK84J5YJ942","Fri Sep 18 2020 10:22:20 GMT-0500 (Central Daylight Time)","Fri Sep 18 2020 10:34:29 GMT-0500 (Central Daylight Time)","Mozilla/5.0 (Windows NT 10.0; Win64; x64) AppleWebKit/537.36 (KHTML, like Gecko) Chrome/84.0.4147.105 Safari/537.36 Edg/84.0.522.52",111,"[0.9, 0.5, 0.1]","[0.8, 0.4, 0.2]","[u'red', u'black', u'blue']","[u'left', u'middle', u'right']","[0.8, 0.4, 0.2]","[u'medium', u'low', u'high']","red",49,"left","medium","True","False",1488,5250,NA
"A36DK84J5YJ942","Fri Sep 18 2020 10:22:20 GMT-0500 (Central Daylight Time)","Fri Sep 18 2020 10:34:29 GMT-0500 (Central Daylight Time)","Mozilla/5.0 (Windows NT 10.0; Win64; x64) AppleWebKit/537.36 (KHTML, like Gecko) Chrome/84.0.4147.105 Safari/537.36 Edg/84.0.522.52",112,"[0.9, 0.5, 0.1]","[0.8, 0.4, 0.2]","[u'red', u'black', u'blue']","[u'left', u'middle', u'right']","[0.8, 0.4, 0.2]","[u'medium', u'low', u'high']","red",49,"left","medium","True","False",318,5350,NA
"A36DK84J5YJ942","Fri Sep 18 2020 10:22:20 GMT-0500 (Central Daylight Time)","Fri Sep 18 2020 10:34:29 GMT-0500 (Central Daylight Time)","Mozilla/5.0 (Windows NT 10.0; Win64; x64) AppleWebKit/537.36 (KHTML, like Gecko) Chrome/84.0.4147.105 Safari/537.36 Edg/84.0.522.52",113,"[0.9, 0.5, 0.1]","[0.8, 0.4, 0.2]","[u'red', u'black', u'blue']","[u'left', u'middle', u'right']","[0.8, 0.4, 0.2]","[u'medium', u'low', u'high']","red",49,"left","medium","True","False",979,5450,NA
"A36DK84J5YJ942","Fri Sep 18 2020 10:22:20 GMT-0500 (Central Daylight Time)","Fri Sep 18 2020 10:34:29 GMT-0500 (Central Daylight Time)","Mozilla/5.0 (Windows NT 10.0; Win64; x64) AppleWebKit/537.36 (KHTML, like Gecko) Chrome/84.0.4147.105 Safari/537.36 Edg/84.0.522.52",114,"[0.9, 0.5, 0.1]","[0.8, 0.4, 0.2]","[u'red', u'black', u'blue']","[u'left', u'middle', u'right']","[0.8, 0.4, 0.2]","[u'medium', u'low', u'high']","red",49,"left","medium","False","False",419,5400,NA
"A36DK84J5YJ942","Fri Sep 18 2020 10:22:20 GMT-0500 (Central Daylight Time)","Fri Sep 18 2020 10:34:29 GMT-0500 (Central Daylight Time)","Mozilla/5.0 (Windows NT 10.0; Win64; x64) AppleWebKit/537.36 (KHTML, like Gecko) Chrome/84.0.4147.105 Safari/537.36 Edg/84.0.522.52",115,"[0.9, 0.5, 0.1]","[0.8, 0.4, 0.2]","[u'red', u'black', u'blue']","[u'left', u'middle', u'right']","[0.8, 0.4, 0.2]","[u'medium', u'low', u'high']","blue",51,"right","high","True","False",426,5500,NA
"A36DK84J5YJ942","Fri Sep 18 2020 10:22:20 GMT-0500 (Central Daylight Time)","Fri Sep 18 2020 10:34:29 GMT-0500 (Central Daylight Time)","Mozilla/5.0 (Windows NT 10.0; Win64; x64) AppleWebKit/537.36 (KHTML, like Gecko) Chrome/84.0.4147.105 Safari/537.36 Edg/84.0.522.52",116,"[0.9, 0.5, 0.1]","[0.8, 0.4, 0.2]","[u'red', u'black', u'blue']","[u'left', u'middle', u'right']","[0.8, 0.4, 0.2]","[u'medium', u'low', u'high']","blue",51,"right","high","False","False",722,5450,NA
"A36DK84J5YJ942","Fri Sep 18 2020 10:22:20 GMT-0500 (Central Daylight Time)","Fri Sep 18 2020 10:34:29 GMT-0500 (Central Daylight Time)","Mozilla/5.0 (Windows NT 10.0; Win64; x64) AppleWebKit/537.36 (KHTML, like Gecko) Chrome/84.0.4147.105 Safari/537.36 Edg/84.0.522.52",117,"[0.9, 0.5, 0.1]","[0.8, 0.4, 0.2]","[u'red', u'black', u'blue']","[u'left', u'middle', u'right']","[0.8, 0.4, 0.2]","[u'medium', u'low', u'high']","red",49,"left","medium","False","False",1107,5400,NA
"A36DK84J5YJ942","Fri Sep 18 2020 10:22:20 GMT-0500 (Central Daylight Time)","Fri Sep 18 2020 10:34:29 GMT-0500 (Central Daylight Time)","Mozilla/5.0 (Windows NT 10.0; Win64; x64) AppleWebKit/537.36 (KHTML, like Gecko) Chrome/84.0.4147.105 Safari/537.36 Edg/84.0.522.52",118,"[0.9, 0.5, 0.1]","[0.8, 0.4, 0.2]","[u'red', u'black', u'blue']","[u'left', u'middle', u'right']","[0.8, 0.4, 0.2]","[u'medium', u'low', u'high']","black",50,"middle","low","False","False",244,5350,NA
"A36DK84J5YJ942","Fri Sep 18 2020 10:22:20 GMT-0500 (Central Daylight Time)","Fri Sep 18 2020 10:34:29 GMT-0500 (Central Daylight Time)","Mozilla/5.0 (Windows NT 10.0; Win64; x64) AppleWebKit/537.36 (KHTML, like Gecko) Chrome/84.0.4147.105 Safari/537.36 Edg/84.0.522.52",119,"[0.9, 0.5, 0.1]","[0.8, 0.4, 0.2]","[u'red', u'black', u'blue']","[u'left', u'middle', u'right']","[0.8, 0.4, 0.2]","[u'medium', u'low', u'high']","red",49,"left","medium","True","False",28,5450,NA
"A36DK84J5YJ942","Fri Sep 18 2020 10:22:20 GMT-0500 (Central Daylight Time)","Fri Sep 18 2020 10:34:29 GMT-0500 (Central Daylight Time)","Mozilla/5.0 (Windows NT 10.0; Win64; x64) AppleWebKit/537.36 (KHTML, like Gecko) Chrome/84.0.4147.105 Safari/537.36 Edg/84.0.522.52",120,"[0.9, 0.5, 0.1]","[0.8, 0.4, 0.2]","[u'red', u'black', u'blue']","[u'left', u'middle', u'right']","[0.8, 0.4, 0.2]","[u'medium', u'low', u'high']","red",49,"left","medium","False","False",196,5400,NA
"A36DK84J5YJ942","Fri Sep 18 2020 10:22:20 GMT-0500 (Central Daylight Time)","Fri Sep 18 2020 10:34:29 GMT-0500 (Central Daylight Time)","Mozilla/5.0 (Windows NT 10.0; Win64; x64) AppleWebKit/537.36 (KHTML, like Gecko) Chrome/84.0.4147.105 Safari/537.36 Edg/84.0.522.52",121,"[0.9, 0.5, 0.1]","[0.8, 0.4, 0.2]","[u'red', u'black', u'blue']","[u'left', u'middle', u'right']","[0.8, 0.4, 0.2]","[u'low', u'high', u'medium']","red",49,"left","low","False","False",282,5350,NA
"A36DK84J5YJ942","Fri Sep 18 2020 10:22:20 GMT-0500 (Central Daylight Time)","Fri Sep 18 2020 10:34:29 GMT-0500 (Central Daylight Time)","Mozilla/5.0 (Windows NT 10.0; Win64; x64) AppleWebKit/537.36 (KHTML, like Gecko) Chrome/84.0.4147.105 Safari/537.36 Edg/84.0.522.52",122,"[0.9, 0.5, 0.1]","[0.8, 0.4, 0.2]","[u'red', u'black', u'blue']","[u'left', u'middle', u'right']","[0.8, 0.4, 0.2]","[u'low', u'high', u'medium']","blue",51,"right","medium","True","False",203,5450,NA
"A36DK84J5YJ942","Fri Sep 18 2020 10:22:20 GMT-0500 (Central Daylight Time)","Fri Sep 18 2020 10:34:29 GMT-0500 (Central Daylight Time)","Mozilla/5.0 (Windows NT 10.0; Win64; x64) AppleWebKit/537.36 (KHTML, like Gecko) Chrome/84.0.4147.105 Safari/537.36 Edg/84.0.522.52",123,"[0.9, 0.5, 0.1]","[0.8, 0.4, 0.2]","[u'red', u'black', u'blue']","[u'left', u'middle', u'right']","[0.8, 0.4, 0.2]","[u'low', u'high', u'medium']","blue",51,"right","medium","True","False",204,5550,NA
"A36DK84J5YJ942","Fri Sep 18 2020 10:22:20 GMT-0500 (Central Daylight Time)","Fri Sep 18 2020 10:34:29 GMT-0500 (Central Daylight Time)","Mozilla/5.0 (Windows NT 10.0; Win64; x64) AppleWebKit/537.36 (KHTML, like Gecko) Chrome/84.0.4147.105 Safari/537.36 Edg/84.0.522.52",124,"[0.9, 0.5, 0.1]","[0.8, 0.4, 0.2]","[u'red', u'black', u'blue']","[u'left', u'middle', u'right']","[0.8, 0.4, 0.2]","[u'low', u'high', u'medium']","blue",51,"right","medium","False","False",323,5500,NA
"A36DK84J5YJ942","Fri Sep 18 2020 10:22:20 GMT-0500 (Central Daylight Time)","Fri Sep 18 2020 10:34:29 GMT-0500 (Central Daylight Time)","Mozilla/5.0 (Windows NT 10.0; Win64; x64) AppleWebKit/537.36 (KHTML, like Gecko) Chrome/84.0.4147.105 Safari/537.36 Edg/84.0.522.52",125,"[0.9, 0.5, 0.1]","[0.8, 0.4, 0.2]","[u'red', u'black', u'blue']","[u'left', u'middle', u'right']","[0.8, 0.4, 0.2]","[u'low', u'high', u'medium']","black",50,"middle","high","False","False",521,5450,NA
"A36DK84J5YJ942","Fri Sep 18 2020 10:22:20 GMT-0500 (Central Daylight Time)","Fri Sep 18 2020 10:34:29 GMT-0500 (Central Daylight Time)","Mozilla/5.0 (Windows NT 10.0; Win64; x64) AppleWebKit/537.36 (KHTML, like Gecko) Chrome/84.0.4147.105 Safari/537.36 Edg/84.0.522.52",126,"[0.9, 0.5, 0.1]","[0.8, 0.4, 0.2]","[u'red', u'black', u'blue']","[u'left', u'middle', u'right']","[0.8, 0.4, 0.2]","[u'low', u'high', u'medium']","red",49,"left","low","False","False",828,5400,NA
"A36DK84J5YJ942","Fri Sep 18 2020 10:22:20 GMT-0500 (Central Daylight Time)","Fri Sep 18 2020 10:34:29 GMT-0500 (Central Daylight Time)","Mozilla/5.0 (Windows NT 10.0; Win64; x64) AppleWebKit/537.36 (KHTML, like Gecko) Chrome/84.0.4147.105 Safari/537.36 Edg/84.0.522.52",127,"[0.9, 0.5, 0.1]","[0.8, 0.4, 0.2]","[u'red', u'black', u'blue']","[u'left', u'middle', u'right']","[0.8, 0.4, 0.2]","[u'low', u'high', u'medium']","black",50,"middle","high","True","False",292,5500,NA
"A36DK84J5YJ942","Fri Sep 18 2020 10:22:20 GMT-0500 (Central Daylight Time)","Fri Sep 18 2020 10:34:29 GMT-0500 (Central Daylight Time)","Mozilla/5.0 (Windows NT 10.0; Win64; x64) AppleWebKit/537.36 (KHTML, like Gecko) Chrome/84.0.4147.105 Safari/537.36 Edg/84.0.522.52",128,"[0.9, 0.5, 0.1]","[0.8, 0.4, 0.2]","[u'red', u'black', u'blue']","[u'left', u'middle', u'right']","[0.8, 0.4, 0.2]","[u'low', u'high', u'medium']","black",50,"middle","high","True","False",306,5600,NA
"A36DK84J5YJ942","Fri Sep 18 2020 10:22:20 GMT-0500 (Central Daylight Time)","Fri Sep 18 2020 10:34:29 GMT-0500 (Central Daylight Time)","Mozilla/5.0 (Windows NT 10.0; Win64; x64) AppleWebKit/537.36 (KHTML, like Gecko) Chrome/84.0.4147.105 Safari/537.36 Edg/84.0.522.52",129,"[0.9, 0.5, 0.1]","[0.8, 0.4, 0.2]","[u'red', u'black', u'blue']","[u'left', u'middle', u'right']","[0.8, 0.4, 0.2]","[u'low', u'high', u'medium']","black",50,"middle","high","True","False",467,5700,NA
"A36DK84J5YJ942","Fri Sep 18 2020 10:22:20 GMT-0500 (Central Daylight Time)","Fri Sep 18 2020 10:34:29 GMT-0500 (Central Daylight Time)","Mozilla/5.0 (Windows NT 10.0; Win64; x64) AppleWebKit/537.36 (KHTML, like Gecko) Chrome/84.0.4147.105 Safari/537.36 Edg/84.0.522.52",130,"[0.9, 0.5, 0.1]","[0.8, 0.4, 0.2]","[u'red', u'black', u'blue']","[u'left', u'middle', u'right']","[0.8, 0.4, 0.2]","[u'low', u'high', u'medium']","black",50,"middle","high","False","False",443,5650,NA
"A36DK84J5YJ942","Fri Sep 18 2020 10:22:20 GMT-0500 (Central Daylight Time)","Fri Sep 18 2020 10:34:29 GMT-0500 (Central Daylight Time)","Mozilla/5.0 (Windows NT 10.0; Win64; x64) AppleWebKit/537.36 (KHTML, like Gecko) Chrome/84.0.4147.105 Safari/537.36 Edg/84.0.522.52",131,"[0.9, 0.5, 0.1]","[0.8, 0.4, 0.2]","[u'red', u'black', u'blue']","[u'left', u'middle', u'right']","[0.8, 0.4, 0.2]","[u'low', u'high', u'medium']","blue",51,"right","medium","True","False",266,5750,NA
"A36DK84J5YJ942","Fri Sep 18 2020 10:22:20 GMT-0500 (Central Daylight Time)","Fri Sep 18 2020 10:34:29 GMT-0500 (Central Daylight Time)","Mozilla/5.0 (Windows NT 10.0; Win64; x64) AppleWebKit/537.36 (KHTML, like Gecko) Chrome/84.0.4147.105 Safari/537.36 Edg/84.0.522.52",132,"[0.9, 0.5, 0.1]","[0.8, 0.4, 0.2]","[u'red', u'black', u'blue']","[u'left', u'middle', u'right']","[0.8, 0.4, 0.2]","[u'low', u'high', u'medium']","blue",51,"right","medium","False","False",290,5700,NA
"A36DK84J5YJ942","Fri Sep 18 2020 10:22:20 GMT-0500 (Central Daylight Time)","Fri Sep 18 2020 10:34:29 GMT-0500 (Central Daylight Time)","Mozilla/5.0 (Windows NT 10.0; Win64; x64) AppleWebKit/537.36 (KHTML, like Gecko) Chrome/84.0.4147.105 Safari/537.36 Edg/84.0.522.52",133,"[0.9, 0.5, 0.1]","[0.8, 0.4, 0.2]","[u'red', u'black', u'blue']","[u'left', u'middle', u'right']","[0.8, 0.4, 0.2]","[u'low', u'high', u'medium']","black",50,"middle","high","False","False",387,5650,NA
"A36DK84J5YJ942","Fri Sep 18 2020 10:22:20 GMT-0500 (Central Daylight Time)","Fri Sep 18 2020 10:34:29 GMT-0500 (Central Daylight Time)","Mozilla/5.0 (Windows NT 10.0; Win64; x64) AppleWebKit/537.36 (KHTML, like Gecko) Chrome/84.0.4147.105 Safari/537.36 Edg/84.0.522.52",134,"[0.9, 0.5, 0.1]","[0.8, 0.4, 0.2]","[u'red', u'black', u'blue']","[u'left', u'middle', u'right']","[0.8, 0.4, 0.2]","[u'low', u'high', u'medium']","red",49,"left","low","False","False",259,5600,NA
"A36DK84J5YJ942","Fri Sep 18 2020 10:22:20 GMT-0500 (Central Daylight Time)","Fri Sep 18 2020 10:34:29 GMT-0500 (Central Daylight Time)","Mozilla/5.0 (Windows NT 10.0; Win64; x64) AppleWebKit/537.36 (KHTML, like Gecko) Chrome/84.0.4147.105 Safari/537.36 Edg/84.0.522.52",135,"[0.9, 0.5, 0.1]","[0.8, 0.4, 0.2]","[u'red', u'black', u'blue']","[u'left', u'middle', u'right']","[0.8, 0.4, 0.2]","[u'low', u'high', u'medium']","blue",51,"right","medium","True","False",228,5700,NA
"A36DK84J5YJ942","Fri Sep 18 2020 10:22:20 GMT-0500 (Central Daylight Time)","Fri Sep 18 2020 10:34:29 GMT-0500 (Central Daylight Time)","Mozilla/5.0 (Windows NT 10.0; Win64; x64) AppleWebKit/537.36 (KHTML, like Gecko) Chrome/84.0.4147.105 Safari/537.36 Edg/84.0.522.52",136,"[0.9, 0.5, 0.1]","[0.8, 0.4, 0.2]","[u'red', u'black', u'blue']","[u'left', u'middle', u'right']","[0.8, 0.4, 0.2]","[u'low', u'high', u'medium']","blue",51,"right","medium","False","False",395,5650,NA
"A36DK84J5YJ942","Fri Sep 18 2020 10:22:20 GMT-0500 (Central Daylight Time)","Fri Sep 18 2020 10:34:29 GMT-0500 (Central Daylight Time)","Mozilla/5.0 (Windows NT 10.0; Win64; x64) AppleWebKit/537.36 (KHTML, like Gecko) Chrome/84.0.4147.105 Safari/537.36 Edg/84.0.522.52",137,"[0.9, 0.5, 0.1]","[0.8, 0.4, 0.2]","[u'red', u'black', u'blue']","[u'left', u'middle', u'right']","[0.8, 0.4, 0.2]","[u'low', u'high', u'medium']","red",49,"left","low","False","False",251,5600,NA
"A36DK84J5YJ942","Fri Sep 18 2020 10:22:20 GMT-0500 (Central Daylight Time)","Fri Sep 18 2020 10:34:29 GMT-0500 (Central Daylight Time)","Mozilla/5.0 (Windows NT 10.0; Win64; x64) AppleWebKit/537.36 (KHTML, like Gecko) Chrome/84.0.4147.105 Safari/537.36 Edg/84.0.522.52",138,"[0.9, 0.5, 0.1]","[0.8, 0.4, 0.2]","[u'red', u'black', u'blue']","[u'left', u'middle', u'right']","[0.8, 0.4, 0.2]","[u'low', u'high', u'medium']","black",50,"middle","high","True","False",283,5700,NA
"A36DK84J5YJ942","Fri Sep 18 2020 10:22:20 GMT-0500 (Central Daylight Time)","Fri Sep 18 2020 10:34:29 GMT-0500 (Central Daylight Time)","Mozilla/5.0 (Windows NT 10.0; Win64; x64) AppleWebKit/537.36 (KHTML, like Gecko) Chrome/84.0.4147.105 Safari/537.36 Edg/84.0.522.52",139,"[0.9, 0.5, 0.1]","[0.8, 0.4, 0.2]","[u'red', u'black', u'blue']","[u'left', u'middle', u'right']","[0.8, 0.4, 0.2]","[u'low', u'high', u'medium']","black",50,"middle","high","True","False",236,5800,NA
"A36DK84J5YJ942","Fri Sep 18 2020 10:22:20 GMT-0500 (Central Daylight Time)","Fri Sep 18 2020 10:34:29 GMT-0500 (Central Daylight Time)","Mozilla/5.0 (Windows NT 10.0; Win64; x64) AppleWebKit/537.36 (KHTML, like Gecko) Chrome/84.0.4147.105 Safari/537.36 Edg/84.0.522.52",140,"[0.9, 0.5, 0.1]","[0.8, 0.4, 0.2]","[u'red', u'black', u'blue']","[u'left', u'middle', u'right']","[0.8, 0.4, 0.2]","[u'low', u'high', u'medium']","black",50,"middle","high","True","False",243,5900,NA
"A36DK84J5YJ942","Fri Sep 18 2020 10:22:20 GMT-0500 (Central Daylight Time)","Fri Sep 18 2020 10:34:29 GMT-0500 (Central Daylight Time)","Mozilla/5.0 (Windows NT 10.0; Win64; x64) AppleWebKit/537.36 (KHTML, like Gecko) Chrome/84.0.4147.105 Safari/537.36 Edg/84.0.522.52",141,"[0.9, 0.5, 0.1]","[0.8, 0.4, 0.2]","[u'red', u'black', u'blue']","[u'left', u'middle', u'right']","[0.8, 0.4, 0.2]","[u'low', u'high', u'medium']","black",50,"middle","high","True","False",427,6000,NA
"A36DK84J5YJ942","Fri Sep 18 2020 10:22:20 GMT-0500 (Central Daylight Time)","Fri Sep 18 2020 10:34:29 GMT-0500 (Central Daylight Time)","Mozilla/5.0 (Windows NT 10.0; Win64; x64) AppleWebKit/537.36 (KHTML, like Gecko) Chrome/84.0.4147.105 Safari/537.36 Edg/84.0.522.52",142,"[0.9, 0.5, 0.1]","[0.8, 0.4, 0.2]","[u'red', u'black', u'blue']","[u'left', u'middle', u'right']","[0.8, 0.4, 0.2]","[u'low', u'high', u'medium']","black",50,"middle","high","True","False",84,6100,NA
"A36DK84J5YJ942","Fri Sep 18 2020 10:22:20 GMT-0500 (Central Daylight Time)","Fri Sep 18 2020 10:34:29 GMT-0500 (Central Daylight Time)","Mozilla/5.0 (Windows NT 10.0; Win64; x64) AppleWebKit/537.36 (KHTML, like Gecko) Chrome/84.0.4147.105 Safari/537.36 Edg/84.0.522.52",143,"[0.9, 0.5, 0.1]","[0.8, 0.4, 0.2]","[u'red', u'black', u'blue']","[u'left', u'middle', u'right']","[0.8, 0.4, 0.2]","[u'low', u'high', u'medium']","black",50,"middle","high","True","False",131,6200,NA
"A36DK84J5YJ942","Fri Sep 18 2020 10:22:20 GMT-0500 (Central Daylight Time)","Fri Sep 18 2020 10:34:29 GMT-0500 (Central Daylight Time)","Mozilla/5.0 (Windows NT 10.0; Win64; x64) AppleWebKit/537.36 (KHTML, like Gecko) Chrome/84.0.4147.105 Safari/537.36 Edg/84.0.522.52",144,"[0.9, 0.5, 0.1]","[0.8, 0.4, 0.2]","[u'red', u'black', u'blue']","[u'left', u'middle', u'right']","[0.8, 0.4, 0.2]","[u'low', u'high', u'medium']","black",50,"middle","high","True","False",171,6300,NA
"A36DK84J5YJ942","Fri Sep 18 2020 10:22:20 GMT-0500 (Central Daylight Time)","Fri Sep 18 2020 10:34:29 GMT-0500 (Central Daylight Time)","Mozilla/5.0 (Windows NT 10.0; Win64; x64) AppleWebKit/537.36 (KHTML, like Gecko) Chrome/84.0.4147.105 Safari/537.36 Edg/84.0.522.52",145,"[0.9, 0.5, 0.1]","[0.8, 0.4, 0.2]","[u'red', u'black', u'blue']","[u'left', u'middle', u'right']","[0.8, 0.4, 0.2]","[u'low', u'high', u'medium']","black",50,"middle","high","True","False",302,6400,NA
"A36DK84J5YJ942","Fri Sep 18 2020 10:22:20 GMT-0500 (Central Daylight Time)","Fri Sep 18 2020 10:34:29 GMT-0500 (Central Daylight Time)","Mozilla/5.0 (Windows NT 10.0; Win64; x64) AppleWebKit/537.36 (KHTML, like Gecko) Chrome/84.0.4147.105 Safari/537.36 Edg/84.0.522.52",146,"[0.9, 0.5, 0.1]","[0.8, 0.4, 0.2]","[u'red', u'black', u'blue']","[u'left', u'middle', u'right']","[0.8, 0.4, 0.2]","[u'low', u'high', u'medium']","black",50,"middle","high","False","True",311,6350,NA
"A36DK84J5YJ942","Fri Sep 18 2020 10:22:20 GMT-0500 (Central Daylight Time)","Fri Sep 18 2020 10:34:29 GMT-0500 (Central Daylight Time)","Mozilla/5.0 (Windows NT 10.0; Win64; x64) AppleWebKit/537.36 (KHTML, like Gecko) Chrome/84.0.4147.105 Safari/537.36 Edg/84.0.522.52",147,"[0.9, 0.5, 0.1]","[0.8, 0.4, 0.2]","[u'red', u'black', u'blue']","[u'left', u'middle', u'right']","[0.8, 0.4, 0.2]","[u'low', u'medium', u'high']","blue",51,"right","high","True","False",144,6450,NA
"A36DK84J5YJ942","Fri Sep 18 2020 10:22:20 GMT-0500 (Central Daylight Time)","Fri Sep 18 2020 10:34:29 GMT-0500 (Central Daylight Time)","Mozilla/5.0 (Windows NT 10.0; Win64; x64) AppleWebKit/537.36 (KHTML, like Gecko) Chrome/84.0.4147.105 Safari/537.36 Edg/84.0.522.52",148,"[0.9, 0.5, 0.1]","[0.8, 0.4, 0.2]","[u'red', u'black', u'blue']","[u'left', u'middle', u'right']","[0.8, 0.4, 0.2]","[u'low', u'medium', u'high']","blue",51,"right","high","False","False",893,6400,NA
"A36DK84J5YJ942","Fri Sep 18 2020 10:22:20 GMT-0500 (Central Daylight Time)","Fri Sep 18 2020 10:34:29 GMT-0500 (Central Daylight Time)","Mozilla/5.0 (Windows NT 10.0; Win64; x64) AppleWebKit/537.36 (KHTML, like Gecko) Chrome/84.0.4147.105 Safari/537.36 Edg/84.0.522.52",149,"[0.9, 0.5, 0.1]","[0.8, 0.4, 0.2]","[u'red', u'black', u'blue']","[u'left', u'middle', u'right']","[0.8, 0.4, 0.2]","[u'low', u'medium', u'high']","black",50,"middle","medium","True","False",282,6500,NA
"A36DK84J5YJ942","Fri Sep 18 2020 10:22:20 GMT-0500 (Central Daylight Time)","Fri Sep 18 2020 10:34:29 GMT-0500 (Central Daylight Time)","Mozilla/5.0 (Windows NT 10.0; Win64; x64) AppleWebKit/537.36 (KHTML, like Gecko) Chrome/84.0.4147.105 Safari/537.36 Edg/84.0.522.52",150,"[0.9, 0.5, 0.1]","[0.8, 0.4, 0.2]","[u'red', u'black', u'blue']","[u'left', u'middle', u'right']","[0.8, 0.4, 0.2]","[u'low', u'medium', u'high']","black",50,"middle","medium","True","False",195,6600,NA
"A36DK84J5YJ942","Fri Sep 18 2020 10:22:20 GMT-0500 (Central Daylight Time)","Fri Sep 18 2020 10:34:29 GMT-0500 (Central Daylight Time)","Mozilla/5.0 (Windows NT 10.0; Win64; x64) AppleWebKit/537.36 (KHTML, like Gecko) Chrome/84.0.4147.105 Safari/537.36 Edg/84.0.522.52",151,"[0.9, 0.5, 0.1]","[0.8, 0.4, 0.2]","[u'red', u'black', u'blue']","[u'left', u'middle', u'right']","[0.8, 0.4, 0.2]","[u'low', u'medium', u'high']","black",50,"middle","medium","True","False",252,6700,NA
"A36DK84J5YJ942","Fri Sep 18 2020 10:22:20 GMT-0500 (Central Daylight Time)","Fri Sep 18 2020 10:34:29 GMT-0500 (Central Daylight Time)","Mozilla/5.0 (Windows NT 10.0; Win64; x64) AppleWebKit/537.36 (KHTML, like Gecko) Chrome/84.0.4147.105 Safari/537.36 Edg/84.0.522.52",152,"[0.9, 0.5, 0.1]","[0.8, 0.4, 0.2]","[u'red', u'black', u'blue']","[u'left', u'middle', u'right']","[0.8, 0.4, 0.2]","[u'low', u'medium', u'high']","black",50,"middle","medium","False","False",235,6650,NA
"A36DK84J5YJ942","Fri Sep 18 2020 10:22:20 GMT-0500 (Central Daylight Time)","Fri Sep 18 2020 10:34:29 GMT-0500 (Central Daylight Time)","Mozilla/5.0 (Windows NT 10.0; Win64; x64) AppleWebKit/537.36 (KHTML, like Gecko) Chrome/84.0.4147.105 Safari/537.36 Edg/84.0.522.52",153,"[0.9, 0.5, 0.1]","[0.8, 0.4, 0.2]","[u'red', u'black', u'blue']","[u'left', u'middle', u'right']","[0.8, 0.4, 0.2]","[u'low', u'medium', u'high']","blue",51,"right","high","True","False",251,6750,NA
"A36DK84J5YJ942","Fri Sep 18 2020 10:22:20 GMT-0500 (Central Daylight Time)","Fri Sep 18 2020 10:34:29 GMT-0500 (Central Daylight Time)","Mozilla/5.0 (Windows NT 10.0; Win64; x64) AppleWebKit/537.36 (KHTML, like Gecko) Chrome/84.0.4147.105 Safari/537.36 Edg/84.0.522.52",154,"[0.9, 0.5, 0.1]","[0.8, 0.4, 0.2]","[u'red', u'black', u'blue']","[u'left', u'middle', u'right']","[0.8, 0.4, 0.2]","[u'low', u'medium', u'high']","black",50,"middle","medium","False","False",282,6700,NA
"A36DK84J5YJ942","Fri Sep 18 2020 10:22:20 GMT-0500 (Central Daylight Time)","Fri Sep 18 2020 10:34:29 GMT-0500 (Central Daylight Time)","Mozilla/5.0 (Windows NT 10.0; Win64; x64) AppleWebKit/537.36 (KHTML, like Gecko) Chrome/84.0.4147.105 Safari/537.36 Edg/84.0.522.52",155,"[0.9, 0.5, 0.1]","[0.8, 0.4, 0.2]","[u'red', u'black', u'blue']","[u'left', u'middle', u'right']","[0.8, 0.4, 0.2]","[u'low', u'medium', u'high']","blue",51,"right","high","True","False",91,6800,NA
"A36DK84J5YJ942","Fri Sep 18 2020 10:22:20 GMT-0500 (Central Daylight Time)","Fri Sep 18 2020 10:34:29 GMT-0500 (Central Daylight Time)","Mozilla/5.0 (Windows NT 10.0; Win64; x64) AppleWebKit/537.36 (KHTML, like Gecko) Chrome/84.0.4147.105 Safari/537.36 Edg/84.0.522.52",156,"[0.9, 0.5, 0.1]","[0.8, 0.4, 0.2]","[u'red', u'black', u'blue']","[u'left', u'middle', u'right']","[0.8, 0.4, 0.2]","[u'low', u'medium', u'high']","blue",51,"right","high","True","False",578,6900,NA
"A36DK84J5YJ942","Fri Sep 18 2020 10:22:20 GMT-0500 (Central Daylight Time)","Fri Sep 18 2020 10:34:29 GMT-0500 (Central Daylight Time)","Mozilla/5.0 (Windows NT 10.0; Win64; x64) AppleWebKit/537.36 (KHTML, like Gecko) Chrome/84.0.4147.105 Safari/537.36 Edg/84.0.522.52",157,"[0.9, 0.5, 0.1]","[0.8, 0.4, 0.2]","[u'red', u'black', u'blue']","[u'left', u'middle', u'right']","[0.8, 0.4, 0.2]","[u'low', u'medium', u'high']","blue",51,"right","high","False","False",226,6850,NA
"A36DK84J5YJ942","Fri Sep 18 2020 10:22:20 GMT-0500 (Central Daylight Time)","Fri Sep 18 2020 10:34:29 GMT-0500 (Central Daylight Time)","Mozilla/5.0 (Windows NT 10.0; Win64; x64) AppleWebKit/537.36 (KHTML, like Gecko) Chrome/84.0.4147.105 Safari/537.36 Edg/84.0.522.52",158,"[0.9, 0.5, 0.1]","[0.8, 0.4, 0.2]","[u'red', u'black', u'blue']","[u'left', u'middle', u'right']","[0.8, 0.4, 0.2]","[u'low', u'medium', u'high']","black",50,"middle","medium","True","False",139,6950,NA
"A36DK84J5YJ942","Fri Sep 18 2020 10:22:20 GMT-0500 (Central Daylight Time)","Fri Sep 18 2020 10:34:29 GMT-0500 (Central Daylight Time)","Mozilla/5.0 (Windows NT 10.0; Win64; x64) AppleWebKit/537.36 (KHTML, like Gecko) Chrome/84.0.4147.105 Safari/537.36 Edg/84.0.522.52",159,"[0.9, 0.5, 0.1]","[0.8, 0.4, 0.2]","[u'red', u'black', u'blue']","[u'left', u'middle', u'right']","[0.8, 0.4, 0.2]","[u'low', u'medium', u'high']","black",50,"middle","medium","False","False",214,6900,NA
"A36DK84J5YJ942","Fri Sep 18 2020 10:22:20 GMT-0500 (Central Daylight Time)","Fri Sep 18 2020 10:34:29 GMT-0500 (Central Daylight Time)","Mozilla/5.0 (Windows NT 10.0; Win64; x64) AppleWebKit/537.36 (KHTML, like Gecko) Chrome/84.0.4147.105 Safari/537.36 Edg/84.0.522.52",160,"[0.9, 0.5, 0.1]","[0.8, 0.4, 0.2]","[u'red', u'black', u'blue']","[u'left', u'middle', u'right']","[0.8, 0.4, 0.2]","[u'low', u'medium', u'high']","blue",51,"right","high","True","False",281,7000,NA
