"src_subject_id","start_time","end_time","browser","index","first_half_probabilities","second_half_probabilities","deck_color","deck_position","deck_probabilities","deck_contingencies","response_color","key_press","response_position","response_probability","reward_type","trial_type","rt","reward_tally","exclusion_reason"
"A1VWP7HOSGKATD","Tue Jan 28 2020 08:56:50 GMT-0500 (Eastern Standard Time)","Tue Jan 28 2020 09:09:30 GMT-0500 (Eastern Standard Time)","Mozilla/5.0 (Windows NT 6.3; Win64; x64) AppleWebKit/537.36 (KHTML, like Gecko) Chrome/79.0.3945.117 Safari/537.36",1,"[0.9, 0.5, 0.1]","[0.8, 0.4, 0.2]","[u'red', u'blue', u'black']","[u'left', u'middle', u'right']","[0.9, 0.5, 0.1]","[u'high', u'medium', u'low']","blue",50,"middle","medium","False","False",1051,-50,NA
"A1VWP7HOSGKATD","Tue Jan 28 2020 08:56:50 GMT-0500 (Eastern Standard Time)","Tue Jan 28 2020 09:09:30 GMT-0500 (Eastern Standard Time)","Mozilla/5.0 (Windows NT 6.3; Win64; x64) AppleWebKit/537.36 (KHTML, like Gecko) Chrome/79.0.3945.117 Safari/537.36",2,"[0.9, 0.5, 0.1]","[0.8, 0.4, 0.2]","[u'red', u'blue', u'black']","[u'left', u'middle', u'right']","[0.9, 0.5, 0.1]","[u'high', u'medium', u'low']","black",51,"right","low","False","False",468,-100,NA
"A1VWP7HOSGKATD","Tue Jan 28 2020 08:56:50 GMT-0500 (Eastern Standard Time)","Tue Jan 28 2020 09:09:30 GMT-0500 (Eastern Standard Time)","Mozilla/5.0 (Windows NT 6.3; Win64; x64) AppleWebKit/537.36 (KHTML, like Gecko) Chrome/79.0.3945.117 Safari/537.36",3,"[0.9, 0.5, 0.1]","[0.8, 0.4, 0.2]","[u'red', u'blue', u'black']","[u'left', u'middle', u'right']","[0.9, 0.5, 0.1]","[u'high', u'medium', u'low']","red",49,"left","high","True","False",738,0,NA
"A1VWP7HOSGKATD","Tue Jan 28 2020 08:56:50 GMT-0500 (Eastern Standard Time)","Tue Jan 28 2020 09:09:30 GMT-0500 (Eastern Standard Time)","Mozilla/5.0 (Windows NT 6.3; Win64; x64) AppleWebKit/537.36 (KHTML, like Gecko) Chrome/79.0.3945.117 Safari/537.36",4,"[0.9, 0.5, 0.1]","[0.8, 0.4, 0.2]","[u'red', u'blue', u'black']","[u'left', u'middle', u'right']","[0.9, 0.5, 0.1]","[u'high', u'medium', u'low']","red",49,"left","high","True","False",440,100,NA
"A1VWP7HOSGKATD","Tue Jan 28 2020 08:56:50 GMT-0500 (Eastern Standard Time)","Tue Jan 28 2020 09:09:30 GMT-0500 (Eastern Standard Time)","Mozilla/5.0 (Windows NT 6.3; Win64; x64) AppleWebKit/537.36 (KHTML, like Gecko) Chrome/79.0.3945.117 Safari/537.36",5,"[0.9, 0.5, 0.1]","[0.8, 0.4, 0.2]","[u'red', u'blue', u'black']","[u'left', u'middle', u'right']","[0.9, 0.5, 0.1]","[u'high', u'medium', u'low']","blue",50,"middle","medium","False","False",431,50,NA
"A1VWP7HOSGKATD","Tue Jan 28 2020 08:56:50 GMT-0500 (Eastern Standard Time)","Tue Jan 28 2020 09:09:30 GMT-0500 (Eastern Standard Time)","Mozilla/5.0 (Windows NT 6.3; Win64; x64) AppleWebKit/537.36 (KHTML, like Gecko) Chrome/79.0.3945.117 Safari/537.36",6,"[0.9, 0.5, 0.1]","[0.8, 0.4, 0.2]","[u'red', u'blue', u'black']","[u'left', u'middle', u'right']","[0.9, 0.5, 0.1]","[u'high', u'medium', u'low']","black",51,"right","low","False","False",579,0,NA
"A1VWP7HOSGKATD","Tue Jan 28 2020 08:56:50 GMT-0500 (Eastern Standard Time)","Tue Jan 28 2020 09:09:30 GMT-0500 (Eastern Standard Time)","Mozilla/5.0 (Windows NT 6.3; Win64; x64) AppleWebKit/537.36 (KHTML, like Gecko) Chrome/79.0.3945.117 Safari/537.36",7,"[0.9, 0.5, 0.1]","[0.8, 0.4, 0.2]","[u'red', u'blue', u'black']","[u'left', u'middle', u'right']","[0.9, 0.5, 0.1]","[u'high', u'medium', u'low']","red",49,"left","high","False","False",337,-50,NA
"A1VWP7HOSGKATD","Tue Jan 28 2020 08:56:50 GMT-0500 (Eastern Standard Time)","Tue Jan 28 2020 09:09:30 GMT-0500 (Eastern Standard Time)","Mozilla/5.0 (Windows NT 6.3; Win64; x64) AppleWebKit/537.36 (KHTML, like Gecko) Chrome/79.0.3945.117 Safari/537.36",8,"[0.9, 0.5, 0.1]","[0.8, 0.4, 0.2]","[u'red', u'blue', u'black']","[u'left', u'middle', u'right']","[0.9, 0.5, 0.1]","[u'high', u'medium', u'low']","blue",50,"middle","medium","False","False",442,-100,NA
"A1VWP7HOSGKATD","Tue Jan 28 2020 08:56:50 GMT-0500 (Eastern Standard Time)","Tue Jan 28 2020 09:09:30 GMT-0500 (Eastern Standard Time)","Mozilla/5.0 (Windows NT 6.3; Win64; x64) AppleWebKit/537.36 (KHTML, like Gecko) Chrome/79.0.3945.117 Safari/537.36",9,"[0.9, 0.5, 0.1]","[0.8, 0.4, 0.2]","[u'red', u'blue', u'black']","[u'left', u'middle', u'right']","[0.9, 0.5, 0.1]","[u'high', u'medium', u'low']","red",49,"left","high","True","False",327,0,NA
"A1VWP7HOSGKATD","Tue Jan 28 2020 08:56:50 GMT-0500 (Eastern Standard Time)","Tue Jan 28 2020 09:09:30 GMT-0500 (Eastern Standard Time)","Mozilla/5.0 (Windows NT 6.3; Win64; x64) AppleWebKit/537.36 (KHTML, like Gecko) Chrome/79.0.3945.117 Safari/537.36",10,"[0.9, 0.5, 0.1]","[0.8, 0.4, 0.2]","[u'red', u'blue', u'black']","[u'left', u'middle', u'right']","[0.9, 0.5, 0.1]","[u'high', u'medium', u'low']","red",49,"left","high","True","False",529,100,NA
"A1VWP7HOSGKATD","Tue Jan 28 2020 08:56:50 GMT-0500 (Eastern Standard Time)","Tue Jan 28 2020 09:09:30 GMT-0500 (Eastern Standard Time)","Mozilla/5.0 (Windows NT 6.3; Win64; x64) AppleWebKit/537.36 (KHTML, like Gecko) Chrome/79.0.3945.117 Safari/537.36",11,"[0.9, 0.5, 0.1]","[0.8, 0.4, 0.2]","[u'red', u'blue', u'black']","[u'left', u'middle', u'right']","[0.9, 0.5, 0.1]","[u'high', u'medium', u'low']","red",49,"left","high","True","False",273,200,NA
"A1VWP7HOSGKATD","Tue Jan 28 2020 08:56:50 GMT-0500 (Eastern Standard Time)","Tue Jan 28 2020 09:09:30 GMT-0500 (Eastern Standard Time)","Mozilla/5.0 (Windows NT 6.3; Win64; x64) AppleWebKit/537.36 (KHTML, like Gecko) Chrome/79.0.3945.117 Safari/537.36",12,"[0.9, 0.5, 0.1]","[0.8, 0.4, 0.2]","[u'red', u'blue', u'black']","[u'left', u'middle', u'right']","[0.9, 0.5, 0.1]","[u'high', u'medium', u'low']","red",49,"left","high","False","False",274,150,NA
"A1VWP7HOSGKATD","Tue Jan 28 2020 08:56:50 GMT-0500 (Eastern Standard Time)","Tue Jan 28 2020 09:09:30 GMT-0500 (Eastern Standard Time)","Mozilla/5.0 (Windows NT 6.3; Win64; x64) AppleWebKit/537.36 (KHTML, like Gecko) Chrome/79.0.3945.117 Safari/537.36",13,"[0.9, 0.5, 0.1]","[0.8, 0.4, 0.2]","[u'red', u'blue', u'black']","[u'left', u'middle', u'right']","[0.9, 0.5, 0.1]","[u'high', u'medium', u'low']","black",51,"right","low","True","False",464,250,NA
"A1VWP7HOSGKATD","Tue Jan 28 2020 08:56:50 GMT-0500 (Eastern Standard Time)","Tue Jan 28 2020 09:09:30 GMT-0500 (Eastern Standard Time)","Mozilla/5.0 (Windows NT 6.3; Win64; x64) AppleWebKit/537.36 (KHTML, like Gecko) Chrome/79.0.3945.117 Safari/537.36",14,"[0.9, 0.5, 0.1]","[0.8, 0.4, 0.2]","[u'red', u'blue', u'black']","[u'left', u'middle', u'right']","[0.9, 0.5, 0.1]","[u'high', u'medium', u'low']","black",51,"right","low","False","False",435,200,NA
"A1VWP7HOSGKATD","Tue Jan 28 2020 08:56:50 GMT-0500 (Eastern Standard Time)","Tue Jan 28 2020 09:09:30 GMT-0500 (Eastern Standard Time)","Mozilla/5.0 (Windows NT 6.3; Win64; x64) AppleWebKit/537.36 (KHTML, like Gecko) Chrome/79.0.3945.117 Safari/537.36",15,"[0.9, 0.5, 0.1]","[0.8, 0.4, 0.2]","[u'red', u'blue', u'black']","[u'left', u'middle', u'right']","[0.9, 0.5, 0.1]","[u'high', u'medium', u'low']","red",49,"left","high","True","False",414,300,NA
"A1VWP7HOSGKATD","Tue Jan 28 2020 08:56:50 GMT-0500 (Eastern Standard Time)","Tue Jan 28 2020 09:09:30 GMT-0500 (Eastern Standard Time)","Mozilla/5.0 (Windows NT 6.3; Win64; x64) AppleWebKit/537.36 (KHTML, like Gecko) Chrome/79.0.3945.117 Safari/537.36",16,"[0.9, 0.5, 0.1]","[0.8, 0.4, 0.2]","[u'red', u'blue', u'black']","[u'left', u'middle', u'right']","[0.9, 0.5, 0.1]","[u'high', u'medium', u'low']","blue",50,"middle","medium","False","False",278,250,NA
"A1VWP7HOSGKATD","Tue Jan 28 2020 08:56:50 GMT-0500 (Eastern Standard Time)","Tue Jan 28 2020 09:09:30 GMT-0500 (Eastern Standard Time)","Mozilla/5.0 (Windows NT 6.3; Win64; x64) AppleWebKit/537.36 (KHTML, like Gecko) Chrome/79.0.3945.117 Safari/537.36",17,"[0.9, 0.5, 0.1]","[0.8, 0.4, 0.2]","[u'red', u'blue', u'black']","[u'left', u'middle', u'right']","[0.9, 0.5, 0.1]","[u'high', u'medium', u'low']","blue",50,"middle","medium","False","False",470,200,NA
"A1VWP7HOSGKATD","Tue Jan 28 2020 08:56:50 GMT-0500 (Eastern Standard Time)","Tue Jan 28 2020 09:09:30 GMT-0500 (Eastern Standard Time)","Mozilla/5.0 (Windows NT 6.3; Win64; x64) AppleWebKit/537.36 (KHTML, like Gecko) Chrome/79.0.3945.117 Safari/537.36",18,"[0.9, 0.5, 0.1]","[0.8, 0.4, 0.2]","[u'red', u'blue', u'black']","[u'left', u'middle', u'right']","[0.9, 0.5, 0.1]","[u'high', u'medium', u'low']","black",51,"right","low","False","False",315,150,NA
"A1VWP7HOSGKATD","Tue Jan 28 2020 08:56:50 GMT-0500 (Eastern Standard Time)","Tue Jan 28 2020 09:09:30 GMT-0500 (Eastern Standard Time)","Mozilla/5.0 (Windows NT 6.3; Win64; x64) AppleWebKit/537.36 (KHTML, like Gecko) Chrome/79.0.3945.117 Safari/537.36",19,"[0.9, 0.5, 0.1]","[0.8, 0.4, 0.2]","[u'red', u'blue', u'black']","[u'left', u'middle', u'right']","[0.9, 0.5, 0.1]","[u'high', u'medium', u'low']","blue",50,"middle","medium","True","False",583,250,NA
"A1VWP7HOSGKATD","Tue Jan 28 2020 08:56:50 GMT-0500 (Eastern Standard Time)","Tue Jan 28 2020 09:09:30 GMT-0500 (Eastern Standard Time)","Mozilla/5.0 (Windows NT 6.3; Win64; x64) AppleWebKit/537.36 (KHTML, like Gecko) Chrome/79.0.3945.117 Safari/537.36",20,"[0.9, 0.5, 0.1]","[0.8, 0.4, 0.2]","[u'red', u'blue', u'black']","[u'left', u'middle', u'right']","[0.9, 0.5, 0.1]","[u'high', u'medium', u'low']","red",49,"left","high","False","False",423,200,NA
"A1VWP7HOSGKATD","Tue Jan 28 2020 08:56:50 GMT-0500 (Eastern Standard Time)","Tue Jan 28 2020 09:09:30 GMT-0500 (Eastern Standard Time)","Mozilla/5.0 (Windows NT 6.3; Win64; x64) AppleWebKit/537.36 (KHTML, like Gecko) Chrome/79.0.3945.117 Safari/537.36",21,"[0.9, 0.5, 0.1]","[0.8, 0.4, 0.2]","[u'red', u'blue', u'black']","[u'left', u'middle', u'right']","[0.9, 0.5, 0.1]","[u'high', u'medium', u'low']","blue",50,"middle","medium","False","False",269,150,NA
"A1VWP7HOSGKATD","Tue Jan 28 2020 08:56:50 GMT-0500 (Eastern Standard Time)","Tue Jan 28 2020 09:09:30 GMT-0500 (Eastern Standard Time)","Mozilla/5.0 (Windows NT 6.3; Win64; x64) AppleWebKit/537.36 (KHTML, like Gecko) Chrome/79.0.3945.117 Safari/537.36",22,"[0.9, 0.5, 0.1]","[0.8, 0.4, 0.2]","[u'red', u'blue', u'black']","[u'left', u'middle', u'right']","[0.9, 0.5, 0.1]","[u'high', u'medium', u'low']","black",51,"right","low","False","False",335,100,NA
"A1VWP7HOSGKATD","Tue Jan 28 2020 08:56:50 GMT-0500 (Eastern Standard Time)","Tue Jan 28 2020 09:09:30 GMT-0500 (Eastern Standard Time)","Mozilla/5.0 (Windows NT 6.3; Win64; x64) AppleWebKit/537.36 (KHTML, like Gecko) Chrome/79.0.3945.117 Safari/537.36",23,"[0.9, 0.5, 0.1]","[0.8, 0.4, 0.2]","[u'red', u'blue', u'black']","[u'left', u'middle', u'right']","[0.9, 0.5, 0.1]","[u'high', u'medium', u'low']","red",49,"left","high","True","False",262,200,NA
"A1VWP7HOSGKATD","Tue Jan 28 2020 08:56:50 GMT-0500 (Eastern Standard Time)","Tue Jan 28 2020 09:09:30 GMT-0500 (Eastern Standard Time)","Mozilla/5.0 (Windows NT 6.3; Win64; x64) AppleWebKit/537.36 (KHTML, like Gecko) Chrome/79.0.3945.117 Safari/537.36",24,"[0.9, 0.5, 0.1]","[0.8, 0.4, 0.2]","[u'red', u'blue', u'black']","[u'left', u'middle', u'right']","[0.9, 0.5, 0.1]","[u'high', u'medium', u'low']","blue",50,"middle","medium","False","False",1383,150,NA
"A1VWP7HOSGKATD","Tue Jan 28 2020 08:56:50 GMT-0500 (Eastern Standard Time)","Tue Jan 28 2020 09:09:30 GMT-0500 (Eastern Standard Time)","Mozilla/5.0 (Windows NT 6.3; Win64; x64) AppleWebKit/537.36 (KHTML, like Gecko) Chrome/79.0.3945.117 Safari/537.36",25,"[0.9, 0.5, 0.1]","[0.8, 0.4, 0.2]","[u'red', u'blue', u'black']","[u'left', u'middle', u'right']","[0.9, 0.5, 0.1]","[u'high', u'medium', u'low']","blue",50,"middle","medium","True","False",45134,250,NA
"A1VWP7HOSGKATD","Tue Jan 28 2020 08:56:50 GMT-0500 (Eastern Standard Time)","Tue Jan 28 2020 09:09:30 GMT-0500 (Eastern Standard Time)","Mozilla/5.0 (Windows NT 6.3; Win64; x64) AppleWebKit/537.36 (KHTML, like Gecko) Chrome/79.0.3945.117 Safari/537.36",26,"[0.9, 0.5, 0.1]","[0.8, 0.4, 0.2]","[u'red', u'blue', u'black']","[u'left', u'middle', u'right']","[0.9, 0.5, 0.1]","[u'high', u'medium', u'low']","black",51,"right","low","False","False",750,200,NA
"A1VWP7HOSGKATD","Tue Jan 28 2020 08:56:50 GMT-0500 (Eastern Standard Time)","Tue Jan 28 2020 09:09:30 GMT-0500 (Eastern Standard Time)","Mozilla/5.0 (Windows NT 6.3; Win64; x64) AppleWebKit/537.36 (KHTML, like Gecko) Chrome/79.0.3945.117 Safari/537.36",27,"[0.9, 0.5, 0.1]","[0.8, 0.4, 0.2]","[u'red', u'blue', u'black']","[u'left', u'middle', u'right']","[0.9, 0.5, 0.1]","[u'high', u'medium', u'low']","blue",50,"middle","medium","False","False",37013,150,NA
"A1VWP7HOSGKATD","Tue Jan 28 2020 08:56:50 GMT-0500 (Eastern Standard Time)","Tue Jan 28 2020 09:09:30 GMT-0500 (Eastern Standard Time)","Mozilla/5.0 (Windows NT 6.3; Win64; x64) AppleWebKit/537.36 (KHTML, like Gecko) Chrome/79.0.3945.117 Safari/537.36",28,"[0.9, 0.5, 0.1]","[0.8, 0.4, 0.2]","[u'red', u'blue', u'black']","[u'left', u'middle', u'right']","[0.9, 0.5, 0.1]","[u'high', u'medium', u'low']","blue",50,"middle","medium","True","False",167,250,NA
"A1VWP7HOSGKATD","Tue Jan 28 2020 08:56:50 GMT-0500 (Eastern Standard Time)","Tue Jan 28 2020 09:09:30 GMT-0500 (Eastern Standard Time)","Mozilla/5.0 (Windows NT 6.3; Win64; x64) AppleWebKit/537.36 (KHTML, like Gecko) Chrome/79.0.3945.117 Safari/537.36",29,"[0.9, 0.5, 0.1]","[0.8, 0.4, 0.2]","[u'red', u'blue', u'black']","[u'left', u'middle', u'right']","[0.9, 0.5, 0.1]","[u'high', u'medium', u'low']","red",49,"left","high","True","False",208,350,NA
"A1VWP7HOSGKATD","Tue Jan 28 2020 08:56:50 GMT-0500 (Eastern Standard Time)","Tue Jan 28 2020 09:09:30 GMT-0500 (Eastern Standard Time)","Mozilla/5.0 (Windows NT 6.3; Win64; x64) AppleWebKit/537.36 (KHTML, like Gecko) Chrome/79.0.3945.117 Safari/537.36",30,"[0.9, 0.5, 0.1]","[0.8, 0.4, 0.2]","[u'red', u'blue', u'black']","[u'left', u'middle', u'right']","[0.9, 0.5, 0.1]","[u'high', u'medium', u'low']","black",51,"right","low","False","False",1545,300,NA
"A1VWP7HOSGKATD","Tue Jan 28 2020 08:56:50 GMT-0500 (Eastern Standard Time)","Tue Jan 28 2020 09:09:30 GMT-0500 (Eastern Standard Time)","Mozilla/5.0 (Windows NT 6.3; Win64; x64) AppleWebKit/537.36 (KHTML, like Gecko) Chrome/79.0.3945.117 Safari/537.36",31,"[0.9, 0.5, 0.1]","[0.8, 0.4, 0.2]","[u'red', u'blue', u'black']","[u'left', u'middle', u'right']","[0.9, 0.5, 0.1]","[u'high', u'medium', u'low']","blue",50,"middle","medium","True","False",331,400,NA
"A1VWP7HOSGKATD","Tue Jan 28 2020 08:56:50 GMT-0500 (Eastern Standard Time)","Tue Jan 28 2020 09:09:30 GMT-0500 (Eastern Standard Time)","Mozilla/5.0 (Windows NT 6.3; Win64; x64) AppleWebKit/537.36 (KHTML, like Gecko) Chrome/79.0.3945.117 Safari/537.36",32,"[0.9, 0.5, 0.1]","[0.8, 0.4, 0.2]","[u'red', u'blue', u'black']","[u'left', u'middle', u'right']","[0.9, 0.5, 0.1]","[u'high', u'medium', u'low']","red",49,"left","high","True","False",821,500,NA
"A1VWP7HOSGKATD","Tue Jan 28 2020 08:56:50 GMT-0500 (Eastern Standard Time)","Tue Jan 28 2020 09:09:30 GMT-0500 (Eastern Standard Time)","Mozilla/5.0 (Windows NT 6.3; Win64; x64) AppleWebKit/537.36 (KHTML, like Gecko) Chrome/79.0.3945.117 Safari/537.36",33,"[0.9, 0.5, 0.1]","[0.8, 0.4, 0.2]","[u'red', u'blue', u'black']","[u'left', u'middle', u'right']","[0.9, 0.5, 0.1]","[u'high', u'medium', u'low']","blue",50,"middle","medium","False","False",38020,450,NA
"A1VWP7HOSGKATD","Tue Jan 28 2020 08:56:50 GMT-0500 (Eastern Standard Time)","Tue Jan 28 2020 09:09:30 GMT-0500 (Eastern Standard Time)","Mozilla/5.0 (Windows NT 6.3; Win64; x64) AppleWebKit/537.36 (KHTML, like Gecko) Chrome/79.0.3945.117 Safari/537.36",34,"[0.9, 0.5, 0.1]","[0.8, 0.4, 0.2]","[u'red', u'blue', u'black']","[u'left', u'middle', u'right']","[0.9, 0.5, 0.1]","[u'high', u'medium', u'low']","red",49,"left","high","True","False",459,550,NA
"A1VWP7HOSGKATD","Tue Jan 28 2020 08:56:50 GMT-0500 (Eastern Standard Time)","Tue Jan 28 2020 09:09:30 GMT-0500 (Eastern Standard Time)","Mozilla/5.0 (Windows NT 6.3; Win64; x64) AppleWebKit/537.36 (KHTML, like Gecko) Chrome/79.0.3945.117 Safari/537.36",35,"[0.9, 0.5, 0.1]","[0.8, 0.4, 0.2]","[u'red', u'blue', u'black']","[u'left', u'middle', u'right']","[0.9, 0.5, 0.1]","[u'high', u'medium', u'low']","blue",50,"middle","medium","False","False",2257,500,NA
"A1VWP7HOSGKATD","Tue Jan 28 2020 08:56:50 GMT-0500 (Eastern Standard Time)","Tue Jan 28 2020 09:09:30 GMT-0500 (Eastern Standard Time)","Mozilla/5.0 (Windows NT 6.3; Win64; x64) AppleWebKit/537.36 (KHTML, like Gecko) Chrome/79.0.3945.117 Safari/537.36",36,"[0.9, 0.5, 0.1]","[0.8, 0.4, 0.2]","[u'red', u'blue', u'black']","[u'left', u'middle', u'right']","[0.9, 0.5, 0.1]","[u'high', u'medium', u'low']","black",51,"right","low","False","False",1519,450,NA
"A1VWP7HOSGKATD","Tue Jan 28 2020 08:56:50 GMT-0500 (Eastern Standard Time)","Tue Jan 28 2020 09:09:30 GMT-0500 (Eastern Standard Time)","Mozilla/5.0 (Windows NT 6.3; Win64; x64) AppleWebKit/537.36 (KHTML, like Gecko) Chrome/79.0.3945.117 Safari/537.36",37,"[0.9, 0.5, 0.1]","[0.8, 0.4, 0.2]","[u'red', u'blue', u'black']","[u'left', u'middle', u'right']","[0.9, 0.5, 0.1]","[u'high', u'medium', u'low']","red",49,"left","high","True","False",1783,550,NA
"A1VWP7HOSGKATD","Tue Jan 28 2020 08:56:50 GMT-0500 (Eastern Standard Time)","Tue Jan 28 2020 09:09:30 GMT-0500 (Eastern Standard Time)","Mozilla/5.0 (Windows NT 6.3; Win64; x64) AppleWebKit/537.36 (KHTML, like Gecko) Chrome/79.0.3945.117 Safari/537.36",38,"[0.9, 0.5, 0.1]","[0.8, 0.4, 0.2]","[u'red', u'blue', u'black']","[u'left', u'middle', u'right']","[0.9, 0.5, 0.1]","[u'high', u'medium', u'low']","blue",50,"middle","medium","False","False",255,500,NA
"A1VWP7HOSGKATD","Tue Jan 28 2020 08:56:50 GMT-0500 (Eastern Standard Time)","Tue Jan 28 2020 09:09:30 GMT-0500 (Eastern Standard Time)","Mozilla/5.0 (Windows NT 6.3; Win64; x64) AppleWebKit/537.36 (KHTML, like Gecko) Chrome/79.0.3945.117 Safari/537.36",39,"[0.9, 0.5, 0.1]","[0.8, 0.4, 0.2]","[u'red', u'blue', u'black']","[u'left', u'middle', u'right']","[0.9, 0.5, 0.1]","[u'high', u'medium', u'low']","black",51,"right","low","False","False",202,450,NA
"A1VWP7HOSGKATD","Tue Jan 28 2020 08:56:50 GMT-0500 (Eastern Standard Time)","Tue Jan 28 2020 09:09:30 GMT-0500 (Eastern Standard Time)","Mozilla/5.0 (Windows NT 6.3; Win64; x64) AppleWebKit/537.36 (KHTML, like Gecko) Chrome/79.0.3945.117 Safari/537.36",40,"[0.9, 0.5, 0.1]","[0.8, 0.4, 0.2]","[u'red', u'blue', u'black']","[u'left', u'middle', u'right']","[0.9, 0.5, 0.1]","[u'high', u'medium', u'low']","blue",50,"middle","medium","True","False",1656,550,NA
"A1VWP7HOSGKATD","Tue Jan 28 2020 08:56:50 GMT-0500 (Eastern Standard Time)","Tue Jan 28 2020 09:09:30 GMT-0500 (Eastern Standard Time)","Mozilla/5.0 (Windows NT 6.3; Win64; x64) AppleWebKit/537.36 (KHTML, like Gecko) Chrome/79.0.3945.117 Safari/537.36",41,"[0.9, 0.5, 0.1]","[0.8, 0.4, 0.2]","[u'red', u'blue', u'black']","[u'left', u'middle', u'right']","[0.9, 0.5, 0.1]","[u'medium', u'low', u'high']","blue",50,"middle","low","False","False",596,500,NA
"A1VWP7HOSGKATD","Tue Jan 28 2020 08:56:50 GMT-0500 (Eastern Standard Time)","Tue Jan 28 2020 09:09:30 GMT-0500 (Eastern Standard Time)","Mozilla/5.0 (Windows NT 6.3; Win64; x64) AppleWebKit/537.36 (KHTML, like Gecko) Chrome/79.0.3945.117 Safari/537.36",42,"[0.9, 0.5, 0.1]","[0.8, 0.4, 0.2]","[u'red', u'blue', u'black']","[u'left', u'middle', u'right']","[0.9, 0.5, 0.1]","[u'medium', u'low', u'high']","black",51,"right","high","True","False",1494,600,NA
"A1VWP7HOSGKATD","Tue Jan 28 2020 08:56:50 GMT-0500 (Eastern Standard Time)","Tue Jan 28 2020 09:09:30 GMT-0500 (Eastern Standard Time)","Mozilla/5.0 (Windows NT 6.3; Win64; x64) AppleWebKit/537.36 (KHTML, like Gecko) Chrome/79.0.3945.117 Safari/537.36",43,"[0.9, 0.5, 0.1]","[0.8, 0.4, 0.2]","[u'red', u'blue', u'black']","[u'left', u'middle', u'right']","[0.9, 0.5, 0.1]","[u'medium', u'low', u'high']","black",51,"right","high","False","False",382,550,NA
"A1VWP7HOSGKATD","Tue Jan 28 2020 08:56:50 GMT-0500 (Eastern Standard Time)","Tue Jan 28 2020 09:09:30 GMT-0500 (Eastern Standard Time)","Mozilla/5.0 (Windows NT 6.3; Win64; x64) AppleWebKit/537.36 (KHTML, like Gecko) Chrome/79.0.3945.117 Safari/537.36",44,"[0.9, 0.5, 0.1]","[0.8, 0.4, 0.2]","[u'red', u'blue', u'black']","[u'left', u'middle', u'right']","[0.9, 0.5, 0.1]","[u'medium', u'low', u'high']","black",51,"right","high","True","False",5896,650,NA
"A1VWP7HOSGKATD","Tue Jan 28 2020 08:56:50 GMT-0500 (Eastern Standard Time)","Tue Jan 28 2020 09:09:30 GMT-0500 (Eastern Standard Time)","Mozilla/5.0 (Windows NT 6.3; Win64; x64) AppleWebKit/537.36 (KHTML, like Gecko) Chrome/79.0.3945.117 Safari/537.36",45,"[0.9, 0.5, 0.1]","[0.8, 0.4, 0.2]","[u'red', u'blue', u'black']","[u'left', u'middle', u'right']","[0.9, 0.5, 0.1]","[u'medium', u'low', u'high']","red",49,"left","medium","True","False",566,750,NA
"A1VWP7HOSGKATD","Tue Jan 28 2020 08:56:50 GMT-0500 (Eastern Standard Time)","Tue Jan 28 2020 09:09:30 GMT-0500 (Eastern Standard Time)","Mozilla/5.0 (Windows NT 6.3; Win64; x64) AppleWebKit/537.36 (KHTML, like Gecko) Chrome/79.0.3945.117 Safari/537.36",46,"[0.9, 0.5, 0.1]","[0.8, 0.4, 0.2]","[u'red', u'blue', u'black']","[u'left', u'middle', u'right']","[0.9, 0.5, 0.1]","[u'medium', u'low', u'high']","blue",50,"middle","low","False","False",350,700,NA
"A1VWP7HOSGKATD","Tue Jan 28 2020 08:56:50 GMT-0500 (Eastern Standard Time)","Tue Jan 28 2020 09:09:30 GMT-0500 (Eastern Standard Time)","Mozilla/5.0 (Windows NT 6.3; Win64; x64) AppleWebKit/537.36 (KHTML, like Gecko) Chrome/79.0.3945.117 Safari/537.36",47,"[0.9, 0.5, 0.1]","[0.8, 0.4, 0.2]","[u'red', u'blue', u'black']","[u'left', u'middle', u'right']","[0.9, 0.5, 0.1]","[u'medium', u'low', u'high']","black",51,"right","high","True","False",1158,800,NA
"A1VWP7HOSGKATD","Tue Jan 28 2020 08:56:50 GMT-0500 (Eastern Standard Time)","Tue Jan 28 2020 09:09:30 GMT-0500 (Eastern Standard Time)","Mozilla/5.0 (Windows NT 6.3; Win64; x64) AppleWebKit/537.36 (KHTML, like Gecko) Chrome/79.0.3945.117 Safari/537.36",48,"[0.9, 0.5, 0.1]","[0.8, 0.4, 0.2]","[u'red', u'blue', u'black']","[u'left', u'middle', u'right']","[0.9, 0.5, 0.1]","[u'medium', u'low', u'high']","red",49,"left","medium","True","False",237,900,NA
"A1VWP7HOSGKATD","Tue Jan 28 2020 08:56:50 GMT-0500 (Eastern Standard Time)","Tue Jan 28 2020 09:09:30 GMT-0500 (Eastern Standard Time)","Mozilla/5.0 (Windows NT 6.3; Win64; x64) AppleWebKit/537.36 (KHTML, like Gecko) Chrome/79.0.3945.117 Safari/537.36",49,"[0.9, 0.5, 0.1]","[0.8, 0.4, 0.2]","[u'red', u'blue', u'black']","[u'left', u'middle', u'right']","[0.9, 0.5, 0.1]","[u'medium', u'low', u'high']","black",51,"right","high","True","False",7,1000,NA
"A1VWP7HOSGKATD","Tue Jan 28 2020 08:56:50 GMT-0500 (Eastern Standard Time)","Tue Jan 28 2020 09:09:30 GMT-0500 (Eastern Standard Time)","Mozilla/5.0 (Windows NT 6.3; Win64; x64) AppleWebKit/537.36 (KHTML, like Gecko) Chrome/79.0.3945.117 Safari/537.36",50,"[0.9, 0.5, 0.1]","[0.8, 0.4, 0.2]","[u'red', u'blue', u'black']","[u'left', u'middle', u'right']","[0.9, 0.5, 0.1]","[u'medium', u'low', u'high']","red",49,"left","medium","True","False",1720,1100,NA
"A1VWP7HOSGKATD","Tue Jan 28 2020 08:56:50 GMT-0500 (Eastern Standard Time)","Tue Jan 28 2020 09:09:30 GMT-0500 (Eastern Standard Time)","Mozilla/5.0 (Windows NT 6.3; Win64; x64) AppleWebKit/537.36 (KHTML, like Gecko) Chrome/79.0.3945.117 Safari/537.36",51,"[0.9, 0.5, 0.1]","[0.8, 0.4, 0.2]","[u'red', u'blue', u'black']","[u'left', u'middle', u'right']","[0.9, 0.5, 0.1]","[u'medium', u'low', u'high']","blue",50,"middle","low","False","False",549,1050,NA
"A1VWP7HOSGKATD","Tue Jan 28 2020 08:56:50 GMT-0500 (Eastern Standard Time)","Tue Jan 28 2020 09:09:30 GMT-0500 (Eastern Standard Time)","Mozilla/5.0 (Windows NT 6.3; Win64; x64) AppleWebKit/537.36 (KHTML, like Gecko) Chrome/79.0.3945.117 Safari/537.36",52,"[0.9, 0.5, 0.1]","[0.8, 0.4, 0.2]","[u'red', u'blue', u'black']","[u'left', u'middle', u'right']","[0.9, 0.5, 0.1]","[u'medium', u'low', u'high']","red",49,"left","medium","False","False",2303,1000,NA
"A1VWP7HOSGKATD","Tue Jan 28 2020 08:56:50 GMT-0500 (Eastern Standard Time)","Tue Jan 28 2020 09:09:30 GMT-0500 (Eastern Standard Time)","Mozilla/5.0 (Windows NT 6.3; Win64; x64) AppleWebKit/537.36 (KHTML, like Gecko) Chrome/79.0.3945.117 Safari/537.36",53,"[0.9, 0.5, 0.1]","[0.8, 0.4, 0.2]","[u'red', u'blue', u'black']","[u'left', u'middle', u'right']","[0.9, 0.5, 0.1]","[u'medium', u'low', u'high']","red",49,"left","medium","True","False",512,1100,NA
"A1VWP7HOSGKATD","Tue Jan 28 2020 08:56:50 GMT-0500 (Eastern Standard Time)","Tue Jan 28 2020 09:09:30 GMT-0500 (Eastern Standard Time)","Mozilla/5.0 (Windows NT 6.3; Win64; x64) AppleWebKit/537.36 (KHTML, like Gecko) Chrome/79.0.3945.117 Safari/537.36",54,"[0.9, 0.5, 0.1]","[0.8, 0.4, 0.2]","[u'red', u'blue', u'black']","[u'left', u'middle', u'right']","[0.9, 0.5, 0.1]","[u'medium', u'low', u'high']","red",49,"left","medium","False","False",53453,1050,NA
"A1VWP7HOSGKATD","Tue Jan 28 2020 08:56:50 GMT-0500 (Eastern Standard Time)","Tue Jan 28 2020 09:09:30 GMT-0500 (Eastern Standard Time)","Mozilla/5.0 (Windows NT 6.3; Win64; x64) AppleWebKit/537.36 (KHTML, like Gecko) Chrome/79.0.3945.117 Safari/537.36",55,"[0.9, 0.5, 0.1]","[0.8, 0.4, 0.2]","[u'red', u'blue', u'black']","[u'left', u'middle', u'right']","[0.9, 0.5, 0.1]","[u'medium', u'low', u'high']","blue",50,"middle","low","False","False",976,1000,NA
"A1VWP7HOSGKATD","Tue Jan 28 2020 08:56:50 GMT-0500 (Eastern Standard Time)","Tue Jan 28 2020 09:09:30 GMT-0500 (Eastern Standard Time)","Mozilla/5.0 (Windows NT 6.3; Win64; x64) AppleWebKit/537.36 (KHTML, like Gecko) Chrome/79.0.3945.117 Safari/537.36",56,"[0.9, 0.5, 0.1]","[0.8, 0.4, 0.2]","[u'red', u'blue', u'black']","[u'left', u'middle', u'right']","[0.9, 0.5, 0.1]","[u'medium', u'low', u'high']","black",51,"right","high","True","False",999,1100,NA
"A1VWP7HOSGKATD","Tue Jan 28 2020 08:56:50 GMT-0500 (Eastern Standard Time)","Tue Jan 28 2020 09:09:30 GMT-0500 (Eastern Standard Time)","Mozilla/5.0 (Windows NT 6.3; Win64; x64) AppleWebKit/537.36 (KHTML, like Gecko) Chrome/79.0.3945.117 Safari/537.36",57,"[0.9, 0.5, 0.1]","[0.8, 0.4, 0.2]","[u'red', u'blue', u'black']","[u'left', u'middle', u'right']","[0.9, 0.5, 0.1]","[u'medium', u'low', u'high']","red",49,"left","medium","False","False",872,1050,NA
"A1VWP7HOSGKATD","Tue Jan 28 2020 08:56:50 GMT-0500 (Eastern Standard Time)","Tue Jan 28 2020 09:09:30 GMT-0500 (Eastern Standard Time)","Mozilla/5.0 (Windows NT 6.3; Win64; x64) AppleWebKit/537.36 (KHTML, like Gecko) Chrome/79.0.3945.117 Safari/537.36",58,"[0.9, 0.5, 0.1]","[0.8, 0.4, 0.2]","[u'red', u'blue', u'black']","[u'left', u'middle', u'right']","[0.9, 0.5, 0.1]","[u'medium', u'low', u'high']","blue",50,"middle","low","False","False",5221,1000,NA
"A1VWP7HOSGKATD","Tue Jan 28 2020 08:56:50 GMT-0500 (Eastern Standard Time)","Tue Jan 28 2020 09:09:30 GMT-0500 (Eastern Standard Time)","Mozilla/5.0 (Windows NT 6.3; Win64; x64) AppleWebKit/537.36 (KHTML, like Gecko) Chrome/79.0.3945.117 Safari/537.36",59,"[0.9, 0.5, 0.1]","[0.8, 0.4, 0.2]","[u'red', u'blue', u'black']","[u'left', u'middle', u'right']","[0.9, 0.5, 0.1]","[u'medium', u'low', u'high']","red",49,"left","medium","True","False",161,1100,NA
"A1VWP7HOSGKATD","Tue Jan 28 2020 08:56:50 GMT-0500 (Eastern Standard Time)","Tue Jan 28 2020 09:09:30 GMT-0500 (Eastern Standard Time)","Mozilla/5.0 (Windows NT 6.3; Win64; x64) AppleWebKit/537.36 (KHTML, like Gecko) Chrome/79.0.3945.117 Safari/537.36",60,"[0.9, 0.5, 0.1]","[0.8, 0.4, 0.2]","[u'red', u'blue', u'black']","[u'left', u'middle', u'right']","[0.9, 0.5, 0.1]","[u'medium', u'low', u'high']","red",49,"left","medium","True","False",256,1200,NA
"A1VWP7HOSGKATD","Tue Jan 28 2020 08:56:50 GMT-0500 (Eastern Standard Time)","Tue Jan 28 2020 09:09:30 GMT-0500 (Eastern Standard Time)","Mozilla/5.0 (Windows NT 6.3; Win64; x64) AppleWebKit/537.36 (KHTML, like Gecko) Chrome/79.0.3945.117 Safari/537.36",61,"[0.9, 0.5, 0.1]","[0.8, 0.4, 0.2]","[u'red', u'blue', u'black']","[u'left', u'middle', u'right']","[0.9, 0.5, 0.1]","[u'medium', u'low', u'high']","red",49,"left","medium","True","False",346,1300,NA
"A1VWP7HOSGKATD","Tue Jan 28 2020 08:56:50 GMT-0500 (Eastern Standard Time)","Tue Jan 28 2020 09:09:30 GMT-0500 (Eastern Standard Time)","Mozilla/5.0 (Windows NT 6.3; Win64; x64) AppleWebKit/537.36 (KHTML, like Gecko) Chrome/79.0.3945.117 Safari/537.36",62,"[0.9, 0.5, 0.1]","[0.8, 0.4, 0.2]","[u'red', u'blue', u'black']","[u'left', u'middle', u'right']","[0.9, 0.5, 0.1]","[u'medium', u'low', u'high']","blue",50,"middle","low","False","False",3434,1250,NA
"A1VWP7HOSGKATD","Tue Jan 28 2020 08:56:50 GMT-0500 (Eastern Standard Time)","Tue Jan 28 2020 09:09:30 GMT-0500 (Eastern Standard Time)","Mozilla/5.0 (Windows NT 6.3; Win64; x64) AppleWebKit/537.36 (KHTML, like Gecko) Chrome/79.0.3945.117 Safari/537.36",63,"[0.9, 0.5, 0.1]","[0.8, 0.4, 0.2]","[u'red', u'blue', u'black']","[u'left', u'middle', u'right']","[0.9, 0.5, 0.1]","[u'medium', u'low', u'high']","black",51,"right","high","True","False",558,1350,NA
"A1VWP7HOSGKATD","Tue Jan 28 2020 08:56:50 GMT-0500 (Eastern Standard Time)","Tue Jan 28 2020 09:09:30 GMT-0500 (Eastern Standard Time)","Mozilla/5.0 (Windows NT 6.3; Win64; x64) AppleWebKit/537.36 (KHTML, like Gecko) Chrome/79.0.3945.117 Safari/537.36",64,"[0.9, 0.5, 0.1]","[0.8, 0.4, 0.2]","[u'red', u'blue', u'black']","[u'left', u'middle', u'right']","[0.9, 0.5, 0.1]","[u'medium', u'low', u'high']","blue",50,"middle","low","False","False",582,1300,NA
"A1VWP7HOSGKATD","Tue Jan 28 2020 08:56:50 GMT-0500 (Eastern Standard Time)","Tue Jan 28 2020 09:09:30 GMT-0500 (Eastern Standard Time)","Mozilla/5.0 (Windows NT 6.3; Win64; x64) AppleWebKit/537.36 (KHTML, like Gecko) Chrome/79.0.3945.117 Safari/537.36",65,"[0.9, 0.5, 0.1]","[0.8, 0.4, 0.2]","[u'red', u'blue', u'black']","[u'left', u'middle', u'right']","[0.9, 0.5, 0.1]","[u'medium', u'low', u'high']","red",49,"left","medium","True","False",316,1400,NA
"A1VWP7HOSGKATD","Tue Jan 28 2020 08:56:50 GMT-0500 (Eastern Standard Time)","Tue Jan 28 2020 09:09:30 GMT-0500 (Eastern Standard Time)","Mozilla/5.0 (Windows NT 6.3; Win64; x64) AppleWebKit/537.36 (KHTML, like Gecko) Chrome/79.0.3945.117 Safari/537.36",66,"[0.9, 0.5, 0.1]","[0.8, 0.4, 0.2]","[u'red', u'blue', u'black']","[u'left', u'middle', u'right']","[0.9, 0.5, 0.1]","[u'medium', u'low', u'high']","blue",50,"middle","low","False","False",868,1350,NA
"A1VWP7HOSGKATD","Tue Jan 28 2020 08:56:50 GMT-0500 (Eastern Standard Time)","Tue Jan 28 2020 09:09:30 GMT-0500 (Eastern Standard Time)","Mozilla/5.0 (Windows NT 6.3; Win64; x64) AppleWebKit/537.36 (KHTML, like Gecko) Chrome/79.0.3945.117 Safari/537.36",67,"[0.9, 0.5, 0.1]","[0.8, 0.4, 0.2]","[u'red', u'blue', u'black']","[u'left', u'middle', u'right']","[0.9, 0.5, 0.1]","[u'medium', u'low', u'high']","black",51,"right","high","True","False",7975,1450,NA
"A1VWP7HOSGKATD","Tue Jan 28 2020 08:56:50 GMT-0500 (Eastern Standard Time)","Tue Jan 28 2020 09:09:30 GMT-0500 (Eastern Standard Time)","Mozilla/5.0 (Windows NT 6.3; Win64; x64) AppleWebKit/537.36 (KHTML, like Gecko) Chrome/79.0.3945.117 Safari/537.36",68,"[0.9, 0.5, 0.1]","[0.8, 0.4, 0.2]","[u'red', u'blue', u'black']","[u'left', u'middle', u'right']","[0.9, 0.5, 0.1]","[u'medium', u'low', u'high']","black",51,"right","high","True","False",297,1550,NA
"A1VWP7HOSGKATD","Tue Jan 28 2020 08:56:50 GMT-0500 (Eastern Standard Time)","Tue Jan 28 2020 09:09:30 GMT-0500 (Eastern Standard Time)","Mozilla/5.0 (Windows NT 6.3; Win64; x64) AppleWebKit/537.36 (KHTML, like Gecko) Chrome/79.0.3945.117 Safari/537.36",69,"[0.9, 0.5, 0.1]","[0.8, 0.4, 0.2]","[u'red', u'blue', u'black']","[u'left', u'middle', u'right']","[0.9, 0.5, 0.1]","[u'medium', u'low', u'high']","blue",50,"middle","low","False","False",541,1500,NA
"A1VWP7HOSGKATD","Tue Jan 28 2020 08:56:50 GMT-0500 (Eastern Standard Time)","Tue Jan 28 2020 09:09:30 GMT-0500 (Eastern Standard Time)","Mozilla/5.0 (Windows NT 6.3; Win64; x64) AppleWebKit/537.36 (KHTML, like Gecko) Chrome/79.0.3945.117 Safari/537.36",70,"[0.9, 0.5, 0.1]","[0.8, 0.4, 0.2]","[u'red', u'blue', u'black']","[u'left', u'middle', u'right']","[0.9, 0.5, 0.1]","[u'medium', u'low', u'high']","red",49,"left","medium","True","False",254,1600,NA
"A1VWP7HOSGKATD","Tue Jan 28 2020 08:56:50 GMT-0500 (Eastern Standard Time)","Tue Jan 28 2020 09:09:30 GMT-0500 (Eastern Standard Time)","Mozilla/5.0 (Windows NT 6.3; Win64; x64) AppleWebKit/537.36 (KHTML, like Gecko) Chrome/79.0.3945.117 Safari/537.36",71,"[0.9, 0.5, 0.1]","[0.8, 0.4, 0.2]","[u'red', u'blue', u'black']","[u'left', u'middle', u'right']","[0.9, 0.5, 0.1]","[u'medium', u'low', u'high']","red",49,"left","medium","False","False",1,1550,NA
"A1VWP7HOSGKATD","Tue Jan 28 2020 08:56:50 GMT-0500 (Eastern Standard Time)","Tue Jan 28 2020 09:09:30 GMT-0500 (Eastern Standard Time)","Mozilla/5.0 (Windows NT 6.3; Win64; x64) AppleWebKit/537.36 (KHTML, like Gecko) Chrome/79.0.3945.117 Safari/537.36",72,"[0.9, 0.5, 0.1]","[0.8, 0.4, 0.2]","[u'red', u'blue', u'black']","[u'left', u'middle', u'right']","[0.9, 0.5, 0.1]","[u'medium', u'low', u'high']","blue",50,"middle","low","False","False",577,1500,NA
"A1VWP7HOSGKATD","Tue Jan 28 2020 08:56:50 GMT-0500 (Eastern Standard Time)","Tue Jan 28 2020 09:09:30 GMT-0500 (Eastern Standard Time)","Mozilla/5.0 (Windows NT 6.3; Win64; x64) AppleWebKit/537.36 (KHTML, like Gecko) Chrome/79.0.3945.117 Safari/537.36",73,"[0.9, 0.5, 0.1]","[0.8, 0.4, 0.2]","[u'red', u'blue', u'black']","[u'left', u'middle', u'right']","[0.9, 0.5, 0.1]","[u'medium', u'low', u'high']","blue",50,"middle","low","False","False",4908,1450,NA
"A1VWP7HOSGKATD","Tue Jan 28 2020 08:56:50 GMT-0500 (Eastern Standard Time)","Tue Jan 28 2020 09:09:30 GMT-0500 (Eastern Standard Time)","Mozilla/5.0 (Windows NT 6.3; Win64; x64) AppleWebKit/537.36 (KHTML, like Gecko) Chrome/79.0.3945.117 Safari/537.36",74,"[0.9, 0.5, 0.1]","[0.8, 0.4, 0.2]","[u'red', u'blue', u'black']","[u'left', u'middle', u'right']","[0.9, 0.5, 0.1]","[u'medium', u'low', u'high']","blue",50,"middle","low","False","False",4935,1400,NA
"A1VWP7HOSGKATD","Tue Jan 28 2020 08:56:50 GMT-0500 (Eastern Standard Time)","Tue Jan 28 2020 09:09:30 GMT-0500 (Eastern Standard Time)","Mozilla/5.0 (Windows NT 6.3; Win64; x64) AppleWebKit/537.36 (KHTML, like Gecko) Chrome/79.0.3945.117 Safari/537.36",75,"[0.9, 0.5, 0.1]","[0.8, 0.4, 0.2]","[u'red', u'blue', u'black']","[u'left', u'middle', u'right']","[0.9, 0.5, 0.1]","[u'medium', u'low', u'high']","red",49,"left","medium","True","False",481,1500,NA
"A1VWP7HOSGKATD","Tue Jan 28 2020 08:56:50 GMT-0500 (Eastern Standard Time)","Tue Jan 28 2020 09:09:30 GMT-0500 (Eastern Standard Time)","Mozilla/5.0 (Windows NT 6.3; Win64; x64) AppleWebKit/537.36 (KHTML, like Gecko) Chrome/79.0.3945.117 Safari/537.36",76,"[0.9, 0.5, 0.1]","[0.8, 0.4, 0.2]","[u'red', u'blue', u'black']","[u'left', u'middle', u'right']","[0.9, 0.5, 0.1]","[u'medium', u'low', u'high']","black",51,"right","high","True","False",987,1600,NA
"A1VWP7HOSGKATD","Tue Jan 28 2020 08:56:50 GMT-0500 (Eastern Standard Time)","Tue Jan 28 2020 09:09:30 GMT-0500 (Eastern Standard Time)","Mozilla/5.0 (Windows NT 6.3; Win64; x64) AppleWebKit/537.36 (KHTML, like Gecko) Chrome/79.0.3945.117 Safari/537.36",77,"[0.9, 0.5, 0.1]","[0.8, 0.4, 0.2]","[u'red', u'blue', u'black']","[u'left', u'middle', u'right']","[0.9, 0.5, 0.1]","[u'medium', u'low', u'high']","red",49,"left","medium","False","False",2110,1550,NA
"A1VWP7HOSGKATD","Tue Jan 28 2020 08:56:50 GMT-0500 (Eastern Standard Time)","Tue Jan 28 2020 09:09:30 GMT-0500 (Eastern Standard Time)","Mozilla/5.0 (Windows NT 6.3; Win64; x64) AppleWebKit/537.36 (KHTML, like Gecko) Chrome/79.0.3945.117 Safari/537.36",78,"[0.9, 0.5, 0.1]","[0.8, 0.4, 0.2]","[u'red', u'blue', u'black']","[u'left', u'middle', u'right']","[0.9, 0.5, 0.1]","[u'medium', u'low', u'high']","blue",50,"middle","low","False","False",447,1500,NA
"A1VWP7HOSGKATD","Tue Jan 28 2020 08:56:50 GMT-0500 (Eastern Standard Time)","Tue Jan 28 2020 09:09:30 GMT-0500 (Eastern Standard Time)","Mozilla/5.0 (Windows NT 6.3; Win64; x64) AppleWebKit/537.36 (KHTML, like Gecko) Chrome/79.0.3945.117 Safari/537.36",79,"[0.9, 0.5, 0.1]","[0.8, 0.4, 0.2]","[u'red', u'blue', u'black']","[u'left', u'middle', u'right']","[0.9, 0.5, 0.1]","[u'medium', u'low', u'high']","blue",50,"middle","low","False","False",845,1450,NA
"A1VWP7HOSGKATD","Tue Jan 28 2020 08:56:50 GMT-0500 (Eastern Standard Time)","Tue Jan 28 2020 09:09:30 GMT-0500 (Eastern Standard Time)","Mozilla/5.0 (Windows NT 6.3; Win64; x64) AppleWebKit/537.36 (KHTML, like Gecko) Chrome/79.0.3945.117 Safari/537.36",80,"[0.9, 0.5, 0.1]","[0.8, 0.4, 0.2]","[u'red', u'blue', u'black']","[u'left', u'middle', u'right']","[0.9, 0.5, 0.1]","[u'medium', u'low', u'high']","black",51,"right","high","True","False",958,1550,NA
"A1VWP7HOSGKATD","Tue Jan 28 2020 08:56:50 GMT-0500 (Eastern Standard Time)","Tue Jan 28 2020 09:09:30 GMT-0500 (Eastern Standard Time)","Mozilla/5.0 (Windows NT 6.3; Win64; x64) AppleWebKit/537.36 (KHTML, like Gecko) Chrome/79.0.3945.117 Safari/537.36",81,"[0.9, 0.5, 0.1]","[0.8, 0.4, 0.2]","[u'red', u'blue', u'black']","[u'left', u'middle', u'right']","[0.8, 0.4, 0.2]","[u'medium', u'high', u'low']","red",49,"left","medium","False","False",855,1500,NA
"A1VWP7HOSGKATD","Tue Jan 28 2020 08:56:50 GMT-0500 (Eastern Standard Time)","Tue Jan 28 2020 09:09:30 GMT-0500 (Eastern Standard Time)","Mozilla/5.0 (Windows NT 6.3; Win64; x64) AppleWebKit/537.36 (KHTML, like Gecko) Chrome/79.0.3945.117 Safari/537.36",82,"[0.9, 0.5, 0.1]","[0.8, 0.4, 0.2]","[u'red', u'blue', u'black']","[u'left', u'middle', u'right']","[0.8, 0.4, 0.2]","[u'medium', u'high', u'low']","blue",50,"middle","high","True","False",345,1600,NA
"A1VWP7HOSGKATD","Tue Jan 28 2020 08:56:50 GMT-0500 (Eastern Standard Time)","Tue Jan 28 2020 09:09:30 GMT-0500 (Eastern Standard Time)","Mozilla/5.0 (Windows NT 6.3; Win64; x64) AppleWebKit/537.36 (KHTML, like Gecko) Chrome/79.0.3945.117 Safari/537.36",83,"[0.9, 0.5, 0.1]","[0.8, 0.4, 0.2]","[u'red', u'blue', u'black']","[u'left', u'middle', u'right']","[0.8, 0.4, 0.2]","[u'medium', u'high', u'low']","black",51,"right","low","False","False",1681,1550,NA
"A1VWP7HOSGKATD","Tue Jan 28 2020 08:56:50 GMT-0500 (Eastern Standard Time)","Tue Jan 28 2020 09:09:30 GMT-0500 (Eastern Standard Time)","Mozilla/5.0 (Windows NT 6.3; Win64; x64) AppleWebKit/537.36 (KHTML, like Gecko) Chrome/79.0.3945.117 Safari/537.36",84,"[0.9, 0.5, 0.1]","[0.8, 0.4, 0.2]","[u'red', u'blue', u'black']","[u'left', u'middle', u'right']","[0.8, 0.4, 0.2]","[u'medium', u'high', u'low']","blue",50,"middle","high","False","False",330,1500,NA
"A1VWP7HOSGKATD","Tue Jan 28 2020 08:56:50 GMT-0500 (Eastern Standard Time)","Tue Jan 28 2020 09:09:30 GMT-0500 (Eastern Standard Time)","Mozilla/5.0 (Windows NT 6.3; Win64; x64) AppleWebKit/537.36 (KHTML, like Gecko) Chrome/79.0.3945.117 Safari/537.36",85,"[0.9, 0.5, 0.1]","[0.8, 0.4, 0.2]","[u'red', u'blue', u'black']","[u'left', u'middle', u'right']","[0.8, 0.4, 0.2]","[u'medium', u'high', u'low']","red",49,"left","medium","False","False",250,1450,NA
"A1VWP7HOSGKATD","Tue Jan 28 2020 08:56:50 GMT-0500 (Eastern Standard Time)","Tue Jan 28 2020 09:09:30 GMT-0500 (Eastern Standard Time)","Mozilla/5.0 (Windows NT 6.3; Win64; x64) AppleWebKit/537.36 (KHTML, like Gecko) Chrome/79.0.3945.117 Safari/537.36",86,"[0.9, 0.5, 0.1]","[0.8, 0.4, 0.2]","[u'red', u'blue', u'black']","[u'left', u'middle', u'right']","[0.8, 0.4, 0.2]","[u'medium', u'high', u'low']","blue",50,"middle","high","True","False",2746,1550,NA
"A1VWP7HOSGKATD","Tue Jan 28 2020 08:56:50 GMT-0500 (Eastern Standard Time)","Tue Jan 28 2020 09:09:30 GMT-0500 (Eastern Standard Time)","Mozilla/5.0 (Windows NT 6.3; Win64; x64) AppleWebKit/537.36 (KHTML, like Gecko) Chrome/79.0.3945.117 Safari/537.36",87,"[0.9, 0.5, 0.1]","[0.8, 0.4, 0.2]","[u'red', u'blue', u'black']","[u'left', u'middle', u'right']","[0.8, 0.4, 0.2]","[u'medium', u'high', u'low']","red",49,"left","medium","False","False",316,1500,NA
"A1VWP7HOSGKATD","Tue Jan 28 2020 08:56:50 GMT-0500 (Eastern Standard Time)","Tue Jan 28 2020 09:09:30 GMT-0500 (Eastern Standard Time)","Mozilla/5.0 (Windows NT 6.3; Win64; x64) AppleWebKit/537.36 (KHTML, like Gecko) Chrome/79.0.3945.117 Safari/537.36",88,"[0.9, 0.5, 0.1]","[0.8, 0.4, 0.2]","[u'red', u'blue', u'black']","[u'left', u'middle', u'right']","[0.8, 0.4, 0.2]","[u'medium', u'high', u'low']","blue",50,"middle","high","True","False",371,1600,NA
"A1VWP7HOSGKATD","Tue Jan 28 2020 08:56:50 GMT-0500 (Eastern Standard Time)","Tue Jan 28 2020 09:09:30 GMT-0500 (Eastern Standard Time)","Mozilla/5.0 (Windows NT 6.3; Win64; x64) AppleWebKit/537.36 (KHTML, like Gecko) Chrome/79.0.3945.117 Safari/537.36",89,"[0.9, 0.5, 0.1]","[0.8, 0.4, 0.2]","[u'red', u'blue', u'black']","[u'left', u'middle', u'right']","[0.8, 0.4, 0.2]","[u'medium', u'high', u'low']","blue",50,"middle","high","True","False",635,1700,NA
"A1VWP7HOSGKATD","Tue Jan 28 2020 08:56:50 GMT-0500 (Eastern Standard Time)","Tue Jan 28 2020 09:09:30 GMT-0500 (Eastern Standard Time)","Mozilla/5.0 (Windows NT 6.3; Win64; x64) AppleWebKit/537.36 (KHTML, like Gecko) Chrome/79.0.3945.117 Safari/537.36",90,"[0.9, 0.5, 0.1]","[0.8, 0.4, 0.2]","[u'red', u'blue', u'black']","[u'left', u'middle', u'right']","[0.8, 0.4, 0.2]","[u'medium', u'high', u'low']","blue",50,"middle","high","True","False",14,1800,NA
"A1VWP7HOSGKATD","Tue Jan 28 2020 08:56:50 GMT-0500 (Eastern Standard Time)","Tue Jan 28 2020 09:09:30 GMT-0500 (Eastern Standard Time)","Mozilla/5.0 (Windows NT 6.3; Win64; x64) AppleWebKit/537.36 (KHTML, like Gecko) Chrome/79.0.3945.117 Safari/537.36",91,"[0.9, 0.5, 0.1]","[0.8, 0.4, 0.2]","[u'red', u'blue', u'black']","[u'left', u'middle', u'right']","[0.8, 0.4, 0.2]","[u'medium', u'high', u'low']","black",51,"right","low","False","False",261,1750,NA
"A1VWP7HOSGKATD","Tue Jan 28 2020 08:56:50 GMT-0500 (Eastern Standard Time)","Tue Jan 28 2020 09:09:30 GMT-0500 (Eastern Standard Time)","Mozilla/5.0 (Windows NT 6.3; Win64; x64) AppleWebKit/537.36 (KHTML, like Gecko) Chrome/79.0.3945.117 Safari/537.36",92,"[0.9, 0.5, 0.1]","[0.8, 0.4, 0.2]","[u'red', u'blue', u'black']","[u'left', u'middle', u'right']","[0.8, 0.4, 0.2]","[u'medium', u'high', u'low']","blue",50,"middle","high","False","False",119,1700,NA
"A1VWP7HOSGKATD","Tue Jan 28 2020 08:56:50 GMT-0500 (Eastern Standard Time)","Tue Jan 28 2020 09:09:30 GMT-0500 (Eastern Standard Time)","Mozilla/5.0 (Windows NT 6.3; Win64; x64) AppleWebKit/537.36 (KHTML, like Gecko) Chrome/79.0.3945.117 Safari/537.36",93,"[0.9, 0.5, 0.1]","[0.8, 0.4, 0.2]","[u'red', u'blue', u'black']","[u'left', u'middle', u'right']","[0.8, 0.4, 0.2]","[u'medium', u'high', u'low']","red",49,"left","medium","False","False",878,1650,NA
"A1VWP7HOSGKATD","Tue Jan 28 2020 08:56:50 GMT-0500 (Eastern Standard Time)","Tue Jan 28 2020 09:09:30 GMT-0500 (Eastern Standard Time)","Mozilla/5.0 (Windows NT 6.3; Win64; x64) AppleWebKit/537.36 (KHTML, like Gecko) Chrome/79.0.3945.117 Safari/537.36",94,"[0.9, 0.5, 0.1]","[0.8, 0.4, 0.2]","[u'red', u'blue', u'black']","[u'left', u'middle', u'right']","[0.8, 0.4, 0.2]","[u'medium', u'high', u'low']","blue",50,"middle","high","True","False",270,1750,NA
"A1VWP7HOSGKATD","Tue Jan 28 2020 08:56:50 GMT-0500 (Eastern Standard Time)","Tue Jan 28 2020 09:09:30 GMT-0500 (Eastern Standard Time)","Mozilla/5.0 (Windows NT 6.3; Win64; x64) AppleWebKit/537.36 (KHTML, like Gecko) Chrome/79.0.3945.117 Safari/537.36",95,"[0.9, 0.5, 0.1]","[0.8, 0.4, 0.2]","[u'red', u'blue', u'black']","[u'left', u'middle', u'right']","[0.8, 0.4, 0.2]","[u'medium', u'high', u'low']","black",51,"right","low","True","False",34,1850,NA
"A1VWP7HOSGKATD","Tue Jan 28 2020 08:56:50 GMT-0500 (Eastern Standard Time)","Tue Jan 28 2020 09:09:30 GMT-0500 (Eastern Standard Time)","Mozilla/5.0 (Windows NT 6.3; Win64; x64) AppleWebKit/537.36 (KHTML, like Gecko) Chrome/79.0.3945.117 Safari/537.36",96,"[0.9, 0.5, 0.1]","[0.8, 0.4, 0.2]","[u'red', u'blue', u'black']","[u'left', u'middle', u'right']","[0.8, 0.4, 0.2]","[u'medium', u'high', u'low']","blue",50,"middle","high","True","False",98,1950,NA
"A1VWP7HOSGKATD","Tue Jan 28 2020 08:56:50 GMT-0500 (Eastern Standard Time)","Tue Jan 28 2020 09:09:30 GMT-0500 (Eastern Standard Time)","Mozilla/5.0 (Windows NT 6.3; Win64; x64) AppleWebKit/537.36 (KHTML, like Gecko) Chrome/79.0.3945.117 Safari/537.36",97,"[0.9, 0.5, 0.1]","[0.8, 0.4, 0.2]","[u'red', u'blue', u'black']","[u'left', u'middle', u'right']","[0.8, 0.4, 0.2]","[u'medium', u'high', u'low']","blue",50,"middle","high","False","False",1175,1900,NA
"A1VWP7HOSGKATD","Tue Jan 28 2020 08:56:50 GMT-0500 (Eastern Standard Time)","Tue Jan 28 2020 09:09:30 GMT-0500 (Eastern Standard Time)","Mozilla/5.0 (Windows NT 6.3; Win64; x64) AppleWebKit/537.36 (KHTML, like Gecko) Chrome/79.0.3945.117 Safari/537.36",98,"[0.9, 0.5, 0.1]","[0.8, 0.4, 0.2]","[u'red', u'blue', u'black']","[u'left', u'middle', u'right']","[0.8, 0.4, 0.2]","[u'medium', u'high', u'low']","black",51,"right","low","False","False",1346,1850,NA
"A1VWP7HOSGKATD","Tue Jan 28 2020 08:56:50 GMT-0500 (Eastern Standard Time)","Tue Jan 28 2020 09:09:30 GMT-0500 (Eastern Standard Time)","Mozilla/5.0 (Windows NT 6.3; Win64; x64) AppleWebKit/537.36 (KHTML, like Gecko) Chrome/79.0.3945.117 Safari/537.36",99,"[0.9, 0.5, 0.1]","[0.8, 0.4, 0.2]","[u'red', u'blue', u'black']","[u'left', u'middle', u'right']","[0.8, 0.4, 0.2]","[u'medium', u'high', u'low']","red",49,"left","medium","False","False",553,1800,NA
"A1VWP7HOSGKATD","Tue Jan 28 2020 08:56:50 GMT-0500 (Eastern Standard Time)","Tue Jan 28 2020 09:09:30 GMT-0500 (Eastern Standard Time)","Mozilla/5.0 (Windows NT 6.3; Win64; x64) AppleWebKit/537.36 (KHTML, like Gecko) Chrome/79.0.3945.117 Safari/537.36",100,"[0.9, 0.5, 0.1]","[0.8, 0.4, 0.2]","[u'red', u'blue', u'black']","[u'left', u'middle', u'right']","[0.8, 0.4, 0.2]","[u'medium', u'high', u'low']","black",51,"right","low","False","False",2905,1750,NA
"A1VWP7HOSGKATD","Tue Jan 28 2020 08:56:50 GMT-0500 (Eastern Standard Time)","Tue Jan 28 2020 09:09:30 GMT-0500 (Eastern Standard Time)","Mozilla/5.0 (Windows NT 6.3; Win64; x64) AppleWebKit/537.36 (KHTML, like Gecko) Chrome/79.0.3945.117 Safari/537.36",101,"[0.9, 0.5, 0.1]","[0.8, 0.4, 0.2]","[u'red', u'blue', u'black']","[u'left', u'middle', u'right']","[0.8, 0.4, 0.2]","[u'medium', u'high', u'low']","red",49,"left","medium","False","False",1851,1700,NA
"A1VWP7HOSGKATD","Tue Jan 28 2020 08:56:50 GMT-0500 (Eastern Standard Time)","Tue Jan 28 2020 09:09:30 GMT-0500 (Eastern Standard Time)","Mozilla/5.0 (Windows NT 6.3; Win64; x64) AppleWebKit/537.36 (KHTML, like Gecko) Chrome/79.0.3945.117 Safari/537.36",102,"[0.9, 0.5, 0.1]","[0.8, 0.4, 0.2]","[u'red', u'blue', u'black']","[u'left', u'middle', u'right']","[0.8, 0.4, 0.2]","[u'medium', u'high', u'low']","red",49,"left","medium","False","False",1065,1650,NA
"A1VWP7HOSGKATD","Tue Jan 28 2020 08:56:50 GMT-0500 (Eastern Standard Time)","Tue Jan 28 2020 09:09:30 GMT-0500 (Eastern Standard Time)","Mozilla/5.0 (Windows NT 6.3; Win64; x64) AppleWebKit/537.36 (KHTML, like Gecko) Chrome/79.0.3945.117 Safari/537.36",103,"[0.9, 0.5, 0.1]","[0.8, 0.4, 0.2]","[u'red', u'blue', u'black']","[u'left', u'middle', u'right']","[0.8, 0.4, 0.2]","[u'medium', u'high', u'low']","red",49,"left","medium","False","False",81,1600,NA
"A1VWP7HOSGKATD","Tue Jan 28 2020 08:56:50 GMT-0500 (Eastern Standard Time)","Tue Jan 28 2020 09:09:30 GMT-0500 (Eastern Standard Time)","Mozilla/5.0 (Windows NT 6.3; Win64; x64) AppleWebKit/537.36 (KHTML, like Gecko) Chrome/79.0.3945.117 Safari/537.36",104,"[0.9, 0.5, 0.1]","[0.8, 0.4, 0.2]","[u'red', u'blue', u'black']","[u'left', u'middle', u'right']","[0.8, 0.4, 0.2]","[u'medium', u'high', u'low']","black",51,"right","low","False","False",213,1550,NA
"A1VWP7HOSGKATD","Tue Jan 28 2020 08:56:50 GMT-0500 (Eastern Standard Time)","Tue Jan 28 2020 09:09:30 GMT-0500 (Eastern Standard Time)","Mozilla/5.0 (Windows NT 6.3; Win64; x64) AppleWebKit/537.36 (KHTML, like Gecko) Chrome/79.0.3945.117 Safari/537.36",105,"[0.9, 0.5, 0.1]","[0.8, 0.4, 0.2]","[u'red', u'blue', u'black']","[u'left', u'middle', u'right']","[0.8, 0.4, 0.2]","[u'medium', u'high', u'low']","blue",50,"middle","high","True","False",855,1650,NA
"A1VWP7HOSGKATD","Tue Jan 28 2020 08:56:50 GMT-0500 (Eastern Standard Time)","Tue Jan 28 2020 09:09:30 GMT-0500 (Eastern Standard Time)","Mozilla/5.0 (Windows NT 6.3; Win64; x64) AppleWebKit/537.36 (KHTML, like Gecko) Chrome/79.0.3945.117 Safari/537.36",106,"[0.9, 0.5, 0.1]","[0.8, 0.4, 0.2]","[u'red', u'blue', u'black']","[u'left', u'middle', u'right']","[0.8, 0.4, 0.2]","[u'medium', u'high', u'low']","blue",50,"middle","high","True","False",115,1750,NA
"A1VWP7HOSGKATD","Tue Jan 28 2020 08:56:50 GMT-0500 (Eastern Standard Time)","Tue Jan 28 2020 09:09:30 GMT-0500 (Eastern Standard Time)","Mozilla/5.0 (Windows NT 6.3; Win64; x64) AppleWebKit/537.36 (KHTML, like Gecko) Chrome/79.0.3945.117 Safari/537.36",107,"[0.9, 0.5, 0.1]","[0.8, 0.4, 0.2]","[u'red', u'blue', u'black']","[u'left', u'middle', u'right']","[0.8, 0.4, 0.2]","[u'medium', u'high', u'low']","black",51,"right","low","False","False",589,1700,NA
"A1VWP7HOSGKATD","Tue Jan 28 2020 08:56:50 GMT-0500 (Eastern Standard Time)","Tue Jan 28 2020 09:09:30 GMT-0500 (Eastern Standard Time)","Mozilla/5.0 (Windows NT 6.3; Win64; x64) AppleWebKit/537.36 (KHTML, like Gecko) Chrome/79.0.3945.117 Safari/537.36",108,"[0.9, 0.5, 0.1]","[0.8, 0.4, 0.2]","[u'red', u'blue', u'black']","[u'left', u'middle', u'right']","[0.8, 0.4, 0.2]","[u'medium', u'high', u'low']","red",49,"left","medium","False","False",522,1650,NA
"A1VWP7HOSGKATD","Tue Jan 28 2020 08:56:50 GMT-0500 (Eastern Standard Time)","Tue Jan 28 2020 09:09:30 GMT-0500 (Eastern Standard Time)","Mozilla/5.0 (Windows NT 6.3; Win64; x64) AppleWebKit/537.36 (KHTML, like Gecko) Chrome/79.0.3945.117 Safari/537.36",109,"[0.9, 0.5, 0.1]","[0.8, 0.4, 0.2]","[u'red', u'blue', u'black']","[u'left', u'middle', u'right']","[0.8, 0.4, 0.2]","[u'medium', u'high', u'low']","blue",50,"middle","high","True","False",1963,1750,NA
"A1VWP7HOSGKATD","Tue Jan 28 2020 08:56:50 GMT-0500 (Eastern Standard Time)","Tue Jan 28 2020 09:09:30 GMT-0500 (Eastern Standard Time)","Mozilla/5.0 (Windows NT 6.3; Win64; x64) AppleWebKit/537.36 (KHTML, like Gecko) Chrome/79.0.3945.117 Safari/537.36",110,"[0.9, 0.5, 0.1]","[0.8, 0.4, 0.2]","[u'red', u'blue', u'black']","[u'left', u'middle', u'right']","[0.8, 0.4, 0.2]","[u'medium', u'high', u'low']","blue",50,"middle","high","True","False",860,1850,NA
"A1VWP7HOSGKATD","Tue Jan 28 2020 08:56:50 GMT-0500 (Eastern Standard Time)","Tue Jan 28 2020 09:09:30 GMT-0500 (Eastern Standard Time)","Mozilla/5.0 (Windows NT 6.3; Win64; x64) AppleWebKit/537.36 (KHTML, like Gecko) Chrome/79.0.3945.117 Safari/537.36",111,"[0.9, 0.5, 0.1]","[0.8, 0.4, 0.2]","[u'red', u'blue', u'black']","[u'left', u'middle', u'right']","[0.8, 0.4, 0.2]","[u'medium', u'high', u'low']","blue",50,"middle","high","False","False",460,1800,NA
"A1VWP7HOSGKATD","Tue Jan 28 2020 08:56:50 GMT-0500 (Eastern Standard Time)","Tue Jan 28 2020 09:09:30 GMT-0500 (Eastern Standard Time)","Mozilla/5.0 (Windows NT 6.3; Win64; x64) AppleWebKit/537.36 (KHTML, like Gecko) Chrome/79.0.3945.117 Safari/537.36",112,"[0.9, 0.5, 0.1]","[0.8, 0.4, 0.2]","[u'red', u'blue', u'black']","[u'left', u'middle', u'right']","[0.8, 0.4, 0.2]","[u'medium', u'high', u'low']","blue",50,"middle","high","True","False",1752,1900,NA
"A1VWP7HOSGKATD","Tue Jan 28 2020 08:56:50 GMT-0500 (Eastern Standard Time)","Tue Jan 28 2020 09:09:30 GMT-0500 (Eastern Standard Time)","Mozilla/5.0 (Windows NT 6.3; Win64; x64) AppleWebKit/537.36 (KHTML, like Gecko) Chrome/79.0.3945.117 Safari/537.36",113,"[0.9, 0.5, 0.1]","[0.8, 0.4, 0.2]","[u'red', u'blue', u'black']","[u'left', u'middle', u'right']","[0.8, 0.4, 0.2]","[u'medium', u'high', u'low']","blue",50,"middle","high","True","False",283,2000,NA
"A1VWP7HOSGKATD","Tue Jan 28 2020 08:56:50 GMT-0500 (Eastern Standard Time)","Tue Jan 28 2020 09:09:30 GMT-0500 (Eastern Standard Time)","Mozilla/5.0 (Windows NT 6.3; Win64; x64) AppleWebKit/537.36 (KHTML, like Gecko) Chrome/79.0.3945.117 Safari/537.36",114,"[0.9, 0.5, 0.1]","[0.8, 0.4, 0.2]","[u'red', u'blue', u'black']","[u'left', u'middle', u'right']","[0.8, 0.4, 0.2]","[u'medium', u'high', u'low']","blue",50,"middle","high","True","False",742,2100,NA
"A1VWP7HOSGKATD","Tue Jan 28 2020 08:56:50 GMT-0500 (Eastern Standard Time)","Tue Jan 28 2020 09:09:30 GMT-0500 (Eastern Standard Time)","Mozilla/5.0 (Windows NT 6.3; Win64; x64) AppleWebKit/537.36 (KHTML, like Gecko) Chrome/79.0.3945.117 Safari/537.36",115,"[0.9, 0.5, 0.1]","[0.8, 0.4, 0.2]","[u'red', u'blue', u'black']","[u'left', u'middle', u'right']","[0.8, 0.4, 0.2]","[u'medium', u'high', u'low']","red",49,"left","medium","False","False",613,2050,NA
"A1VWP7HOSGKATD","Tue Jan 28 2020 08:56:50 GMT-0500 (Eastern Standard Time)","Tue Jan 28 2020 09:09:30 GMT-0500 (Eastern Standard Time)","Mozilla/5.0 (Windows NT 6.3; Win64; x64) AppleWebKit/537.36 (KHTML, like Gecko) Chrome/79.0.3945.117 Safari/537.36",116,"[0.9, 0.5, 0.1]","[0.8, 0.4, 0.2]","[u'red', u'blue', u'black']","[u'left', u'middle', u'right']","[0.8, 0.4, 0.2]","[u'medium', u'high', u'low']","red",49,"left","medium","True","False",1562,2150,NA
"A1VWP7HOSGKATD","Tue Jan 28 2020 08:56:50 GMT-0500 (Eastern Standard Time)","Tue Jan 28 2020 09:09:30 GMT-0500 (Eastern Standard Time)","Mozilla/5.0 (Windows NT 6.3; Win64; x64) AppleWebKit/537.36 (KHTML, like Gecko) Chrome/79.0.3945.117 Safari/537.36",117,"[0.9, 0.5, 0.1]","[0.8, 0.4, 0.2]","[u'red', u'blue', u'black']","[u'left', u'middle', u'right']","[0.8, 0.4, 0.2]","[u'medium', u'high', u'low']","blue",50,"middle","high","True","False",812,2250,NA
"A1VWP7HOSGKATD","Tue Jan 28 2020 08:56:50 GMT-0500 (Eastern Standard Time)","Tue Jan 28 2020 09:09:30 GMT-0500 (Eastern Standard Time)","Mozilla/5.0 (Windows NT 6.3; Win64; x64) AppleWebKit/537.36 (KHTML, like Gecko) Chrome/79.0.3945.117 Safari/537.36",118,"[0.9, 0.5, 0.1]","[0.8, 0.4, 0.2]","[u'red', u'blue', u'black']","[u'left', u'middle', u'right']","[0.8, 0.4, 0.2]","[u'medium', u'high', u'low']","black",51,"right","low","True","False",205,2350,NA
"A1VWP7HOSGKATD","Tue Jan 28 2020 08:56:50 GMT-0500 (Eastern Standard Time)","Tue Jan 28 2020 09:09:30 GMT-0500 (Eastern Standard Time)","Mozilla/5.0 (Windows NT 6.3; Win64; x64) AppleWebKit/537.36 (KHTML, like Gecko) Chrome/79.0.3945.117 Safari/537.36",119,"[0.9, 0.5, 0.1]","[0.8, 0.4, 0.2]","[u'red', u'blue', u'black']","[u'left', u'middle', u'right']","[0.8, 0.4, 0.2]","[u'medium', u'high', u'low']","blue",50,"middle","high","True","False",281,2450,NA
"A1VWP7HOSGKATD","Tue Jan 28 2020 08:56:50 GMT-0500 (Eastern Standard Time)","Tue Jan 28 2020 09:09:30 GMT-0500 (Eastern Standard Time)","Mozilla/5.0 (Windows NT 6.3; Win64; x64) AppleWebKit/537.36 (KHTML, like Gecko) Chrome/79.0.3945.117 Safari/537.36",120,"[0.9, 0.5, 0.1]","[0.8, 0.4, 0.2]","[u'red', u'blue', u'black']","[u'left', u'middle', u'right']","[0.8, 0.4, 0.2]","[u'medium', u'high', u'low']","red",49,"left","medium","False","False",663,2400,NA
"A1VWP7HOSGKATD","Tue Jan 28 2020 08:56:50 GMT-0500 (Eastern Standard Time)","Tue Jan 28 2020 09:09:30 GMT-0500 (Eastern Standard Time)","Mozilla/5.0 (Windows NT 6.3; Win64; x64) AppleWebKit/537.36 (KHTML, like Gecko) Chrome/79.0.3945.117 Safari/537.36",121,"[0.9, 0.5, 0.1]","[0.8, 0.4, 0.2]","[u'red', u'blue', u'black']","[u'left', u'middle', u'right']","[0.8, 0.4, 0.2]","[u'high', u'medium', u'low']","blue",50,"middle","medium","False","False",2264,2350,NA
"A1VWP7HOSGKATD","Tue Jan 28 2020 08:56:50 GMT-0500 (Eastern Standard Time)","Tue Jan 28 2020 09:09:30 GMT-0500 (Eastern Standard Time)","Mozilla/5.0 (Windows NT 6.3; Win64; x64) AppleWebKit/537.36 (KHTML, like Gecko) Chrome/79.0.3945.117 Safari/537.36",122,"[0.9, 0.5, 0.1]","[0.8, 0.4, 0.2]","[u'red', u'blue', u'black']","[u'left', u'middle', u'right']","[0.8, 0.4, 0.2]","[u'high', u'medium', u'low']","blue",50,"middle","medium","True","False",1137,2450,NA
"A1VWP7HOSGKATD","Tue Jan 28 2020 08:56:50 GMT-0500 (Eastern Standard Time)","Tue Jan 28 2020 09:09:30 GMT-0500 (Eastern Standard Time)","Mozilla/5.0 (Windows NT 6.3; Win64; x64) AppleWebKit/537.36 (KHTML, like Gecko) Chrome/79.0.3945.117 Safari/537.36",123,"[0.9, 0.5, 0.1]","[0.8, 0.4, 0.2]","[u'red', u'blue', u'black']","[u'left', u'middle', u'right']","[0.8, 0.4, 0.2]","[u'high', u'medium', u'low']","black",51,"right","low","False","False",476,2400,NA
"A1VWP7HOSGKATD","Tue Jan 28 2020 08:56:50 GMT-0500 (Eastern Standard Time)","Tue Jan 28 2020 09:09:30 GMT-0500 (Eastern Standard Time)","Mozilla/5.0 (Windows NT 6.3; Win64; x64) AppleWebKit/537.36 (KHTML, like Gecko) Chrome/79.0.3945.117 Safari/537.36",124,"[0.9, 0.5, 0.1]","[0.8, 0.4, 0.2]","[u'red', u'blue', u'black']","[u'left', u'middle', u'right']","[0.8, 0.4, 0.2]","[u'high', u'medium', u'low']","blue",50,"middle","medium","True","False",3885,2500,NA
"A1VWP7HOSGKATD","Tue Jan 28 2020 08:56:50 GMT-0500 (Eastern Standard Time)","Tue Jan 28 2020 09:09:30 GMT-0500 (Eastern Standard Time)","Mozilla/5.0 (Windows NT 6.3; Win64; x64) AppleWebKit/537.36 (KHTML, like Gecko) Chrome/79.0.3945.117 Safari/537.36",125,"[0.9, 0.5, 0.1]","[0.8, 0.4, 0.2]","[u'red', u'blue', u'black']","[u'left', u'middle', u'right']","[0.8, 0.4, 0.2]","[u'high', u'medium', u'low']","blue",50,"middle","medium","False","False",18236,2450,NA
"A1VWP7HOSGKATD","Tue Jan 28 2020 08:56:50 GMT-0500 (Eastern Standard Time)","Tue Jan 28 2020 09:09:30 GMT-0500 (Eastern Standard Time)","Mozilla/5.0 (Windows NT 6.3; Win64; x64) AppleWebKit/537.36 (KHTML, like Gecko) Chrome/79.0.3945.117 Safari/537.36",126,"[0.9, 0.5, 0.1]","[0.8, 0.4, 0.2]","[u'red', u'blue', u'black']","[u'left', u'middle', u'right']","[0.8, 0.4, 0.2]","[u'high', u'medium', u'low']","red",49,"left","high","True","False",38,2550,NA
"A1VWP7HOSGKATD","Tue Jan 28 2020 08:56:50 GMT-0500 (Eastern Standard Time)","Tue Jan 28 2020 09:09:30 GMT-0500 (Eastern Standard Time)","Mozilla/5.0 (Windows NT 6.3; Win64; x64) AppleWebKit/537.36 (KHTML, like Gecko) Chrome/79.0.3945.117 Safari/537.36",127,"[0.9, 0.5, 0.1]","[0.8, 0.4, 0.2]","[u'red', u'blue', u'black']","[u'left', u'middle', u'right']","[0.8, 0.4, 0.2]","[u'high', u'medium', u'low']","black",51,"right","low","False","False",987,2500,NA
"A1VWP7HOSGKATD","Tue Jan 28 2020 08:56:50 GMT-0500 (Eastern Standard Time)","Tue Jan 28 2020 09:09:30 GMT-0500 (Eastern Standard Time)","Mozilla/5.0 (Windows NT 6.3; Win64; x64) AppleWebKit/537.36 (KHTML, like Gecko) Chrome/79.0.3945.117 Safari/537.36",128,"[0.9, 0.5, 0.1]","[0.8, 0.4, 0.2]","[u'red', u'blue', u'black']","[u'left', u'middle', u'right']","[0.8, 0.4, 0.2]","[u'high', u'medium', u'low']","red",49,"left","high","True","False",3067,2600,NA
"A1VWP7HOSGKATD","Tue Jan 28 2020 08:56:50 GMT-0500 (Eastern Standard Time)","Tue Jan 28 2020 09:09:30 GMT-0500 (Eastern Standard Time)","Mozilla/5.0 (Windows NT 6.3; Win64; x64) AppleWebKit/537.36 (KHTML, like Gecko) Chrome/79.0.3945.117 Safari/537.36",129,"[0.9, 0.5, 0.1]","[0.8, 0.4, 0.2]","[u'red', u'blue', u'black']","[u'left', u'middle', u'right']","[0.8, 0.4, 0.2]","[u'high', u'medium', u'low']","red",49,"left","high","False","False",504,2550,NA
"A1VWP7HOSGKATD","Tue Jan 28 2020 08:56:50 GMT-0500 (Eastern Standard Time)","Tue Jan 28 2020 09:09:30 GMT-0500 (Eastern Standard Time)","Mozilla/5.0 (Windows NT 6.3; Win64; x64) AppleWebKit/537.36 (KHTML, like Gecko) Chrome/79.0.3945.117 Safari/537.36",130,"[0.9, 0.5, 0.1]","[0.8, 0.4, 0.2]","[u'red', u'blue', u'black']","[u'left', u'middle', u'right']","[0.8, 0.4, 0.2]","[u'high', u'medium', u'low']","blue",50,"middle","medium","False","False",862,2500,NA
"A1VWP7HOSGKATD","Tue Jan 28 2020 08:56:50 GMT-0500 (Eastern Standard Time)","Tue Jan 28 2020 09:09:30 GMT-0500 (Eastern Standard Time)","Mozilla/5.0 (Windows NT 6.3; Win64; x64) AppleWebKit/537.36 (KHTML, like Gecko) Chrome/79.0.3945.117 Safari/537.36",131,"[0.9, 0.5, 0.1]","[0.8, 0.4, 0.2]","[u'red', u'blue', u'black']","[u'left', u'middle', u'right']","[0.8, 0.4, 0.2]","[u'high', u'medium', u'low']","black",51,"right","low","False","False",161,2450,NA
"A1VWP7HOSGKATD","Tue Jan 28 2020 08:56:50 GMT-0500 (Eastern Standard Time)","Tue Jan 28 2020 09:09:30 GMT-0500 (Eastern Standard Time)","Mozilla/5.0 (Windows NT 6.3; Win64; x64) AppleWebKit/537.36 (KHTML, like Gecko) Chrome/79.0.3945.117 Safari/537.36",132,"[0.9, 0.5, 0.1]","[0.8, 0.4, 0.2]","[u'red', u'blue', u'black']","[u'left', u'middle', u'right']","[0.8, 0.4, 0.2]","[u'high', u'medium', u'low']","blue",50,"middle","medium","False","False",45,2400,NA
"A1VWP7HOSGKATD","Tue Jan 28 2020 08:56:50 GMT-0500 (Eastern Standard Time)","Tue Jan 28 2020 09:09:30 GMT-0500 (Eastern Standard Time)","Mozilla/5.0 (Windows NT 6.3; Win64; x64) AppleWebKit/537.36 (KHTML, like Gecko) Chrome/79.0.3945.117 Safari/537.36",133,"[0.9, 0.5, 0.1]","[0.8, 0.4, 0.2]","[u'red', u'blue', u'black']","[u'left', u'middle', u'right']","[0.8, 0.4, 0.2]","[u'high', u'medium', u'low']","red",49,"left","high","True","False",588,2500,NA
"A1VWP7HOSGKATD","Tue Jan 28 2020 08:56:50 GMT-0500 (Eastern Standard Time)","Tue Jan 28 2020 09:09:30 GMT-0500 (Eastern Standard Time)","Mozilla/5.0 (Windows NT 6.3; Win64; x64) AppleWebKit/537.36 (KHTML, like Gecko) Chrome/79.0.3945.117 Safari/537.36",134,"[0.9, 0.5, 0.1]","[0.8, 0.4, 0.2]","[u'red', u'blue', u'black']","[u'left', u'middle', u'right']","[0.8, 0.4, 0.2]","[u'high', u'medium', u'low']","red",49,"left","high","True","False",630,2600,NA
"A1VWP7HOSGKATD","Tue Jan 28 2020 08:56:50 GMT-0500 (Eastern Standard Time)","Tue Jan 28 2020 09:09:30 GMT-0500 (Eastern Standard Time)","Mozilla/5.0 (Windows NT 6.3; Win64; x64) AppleWebKit/537.36 (KHTML, like Gecko) Chrome/79.0.3945.117 Safari/537.36",135,"[0.9, 0.5, 0.1]","[0.8, 0.4, 0.2]","[u'red', u'blue', u'black']","[u'left', u'middle', u'right']","[0.8, 0.4, 0.2]","[u'high', u'medium', u'low']","blue",50,"middle","medium","True","False",48,2700,NA
"A1VWP7HOSGKATD","Tue Jan 28 2020 08:56:50 GMT-0500 (Eastern Standard Time)","Tue Jan 28 2020 09:09:30 GMT-0500 (Eastern Standard Time)","Mozilla/5.0 (Windows NT 6.3; Win64; x64) AppleWebKit/537.36 (KHTML, like Gecko) Chrome/79.0.3945.117 Safari/537.36",136,"[0.9, 0.5, 0.1]","[0.8, 0.4, 0.2]","[u'red', u'blue', u'black']","[u'left', u'middle', u'right']","[0.8, 0.4, 0.2]","[u'high', u'medium', u'low']","blue",50,"middle","medium","True","False",279,2800,NA
"A1VWP7HOSGKATD","Tue Jan 28 2020 08:56:50 GMT-0500 (Eastern Standard Time)","Tue Jan 28 2020 09:09:30 GMT-0500 (Eastern Standard Time)","Mozilla/5.0 (Windows NT 6.3; Win64; x64) AppleWebKit/537.36 (KHTML, like Gecko) Chrome/79.0.3945.117 Safari/537.36",137,"[0.9, 0.5, 0.1]","[0.8, 0.4, 0.2]","[u'red', u'blue', u'black']","[u'left', u'middle', u'right']","[0.8, 0.4, 0.2]","[u'high', u'medium', u'low']","blue",50,"middle","medium","True","False",318,2900,NA
"A1VWP7HOSGKATD","Tue Jan 28 2020 08:56:50 GMT-0500 (Eastern Standard Time)","Tue Jan 28 2020 09:09:30 GMT-0500 (Eastern Standard Time)","Mozilla/5.0 (Windows NT 6.3; Win64; x64) AppleWebKit/537.36 (KHTML, like Gecko) Chrome/79.0.3945.117 Safari/537.36",138,"[0.9, 0.5, 0.1]","[0.8, 0.4, 0.2]","[u'red', u'blue', u'black']","[u'left', u'middle', u'right']","[0.8, 0.4, 0.2]","[u'high', u'medium', u'low']","red",49,"left","high","True","False",1317,3000,NA
"A1VWP7HOSGKATD","Tue Jan 28 2020 08:56:50 GMT-0500 (Eastern Standard Time)","Tue Jan 28 2020 09:09:30 GMT-0500 (Eastern Standard Time)","Mozilla/5.0 (Windows NT 6.3; Win64; x64) AppleWebKit/537.36 (KHTML, like Gecko) Chrome/79.0.3945.117 Safari/537.36",139,"[0.9, 0.5, 0.1]","[0.8, 0.4, 0.2]","[u'red', u'blue', u'black']","[u'left', u'middle', u'right']","[0.8, 0.4, 0.2]","[u'high', u'medium', u'low']","blue",50,"middle","medium","True","False",80,3100,NA
"A1VWP7HOSGKATD","Tue Jan 28 2020 08:56:50 GMT-0500 (Eastern Standard Time)","Tue Jan 28 2020 09:09:30 GMT-0500 (Eastern Standard Time)","Mozilla/5.0 (Windows NT 6.3; Win64; x64) AppleWebKit/537.36 (KHTML, like Gecko) Chrome/79.0.3945.117 Safari/537.36",140,"[0.9, 0.5, 0.1]","[0.8, 0.4, 0.2]","[u'red', u'blue', u'black']","[u'left', u'middle', u'right']","[0.8, 0.4, 0.2]","[u'high', u'medium', u'low']","black",51,"right","low","False","False",245,3050,NA
"A1VWP7HOSGKATD","Tue Jan 28 2020 08:56:50 GMT-0500 (Eastern Standard Time)","Tue Jan 28 2020 09:09:30 GMT-0500 (Eastern Standard Time)","Mozilla/5.0 (Windows NT 6.3; Win64; x64) AppleWebKit/537.36 (KHTML, like Gecko) Chrome/79.0.3945.117 Safari/537.36",141,"[0.9, 0.5, 0.1]","[0.8, 0.4, 0.2]","[u'red', u'blue', u'black']","[u'left', u'middle', u'right']","[0.8, 0.4, 0.2]","[u'high', u'medium', u'low']","blue",50,"middle","medium","True","False",254,3150,NA
"A1VWP7HOSGKATD","Tue Jan 28 2020 08:56:50 GMT-0500 (Eastern Standard Time)","Tue Jan 28 2020 09:09:30 GMT-0500 (Eastern Standard Time)","Mozilla/5.0 (Windows NT 6.3; Win64; x64) AppleWebKit/537.36 (KHTML, like Gecko) Chrome/79.0.3945.117 Safari/537.36",142,"[0.9, 0.5, 0.1]","[0.8, 0.4, 0.2]","[u'red', u'blue', u'black']","[u'left', u'middle', u'right']","[0.8, 0.4, 0.2]","[u'high', u'medium', u'low']","red",49,"left","high","True","False",239,3250,NA
"A1VWP7HOSGKATD","Tue Jan 28 2020 08:56:50 GMT-0500 (Eastern Standard Time)","Tue Jan 28 2020 09:09:30 GMT-0500 (Eastern Standard Time)","Mozilla/5.0 (Windows NT 6.3; Win64; x64) AppleWebKit/537.36 (KHTML, like Gecko) Chrome/79.0.3945.117 Safari/537.36",143,"[0.9, 0.5, 0.1]","[0.8, 0.4, 0.2]","[u'red', u'blue', u'black']","[u'left', u'middle', u'right']","[0.8, 0.4, 0.2]","[u'high', u'medium', u'low']","red",49,"left","high","True","False",605,3350,NA
"A1VWP7HOSGKATD","Tue Jan 28 2020 08:56:50 GMT-0500 (Eastern Standard Time)","Tue Jan 28 2020 09:09:30 GMT-0500 (Eastern Standard Time)","Mozilla/5.0 (Windows NT 6.3; Win64; x64) AppleWebKit/537.36 (KHTML, like Gecko) Chrome/79.0.3945.117 Safari/537.36",144,"[0.9, 0.5, 0.1]","[0.8, 0.4, 0.2]","[u'red', u'blue', u'black']","[u'left', u'middle', u'right']","[0.8, 0.4, 0.2]","[u'high', u'medium', u'low']","blue",50,"middle","medium","True","False",308,3450,NA
"A1VWP7HOSGKATD","Tue Jan 28 2020 08:56:50 GMT-0500 (Eastern Standard Time)","Tue Jan 28 2020 09:09:30 GMT-0500 (Eastern Standard Time)","Mozilla/5.0 (Windows NT 6.3; Win64; x64) AppleWebKit/537.36 (KHTML, like Gecko) Chrome/79.0.3945.117 Safari/537.36",145,"[0.9, 0.5, 0.1]","[0.8, 0.4, 0.2]","[u'red', u'blue', u'black']","[u'left', u'middle', u'right']","[0.8, 0.4, 0.2]","[u'high', u'medium', u'low']","red",49,"left","high","True","False",309,3550,NA
"A1VWP7HOSGKATD","Tue Jan 28 2020 08:56:50 GMT-0500 (Eastern Standard Time)","Tue Jan 28 2020 09:09:30 GMT-0500 (Eastern Standard Time)","Mozilla/5.0 (Windows NT 6.3; Win64; x64) AppleWebKit/537.36 (KHTML, like Gecko) Chrome/79.0.3945.117 Safari/537.36",146,"[0.9, 0.5, 0.1]","[0.8, 0.4, 0.2]","[u'red', u'blue', u'black']","[u'left', u'middle', u'right']","[0.8, 0.4, 0.2]","[u'high', u'medium', u'low']","blue",50,"middle","medium","False","False",1021,3500,NA
"A1VWP7HOSGKATD","Tue Jan 28 2020 08:56:50 GMT-0500 (Eastern Standard Time)","Tue Jan 28 2020 09:09:30 GMT-0500 (Eastern Standard Time)","Mozilla/5.0 (Windows NT 6.3; Win64; x64) AppleWebKit/537.36 (KHTML, like Gecko) Chrome/79.0.3945.117 Safari/537.36",147,"[0.9, 0.5, 0.1]","[0.8, 0.4, 0.2]","[u'red', u'blue', u'black']","[u'left', u'middle', u'right']","[0.8, 0.4, 0.2]","[u'high', u'medium', u'low']","black",51,"right","low","False","False",68,3450,NA
"A1VWP7HOSGKATD","Tue Jan 28 2020 08:56:50 GMT-0500 (Eastern Standard Time)","Tue Jan 28 2020 09:09:30 GMT-0500 (Eastern Standard Time)","Mozilla/5.0 (Windows NT 6.3; Win64; x64) AppleWebKit/537.36 (KHTML, like Gecko) Chrome/79.0.3945.117 Safari/537.36",148,"[0.9, 0.5, 0.1]","[0.8, 0.4, 0.2]","[u'red', u'blue', u'black']","[u'left', u'middle', u'right']","[0.8, 0.4, 0.2]","[u'high', u'medium', u'low']","red",49,"left","high","True","False",722,3550,NA
"A1VWP7HOSGKATD","Tue Jan 28 2020 08:56:50 GMT-0500 (Eastern Standard Time)","Tue Jan 28 2020 09:09:30 GMT-0500 (Eastern Standard Time)","Mozilla/5.0 (Windows NT 6.3; Win64; x64) AppleWebKit/537.36 (KHTML, like Gecko) Chrome/79.0.3945.117 Safari/537.36",149,"[0.9, 0.5, 0.1]","[0.8, 0.4, 0.2]","[u'red', u'blue', u'black']","[u'left', u'middle', u'right']","[0.8, 0.4, 0.2]","[u'high', u'medium', u'low']","blue",50,"middle","medium","False","False",471,3500,NA
"A1VWP7HOSGKATD","Tue Jan 28 2020 08:56:50 GMT-0500 (Eastern Standard Time)","Tue Jan 28 2020 09:09:30 GMT-0500 (Eastern Standard Time)","Mozilla/5.0 (Windows NT 6.3; Win64; x64) AppleWebKit/537.36 (KHTML, like Gecko) Chrome/79.0.3945.117 Safari/537.36",150,"[0.9, 0.5, 0.1]","[0.8, 0.4, 0.2]","[u'red', u'blue', u'black']","[u'left', u'middle', u'right']","[0.8, 0.4, 0.2]","[u'high', u'medium', u'low']","black",51,"right","low","True","False",95,3600,NA
"A1VWP7HOSGKATD","Tue Jan 28 2020 08:56:50 GMT-0500 (Eastern Standard Time)","Tue Jan 28 2020 09:09:30 GMT-0500 (Eastern Standard Time)","Mozilla/5.0 (Windows NT 6.3; Win64; x64) AppleWebKit/537.36 (KHTML, like Gecko) Chrome/79.0.3945.117 Safari/537.36",151,"[0.9, 0.5, 0.1]","[0.8, 0.4, 0.2]","[u'red', u'blue', u'black']","[u'left', u'middle', u'right']","[0.8, 0.4, 0.2]","[u'high', u'medium', u'low']","red",49,"left","high","False","False",1217,3550,NA
"A1VWP7HOSGKATD","Tue Jan 28 2020 08:56:50 GMT-0500 (Eastern Standard Time)","Tue Jan 28 2020 09:09:30 GMT-0500 (Eastern Standard Time)","Mozilla/5.0 (Windows NT 6.3; Win64; x64) AppleWebKit/537.36 (KHTML, like Gecko) Chrome/79.0.3945.117 Safari/537.36",152,"[0.9, 0.5, 0.1]","[0.8, 0.4, 0.2]","[u'red', u'blue', u'black']","[u'left', u'middle', u'right']","[0.8, 0.4, 0.2]","[u'high', u'medium', u'low']","black",51,"right","low","False","False",267,3500,NA
"A1VWP7HOSGKATD","Tue Jan 28 2020 08:56:50 GMT-0500 (Eastern Standard Time)","Tue Jan 28 2020 09:09:30 GMT-0500 (Eastern Standard Time)","Mozilla/5.0 (Windows NT 6.3; Win64; x64) AppleWebKit/537.36 (KHTML, like Gecko) Chrome/79.0.3945.117 Safari/537.36",153,"[0.9, 0.5, 0.1]","[0.8, 0.4, 0.2]","[u'red', u'blue', u'black']","[u'left', u'middle', u'right']","[0.8, 0.4, 0.2]","[u'high', u'medium', u'low']","blue",50,"middle","medium","True","False",832,3600,NA
"A1VWP7HOSGKATD","Tue Jan 28 2020 08:56:50 GMT-0500 (Eastern Standard Time)","Tue Jan 28 2020 09:09:30 GMT-0500 (Eastern Standard Time)","Mozilla/5.0 (Windows NT 6.3; Win64; x64) AppleWebKit/537.36 (KHTML, like Gecko) Chrome/79.0.3945.117 Safari/537.36",154,"[0.9, 0.5, 0.1]","[0.8, 0.4, 0.2]","[u'red', u'blue', u'black']","[u'left', u'middle', u'right']","[0.8, 0.4, 0.2]","[u'high', u'medium', u'low']","blue",50,"middle","medium","False","False",1841,3550,NA
"A1VWP7HOSGKATD","Tue Jan 28 2020 08:56:50 GMT-0500 (Eastern Standard Time)","Tue Jan 28 2020 09:09:30 GMT-0500 (Eastern Standard Time)","Mozilla/5.0 (Windows NT 6.3; Win64; x64) AppleWebKit/537.36 (KHTML, like Gecko) Chrome/79.0.3945.117 Safari/537.36",155,"[0.9, 0.5, 0.1]","[0.8, 0.4, 0.2]","[u'red', u'blue', u'black']","[u'left', u'middle', u'right']","[0.8, 0.4, 0.2]","[u'high', u'medium', u'low']","blue",50,"middle","medium","False","False",1978,3500,NA
"A1VWP7HOSGKATD","Tue Jan 28 2020 08:56:50 GMT-0500 (Eastern Standard Time)","Tue Jan 28 2020 09:09:30 GMT-0500 (Eastern Standard Time)","Mozilla/5.0 (Windows NT 6.3; Win64; x64) AppleWebKit/537.36 (KHTML, like Gecko) Chrome/79.0.3945.117 Safari/537.36",156,"[0.9, 0.5, 0.1]","[0.8, 0.4, 0.2]","[u'red', u'blue', u'black']","[u'left', u'middle', u'right']","[0.8, 0.4, 0.2]","[u'high', u'medium', u'low']","black",51,"right","low","False","False",307,3450,NA
"A1VWP7HOSGKATD","Tue Jan 28 2020 08:56:50 GMT-0500 (Eastern Standard Time)","Tue Jan 28 2020 09:09:30 GMT-0500 (Eastern Standard Time)","Mozilla/5.0 (Windows NT 6.3; Win64; x64) AppleWebKit/537.36 (KHTML, like Gecko) Chrome/79.0.3945.117 Safari/537.36",157,"[0.9, 0.5, 0.1]","[0.8, 0.4, 0.2]","[u'red', u'blue', u'black']","[u'left', u'middle', u'right']","[0.8, 0.4, 0.2]","[u'high', u'medium', u'low']","red",49,"left","high","False","False",259,3400,NA
"A1VWP7HOSGKATD","Tue Jan 28 2020 08:56:50 GMT-0500 (Eastern Standard Time)","Tue Jan 28 2020 09:09:30 GMT-0500 (Eastern Standard Time)","Mozilla/5.0 (Windows NT 6.3; Win64; x64) AppleWebKit/537.36 (KHTML, like Gecko) Chrome/79.0.3945.117 Safari/537.36",158,"[0.9, 0.5, 0.1]","[0.8, 0.4, 0.2]","[u'red', u'blue', u'black']","[u'left', u'middle', u'right']","[0.8, 0.4, 0.2]","[u'high', u'medium', u'low']","blue",50,"middle","medium","False","False",140,3350,NA
"A1VWP7HOSGKATD","Tue Jan 28 2020 08:56:50 GMT-0500 (Eastern Standard Time)","Tue Jan 28 2020 09:09:30 GMT-0500 (Eastern Standard Time)","Mozilla/5.0 (Windows NT 6.3; Win64; x64) AppleWebKit/537.36 (KHTML, like Gecko) Chrome/79.0.3945.117 Safari/537.36",159,"[0.9, 0.5, 0.1]","[0.8, 0.4, 0.2]","[u'red', u'blue', u'black']","[u'left', u'middle', u'right']","[0.8, 0.4, 0.2]","[u'high', u'medium', u'low']","black",51,"right","low","False","False",270,3300,NA
"A1VWP7HOSGKATD","Tue Jan 28 2020 08:56:50 GMT-0500 (Eastern Standard Time)","Tue Jan 28 2020 09:09:30 GMT-0500 (Eastern Standard Time)","Mozilla/5.0 (Windows NT 6.3; Win64; x64) AppleWebKit/537.36 (KHTML, like Gecko) Chrome/79.0.3945.117 Safari/537.36",160,"[0.9, 0.5, 0.1]","[0.8, 0.4, 0.2]","[u'red', u'blue', u'black']","[u'left', u'middle', u'right']","[0.8, 0.4, 0.2]","[u'high', u'medium', u'low']","red",49,"left","high","True","False",263,3400,NA
