"src_subject_id","start_time","end_time","browser","index","first_half_probabilities","second_half_probabilities","deck_color","deck_position","deck_probabilities","deck_contingencies","response_color","key_press","response_position","response_probability","reward_type","trial_type","rt","reward_tally","exclusion_reason"
"ABBP9JASL9AGK","Fri Sep 18 2020 10:14:12 GMT-0500 (Central Daylight Time)","Fri Sep 18 2020 10:21:10 GMT-0500 (Central Daylight Time)","Mozilla/5.0 (Macintosh; Intel Mac OS X 10_15_6) AppleWebKit/537.36 (KHTML, like Gecko) Chrome/85.0.4183.102 Safari/537.36",1,"[0.9, 0.5, 0.1]","[0.8, 0.4, 0.2]","[u'black', u'blue', u'red']","[u'left', u'middle', u'right']","[0.9, 0.5, 0.1]","[u'low', u'high', u'medium']","black",49,"left","low","True","False",463,100,NA
"ABBP9JASL9AGK","Fri Sep 18 2020 10:14:12 GMT-0500 (Central Daylight Time)","Fri Sep 18 2020 10:21:10 GMT-0500 (Central Daylight Time)","Mozilla/5.0 (Macintosh; Intel Mac OS X 10_15_6) AppleWebKit/537.36 (KHTML, like Gecko) Chrome/85.0.4183.102 Safari/537.36",2,"[0.9, 0.5, 0.1]","[0.8, 0.4, 0.2]","[u'black', u'blue', u'red']","[u'left', u'middle', u'right']","[0.9, 0.5, 0.1]","[u'low', u'high', u'medium']","black",49,"left","low","False","False",416,50,NA
"ABBP9JASL9AGK","Fri Sep 18 2020 10:14:12 GMT-0500 (Central Daylight Time)","Fri Sep 18 2020 10:21:10 GMT-0500 (Central Daylight Time)","Mozilla/5.0 (Macintosh; Intel Mac OS X 10_15_6) AppleWebKit/537.36 (KHTML, like Gecko) Chrome/85.0.4183.102 Safari/537.36",3,"[0.9, 0.5, 0.1]","[0.8, 0.4, 0.2]","[u'black', u'blue', u'red']","[u'left', u'middle', u'right']","[0.9, 0.5, 0.1]","[u'low', u'high', u'medium']","blue",50,"middle","high","True","False",265,150,NA
"ABBP9JASL9AGK","Fri Sep 18 2020 10:14:12 GMT-0500 (Central Daylight Time)","Fri Sep 18 2020 10:21:10 GMT-0500 (Central Daylight Time)","Mozilla/5.0 (Macintosh; Intel Mac OS X 10_15_6) AppleWebKit/537.36 (KHTML, like Gecko) Chrome/85.0.4183.102 Safari/537.36",4,"[0.9, 0.5, 0.1]","[0.8, 0.4, 0.2]","[u'black', u'blue', u'red']","[u'left', u'middle', u'right']","[0.9, 0.5, 0.1]","[u'low', u'high', u'medium']","blue",50,"middle","high","True","False",305,250,NA
"ABBP9JASL9AGK","Fri Sep 18 2020 10:14:12 GMT-0500 (Central Daylight Time)","Fri Sep 18 2020 10:21:10 GMT-0500 (Central Daylight Time)","Mozilla/5.0 (Macintosh; Intel Mac OS X 10_15_6) AppleWebKit/537.36 (KHTML, like Gecko) Chrome/85.0.4183.102 Safari/537.36",5,"[0.9, 0.5, 0.1]","[0.8, 0.4, 0.2]","[u'black', u'blue', u'red']","[u'left', u'middle', u'right']","[0.9, 0.5, 0.1]","[u'low', u'high', u'medium']","blue",50,"middle","high","True","False",356,350,NA
"ABBP9JASL9AGK","Fri Sep 18 2020 10:14:12 GMT-0500 (Central Daylight Time)","Fri Sep 18 2020 10:21:10 GMT-0500 (Central Daylight Time)","Mozilla/5.0 (Macintosh; Intel Mac OS X 10_15_6) AppleWebKit/537.36 (KHTML, like Gecko) Chrome/85.0.4183.102 Safari/537.36",6,"[0.9, 0.5, 0.1]","[0.8, 0.4, 0.2]","[u'black', u'blue', u'red']","[u'left', u'middle', u'right']","[0.9, 0.5, 0.1]","[u'low', u'high', u'medium']","blue",50,"middle","high","True","False",309,450,NA
"ABBP9JASL9AGK","Fri Sep 18 2020 10:14:12 GMT-0500 (Central Daylight Time)","Fri Sep 18 2020 10:21:10 GMT-0500 (Central Daylight Time)","Mozilla/5.0 (Macintosh; Intel Mac OS X 10_15_6) AppleWebKit/537.36 (KHTML, like Gecko) Chrome/85.0.4183.102 Safari/537.36",7,"[0.9, 0.5, 0.1]","[0.8, 0.4, 0.2]","[u'black', u'blue', u'red']","[u'left', u'middle', u'right']","[0.9, 0.5, 0.1]","[u'low', u'high', u'medium']","blue",50,"middle","high","False","False",306,400,NA
"ABBP9JASL9AGK","Fri Sep 18 2020 10:14:12 GMT-0500 (Central Daylight Time)","Fri Sep 18 2020 10:21:10 GMT-0500 (Central Daylight Time)","Mozilla/5.0 (Macintosh; Intel Mac OS X 10_15_6) AppleWebKit/537.36 (KHTML, like Gecko) Chrome/85.0.4183.102 Safari/537.36",8,"[0.9, 0.5, 0.1]","[0.8, 0.4, 0.2]","[u'black', u'blue', u'red']","[u'left', u'middle', u'right']","[0.9, 0.5, 0.1]","[u'low', u'high', u'medium']","blue",50,"middle","high","True","False",253,500,NA
"ABBP9JASL9AGK","Fri Sep 18 2020 10:14:12 GMT-0500 (Central Daylight Time)","Fri Sep 18 2020 10:21:10 GMT-0500 (Central Daylight Time)","Mozilla/5.0 (Macintosh; Intel Mac OS X 10_15_6) AppleWebKit/537.36 (KHTML, like Gecko) Chrome/85.0.4183.102 Safari/537.36",9,"[0.9, 0.5, 0.1]","[0.8, 0.4, 0.2]","[u'black', u'blue', u'red']","[u'left', u'middle', u'right']","[0.9, 0.5, 0.1]","[u'low', u'high', u'medium']","blue",50,"middle","high","True","False",280,600,NA
"ABBP9JASL9AGK","Fri Sep 18 2020 10:14:12 GMT-0500 (Central Daylight Time)","Fri Sep 18 2020 10:21:10 GMT-0500 (Central Daylight Time)","Mozilla/5.0 (Macintosh; Intel Mac OS X 10_15_6) AppleWebKit/537.36 (KHTML, like Gecko) Chrome/85.0.4183.102 Safari/537.36",10,"[0.9, 0.5, 0.1]","[0.8, 0.4, 0.2]","[u'black', u'blue', u'red']","[u'left', u'middle', u'right']","[0.9, 0.5, 0.1]","[u'low', u'high', u'medium']","blue",50,"middle","high","False","False",291,550,NA
"ABBP9JASL9AGK","Fri Sep 18 2020 10:14:12 GMT-0500 (Central Daylight Time)","Fri Sep 18 2020 10:21:10 GMT-0500 (Central Daylight Time)","Mozilla/5.0 (Macintosh; Intel Mac OS X 10_15_6) AppleWebKit/537.36 (KHTML, like Gecko) Chrome/85.0.4183.102 Safari/537.36",11,"[0.9, 0.5, 0.1]","[0.8, 0.4, 0.2]","[u'black', u'blue', u'red']","[u'left', u'middle', u'right']","[0.9, 0.5, 0.1]","[u'low', u'high', u'medium']","red",51,"right","medium","True","False",246,650,NA
"ABBP9JASL9AGK","Fri Sep 18 2020 10:14:12 GMT-0500 (Central Daylight Time)","Fri Sep 18 2020 10:21:10 GMT-0500 (Central Daylight Time)","Mozilla/5.0 (Macintosh; Intel Mac OS X 10_15_6) AppleWebKit/537.36 (KHTML, like Gecko) Chrome/85.0.4183.102 Safari/537.36",12,"[0.9, 0.5, 0.1]","[0.8, 0.4, 0.2]","[u'black', u'blue', u'red']","[u'left', u'middle', u'right']","[0.9, 0.5, 0.1]","[u'low', u'high', u'medium']","red",51,"right","medium","False","False",254,600,NA
"ABBP9JASL9AGK","Fri Sep 18 2020 10:14:12 GMT-0500 (Central Daylight Time)","Fri Sep 18 2020 10:21:10 GMT-0500 (Central Daylight Time)","Mozilla/5.0 (Macintosh; Intel Mac OS X 10_15_6) AppleWebKit/537.36 (KHTML, like Gecko) Chrome/85.0.4183.102 Safari/537.36",13,"[0.9, 0.5, 0.1]","[0.8, 0.4, 0.2]","[u'black', u'blue', u'red']","[u'left', u'middle', u'right']","[0.9, 0.5, 0.1]","[u'low', u'high', u'medium']","red",51,"right","medium","True","False",263,700,NA
"ABBP9JASL9AGK","Fri Sep 18 2020 10:14:12 GMT-0500 (Central Daylight Time)","Fri Sep 18 2020 10:21:10 GMT-0500 (Central Daylight Time)","Mozilla/5.0 (Macintosh; Intel Mac OS X 10_15_6) AppleWebKit/537.36 (KHTML, like Gecko) Chrome/85.0.4183.102 Safari/537.36",14,"[0.9, 0.5, 0.1]","[0.8, 0.4, 0.2]","[u'black', u'blue', u'red']","[u'left', u'middle', u'right']","[0.9, 0.5, 0.1]","[u'low', u'high', u'medium']","red",51,"right","medium","True","False",212,800,NA
"ABBP9JASL9AGK","Fri Sep 18 2020 10:14:12 GMT-0500 (Central Daylight Time)","Fri Sep 18 2020 10:21:10 GMT-0500 (Central Daylight Time)","Mozilla/5.0 (Macintosh; Intel Mac OS X 10_15_6) AppleWebKit/537.36 (KHTML, like Gecko) Chrome/85.0.4183.102 Safari/537.36",15,"[0.9, 0.5, 0.1]","[0.8, 0.4, 0.2]","[u'black', u'blue', u'red']","[u'left', u'middle', u'right']","[0.9, 0.5, 0.1]","[u'low', u'high', u'medium']","red",51,"right","medium","False","False",243,750,NA
"ABBP9JASL9AGK","Fri Sep 18 2020 10:14:12 GMT-0500 (Central Daylight Time)","Fri Sep 18 2020 10:21:10 GMT-0500 (Central Daylight Time)","Mozilla/5.0 (Macintosh; Intel Mac OS X 10_15_6) AppleWebKit/537.36 (KHTML, like Gecko) Chrome/85.0.4183.102 Safari/537.36",16,"[0.9, 0.5, 0.1]","[0.8, 0.4, 0.2]","[u'black', u'blue', u'red']","[u'left', u'middle', u'right']","[0.9, 0.5, 0.1]","[u'low', u'high', u'medium']","blue",50,"middle","high","True","False",245,850,NA
"ABBP9JASL9AGK","Fri Sep 18 2020 10:14:12 GMT-0500 (Central Daylight Time)","Fri Sep 18 2020 10:21:10 GMT-0500 (Central Daylight Time)","Mozilla/5.0 (Macintosh; Intel Mac OS X 10_15_6) AppleWebKit/537.36 (KHTML, like Gecko) Chrome/85.0.4183.102 Safari/537.36",17,"[0.9, 0.5, 0.1]","[0.8, 0.4, 0.2]","[u'black', u'blue', u'red']","[u'left', u'middle', u'right']","[0.9, 0.5, 0.1]","[u'low', u'high', u'medium']","blue",50,"middle","high","True","False",341,950,NA
"ABBP9JASL9AGK","Fri Sep 18 2020 10:14:12 GMT-0500 (Central Daylight Time)","Fri Sep 18 2020 10:21:10 GMT-0500 (Central Daylight Time)","Mozilla/5.0 (Macintosh; Intel Mac OS X 10_15_6) AppleWebKit/537.36 (KHTML, like Gecko) Chrome/85.0.4183.102 Safari/537.36",18,"[0.9, 0.5, 0.1]","[0.8, 0.4, 0.2]","[u'black', u'blue', u'red']","[u'left', u'middle', u'right']","[0.9, 0.5, 0.1]","[u'low', u'high', u'medium']","blue",50,"middle","high","True","False",338,1050,NA
"ABBP9JASL9AGK","Fri Sep 18 2020 10:14:12 GMT-0500 (Central Daylight Time)","Fri Sep 18 2020 10:21:10 GMT-0500 (Central Daylight Time)","Mozilla/5.0 (Macintosh; Intel Mac OS X 10_15_6) AppleWebKit/537.36 (KHTML, like Gecko) Chrome/85.0.4183.102 Safari/537.36",19,"[0.9, 0.5, 0.1]","[0.8, 0.4, 0.2]","[u'black', u'blue', u'red']","[u'left', u'middle', u'right']","[0.9, 0.5, 0.1]","[u'low', u'high', u'medium']","blue",50,"middle","high","True","False",400,1150,NA
"ABBP9JASL9AGK","Fri Sep 18 2020 10:14:12 GMT-0500 (Central Daylight Time)","Fri Sep 18 2020 10:21:10 GMT-0500 (Central Daylight Time)","Mozilla/5.0 (Macintosh; Intel Mac OS X 10_15_6) AppleWebKit/537.36 (KHTML, like Gecko) Chrome/85.0.4183.102 Safari/537.36",20,"[0.9, 0.5, 0.1]","[0.8, 0.4, 0.2]","[u'black', u'blue', u'red']","[u'left', u'middle', u'right']","[0.9, 0.5, 0.1]","[u'low', u'high', u'medium']","blue",50,"middle","high","True","False",439,1250,NA
"ABBP9JASL9AGK","Fri Sep 18 2020 10:14:12 GMT-0500 (Central Daylight Time)","Fri Sep 18 2020 10:21:10 GMT-0500 (Central Daylight Time)","Mozilla/5.0 (Macintosh; Intel Mac OS X 10_15_6) AppleWebKit/537.36 (KHTML, like Gecko) Chrome/85.0.4183.102 Safari/537.36",21,"[0.9, 0.5, 0.1]","[0.8, 0.4, 0.2]","[u'black', u'blue', u'red']","[u'left', u'middle', u'right']","[0.9, 0.5, 0.1]","[u'low', u'high', u'medium']","blue",50,"middle","high","True","False",485,1350,NA
"ABBP9JASL9AGK","Fri Sep 18 2020 10:14:12 GMT-0500 (Central Daylight Time)","Fri Sep 18 2020 10:21:10 GMT-0500 (Central Daylight Time)","Mozilla/5.0 (Macintosh; Intel Mac OS X 10_15_6) AppleWebKit/537.36 (KHTML, like Gecko) Chrome/85.0.4183.102 Safari/537.36",22,"[0.9, 0.5, 0.1]","[0.8, 0.4, 0.2]","[u'black', u'blue', u'red']","[u'left', u'middle', u'right']","[0.9, 0.5, 0.1]","[u'low', u'high', u'medium']","blue",50,"middle","high","True","False",285,1450,NA
"ABBP9JASL9AGK","Fri Sep 18 2020 10:14:12 GMT-0500 (Central Daylight Time)","Fri Sep 18 2020 10:21:10 GMT-0500 (Central Daylight Time)","Mozilla/5.0 (Macintosh; Intel Mac OS X 10_15_6) AppleWebKit/537.36 (KHTML, like Gecko) Chrome/85.0.4183.102 Safari/537.36",23,"[0.9, 0.5, 0.1]","[0.8, 0.4, 0.2]","[u'black', u'blue', u'red']","[u'left', u'middle', u'right']","[0.9, 0.5, 0.1]","[u'low', u'high', u'medium']","blue",50,"middle","high","True","False",248,1550,NA
"ABBP9JASL9AGK","Fri Sep 18 2020 10:14:12 GMT-0500 (Central Daylight Time)","Fri Sep 18 2020 10:21:10 GMT-0500 (Central Daylight Time)","Mozilla/5.0 (Macintosh; Intel Mac OS X 10_15_6) AppleWebKit/537.36 (KHTML, like Gecko) Chrome/85.0.4183.102 Safari/537.36",24,"[0.9, 0.5, 0.1]","[0.8, 0.4, 0.2]","[u'black', u'blue', u'red']","[u'left', u'middle', u'right']","[0.9, 0.5, 0.1]","[u'low', u'high', u'medium']","blue",50,"middle","high","True","True",248,1650,NA
"ABBP9JASL9AGK","Fri Sep 18 2020 10:14:12 GMT-0500 (Central Daylight Time)","Fri Sep 18 2020 10:21:10 GMT-0500 (Central Daylight Time)","Mozilla/5.0 (Macintosh; Intel Mac OS X 10_15_6) AppleWebKit/537.36 (KHTML, like Gecko) Chrome/85.0.4183.102 Safari/537.36",25,"[0.9, 0.5, 0.1]","[0.8, 0.4, 0.2]","[u'black', u'blue', u'red']","[u'left', u'middle', u'right']","[0.9, 0.5, 0.1]","[u'high', u'medium', u'low']","blue",50,"middle","medium","False","False",152,1600,NA
"ABBP9JASL9AGK","Fri Sep 18 2020 10:14:12 GMT-0500 (Central Daylight Time)","Fri Sep 18 2020 10:21:10 GMT-0500 (Central Daylight Time)","Mozilla/5.0 (Macintosh; Intel Mac OS X 10_15_6) AppleWebKit/537.36 (KHTML, like Gecko) Chrome/85.0.4183.102 Safari/537.36",26,"[0.9, 0.5, 0.1]","[0.8, 0.4, 0.2]","[u'black', u'blue', u'red']","[u'left', u'middle', u'right']","[0.9, 0.5, 0.1]","[u'high', u'medium', u'low']","red",51,"right","low","False","False",147,1550,NA
"ABBP9JASL9AGK","Fri Sep 18 2020 10:14:12 GMT-0500 (Central Daylight Time)","Fri Sep 18 2020 10:21:10 GMT-0500 (Central Daylight Time)","Mozilla/5.0 (Macintosh; Intel Mac OS X 10_15_6) AppleWebKit/537.36 (KHTML, like Gecko) Chrome/85.0.4183.102 Safari/537.36",27,"[0.9, 0.5, 0.1]","[0.8, 0.4, 0.2]","[u'black', u'blue', u'red']","[u'left', u'middle', u'right']","[0.9, 0.5, 0.1]","[u'high', u'medium', u'low']","blue",50,"middle","medium","True","False",259,1650,NA
"ABBP9JASL9AGK","Fri Sep 18 2020 10:14:12 GMT-0500 (Central Daylight Time)","Fri Sep 18 2020 10:21:10 GMT-0500 (Central Daylight Time)","Mozilla/5.0 (Macintosh; Intel Mac OS X 10_15_6) AppleWebKit/537.36 (KHTML, like Gecko) Chrome/85.0.4183.102 Safari/537.36",28,"[0.9, 0.5, 0.1]","[0.8, 0.4, 0.2]","[u'black', u'blue', u'red']","[u'left', u'middle', u'right']","[0.9, 0.5, 0.1]","[u'high', u'medium', u'low']","blue",50,"middle","medium","True","False",229,1750,NA
"ABBP9JASL9AGK","Fri Sep 18 2020 10:14:12 GMT-0500 (Central Daylight Time)","Fri Sep 18 2020 10:21:10 GMT-0500 (Central Daylight Time)","Mozilla/5.0 (Macintosh; Intel Mac OS X 10_15_6) AppleWebKit/537.36 (KHTML, like Gecko) Chrome/85.0.4183.102 Safari/537.36",29,"[0.9, 0.5, 0.1]","[0.8, 0.4, 0.2]","[u'black', u'blue', u'red']","[u'left', u'middle', u'right']","[0.9, 0.5, 0.1]","[u'high', u'medium', u'low']","blue",50,"middle","medium","True","False",277,1850,NA
"ABBP9JASL9AGK","Fri Sep 18 2020 10:14:12 GMT-0500 (Central Daylight Time)","Fri Sep 18 2020 10:21:10 GMT-0500 (Central Daylight Time)","Mozilla/5.0 (Macintosh; Intel Mac OS X 10_15_6) AppleWebKit/537.36 (KHTML, like Gecko) Chrome/85.0.4183.102 Safari/537.36",30,"[0.9, 0.5, 0.1]","[0.8, 0.4, 0.2]","[u'black', u'blue', u'red']","[u'left', u'middle', u'right']","[0.9, 0.5, 0.1]","[u'high', u'medium', u'low']","blue",50,"middle","medium","True","False",224,1950,NA
"ABBP9JASL9AGK","Fri Sep 18 2020 10:14:12 GMT-0500 (Central Daylight Time)","Fri Sep 18 2020 10:21:10 GMT-0500 (Central Daylight Time)","Mozilla/5.0 (Macintosh; Intel Mac OS X 10_15_6) AppleWebKit/537.36 (KHTML, like Gecko) Chrome/85.0.4183.102 Safari/537.36",31,"[0.9, 0.5, 0.1]","[0.8, 0.4, 0.2]","[u'black', u'blue', u'red']","[u'left', u'middle', u'right']","[0.9, 0.5, 0.1]","[u'high', u'medium', u'low']","blue",50,"middle","medium","False","False",248,1900,NA
"ABBP9JASL9AGK","Fri Sep 18 2020 10:14:12 GMT-0500 (Central Daylight Time)","Fri Sep 18 2020 10:21:10 GMT-0500 (Central Daylight Time)","Mozilla/5.0 (Macintosh; Intel Mac OS X 10_15_6) AppleWebKit/537.36 (KHTML, like Gecko) Chrome/85.0.4183.102 Safari/537.36",32,"[0.9, 0.5, 0.1]","[0.8, 0.4, 0.2]","[u'black', u'blue', u'red']","[u'left', u'middle', u'right']","[0.9, 0.5, 0.1]","[u'high', u'medium', u'low']","blue",50,"middle","medium","False","False",152,1850,NA
"ABBP9JASL9AGK","Fri Sep 18 2020 10:14:12 GMT-0500 (Central Daylight Time)","Fri Sep 18 2020 10:21:10 GMT-0500 (Central Daylight Time)","Mozilla/5.0 (Macintosh; Intel Mac OS X 10_15_6) AppleWebKit/537.36 (KHTML, like Gecko) Chrome/85.0.4183.102 Safari/537.36",33,"[0.9, 0.5, 0.1]","[0.8, 0.4, 0.2]","[u'black', u'blue', u'red']","[u'left', u'middle', u'right']","[0.9, 0.5, 0.1]","[u'high', u'medium', u'low']","black",49,"left","high","True","False",68,1950,NA
"ABBP9JASL9AGK","Fri Sep 18 2020 10:14:12 GMT-0500 (Central Daylight Time)","Fri Sep 18 2020 10:21:10 GMT-0500 (Central Daylight Time)","Mozilla/5.0 (Macintosh; Intel Mac OS X 10_15_6) AppleWebKit/537.36 (KHTML, like Gecko) Chrome/85.0.4183.102 Safari/537.36",34,"[0.9, 0.5, 0.1]","[0.8, 0.4, 0.2]","[u'black', u'blue', u'red']","[u'left', u'middle', u'right']","[0.9, 0.5, 0.1]","[u'high', u'medium', u'low']","black",49,"left","high","True","False",272,2050,NA
"ABBP9JASL9AGK","Fri Sep 18 2020 10:14:12 GMT-0500 (Central Daylight Time)","Fri Sep 18 2020 10:21:10 GMT-0500 (Central Daylight Time)","Mozilla/5.0 (Macintosh; Intel Mac OS X 10_15_6) AppleWebKit/537.36 (KHTML, like Gecko) Chrome/85.0.4183.102 Safari/537.36",35,"[0.9, 0.5, 0.1]","[0.8, 0.4, 0.2]","[u'black', u'blue', u'red']","[u'left', u'middle', u'right']","[0.9, 0.5, 0.1]","[u'high', u'medium', u'low']","black",49,"left","high","False","False",269,2000,NA
"ABBP9JASL9AGK","Fri Sep 18 2020 10:14:12 GMT-0500 (Central Daylight Time)","Fri Sep 18 2020 10:21:10 GMT-0500 (Central Daylight Time)","Mozilla/5.0 (Macintosh; Intel Mac OS X 10_15_6) AppleWebKit/537.36 (KHTML, like Gecko) Chrome/85.0.4183.102 Safari/537.36",36,"[0.9, 0.5, 0.1]","[0.8, 0.4, 0.2]","[u'black', u'blue', u'red']","[u'left', u'middle', u'right']","[0.9, 0.5, 0.1]","[u'high', u'medium', u'low']","black",49,"left","high","True","False",200,2100,NA
"ABBP9JASL9AGK","Fri Sep 18 2020 10:14:12 GMT-0500 (Central Daylight Time)","Fri Sep 18 2020 10:21:10 GMT-0500 (Central Daylight Time)","Mozilla/5.0 (Macintosh; Intel Mac OS X 10_15_6) AppleWebKit/537.36 (KHTML, like Gecko) Chrome/85.0.4183.102 Safari/537.36",37,"[0.9, 0.5, 0.1]","[0.8, 0.4, 0.2]","[u'black', u'blue', u'red']","[u'left', u'middle', u'right']","[0.9, 0.5, 0.1]","[u'high', u'medium', u'low']","black",49,"left","high","True","False",209,2200,NA
"ABBP9JASL9AGK","Fri Sep 18 2020 10:14:12 GMT-0500 (Central Daylight Time)","Fri Sep 18 2020 10:21:10 GMT-0500 (Central Daylight Time)","Mozilla/5.0 (Macintosh; Intel Mac OS X 10_15_6) AppleWebKit/537.36 (KHTML, like Gecko) Chrome/85.0.4183.102 Safari/537.36",38,"[0.9, 0.5, 0.1]","[0.8, 0.4, 0.2]","[u'black', u'blue', u'red']","[u'left', u'middle', u'right']","[0.9, 0.5, 0.1]","[u'high', u'medium', u'low']","black",49,"left","high","True","False",160,2300,NA
"ABBP9JASL9AGK","Fri Sep 18 2020 10:14:12 GMT-0500 (Central Daylight Time)","Fri Sep 18 2020 10:21:10 GMT-0500 (Central Daylight Time)","Mozilla/5.0 (Macintosh; Intel Mac OS X 10_15_6) AppleWebKit/537.36 (KHTML, like Gecko) Chrome/85.0.4183.102 Safari/537.36",39,"[0.9, 0.5, 0.1]","[0.8, 0.4, 0.2]","[u'black', u'blue', u'red']","[u'left', u'middle', u'right']","[0.9, 0.5, 0.1]","[u'high', u'medium', u'low']","black",49,"left","high","True","False",170,2400,NA
"ABBP9JASL9AGK","Fri Sep 18 2020 10:14:12 GMT-0500 (Central Daylight Time)","Fri Sep 18 2020 10:21:10 GMT-0500 (Central Daylight Time)","Mozilla/5.0 (Macintosh; Intel Mac OS X 10_15_6) AppleWebKit/537.36 (KHTML, like Gecko) Chrome/85.0.4183.102 Safari/537.36",40,"[0.9, 0.5, 0.1]","[0.8, 0.4, 0.2]","[u'black', u'blue', u'red']","[u'left', u'middle', u'right']","[0.9, 0.5, 0.1]","[u'high', u'medium', u'low']","black",49,"left","high","True","False",332,2500,NA
"ABBP9JASL9AGK","Fri Sep 18 2020 10:14:12 GMT-0500 (Central Daylight Time)","Fri Sep 18 2020 10:21:10 GMT-0500 (Central Daylight Time)","Mozilla/5.0 (Macintosh; Intel Mac OS X 10_15_6) AppleWebKit/537.36 (KHTML, like Gecko) Chrome/85.0.4183.102 Safari/537.36",41,"[0.9, 0.5, 0.1]","[0.8, 0.4, 0.2]","[u'black', u'blue', u'red']","[u'left', u'middle', u'right']","[0.9, 0.5, 0.1]","[u'low', u'high', u'medium']","black",49,"left","low","False","False",341,2450,NA
"ABBP9JASL9AGK","Fri Sep 18 2020 10:14:12 GMT-0500 (Central Daylight Time)","Fri Sep 18 2020 10:21:10 GMT-0500 (Central Daylight Time)","Mozilla/5.0 (Macintosh; Intel Mac OS X 10_15_6) AppleWebKit/537.36 (KHTML, like Gecko) Chrome/85.0.4183.102 Safari/537.36",42,"[0.9, 0.5, 0.1]","[0.8, 0.4, 0.2]","[u'black', u'blue', u'red']","[u'left', u'middle', u'right']","[0.9, 0.5, 0.1]","[u'low', u'high', u'medium']","blue",50,"middle","high","True","False",392,2550,NA
"ABBP9JASL9AGK","Fri Sep 18 2020 10:14:12 GMT-0500 (Central Daylight Time)","Fri Sep 18 2020 10:21:10 GMT-0500 (Central Daylight Time)","Mozilla/5.0 (Macintosh; Intel Mac OS X 10_15_6) AppleWebKit/537.36 (KHTML, like Gecko) Chrome/85.0.4183.102 Safari/537.36",43,"[0.9, 0.5, 0.1]","[0.8, 0.4, 0.2]","[u'black', u'blue', u'red']","[u'left', u'middle', u'right']","[0.9, 0.5, 0.1]","[u'low', u'high', u'medium']","blue",50,"middle","high","True","False",265,2650,NA
"ABBP9JASL9AGK","Fri Sep 18 2020 10:14:12 GMT-0500 (Central Daylight Time)","Fri Sep 18 2020 10:21:10 GMT-0500 (Central Daylight Time)","Mozilla/5.0 (Macintosh; Intel Mac OS X 10_15_6) AppleWebKit/537.36 (KHTML, like Gecko) Chrome/85.0.4183.102 Safari/537.36",44,"[0.9, 0.5, 0.1]","[0.8, 0.4, 0.2]","[u'black', u'blue', u'red']","[u'left', u'middle', u'right']","[0.9, 0.5, 0.1]","[u'low', u'high', u'medium']","blue",50,"middle","high","True","False",243,2750,NA
"ABBP9JASL9AGK","Fri Sep 18 2020 10:14:12 GMT-0500 (Central Daylight Time)","Fri Sep 18 2020 10:21:10 GMT-0500 (Central Daylight Time)","Mozilla/5.0 (Macintosh; Intel Mac OS X 10_15_6) AppleWebKit/537.36 (KHTML, like Gecko) Chrome/85.0.4183.102 Safari/537.36",45,"[0.9, 0.5, 0.1]","[0.8, 0.4, 0.2]","[u'black', u'blue', u'red']","[u'left', u'middle', u'right']","[0.9, 0.5, 0.1]","[u'low', u'high', u'medium']","blue",50,"middle","high","True","False",258,2850,NA
"ABBP9JASL9AGK","Fri Sep 18 2020 10:14:12 GMT-0500 (Central Daylight Time)","Fri Sep 18 2020 10:21:10 GMT-0500 (Central Daylight Time)","Mozilla/5.0 (Macintosh; Intel Mac OS X 10_15_6) AppleWebKit/537.36 (KHTML, like Gecko) Chrome/85.0.4183.102 Safari/537.36",46,"[0.9, 0.5, 0.1]","[0.8, 0.4, 0.2]","[u'black', u'blue', u'red']","[u'left', u'middle', u'right']","[0.9, 0.5, 0.1]","[u'low', u'high', u'medium']","blue",50,"middle","high","True","False",437,2950,NA
"ABBP9JASL9AGK","Fri Sep 18 2020 10:14:12 GMT-0500 (Central Daylight Time)","Fri Sep 18 2020 10:21:10 GMT-0500 (Central Daylight Time)","Mozilla/5.0 (Macintosh; Intel Mac OS X 10_15_6) AppleWebKit/537.36 (KHTML, like Gecko) Chrome/85.0.4183.102 Safari/537.36",47,"[0.9, 0.5, 0.1]","[0.8, 0.4, 0.2]","[u'black', u'blue', u'red']","[u'left', u'middle', u'right']","[0.9, 0.5, 0.1]","[u'low', u'high', u'medium']","blue",50,"middle","high","True","False",287,3050,NA
"ABBP9JASL9AGK","Fri Sep 18 2020 10:14:12 GMT-0500 (Central Daylight Time)","Fri Sep 18 2020 10:21:10 GMT-0500 (Central Daylight Time)","Mozilla/5.0 (Macintosh; Intel Mac OS X 10_15_6) AppleWebKit/537.36 (KHTML, like Gecko) Chrome/85.0.4183.102 Safari/537.36",48,"[0.9, 0.5, 0.1]","[0.8, 0.4, 0.2]","[u'black', u'blue', u'red']","[u'left', u'middle', u'right']","[0.9, 0.5, 0.1]","[u'low', u'high', u'medium']","blue",50,"middle","high","True","False",320,3150,NA
"ABBP9JASL9AGK","Fri Sep 18 2020 10:14:12 GMT-0500 (Central Daylight Time)","Fri Sep 18 2020 10:21:10 GMT-0500 (Central Daylight Time)","Mozilla/5.0 (Macintosh; Intel Mac OS X 10_15_6) AppleWebKit/537.36 (KHTML, like Gecko) Chrome/85.0.4183.102 Safari/537.36",49,"[0.9, 0.5, 0.1]","[0.8, 0.4, 0.2]","[u'black', u'blue', u'red']","[u'left', u'middle', u'right']","[0.9, 0.5, 0.1]","[u'low', u'high', u'medium']","blue",50,"middle","high","False","False",283,3100,NA
"ABBP9JASL9AGK","Fri Sep 18 2020 10:14:12 GMT-0500 (Central Daylight Time)","Fri Sep 18 2020 10:21:10 GMT-0500 (Central Daylight Time)","Mozilla/5.0 (Macintosh; Intel Mac OS X 10_15_6) AppleWebKit/537.36 (KHTML, like Gecko) Chrome/85.0.4183.102 Safari/537.36",50,"[0.9, 0.5, 0.1]","[0.8, 0.4, 0.2]","[u'black', u'blue', u'red']","[u'left', u'middle', u'right']","[0.9, 0.5, 0.1]","[u'low', u'high', u'medium']","red",51,"right","medium","True","False",239,3200,NA
"ABBP9JASL9AGK","Fri Sep 18 2020 10:14:12 GMT-0500 (Central Daylight Time)","Fri Sep 18 2020 10:21:10 GMT-0500 (Central Daylight Time)","Mozilla/5.0 (Macintosh; Intel Mac OS X 10_15_6) AppleWebKit/537.36 (KHTML, like Gecko) Chrome/85.0.4183.102 Safari/537.36",51,"[0.9, 0.5, 0.1]","[0.8, 0.4, 0.2]","[u'black', u'blue', u'red']","[u'left', u'middle', u'right']","[0.9, 0.5, 0.1]","[u'low', u'high', u'medium']","red",51,"right","medium","False","False",268,3150,NA
"ABBP9JASL9AGK","Fri Sep 18 2020 10:14:12 GMT-0500 (Central Daylight Time)","Fri Sep 18 2020 10:21:10 GMT-0500 (Central Daylight Time)","Mozilla/5.0 (Macintosh; Intel Mac OS X 10_15_6) AppleWebKit/537.36 (KHTML, like Gecko) Chrome/85.0.4183.102 Safari/537.36",52,"[0.9, 0.5, 0.1]","[0.8, 0.4, 0.2]","[u'black', u'blue', u'red']","[u'left', u'middle', u'right']","[0.9, 0.5, 0.1]","[u'low', u'high', u'medium']","blue",50,"middle","high","False","False",258,3100,NA
"ABBP9JASL9AGK","Fri Sep 18 2020 10:14:12 GMT-0500 (Central Daylight Time)","Fri Sep 18 2020 10:21:10 GMT-0500 (Central Daylight Time)","Mozilla/5.0 (Macintosh; Intel Mac OS X 10_15_6) AppleWebKit/537.36 (KHTML, like Gecko) Chrome/85.0.4183.102 Safari/537.36",53,"[0.9, 0.5, 0.1]","[0.8, 0.4, 0.2]","[u'black', u'blue', u'red']","[u'left', u'middle', u'right']","[0.9, 0.5, 0.1]","[u'low', u'high', u'medium']","black",49,"left","low","True","False",247,3200,NA
"ABBP9JASL9AGK","Fri Sep 18 2020 10:14:12 GMT-0500 (Central Daylight Time)","Fri Sep 18 2020 10:21:10 GMT-0500 (Central Daylight Time)","Mozilla/5.0 (Macintosh; Intel Mac OS X 10_15_6) AppleWebKit/537.36 (KHTML, like Gecko) Chrome/85.0.4183.102 Safari/537.36",54,"[0.9, 0.5, 0.1]","[0.8, 0.4, 0.2]","[u'black', u'blue', u'red']","[u'left', u'middle', u'right']","[0.9, 0.5, 0.1]","[u'low', u'high', u'medium']","black",49,"left","low","False","False",421,3150,NA
"ABBP9JASL9AGK","Fri Sep 18 2020 10:14:12 GMT-0500 (Central Daylight Time)","Fri Sep 18 2020 10:21:10 GMT-0500 (Central Daylight Time)","Mozilla/5.0 (Macintosh; Intel Mac OS X 10_15_6) AppleWebKit/537.36 (KHTML, like Gecko) Chrome/85.0.4183.102 Safari/537.36",55,"[0.9, 0.5, 0.1]","[0.8, 0.4, 0.2]","[u'black', u'blue', u'red']","[u'left', u'middle', u'right']","[0.9, 0.5, 0.1]","[u'low', u'high', u'medium']","black",49,"left","low","False","False",236,3100,NA
"ABBP9JASL9AGK","Fri Sep 18 2020 10:14:12 GMT-0500 (Central Daylight Time)","Fri Sep 18 2020 10:21:10 GMT-0500 (Central Daylight Time)","Mozilla/5.0 (Macintosh; Intel Mac OS X 10_15_6) AppleWebKit/537.36 (KHTML, like Gecko) Chrome/85.0.4183.102 Safari/537.36",56,"[0.9, 0.5, 0.1]","[0.8, 0.4, 0.2]","[u'black', u'blue', u'red']","[u'left', u'middle', u'right']","[0.9, 0.5, 0.1]","[u'low', u'high', u'medium']","blue",50,"middle","high","True","False",238,3200,NA
"ABBP9JASL9AGK","Fri Sep 18 2020 10:14:12 GMT-0500 (Central Daylight Time)","Fri Sep 18 2020 10:21:10 GMT-0500 (Central Daylight Time)","Mozilla/5.0 (Macintosh; Intel Mac OS X 10_15_6) AppleWebKit/537.36 (KHTML, like Gecko) Chrome/85.0.4183.102 Safari/537.36",57,"[0.9, 0.5, 0.1]","[0.8, 0.4, 0.2]","[u'black', u'blue', u'red']","[u'left', u'middle', u'right']","[0.9, 0.5, 0.1]","[u'low', u'high', u'medium']","blue",50,"middle","high","True","False",206,3300,NA
"ABBP9JASL9AGK","Fri Sep 18 2020 10:14:12 GMT-0500 (Central Daylight Time)","Fri Sep 18 2020 10:21:10 GMT-0500 (Central Daylight Time)","Mozilla/5.0 (Macintosh; Intel Mac OS X 10_15_6) AppleWebKit/537.36 (KHTML, like Gecko) Chrome/85.0.4183.102 Safari/537.36",58,"[0.9, 0.5, 0.1]","[0.8, 0.4, 0.2]","[u'black', u'blue', u'red']","[u'left', u'middle', u'right']","[0.9, 0.5, 0.1]","[u'low', u'high', u'medium']","blue",50,"middle","high","True","False",241,3400,NA
"ABBP9JASL9AGK","Fri Sep 18 2020 10:14:12 GMT-0500 (Central Daylight Time)","Fri Sep 18 2020 10:21:10 GMT-0500 (Central Daylight Time)","Mozilla/5.0 (Macintosh; Intel Mac OS X 10_15_6) AppleWebKit/537.36 (KHTML, like Gecko) Chrome/85.0.4183.102 Safari/537.36",59,"[0.9, 0.5, 0.1]","[0.8, 0.4, 0.2]","[u'black', u'blue', u'red']","[u'left', u'middle', u'right']","[0.9, 0.5, 0.1]","[u'low', u'high', u'medium']","blue",50,"middle","high","True","False",248,3500,NA
"ABBP9JASL9AGK","Fri Sep 18 2020 10:14:12 GMT-0500 (Central Daylight Time)","Fri Sep 18 2020 10:21:10 GMT-0500 (Central Daylight Time)","Mozilla/5.0 (Macintosh; Intel Mac OS X 10_15_6) AppleWebKit/537.36 (KHTML, like Gecko) Chrome/85.0.4183.102 Safari/537.36",60,"[0.9, 0.5, 0.1]","[0.8, 0.4, 0.2]","[u'black', u'blue', u'red']","[u'left', u'middle', u'right']","[0.9, 0.5, 0.1]","[u'low', u'high', u'medium']","blue",50,"middle","high","True","False",311,3600,NA
"ABBP9JASL9AGK","Fri Sep 18 2020 10:14:12 GMT-0500 (Central Daylight Time)","Fri Sep 18 2020 10:21:10 GMT-0500 (Central Daylight Time)","Mozilla/5.0 (Macintosh; Intel Mac OS X 10_15_6) AppleWebKit/537.36 (KHTML, like Gecko) Chrome/85.0.4183.102 Safari/537.36",61,"[0.9, 0.5, 0.1]","[0.8, 0.4, 0.2]","[u'black', u'blue', u'red']","[u'left', u'middle', u'right']","[0.9, 0.5, 0.1]","[u'low', u'high', u'medium']","blue",50,"middle","high","True","False",353,3700,NA
"ABBP9JASL9AGK","Fri Sep 18 2020 10:14:12 GMT-0500 (Central Daylight Time)","Fri Sep 18 2020 10:21:10 GMT-0500 (Central Daylight Time)","Mozilla/5.0 (Macintosh; Intel Mac OS X 10_15_6) AppleWebKit/537.36 (KHTML, like Gecko) Chrome/85.0.4183.102 Safari/537.36",62,"[0.9, 0.5, 0.1]","[0.8, 0.4, 0.2]","[u'black', u'blue', u'red']","[u'left', u'middle', u'right']","[0.9, 0.5, 0.1]","[u'low', u'high', u'medium']","blue",50,"middle","high","True","False",274,3800,NA
"ABBP9JASL9AGK","Fri Sep 18 2020 10:14:12 GMT-0500 (Central Daylight Time)","Fri Sep 18 2020 10:21:10 GMT-0500 (Central Daylight Time)","Mozilla/5.0 (Macintosh; Intel Mac OS X 10_15_6) AppleWebKit/537.36 (KHTML, like Gecko) Chrome/85.0.4183.102 Safari/537.36",63,"[0.9, 0.5, 0.1]","[0.8, 0.4, 0.2]","[u'black', u'blue', u'red']","[u'left', u'middle', u'right']","[0.9, 0.5, 0.1]","[u'low', u'high', u'medium']","blue",50,"middle","high","True","False",278,3900,NA
"ABBP9JASL9AGK","Fri Sep 18 2020 10:14:12 GMT-0500 (Central Daylight Time)","Fri Sep 18 2020 10:21:10 GMT-0500 (Central Daylight Time)","Mozilla/5.0 (Macintosh; Intel Mac OS X 10_15_6) AppleWebKit/537.36 (KHTML, like Gecko) Chrome/85.0.4183.102 Safari/537.36",64,"[0.9, 0.5, 0.1]","[0.8, 0.4, 0.2]","[u'black', u'blue', u'red']","[u'left', u'middle', u'right']","[0.9, 0.5, 0.1]","[u'low', u'high', u'medium']","blue",50,"middle","high","True","True",275,4000,NA
"ABBP9JASL9AGK","Fri Sep 18 2020 10:14:12 GMT-0500 (Central Daylight Time)","Fri Sep 18 2020 10:21:10 GMT-0500 (Central Daylight Time)","Mozilla/5.0 (Macintosh; Intel Mac OS X 10_15_6) AppleWebKit/537.36 (KHTML, like Gecko) Chrome/85.0.4183.102 Safari/537.36",65,"[0.9, 0.5, 0.1]","[0.8, 0.4, 0.2]","[u'black', u'blue', u'red']","[u'left', u'middle', u'right']","[0.9, 0.5, 0.1]","[u'low', u'medium', u'high']","blue",50,"middle","medium","False","False",259,3950,NA
"ABBP9JASL9AGK","Fri Sep 18 2020 10:14:12 GMT-0500 (Central Daylight Time)","Fri Sep 18 2020 10:21:10 GMT-0500 (Central Daylight Time)","Mozilla/5.0 (Macintosh; Intel Mac OS X 10_15_6) AppleWebKit/537.36 (KHTML, like Gecko) Chrome/85.0.4183.102 Safari/537.36",66,"[0.9, 0.5, 0.1]","[0.8, 0.4, 0.2]","[u'black', u'blue', u'red']","[u'left', u'middle', u'right']","[0.9, 0.5, 0.1]","[u'low', u'medium', u'high']","blue",50,"middle","medium","True","False",238,4050,NA
"ABBP9JASL9AGK","Fri Sep 18 2020 10:14:12 GMT-0500 (Central Daylight Time)","Fri Sep 18 2020 10:21:10 GMT-0500 (Central Daylight Time)","Mozilla/5.0 (Macintosh; Intel Mac OS X 10_15_6) AppleWebKit/537.36 (KHTML, like Gecko) Chrome/85.0.4183.102 Safari/537.36",67,"[0.9, 0.5, 0.1]","[0.8, 0.4, 0.2]","[u'black', u'blue', u'red']","[u'left', u'middle', u'right']","[0.9, 0.5, 0.1]","[u'low', u'medium', u'high']","blue",50,"middle","medium","False","False",537,4000,NA
"ABBP9JASL9AGK","Fri Sep 18 2020 10:14:12 GMT-0500 (Central Daylight Time)","Fri Sep 18 2020 10:21:10 GMT-0500 (Central Daylight Time)","Mozilla/5.0 (Macintosh; Intel Mac OS X 10_15_6) AppleWebKit/537.36 (KHTML, like Gecko) Chrome/85.0.4183.102 Safari/537.36",68,"[0.9, 0.5, 0.1]","[0.8, 0.4, 0.2]","[u'black', u'blue', u'red']","[u'left', u'middle', u'right']","[0.9, 0.5, 0.1]","[u'low', u'medium', u'high']","blue",50,"middle","medium","False","False",388,3950,NA
"ABBP9JASL9AGK","Fri Sep 18 2020 10:14:12 GMT-0500 (Central Daylight Time)","Fri Sep 18 2020 10:21:10 GMT-0500 (Central Daylight Time)","Mozilla/5.0 (Macintosh; Intel Mac OS X 10_15_6) AppleWebKit/537.36 (KHTML, like Gecko) Chrome/85.0.4183.102 Safari/537.36",69,"[0.9, 0.5, 0.1]","[0.8, 0.4, 0.2]","[u'black', u'blue', u'red']","[u'left', u'middle', u'right']","[0.9, 0.5, 0.1]","[u'low', u'medium', u'high']","red",51,"right","high","True","False",249,4050,NA
"ABBP9JASL9AGK","Fri Sep 18 2020 10:14:12 GMT-0500 (Central Daylight Time)","Fri Sep 18 2020 10:21:10 GMT-0500 (Central Daylight Time)","Mozilla/5.0 (Macintosh; Intel Mac OS X 10_15_6) AppleWebKit/537.36 (KHTML, like Gecko) Chrome/85.0.4183.102 Safari/537.36",70,"[0.9, 0.5, 0.1]","[0.8, 0.4, 0.2]","[u'black', u'blue', u'red']","[u'left', u'middle', u'right']","[0.9, 0.5, 0.1]","[u'low', u'medium', u'high']","red",51,"right","high","True","False",282,4150,NA
"ABBP9JASL9AGK","Fri Sep 18 2020 10:14:12 GMT-0500 (Central Daylight Time)","Fri Sep 18 2020 10:21:10 GMT-0500 (Central Daylight Time)","Mozilla/5.0 (Macintosh; Intel Mac OS X 10_15_6) AppleWebKit/537.36 (KHTML, like Gecko) Chrome/85.0.4183.102 Safari/537.36",71,"[0.9, 0.5, 0.1]","[0.8, 0.4, 0.2]","[u'black', u'blue', u'red']","[u'left', u'middle', u'right']","[0.9, 0.5, 0.1]","[u'low', u'medium', u'high']","red",51,"right","high","False","False",393,4100,NA
"ABBP9JASL9AGK","Fri Sep 18 2020 10:14:12 GMT-0500 (Central Daylight Time)","Fri Sep 18 2020 10:21:10 GMT-0500 (Central Daylight Time)","Mozilla/5.0 (Macintosh; Intel Mac OS X 10_15_6) AppleWebKit/537.36 (KHTML, like Gecko) Chrome/85.0.4183.102 Safari/537.36",72,"[0.9, 0.5, 0.1]","[0.8, 0.4, 0.2]","[u'black', u'blue', u'red']","[u'left', u'middle', u'right']","[0.9, 0.5, 0.1]","[u'low', u'medium', u'high']","red",51,"right","high","True","False",281,4200,NA
"ABBP9JASL9AGK","Fri Sep 18 2020 10:14:12 GMT-0500 (Central Daylight Time)","Fri Sep 18 2020 10:21:10 GMT-0500 (Central Daylight Time)","Mozilla/5.0 (Macintosh; Intel Mac OS X 10_15_6) AppleWebKit/537.36 (KHTML, like Gecko) Chrome/85.0.4183.102 Safari/537.36",73,"[0.9, 0.5, 0.1]","[0.8, 0.4, 0.2]","[u'black', u'blue', u'red']","[u'left', u'middle', u'right']","[0.9, 0.5, 0.1]","[u'low', u'medium', u'high']","red",51,"right","high","True","False",317,4300,NA
"ABBP9JASL9AGK","Fri Sep 18 2020 10:14:12 GMT-0500 (Central Daylight Time)","Fri Sep 18 2020 10:21:10 GMT-0500 (Central Daylight Time)","Mozilla/5.0 (Macintosh; Intel Mac OS X 10_15_6) AppleWebKit/537.36 (KHTML, like Gecko) Chrome/85.0.4183.102 Safari/537.36",74,"[0.9, 0.5, 0.1]","[0.8, 0.4, 0.2]","[u'black', u'blue', u'red']","[u'left', u'middle', u'right']","[0.9, 0.5, 0.1]","[u'low', u'medium', u'high']","red",51,"right","high","True","False",567,4400,NA
"ABBP9JASL9AGK","Fri Sep 18 2020 10:14:12 GMT-0500 (Central Daylight Time)","Fri Sep 18 2020 10:21:10 GMT-0500 (Central Daylight Time)","Mozilla/5.0 (Macintosh; Intel Mac OS X 10_15_6) AppleWebKit/537.36 (KHTML, like Gecko) Chrome/85.0.4183.102 Safari/537.36",75,"[0.9, 0.5, 0.1]","[0.8, 0.4, 0.2]","[u'black', u'blue', u'red']","[u'left', u'middle', u'right']","[0.9, 0.5, 0.1]","[u'low', u'medium', u'high']","red",51,"right","high","True","False",441,4500,NA
"ABBP9JASL9AGK","Fri Sep 18 2020 10:14:12 GMT-0500 (Central Daylight Time)","Fri Sep 18 2020 10:21:10 GMT-0500 (Central Daylight Time)","Mozilla/5.0 (Macintosh; Intel Mac OS X 10_15_6) AppleWebKit/537.36 (KHTML, like Gecko) Chrome/85.0.4183.102 Safari/537.36",76,"[0.9, 0.5, 0.1]","[0.8, 0.4, 0.2]","[u'black', u'blue', u'red']","[u'left', u'middle', u'right']","[0.9, 0.5, 0.1]","[u'low', u'medium', u'high']","red",51,"right","high","True","False",332,4600,NA
"ABBP9JASL9AGK","Fri Sep 18 2020 10:14:12 GMT-0500 (Central Daylight Time)","Fri Sep 18 2020 10:21:10 GMT-0500 (Central Daylight Time)","Mozilla/5.0 (Macintosh; Intel Mac OS X 10_15_6) AppleWebKit/537.36 (KHTML, like Gecko) Chrome/85.0.4183.102 Safari/537.36",77,"[0.9, 0.5, 0.1]","[0.8, 0.4, 0.2]","[u'black', u'blue', u'red']","[u'left', u'middle', u'right']","[0.9, 0.5, 0.1]","[u'low', u'medium', u'high']","red",51,"right","high","True","True",374,4700,NA
"ABBP9JASL9AGK","Fri Sep 18 2020 10:14:12 GMT-0500 (Central Daylight Time)","Fri Sep 18 2020 10:21:10 GMT-0500 (Central Daylight Time)","Mozilla/5.0 (Macintosh; Intel Mac OS X 10_15_6) AppleWebKit/537.36 (KHTML, like Gecko) Chrome/85.0.4183.102 Safari/537.36",78,"[0.9, 0.5, 0.1]","[0.8, 0.4, 0.2]","[u'black', u'blue', u'red']","[u'left', u'middle', u'right']","[0.9, 0.5, 0.1]","[u'medium', u'high', u'low']","red",51,"right","low","True","False",637,4800,NA
"ABBP9JASL9AGK","Fri Sep 18 2020 10:14:12 GMT-0500 (Central Daylight Time)","Fri Sep 18 2020 10:21:10 GMT-0500 (Central Daylight Time)","Mozilla/5.0 (Macintosh; Intel Mac OS X 10_15_6) AppleWebKit/537.36 (KHTML, like Gecko) Chrome/85.0.4183.102 Safari/537.36",79,"[0.9, 0.5, 0.1]","[0.8, 0.4, 0.2]","[u'black', u'blue', u'red']","[u'left', u'middle', u'right']","[0.9, 0.5, 0.1]","[u'medium', u'high', u'low']","red",51,"right","low","False","False",346,4750,NA
"ABBP9JASL9AGK","Fri Sep 18 2020 10:14:12 GMT-0500 (Central Daylight Time)","Fri Sep 18 2020 10:21:10 GMT-0500 (Central Daylight Time)","Mozilla/5.0 (Macintosh; Intel Mac OS X 10_15_6) AppleWebKit/537.36 (KHTML, like Gecko) Chrome/85.0.4183.102 Safari/537.36",80,"[0.9, 0.5, 0.1]","[0.8, 0.4, 0.2]","[u'black', u'blue', u'red']","[u'left', u'middle', u'right']","[0.9, 0.5, 0.1]","[u'medium', u'high', u'low']","red",51,"right","low","False","False",447,4700,NA
"ABBP9JASL9AGK","Fri Sep 18 2020 10:14:12 GMT-0500 (Central Daylight Time)","Fri Sep 18 2020 10:21:10 GMT-0500 (Central Daylight Time)","Mozilla/5.0 (Macintosh; Intel Mac OS X 10_15_6) AppleWebKit/537.36 (KHTML, like Gecko) Chrome/85.0.4183.102 Safari/537.36",81,"[0.9, 0.5, 0.1]","[0.8, 0.4, 0.2]","[u'black', u'blue', u'red']","[u'left', u'middle', u'right']","[0.8, 0.4, 0.2]","[u'medium', u'low', u'high']","black",49,"left","medium","False","False",323,4650,NA
"ABBP9JASL9AGK","Fri Sep 18 2020 10:14:12 GMT-0500 (Central Daylight Time)","Fri Sep 18 2020 10:21:10 GMT-0500 (Central Daylight Time)","Mozilla/5.0 (Macintosh; Intel Mac OS X 10_15_6) AppleWebKit/537.36 (KHTML, like Gecko) Chrome/85.0.4183.102 Safari/537.36",82,"[0.9, 0.5, 0.1]","[0.8, 0.4, 0.2]","[u'black', u'blue', u'red']","[u'left', u'middle', u'right']","[0.8, 0.4, 0.2]","[u'medium', u'low', u'high']","blue",50,"middle","low","True","False",388,4750,NA
"ABBP9JASL9AGK","Fri Sep 18 2020 10:14:12 GMT-0500 (Central Daylight Time)","Fri Sep 18 2020 10:21:10 GMT-0500 (Central Daylight Time)","Mozilla/5.0 (Macintosh; Intel Mac OS X 10_15_6) AppleWebKit/537.36 (KHTML, like Gecko) Chrome/85.0.4183.102 Safari/537.36",83,"[0.9, 0.5, 0.1]","[0.8, 0.4, 0.2]","[u'black', u'blue', u'red']","[u'left', u'middle', u'right']","[0.8, 0.4, 0.2]","[u'medium', u'low', u'high']","blue",50,"middle","low","False","False",385,4700,NA
"ABBP9JASL9AGK","Fri Sep 18 2020 10:14:12 GMT-0500 (Central Daylight Time)","Fri Sep 18 2020 10:21:10 GMT-0500 (Central Daylight Time)","Mozilla/5.0 (Macintosh; Intel Mac OS X 10_15_6) AppleWebKit/537.36 (KHTML, like Gecko) Chrome/85.0.4183.102 Safari/537.36",84,"[0.9, 0.5, 0.1]","[0.8, 0.4, 0.2]","[u'black', u'blue', u'red']","[u'left', u'middle', u'right']","[0.8, 0.4, 0.2]","[u'medium', u'low', u'high']","red",51,"right","high","True","False",255,4800,NA
"ABBP9JASL9AGK","Fri Sep 18 2020 10:14:12 GMT-0500 (Central Daylight Time)","Fri Sep 18 2020 10:21:10 GMT-0500 (Central Daylight Time)","Mozilla/5.0 (Macintosh; Intel Mac OS X 10_15_6) AppleWebKit/537.36 (KHTML, like Gecko) Chrome/85.0.4183.102 Safari/537.36",85,"[0.9, 0.5, 0.1]","[0.8, 0.4, 0.2]","[u'black', u'blue', u'red']","[u'left', u'middle', u'right']","[0.8, 0.4, 0.2]","[u'medium', u'low', u'high']","red",51,"right","high","True","False",317,4900,NA
"ABBP9JASL9AGK","Fri Sep 18 2020 10:14:12 GMT-0500 (Central Daylight Time)","Fri Sep 18 2020 10:21:10 GMT-0500 (Central Daylight Time)","Mozilla/5.0 (Macintosh; Intel Mac OS X 10_15_6) AppleWebKit/537.36 (KHTML, like Gecko) Chrome/85.0.4183.102 Safari/537.36",86,"[0.9, 0.5, 0.1]","[0.8, 0.4, 0.2]","[u'black', u'blue', u'red']","[u'left', u'middle', u'right']","[0.8, 0.4, 0.2]","[u'medium', u'low', u'high']","red",51,"right","high","True","False",410,5000,NA
"ABBP9JASL9AGK","Fri Sep 18 2020 10:14:12 GMT-0500 (Central Daylight Time)","Fri Sep 18 2020 10:21:10 GMT-0500 (Central Daylight Time)","Mozilla/5.0 (Macintosh; Intel Mac OS X 10_15_6) AppleWebKit/537.36 (KHTML, like Gecko) Chrome/85.0.4183.102 Safari/537.36",87,"[0.9, 0.5, 0.1]","[0.8, 0.4, 0.2]","[u'black', u'blue', u'red']","[u'left', u'middle', u'right']","[0.8, 0.4, 0.2]","[u'medium', u'low', u'high']","red",51,"right","high","False","False",554,4950,NA
"ABBP9JASL9AGK","Fri Sep 18 2020 10:14:12 GMT-0500 (Central Daylight Time)","Fri Sep 18 2020 10:21:10 GMT-0500 (Central Daylight Time)","Mozilla/5.0 (Macintosh; Intel Mac OS X 10_15_6) AppleWebKit/537.36 (KHTML, like Gecko) Chrome/85.0.4183.102 Safari/537.36",88,"[0.9, 0.5, 0.1]","[0.8, 0.4, 0.2]","[u'black', u'blue', u'red']","[u'left', u'middle', u'right']","[0.8, 0.4, 0.2]","[u'medium', u'low', u'high']","red",51,"right","high","False","False",337,4900,NA
"ABBP9JASL9AGK","Fri Sep 18 2020 10:14:12 GMT-0500 (Central Daylight Time)","Fri Sep 18 2020 10:21:10 GMT-0500 (Central Daylight Time)","Mozilla/5.0 (Macintosh; Intel Mac OS X 10_15_6) AppleWebKit/537.36 (KHTML, like Gecko) Chrome/85.0.4183.102 Safari/537.36",89,"[0.9, 0.5, 0.1]","[0.8, 0.4, 0.2]","[u'black', u'blue', u'red']","[u'left', u'middle', u'right']","[0.8, 0.4, 0.2]","[u'medium', u'low', u'high']","blue",50,"middle","low","False","False",369,4850,NA
"ABBP9JASL9AGK","Fri Sep 18 2020 10:14:12 GMT-0500 (Central Daylight Time)","Fri Sep 18 2020 10:21:10 GMT-0500 (Central Daylight Time)","Mozilla/5.0 (Macintosh; Intel Mac OS X 10_15_6) AppleWebKit/537.36 (KHTML, like Gecko) Chrome/85.0.4183.102 Safari/537.36",90,"[0.9, 0.5, 0.1]","[0.8, 0.4, 0.2]","[u'black', u'blue', u'red']","[u'left', u'middle', u'right']","[0.8, 0.4, 0.2]","[u'medium', u'low', u'high']","black",49,"left","medium","False","False",187,4800,NA
"ABBP9JASL9AGK","Fri Sep 18 2020 10:14:12 GMT-0500 (Central Daylight Time)","Fri Sep 18 2020 10:21:10 GMT-0500 (Central Daylight Time)","Mozilla/5.0 (Macintosh; Intel Mac OS X 10_15_6) AppleWebKit/537.36 (KHTML, like Gecko) Chrome/85.0.4183.102 Safari/537.36",91,"[0.9, 0.5, 0.1]","[0.8, 0.4, 0.2]","[u'black', u'blue', u'red']","[u'left', u'middle', u'right']","[0.8, 0.4, 0.2]","[u'medium', u'low', u'high']","blue",50,"middle","low","False","False",236,4750,NA
"ABBP9JASL9AGK","Fri Sep 18 2020 10:14:12 GMT-0500 (Central Daylight Time)","Fri Sep 18 2020 10:21:10 GMT-0500 (Central Daylight Time)","Mozilla/5.0 (Macintosh; Intel Mac OS X 10_15_6) AppleWebKit/537.36 (KHTML, like Gecko) Chrome/85.0.4183.102 Safari/537.36",92,"[0.9, 0.5, 0.1]","[0.8, 0.4, 0.2]","[u'black', u'blue', u'red']","[u'left', u'middle', u'right']","[0.8, 0.4, 0.2]","[u'medium', u'low', u'high']","red",51,"right","high","True","False",285,4850,NA
"ABBP9JASL9AGK","Fri Sep 18 2020 10:14:12 GMT-0500 (Central Daylight Time)","Fri Sep 18 2020 10:21:10 GMT-0500 (Central Daylight Time)","Mozilla/5.0 (Macintosh; Intel Mac OS X 10_15_6) AppleWebKit/537.36 (KHTML, like Gecko) Chrome/85.0.4183.102 Safari/537.36",93,"[0.9, 0.5, 0.1]","[0.8, 0.4, 0.2]","[u'black', u'blue', u'red']","[u'left', u'middle', u'right']","[0.8, 0.4, 0.2]","[u'medium', u'low', u'high']","red",51,"right","high","True","False",276,4950,NA
"ABBP9JASL9AGK","Fri Sep 18 2020 10:14:12 GMT-0500 (Central Daylight Time)","Fri Sep 18 2020 10:21:10 GMT-0500 (Central Daylight Time)","Mozilla/5.0 (Macintosh; Intel Mac OS X 10_15_6) AppleWebKit/537.36 (KHTML, like Gecko) Chrome/85.0.4183.102 Safari/537.36",94,"[0.9, 0.5, 0.1]","[0.8, 0.4, 0.2]","[u'black', u'blue', u'red']","[u'left', u'middle', u'right']","[0.8, 0.4, 0.2]","[u'medium', u'low', u'high']","red",51,"right","high","True","False",299,5050,NA
"ABBP9JASL9AGK","Fri Sep 18 2020 10:14:12 GMT-0500 (Central Daylight Time)","Fri Sep 18 2020 10:21:10 GMT-0500 (Central Daylight Time)","Mozilla/5.0 (Macintosh; Intel Mac OS X 10_15_6) AppleWebKit/537.36 (KHTML, like Gecko) Chrome/85.0.4183.102 Safari/537.36",95,"[0.9, 0.5, 0.1]","[0.8, 0.4, 0.2]","[u'black', u'blue', u'red']","[u'left', u'middle', u'right']","[0.8, 0.4, 0.2]","[u'medium', u'low', u'high']","red",51,"right","high","True","False",288,5150,NA
"ABBP9JASL9AGK","Fri Sep 18 2020 10:14:12 GMT-0500 (Central Daylight Time)","Fri Sep 18 2020 10:21:10 GMT-0500 (Central Daylight Time)","Mozilla/5.0 (Macintosh; Intel Mac OS X 10_15_6) AppleWebKit/537.36 (KHTML, like Gecko) Chrome/85.0.4183.102 Safari/537.36",96,"[0.9, 0.5, 0.1]","[0.8, 0.4, 0.2]","[u'black', u'blue', u'red']","[u'left', u'middle', u'right']","[0.8, 0.4, 0.2]","[u'medium', u'low', u'high']","red",51,"right","high","True","False",293,5250,NA
"ABBP9JASL9AGK","Fri Sep 18 2020 10:14:12 GMT-0500 (Central Daylight Time)","Fri Sep 18 2020 10:21:10 GMT-0500 (Central Daylight Time)","Mozilla/5.0 (Macintosh; Intel Mac OS X 10_15_6) AppleWebKit/537.36 (KHTML, like Gecko) Chrome/85.0.4183.102 Safari/537.36",97,"[0.9, 0.5, 0.1]","[0.8, 0.4, 0.2]","[u'black', u'blue', u'red']","[u'left', u'middle', u'right']","[0.8, 0.4, 0.2]","[u'medium', u'low', u'high']","red",51,"right","high","False","False",329,5200,NA
"ABBP9JASL9AGK","Fri Sep 18 2020 10:14:12 GMT-0500 (Central Daylight Time)","Fri Sep 18 2020 10:21:10 GMT-0500 (Central Daylight Time)","Mozilla/5.0 (Macintosh; Intel Mac OS X 10_15_6) AppleWebKit/537.36 (KHTML, like Gecko) Chrome/85.0.4183.102 Safari/537.36",98,"[0.9, 0.5, 0.1]","[0.8, 0.4, 0.2]","[u'black', u'blue', u'red']","[u'left', u'middle', u'right']","[0.8, 0.4, 0.2]","[u'medium', u'low', u'high']","red",51,"right","high","True","False",251,5300,NA
"ABBP9JASL9AGK","Fri Sep 18 2020 10:14:12 GMT-0500 (Central Daylight Time)","Fri Sep 18 2020 10:21:10 GMT-0500 (Central Daylight Time)","Mozilla/5.0 (Macintosh; Intel Mac OS X 10_15_6) AppleWebKit/537.36 (KHTML, like Gecko) Chrome/85.0.4183.102 Safari/537.36",99,"[0.9, 0.5, 0.1]","[0.8, 0.4, 0.2]","[u'black', u'blue', u'red']","[u'left', u'middle', u'right']","[0.8, 0.4, 0.2]","[u'medium', u'low', u'high']","red",51,"right","high","True","False",290,5400,NA
"ABBP9JASL9AGK","Fri Sep 18 2020 10:14:12 GMT-0500 (Central Daylight Time)","Fri Sep 18 2020 10:21:10 GMT-0500 (Central Daylight Time)","Mozilla/5.0 (Macintosh; Intel Mac OS X 10_15_6) AppleWebKit/537.36 (KHTML, like Gecko) Chrome/85.0.4183.102 Safari/537.36",100,"[0.9, 0.5, 0.1]","[0.8, 0.4, 0.2]","[u'black', u'blue', u'red']","[u'left', u'middle', u'right']","[0.8, 0.4, 0.2]","[u'medium', u'low', u'high']","red",51,"right","high","True","True",257,5500,NA
"ABBP9JASL9AGK","Fri Sep 18 2020 10:14:12 GMT-0500 (Central Daylight Time)","Fri Sep 18 2020 10:21:10 GMT-0500 (Central Daylight Time)","Mozilla/5.0 (Macintosh; Intel Mac OS X 10_15_6) AppleWebKit/537.36 (KHTML, like Gecko) Chrome/85.0.4183.102 Safari/537.36",101,"[0.9, 0.5, 0.1]","[0.8, 0.4, 0.2]","[u'black', u'blue', u'red']","[u'left', u'middle', u'right']","[0.8, 0.4, 0.2]","[u'high', u'medium', u'low']","red",51,"right","low","False","False",295,5450,NA
"ABBP9JASL9AGK","Fri Sep 18 2020 10:14:12 GMT-0500 (Central Daylight Time)","Fri Sep 18 2020 10:21:10 GMT-0500 (Central Daylight Time)","Mozilla/5.0 (Macintosh; Intel Mac OS X 10_15_6) AppleWebKit/537.36 (KHTML, like Gecko) Chrome/85.0.4183.102 Safari/537.36",102,"[0.9, 0.5, 0.1]","[0.8, 0.4, 0.2]","[u'black', u'blue', u'red']","[u'left', u'middle', u'right']","[0.8, 0.4, 0.2]","[u'high', u'medium', u'low']","red",51,"right","low","False","False",79,5400,NA
"ABBP9JASL9AGK","Fri Sep 18 2020 10:14:12 GMT-0500 (Central Daylight Time)","Fri Sep 18 2020 10:21:10 GMT-0500 (Central Daylight Time)","Mozilla/5.0 (Macintosh; Intel Mac OS X 10_15_6) AppleWebKit/537.36 (KHTML, like Gecko) Chrome/85.0.4183.102 Safari/537.36",103,"[0.9, 0.5, 0.1]","[0.8, 0.4, 0.2]","[u'black', u'blue', u'red']","[u'left', u'middle', u'right']","[0.8, 0.4, 0.2]","[u'high', u'medium', u'low']","blue",50,"middle","medium","True","False",251,5500,NA
"ABBP9JASL9AGK","Fri Sep 18 2020 10:14:12 GMT-0500 (Central Daylight Time)","Fri Sep 18 2020 10:21:10 GMT-0500 (Central Daylight Time)","Mozilla/5.0 (Macintosh; Intel Mac OS X 10_15_6) AppleWebKit/537.36 (KHTML, like Gecko) Chrome/85.0.4183.102 Safari/537.36",104,"[0.9, 0.5, 0.1]","[0.8, 0.4, 0.2]","[u'black', u'blue', u'red']","[u'left', u'middle', u'right']","[0.8, 0.4, 0.2]","[u'high', u'medium', u'low']","blue",50,"middle","medium","True","False",271,5600,NA
"ABBP9JASL9AGK","Fri Sep 18 2020 10:14:12 GMT-0500 (Central Daylight Time)","Fri Sep 18 2020 10:21:10 GMT-0500 (Central Daylight Time)","Mozilla/5.0 (Macintosh; Intel Mac OS X 10_15_6) AppleWebKit/537.36 (KHTML, like Gecko) Chrome/85.0.4183.102 Safari/537.36",105,"[0.9, 0.5, 0.1]","[0.8, 0.4, 0.2]","[u'black', u'blue', u'red']","[u'left', u'middle', u'right']","[0.8, 0.4, 0.2]","[u'high', u'medium', u'low']","blue",50,"middle","medium","True","False",309,5700,NA
"ABBP9JASL9AGK","Fri Sep 18 2020 10:14:12 GMT-0500 (Central Daylight Time)","Fri Sep 18 2020 10:21:10 GMT-0500 (Central Daylight Time)","Mozilla/5.0 (Macintosh; Intel Mac OS X 10_15_6) AppleWebKit/537.36 (KHTML, like Gecko) Chrome/85.0.4183.102 Safari/537.36",106,"[0.9, 0.5, 0.1]","[0.8, 0.4, 0.2]","[u'black', u'blue', u'red']","[u'left', u'middle', u'right']","[0.8, 0.4, 0.2]","[u'high', u'medium', u'low']","blue",50,"middle","medium","False","False",356,5650,NA
"ABBP9JASL9AGK","Fri Sep 18 2020 10:14:12 GMT-0500 (Central Daylight Time)","Fri Sep 18 2020 10:21:10 GMT-0500 (Central Daylight Time)","Mozilla/5.0 (Macintosh; Intel Mac OS X 10_15_6) AppleWebKit/537.36 (KHTML, like Gecko) Chrome/85.0.4183.102 Safari/537.36",107,"[0.9, 0.5, 0.1]","[0.8, 0.4, 0.2]","[u'black', u'blue', u'red']","[u'left', u'middle', u'right']","[0.8, 0.4, 0.2]","[u'high', u'medium', u'low']","black",49,"left","high","True","False",229,5750,NA
"ABBP9JASL9AGK","Fri Sep 18 2020 10:14:12 GMT-0500 (Central Daylight Time)","Fri Sep 18 2020 10:21:10 GMT-0500 (Central Daylight Time)","Mozilla/5.0 (Macintosh; Intel Mac OS X 10_15_6) AppleWebKit/537.36 (KHTML, like Gecko) Chrome/85.0.4183.102 Safari/537.36",108,"[0.9, 0.5, 0.1]","[0.8, 0.4, 0.2]","[u'black', u'blue', u'red']","[u'left', u'middle', u'right']","[0.8, 0.4, 0.2]","[u'high', u'medium', u'low']","black",49,"left","high","True","False",239,5850,NA
"ABBP9JASL9AGK","Fri Sep 18 2020 10:14:12 GMT-0500 (Central Daylight Time)","Fri Sep 18 2020 10:21:10 GMT-0500 (Central Daylight Time)","Mozilla/5.0 (Macintosh; Intel Mac OS X 10_15_6) AppleWebKit/537.36 (KHTML, like Gecko) Chrome/85.0.4183.102 Safari/537.36",109,"[0.9, 0.5, 0.1]","[0.8, 0.4, 0.2]","[u'black', u'blue', u'red']","[u'left', u'middle', u'right']","[0.8, 0.4, 0.2]","[u'high', u'medium', u'low']","black",49,"left","high","True","False",268,5950,NA
"ABBP9JASL9AGK","Fri Sep 18 2020 10:14:12 GMT-0500 (Central Daylight Time)","Fri Sep 18 2020 10:21:10 GMT-0500 (Central Daylight Time)","Mozilla/5.0 (Macintosh; Intel Mac OS X 10_15_6) AppleWebKit/537.36 (KHTML, like Gecko) Chrome/85.0.4183.102 Safari/537.36",110,"[0.9, 0.5, 0.1]","[0.8, 0.4, 0.2]","[u'black', u'blue', u'red']","[u'left', u'middle', u'right']","[0.8, 0.4, 0.2]","[u'high', u'medium', u'low']","black",49,"left","high","True","False",294,6050,NA
"ABBP9JASL9AGK","Fri Sep 18 2020 10:14:12 GMT-0500 (Central Daylight Time)","Fri Sep 18 2020 10:21:10 GMT-0500 (Central Daylight Time)","Mozilla/5.0 (Macintosh; Intel Mac OS X 10_15_6) AppleWebKit/537.36 (KHTML, like Gecko) Chrome/85.0.4183.102 Safari/537.36",111,"[0.9, 0.5, 0.1]","[0.8, 0.4, 0.2]","[u'black', u'blue', u'red']","[u'left', u'middle', u'right']","[0.8, 0.4, 0.2]","[u'high', u'medium', u'low']","black",49,"left","high","True","False",283,6150,NA
"ABBP9JASL9AGK","Fri Sep 18 2020 10:14:12 GMT-0500 (Central Daylight Time)","Fri Sep 18 2020 10:21:10 GMT-0500 (Central Daylight Time)","Mozilla/5.0 (Macintosh; Intel Mac OS X 10_15_6) AppleWebKit/537.36 (KHTML, like Gecko) Chrome/85.0.4183.102 Safari/537.36",112,"[0.9, 0.5, 0.1]","[0.8, 0.4, 0.2]","[u'black', u'blue', u'red']","[u'left', u'middle', u'right']","[0.8, 0.4, 0.2]","[u'high', u'medium', u'low']","black",49,"left","high","True","False",279,6250,NA
"ABBP9JASL9AGK","Fri Sep 18 2020 10:14:12 GMT-0500 (Central Daylight Time)","Fri Sep 18 2020 10:21:10 GMT-0500 (Central Daylight Time)","Mozilla/5.0 (Macintosh; Intel Mac OS X 10_15_6) AppleWebKit/537.36 (KHTML, like Gecko) Chrome/85.0.4183.102 Safari/537.36",113,"[0.9, 0.5, 0.1]","[0.8, 0.4, 0.2]","[u'black', u'blue', u'red']","[u'left', u'middle', u'right']","[0.8, 0.4, 0.2]","[u'high', u'medium', u'low']","black",49,"left","high","False","False",260,6200,NA
"ABBP9JASL9AGK","Fri Sep 18 2020 10:14:12 GMT-0500 (Central Daylight Time)","Fri Sep 18 2020 10:21:10 GMT-0500 (Central Daylight Time)","Mozilla/5.0 (Macintosh; Intel Mac OS X 10_15_6) AppleWebKit/537.36 (KHTML, like Gecko) Chrome/85.0.4183.102 Safari/537.36",114,"[0.9, 0.5, 0.1]","[0.8, 0.4, 0.2]","[u'black', u'blue', u'red']","[u'left', u'middle', u'right']","[0.8, 0.4, 0.2]","[u'high', u'medium', u'low']","black",49,"left","high","True","False",260,6300,NA
"ABBP9JASL9AGK","Fri Sep 18 2020 10:14:12 GMT-0500 (Central Daylight Time)","Fri Sep 18 2020 10:21:10 GMT-0500 (Central Daylight Time)","Mozilla/5.0 (Macintosh; Intel Mac OS X 10_15_6) AppleWebKit/537.36 (KHTML, like Gecko) Chrome/85.0.4183.102 Safari/537.36",115,"[0.9, 0.5, 0.1]","[0.8, 0.4, 0.2]","[u'black', u'blue', u'red']","[u'left', u'middle', u'right']","[0.8, 0.4, 0.2]","[u'high', u'medium', u'low']","black",49,"left","high","True","True",276,6400,NA
"ABBP9JASL9AGK","Fri Sep 18 2020 10:14:12 GMT-0500 (Central Daylight Time)","Fri Sep 18 2020 10:21:10 GMT-0500 (Central Daylight Time)","Mozilla/5.0 (Macintosh; Intel Mac OS X 10_15_6) AppleWebKit/537.36 (KHTML, like Gecko) Chrome/85.0.4183.102 Safari/537.36",116,"[0.9, 0.5, 0.1]","[0.8, 0.4, 0.2]","[u'black', u'blue', u'red']","[u'left', u'middle', u'right']","[0.8, 0.4, 0.2]","[u'low', u'high', u'medium']","black",49,"left","low","False","False",269,6350,NA
"ABBP9JASL9AGK","Fri Sep 18 2020 10:14:12 GMT-0500 (Central Daylight Time)","Fri Sep 18 2020 10:21:10 GMT-0500 (Central Daylight Time)","Mozilla/5.0 (Macintosh; Intel Mac OS X 10_15_6) AppleWebKit/537.36 (KHTML, like Gecko) Chrome/85.0.4183.102 Safari/537.36",117,"[0.9, 0.5, 0.1]","[0.8, 0.4, 0.2]","[u'black', u'blue', u'red']","[u'left', u'middle', u'right']","[0.8, 0.4, 0.2]","[u'low', u'high', u'medium']","black",49,"left","low","False","False",292,6300,NA
"ABBP9JASL9AGK","Fri Sep 18 2020 10:14:12 GMT-0500 (Central Daylight Time)","Fri Sep 18 2020 10:21:10 GMT-0500 (Central Daylight Time)","Mozilla/5.0 (Macintosh; Intel Mac OS X 10_15_6) AppleWebKit/537.36 (KHTML, like Gecko) Chrome/85.0.4183.102 Safari/537.36",118,"[0.9, 0.5, 0.1]","[0.8, 0.4, 0.2]","[u'black', u'blue', u'red']","[u'left', u'middle', u'right']","[0.8, 0.4, 0.2]","[u'low', u'high', u'medium']","blue",50,"middle","high","True","False",241,6400,NA
"ABBP9JASL9AGK","Fri Sep 18 2020 10:14:12 GMT-0500 (Central Daylight Time)","Fri Sep 18 2020 10:21:10 GMT-0500 (Central Daylight Time)","Mozilla/5.0 (Macintosh; Intel Mac OS X 10_15_6) AppleWebKit/537.36 (KHTML, like Gecko) Chrome/85.0.4183.102 Safari/537.36",119,"[0.9, 0.5, 0.1]","[0.8, 0.4, 0.2]","[u'black', u'blue', u'red']","[u'left', u'middle', u'right']","[0.8, 0.4, 0.2]","[u'low', u'high', u'medium']","blue",50,"middle","high","True","False",233,6500,NA
"ABBP9JASL9AGK","Fri Sep 18 2020 10:14:12 GMT-0500 (Central Daylight Time)","Fri Sep 18 2020 10:21:10 GMT-0500 (Central Daylight Time)","Mozilla/5.0 (Macintosh; Intel Mac OS X 10_15_6) AppleWebKit/537.36 (KHTML, like Gecko) Chrome/85.0.4183.102 Safari/537.36",120,"[0.9, 0.5, 0.1]","[0.8, 0.4, 0.2]","[u'black', u'blue', u'red']","[u'left', u'middle', u'right']","[0.8, 0.4, 0.2]","[u'low', u'high', u'medium']","blue",50,"middle","high","True","False",318,6600,NA
"ABBP9JASL9AGK","Fri Sep 18 2020 10:14:12 GMT-0500 (Central Daylight Time)","Fri Sep 18 2020 10:21:10 GMT-0500 (Central Daylight Time)","Mozilla/5.0 (Macintosh; Intel Mac OS X 10_15_6) AppleWebKit/537.36 (KHTML, like Gecko) Chrome/85.0.4183.102 Safari/537.36",121,"[0.9, 0.5, 0.1]","[0.8, 0.4, 0.2]","[u'black', u'blue', u'red']","[u'left', u'middle', u'right']","[0.8, 0.4, 0.2]","[u'medium', u'low', u'high']","blue",50,"middle","low","True","False",399,6700,NA
"ABBP9JASL9AGK","Fri Sep 18 2020 10:14:12 GMT-0500 (Central Daylight Time)","Fri Sep 18 2020 10:21:10 GMT-0500 (Central Daylight Time)","Mozilla/5.0 (Macintosh; Intel Mac OS X 10_15_6) AppleWebKit/537.36 (KHTML, like Gecko) Chrome/85.0.4183.102 Safari/537.36",122,"[0.9, 0.5, 0.1]","[0.8, 0.4, 0.2]","[u'black', u'blue', u'red']","[u'left', u'middle', u'right']","[0.8, 0.4, 0.2]","[u'medium', u'low', u'high']","blue",50,"middle","low","False","False",199,6650,NA
"ABBP9JASL9AGK","Fri Sep 18 2020 10:14:12 GMT-0500 (Central Daylight Time)","Fri Sep 18 2020 10:21:10 GMT-0500 (Central Daylight Time)","Mozilla/5.0 (Macintosh; Intel Mac OS X 10_15_6) AppleWebKit/537.36 (KHTML, like Gecko) Chrome/85.0.4183.102 Safari/537.36",123,"[0.9, 0.5, 0.1]","[0.8, 0.4, 0.2]","[u'black', u'blue', u'red']","[u'left', u'middle', u'right']","[0.8, 0.4, 0.2]","[u'medium', u'low', u'high']","blue",50,"middle","low","False","False",130,6600,NA
"ABBP9JASL9AGK","Fri Sep 18 2020 10:14:12 GMT-0500 (Central Daylight Time)","Fri Sep 18 2020 10:21:10 GMT-0500 (Central Daylight Time)","Mozilla/5.0 (Macintosh; Intel Mac OS X 10_15_6) AppleWebKit/537.36 (KHTML, like Gecko) Chrome/85.0.4183.102 Safari/537.36",124,"[0.9, 0.5, 0.1]","[0.8, 0.4, 0.2]","[u'black', u'blue', u'red']","[u'left', u'middle', u'right']","[0.8, 0.4, 0.2]","[u'medium', u'low', u'high']","red",51,"right","high","True","False",161,6700,NA
"ABBP9JASL9AGK","Fri Sep 18 2020 10:14:12 GMT-0500 (Central Daylight Time)","Fri Sep 18 2020 10:21:10 GMT-0500 (Central Daylight Time)","Mozilla/5.0 (Macintosh; Intel Mac OS X 10_15_6) AppleWebKit/537.36 (KHTML, like Gecko) Chrome/85.0.4183.102 Safari/537.36",125,"[0.9, 0.5, 0.1]","[0.8, 0.4, 0.2]","[u'black', u'blue', u'red']","[u'left', u'middle', u'right']","[0.8, 0.4, 0.2]","[u'medium', u'low', u'high']","red",51,"right","high","True","False",274,6800,NA
"ABBP9JASL9AGK","Fri Sep 18 2020 10:14:12 GMT-0500 (Central Daylight Time)","Fri Sep 18 2020 10:21:10 GMT-0500 (Central Daylight Time)","Mozilla/5.0 (Macintosh; Intel Mac OS X 10_15_6) AppleWebKit/537.36 (KHTML, like Gecko) Chrome/85.0.4183.102 Safari/537.36",126,"[0.9, 0.5, 0.1]","[0.8, 0.4, 0.2]","[u'black', u'blue', u'red']","[u'left', u'middle', u'right']","[0.8, 0.4, 0.2]","[u'medium', u'low', u'high']","red",51,"right","high","False","False",307,6750,NA
"ABBP9JASL9AGK","Fri Sep 18 2020 10:14:12 GMT-0500 (Central Daylight Time)","Fri Sep 18 2020 10:21:10 GMT-0500 (Central Daylight Time)","Mozilla/5.0 (Macintosh; Intel Mac OS X 10_15_6) AppleWebKit/537.36 (KHTML, like Gecko) Chrome/85.0.4183.102 Safari/537.36",127,"[0.9, 0.5, 0.1]","[0.8, 0.4, 0.2]","[u'black', u'blue', u'red']","[u'left', u'middle', u'right']","[0.8, 0.4, 0.2]","[u'medium', u'low', u'high']","black",49,"left","medium","False","False",133,6700,NA
"ABBP9JASL9AGK","Fri Sep 18 2020 10:14:12 GMT-0500 (Central Daylight Time)","Fri Sep 18 2020 10:21:10 GMT-0500 (Central Daylight Time)","Mozilla/5.0 (Macintosh; Intel Mac OS X 10_15_6) AppleWebKit/537.36 (KHTML, like Gecko) Chrome/85.0.4183.102 Safari/537.36",128,"[0.9, 0.5, 0.1]","[0.8, 0.4, 0.2]","[u'black', u'blue', u'red']","[u'left', u'middle', u'right']","[0.8, 0.4, 0.2]","[u'medium', u'low', u'high']","red",51,"right","high","True","False",314,6800,NA
"ABBP9JASL9AGK","Fri Sep 18 2020 10:14:12 GMT-0500 (Central Daylight Time)","Fri Sep 18 2020 10:21:10 GMT-0500 (Central Daylight Time)","Mozilla/5.0 (Macintosh; Intel Mac OS X 10_15_6) AppleWebKit/537.36 (KHTML, like Gecko) Chrome/85.0.4183.102 Safari/537.36",129,"[0.9, 0.5, 0.1]","[0.8, 0.4, 0.2]","[u'black', u'blue', u'red']","[u'left', u'middle', u'right']","[0.8, 0.4, 0.2]","[u'medium', u'low', u'high']","red",51,"right","high","True","False",337,6900,NA
"ABBP9JASL9AGK","Fri Sep 18 2020 10:14:12 GMT-0500 (Central Daylight Time)","Fri Sep 18 2020 10:21:10 GMT-0500 (Central Daylight Time)","Mozilla/5.0 (Macintosh; Intel Mac OS X 10_15_6) AppleWebKit/537.36 (KHTML, like Gecko) Chrome/85.0.4183.102 Safari/537.36",130,"[0.9, 0.5, 0.1]","[0.8, 0.4, 0.2]","[u'black', u'blue', u'red']","[u'left', u'middle', u'right']","[0.8, 0.4, 0.2]","[u'medium', u'low', u'high']","red",51,"right","high","False","False",479,6850,NA
"ABBP9JASL9AGK","Fri Sep 18 2020 10:14:12 GMT-0500 (Central Daylight Time)","Fri Sep 18 2020 10:21:10 GMT-0500 (Central Daylight Time)","Mozilla/5.0 (Macintosh; Intel Mac OS X 10_15_6) AppleWebKit/537.36 (KHTML, like Gecko) Chrome/85.0.4183.102 Safari/537.36",131,"[0.9, 0.5, 0.1]","[0.8, 0.4, 0.2]","[u'black', u'blue', u'red']","[u'left', u'middle', u'right']","[0.8, 0.4, 0.2]","[u'medium', u'low', u'high']","black",49,"left","medium","True","False",341,6950,NA
"ABBP9JASL9AGK","Fri Sep 18 2020 10:14:12 GMT-0500 (Central Daylight Time)","Fri Sep 18 2020 10:21:10 GMT-0500 (Central Daylight Time)","Mozilla/5.0 (Macintosh; Intel Mac OS X 10_15_6) AppleWebKit/537.36 (KHTML, like Gecko) Chrome/85.0.4183.102 Safari/537.36",132,"[0.9, 0.5, 0.1]","[0.8, 0.4, 0.2]","[u'black', u'blue', u'red']","[u'left', u'middle', u'right']","[0.8, 0.4, 0.2]","[u'medium', u'low', u'high']","black",49,"left","medium","False","False",302,6900,NA
"ABBP9JASL9AGK","Fri Sep 18 2020 10:14:12 GMT-0500 (Central Daylight Time)","Fri Sep 18 2020 10:21:10 GMT-0500 (Central Daylight Time)","Mozilla/5.0 (Macintosh; Intel Mac OS X 10_15_6) AppleWebKit/537.36 (KHTML, like Gecko) Chrome/85.0.4183.102 Safari/537.36",133,"[0.9, 0.5, 0.1]","[0.8, 0.4, 0.2]","[u'black', u'blue', u'red']","[u'left', u'middle', u'right']","[0.8, 0.4, 0.2]","[u'medium', u'low', u'high']","blue",50,"middle","low","True","False",247,7000,NA
"ABBP9JASL9AGK","Fri Sep 18 2020 10:14:12 GMT-0500 (Central Daylight Time)","Fri Sep 18 2020 10:21:10 GMT-0500 (Central Daylight Time)","Mozilla/5.0 (Macintosh; Intel Mac OS X 10_15_6) AppleWebKit/537.36 (KHTML, like Gecko) Chrome/85.0.4183.102 Safari/537.36",134,"[0.9, 0.5, 0.1]","[0.8, 0.4, 0.2]","[u'black', u'blue', u'red']","[u'left', u'middle', u'right']","[0.8, 0.4, 0.2]","[u'medium', u'low', u'high']","blue",50,"middle","low","False","False",324,6950,NA
"ABBP9JASL9AGK","Fri Sep 18 2020 10:14:12 GMT-0500 (Central Daylight Time)","Fri Sep 18 2020 10:21:10 GMT-0500 (Central Daylight Time)","Mozilla/5.0 (Macintosh; Intel Mac OS X 10_15_6) AppleWebKit/537.36 (KHTML, like Gecko) Chrome/85.0.4183.102 Safari/537.36",135,"[0.9, 0.5, 0.1]","[0.8, 0.4, 0.2]","[u'black', u'blue', u'red']","[u'left', u'middle', u'right']","[0.8, 0.4, 0.2]","[u'medium', u'low', u'high']","red",51,"right","high","True","False",253,7050,NA
"ABBP9JASL9AGK","Fri Sep 18 2020 10:14:12 GMT-0500 (Central Daylight Time)","Fri Sep 18 2020 10:21:10 GMT-0500 (Central Daylight Time)","Mozilla/5.0 (Macintosh; Intel Mac OS X 10_15_6) AppleWebKit/537.36 (KHTML, like Gecko) Chrome/85.0.4183.102 Safari/537.36",136,"[0.9, 0.5, 0.1]","[0.8, 0.4, 0.2]","[u'black', u'blue', u'red']","[u'left', u'middle', u'right']","[0.8, 0.4, 0.2]","[u'medium', u'low', u'high']","red",51,"right","high","True","False",257,7150,NA
"ABBP9JASL9AGK","Fri Sep 18 2020 10:14:12 GMT-0500 (Central Daylight Time)","Fri Sep 18 2020 10:21:10 GMT-0500 (Central Daylight Time)","Mozilla/5.0 (Macintosh; Intel Mac OS X 10_15_6) AppleWebKit/537.36 (KHTML, like Gecko) Chrome/85.0.4183.102 Safari/537.36",137,"[0.9, 0.5, 0.1]","[0.8, 0.4, 0.2]","[u'black', u'blue', u'red']","[u'left', u'middle', u'right']","[0.8, 0.4, 0.2]","[u'medium', u'low', u'high']","red",51,"right","high","False","False",142,7100,NA
"ABBP9JASL9AGK","Fri Sep 18 2020 10:14:12 GMT-0500 (Central Daylight Time)","Fri Sep 18 2020 10:21:10 GMT-0500 (Central Daylight Time)","Mozilla/5.0 (Macintosh; Intel Mac OS X 10_15_6) AppleWebKit/537.36 (KHTML, like Gecko) Chrome/85.0.4183.102 Safari/537.36",138,"[0.9, 0.5, 0.1]","[0.8, 0.4, 0.2]","[u'black', u'blue', u'red']","[u'left', u'middle', u'right']","[0.8, 0.4, 0.2]","[u'medium', u'low', u'high']","red",51,"right","high","True","False",584,7200,NA
"ABBP9JASL9AGK","Fri Sep 18 2020 10:14:12 GMT-0500 (Central Daylight Time)","Fri Sep 18 2020 10:21:10 GMT-0500 (Central Daylight Time)","Mozilla/5.0 (Macintosh; Intel Mac OS X 10_15_6) AppleWebKit/537.36 (KHTML, like Gecko) Chrome/85.0.4183.102 Safari/537.36",139,"[0.9, 0.5, 0.1]","[0.8, 0.4, 0.2]","[u'black', u'blue', u'red']","[u'left', u'middle', u'right']","[0.8, 0.4, 0.2]","[u'medium', u'low', u'high']","red",51,"right","high","True","False",368,7300,NA
"ABBP9JASL9AGK","Fri Sep 18 2020 10:14:12 GMT-0500 (Central Daylight Time)","Fri Sep 18 2020 10:21:10 GMT-0500 (Central Daylight Time)","Mozilla/5.0 (Macintosh; Intel Mac OS X 10_15_6) AppleWebKit/537.36 (KHTML, like Gecko) Chrome/85.0.4183.102 Safari/537.36",140,"[0.9, 0.5, 0.1]","[0.8, 0.4, 0.2]","[u'black', u'blue', u'red']","[u'left', u'middle', u'right']","[0.8, 0.4, 0.2]","[u'medium', u'low', u'high']","red",51,"right","high","True","False",654,7400,NA
"ABBP9JASL9AGK","Fri Sep 18 2020 10:14:12 GMT-0500 (Central Daylight Time)","Fri Sep 18 2020 10:21:10 GMT-0500 (Central Daylight Time)","Mozilla/5.0 (Macintosh; Intel Mac OS X 10_15_6) AppleWebKit/537.36 (KHTML, like Gecko) Chrome/85.0.4183.102 Safari/537.36",141,"[0.9, 0.5, 0.1]","[0.8, 0.4, 0.2]","[u'black', u'blue', u'red']","[u'left', u'middle', u'right']","[0.8, 0.4, 0.2]","[u'medium', u'low', u'high']","red",51,"right","high","False","False",351,7350,NA
"ABBP9JASL9AGK","Fri Sep 18 2020 10:14:12 GMT-0500 (Central Daylight Time)","Fri Sep 18 2020 10:21:10 GMT-0500 (Central Daylight Time)","Mozilla/5.0 (Macintosh; Intel Mac OS X 10_15_6) AppleWebKit/537.36 (KHTML, like Gecko) Chrome/85.0.4183.102 Safari/537.36",142,"[0.9, 0.5, 0.1]","[0.8, 0.4, 0.2]","[u'black', u'blue', u'red']","[u'left', u'middle', u'right']","[0.8, 0.4, 0.2]","[u'medium', u'low', u'high']","blue",50,"middle","low","False","False",133,7300,NA
"ABBP9JASL9AGK","Fri Sep 18 2020 10:14:12 GMT-0500 (Central Daylight Time)","Fri Sep 18 2020 10:21:10 GMT-0500 (Central Daylight Time)","Mozilla/5.0 (Macintosh; Intel Mac OS X 10_15_6) AppleWebKit/537.36 (KHTML, like Gecko) Chrome/85.0.4183.102 Safari/537.36",143,"[0.9, 0.5, 0.1]","[0.8, 0.4, 0.2]","[u'black', u'blue', u'red']","[u'left', u'middle', u'right']","[0.8, 0.4, 0.2]","[u'medium', u'low', u'high']","black",49,"left","medium","False","False",860,7250,NA
"ABBP9JASL9AGK","Fri Sep 18 2020 10:14:12 GMT-0500 (Central Daylight Time)","Fri Sep 18 2020 10:21:10 GMT-0500 (Central Daylight Time)","Mozilla/5.0 (Macintosh; Intel Mac OS X 10_15_6) AppleWebKit/537.36 (KHTML, like Gecko) Chrome/85.0.4183.102 Safari/537.36",144,"[0.9, 0.5, 0.1]","[0.8, 0.4, 0.2]","[u'black', u'blue', u'red']","[u'left', u'middle', u'right']","[0.8, 0.4, 0.2]","[u'medium', u'low', u'high']","blue",50,"middle","low","True","False",129,7350,NA
"ABBP9JASL9AGK","Fri Sep 18 2020 10:14:12 GMT-0500 (Central Daylight Time)","Fri Sep 18 2020 10:21:10 GMT-0500 (Central Daylight Time)","Mozilla/5.0 (Macintosh; Intel Mac OS X 10_15_6) AppleWebKit/537.36 (KHTML, like Gecko) Chrome/85.0.4183.102 Safari/537.36",145,"[0.9, 0.5, 0.1]","[0.8, 0.4, 0.2]","[u'black', u'blue', u'red']","[u'left', u'middle', u'right']","[0.8, 0.4, 0.2]","[u'medium', u'low', u'high']","blue",50,"middle","low","False","False",508,7300,NA
"ABBP9JASL9AGK","Fri Sep 18 2020 10:14:12 GMT-0500 (Central Daylight Time)","Fri Sep 18 2020 10:21:10 GMT-0500 (Central Daylight Time)","Mozilla/5.0 (Macintosh; Intel Mac OS X 10_15_6) AppleWebKit/537.36 (KHTML, like Gecko) Chrome/85.0.4183.102 Safari/537.36",146,"[0.9, 0.5, 0.1]","[0.8, 0.4, 0.2]","[u'black', u'blue', u'red']","[u'left', u'middle', u'right']","[0.8, 0.4, 0.2]","[u'medium', u'low', u'high']","red",51,"right","high","False","False",716,7250,NA
"ABBP9JASL9AGK","Fri Sep 18 2020 10:14:12 GMT-0500 (Central Daylight Time)","Fri Sep 18 2020 10:21:10 GMT-0500 (Central Daylight Time)","Mozilla/5.0 (Macintosh; Intel Mac OS X 10_15_6) AppleWebKit/537.36 (KHTML, like Gecko) Chrome/85.0.4183.102 Safari/537.36",147,"[0.9, 0.5, 0.1]","[0.8, 0.4, 0.2]","[u'black', u'blue', u'red']","[u'left', u'middle', u'right']","[0.8, 0.4, 0.2]","[u'medium', u'low', u'high']","red",51,"right","high","True","False",313,7350,NA
"ABBP9JASL9AGK","Fri Sep 18 2020 10:14:12 GMT-0500 (Central Daylight Time)","Fri Sep 18 2020 10:21:10 GMT-0500 (Central Daylight Time)","Mozilla/5.0 (Macintosh; Intel Mac OS X 10_15_6) AppleWebKit/537.36 (KHTML, like Gecko) Chrome/85.0.4183.102 Safari/537.36",148,"[0.9, 0.5, 0.1]","[0.8, 0.4, 0.2]","[u'black', u'blue', u'red']","[u'left', u'middle', u'right']","[0.8, 0.4, 0.2]","[u'medium', u'low', u'high']","red",51,"right","high","True","False",259,7450,NA
"ABBP9JASL9AGK","Fri Sep 18 2020 10:14:12 GMT-0500 (Central Daylight Time)","Fri Sep 18 2020 10:21:10 GMT-0500 (Central Daylight Time)","Mozilla/5.0 (Macintosh; Intel Mac OS X 10_15_6) AppleWebKit/537.36 (KHTML, like Gecko) Chrome/85.0.4183.102 Safari/537.36",149,"[0.9, 0.5, 0.1]","[0.8, 0.4, 0.2]","[u'black', u'blue', u'red']","[u'left', u'middle', u'right']","[0.8, 0.4, 0.2]","[u'medium', u'low', u'high']","red",51,"right","high","True","False",483,7550,NA
"ABBP9JASL9AGK","Fri Sep 18 2020 10:14:12 GMT-0500 (Central Daylight Time)","Fri Sep 18 2020 10:21:10 GMT-0500 (Central Daylight Time)","Mozilla/5.0 (Macintosh; Intel Mac OS X 10_15_6) AppleWebKit/537.36 (KHTML, like Gecko) Chrome/85.0.4183.102 Safari/537.36",150,"[0.9, 0.5, 0.1]","[0.8, 0.4, 0.2]","[u'black', u'blue', u'red']","[u'left', u'middle', u'right']","[0.8, 0.4, 0.2]","[u'medium', u'low', u'high']","red",51,"right","high","False","False",486,7500,NA
"ABBP9JASL9AGK","Fri Sep 18 2020 10:14:12 GMT-0500 (Central Daylight Time)","Fri Sep 18 2020 10:21:10 GMT-0500 (Central Daylight Time)","Mozilla/5.0 (Macintosh; Intel Mac OS X 10_15_6) AppleWebKit/537.36 (KHTML, like Gecko) Chrome/85.0.4183.102 Safari/537.36",151,"[0.9, 0.5, 0.1]","[0.8, 0.4, 0.2]","[u'black', u'blue', u'red']","[u'left', u'middle', u'right']","[0.8, 0.4, 0.2]","[u'medium', u'low', u'high']","blue",50,"middle","low","False","False",453,7450,NA
"ABBP9JASL9AGK","Fri Sep 18 2020 10:14:12 GMT-0500 (Central Daylight Time)","Fri Sep 18 2020 10:21:10 GMT-0500 (Central Daylight Time)","Mozilla/5.0 (Macintosh; Intel Mac OS X 10_15_6) AppleWebKit/537.36 (KHTML, like Gecko) Chrome/85.0.4183.102 Safari/537.36",152,"[0.9, 0.5, 0.1]","[0.8, 0.4, 0.2]","[u'black', u'blue', u'red']","[u'left', u'middle', u'right']","[0.8, 0.4, 0.2]","[u'medium', u'low', u'high']","black",49,"left","medium","False","False",147,7400,NA
"ABBP9JASL9AGK","Fri Sep 18 2020 10:14:12 GMT-0500 (Central Daylight Time)","Fri Sep 18 2020 10:21:10 GMT-0500 (Central Daylight Time)","Mozilla/5.0 (Macintosh; Intel Mac OS X 10_15_6) AppleWebKit/537.36 (KHTML, like Gecko) Chrome/85.0.4183.102 Safari/537.36",153,"[0.9, 0.5, 0.1]","[0.8, 0.4, 0.2]","[u'black', u'blue', u'red']","[u'left', u'middle', u'right']","[0.8, 0.4, 0.2]","[u'medium', u'low', u'high']","blue",50,"middle","low","False","False",129,7350,NA
"ABBP9JASL9AGK","Fri Sep 18 2020 10:14:12 GMT-0500 (Central Daylight Time)","Fri Sep 18 2020 10:21:10 GMT-0500 (Central Daylight Time)","Mozilla/5.0 (Macintosh; Intel Mac OS X 10_15_6) AppleWebKit/537.36 (KHTML, like Gecko) Chrome/85.0.4183.102 Safari/537.36",154,"[0.9, 0.5, 0.1]","[0.8, 0.4, 0.2]","[u'black', u'blue', u'red']","[u'left', u'middle', u'right']","[0.8, 0.4, 0.2]","[u'medium', u'low', u'high']","black",49,"left","medium","False","False",60,7300,NA
"ABBP9JASL9AGK","Fri Sep 18 2020 10:14:12 GMT-0500 (Central Daylight Time)","Fri Sep 18 2020 10:21:10 GMT-0500 (Central Daylight Time)","Mozilla/5.0 (Macintosh; Intel Mac OS X 10_15_6) AppleWebKit/537.36 (KHTML, like Gecko) Chrome/85.0.4183.102 Safari/537.36",155,"[0.9, 0.5, 0.1]","[0.8, 0.4, 0.2]","[u'black', u'blue', u'red']","[u'left', u'middle', u'right']","[0.8, 0.4, 0.2]","[u'medium', u'low', u'high']","red",51,"right","high","True","False",257,7400,NA
"ABBP9JASL9AGK","Fri Sep 18 2020 10:14:12 GMT-0500 (Central Daylight Time)","Fri Sep 18 2020 10:21:10 GMT-0500 (Central Daylight Time)","Mozilla/5.0 (Macintosh; Intel Mac OS X 10_15_6) AppleWebKit/537.36 (KHTML, like Gecko) Chrome/85.0.4183.102 Safari/537.36",156,"[0.9, 0.5, 0.1]","[0.8, 0.4, 0.2]","[u'black', u'blue', u'red']","[u'left', u'middle', u'right']","[0.8, 0.4, 0.2]","[u'medium', u'low', u'high']","red",51,"right","high","True","False",277,7500,NA
"ABBP9JASL9AGK","Fri Sep 18 2020 10:14:12 GMT-0500 (Central Daylight Time)","Fri Sep 18 2020 10:21:10 GMT-0500 (Central Daylight Time)","Mozilla/5.0 (Macintosh; Intel Mac OS X 10_15_6) AppleWebKit/537.36 (KHTML, like Gecko) Chrome/85.0.4183.102 Safari/537.36",157,"[0.9, 0.5, 0.1]","[0.8, 0.4, 0.2]","[u'black', u'blue', u'red']","[u'left', u'middle', u'right']","[0.8, 0.4, 0.2]","[u'medium', u'low', u'high']","red",51,"right","high","False","False",377,7450,NA
"ABBP9JASL9AGK","Fri Sep 18 2020 10:14:12 GMT-0500 (Central Daylight Time)","Fri Sep 18 2020 10:21:10 GMT-0500 (Central Daylight Time)","Mozilla/5.0 (Macintosh; Intel Mac OS X 10_15_6) AppleWebKit/537.36 (KHTML, like Gecko) Chrome/85.0.4183.102 Safari/537.36",158,"[0.9, 0.5, 0.1]","[0.8, 0.4, 0.2]","[u'black', u'blue', u'red']","[u'left', u'middle', u'right']","[0.8, 0.4, 0.2]","[u'medium', u'low', u'high']","red",51,"right","high","True","False",391,7550,NA
"ABBP9JASL9AGK","Fri Sep 18 2020 10:14:12 GMT-0500 (Central Daylight Time)","Fri Sep 18 2020 10:21:10 GMT-0500 (Central Daylight Time)","Mozilla/5.0 (Macintosh; Intel Mac OS X 10_15_6) AppleWebKit/537.36 (KHTML, like Gecko) Chrome/85.0.4183.102 Safari/537.36",159,"[0.9, 0.5, 0.1]","[0.8, 0.4, 0.2]","[u'black', u'blue', u'red']","[u'left', u'middle', u'right']","[0.8, 0.4, 0.2]","[u'medium', u'low', u'high']","red",51,"right","high","True","False",685,7650,NA
"ABBP9JASL9AGK","Fri Sep 18 2020 10:14:12 GMT-0500 (Central Daylight Time)","Fri Sep 18 2020 10:21:10 GMT-0500 (Central Daylight Time)","Mozilla/5.0 (Macintosh; Intel Mac OS X 10_15_6) AppleWebKit/537.36 (KHTML, like Gecko) Chrome/85.0.4183.102 Safari/537.36",160,"[0.9, 0.5, 0.1]","[0.8, 0.4, 0.2]","[u'black', u'blue', u'red']","[u'left', u'middle', u'right']","[0.8, 0.4, 0.2]","[u'medium', u'low', u'high']","red",51,"right","high","True","False",309,7750,NA
