"src_subject_id","start_time","end_time","browser","index","first_half_probabilities","second_half_probabilities","deck_color","deck_position","deck_probabilities","deck_contingencies","response_color","key_press","response_position","response_probability","reward_type","trial_type","rt","reward_tally","exclusion_reason"
"A3DS5B06ZCD3E3","Tue Jan 28 2020 08:01:18 GMT-0600 (Central Standard Time)","Tue Jan 28 2020 08:08:25 GMT-0600 (Central Standard Time)","Mozilla/5.0 (Windows NT 6.3; Win64; x64) AppleWebKit/537.36 (KHTML, like Gecko) Chrome/78.0.3904.108 Safari/537.36",1,"[0.9, 0.5, 0.1]","[0.8, 0.4, 0.2]","[u'red', u'blue', u'black']","[u'left', u'middle', u'right']","[0.9, 0.5, 0.1]","[u'low', u'high', u'medium']","red",49,"left","low","False","False",958,-50,NA
"A3DS5B06ZCD3E3","Tue Jan 28 2020 08:01:18 GMT-0600 (Central Standard Time)","Tue Jan 28 2020 08:08:25 GMT-0600 (Central Standard Time)","Mozilla/5.0 (Windows NT 6.3; Win64; x64) AppleWebKit/537.36 (KHTML, like Gecko) Chrome/78.0.3904.108 Safari/537.36",2,"[0.9, 0.5, 0.1]","[0.8, 0.4, 0.2]","[u'red', u'blue', u'black']","[u'left', u'middle', u'right']","[0.9, 0.5, 0.1]","[u'low', u'high', u'medium']","blue",50,"middle","high","True","False",505,50,NA
"A3DS5B06ZCD3E3","Tue Jan 28 2020 08:01:18 GMT-0600 (Central Standard Time)","Tue Jan 28 2020 08:08:25 GMT-0600 (Central Standard Time)","Mozilla/5.0 (Windows NT 6.3; Win64; x64) AppleWebKit/537.36 (KHTML, like Gecko) Chrome/78.0.3904.108 Safari/537.36",3,"[0.9, 0.5, 0.1]","[0.8, 0.4, 0.2]","[u'red', u'blue', u'black']","[u'left', u'middle', u'right']","[0.9, 0.5, 0.1]","[u'low', u'high', u'medium']","blue",50,"middle","high","True","False",553,150,NA
"A3DS5B06ZCD3E3","Tue Jan 28 2020 08:01:18 GMT-0600 (Central Standard Time)","Tue Jan 28 2020 08:08:25 GMT-0600 (Central Standard Time)","Mozilla/5.0 (Windows NT 6.3; Win64; x64) AppleWebKit/537.36 (KHTML, like Gecko) Chrome/78.0.3904.108 Safari/537.36",4,"[0.9, 0.5, 0.1]","[0.8, 0.4, 0.2]","[u'red', u'blue', u'black']","[u'left', u'middle', u'right']","[0.9, 0.5, 0.1]","[u'low', u'high', u'medium']","blue",50,"middle","high","True","False",555,250,NA
"A3DS5B06ZCD3E3","Tue Jan 28 2020 08:01:18 GMT-0600 (Central Standard Time)","Tue Jan 28 2020 08:08:25 GMT-0600 (Central Standard Time)","Mozilla/5.0 (Windows NT 6.3; Win64; x64) AppleWebKit/537.36 (KHTML, like Gecko) Chrome/78.0.3904.108 Safari/537.36",5,"[0.9, 0.5, 0.1]","[0.8, 0.4, 0.2]","[u'red', u'blue', u'black']","[u'left', u'middle', u'right']","[0.9, 0.5, 0.1]","[u'low', u'high', u'medium']","blue",50,"middle","high","True","False",460,350,NA
"A3DS5B06ZCD3E3","Tue Jan 28 2020 08:01:18 GMT-0600 (Central Standard Time)","Tue Jan 28 2020 08:08:25 GMT-0600 (Central Standard Time)","Mozilla/5.0 (Windows NT 6.3; Win64; x64) AppleWebKit/537.36 (KHTML, like Gecko) Chrome/78.0.3904.108 Safari/537.36",6,"[0.9, 0.5, 0.1]","[0.8, 0.4, 0.2]","[u'red', u'blue', u'black']","[u'left', u'middle', u'right']","[0.9, 0.5, 0.1]","[u'low', u'high', u'medium']","blue",50,"middle","high","True","False",459,450,NA
"A3DS5B06ZCD3E3","Tue Jan 28 2020 08:01:18 GMT-0600 (Central Standard Time)","Tue Jan 28 2020 08:08:25 GMT-0600 (Central Standard Time)","Mozilla/5.0 (Windows NT 6.3; Win64; x64) AppleWebKit/537.36 (KHTML, like Gecko) Chrome/78.0.3904.108 Safari/537.36",7,"[0.9, 0.5, 0.1]","[0.8, 0.4, 0.2]","[u'red', u'blue', u'black']","[u'left', u'middle', u'right']","[0.9, 0.5, 0.1]","[u'low', u'high', u'medium']","blue",50,"middle","high","True","False",522,550,NA
"A3DS5B06ZCD3E3","Tue Jan 28 2020 08:01:18 GMT-0600 (Central Standard Time)","Tue Jan 28 2020 08:08:25 GMT-0600 (Central Standard Time)","Mozilla/5.0 (Windows NT 6.3; Win64; x64) AppleWebKit/537.36 (KHTML, like Gecko) Chrome/78.0.3904.108 Safari/537.36",8,"[0.9, 0.5, 0.1]","[0.8, 0.4, 0.2]","[u'red', u'blue', u'black']","[u'left', u'middle', u'right']","[0.9, 0.5, 0.1]","[u'low', u'high', u'medium']","blue",50,"middle","high","True","False",507,650,NA
"A3DS5B06ZCD3E3","Tue Jan 28 2020 08:01:18 GMT-0600 (Central Standard Time)","Tue Jan 28 2020 08:08:25 GMT-0600 (Central Standard Time)","Mozilla/5.0 (Windows NT 6.3; Win64; x64) AppleWebKit/537.36 (KHTML, like Gecko) Chrome/78.0.3904.108 Safari/537.36",9,"[0.9, 0.5, 0.1]","[0.8, 0.4, 0.2]","[u'red', u'blue', u'black']","[u'left', u'middle', u'right']","[0.9, 0.5, 0.1]","[u'low', u'high', u'medium']","blue",50,"middle","high","False","False",412,600,NA
"A3DS5B06ZCD3E3","Tue Jan 28 2020 08:01:18 GMT-0600 (Central Standard Time)","Tue Jan 28 2020 08:08:25 GMT-0600 (Central Standard Time)","Mozilla/5.0 (Windows NT 6.3; Win64; x64) AppleWebKit/537.36 (KHTML, like Gecko) Chrome/78.0.3904.108 Safari/537.36",10,"[0.9, 0.5, 0.1]","[0.8, 0.4, 0.2]","[u'red', u'blue', u'black']","[u'left', u'middle', u'right']","[0.9, 0.5, 0.1]","[u'low', u'high', u'medium']","black",51,"right","medium","False","False",378,550,NA
"A3DS5B06ZCD3E3","Tue Jan 28 2020 08:01:18 GMT-0600 (Central Standard Time)","Tue Jan 28 2020 08:08:25 GMT-0600 (Central Standard Time)","Mozilla/5.0 (Windows NT 6.3; Win64; x64) AppleWebKit/537.36 (KHTML, like Gecko) Chrome/78.0.3904.108 Safari/537.36",11,"[0.9, 0.5, 0.1]","[0.8, 0.4, 0.2]","[u'red', u'blue', u'black']","[u'left', u'middle', u'right']","[0.9, 0.5, 0.1]","[u'low', u'high', u'medium']","red",49,"left","low","False","False",455,500,NA
"A3DS5B06ZCD3E3","Tue Jan 28 2020 08:01:18 GMT-0600 (Central Standard Time)","Tue Jan 28 2020 08:08:25 GMT-0600 (Central Standard Time)","Mozilla/5.0 (Windows NT 6.3; Win64; x64) AppleWebKit/537.36 (KHTML, like Gecko) Chrome/78.0.3904.108 Safari/537.36",12,"[0.9, 0.5, 0.1]","[0.8, 0.4, 0.2]","[u'red', u'blue', u'black']","[u'left', u'middle', u'right']","[0.9, 0.5, 0.1]","[u'low', u'high', u'medium']","blue",50,"middle","high","True","False",343,600,NA
"A3DS5B06ZCD3E3","Tue Jan 28 2020 08:01:18 GMT-0600 (Central Standard Time)","Tue Jan 28 2020 08:08:25 GMT-0600 (Central Standard Time)","Mozilla/5.0 (Windows NT 6.3; Win64; x64) AppleWebKit/537.36 (KHTML, like Gecko) Chrome/78.0.3904.108 Safari/537.36",13,"[0.9, 0.5, 0.1]","[0.8, 0.4, 0.2]","[u'red', u'blue', u'black']","[u'left', u'middle', u'right']","[0.9, 0.5, 0.1]","[u'low', u'high', u'medium']","blue",50,"middle","high","True","False",386,700,NA
"A3DS5B06ZCD3E3","Tue Jan 28 2020 08:01:18 GMT-0600 (Central Standard Time)","Tue Jan 28 2020 08:08:25 GMT-0600 (Central Standard Time)","Mozilla/5.0 (Windows NT 6.3; Win64; x64) AppleWebKit/537.36 (KHTML, like Gecko) Chrome/78.0.3904.108 Safari/537.36",14,"[0.9, 0.5, 0.1]","[0.8, 0.4, 0.2]","[u'red', u'blue', u'black']","[u'left', u'middle', u'right']","[0.9, 0.5, 0.1]","[u'low', u'high', u'medium']","blue",50,"middle","high","False","False",352,650,NA
"A3DS5B06ZCD3E3","Tue Jan 28 2020 08:01:18 GMT-0600 (Central Standard Time)","Tue Jan 28 2020 08:08:25 GMT-0600 (Central Standard Time)","Mozilla/5.0 (Windows NT 6.3; Win64; x64) AppleWebKit/537.36 (KHTML, like Gecko) Chrome/78.0.3904.108 Safari/537.36",15,"[0.9, 0.5, 0.1]","[0.8, 0.4, 0.2]","[u'red', u'blue', u'black']","[u'left', u'middle', u'right']","[0.9, 0.5, 0.1]","[u'low', u'high', u'medium']","blue",50,"middle","high","True","False",397,750,NA
"A3DS5B06ZCD3E3","Tue Jan 28 2020 08:01:18 GMT-0600 (Central Standard Time)","Tue Jan 28 2020 08:08:25 GMT-0600 (Central Standard Time)","Mozilla/5.0 (Windows NT 6.3; Win64; x64) AppleWebKit/537.36 (KHTML, like Gecko) Chrome/78.0.3904.108 Safari/537.36",16,"[0.9, 0.5, 0.1]","[0.8, 0.4, 0.2]","[u'red', u'blue', u'black']","[u'left', u'middle', u'right']","[0.9, 0.5, 0.1]","[u'low', u'high', u'medium']","blue",50,"middle","high","True","False",394,850,NA
"A3DS5B06ZCD3E3","Tue Jan 28 2020 08:01:18 GMT-0600 (Central Standard Time)","Tue Jan 28 2020 08:08:25 GMT-0600 (Central Standard Time)","Mozilla/5.0 (Windows NT 6.3; Win64; x64) AppleWebKit/537.36 (KHTML, like Gecko) Chrome/78.0.3904.108 Safari/537.36",17,"[0.9, 0.5, 0.1]","[0.8, 0.4, 0.2]","[u'red', u'blue', u'black']","[u'left', u'middle', u'right']","[0.9, 0.5, 0.1]","[u'low', u'high', u'medium']","blue",50,"middle","high","True","False",360,950,NA
"A3DS5B06ZCD3E3","Tue Jan 28 2020 08:01:18 GMT-0600 (Central Standard Time)","Tue Jan 28 2020 08:08:25 GMT-0600 (Central Standard Time)","Mozilla/5.0 (Windows NT 6.3; Win64; x64) AppleWebKit/537.36 (KHTML, like Gecko) Chrome/78.0.3904.108 Safari/537.36",18,"[0.9, 0.5, 0.1]","[0.8, 0.4, 0.2]","[u'red', u'blue', u'black']","[u'left', u'middle', u'right']","[0.9, 0.5, 0.1]","[u'low', u'high', u'medium']","blue",50,"middle","high","True","False",341,1050,NA
"A3DS5B06ZCD3E3","Tue Jan 28 2020 08:01:18 GMT-0600 (Central Standard Time)","Tue Jan 28 2020 08:08:25 GMT-0600 (Central Standard Time)","Mozilla/5.0 (Windows NT 6.3; Win64; x64) AppleWebKit/537.36 (KHTML, like Gecko) Chrome/78.0.3904.108 Safari/537.36",19,"[0.9, 0.5, 0.1]","[0.8, 0.4, 0.2]","[u'red', u'blue', u'black']","[u'left', u'middle', u'right']","[0.9, 0.5, 0.1]","[u'low', u'high', u'medium']","blue",50,"middle","high","True","False",385,1150,NA
"A3DS5B06ZCD3E3","Tue Jan 28 2020 08:01:18 GMT-0600 (Central Standard Time)","Tue Jan 28 2020 08:08:25 GMT-0600 (Central Standard Time)","Mozilla/5.0 (Windows NT 6.3; Win64; x64) AppleWebKit/537.36 (KHTML, like Gecko) Chrome/78.0.3904.108 Safari/537.36",20,"[0.9, 0.5, 0.1]","[0.8, 0.4, 0.2]","[u'red', u'blue', u'black']","[u'left', u'middle', u'right']","[0.9, 0.5, 0.1]","[u'low', u'high', u'medium']","blue",50,"middle","high","True","True",446,1250,NA
"A3DS5B06ZCD3E3","Tue Jan 28 2020 08:01:18 GMT-0600 (Central Standard Time)","Tue Jan 28 2020 08:08:25 GMT-0600 (Central Standard Time)","Mozilla/5.0 (Windows NT 6.3; Win64; x64) AppleWebKit/537.36 (KHTML, like Gecko) Chrome/78.0.3904.108 Safari/537.36",21,"[0.9, 0.5, 0.1]","[0.8, 0.4, 0.2]","[u'red', u'blue', u'black']","[u'left', u'middle', u'right']","[0.9, 0.5, 0.1]","[u'high', u'low', u'medium']","blue",50,"middle","low","False","False",397,1200,NA
"A3DS5B06ZCD3E3","Tue Jan 28 2020 08:01:18 GMT-0600 (Central Standard Time)","Tue Jan 28 2020 08:08:25 GMT-0600 (Central Standard Time)","Mozilla/5.0 (Windows NT 6.3; Win64; x64) AppleWebKit/537.36 (KHTML, like Gecko) Chrome/78.0.3904.108 Safari/537.36",22,"[0.9, 0.5, 0.1]","[0.8, 0.4, 0.2]","[u'red', u'blue', u'black']","[u'left', u'middle', u'right']","[0.9, 0.5, 0.1]","[u'high', u'low', u'medium']","blue",50,"middle","low","False","False",379,1150,NA
"A3DS5B06ZCD3E3","Tue Jan 28 2020 08:01:18 GMT-0600 (Central Standard Time)","Tue Jan 28 2020 08:08:25 GMT-0600 (Central Standard Time)","Mozilla/5.0 (Windows NT 6.3; Win64; x64) AppleWebKit/537.36 (KHTML, like Gecko) Chrome/78.0.3904.108 Safari/537.36",23,"[0.9, 0.5, 0.1]","[0.8, 0.4, 0.2]","[u'red', u'blue', u'black']","[u'left', u'middle', u'right']","[0.9, 0.5, 0.1]","[u'high', u'low', u'medium']","blue",50,"middle","low","True","False",345,1250,NA
"A3DS5B06ZCD3E3","Tue Jan 28 2020 08:01:18 GMT-0600 (Central Standard Time)","Tue Jan 28 2020 08:08:25 GMT-0600 (Central Standard Time)","Mozilla/5.0 (Windows NT 6.3; Win64; x64) AppleWebKit/537.36 (KHTML, like Gecko) Chrome/78.0.3904.108 Safari/537.36",24,"[0.9, 0.5, 0.1]","[0.8, 0.4, 0.2]","[u'red', u'blue', u'black']","[u'left', u'middle', u'right']","[0.9, 0.5, 0.1]","[u'high', u'low', u'medium']","blue",50,"middle","low","False","False",326,1200,NA
"A3DS5B06ZCD3E3","Tue Jan 28 2020 08:01:18 GMT-0600 (Central Standard Time)","Tue Jan 28 2020 08:08:25 GMT-0600 (Central Standard Time)","Mozilla/5.0 (Windows NT 6.3; Win64; x64) AppleWebKit/537.36 (KHTML, like Gecko) Chrome/78.0.3904.108 Safari/537.36",25,"[0.9, 0.5, 0.1]","[0.8, 0.4, 0.2]","[u'red', u'blue', u'black']","[u'left', u'middle', u'right']","[0.9, 0.5, 0.1]","[u'high', u'low', u'medium']","blue",50,"middle","low","False","False",322,1150,NA
"A3DS5B06ZCD3E3","Tue Jan 28 2020 08:01:18 GMT-0600 (Central Standard Time)","Tue Jan 28 2020 08:08:25 GMT-0600 (Central Standard Time)","Mozilla/5.0 (Windows NT 6.3; Win64; x64) AppleWebKit/537.36 (KHTML, like Gecko) Chrome/78.0.3904.108 Safari/537.36",26,"[0.9, 0.5, 0.1]","[0.8, 0.4, 0.2]","[u'red', u'blue', u'black']","[u'left', u'middle', u'right']","[0.9, 0.5, 0.1]","[u'high', u'low', u'medium']","black",51,"right","medium","False","False",333,1100,NA
"A3DS5B06ZCD3E3","Tue Jan 28 2020 08:01:18 GMT-0600 (Central Standard Time)","Tue Jan 28 2020 08:08:25 GMT-0600 (Central Standard Time)","Mozilla/5.0 (Windows NT 6.3; Win64; x64) AppleWebKit/537.36 (KHTML, like Gecko) Chrome/78.0.3904.108 Safari/537.36",27,"[0.9, 0.5, 0.1]","[0.8, 0.4, 0.2]","[u'red', u'blue', u'black']","[u'left', u'middle', u'right']","[0.9, 0.5, 0.1]","[u'high', u'low', u'medium']","blue",50,"middle","low","False","False",330,1050,NA
"A3DS5B06ZCD3E3","Tue Jan 28 2020 08:01:18 GMT-0600 (Central Standard Time)","Tue Jan 28 2020 08:08:25 GMT-0600 (Central Standard Time)","Mozilla/5.0 (Windows NT 6.3; Win64; x64) AppleWebKit/537.36 (KHTML, like Gecko) Chrome/78.0.3904.108 Safari/537.36",28,"[0.9, 0.5, 0.1]","[0.8, 0.4, 0.2]","[u'red', u'blue', u'black']","[u'left', u'middle', u'right']","[0.9, 0.5, 0.1]","[u'high', u'low', u'medium']","red",49,"left","high","True","False",310,1150,NA
"A3DS5B06ZCD3E3","Tue Jan 28 2020 08:01:18 GMT-0600 (Central Standard Time)","Tue Jan 28 2020 08:08:25 GMT-0600 (Central Standard Time)","Mozilla/5.0 (Windows NT 6.3; Win64; x64) AppleWebKit/537.36 (KHTML, like Gecko) Chrome/78.0.3904.108 Safari/537.36",29,"[0.9, 0.5, 0.1]","[0.8, 0.4, 0.2]","[u'red', u'blue', u'black']","[u'left', u'middle', u'right']","[0.9, 0.5, 0.1]","[u'high', u'low', u'medium']","red",49,"left","high","True","False",369,1250,NA
"A3DS5B06ZCD3E3","Tue Jan 28 2020 08:01:18 GMT-0600 (Central Standard Time)","Tue Jan 28 2020 08:08:25 GMT-0600 (Central Standard Time)","Mozilla/5.0 (Windows NT 6.3; Win64; x64) AppleWebKit/537.36 (KHTML, like Gecko) Chrome/78.0.3904.108 Safari/537.36",30,"[0.9, 0.5, 0.1]","[0.8, 0.4, 0.2]","[u'red', u'blue', u'black']","[u'left', u'middle', u'right']","[0.9, 0.5, 0.1]","[u'high', u'low', u'medium']","red",49,"left","high","True","False",414,1350,NA
"A3DS5B06ZCD3E3","Tue Jan 28 2020 08:01:18 GMT-0600 (Central Standard Time)","Tue Jan 28 2020 08:08:25 GMT-0600 (Central Standard Time)","Mozilla/5.0 (Windows NT 6.3; Win64; x64) AppleWebKit/537.36 (KHTML, like Gecko) Chrome/78.0.3904.108 Safari/537.36",31,"[0.9, 0.5, 0.1]","[0.8, 0.4, 0.2]","[u'red', u'blue', u'black']","[u'left', u'middle', u'right']","[0.9, 0.5, 0.1]","[u'high', u'low', u'medium']","red",49,"left","high","True","False",428,1450,NA
"A3DS5B06ZCD3E3","Tue Jan 28 2020 08:01:18 GMT-0600 (Central Standard Time)","Tue Jan 28 2020 08:08:25 GMT-0600 (Central Standard Time)","Mozilla/5.0 (Windows NT 6.3; Win64; x64) AppleWebKit/537.36 (KHTML, like Gecko) Chrome/78.0.3904.108 Safari/537.36",32,"[0.9, 0.5, 0.1]","[0.8, 0.4, 0.2]","[u'red', u'blue', u'black']","[u'left', u'middle', u'right']","[0.9, 0.5, 0.1]","[u'high', u'low', u'medium']","red",49,"left","high","True","False",467,1550,NA
"A3DS5B06ZCD3E3","Tue Jan 28 2020 08:01:18 GMT-0600 (Central Standard Time)","Tue Jan 28 2020 08:08:25 GMT-0600 (Central Standard Time)","Mozilla/5.0 (Windows NT 6.3; Win64; x64) AppleWebKit/537.36 (KHTML, like Gecko) Chrome/78.0.3904.108 Safari/537.36",33,"[0.9, 0.5, 0.1]","[0.8, 0.4, 0.2]","[u'red', u'blue', u'black']","[u'left', u'middle', u'right']","[0.9, 0.5, 0.1]","[u'high', u'low', u'medium']","red",49,"left","high","True","False",362,1650,NA
"A3DS5B06ZCD3E3","Tue Jan 28 2020 08:01:18 GMT-0600 (Central Standard Time)","Tue Jan 28 2020 08:08:25 GMT-0600 (Central Standard Time)","Mozilla/5.0 (Windows NT 6.3; Win64; x64) AppleWebKit/537.36 (KHTML, like Gecko) Chrome/78.0.3904.108 Safari/537.36",34,"[0.9, 0.5, 0.1]","[0.8, 0.4, 0.2]","[u'red', u'blue', u'black']","[u'left', u'middle', u'right']","[0.9, 0.5, 0.1]","[u'high', u'low', u'medium']","red",49,"left","high","True","False",615,1750,NA
"A3DS5B06ZCD3E3","Tue Jan 28 2020 08:01:18 GMT-0600 (Central Standard Time)","Tue Jan 28 2020 08:08:25 GMT-0600 (Central Standard Time)","Mozilla/5.0 (Windows NT 6.3; Win64; x64) AppleWebKit/537.36 (KHTML, like Gecko) Chrome/78.0.3904.108 Safari/537.36",35,"[0.9, 0.5, 0.1]","[0.8, 0.4, 0.2]","[u'red', u'blue', u'black']","[u'left', u'middle', u'right']","[0.9, 0.5, 0.1]","[u'high', u'low', u'medium']","red",49,"left","high","True","False",506,1850,NA
"A3DS5B06ZCD3E3","Tue Jan 28 2020 08:01:18 GMT-0600 (Central Standard Time)","Tue Jan 28 2020 08:08:25 GMT-0600 (Central Standard Time)","Mozilla/5.0 (Windows NT 6.3; Win64; x64) AppleWebKit/537.36 (KHTML, like Gecko) Chrome/78.0.3904.108 Safari/537.36",36,"[0.9, 0.5, 0.1]","[0.8, 0.4, 0.2]","[u'red', u'blue', u'black']","[u'left', u'middle', u'right']","[0.9, 0.5, 0.1]","[u'high', u'low', u'medium']","red",49,"left","high","True","True",459,1950,NA
"A3DS5B06ZCD3E3","Tue Jan 28 2020 08:01:18 GMT-0600 (Central Standard Time)","Tue Jan 28 2020 08:08:25 GMT-0600 (Central Standard Time)","Mozilla/5.0 (Windows NT 6.3; Win64; x64) AppleWebKit/537.36 (KHTML, like Gecko) Chrome/78.0.3904.108 Safari/537.36",37,"[0.9, 0.5, 0.1]","[0.8, 0.4, 0.2]","[u'red', u'blue', u'black']","[u'left', u'middle', u'right']","[0.9, 0.5, 0.1]","[u'low', u'high', u'medium']","red",49,"left","low","False","False",394,1900,NA
"A3DS5B06ZCD3E3","Tue Jan 28 2020 08:01:18 GMT-0600 (Central Standard Time)","Tue Jan 28 2020 08:08:25 GMT-0600 (Central Standard Time)","Mozilla/5.0 (Windows NT 6.3; Win64; x64) AppleWebKit/537.36 (KHTML, like Gecko) Chrome/78.0.3904.108 Safari/537.36",38,"[0.9, 0.5, 0.1]","[0.8, 0.4, 0.2]","[u'red', u'blue', u'black']","[u'left', u'middle', u'right']","[0.9, 0.5, 0.1]","[u'low', u'high', u'medium']","blue",50,"middle","high","True","False",392,2000,NA
"A3DS5B06ZCD3E3","Tue Jan 28 2020 08:01:18 GMT-0600 (Central Standard Time)","Tue Jan 28 2020 08:08:25 GMT-0600 (Central Standard Time)","Mozilla/5.0 (Windows NT 6.3; Win64; x64) AppleWebKit/537.36 (KHTML, like Gecko) Chrome/78.0.3904.108 Safari/537.36",39,"[0.9, 0.5, 0.1]","[0.8, 0.4, 0.2]","[u'red', u'blue', u'black']","[u'left', u'middle', u'right']","[0.9, 0.5, 0.1]","[u'low', u'high', u'medium']","blue",50,"middle","high","True","False",341,2100,NA
"A3DS5B06ZCD3E3","Tue Jan 28 2020 08:01:18 GMT-0600 (Central Standard Time)","Tue Jan 28 2020 08:08:25 GMT-0600 (Central Standard Time)","Mozilla/5.0 (Windows NT 6.3; Win64; x64) AppleWebKit/537.36 (KHTML, like Gecko) Chrome/78.0.3904.108 Safari/537.36",40,"[0.9, 0.5, 0.1]","[0.8, 0.4, 0.2]","[u'red', u'blue', u'black']","[u'left', u'middle', u'right']","[0.9, 0.5, 0.1]","[u'low', u'high', u'medium']","blue",50,"middle","high","True","False",337,2200,NA
"A3DS5B06ZCD3E3","Tue Jan 28 2020 08:01:18 GMT-0600 (Central Standard Time)","Tue Jan 28 2020 08:08:25 GMT-0600 (Central Standard Time)","Mozilla/5.0 (Windows NT 6.3; Win64; x64) AppleWebKit/537.36 (KHTML, like Gecko) Chrome/78.0.3904.108 Safari/537.36",41,"[0.9, 0.5, 0.1]","[0.8, 0.4, 0.2]","[u'red', u'blue', u'black']","[u'left', u'middle', u'right']","[0.9, 0.5, 0.1]","[u'high', u'low', u'medium']","blue",50,"middle","low","False","False",1102,2150,NA
"A3DS5B06ZCD3E3","Tue Jan 28 2020 08:01:18 GMT-0600 (Central Standard Time)","Tue Jan 28 2020 08:08:25 GMT-0600 (Central Standard Time)","Mozilla/5.0 (Windows NT 6.3; Win64; x64) AppleWebKit/537.36 (KHTML, like Gecko) Chrome/78.0.3904.108 Safari/537.36",42,"[0.9, 0.5, 0.1]","[0.8, 0.4, 0.2]","[u'red', u'blue', u'black']","[u'left', u'middle', u'right']","[0.9, 0.5, 0.1]","[u'high', u'low', u'medium']","blue",50,"middle","low","False","False",333,2100,NA
"A3DS5B06ZCD3E3","Tue Jan 28 2020 08:01:18 GMT-0600 (Central Standard Time)","Tue Jan 28 2020 08:08:25 GMT-0600 (Central Standard Time)","Mozilla/5.0 (Windows NT 6.3; Win64; x64) AppleWebKit/537.36 (KHTML, like Gecko) Chrome/78.0.3904.108 Safari/537.36",43,"[0.9, 0.5, 0.1]","[0.8, 0.4, 0.2]","[u'red', u'blue', u'black']","[u'left', u'middle', u'right']","[0.9, 0.5, 0.1]","[u'high', u'low', u'medium']","red",49,"left","high","True","False",329,2200,NA
"A3DS5B06ZCD3E3","Tue Jan 28 2020 08:01:18 GMT-0600 (Central Standard Time)","Tue Jan 28 2020 08:08:25 GMT-0600 (Central Standard Time)","Mozilla/5.0 (Windows NT 6.3; Win64; x64) AppleWebKit/537.36 (KHTML, like Gecko) Chrome/78.0.3904.108 Safari/537.36",44,"[0.9, 0.5, 0.1]","[0.8, 0.4, 0.2]","[u'red', u'blue', u'black']","[u'left', u'middle', u'right']","[0.9, 0.5, 0.1]","[u'high', u'low', u'medium']","red",49,"left","high","True","False",328,2300,NA
"A3DS5B06ZCD3E3","Tue Jan 28 2020 08:01:18 GMT-0600 (Central Standard Time)","Tue Jan 28 2020 08:08:25 GMT-0600 (Central Standard Time)","Mozilla/5.0 (Windows NT 6.3; Win64; x64) AppleWebKit/537.36 (KHTML, like Gecko) Chrome/78.0.3904.108 Safari/537.36",45,"[0.9, 0.5, 0.1]","[0.8, 0.4, 0.2]","[u'red', u'blue', u'black']","[u'left', u'middle', u'right']","[0.9, 0.5, 0.1]","[u'high', u'low', u'medium']","red",49,"left","high","True","False",385,2400,NA
"A3DS5B06ZCD3E3","Tue Jan 28 2020 08:01:18 GMT-0600 (Central Standard Time)","Tue Jan 28 2020 08:08:25 GMT-0600 (Central Standard Time)","Mozilla/5.0 (Windows NT 6.3; Win64; x64) AppleWebKit/537.36 (KHTML, like Gecko) Chrome/78.0.3904.108 Safari/537.36",46,"[0.9, 0.5, 0.1]","[0.8, 0.4, 0.2]","[u'red', u'blue', u'black']","[u'left', u'middle', u'right']","[0.9, 0.5, 0.1]","[u'high', u'low', u'medium']","red",49,"left","high","True","False",510,2500,NA
"A3DS5B06ZCD3E3","Tue Jan 28 2020 08:01:18 GMT-0600 (Central Standard Time)","Tue Jan 28 2020 08:08:25 GMT-0600 (Central Standard Time)","Mozilla/5.0 (Windows NT 6.3; Win64; x64) AppleWebKit/537.36 (KHTML, like Gecko) Chrome/78.0.3904.108 Safari/537.36",47,"[0.9, 0.5, 0.1]","[0.8, 0.4, 0.2]","[u'red', u'blue', u'black']","[u'left', u'middle', u'right']","[0.9, 0.5, 0.1]","[u'high', u'low', u'medium']","red",49,"left","high","False","False",367,2450,NA
"A3DS5B06ZCD3E3","Tue Jan 28 2020 08:01:18 GMT-0600 (Central Standard Time)","Tue Jan 28 2020 08:08:25 GMT-0600 (Central Standard Time)","Mozilla/5.0 (Windows NT 6.3; Win64; x64) AppleWebKit/537.36 (KHTML, like Gecko) Chrome/78.0.3904.108 Safari/537.36",48,"[0.9, 0.5, 0.1]","[0.8, 0.4, 0.2]","[u'red', u'blue', u'black']","[u'left', u'middle', u'right']","[0.9, 0.5, 0.1]","[u'high', u'low', u'medium']","red",49,"left","high","True","False",284,2550,NA
"A3DS5B06ZCD3E3","Tue Jan 28 2020 08:01:18 GMT-0600 (Central Standard Time)","Tue Jan 28 2020 08:08:25 GMT-0600 (Central Standard Time)","Mozilla/5.0 (Windows NT 6.3; Win64; x64) AppleWebKit/537.36 (KHTML, like Gecko) Chrome/78.0.3904.108 Safari/537.36",49,"[0.9, 0.5, 0.1]","[0.8, 0.4, 0.2]","[u'red', u'blue', u'black']","[u'left', u'middle', u'right']","[0.9, 0.5, 0.1]","[u'high', u'low', u'medium']","red",49,"left","high","True","False",343,2650,NA
"A3DS5B06ZCD3E3","Tue Jan 28 2020 08:01:18 GMT-0600 (Central Standard Time)","Tue Jan 28 2020 08:08:25 GMT-0600 (Central Standard Time)","Mozilla/5.0 (Windows NT 6.3; Win64; x64) AppleWebKit/537.36 (KHTML, like Gecko) Chrome/78.0.3904.108 Safari/537.36",50,"[0.9, 0.5, 0.1]","[0.8, 0.4, 0.2]","[u'red', u'blue', u'black']","[u'left', u'middle', u'right']","[0.9, 0.5, 0.1]","[u'high', u'low', u'medium']","red",49,"left","high","True","False",340,2750,NA
"A3DS5B06ZCD3E3","Tue Jan 28 2020 08:01:18 GMT-0600 (Central Standard Time)","Tue Jan 28 2020 08:08:25 GMT-0600 (Central Standard Time)","Mozilla/5.0 (Windows NT 6.3; Win64; x64) AppleWebKit/537.36 (KHTML, like Gecko) Chrome/78.0.3904.108 Safari/537.36",51,"[0.9, 0.5, 0.1]","[0.8, 0.4, 0.2]","[u'red', u'blue', u'black']","[u'left', u'middle', u'right']","[0.9, 0.5, 0.1]","[u'high', u'low', u'medium']","red",49,"left","high","True","True",321,2850,NA
"A3DS5B06ZCD3E3","Tue Jan 28 2020 08:01:18 GMT-0600 (Central Standard Time)","Tue Jan 28 2020 08:08:25 GMT-0600 (Central Standard Time)","Mozilla/5.0 (Windows NT 6.3; Win64; x64) AppleWebKit/537.36 (KHTML, like Gecko) Chrome/78.0.3904.108 Safari/537.36",52,"[0.9, 0.5, 0.1]","[0.8, 0.4, 0.2]","[u'red', u'blue', u'black']","[u'left', u'middle', u'right']","[0.9, 0.5, 0.1]","[u'medium', u'high', u'low']","red",49,"left","medium","True","False",364,2950,NA
"A3DS5B06ZCD3E3","Tue Jan 28 2020 08:01:18 GMT-0600 (Central Standard Time)","Tue Jan 28 2020 08:08:25 GMT-0600 (Central Standard Time)","Mozilla/5.0 (Windows NT 6.3; Win64; x64) AppleWebKit/537.36 (KHTML, like Gecko) Chrome/78.0.3904.108 Safari/537.36",53,"[0.9, 0.5, 0.1]","[0.8, 0.4, 0.2]","[u'red', u'blue', u'black']","[u'left', u'middle', u'right']","[0.9, 0.5, 0.1]","[u'medium', u'high', u'low']","red",49,"left","medium","False","False",425,2900,NA
"A3DS5B06ZCD3E3","Tue Jan 28 2020 08:01:18 GMT-0600 (Central Standard Time)","Tue Jan 28 2020 08:08:25 GMT-0600 (Central Standard Time)","Mozilla/5.0 (Windows NT 6.3; Win64; x64) AppleWebKit/537.36 (KHTML, like Gecko) Chrome/78.0.3904.108 Safari/537.36",54,"[0.9, 0.5, 0.1]","[0.8, 0.4, 0.2]","[u'red', u'blue', u'black']","[u'left', u'middle', u'right']","[0.9, 0.5, 0.1]","[u'medium', u'high', u'low']","red",49,"left","medium","False","False",327,2850,NA
"A3DS5B06ZCD3E3","Tue Jan 28 2020 08:01:18 GMT-0600 (Central Standard Time)","Tue Jan 28 2020 08:08:25 GMT-0600 (Central Standard Time)","Mozilla/5.0 (Windows NT 6.3; Win64; x64) AppleWebKit/537.36 (KHTML, like Gecko) Chrome/78.0.3904.108 Safari/537.36",55,"[0.9, 0.5, 0.1]","[0.8, 0.4, 0.2]","[u'red', u'blue', u'black']","[u'left', u'middle', u'right']","[0.9, 0.5, 0.1]","[u'medium', u'high', u'low']","blue",50,"middle","high","True","False",564,2950,NA
"A3DS5B06ZCD3E3","Tue Jan 28 2020 08:01:18 GMT-0600 (Central Standard Time)","Tue Jan 28 2020 08:08:25 GMT-0600 (Central Standard Time)","Mozilla/5.0 (Windows NT 6.3; Win64; x64) AppleWebKit/537.36 (KHTML, like Gecko) Chrome/78.0.3904.108 Safari/537.36",56,"[0.9, 0.5, 0.1]","[0.8, 0.4, 0.2]","[u'red', u'blue', u'black']","[u'left', u'middle', u'right']","[0.9, 0.5, 0.1]","[u'medium', u'high', u'low']","blue",50,"middle","high","True","False",388,3050,NA
"A3DS5B06ZCD3E3","Tue Jan 28 2020 08:01:18 GMT-0600 (Central Standard Time)","Tue Jan 28 2020 08:08:25 GMT-0600 (Central Standard Time)","Mozilla/5.0 (Windows NT 6.3; Win64; x64) AppleWebKit/537.36 (KHTML, like Gecko) Chrome/78.0.3904.108 Safari/537.36",57,"[0.9, 0.5, 0.1]","[0.8, 0.4, 0.2]","[u'red', u'blue', u'black']","[u'left', u'middle', u'right']","[0.9, 0.5, 0.1]","[u'medium', u'high', u'low']","blue",50,"middle","high","True","False",322,3150,NA
"A3DS5B06ZCD3E3","Tue Jan 28 2020 08:01:18 GMT-0600 (Central Standard Time)","Tue Jan 28 2020 08:08:25 GMT-0600 (Central Standard Time)","Mozilla/5.0 (Windows NT 6.3; Win64; x64) AppleWebKit/537.36 (KHTML, like Gecko) Chrome/78.0.3904.108 Safari/537.36",58,"[0.9, 0.5, 0.1]","[0.8, 0.4, 0.2]","[u'red', u'blue', u'black']","[u'left', u'middle', u'right']","[0.9, 0.5, 0.1]","[u'medium', u'high', u'low']","blue",50,"middle","high","True","False",307,3250,NA
"A3DS5B06ZCD3E3","Tue Jan 28 2020 08:01:18 GMT-0600 (Central Standard Time)","Tue Jan 28 2020 08:08:25 GMT-0600 (Central Standard Time)","Mozilla/5.0 (Windows NT 6.3; Win64; x64) AppleWebKit/537.36 (KHTML, like Gecko) Chrome/78.0.3904.108 Safari/537.36",59,"[0.9, 0.5, 0.1]","[0.8, 0.4, 0.2]","[u'red', u'blue', u'black']","[u'left', u'middle', u'right']","[0.9, 0.5, 0.1]","[u'medium', u'high', u'low']","blue",50,"middle","high","True","False",330,3350,NA
"A3DS5B06ZCD3E3","Tue Jan 28 2020 08:01:18 GMT-0600 (Central Standard Time)","Tue Jan 28 2020 08:08:25 GMT-0600 (Central Standard Time)","Mozilla/5.0 (Windows NT 6.3; Win64; x64) AppleWebKit/537.36 (KHTML, like Gecko) Chrome/78.0.3904.108 Safari/537.36",60,"[0.9, 0.5, 0.1]","[0.8, 0.4, 0.2]","[u'red', u'blue', u'black']","[u'left', u'middle', u'right']","[0.9, 0.5, 0.1]","[u'medium', u'high', u'low']","blue",50,"middle","high","True","False",325,3450,NA
"A3DS5B06ZCD3E3","Tue Jan 28 2020 08:01:18 GMT-0600 (Central Standard Time)","Tue Jan 28 2020 08:08:25 GMT-0600 (Central Standard Time)","Mozilla/5.0 (Windows NT 6.3; Win64; x64) AppleWebKit/537.36 (KHTML, like Gecko) Chrome/78.0.3904.108 Safari/537.36",61,"[0.9, 0.5, 0.1]","[0.8, 0.4, 0.2]","[u'red', u'blue', u'black']","[u'left', u'middle', u'right']","[0.9, 0.5, 0.1]","[u'medium', u'high', u'low']","blue",50,"middle","high","False","False",416,3400,NA
"A3DS5B06ZCD3E3","Tue Jan 28 2020 08:01:18 GMT-0600 (Central Standard Time)","Tue Jan 28 2020 08:08:25 GMT-0600 (Central Standard Time)","Mozilla/5.0 (Windows NT 6.3; Win64; x64) AppleWebKit/537.36 (KHTML, like Gecko) Chrome/78.0.3904.108 Safari/537.36",62,"[0.9, 0.5, 0.1]","[0.8, 0.4, 0.2]","[u'red', u'blue', u'black']","[u'left', u'middle', u'right']","[0.9, 0.5, 0.1]","[u'medium', u'high', u'low']","blue",50,"middle","high","True","False",302,3500,NA
"A3DS5B06ZCD3E3","Tue Jan 28 2020 08:01:18 GMT-0600 (Central Standard Time)","Tue Jan 28 2020 08:08:25 GMT-0600 (Central Standard Time)","Mozilla/5.0 (Windows NT 6.3; Win64; x64) AppleWebKit/537.36 (KHTML, like Gecko) Chrome/78.0.3904.108 Safari/537.36",63,"[0.9, 0.5, 0.1]","[0.8, 0.4, 0.2]","[u'red', u'blue', u'black']","[u'left', u'middle', u'right']","[0.9, 0.5, 0.1]","[u'medium', u'high', u'low']","blue",50,"middle","high","True","True",340,3600,NA
"A3DS5B06ZCD3E3","Tue Jan 28 2020 08:01:18 GMT-0600 (Central Standard Time)","Tue Jan 28 2020 08:08:25 GMT-0600 (Central Standard Time)","Mozilla/5.0 (Windows NT 6.3; Win64; x64) AppleWebKit/537.36 (KHTML, like Gecko) Chrome/78.0.3904.108 Safari/537.36",64,"[0.9, 0.5, 0.1]","[0.8, 0.4, 0.2]","[u'red', u'blue', u'black']","[u'left', u'middle', u'right']","[0.9, 0.5, 0.1]","[u'high', u'medium', u'low']","blue",50,"middle","medium","False","False",311,3550,NA
"A3DS5B06ZCD3E3","Tue Jan 28 2020 08:01:18 GMT-0600 (Central Standard Time)","Tue Jan 28 2020 08:08:25 GMT-0600 (Central Standard Time)","Mozilla/5.0 (Windows NT 6.3; Win64; x64) AppleWebKit/537.36 (KHTML, like Gecko) Chrome/78.0.3904.108 Safari/537.36",65,"[0.9, 0.5, 0.1]","[0.8, 0.4, 0.2]","[u'red', u'blue', u'black']","[u'left', u'middle', u'right']","[0.9, 0.5, 0.1]","[u'high', u'medium', u'low']","blue",50,"middle","medium","True","False",385,3650,NA
"A3DS5B06ZCD3E3","Tue Jan 28 2020 08:01:18 GMT-0600 (Central Standard Time)","Tue Jan 28 2020 08:08:25 GMT-0600 (Central Standard Time)","Mozilla/5.0 (Windows NT 6.3; Win64; x64) AppleWebKit/537.36 (KHTML, like Gecko) Chrome/78.0.3904.108 Safari/537.36",66,"[0.9, 0.5, 0.1]","[0.8, 0.4, 0.2]","[u'red', u'blue', u'black']","[u'left', u'middle', u'right']","[0.9, 0.5, 0.1]","[u'high', u'medium', u'low']","blue",50,"middle","medium","False","False",351,3600,NA
"A3DS5B06ZCD3E3","Tue Jan 28 2020 08:01:18 GMT-0600 (Central Standard Time)","Tue Jan 28 2020 08:08:25 GMT-0600 (Central Standard Time)","Mozilla/5.0 (Windows NT 6.3; Win64; x64) AppleWebKit/537.36 (KHTML, like Gecko) Chrome/78.0.3904.108 Safari/537.36",67,"[0.9, 0.5, 0.1]","[0.8, 0.4, 0.2]","[u'red', u'blue', u'black']","[u'left', u'middle', u'right']","[0.9, 0.5, 0.1]","[u'high', u'medium', u'low']","blue",50,"middle","medium","False","False",364,3550,NA
"A3DS5B06ZCD3E3","Tue Jan 28 2020 08:01:18 GMT-0600 (Central Standard Time)","Tue Jan 28 2020 08:08:25 GMT-0600 (Central Standard Time)","Mozilla/5.0 (Windows NT 6.3; Win64; x64) AppleWebKit/537.36 (KHTML, like Gecko) Chrome/78.0.3904.108 Safari/537.36",68,"[0.9, 0.5, 0.1]","[0.8, 0.4, 0.2]","[u'red', u'blue', u'black']","[u'left', u'middle', u'right']","[0.9, 0.5, 0.1]","[u'high', u'medium', u'low']","red",49,"left","high","True","False",346,3650,NA
"A3DS5B06ZCD3E3","Tue Jan 28 2020 08:01:18 GMT-0600 (Central Standard Time)","Tue Jan 28 2020 08:08:25 GMT-0600 (Central Standard Time)","Mozilla/5.0 (Windows NT 6.3; Win64; x64) AppleWebKit/537.36 (KHTML, like Gecko) Chrome/78.0.3904.108 Safari/537.36",69,"[0.9, 0.5, 0.1]","[0.8, 0.4, 0.2]","[u'red', u'blue', u'black']","[u'left', u'middle', u'right']","[0.9, 0.5, 0.1]","[u'high', u'medium', u'low']","red",49,"left","high","True","False",325,3750,NA
"A3DS5B06ZCD3E3","Tue Jan 28 2020 08:01:18 GMT-0600 (Central Standard Time)","Tue Jan 28 2020 08:08:25 GMT-0600 (Central Standard Time)","Mozilla/5.0 (Windows NT 6.3; Win64; x64) AppleWebKit/537.36 (KHTML, like Gecko) Chrome/78.0.3904.108 Safari/537.36",70,"[0.9, 0.5, 0.1]","[0.8, 0.4, 0.2]","[u'red', u'blue', u'black']","[u'left', u'middle', u'right']","[0.9, 0.5, 0.1]","[u'high', u'medium', u'low']","red",49,"left","high","True","False",434,3850,NA
"A3DS5B06ZCD3E3","Tue Jan 28 2020 08:01:18 GMT-0600 (Central Standard Time)","Tue Jan 28 2020 08:08:25 GMT-0600 (Central Standard Time)","Mozilla/5.0 (Windows NT 6.3; Win64; x64) AppleWebKit/537.36 (KHTML, like Gecko) Chrome/78.0.3904.108 Safari/537.36",71,"[0.9, 0.5, 0.1]","[0.8, 0.4, 0.2]","[u'red', u'blue', u'black']","[u'left', u'middle', u'right']","[0.9, 0.5, 0.1]","[u'high', u'medium', u'low']","red",49,"left","high","False","False",319,3800,NA
"A3DS5B06ZCD3E3","Tue Jan 28 2020 08:01:18 GMT-0600 (Central Standard Time)","Tue Jan 28 2020 08:08:25 GMT-0600 (Central Standard Time)","Mozilla/5.0 (Windows NT 6.3; Win64; x64) AppleWebKit/537.36 (KHTML, like Gecko) Chrome/78.0.3904.108 Safari/537.36",72,"[0.9, 0.5, 0.1]","[0.8, 0.4, 0.2]","[u'red', u'blue', u'black']","[u'left', u'middle', u'right']","[0.9, 0.5, 0.1]","[u'high', u'medium', u'low']","red",49,"left","high","True","False",347,3900,NA
"A3DS5B06ZCD3E3","Tue Jan 28 2020 08:01:18 GMT-0600 (Central Standard Time)","Tue Jan 28 2020 08:08:25 GMT-0600 (Central Standard Time)","Mozilla/5.0 (Windows NT 6.3; Win64; x64) AppleWebKit/537.36 (KHTML, like Gecko) Chrome/78.0.3904.108 Safari/537.36",73,"[0.9, 0.5, 0.1]","[0.8, 0.4, 0.2]","[u'red', u'blue', u'black']","[u'left', u'middle', u'right']","[0.9, 0.5, 0.1]","[u'high', u'medium', u'low']","red",49,"left","high","True","False",408,4000,NA
"A3DS5B06ZCD3E3","Tue Jan 28 2020 08:01:18 GMT-0600 (Central Standard Time)","Tue Jan 28 2020 08:08:25 GMT-0600 (Central Standard Time)","Mozilla/5.0 (Windows NT 6.3; Win64; x64) AppleWebKit/537.36 (KHTML, like Gecko) Chrome/78.0.3904.108 Safari/537.36",74,"[0.9, 0.5, 0.1]","[0.8, 0.4, 0.2]","[u'red', u'blue', u'black']","[u'left', u'middle', u'right']","[0.9, 0.5, 0.1]","[u'high', u'medium', u'low']","red",49,"left","high","True","False",342,4100,NA
"A3DS5B06ZCD3E3","Tue Jan 28 2020 08:01:18 GMT-0600 (Central Standard Time)","Tue Jan 28 2020 08:08:25 GMT-0600 (Central Standard Time)","Mozilla/5.0 (Windows NT 6.3; Win64; x64) AppleWebKit/537.36 (KHTML, like Gecko) Chrome/78.0.3904.108 Safari/537.36",75,"[0.9, 0.5, 0.1]","[0.8, 0.4, 0.2]","[u'red', u'blue', u'black']","[u'left', u'middle', u'right']","[0.9, 0.5, 0.1]","[u'high', u'medium', u'low']","red",49,"left","high","False","False",420,4050,NA
"A3DS5B06ZCD3E3","Tue Jan 28 2020 08:01:18 GMT-0600 (Central Standard Time)","Tue Jan 28 2020 08:08:25 GMT-0600 (Central Standard Time)","Mozilla/5.0 (Windows NT 6.3; Win64; x64) AppleWebKit/537.36 (KHTML, like Gecko) Chrome/78.0.3904.108 Safari/537.36",76,"[0.9, 0.5, 0.1]","[0.8, 0.4, 0.2]","[u'red', u'blue', u'black']","[u'left', u'middle', u'right']","[0.9, 0.5, 0.1]","[u'high', u'medium', u'low']","red",49,"left","high","True","True",450,4150,NA
"A3DS5B06ZCD3E3","Tue Jan 28 2020 08:01:18 GMT-0600 (Central Standard Time)","Tue Jan 28 2020 08:08:25 GMT-0600 (Central Standard Time)","Mozilla/5.0 (Windows NT 6.3; Win64; x64) AppleWebKit/537.36 (KHTML, like Gecko) Chrome/78.0.3904.108 Safari/537.36",77,"[0.9, 0.5, 0.1]","[0.8, 0.4, 0.2]","[u'red', u'blue', u'black']","[u'left', u'middle', u'right']","[0.9, 0.5, 0.1]","[u'medium', u'high', u'low']","red",49,"left","medium","False","False",416,4100,NA
"A3DS5B06ZCD3E3","Tue Jan 28 2020 08:01:18 GMT-0600 (Central Standard Time)","Tue Jan 28 2020 08:08:25 GMT-0600 (Central Standard Time)","Mozilla/5.0 (Windows NT 6.3; Win64; x64) AppleWebKit/537.36 (KHTML, like Gecko) Chrome/78.0.3904.108 Safari/537.36",78,"[0.9, 0.5, 0.1]","[0.8, 0.4, 0.2]","[u'red', u'blue', u'black']","[u'left', u'middle', u'right']","[0.9, 0.5, 0.1]","[u'medium', u'high', u'low']","blue",50,"middle","high","True","False",350,4200,NA
"A3DS5B06ZCD3E3","Tue Jan 28 2020 08:01:18 GMT-0600 (Central Standard Time)","Tue Jan 28 2020 08:08:25 GMT-0600 (Central Standard Time)","Mozilla/5.0 (Windows NT 6.3; Win64; x64) AppleWebKit/537.36 (KHTML, like Gecko) Chrome/78.0.3904.108 Safari/537.36",79,"[0.9, 0.5, 0.1]","[0.8, 0.4, 0.2]","[u'red', u'blue', u'black']","[u'left', u'middle', u'right']","[0.9, 0.5, 0.1]","[u'medium', u'high', u'low']","blue",50,"middle","high","True","False",379,4300,NA
"A3DS5B06ZCD3E3","Tue Jan 28 2020 08:01:18 GMT-0600 (Central Standard Time)","Tue Jan 28 2020 08:08:25 GMT-0600 (Central Standard Time)","Mozilla/5.0 (Windows NT 6.3; Win64; x64) AppleWebKit/537.36 (KHTML, like Gecko) Chrome/78.0.3904.108 Safari/537.36",80,"[0.9, 0.5, 0.1]","[0.8, 0.4, 0.2]","[u'red', u'blue', u'black']","[u'left', u'middle', u'right']","[0.9, 0.5, 0.1]","[u'medium', u'high', u'low']","blue",50,"middle","high","True","False",377,4400,NA
"A3DS5B06ZCD3E3","Tue Jan 28 2020 08:01:18 GMT-0600 (Central Standard Time)","Tue Jan 28 2020 08:08:25 GMT-0600 (Central Standard Time)","Mozilla/5.0 (Windows NT 6.3; Win64; x64) AppleWebKit/537.36 (KHTML, like Gecko) Chrome/78.0.3904.108 Safari/537.36",81,"[0.9, 0.5, 0.1]","[0.8, 0.4, 0.2]","[u'red', u'blue', u'black']","[u'left', u'middle', u'right']","[0.8, 0.4, 0.2]","[u'high', u'low', u'medium']","blue",50,"middle","low","False","False",648,4350,NA
"A3DS5B06ZCD3E3","Tue Jan 28 2020 08:01:18 GMT-0600 (Central Standard Time)","Tue Jan 28 2020 08:08:25 GMT-0600 (Central Standard Time)","Mozilla/5.0 (Windows NT 6.3; Win64; x64) AppleWebKit/537.36 (KHTML, like Gecko) Chrome/78.0.3904.108 Safari/537.36",82,"[0.9, 0.5, 0.1]","[0.8, 0.4, 0.2]","[u'red', u'blue', u'black']","[u'left', u'middle', u'right']","[0.8, 0.4, 0.2]","[u'high', u'low', u'medium']","blue",50,"middle","low","True","False",364,4450,NA
"A3DS5B06ZCD3E3","Tue Jan 28 2020 08:01:18 GMT-0600 (Central Standard Time)","Tue Jan 28 2020 08:08:25 GMT-0600 (Central Standard Time)","Mozilla/5.0 (Windows NT 6.3; Win64; x64) AppleWebKit/537.36 (KHTML, like Gecko) Chrome/78.0.3904.108 Safari/537.36",83,"[0.9, 0.5, 0.1]","[0.8, 0.4, 0.2]","[u'red', u'blue', u'black']","[u'left', u'middle', u'right']","[0.8, 0.4, 0.2]","[u'high', u'low', u'medium']","blue",50,"middle","low","False","False",361,4400,NA
"A3DS5B06ZCD3E3","Tue Jan 28 2020 08:01:18 GMT-0600 (Central Standard Time)","Tue Jan 28 2020 08:08:25 GMT-0600 (Central Standard Time)","Mozilla/5.0 (Windows NT 6.3; Win64; x64) AppleWebKit/537.36 (KHTML, like Gecko) Chrome/78.0.3904.108 Safari/537.36",84,"[0.9, 0.5, 0.1]","[0.8, 0.4, 0.2]","[u'red', u'blue', u'black']","[u'left', u'middle', u'right']","[0.8, 0.4, 0.2]","[u'high', u'low', u'medium']","red",49,"left","high","True","False",374,4500,NA
"A3DS5B06ZCD3E3","Tue Jan 28 2020 08:01:18 GMT-0600 (Central Standard Time)","Tue Jan 28 2020 08:08:25 GMT-0600 (Central Standard Time)","Mozilla/5.0 (Windows NT 6.3; Win64; x64) AppleWebKit/537.36 (KHTML, like Gecko) Chrome/78.0.3904.108 Safari/537.36",85,"[0.9, 0.5, 0.1]","[0.8, 0.4, 0.2]","[u'red', u'blue', u'black']","[u'left', u'middle', u'right']","[0.8, 0.4, 0.2]","[u'high', u'low', u'medium']","red",49,"left","high","True","False",339,4600,NA
"A3DS5B06ZCD3E3","Tue Jan 28 2020 08:01:18 GMT-0600 (Central Standard Time)","Tue Jan 28 2020 08:08:25 GMT-0600 (Central Standard Time)","Mozilla/5.0 (Windows NT 6.3; Win64; x64) AppleWebKit/537.36 (KHTML, like Gecko) Chrome/78.0.3904.108 Safari/537.36",86,"[0.9, 0.5, 0.1]","[0.8, 0.4, 0.2]","[u'red', u'blue', u'black']","[u'left', u'middle', u'right']","[0.8, 0.4, 0.2]","[u'high', u'low', u'medium']","red",49,"left","high","True","False",401,4700,NA
"A3DS5B06ZCD3E3","Tue Jan 28 2020 08:01:18 GMT-0600 (Central Standard Time)","Tue Jan 28 2020 08:08:25 GMT-0600 (Central Standard Time)","Mozilla/5.0 (Windows NT 6.3; Win64; x64) AppleWebKit/537.36 (KHTML, like Gecko) Chrome/78.0.3904.108 Safari/537.36",87,"[0.9, 0.5, 0.1]","[0.8, 0.4, 0.2]","[u'red', u'blue', u'black']","[u'left', u'middle', u'right']","[0.8, 0.4, 0.2]","[u'high', u'low', u'medium']","red",49,"left","high","True","False",397,4800,NA
"A3DS5B06ZCD3E3","Tue Jan 28 2020 08:01:18 GMT-0600 (Central Standard Time)","Tue Jan 28 2020 08:08:25 GMT-0600 (Central Standard Time)","Mozilla/5.0 (Windows NT 6.3; Win64; x64) AppleWebKit/537.36 (KHTML, like Gecko) Chrome/78.0.3904.108 Safari/537.36",88,"[0.9, 0.5, 0.1]","[0.8, 0.4, 0.2]","[u'red', u'blue', u'black']","[u'left', u'middle', u'right']","[0.8, 0.4, 0.2]","[u'high', u'low', u'medium']","red",49,"left","high","True","False",411,4900,NA
"A3DS5B06ZCD3E3","Tue Jan 28 2020 08:01:18 GMT-0600 (Central Standard Time)","Tue Jan 28 2020 08:08:25 GMT-0600 (Central Standard Time)","Mozilla/5.0 (Windows NT 6.3; Win64; x64) AppleWebKit/537.36 (KHTML, like Gecko) Chrome/78.0.3904.108 Safari/537.36",89,"[0.9, 0.5, 0.1]","[0.8, 0.4, 0.2]","[u'red', u'blue', u'black']","[u'left', u'middle', u'right']","[0.8, 0.4, 0.2]","[u'high', u'low', u'medium']","red",49,"left","high","True","False",361,5000,NA
"A3DS5B06ZCD3E3","Tue Jan 28 2020 08:01:18 GMT-0600 (Central Standard Time)","Tue Jan 28 2020 08:08:25 GMT-0600 (Central Standard Time)","Mozilla/5.0 (Windows NT 6.3; Win64; x64) AppleWebKit/537.36 (KHTML, like Gecko) Chrome/78.0.3904.108 Safari/537.36",90,"[0.9, 0.5, 0.1]","[0.8, 0.4, 0.2]","[u'red', u'blue', u'black']","[u'left', u'middle', u'right']","[0.8, 0.4, 0.2]","[u'high', u'low', u'medium']","red",49,"left","high","True","False",406,5100,NA
"A3DS5B06ZCD3E3","Tue Jan 28 2020 08:01:18 GMT-0600 (Central Standard Time)","Tue Jan 28 2020 08:08:25 GMT-0600 (Central Standard Time)","Mozilla/5.0 (Windows NT 6.3; Win64; x64) AppleWebKit/537.36 (KHTML, like Gecko) Chrome/78.0.3904.108 Safari/537.36",91,"[0.9, 0.5, 0.1]","[0.8, 0.4, 0.2]","[u'red', u'blue', u'black']","[u'left', u'middle', u'right']","[0.8, 0.4, 0.2]","[u'high', u'low', u'medium']","red",49,"left","high","True","False",533,5200,NA
"A3DS5B06ZCD3E3","Tue Jan 28 2020 08:01:18 GMT-0600 (Central Standard Time)","Tue Jan 28 2020 08:08:25 GMT-0600 (Central Standard Time)","Mozilla/5.0 (Windows NT 6.3; Win64; x64) AppleWebKit/537.36 (KHTML, like Gecko) Chrome/78.0.3904.108 Safari/537.36",92,"[0.9, 0.5, 0.1]","[0.8, 0.4, 0.2]","[u'red', u'blue', u'black']","[u'left', u'middle', u'right']","[0.8, 0.4, 0.2]","[u'high', u'low', u'medium']","red",49,"left","high","True","True",423,5300,NA
"A3DS5B06ZCD3E3","Tue Jan 28 2020 08:01:18 GMT-0600 (Central Standard Time)","Tue Jan 28 2020 08:08:25 GMT-0600 (Central Standard Time)","Mozilla/5.0 (Windows NT 6.3; Win64; x64) AppleWebKit/537.36 (KHTML, like Gecko) Chrome/78.0.3904.108 Safari/537.36",93,"[0.9, 0.5, 0.1]","[0.8, 0.4, 0.2]","[u'red', u'blue', u'black']","[u'left', u'middle', u'right']","[0.8, 0.4, 0.2]","[u'low', u'high', u'medium']","red",49,"left","low","False","False",340,5250,NA
"A3DS5B06ZCD3E3","Tue Jan 28 2020 08:01:18 GMT-0600 (Central Standard Time)","Tue Jan 28 2020 08:08:25 GMT-0600 (Central Standard Time)","Mozilla/5.0 (Windows NT 6.3; Win64; x64) AppleWebKit/537.36 (KHTML, like Gecko) Chrome/78.0.3904.108 Safari/537.36",94,"[0.9, 0.5, 0.1]","[0.8, 0.4, 0.2]","[u'red', u'blue', u'black']","[u'left', u'middle', u'right']","[0.8, 0.4, 0.2]","[u'low', u'high', u'medium']","red",49,"left","low","True","False",336,5350,NA
"A3DS5B06ZCD3E3","Tue Jan 28 2020 08:01:18 GMT-0600 (Central Standard Time)","Tue Jan 28 2020 08:08:25 GMT-0600 (Central Standard Time)","Mozilla/5.0 (Windows NT 6.3; Win64; x64) AppleWebKit/537.36 (KHTML, like Gecko) Chrome/78.0.3904.108 Safari/537.36",95,"[0.9, 0.5, 0.1]","[0.8, 0.4, 0.2]","[u'red', u'blue', u'black']","[u'left', u'middle', u'right']","[0.8, 0.4, 0.2]","[u'low', u'high', u'medium']","red",49,"left","low","False","False",380,5300,NA
"A3DS5B06ZCD3E3","Tue Jan 28 2020 08:01:18 GMT-0600 (Central Standard Time)","Tue Jan 28 2020 08:08:25 GMT-0600 (Central Standard Time)","Mozilla/5.0 (Windows NT 6.3; Win64; x64) AppleWebKit/537.36 (KHTML, like Gecko) Chrome/78.0.3904.108 Safari/537.36",96,"[0.9, 0.5, 0.1]","[0.8, 0.4, 0.2]","[u'red', u'blue', u'black']","[u'left', u'middle', u'right']","[0.8, 0.4, 0.2]","[u'low', u'high', u'medium']","blue",50,"middle","high","False","False",313,5250,NA
"A3DS5B06ZCD3E3","Tue Jan 28 2020 08:01:18 GMT-0600 (Central Standard Time)","Tue Jan 28 2020 08:08:25 GMT-0600 (Central Standard Time)","Mozilla/5.0 (Windows NT 6.3; Win64; x64) AppleWebKit/537.36 (KHTML, like Gecko) Chrome/78.0.3904.108 Safari/537.36",97,"[0.9, 0.5, 0.1]","[0.8, 0.4, 0.2]","[u'red', u'blue', u'black']","[u'left', u'middle', u'right']","[0.8, 0.4, 0.2]","[u'low', u'high', u'medium']","blue",50,"middle","high","True","False",342,5350,NA
"A3DS5B06ZCD3E3","Tue Jan 28 2020 08:01:18 GMT-0600 (Central Standard Time)","Tue Jan 28 2020 08:08:25 GMT-0600 (Central Standard Time)","Mozilla/5.0 (Windows NT 6.3; Win64; x64) AppleWebKit/537.36 (KHTML, like Gecko) Chrome/78.0.3904.108 Safari/537.36",98,"[0.9, 0.5, 0.1]","[0.8, 0.4, 0.2]","[u'red', u'blue', u'black']","[u'left', u'middle', u'right']","[0.8, 0.4, 0.2]","[u'low', u'high', u'medium']","blue",50,"middle","high","True","False",371,5450,NA
"A3DS5B06ZCD3E3","Tue Jan 28 2020 08:01:18 GMT-0600 (Central Standard Time)","Tue Jan 28 2020 08:08:25 GMT-0600 (Central Standard Time)","Mozilla/5.0 (Windows NT 6.3; Win64; x64) AppleWebKit/537.36 (KHTML, like Gecko) Chrome/78.0.3904.108 Safari/537.36",99,"[0.9, 0.5, 0.1]","[0.8, 0.4, 0.2]","[u'red', u'blue', u'black']","[u'left', u'middle', u'right']","[0.8, 0.4, 0.2]","[u'low', u'high', u'medium']","blue",50,"middle","high","True","False",384,5550,NA
"A3DS5B06ZCD3E3","Tue Jan 28 2020 08:01:18 GMT-0600 (Central Standard Time)","Tue Jan 28 2020 08:08:25 GMT-0600 (Central Standard Time)","Mozilla/5.0 (Windows NT 6.3; Win64; x64) AppleWebKit/537.36 (KHTML, like Gecko) Chrome/78.0.3904.108 Safari/537.36",100,"[0.9, 0.5, 0.1]","[0.8, 0.4, 0.2]","[u'red', u'blue', u'black']","[u'left', u'middle', u'right']","[0.8, 0.4, 0.2]","[u'low', u'high', u'medium']","blue",50,"middle","high","True","False",348,5650,NA
"A3DS5B06ZCD3E3","Tue Jan 28 2020 08:01:18 GMT-0600 (Central Standard Time)","Tue Jan 28 2020 08:08:25 GMT-0600 (Central Standard Time)","Mozilla/5.0 (Windows NT 6.3; Win64; x64) AppleWebKit/537.36 (KHTML, like Gecko) Chrome/78.0.3904.108 Safari/537.36",101,"[0.9, 0.5, 0.1]","[0.8, 0.4, 0.2]","[u'red', u'blue', u'black']","[u'left', u'middle', u'right']","[0.8, 0.4, 0.2]","[u'low', u'high', u'medium']","blue",50,"middle","high","True","False",329,5750,NA
"A3DS5B06ZCD3E3","Tue Jan 28 2020 08:01:18 GMT-0600 (Central Standard Time)","Tue Jan 28 2020 08:08:25 GMT-0600 (Central Standard Time)","Mozilla/5.0 (Windows NT 6.3; Win64; x64) AppleWebKit/537.36 (KHTML, like Gecko) Chrome/78.0.3904.108 Safari/537.36",102,"[0.9, 0.5, 0.1]","[0.8, 0.4, 0.2]","[u'red', u'blue', u'black']","[u'left', u'middle', u'right']","[0.8, 0.4, 0.2]","[u'low', u'high', u'medium']","blue",50,"middle","high","True","False",307,5850,NA
"A3DS5B06ZCD3E3","Tue Jan 28 2020 08:01:18 GMT-0600 (Central Standard Time)","Tue Jan 28 2020 08:08:25 GMT-0600 (Central Standard Time)","Mozilla/5.0 (Windows NT 6.3; Win64; x64) AppleWebKit/537.36 (KHTML, like Gecko) Chrome/78.0.3904.108 Safari/537.36",103,"[0.9, 0.5, 0.1]","[0.8, 0.4, 0.2]","[u'red', u'blue', u'black']","[u'left', u'middle', u'right']","[0.8, 0.4, 0.2]","[u'low', u'high', u'medium']","blue",50,"middle","high","True","False",304,5950,NA
"A3DS5B06ZCD3E3","Tue Jan 28 2020 08:01:18 GMT-0600 (Central Standard Time)","Tue Jan 28 2020 08:08:25 GMT-0600 (Central Standard Time)","Mozilla/5.0 (Windows NT 6.3; Win64; x64) AppleWebKit/537.36 (KHTML, like Gecko) Chrome/78.0.3904.108 Safari/537.36",104,"[0.9, 0.5, 0.1]","[0.8, 0.4, 0.2]","[u'red', u'blue', u'black']","[u'left', u'middle', u'right']","[0.8, 0.4, 0.2]","[u'low', u'high', u'medium']","blue",50,"middle","high","True","True",333,6050,NA
"A3DS5B06ZCD3E3","Tue Jan 28 2020 08:01:18 GMT-0600 (Central Standard Time)","Tue Jan 28 2020 08:08:25 GMT-0600 (Central Standard Time)","Mozilla/5.0 (Windows NT 6.3; Win64; x64) AppleWebKit/537.36 (KHTML, like Gecko) Chrome/78.0.3904.108 Safari/537.36",105,"[0.9, 0.5, 0.1]","[0.8, 0.4, 0.2]","[u'red', u'blue', u'black']","[u'left', u'middle', u'right']","[0.8, 0.4, 0.2]","[u'medium', u'low', u'high']","blue",50,"middle","low","False","False",393,6000,NA
"A3DS5B06ZCD3E3","Tue Jan 28 2020 08:01:18 GMT-0600 (Central Standard Time)","Tue Jan 28 2020 08:08:25 GMT-0600 (Central Standard Time)","Mozilla/5.0 (Windows NT 6.3; Win64; x64) AppleWebKit/537.36 (KHTML, like Gecko) Chrome/78.0.3904.108 Safari/537.36",106,"[0.9, 0.5, 0.1]","[0.8, 0.4, 0.2]","[u'red', u'blue', u'black']","[u'left', u'middle', u'right']","[0.8, 0.4, 0.2]","[u'medium', u'low', u'high']","blue",50,"middle","low","False","False",262,5950,NA
"A3DS5B06ZCD3E3","Tue Jan 28 2020 08:01:18 GMT-0600 (Central Standard Time)","Tue Jan 28 2020 08:08:25 GMT-0600 (Central Standard Time)","Mozilla/5.0 (Windows NT 6.3; Win64; x64) AppleWebKit/537.36 (KHTML, like Gecko) Chrome/78.0.3904.108 Safari/537.36",107,"[0.9, 0.5, 0.1]","[0.8, 0.4, 0.2]","[u'red', u'blue', u'black']","[u'left', u'middle', u'right']","[0.8, 0.4, 0.2]","[u'medium', u'low', u'high']","red",49,"left","medium","False","False",320,5900,NA
"A3DS5B06ZCD3E3","Tue Jan 28 2020 08:01:18 GMT-0600 (Central Standard Time)","Tue Jan 28 2020 08:08:25 GMT-0600 (Central Standard Time)","Mozilla/5.0 (Windows NT 6.3; Win64; x64) AppleWebKit/537.36 (KHTML, like Gecko) Chrome/78.0.3904.108 Safari/537.36",108,"[0.9, 0.5, 0.1]","[0.8, 0.4, 0.2]","[u'red', u'blue', u'black']","[u'left', u'middle', u'right']","[0.8, 0.4, 0.2]","[u'medium', u'low', u'high']","red",49,"left","medium","False","False",317,5850,NA
"A3DS5B06ZCD3E3","Tue Jan 28 2020 08:01:18 GMT-0600 (Central Standard Time)","Tue Jan 28 2020 08:08:25 GMT-0600 (Central Standard Time)","Mozilla/5.0 (Windows NT 6.3; Win64; x64) AppleWebKit/537.36 (KHTML, like Gecko) Chrome/78.0.3904.108 Safari/537.36",109,"[0.9, 0.5, 0.1]","[0.8, 0.4, 0.2]","[u'red', u'blue', u'black']","[u'left', u'middle', u'right']","[0.8, 0.4, 0.2]","[u'medium', u'low', u'high']","black",51,"right","high","False","False",264,5800,NA
"A3DS5B06ZCD3E3","Tue Jan 28 2020 08:01:18 GMT-0600 (Central Standard Time)","Tue Jan 28 2020 08:08:25 GMT-0600 (Central Standard Time)","Mozilla/5.0 (Windows NT 6.3; Win64; x64) AppleWebKit/537.36 (KHTML, like Gecko) Chrome/78.0.3904.108 Safari/537.36",110,"[0.9, 0.5, 0.1]","[0.8, 0.4, 0.2]","[u'red', u'blue', u'black']","[u'left', u'middle', u'right']","[0.8, 0.4, 0.2]","[u'medium', u'low', u'high']","blue",50,"middle","low","False","False",306,5750,NA
"A3DS5B06ZCD3E3","Tue Jan 28 2020 08:01:18 GMT-0600 (Central Standard Time)","Tue Jan 28 2020 08:08:25 GMT-0600 (Central Standard Time)","Mozilla/5.0 (Windows NT 6.3; Win64; x64) AppleWebKit/537.36 (KHTML, like Gecko) Chrome/78.0.3904.108 Safari/537.36",111,"[0.9, 0.5, 0.1]","[0.8, 0.4, 0.2]","[u'red', u'blue', u'black']","[u'left', u'middle', u'right']","[0.8, 0.4, 0.2]","[u'medium', u'low', u'high']","blue",50,"middle","low","False","False",286,5700,NA
"A3DS5B06ZCD3E3","Tue Jan 28 2020 08:01:18 GMT-0600 (Central Standard Time)","Tue Jan 28 2020 08:08:25 GMT-0600 (Central Standard Time)","Mozilla/5.0 (Windows NT 6.3; Win64; x64) AppleWebKit/537.36 (KHTML, like Gecko) Chrome/78.0.3904.108 Safari/537.36",112,"[0.9, 0.5, 0.1]","[0.8, 0.4, 0.2]","[u'red', u'blue', u'black']","[u'left', u'middle', u'right']","[0.8, 0.4, 0.2]","[u'medium', u'low', u'high']","red",49,"left","medium","False","False",281,5650,NA
"A3DS5B06ZCD3E3","Tue Jan 28 2020 08:01:18 GMT-0600 (Central Standard Time)","Tue Jan 28 2020 08:08:25 GMT-0600 (Central Standard Time)","Mozilla/5.0 (Windows NT 6.3; Win64; x64) AppleWebKit/537.36 (KHTML, like Gecko) Chrome/78.0.3904.108 Safari/537.36",113,"[0.9, 0.5, 0.1]","[0.8, 0.4, 0.2]","[u'red', u'blue', u'black']","[u'left', u'middle', u'right']","[0.8, 0.4, 0.2]","[u'medium', u'low', u'high']","red",49,"left","medium","True","False",308,5750,NA
"A3DS5B06ZCD3E3","Tue Jan 28 2020 08:01:18 GMT-0600 (Central Standard Time)","Tue Jan 28 2020 08:08:25 GMT-0600 (Central Standard Time)","Mozilla/5.0 (Windows NT 6.3; Win64; x64) AppleWebKit/537.36 (KHTML, like Gecko) Chrome/78.0.3904.108 Safari/537.36",114,"[0.9, 0.5, 0.1]","[0.8, 0.4, 0.2]","[u'red', u'blue', u'black']","[u'left', u'middle', u'right']","[0.8, 0.4, 0.2]","[u'medium', u'low', u'high']","red",49,"left","medium","False","False",384,5700,NA
"A3DS5B06ZCD3E3","Tue Jan 28 2020 08:01:18 GMT-0600 (Central Standard Time)","Tue Jan 28 2020 08:08:25 GMT-0600 (Central Standard Time)","Mozilla/5.0 (Windows NT 6.3; Win64; x64) AppleWebKit/537.36 (KHTML, like Gecko) Chrome/78.0.3904.108 Safari/537.36",115,"[0.9, 0.5, 0.1]","[0.8, 0.4, 0.2]","[u'red', u'blue', u'black']","[u'left', u'middle', u'right']","[0.8, 0.4, 0.2]","[u'medium', u'low', u'high']","red",49,"left","medium","True","False",333,5800,NA
"A3DS5B06ZCD3E3","Tue Jan 28 2020 08:01:18 GMT-0600 (Central Standard Time)","Tue Jan 28 2020 08:08:25 GMT-0600 (Central Standard Time)","Mozilla/5.0 (Windows NT 6.3; Win64; x64) AppleWebKit/537.36 (KHTML, like Gecko) Chrome/78.0.3904.108 Safari/537.36",116,"[0.9, 0.5, 0.1]","[0.8, 0.4, 0.2]","[u'red', u'blue', u'black']","[u'left', u'middle', u'right']","[0.8, 0.4, 0.2]","[u'medium', u'low', u'high']","red",49,"left","medium","False","False",425,5750,NA
"A3DS5B06ZCD3E3","Tue Jan 28 2020 08:01:18 GMT-0600 (Central Standard Time)","Tue Jan 28 2020 08:08:25 GMT-0600 (Central Standard Time)","Mozilla/5.0 (Windows NT 6.3; Win64; x64) AppleWebKit/537.36 (KHTML, like Gecko) Chrome/78.0.3904.108 Safari/537.36",117,"[0.9, 0.5, 0.1]","[0.8, 0.4, 0.2]","[u'red', u'blue', u'black']","[u'left', u'middle', u'right']","[0.8, 0.4, 0.2]","[u'medium', u'low', u'high']","blue",50,"middle","low","False","False",328,5700,NA
"A3DS5B06ZCD3E3","Tue Jan 28 2020 08:01:18 GMT-0600 (Central Standard Time)","Tue Jan 28 2020 08:08:25 GMT-0600 (Central Standard Time)","Mozilla/5.0 (Windows NT 6.3; Win64; x64) AppleWebKit/537.36 (KHTML, like Gecko) Chrome/78.0.3904.108 Safari/537.36",118,"[0.9, 0.5, 0.1]","[0.8, 0.4, 0.2]","[u'red', u'blue', u'black']","[u'left', u'middle', u'right']","[0.8, 0.4, 0.2]","[u'medium', u'low', u'high']","blue",50,"middle","low","False","False",308,5650,NA
"A3DS5B06ZCD3E3","Tue Jan 28 2020 08:01:18 GMT-0600 (Central Standard Time)","Tue Jan 28 2020 08:08:25 GMT-0600 (Central Standard Time)","Mozilla/5.0 (Windows NT 6.3; Win64; x64) AppleWebKit/537.36 (KHTML, like Gecko) Chrome/78.0.3904.108 Safari/537.36",119,"[0.9, 0.5, 0.1]","[0.8, 0.4, 0.2]","[u'red', u'blue', u'black']","[u'left', u'middle', u'right']","[0.8, 0.4, 0.2]","[u'medium', u'low', u'high']","black",51,"right","high","False","False",383,5600,NA
"A3DS5B06ZCD3E3","Tue Jan 28 2020 08:01:18 GMT-0600 (Central Standard Time)","Tue Jan 28 2020 08:08:25 GMT-0600 (Central Standard Time)","Mozilla/5.0 (Windows NT 6.3; Win64; x64) AppleWebKit/537.36 (KHTML, like Gecko) Chrome/78.0.3904.108 Safari/537.36",120,"[0.9, 0.5, 0.1]","[0.8, 0.4, 0.2]","[u'red', u'blue', u'black']","[u'left', u'middle', u'right']","[0.8, 0.4, 0.2]","[u'medium', u'low', u'high']","red",49,"left","medium","True","False",386,5700,NA
"A3DS5B06ZCD3E3","Tue Jan 28 2020 08:01:18 GMT-0600 (Central Standard Time)","Tue Jan 28 2020 08:08:25 GMT-0600 (Central Standard Time)","Mozilla/5.0 (Windows NT 6.3; Win64; x64) AppleWebKit/537.36 (KHTML, like Gecko) Chrome/78.0.3904.108 Safari/537.36",121,"[0.9, 0.5, 0.1]","[0.8, 0.4, 0.2]","[u'red', u'blue', u'black']","[u'left', u'middle', u'right']","[0.8, 0.4, 0.2]","[u'medium', u'high', u'low']","red",49,"left","medium","False","False",1286,5650,NA
"A3DS5B06ZCD3E3","Tue Jan 28 2020 08:01:18 GMT-0600 (Central Standard Time)","Tue Jan 28 2020 08:08:25 GMT-0600 (Central Standard Time)","Mozilla/5.0 (Windows NT 6.3; Win64; x64) AppleWebKit/537.36 (KHTML, like Gecko) Chrome/78.0.3904.108 Safari/537.36",122,"[0.9, 0.5, 0.1]","[0.8, 0.4, 0.2]","[u'red', u'blue', u'black']","[u'left', u'middle', u'right']","[0.8, 0.4, 0.2]","[u'medium', u'high', u'low']","red",49,"left","medium","False","False",681,5600,NA
"A3DS5B06ZCD3E3","Tue Jan 28 2020 08:01:18 GMT-0600 (Central Standard Time)","Tue Jan 28 2020 08:08:25 GMT-0600 (Central Standard Time)","Mozilla/5.0 (Windows NT 6.3; Win64; x64) AppleWebKit/537.36 (KHTML, like Gecko) Chrome/78.0.3904.108 Safari/537.36",123,"[0.9, 0.5, 0.1]","[0.8, 0.4, 0.2]","[u'red', u'blue', u'black']","[u'left', u'middle', u'right']","[0.8, 0.4, 0.2]","[u'medium', u'high', u'low']","blue",50,"middle","high","True","False",274,5700,NA
"A3DS5B06ZCD3E3","Tue Jan 28 2020 08:01:18 GMT-0600 (Central Standard Time)","Tue Jan 28 2020 08:08:25 GMT-0600 (Central Standard Time)","Mozilla/5.0 (Windows NT 6.3; Win64; x64) AppleWebKit/537.36 (KHTML, like Gecko) Chrome/78.0.3904.108 Safari/537.36",124,"[0.9, 0.5, 0.1]","[0.8, 0.4, 0.2]","[u'red', u'blue', u'black']","[u'left', u'middle', u'right']","[0.8, 0.4, 0.2]","[u'medium', u'high', u'low']","blue",50,"middle","high","True","False",409,5800,NA
"A3DS5B06ZCD3E3","Tue Jan 28 2020 08:01:18 GMT-0600 (Central Standard Time)","Tue Jan 28 2020 08:08:25 GMT-0600 (Central Standard Time)","Mozilla/5.0 (Windows NT 6.3; Win64; x64) AppleWebKit/537.36 (KHTML, like Gecko) Chrome/78.0.3904.108 Safari/537.36",125,"[0.9, 0.5, 0.1]","[0.8, 0.4, 0.2]","[u'red', u'blue', u'black']","[u'left', u'middle', u'right']","[0.8, 0.4, 0.2]","[u'medium', u'high', u'low']","blue",50,"middle","high","False","False",471,5750,NA
"A3DS5B06ZCD3E3","Tue Jan 28 2020 08:01:18 GMT-0600 (Central Standard Time)","Tue Jan 28 2020 08:08:25 GMT-0600 (Central Standard Time)","Mozilla/5.0 (Windows NT 6.3; Win64; x64) AppleWebKit/537.36 (KHTML, like Gecko) Chrome/78.0.3904.108 Safari/537.36",126,"[0.9, 0.5, 0.1]","[0.8, 0.4, 0.2]","[u'red', u'blue', u'black']","[u'left', u'middle', u'right']","[0.8, 0.4, 0.2]","[u'medium', u'high', u'low']","blue",50,"middle","high","True","False",294,5850,NA
"A3DS5B06ZCD3E3","Tue Jan 28 2020 08:01:18 GMT-0600 (Central Standard Time)","Tue Jan 28 2020 08:08:25 GMT-0600 (Central Standard Time)","Mozilla/5.0 (Windows NT 6.3; Win64; x64) AppleWebKit/537.36 (KHTML, like Gecko) Chrome/78.0.3904.108 Safari/537.36",127,"[0.9, 0.5, 0.1]","[0.8, 0.4, 0.2]","[u'red', u'blue', u'black']","[u'left', u'middle', u'right']","[0.8, 0.4, 0.2]","[u'medium', u'high', u'low']","blue",50,"middle","high","True","False",433,5950,NA
"A3DS5B06ZCD3E3","Tue Jan 28 2020 08:01:18 GMT-0600 (Central Standard Time)","Tue Jan 28 2020 08:08:25 GMT-0600 (Central Standard Time)","Mozilla/5.0 (Windows NT 6.3; Win64; x64) AppleWebKit/537.36 (KHTML, like Gecko) Chrome/78.0.3904.108 Safari/537.36",128,"[0.9, 0.5, 0.1]","[0.8, 0.4, 0.2]","[u'red', u'blue', u'black']","[u'left', u'middle', u'right']","[0.8, 0.4, 0.2]","[u'medium', u'high', u'low']","blue",50,"middle","high","True","False",352,6050,NA
"A3DS5B06ZCD3E3","Tue Jan 28 2020 08:01:18 GMT-0600 (Central Standard Time)","Tue Jan 28 2020 08:08:25 GMT-0600 (Central Standard Time)","Mozilla/5.0 (Windows NT 6.3; Win64; x64) AppleWebKit/537.36 (KHTML, like Gecko) Chrome/78.0.3904.108 Safari/537.36",129,"[0.9, 0.5, 0.1]","[0.8, 0.4, 0.2]","[u'red', u'blue', u'black']","[u'left', u'middle', u'right']","[0.8, 0.4, 0.2]","[u'medium', u'high', u'low']","blue",50,"middle","high","False","False",332,6000,NA
"A3DS5B06ZCD3E3","Tue Jan 28 2020 08:01:18 GMT-0600 (Central Standard Time)","Tue Jan 28 2020 08:08:25 GMT-0600 (Central Standard Time)","Mozilla/5.0 (Windows NT 6.3; Win64; x64) AppleWebKit/537.36 (KHTML, like Gecko) Chrome/78.0.3904.108 Safari/537.36",130,"[0.9, 0.5, 0.1]","[0.8, 0.4, 0.2]","[u'red', u'blue', u'black']","[u'left', u'middle', u'right']","[0.8, 0.4, 0.2]","[u'medium', u'high', u'low']","blue",50,"middle","high","True","False",377,6100,NA
"A3DS5B06ZCD3E3","Tue Jan 28 2020 08:01:18 GMT-0600 (Central Standard Time)","Tue Jan 28 2020 08:08:25 GMT-0600 (Central Standard Time)","Mozilla/5.0 (Windows NT 6.3; Win64; x64) AppleWebKit/537.36 (KHTML, like Gecko) Chrome/78.0.3904.108 Safari/537.36",131,"[0.9, 0.5, 0.1]","[0.8, 0.4, 0.2]","[u'red', u'blue', u'black']","[u'left', u'middle', u'right']","[0.8, 0.4, 0.2]","[u'medium', u'high', u'low']","blue",50,"middle","high","True","True",390,6200,NA
"A3DS5B06ZCD3E3","Tue Jan 28 2020 08:01:18 GMT-0600 (Central Standard Time)","Tue Jan 28 2020 08:08:25 GMT-0600 (Central Standard Time)","Mozilla/5.0 (Windows NT 6.3; Win64; x64) AppleWebKit/537.36 (KHTML, like Gecko) Chrome/78.0.3904.108 Safari/537.36",132,"[0.9, 0.5, 0.1]","[0.8, 0.4, 0.2]","[u'red', u'blue', u'black']","[u'left', u'middle', u'right']","[0.8, 0.4, 0.2]","[u'high', u'medium', u'low']","blue",50,"middle","medium","False","False",20,6150,NA
"A3DS5B06ZCD3E3","Tue Jan 28 2020 08:01:18 GMT-0600 (Central Standard Time)","Tue Jan 28 2020 08:08:25 GMT-0600 (Central Standard Time)","Mozilla/5.0 (Windows NT 6.3; Win64; x64) AppleWebKit/537.36 (KHTML, like Gecko) Chrome/78.0.3904.108 Safari/537.36",133,"[0.9, 0.5, 0.1]","[0.8, 0.4, 0.2]","[u'red', u'blue', u'black']","[u'left', u'middle', u'right']","[0.8, 0.4, 0.2]","[u'high', u'medium', u'low']","blue",50,"middle","medium","True","False",425,6250,NA
"A3DS5B06ZCD3E3","Tue Jan 28 2020 08:01:18 GMT-0600 (Central Standard Time)","Tue Jan 28 2020 08:08:25 GMT-0600 (Central Standard Time)","Mozilla/5.0 (Windows NT 6.3; Win64; x64) AppleWebKit/537.36 (KHTML, like Gecko) Chrome/78.0.3904.108 Safari/537.36",134,"[0.9, 0.5, 0.1]","[0.8, 0.4, 0.2]","[u'red', u'blue', u'black']","[u'left', u'middle', u'right']","[0.8, 0.4, 0.2]","[u'high', u'medium', u'low']","blue",50,"middle","medium","True","False",424,6350,NA
"A3DS5B06ZCD3E3","Tue Jan 28 2020 08:01:18 GMT-0600 (Central Standard Time)","Tue Jan 28 2020 08:08:25 GMT-0600 (Central Standard Time)","Mozilla/5.0 (Windows NT 6.3; Win64; x64) AppleWebKit/537.36 (KHTML, like Gecko) Chrome/78.0.3904.108 Safari/537.36",135,"[0.9, 0.5, 0.1]","[0.8, 0.4, 0.2]","[u'red', u'blue', u'black']","[u'left', u'middle', u'right']","[0.8, 0.4, 0.2]","[u'high', u'medium', u'low']","blue",50,"middle","medium","True","False",406,6450,NA
"A3DS5B06ZCD3E3","Tue Jan 28 2020 08:01:18 GMT-0600 (Central Standard Time)","Tue Jan 28 2020 08:08:25 GMT-0600 (Central Standard Time)","Mozilla/5.0 (Windows NT 6.3; Win64; x64) AppleWebKit/537.36 (KHTML, like Gecko) Chrome/78.0.3904.108 Safari/537.36",136,"[0.9, 0.5, 0.1]","[0.8, 0.4, 0.2]","[u'red', u'blue', u'black']","[u'left', u'middle', u'right']","[0.8, 0.4, 0.2]","[u'high', u'medium', u'low']","blue",50,"middle","medium","False","False",340,6400,NA
"A3DS5B06ZCD3E3","Tue Jan 28 2020 08:01:18 GMT-0600 (Central Standard Time)","Tue Jan 28 2020 08:08:25 GMT-0600 (Central Standard Time)","Mozilla/5.0 (Windows NT 6.3; Win64; x64) AppleWebKit/537.36 (KHTML, like Gecko) Chrome/78.0.3904.108 Safari/537.36",137,"[0.9, 0.5, 0.1]","[0.8, 0.4, 0.2]","[u'red', u'blue', u'black']","[u'left', u'middle', u'right']","[0.8, 0.4, 0.2]","[u'high', u'medium', u'low']","blue",50,"middle","medium","True","False",544,6500,NA
"A3DS5B06ZCD3E3","Tue Jan 28 2020 08:01:18 GMT-0600 (Central Standard Time)","Tue Jan 28 2020 08:08:25 GMT-0600 (Central Standard Time)","Mozilla/5.0 (Windows NT 6.3; Win64; x64) AppleWebKit/537.36 (KHTML, like Gecko) Chrome/78.0.3904.108 Safari/537.36",138,"[0.9, 0.5, 0.1]","[0.8, 0.4, 0.2]","[u'red', u'blue', u'black']","[u'left', u'middle', u'right']","[0.8, 0.4, 0.2]","[u'high', u'medium', u'low']","blue",50,"middle","medium","True","False",432,6600,NA
"A3DS5B06ZCD3E3","Tue Jan 28 2020 08:01:18 GMT-0600 (Central Standard Time)","Tue Jan 28 2020 08:08:25 GMT-0600 (Central Standard Time)","Mozilla/5.0 (Windows NT 6.3; Win64; x64) AppleWebKit/537.36 (KHTML, like Gecko) Chrome/78.0.3904.108 Safari/537.36",139,"[0.9, 0.5, 0.1]","[0.8, 0.4, 0.2]","[u'red', u'blue', u'black']","[u'left', u'middle', u'right']","[0.8, 0.4, 0.2]","[u'high', u'medium', u'low']","blue",50,"middle","medium","False","False",399,6550,NA
"A3DS5B06ZCD3E3","Tue Jan 28 2020 08:01:18 GMT-0600 (Central Standard Time)","Tue Jan 28 2020 08:08:25 GMT-0600 (Central Standard Time)","Mozilla/5.0 (Windows NT 6.3; Win64; x64) AppleWebKit/537.36 (KHTML, like Gecko) Chrome/78.0.3904.108 Safari/537.36",140,"[0.9, 0.5, 0.1]","[0.8, 0.4, 0.2]","[u'red', u'blue', u'black']","[u'left', u'middle', u'right']","[0.8, 0.4, 0.2]","[u'high', u'medium', u'low']","blue",50,"middle","medium","True","False",371,6650,NA
"A3DS5B06ZCD3E3","Tue Jan 28 2020 08:01:18 GMT-0600 (Central Standard Time)","Tue Jan 28 2020 08:08:25 GMT-0600 (Central Standard Time)","Mozilla/5.0 (Windows NT 6.3; Win64; x64) AppleWebKit/537.36 (KHTML, like Gecko) Chrome/78.0.3904.108 Safari/537.36",141,"[0.9, 0.5, 0.1]","[0.8, 0.4, 0.2]","[u'red', u'blue', u'black']","[u'left', u'middle', u'right']","[0.8, 0.4, 0.2]","[u'high', u'medium', u'low']","blue",50,"middle","medium","False","False",458,6600,NA
"A3DS5B06ZCD3E3","Tue Jan 28 2020 08:01:18 GMT-0600 (Central Standard Time)","Tue Jan 28 2020 08:08:25 GMT-0600 (Central Standard Time)","Mozilla/5.0 (Windows NT 6.3; Win64; x64) AppleWebKit/537.36 (KHTML, like Gecko) Chrome/78.0.3904.108 Safari/537.36",142,"[0.9, 0.5, 0.1]","[0.8, 0.4, 0.2]","[u'red', u'blue', u'black']","[u'left', u'middle', u'right']","[0.8, 0.4, 0.2]","[u'high', u'medium', u'low']","blue",50,"middle","medium","True","False",409,6700,NA
"A3DS5B06ZCD3E3","Tue Jan 28 2020 08:01:18 GMT-0600 (Central Standard Time)","Tue Jan 28 2020 08:08:25 GMT-0600 (Central Standard Time)","Mozilla/5.0 (Windows NT 6.3; Win64; x64) AppleWebKit/537.36 (KHTML, like Gecko) Chrome/78.0.3904.108 Safari/537.36",143,"[0.9, 0.5, 0.1]","[0.8, 0.4, 0.2]","[u'red', u'blue', u'black']","[u'left', u'middle', u'right']","[0.8, 0.4, 0.2]","[u'high', u'medium', u'low']","blue",50,"middle","medium","False","False",375,6650,NA
"A3DS5B06ZCD3E3","Tue Jan 28 2020 08:01:18 GMT-0600 (Central Standard Time)","Tue Jan 28 2020 08:08:25 GMT-0600 (Central Standard Time)","Mozilla/5.0 (Windows NT 6.3; Win64; x64) AppleWebKit/537.36 (KHTML, like Gecko) Chrome/78.0.3904.108 Safari/537.36",144,"[0.9, 0.5, 0.1]","[0.8, 0.4, 0.2]","[u'red', u'blue', u'black']","[u'left', u'middle', u'right']","[0.8, 0.4, 0.2]","[u'high', u'medium', u'low']","blue",50,"middle","medium","True","False",325,6750,NA
"A3DS5B06ZCD3E3","Tue Jan 28 2020 08:01:18 GMT-0600 (Central Standard Time)","Tue Jan 28 2020 08:08:25 GMT-0600 (Central Standard Time)","Mozilla/5.0 (Windows NT 6.3; Win64; x64) AppleWebKit/537.36 (KHTML, like Gecko) Chrome/78.0.3904.108 Safari/537.36",145,"[0.9, 0.5, 0.1]","[0.8, 0.4, 0.2]","[u'red', u'blue', u'black']","[u'left', u'middle', u'right']","[0.8, 0.4, 0.2]","[u'high', u'medium', u'low']","blue",50,"middle","medium","True","False",352,6850,NA
"A3DS5B06ZCD3E3","Tue Jan 28 2020 08:01:18 GMT-0600 (Central Standard Time)","Tue Jan 28 2020 08:08:25 GMT-0600 (Central Standard Time)","Mozilla/5.0 (Windows NT 6.3; Win64; x64) AppleWebKit/537.36 (KHTML, like Gecko) Chrome/78.0.3904.108 Safari/537.36",146,"[0.9, 0.5, 0.1]","[0.8, 0.4, 0.2]","[u'red', u'blue', u'black']","[u'left', u'middle', u'right']","[0.8, 0.4, 0.2]","[u'high', u'medium', u'low']","blue",50,"middle","medium","False","False",397,6800,NA
"A3DS5B06ZCD3E3","Tue Jan 28 2020 08:01:18 GMT-0600 (Central Standard Time)","Tue Jan 28 2020 08:08:25 GMT-0600 (Central Standard Time)","Mozilla/5.0 (Windows NT 6.3; Win64; x64) AppleWebKit/537.36 (KHTML, like Gecko) Chrome/78.0.3904.108 Safari/537.36",147,"[0.9, 0.5, 0.1]","[0.8, 0.4, 0.2]","[u'red', u'blue', u'black']","[u'left', u'middle', u'right']","[0.8, 0.4, 0.2]","[u'high', u'medium', u'low']","blue",50,"middle","medium","False","False",507,6750,NA
"A3DS5B06ZCD3E3","Tue Jan 28 2020 08:01:18 GMT-0600 (Central Standard Time)","Tue Jan 28 2020 08:08:25 GMT-0600 (Central Standard Time)","Mozilla/5.0 (Windows NT 6.3; Win64; x64) AppleWebKit/537.36 (KHTML, like Gecko) Chrome/78.0.3904.108 Safari/537.36",148,"[0.9, 0.5, 0.1]","[0.8, 0.4, 0.2]","[u'red', u'blue', u'black']","[u'left', u'middle', u'right']","[0.8, 0.4, 0.2]","[u'high', u'medium', u'low']","red",49,"left","high","True","False",299,6850,NA
"A3DS5B06ZCD3E3","Tue Jan 28 2020 08:01:18 GMT-0600 (Central Standard Time)","Tue Jan 28 2020 08:08:25 GMT-0600 (Central Standard Time)","Mozilla/5.0 (Windows NT 6.3; Win64; x64) AppleWebKit/537.36 (KHTML, like Gecko) Chrome/78.0.3904.108 Safari/537.36",149,"[0.9, 0.5, 0.1]","[0.8, 0.4, 0.2]","[u'red', u'blue', u'black']","[u'left', u'middle', u'right']","[0.8, 0.4, 0.2]","[u'high', u'medium', u'low']","red",49,"left","high","True","False",391,6950,NA
"A3DS5B06ZCD3E3","Tue Jan 28 2020 08:01:18 GMT-0600 (Central Standard Time)","Tue Jan 28 2020 08:08:25 GMT-0600 (Central Standard Time)","Mozilla/5.0 (Windows NT 6.3; Win64; x64) AppleWebKit/537.36 (KHTML, like Gecko) Chrome/78.0.3904.108 Safari/537.36",150,"[0.9, 0.5, 0.1]","[0.8, 0.4, 0.2]","[u'red', u'blue', u'black']","[u'left', u'middle', u'right']","[0.8, 0.4, 0.2]","[u'high', u'medium', u'low']","red",49,"left","high","True","False",495,7050,NA
"A3DS5B06ZCD3E3","Tue Jan 28 2020 08:01:18 GMT-0600 (Central Standard Time)","Tue Jan 28 2020 08:08:25 GMT-0600 (Central Standard Time)","Mozilla/5.0 (Windows NT 6.3; Win64; x64) AppleWebKit/537.36 (KHTML, like Gecko) Chrome/78.0.3904.108 Safari/537.36",151,"[0.9, 0.5, 0.1]","[0.8, 0.4, 0.2]","[u'red', u'blue', u'black']","[u'left', u'middle', u'right']","[0.8, 0.4, 0.2]","[u'high', u'medium', u'low']","red",49,"left","high","True","False",434,7150,NA
"A3DS5B06ZCD3E3","Tue Jan 28 2020 08:01:18 GMT-0600 (Central Standard Time)","Tue Jan 28 2020 08:08:25 GMT-0600 (Central Standard Time)","Mozilla/5.0 (Windows NT 6.3; Win64; x64) AppleWebKit/537.36 (KHTML, like Gecko) Chrome/78.0.3904.108 Safari/537.36",152,"[0.9, 0.5, 0.1]","[0.8, 0.4, 0.2]","[u'red', u'blue', u'black']","[u'left', u'middle', u'right']","[0.8, 0.4, 0.2]","[u'high', u'medium', u'low']","red",49,"left","high","True","False",387,7250,NA
"A3DS5B06ZCD3E3","Tue Jan 28 2020 08:01:18 GMT-0600 (Central Standard Time)","Tue Jan 28 2020 08:08:25 GMT-0600 (Central Standard Time)","Mozilla/5.0 (Windows NT 6.3; Win64; x64) AppleWebKit/537.36 (KHTML, like Gecko) Chrome/78.0.3904.108 Safari/537.36",153,"[0.9, 0.5, 0.1]","[0.8, 0.4, 0.2]","[u'red', u'blue', u'black']","[u'left', u'middle', u'right']","[0.8, 0.4, 0.2]","[u'high', u'medium', u'low']","red",49,"left","high","True","False",400,7350,NA
"A3DS5B06ZCD3E3","Tue Jan 28 2020 08:01:18 GMT-0600 (Central Standard Time)","Tue Jan 28 2020 08:08:25 GMT-0600 (Central Standard Time)","Mozilla/5.0 (Windows NT 6.3; Win64; x64) AppleWebKit/537.36 (KHTML, like Gecko) Chrome/78.0.3904.108 Safari/537.36",154,"[0.9, 0.5, 0.1]","[0.8, 0.4, 0.2]","[u'red', u'blue', u'black']","[u'left', u'middle', u'right']","[0.8, 0.4, 0.2]","[u'high', u'medium', u'low']","red",49,"left","high","True","False",366,7450,NA
"A3DS5B06ZCD3E3","Tue Jan 28 2020 08:01:18 GMT-0600 (Central Standard Time)","Tue Jan 28 2020 08:08:25 GMT-0600 (Central Standard Time)","Mozilla/5.0 (Windows NT 6.3; Win64; x64) AppleWebKit/537.36 (KHTML, like Gecko) Chrome/78.0.3904.108 Safari/537.36",155,"[0.9, 0.5, 0.1]","[0.8, 0.4, 0.2]","[u'red', u'blue', u'black']","[u'left', u'middle', u'right']","[0.8, 0.4, 0.2]","[u'high', u'medium', u'low']","red",49,"left","high","False","False",363,7400,NA
"A3DS5B06ZCD3E3","Tue Jan 28 2020 08:01:18 GMT-0600 (Central Standard Time)","Tue Jan 28 2020 08:08:25 GMT-0600 (Central Standard Time)","Mozilla/5.0 (Windows NT 6.3; Win64; x64) AppleWebKit/537.36 (KHTML, like Gecko) Chrome/78.0.3904.108 Safari/537.36",156,"[0.9, 0.5, 0.1]","[0.8, 0.4, 0.2]","[u'red', u'blue', u'black']","[u'left', u'middle', u'right']","[0.8, 0.4, 0.2]","[u'high', u'medium', u'low']","red",49,"left","high","True","True",375,7500,NA
"A3DS5B06ZCD3E3","Tue Jan 28 2020 08:01:18 GMT-0600 (Central Standard Time)","Tue Jan 28 2020 08:08:25 GMT-0600 (Central Standard Time)","Mozilla/5.0 (Windows NT 6.3; Win64; x64) AppleWebKit/537.36 (KHTML, like Gecko) Chrome/78.0.3904.108 Safari/537.36",157,"[0.9, 0.5, 0.1]","[0.8, 0.4, 0.2]","[u'red', u'blue', u'black']","[u'left', u'middle', u'right']","[0.8, 0.4, 0.2]","[u'medium', u'high', u'low']","red",49,"left","medium","False","False",422,7450,NA
"A3DS5B06ZCD3E3","Tue Jan 28 2020 08:01:18 GMT-0600 (Central Standard Time)","Tue Jan 28 2020 08:08:25 GMT-0600 (Central Standard Time)","Mozilla/5.0 (Windows NT 6.3; Win64; x64) AppleWebKit/537.36 (KHTML, like Gecko) Chrome/78.0.3904.108 Safari/537.36",158,"[0.9, 0.5, 0.1]","[0.8, 0.4, 0.2]","[u'red', u'blue', u'black']","[u'left', u'middle', u'right']","[0.8, 0.4, 0.2]","[u'medium', u'high', u'low']","blue",50,"middle","high","False","False",324,7400,NA
"A3DS5B06ZCD3E3","Tue Jan 28 2020 08:01:18 GMT-0600 (Central Standard Time)","Tue Jan 28 2020 08:08:25 GMT-0600 (Central Standard Time)","Mozilla/5.0 (Windows NT 6.3; Win64; x64) AppleWebKit/537.36 (KHTML, like Gecko) Chrome/78.0.3904.108 Safari/537.36",159,"[0.9, 0.5, 0.1]","[0.8, 0.4, 0.2]","[u'red', u'blue', u'black']","[u'left', u'middle', u'right']","[0.8, 0.4, 0.2]","[u'medium', u'high', u'low']","blue",50,"middle","high","True","False",319,7500,NA
"A3DS5B06ZCD3E3","Tue Jan 28 2020 08:01:18 GMT-0600 (Central Standard Time)","Tue Jan 28 2020 08:08:25 GMT-0600 (Central Standard Time)","Mozilla/5.0 (Windows NT 6.3; Win64; x64) AppleWebKit/537.36 (KHTML, like Gecko) Chrome/78.0.3904.108 Safari/537.36",160,"[0.9, 0.5, 0.1]","[0.8, 0.4, 0.2]","[u'red', u'blue', u'black']","[u'left', u'middle', u'right']","[0.8, 0.4, 0.2]","[u'medium', u'high', u'low']","blue",50,"middle","high","True","False",363,7600,NA
