"src_subject_id","start_time","end_time","browser","index","first_half_probabilities","second_half_probabilities","deck_color","deck_position","deck_probabilities","deck_contingencies","response_color","key_press","response_position","response_probability","reward_type","trial_type","rt","reward_tally","exclusion_reason"
"A39KUEDR8ZS1CF","Fri Sep 18 2020 08:19:01 GMT-0700 (Pacific Daylight Time)","Fri Sep 18 2020 08:26:55 GMT-0700 (Pacific Daylight Time)","Mozilla/5.0 (Windows NT 10.0; Win64; x64) AppleWebKit/537.36 (KHTML, like Gecko) Chrome/83.0.4103.97 Safari/537.36",1,"[0.9, 0.5, 0.1]","[0.8, 0.4, 0.2]","[u'black', u'red', u'blue']","[u'left', u'middle', u'right']","[0.9, 0.5, 0.1]","[u'high', u'medium', u'low']","red",50,"middle","medium","False","False",708,-50,NA
"A39KUEDR8ZS1CF","Fri Sep 18 2020 08:19:01 GMT-0700 (Pacific Daylight Time)","Fri Sep 18 2020 08:26:55 GMT-0700 (Pacific Daylight Time)","Mozilla/5.0 (Windows NT 10.0; Win64; x64) AppleWebKit/537.36 (KHTML, like Gecko) Chrome/83.0.4103.97 Safari/537.36",2,"[0.9, 0.5, 0.1]","[0.8, 0.4, 0.2]","[u'black', u'red', u'blue']","[u'left', u'middle', u'right']","[0.9, 0.5, 0.1]","[u'high', u'medium', u'low']","black",49,"left","high","True","False",384,50,NA
"A39KUEDR8ZS1CF","Fri Sep 18 2020 08:19:01 GMT-0700 (Pacific Daylight Time)","Fri Sep 18 2020 08:26:55 GMT-0700 (Pacific Daylight Time)","Mozilla/5.0 (Windows NT 10.0; Win64; x64) AppleWebKit/537.36 (KHTML, like Gecko) Chrome/83.0.4103.97 Safari/537.36",3,"[0.9, 0.5, 0.1]","[0.8, 0.4, 0.2]","[u'black', u'red', u'blue']","[u'left', u'middle', u'right']","[0.9, 0.5, 0.1]","[u'high', u'medium', u'low']","black",49,"left","high","True","False",272,150,NA
"A39KUEDR8ZS1CF","Fri Sep 18 2020 08:19:01 GMT-0700 (Pacific Daylight Time)","Fri Sep 18 2020 08:26:55 GMT-0700 (Pacific Daylight Time)","Mozilla/5.0 (Windows NT 10.0; Win64; x64) AppleWebKit/537.36 (KHTML, like Gecko) Chrome/83.0.4103.97 Safari/537.36",4,"[0.9, 0.5, 0.1]","[0.8, 0.4, 0.2]","[u'black', u'red', u'blue']","[u'left', u'middle', u'right']","[0.9, 0.5, 0.1]","[u'high', u'medium', u'low']","black",49,"left","high","True","False",301,250,NA
"A39KUEDR8ZS1CF","Fri Sep 18 2020 08:19:01 GMT-0700 (Pacific Daylight Time)","Fri Sep 18 2020 08:26:55 GMT-0700 (Pacific Daylight Time)","Mozilla/5.0 (Windows NT 10.0; Win64; x64) AppleWebKit/537.36 (KHTML, like Gecko) Chrome/83.0.4103.97 Safari/537.36",5,"[0.9, 0.5, 0.1]","[0.8, 0.4, 0.2]","[u'black', u'red', u'blue']","[u'left', u'middle', u'right']","[0.9, 0.5, 0.1]","[u'high', u'medium', u'low']","black",49,"left","high","True","False",459,350,NA
"A39KUEDR8ZS1CF","Fri Sep 18 2020 08:19:01 GMT-0700 (Pacific Daylight Time)","Fri Sep 18 2020 08:26:55 GMT-0700 (Pacific Daylight Time)","Mozilla/5.0 (Windows NT 10.0; Win64; x64) AppleWebKit/537.36 (KHTML, like Gecko) Chrome/83.0.4103.97 Safari/537.36",6,"[0.9, 0.5, 0.1]","[0.8, 0.4, 0.2]","[u'black', u'red', u'blue']","[u'left', u'middle', u'right']","[0.9, 0.5, 0.1]","[u'high', u'medium', u'low']","black",49,"left","high","True","False",471,450,NA
"A39KUEDR8ZS1CF","Fri Sep 18 2020 08:19:01 GMT-0700 (Pacific Daylight Time)","Fri Sep 18 2020 08:26:55 GMT-0700 (Pacific Daylight Time)","Mozilla/5.0 (Windows NT 10.0; Win64; x64) AppleWebKit/537.36 (KHTML, like Gecko) Chrome/83.0.4103.97 Safari/537.36",7,"[0.9, 0.5, 0.1]","[0.8, 0.4, 0.2]","[u'black', u'red', u'blue']","[u'left', u'middle', u'right']","[0.9, 0.5, 0.1]","[u'high', u'medium', u'low']","black",49,"left","high","True","False",437,550,NA
"A39KUEDR8ZS1CF","Fri Sep 18 2020 08:19:01 GMT-0700 (Pacific Daylight Time)","Fri Sep 18 2020 08:26:55 GMT-0700 (Pacific Daylight Time)","Mozilla/5.0 (Windows NT 10.0; Win64; x64) AppleWebKit/537.36 (KHTML, like Gecko) Chrome/83.0.4103.97 Safari/537.36",8,"[0.9, 0.5, 0.1]","[0.8, 0.4, 0.2]","[u'black', u'red', u'blue']","[u'left', u'middle', u'right']","[0.9, 0.5, 0.1]","[u'high', u'medium', u'low']","black",49,"left","high","True","False",327,650,NA
"A39KUEDR8ZS1CF","Fri Sep 18 2020 08:19:01 GMT-0700 (Pacific Daylight Time)","Fri Sep 18 2020 08:26:55 GMT-0700 (Pacific Daylight Time)","Mozilla/5.0 (Windows NT 10.0; Win64; x64) AppleWebKit/537.36 (KHTML, like Gecko) Chrome/83.0.4103.97 Safari/537.36",9,"[0.9, 0.5, 0.1]","[0.8, 0.4, 0.2]","[u'black', u'red', u'blue']","[u'left', u'middle', u'right']","[0.9, 0.5, 0.1]","[u'high', u'medium', u'low']","black",49,"left","high","True","False",467,750,NA
"A39KUEDR8ZS1CF","Fri Sep 18 2020 08:19:01 GMT-0700 (Pacific Daylight Time)","Fri Sep 18 2020 08:26:55 GMT-0700 (Pacific Daylight Time)","Mozilla/5.0 (Windows NT 10.0; Win64; x64) AppleWebKit/537.36 (KHTML, like Gecko) Chrome/83.0.4103.97 Safari/537.36",10,"[0.9, 0.5, 0.1]","[0.8, 0.4, 0.2]","[u'black', u'red', u'blue']","[u'left', u'middle', u'right']","[0.9, 0.5, 0.1]","[u'high', u'medium', u'low']","black",49,"left","high","True","True",302,850,NA
"A39KUEDR8ZS1CF","Fri Sep 18 2020 08:19:01 GMT-0700 (Pacific Daylight Time)","Fri Sep 18 2020 08:26:55 GMT-0700 (Pacific Daylight Time)","Mozilla/5.0 (Windows NT 10.0; Win64; x64) AppleWebKit/537.36 (KHTML, like Gecko) Chrome/83.0.4103.97 Safari/537.36",11,"[0.9, 0.5, 0.1]","[0.8, 0.4, 0.2]","[u'black', u'red', u'blue']","[u'left', u'middle', u'right']","[0.9, 0.5, 0.1]","[u'low', u'medium', u'high']","black",49,"left","low","False","False",286,800,NA
"A39KUEDR8ZS1CF","Fri Sep 18 2020 08:19:01 GMT-0700 (Pacific Daylight Time)","Fri Sep 18 2020 08:26:55 GMT-0700 (Pacific Daylight Time)","Mozilla/5.0 (Windows NT 10.0; Win64; x64) AppleWebKit/537.36 (KHTML, like Gecko) Chrome/83.0.4103.97 Safari/537.36",12,"[0.9, 0.5, 0.1]","[0.8, 0.4, 0.2]","[u'black', u'red', u'blue']","[u'left', u'middle', u'right']","[0.9, 0.5, 0.1]","[u'low', u'medium', u'high']","black",49,"left","low","True","False",331,900,NA
"A39KUEDR8ZS1CF","Fri Sep 18 2020 08:19:01 GMT-0700 (Pacific Daylight Time)","Fri Sep 18 2020 08:26:55 GMT-0700 (Pacific Daylight Time)","Mozilla/5.0 (Windows NT 10.0; Win64; x64) AppleWebKit/537.36 (KHTML, like Gecko) Chrome/83.0.4103.97 Safari/537.36",13,"[0.9, 0.5, 0.1]","[0.8, 0.4, 0.2]","[u'black', u'red', u'blue']","[u'left', u'middle', u'right']","[0.9, 0.5, 0.1]","[u'low', u'medium', u'high']","black",49,"left","low","False","False",254,850,NA
"A39KUEDR8ZS1CF","Fri Sep 18 2020 08:19:01 GMT-0700 (Pacific Daylight Time)","Fri Sep 18 2020 08:26:55 GMT-0700 (Pacific Daylight Time)","Mozilla/5.0 (Windows NT 10.0; Win64; x64) AppleWebKit/537.36 (KHTML, like Gecko) Chrome/83.0.4103.97 Safari/537.36",14,"[0.9, 0.5, 0.1]","[0.8, 0.4, 0.2]","[u'black', u'red', u'blue']","[u'left', u'middle', u'right']","[0.9, 0.5, 0.1]","[u'low', u'medium', u'high']","blue",51,"right","high","True","False",27,950,NA
"A39KUEDR8ZS1CF","Fri Sep 18 2020 08:19:01 GMT-0700 (Pacific Daylight Time)","Fri Sep 18 2020 08:26:55 GMT-0700 (Pacific Daylight Time)","Mozilla/5.0 (Windows NT 10.0; Win64; x64) AppleWebKit/537.36 (KHTML, like Gecko) Chrome/83.0.4103.97 Safari/537.36",15,"[0.9, 0.5, 0.1]","[0.8, 0.4, 0.2]","[u'black', u'red', u'blue']","[u'left', u'middle', u'right']","[0.9, 0.5, 0.1]","[u'low', u'medium', u'high']","blue",51,"right","high","True","False",215,1050,NA
"A39KUEDR8ZS1CF","Fri Sep 18 2020 08:19:01 GMT-0700 (Pacific Daylight Time)","Fri Sep 18 2020 08:26:55 GMT-0700 (Pacific Daylight Time)","Mozilla/5.0 (Windows NT 10.0; Win64; x64) AppleWebKit/537.36 (KHTML, like Gecko) Chrome/83.0.4103.97 Safari/537.36",16,"[0.9, 0.5, 0.1]","[0.8, 0.4, 0.2]","[u'black', u'red', u'blue']","[u'left', u'middle', u'right']","[0.9, 0.5, 0.1]","[u'low', u'medium', u'high']","blue",51,"right","high","True","False",235,1150,NA
"A39KUEDR8ZS1CF","Fri Sep 18 2020 08:19:01 GMT-0700 (Pacific Daylight Time)","Fri Sep 18 2020 08:26:55 GMT-0700 (Pacific Daylight Time)","Mozilla/5.0 (Windows NT 10.0; Win64; x64) AppleWebKit/537.36 (KHTML, like Gecko) Chrome/83.0.4103.97 Safari/537.36",17,"[0.9, 0.5, 0.1]","[0.8, 0.4, 0.2]","[u'black', u'red', u'blue']","[u'left', u'middle', u'right']","[0.9, 0.5, 0.1]","[u'low', u'medium', u'high']","blue",51,"right","high","True","False",156,1250,NA
"A39KUEDR8ZS1CF","Fri Sep 18 2020 08:19:01 GMT-0700 (Pacific Daylight Time)","Fri Sep 18 2020 08:26:55 GMT-0700 (Pacific Daylight Time)","Mozilla/5.0 (Windows NT 10.0; Win64; x64) AppleWebKit/537.36 (KHTML, like Gecko) Chrome/83.0.4103.97 Safari/537.36",18,"[0.9, 0.5, 0.1]","[0.8, 0.4, 0.2]","[u'black', u'red', u'blue']","[u'left', u'middle', u'right']","[0.9, 0.5, 0.1]","[u'low', u'medium', u'high']","blue",51,"right","high","True","False",121,1350,NA
"A39KUEDR8ZS1CF","Fri Sep 18 2020 08:19:01 GMT-0700 (Pacific Daylight Time)","Fri Sep 18 2020 08:26:55 GMT-0700 (Pacific Daylight Time)","Mozilla/5.0 (Windows NT 10.0; Win64; x64) AppleWebKit/537.36 (KHTML, like Gecko) Chrome/83.0.4103.97 Safari/537.36",19,"[0.9, 0.5, 0.1]","[0.8, 0.4, 0.2]","[u'black', u'red', u'blue']","[u'left', u'middle', u'right']","[0.9, 0.5, 0.1]","[u'low', u'medium', u'high']","blue",51,"right","high","False","False",272,1300,NA
"A39KUEDR8ZS1CF","Fri Sep 18 2020 08:19:01 GMT-0700 (Pacific Daylight Time)","Fri Sep 18 2020 08:26:55 GMT-0700 (Pacific Daylight Time)","Mozilla/5.0 (Windows NT 10.0; Win64; x64) AppleWebKit/537.36 (KHTML, like Gecko) Chrome/83.0.4103.97 Safari/537.36",20,"[0.9, 0.5, 0.1]","[0.8, 0.4, 0.2]","[u'black', u'red', u'blue']","[u'left', u'middle', u'right']","[0.9, 0.5, 0.1]","[u'low', u'medium', u'high']","black",49,"left","low","True","False",353,1400,NA
"A39KUEDR8ZS1CF","Fri Sep 18 2020 08:19:01 GMT-0700 (Pacific Daylight Time)","Fri Sep 18 2020 08:26:55 GMT-0700 (Pacific Daylight Time)","Mozilla/5.0 (Windows NT 10.0; Win64; x64) AppleWebKit/537.36 (KHTML, like Gecko) Chrome/83.0.4103.97 Safari/537.36",21,"[0.9, 0.5, 0.1]","[0.8, 0.4, 0.2]","[u'black', u'red', u'blue']","[u'left', u'middle', u'right']","[0.9, 0.5, 0.1]","[u'low', u'medium', u'high']","black",49,"left","low","False","False",205,1350,NA
"A39KUEDR8ZS1CF","Fri Sep 18 2020 08:19:01 GMT-0700 (Pacific Daylight Time)","Fri Sep 18 2020 08:26:55 GMT-0700 (Pacific Daylight Time)","Mozilla/5.0 (Windows NT 10.0; Win64; x64) AppleWebKit/537.36 (KHTML, like Gecko) Chrome/83.0.4103.97 Safari/537.36",22,"[0.9, 0.5, 0.1]","[0.8, 0.4, 0.2]","[u'black', u'red', u'blue']","[u'left', u'middle', u'right']","[0.9, 0.5, 0.1]","[u'low', u'medium', u'high']","red",50,"middle","medium","True","False",147,1450,NA
"A39KUEDR8ZS1CF","Fri Sep 18 2020 08:19:01 GMT-0700 (Pacific Daylight Time)","Fri Sep 18 2020 08:26:55 GMT-0700 (Pacific Daylight Time)","Mozilla/5.0 (Windows NT 10.0; Win64; x64) AppleWebKit/537.36 (KHTML, like Gecko) Chrome/83.0.4103.97 Safari/537.36",23,"[0.9, 0.5, 0.1]","[0.8, 0.4, 0.2]","[u'black', u'red', u'blue']","[u'left', u'middle', u'right']","[0.9, 0.5, 0.1]","[u'low', u'medium', u'high']","red",50,"middle","medium","False","False",391,1400,NA
"A39KUEDR8ZS1CF","Fri Sep 18 2020 08:19:01 GMT-0700 (Pacific Daylight Time)","Fri Sep 18 2020 08:26:55 GMT-0700 (Pacific Daylight Time)","Mozilla/5.0 (Windows NT 10.0; Win64; x64) AppleWebKit/537.36 (KHTML, like Gecko) Chrome/83.0.4103.97 Safari/537.36",24,"[0.9, 0.5, 0.1]","[0.8, 0.4, 0.2]","[u'black', u'red', u'blue']","[u'left', u'middle', u'right']","[0.9, 0.5, 0.1]","[u'low', u'medium', u'high']","black",49,"left","low","False","False",295,1350,NA
"A39KUEDR8ZS1CF","Fri Sep 18 2020 08:19:01 GMT-0700 (Pacific Daylight Time)","Fri Sep 18 2020 08:26:55 GMT-0700 (Pacific Daylight Time)","Mozilla/5.0 (Windows NT 10.0; Win64; x64) AppleWebKit/537.36 (KHTML, like Gecko) Chrome/83.0.4103.97 Safari/537.36",25,"[0.9, 0.5, 0.1]","[0.8, 0.4, 0.2]","[u'black', u'red', u'blue']","[u'left', u'middle', u'right']","[0.9, 0.5, 0.1]","[u'low', u'medium', u'high']","black",49,"left","low","False","False",173,1300,NA
"A39KUEDR8ZS1CF","Fri Sep 18 2020 08:19:01 GMT-0700 (Pacific Daylight Time)","Fri Sep 18 2020 08:26:55 GMT-0700 (Pacific Daylight Time)","Mozilla/5.0 (Windows NT 10.0; Win64; x64) AppleWebKit/537.36 (KHTML, like Gecko) Chrome/83.0.4103.97 Safari/537.36",26,"[0.9, 0.5, 0.1]","[0.8, 0.4, 0.2]","[u'black', u'red', u'blue']","[u'left', u'middle', u'right']","[0.9, 0.5, 0.1]","[u'low', u'medium', u'high']","blue",51,"right","high","True","False",193,1400,NA
"A39KUEDR8ZS1CF","Fri Sep 18 2020 08:19:01 GMT-0700 (Pacific Daylight Time)","Fri Sep 18 2020 08:26:55 GMT-0700 (Pacific Daylight Time)","Mozilla/5.0 (Windows NT 10.0; Win64; x64) AppleWebKit/537.36 (KHTML, like Gecko) Chrome/83.0.4103.97 Safari/537.36",27,"[0.9, 0.5, 0.1]","[0.8, 0.4, 0.2]","[u'black', u'red', u'blue']","[u'left', u'middle', u'right']","[0.9, 0.5, 0.1]","[u'low', u'medium', u'high']","blue",51,"right","high","True","False",283,1500,NA
"A39KUEDR8ZS1CF","Fri Sep 18 2020 08:19:01 GMT-0700 (Pacific Daylight Time)","Fri Sep 18 2020 08:26:55 GMT-0700 (Pacific Daylight Time)","Mozilla/5.0 (Windows NT 10.0; Win64; x64) AppleWebKit/537.36 (KHTML, like Gecko) Chrome/83.0.4103.97 Safari/537.36",28,"[0.9, 0.5, 0.1]","[0.8, 0.4, 0.2]","[u'black', u'red', u'blue']","[u'left', u'middle', u'right']","[0.9, 0.5, 0.1]","[u'low', u'medium', u'high']","blue",51,"right","high","True","False",269,1600,NA
"A39KUEDR8ZS1CF","Fri Sep 18 2020 08:19:01 GMT-0700 (Pacific Daylight Time)","Fri Sep 18 2020 08:26:55 GMT-0700 (Pacific Daylight Time)","Mozilla/5.0 (Windows NT 10.0; Win64; x64) AppleWebKit/537.36 (KHTML, like Gecko) Chrome/83.0.4103.97 Safari/537.36",29,"[0.9, 0.5, 0.1]","[0.8, 0.4, 0.2]","[u'black', u'red', u'blue']","[u'left', u'middle', u'right']","[0.9, 0.5, 0.1]","[u'low', u'medium', u'high']","blue",51,"right","high","True","False",116,1700,NA
"A39KUEDR8ZS1CF","Fri Sep 18 2020 08:19:01 GMT-0700 (Pacific Daylight Time)","Fri Sep 18 2020 08:26:55 GMT-0700 (Pacific Daylight Time)","Mozilla/5.0 (Windows NT 10.0; Win64; x64) AppleWebKit/537.36 (KHTML, like Gecko) Chrome/83.0.4103.97 Safari/537.36",30,"[0.9, 0.5, 0.1]","[0.8, 0.4, 0.2]","[u'black', u'red', u'blue']","[u'left', u'middle', u'right']","[0.9, 0.5, 0.1]","[u'low', u'medium', u'high']","blue",51,"right","high","True","False",31,1800,NA
"A39KUEDR8ZS1CF","Fri Sep 18 2020 08:19:01 GMT-0700 (Pacific Daylight Time)","Fri Sep 18 2020 08:26:55 GMT-0700 (Pacific Daylight Time)","Mozilla/5.0 (Windows NT 10.0; Win64; x64) AppleWebKit/537.36 (KHTML, like Gecko) Chrome/83.0.4103.97 Safari/537.36",31,"[0.9, 0.5, 0.1]","[0.8, 0.4, 0.2]","[u'black', u'red', u'blue']","[u'left', u'middle', u'right']","[0.9, 0.5, 0.1]","[u'low', u'medium', u'high']","blue",51,"right","high","True","False",255,1900,NA
"A39KUEDR8ZS1CF","Fri Sep 18 2020 08:19:01 GMT-0700 (Pacific Daylight Time)","Fri Sep 18 2020 08:26:55 GMT-0700 (Pacific Daylight Time)","Mozilla/5.0 (Windows NT 10.0; Win64; x64) AppleWebKit/537.36 (KHTML, like Gecko) Chrome/83.0.4103.97 Safari/537.36",32,"[0.9, 0.5, 0.1]","[0.8, 0.4, 0.2]","[u'black', u'red', u'blue']","[u'left', u'middle', u'right']","[0.9, 0.5, 0.1]","[u'low', u'medium', u'high']","blue",51,"right","high","False","False",256,1850,NA
"A39KUEDR8ZS1CF","Fri Sep 18 2020 08:19:01 GMT-0700 (Pacific Daylight Time)","Fri Sep 18 2020 08:26:55 GMT-0700 (Pacific Daylight Time)","Mozilla/5.0 (Windows NT 10.0; Win64; x64) AppleWebKit/537.36 (KHTML, like Gecko) Chrome/83.0.4103.97 Safari/537.36",33,"[0.9, 0.5, 0.1]","[0.8, 0.4, 0.2]","[u'black', u'red', u'blue']","[u'left', u'middle', u'right']","[0.9, 0.5, 0.1]","[u'low', u'medium', u'high']","red",50,"middle","medium","False","False",218,1800,NA
"A39KUEDR8ZS1CF","Fri Sep 18 2020 08:19:01 GMT-0700 (Pacific Daylight Time)","Fri Sep 18 2020 08:26:55 GMT-0700 (Pacific Daylight Time)","Mozilla/5.0 (Windows NT 10.0; Win64; x64) AppleWebKit/537.36 (KHTML, like Gecko) Chrome/83.0.4103.97 Safari/537.36",34,"[0.9, 0.5, 0.1]","[0.8, 0.4, 0.2]","[u'black', u'red', u'blue']","[u'left', u'middle', u'right']","[0.9, 0.5, 0.1]","[u'low', u'medium', u'high']","black",49,"left","low","False","False",22,1750,NA
"A39KUEDR8ZS1CF","Fri Sep 18 2020 08:19:01 GMT-0700 (Pacific Daylight Time)","Fri Sep 18 2020 08:26:55 GMT-0700 (Pacific Daylight Time)","Mozilla/5.0 (Windows NT 10.0; Win64; x64) AppleWebKit/537.36 (KHTML, like Gecko) Chrome/83.0.4103.97 Safari/537.36",35,"[0.9, 0.5, 0.1]","[0.8, 0.4, 0.2]","[u'black', u'red', u'blue']","[u'left', u'middle', u'right']","[0.9, 0.5, 0.1]","[u'low', u'medium', u'high']","blue",51,"right","high","True","False",342,1850,NA
"A39KUEDR8ZS1CF","Fri Sep 18 2020 08:19:01 GMT-0700 (Pacific Daylight Time)","Fri Sep 18 2020 08:26:55 GMT-0700 (Pacific Daylight Time)","Mozilla/5.0 (Windows NT 10.0; Win64; x64) AppleWebKit/537.36 (KHTML, like Gecko) Chrome/83.0.4103.97 Safari/537.36",36,"[0.9, 0.5, 0.1]","[0.8, 0.4, 0.2]","[u'black', u'red', u'blue']","[u'left', u'middle', u'right']","[0.9, 0.5, 0.1]","[u'low', u'medium', u'high']","blue",51,"right","high","True","False",201,1950,NA
"A39KUEDR8ZS1CF","Fri Sep 18 2020 08:19:01 GMT-0700 (Pacific Daylight Time)","Fri Sep 18 2020 08:26:55 GMT-0700 (Pacific Daylight Time)","Mozilla/5.0 (Windows NT 10.0; Win64; x64) AppleWebKit/537.36 (KHTML, like Gecko) Chrome/83.0.4103.97 Safari/537.36",37,"[0.9, 0.5, 0.1]","[0.8, 0.4, 0.2]","[u'black', u'red', u'blue']","[u'left', u'middle', u'right']","[0.9, 0.5, 0.1]","[u'low', u'medium', u'high']","blue",51,"right","high","False","False",341,1900,NA
"A39KUEDR8ZS1CF","Fri Sep 18 2020 08:19:01 GMT-0700 (Pacific Daylight Time)","Fri Sep 18 2020 08:26:55 GMT-0700 (Pacific Daylight Time)","Mozilla/5.0 (Windows NT 10.0; Win64; x64) AppleWebKit/537.36 (KHTML, like Gecko) Chrome/83.0.4103.97 Safari/537.36",38,"[0.9, 0.5, 0.1]","[0.8, 0.4, 0.2]","[u'black', u'red', u'blue']","[u'left', u'middle', u'right']","[0.9, 0.5, 0.1]","[u'low', u'medium', u'high']","black",49,"left","low","False","False",53,1850,NA
"A39KUEDR8ZS1CF","Fri Sep 18 2020 08:19:01 GMT-0700 (Pacific Daylight Time)","Fri Sep 18 2020 08:26:55 GMT-0700 (Pacific Daylight Time)","Mozilla/5.0 (Windows NT 10.0; Win64; x64) AppleWebKit/537.36 (KHTML, like Gecko) Chrome/83.0.4103.97 Safari/537.36",39,"[0.9, 0.5, 0.1]","[0.8, 0.4, 0.2]","[u'black', u'red', u'blue']","[u'left', u'middle', u'right']","[0.9, 0.5, 0.1]","[u'low', u'medium', u'high']","red",50,"middle","medium","False","False",300,1800,NA
"A39KUEDR8ZS1CF","Fri Sep 18 2020 08:19:01 GMT-0700 (Pacific Daylight Time)","Fri Sep 18 2020 08:26:55 GMT-0700 (Pacific Daylight Time)","Mozilla/5.0 (Windows NT 10.0; Win64; x64) AppleWebKit/537.36 (KHTML, like Gecko) Chrome/83.0.4103.97 Safari/537.36",40,"[0.9, 0.5, 0.1]","[0.8, 0.4, 0.2]","[u'black', u'red', u'blue']","[u'left', u'middle', u'right']","[0.9, 0.5, 0.1]","[u'low', u'medium', u'high']","blue",51,"right","high","True","False",287,1900,NA
"A39KUEDR8ZS1CF","Fri Sep 18 2020 08:19:01 GMT-0700 (Pacific Daylight Time)","Fri Sep 18 2020 08:26:55 GMT-0700 (Pacific Daylight Time)","Mozilla/5.0 (Windows NT 10.0; Win64; x64) AppleWebKit/537.36 (KHTML, like Gecko) Chrome/83.0.4103.97 Safari/537.36",41,"[0.9, 0.5, 0.1]","[0.8, 0.4, 0.2]","[u'black', u'red', u'blue']","[u'left', u'middle', u'right']","[0.9, 0.5, 0.1]","[u'medium', u'high', u'low']","blue",51,"right","low","False","False",407,1850,NA
"A39KUEDR8ZS1CF","Fri Sep 18 2020 08:19:01 GMT-0700 (Pacific Daylight Time)","Fri Sep 18 2020 08:26:55 GMT-0700 (Pacific Daylight Time)","Mozilla/5.0 (Windows NT 10.0; Win64; x64) AppleWebKit/537.36 (KHTML, like Gecko) Chrome/83.0.4103.97 Safari/537.36",42,"[0.9, 0.5, 0.1]","[0.8, 0.4, 0.2]","[u'black', u'red', u'blue']","[u'left', u'middle', u'right']","[0.9, 0.5, 0.1]","[u'medium', u'high', u'low']","red",50,"middle","high","True","False",238,1950,NA
"A39KUEDR8ZS1CF","Fri Sep 18 2020 08:19:01 GMT-0700 (Pacific Daylight Time)","Fri Sep 18 2020 08:26:55 GMT-0700 (Pacific Daylight Time)","Mozilla/5.0 (Windows NT 10.0; Win64; x64) AppleWebKit/537.36 (KHTML, like Gecko) Chrome/83.0.4103.97 Safari/537.36",43,"[0.9, 0.5, 0.1]","[0.8, 0.4, 0.2]","[u'black', u'red', u'blue']","[u'left', u'middle', u'right']","[0.9, 0.5, 0.1]","[u'medium', u'high', u'low']","red",50,"middle","high","True","False",229,2050,NA
"A39KUEDR8ZS1CF","Fri Sep 18 2020 08:19:01 GMT-0700 (Pacific Daylight Time)","Fri Sep 18 2020 08:26:55 GMT-0700 (Pacific Daylight Time)","Mozilla/5.0 (Windows NT 10.0; Win64; x64) AppleWebKit/537.36 (KHTML, like Gecko) Chrome/83.0.4103.97 Safari/537.36",44,"[0.9, 0.5, 0.1]","[0.8, 0.4, 0.2]","[u'black', u'red', u'blue']","[u'left', u'middle', u'right']","[0.9, 0.5, 0.1]","[u'medium', u'high', u'low']","red",50,"middle","high","True","False",249,2150,NA
"A39KUEDR8ZS1CF","Fri Sep 18 2020 08:19:01 GMT-0700 (Pacific Daylight Time)","Fri Sep 18 2020 08:26:55 GMT-0700 (Pacific Daylight Time)","Mozilla/5.0 (Windows NT 10.0; Win64; x64) AppleWebKit/537.36 (KHTML, like Gecko) Chrome/83.0.4103.97 Safari/537.36",45,"[0.9, 0.5, 0.1]","[0.8, 0.4, 0.2]","[u'black', u'red', u'blue']","[u'left', u'middle', u'right']","[0.9, 0.5, 0.1]","[u'medium', u'high', u'low']","red",50,"middle","high","False","False",267,2100,NA
"A39KUEDR8ZS1CF","Fri Sep 18 2020 08:19:01 GMT-0700 (Pacific Daylight Time)","Fri Sep 18 2020 08:26:55 GMT-0700 (Pacific Daylight Time)","Mozilla/5.0 (Windows NT 10.0; Win64; x64) AppleWebKit/537.36 (KHTML, like Gecko) Chrome/83.0.4103.97 Safari/537.36",46,"[0.9, 0.5, 0.1]","[0.8, 0.4, 0.2]","[u'black', u'red', u'blue']","[u'left', u'middle', u'right']","[0.9, 0.5, 0.1]","[u'medium', u'high', u'low']","black",49,"left","medium","False","False",433,2050,NA
"A39KUEDR8ZS1CF","Fri Sep 18 2020 08:19:01 GMT-0700 (Pacific Daylight Time)","Fri Sep 18 2020 08:26:55 GMT-0700 (Pacific Daylight Time)","Mozilla/5.0 (Windows NT 10.0; Win64; x64) AppleWebKit/537.36 (KHTML, like Gecko) Chrome/83.0.4103.97 Safari/537.36",47,"[0.9, 0.5, 0.1]","[0.8, 0.4, 0.2]","[u'black', u'red', u'blue']","[u'left', u'middle', u'right']","[0.9, 0.5, 0.1]","[u'medium', u'high', u'low']","blue",51,"right","low","False","False",257,2000,NA
"A39KUEDR8ZS1CF","Fri Sep 18 2020 08:19:01 GMT-0700 (Pacific Daylight Time)","Fri Sep 18 2020 08:26:55 GMT-0700 (Pacific Daylight Time)","Mozilla/5.0 (Windows NT 10.0; Win64; x64) AppleWebKit/537.36 (KHTML, like Gecko) Chrome/83.0.4103.97 Safari/537.36",48,"[0.9, 0.5, 0.1]","[0.8, 0.4, 0.2]","[u'black', u'red', u'blue']","[u'left', u'middle', u'right']","[0.9, 0.5, 0.1]","[u'medium', u'high', u'low']","red",50,"middle","high","True","False",146,2100,NA
"A39KUEDR8ZS1CF","Fri Sep 18 2020 08:19:01 GMT-0700 (Pacific Daylight Time)","Fri Sep 18 2020 08:26:55 GMT-0700 (Pacific Daylight Time)","Mozilla/5.0 (Windows NT 10.0; Win64; x64) AppleWebKit/537.36 (KHTML, like Gecko) Chrome/83.0.4103.97 Safari/537.36",49,"[0.9, 0.5, 0.1]","[0.8, 0.4, 0.2]","[u'black', u'red', u'blue']","[u'left', u'middle', u'right']","[0.9, 0.5, 0.1]","[u'medium', u'high', u'low']","red",50,"middle","high","False","False",216,2050,NA
"A39KUEDR8ZS1CF","Fri Sep 18 2020 08:19:01 GMT-0700 (Pacific Daylight Time)","Fri Sep 18 2020 08:26:55 GMT-0700 (Pacific Daylight Time)","Mozilla/5.0 (Windows NT 10.0; Win64; x64) AppleWebKit/537.36 (KHTML, like Gecko) Chrome/83.0.4103.97 Safari/537.36",50,"[0.9, 0.5, 0.1]","[0.8, 0.4, 0.2]","[u'black', u'red', u'blue']","[u'left', u'middle', u'right']","[0.9, 0.5, 0.1]","[u'medium', u'high', u'low']","red",50,"middle","high","True","False",200,2150,NA
"A39KUEDR8ZS1CF","Fri Sep 18 2020 08:19:01 GMT-0700 (Pacific Daylight Time)","Fri Sep 18 2020 08:26:55 GMT-0700 (Pacific Daylight Time)","Mozilla/5.0 (Windows NT 10.0; Win64; x64) AppleWebKit/537.36 (KHTML, like Gecko) Chrome/83.0.4103.97 Safari/537.36",51,"[0.9, 0.5, 0.1]","[0.8, 0.4, 0.2]","[u'black', u'red', u'blue']","[u'left', u'middle', u'right']","[0.9, 0.5, 0.1]","[u'medium', u'high', u'low']","red",50,"middle","high","True","False",297,2250,NA
"A39KUEDR8ZS1CF","Fri Sep 18 2020 08:19:01 GMT-0700 (Pacific Daylight Time)","Fri Sep 18 2020 08:26:55 GMT-0700 (Pacific Daylight Time)","Mozilla/5.0 (Windows NT 10.0; Win64; x64) AppleWebKit/537.36 (KHTML, like Gecko) Chrome/83.0.4103.97 Safari/537.36",52,"[0.9, 0.5, 0.1]","[0.8, 0.4, 0.2]","[u'black', u'red', u'blue']","[u'left', u'middle', u'right']","[0.9, 0.5, 0.1]","[u'medium', u'high', u'low']","red",50,"middle","high","True","False",296,2350,NA
"A39KUEDR8ZS1CF","Fri Sep 18 2020 08:19:01 GMT-0700 (Pacific Daylight Time)","Fri Sep 18 2020 08:26:55 GMT-0700 (Pacific Daylight Time)","Mozilla/5.0 (Windows NT 10.0; Win64; x64) AppleWebKit/537.36 (KHTML, like Gecko) Chrome/83.0.4103.97 Safari/537.36",53,"[0.9, 0.5, 0.1]","[0.8, 0.4, 0.2]","[u'black', u'red', u'blue']","[u'left', u'middle', u'right']","[0.9, 0.5, 0.1]","[u'medium', u'high', u'low']","red",50,"middle","high","True","False",163,2450,NA
"A39KUEDR8ZS1CF","Fri Sep 18 2020 08:19:01 GMT-0700 (Pacific Daylight Time)","Fri Sep 18 2020 08:26:55 GMT-0700 (Pacific Daylight Time)","Mozilla/5.0 (Windows NT 10.0; Win64; x64) AppleWebKit/537.36 (KHTML, like Gecko) Chrome/83.0.4103.97 Safari/537.36",54,"[0.9, 0.5, 0.1]","[0.8, 0.4, 0.2]","[u'black', u'red', u'blue']","[u'left', u'middle', u'right']","[0.9, 0.5, 0.1]","[u'medium', u'high', u'low']","red",50,"middle","high","True","False",178,2550,NA
"A39KUEDR8ZS1CF","Fri Sep 18 2020 08:19:01 GMT-0700 (Pacific Daylight Time)","Fri Sep 18 2020 08:26:55 GMT-0700 (Pacific Daylight Time)","Mozilla/5.0 (Windows NT 10.0; Win64; x64) AppleWebKit/537.36 (KHTML, like Gecko) Chrome/83.0.4103.97 Safari/537.36",55,"[0.9, 0.5, 0.1]","[0.8, 0.4, 0.2]","[u'black', u'red', u'blue']","[u'left', u'middle', u'right']","[0.9, 0.5, 0.1]","[u'medium', u'high', u'low']","red",50,"middle","high","True","False",283,2650,NA
"A39KUEDR8ZS1CF","Fri Sep 18 2020 08:19:01 GMT-0700 (Pacific Daylight Time)","Fri Sep 18 2020 08:26:55 GMT-0700 (Pacific Daylight Time)","Mozilla/5.0 (Windows NT 10.0; Win64; x64) AppleWebKit/537.36 (KHTML, like Gecko) Chrome/83.0.4103.97 Safari/537.36",56,"[0.9, 0.5, 0.1]","[0.8, 0.4, 0.2]","[u'black', u'red', u'blue']","[u'left', u'middle', u'right']","[0.9, 0.5, 0.1]","[u'medium', u'high', u'low']","red",50,"middle","high","True","True",303,2750,NA
"A39KUEDR8ZS1CF","Fri Sep 18 2020 08:19:01 GMT-0700 (Pacific Daylight Time)","Fri Sep 18 2020 08:26:55 GMT-0700 (Pacific Daylight Time)","Mozilla/5.0 (Windows NT 10.0; Win64; x64) AppleWebKit/537.36 (KHTML, like Gecko) Chrome/83.0.4103.97 Safari/537.36",57,"[0.9, 0.5, 0.1]","[0.8, 0.4, 0.2]","[u'black', u'red', u'blue']","[u'left', u'middle', u'right']","[0.9, 0.5, 0.1]","[u'high', u'medium', u'low']","red",50,"middle","medium","False","False",241,2700,NA
"A39KUEDR8ZS1CF","Fri Sep 18 2020 08:19:01 GMT-0700 (Pacific Daylight Time)","Fri Sep 18 2020 08:26:55 GMT-0700 (Pacific Daylight Time)","Mozilla/5.0 (Windows NT 10.0; Win64; x64) AppleWebKit/537.36 (KHTML, like Gecko) Chrome/83.0.4103.97 Safari/537.36",58,"[0.9, 0.5, 0.1]","[0.8, 0.4, 0.2]","[u'black', u'red', u'blue']","[u'left', u'middle', u'right']","[0.9, 0.5, 0.1]","[u'high', u'medium', u'low']","red",50,"middle","medium","True","False",274,2800,NA
"A39KUEDR8ZS1CF","Fri Sep 18 2020 08:19:01 GMT-0700 (Pacific Daylight Time)","Fri Sep 18 2020 08:26:55 GMT-0700 (Pacific Daylight Time)","Mozilla/5.0 (Windows NT 10.0; Win64; x64) AppleWebKit/537.36 (KHTML, like Gecko) Chrome/83.0.4103.97 Safari/537.36",59,"[0.9, 0.5, 0.1]","[0.8, 0.4, 0.2]","[u'black', u'red', u'blue']","[u'left', u'middle', u'right']","[0.9, 0.5, 0.1]","[u'high', u'medium', u'low']","red",50,"middle","medium","True","False",322,2900,NA
"A39KUEDR8ZS1CF","Fri Sep 18 2020 08:19:01 GMT-0700 (Pacific Daylight Time)","Fri Sep 18 2020 08:26:55 GMT-0700 (Pacific Daylight Time)","Mozilla/5.0 (Windows NT 10.0; Win64; x64) AppleWebKit/537.36 (KHTML, like Gecko) Chrome/83.0.4103.97 Safari/537.36",60,"[0.9, 0.5, 0.1]","[0.8, 0.4, 0.2]","[u'black', u'red', u'blue']","[u'left', u'middle', u'right']","[0.9, 0.5, 0.1]","[u'high', u'medium', u'low']","red",50,"middle","medium","False","False",283,2850,NA
"A39KUEDR8ZS1CF","Fri Sep 18 2020 08:19:01 GMT-0700 (Pacific Daylight Time)","Fri Sep 18 2020 08:26:55 GMT-0700 (Pacific Daylight Time)","Mozilla/5.0 (Windows NT 10.0; Win64; x64) AppleWebKit/537.36 (KHTML, like Gecko) Chrome/83.0.4103.97 Safari/537.36",61,"[0.9, 0.5, 0.1]","[0.8, 0.4, 0.2]","[u'black', u'red', u'blue']","[u'left', u'middle', u'right']","[0.9, 0.5, 0.1]","[u'high', u'medium', u'low']","black",49,"left","high","False","False",287,2800,NA
"A39KUEDR8ZS1CF","Fri Sep 18 2020 08:19:01 GMT-0700 (Pacific Daylight Time)","Fri Sep 18 2020 08:26:55 GMT-0700 (Pacific Daylight Time)","Mozilla/5.0 (Windows NT 10.0; Win64; x64) AppleWebKit/537.36 (KHTML, like Gecko) Chrome/83.0.4103.97 Safari/537.36",62,"[0.9, 0.5, 0.1]","[0.8, 0.4, 0.2]","[u'black', u'red', u'blue']","[u'left', u'middle', u'right']","[0.9, 0.5, 0.1]","[u'high', u'medium', u'low']","blue",51,"right","low","False","False",284,2750,NA
"A39KUEDR8ZS1CF","Fri Sep 18 2020 08:19:01 GMT-0700 (Pacific Daylight Time)","Fri Sep 18 2020 08:26:55 GMT-0700 (Pacific Daylight Time)","Mozilla/5.0 (Windows NT 10.0; Win64; x64) AppleWebKit/537.36 (KHTML, like Gecko) Chrome/83.0.4103.97 Safari/537.36",63,"[0.9, 0.5, 0.1]","[0.8, 0.4, 0.2]","[u'black', u'red', u'blue']","[u'left', u'middle', u'right']","[0.9, 0.5, 0.1]","[u'high', u'medium', u'low']","red",50,"middle","medium","False","False",91,2700,NA
"A39KUEDR8ZS1CF","Fri Sep 18 2020 08:19:01 GMT-0700 (Pacific Daylight Time)","Fri Sep 18 2020 08:26:55 GMT-0700 (Pacific Daylight Time)","Mozilla/5.0 (Windows NT 10.0; Win64; x64) AppleWebKit/537.36 (KHTML, like Gecko) Chrome/83.0.4103.97 Safari/537.36",64,"[0.9, 0.5, 0.1]","[0.8, 0.4, 0.2]","[u'black', u'red', u'blue']","[u'left', u'middle', u'right']","[0.9, 0.5, 0.1]","[u'high', u'medium', u'low']","black",49,"left","high","True","False",528,2800,NA
"A39KUEDR8ZS1CF","Fri Sep 18 2020 08:19:01 GMT-0700 (Pacific Daylight Time)","Fri Sep 18 2020 08:26:55 GMT-0700 (Pacific Daylight Time)","Mozilla/5.0 (Windows NT 10.0; Win64; x64) AppleWebKit/537.36 (KHTML, like Gecko) Chrome/83.0.4103.97 Safari/537.36",65,"[0.9, 0.5, 0.1]","[0.8, 0.4, 0.2]","[u'black', u'red', u'blue']","[u'left', u'middle', u'right']","[0.9, 0.5, 0.1]","[u'high', u'medium', u'low']","black",49,"left","high","True","False",269,2900,NA
"A39KUEDR8ZS1CF","Fri Sep 18 2020 08:19:01 GMT-0700 (Pacific Daylight Time)","Fri Sep 18 2020 08:26:55 GMT-0700 (Pacific Daylight Time)","Mozilla/5.0 (Windows NT 10.0; Win64; x64) AppleWebKit/537.36 (KHTML, like Gecko) Chrome/83.0.4103.97 Safari/537.36",66,"[0.9, 0.5, 0.1]","[0.8, 0.4, 0.2]","[u'black', u'red', u'blue']","[u'left', u'middle', u'right']","[0.9, 0.5, 0.1]","[u'high', u'medium', u'low']","black",49,"left","high","True","False",92,3000,NA
"A39KUEDR8ZS1CF","Fri Sep 18 2020 08:19:01 GMT-0700 (Pacific Daylight Time)","Fri Sep 18 2020 08:26:55 GMT-0700 (Pacific Daylight Time)","Mozilla/5.0 (Windows NT 10.0; Win64; x64) AppleWebKit/537.36 (KHTML, like Gecko) Chrome/83.0.4103.97 Safari/537.36",67,"[0.9, 0.5, 0.1]","[0.8, 0.4, 0.2]","[u'black', u'red', u'blue']","[u'left', u'middle', u'right']","[0.9, 0.5, 0.1]","[u'high', u'medium', u'low']","black",49,"left","high","True","False",330,3100,NA
"A39KUEDR8ZS1CF","Fri Sep 18 2020 08:19:01 GMT-0700 (Pacific Daylight Time)","Fri Sep 18 2020 08:26:55 GMT-0700 (Pacific Daylight Time)","Mozilla/5.0 (Windows NT 10.0; Win64; x64) AppleWebKit/537.36 (KHTML, like Gecko) Chrome/83.0.4103.97 Safari/537.36",68,"[0.9, 0.5, 0.1]","[0.8, 0.4, 0.2]","[u'black', u'red', u'blue']","[u'left', u'middle', u'right']","[0.9, 0.5, 0.1]","[u'high', u'medium', u'low']","black",49,"left","high","True","False",246,3200,NA
"A39KUEDR8ZS1CF","Fri Sep 18 2020 08:19:01 GMT-0700 (Pacific Daylight Time)","Fri Sep 18 2020 08:26:55 GMT-0700 (Pacific Daylight Time)","Mozilla/5.0 (Windows NT 10.0; Win64; x64) AppleWebKit/537.36 (KHTML, like Gecko) Chrome/83.0.4103.97 Safari/537.36",69,"[0.9, 0.5, 0.1]","[0.8, 0.4, 0.2]","[u'black', u'red', u'blue']","[u'left', u'middle', u'right']","[0.9, 0.5, 0.1]","[u'high', u'medium', u'low']","black",49,"left","high","True","False",274,3300,NA
"A39KUEDR8ZS1CF","Fri Sep 18 2020 08:19:01 GMT-0700 (Pacific Daylight Time)","Fri Sep 18 2020 08:26:55 GMT-0700 (Pacific Daylight Time)","Mozilla/5.0 (Windows NT 10.0; Win64; x64) AppleWebKit/537.36 (KHTML, like Gecko) Chrome/83.0.4103.97 Safari/537.36",70,"[0.9, 0.5, 0.1]","[0.8, 0.4, 0.2]","[u'black', u'red', u'blue']","[u'left', u'middle', u'right']","[0.9, 0.5, 0.1]","[u'high', u'medium', u'low']","black",49,"left","high","True","False",292,3400,NA
"A39KUEDR8ZS1CF","Fri Sep 18 2020 08:19:01 GMT-0700 (Pacific Daylight Time)","Fri Sep 18 2020 08:26:55 GMT-0700 (Pacific Daylight Time)","Mozilla/5.0 (Windows NT 10.0; Win64; x64) AppleWebKit/537.36 (KHTML, like Gecko) Chrome/83.0.4103.97 Safari/537.36",71,"[0.9, 0.5, 0.1]","[0.8, 0.4, 0.2]","[u'black', u'red', u'blue']","[u'left', u'middle', u'right']","[0.9, 0.5, 0.1]","[u'high', u'medium', u'low']","black",49,"left","high","True","False",253,3500,NA
"A39KUEDR8ZS1CF","Fri Sep 18 2020 08:19:01 GMT-0700 (Pacific Daylight Time)","Fri Sep 18 2020 08:26:55 GMT-0700 (Pacific Daylight Time)","Mozilla/5.0 (Windows NT 10.0; Win64; x64) AppleWebKit/537.36 (KHTML, like Gecko) Chrome/83.0.4103.97 Safari/537.36",72,"[0.9, 0.5, 0.1]","[0.8, 0.4, 0.2]","[u'black', u'red', u'blue']","[u'left', u'middle', u'right']","[0.9, 0.5, 0.1]","[u'high', u'medium', u'low']","black",49,"left","high","True","True",288,3600,NA
"A39KUEDR8ZS1CF","Fri Sep 18 2020 08:19:01 GMT-0700 (Pacific Daylight Time)","Fri Sep 18 2020 08:26:55 GMT-0700 (Pacific Daylight Time)","Mozilla/5.0 (Windows NT 10.0; Win64; x64) AppleWebKit/537.36 (KHTML, like Gecko) Chrome/83.0.4103.97 Safari/537.36",73,"[0.9, 0.5, 0.1]","[0.8, 0.4, 0.2]","[u'black', u'red', u'blue']","[u'left', u'middle', u'right']","[0.9, 0.5, 0.1]","[u'low', u'medium', u'high']","black",49,"left","low","False","False",296,3550,NA
"A39KUEDR8ZS1CF","Fri Sep 18 2020 08:19:01 GMT-0700 (Pacific Daylight Time)","Fri Sep 18 2020 08:26:55 GMT-0700 (Pacific Daylight Time)","Mozilla/5.0 (Windows NT 10.0; Win64; x64) AppleWebKit/537.36 (KHTML, like Gecko) Chrome/83.0.4103.97 Safari/537.36",74,"[0.9, 0.5, 0.1]","[0.8, 0.4, 0.2]","[u'black', u'red', u'blue']","[u'left', u'middle', u'right']","[0.9, 0.5, 0.1]","[u'low', u'medium', u'high']","red",50,"middle","medium","True","False",487,3650,NA
"A39KUEDR8ZS1CF","Fri Sep 18 2020 08:19:01 GMT-0700 (Pacific Daylight Time)","Fri Sep 18 2020 08:26:55 GMT-0700 (Pacific Daylight Time)","Mozilla/5.0 (Windows NT 10.0; Win64; x64) AppleWebKit/537.36 (KHTML, like Gecko) Chrome/83.0.4103.97 Safari/537.36",75,"[0.9, 0.5, 0.1]","[0.8, 0.4, 0.2]","[u'black', u'red', u'blue']","[u'left', u'middle', u'right']","[0.9, 0.5, 0.1]","[u'low', u'medium', u'high']","red",50,"middle","medium","False","False",263,3600,NA
"A39KUEDR8ZS1CF","Fri Sep 18 2020 08:19:01 GMT-0700 (Pacific Daylight Time)","Fri Sep 18 2020 08:26:55 GMT-0700 (Pacific Daylight Time)","Mozilla/5.0 (Windows NT 10.0; Win64; x64) AppleWebKit/537.36 (KHTML, like Gecko) Chrome/83.0.4103.97 Safari/537.36",76,"[0.9, 0.5, 0.1]","[0.8, 0.4, 0.2]","[u'black', u'red', u'blue']","[u'left', u'middle', u'right']","[0.9, 0.5, 0.1]","[u'low', u'medium', u'high']","blue",51,"right","high","True","False",268,3700,NA
"A39KUEDR8ZS1CF","Fri Sep 18 2020 08:19:01 GMT-0700 (Pacific Daylight Time)","Fri Sep 18 2020 08:26:55 GMT-0700 (Pacific Daylight Time)","Mozilla/5.0 (Windows NT 10.0; Win64; x64) AppleWebKit/537.36 (KHTML, like Gecko) Chrome/83.0.4103.97 Safari/537.36",77,"[0.9, 0.5, 0.1]","[0.8, 0.4, 0.2]","[u'black', u'red', u'blue']","[u'left', u'middle', u'right']","[0.9, 0.5, 0.1]","[u'low', u'medium', u'high']","blue",51,"right","high","True","False",380,3800,NA
"A39KUEDR8ZS1CF","Fri Sep 18 2020 08:19:01 GMT-0700 (Pacific Daylight Time)","Fri Sep 18 2020 08:26:55 GMT-0700 (Pacific Daylight Time)","Mozilla/5.0 (Windows NT 10.0; Win64; x64) AppleWebKit/537.36 (KHTML, like Gecko) Chrome/83.0.4103.97 Safari/537.36",78,"[0.9, 0.5, 0.1]","[0.8, 0.4, 0.2]","[u'black', u'red', u'blue']","[u'left', u'middle', u'right']","[0.9, 0.5, 0.1]","[u'low', u'medium', u'high']","blue",51,"right","high","True","False",297,3900,NA
"A39KUEDR8ZS1CF","Fri Sep 18 2020 08:19:01 GMT-0700 (Pacific Daylight Time)","Fri Sep 18 2020 08:26:55 GMT-0700 (Pacific Daylight Time)","Mozilla/5.0 (Windows NT 10.0; Win64; x64) AppleWebKit/537.36 (KHTML, like Gecko) Chrome/83.0.4103.97 Safari/537.36",79,"[0.9, 0.5, 0.1]","[0.8, 0.4, 0.2]","[u'black', u'red', u'blue']","[u'left', u'middle', u'right']","[0.9, 0.5, 0.1]","[u'low', u'medium', u'high']","blue",51,"right","high","True","False",385,4000,NA
"A39KUEDR8ZS1CF","Fri Sep 18 2020 08:19:01 GMT-0700 (Pacific Daylight Time)","Fri Sep 18 2020 08:26:55 GMT-0700 (Pacific Daylight Time)","Mozilla/5.0 (Windows NT 10.0; Win64; x64) AppleWebKit/537.36 (KHTML, like Gecko) Chrome/83.0.4103.97 Safari/537.36",80,"[0.9, 0.5, 0.1]","[0.8, 0.4, 0.2]","[u'black', u'red', u'blue']","[u'left', u'middle', u'right']","[0.9, 0.5, 0.1]","[u'low', u'medium', u'high']","blue",51,"right","high","False","False",290,3950,NA
"A39KUEDR8ZS1CF","Fri Sep 18 2020 08:19:01 GMT-0700 (Pacific Daylight Time)","Fri Sep 18 2020 08:26:55 GMT-0700 (Pacific Daylight Time)","Mozilla/5.0 (Windows NT 10.0; Win64; x64) AppleWebKit/537.36 (KHTML, like Gecko) Chrome/83.0.4103.97 Safari/537.36",81,"[0.9, 0.5, 0.1]","[0.8, 0.4, 0.2]","[u'black', u'red', u'blue']","[u'left', u'middle', u'right']","[0.8, 0.4, 0.2]","[u'low', u'high', u'medium']","red",50,"middle","high","False","False",436,3900,NA
"A39KUEDR8ZS1CF","Fri Sep 18 2020 08:19:01 GMT-0700 (Pacific Daylight Time)","Fri Sep 18 2020 08:26:55 GMT-0700 (Pacific Daylight Time)","Mozilla/5.0 (Windows NT 10.0; Win64; x64) AppleWebKit/537.36 (KHTML, like Gecko) Chrome/83.0.4103.97 Safari/537.36",82,"[0.9, 0.5, 0.1]","[0.8, 0.4, 0.2]","[u'black', u'red', u'blue']","[u'left', u'middle', u'right']","[0.8, 0.4, 0.2]","[u'low', u'high', u'medium']","black",49,"left","low","True","False",266,4000,NA
"A39KUEDR8ZS1CF","Fri Sep 18 2020 08:19:01 GMT-0700 (Pacific Daylight Time)","Fri Sep 18 2020 08:26:55 GMT-0700 (Pacific Daylight Time)","Mozilla/5.0 (Windows NT 10.0; Win64; x64) AppleWebKit/537.36 (KHTML, like Gecko) Chrome/83.0.4103.97 Safari/537.36",83,"[0.9, 0.5, 0.1]","[0.8, 0.4, 0.2]","[u'black', u'red', u'blue']","[u'left', u'middle', u'right']","[0.8, 0.4, 0.2]","[u'low', u'high', u'medium']","black",49,"left","low","True","False",229,4100,NA
"A39KUEDR8ZS1CF","Fri Sep 18 2020 08:19:01 GMT-0700 (Pacific Daylight Time)","Fri Sep 18 2020 08:26:55 GMT-0700 (Pacific Daylight Time)","Mozilla/5.0 (Windows NT 10.0; Win64; x64) AppleWebKit/537.36 (KHTML, like Gecko) Chrome/83.0.4103.97 Safari/537.36",84,"[0.9, 0.5, 0.1]","[0.8, 0.4, 0.2]","[u'black', u'red', u'blue']","[u'left', u'middle', u'right']","[0.8, 0.4, 0.2]","[u'low', u'high', u'medium']","black",49,"left","low","False","False",227,4050,NA
"A39KUEDR8ZS1CF","Fri Sep 18 2020 08:19:01 GMT-0700 (Pacific Daylight Time)","Fri Sep 18 2020 08:26:55 GMT-0700 (Pacific Daylight Time)","Mozilla/5.0 (Windows NT 10.0; Win64; x64) AppleWebKit/537.36 (KHTML, like Gecko) Chrome/83.0.4103.97 Safari/537.36",85,"[0.9, 0.5, 0.1]","[0.8, 0.4, 0.2]","[u'black', u'red', u'blue']","[u'left', u'middle', u'right']","[0.8, 0.4, 0.2]","[u'low', u'high', u'medium']","blue",51,"right","medium","False","False",318,4000,NA
"A39KUEDR8ZS1CF","Fri Sep 18 2020 08:19:01 GMT-0700 (Pacific Daylight Time)","Fri Sep 18 2020 08:26:55 GMT-0700 (Pacific Daylight Time)","Mozilla/5.0 (Windows NT 10.0; Win64; x64) AppleWebKit/537.36 (KHTML, like Gecko) Chrome/83.0.4103.97 Safari/537.36",86,"[0.9, 0.5, 0.1]","[0.8, 0.4, 0.2]","[u'black', u'red', u'blue']","[u'left', u'middle', u'right']","[0.8, 0.4, 0.2]","[u'low', u'high', u'medium']","red",50,"middle","high","False","False",257,3950,NA
"A39KUEDR8ZS1CF","Fri Sep 18 2020 08:19:01 GMT-0700 (Pacific Daylight Time)","Fri Sep 18 2020 08:26:55 GMT-0700 (Pacific Daylight Time)","Mozilla/5.0 (Windows NT 10.0; Win64; x64) AppleWebKit/537.36 (KHTML, like Gecko) Chrome/83.0.4103.97 Safari/537.36",87,"[0.9, 0.5, 0.1]","[0.8, 0.4, 0.2]","[u'black', u'red', u'blue']","[u'left', u'middle', u'right']","[0.8, 0.4, 0.2]","[u'low', u'high', u'medium']","black",49,"left","low","False","False",209,3900,NA
"A39KUEDR8ZS1CF","Fri Sep 18 2020 08:19:01 GMT-0700 (Pacific Daylight Time)","Fri Sep 18 2020 08:26:55 GMT-0700 (Pacific Daylight Time)","Mozilla/5.0 (Windows NT 10.0; Win64; x64) AppleWebKit/537.36 (KHTML, like Gecko) Chrome/83.0.4103.97 Safari/537.36",88,"[0.9, 0.5, 0.1]","[0.8, 0.4, 0.2]","[u'black', u'red', u'blue']","[u'left', u'middle', u'right']","[0.8, 0.4, 0.2]","[u'low', u'high', u'medium']","black",49,"left","low","False","False",215,3850,NA
"A39KUEDR8ZS1CF","Fri Sep 18 2020 08:19:01 GMT-0700 (Pacific Daylight Time)","Fri Sep 18 2020 08:26:55 GMT-0700 (Pacific Daylight Time)","Mozilla/5.0 (Windows NT 10.0; Win64; x64) AppleWebKit/537.36 (KHTML, like Gecko) Chrome/83.0.4103.97 Safari/537.36",89,"[0.9, 0.5, 0.1]","[0.8, 0.4, 0.2]","[u'black', u'red', u'blue']","[u'left', u'middle', u'right']","[0.8, 0.4, 0.2]","[u'low', u'high', u'medium']","blue",51,"right","medium","True","False",290,3950,NA
"A39KUEDR8ZS1CF","Fri Sep 18 2020 08:19:01 GMT-0700 (Pacific Daylight Time)","Fri Sep 18 2020 08:26:55 GMT-0700 (Pacific Daylight Time)","Mozilla/5.0 (Windows NT 10.0; Win64; x64) AppleWebKit/537.36 (KHTML, like Gecko) Chrome/83.0.4103.97 Safari/537.36",90,"[0.9, 0.5, 0.1]","[0.8, 0.4, 0.2]","[u'black', u'red', u'blue']","[u'left', u'middle', u'right']","[0.8, 0.4, 0.2]","[u'low', u'high', u'medium']","blue",51,"right","medium","False","False",285,3900,NA
"A39KUEDR8ZS1CF","Fri Sep 18 2020 08:19:01 GMT-0700 (Pacific Daylight Time)","Fri Sep 18 2020 08:26:55 GMT-0700 (Pacific Daylight Time)","Mozilla/5.0 (Windows NT 10.0; Win64; x64) AppleWebKit/537.36 (KHTML, like Gecko) Chrome/83.0.4103.97 Safari/537.36",91,"[0.9, 0.5, 0.1]","[0.8, 0.4, 0.2]","[u'black', u'red', u'blue']","[u'left', u'middle', u'right']","[0.8, 0.4, 0.2]","[u'low', u'high', u'medium']","red",50,"middle","high","True","False",424,4000,NA
"A39KUEDR8ZS1CF","Fri Sep 18 2020 08:19:01 GMT-0700 (Pacific Daylight Time)","Fri Sep 18 2020 08:26:55 GMT-0700 (Pacific Daylight Time)","Mozilla/5.0 (Windows NT 10.0; Win64; x64) AppleWebKit/537.36 (KHTML, like Gecko) Chrome/83.0.4103.97 Safari/537.36",92,"[0.9, 0.5, 0.1]","[0.8, 0.4, 0.2]","[u'black', u'red', u'blue']","[u'left', u'middle', u'right']","[0.8, 0.4, 0.2]","[u'low', u'high', u'medium']","red",50,"middle","high","True","False",266,4100,NA
"A39KUEDR8ZS1CF","Fri Sep 18 2020 08:19:01 GMT-0700 (Pacific Daylight Time)","Fri Sep 18 2020 08:26:55 GMT-0700 (Pacific Daylight Time)","Mozilla/5.0 (Windows NT 10.0; Win64; x64) AppleWebKit/537.36 (KHTML, like Gecko) Chrome/83.0.4103.97 Safari/537.36",93,"[0.9, 0.5, 0.1]","[0.8, 0.4, 0.2]","[u'black', u'red', u'blue']","[u'left', u'middle', u'right']","[0.8, 0.4, 0.2]","[u'low', u'high', u'medium']","red",50,"middle","high","True","False",225,4200,NA
"A39KUEDR8ZS1CF","Fri Sep 18 2020 08:19:01 GMT-0700 (Pacific Daylight Time)","Fri Sep 18 2020 08:26:55 GMT-0700 (Pacific Daylight Time)","Mozilla/5.0 (Windows NT 10.0; Win64; x64) AppleWebKit/537.36 (KHTML, like Gecko) Chrome/83.0.4103.97 Safari/537.36",94,"[0.9, 0.5, 0.1]","[0.8, 0.4, 0.2]","[u'black', u'red', u'blue']","[u'left', u'middle', u'right']","[0.8, 0.4, 0.2]","[u'low', u'high', u'medium']","red",50,"middle","high","True","False",286,4300,NA
"A39KUEDR8ZS1CF","Fri Sep 18 2020 08:19:01 GMT-0700 (Pacific Daylight Time)","Fri Sep 18 2020 08:26:55 GMT-0700 (Pacific Daylight Time)","Mozilla/5.0 (Windows NT 10.0; Win64; x64) AppleWebKit/537.36 (KHTML, like Gecko) Chrome/83.0.4103.97 Safari/537.36",95,"[0.9, 0.5, 0.1]","[0.8, 0.4, 0.2]","[u'black', u'red', u'blue']","[u'left', u'middle', u'right']","[0.8, 0.4, 0.2]","[u'low', u'high', u'medium']","red",50,"middle","high","True","False",362,4400,NA
"A39KUEDR8ZS1CF","Fri Sep 18 2020 08:19:01 GMT-0700 (Pacific Daylight Time)","Fri Sep 18 2020 08:26:55 GMT-0700 (Pacific Daylight Time)","Mozilla/5.0 (Windows NT 10.0; Win64; x64) AppleWebKit/537.36 (KHTML, like Gecko) Chrome/83.0.4103.97 Safari/537.36",96,"[0.9, 0.5, 0.1]","[0.8, 0.4, 0.2]","[u'black', u'red', u'blue']","[u'left', u'middle', u'right']","[0.8, 0.4, 0.2]","[u'low', u'high', u'medium']","red",50,"middle","high","True","False",241,4500,NA
"A39KUEDR8ZS1CF","Fri Sep 18 2020 08:19:01 GMT-0700 (Pacific Daylight Time)","Fri Sep 18 2020 08:26:55 GMT-0700 (Pacific Daylight Time)","Mozilla/5.0 (Windows NT 10.0; Win64; x64) AppleWebKit/537.36 (KHTML, like Gecko) Chrome/83.0.4103.97 Safari/537.36",97,"[0.9, 0.5, 0.1]","[0.8, 0.4, 0.2]","[u'black', u'red', u'blue']","[u'left', u'middle', u'right']","[0.8, 0.4, 0.2]","[u'low', u'high', u'medium']","red",50,"middle","high","True","False",336,4600,NA
"A39KUEDR8ZS1CF","Fri Sep 18 2020 08:19:01 GMT-0700 (Pacific Daylight Time)","Fri Sep 18 2020 08:26:55 GMT-0700 (Pacific Daylight Time)","Mozilla/5.0 (Windows NT 10.0; Win64; x64) AppleWebKit/537.36 (KHTML, like Gecko) Chrome/83.0.4103.97 Safari/537.36",98,"[0.9, 0.5, 0.1]","[0.8, 0.4, 0.2]","[u'black', u'red', u'blue']","[u'left', u'middle', u'right']","[0.8, 0.4, 0.2]","[u'low', u'high', u'medium']","red",50,"middle","high","True","False",312,4700,NA
"A39KUEDR8ZS1CF","Fri Sep 18 2020 08:19:01 GMT-0700 (Pacific Daylight Time)","Fri Sep 18 2020 08:26:55 GMT-0700 (Pacific Daylight Time)","Mozilla/5.0 (Windows NT 10.0; Win64; x64) AppleWebKit/537.36 (KHTML, like Gecko) Chrome/83.0.4103.97 Safari/537.36",99,"[0.9, 0.5, 0.1]","[0.8, 0.4, 0.2]","[u'black', u'red', u'blue']","[u'left', u'middle', u'right']","[0.8, 0.4, 0.2]","[u'low', u'high', u'medium']","red",50,"middle","high","True","True",533,4800,NA
"A39KUEDR8ZS1CF","Fri Sep 18 2020 08:19:01 GMT-0700 (Pacific Daylight Time)","Fri Sep 18 2020 08:26:55 GMT-0700 (Pacific Daylight Time)","Mozilla/5.0 (Windows NT 10.0; Win64; x64) AppleWebKit/537.36 (KHTML, like Gecko) Chrome/83.0.4103.97 Safari/537.36",100,"[0.9, 0.5, 0.1]","[0.8, 0.4, 0.2]","[u'black', u'red', u'blue']","[u'left', u'middle', u'right']","[0.8, 0.4, 0.2]","[u'low', u'medium', u'high']","red",50,"middle","medium","False","False",260,4750,NA
"A39KUEDR8ZS1CF","Fri Sep 18 2020 08:19:01 GMT-0700 (Pacific Daylight Time)","Fri Sep 18 2020 08:26:55 GMT-0700 (Pacific Daylight Time)","Mozilla/5.0 (Windows NT 10.0; Win64; x64) AppleWebKit/537.36 (KHTML, like Gecko) Chrome/83.0.4103.97 Safari/537.36",101,"[0.9, 0.5, 0.1]","[0.8, 0.4, 0.2]","[u'black', u'red', u'blue']","[u'left', u'middle', u'right']","[0.8, 0.4, 0.2]","[u'low', u'medium', u'high']","black",49,"left","low","True","False",298,4850,NA
"A39KUEDR8ZS1CF","Fri Sep 18 2020 08:19:01 GMT-0700 (Pacific Daylight Time)","Fri Sep 18 2020 08:26:55 GMT-0700 (Pacific Daylight Time)","Mozilla/5.0 (Windows NT 10.0; Win64; x64) AppleWebKit/537.36 (KHTML, like Gecko) Chrome/83.0.4103.97 Safari/537.36",102,"[0.9, 0.5, 0.1]","[0.8, 0.4, 0.2]","[u'black', u'red', u'blue']","[u'left', u'middle', u'right']","[0.8, 0.4, 0.2]","[u'low', u'medium', u'high']","black",49,"left","low","False","False",412,4800,NA
"A39KUEDR8ZS1CF","Fri Sep 18 2020 08:19:01 GMT-0700 (Pacific Daylight Time)","Fri Sep 18 2020 08:26:55 GMT-0700 (Pacific Daylight Time)","Mozilla/5.0 (Windows NT 10.0; Win64; x64) AppleWebKit/537.36 (KHTML, like Gecko) Chrome/83.0.4103.97 Safari/537.36",103,"[0.9, 0.5, 0.1]","[0.8, 0.4, 0.2]","[u'black', u'red', u'blue']","[u'left', u'middle', u'right']","[0.8, 0.4, 0.2]","[u'low', u'medium', u'high']","red",50,"middle","medium","True","False",74,4900,NA
"A39KUEDR8ZS1CF","Fri Sep 18 2020 08:19:01 GMT-0700 (Pacific Daylight Time)","Fri Sep 18 2020 08:26:55 GMT-0700 (Pacific Daylight Time)","Mozilla/5.0 (Windows NT 10.0; Win64; x64) AppleWebKit/537.36 (KHTML, like Gecko) Chrome/83.0.4103.97 Safari/537.36",104,"[0.9, 0.5, 0.1]","[0.8, 0.4, 0.2]","[u'black', u'red', u'blue']","[u'left', u'middle', u'right']","[0.8, 0.4, 0.2]","[u'low', u'medium', u'high']","red",50,"middle","medium","True","False",215,5000,NA
"A39KUEDR8ZS1CF","Fri Sep 18 2020 08:19:01 GMT-0700 (Pacific Daylight Time)","Fri Sep 18 2020 08:26:55 GMT-0700 (Pacific Daylight Time)","Mozilla/5.0 (Windows NT 10.0; Win64; x64) AppleWebKit/537.36 (KHTML, like Gecko) Chrome/83.0.4103.97 Safari/537.36",105,"[0.9, 0.5, 0.1]","[0.8, 0.4, 0.2]","[u'black', u'red', u'blue']","[u'left', u'middle', u'right']","[0.8, 0.4, 0.2]","[u'low', u'medium', u'high']","red",50,"middle","medium","False","False",166,4950,NA
"A39KUEDR8ZS1CF","Fri Sep 18 2020 08:19:01 GMT-0700 (Pacific Daylight Time)","Fri Sep 18 2020 08:26:55 GMT-0700 (Pacific Daylight Time)","Mozilla/5.0 (Windows NT 10.0; Win64; x64) AppleWebKit/537.36 (KHTML, like Gecko) Chrome/83.0.4103.97 Safari/537.36",106,"[0.9, 0.5, 0.1]","[0.8, 0.4, 0.2]","[u'black', u'red', u'blue']","[u'left', u'middle', u'right']","[0.8, 0.4, 0.2]","[u'low', u'medium', u'high']","blue",51,"right","high","False","False",254,4900,NA
"A39KUEDR8ZS1CF","Fri Sep 18 2020 08:19:01 GMT-0700 (Pacific Daylight Time)","Fri Sep 18 2020 08:26:55 GMT-0700 (Pacific Daylight Time)","Mozilla/5.0 (Windows NT 10.0; Win64; x64) AppleWebKit/537.36 (KHTML, like Gecko) Chrome/83.0.4103.97 Safari/537.36",107,"[0.9, 0.5, 0.1]","[0.8, 0.4, 0.2]","[u'black', u'red', u'blue']","[u'left', u'middle', u'right']","[0.8, 0.4, 0.2]","[u'low', u'medium', u'high']","red",50,"middle","medium","True","False",126,5000,NA
"A39KUEDR8ZS1CF","Fri Sep 18 2020 08:19:01 GMT-0700 (Pacific Daylight Time)","Fri Sep 18 2020 08:26:55 GMT-0700 (Pacific Daylight Time)","Mozilla/5.0 (Windows NT 10.0; Win64; x64) AppleWebKit/537.36 (KHTML, like Gecko) Chrome/83.0.4103.97 Safari/537.36",108,"[0.9, 0.5, 0.1]","[0.8, 0.4, 0.2]","[u'black', u'red', u'blue']","[u'left', u'middle', u'right']","[0.8, 0.4, 0.2]","[u'low', u'medium', u'high']","red",50,"middle","medium","True","False",319,5100,NA
"A39KUEDR8ZS1CF","Fri Sep 18 2020 08:19:01 GMT-0700 (Pacific Daylight Time)","Fri Sep 18 2020 08:26:55 GMT-0700 (Pacific Daylight Time)","Mozilla/5.0 (Windows NT 10.0; Win64; x64) AppleWebKit/537.36 (KHTML, like Gecko) Chrome/83.0.4103.97 Safari/537.36",109,"[0.9, 0.5, 0.1]","[0.8, 0.4, 0.2]","[u'black', u'red', u'blue']","[u'left', u'middle', u'right']","[0.8, 0.4, 0.2]","[u'low', u'medium', u'high']","red",50,"middle","medium","True","False",235,5200,NA
"A39KUEDR8ZS1CF","Fri Sep 18 2020 08:19:01 GMT-0700 (Pacific Daylight Time)","Fri Sep 18 2020 08:26:55 GMT-0700 (Pacific Daylight Time)","Mozilla/5.0 (Windows NT 10.0; Win64; x64) AppleWebKit/537.36 (KHTML, like Gecko) Chrome/83.0.4103.97 Safari/537.36",110,"[0.9, 0.5, 0.1]","[0.8, 0.4, 0.2]","[u'black', u'red', u'blue']","[u'left', u'middle', u'right']","[0.8, 0.4, 0.2]","[u'low', u'medium', u'high']","red",50,"middle","medium","False","False",320,5150,NA
"A39KUEDR8ZS1CF","Fri Sep 18 2020 08:19:01 GMT-0700 (Pacific Daylight Time)","Fri Sep 18 2020 08:26:55 GMT-0700 (Pacific Daylight Time)","Mozilla/5.0 (Windows NT 10.0; Win64; x64) AppleWebKit/537.36 (KHTML, like Gecko) Chrome/83.0.4103.97 Safari/537.36",111,"[0.9, 0.5, 0.1]","[0.8, 0.4, 0.2]","[u'black', u'red', u'blue']","[u'left', u'middle', u'right']","[0.8, 0.4, 0.2]","[u'low', u'medium', u'high']","blue",51,"right","high","True","False",292,5250,NA
"A39KUEDR8ZS1CF","Fri Sep 18 2020 08:19:01 GMT-0700 (Pacific Daylight Time)","Fri Sep 18 2020 08:26:55 GMT-0700 (Pacific Daylight Time)","Mozilla/5.0 (Windows NT 10.0; Win64; x64) AppleWebKit/537.36 (KHTML, like Gecko) Chrome/83.0.4103.97 Safari/537.36",112,"[0.9, 0.5, 0.1]","[0.8, 0.4, 0.2]","[u'black', u'red', u'blue']","[u'left', u'middle', u'right']","[0.8, 0.4, 0.2]","[u'low', u'medium', u'high']","blue",51,"right","high","False","False",419,5200,NA
"A39KUEDR8ZS1CF","Fri Sep 18 2020 08:19:01 GMT-0700 (Pacific Daylight Time)","Fri Sep 18 2020 08:26:55 GMT-0700 (Pacific Daylight Time)","Mozilla/5.0 (Windows NT 10.0; Win64; x64) AppleWebKit/537.36 (KHTML, like Gecko) Chrome/83.0.4103.97 Safari/537.36",113,"[0.9, 0.5, 0.1]","[0.8, 0.4, 0.2]","[u'black', u'red', u'blue']","[u'left', u'middle', u'right']","[0.8, 0.4, 0.2]","[u'low', u'medium', u'high']","black",49,"left","low","False","False",239,5150,NA
"A39KUEDR8ZS1CF","Fri Sep 18 2020 08:19:01 GMT-0700 (Pacific Daylight Time)","Fri Sep 18 2020 08:26:55 GMT-0700 (Pacific Daylight Time)","Mozilla/5.0 (Windows NT 10.0; Win64; x64) AppleWebKit/537.36 (KHTML, like Gecko) Chrome/83.0.4103.97 Safari/537.36",114,"[0.9, 0.5, 0.1]","[0.8, 0.4, 0.2]","[u'black', u'red', u'blue']","[u'left', u'middle', u'right']","[0.8, 0.4, 0.2]","[u'low', u'medium', u'high']","red",50,"middle","medium","True","False",82,5250,NA
"A39KUEDR8ZS1CF","Fri Sep 18 2020 08:19:01 GMT-0700 (Pacific Daylight Time)","Fri Sep 18 2020 08:26:55 GMT-0700 (Pacific Daylight Time)","Mozilla/5.0 (Windows NT 10.0; Win64; x64) AppleWebKit/537.36 (KHTML, like Gecko) Chrome/83.0.4103.97 Safari/537.36",115,"[0.9, 0.5, 0.1]","[0.8, 0.4, 0.2]","[u'black', u'red', u'blue']","[u'left', u'middle', u'right']","[0.8, 0.4, 0.2]","[u'low', u'medium', u'high']","red",50,"middle","medium","True","False",275,5350,NA
"A39KUEDR8ZS1CF","Fri Sep 18 2020 08:19:01 GMT-0700 (Pacific Daylight Time)","Fri Sep 18 2020 08:26:55 GMT-0700 (Pacific Daylight Time)","Mozilla/5.0 (Windows NT 10.0; Win64; x64) AppleWebKit/537.36 (KHTML, like Gecko) Chrome/83.0.4103.97 Safari/537.36",116,"[0.9, 0.5, 0.1]","[0.8, 0.4, 0.2]","[u'black', u'red', u'blue']","[u'left', u'middle', u'right']","[0.8, 0.4, 0.2]","[u'low', u'medium', u'high']","red",50,"middle","medium","False","False",251,5300,NA
"A39KUEDR8ZS1CF","Fri Sep 18 2020 08:19:01 GMT-0700 (Pacific Daylight Time)","Fri Sep 18 2020 08:26:55 GMT-0700 (Pacific Daylight Time)","Mozilla/5.0 (Windows NT 10.0; Win64; x64) AppleWebKit/537.36 (KHTML, like Gecko) Chrome/83.0.4103.97 Safari/537.36",117,"[0.9, 0.5, 0.1]","[0.8, 0.4, 0.2]","[u'black', u'red', u'blue']","[u'left', u'middle', u'right']","[0.8, 0.4, 0.2]","[u'low', u'medium', u'high']","blue",51,"right","high","True","False",265,5400,NA
"A39KUEDR8ZS1CF","Fri Sep 18 2020 08:19:01 GMT-0700 (Pacific Daylight Time)","Fri Sep 18 2020 08:26:55 GMT-0700 (Pacific Daylight Time)","Mozilla/5.0 (Windows NT 10.0; Win64; x64) AppleWebKit/537.36 (KHTML, like Gecko) Chrome/83.0.4103.97 Safari/537.36",118,"[0.9, 0.5, 0.1]","[0.8, 0.4, 0.2]","[u'black', u'red', u'blue']","[u'left', u'middle', u'right']","[0.8, 0.4, 0.2]","[u'low', u'medium', u'high']","blue",51,"right","high","True","False",288,5500,NA
"A39KUEDR8ZS1CF","Fri Sep 18 2020 08:19:01 GMT-0700 (Pacific Daylight Time)","Fri Sep 18 2020 08:26:55 GMT-0700 (Pacific Daylight Time)","Mozilla/5.0 (Windows NT 10.0; Win64; x64) AppleWebKit/537.36 (KHTML, like Gecko) Chrome/83.0.4103.97 Safari/537.36",119,"[0.9, 0.5, 0.1]","[0.8, 0.4, 0.2]","[u'black', u'red', u'blue']","[u'left', u'middle', u'right']","[0.8, 0.4, 0.2]","[u'low', u'medium', u'high']","blue",51,"right","high","True","False",300,5600,NA
"A39KUEDR8ZS1CF","Fri Sep 18 2020 08:19:01 GMT-0700 (Pacific Daylight Time)","Fri Sep 18 2020 08:26:55 GMT-0700 (Pacific Daylight Time)","Mozilla/5.0 (Windows NT 10.0; Win64; x64) AppleWebKit/537.36 (KHTML, like Gecko) Chrome/83.0.4103.97 Safari/537.36",120,"[0.9, 0.5, 0.1]","[0.8, 0.4, 0.2]","[u'black', u'red', u'blue']","[u'left', u'middle', u'right']","[0.8, 0.4, 0.2]","[u'low', u'medium', u'high']","blue",51,"right","high","True","False",294,5700,NA
"A39KUEDR8ZS1CF","Fri Sep 18 2020 08:19:01 GMT-0700 (Pacific Daylight Time)","Fri Sep 18 2020 08:26:55 GMT-0700 (Pacific Daylight Time)","Mozilla/5.0 (Windows NT 10.0; Win64; x64) AppleWebKit/537.36 (KHTML, like Gecko) Chrome/83.0.4103.97 Safari/537.36",121,"[0.9, 0.5, 0.1]","[0.8, 0.4, 0.2]","[u'black', u'red', u'blue']","[u'left', u'middle', u'right']","[0.8, 0.4, 0.2]","[u'high', u'low', u'medium']","blue",51,"right","medium","True","False",480,5800,NA
"A39KUEDR8ZS1CF","Fri Sep 18 2020 08:19:01 GMT-0700 (Pacific Daylight Time)","Fri Sep 18 2020 08:26:55 GMT-0700 (Pacific Daylight Time)","Mozilla/5.0 (Windows NT 10.0; Win64; x64) AppleWebKit/537.36 (KHTML, like Gecko) Chrome/83.0.4103.97 Safari/537.36",122,"[0.9, 0.5, 0.1]","[0.8, 0.4, 0.2]","[u'black', u'red', u'blue']","[u'left', u'middle', u'right']","[0.8, 0.4, 0.2]","[u'high', u'low', u'medium']","blue",51,"right","medium","False","False",388,5750,NA
"A39KUEDR8ZS1CF","Fri Sep 18 2020 08:19:01 GMT-0700 (Pacific Daylight Time)","Fri Sep 18 2020 08:26:55 GMT-0700 (Pacific Daylight Time)","Mozilla/5.0 (Windows NT 10.0; Win64; x64) AppleWebKit/537.36 (KHTML, like Gecko) Chrome/83.0.4103.97 Safari/537.36",123,"[0.9, 0.5, 0.1]","[0.8, 0.4, 0.2]","[u'black', u'red', u'blue']","[u'left', u'middle', u'right']","[0.8, 0.4, 0.2]","[u'high', u'low', u'medium']","black",49,"left","high","True","False",276,5850,NA
"A39KUEDR8ZS1CF","Fri Sep 18 2020 08:19:01 GMT-0700 (Pacific Daylight Time)","Fri Sep 18 2020 08:26:55 GMT-0700 (Pacific Daylight Time)","Mozilla/5.0 (Windows NT 10.0; Win64; x64) AppleWebKit/537.36 (KHTML, like Gecko) Chrome/83.0.4103.97 Safari/537.36",124,"[0.9, 0.5, 0.1]","[0.8, 0.4, 0.2]","[u'black', u'red', u'blue']","[u'left', u'middle', u'right']","[0.8, 0.4, 0.2]","[u'high', u'low', u'medium']","black",49,"left","high","False","False",252,5800,NA
"A39KUEDR8ZS1CF","Fri Sep 18 2020 08:19:01 GMT-0700 (Pacific Daylight Time)","Fri Sep 18 2020 08:26:55 GMT-0700 (Pacific Daylight Time)","Mozilla/5.0 (Windows NT 10.0; Win64; x64) AppleWebKit/537.36 (KHTML, like Gecko) Chrome/83.0.4103.97 Safari/537.36",125,"[0.9, 0.5, 0.1]","[0.8, 0.4, 0.2]","[u'black', u'red', u'blue']","[u'left', u'middle', u'right']","[0.8, 0.4, 0.2]","[u'high', u'low', u'medium']","red",50,"middle","low","False","False",258,5750,NA
"A39KUEDR8ZS1CF","Fri Sep 18 2020 08:19:01 GMT-0700 (Pacific Daylight Time)","Fri Sep 18 2020 08:26:55 GMT-0700 (Pacific Daylight Time)","Mozilla/5.0 (Windows NT 10.0; Win64; x64) AppleWebKit/537.36 (KHTML, like Gecko) Chrome/83.0.4103.97 Safari/537.36",126,"[0.9, 0.5, 0.1]","[0.8, 0.4, 0.2]","[u'black', u'red', u'blue']","[u'left', u'middle', u'right']","[0.8, 0.4, 0.2]","[u'high', u'low', u'medium']","blue",51,"right","medium","True","False",118,5850,NA
"A39KUEDR8ZS1CF","Fri Sep 18 2020 08:19:01 GMT-0700 (Pacific Daylight Time)","Fri Sep 18 2020 08:26:55 GMT-0700 (Pacific Daylight Time)","Mozilla/5.0 (Windows NT 10.0; Win64; x64) AppleWebKit/537.36 (KHTML, like Gecko) Chrome/83.0.4103.97 Safari/537.36",127,"[0.9, 0.5, 0.1]","[0.8, 0.4, 0.2]","[u'black', u'red', u'blue']","[u'left', u'middle', u'right']","[0.8, 0.4, 0.2]","[u'high', u'low', u'medium']","blue",51,"right","medium","True","False",260,5950,NA
"A39KUEDR8ZS1CF","Fri Sep 18 2020 08:19:01 GMT-0700 (Pacific Daylight Time)","Fri Sep 18 2020 08:26:55 GMT-0700 (Pacific Daylight Time)","Mozilla/5.0 (Windows NT 10.0; Win64; x64) AppleWebKit/537.36 (KHTML, like Gecko) Chrome/83.0.4103.97 Safari/537.36",128,"[0.9, 0.5, 0.1]","[0.8, 0.4, 0.2]","[u'black', u'red', u'blue']","[u'left', u'middle', u'right']","[0.8, 0.4, 0.2]","[u'high', u'low', u'medium']","blue",51,"right","medium","True","False",284,6050,NA
"A39KUEDR8ZS1CF","Fri Sep 18 2020 08:19:01 GMT-0700 (Pacific Daylight Time)","Fri Sep 18 2020 08:26:55 GMT-0700 (Pacific Daylight Time)","Mozilla/5.0 (Windows NT 10.0; Win64; x64) AppleWebKit/537.36 (KHTML, like Gecko) Chrome/83.0.4103.97 Safari/537.36",129,"[0.9, 0.5, 0.1]","[0.8, 0.4, 0.2]","[u'black', u'red', u'blue']","[u'left', u'middle', u'right']","[0.8, 0.4, 0.2]","[u'high', u'low', u'medium']","blue",51,"right","medium","False","False",309,6000,NA
"A39KUEDR8ZS1CF","Fri Sep 18 2020 08:19:01 GMT-0700 (Pacific Daylight Time)","Fri Sep 18 2020 08:26:55 GMT-0700 (Pacific Daylight Time)","Mozilla/5.0 (Windows NT 10.0; Win64; x64) AppleWebKit/537.36 (KHTML, like Gecko) Chrome/83.0.4103.97 Safari/537.36",130,"[0.9, 0.5, 0.1]","[0.8, 0.4, 0.2]","[u'black', u'red', u'blue']","[u'left', u'middle', u'right']","[0.8, 0.4, 0.2]","[u'high', u'low', u'medium']","black",49,"left","high","True","False",965,6100,NA
"A39KUEDR8ZS1CF","Fri Sep 18 2020 08:19:01 GMT-0700 (Pacific Daylight Time)","Fri Sep 18 2020 08:26:55 GMT-0700 (Pacific Daylight Time)","Mozilla/5.0 (Windows NT 10.0; Win64; x64) AppleWebKit/537.36 (KHTML, like Gecko) Chrome/83.0.4103.97 Safari/537.36",131,"[0.9, 0.5, 0.1]","[0.8, 0.4, 0.2]","[u'black', u'red', u'blue']","[u'left', u'middle', u'right']","[0.8, 0.4, 0.2]","[u'high', u'low', u'medium']","black",49,"left","high","True","False",11,6200,NA
"A39KUEDR8ZS1CF","Fri Sep 18 2020 08:19:01 GMT-0700 (Pacific Daylight Time)","Fri Sep 18 2020 08:26:55 GMT-0700 (Pacific Daylight Time)","Mozilla/5.0 (Windows NT 10.0; Win64; x64) AppleWebKit/537.36 (KHTML, like Gecko) Chrome/83.0.4103.97 Safari/537.36",132,"[0.9, 0.5, 0.1]","[0.8, 0.4, 0.2]","[u'black', u'red', u'blue']","[u'left', u'middle', u'right']","[0.8, 0.4, 0.2]","[u'high', u'low', u'medium']","black",49,"left","high","True","False",281,6300,NA
"A39KUEDR8ZS1CF","Fri Sep 18 2020 08:19:01 GMT-0700 (Pacific Daylight Time)","Fri Sep 18 2020 08:26:55 GMT-0700 (Pacific Daylight Time)","Mozilla/5.0 (Windows NT 10.0; Win64; x64) AppleWebKit/537.36 (KHTML, like Gecko) Chrome/83.0.4103.97 Safari/537.36",133,"[0.9, 0.5, 0.1]","[0.8, 0.4, 0.2]","[u'black', u'red', u'blue']","[u'left', u'middle', u'right']","[0.8, 0.4, 0.2]","[u'high', u'low', u'medium']","black",49,"left","high","True","False",266,6400,NA
"A39KUEDR8ZS1CF","Fri Sep 18 2020 08:19:01 GMT-0700 (Pacific Daylight Time)","Fri Sep 18 2020 08:26:55 GMT-0700 (Pacific Daylight Time)","Mozilla/5.0 (Windows NT 10.0; Win64; x64) AppleWebKit/537.36 (KHTML, like Gecko) Chrome/83.0.4103.97 Safari/537.36",134,"[0.9, 0.5, 0.1]","[0.8, 0.4, 0.2]","[u'black', u'red', u'blue']","[u'left', u'middle', u'right']","[0.8, 0.4, 0.2]","[u'high', u'low', u'medium']","black",49,"left","high","True","False",257,6500,NA
"A39KUEDR8ZS1CF","Fri Sep 18 2020 08:19:01 GMT-0700 (Pacific Daylight Time)","Fri Sep 18 2020 08:26:55 GMT-0700 (Pacific Daylight Time)","Mozilla/5.0 (Windows NT 10.0; Win64; x64) AppleWebKit/537.36 (KHTML, like Gecko) Chrome/83.0.4103.97 Safari/537.36",135,"[0.9, 0.5, 0.1]","[0.8, 0.4, 0.2]","[u'black', u'red', u'blue']","[u'left', u'middle', u'right']","[0.8, 0.4, 0.2]","[u'high', u'low', u'medium']","black",49,"left","high","True","False",285,6600,NA
"A39KUEDR8ZS1CF","Fri Sep 18 2020 08:19:01 GMT-0700 (Pacific Daylight Time)","Fri Sep 18 2020 08:26:55 GMT-0700 (Pacific Daylight Time)","Mozilla/5.0 (Windows NT 10.0; Win64; x64) AppleWebKit/537.36 (KHTML, like Gecko) Chrome/83.0.4103.97 Safari/537.36",136,"[0.9, 0.5, 0.1]","[0.8, 0.4, 0.2]","[u'black', u'red', u'blue']","[u'left', u'middle', u'right']","[0.8, 0.4, 0.2]","[u'high', u'low', u'medium']","black",49,"left","high","True","False",304,6700,NA
"A39KUEDR8ZS1CF","Fri Sep 18 2020 08:19:01 GMT-0700 (Pacific Daylight Time)","Fri Sep 18 2020 08:26:55 GMT-0700 (Pacific Daylight Time)","Mozilla/5.0 (Windows NT 10.0; Win64; x64) AppleWebKit/537.36 (KHTML, like Gecko) Chrome/83.0.4103.97 Safari/537.36",137,"[0.9, 0.5, 0.1]","[0.8, 0.4, 0.2]","[u'black', u'red', u'blue']","[u'left', u'middle', u'right']","[0.8, 0.4, 0.2]","[u'high', u'low', u'medium']","black",49,"left","high","True","False",738,6800,NA
"A39KUEDR8ZS1CF","Fri Sep 18 2020 08:19:01 GMT-0700 (Pacific Daylight Time)","Fri Sep 18 2020 08:26:55 GMT-0700 (Pacific Daylight Time)","Mozilla/5.0 (Windows NT 10.0; Win64; x64) AppleWebKit/537.36 (KHTML, like Gecko) Chrome/83.0.4103.97 Safari/537.36",138,"[0.9, 0.5, 0.1]","[0.8, 0.4, 0.2]","[u'black', u'red', u'blue']","[u'left', u'middle', u'right']","[0.8, 0.4, 0.2]","[u'high', u'low', u'medium']","black",49,"left","high","False","True",274,6750,NA
"A39KUEDR8ZS1CF","Fri Sep 18 2020 08:19:01 GMT-0700 (Pacific Daylight Time)","Fri Sep 18 2020 08:26:55 GMT-0700 (Pacific Daylight Time)","Mozilla/5.0 (Windows NT 10.0; Win64; x64) AppleWebKit/537.36 (KHTML, like Gecko) Chrome/83.0.4103.97 Safari/537.36",139,"[0.9, 0.5, 0.1]","[0.8, 0.4, 0.2]","[u'black', u'red', u'blue']","[u'left', u'middle', u'right']","[0.8, 0.4, 0.2]","[u'low', u'high', u'medium']","red",50,"middle","high","True","False",121,6850,NA
"A39KUEDR8ZS1CF","Fri Sep 18 2020 08:19:01 GMT-0700 (Pacific Daylight Time)","Fri Sep 18 2020 08:26:55 GMT-0700 (Pacific Daylight Time)","Mozilla/5.0 (Windows NT 10.0; Win64; x64) AppleWebKit/537.36 (KHTML, like Gecko) Chrome/83.0.4103.97 Safari/537.36",140,"[0.9, 0.5, 0.1]","[0.8, 0.4, 0.2]","[u'black', u'red', u'blue']","[u'left', u'middle', u'right']","[0.8, 0.4, 0.2]","[u'low', u'high', u'medium']","red",50,"middle","high","True","False",281,6950,NA
"A39KUEDR8ZS1CF","Fri Sep 18 2020 08:19:01 GMT-0700 (Pacific Daylight Time)","Fri Sep 18 2020 08:26:55 GMT-0700 (Pacific Daylight Time)","Mozilla/5.0 (Windows NT 10.0; Win64; x64) AppleWebKit/537.36 (KHTML, like Gecko) Chrome/83.0.4103.97 Safari/537.36",141,"[0.9, 0.5, 0.1]","[0.8, 0.4, 0.2]","[u'black', u'red', u'blue']","[u'left', u'middle', u'right']","[0.8, 0.4, 0.2]","[u'low', u'high', u'medium']","red",50,"middle","high","True","False",256,7050,NA
"A39KUEDR8ZS1CF","Fri Sep 18 2020 08:19:01 GMT-0700 (Pacific Daylight Time)","Fri Sep 18 2020 08:26:55 GMT-0700 (Pacific Daylight Time)","Mozilla/5.0 (Windows NT 10.0; Win64; x64) AppleWebKit/537.36 (KHTML, like Gecko) Chrome/83.0.4103.97 Safari/537.36",142,"[0.9, 0.5, 0.1]","[0.8, 0.4, 0.2]","[u'black', u'red', u'blue']","[u'left', u'middle', u'right']","[0.8, 0.4, 0.2]","[u'low', u'high', u'medium']","red",50,"middle","high","True","False",225,7150,NA
"A39KUEDR8ZS1CF","Fri Sep 18 2020 08:19:01 GMT-0700 (Pacific Daylight Time)","Fri Sep 18 2020 08:26:55 GMT-0700 (Pacific Daylight Time)","Mozilla/5.0 (Windows NT 10.0; Win64; x64) AppleWebKit/537.36 (KHTML, like Gecko) Chrome/83.0.4103.97 Safari/537.36",143,"[0.9, 0.5, 0.1]","[0.8, 0.4, 0.2]","[u'black', u'red', u'blue']","[u'left', u'middle', u'right']","[0.8, 0.4, 0.2]","[u'low', u'high', u'medium']","red",50,"middle","high","True","False",164,7250,NA
"A39KUEDR8ZS1CF","Fri Sep 18 2020 08:19:01 GMT-0700 (Pacific Daylight Time)","Fri Sep 18 2020 08:26:55 GMT-0700 (Pacific Daylight Time)","Mozilla/5.0 (Windows NT 10.0; Win64; x64) AppleWebKit/537.36 (KHTML, like Gecko) Chrome/83.0.4103.97 Safari/537.36",144,"[0.9, 0.5, 0.1]","[0.8, 0.4, 0.2]","[u'black', u'red', u'blue']","[u'left', u'middle', u'right']","[0.8, 0.4, 0.2]","[u'low', u'high', u'medium']","red",50,"middle","high","False","False",151,7200,NA
"A39KUEDR8ZS1CF","Fri Sep 18 2020 08:19:01 GMT-0700 (Pacific Daylight Time)","Fri Sep 18 2020 08:26:55 GMT-0700 (Pacific Daylight Time)","Mozilla/5.0 (Windows NT 10.0; Win64; x64) AppleWebKit/537.36 (KHTML, like Gecko) Chrome/83.0.4103.97 Safari/537.36",145,"[0.9, 0.5, 0.1]","[0.8, 0.4, 0.2]","[u'black', u'red', u'blue']","[u'left', u'middle', u'right']","[0.8, 0.4, 0.2]","[u'low', u'high', u'medium']","black",49,"left","low","False","False",99,7150,NA
"A39KUEDR8ZS1CF","Fri Sep 18 2020 08:19:01 GMT-0700 (Pacific Daylight Time)","Fri Sep 18 2020 08:26:55 GMT-0700 (Pacific Daylight Time)","Mozilla/5.0 (Windows NT 10.0; Win64; x64) AppleWebKit/537.36 (KHTML, like Gecko) Chrome/83.0.4103.97 Safari/537.36",146,"[0.9, 0.5, 0.1]","[0.8, 0.4, 0.2]","[u'black', u'red', u'blue']","[u'left', u'middle', u'right']","[0.8, 0.4, 0.2]","[u'low', u'high', u'medium']","blue",51,"right","medium","False","False",26,7100,NA
"A39KUEDR8ZS1CF","Fri Sep 18 2020 08:19:01 GMT-0700 (Pacific Daylight Time)","Fri Sep 18 2020 08:26:55 GMT-0700 (Pacific Daylight Time)","Mozilla/5.0 (Windows NT 10.0; Win64; x64) AppleWebKit/537.36 (KHTML, like Gecko) Chrome/83.0.4103.97 Safari/537.36",147,"[0.9, 0.5, 0.1]","[0.8, 0.4, 0.2]","[u'black', u'red', u'blue']","[u'left', u'middle', u'right']","[0.8, 0.4, 0.2]","[u'low', u'high', u'medium']","red",50,"middle","high","True","False",37,7200,NA
"A39KUEDR8ZS1CF","Fri Sep 18 2020 08:19:01 GMT-0700 (Pacific Daylight Time)","Fri Sep 18 2020 08:26:55 GMT-0700 (Pacific Daylight Time)","Mozilla/5.0 (Windows NT 10.0; Win64; x64) AppleWebKit/537.36 (KHTML, like Gecko) Chrome/83.0.4103.97 Safari/537.36",148,"[0.9, 0.5, 0.1]","[0.8, 0.4, 0.2]","[u'black', u'red', u'blue']","[u'left', u'middle', u'right']","[0.8, 0.4, 0.2]","[u'low', u'high', u'medium']","red",50,"middle","high","True","False",254,7300,NA
"A39KUEDR8ZS1CF","Fri Sep 18 2020 08:19:01 GMT-0700 (Pacific Daylight Time)","Fri Sep 18 2020 08:26:55 GMT-0700 (Pacific Daylight Time)","Mozilla/5.0 (Windows NT 10.0; Win64; x64) AppleWebKit/537.36 (KHTML, like Gecko) Chrome/83.0.4103.97 Safari/537.36",149,"[0.9, 0.5, 0.1]","[0.8, 0.4, 0.2]","[u'black', u'red', u'blue']","[u'left', u'middle', u'right']","[0.8, 0.4, 0.2]","[u'low', u'high', u'medium']","red",50,"middle","high","False","False",279,7250,NA
"A39KUEDR8ZS1CF","Fri Sep 18 2020 08:19:01 GMT-0700 (Pacific Daylight Time)","Fri Sep 18 2020 08:26:55 GMT-0700 (Pacific Daylight Time)","Mozilla/5.0 (Windows NT 10.0; Win64; x64) AppleWebKit/537.36 (KHTML, like Gecko) Chrome/83.0.4103.97 Safari/537.36",150,"[0.9, 0.5, 0.1]","[0.8, 0.4, 0.2]","[u'black', u'red', u'blue']","[u'left', u'middle', u'right']","[0.8, 0.4, 0.2]","[u'low', u'high', u'medium']","black",49,"left","low","False","False",41,7200,NA
"A39KUEDR8ZS1CF","Fri Sep 18 2020 08:19:01 GMT-0700 (Pacific Daylight Time)","Fri Sep 18 2020 08:26:55 GMT-0700 (Pacific Daylight Time)","Mozilla/5.0 (Windows NT 10.0; Win64; x64) AppleWebKit/537.36 (KHTML, like Gecko) Chrome/83.0.4103.97 Safari/537.36",151,"[0.9, 0.5, 0.1]","[0.8, 0.4, 0.2]","[u'black', u'red', u'blue']","[u'left', u'middle', u'right']","[0.8, 0.4, 0.2]","[u'low', u'high', u'medium']","blue",51,"right","medium","False","False",400,7150,NA
"A39KUEDR8ZS1CF","Fri Sep 18 2020 08:19:01 GMT-0700 (Pacific Daylight Time)","Fri Sep 18 2020 08:26:55 GMT-0700 (Pacific Daylight Time)","Mozilla/5.0 (Windows NT 10.0; Win64; x64) AppleWebKit/537.36 (KHTML, like Gecko) Chrome/83.0.4103.97 Safari/537.36",152,"[0.9, 0.5, 0.1]","[0.8, 0.4, 0.2]","[u'black', u'red', u'blue']","[u'left', u'middle', u'right']","[0.8, 0.4, 0.2]","[u'low', u'high', u'medium']","black",49,"left","low","False","False",232,7100,NA
"A39KUEDR8ZS1CF","Fri Sep 18 2020 08:19:01 GMT-0700 (Pacific Daylight Time)","Fri Sep 18 2020 08:26:55 GMT-0700 (Pacific Daylight Time)","Mozilla/5.0 (Windows NT 10.0; Win64; x64) AppleWebKit/537.36 (KHTML, like Gecko) Chrome/83.0.4103.97 Safari/537.36",153,"[0.9, 0.5, 0.1]","[0.8, 0.4, 0.2]","[u'black', u'red', u'blue']","[u'left', u'middle', u'right']","[0.8, 0.4, 0.2]","[u'low', u'high', u'medium']","red",50,"middle","high","False","False",256,7050,NA
"A39KUEDR8ZS1CF","Fri Sep 18 2020 08:19:01 GMT-0700 (Pacific Daylight Time)","Fri Sep 18 2020 08:26:55 GMT-0700 (Pacific Daylight Time)","Mozilla/5.0 (Windows NT 10.0; Win64; x64) AppleWebKit/537.36 (KHTML, like Gecko) Chrome/83.0.4103.97 Safari/537.36",154,"[0.9, 0.5, 0.1]","[0.8, 0.4, 0.2]","[u'black', u'red', u'blue']","[u'left', u'middle', u'right']","[0.8, 0.4, 0.2]","[u'low', u'high', u'medium']","blue",51,"right","medium","False","False",256,7000,NA
"A39KUEDR8ZS1CF","Fri Sep 18 2020 08:19:01 GMT-0700 (Pacific Daylight Time)","Fri Sep 18 2020 08:26:55 GMT-0700 (Pacific Daylight Time)","Mozilla/5.0 (Windows NT 10.0; Win64; x64) AppleWebKit/537.36 (KHTML, like Gecko) Chrome/83.0.4103.97 Safari/537.36",155,"[0.9, 0.5, 0.1]","[0.8, 0.4, 0.2]","[u'black', u'red', u'blue']","[u'left', u'middle', u'right']","[0.8, 0.4, 0.2]","[u'low', u'high', u'medium']","blue",51,"right","medium","False","False",646,6950,NA
"A39KUEDR8ZS1CF","Fri Sep 18 2020 08:19:01 GMT-0700 (Pacific Daylight Time)","Fri Sep 18 2020 08:26:55 GMT-0700 (Pacific Daylight Time)","Mozilla/5.0 (Windows NT 10.0; Win64; x64) AppleWebKit/537.36 (KHTML, like Gecko) Chrome/83.0.4103.97 Safari/537.36",156,"[0.9, 0.5, 0.1]","[0.8, 0.4, 0.2]","[u'black', u'red', u'blue']","[u'left', u'middle', u'right']","[0.8, 0.4, 0.2]","[u'low', u'high', u'medium']","black",49,"left","low","True","False",271,7050,NA
"A39KUEDR8ZS1CF","Fri Sep 18 2020 08:19:01 GMT-0700 (Pacific Daylight Time)","Fri Sep 18 2020 08:26:55 GMT-0700 (Pacific Daylight Time)","Mozilla/5.0 (Windows NT 10.0; Win64; x64) AppleWebKit/537.36 (KHTML, like Gecko) Chrome/83.0.4103.97 Safari/537.36",157,"[0.9, 0.5, 0.1]","[0.8, 0.4, 0.2]","[u'black', u'red', u'blue']","[u'left', u'middle', u'right']","[0.8, 0.4, 0.2]","[u'low', u'high', u'medium']","black",49,"left","low","False","False",253,7000,NA
"A39KUEDR8ZS1CF","Fri Sep 18 2020 08:19:01 GMT-0700 (Pacific Daylight Time)","Fri Sep 18 2020 08:26:55 GMT-0700 (Pacific Daylight Time)","Mozilla/5.0 (Windows NT 10.0; Win64; x64) AppleWebKit/537.36 (KHTML, like Gecko) Chrome/83.0.4103.97 Safari/537.36",158,"[0.9, 0.5, 0.1]","[0.8, 0.4, 0.2]","[u'black', u'red', u'blue']","[u'left', u'middle', u'right']","[0.8, 0.4, 0.2]","[u'low', u'high', u'medium']","blue",51,"right","medium","True","False",665,7100,NA
"A39KUEDR8ZS1CF","Fri Sep 18 2020 08:19:01 GMT-0700 (Pacific Daylight Time)","Fri Sep 18 2020 08:26:55 GMT-0700 (Pacific Daylight Time)","Mozilla/5.0 (Windows NT 10.0; Win64; x64) AppleWebKit/537.36 (KHTML, like Gecko) Chrome/83.0.4103.97 Safari/537.36",159,"[0.9, 0.5, 0.1]","[0.8, 0.4, 0.2]","[u'black', u'red', u'blue']","[u'left', u'middle', u'right']","[0.8, 0.4, 0.2]","[u'low', u'high', u'medium']","black",49,"left","low","False","False",239,7050,NA
"A39KUEDR8ZS1CF","Fri Sep 18 2020 08:19:01 GMT-0700 (Pacific Daylight Time)","Fri Sep 18 2020 08:26:55 GMT-0700 (Pacific Daylight Time)","Mozilla/5.0 (Windows NT 10.0; Win64; x64) AppleWebKit/537.36 (KHTML, like Gecko) Chrome/83.0.4103.97 Safari/537.36",160,"[0.9, 0.5, 0.1]","[0.8, 0.4, 0.2]","[u'black', u'red', u'blue']","[u'left', u'middle', u'right']","[0.8, 0.4, 0.2]","[u'low', u'high', u'medium']","blue",51,"right","medium","False","False",926,7000,NA
