"src_subject_id","start_time","end_time","browser","index","first_half_probabilities","second_half_probabilities","deck_color","deck_position","deck_probabilities","deck_contingencies","response_color","key_press","response_position","response_probability","reward_type","trial_type","rt","reward_tally","exclusion_reason"
"A2M3FPQF852HW4","Fri Sep 18 2020 09:19:23 GMT-0600 (Mountain Daylight Time)","Fri Sep 18 2020 09:25:52 GMT-0600 (Mountain Daylight Time)","Mozilla/5.0 (Windows NT 10.0; Win64; x64) AppleWebKit/537.36 (KHTML, like Gecko) Chrome/85.0.4183.102 Safari/537.36",1,"[0.9, 0.5, 0.1]","[0.8, 0.4, 0.2]","[u'blue', u'red', u'black']","[u'left', u'middle', u'right']","[0.9, 0.5, 0.1]","[u'high', u'low', u'medium']","blue",49,"left","high","True","False",1221,100,NA
"A2M3FPQF852HW4","Fri Sep 18 2020 09:19:23 GMT-0600 (Mountain Daylight Time)","Fri Sep 18 2020 09:25:52 GMT-0600 (Mountain Daylight Time)","Mozilla/5.0 (Windows NT 10.0; Win64; x64) AppleWebKit/537.36 (KHTML, like Gecko) Chrome/85.0.4183.102 Safari/537.36",2,"[0.9, 0.5, 0.1]","[0.8, 0.4, 0.2]","[u'blue', u'red', u'black']","[u'left', u'middle', u'right']","[0.9, 0.5, 0.1]","[u'high', u'low', u'medium']","blue",49,"left","high","False","False",432,50,NA
"A2M3FPQF852HW4","Fri Sep 18 2020 09:19:23 GMT-0600 (Mountain Daylight Time)","Fri Sep 18 2020 09:25:52 GMT-0600 (Mountain Daylight Time)","Mozilla/5.0 (Windows NT 10.0; Win64; x64) AppleWebKit/537.36 (KHTML, like Gecko) Chrome/85.0.4183.102 Safari/537.36",3,"[0.9, 0.5, 0.1]","[0.8, 0.4, 0.2]","[u'blue', u'red', u'black']","[u'left', u'middle', u'right']","[0.9, 0.5, 0.1]","[u'high', u'low', u'medium']","blue",49,"left","high","True","False",321,150,NA
"A2M3FPQF852HW4","Fri Sep 18 2020 09:19:23 GMT-0600 (Mountain Daylight Time)","Fri Sep 18 2020 09:25:52 GMT-0600 (Mountain Daylight Time)","Mozilla/5.0 (Windows NT 10.0; Win64; x64) AppleWebKit/537.36 (KHTML, like Gecko) Chrome/85.0.4183.102 Safari/537.36",4,"[0.9, 0.5, 0.1]","[0.8, 0.4, 0.2]","[u'blue', u'red', u'black']","[u'left', u'middle', u'right']","[0.9, 0.5, 0.1]","[u'high', u'low', u'medium']","blue",49,"left","high","True","False",316,250,NA
"A2M3FPQF852HW4","Fri Sep 18 2020 09:19:23 GMT-0600 (Mountain Daylight Time)","Fri Sep 18 2020 09:25:52 GMT-0600 (Mountain Daylight Time)","Mozilla/5.0 (Windows NT 10.0; Win64; x64) AppleWebKit/537.36 (KHTML, like Gecko) Chrome/85.0.4183.102 Safari/537.36",5,"[0.9, 0.5, 0.1]","[0.8, 0.4, 0.2]","[u'blue', u'red', u'black']","[u'left', u'middle', u'right']","[0.9, 0.5, 0.1]","[u'high', u'low', u'medium']","blue",49,"left","high","True","False",305,350,NA
"A2M3FPQF852HW4","Fri Sep 18 2020 09:19:23 GMT-0600 (Mountain Daylight Time)","Fri Sep 18 2020 09:25:52 GMT-0600 (Mountain Daylight Time)","Mozilla/5.0 (Windows NT 10.0; Win64; x64) AppleWebKit/537.36 (KHTML, like Gecko) Chrome/85.0.4183.102 Safari/537.36",6,"[0.9, 0.5, 0.1]","[0.8, 0.4, 0.2]","[u'blue', u'red', u'black']","[u'left', u'middle', u'right']","[0.9, 0.5, 0.1]","[u'high', u'low', u'medium']","blue",49,"left","high","True","False",293,450,NA
"A2M3FPQF852HW4","Fri Sep 18 2020 09:19:23 GMT-0600 (Mountain Daylight Time)","Fri Sep 18 2020 09:25:52 GMT-0600 (Mountain Daylight Time)","Mozilla/5.0 (Windows NT 10.0; Win64; x64) AppleWebKit/537.36 (KHTML, like Gecko) Chrome/85.0.4183.102 Safari/537.36",7,"[0.9, 0.5, 0.1]","[0.8, 0.4, 0.2]","[u'blue', u'red', u'black']","[u'left', u'middle', u'right']","[0.9, 0.5, 0.1]","[u'high', u'low', u'medium']","blue",49,"left","high","True","False",289,550,NA
"A2M3FPQF852HW4","Fri Sep 18 2020 09:19:23 GMT-0600 (Mountain Daylight Time)","Fri Sep 18 2020 09:25:52 GMT-0600 (Mountain Daylight Time)","Mozilla/5.0 (Windows NT 10.0; Win64; x64) AppleWebKit/537.36 (KHTML, like Gecko) Chrome/85.0.4183.102 Safari/537.36",8,"[0.9, 0.5, 0.1]","[0.8, 0.4, 0.2]","[u'blue', u'red', u'black']","[u'left', u'middle', u'right']","[0.9, 0.5, 0.1]","[u'high', u'low', u'medium']","blue",49,"left","high","True","False",269,650,NA
"A2M3FPQF852HW4","Fri Sep 18 2020 09:19:23 GMT-0600 (Mountain Daylight Time)","Fri Sep 18 2020 09:25:52 GMT-0600 (Mountain Daylight Time)","Mozilla/5.0 (Windows NT 10.0; Win64; x64) AppleWebKit/537.36 (KHTML, like Gecko) Chrome/85.0.4183.102 Safari/537.36",9,"[0.9, 0.5, 0.1]","[0.8, 0.4, 0.2]","[u'blue', u'red', u'black']","[u'left', u'middle', u'right']","[0.9, 0.5, 0.1]","[u'high', u'low', u'medium']","blue",49,"left","high","True","True",291,750,NA
"A2M3FPQF852HW4","Fri Sep 18 2020 09:19:23 GMT-0600 (Mountain Daylight Time)","Fri Sep 18 2020 09:25:52 GMT-0600 (Mountain Daylight Time)","Mozilla/5.0 (Windows NT 10.0; Win64; x64) AppleWebKit/537.36 (KHTML, like Gecko) Chrome/85.0.4183.102 Safari/537.36",10,"[0.9, 0.5, 0.1]","[0.8, 0.4, 0.2]","[u'blue', u'red', u'black']","[u'left', u'middle', u'right']","[0.9, 0.5, 0.1]","[u'medium', u'low', u'high']","blue",49,"left","medium","True","False",255,850,NA
"A2M3FPQF852HW4","Fri Sep 18 2020 09:19:23 GMT-0600 (Mountain Daylight Time)","Fri Sep 18 2020 09:25:52 GMT-0600 (Mountain Daylight Time)","Mozilla/5.0 (Windows NT 10.0; Win64; x64) AppleWebKit/537.36 (KHTML, like Gecko) Chrome/85.0.4183.102 Safari/537.36",11,"[0.9, 0.5, 0.1]","[0.8, 0.4, 0.2]","[u'blue', u'red', u'black']","[u'left', u'middle', u'right']","[0.9, 0.5, 0.1]","[u'medium', u'low', u'high']","blue",49,"left","medium","False","False",253,800,NA
"A2M3FPQF852HW4","Fri Sep 18 2020 09:19:23 GMT-0600 (Mountain Daylight Time)","Fri Sep 18 2020 09:25:52 GMT-0600 (Mountain Daylight Time)","Mozilla/5.0 (Windows NT 10.0; Win64; x64) AppleWebKit/537.36 (KHTML, like Gecko) Chrome/85.0.4183.102 Safari/537.36",12,"[0.9, 0.5, 0.1]","[0.8, 0.4, 0.2]","[u'blue', u'red', u'black']","[u'left', u'middle', u'right']","[0.9, 0.5, 0.1]","[u'medium', u'low', u'high']","blue",49,"left","medium","False","False",274,750,NA
"A2M3FPQF852HW4","Fri Sep 18 2020 09:19:23 GMT-0600 (Mountain Daylight Time)","Fri Sep 18 2020 09:25:52 GMT-0600 (Mountain Daylight Time)","Mozilla/5.0 (Windows NT 10.0; Win64; x64) AppleWebKit/537.36 (KHTML, like Gecko) Chrome/85.0.4183.102 Safari/537.36",13,"[0.9, 0.5, 0.1]","[0.8, 0.4, 0.2]","[u'blue', u'red', u'black']","[u'left', u'middle', u'right']","[0.9, 0.5, 0.1]","[u'medium', u'low', u'high']","blue",49,"left","medium","True","False",265,850,NA
"A2M3FPQF852HW4","Fri Sep 18 2020 09:19:23 GMT-0600 (Mountain Daylight Time)","Fri Sep 18 2020 09:25:52 GMT-0600 (Mountain Daylight Time)","Mozilla/5.0 (Windows NT 10.0; Win64; x64) AppleWebKit/537.36 (KHTML, like Gecko) Chrome/85.0.4183.102 Safari/537.36",14,"[0.9, 0.5, 0.1]","[0.8, 0.4, 0.2]","[u'blue', u'red', u'black']","[u'left', u'middle', u'right']","[0.9, 0.5, 0.1]","[u'medium', u'low', u'high']","blue",49,"left","medium","True","False",246,950,NA
"A2M3FPQF852HW4","Fri Sep 18 2020 09:19:23 GMT-0600 (Mountain Daylight Time)","Fri Sep 18 2020 09:25:52 GMT-0600 (Mountain Daylight Time)","Mozilla/5.0 (Windows NT 10.0; Win64; x64) AppleWebKit/537.36 (KHTML, like Gecko) Chrome/85.0.4183.102 Safari/537.36",15,"[0.9, 0.5, 0.1]","[0.8, 0.4, 0.2]","[u'blue', u'red', u'black']","[u'left', u'middle', u'right']","[0.9, 0.5, 0.1]","[u'medium', u'low', u'high']","blue",49,"left","medium","True","False",245,1050,NA
"A2M3FPQF852HW4","Fri Sep 18 2020 09:19:23 GMT-0600 (Mountain Daylight Time)","Fri Sep 18 2020 09:25:52 GMT-0600 (Mountain Daylight Time)","Mozilla/5.0 (Windows NT 10.0; Win64; x64) AppleWebKit/537.36 (KHTML, like Gecko) Chrome/85.0.4183.102 Safari/537.36",16,"[0.9, 0.5, 0.1]","[0.8, 0.4, 0.2]","[u'blue', u'red', u'black']","[u'left', u'middle', u'right']","[0.9, 0.5, 0.1]","[u'medium', u'low', u'high']","blue",49,"left","medium","False","False",235,1000,NA
"A2M3FPQF852HW4","Fri Sep 18 2020 09:19:23 GMT-0600 (Mountain Daylight Time)","Fri Sep 18 2020 09:25:52 GMT-0600 (Mountain Daylight Time)","Mozilla/5.0 (Windows NT 10.0; Win64; x64) AppleWebKit/537.36 (KHTML, like Gecko) Chrome/85.0.4183.102 Safari/537.36",17,"[0.9, 0.5, 0.1]","[0.8, 0.4, 0.2]","[u'blue', u'red', u'black']","[u'left', u'middle', u'right']","[0.9, 0.5, 0.1]","[u'medium', u'low', u'high']","blue",49,"left","medium","False","False",220,950,NA
"A2M3FPQF852HW4","Fri Sep 18 2020 09:19:23 GMT-0600 (Mountain Daylight Time)","Fri Sep 18 2020 09:25:52 GMT-0600 (Mountain Daylight Time)","Mozilla/5.0 (Windows NT 10.0; Win64; x64) AppleWebKit/537.36 (KHTML, like Gecko) Chrome/85.0.4183.102 Safari/537.36",18,"[0.9, 0.5, 0.1]","[0.8, 0.4, 0.2]","[u'blue', u'red', u'black']","[u'left', u'middle', u'right']","[0.9, 0.5, 0.1]","[u'medium', u'low', u'high']","blue",49,"left","medium","False","False",215,900,NA
"A2M3FPQF852HW4","Fri Sep 18 2020 09:19:23 GMT-0600 (Mountain Daylight Time)","Fri Sep 18 2020 09:25:52 GMT-0600 (Mountain Daylight Time)","Mozilla/5.0 (Windows NT 10.0; Win64; x64) AppleWebKit/537.36 (KHTML, like Gecko) Chrome/85.0.4183.102 Safari/537.36",19,"[0.9, 0.5, 0.1]","[0.8, 0.4, 0.2]","[u'blue', u'red', u'black']","[u'left', u'middle', u'right']","[0.9, 0.5, 0.1]","[u'medium', u'low', u'high']","blue",49,"left","medium","True","False",276,1000,NA
"A2M3FPQF852HW4","Fri Sep 18 2020 09:19:23 GMT-0600 (Mountain Daylight Time)","Fri Sep 18 2020 09:25:52 GMT-0600 (Mountain Daylight Time)","Mozilla/5.0 (Windows NT 10.0; Win64; x64) AppleWebKit/537.36 (KHTML, like Gecko) Chrome/85.0.4183.102 Safari/537.36",20,"[0.9, 0.5, 0.1]","[0.8, 0.4, 0.2]","[u'blue', u'red', u'black']","[u'left', u'middle', u'right']","[0.9, 0.5, 0.1]","[u'medium', u'low', u'high']","blue",49,"left","medium","False","False",243,950,NA
"A2M3FPQF852HW4","Fri Sep 18 2020 09:19:23 GMT-0600 (Mountain Daylight Time)","Fri Sep 18 2020 09:25:52 GMT-0600 (Mountain Daylight Time)","Mozilla/5.0 (Windows NT 10.0; Win64; x64) AppleWebKit/537.36 (KHTML, like Gecko) Chrome/85.0.4183.102 Safari/537.36",21,"[0.9, 0.5, 0.1]","[0.8, 0.4, 0.2]","[u'blue', u'red', u'black']","[u'left', u'middle', u'right']","[0.9, 0.5, 0.1]","[u'medium', u'low', u'high']","red",50,"middle","low","False","False",263,900,NA
"A2M3FPQF852HW4","Fri Sep 18 2020 09:19:23 GMT-0600 (Mountain Daylight Time)","Fri Sep 18 2020 09:25:52 GMT-0600 (Mountain Daylight Time)","Mozilla/5.0 (Windows NT 10.0; Win64; x64) AppleWebKit/537.36 (KHTML, like Gecko) Chrome/85.0.4183.102 Safari/537.36",22,"[0.9, 0.5, 0.1]","[0.8, 0.4, 0.2]","[u'blue', u'red', u'black']","[u'left', u'middle', u'right']","[0.9, 0.5, 0.1]","[u'medium', u'low', u'high']","black",51,"right","high","True","False",352,1000,NA
"A2M3FPQF852HW4","Fri Sep 18 2020 09:19:23 GMT-0600 (Mountain Daylight Time)","Fri Sep 18 2020 09:25:52 GMT-0600 (Mountain Daylight Time)","Mozilla/5.0 (Windows NT 10.0; Win64; x64) AppleWebKit/537.36 (KHTML, like Gecko) Chrome/85.0.4183.102 Safari/537.36",23,"[0.9, 0.5, 0.1]","[0.8, 0.4, 0.2]","[u'blue', u'red', u'black']","[u'left', u'middle', u'right']","[0.9, 0.5, 0.1]","[u'medium', u'low', u'high']","black",51,"right","high","True","False",259,1100,NA
"A2M3FPQF852HW4","Fri Sep 18 2020 09:19:23 GMT-0600 (Mountain Daylight Time)","Fri Sep 18 2020 09:25:52 GMT-0600 (Mountain Daylight Time)","Mozilla/5.0 (Windows NT 10.0; Win64; x64) AppleWebKit/537.36 (KHTML, like Gecko) Chrome/85.0.4183.102 Safari/537.36",24,"[0.9, 0.5, 0.1]","[0.8, 0.4, 0.2]","[u'blue', u'red', u'black']","[u'left', u'middle', u'right']","[0.9, 0.5, 0.1]","[u'medium', u'low', u'high']","black",51,"right","high","True","False",217,1200,NA
"A2M3FPQF852HW4","Fri Sep 18 2020 09:19:23 GMT-0600 (Mountain Daylight Time)","Fri Sep 18 2020 09:25:52 GMT-0600 (Mountain Daylight Time)","Mozilla/5.0 (Windows NT 10.0; Win64; x64) AppleWebKit/537.36 (KHTML, like Gecko) Chrome/85.0.4183.102 Safari/537.36",25,"[0.9, 0.5, 0.1]","[0.8, 0.4, 0.2]","[u'blue', u'red', u'black']","[u'left', u'middle', u'right']","[0.9, 0.5, 0.1]","[u'medium', u'low', u'high']","black",51,"right","high","False","False",253,1150,NA
"A2M3FPQF852HW4","Fri Sep 18 2020 09:19:23 GMT-0600 (Mountain Daylight Time)","Fri Sep 18 2020 09:25:52 GMT-0600 (Mountain Daylight Time)","Mozilla/5.0 (Windows NT 10.0; Win64; x64) AppleWebKit/537.36 (KHTML, like Gecko) Chrome/85.0.4183.102 Safari/537.36",26,"[0.9, 0.5, 0.1]","[0.8, 0.4, 0.2]","[u'blue', u'red', u'black']","[u'left', u'middle', u'right']","[0.9, 0.5, 0.1]","[u'medium', u'low', u'high']","black",51,"right","high","True","False",262,1250,NA
"A2M3FPQF852HW4","Fri Sep 18 2020 09:19:23 GMT-0600 (Mountain Daylight Time)","Fri Sep 18 2020 09:25:52 GMT-0600 (Mountain Daylight Time)","Mozilla/5.0 (Windows NT 10.0; Win64; x64) AppleWebKit/537.36 (KHTML, like Gecko) Chrome/85.0.4183.102 Safari/537.36",27,"[0.9, 0.5, 0.1]","[0.8, 0.4, 0.2]","[u'blue', u'red', u'black']","[u'left', u'middle', u'right']","[0.9, 0.5, 0.1]","[u'medium', u'low', u'high']","black",51,"right","high","True","False",217,1350,NA
"A2M3FPQF852HW4","Fri Sep 18 2020 09:19:23 GMT-0600 (Mountain Daylight Time)","Fri Sep 18 2020 09:25:52 GMT-0600 (Mountain Daylight Time)","Mozilla/5.0 (Windows NT 10.0; Win64; x64) AppleWebKit/537.36 (KHTML, like Gecko) Chrome/85.0.4183.102 Safari/537.36",28,"[0.9, 0.5, 0.1]","[0.8, 0.4, 0.2]","[u'blue', u'red', u'black']","[u'left', u'middle', u'right']","[0.9, 0.5, 0.1]","[u'medium', u'low', u'high']","black",51,"right","high","True","False",173,1450,NA
"A2M3FPQF852HW4","Fri Sep 18 2020 09:19:23 GMT-0600 (Mountain Daylight Time)","Fri Sep 18 2020 09:25:52 GMT-0600 (Mountain Daylight Time)","Mozilla/5.0 (Windows NT 10.0; Win64; x64) AppleWebKit/537.36 (KHTML, like Gecko) Chrome/85.0.4183.102 Safari/537.36",29,"[0.9, 0.5, 0.1]","[0.8, 0.4, 0.2]","[u'blue', u'red', u'black']","[u'left', u'middle', u'right']","[0.9, 0.5, 0.1]","[u'medium', u'low', u'high']","black",51,"right","high","False","False",154,1400,NA
"A2M3FPQF852HW4","Fri Sep 18 2020 09:19:23 GMT-0600 (Mountain Daylight Time)","Fri Sep 18 2020 09:25:52 GMT-0600 (Mountain Daylight Time)","Mozilla/5.0 (Windows NT 10.0; Win64; x64) AppleWebKit/537.36 (KHTML, like Gecko) Chrome/85.0.4183.102 Safari/537.36",30,"[0.9, 0.5, 0.1]","[0.8, 0.4, 0.2]","[u'blue', u'red', u'black']","[u'left', u'middle', u'right']","[0.9, 0.5, 0.1]","[u'medium', u'low', u'high']","black",51,"right","high","True","True",121,1500,NA
"A2M3FPQF852HW4","Fri Sep 18 2020 09:19:23 GMT-0600 (Mountain Daylight Time)","Fri Sep 18 2020 09:25:52 GMT-0600 (Mountain Daylight Time)","Mozilla/5.0 (Windows NT 10.0; Win64; x64) AppleWebKit/537.36 (KHTML, like Gecko) Chrome/85.0.4183.102 Safari/537.36",31,"[0.9, 0.5, 0.1]","[0.8, 0.4, 0.2]","[u'blue', u'red', u'black']","[u'left', u'middle', u'right']","[0.9, 0.5, 0.1]","[u'high', u'medium', u'low']","black",51,"right","low","False","False",157,1450,NA
"A2M3FPQF852HW4","Fri Sep 18 2020 09:19:23 GMT-0600 (Mountain Daylight Time)","Fri Sep 18 2020 09:25:52 GMT-0600 (Mountain Daylight Time)","Mozilla/5.0 (Windows NT 10.0; Win64; x64) AppleWebKit/537.36 (KHTML, like Gecko) Chrome/85.0.4183.102 Safari/537.36",32,"[0.9, 0.5, 0.1]","[0.8, 0.4, 0.2]","[u'blue', u'red', u'black']","[u'left', u'middle', u'right']","[0.9, 0.5, 0.1]","[u'high', u'medium', u'low']","black",51,"right","low","False","False",184,1400,NA
"A2M3FPQF852HW4","Fri Sep 18 2020 09:19:23 GMT-0600 (Mountain Daylight Time)","Fri Sep 18 2020 09:25:52 GMT-0600 (Mountain Daylight Time)","Mozilla/5.0 (Windows NT 10.0; Win64; x64) AppleWebKit/537.36 (KHTML, like Gecko) Chrome/85.0.4183.102 Safari/537.36",33,"[0.9, 0.5, 0.1]","[0.8, 0.4, 0.2]","[u'blue', u'red', u'black']","[u'left', u'middle', u'right']","[0.9, 0.5, 0.1]","[u'high', u'medium', u'low']","black",51,"right","low","False","False",225,1350,NA
"A2M3FPQF852HW4","Fri Sep 18 2020 09:19:23 GMT-0600 (Mountain Daylight Time)","Fri Sep 18 2020 09:25:52 GMT-0600 (Mountain Daylight Time)","Mozilla/5.0 (Windows NT 10.0; Win64; x64) AppleWebKit/537.36 (KHTML, like Gecko) Chrome/85.0.4183.102 Safari/537.36",34,"[0.9, 0.5, 0.1]","[0.8, 0.4, 0.2]","[u'blue', u'red', u'black']","[u'left', u'middle', u'right']","[0.9, 0.5, 0.1]","[u'high', u'medium', u'low']","red",50,"middle","medium","True","False",193,1450,NA
"A2M3FPQF852HW4","Fri Sep 18 2020 09:19:23 GMT-0600 (Mountain Daylight Time)","Fri Sep 18 2020 09:25:52 GMT-0600 (Mountain Daylight Time)","Mozilla/5.0 (Windows NT 10.0; Win64; x64) AppleWebKit/537.36 (KHTML, like Gecko) Chrome/85.0.4183.102 Safari/537.36",35,"[0.9, 0.5, 0.1]","[0.8, 0.4, 0.2]","[u'blue', u'red', u'black']","[u'left', u'middle', u'right']","[0.9, 0.5, 0.1]","[u'high', u'medium', u'low']","red",50,"middle","medium","True","False",234,1550,NA
"A2M3FPQF852HW4","Fri Sep 18 2020 09:19:23 GMT-0600 (Mountain Daylight Time)","Fri Sep 18 2020 09:25:52 GMT-0600 (Mountain Daylight Time)","Mozilla/5.0 (Windows NT 10.0; Win64; x64) AppleWebKit/537.36 (KHTML, like Gecko) Chrome/85.0.4183.102 Safari/537.36",36,"[0.9, 0.5, 0.1]","[0.8, 0.4, 0.2]","[u'blue', u'red', u'black']","[u'left', u'middle', u'right']","[0.9, 0.5, 0.1]","[u'high', u'medium', u'low']","red",50,"middle","medium","True","False",228,1650,NA
"A2M3FPQF852HW4","Fri Sep 18 2020 09:19:23 GMT-0600 (Mountain Daylight Time)","Fri Sep 18 2020 09:25:52 GMT-0600 (Mountain Daylight Time)","Mozilla/5.0 (Windows NT 10.0; Win64; x64) AppleWebKit/537.36 (KHTML, like Gecko) Chrome/85.0.4183.102 Safari/537.36",37,"[0.9, 0.5, 0.1]","[0.8, 0.4, 0.2]","[u'blue', u'red', u'black']","[u'left', u'middle', u'right']","[0.9, 0.5, 0.1]","[u'high', u'medium', u'low']","red",50,"middle","medium","True","False",240,1750,NA
"A2M3FPQF852HW4","Fri Sep 18 2020 09:19:23 GMT-0600 (Mountain Daylight Time)","Fri Sep 18 2020 09:25:52 GMT-0600 (Mountain Daylight Time)","Mozilla/5.0 (Windows NT 10.0; Win64; x64) AppleWebKit/537.36 (KHTML, like Gecko) Chrome/85.0.4183.102 Safari/537.36",38,"[0.9, 0.5, 0.1]","[0.8, 0.4, 0.2]","[u'blue', u'red', u'black']","[u'left', u'middle', u'right']","[0.9, 0.5, 0.1]","[u'high', u'medium', u'low']","red",50,"middle","medium","False","False",230,1700,NA
"A2M3FPQF852HW4","Fri Sep 18 2020 09:19:23 GMT-0600 (Mountain Daylight Time)","Fri Sep 18 2020 09:25:52 GMT-0600 (Mountain Daylight Time)","Mozilla/5.0 (Windows NT 10.0; Win64; x64) AppleWebKit/537.36 (KHTML, like Gecko) Chrome/85.0.4183.102 Safari/537.36",39,"[0.9, 0.5, 0.1]","[0.8, 0.4, 0.2]","[u'blue', u'red', u'black']","[u'left', u'middle', u'right']","[0.9, 0.5, 0.1]","[u'high', u'medium', u'low']","red",50,"middle","medium","True","False",209,1800,NA
"A2M3FPQF852HW4","Fri Sep 18 2020 09:19:23 GMT-0600 (Mountain Daylight Time)","Fri Sep 18 2020 09:25:52 GMT-0600 (Mountain Daylight Time)","Mozilla/5.0 (Windows NT 10.0; Win64; x64) AppleWebKit/537.36 (KHTML, like Gecko) Chrome/85.0.4183.102 Safari/537.36",40,"[0.9, 0.5, 0.1]","[0.8, 0.4, 0.2]","[u'blue', u'red', u'black']","[u'left', u'middle', u'right']","[0.9, 0.5, 0.1]","[u'high', u'medium', u'low']","red",50,"middle","medium","True","False",233,1900,NA
"A2M3FPQF852HW4","Fri Sep 18 2020 09:19:23 GMT-0600 (Mountain Daylight Time)","Fri Sep 18 2020 09:25:52 GMT-0600 (Mountain Daylight Time)","Mozilla/5.0 (Windows NT 10.0; Win64; x64) AppleWebKit/537.36 (KHTML, like Gecko) Chrome/85.0.4183.102 Safari/537.36",41,"[0.9, 0.5, 0.1]","[0.8, 0.4, 0.2]","[u'blue', u'red', u'black']","[u'left', u'middle', u'right']","[0.9, 0.5, 0.1]","[u'medium', u'low', u'high']","blue",49,"left","medium","True","False",446,2000,NA
"A2M3FPQF852HW4","Fri Sep 18 2020 09:19:23 GMT-0600 (Mountain Daylight Time)","Fri Sep 18 2020 09:25:52 GMT-0600 (Mountain Daylight Time)","Mozilla/5.0 (Windows NT 10.0; Win64; x64) AppleWebKit/537.36 (KHTML, like Gecko) Chrome/85.0.4183.102 Safari/537.36",42,"[0.9, 0.5, 0.1]","[0.8, 0.4, 0.2]","[u'blue', u'red', u'black']","[u'left', u'middle', u'right']","[0.9, 0.5, 0.1]","[u'medium', u'low', u'high']","blue",49,"left","medium","True","False",227,2100,NA
"A2M3FPQF852HW4","Fri Sep 18 2020 09:19:23 GMT-0600 (Mountain Daylight Time)","Fri Sep 18 2020 09:25:52 GMT-0600 (Mountain Daylight Time)","Mozilla/5.0 (Windows NT 10.0; Win64; x64) AppleWebKit/537.36 (KHTML, like Gecko) Chrome/85.0.4183.102 Safari/537.36",43,"[0.9, 0.5, 0.1]","[0.8, 0.4, 0.2]","[u'blue', u'red', u'black']","[u'left', u'middle', u'right']","[0.9, 0.5, 0.1]","[u'medium', u'low', u'high']","blue",49,"left","medium","True","False",219,2200,NA
"A2M3FPQF852HW4","Fri Sep 18 2020 09:19:23 GMT-0600 (Mountain Daylight Time)","Fri Sep 18 2020 09:25:52 GMT-0600 (Mountain Daylight Time)","Mozilla/5.0 (Windows NT 10.0; Win64; x64) AppleWebKit/537.36 (KHTML, like Gecko) Chrome/85.0.4183.102 Safari/537.36",44,"[0.9, 0.5, 0.1]","[0.8, 0.4, 0.2]","[u'blue', u'red', u'black']","[u'left', u'middle', u'right']","[0.9, 0.5, 0.1]","[u'medium', u'low', u'high']","blue",49,"left","medium","True","False",124,2300,NA
"A2M3FPQF852HW4","Fri Sep 18 2020 09:19:23 GMT-0600 (Mountain Daylight Time)","Fri Sep 18 2020 09:25:52 GMT-0600 (Mountain Daylight Time)","Mozilla/5.0 (Windows NT 10.0; Win64; x64) AppleWebKit/537.36 (KHTML, like Gecko) Chrome/85.0.4183.102 Safari/537.36",45,"[0.9, 0.5, 0.1]","[0.8, 0.4, 0.2]","[u'blue', u'red', u'black']","[u'left', u'middle', u'right']","[0.9, 0.5, 0.1]","[u'medium', u'low', u'high']","blue",49,"left","medium","True","False",195,2400,NA
"A2M3FPQF852HW4","Fri Sep 18 2020 09:19:23 GMT-0600 (Mountain Daylight Time)","Fri Sep 18 2020 09:25:52 GMT-0600 (Mountain Daylight Time)","Mozilla/5.0 (Windows NT 10.0; Win64; x64) AppleWebKit/537.36 (KHTML, like Gecko) Chrome/85.0.4183.102 Safari/537.36",46,"[0.9, 0.5, 0.1]","[0.8, 0.4, 0.2]","[u'blue', u'red', u'black']","[u'left', u'middle', u'right']","[0.9, 0.5, 0.1]","[u'medium', u'low', u'high']","blue",49,"left","medium","False","False",219,2350,NA
"A2M3FPQF852HW4","Fri Sep 18 2020 09:19:23 GMT-0600 (Mountain Daylight Time)","Fri Sep 18 2020 09:25:52 GMT-0600 (Mountain Daylight Time)","Mozilla/5.0 (Windows NT 10.0; Win64; x64) AppleWebKit/537.36 (KHTML, like Gecko) Chrome/85.0.4183.102 Safari/537.36",47,"[0.9, 0.5, 0.1]","[0.8, 0.4, 0.2]","[u'blue', u'red', u'black']","[u'left', u'middle', u'right']","[0.9, 0.5, 0.1]","[u'medium', u'low', u'high']","blue",49,"left","medium","False","False",127,2300,NA
"A2M3FPQF852HW4","Fri Sep 18 2020 09:19:23 GMT-0600 (Mountain Daylight Time)","Fri Sep 18 2020 09:25:52 GMT-0600 (Mountain Daylight Time)","Mozilla/5.0 (Windows NT 10.0; Win64; x64) AppleWebKit/537.36 (KHTML, like Gecko) Chrome/85.0.4183.102 Safari/537.36",48,"[0.9, 0.5, 0.1]","[0.8, 0.4, 0.2]","[u'blue', u'red', u'black']","[u'left', u'middle', u'right']","[0.9, 0.5, 0.1]","[u'medium', u'low', u'high']","red",50,"middle","low","False","False",406,2250,NA
"A2M3FPQF852HW4","Fri Sep 18 2020 09:19:23 GMT-0600 (Mountain Daylight Time)","Fri Sep 18 2020 09:25:52 GMT-0600 (Mountain Daylight Time)","Mozilla/5.0 (Windows NT 10.0; Win64; x64) AppleWebKit/537.36 (KHTML, like Gecko) Chrome/85.0.4183.102 Safari/537.36",49,"[0.9, 0.5, 0.1]","[0.8, 0.4, 0.2]","[u'blue', u'red', u'black']","[u'left', u'middle', u'right']","[0.9, 0.5, 0.1]","[u'medium', u'low', u'high']","black",51,"right","high","True","False",91,2350,NA
"A2M3FPQF852HW4","Fri Sep 18 2020 09:19:23 GMT-0600 (Mountain Daylight Time)","Fri Sep 18 2020 09:25:52 GMT-0600 (Mountain Daylight Time)","Mozilla/5.0 (Windows NT 10.0; Win64; x64) AppleWebKit/537.36 (KHTML, like Gecko) Chrome/85.0.4183.102 Safari/537.36",50,"[0.9, 0.5, 0.1]","[0.8, 0.4, 0.2]","[u'blue', u'red', u'black']","[u'left', u'middle', u'right']","[0.9, 0.5, 0.1]","[u'medium', u'low', u'high']","black",51,"right","high","True","False",217,2450,NA
"A2M3FPQF852HW4","Fri Sep 18 2020 09:19:23 GMT-0600 (Mountain Daylight Time)","Fri Sep 18 2020 09:25:52 GMT-0600 (Mountain Daylight Time)","Mozilla/5.0 (Windows NT 10.0; Win64; x64) AppleWebKit/537.36 (KHTML, like Gecko) Chrome/85.0.4183.102 Safari/537.36",51,"[0.9, 0.5, 0.1]","[0.8, 0.4, 0.2]","[u'blue', u'red', u'black']","[u'left', u'middle', u'right']","[0.9, 0.5, 0.1]","[u'medium', u'low', u'high']","black",51,"right","high","True","False",238,2550,NA
"A2M3FPQF852HW4","Fri Sep 18 2020 09:19:23 GMT-0600 (Mountain Daylight Time)","Fri Sep 18 2020 09:25:52 GMT-0600 (Mountain Daylight Time)","Mozilla/5.0 (Windows NT 10.0; Win64; x64) AppleWebKit/537.36 (KHTML, like Gecko) Chrome/85.0.4183.102 Safari/537.36",52,"[0.9, 0.5, 0.1]","[0.8, 0.4, 0.2]","[u'blue', u'red', u'black']","[u'left', u'middle', u'right']","[0.9, 0.5, 0.1]","[u'medium', u'low', u'high']","black",51,"right","high","True","False",149,2650,NA
"A2M3FPQF852HW4","Fri Sep 18 2020 09:19:23 GMT-0600 (Mountain Daylight Time)","Fri Sep 18 2020 09:25:52 GMT-0600 (Mountain Daylight Time)","Mozilla/5.0 (Windows NT 10.0; Win64; x64) AppleWebKit/537.36 (KHTML, like Gecko) Chrome/85.0.4183.102 Safari/537.36",53,"[0.9, 0.5, 0.1]","[0.8, 0.4, 0.2]","[u'blue', u'red', u'black']","[u'left', u'middle', u'right']","[0.9, 0.5, 0.1]","[u'medium', u'low', u'high']","black",51,"right","high","True","False",87,2750,NA
"A2M3FPQF852HW4","Fri Sep 18 2020 09:19:23 GMT-0600 (Mountain Daylight Time)","Fri Sep 18 2020 09:25:52 GMT-0600 (Mountain Daylight Time)","Mozilla/5.0 (Windows NT 10.0; Win64; x64) AppleWebKit/537.36 (KHTML, like Gecko) Chrome/85.0.4183.102 Safari/537.36",54,"[0.9, 0.5, 0.1]","[0.8, 0.4, 0.2]","[u'blue', u'red', u'black']","[u'left', u'middle', u'right']","[0.9, 0.5, 0.1]","[u'medium', u'low', u'high']","black",51,"right","high","True","False",87,2850,NA
"A2M3FPQF852HW4","Fri Sep 18 2020 09:19:23 GMT-0600 (Mountain Daylight Time)","Fri Sep 18 2020 09:25:52 GMT-0600 (Mountain Daylight Time)","Mozilla/5.0 (Windows NT 10.0; Win64; x64) AppleWebKit/537.36 (KHTML, like Gecko) Chrome/85.0.4183.102 Safari/537.36",55,"[0.9, 0.5, 0.1]","[0.8, 0.4, 0.2]","[u'blue', u'red', u'black']","[u'left', u'middle', u'right']","[0.9, 0.5, 0.1]","[u'medium', u'low', u'high']","black",51,"right","high","False","False",73,2800,NA
"A2M3FPQF852HW4","Fri Sep 18 2020 09:19:23 GMT-0600 (Mountain Daylight Time)","Fri Sep 18 2020 09:25:52 GMT-0600 (Mountain Daylight Time)","Mozilla/5.0 (Windows NT 10.0; Win64; x64) AppleWebKit/537.36 (KHTML, like Gecko) Chrome/85.0.4183.102 Safari/537.36",56,"[0.9, 0.5, 0.1]","[0.8, 0.4, 0.2]","[u'blue', u'red', u'black']","[u'left', u'middle', u'right']","[0.9, 0.5, 0.1]","[u'medium', u'low', u'high']","black",51,"right","high","True","False",268,2900,NA
"A2M3FPQF852HW4","Fri Sep 18 2020 09:19:23 GMT-0600 (Mountain Daylight Time)","Fri Sep 18 2020 09:25:52 GMT-0600 (Mountain Daylight Time)","Mozilla/5.0 (Windows NT 10.0; Win64; x64) AppleWebKit/537.36 (KHTML, like Gecko) Chrome/85.0.4183.102 Safari/537.36",57,"[0.9, 0.5, 0.1]","[0.8, 0.4, 0.2]","[u'blue', u'red', u'black']","[u'left', u'middle', u'right']","[0.9, 0.5, 0.1]","[u'medium', u'low', u'high']","black",51,"right","high","False","True",31,2850,NA
"A2M3FPQF852HW4","Fri Sep 18 2020 09:19:23 GMT-0600 (Mountain Daylight Time)","Fri Sep 18 2020 09:25:52 GMT-0600 (Mountain Daylight Time)","Mozilla/5.0 (Windows NT 10.0; Win64; x64) AppleWebKit/537.36 (KHTML, like Gecko) Chrome/85.0.4183.102 Safari/537.36",58,"[0.9, 0.5, 0.1]","[0.8, 0.4, 0.2]","[u'blue', u'red', u'black']","[u'left', u'middle', u'right']","[0.9, 0.5, 0.1]","[u'low', u'high', u'medium']","red",50,"middle","high","True","False",29,2950,NA
"A2M3FPQF852HW4","Fri Sep 18 2020 09:19:23 GMT-0600 (Mountain Daylight Time)","Fri Sep 18 2020 09:25:52 GMT-0600 (Mountain Daylight Time)","Mozilla/5.0 (Windows NT 10.0; Win64; x64) AppleWebKit/537.36 (KHTML, like Gecko) Chrome/85.0.4183.102 Safari/537.36",59,"[0.9, 0.5, 0.1]","[0.8, 0.4, 0.2]","[u'blue', u'red', u'black']","[u'left', u'middle', u'right']","[0.9, 0.5, 0.1]","[u'low', u'high', u'medium']","red",50,"middle","high","False","False",124,2900,NA
"A2M3FPQF852HW4","Fri Sep 18 2020 09:19:23 GMT-0600 (Mountain Daylight Time)","Fri Sep 18 2020 09:25:52 GMT-0600 (Mountain Daylight Time)","Mozilla/5.0 (Windows NT 10.0; Win64; x64) AppleWebKit/537.36 (KHTML, like Gecko) Chrome/85.0.4183.102 Safari/537.36",60,"[0.9, 0.5, 0.1]","[0.8, 0.4, 0.2]","[u'blue', u'red', u'black']","[u'left', u'middle', u'right']","[0.9, 0.5, 0.1]","[u'low', u'high', u'medium']","red",50,"middle","high","True","False",81,3000,NA
"A2M3FPQF852HW4","Fri Sep 18 2020 09:19:23 GMT-0600 (Mountain Daylight Time)","Fri Sep 18 2020 09:25:52 GMT-0600 (Mountain Daylight Time)","Mozilla/5.0 (Windows NT 10.0; Win64; x64) AppleWebKit/537.36 (KHTML, like Gecko) Chrome/85.0.4183.102 Safari/537.36",61,"[0.9, 0.5, 0.1]","[0.8, 0.4, 0.2]","[u'blue', u'red', u'black']","[u'left', u'middle', u'right']","[0.9, 0.5, 0.1]","[u'low', u'high', u'medium']","red",50,"middle","high","True","False",6,3100,NA
"A2M3FPQF852HW4","Fri Sep 18 2020 09:19:23 GMT-0600 (Mountain Daylight Time)","Fri Sep 18 2020 09:25:52 GMT-0600 (Mountain Daylight Time)","Mozilla/5.0 (Windows NT 10.0; Win64; x64) AppleWebKit/537.36 (KHTML, like Gecko) Chrome/85.0.4183.102 Safari/537.36",62,"[0.9, 0.5, 0.1]","[0.8, 0.4, 0.2]","[u'blue', u'red', u'black']","[u'left', u'middle', u'right']","[0.9, 0.5, 0.1]","[u'low', u'high', u'medium']","red",50,"middle","high","True","False",120,3200,NA
"A2M3FPQF852HW4","Fri Sep 18 2020 09:19:23 GMT-0600 (Mountain Daylight Time)","Fri Sep 18 2020 09:25:52 GMT-0600 (Mountain Daylight Time)","Mozilla/5.0 (Windows NT 10.0; Win64; x64) AppleWebKit/537.36 (KHTML, like Gecko) Chrome/85.0.4183.102 Safari/537.36",63,"[0.9, 0.5, 0.1]","[0.8, 0.4, 0.2]","[u'blue', u'red', u'black']","[u'left', u'middle', u'right']","[0.9, 0.5, 0.1]","[u'low', u'high', u'medium']","red",50,"middle","high","True","False",151,3300,NA
"A2M3FPQF852HW4","Fri Sep 18 2020 09:19:23 GMT-0600 (Mountain Daylight Time)","Fri Sep 18 2020 09:25:52 GMT-0600 (Mountain Daylight Time)","Mozilla/5.0 (Windows NT 10.0; Win64; x64) AppleWebKit/537.36 (KHTML, like Gecko) Chrome/85.0.4183.102 Safari/537.36",64,"[0.9, 0.5, 0.1]","[0.8, 0.4, 0.2]","[u'blue', u'red', u'black']","[u'left', u'middle', u'right']","[0.9, 0.5, 0.1]","[u'low', u'high', u'medium']","red",50,"middle","high","True","False",111,3400,NA
"A2M3FPQF852HW4","Fri Sep 18 2020 09:19:23 GMT-0600 (Mountain Daylight Time)","Fri Sep 18 2020 09:25:52 GMT-0600 (Mountain Daylight Time)","Mozilla/5.0 (Windows NT 10.0; Win64; x64) AppleWebKit/537.36 (KHTML, like Gecko) Chrome/85.0.4183.102 Safari/537.36",65,"[0.9, 0.5, 0.1]","[0.8, 0.4, 0.2]","[u'blue', u'red', u'black']","[u'left', u'middle', u'right']","[0.9, 0.5, 0.1]","[u'low', u'high', u'medium']","red",50,"middle","high","True","False",97,3500,NA
"A2M3FPQF852HW4","Fri Sep 18 2020 09:19:23 GMT-0600 (Mountain Daylight Time)","Fri Sep 18 2020 09:25:52 GMT-0600 (Mountain Daylight Time)","Mozilla/5.0 (Windows NT 10.0; Win64; x64) AppleWebKit/537.36 (KHTML, like Gecko) Chrome/85.0.4183.102 Safari/537.36",66,"[0.9, 0.5, 0.1]","[0.8, 0.4, 0.2]","[u'blue', u'red', u'black']","[u'left', u'middle', u'right']","[0.9, 0.5, 0.1]","[u'low', u'high', u'medium']","red",50,"middle","high","True","True",95,3600,NA
"A2M3FPQF852HW4","Fri Sep 18 2020 09:19:23 GMT-0600 (Mountain Daylight Time)","Fri Sep 18 2020 09:25:52 GMT-0600 (Mountain Daylight Time)","Mozilla/5.0 (Windows NT 10.0; Win64; x64) AppleWebKit/537.36 (KHTML, like Gecko) Chrome/85.0.4183.102 Safari/537.36",67,"[0.9, 0.5, 0.1]","[0.8, 0.4, 0.2]","[u'blue', u'red', u'black']","[u'left', u'middle', u'right']","[0.9, 0.5, 0.1]","[u'high', u'medium', u'low']","red",50,"middle","medium","False","False",175,3550,NA
"A2M3FPQF852HW4","Fri Sep 18 2020 09:19:23 GMT-0600 (Mountain Daylight Time)","Fri Sep 18 2020 09:25:52 GMT-0600 (Mountain Daylight Time)","Mozilla/5.0 (Windows NT 10.0; Win64; x64) AppleWebKit/537.36 (KHTML, like Gecko) Chrome/85.0.4183.102 Safari/537.36",68,"[0.9, 0.5, 0.1]","[0.8, 0.4, 0.2]","[u'blue', u'red', u'black']","[u'left', u'middle', u'right']","[0.9, 0.5, 0.1]","[u'high', u'medium', u'low']","red",50,"middle","medium","False","False",22,3500,NA
"A2M3FPQF852HW4","Fri Sep 18 2020 09:19:23 GMT-0600 (Mountain Daylight Time)","Fri Sep 18 2020 09:25:52 GMT-0600 (Mountain Daylight Time)","Mozilla/5.0 (Windows NT 10.0; Win64; x64) AppleWebKit/537.36 (KHTML, like Gecko) Chrome/85.0.4183.102 Safari/537.36",69,"[0.9, 0.5, 0.1]","[0.8, 0.4, 0.2]","[u'blue', u'red', u'black']","[u'left', u'middle', u'right']","[0.9, 0.5, 0.1]","[u'high', u'medium', u'low']","blue",49,"left","high","True","False",327,3600,NA
"A2M3FPQF852HW4","Fri Sep 18 2020 09:19:23 GMT-0600 (Mountain Daylight Time)","Fri Sep 18 2020 09:25:52 GMT-0600 (Mountain Daylight Time)","Mozilla/5.0 (Windows NT 10.0; Win64; x64) AppleWebKit/537.36 (KHTML, like Gecko) Chrome/85.0.4183.102 Safari/537.36",70,"[0.9, 0.5, 0.1]","[0.8, 0.4, 0.2]","[u'blue', u'red', u'black']","[u'left', u'middle', u'right']","[0.9, 0.5, 0.1]","[u'high', u'medium', u'low']","blue",49,"left","high","True","False",160,3700,NA
"A2M3FPQF852HW4","Fri Sep 18 2020 09:19:23 GMT-0600 (Mountain Daylight Time)","Fri Sep 18 2020 09:25:52 GMT-0600 (Mountain Daylight Time)","Mozilla/5.0 (Windows NT 10.0; Win64; x64) AppleWebKit/537.36 (KHTML, like Gecko) Chrome/85.0.4183.102 Safari/537.36",71,"[0.9, 0.5, 0.1]","[0.8, 0.4, 0.2]","[u'blue', u'red', u'black']","[u'left', u'middle', u'right']","[0.9, 0.5, 0.1]","[u'high', u'medium', u'low']","blue",49,"left","high","True","False",61,3800,NA
"A2M3FPQF852HW4","Fri Sep 18 2020 09:19:23 GMT-0600 (Mountain Daylight Time)","Fri Sep 18 2020 09:25:52 GMT-0600 (Mountain Daylight Time)","Mozilla/5.0 (Windows NT 10.0; Win64; x64) AppleWebKit/537.36 (KHTML, like Gecko) Chrome/85.0.4183.102 Safari/537.36",72,"[0.9, 0.5, 0.1]","[0.8, 0.4, 0.2]","[u'blue', u'red', u'black']","[u'left', u'middle', u'right']","[0.9, 0.5, 0.1]","[u'high', u'medium', u'low']","blue",49,"left","high","False","False",43,3750,NA
"A2M3FPQF852HW4","Fri Sep 18 2020 09:19:23 GMT-0600 (Mountain Daylight Time)","Fri Sep 18 2020 09:25:52 GMT-0600 (Mountain Daylight Time)","Mozilla/5.0 (Windows NT 10.0; Win64; x64) AppleWebKit/537.36 (KHTML, like Gecko) Chrome/85.0.4183.102 Safari/537.36",73,"[0.9, 0.5, 0.1]","[0.8, 0.4, 0.2]","[u'blue', u'red', u'black']","[u'left', u'middle', u'right']","[0.9, 0.5, 0.1]","[u'high', u'medium', u'low']","blue",49,"left","high","True","False",142,3850,NA
"A2M3FPQF852HW4","Fri Sep 18 2020 09:19:23 GMT-0600 (Mountain Daylight Time)","Fri Sep 18 2020 09:25:52 GMT-0600 (Mountain Daylight Time)","Mozilla/5.0 (Windows NT 10.0; Win64; x64) AppleWebKit/537.36 (KHTML, like Gecko) Chrome/85.0.4183.102 Safari/537.36",74,"[0.9, 0.5, 0.1]","[0.8, 0.4, 0.2]","[u'blue', u'red', u'black']","[u'left', u'middle', u'right']","[0.9, 0.5, 0.1]","[u'high', u'medium', u'low']","blue",49,"left","high","True","False",87,3950,NA
"A2M3FPQF852HW4","Fri Sep 18 2020 09:19:23 GMT-0600 (Mountain Daylight Time)","Fri Sep 18 2020 09:25:52 GMT-0600 (Mountain Daylight Time)","Mozilla/5.0 (Windows NT 10.0; Win64; x64) AppleWebKit/537.36 (KHTML, like Gecko) Chrome/85.0.4183.102 Safari/537.36",75,"[0.9, 0.5, 0.1]","[0.8, 0.4, 0.2]","[u'blue', u'red', u'black']","[u'left', u'middle', u'right']","[0.9, 0.5, 0.1]","[u'high', u'medium', u'low']","blue",49,"left","high","True","False",18,4050,NA
"A2M3FPQF852HW4","Fri Sep 18 2020 09:19:23 GMT-0600 (Mountain Daylight Time)","Fri Sep 18 2020 09:25:52 GMT-0600 (Mountain Daylight Time)","Mozilla/5.0 (Windows NT 10.0; Win64; x64) AppleWebKit/537.36 (KHTML, like Gecko) Chrome/85.0.4183.102 Safari/537.36",76,"[0.9, 0.5, 0.1]","[0.8, 0.4, 0.2]","[u'blue', u'red', u'black']","[u'left', u'middle', u'right']","[0.9, 0.5, 0.1]","[u'high', u'medium', u'low']","blue",49,"left","high","False","False",427,4000,NA
"A2M3FPQF852HW4","Fri Sep 18 2020 09:19:23 GMT-0600 (Mountain Daylight Time)","Fri Sep 18 2020 09:25:52 GMT-0600 (Mountain Daylight Time)","Mozilla/5.0 (Windows NT 10.0; Win64; x64) AppleWebKit/537.36 (KHTML, like Gecko) Chrome/85.0.4183.102 Safari/537.36",77,"[0.9, 0.5, 0.1]","[0.8, 0.4, 0.2]","[u'blue', u'red', u'black']","[u'left', u'middle', u'right']","[0.9, 0.5, 0.1]","[u'high', u'medium', u'low']","blue",49,"left","high","True","True",161,4100,NA
"A2M3FPQF852HW4","Fri Sep 18 2020 09:19:23 GMT-0600 (Mountain Daylight Time)","Fri Sep 18 2020 09:25:52 GMT-0600 (Mountain Daylight Time)","Mozilla/5.0 (Windows NT 10.0; Win64; x64) AppleWebKit/537.36 (KHTML, like Gecko) Chrome/85.0.4183.102 Safari/537.36",78,"[0.9, 0.5, 0.1]","[0.8, 0.4, 0.2]","[u'blue', u'red', u'black']","[u'left', u'middle', u'right']","[0.9, 0.5, 0.1]","[u'low', u'high', u'medium']","blue",49,"left","low","False","False",62,4050,NA
"A2M3FPQF852HW4","Fri Sep 18 2020 09:19:23 GMT-0600 (Mountain Daylight Time)","Fri Sep 18 2020 09:25:52 GMT-0600 (Mountain Daylight Time)","Mozilla/5.0 (Windows NT 10.0; Win64; x64) AppleWebKit/537.36 (KHTML, like Gecko) Chrome/85.0.4183.102 Safari/537.36",79,"[0.9, 0.5, 0.1]","[0.8, 0.4, 0.2]","[u'blue', u'red', u'black']","[u'left', u'middle', u'right']","[0.9, 0.5, 0.1]","[u'low', u'high', u'medium']","blue",49,"left","low","False","False",184,4000,NA
"A2M3FPQF852HW4","Fri Sep 18 2020 09:19:23 GMT-0600 (Mountain Daylight Time)","Fri Sep 18 2020 09:25:52 GMT-0600 (Mountain Daylight Time)","Mozilla/5.0 (Windows NT 10.0; Win64; x64) AppleWebKit/537.36 (KHTML, like Gecko) Chrome/85.0.4183.102 Safari/537.36",80,"[0.9, 0.5, 0.1]","[0.8, 0.4, 0.2]","[u'blue', u'red', u'black']","[u'left', u'middle', u'right']","[0.9, 0.5, 0.1]","[u'low', u'high', u'medium']","black",51,"right","medium","True","False",108,4100,NA
"A2M3FPQF852HW4","Fri Sep 18 2020 09:19:23 GMT-0600 (Mountain Daylight Time)","Fri Sep 18 2020 09:25:52 GMT-0600 (Mountain Daylight Time)","Mozilla/5.0 (Windows NT 10.0; Win64; x64) AppleWebKit/537.36 (KHTML, like Gecko) Chrome/85.0.4183.102 Safari/537.36",81,"[0.9, 0.5, 0.1]","[0.8, 0.4, 0.2]","[u'blue', u'red', u'black']","[u'left', u'middle', u'right']","[0.8, 0.4, 0.2]","[u'low', u'medium', u'high']","blue",49,"left","low","True","False",307,4200,NA
"A2M3FPQF852HW4","Fri Sep 18 2020 09:19:23 GMT-0600 (Mountain Daylight Time)","Fri Sep 18 2020 09:25:52 GMT-0600 (Mountain Daylight Time)","Mozilla/5.0 (Windows NT 10.0; Win64; x64) AppleWebKit/537.36 (KHTML, like Gecko) Chrome/85.0.4183.102 Safari/537.36",82,"[0.9, 0.5, 0.1]","[0.8, 0.4, 0.2]","[u'blue', u'red', u'black']","[u'left', u'middle', u'right']","[0.8, 0.4, 0.2]","[u'low', u'medium', u'high']","blue",49,"left","low","True","False",163,4300,NA
"A2M3FPQF852HW4","Fri Sep 18 2020 09:19:23 GMT-0600 (Mountain Daylight Time)","Fri Sep 18 2020 09:25:52 GMT-0600 (Mountain Daylight Time)","Mozilla/5.0 (Windows NT 10.0; Win64; x64) AppleWebKit/537.36 (KHTML, like Gecko) Chrome/85.0.4183.102 Safari/537.36",83,"[0.9, 0.5, 0.1]","[0.8, 0.4, 0.2]","[u'blue', u'red', u'black']","[u'left', u'middle', u'right']","[0.8, 0.4, 0.2]","[u'low', u'medium', u'high']","blue",49,"left","low","False","False",156,4250,NA
"A2M3FPQF852HW4","Fri Sep 18 2020 09:19:23 GMT-0600 (Mountain Daylight Time)","Fri Sep 18 2020 09:25:52 GMT-0600 (Mountain Daylight Time)","Mozilla/5.0 (Windows NT 10.0; Win64; x64) AppleWebKit/537.36 (KHTML, like Gecko) Chrome/85.0.4183.102 Safari/537.36",84,"[0.9, 0.5, 0.1]","[0.8, 0.4, 0.2]","[u'blue', u'red', u'black']","[u'left', u'middle', u'right']","[0.8, 0.4, 0.2]","[u'low', u'medium', u'high']","blue",49,"left","low","False","False",236,4200,NA
"A2M3FPQF852HW4","Fri Sep 18 2020 09:19:23 GMT-0600 (Mountain Daylight Time)","Fri Sep 18 2020 09:25:52 GMT-0600 (Mountain Daylight Time)","Mozilla/5.0 (Windows NT 10.0; Win64; x64) AppleWebKit/537.36 (KHTML, like Gecko) Chrome/85.0.4183.102 Safari/537.36",85,"[0.9, 0.5, 0.1]","[0.8, 0.4, 0.2]","[u'blue', u'red', u'black']","[u'left', u'middle', u'right']","[0.8, 0.4, 0.2]","[u'low', u'medium', u'high']","black",51,"right","high","True","False",128,4300,NA
"A2M3FPQF852HW4","Fri Sep 18 2020 09:19:23 GMT-0600 (Mountain Daylight Time)","Fri Sep 18 2020 09:25:52 GMT-0600 (Mountain Daylight Time)","Mozilla/5.0 (Windows NT 10.0; Win64; x64) AppleWebKit/537.36 (KHTML, like Gecko) Chrome/85.0.4183.102 Safari/537.36",86,"[0.9, 0.5, 0.1]","[0.8, 0.4, 0.2]","[u'blue', u'red', u'black']","[u'left', u'middle', u'right']","[0.8, 0.4, 0.2]","[u'low', u'medium', u'high']","black",51,"right","high","False","False",168,4250,NA
"A2M3FPQF852HW4","Fri Sep 18 2020 09:19:23 GMT-0600 (Mountain Daylight Time)","Fri Sep 18 2020 09:25:52 GMT-0600 (Mountain Daylight Time)","Mozilla/5.0 (Windows NT 10.0; Win64; x64) AppleWebKit/537.36 (KHTML, like Gecko) Chrome/85.0.4183.102 Safari/537.36",87,"[0.9, 0.5, 0.1]","[0.8, 0.4, 0.2]","[u'blue', u'red', u'black']","[u'left', u'middle', u'right']","[0.8, 0.4, 0.2]","[u'low', u'medium', u'high']","black",51,"right","high","True","False",96,4350,NA
"A2M3FPQF852HW4","Fri Sep 18 2020 09:19:23 GMT-0600 (Mountain Daylight Time)","Fri Sep 18 2020 09:25:52 GMT-0600 (Mountain Daylight Time)","Mozilla/5.0 (Windows NT 10.0; Win64; x64) AppleWebKit/537.36 (KHTML, like Gecko) Chrome/85.0.4183.102 Safari/537.36",88,"[0.9, 0.5, 0.1]","[0.8, 0.4, 0.2]","[u'blue', u'red', u'black']","[u'left', u'middle', u'right']","[0.8, 0.4, 0.2]","[u'low', u'medium', u'high']","black",51,"right","high","True","False",97,4450,NA
"A2M3FPQF852HW4","Fri Sep 18 2020 09:19:23 GMT-0600 (Mountain Daylight Time)","Fri Sep 18 2020 09:25:52 GMT-0600 (Mountain Daylight Time)","Mozilla/5.0 (Windows NT 10.0; Win64; x64) AppleWebKit/537.36 (KHTML, like Gecko) Chrome/85.0.4183.102 Safari/537.36",89,"[0.9, 0.5, 0.1]","[0.8, 0.4, 0.2]","[u'blue', u'red', u'black']","[u'left', u'middle', u'right']","[0.8, 0.4, 0.2]","[u'low', u'medium', u'high']","black",51,"right","high","False","False",1,4400,NA
"A2M3FPQF852HW4","Fri Sep 18 2020 09:19:23 GMT-0600 (Mountain Daylight Time)","Fri Sep 18 2020 09:25:52 GMT-0600 (Mountain Daylight Time)","Mozilla/5.0 (Windows NT 10.0; Win64; x64) AppleWebKit/537.36 (KHTML, like Gecko) Chrome/85.0.4183.102 Safari/537.36",90,"[0.9, 0.5, 0.1]","[0.8, 0.4, 0.2]","[u'blue', u'red', u'black']","[u'left', u'middle', u'right']","[0.8, 0.4, 0.2]","[u'low', u'medium', u'high']","black",51,"right","high","True","False",4,4500,NA
"A2M3FPQF852HW4","Fri Sep 18 2020 09:19:23 GMT-0600 (Mountain Daylight Time)","Fri Sep 18 2020 09:25:52 GMT-0600 (Mountain Daylight Time)","Mozilla/5.0 (Windows NT 10.0; Win64; x64) AppleWebKit/537.36 (KHTML, like Gecko) Chrome/85.0.4183.102 Safari/537.36",91,"[0.9, 0.5, 0.1]","[0.8, 0.4, 0.2]","[u'blue', u'red', u'black']","[u'left', u'middle', u'right']","[0.8, 0.4, 0.2]","[u'low', u'medium', u'high']","black",51,"right","high","True","False",89,4600,NA
"A2M3FPQF852HW4","Fri Sep 18 2020 09:19:23 GMT-0600 (Mountain Daylight Time)","Fri Sep 18 2020 09:25:52 GMT-0600 (Mountain Daylight Time)","Mozilla/5.0 (Windows NT 10.0; Win64; x64) AppleWebKit/537.36 (KHTML, like Gecko) Chrome/85.0.4183.102 Safari/537.36",92,"[0.9, 0.5, 0.1]","[0.8, 0.4, 0.2]","[u'blue', u'red', u'black']","[u'left', u'middle', u'right']","[0.8, 0.4, 0.2]","[u'low', u'medium', u'high']","black",51,"right","high","False","False",54,4550,NA
"A2M3FPQF852HW4","Fri Sep 18 2020 09:19:23 GMT-0600 (Mountain Daylight Time)","Fri Sep 18 2020 09:25:52 GMT-0600 (Mountain Daylight Time)","Mozilla/5.0 (Windows NT 10.0; Win64; x64) AppleWebKit/537.36 (KHTML, like Gecko) Chrome/85.0.4183.102 Safari/537.36",93,"[0.9, 0.5, 0.1]","[0.8, 0.4, 0.2]","[u'blue', u'red', u'black']","[u'left', u'middle', u'right']","[0.8, 0.4, 0.2]","[u'low', u'medium', u'high']","red",50,"middle","medium","True","False",17,4650,NA
"A2M3FPQF852HW4","Fri Sep 18 2020 09:19:23 GMT-0600 (Mountain Daylight Time)","Fri Sep 18 2020 09:25:52 GMT-0600 (Mountain Daylight Time)","Mozilla/5.0 (Windows NT 10.0; Win64; x64) AppleWebKit/537.36 (KHTML, like Gecko) Chrome/85.0.4183.102 Safari/537.36",94,"[0.9, 0.5, 0.1]","[0.8, 0.4, 0.2]","[u'blue', u'red', u'black']","[u'left', u'middle', u'right']","[0.8, 0.4, 0.2]","[u'low', u'medium', u'high']","red",50,"middle","medium","False","False",117,4600,NA
"A2M3FPQF852HW4","Fri Sep 18 2020 09:19:23 GMT-0600 (Mountain Daylight Time)","Fri Sep 18 2020 09:25:52 GMT-0600 (Mountain Daylight Time)","Mozilla/5.0 (Windows NT 10.0; Win64; x64) AppleWebKit/537.36 (KHTML, like Gecko) Chrome/85.0.4183.102 Safari/537.36",95,"[0.9, 0.5, 0.1]","[0.8, 0.4, 0.2]","[u'blue', u'red', u'black']","[u'left', u'middle', u'right']","[0.8, 0.4, 0.2]","[u'low', u'medium', u'high']","red",50,"middle","medium","False","False",167,4550,NA
"A2M3FPQF852HW4","Fri Sep 18 2020 09:19:23 GMT-0600 (Mountain Daylight Time)","Fri Sep 18 2020 09:25:52 GMT-0600 (Mountain Daylight Time)","Mozilla/5.0 (Windows NT 10.0; Win64; x64) AppleWebKit/537.36 (KHTML, like Gecko) Chrome/85.0.4183.102 Safari/537.36",96,"[0.9, 0.5, 0.1]","[0.8, 0.4, 0.2]","[u'blue', u'red', u'black']","[u'left', u'middle', u'right']","[0.8, 0.4, 0.2]","[u'low', u'medium', u'high']","blue",49,"left","low","False","False",105,4500,NA
"A2M3FPQF852HW4","Fri Sep 18 2020 09:19:23 GMT-0600 (Mountain Daylight Time)","Fri Sep 18 2020 09:25:52 GMT-0600 (Mountain Daylight Time)","Mozilla/5.0 (Windows NT 10.0; Win64; x64) AppleWebKit/537.36 (KHTML, like Gecko) Chrome/85.0.4183.102 Safari/537.36",97,"[0.9, 0.5, 0.1]","[0.8, 0.4, 0.2]","[u'blue', u'red', u'black']","[u'left', u'middle', u'right']","[0.8, 0.4, 0.2]","[u'low', u'medium', u'high']","black",51,"right","high","True","False",565,4600,NA
"A2M3FPQF852HW4","Fri Sep 18 2020 09:19:23 GMT-0600 (Mountain Daylight Time)","Fri Sep 18 2020 09:25:52 GMT-0600 (Mountain Daylight Time)","Mozilla/5.0 (Windows NT 10.0; Win64; x64) AppleWebKit/537.36 (KHTML, like Gecko) Chrome/85.0.4183.102 Safari/537.36",98,"[0.9, 0.5, 0.1]","[0.8, 0.4, 0.2]","[u'blue', u'red', u'black']","[u'left', u'middle', u'right']","[0.8, 0.4, 0.2]","[u'low', u'medium', u'high']","black",51,"right","high","False","False",155,4550,NA
"A2M3FPQF852HW4","Fri Sep 18 2020 09:19:23 GMT-0600 (Mountain Daylight Time)","Fri Sep 18 2020 09:25:52 GMT-0600 (Mountain Daylight Time)","Mozilla/5.0 (Windows NT 10.0; Win64; x64) AppleWebKit/537.36 (KHTML, like Gecko) Chrome/85.0.4183.102 Safari/537.36",99,"[0.9, 0.5, 0.1]","[0.8, 0.4, 0.2]","[u'blue', u'red', u'black']","[u'left', u'middle', u'right']","[0.8, 0.4, 0.2]","[u'low', u'medium', u'high']","black",51,"right","high","True","False",121,4650,NA
"A2M3FPQF852HW4","Fri Sep 18 2020 09:19:23 GMT-0600 (Mountain Daylight Time)","Fri Sep 18 2020 09:25:52 GMT-0600 (Mountain Daylight Time)","Mozilla/5.0 (Windows NT 10.0; Win64; x64) AppleWebKit/537.36 (KHTML, like Gecko) Chrome/85.0.4183.102 Safari/537.36",100,"[0.9, 0.5, 0.1]","[0.8, 0.4, 0.2]","[u'blue', u'red', u'black']","[u'left', u'middle', u'right']","[0.8, 0.4, 0.2]","[u'low', u'medium', u'high']","black",51,"right","high","True","False",152,4750,NA
"A2M3FPQF852HW4","Fri Sep 18 2020 09:19:23 GMT-0600 (Mountain Daylight Time)","Fri Sep 18 2020 09:25:52 GMT-0600 (Mountain Daylight Time)","Mozilla/5.0 (Windows NT 10.0; Win64; x64) AppleWebKit/537.36 (KHTML, like Gecko) Chrome/85.0.4183.102 Safari/537.36",101,"[0.9, 0.5, 0.1]","[0.8, 0.4, 0.2]","[u'blue', u'red', u'black']","[u'left', u'middle', u'right']","[0.8, 0.4, 0.2]","[u'low', u'medium', u'high']","black",51,"right","high","True","False",96,4850,NA
"A2M3FPQF852HW4","Fri Sep 18 2020 09:19:23 GMT-0600 (Mountain Daylight Time)","Fri Sep 18 2020 09:25:52 GMT-0600 (Mountain Daylight Time)","Mozilla/5.0 (Windows NT 10.0; Win64; x64) AppleWebKit/537.36 (KHTML, like Gecko) Chrome/85.0.4183.102 Safari/537.36",102,"[0.9, 0.5, 0.1]","[0.8, 0.4, 0.2]","[u'blue', u'red', u'black']","[u'left', u'middle', u'right']","[0.8, 0.4, 0.2]","[u'low', u'medium', u'high']","black",51,"right","high","True","False",82,4950,NA
"A2M3FPQF852HW4","Fri Sep 18 2020 09:19:23 GMT-0600 (Mountain Daylight Time)","Fri Sep 18 2020 09:25:52 GMT-0600 (Mountain Daylight Time)","Mozilla/5.0 (Windows NT 10.0; Win64; x64) AppleWebKit/537.36 (KHTML, like Gecko) Chrome/85.0.4183.102 Safari/537.36",103,"[0.9, 0.5, 0.1]","[0.8, 0.4, 0.2]","[u'blue', u'red', u'black']","[u'left', u'middle', u'right']","[0.8, 0.4, 0.2]","[u'low', u'medium', u'high']","black",51,"right","high","True","False",363,5050,NA
"A2M3FPQF852HW4","Fri Sep 18 2020 09:19:23 GMT-0600 (Mountain Daylight Time)","Fri Sep 18 2020 09:25:52 GMT-0600 (Mountain Daylight Time)","Mozilla/5.0 (Windows NT 10.0; Win64; x64) AppleWebKit/537.36 (KHTML, like Gecko) Chrome/85.0.4183.102 Safari/537.36",104,"[0.9, 0.5, 0.1]","[0.8, 0.4, 0.2]","[u'blue', u'red', u'black']","[u'left', u'middle', u'right']","[0.8, 0.4, 0.2]","[u'low', u'medium', u'high']","black",51,"right","high","True","False",84,5150,NA
"A2M3FPQF852HW4","Fri Sep 18 2020 09:19:23 GMT-0600 (Mountain Daylight Time)","Fri Sep 18 2020 09:25:52 GMT-0600 (Mountain Daylight Time)","Mozilla/5.0 (Windows NT 10.0; Win64; x64) AppleWebKit/537.36 (KHTML, like Gecko) Chrome/85.0.4183.102 Safari/537.36",105,"[0.9, 0.5, 0.1]","[0.8, 0.4, 0.2]","[u'blue', u'red', u'black']","[u'left', u'middle', u'right']","[0.8, 0.4, 0.2]","[u'low', u'medium', u'high']","black",51,"right","high","True","True",43,5250,NA
"A2M3FPQF852HW4","Fri Sep 18 2020 09:19:23 GMT-0600 (Mountain Daylight Time)","Fri Sep 18 2020 09:25:52 GMT-0600 (Mountain Daylight Time)","Mozilla/5.0 (Windows NT 10.0; Win64; x64) AppleWebKit/537.36 (KHTML, like Gecko) Chrome/85.0.4183.102 Safari/537.36",106,"[0.9, 0.5, 0.1]","[0.8, 0.4, 0.2]","[u'blue', u'red', u'black']","[u'left', u'middle', u'right']","[0.8, 0.4, 0.2]","[u'low', u'high', u'medium']","black",51,"right","medium","True","False",44,5350,NA
"A2M3FPQF852HW4","Fri Sep 18 2020 09:19:23 GMT-0600 (Mountain Daylight Time)","Fri Sep 18 2020 09:25:52 GMT-0600 (Mountain Daylight Time)","Mozilla/5.0 (Windows NT 10.0; Win64; x64) AppleWebKit/537.36 (KHTML, like Gecko) Chrome/85.0.4183.102 Safari/537.36",107,"[0.9, 0.5, 0.1]","[0.8, 0.4, 0.2]","[u'blue', u'red', u'black']","[u'left', u'middle', u'right']","[0.8, 0.4, 0.2]","[u'low', u'high', u'medium']","black",51,"right","medium","False","False",105,5300,NA
"A2M3FPQF852HW4","Fri Sep 18 2020 09:19:23 GMT-0600 (Mountain Daylight Time)","Fri Sep 18 2020 09:25:52 GMT-0600 (Mountain Daylight Time)","Mozilla/5.0 (Windows NT 10.0; Win64; x64) AppleWebKit/537.36 (KHTML, like Gecko) Chrome/85.0.4183.102 Safari/537.36",108,"[0.9, 0.5, 0.1]","[0.8, 0.4, 0.2]","[u'blue', u'red', u'black']","[u'left', u'middle', u'right']","[0.8, 0.4, 0.2]","[u'low', u'high', u'medium']","red",50,"middle","high","False","False",97,5250,NA
"A2M3FPQF852HW4","Fri Sep 18 2020 09:19:23 GMT-0600 (Mountain Daylight Time)","Fri Sep 18 2020 09:25:52 GMT-0600 (Mountain Daylight Time)","Mozilla/5.0 (Windows NT 10.0; Win64; x64) AppleWebKit/537.36 (KHTML, like Gecko) Chrome/85.0.4183.102 Safari/537.36",109,"[0.9, 0.5, 0.1]","[0.8, 0.4, 0.2]","[u'blue', u'red', u'black']","[u'left', u'middle', u'right']","[0.8, 0.4, 0.2]","[u'low', u'high', u'medium']","black",51,"right","medium","False","False",100,5200,NA
"A2M3FPQF852HW4","Fri Sep 18 2020 09:19:23 GMT-0600 (Mountain Daylight Time)","Fri Sep 18 2020 09:25:52 GMT-0600 (Mountain Daylight Time)","Mozilla/5.0 (Windows NT 10.0; Win64; x64) AppleWebKit/537.36 (KHTML, like Gecko) Chrome/85.0.4183.102 Safari/537.36",110,"[0.9, 0.5, 0.1]","[0.8, 0.4, 0.2]","[u'blue', u'red', u'black']","[u'left', u'middle', u'right']","[0.8, 0.4, 0.2]","[u'low', u'high', u'medium']","blue",49,"left","low","False","False",996,5150,NA
"A2M3FPQF852HW4","Fri Sep 18 2020 09:19:23 GMT-0600 (Mountain Daylight Time)","Fri Sep 18 2020 09:25:52 GMT-0600 (Mountain Daylight Time)","Mozilla/5.0 (Windows NT 10.0; Win64; x64) AppleWebKit/537.36 (KHTML, like Gecko) Chrome/85.0.4183.102 Safari/537.36",111,"[0.9, 0.5, 0.1]","[0.8, 0.4, 0.2]","[u'blue', u'red', u'black']","[u'left', u'middle', u'right']","[0.8, 0.4, 0.2]","[u'low', u'high', u'medium']","red",50,"middle","high","True","False",1293,5250,NA
"A2M3FPQF852HW4","Fri Sep 18 2020 09:19:23 GMT-0600 (Mountain Daylight Time)","Fri Sep 18 2020 09:25:52 GMT-0600 (Mountain Daylight Time)","Mozilla/5.0 (Windows NT 10.0; Win64; x64) AppleWebKit/537.36 (KHTML, like Gecko) Chrome/85.0.4183.102 Safari/537.36",112,"[0.9, 0.5, 0.1]","[0.8, 0.4, 0.2]","[u'blue', u'red', u'black']","[u'left', u'middle', u'right']","[0.8, 0.4, 0.2]","[u'low', u'high', u'medium']","red",50,"middle","high","False","False",194,5200,NA
"A2M3FPQF852HW4","Fri Sep 18 2020 09:19:23 GMT-0600 (Mountain Daylight Time)","Fri Sep 18 2020 09:25:52 GMT-0600 (Mountain Daylight Time)","Mozilla/5.0 (Windows NT 10.0; Win64; x64) AppleWebKit/537.36 (KHTML, like Gecko) Chrome/85.0.4183.102 Safari/537.36",113,"[0.9, 0.5, 0.1]","[0.8, 0.4, 0.2]","[u'blue', u'red', u'black']","[u'left', u'middle', u'right']","[0.8, 0.4, 0.2]","[u'low', u'high', u'medium']","red",50,"middle","high","True","False",154,5300,NA
"A2M3FPQF852HW4","Fri Sep 18 2020 09:19:23 GMT-0600 (Mountain Daylight Time)","Fri Sep 18 2020 09:25:52 GMT-0600 (Mountain Daylight Time)","Mozilla/5.0 (Windows NT 10.0; Win64; x64) AppleWebKit/537.36 (KHTML, like Gecko) Chrome/85.0.4183.102 Safari/537.36",114,"[0.9, 0.5, 0.1]","[0.8, 0.4, 0.2]","[u'blue', u'red', u'black']","[u'left', u'middle', u'right']","[0.8, 0.4, 0.2]","[u'low', u'high', u'medium']","red",50,"middle","high","True","False",50,5400,NA
"A2M3FPQF852HW4","Fri Sep 18 2020 09:19:23 GMT-0600 (Mountain Daylight Time)","Fri Sep 18 2020 09:25:52 GMT-0600 (Mountain Daylight Time)","Mozilla/5.0 (Windows NT 10.0; Win64; x64) AppleWebKit/537.36 (KHTML, like Gecko) Chrome/85.0.4183.102 Safari/537.36",115,"[0.9, 0.5, 0.1]","[0.8, 0.4, 0.2]","[u'blue', u'red', u'black']","[u'left', u'middle', u'right']","[0.8, 0.4, 0.2]","[u'low', u'high', u'medium']","red",50,"middle","high","True","False",62,5500,NA
"A2M3FPQF852HW4","Fri Sep 18 2020 09:19:23 GMT-0600 (Mountain Daylight Time)","Fri Sep 18 2020 09:25:52 GMT-0600 (Mountain Daylight Time)","Mozilla/5.0 (Windows NT 10.0; Win64; x64) AppleWebKit/537.36 (KHTML, like Gecko) Chrome/85.0.4183.102 Safari/537.36",116,"[0.9, 0.5, 0.1]","[0.8, 0.4, 0.2]","[u'blue', u'red', u'black']","[u'left', u'middle', u'right']","[0.8, 0.4, 0.2]","[u'low', u'high', u'medium']","red",50,"middle","high","True","False",187,5600,NA
"A2M3FPQF852HW4","Fri Sep 18 2020 09:19:23 GMT-0600 (Mountain Daylight Time)","Fri Sep 18 2020 09:25:52 GMT-0600 (Mountain Daylight Time)","Mozilla/5.0 (Windows NT 10.0; Win64; x64) AppleWebKit/537.36 (KHTML, like Gecko) Chrome/85.0.4183.102 Safari/537.36",117,"[0.9, 0.5, 0.1]","[0.8, 0.4, 0.2]","[u'blue', u'red', u'black']","[u'left', u'middle', u'right']","[0.8, 0.4, 0.2]","[u'low', u'high', u'medium']","red",50,"middle","high","True","False",367,5700,NA
"A2M3FPQF852HW4","Fri Sep 18 2020 09:19:23 GMT-0600 (Mountain Daylight Time)","Fri Sep 18 2020 09:25:52 GMT-0600 (Mountain Daylight Time)","Mozilla/5.0 (Windows NT 10.0; Win64; x64) AppleWebKit/537.36 (KHTML, like Gecko) Chrome/85.0.4183.102 Safari/537.36",118,"[0.9, 0.5, 0.1]","[0.8, 0.4, 0.2]","[u'blue', u'red', u'black']","[u'left', u'middle', u'right']","[0.8, 0.4, 0.2]","[u'low', u'high', u'medium']","red",50,"middle","high","True","False",141,5800,NA
"A2M3FPQF852HW4","Fri Sep 18 2020 09:19:23 GMT-0600 (Mountain Daylight Time)","Fri Sep 18 2020 09:25:52 GMT-0600 (Mountain Daylight Time)","Mozilla/5.0 (Windows NT 10.0; Win64; x64) AppleWebKit/537.36 (KHTML, like Gecko) Chrome/85.0.4183.102 Safari/537.36",119,"[0.9, 0.5, 0.1]","[0.8, 0.4, 0.2]","[u'blue', u'red', u'black']","[u'left', u'middle', u'right']","[0.8, 0.4, 0.2]","[u'low', u'high', u'medium']","red",50,"middle","high","True","True",154,5900,NA
"A2M3FPQF852HW4","Fri Sep 18 2020 09:19:23 GMT-0600 (Mountain Daylight Time)","Fri Sep 18 2020 09:25:52 GMT-0600 (Mountain Daylight Time)","Mozilla/5.0 (Windows NT 10.0; Win64; x64) AppleWebKit/537.36 (KHTML, like Gecko) Chrome/85.0.4183.102 Safari/537.36",120,"[0.9, 0.5, 0.1]","[0.8, 0.4, 0.2]","[u'blue', u'red', u'black']","[u'left', u'middle', u'right']","[0.8, 0.4, 0.2]","[u'high', u'medium', u'low']","red",50,"middle","medium","False","False",120,5850,NA
"A2M3FPQF852HW4","Fri Sep 18 2020 09:19:23 GMT-0600 (Mountain Daylight Time)","Fri Sep 18 2020 09:25:52 GMT-0600 (Mountain Daylight Time)","Mozilla/5.0 (Windows NT 10.0; Win64; x64) AppleWebKit/537.36 (KHTML, like Gecko) Chrome/85.0.4183.102 Safari/537.36",121,"[0.9, 0.5, 0.1]","[0.8, 0.4, 0.2]","[u'blue', u'red', u'black']","[u'left', u'middle', u'right']","[0.8, 0.4, 0.2]","[u'low', u'high', u'medium']","blue",49,"left","low","False","False",375,5800,NA
"A2M3FPQF852HW4","Fri Sep 18 2020 09:19:23 GMT-0600 (Mountain Daylight Time)","Fri Sep 18 2020 09:25:52 GMT-0600 (Mountain Daylight Time)","Mozilla/5.0 (Windows NT 10.0; Win64; x64) AppleWebKit/537.36 (KHTML, like Gecko) Chrome/85.0.4183.102 Safari/537.36",122,"[0.9, 0.5, 0.1]","[0.8, 0.4, 0.2]","[u'blue', u'red', u'black']","[u'left', u'middle', u'right']","[0.8, 0.4, 0.2]","[u'low', u'high', u'medium']","blue",49,"left","low","True","False",161,5900,NA
"A2M3FPQF852HW4","Fri Sep 18 2020 09:19:23 GMT-0600 (Mountain Daylight Time)","Fri Sep 18 2020 09:25:52 GMT-0600 (Mountain Daylight Time)","Mozilla/5.0 (Windows NT 10.0; Win64; x64) AppleWebKit/537.36 (KHTML, like Gecko) Chrome/85.0.4183.102 Safari/537.36",123,"[0.9, 0.5, 0.1]","[0.8, 0.4, 0.2]","[u'blue', u'red', u'black']","[u'left', u'middle', u'right']","[0.8, 0.4, 0.2]","[u'low', u'high', u'medium']","blue",49,"left","low","False","False",119,5850,NA
"A2M3FPQF852HW4","Fri Sep 18 2020 09:19:23 GMT-0600 (Mountain Daylight Time)","Fri Sep 18 2020 09:25:52 GMT-0600 (Mountain Daylight Time)","Mozilla/5.0 (Windows NT 10.0; Win64; x64) AppleWebKit/537.36 (KHTML, like Gecko) Chrome/85.0.4183.102 Safari/537.36",124,"[0.9, 0.5, 0.1]","[0.8, 0.4, 0.2]","[u'blue', u'red', u'black']","[u'left', u'middle', u'right']","[0.8, 0.4, 0.2]","[u'low', u'high', u'medium']","blue",49,"left","low","False","False",34,5800,NA
"A2M3FPQF852HW4","Fri Sep 18 2020 09:19:23 GMT-0600 (Mountain Daylight Time)","Fri Sep 18 2020 09:25:52 GMT-0600 (Mountain Daylight Time)","Mozilla/5.0 (Windows NT 10.0; Win64; x64) AppleWebKit/537.36 (KHTML, like Gecko) Chrome/85.0.4183.102 Safari/537.36",125,"[0.9, 0.5, 0.1]","[0.8, 0.4, 0.2]","[u'blue', u'red', u'black']","[u'left', u'middle', u'right']","[0.8, 0.4, 0.2]","[u'low', u'high', u'medium']","black",51,"right","medium","False","False",142,5750,NA
"A2M3FPQF852HW4","Fri Sep 18 2020 09:19:23 GMT-0600 (Mountain Daylight Time)","Fri Sep 18 2020 09:25:52 GMT-0600 (Mountain Daylight Time)","Mozilla/5.0 (Windows NT 10.0; Win64; x64) AppleWebKit/537.36 (KHTML, like Gecko) Chrome/85.0.4183.102 Safari/537.36",126,"[0.9, 0.5, 0.1]","[0.8, 0.4, 0.2]","[u'blue', u'red', u'black']","[u'left', u'middle', u'right']","[0.8, 0.4, 0.2]","[u'low', u'high', u'medium']","red",50,"middle","high","True","False",1057,5850,NA
"A2M3FPQF852HW4","Fri Sep 18 2020 09:19:23 GMT-0600 (Mountain Daylight Time)","Fri Sep 18 2020 09:25:52 GMT-0600 (Mountain Daylight Time)","Mozilla/5.0 (Windows NT 10.0; Win64; x64) AppleWebKit/537.36 (KHTML, like Gecko) Chrome/85.0.4183.102 Safari/537.36",127,"[0.9, 0.5, 0.1]","[0.8, 0.4, 0.2]","[u'blue', u'red', u'black']","[u'left', u'middle', u'right']","[0.8, 0.4, 0.2]","[u'low', u'high', u'medium']","red",50,"middle","high","True","False",202,5950,NA
"A2M3FPQF852HW4","Fri Sep 18 2020 09:19:23 GMT-0600 (Mountain Daylight Time)","Fri Sep 18 2020 09:25:52 GMT-0600 (Mountain Daylight Time)","Mozilla/5.0 (Windows NT 10.0; Win64; x64) AppleWebKit/537.36 (KHTML, like Gecko) Chrome/85.0.4183.102 Safari/537.36",128,"[0.9, 0.5, 0.1]","[0.8, 0.4, 0.2]","[u'blue', u'red', u'black']","[u'left', u'middle', u'right']","[0.8, 0.4, 0.2]","[u'low', u'high', u'medium']","red",50,"middle","high","True","False",163,6050,NA
"A2M3FPQF852HW4","Fri Sep 18 2020 09:19:23 GMT-0600 (Mountain Daylight Time)","Fri Sep 18 2020 09:25:52 GMT-0600 (Mountain Daylight Time)","Mozilla/5.0 (Windows NT 10.0; Win64; x64) AppleWebKit/537.36 (KHTML, like Gecko) Chrome/85.0.4183.102 Safari/537.36",129,"[0.9, 0.5, 0.1]","[0.8, 0.4, 0.2]","[u'blue', u'red', u'black']","[u'left', u'middle', u'right']","[0.8, 0.4, 0.2]","[u'low', u'high', u'medium']","red",50,"middle","high","True","False",105,6150,NA
"A2M3FPQF852HW4","Fri Sep 18 2020 09:19:23 GMT-0600 (Mountain Daylight Time)","Fri Sep 18 2020 09:25:52 GMT-0600 (Mountain Daylight Time)","Mozilla/5.0 (Windows NT 10.0; Win64; x64) AppleWebKit/537.36 (KHTML, like Gecko) Chrome/85.0.4183.102 Safari/537.36",130,"[0.9, 0.5, 0.1]","[0.8, 0.4, 0.2]","[u'blue', u'red', u'black']","[u'left', u'middle', u'right']","[0.8, 0.4, 0.2]","[u'low', u'high', u'medium']","red",50,"middle","high","True","False",8,6250,NA
"A2M3FPQF852HW4","Fri Sep 18 2020 09:19:23 GMT-0600 (Mountain Daylight Time)","Fri Sep 18 2020 09:25:52 GMT-0600 (Mountain Daylight Time)","Mozilla/5.0 (Windows NT 10.0; Win64; x64) AppleWebKit/537.36 (KHTML, like Gecko) Chrome/85.0.4183.102 Safari/537.36",131,"[0.9, 0.5, 0.1]","[0.8, 0.4, 0.2]","[u'blue', u'red', u'black']","[u'left', u'middle', u'right']","[0.8, 0.4, 0.2]","[u'low', u'high', u'medium']","red",50,"middle","high","True","False",61,6350,NA
"A2M3FPQF852HW4","Fri Sep 18 2020 09:19:23 GMT-0600 (Mountain Daylight Time)","Fri Sep 18 2020 09:25:52 GMT-0600 (Mountain Daylight Time)","Mozilla/5.0 (Windows NT 10.0; Win64; x64) AppleWebKit/537.36 (KHTML, like Gecko) Chrome/85.0.4183.102 Safari/537.36",132,"[0.9, 0.5, 0.1]","[0.8, 0.4, 0.2]","[u'blue', u'red', u'black']","[u'left', u'middle', u'right']","[0.8, 0.4, 0.2]","[u'low', u'high', u'medium']","red",50,"middle","high","True","False",46,6450,NA
"A2M3FPQF852HW4","Fri Sep 18 2020 09:19:23 GMT-0600 (Mountain Daylight Time)","Fri Sep 18 2020 09:25:52 GMT-0600 (Mountain Daylight Time)","Mozilla/5.0 (Windows NT 10.0; Win64; x64) AppleWebKit/537.36 (KHTML, like Gecko) Chrome/85.0.4183.102 Safari/537.36",133,"[0.9, 0.5, 0.1]","[0.8, 0.4, 0.2]","[u'blue', u'red', u'black']","[u'left', u'middle', u'right']","[0.8, 0.4, 0.2]","[u'low', u'high', u'medium']","red",50,"middle","high","True","False",89,6550,NA
"A2M3FPQF852HW4","Fri Sep 18 2020 09:19:23 GMT-0600 (Mountain Daylight Time)","Fri Sep 18 2020 09:25:52 GMT-0600 (Mountain Daylight Time)","Mozilla/5.0 (Windows NT 10.0; Win64; x64) AppleWebKit/537.36 (KHTML, like Gecko) Chrome/85.0.4183.102 Safari/537.36",134,"[0.9, 0.5, 0.1]","[0.8, 0.4, 0.2]","[u'blue', u'red', u'black']","[u'left', u'middle', u'right']","[0.8, 0.4, 0.2]","[u'low', u'high', u'medium']","red",50,"middle","high","True","True",76,6650,NA
"A2M3FPQF852HW4","Fri Sep 18 2020 09:19:23 GMT-0600 (Mountain Daylight Time)","Fri Sep 18 2020 09:25:52 GMT-0600 (Mountain Daylight Time)","Mozilla/5.0 (Windows NT 10.0; Win64; x64) AppleWebKit/537.36 (KHTML, like Gecko) Chrome/85.0.4183.102 Safari/537.36",135,"[0.9, 0.5, 0.1]","[0.8, 0.4, 0.2]","[u'blue', u'red', u'black']","[u'left', u'middle', u'right']","[0.8, 0.4, 0.2]","[u'high', u'low', u'medium']","red",50,"middle","low","False","False",120,6600,NA
"A2M3FPQF852HW4","Fri Sep 18 2020 09:19:23 GMT-0600 (Mountain Daylight Time)","Fri Sep 18 2020 09:25:52 GMT-0600 (Mountain Daylight Time)","Mozilla/5.0 (Windows NT 10.0; Win64; x64) AppleWebKit/537.36 (KHTML, like Gecko) Chrome/85.0.4183.102 Safari/537.36",136,"[0.9, 0.5, 0.1]","[0.8, 0.4, 0.2]","[u'blue', u'red', u'black']","[u'left', u'middle', u'right']","[0.8, 0.4, 0.2]","[u'high', u'low', u'medium']","blue",49,"left","high","True","False",560,6700,NA
"A2M3FPQF852HW4","Fri Sep 18 2020 09:19:23 GMT-0600 (Mountain Daylight Time)","Fri Sep 18 2020 09:25:52 GMT-0600 (Mountain Daylight Time)","Mozilla/5.0 (Windows NT 10.0; Win64; x64) AppleWebKit/537.36 (KHTML, like Gecko) Chrome/85.0.4183.102 Safari/537.36",137,"[0.9, 0.5, 0.1]","[0.8, 0.4, 0.2]","[u'blue', u'red', u'black']","[u'left', u'middle', u'right']","[0.8, 0.4, 0.2]","[u'high', u'low', u'medium']","blue",49,"left","high","True","False",189,6800,NA
"A2M3FPQF852HW4","Fri Sep 18 2020 09:19:23 GMT-0600 (Mountain Daylight Time)","Fri Sep 18 2020 09:25:52 GMT-0600 (Mountain Daylight Time)","Mozilla/5.0 (Windows NT 10.0; Win64; x64) AppleWebKit/537.36 (KHTML, like Gecko) Chrome/85.0.4183.102 Safari/537.36",138,"[0.9, 0.5, 0.1]","[0.8, 0.4, 0.2]","[u'blue', u'red', u'black']","[u'left', u'middle', u'right']","[0.8, 0.4, 0.2]","[u'high', u'low', u'medium']","blue",49,"left","high","True","False",155,6900,NA
"A2M3FPQF852HW4","Fri Sep 18 2020 09:19:23 GMT-0600 (Mountain Daylight Time)","Fri Sep 18 2020 09:25:52 GMT-0600 (Mountain Daylight Time)","Mozilla/5.0 (Windows NT 10.0; Win64; x64) AppleWebKit/537.36 (KHTML, like Gecko) Chrome/85.0.4183.102 Safari/537.36",139,"[0.9, 0.5, 0.1]","[0.8, 0.4, 0.2]","[u'blue', u'red', u'black']","[u'left', u'middle', u'right']","[0.8, 0.4, 0.2]","[u'high', u'low', u'medium']","blue",49,"left","high","True","False",73,7000,NA
"A2M3FPQF852HW4","Fri Sep 18 2020 09:19:23 GMT-0600 (Mountain Daylight Time)","Fri Sep 18 2020 09:25:52 GMT-0600 (Mountain Daylight Time)","Mozilla/5.0 (Windows NT 10.0; Win64; x64) AppleWebKit/537.36 (KHTML, like Gecko) Chrome/85.0.4183.102 Safari/537.36",140,"[0.9, 0.5, 0.1]","[0.8, 0.4, 0.2]","[u'blue', u'red', u'black']","[u'left', u'middle', u'right']","[0.8, 0.4, 0.2]","[u'high', u'low', u'medium']","blue",49,"left","high","True","False",124,7100,NA
"A2M3FPQF852HW4","Fri Sep 18 2020 09:19:23 GMT-0600 (Mountain Daylight Time)","Fri Sep 18 2020 09:25:52 GMT-0600 (Mountain Daylight Time)","Mozilla/5.0 (Windows NT 10.0; Win64; x64) AppleWebKit/537.36 (KHTML, like Gecko) Chrome/85.0.4183.102 Safari/537.36",141,"[0.9, 0.5, 0.1]","[0.8, 0.4, 0.2]","[u'blue', u'red', u'black']","[u'left', u'middle', u'right']","[0.8, 0.4, 0.2]","[u'high', u'low', u'medium']","blue",49,"left","high","True","False",123,7200,NA
"A2M3FPQF852HW4","Fri Sep 18 2020 09:19:23 GMT-0600 (Mountain Daylight Time)","Fri Sep 18 2020 09:25:52 GMT-0600 (Mountain Daylight Time)","Mozilla/5.0 (Windows NT 10.0; Win64; x64) AppleWebKit/537.36 (KHTML, like Gecko) Chrome/85.0.4183.102 Safari/537.36",142,"[0.9, 0.5, 0.1]","[0.8, 0.4, 0.2]","[u'blue', u'red', u'black']","[u'left', u'middle', u'right']","[0.8, 0.4, 0.2]","[u'high', u'low', u'medium']","blue",49,"left","high","True","False",130,7300,NA
"A2M3FPQF852HW4","Fri Sep 18 2020 09:19:23 GMT-0600 (Mountain Daylight Time)","Fri Sep 18 2020 09:25:52 GMT-0600 (Mountain Daylight Time)","Mozilla/5.0 (Windows NT 10.0; Win64; x64) AppleWebKit/537.36 (KHTML, like Gecko) Chrome/85.0.4183.102 Safari/537.36",143,"[0.9, 0.5, 0.1]","[0.8, 0.4, 0.2]","[u'blue', u'red', u'black']","[u'left', u'middle', u'right']","[0.8, 0.4, 0.2]","[u'high', u'low', u'medium']","blue",49,"left","high","True","False",194,7400,NA
"A2M3FPQF852HW4","Fri Sep 18 2020 09:19:23 GMT-0600 (Mountain Daylight Time)","Fri Sep 18 2020 09:25:52 GMT-0600 (Mountain Daylight Time)","Mozilla/5.0 (Windows NT 10.0; Win64; x64) AppleWebKit/537.36 (KHTML, like Gecko) Chrome/85.0.4183.102 Safari/537.36",144,"[0.9, 0.5, 0.1]","[0.8, 0.4, 0.2]","[u'blue', u'red', u'black']","[u'left', u'middle', u'right']","[0.8, 0.4, 0.2]","[u'high', u'low', u'medium']","blue",49,"left","high","True","True",175,7500,NA
"A2M3FPQF852HW4","Fri Sep 18 2020 09:19:23 GMT-0600 (Mountain Daylight Time)","Fri Sep 18 2020 09:25:52 GMT-0600 (Mountain Daylight Time)","Mozilla/5.0 (Windows NT 10.0; Win64; x64) AppleWebKit/537.36 (KHTML, like Gecko) Chrome/85.0.4183.102 Safari/537.36",145,"[0.9, 0.5, 0.1]","[0.8, 0.4, 0.2]","[u'blue', u'red', u'black']","[u'left', u'middle', u'right']","[0.8, 0.4, 0.2]","[u'medium', u'high', u'low']","blue",49,"left","medium","True","False",148,7600,NA
"A2M3FPQF852HW4","Fri Sep 18 2020 09:19:23 GMT-0600 (Mountain Daylight Time)","Fri Sep 18 2020 09:25:52 GMT-0600 (Mountain Daylight Time)","Mozilla/5.0 (Windows NT 10.0; Win64; x64) AppleWebKit/537.36 (KHTML, like Gecko) Chrome/85.0.4183.102 Safari/537.36",146,"[0.9, 0.5, 0.1]","[0.8, 0.4, 0.2]","[u'blue', u'red', u'black']","[u'left', u'middle', u'right']","[0.8, 0.4, 0.2]","[u'medium', u'high', u'low']","blue",49,"left","medium","False","False",109,7550,NA
"A2M3FPQF852HW4","Fri Sep 18 2020 09:19:23 GMT-0600 (Mountain Daylight Time)","Fri Sep 18 2020 09:25:52 GMT-0600 (Mountain Daylight Time)","Mozilla/5.0 (Windows NT 10.0; Win64; x64) AppleWebKit/537.36 (KHTML, like Gecko) Chrome/85.0.4183.102 Safari/537.36",147,"[0.9, 0.5, 0.1]","[0.8, 0.4, 0.2]","[u'blue', u'red', u'black']","[u'left', u'middle', u'right']","[0.8, 0.4, 0.2]","[u'medium', u'high', u'low']","blue",49,"left","medium","False","False",177,7500,NA
"A2M3FPQF852HW4","Fri Sep 18 2020 09:19:23 GMT-0600 (Mountain Daylight Time)","Fri Sep 18 2020 09:25:52 GMT-0600 (Mountain Daylight Time)","Mozilla/5.0 (Windows NT 10.0; Win64; x64) AppleWebKit/537.36 (KHTML, like Gecko) Chrome/85.0.4183.102 Safari/537.36",148,"[0.9, 0.5, 0.1]","[0.8, 0.4, 0.2]","[u'blue', u'red', u'black']","[u'left', u'middle', u'right']","[0.8, 0.4, 0.2]","[u'medium', u'high', u'low']","black",51,"right","low","False","False",134,7450,NA
"A2M3FPQF852HW4","Fri Sep 18 2020 09:19:23 GMT-0600 (Mountain Daylight Time)","Fri Sep 18 2020 09:25:52 GMT-0600 (Mountain Daylight Time)","Mozilla/5.0 (Windows NT 10.0; Win64; x64) AppleWebKit/537.36 (KHTML, like Gecko) Chrome/85.0.4183.102 Safari/537.36",149,"[0.9, 0.5, 0.1]","[0.8, 0.4, 0.2]","[u'blue', u'red', u'black']","[u'left', u'middle', u'right']","[0.8, 0.4, 0.2]","[u'medium', u'high', u'low']","black",51,"right","low","False","False",176,7400,NA
"A2M3FPQF852HW4","Fri Sep 18 2020 09:19:23 GMT-0600 (Mountain Daylight Time)","Fri Sep 18 2020 09:25:52 GMT-0600 (Mountain Daylight Time)","Mozilla/5.0 (Windows NT 10.0; Win64; x64) AppleWebKit/537.36 (KHTML, like Gecko) Chrome/85.0.4183.102 Safari/537.36",150,"[0.9, 0.5, 0.1]","[0.8, 0.4, 0.2]","[u'blue', u'red', u'black']","[u'left', u'middle', u'right']","[0.8, 0.4, 0.2]","[u'medium', u'high', u'low']","red",50,"middle","high","True","False",102,7500,NA
"A2M3FPQF852HW4","Fri Sep 18 2020 09:19:23 GMT-0600 (Mountain Daylight Time)","Fri Sep 18 2020 09:25:52 GMT-0600 (Mountain Daylight Time)","Mozilla/5.0 (Windows NT 10.0; Win64; x64) AppleWebKit/537.36 (KHTML, like Gecko) Chrome/85.0.4183.102 Safari/537.36",151,"[0.9, 0.5, 0.1]","[0.8, 0.4, 0.2]","[u'blue', u'red', u'black']","[u'left', u'middle', u'right']","[0.8, 0.4, 0.2]","[u'medium', u'high', u'low']","red",50,"middle","high","True","False",7,7600,NA
"A2M3FPQF852HW4","Fri Sep 18 2020 09:19:23 GMT-0600 (Mountain Daylight Time)","Fri Sep 18 2020 09:25:52 GMT-0600 (Mountain Daylight Time)","Mozilla/5.0 (Windows NT 10.0; Win64; x64) AppleWebKit/537.36 (KHTML, like Gecko) Chrome/85.0.4183.102 Safari/537.36",152,"[0.9, 0.5, 0.1]","[0.8, 0.4, 0.2]","[u'blue', u'red', u'black']","[u'left', u'middle', u'right']","[0.8, 0.4, 0.2]","[u'medium', u'high', u'low']","red",50,"middle","high","False","False",92,7550,NA
"A2M3FPQF852HW4","Fri Sep 18 2020 09:19:23 GMT-0600 (Mountain Daylight Time)","Fri Sep 18 2020 09:25:52 GMT-0600 (Mountain Daylight Time)","Mozilla/5.0 (Windows NT 10.0; Win64; x64) AppleWebKit/537.36 (KHTML, like Gecko) Chrome/85.0.4183.102 Safari/537.36",153,"[0.9, 0.5, 0.1]","[0.8, 0.4, 0.2]","[u'blue', u'red', u'black']","[u'left', u'middle', u'right']","[0.8, 0.4, 0.2]","[u'medium', u'high', u'low']","red",50,"middle","high","True","False",152,7650,NA
"A2M3FPQF852HW4","Fri Sep 18 2020 09:19:23 GMT-0600 (Mountain Daylight Time)","Fri Sep 18 2020 09:25:52 GMT-0600 (Mountain Daylight Time)","Mozilla/5.0 (Windows NT 10.0; Win64; x64) AppleWebKit/537.36 (KHTML, like Gecko) Chrome/85.0.4183.102 Safari/537.36",154,"[0.9, 0.5, 0.1]","[0.8, 0.4, 0.2]","[u'blue', u'red', u'black']","[u'left', u'middle', u'right']","[0.8, 0.4, 0.2]","[u'medium', u'high', u'low']","red",50,"middle","high","True","False",76,7750,NA
"A2M3FPQF852HW4","Fri Sep 18 2020 09:19:23 GMT-0600 (Mountain Daylight Time)","Fri Sep 18 2020 09:25:52 GMT-0600 (Mountain Daylight Time)","Mozilla/5.0 (Windows NT 10.0; Win64; x64) AppleWebKit/537.36 (KHTML, like Gecko) Chrome/85.0.4183.102 Safari/537.36",155,"[0.9, 0.5, 0.1]","[0.8, 0.4, 0.2]","[u'blue', u'red', u'black']","[u'left', u'middle', u'right']","[0.8, 0.4, 0.2]","[u'medium', u'high', u'low']","red",50,"middle","high","True","False",68,7850,NA
"A2M3FPQF852HW4","Fri Sep 18 2020 09:19:23 GMT-0600 (Mountain Daylight Time)","Fri Sep 18 2020 09:25:52 GMT-0600 (Mountain Daylight Time)","Mozilla/5.0 (Windows NT 10.0; Win64; x64) AppleWebKit/537.36 (KHTML, like Gecko) Chrome/85.0.4183.102 Safari/537.36",156,"[0.9, 0.5, 0.1]","[0.8, 0.4, 0.2]","[u'blue', u'red', u'black']","[u'left', u'middle', u'right']","[0.8, 0.4, 0.2]","[u'medium', u'high', u'low']","red",50,"middle","high","True","False",51,7950,NA
"A2M3FPQF852HW4","Fri Sep 18 2020 09:19:23 GMT-0600 (Mountain Daylight Time)","Fri Sep 18 2020 09:25:52 GMT-0600 (Mountain Daylight Time)","Mozilla/5.0 (Windows NT 10.0; Win64; x64) AppleWebKit/537.36 (KHTML, like Gecko) Chrome/85.0.4183.102 Safari/537.36",157,"[0.9, 0.5, 0.1]","[0.8, 0.4, 0.2]","[u'blue', u'red', u'black']","[u'left', u'middle', u'right']","[0.8, 0.4, 0.2]","[u'medium', u'high', u'low']","red",50,"middle","high","True","False",75,8050,NA
"A2M3FPQF852HW4","Fri Sep 18 2020 09:19:23 GMT-0600 (Mountain Daylight Time)","Fri Sep 18 2020 09:25:52 GMT-0600 (Mountain Daylight Time)","Mozilla/5.0 (Windows NT 10.0; Win64; x64) AppleWebKit/537.36 (KHTML, like Gecko) Chrome/85.0.4183.102 Safari/537.36",158,"[0.9, 0.5, 0.1]","[0.8, 0.4, 0.2]","[u'blue', u'red', u'black']","[u'left', u'middle', u'right']","[0.8, 0.4, 0.2]","[u'medium', u'high', u'low']","red",50,"middle","high","True","True",306,8150,NA
"A2M3FPQF852HW4","Fri Sep 18 2020 09:19:23 GMT-0600 (Mountain Daylight Time)","Fri Sep 18 2020 09:25:52 GMT-0600 (Mountain Daylight Time)","Mozilla/5.0 (Windows NT 10.0; Win64; x64) AppleWebKit/537.36 (KHTML, like Gecko) Chrome/85.0.4183.102 Safari/537.36",159,"[0.9, 0.5, 0.1]","[0.8, 0.4, 0.2]","[u'blue', u'red', u'black']","[u'left', u'middle', u'right']","[0.8, 0.4, 0.2]","[u'medium', u'low', u'high']","red",50,"middle","low","False","False",113,8100,NA
"A2M3FPQF852HW4","Fri Sep 18 2020 09:19:23 GMT-0600 (Mountain Daylight Time)","Fri Sep 18 2020 09:25:52 GMT-0600 (Mountain Daylight Time)","Mozilla/5.0 (Windows NT 10.0; Win64; x64) AppleWebKit/537.36 (KHTML, like Gecko) Chrome/85.0.4183.102 Safari/537.36",160,"[0.9, 0.5, 0.1]","[0.8, 0.4, 0.2]","[u'blue', u'red', u'black']","[u'left', u'middle', u'right']","[0.8, 0.4, 0.2]","[u'medium', u'low', u'high']","red",50,"middle","low","False","False",71,8050,NA
