"src_subject_id","start_time","end_time","browser","index","first_half_probabilities","second_half_probabilities","deck_color","deck_position","deck_probabilities","deck_contingencies","response_color","key_press","response_position","response_probability","reward_type","trial_type","rt","reward_tally","exclusion_reason"
"A3S5M6R3ZR6ECN","Tue Jan 28 2020 09:15:19 GMT-0500 (Eastern Standard Time)","Tue Jan 28 2020 09:22:33 GMT-0500 (Eastern Standard Time)","Mozilla/5.0 (X11; CrOS x86_64 12607.81.0) AppleWebKit/537.36 (KHTML, like Gecko) Chrome/79.0.3945.119 Safari/537.36",1,"[0.9, 0.5, 0.1]","[0.8, 0.4, 0.2]","[u'red', u'blue', u'black']","[u'left', u'middle', u'right']","[0.9, 0.5, 0.1]","[u'medium', u'high', u'low']","red",49,"left","medium","False","False",1300,-50,NA
"A3S5M6R3ZR6ECN","Tue Jan 28 2020 09:15:19 GMT-0500 (Eastern Standard Time)","Tue Jan 28 2020 09:22:33 GMT-0500 (Eastern Standard Time)","Mozilla/5.0 (X11; CrOS x86_64 12607.81.0) AppleWebKit/537.36 (KHTML, like Gecko) Chrome/79.0.3945.119 Safari/537.36",2,"[0.9, 0.5, 0.1]","[0.8, 0.4, 0.2]","[u'red', u'blue', u'black']","[u'left', u'middle', u'right']","[0.9, 0.5, 0.1]","[u'medium', u'high', u'low']","blue",50,"middle","high","True","False",875,50,NA
"A3S5M6R3ZR6ECN","Tue Jan 28 2020 09:15:19 GMT-0500 (Eastern Standard Time)","Tue Jan 28 2020 09:22:33 GMT-0500 (Eastern Standard Time)","Mozilla/5.0 (X11; CrOS x86_64 12607.81.0) AppleWebKit/537.36 (KHTML, like Gecko) Chrome/79.0.3945.119 Safari/537.36",3,"[0.9, 0.5, 0.1]","[0.8, 0.4, 0.2]","[u'red', u'blue', u'black']","[u'left', u'middle', u'right']","[0.9, 0.5, 0.1]","[u'medium', u'high', u'low']","blue",50,"middle","high","True","False",588,150,NA
"A3S5M6R3ZR6ECN","Tue Jan 28 2020 09:15:19 GMT-0500 (Eastern Standard Time)","Tue Jan 28 2020 09:22:33 GMT-0500 (Eastern Standard Time)","Mozilla/5.0 (X11; CrOS x86_64 12607.81.0) AppleWebKit/537.36 (KHTML, like Gecko) Chrome/79.0.3945.119 Safari/537.36",4,"[0.9, 0.5, 0.1]","[0.8, 0.4, 0.2]","[u'red', u'blue', u'black']","[u'left', u'middle', u'right']","[0.9, 0.5, 0.1]","[u'medium', u'high', u'low']","blue",50,"middle","high","True","False",597,250,NA
"A3S5M6R3ZR6ECN","Tue Jan 28 2020 09:15:19 GMT-0500 (Eastern Standard Time)","Tue Jan 28 2020 09:22:33 GMT-0500 (Eastern Standard Time)","Mozilla/5.0 (X11; CrOS x86_64 12607.81.0) AppleWebKit/537.36 (KHTML, like Gecko) Chrome/79.0.3945.119 Safari/537.36",5,"[0.9, 0.5, 0.1]","[0.8, 0.4, 0.2]","[u'red', u'blue', u'black']","[u'left', u'middle', u'right']","[0.9, 0.5, 0.1]","[u'medium', u'high', u'low']","blue",50,"middle","high","True","False",507,350,NA
"A3S5M6R3ZR6ECN","Tue Jan 28 2020 09:15:19 GMT-0500 (Eastern Standard Time)","Tue Jan 28 2020 09:22:33 GMT-0500 (Eastern Standard Time)","Mozilla/5.0 (X11; CrOS x86_64 12607.81.0) AppleWebKit/537.36 (KHTML, like Gecko) Chrome/79.0.3945.119 Safari/537.36",6,"[0.9, 0.5, 0.1]","[0.8, 0.4, 0.2]","[u'red', u'blue', u'black']","[u'left', u'middle', u'right']","[0.9, 0.5, 0.1]","[u'medium', u'high', u'low']","blue",50,"middle","high","True","False",475,450,NA
"A3S5M6R3ZR6ECN","Tue Jan 28 2020 09:15:19 GMT-0500 (Eastern Standard Time)","Tue Jan 28 2020 09:22:33 GMT-0500 (Eastern Standard Time)","Mozilla/5.0 (X11; CrOS x86_64 12607.81.0) AppleWebKit/537.36 (KHTML, like Gecko) Chrome/79.0.3945.119 Safari/537.36",7,"[0.9, 0.5, 0.1]","[0.8, 0.4, 0.2]","[u'red', u'blue', u'black']","[u'left', u'middle', u'right']","[0.9, 0.5, 0.1]","[u'medium', u'high', u'low']","blue",50,"middle","high","True","False",460,550,NA
"A3S5M6R3ZR6ECN","Tue Jan 28 2020 09:15:19 GMT-0500 (Eastern Standard Time)","Tue Jan 28 2020 09:22:33 GMT-0500 (Eastern Standard Time)","Mozilla/5.0 (X11; CrOS x86_64 12607.81.0) AppleWebKit/537.36 (KHTML, like Gecko) Chrome/79.0.3945.119 Safari/537.36",8,"[0.9, 0.5, 0.1]","[0.8, 0.4, 0.2]","[u'red', u'blue', u'black']","[u'left', u'middle', u'right']","[0.9, 0.5, 0.1]","[u'medium', u'high', u'low']","blue",50,"middle","high","True","False",359,650,NA
"A3S5M6R3ZR6ECN","Tue Jan 28 2020 09:15:19 GMT-0500 (Eastern Standard Time)","Tue Jan 28 2020 09:22:33 GMT-0500 (Eastern Standard Time)","Mozilla/5.0 (X11; CrOS x86_64 12607.81.0) AppleWebKit/537.36 (KHTML, like Gecko) Chrome/79.0.3945.119 Safari/537.36",9,"[0.9, 0.5, 0.1]","[0.8, 0.4, 0.2]","[u'red', u'blue', u'black']","[u'left', u'middle', u'right']","[0.9, 0.5, 0.1]","[u'medium', u'high', u'low']","blue",50,"middle","high","True","False",356,750,NA
"A3S5M6R3ZR6ECN","Tue Jan 28 2020 09:15:19 GMT-0500 (Eastern Standard Time)","Tue Jan 28 2020 09:22:33 GMT-0500 (Eastern Standard Time)","Mozilla/5.0 (X11; CrOS x86_64 12607.81.0) AppleWebKit/537.36 (KHTML, like Gecko) Chrome/79.0.3945.119 Safari/537.36",10,"[0.9, 0.5, 0.1]","[0.8, 0.4, 0.2]","[u'red', u'blue', u'black']","[u'left', u'middle', u'right']","[0.9, 0.5, 0.1]","[u'medium', u'high', u'low']","blue",50,"middle","high","False","True",380,700,NA
"A3S5M6R3ZR6ECN","Tue Jan 28 2020 09:15:19 GMT-0500 (Eastern Standard Time)","Tue Jan 28 2020 09:22:33 GMT-0500 (Eastern Standard Time)","Mozilla/5.0 (X11; CrOS x86_64 12607.81.0) AppleWebKit/537.36 (KHTML, like Gecko) Chrome/79.0.3945.119 Safari/537.36",11,"[0.9, 0.5, 0.1]","[0.8, 0.4, 0.2]","[u'red', u'blue', u'black']","[u'left', u'middle', u'right']","[0.9, 0.5, 0.1]","[u'medium', u'low', u'high']","black",51,"right","high","True","False",559,800,NA
"A3S5M6R3ZR6ECN","Tue Jan 28 2020 09:15:19 GMT-0500 (Eastern Standard Time)","Tue Jan 28 2020 09:22:33 GMT-0500 (Eastern Standard Time)","Mozilla/5.0 (X11; CrOS x86_64 12607.81.0) AppleWebKit/537.36 (KHTML, like Gecko) Chrome/79.0.3945.119 Safari/537.36",12,"[0.9, 0.5, 0.1]","[0.8, 0.4, 0.2]","[u'red', u'blue', u'black']","[u'left', u'middle', u'right']","[0.9, 0.5, 0.1]","[u'medium', u'low', u'high']","black",51,"right","high","True","False",415,900,NA
"A3S5M6R3ZR6ECN","Tue Jan 28 2020 09:15:19 GMT-0500 (Eastern Standard Time)","Tue Jan 28 2020 09:22:33 GMT-0500 (Eastern Standard Time)","Mozilla/5.0 (X11; CrOS x86_64 12607.81.0) AppleWebKit/537.36 (KHTML, like Gecko) Chrome/79.0.3945.119 Safari/537.36",13,"[0.9, 0.5, 0.1]","[0.8, 0.4, 0.2]","[u'red', u'blue', u'black']","[u'left', u'middle', u'right']","[0.9, 0.5, 0.1]","[u'medium', u'low', u'high']","black",51,"right","high","True","False",396,1000,NA
"A3S5M6R3ZR6ECN","Tue Jan 28 2020 09:15:19 GMT-0500 (Eastern Standard Time)","Tue Jan 28 2020 09:22:33 GMT-0500 (Eastern Standard Time)","Mozilla/5.0 (X11; CrOS x86_64 12607.81.0) AppleWebKit/537.36 (KHTML, like Gecko) Chrome/79.0.3945.119 Safari/537.36",14,"[0.9, 0.5, 0.1]","[0.8, 0.4, 0.2]","[u'red', u'blue', u'black']","[u'left', u'middle', u'right']","[0.9, 0.5, 0.1]","[u'medium', u'low', u'high']","black",51,"right","high","True","False",643,1100,NA
"A3S5M6R3ZR6ECN","Tue Jan 28 2020 09:15:19 GMT-0500 (Eastern Standard Time)","Tue Jan 28 2020 09:22:33 GMT-0500 (Eastern Standard Time)","Mozilla/5.0 (X11; CrOS x86_64 12607.81.0) AppleWebKit/537.36 (KHTML, like Gecko) Chrome/79.0.3945.119 Safari/537.36",15,"[0.9, 0.5, 0.1]","[0.8, 0.4, 0.2]","[u'red', u'blue', u'black']","[u'left', u'middle', u'right']","[0.9, 0.5, 0.1]","[u'medium', u'low', u'high']","black",51,"right","high","True","False",488,1200,NA
"A3S5M6R3ZR6ECN","Tue Jan 28 2020 09:15:19 GMT-0500 (Eastern Standard Time)","Tue Jan 28 2020 09:22:33 GMT-0500 (Eastern Standard Time)","Mozilla/5.0 (X11; CrOS x86_64 12607.81.0) AppleWebKit/537.36 (KHTML, like Gecko) Chrome/79.0.3945.119 Safari/537.36",16,"[0.9, 0.5, 0.1]","[0.8, 0.4, 0.2]","[u'red', u'blue', u'black']","[u'left', u'middle', u'right']","[0.9, 0.5, 0.1]","[u'medium', u'low', u'high']","black",51,"right","high","True","False",427,1300,NA
"A3S5M6R3ZR6ECN","Tue Jan 28 2020 09:15:19 GMT-0500 (Eastern Standard Time)","Tue Jan 28 2020 09:22:33 GMT-0500 (Eastern Standard Time)","Mozilla/5.0 (X11; CrOS x86_64 12607.81.0) AppleWebKit/537.36 (KHTML, like Gecko) Chrome/79.0.3945.119 Safari/537.36",17,"[0.9, 0.5, 0.1]","[0.8, 0.4, 0.2]","[u'red', u'blue', u'black']","[u'left', u'middle', u'right']","[0.9, 0.5, 0.1]","[u'medium', u'low', u'high']","black",51,"right","high","True","False",419,1400,NA
"A3S5M6R3ZR6ECN","Tue Jan 28 2020 09:15:19 GMT-0500 (Eastern Standard Time)","Tue Jan 28 2020 09:22:33 GMT-0500 (Eastern Standard Time)","Mozilla/5.0 (X11; CrOS x86_64 12607.81.0) AppleWebKit/537.36 (KHTML, like Gecko) Chrome/79.0.3945.119 Safari/537.36",18,"[0.9, 0.5, 0.1]","[0.8, 0.4, 0.2]","[u'red', u'blue', u'black']","[u'left', u'middle', u'right']","[0.9, 0.5, 0.1]","[u'medium', u'low', u'high']","black",51,"right","high","True","False",337,1500,NA
"A3S5M6R3ZR6ECN","Tue Jan 28 2020 09:15:19 GMT-0500 (Eastern Standard Time)","Tue Jan 28 2020 09:22:33 GMT-0500 (Eastern Standard Time)","Mozilla/5.0 (X11; CrOS x86_64 12607.81.0) AppleWebKit/537.36 (KHTML, like Gecko) Chrome/79.0.3945.119 Safari/537.36",19,"[0.9, 0.5, 0.1]","[0.8, 0.4, 0.2]","[u'red', u'blue', u'black']","[u'left', u'middle', u'right']","[0.9, 0.5, 0.1]","[u'medium', u'low', u'high']","black",51,"right","high","False","True",485,1450,NA
"A3S5M6R3ZR6ECN","Tue Jan 28 2020 09:15:19 GMT-0500 (Eastern Standard Time)","Tue Jan 28 2020 09:22:33 GMT-0500 (Eastern Standard Time)","Mozilla/5.0 (X11; CrOS x86_64 12607.81.0) AppleWebKit/537.36 (KHTML, like Gecko) Chrome/79.0.3945.119 Safari/537.36",20,"[0.9, 0.5, 0.1]","[0.8, 0.4, 0.2]","[u'red', u'blue', u'black']","[u'left', u'middle', u'right']","[0.9, 0.5, 0.1]","[u'high', u'medium', u'low']","red",49,"left","high","False","False",162,1400,NA
"A3S5M6R3ZR6ECN","Tue Jan 28 2020 09:15:19 GMT-0500 (Eastern Standard Time)","Tue Jan 28 2020 09:22:33 GMT-0500 (Eastern Standard Time)","Mozilla/5.0 (X11; CrOS x86_64 12607.81.0) AppleWebKit/537.36 (KHTML, like Gecko) Chrome/79.0.3945.119 Safari/537.36",21,"[0.9, 0.5, 0.1]","[0.8, 0.4, 0.2]","[u'red', u'blue', u'black']","[u'left', u'middle', u'right']","[0.9, 0.5, 0.1]","[u'high', u'medium', u'low']","blue",50,"middle","medium","False","False",687,1350,NA
"A3S5M6R3ZR6ECN","Tue Jan 28 2020 09:15:19 GMT-0500 (Eastern Standard Time)","Tue Jan 28 2020 09:22:33 GMT-0500 (Eastern Standard Time)","Mozilla/5.0 (X11; CrOS x86_64 12607.81.0) AppleWebKit/537.36 (KHTML, like Gecko) Chrome/79.0.3945.119 Safari/537.36",22,"[0.9, 0.5, 0.1]","[0.8, 0.4, 0.2]","[u'red', u'blue', u'black']","[u'left', u'middle', u'right']","[0.9, 0.5, 0.1]","[u'high', u'medium', u'low']","black",51,"right","low","False","False",471,1300,NA
"A3S5M6R3ZR6ECN","Tue Jan 28 2020 09:15:19 GMT-0500 (Eastern Standard Time)","Tue Jan 28 2020 09:22:33 GMT-0500 (Eastern Standard Time)","Mozilla/5.0 (X11; CrOS x86_64 12607.81.0) AppleWebKit/537.36 (KHTML, like Gecko) Chrome/79.0.3945.119 Safari/537.36",23,"[0.9, 0.5, 0.1]","[0.8, 0.4, 0.2]","[u'red', u'blue', u'black']","[u'left', u'middle', u'right']","[0.9, 0.5, 0.1]","[u'high', u'medium', u'low']","blue",50,"middle","medium","True","False",457,1400,NA
"A3S5M6R3ZR6ECN","Tue Jan 28 2020 09:15:19 GMT-0500 (Eastern Standard Time)","Tue Jan 28 2020 09:22:33 GMT-0500 (Eastern Standard Time)","Mozilla/5.0 (X11; CrOS x86_64 12607.81.0) AppleWebKit/537.36 (KHTML, like Gecko) Chrome/79.0.3945.119 Safari/537.36",24,"[0.9, 0.5, 0.1]","[0.8, 0.4, 0.2]","[u'red', u'blue', u'black']","[u'left', u'middle', u'right']","[0.9, 0.5, 0.1]","[u'high', u'medium', u'low']","blue",50,"middle","medium","True","False",876,1500,NA
"A3S5M6R3ZR6ECN","Tue Jan 28 2020 09:15:19 GMT-0500 (Eastern Standard Time)","Tue Jan 28 2020 09:22:33 GMT-0500 (Eastern Standard Time)","Mozilla/5.0 (X11; CrOS x86_64 12607.81.0) AppleWebKit/537.36 (KHTML, like Gecko) Chrome/79.0.3945.119 Safari/537.36",25,"[0.9, 0.5, 0.1]","[0.8, 0.4, 0.2]","[u'red', u'blue', u'black']","[u'left', u'middle', u'right']","[0.9, 0.5, 0.1]","[u'high', u'medium', u'low']","blue",50,"middle","medium","False","False",427,1450,NA
"A3S5M6R3ZR6ECN","Tue Jan 28 2020 09:15:19 GMT-0500 (Eastern Standard Time)","Tue Jan 28 2020 09:22:33 GMT-0500 (Eastern Standard Time)","Mozilla/5.0 (X11; CrOS x86_64 12607.81.0) AppleWebKit/537.36 (KHTML, like Gecko) Chrome/79.0.3945.119 Safari/537.36",26,"[0.9, 0.5, 0.1]","[0.8, 0.4, 0.2]","[u'red', u'blue', u'black']","[u'left', u'middle', u'right']","[0.9, 0.5, 0.1]","[u'high', u'medium', u'low']","red",49,"left","high","True","False",540,1550,NA
"A3S5M6R3ZR6ECN","Tue Jan 28 2020 09:15:19 GMT-0500 (Eastern Standard Time)","Tue Jan 28 2020 09:22:33 GMT-0500 (Eastern Standard Time)","Mozilla/5.0 (X11; CrOS x86_64 12607.81.0) AppleWebKit/537.36 (KHTML, like Gecko) Chrome/79.0.3945.119 Safari/537.36",27,"[0.9, 0.5, 0.1]","[0.8, 0.4, 0.2]","[u'red', u'blue', u'black']","[u'left', u'middle', u'right']","[0.9, 0.5, 0.1]","[u'high', u'medium', u'low']","red",49,"left","high","False","False",10,1500,NA
"A3S5M6R3ZR6ECN","Tue Jan 28 2020 09:15:19 GMT-0500 (Eastern Standard Time)","Tue Jan 28 2020 09:22:33 GMT-0500 (Eastern Standard Time)","Mozilla/5.0 (X11; CrOS x86_64 12607.81.0) AppleWebKit/537.36 (KHTML, like Gecko) Chrome/79.0.3945.119 Safari/537.36",28,"[0.9, 0.5, 0.1]","[0.8, 0.4, 0.2]","[u'red', u'blue', u'black']","[u'left', u'middle', u'right']","[0.9, 0.5, 0.1]","[u'high', u'medium', u'low']","black",51,"right","low","False","False",1474,1450,NA
"A3S5M6R3ZR6ECN","Tue Jan 28 2020 09:15:19 GMT-0500 (Eastern Standard Time)","Tue Jan 28 2020 09:22:33 GMT-0500 (Eastern Standard Time)","Mozilla/5.0 (X11; CrOS x86_64 12607.81.0) AppleWebKit/537.36 (KHTML, like Gecko) Chrome/79.0.3945.119 Safari/537.36",29,"[0.9, 0.5, 0.1]","[0.8, 0.4, 0.2]","[u'red', u'blue', u'black']","[u'left', u'middle', u'right']","[0.9, 0.5, 0.1]","[u'high', u'medium', u'low']","blue",50,"middle","medium","False","False",652,1400,NA
"A3S5M6R3ZR6ECN","Tue Jan 28 2020 09:15:19 GMT-0500 (Eastern Standard Time)","Tue Jan 28 2020 09:22:33 GMT-0500 (Eastern Standard Time)","Mozilla/5.0 (X11; CrOS x86_64 12607.81.0) AppleWebKit/537.36 (KHTML, like Gecko) Chrome/79.0.3945.119 Safari/537.36",30,"[0.9, 0.5, 0.1]","[0.8, 0.4, 0.2]","[u'red', u'blue', u'black']","[u'left', u'middle', u'right']","[0.9, 0.5, 0.1]","[u'high', u'medium', u'low']","red",49,"left","high","True","False",464,1500,NA
"A3S5M6R3ZR6ECN","Tue Jan 28 2020 09:15:19 GMT-0500 (Eastern Standard Time)","Tue Jan 28 2020 09:22:33 GMT-0500 (Eastern Standard Time)","Mozilla/5.0 (X11; CrOS x86_64 12607.81.0) AppleWebKit/537.36 (KHTML, like Gecko) Chrome/79.0.3945.119 Safari/537.36",31,"[0.9, 0.5, 0.1]","[0.8, 0.4, 0.2]","[u'red', u'blue', u'black']","[u'left', u'middle', u'right']","[0.9, 0.5, 0.1]","[u'high', u'medium', u'low']","red",49,"left","high","True","False",447,1600,NA
"A3S5M6R3ZR6ECN","Tue Jan 28 2020 09:15:19 GMT-0500 (Eastern Standard Time)","Tue Jan 28 2020 09:22:33 GMT-0500 (Eastern Standard Time)","Mozilla/5.0 (X11; CrOS x86_64 12607.81.0) AppleWebKit/537.36 (KHTML, like Gecko) Chrome/79.0.3945.119 Safari/537.36",32,"[0.9, 0.5, 0.1]","[0.8, 0.4, 0.2]","[u'red', u'blue', u'black']","[u'left', u'middle', u'right']","[0.9, 0.5, 0.1]","[u'high', u'medium', u'low']","red",49,"left","high","True","False",441,1700,NA
"A3S5M6R3ZR6ECN","Tue Jan 28 2020 09:15:19 GMT-0500 (Eastern Standard Time)","Tue Jan 28 2020 09:22:33 GMT-0500 (Eastern Standard Time)","Mozilla/5.0 (X11; CrOS x86_64 12607.81.0) AppleWebKit/537.36 (KHTML, like Gecko) Chrome/79.0.3945.119 Safari/537.36",33,"[0.9, 0.5, 0.1]","[0.8, 0.4, 0.2]","[u'red', u'blue', u'black']","[u'left', u'middle', u'right']","[0.9, 0.5, 0.1]","[u'high', u'medium', u'low']","red",49,"left","high","True","False",449,1800,NA
"A3S5M6R3ZR6ECN","Tue Jan 28 2020 09:15:19 GMT-0500 (Eastern Standard Time)","Tue Jan 28 2020 09:22:33 GMT-0500 (Eastern Standard Time)","Mozilla/5.0 (X11; CrOS x86_64 12607.81.0) AppleWebKit/537.36 (KHTML, like Gecko) Chrome/79.0.3945.119 Safari/537.36",34,"[0.9, 0.5, 0.1]","[0.8, 0.4, 0.2]","[u'red', u'blue', u'black']","[u'left', u'middle', u'right']","[0.9, 0.5, 0.1]","[u'high', u'medium', u'low']","red",49,"left","high","True","False",435,1900,NA
"A3S5M6R3ZR6ECN","Tue Jan 28 2020 09:15:19 GMT-0500 (Eastern Standard Time)","Tue Jan 28 2020 09:22:33 GMT-0500 (Eastern Standard Time)","Mozilla/5.0 (X11; CrOS x86_64 12607.81.0) AppleWebKit/537.36 (KHTML, like Gecko) Chrome/79.0.3945.119 Safari/537.36",35,"[0.9, 0.5, 0.1]","[0.8, 0.4, 0.2]","[u'red', u'blue', u'black']","[u'left', u'middle', u'right']","[0.9, 0.5, 0.1]","[u'high', u'medium', u'low']","red",49,"left","high","True","False",524,2000,NA
"A3S5M6R3ZR6ECN","Tue Jan 28 2020 09:15:19 GMT-0500 (Eastern Standard Time)","Tue Jan 28 2020 09:22:33 GMT-0500 (Eastern Standard Time)","Mozilla/5.0 (X11; CrOS x86_64 12607.81.0) AppleWebKit/537.36 (KHTML, like Gecko) Chrome/79.0.3945.119 Safari/537.36",36,"[0.9, 0.5, 0.1]","[0.8, 0.4, 0.2]","[u'red', u'blue', u'black']","[u'left', u'middle', u'right']","[0.9, 0.5, 0.1]","[u'high', u'medium', u'low']","red",49,"left","high","False","False",465,1950,NA
"A3S5M6R3ZR6ECN","Tue Jan 28 2020 09:15:19 GMT-0500 (Eastern Standard Time)","Tue Jan 28 2020 09:22:33 GMT-0500 (Eastern Standard Time)","Mozilla/5.0 (X11; CrOS x86_64 12607.81.0) AppleWebKit/537.36 (KHTML, like Gecko) Chrome/79.0.3945.119 Safari/537.36",37,"[0.9, 0.5, 0.1]","[0.8, 0.4, 0.2]","[u'red', u'blue', u'black']","[u'left', u'middle', u'right']","[0.9, 0.5, 0.1]","[u'high', u'medium', u'low']","black",51,"right","low","False","False",775,1900,NA
"A3S5M6R3ZR6ECN","Tue Jan 28 2020 09:15:19 GMT-0500 (Eastern Standard Time)","Tue Jan 28 2020 09:22:33 GMT-0500 (Eastern Standard Time)","Mozilla/5.0 (X11; CrOS x86_64 12607.81.0) AppleWebKit/537.36 (KHTML, like Gecko) Chrome/79.0.3945.119 Safari/537.36",38,"[0.9, 0.5, 0.1]","[0.8, 0.4, 0.2]","[u'red', u'blue', u'black']","[u'left', u'middle', u'right']","[0.9, 0.5, 0.1]","[u'high', u'medium', u'low']","blue",50,"middle","medium","True","False",449,2000,NA
"A3S5M6R3ZR6ECN","Tue Jan 28 2020 09:15:19 GMT-0500 (Eastern Standard Time)","Tue Jan 28 2020 09:22:33 GMT-0500 (Eastern Standard Time)","Mozilla/5.0 (X11; CrOS x86_64 12607.81.0) AppleWebKit/537.36 (KHTML, like Gecko) Chrome/79.0.3945.119 Safari/537.36",39,"[0.9, 0.5, 0.1]","[0.8, 0.4, 0.2]","[u'red', u'blue', u'black']","[u'left', u'middle', u'right']","[0.9, 0.5, 0.1]","[u'high', u'medium', u'low']","blue",50,"middle","medium","False","False",435,1950,NA
"A3S5M6R3ZR6ECN","Tue Jan 28 2020 09:15:19 GMT-0500 (Eastern Standard Time)","Tue Jan 28 2020 09:22:33 GMT-0500 (Eastern Standard Time)","Mozilla/5.0 (X11; CrOS x86_64 12607.81.0) AppleWebKit/537.36 (KHTML, like Gecko) Chrome/79.0.3945.119 Safari/537.36",40,"[0.9, 0.5, 0.1]","[0.8, 0.4, 0.2]","[u'red', u'blue', u'black']","[u'left', u'middle', u'right']","[0.9, 0.5, 0.1]","[u'high', u'medium', u'low']","red",49,"left","high","False","False",514,1900,NA
"A3S5M6R3ZR6ECN","Tue Jan 28 2020 09:15:19 GMT-0500 (Eastern Standard Time)","Tue Jan 28 2020 09:22:33 GMT-0500 (Eastern Standard Time)","Mozilla/5.0 (X11; CrOS x86_64 12607.81.0) AppleWebKit/537.36 (KHTML, like Gecko) Chrome/79.0.3945.119 Safari/537.36",41,"[0.9, 0.5, 0.1]","[0.8, 0.4, 0.2]","[u'red', u'blue', u'black']","[u'left', u'middle', u'right']","[0.9, 0.5, 0.1]","[u'medium', u'low', u'high']","black",51,"right","high","True","False",1661,2000,NA
"A3S5M6R3ZR6ECN","Tue Jan 28 2020 09:15:19 GMT-0500 (Eastern Standard Time)","Tue Jan 28 2020 09:22:33 GMT-0500 (Eastern Standard Time)","Mozilla/5.0 (X11; CrOS x86_64 12607.81.0) AppleWebKit/537.36 (KHTML, like Gecko) Chrome/79.0.3945.119 Safari/537.36",42,"[0.9, 0.5, 0.1]","[0.8, 0.4, 0.2]","[u'red', u'blue', u'black']","[u'left', u'middle', u'right']","[0.9, 0.5, 0.1]","[u'medium', u'low', u'high']","black",51,"right","high","True","False",428,2100,NA
"A3S5M6R3ZR6ECN","Tue Jan 28 2020 09:15:19 GMT-0500 (Eastern Standard Time)","Tue Jan 28 2020 09:22:33 GMT-0500 (Eastern Standard Time)","Mozilla/5.0 (X11; CrOS x86_64 12607.81.0) AppleWebKit/537.36 (KHTML, like Gecko) Chrome/79.0.3945.119 Safari/537.36",43,"[0.9, 0.5, 0.1]","[0.8, 0.4, 0.2]","[u'red', u'blue', u'black']","[u'left', u'middle', u'right']","[0.9, 0.5, 0.1]","[u'medium', u'low', u'high']","black",51,"right","high","False","False",383,2050,NA
"A3S5M6R3ZR6ECN","Tue Jan 28 2020 09:15:19 GMT-0500 (Eastern Standard Time)","Tue Jan 28 2020 09:22:33 GMT-0500 (Eastern Standard Time)","Mozilla/5.0 (X11; CrOS x86_64 12607.81.0) AppleWebKit/537.36 (KHTML, like Gecko) Chrome/79.0.3945.119 Safari/537.36",44,"[0.9, 0.5, 0.1]","[0.8, 0.4, 0.2]","[u'red', u'blue', u'black']","[u'left', u'middle', u'right']","[0.9, 0.5, 0.1]","[u'medium', u'low', u'high']","blue",50,"middle","low","False","False",489,2000,NA
"A3S5M6R3ZR6ECN","Tue Jan 28 2020 09:15:19 GMT-0500 (Eastern Standard Time)","Tue Jan 28 2020 09:22:33 GMT-0500 (Eastern Standard Time)","Mozilla/5.0 (X11; CrOS x86_64 12607.81.0) AppleWebKit/537.36 (KHTML, like Gecko) Chrome/79.0.3945.119 Safari/537.36",45,"[0.9, 0.5, 0.1]","[0.8, 0.4, 0.2]","[u'red', u'blue', u'black']","[u'left', u'middle', u'right']","[0.9, 0.5, 0.1]","[u'medium', u'low', u'high']","red",49,"left","medium","True","False",511,2100,NA
"A3S5M6R3ZR6ECN","Tue Jan 28 2020 09:15:19 GMT-0500 (Eastern Standard Time)","Tue Jan 28 2020 09:22:33 GMT-0500 (Eastern Standard Time)","Mozilla/5.0 (X11; CrOS x86_64 12607.81.0) AppleWebKit/537.36 (KHTML, like Gecko) Chrome/79.0.3945.119 Safari/537.36",46,"[0.9, 0.5, 0.1]","[0.8, 0.4, 0.2]","[u'red', u'blue', u'black']","[u'left', u'middle', u'right']","[0.9, 0.5, 0.1]","[u'medium', u'low', u'high']","red",49,"left","medium","True","False",438,2200,NA
"A3S5M6R3ZR6ECN","Tue Jan 28 2020 09:15:19 GMT-0500 (Eastern Standard Time)","Tue Jan 28 2020 09:22:33 GMT-0500 (Eastern Standard Time)","Mozilla/5.0 (X11; CrOS x86_64 12607.81.0) AppleWebKit/537.36 (KHTML, like Gecko) Chrome/79.0.3945.119 Safari/537.36",47,"[0.9, 0.5, 0.1]","[0.8, 0.4, 0.2]","[u'red', u'blue', u'black']","[u'left', u'middle', u'right']","[0.9, 0.5, 0.1]","[u'medium', u'low', u'high']","red",49,"left","medium","True","False",457,2300,NA
"A3S5M6R3ZR6ECN","Tue Jan 28 2020 09:15:19 GMT-0500 (Eastern Standard Time)","Tue Jan 28 2020 09:22:33 GMT-0500 (Eastern Standard Time)","Mozilla/5.0 (X11; CrOS x86_64 12607.81.0) AppleWebKit/537.36 (KHTML, like Gecko) Chrome/79.0.3945.119 Safari/537.36",48,"[0.9, 0.5, 0.1]","[0.8, 0.4, 0.2]","[u'red', u'blue', u'black']","[u'left', u'middle', u'right']","[0.9, 0.5, 0.1]","[u'medium', u'low', u'high']","red",49,"left","medium","False","False",417,2250,NA
"A3S5M6R3ZR6ECN","Tue Jan 28 2020 09:15:19 GMT-0500 (Eastern Standard Time)","Tue Jan 28 2020 09:22:33 GMT-0500 (Eastern Standard Time)","Mozilla/5.0 (X11; CrOS x86_64 12607.81.0) AppleWebKit/537.36 (KHTML, like Gecko) Chrome/79.0.3945.119 Safari/537.36",49,"[0.9, 0.5, 0.1]","[0.8, 0.4, 0.2]","[u'red', u'blue', u'black']","[u'left', u'middle', u'right']","[0.9, 0.5, 0.1]","[u'medium', u'low', u'high']","blue",50,"middle","low","False","False",396,2200,NA
"A3S5M6R3ZR6ECN","Tue Jan 28 2020 09:15:19 GMT-0500 (Eastern Standard Time)","Tue Jan 28 2020 09:22:33 GMT-0500 (Eastern Standard Time)","Mozilla/5.0 (X11; CrOS x86_64 12607.81.0) AppleWebKit/537.36 (KHTML, like Gecko) Chrome/79.0.3945.119 Safari/537.36",50,"[0.9, 0.5, 0.1]","[0.8, 0.4, 0.2]","[u'red', u'blue', u'black']","[u'left', u'middle', u'right']","[0.9, 0.5, 0.1]","[u'medium', u'low', u'high']","black",51,"right","high","True","False",779,2300,NA
"A3S5M6R3ZR6ECN","Tue Jan 28 2020 09:15:19 GMT-0500 (Eastern Standard Time)","Tue Jan 28 2020 09:22:33 GMT-0500 (Eastern Standard Time)","Mozilla/5.0 (X11; CrOS x86_64 12607.81.0) AppleWebKit/537.36 (KHTML, like Gecko) Chrome/79.0.3945.119 Safari/537.36",51,"[0.9, 0.5, 0.1]","[0.8, 0.4, 0.2]","[u'red', u'blue', u'black']","[u'left', u'middle', u'right']","[0.9, 0.5, 0.1]","[u'medium', u'low', u'high']","black",51,"right","high","False","False",402,2250,NA
"A3S5M6R3ZR6ECN","Tue Jan 28 2020 09:15:19 GMT-0500 (Eastern Standard Time)","Tue Jan 28 2020 09:22:33 GMT-0500 (Eastern Standard Time)","Mozilla/5.0 (X11; CrOS x86_64 12607.81.0) AppleWebKit/537.36 (KHTML, like Gecko) Chrome/79.0.3945.119 Safari/537.36",52,"[0.9, 0.5, 0.1]","[0.8, 0.4, 0.2]","[u'red', u'blue', u'black']","[u'left', u'middle', u'right']","[0.9, 0.5, 0.1]","[u'medium', u'low', u'high']","red",49,"left","medium","False","False",544,2200,NA
"A3S5M6R3ZR6ECN","Tue Jan 28 2020 09:15:19 GMT-0500 (Eastern Standard Time)","Tue Jan 28 2020 09:22:33 GMT-0500 (Eastern Standard Time)","Mozilla/5.0 (X11; CrOS x86_64 12607.81.0) AppleWebKit/537.36 (KHTML, like Gecko) Chrome/79.0.3945.119 Safari/537.36",53,"[0.9, 0.5, 0.1]","[0.8, 0.4, 0.2]","[u'red', u'blue', u'black']","[u'left', u'middle', u'right']","[0.9, 0.5, 0.1]","[u'medium', u'low', u'high']","blue",50,"middle","low","False","False",389,2150,NA
"A3S5M6R3ZR6ECN","Tue Jan 28 2020 09:15:19 GMT-0500 (Eastern Standard Time)","Tue Jan 28 2020 09:22:33 GMT-0500 (Eastern Standard Time)","Mozilla/5.0 (X11; CrOS x86_64 12607.81.0) AppleWebKit/537.36 (KHTML, like Gecko) Chrome/79.0.3945.119 Safari/537.36",54,"[0.9, 0.5, 0.1]","[0.8, 0.4, 0.2]","[u'red', u'blue', u'black']","[u'left', u'middle', u'right']","[0.9, 0.5, 0.1]","[u'medium', u'low', u'high']","black",51,"right","high","True","False",343,2250,NA
"A3S5M6R3ZR6ECN","Tue Jan 28 2020 09:15:19 GMT-0500 (Eastern Standard Time)","Tue Jan 28 2020 09:22:33 GMT-0500 (Eastern Standard Time)","Mozilla/5.0 (X11; CrOS x86_64 12607.81.0) AppleWebKit/537.36 (KHTML, like Gecko) Chrome/79.0.3945.119 Safari/537.36",55,"[0.9, 0.5, 0.1]","[0.8, 0.4, 0.2]","[u'red', u'blue', u'black']","[u'left', u'middle', u'right']","[0.9, 0.5, 0.1]","[u'medium', u'low', u'high']","black",51,"right","high","True","False",429,2350,NA
"A3S5M6R3ZR6ECN","Tue Jan 28 2020 09:15:19 GMT-0500 (Eastern Standard Time)","Tue Jan 28 2020 09:22:33 GMT-0500 (Eastern Standard Time)","Mozilla/5.0 (X11; CrOS x86_64 12607.81.0) AppleWebKit/537.36 (KHTML, like Gecko) Chrome/79.0.3945.119 Safari/537.36",56,"[0.9, 0.5, 0.1]","[0.8, 0.4, 0.2]","[u'red', u'blue', u'black']","[u'left', u'middle', u'right']","[0.9, 0.5, 0.1]","[u'medium', u'low', u'high']","black",51,"right","high","True","False",450,2450,NA
"A3S5M6R3ZR6ECN","Tue Jan 28 2020 09:15:19 GMT-0500 (Eastern Standard Time)","Tue Jan 28 2020 09:22:33 GMT-0500 (Eastern Standard Time)","Mozilla/5.0 (X11; CrOS x86_64 12607.81.0) AppleWebKit/537.36 (KHTML, like Gecko) Chrome/79.0.3945.119 Safari/537.36",57,"[0.9, 0.5, 0.1]","[0.8, 0.4, 0.2]","[u'red', u'blue', u'black']","[u'left', u'middle', u'right']","[0.9, 0.5, 0.1]","[u'medium', u'low', u'high']","black",51,"right","high","True","False",433,2550,NA
"A3S5M6R3ZR6ECN","Tue Jan 28 2020 09:15:19 GMT-0500 (Eastern Standard Time)","Tue Jan 28 2020 09:22:33 GMT-0500 (Eastern Standard Time)","Mozilla/5.0 (X11; CrOS x86_64 12607.81.0) AppleWebKit/537.36 (KHTML, like Gecko) Chrome/79.0.3945.119 Safari/537.36",58,"[0.9, 0.5, 0.1]","[0.8, 0.4, 0.2]","[u'red', u'blue', u'black']","[u'left', u'middle', u'right']","[0.9, 0.5, 0.1]","[u'medium', u'low', u'high']","black",51,"right","high","True","False",546,2650,NA
"A3S5M6R3ZR6ECN","Tue Jan 28 2020 09:15:19 GMT-0500 (Eastern Standard Time)","Tue Jan 28 2020 09:22:33 GMT-0500 (Eastern Standard Time)","Mozilla/5.0 (X11; CrOS x86_64 12607.81.0) AppleWebKit/537.36 (KHTML, like Gecko) Chrome/79.0.3945.119 Safari/537.36",59,"[0.9, 0.5, 0.1]","[0.8, 0.4, 0.2]","[u'red', u'blue', u'black']","[u'left', u'middle', u'right']","[0.9, 0.5, 0.1]","[u'medium', u'low', u'high']","black",51,"right","high","True","False",455,2750,NA
"A3S5M6R3ZR6ECN","Tue Jan 28 2020 09:15:19 GMT-0500 (Eastern Standard Time)","Tue Jan 28 2020 09:22:33 GMT-0500 (Eastern Standard Time)","Mozilla/5.0 (X11; CrOS x86_64 12607.81.0) AppleWebKit/537.36 (KHTML, like Gecko) Chrome/79.0.3945.119 Safari/537.36",60,"[0.9, 0.5, 0.1]","[0.8, 0.4, 0.2]","[u'red', u'blue', u'black']","[u'left', u'middle', u'right']","[0.9, 0.5, 0.1]","[u'medium', u'low', u'high']","black",51,"right","high","True","False",441,2850,NA
"A3S5M6R3ZR6ECN","Tue Jan 28 2020 09:15:19 GMT-0500 (Eastern Standard Time)","Tue Jan 28 2020 09:22:33 GMT-0500 (Eastern Standard Time)","Mozilla/5.0 (X11; CrOS x86_64 12607.81.0) AppleWebKit/537.36 (KHTML, like Gecko) Chrome/79.0.3945.119 Safari/537.36",61,"[0.9, 0.5, 0.1]","[0.8, 0.4, 0.2]","[u'red', u'blue', u'black']","[u'left', u'middle', u'right']","[0.9, 0.5, 0.1]","[u'medium', u'low', u'high']","black",51,"right","high","True","False",418,2950,NA
"A3S5M6R3ZR6ECN","Tue Jan 28 2020 09:15:19 GMT-0500 (Eastern Standard Time)","Tue Jan 28 2020 09:22:33 GMT-0500 (Eastern Standard Time)","Mozilla/5.0 (X11; CrOS x86_64 12607.81.0) AppleWebKit/537.36 (KHTML, like Gecko) Chrome/79.0.3945.119 Safari/537.36",62,"[0.9, 0.5, 0.1]","[0.8, 0.4, 0.2]","[u'red', u'blue', u'black']","[u'left', u'middle', u'right']","[0.9, 0.5, 0.1]","[u'medium', u'low', u'high']","black",51,"right","high","True","True",421,3050,NA
"A3S5M6R3ZR6ECN","Tue Jan 28 2020 09:15:19 GMT-0500 (Eastern Standard Time)","Tue Jan 28 2020 09:22:33 GMT-0500 (Eastern Standard Time)","Mozilla/5.0 (X11; CrOS x86_64 12607.81.0) AppleWebKit/537.36 (KHTML, like Gecko) Chrome/79.0.3945.119 Safari/537.36",63,"[0.9, 0.5, 0.1]","[0.8, 0.4, 0.2]","[u'red', u'blue', u'black']","[u'left', u'middle', u'right']","[0.9, 0.5, 0.1]","[u'high', u'low', u'medium']","black",51,"right","medium","False","False",532,3000,NA
"A3S5M6R3ZR6ECN","Tue Jan 28 2020 09:15:19 GMT-0500 (Eastern Standard Time)","Tue Jan 28 2020 09:22:33 GMT-0500 (Eastern Standard Time)","Mozilla/5.0 (X11; CrOS x86_64 12607.81.0) AppleWebKit/537.36 (KHTML, like Gecko) Chrome/79.0.3945.119 Safari/537.36",64,"[0.9, 0.5, 0.1]","[0.8, 0.4, 0.2]","[u'red', u'blue', u'black']","[u'left', u'middle', u'right']","[0.9, 0.5, 0.1]","[u'high', u'low', u'medium']","blue",50,"middle","low","False","False",616,2950,NA
"A3S5M6R3ZR6ECN","Tue Jan 28 2020 09:15:19 GMT-0500 (Eastern Standard Time)","Tue Jan 28 2020 09:22:33 GMT-0500 (Eastern Standard Time)","Mozilla/5.0 (X11; CrOS x86_64 12607.81.0) AppleWebKit/537.36 (KHTML, like Gecko) Chrome/79.0.3945.119 Safari/537.36",65,"[0.9, 0.5, 0.1]","[0.8, 0.4, 0.2]","[u'red', u'blue', u'black']","[u'left', u'middle', u'right']","[0.9, 0.5, 0.1]","[u'high', u'low', u'medium']","black",51,"right","medium","True","False",387,3050,NA
"A3S5M6R3ZR6ECN","Tue Jan 28 2020 09:15:19 GMT-0500 (Eastern Standard Time)","Tue Jan 28 2020 09:22:33 GMT-0500 (Eastern Standard Time)","Mozilla/5.0 (X11; CrOS x86_64 12607.81.0) AppleWebKit/537.36 (KHTML, like Gecko) Chrome/79.0.3945.119 Safari/537.36",66,"[0.9, 0.5, 0.1]","[0.8, 0.4, 0.2]","[u'red', u'blue', u'black']","[u'left', u'middle', u'right']","[0.9, 0.5, 0.1]","[u'high', u'low', u'medium']","black",51,"right","medium","True","False",380,3150,NA
"A3S5M6R3ZR6ECN","Tue Jan 28 2020 09:15:19 GMT-0500 (Eastern Standard Time)","Tue Jan 28 2020 09:22:33 GMT-0500 (Eastern Standard Time)","Mozilla/5.0 (X11; CrOS x86_64 12607.81.0) AppleWebKit/537.36 (KHTML, like Gecko) Chrome/79.0.3945.119 Safari/537.36",67,"[0.9, 0.5, 0.1]","[0.8, 0.4, 0.2]","[u'red', u'blue', u'black']","[u'left', u'middle', u'right']","[0.9, 0.5, 0.1]","[u'high', u'low', u'medium']","black",51,"right","medium","True","False",820,3250,NA
"A3S5M6R3ZR6ECN","Tue Jan 28 2020 09:15:19 GMT-0500 (Eastern Standard Time)","Tue Jan 28 2020 09:22:33 GMT-0500 (Eastern Standard Time)","Mozilla/5.0 (X11; CrOS x86_64 12607.81.0) AppleWebKit/537.36 (KHTML, like Gecko) Chrome/79.0.3945.119 Safari/537.36",68,"[0.9, 0.5, 0.1]","[0.8, 0.4, 0.2]","[u'red', u'blue', u'black']","[u'left', u'middle', u'right']","[0.9, 0.5, 0.1]","[u'high', u'low', u'medium']","black",51,"right","medium","False","False",525,3200,NA
"A3S5M6R3ZR6ECN","Tue Jan 28 2020 09:15:19 GMT-0500 (Eastern Standard Time)","Tue Jan 28 2020 09:22:33 GMT-0500 (Eastern Standard Time)","Mozilla/5.0 (X11; CrOS x86_64 12607.81.0) AppleWebKit/537.36 (KHTML, like Gecko) Chrome/79.0.3945.119 Safari/537.36",69,"[0.9, 0.5, 0.1]","[0.8, 0.4, 0.2]","[u'red', u'blue', u'black']","[u'left', u'middle', u'right']","[0.9, 0.5, 0.1]","[u'high', u'low', u'medium']","red",49,"left","high","True","False",502,3300,NA
"A3S5M6R3ZR6ECN","Tue Jan 28 2020 09:15:19 GMT-0500 (Eastern Standard Time)","Tue Jan 28 2020 09:22:33 GMT-0500 (Eastern Standard Time)","Mozilla/5.0 (X11; CrOS x86_64 12607.81.0) AppleWebKit/537.36 (KHTML, like Gecko) Chrome/79.0.3945.119 Safari/537.36",70,"[0.9, 0.5, 0.1]","[0.8, 0.4, 0.2]","[u'red', u'blue', u'black']","[u'left', u'middle', u'right']","[0.9, 0.5, 0.1]","[u'high', u'low', u'medium']","red",49,"left","high","True","False",390,3400,NA
"A3S5M6R3ZR6ECN","Tue Jan 28 2020 09:15:19 GMT-0500 (Eastern Standard Time)","Tue Jan 28 2020 09:22:33 GMT-0500 (Eastern Standard Time)","Mozilla/5.0 (X11; CrOS x86_64 12607.81.0) AppleWebKit/537.36 (KHTML, like Gecko) Chrome/79.0.3945.119 Safari/537.36",71,"[0.9, 0.5, 0.1]","[0.8, 0.4, 0.2]","[u'red', u'blue', u'black']","[u'left', u'middle', u'right']","[0.9, 0.5, 0.1]","[u'high', u'low', u'medium']","red",49,"left","high","True","False",436,3500,NA
"A3S5M6R3ZR6ECN","Tue Jan 28 2020 09:15:19 GMT-0500 (Eastern Standard Time)","Tue Jan 28 2020 09:22:33 GMT-0500 (Eastern Standard Time)","Mozilla/5.0 (X11; CrOS x86_64 12607.81.0) AppleWebKit/537.36 (KHTML, like Gecko) Chrome/79.0.3945.119 Safari/537.36",72,"[0.9, 0.5, 0.1]","[0.8, 0.4, 0.2]","[u'red', u'blue', u'black']","[u'left', u'middle', u'right']","[0.9, 0.5, 0.1]","[u'high', u'low', u'medium']","red",49,"left","high","True","False",394,3600,NA
"A3S5M6R3ZR6ECN","Tue Jan 28 2020 09:15:19 GMT-0500 (Eastern Standard Time)","Tue Jan 28 2020 09:22:33 GMT-0500 (Eastern Standard Time)","Mozilla/5.0 (X11; CrOS x86_64 12607.81.0) AppleWebKit/537.36 (KHTML, like Gecko) Chrome/79.0.3945.119 Safari/537.36",73,"[0.9, 0.5, 0.1]","[0.8, 0.4, 0.2]","[u'red', u'blue', u'black']","[u'left', u'middle', u'right']","[0.9, 0.5, 0.1]","[u'high', u'low', u'medium']","red",49,"left","high","True","False",411,3700,NA
"A3S5M6R3ZR6ECN","Tue Jan 28 2020 09:15:19 GMT-0500 (Eastern Standard Time)","Tue Jan 28 2020 09:22:33 GMT-0500 (Eastern Standard Time)","Mozilla/5.0 (X11; CrOS x86_64 12607.81.0) AppleWebKit/537.36 (KHTML, like Gecko) Chrome/79.0.3945.119 Safari/537.36",74,"[0.9, 0.5, 0.1]","[0.8, 0.4, 0.2]","[u'red', u'blue', u'black']","[u'left', u'middle', u'right']","[0.9, 0.5, 0.1]","[u'high', u'low', u'medium']","red",49,"left","high","True","False",444,3800,NA
"A3S5M6R3ZR6ECN","Tue Jan 28 2020 09:15:19 GMT-0500 (Eastern Standard Time)","Tue Jan 28 2020 09:22:33 GMT-0500 (Eastern Standard Time)","Mozilla/5.0 (X11; CrOS x86_64 12607.81.0) AppleWebKit/537.36 (KHTML, like Gecko) Chrome/79.0.3945.119 Safari/537.36",75,"[0.9, 0.5, 0.1]","[0.8, 0.4, 0.2]","[u'red', u'blue', u'black']","[u'left', u'middle', u'right']","[0.9, 0.5, 0.1]","[u'high', u'low', u'medium']","red",49,"left","high","True","False",381,3900,NA
"A3S5M6R3ZR6ECN","Tue Jan 28 2020 09:15:19 GMT-0500 (Eastern Standard Time)","Tue Jan 28 2020 09:22:33 GMT-0500 (Eastern Standard Time)","Mozilla/5.0 (X11; CrOS x86_64 12607.81.0) AppleWebKit/537.36 (KHTML, like Gecko) Chrome/79.0.3945.119 Safari/537.36",76,"[0.9, 0.5, 0.1]","[0.8, 0.4, 0.2]","[u'red', u'blue', u'black']","[u'left', u'middle', u'right']","[0.9, 0.5, 0.1]","[u'high', u'low', u'medium']","red",49,"left","high","True","False",420,4000,NA
"A3S5M6R3ZR6ECN","Tue Jan 28 2020 09:15:19 GMT-0500 (Eastern Standard Time)","Tue Jan 28 2020 09:22:33 GMT-0500 (Eastern Standard Time)","Mozilla/5.0 (X11; CrOS x86_64 12607.81.0) AppleWebKit/537.36 (KHTML, like Gecko) Chrome/79.0.3945.119 Safari/537.36",77,"[0.9, 0.5, 0.1]","[0.8, 0.4, 0.2]","[u'red', u'blue', u'black']","[u'left', u'middle', u'right']","[0.9, 0.5, 0.1]","[u'high', u'low', u'medium']","red",49,"left","high","True","True",455,4100,NA
"A3S5M6R3ZR6ECN","Tue Jan 28 2020 09:15:19 GMT-0500 (Eastern Standard Time)","Tue Jan 28 2020 09:22:33 GMT-0500 (Eastern Standard Time)","Mozilla/5.0 (X11; CrOS x86_64 12607.81.0) AppleWebKit/537.36 (KHTML, like Gecko) Chrome/79.0.3945.119 Safari/537.36",78,"[0.9, 0.5, 0.1]","[0.8, 0.4, 0.2]","[u'red', u'blue', u'black']","[u'left', u'middle', u'right']","[0.9, 0.5, 0.1]","[u'medium', u'low', u'high']","red",49,"left","medium","False","False",470,4050,NA
"A3S5M6R3ZR6ECN","Tue Jan 28 2020 09:15:19 GMT-0500 (Eastern Standard Time)","Tue Jan 28 2020 09:22:33 GMT-0500 (Eastern Standard Time)","Mozilla/5.0 (X11; CrOS x86_64 12607.81.0) AppleWebKit/537.36 (KHTML, like Gecko) Chrome/79.0.3945.119 Safari/537.36",79,"[0.9, 0.5, 0.1]","[0.8, 0.4, 0.2]","[u'red', u'blue', u'black']","[u'left', u'middle', u'right']","[0.9, 0.5, 0.1]","[u'medium', u'low', u'high']","blue",50,"middle","low","False","False",597,4000,NA
"A3S5M6R3ZR6ECN","Tue Jan 28 2020 09:15:19 GMT-0500 (Eastern Standard Time)","Tue Jan 28 2020 09:22:33 GMT-0500 (Eastern Standard Time)","Mozilla/5.0 (X11; CrOS x86_64 12607.81.0) AppleWebKit/537.36 (KHTML, like Gecko) Chrome/79.0.3945.119 Safari/537.36",80,"[0.9, 0.5, 0.1]","[0.8, 0.4, 0.2]","[u'red', u'blue', u'black']","[u'left', u'middle', u'right']","[0.9, 0.5, 0.1]","[u'medium', u'low', u'high']","black",51,"right","high","True","False",466,4100,NA
"A3S5M6R3ZR6ECN","Tue Jan 28 2020 09:15:19 GMT-0500 (Eastern Standard Time)","Tue Jan 28 2020 09:22:33 GMT-0500 (Eastern Standard Time)","Mozilla/5.0 (X11; CrOS x86_64 12607.81.0) AppleWebKit/537.36 (KHTML, like Gecko) Chrome/79.0.3945.119 Safari/537.36",81,"[0.9, 0.5, 0.1]","[0.8, 0.4, 0.2]","[u'red', u'blue', u'black']","[u'left', u'middle', u'right']","[0.8, 0.4, 0.2]","[u'low', u'high', u'medium']","red",49,"left","low","False","False",561,4050,NA
"A3S5M6R3ZR6ECN","Tue Jan 28 2020 09:15:19 GMT-0500 (Eastern Standard Time)","Tue Jan 28 2020 09:22:33 GMT-0500 (Eastern Standard Time)","Mozilla/5.0 (X11; CrOS x86_64 12607.81.0) AppleWebKit/537.36 (KHTML, like Gecko) Chrome/79.0.3945.119 Safari/537.36",82,"[0.9, 0.5, 0.1]","[0.8, 0.4, 0.2]","[u'red', u'blue', u'black']","[u'left', u'middle', u'right']","[0.8, 0.4, 0.2]","[u'low', u'high', u'medium']","blue",50,"middle","high","True","False",359,4150,NA
"A3S5M6R3ZR6ECN","Tue Jan 28 2020 09:15:19 GMT-0500 (Eastern Standard Time)","Tue Jan 28 2020 09:22:33 GMT-0500 (Eastern Standard Time)","Mozilla/5.0 (X11; CrOS x86_64 12607.81.0) AppleWebKit/537.36 (KHTML, like Gecko) Chrome/79.0.3945.119 Safari/537.36",83,"[0.9, 0.5, 0.1]","[0.8, 0.4, 0.2]","[u'red', u'blue', u'black']","[u'left', u'middle', u'right']","[0.8, 0.4, 0.2]","[u'low', u'high', u'medium']","blue",50,"middle","high","True","False",364,4250,NA
"A3S5M6R3ZR6ECN","Tue Jan 28 2020 09:15:19 GMT-0500 (Eastern Standard Time)","Tue Jan 28 2020 09:22:33 GMT-0500 (Eastern Standard Time)","Mozilla/5.0 (X11; CrOS x86_64 12607.81.0) AppleWebKit/537.36 (KHTML, like Gecko) Chrome/79.0.3945.119 Safari/537.36",84,"[0.9, 0.5, 0.1]","[0.8, 0.4, 0.2]","[u'red', u'blue', u'black']","[u'left', u'middle', u'right']","[0.8, 0.4, 0.2]","[u'low', u'high', u'medium']","blue",50,"middle","high","True","False",552,4350,NA
"A3S5M6R3ZR6ECN","Tue Jan 28 2020 09:15:19 GMT-0500 (Eastern Standard Time)","Tue Jan 28 2020 09:22:33 GMT-0500 (Eastern Standard Time)","Mozilla/5.0 (X11; CrOS x86_64 12607.81.0) AppleWebKit/537.36 (KHTML, like Gecko) Chrome/79.0.3945.119 Safari/537.36",85,"[0.9, 0.5, 0.1]","[0.8, 0.4, 0.2]","[u'red', u'blue', u'black']","[u'left', u'middle', u'right']","[0.8, 0.4, 0.2]","[u'low', u'high', u'medium']","blue",50,"middle","high","True","False",663,4450,NA
"A3S5M6R3ZR6ECN","Tue Jan 28 2020 09:15:19 GMT-0500 (Eastern Standard Time)","Tue Jan 28 2020 09:22:33 GMT-0500 (Eastern Standard Time)","Mozilla/5.0 (X11; CrOS x86_64 12607.81.0) AppleWebKit/537.36 (KHTML, like Gecko) Chrome/79.0.3945.119 Safari/537.36",86,"[0.9, 0.5, 0.1]","[0.8, 0.4, 0.2]","[u'red', u'blue', u'black']","[u'left', u'middle', u'right']","[0.8, 0.4, 0.2]","[u'low', u'high', u'medium']","blue",50,"middle","high","True","False",429,4550,NA
"A3S5M6R3ZR6ECN","Tue Jan 28 2020 09:15:19 GMT-0500 (Eastern Standard Time)","Tue Jan 28 2020 09:22:33 GMT-0500 (Eastern Standard Time)","Mozilla/5.0 (X11; CrOS x86_64 12607.81.0) AppleWebKit/537.36 (KHTML, like Gecko) Chrome/79.0.3945.119 Safari/537.36",87,"[0.9, 0.5, 0.1]","[0.8, 0.4, 0.2]","[u'red', u'blue', u'black']","[u'left', u'middle', u'right']","[0.8, 0.4, 0.2]","[u'low', u'high', u'medium']","blue",50,"middle","high","True","False",374,4650,NA
"A3S5M6R3ZR6ECN","Tue Jan 28 2020 09:15:19 GMT-0500 (Eastern Standard Time)","Tue Jan 28 2020 09:22:33 GMT-0500 (Eastern Standard Time)","Mozilla/5.0 (X11; CrOS x86_64 12607.81.0) AppleWebKit/537.36 (KHTML, like Gecko) Chrome/79.0.3945.119 Safari/537.36",88,"[0.9, 0.5, 0.1]","[0.8, 0.4, 0.2]","[u'red', u'blue', u'black']","[u'left', u'middle', u'right']","[0.8, 0.4, 0.2]","[u'low', u'high', u'medium']","blue",50,"middle","high","True","False",359,4750,NA
"A3S5M6R3ZR6ECN","Tue Jan 28 2020 09:15:19 GMT-0500 (Eastern Standard Time)","Tue Jan 28 2020 09:22:33 GMT-0500 (Eastern Standard Time)","Mozilla/5.0 (X11; CrOS x86_64 12607.81.0) AppleWebKit/537.36 (KHTML, like Gecko) Chrome/79.0.3945.119 Safari/537.36",89,"[0.9, 0.5, 0.1]","[0.8, 0.4, 0.2]","[u'red', u'blue', u'black']","[u'left', u'middle', u'right']","[0.8, 0.4, 0.2]","[u'low', u'high', u'medium']","blue",50,"middle","high","True","False",382,4850,NA
"A3S5M6R3ZR6ECN","Tue Jan 28 2020 09:15:19 GMT-0500 (Eastern Standard Time)","Tue Jan 28 2020 09:22:33 GMT-0500 (Eastern Standard Time)","Mozilla/5.0 (X11; CrOS x86_64 12607.81.0) AppleWebKit/537.36 (KHTML, like Gecko) Chrome/79.0.3945.119 Safari/537.36",90,"[0.9, 0.5, 0.1]","[0.8, 0.4, 0.2]","[u'red', u'blue', u'black']","[u'left', u'middle', u'right']","[0.8, 0.4, 0.2]","[u'low', u'high', u'medium']","blue",50,"middle","high","True","True",414,4950,NA
"A3S5M6R3ZR6ECN","Tue Jan 28 2020 09:15:19 GMT-0500 (Eastern Standard Time)","Tue Jan 28 2020 09:22:33 GMT-0500 (Eastern Standard Time)","Mozilla/5.0 (X11; CrOS x86_64 12607.81.0) AppleWebKit/537.36 (KHTML, like Gecko) Chrome/79.0.3945.119 Safari/537.36",91,"[0.9, 0.5, 0.1]","[0.8, 0.4, 0.2]","[u'red', u'blue', u'black']","[u'left', u'middle', u'right']","[0.8, 0.4, 0.2]","[u'low', u'medium', u'high']","blue",50,"middle","medium","False","False",511,4900,NA
"A3S5M6R3ZR6ECN","Tue Jan 28 2020 09:15:19 GMT-0500 (Eastern Standard Time)","Tue Jan 28 2020 09:22:33 GMT-0500 (Eastern Standard Time)","Mozilla/5.0 (X11; CrOS x86_64 12607.81.0) AppleWebKit/537.36 (KHTML, like Gecko) Chrome/79.0.3945.119 Safari/537.36",92,"[0.9, 0.5, 0.1]","[0.8, 0.4, 0.2]","[u'red', u'blue', u'black']","[u'left', u'middle', u'right']","[0.8, 0.4, 0.2]","[u'low', u'medium', u'high']","black",51,"right","high","False","False",698,4850,NA
"A3S5M6R3ZR6ECN","Tue Jan 28 2020 09:15:19 GMT-0500 (Eastern Standard Time)","Tue Jan 28 2020 09:22:33 GMT-0500 (Eastern Standard Time)","Mozilla/5.0 (X11; CrOS x86_64 12607.81.0) AppleWebKit/537.36 (KHTML, like Gecko) Chrome/79.0.3945.119 Safari/537.36",93,"[0.9, 0.5, 0.1]","[0.8, 0.4, 0.2]","[u'red', u'blue', u'black']","[u'left', u'middle', u'right']","[0.8, 0.4, 0.2]","[u'low', u'medium', u'high']","blue",50,"middle","medium","False","False",622,4800,NA
"A3S5M6R3ZR6ECN","Tue Jan 28 2020 09:15:19 GMT-0500 (Eastern Standard Time)","Tue Jan 28 2020 09:22:33 GMT-0500 (Eastern Standard Time)","Mozilla/5.0 (X11; CrOS x86_64 12607.81.0) AppleWebKit/537.36 (KHTML, like Gecko) Chrome/79.0.3945.119 Safari/537.36",94,"[0.9, 0.5, 0.1]","[0.8, 0.4, 0.2]","[u'red', u'blue', u'black']","[u'left', u'middle', u'right']","[0.8, 0.4, 0.2]","[u'low', u'medium', u'high']","black",51,"right","high","True","False",373,4900,NA
"A3S5M6R3ZR6ECN","Tue Jan 28 2020 09:15:19 GMT-0500 (Eastern Standard Time)","Tue Jan 28 2020 09:22:33 GMT-0500 (Eastern Standard Time)","Mozilla/5.0 (X11; CrOS x86_64 12607.81.0) AppleWebKit/537.36 (KHTML, like Gecko) Chrome/79.0.3945.119 Safari/537.36",95,"[0.9, 0.5, 0.1]","[0.8, 0.4, 0.2]","[u'red', u'blue', u'black']","[u'left', u'middle', u'right']","[0.8, 0.4, 0.2]","[u'low', u'medium', u'high']","black",51,"right","high","True","False",372,5000,NA
"A3S5M6R3ZR6ECN","Tue Jan 28 2020 09:15:19 GMT-0500 (Eastern Standard Time)","Tue Jan 28 2020 09:22:33 GMT-0500 (Eastern Standard Time)","Mozilla/5.0 (X11; CrOS x86_64 12607.81.0) AppleWebKit/537.36 (KHTML, like Gecko) Chrome/79.0.3945.119 Safari/537.36",96,"[0.9, 0.5, 0.1]","[0.8, 0.4, 0.2]","[u'red', u'blue', u'black']","[u'left', u'middle', u'right']","[0.8, 0.4, 0.2]","[u'low', u'medium', u'high']","black",51,"right","high","False","False",432,4950,NA
"A3S5M6R3ZR6ECN","Tue Jan 28 2020 09:15:19 GMT-0500 (Eastern Standard Time)","Tue Jan 28 2020 09:22:33 GMT-0500 (Eastern Standard Time)","Mozilla/5.0 (X11; CrOS x86_64 12607.81.0) AppleWebKit/537.36 (KHTML, like Gecko) Chrome/79.0.3945.119 Safari/537.36",97,"[0.9, 0.5, 0.1]","[0.8, 0.4, 0.2]","[u'red', u'blue', u'black']","[u'left', u'middle', u'right']","[0.8, 0.4, 0.2]","[u'low', u'medium', u'high']","red",49,"left","low","False","False",356,4900,NA
"A3S5M6R3ZR6ECN","Tue Jan 28 2020 09:15:19 GMT-0500 (Eastern Standard Time)","Tue Jan 28 2020 09:22:33 GMT-0500 (Eastern Standard Time)","Mozilla/5.0 (X11; CrOS x86_64 12607.81.0) AppleWebKit/537.36 (KHTML, like Gecko) Chrome/79.0.3945.119 Safari/537.36",98,"[0.9, 0.5, 0.1]","[0.8, 0.4, 0.2]","[u'red', u'blue', u'black']","[u'left', u'middle', u'right']","[0.8, 0.4, 0.2]","[u'low', u'medium', u'high']","blue",50,"middle","medium","False","False",437,4850,NA
"A3S5M6R3ZR6ECN","Tue Jan 28 2020 09:15:19 GMT-0500 (Eastern Standard Time)","Tue Jan 28 2020 09:22:33 GMT-0500 (Eastern Standard Time)","Mozilla/5.0 (X11; CrOS x86_64 12607.81.0) AppleWebKit/537.36 (KHTML, like Gecko) Chrome/79.0.3945.119 Safari/537.36",99,"[0.9, 0.5, 0.1]","[0.8, 0.4, 0.2]","[u'red', u'blue', u'black']","[u'left', u'middle', u'right']","[0.8, 0.4, 0.2]","[u'low', u'medium', u'high']","black",51,"right","high","True","False",562,4950,NA
"A3S5M6R3ZR6ECN","Tue Jan 28 2020 09:15:19 GMT-0500 (Eastern Standard Time)","Tue Jan 28 2020 09:22:33 GMT-0500 (Eastern Standard Time)","Mozilla/5.0 (X11; CrOS x86_64 12607.81.0) AppleWebKit/537.36 (KHTML, like Gecko) Chrome/79.0.3945.119 Safari/537.36",100,"[0.9, 0.5, 0.1]","[0.8, 0.4, 0.2]","[u'red', u'blue', u'black']","[u'left', u'middle', u'right']","[0.8, 0.4, 0.2]","[u'low', u'medium', u'high']","black",51,"right","high","True","False",435,5050,NA
"A3S5M6R3ZR6ECN","Tue Jan 28 2020 09:15:19 GMT-0500 (Eastern Standard Time)","Tue Jan 28 2020 09:22:33 GMT-0500 (Eastern Standard Time)","Mozilla/5.0 (X11; CrOS x86_64 12607.81.0) AppleWebKit/537.36 (KHTML, like Gecko) Chrome/79.0.3945.119 Safari/537.36",101,"[0.9, 0.5, 0.1]","[0.8, 0.4, 0.2]","[u'red', u'blue', u'black']","[u'left', u'middle', u'right']","[0.8, 0.4, 0.2]","[u'low', u'medium', u'high']","black",51,"right","high","True","False",445,5150,NA
"A3S5M6R3ZR6ECN","Tue Jan 28 2020 09:15:19 GMT-0500 (Eastern Standard Time)","Tue Jan 28 2020 09:22:33 GMT-0500 (Eastern Standard Time)","Mozilla/5.0 (X11; CrOS x86_64 12607.81.0) AppleWebKit/537.36 (KHTML, like Gecko) Chrome/79.0.3945.119 Safari/537.36",102,"[0.9, 0.5, 0.1]","[0.8, 0.4, 0.2]","[u'red', u'blue', u'black']","[u'left', u'middle', u'right']","[0.8, 0.4, 0.2]","[u'low', u'medium', u'high']","black",51,"right","high","True","False",600,5250,NA
"A3S5M6R3ZR6ECN","Tue Jan 28 2020 09:15:19 GMT-0500 (Eastern Standard Time)","Tue Jan 28 2020 09:22:33 GMT-0500 (Eastern Standard Time)","Mozilla/5.0 (X11; CrOS x86_64 12607.81.0) AppleWebKit/537.36 (KHTML, like Gecko) Chrome/79.0.3945.119 Safari/537.36",103,"[0.9, 0.5, 0.1]","[0.8, 0.4, 0.2]","[u'red', u'blue', u'black']","[u'left', u'middle', u'right']","[0.8, 0.4, 0.2]","[u'low', u'medium', u'high']","black",51,"right","high","True","False",478,5350,NA
"A3S5M6R3ZR6ECN","Tue Jan 28 2020 09:15:19 GMT-0500 (Eastern Standard Time)","Tue Jan 28 2020 09:22:33 GMT-0500 (Eastern Standard Time)","Mozilla/5.0 (X11; CrOS x86_64 12607.81.0) AppleWebKit/537.36 (KHTML, like Gecko) Chrome/79.0.3945.119 Safari/537.36",104,"[0.9, 0.5, 0.1]","[0.8, 0.4, 0.2]","[u'red', u'blue', u'black']","[u'left', u'middle', u'right']","[0.8, 0.4, 0.2]","[u'low', u'medium', u'high']","black",51,"right","high","True","False",413,5450,NA
"A3S5M6R3ZR6ECN","Tue Jan 28 2020 09:15:19 GMT-0500 (Eastern Standard Time)","Tue Jan 28 2020 09:22:33 GMT-0500 (Eastern Standard Time)","Mozilla/5.0 (X11; CrOS x86_64 12607.81.0) AppleWebKit/537.36 (KHTML, like Gecko) Chrome/79.0.3945.119 Safari/537.36",105,"[0.9, 0.5, 0.1]","[0.8, 0.4, 0.2]","[u'red', u'blue', u'black']","[u'left', u'middle', u'right']","[0.8, 0.4, 0.2]","[u'low', u'medium', u'high']","black",51,"right","high","True","False",460,5550,NA
"A3S5M6R3ZR6ECN","Tue Jan 28 2020 09:15:19 GMT-0500 (Eastern Standard Time)","Tue Jan 28 2020 09:22:33 GMT-0500 (Eastern Standard Time)","Mozilla/5.0 (X11; CrOS x86_64 12607.81.0) AppleWebKit/537.36 (KHTML, like Gecko) Chrome/79.0.3945.119 Safari/537.36",106,"[0.9, 0.5, 0.1]","[0.8, 0.4, 0.2]","[u'red', u'blue', u'black']","[u'left', u'middle', u'right']","[0.8, 0.4, 0.2]","[u'low', u'medium', u'high']","black",51,"right","high","True","False",432,5650,NA
"A3S5M6R3ZR6ECN","Tue Jan 28 2020 09:15:19 GMT-0500 (Eastern Standard Time)","Tue Jan 28 2020 09:22:33 GMT-0500 (Eastern Standard Time)","Mozilla/5.0 (X11; CrOS x86_64 12607.81.0) AppleWebKit/537.36 (KHTML, like Gecko) Chrome/79.0.3945.119 Safari/537.36",107,"[0.9, 0.5, 0.1]","[0.8, 0.4, 0.2]","[u'red', u'blue', u'black']","[u'left', u'middle', u'right']","[0.8, 0.4, 0.2]","[u'low', u'medium', u'high']","black",51,"right","high","True","True",562,5750,NA
"A3S5M6R3ZR6ECN","Tue Jan 28 2020 09:15:19 GMT-0500 (Eastern Standard Time)","Tue Jan 28 2020 09:22:33 GMT-0500 (Eastern Standard Time)","Mozilla/5.0 (X11; CrOS x86_64 12607.81.0) AppleWebKit/537.36 (KHTML, like Gecko) Chrome/79.0.3945.119 Safari/537.36",108,"[0.9, 0.5, 0.1]","[0.8, 0.4, 0.2]","[u'red', u'blue', u'black']","[u'left', u'middle', u'right']","[0.8, 0.4, 0.2]","[u'high', u'medium', u'low']","black",51,"right","low","False","False",422,5700,NA
"A3S5M6R3ZR6ECN","Tue Jan 28 2020 09:15:19 GMT-0500 (Eastern Standard Time)","Tue Jan 28 2020 09:22:33 GMT-0500 (Eastern Standard Time)","Mozilla/5.0 (X11; CrOS x86_64 12607.81.0) AppleWebKit/537.36 (KHTML, like Gecko) Chrome/79.0.3945.119 Safari/537.36",109,"[0.9, 0.5, 0.1]","[0.8, 0.4, 0.2]","[u'red', u'blue', u'black']","[u'left', u'middle', u'right']","[0.8, 0.4, 0.2]","[u'high', u'medium', u'low']","blue",50,"middle","medium","False","False",372,5650,NA
"A3S5M6R3ZR6ECN","Tue Jan 28 2020 09:15:19 GMT-0500 (Eastern Standard Time)","Tue Jan 28 2020 09:22:33 GMT-0500 (Eastern Standard Time)","Mozilla/5.0 (X11; CrOS x86_64 12607.81.0) AppleWebKit/537.36 (KHTML, like Gecko) Chrome/79.0.3945.119 Safari/537.36",110,"[0.9, 0.5, 0.1]","[0.8, 0.4, 0.2]","[u'red', u'blue', u'black']","[u'left', u'middle', u'right']","[0.8, 0.4, 0.2]","[u'high', u'medium', u'low']","black",51,"right","low","False","False",1435,5600,NA
"A3S5M6R3ZR6ECN","Tue Jan 28 2020 09:15:19 GMT-0500 (Eastern Standard Time)","Tue Jan 28 2020 09:22:33 GMT-0500 (Eastern Standard Time)","Mozilla/5.0 (X11; CrOS x86_64 12607.81.0) AppleWebKit/537.36 (KHTML, like Gecko) Chrome/79.0.3945.119 Safari/537.36",111,"[0.9, 0.5, 0.1]","[0.8, 0.4, 0.2]","[u'red', u'blue', u'black']","[u'left', u'middle', u'right']","[0.8, 0.4, 0.2]","[u'high', u'medium', u'low']","red",49,"left","high","True","False",906,5700,NA
"A3S5M6R3ZR6ECN","Tue Jan 28 2020 09:15:19 GMT-0500 (Eastern Standard Time)","Tue Jan 28 2020 09:22:33 GMT-0500 (Eastern Standard Time)","Mozilla/5.0 (X11; CrOS x86_64 12607.81.0) AppleWebKit/537.36 (KHTML, like Gecko) Chrome/79.0.3945.119 Safari/537.36",112,"[0.9, 0.5, 0.1]","[0.8, 0.4, 0.2]","[u'red', u'blue', u'black']","[u'left', u'middle', u'right']","[0.8, 0.4, 0.2]","[u'high', u'medium', u'low']","red",49,"left","high","True","False",377,5800,NA
"A3S5M6R3ZR6ECN","Tue Jan 28 2020 09:15:19 GMT-0500 (Eastern Standard Time)","Tue Jan 28 2020 09:22:33 GMT-0500 (Eastern Standard Time)","Mozilla/5.0 (X11; CrOS x86_64 12607.81.0) AppleWebKit/537.36 (KHTML, like Gecko) Chrome/79.0.3945.119 Safari/537.36",113,"[0.9, 0.5, 0.1]","[0.8, 0.4, 0.2]","[u'red', u'blue', u'black']","[u'left', u'middle', u'right']","[0.8, 0.4, 0.2]","[u'high', u'medium', u'low']","red",49,"left","high","True","False",382,5900,NA
"A3S5M6R3ZR6ECN","Tue Jan 28 2020 09:15:19 GMT-0500 (Eastern Standard Time)","Tue Jan 28 2020 09:22:33 GMT-0500 (Eastern Standard Time)","Mozilla/5.0 (X11; CrOS x86_64 12607.81.0) AppleWebKit/537.36 (KHTML, like Gecko) Chrome/79.0.3945.119 Safari/537.36",114,"[0.9, 0.5, 0.1]","[0.8, 0.4, 0.2]","[u'red', u'blue', u'black']","[u'left', u'middle', u'right']","[0.8, 0.4, 0.2]","[u'high', u'medium', u'low']","red",49,"left","high","True","False",345,6000,NA
"A3S5M6R3ZR6ECN","Tue Jan 28 2020 09:15:19 GMT-0500 (Eastern Standard Time)","Tue Jan 28 2020 09:22:33 GMT-0500 (Eastern Standard Time)","Mozilla/5.0 (X11; CrOS x86_64 12607.81.0) AppleWebKit/537.36 (KHTML, like Gecko) Chrome/79.0.3945.119 Safari/537.36",115,"[0.9, 0.5, 0.1]","[0.8, 0.4, 0.2]","[u'red', u'blue', u'black']","[u'left', u'middle', u'right']","[0.8, 0.4, 0.2]","[u'high', u'medium', u'low']","red",49,"left","high","True","False",358,6100,NA
"A3S5M6R3ZR6ECN","Tue Jan 28 2020 09:15:19 GMT-0500 (Eastern Standard Time)","Tue Jan 28 2020 09:22:33 GMT-0500 (Eastern Standard Time)","Mozilla/5.0 (X11; CrOS x86_64 12607.81.0) AppleWebKit/537.36 (KHTML, like Gecko) Chrome/79.0.3945.119 Safari/537.36",116,"[0.9, 0.5, 0.1]","[0.8, 0.4, 0.2]","[u'red', u'blue', u'black']","[u'left', u'middle', u'right']","[0.8, 0.4, 0.2]","[u'high', u'medium', u'low']","red",49,"left","high","True","False",402,6200,NA
"A3S5M6R3ZR6ECN","Tue Jan 28 2020 09:15:19 GMT-0500 (Eastern Standard Time)","Tue Jan 28 2020 09:22:33 GMT-0500 (Eastern Standard Time)","Mozilla/5.0 (X11; CrOS x86_64 12607.81.0) AppleWebKit/537.36 (KHTML, like Gecko) Chrome/79.0.3945.119 Safari/537.36",117,"[0.9, 0.5, 0.1]","[0.8, 0.4, 0.2]","[u'red', u'blue', u'black']","[u'left', u'middle', u'right']","[0.8, 0.4, 0.2]","[u'high', u'medium', u'low']","red",49,"left","high","False","False",338,6150,NA
"A3S5M6R3ZR6ECN","Tue Jan 28 2020 09:15:19 GMT-0500 (Eastern Standard Time)","Tue Jan 28 2020 09:22:33 GMT-0500 (Eastern Standard Time)","Mozilla/5.0 (X11; CrOS x86_64 12607.81.0) AppleWebKit/537.36 (KHTML, like Gecko) Chrome/79.0.3945.119 Safari/537.36",118,"[0.9, 0.5, 0.1]","[0.8, 0.4, 0.2]","[u'red', u'blue', u'black']","[u'left', u'middle', u'right']","[0.8, 0.4, 0.2]","[u'high', u'medium', u'low']","black",51,"right","low","False","False",622,6100,NA
"A3S5M6R3ZR6ECN","Tue Jan 28 2020 09:15:19 GMT-0500 (Eastern Standard Time)","Tue Jan 28 2020 09:22:33 GMT-0500 (Eastern Standard Time)","Mozilla/5.0 (X11; CrOS x86_64 12607.81.0) AppleWebKit/537.36 (KHTML, like Gecko) Chrome/79.0.3945.119 Safari/537.36",119,"[0.9, 0.5, 0.1]","[0.8, 0.4, 0.2]","[u'red', u'blue', u'black']","[u'left', u'middle', u'right']","[0.8, 0.4, 0.2]","[u'high', u'medium', u'low']","blue",50,"middle","medium","False","False",404,6050,NA
"A3S5M6R3ZR6ECN","Tue Jan 28 2020 09:15:19 GMT-0500 (Eastern Standard Time)","Tue Jan 28 2020 09:22:33 GMT-0500 (Eastern Standard Time)","Mozilla/5.0 (X11; CrOS x86_64 12607.81.0) AppleWebKit/537.36 (KHTML, like Gecko) Chrome/79.0.3945.119 Safari/537.36",120,"[0.9, 0.5, 0.1]","[0.8, 0.4, 0.2]","[u'red', u'blue', u'black']","[u'left', u'middle', u'right']","[0.8, 0.4, 0.2]","[u'high', u'medium', u'low']","black",51,"right","low","False","False",1095,6000,NA
"A3S5M6R3ZR6ECN","Tue Jan 28 2020 09:15:19 GMT-0500 (Eastern Standard Time)","Tue Jan 28 2020 09:22:33 GMT-0500 (Eastern Standard Time)","Mozilla/5.0 (X11; CrOS x86_64 12607.81.0) AppleWebKit/537.36 (KHTML, like Gecko) Chrome/79.0.3945.119 Safari/537.36",121,"[0.9, 0.5, 0.1]","[0.8, 0.4, 0.2]","[u'red', u'blue', u'black']","[u'left', u'middle', u'right']","[0.8, 0.4, 0.2]","[u'low', u'high', u'medium']","red",49,"left","low","False","False",909,5950,NA
"A3S5M6R3ZR6ECN","Tue Jan 28 2020 09:15:19 GMT-0500 (Eastern Standard Time)","Tue Jan 28 2020 09:22:33 GMT-0500 (Eastern Standard Time)","Mozilla/5.0 (X11; CrOS x86_64 12607.81.0) AppleWebKit/537.36 (KHTML, like Gecko) Chrome/79.0.3945.119 Safari/537.36",122,"[0.9, 0.5, 0.1]","[0.8, 0.4, 0.2]","[u'red', u'blue', u'black']","[u'left', u'middle', u'right']","[0.8, 0.4, 0.2]","[u'low', u'high', u'medium']","blue",50,"middle","high","False","False",373,5900,NA
"A3S5M6R3ZR6ECN","Tue Jan 28 2020 09:15:19 GMT-0500 (Eastern Standard Time)","Tue Jan 28 2020 09:22:33 GMT-0500 (Eastern Standard Time)","Mozilla/5.0 (X11; CrOS x86_64 12607.81.0) AppleWebKit/537.36 (KHTML, like Gecko) Chrome/79.0.3945.119 Safari/537.36",123,"[0.9, 0.5, 0.1]","[0.8, 0.4, 0.2]","[u'red', u'blue', u'black']","[u'left', u'middle', u'right']","[0.8, 0.4, 0.2]","[u'low', u'high', u'medium']","black",51,"right","medium","False","False",38,5850,NA
"A3S5M6R3ZR6ECN","Tue Jan 28 2020 09:15:19 GMT-0500 (Eastern Standard Time)","Tue Jan 28 2020 09:22:33 GMT-0500 (Eastern Standard Time)","Mozilla/5.0 (X11; CrOS x86_64 12607.81.0) AppleWebKit/537.36 (KHTML, like Gecko) Chrome/79.0.3945.119 Safari/537.36",124,"[0.9, 0.5, 0.1]","[0.8, 0.4, 0.2]","[u'red', u'blue', u'black']","[u'left', u'middle', u'right']","[0.8, 0.4, 0.2]","[u'low', u'high', u'medium']","red",49,"left","low","False","False",433,5800,NA
"A3S5M6R3ZR6ECN","Tue Jan 28 2020 09:15:19 GMT-0500 (Eastern Standard Time)","Tue Jan 28 2020 09:22:33 GMT-0500 (Eastern Standard Time)","Mozilla/5.0 (X11; CrOS x86_64 12607.81.0) AppleWebKit/537.36 (KHTML, like Gecko) Chrome/79.0.3945.119 Safari/537.36",125,"[0.9, 0.5, 0.1]","[0.8, 0.4, 0.2]","[u'red', u'blue', u'black']","[u'left', u'middle', u'right']","[0.8, 0.4, 0.2]","[u'low', u'high', u'medium']","blue",50,"middle","high","True","False",395,5900,NA
"A3S5M6R3ZR6ECN","Tue Jan 28 2020 09:15:19 GMT-0500 (Eastern Standard Time)","Tue Jan 28 2020 09:22:33 GMT-0500 (Eastern Standard Time)","Mozilla/5.0 (X11; CrOS x86_64 12607.81.0) AppleWebKit/537.36 (KHTML, like Gecko) Chrome/79.0.3945.119 Safari/537.36",126,"[0.9, 0.5, 0.1]","[0.8, 0.4, 0.2]","[u'red', u'blue', u'black']","[u'left', u'middle', u'right']","[0.8, 0.4, 0.2]","[u'low', u'high', u'medium']","blue",50,"middle","high","False","False",382,5850,NA
"A3S5M6R3ZR6ECN","Tue Jan 28 2020 09:15:19 GMT-0500 (Eastern Standard Time)","Tue Jan 28 2020 09:22:33 GMT-0500 (Eastern Standard Time)","Mozilla/5.0 (X11; CrOS x86_64 12607.81.0) AppleWebKit/537.36 (KHTML, like Gecko) Chrome/79.0.3945.119 Safari/537.36",127,"[0.9, 0.5, 0.1]","[0.8, 0.4, 0.2]","[u'red', u'blue', u'black']","[u'left', u'middle', u'right']","[0.8, 0.4, 0.2]","[u'low', u'high', u'medium']","black",51,"right","medium","True","False",724,5950,NA
"A3S5M6R3ZR6ECN","Tue Jan 28 2020 09:15:19 GMT-0500 (Eastern Standard Time)","Tue Jan 28 2020 09:22:33 GMT-0500 (Eastern Standard Time)","Mozilla/5.0 (X11; CrOS x86_64 12607.81.0) AppleWebKit/537.36 (KHTML, like Gecko) Chrome/79.0.3945.119 Safari/537.36",128,"[0.9, 0.5, 0.1]","[0.8, 0.4, 0.2]","[u'red', u'blue', u'black']","[u'left', u'middle', u'right']","[0.8, 0.4, 0.2]","[u'low', u'high', u'medium']","black",51,"right","medium","False","False",417,5900,NA
"A3S5M6R3ZR6ECN","Tue Jan 28 2020 09:15:19 GMT-0500 (Eastern Standard Time)","Tue Jan 28 2020 09:22:33 GMT-0500 (Eastern Standard Time)","Mozilla/5.0 (X11; CrOS x86_64 12607.81.0) AppleWebKit/537.36 (KHTML, like Gecko) Chrome/79.0.3945.119 Safari/537.36",129,"[0.9, 0.5, 0.1]","[0.8, 0.4, 0.2]","[u'red', u'blue', u'black']","[u'left', u'middle', u'right']","[0.8, 0.4, 0.2]","[u'low', u'high', u'medium']","blue",50,"middle","high","True","False",461,6000,NA
"A3S5M6R3ZR6ECN","Tue Jan 28 2020 09:15:19 GMT-0500 (Eastern Standard Time)","Tue Jan 28 2020 09:22:33 GMT-0500 (Eastern Standard Time)","Mozilla/5.0 (X11; CrOS x86_64 12607.81.0) AppleWebKit/537.36 (KHTML, like Gecko) Chrome/79.0.3945.119 Safari/537.36",130,"[0.9, 0.5, 0.1]","[0.8, 0.4, 0.2]","[u'red', u'blue', u'black']","[u'left', u'middle', u'right']","[0.8, 0.4, 0.2]","[u'low', u'high', u'medium']","blue",50,"middle","high","True","False",405,6100,NA
"A3S5M6R3ZR6ECN","Tue Jan 28 2020 09:15:19 GMT-0500 (Eastern Standard Time)","Tue Jan 28 2020 09:22:33 GMT-0500 (Eastern Standard Time)","Mozilla/5.0 (X11; CrOS x86_64 12607.81.0) AppleWebKit/537.36 (KHTML, like Gecko) Chrome/79.0.3945.119 Safari/537.36",131,"[0.9, 0.5, 0.1]","[0.8, 0.4, 0.2]","[u'red', u'blue', u'black']","[u'left', u'middle', u'right']","[0.8, 0.4, 0.2]","[u'low', u'high', u'medium']","blue",50,"middle","high","False","False",426,6050,NA
"A3S5M6R3ZR6ECN","Tue Jan 28 2020 09:15:19 GMT-0500 (Eastern Standard Time)","Tue Jan 28 2020 09:22:33 GMT-0500 (Eastern Standard Time)","Mozilla/5.0 (X11; CrOS x86_64 12607.81.0) AppleWebKit/537.36 (KHTML, like Gecko) Chrome/79.0.3945.119 Safari/537.36",132,"[0.9, 0.5, 0.1]","[0.8, 0.4, 0.2]","[u'red', u'blue', u'black']","[u'left', u'middle', u'right']","[0.8, 0.4, 0.2]","[u'low', u'high', u'medium']","black",51,"right","medium","False","False",599,6000,NA
"A3S5M6R3ZR6ECN","Tue Jan 28 2020 09:15:19 GMT-0500 (Eastern Standard Time)","Tue Jan 28 2020 09:22:33 GMT-0500 (Eastern Standard Time)","Mozilla/5.0 (X11; CrOS x86_64 12607.81.0) AppleWebKit/537.36 (KHTML, like Gecko) Chrome/79.0.3945.119 Safari/537.36",133,"[0.9, 0.5, 0.1]","[0.8, 0.4, 0.2]","[u'red', u'blue', u'black']","[u'left', u'middle', u'right']","[0.8, 0.4, 0.2]","[u'low', u'high', u'medium']","red",49,"left","low","False","False",683,5950,NA
"A3S5M6R3ZR6ECN","Tue Jan 28 2020 09:15:19 GMT-0500 (Eastern Standard Time)","Tue Jan 28 2020 09:22:33 GMT-0500 (Eastern Standard Time)","Mozilla/5.0 (X11; CrOS x86_64 12607.81.0) AppleWebKit/537.36 (KHTML, like Gecko) Chrome/79.0.3945.119 Safari/537.36",134,"[0.9, 0.5, 0.1]","[0.8, 0.4, 0.2]","[u'red', u'blue', u'black']","[u'left', u'middle', u'right']","[0.8, 0.4, 0.2]","[u'low', u'high', u'medium']","blue",50,"middle","high","True","False",488,6050,NA
"A3S5M6R3ZR6ECN","Tue Jan 28 2020 09:15:19 GMT-0500 (Eastern Standard Time)","Tue Jan 28 2020 09:22:33 GMT-0500 (Eastern Standard Time)","Mozilla/5.0 (X11; CrOS x86_64 12607.81.0) AppleWebKit/537.36 (KHTML, like Gecko) Chrome/79.0.3945.119 Safari/537.36",135,"[0.9, 0.5, 0.1]","[0.8, 0.4, 0.2]","[u'red', u'blue', u'black']","[u'left', u'middle', u'right']","[0.8, 0.4, 0.2]","[u'low', u'high', u'medium']","blue",50,"middle","high","True","False",404,6150,NA
"A3S5M6R3ZR6ECN","Tue Jan 28 2020 09:15:19 GMT-0500 (Eastern Standard Time)","Tue Jan 28 2020 09:22:33 GMT-0500 (Eastern Standard Time)","Mozilla/5.0 (X11; CrOS x86_64 12607.81.0) AppleWebKit/537.36 (KHTML, like Gecko) Chrome/79.0.3945.119 Safari/537.36",136,"[0.9, 0.5, 0.1]","[0.8, 0.4, 0.2]","[u'red', u'blue', u'black']","[u'left', u'middle', u'right']","[0.8, 0.4, 0.2]","[u'low', u'high', u'medium']","blue",50,"middle","high","True","False",443,6250,NA
"A3S5M6R3ZR6ECN","Tue Jan 28 2020 09:15:19 GMT-0500 (Eastern Standard Time)","Tue Jan 28 2020 09:22:33 GMT-0500 (Eastern Standard Time)","Mozilla/5.0 (X11; CrOS x86_64 12607.81.0) AppleWebKit/537.36 (KHTML, like Gecko) Chrome/79.0.3945.119 Safari/537.36",137,"[0.9, 0.5, 0.1]","[0.8, 0.4, 0.2]","[u'red', u'blue', u'black']","[u'left', u'middle', u'right']","[0.8, 0.4, 0.2]","[u'low', u'high', u'medium']","blue",50,"middle","high","True","False",424,6350,NA
"A3S5M6R3ZR6ECN","Tue Jan 28 2020 09:15:19 GMT-0500 (Eastern Standard Time)","Tue Jan 28 2020 09:22:33 GMT-0500 (Eastern Standard Time)","Mozilla/5.0 (X11; CrOS x86_64 12607.81.0) AppleWebKit/537.36 (KHTML, like Gecko) Chrome/79.0.3945.119 Safari/537.36",138,"[0.9, 0.5, 0.1]","[0.8, 0.4, 0.2]","[u'red', u'blue', u'black']","[u'left', u'middle', u'right']","[0.8, 0.4, 0.2]","[u'low', u'high', u'medium']","blue",50,"middle","high","True","False",395,6450,NA
"A3S5M6R3ZR6ECN","Tue Jan 28 2020 09:15:19 GMT-0500 (Eastern Standard Time)","Tue Jan 28 2020 09:22:33 GMT-0500 (Eastern Standard Time)","Mozilla/5.0 (X11; CrOS x86_64 12607.81.0) AppleWebKit/537.36 (KHTML, like Gecko) Chrome/79.0.3945.119 Safari/537.36",139,"[0.9, 0.5, 0.1]","[0.8, 0.4, 0.2]","[u'red', u'blue', u'black']","[u'left', u'middle', u'right']","[0.8, 0.4, 0.2]","[u'low', u'high', u'medium']","blue",50,"middle","high","True","False",422,6550,NA
"A3S5M6R3ZR6ECN","Tue Jan 28 2020 09:15:19 GMT-0500 (Eastern Standard Time)","Tue Jan 28 2020 09:22:33 GMT-0500 (Eastern Standard Time)","Mozilla/5.0 (X11; CrOS x86_64 12607.81.0) AppleWebKit/537.36 (KHTML, like Gecko) Chrome/79.0.3945.119 Safari/537.36",140,"[0.9, 0.5, 0.1]","[0.8, 0.4, 0.2]","[u'red', u'blue', u'black']","[u'left', u'middle', u'right']","[0.8, 0.4, 0.2]","[u'low', u'high', u'medium']","blue",50,"middle","high","True","False",431,6650,NA
"A3S5M6R3ZR6ECN","Tue Jan 28 2020 09:15:19 GMT-0500 (Eastern Standard Time)","Tue Jan 28 2020 09:22:33 GMT-0500 (Eastern Standard Time)","Mozilla/5.0 (X11; CrOS x86_64 12607.81.0) AppleWebKit/537.36 (KHTML, like Gecko) Chrome/79.0.3945.119 Safari/537.36",141,"[0.9, 0.5, 0.1]","[0.8, 0.4, 0.2]","[u'red', u'blue', u'black']","[u'left', u'middle', u'right']","[0.8, 0.4, 0.2]","[u'low', u'high', u'medium']","blue",50,"middle","high","True","False",619,6750,NA
"A3S5M6R3ZR6ECN","Tue Jan 28 2020 09:15:19 GMT-0500 (Eastern Standard Time)","Tue Jan 28 2020 09:22:33 GMT-0500 (Eastern Standard Time)","Mozilla/5.0 (X11; CrOS x86_64 12607.81.0) AppleWebKit/537.36 (KHTML, like Gecko) Chrome/79.0.3945.119 Safari/537.36",142,"[0.9, 0.5, 0.1]","[0.8, 0.4, 0.2]","[u'red', u'blue', u'black']","[u'left', u'middle', u'right']","[0.8, 0.4, 0.2]","[u'low', u'high', u'medium']","blue",50,"middle","high","False","True",420,6700,NA
"A3S5M6R3ZR6ECN","Tue Jan 28 2020 09:15:19 GMT-0500 (Eastern Standard Time)","Tue Jan 28 2020 09:22:33 GMT-0500 (Eastern Standard Time)","Mozilla/5.0 (X11; CrOS x86_64 12607.81.0) AppleWebKit/537.36 (KHTML, like Gecko) Chrome/79.0.3945.119 Safari/537.36",143,"[0.9, 0.5, 0.1]","[0.8, 0.4, 0.2]","[u'red', u'blue', u'black']","[u'left', u'middle', u'right']","[0.8, 0.4, 0.2]","[u'high', u'low', u'medium']","black",51,"right","medium","True","False",1106,6800,NA
"A3S5M6R3ZR6ECN","Tue Jan 28 2020 09:15:19 GMT-0500 (Eastern Standard Time)","Tue Jan 28 2020 09:22:33 GMT-0500 (Eastern Standard Time)","Mozilla/5.0 (X11; CrOS x86_64 12607.81.0) AppleWebKit/537.36 (KHTML, like Gecko) Chrome/79.0.3945.119 Safari/537.36",144,"[0.9, 0.5, 0.1]","[0.8, 0.4, 0.2]","[u'red', u'blue', u'black']","[u'left', u'middle', u'right']","[0.8, 0.4, 0.2]","[u'high', u'low', u'medium']","black",51,"right","medium","False","False",379,6750,NA
"A3S5M6R3ZR6ECN","Tue Jan 28 2020 09:15:19 GMT-0500 (Eastern Standard Time)","Tue Jan 28 2020 09:22:33 GMT-0500 (Eastern Standard Time)","Mozilla/5.0 (X11; CrOS x86_64 12607.81.0) AppleWebKit/537.36 (KHTML, like Gecko) Chrome/79.0.3945.119 Safari/537.36",145,"[0.9, 0.5, 0.1]","[0.8, 0.4, 0.2]","[u'red', u'blue', u'black']","[u'left', u'middle', u'right']","[0.8, 0.4, 0.2]","[u'high', u'low', u'medium']","red",49,"left","high","True","False",408,6850,NA
"A3S5M6R3ZR6ECN","Tue Jan 28 2020 09:15:19 GMT-0500 (Eastern Standard Time)","Tue Jan 28 2020 09:22:33 GMT-0500 (Eastern Standard Time)","Mozilla/5.0 (X11; CrOS x86_64 12607.81.0) AppleWebKit/537.36 (KHTML, like Gecko) Chrome/79.0.3945.119 Safari/537.36",146,"[0.9, 0.5, 0.1]","[0.8, 0.4, 0.2]","[u'red', u'blue', u'black']","[u'left', u'middle', u'right']","[0.8, 0.4, 0.2]","[u'high', u'low', u'medium']","red",49,"left","high","True","False",380,6950,NA
"A3S5M6R3ZR6ECN","Tue Jan 28 2020 09:15:19 GMT-0500 (Eastern Standard Time)","Tue Jan 28 2020 09:22:33 GMT-0500 (Eastern Standard Time)","Mozilla/5.0 (X11; CrOS x86_64 12607.81.0) AppleWebKit/537.36 (KHTML, like Gecko) Chrome/79.0.3945.119 Safari/537.36",147,"[0.9, 0.5, 0.1]","[0.8, 0.4, 0.2]","[u'red', u'blue', u'black']","[u'left', u'middle', u'right']","[0.8, 0.4, 0.2]","[u'high', u'low', u'medium']","red",49,"left","high","True","False",359,7050,NA
"A3S5M6R3ZR6ECN","Tue Jan 28 2020 09:15:19 GMT-0500 (Eastern Standard Time)","Tue Jan 28 2020 09:22:33 GMT-0500 (Eastern Standard Time)","Mozilla/5.0 (X11; CrOS x86_64 12607.81.0) AppleWebKit/537.36 (KHTML, like Gecko) Chrome/79.0.3945.119 Safari/537.36",148,"[0.9, 0.5, 0.1]","[0.8, 0.4, 0.2]","[u'red', u'blue', u'black']","[u'left', u'middle', u'right']","[0.8, 0.4, 0.2]","[u'high', u'low', u'medium']","red",49,"left","high","True","False",392,7150,NA
"A3S5M6R3ZR6ECN","Tue Jan 28 2020 09:15:19 GMT-0500 (Eastern Standard Time)","Tue Jan 28 2020 09:22:33 GMT-0500 (Eastern Standard Time)","Mozilla/5.0 (X11; CrOS x86_64 12607.81.0) AppleWebKit/537.36 (KHTML, like Gecko) Chrome/79.0.3945.119 Safari/537.36",149,"[0.9, 0.5, 0.1]","[0.8, 0.4, 0.2]","[u'red', u'blue', u'black']","[u'left', u'middle', u'right']","[0.8, 0.4, 0.2]","[u'high', u'low', u'medium']","red",49,"left","high","True","False",355,7250,NA
"A3S5M6R3ZR6ECN","Tue Jan 28 2020 09:15:19 GMT-0500 (Eastern Standard Time)","Tue Jan 28 2020 09:22:33 GMT-0500 (Eastern Standard Time)","Mozilla/5.0 (X11; CrOS x86_64 12607.81.0) AppleWebKit/537.36 (KHTML, like Gecko) Chrome/79.0.3945.119 Safari/537.36",150,"[0.9, 0.5, 0.1]","[0.8, 0.4, 0.2]","[u'red', u'blue', u'black']","[u'left', u'middle', u'right']","[0.8, 0.4, 0.2]","[u'high', u'low', u'medium']","red",49,"left","high","False","False",388,7200,NA
"A3S5M6R3ZR6ECN","Tue Jan 28 2020 09:15:19 GMT-0500 (Eastern Standard Time)","Tue Jan 28 2020 09:22:33 GMT-0500 (Eastern Standard Time)","Mozilla/5.0 (X11; CrOS x86_64 12607.81.0) AppleWebKit/537.36 (KHTML, like Gecko) Chrome/79.0.3945.119 Safari/537.36",151,"[0.9, 0.5, 0.1]","[0.8, 0.4, 0.2]","[u'red', u'blue', u'black']","[u'left', u'middle', u'right']","[0.8, 0.4, 0.2]","[u'high', u'low', u'medium']","blue",50,"middle","low","False","False",381,7150,NA
"A3S5M6R3ZR6ECN","Tue Jan 28 2020 09:15:19 GMT-0500 (Eastern Standard Time)","Tue Jan 28 2020 09:22:33 GMT-0500 (Eastern Standard Time)","Mozilla/5.0 (X11; CrOS x86_64 12607.81.0) AppleWebKit/537.36 (KHTML, like Gecko) Chrome/79.0.3945.119 Safari/537.36",152,"[0.9, 0.5, 0.1]","[0.8, 0.4, 0.2]","[u'red', u'blue', u'black']","[u'left', u'middle', u'right']","[0.8, 0.4, 0.2]","[u'high', u'low', u'medium']","black",51,"right","medium","False","False",333,7100,NA
"A3S5M6R3ZR6ECN","Tue Jan 28 2020 09:15:19 GMT-0500 (Eastern Standard Time)","Tue Jan 28 2020 09:22:33 GMT-0500 (Eastern Standard Time)","Mozilla/5.0 (X11; CrOS x86_64 12607.81.0) AppleWebKit/537.36 (KHTML, like Gecko) Chrome/79.0.3945.119 Safari/537.36",153,"[0.9, 0.5, 0.1]","[0.8, 0.4, 0.2]","[u'red', u'blue', u'black']","[u'left', u'middle', u'right']","[0.8, 0.4, 0.2]","[u'high', u'low', u'medium']","blue",50,"middle","low","False","False",398,7050,NA
"A3S5M6R3ZR6ECN","Tue Jan 28 2020 09:15:19 GMT-0500 (Eastern Standard Time)","Tue Jan 28 2020 09:22:33 GMT-0500 (Eastern Standard Time)","Mozilla/5.0 (X11; CrOS x86_64 12607.81.0) AppleWebKit/537.36 (KHTML, like Gecko) Chrome/79.0.3945.119 Safari/537.36",154,"[0.9, 0.5, 0.1]","[0.8, 0.4, 0.2]","[u'red', u'blue', u'black']","[u'left', u'middle', u'right']","[0.8, 0.4, 0.2]","[u'high', u'low', u'medium']","red",49,"left","high","True","False",379,7150,NA
"A3S5M6R3ZR6ECN","Tue Jan 28 2020 09:15:19 GMT-0500 (Eastern Standard Time)","Tue Jan 28 2020 09:22:33 GMT-0500 (Eastern Standard Time)","Mozilla/5.0 (X11; CrOS x86_64 12607.81.0) AppleWebKit/537.36 (KHTML, like Gecko) Chrome/79.0.3945.119 Safari/537.36",155,"[0.9, 0.5, 0.1]","[0.8, 0.4, 0.2]","[u'red', u'blue', u'black']","[u'left', u'middle', u'right']","[0.8, 0.4, 0.2]","[u'high', u'low', u'medium']","red",49,"left","high","True","False",364,7250,NA
"A3S5M6R3ZR6ECN","Tue Jan 28 2020 09:15:19 GMT-0500 (Eastern Standard Time)","Tue Jan 28 2020 09:22:33 GMT-0500 (Eastern Standard Time)","Mozilla/5.0 (X11; CrOS x86_64 12607.81.0) AppleWebKit/537.36 (KHTML, like Gecko) Chrome/79.0.3945.119 Safari/537.36",156,"[0.9, 0.5, 0.1]","[0.8, 0.4, 0.2]","[u'red', u'blue', u'black']","[u'left', u'middle', u'right']","[0.8, 0.4, 0.2]","[u'high', u'low', u'medium']","red",49,"left","high","True","False",411,7350,NA
"A3S5M6R3ZR6ECN","Tue Jan 28 2020 09:15:19 GMT-0500 (Eastern Standard Time)","Tue Jan 28 2020 09:22:33 GMT-0500 (Eastern Standard Time)","Mozilla/5.0 (X11; CrOS x86_64 12607.81.0) AppleWebKit/537.36 (KHTML, like Gecko) Chrome/79.0.3945.119 Safari/537.36",157,"[0.9, 0.5, 0.1]","[0.8, 0.4, 0.2]","[u'red', u'blue', u'black']","[u'left', u'middle', u'right']","[0.8, 0.4, 0.2]","[u'high', u'low', u'medium']","red",49,"left","high","True","False",552,7450,NA
"A3S5M6R3ZR6ECN","Tue Jan 28 2020 09:15:19 GMT-0500 (Eastern Standard Time)","Tue Jan 28 2020 09:22:33 GMT-0500 (Eastern Standard Time)","Mozilla/5.0 (X11; CrOS x86_64 12607.81.0) AppleWebKit/537.36 (KHTML, like Gecko) Chrome/79.0.3945.119 Safari/537.36",158,"[0.9, 0.5, 0.1]","[0.8, 0.4, 0.2]","[u'red', u'blue', u'black']","[u'left', u'middle', u'right']","[0.8, 0.4, 0.2]","[u'high', u'low', u'medium']","red",49,"left","high","True","False",400,7550,NA
"A3S5M6R3ZR6ECN","Tue Jan 28 2020 09:15:19 GMT-0500 (Eastern Standard Time)","Tue Jan 28 2020 09:22:33 GMT-0500 (Eastern Standard Time)","Mozilla/5.0 (X11; CrOS x86_64 12607.81.0) AppleWebKit/537.36 (KHTML, like Gecko) Chrome/79.0.3945.119 Safari/537.36",159,"[0.9, 0.5, 0.1]","[0.8, 0.4, 0.2]","[u'red', u'blue', u'black']","[u'left', u'middle', u'right']","[0.8, 0.4, 0.2]","[u'high', u'low', u'medium']","red",49,"left","high","True","False",382,7650,NA
"A3S5M6R3ZR6ECN","Tue Jan 28 2020 09:15:19 GMT-0500 (Eastern Standard Time)","Tue Jan 28 2020 09:22:33 GMT-0500 (Eastern Standard Time)","Mozilla/5.0 (X11; CrOS x86_64 12607.81.0) AppleWebKit/537.36 (KHTML, like Gecko) Chrome/79.0.3945.119 Safari/537.36",160,"[0.9, 0.5, 0.1]","[0.8, 0.4, 0.2]","[u'red', u'blue', u'black']","[u'left', u'middle', u'right']","[0.8, 0.4, 0.2]","[u'high', u'low', u'medium']","red",49,"left","high","True","False",371,7750,NA
