"src_subject_id","start_time","end_time","browser","index","first_half_probabilities","second_half_probabilities","deck_color","deck_position","deck_probabilities","deck_contingencies","response_color","key_press","response_position","response_probability","reward_type","trial_type","rt","reward_tally","exclusion_reason"
"A2ML0070M8FDK1","Fri Sep 18 2020 16:11:57 GMT-0500 (Central Daylight Time)","Fri Sep 18 2020 16:20:14 GMT-0500 (Central Daylight Time)","Mozilla/5.0 (Windows NT 6.1) AppleWebKit/537.36 (KHTML, like Gecko) Chrome/84.0.4147.135 Safari/537.36",1,"[0.9, 0.5, 0.1]","[0.8, 0.4, 0.2]","[u'black', u'red', u'blue']","[u'left', u'middle', u'right']","[0.9, 0.5, 0.1]","[u'medium', u'low', u'high']","black",49,"left","medium","False","False",1694,-50,NA
"A2ML0070M8FDK1","Fri Sep 18 2020 16:11:57 GMT-0500 (Central Daylight Time)","Fri Sep 18 2020 16:20:14 GMT-0500 (Central Daylight Time)","Mozilla/5.0 (Windows NT 6.1) AppleWebKit/537.36 (KHTML, like Gecko) Chrome/84.0.4147.135 Safari/537.36",2,"[0.9, 0.5, 0.1]","[0.8, 0.4, 0.2]","[u'black', u'red', u'blue']","[u'left', u'middle', u'right']","[0.9, 0.5, 0.1]","[u'medium', u'low', u'high']","red",50,"middle","low","False","False",594,-100,NA
"A2ML0070M8FDK1","Fri Sep 18 2020 16:11:57 GMT-0500 (Central Daylight Time)","Fri Sep 18 2020 16:20:14 GMT-0500 (Central Daylight Time)","Mozilla/5.0 (Windows NT 6.1) AppleWebKit/537.36 (KHTML, like Gecko) Chrome/84.0.4147.135 Safari/537.36",3,"[0.9, 0.5, 0.1]","[0.8, 0.4, 0.2]","[u'black', u'red', u'blue']","[u'left', u'middle', u'right']","[0.9, 0.5, 0.1]","[u'medium', u'low', u'high']","blue",51,"right","high","True","False",578,0,NA
"A2ML0070M8FDK1","Fri Sep 18 2020 16:11:57 GMT-0500 (Central Daylight Time)","Fri Sep 18 2020 16:20:14 GMT-0500 (Central Daylight Time)","Mozilla/5.0 (Windows NT 6.1) AppleWebKit/537.36 (KHTML, like Gecko) Chrome/84.0.4147.135 Safari/537.36",4,"[0.9, 0.5, 0.1]","[0.8, 0.4, 0.2]","[u'black', u'red', u'blue']","[u'left', u'middle', u'right']","[0.9, 0.5, 0.1]","[u'medium', u'low', u'high']","blue",51,"right","high","True","False",722,100,NA
"A2ML0070M8FDK1","Fri Sep 18 2020 16:11:57 GMT-0500 (Central Daylight Time)","Fri Sep 18 2020 16:20:14 GMT-0500 (Central Daylight Time)","Mozilla/5.0 (Windows NT 6.1) AppleWebKit/537.36 (KHTML, like Gecko) Chrome/84.0.4147.135 Safari/537.36",5,"[0.9, 0.5, 0.1]","[0.8, 0.4, 0.2]","[u'black', u'red', u'blue']","[u'left', u'middle', u'right']","[0.9, 0.5, 0.1]","[u'medium', u'low', u'high']","blue",51,"right","high","True","False",530,200,NA
"A2ML0070M8FDK1","Fri Sep 18 2020 16:11:57 GMT-0500 (Central Daylight Time)","Fri Sep 18 2020 16:20:14 GMT-0500 (Central Daylight Time)","Mozilla/5.0 (Windows NT 6.1) AppleWebKit/537.36 (KHTML, like Gecko) Chrome/84.0.4147.135 Safari/537.36",6,"[0.9, 0.5, 0.1]","[0.8, 0.4, 0.2]","[u'black', u'red', u'blue']","[u'left', u'middle', u'right']","[0.9, 0.5, 0.1]","[u'medium', u'low', u'high']","blue",51,"right","high","True","False",580,300,NA
"A2ML0070M8FDK1","Fri Sep 18 2020 16:11:57 GMT-0500 (Central Daylight Time)","Fri Sep 18 2020 16:20:14 GMT-0500 (Central Daylight Time)","Mozilla/5.0 (Windows NT 6.1) AppleWebKit/537.36 (KHTML, like Gecko) Chrome/84.0.4147.135 Safari/537.36",7,"[0.9, 0.5, 0.1]","[0.8, 0.4, 0.2]","[u'black', u'red', u'blue']","[u'left', u'middle', u'right']","[0.9, 0.5, 0.1]","[u'medium', u'low', u'high']","blue",51,"right","high","True","False",402,400,NA
"A2ML0070M8FDK1","Fri Sep 18 2020 16:11:57 GMT-0500 (Central Daylight Time)","Fri Sep 18 2020 16:20:14 GMT-0500 (Central Daylight Time)","Mozilla/5.0 (Windows NT 6.1) AppleWebKit/537.36 (KHTML, like Gecko) Chrome/84.0.4147.135 Safari/537.36",8,"[0.9, 0.5, 0.1]","[0.8, 0.4, 0.2]","[u'black', u'red', u'blue']","[u'left', u'middle', u'right']","[0.9, 0.5, 0.1]","[u'medium', u'low', u'high']","blue",51,"right","high","False","False",417,350,NA
"A2ML0070M8FDK1","Fri Sep 18 2020 16:11:57 GMT-0500 (Central Daylight Time)","Fri Sep 18 2020 16:20:14 GMT-0500 (Central Daylight Time)","Mozilla/5.0 (Windows NT 6.1) AppleWebKit/537.36 (KHTML, like Gecko) Chrome/84.0.4147.135 Safari/537.36",9,"[0.9, 0.5, 0.1]","[0.8, 0.4, 0.2]","[u'black', u'red', u'blue']","[u'left', u'middle', u'right']","[0.9, 0.5, 0.1]","[u'medium', u'low', u'high']","red",50,"middle","low","False","False",546,300,NA
"A2ML0070M8FDK1","Fri Sep 18 2020 16:11:57 GMT-0500 (Central Daylight Time)","Fri Sep 18 2020 16:20:14 GMT-0500 (Central Daylight Time)","Mozilla/5.0 (Windows NT 6.1) AppleWebKit/537.36 (KHTML, like Gecko) Chrome/84.0.4147.135 Safari/537.36",10,"[0.9, 0.5, 0.1]","[0.8, 0.4, 0.2]","[u'black', u'red', u'blue']","[u'left', u'middle', u'right']","[0.9, 0.5, 0.1]","[u'medium', u'low', u'high']","black",49,"left","medium","False","False",387,250,NA
"A2ML0070M8FDK1","Fri Sep 18 2020 16:11:57 GMT-0500 (Central Daylight Time)","Fri Sep 18 2020 16:20:14 GMT-0500 (Central Daylight Time)","Mozilla/5.0 (Windows NT 6.1) AppleWebKit/537.36 (KHTML, like Gecko) Chrome/84.0.4147.135 Safari/537.36",11,"[0.9, 0.5, 0.1]","[0.8, 0.4, 0.2]","[u'black', u'red', u'blue']","[u'left', u'middle', u'right']","[0.9, 0.5, 0.1]","[u'medium', u'low', u'high']","blue",51,"right","high","True","False",646,350,NA
"A2ML0070M8FDK1","Fri Sep 18 2020 16:11:57 GMT-0500 (Central Daylight Time)","Fri Sep 18 2020 16:20:14 GMT-0500 (Central Daylight Time)","Mozilla/5.0 (Windows NT 6.1) AppleWebKit/537.36 (KHTML, like Gecko) Chrome/84.0.4147.135 Safari/537.36",12,"[0.9, 0.5, 0.1]","[0.8, 0.4, 0.2]","[u'black', u'red', u'blue']","[u'left', u'middle', u'right']","[0.9, 0.5, 0.1]","[u'medium', u'low', u'high']","blue",51,"right","high","True","False",351,450,NA
"A2ML0070M8FDK1","Fri Sep 18 2020 16:11:57 GMT-0500 (Central Daylight Time)","Fri Sep 18 2020 16:20:14 GMT-0500 (Central Daylight Time)","Mozilla/5.0 (Windows NT 6.1) AppleWebKit/537.36 (KHTML, like Gecko) Chrome/84.0.4147.135 Safari/537.36",13,"[0.9, 0.5, 0.1]","[0.8, 0.4, 0.2]","[u'black', u'red', u'blue']","[u'left', u'middle', u'right']","[0.9, 0.5, 0.1]","[u'medium', u'low', u'high']","blue",51,"right","high","True","False",372,550,NA
"A2ML0070M8FDK1","Fri Sep 18 2020 16:11:57 GMT-0500 (Central Daylight Time)","Fri Sep 18 2020 16:20:14 GMT-0500 (Central Daylight Time)","Mozilla/5.0 (Windows NT 6.1) AppleWebKit/537.36 (KHTML, like Gecko) Chrome/84.0.4147.135 Safari/537.36",14,"[0.9, 0.5, 0.1]","[0.8, 0.4, 0.2]","[u'black', u'red', u'blue']","[u'left', u'middle', u'right']","[0.9, 0.5, 0.1]","[u'medium', u'low', u'high']","blue",51,"right","high","True","False",562,650,NA
"A2ML0070M8FDK1","Fri Sep 18 2020 16:11:57 GMT-0500 (Central Daylight Time)","Fri Sep 18 2020 16:20:14 GMT-0500 (Central Daylight Time)","Mozilla/5.0 (Windows NT 6.1) AppleWebKit/537.36 (KHTML, like Gecko) Chrome/84.0.4147.135 Safari/537.36",15,"[0.9, 0.5, 0.1]","[0.8, 0.4, 0.2]","[u'black', u'red', u'blue']","[u'left', u'middle', u'right']","[0.9, 0.5, 0.1]","[u'medium', u'low', u'high']","blue",51,"right","high","True","False",526,750,NA
"A2ML0070M8FDK1","Fri Sep 18 2020 16:11:57 GMT-0500 (Central Daylight Time)","Fri Sep 18 2020 16:20:14 GMT-0500 (Central Daylight Time)","Mozilla/5.0 (Windows NT 6.1) AppleWebKit/537.36 (KHTML, like Gecko) Chrome/84.0.4147.135 Safari/537.36",16,"[0.9, 0.5, 0.1]","[0.8, 0.4, 0.2]","[u'black', u'red', u'blue']","[u'left', u'middle', u'right']","[0.9, 0.5, 0.1]","[u'medium', u'low', u'high']","blue",51,"right","high","False","False",563,700,NA
"A2ML0070M8FDK1","Fri Sep 18 2020 16:11:57 GMT-0500 (Central Daylight Time)","Fri Sep 18 2020 16:20:14 GMT-0500 (Central Daylight Time)","Mozilla/5.0 (Windows NT 6.1) AppleWebKit/537.36 (KHTML, like Gecko) Chrome/84.0.4147.135 Safari/537.36",17,"[0.9, 0.5, 0.1]","[0.8, 0.4, 0.2]","[u'black', u'red', u'blue']","[u'left', u'middle', u'right']","[0.9, 0.5, 0.1]","[u'medium', u'low', u'high']","red",50,"middle","low","False","False",371,650,NA
"A2ML0070M8FDK1","Fri Sep 18 2020 16:11:57 GMT-0500 (Central Daylight Time)","Fri Sep 18 2020 16:20:14 GMT-0500 (Central Daylight Time)","Mozilla/5.0 (Windows NT 6.1) AppleWebKit/537.36 (KHTML, like Gecko) Chrome/84.0.4147.135 Safari/537.36",18,"[0.9, 0.5, 0.1]","[0.8, 0.4, 0.2]","[u'black', u'red', u'blue']","[u'left', u'middle', u'right']","[0.9, 0.5, 0.1]","[u'medium', u'low', u'high']","black",49,"left","medium","True","False",274,750,NA
"A2ML0070M8FDK1","Fri Sep 18 2020 16:11:57 GMT-0500 (Central Daylight Time)","Fri Sep 18 2020 16:20:14 GMT-0500 (Central Daylight Time)","Mozilla/5.0 (Windows NT 6.1) AppleWebKit/537.36 (KHTML, like Gecko) Chrome/84.0.4147.135 Safari/537.36",19,"[0.9, 0.5, 0.1]","[0.8, 0.4, 0.2]","[u'black', u'red', u'blue']","[u'left', u'middle', u'right']","[0.9, 0.5, 0.1]","[u'medium', u'low', u'high']","black",49,"left","medium","True","False",690,850,NA
"A2ML0070M8FDK1","Fri Sep 18 2020 16:11:57 GMT-0500 (Central Daylight Time)","Fri Sep 18 2020 16:20:14 GMT-0500 (Central Daylight Time)","Mozilla/5.0 (Windows NT 6.1) AppleWebKit/537.36 (KHTML, like Gecko) Chrome/84.0.4147.135 Safari/537.36",20,"[0.9, 0.5, 0.1]","[0.8, 0.4, 0.2]","[u'black', u'red', u'blue']","[u'left', u'middle', u'right']","[0.9, 0.5, 0.1]","[u'medium', u'low', u'high']","black",49,"left","medium","True","False",461,950,NA
"A2ML0070M8FDK1","Fri Sep 18 2020 16:11:57 GMT-0500 (Central Daylight Time)","Fri Sep 18 2020 16:20:14 GMT-0500 (Central Daylight Time)","Mozilla/5.0 (Windows NT 6.1) AppleWebKit/537.36 (KHTML, like Gecko) Chrome/84.0.4147.135 Safari/537.36",21,"[0.9, 0.5, 0.1]","[0.8, 0.4, 0.2]","[u'black', u'red', u'blue']","[u'left', u'middle', u'right']","[0.9, 0.5, 0.1]","[u'medium', u'low', u'high']","black",49,"left","medium","True","False",600,1050,NA
"A2ML0070M8FDK1","Fri Sep 18 2020 16:11:57 GMT-0500 (Central Daylight Time)","Fri Sep 18 2020 16:20:14 GMT-0500 (Central Daylight Time)","Mozilla/5.0 (Windows NT 6.1) AppleWebKit/537.36 (KHTML, like Gecko) Chrome/84.0.4147.135 Safari/537.36",22,"[0.9, 0.5, 0.1]","[0.8, 0.4, 0.2]","[u'black', u'red', u'blue']","[u'left', u'middle', u'right']","[0.9, 0.5, 0.1]","[u'medium', u'low', u'high']","black",49,"left","medium","True","False",530,1150,NA
"A2ML0070M8FDK1","Fri Sep 18 2020 16:11:57 GMT-0500 (Central Daylight Time)","Fri Sep 18 2020 16:20:14 GMT-0500 (Central Daylight Time)","Mozilla/5.0 (Windows NT 6.1) AppleWebKit/537.36 (KHTML, like Gecko) Chrome/84.0.4147.135 Safari/537.36",23,"[0.9, 0.5, 0.1]","[0.8, 0.4, 0.2]","[u'black', u'red', u'blue']","[u'left', u'middle', u'right']","[0.9, 0.5, 0.1]","[u'medium', u'low', u'high']","black",49,"left","medium","False","False",372,1100,NA
"A2ML0070M8FDK1","Fri Sep 18 2020 16:11:57 GMT-0500 (Central Daylight Time)","Fri Sep 18 2020 16:20:14 GMT-0500 (Central Daylight Time)","Mozilla/5.0 (Windows NT 6.1) AppleWebKit/537.36 (KHTML, like Gecko) Chrome/84.0.4147.135 Safari/537.36",24,"[0.9, 0.5, 0.1]","[0.8, 0.4, 0.2]","[u'black', u'red', u'blue']","[u'left', u'middle', u'right']","[0.9, 0.5, 0.1]","[u'medium', u'low', u'high']","blue",51,"right","high","True","False",578,1200,NA
"A2ML0070M8FDK1","Fri Sep 18 2020 16:11:57 GMT-0500 (Central Daylight Time)","Fri Sep 18 2020 16:20:14 GMT-0500 (Central Daylight Time)","Mozilla/5.0 (Windows NT 6.1) AppleWebKit/537.36 (KHTML, like Gecko) Chrome/84.0.4147.135 Safari/537.36",25,"[0.9, 0.5, 0.1]","[0.8, 0.4, 0.2]","[u'black', u'red', u'blue']","[u'left', u'middle', u'right']","[0.9, 0.5, 0.1]","[u'medium', u'low', u'high']","blue",51,"right","high","True","False",355,1300,NA
"A2ML0070M8FDK1","Fri Sep 18 2020 16:11:57 GMT-0500 (Central Daylight Time)","Fri Sep 18 2020 16:20:14 GMT-0500 (Central Daylight Time)","Mozilla/5.0 (Windows NT 6.1) AppleWebKit/537.36 (KHTML, like Gecko) Chrome/84.0.4147.135 Safari/537.36",26,"[0.9, 0.5, 0.1]","[0.8, 0.4, 0.2]","[u'black', u'red', u'blue']","[u'left', u'middle', u'right']","[0.9, 0.5, 0.1]","[u'medium', u'low', u'high']","blue",51,"right","high","False","False",480,1250,NA
"A2ML0070M8FDK1","Fri Sep 18 2020 16:11:57 GMT-0500 (Central Daylight Time)","Fri Sep 18 2020 16:20:14 GMT-0500 (Central Daylight Time)","Mozilla/5.0 (Windows NT 6.1) AppleWebKit/537.36 (KHTML, like Gecko) Chrome/84.0.4147.135 Safari/537.36",27,"[0.9, 0.5, 0.1]","[0.8, 0.4, 0.2]","[u'black', u'red', u'blue']","[u'left', u'middle', u'right']","[0.9, 0.5, 0.1]","[u'medium', u'low', u'high']","red",50,"middle","low","False","False",337,1200,NA
"A2ML0070M8FDK1","Fri Sep 18 2020 16:11:57 GMT-0500 (Central Daylight Time)","Fri Sep 18 2020 16:20:14 GMT-0500 (Central Daylight Time)","Mozilla/5.0 (Windows NT 6.1) AppleWebKit/537.36 (KHTML, like Gecko) Chrome/84.0.4147.135 Safari/537.36",28,"[0.9, 0.5, 0.1]","[0.8, 0.4, 0.2]","[u'black', u'red', u'blue']","[u'left', u'middle', u'right']","[0.9, 0.5, 0.1]","[u'medium', u'low', u'high']","black",49,"left","medium","True","False",247,1300,NA
"A2ML0070M8FDK1","Fri Sep 18 2020 16:11:57 GMT-0500 (Central Daylight Time)","Fri Sep 18 2020 16:20:14 GMT-0500 (Central Daylight Time)","Mozilla/5.0 (Windows NT 6.1) AppleWebKit/537.36 (KHTML, like Gecko) Chrome/84.0.4147.135 Safari/537.36",29,"[0.9, 0.5, 0.1]","[0.8, 0.4, 0.2]","[u'black', u'red', u'blue']","[u'left', u'middle', u'right']","[0.9, 0.5, 0.1]","[u'medium', u'low', u'high']","black",49,"left","medium","False","False",463,1250,NA
"A2ML0070M8FDK1","Fri Sep 18 2020 16:11:57 GMT-0500 (Central Daylight Time)","Fri Sep 18 2020 16:20:14 GMT-0500 (Central Daylight Time)","Mozilla/5.0 (Windows NT 6.1) AppleWebKit/537.36 (KHTML, like Gecko) Chrome/84.0.4147.135 Safari/537.36",30,"[0.9, 0.5, 0.1]","[0.8, 0.4, 0.2]","[u'black', u'red', u'blue']","[u'left', u'middle', u'right']","[0.9, 0.5, 0.1]","[u'medium', u'low', u'high']","blue",51,"right","high","True","False",306,1350,NA
"A2ML0070M8FDK1","Fri Sep 18 2020 16:11:57 GMT-0500 (Central Daylight Time)","Fri Sep 18 2020 16:20:14 GMT-0500 (Central Daylight Time)","Mozilla/5.0 (Windows NT 6.1) AppleWebKit/537.36 (KHTML, like Gecko) Chrome/84.0.4147.135 Safari/537.36",31,"[0.9, 0.5, 0.1]","[0.8, 0.4, 0.2]","[u'black', u'red', u'blue']","[u'left', u'middle', u'right']","[0.9, 0.5, 0.1]","[u'medium', u'low', u'high']","blue",51,"right","high","True","False",402,1450,NA
"A2ML0070M8FDK1","Fri Sep 18 2020 16:11:57 GMT-0500 (Central Daylight Time)","Fri Sep 18 2020 16:20:14 GMT-0500 (Central Daylight Time)","Mozilla/5.0 (Windows NT 6.1) AppleWebKit/537.36 (KHTML, like Gecko) Chrome/84.0.4147.135 Safari/537.36",32,"[0.9, 0.5, 0.1]","[0.8, 0.4, 0.2]","[u'black', u'red', u'blue']","[u'left', u'middle', u'right']","[0.9, 0.5, 0.1]","[u'medium', u'low', u'high']","blue",51,"right","high","True","False",514,1550,NA
"A2ML0070M8FDK1","Fri Sep 18 2020 16:11:57 GMT-0500 (Central Daylight Time)","Fri Sep 18 2020 16:20:14 GMT-0500 (Central Daylight Time)","Mozilla/5.0 (Windows NT 6.1) AppleWebKit/537.36 (KHTML, like Gecko) Chrome/84.0.4147.135 Safari/537.36",33,"[0.9, 0.5, 0.1]","[0.8, 0.4, 0.2]","[u'black', u'red', u'blue']","[u'left', u'middle', u'right']","[0.9, 0.5, 0.1]","[u'medium', u'low', u'high']","blue",51,"right","high","True","False",468,1650,NA
"A2ML0070M8FDK1","Fri Sep 18 2020 16:11:57 GMT-0500 (Central Daylight Time)","Fri Sep 18 2020 16:20:14 GMT-0500 (Central Daylight Time)","Mozilla/5.0 (Windows NT 6.1) AppleWebKit/537.36 (KHTML, like Gecko) Chrome/84.0.4147.135 Safari/537.36",34,"[0.9, 0.5, 0.1]","[0.8, 0.4, 0.2]","[u'black', u'red', u'blue']","[u'left', u'middle', u'right']","[0.9, 0.5, 0.1]","[u'medium', u'low', u'high']","blue",51,"right","high","True","False",578,1750,NA
"A2ML0070M8FDK1","Fri Sep 18 2020 16:11:57 GMT-0500 (Central Daylight Time)","Fri Sep 18 2020 16:20:14 GMT-0500 (Central Daylight Time)","Mozilla/5.0 (Windows NT 6.1) AppleWebKit/537.36 (KHTML, like Gecko) Chrome/84.0.4147.135 Safari/537.36",35,"[0.9, 0.5, 0.1]","[0.8, 0.4, 0.2]","[u'black', u'red', u'blue']","[u'left', u'middle', u'right']","[0.9, 0.5, 0.1]","[u'medium', u'low', u'high']","blue",51,"right","high","True","False",405,1850,NA
"A2ML0070M8FDK1","Fri Sep 18 2020 16:11:57 GMT-0500 (Central Daylight Time)","Fri Sep 18 2020 16:20:14 GMT-0500 (Central Daylight Time)","Mozilla/5.0 (Windows NT 6.1) AppleWebKit/537.36 (KHTML, like Gecko) Chrome/84.0.4147.135 Safari/537.36",36,"[0.9, 0.5, 0.1]","[0.8, 0.4, 0.2]","[u'black', u'red', u'blue']","[u'left', u'middle', u'right']","[0.9, 0.5, 0.1]","[u'medium', u'low', u'high']","blue",51,"right","high","True","False",368,1950,NA
"A2ML0070M8FDK1","Fri Sep 18 2020 16:11:57 GMT-0500 (Central Daylight Time)","Fri Sep 18 2020 16:20:14 GMT-0500 (Central Daylight Time)","Mozilla/5.0 (Windows NT 6.1) AppleWebKit/537.36 (KHTML, like Gecko) Chrome/84.0.4147.135 Safari/537.36",37,"[0.9, 0.5, 0.1]","[0.8, 0.4, 0.2]","[u'black', u'red', u'blue']","[u'left', u'middle', u'right']","[0.9, 0.5, 0.1]","[u'medium', u'low', u'high']","blue",51,"right","high","False","False",546,1900,NA
"A2ML0070M8FDK1","Fri Sep 18 2020 16:11:57 GMT-0500 (Central Daylight Time)","Fri Sep 18 2020 16:20:14 GMT-0500 (Central Daylight Time)","Mozilla/5.0 (Windows NT 6.1) AppleWebKit/537.36 (KHTML, like Gecko) Chrome/84.0.4147.135 Safari/537.36",38,"[0.9, 0.5, 0.1]","[0.8, 0.4, 0.2]","[u'black', u'red', u'blue']","[u'left', u'middle', u'right']","[0.9, 0.5, 0.1]","[u'medium', u'low', u'high']","black",49,"left","medium","True","False",950,2000,NA
"A2ML0070M8FDK1","Fri Sep 18 2020 16:11:57 GMT-0500 (Central Daylight Time)","Fri Sep 18 2020 16:20:14 GMT-0500 (Central Daylight Time)","Mozilla/5.0 (Windows NT 6.1) AppleWebKit/537.36 (KHTML, like Gecko) Chrome/84.0.4147.135 Safari/537.36",39,"[0.9, 0.5, 0.1]","[0.8, 0.4, 0.2]","[u'black', u'red', u'blue']","[u'left', u'middle', u'right']","[0.9, 0.5, 0.1]","[u'medium', u'low', u'high']","black",49,"left","medium","True","False",674,2100,NA
"A2ML0070M8FDK1","Fri Sep 18 2020 16:11:57 GMT-0500 (Central Daylight Time)","Fri Sep 18 2020 16:20:14 GMT-0500 (Central Daylight Time)","Mozilla/5.0 (Windows NT 6.1) AppleWebKit/537.36 (KHTML, like Gecko) Chrome/84.0.4147.135 Safari/537.36",40,"[0.9, 0.5, 0.1]","[0.8, 0.4, 0.2]","[u'black', u'red', u'blue']","[u'left', u'middle', u'right']","[0.9, 0.5, 0.1]","[u'medium', u'low', u'high']","black",49,"left","medium","True","False",443,2200,NA
"A2ML0070M8FDK1","Fri Sep 18 2020 16:11:57 GMT-0500 (Central Daylight Time)","Fri Sep 18 2020 16:20:14 GMT-0500 (Central Daylight Time)","Mozilla/5.0 (Windows NT 6.1) AppleWebKit/537.36 (KHTML, like Gecko) Chrome/84.0.4147.135 Safari/537.36",41,"[0.9, 0.5, 0.1]","[0.8, 0.4, 0.2]","[u'black', u'red', u'blue']","[u'left', u'middle', u'right']","[0.9, 0.5, 0.1]","[u'high', u'low', u'medium']","black",49,"left","high","True","False",1022,2300,NA
"A2ML0070M8FDK1","Fri Sep 18 2020 16:11:57 GMT-0500 (Central Daylight Time)","Fri Sep 18 2020 16:20:14 GMT-0500 (Central Daylight Time)","Mozilla/5.0 (Windows NT 6.1) AppleWebKit/537.36 (KHTML, like Gecko) Chrome/84.0.4147.135 Safari/537.36",42,"[0.9, 0.5, 0.1]","[0.8, 0.4, 0.2]","[u'black', u'red', u'blue']","[u'left', u'middle', u'right']","[0.9, 0.5, 0.1]","[u'high', u'low', u'medium']","black",49,"left","high","True","False",411,2400,NA
"A2ML0070M8FDK1","Fri Sep 18 2020 16:11:57 GMT-0500 (Central Daylight Time)","Fri Sep 18 2020 16:20:14 GMT-0500 (Central Daylight Time)","Mozilla/5.0 (Windows NT 6.1) AppleWebKit/537.36 (KHTML, like Gecko) Chrome/84.0.4147.135 Safari/537.36",43,"[0.9, 0.5, 0.1]","[0.8, 0.4, 0.2]","[u'black', u'red', u'blue']","[u'left', u'middle', u'right']","[0.9, 0.5, 0.1]","[u'high', u'low', u'medium']","black",49,"left","high","True","False",532,2500,NA
"A2ML0070M8FDK1","Fri Sep 18 2020 16:11:57 GMT-0500 (Central Daylight Time)","Fri Sep 18 2020 16:20:14 GMT-0500 (Central Daylight Time)","Mozilla/5.0 (Windows NT 6.1) AppleWebKit/537.36 (KHTML, like Gecko) Chrome/84.0.4147.135 Safari/537.36",44,"[0.9, 0.5, 0.1]","[0.8, 0.4, 0.2]","[u'black', u'red', u'blue']","[u'left', u'middle', u'right']","[0.9, 0.5, 0.1]","[u'high', u'low', u'medium']","black",49,"left","high","True","False",416,2600,NA
"A2ML0070M8FDK1","Fri Sep 18 2020 16:11:57 GMT-0500 (Central Daylight Time)","Fri Sep 18 2020 16:20:14 GMT-0500 (Central Daylight Time)","Mozilla/5.0 (Windows NT 6.1) AppleWebKit/537.36 (KHTML, like Gecko) Chrome/84.0.4147.135 Safari/537.36",45,"[0.9, 0.5, 0.1]","[0.8, 0.4, 0.2]","[u'black', u'red', u'blue']","[u'left', u'middle', u'right']","[0.9, 0.5, 0.1]","[u'high', u'low', u'medium']","black",49,"left","high","False","False",483,2550,NA
"A2ML0070M8FDK1","Fri Sep 18 2020 16:11:57 GMT-0500 (Central Daylight Time)","Fri Sep 18 2020 16:20:14 GMT-0500 (Central Daylight Time)","Mozilla/5.0 (Windows NT 6.1) AppleWebKit/537.36 (KHTML, like Gecko) Chrome/84.0.4147.135 Safari/537.36",46,"[0.9, 0.5, 0.1]","[0.8, 0.4, 0.2]","[u'black', u'red', u'blue']","[u'left', u'middle', u'right']","[0.9, 0.5, 0.1]","[u'high', u'low', u'medium']","blue",51,"right","medium","False","False",466,2500,NA
"A2ML0070M8FDK1","Fri Sep 18 2020 16:11:57 GMT-0500 (Central Daylight Time)","Fri Sep 18 2020 16:20:14 GMT-0500 (Central Daylight Time)","Mozilla/5.0 (Windows NT 6.1) AppleWebKit/537.36 (KHTML, like Gecko) Chrome/84.0.4147.135 Safari/537.36",47,"[0.9, 0.5, 0.1]","[0.8, 0.4, 0.2]","[u'black', u'red', u'blue']","[u'left', u'middle', u'right']","[0.9, 0.5, 0.1]","[u'high', u'low', u'medium']","red",50,"middle","low","False","False",578,2450,NA
"A2ML0070M8FDK1","Fri Sep 18 2020 16:11:57 GMT-0500 (Central Daylight Time)","Fri Sep 18 2020 16:20:14 GMT-0500 (Central Daylight Time)","Mozilla/5.0 (Windows NT 6.1) AppleWebKit/537.36 (KHTML, like Gecko) Chrome/84.0.4147.135 Safari/537.36",48,"[0.9, 0.5, 0.1]","[0.8, 0.4, 0.2]","[u'black', u'red', u'blue']","[u'left', u'middle', u'right']","[0.9, 0.5, 0.1]","[u'high', u'low', u'medium']","black",49,"left","high","True","False",626,2550,NA
"A2ML0070M8FDK1","Fri Sep 18 2020 16:11:57 GMT-0500 (Central Daylight Time)","Fri Sep 18 2020 16:20:14 GMT-0500 (Central Daylight Time)","Mozilla/5.0 (Windows NT 6.1) AppleWebKit/537.36 (KHTML, like Gecko) Chrome/84.0.4147.135 Safari/537.36",49,"[0.9, 0.5, 0.1]","[0.8, 0.4, 0.2]","[u'black', u'red', u'blue']","[u'left', u'middle', u'right']","[0.9, 0.5, 0.1]","[u'high', u'low', u'medium']","black",49,"left","high","True","False",355,2650,NA
"A2ML0070M8FDK1","Fri Sep 18 2020 16:11:57 GMT-0500 (Central Daylight Time)","Fri Sep 18 2020 16:20:14 GMT-0500 (Central Daylight Time)","Mozilla/5.0 (Windows NT 6.1) AppleWebKit/537.36 (KHTML, like Gecko) Chrome/84.0.4147.135 Safari/537.36",50,"[0.9, 0.5, 0.1]","[0.8, 0.4, 0.2]","[u'black', u'red', u'blue']","[u'left', u'middle', u'right']","[0.9, 0.5, 0.1]","[u'high', u'low', u'medium']","black",49,"left","high","True","False",417,2750,NA
"A2ML0070M8FDK1","Fri Sep 18 2020 16:11:57 GMT-0500 (Central Daylight Time)","Fri Sep 18 2020 16:20:14 GMT-0500 (Central Daylight Time)","Mozilla/5.0 (Windows NT 6.1) AppleWebKit/537.36 (KHTML, like Gecko) Chrome/84.0.4147.135 Safari/537.36",51,"[0.9, 0.5, 0.1]","[0.8, 0.4, 0.2]","[u'black', u'red', u'blue']","[u'left', u'middle', u'right']","[0.9, 0.5, 0.1]","[u'high', u'low', u'medium']","black",49,"left","high","True","False",517,2850,NA
"A2ML0070M8FDK1","Fri Sep 18 2020 16:11:57 GMT-0500 (Central Daylight Time)","Fri Sep 18 2020 16:20:14 GMT-0500 (Central Daylight Time)","Mozilla/5.0 (Windows NT 6.1) AppleWebKit/537.36 (KHTML, like Gecko) Chrome/84.0.4147.135 Safari/537.36",52,"[0.9, 0.5, 0.1]","[0.8, 0.4, 0.2]","[u'black', u'red', u'blue']","[u'left', u'middle', u'right']","[0.9, 0.5, 0.1]","[u'high', u'low', u'medium']","black",49,"left","high","True","False",341,2950,NA
"A2ML0070M8FDK1","Fri Sep 18 2020 16:11:57 GMT-0500 (Central Daylight Time)","Fri Sep 18 2020 16:20:14 GMT-0500 (Central Daylight Time)","Mozilla/5.0 (Windows NT 6.1) AppleWebKit/537.36 (KHTML, like Gecko) Chrome/84.0.4147.135 Safari/537.36",53,"[0.9, 0.5, 0.1]","[0.8, 0.4, 0.2]","[u'black', u'red', u'blue']","[u'left', u'middle', u'right']","[0.9, 0.5, 0.1]","[u'high', u'low', u'medium']","black",49,"left","high","True","False",351,3050,NA
"A2ML0070M8FDK1","Fri Sep 18 2020 16:11:57 GMT-0500 (Central Daylight Time)","Fri Sep 18 2020 16:20:14 GMT-0500 (Central Daylight Time)","Mozilla/5.0 (Windows NT 6.1) AppleWebKit/537.36 (KHTML, like Gecko) Chrome/84.0.4147.135 Safari/537.36",54,"[0.9, 0.5, 0.1]","[0.8, 0.4, 0.2]","[u'black', u'red', u'blue']","[u'left', u'middle', u'right']","[0.9, 0.5, 0.1]","[u'high', u'low', u'medium']","black",49,"left","high","True","False",385,3150,NA
"A2ML0070M8FDK1","Fri Sep 18 2020 16:11:57 GMT-0500 (Central Daylight Time)","Fri Sep 18 2020 16:20:14 GMT-0500 (Central Daylight Time)","Mozilla/5.0 (Windows NT 6.1) AppleWebKit/537.36 (KHTML, like Gecko) Chrome/84.0.4147.135 Safari/537.36",55,"[0.9, 0.5, 0.1]","[0.8, 0.4, 0.2]","[u'black', u'red', u'blue']","[u'left', u'middle', u'right']","[0.9, 0.5, 0.1]","[u'high', u'low', u'medium']","black",49,"left","high","True","False",310,3250,NA
"A2ML0070M8FDK1","Fri Sep 18 2020 16:11:57 GMT-0500 (Central Daylight Time)","Fri Sep 18 2020 16:20:14 GMT-0500 (Central Daylight Time)","Mozilla/5.0 (Windows NT 6.1) AppleWebKit/537.36 (KHTML, like Gecko) Chrome/84.0.4147.135 Safari/537.36",56,"[0.9, 0.5, 0.1]","[0.8, 0.4, 0.2]","[u'black', u'red', u'blue']","[u'left', u'middle', u'right']","[0.9, 0.5, 0.1]","[u'high', u'low', u'medium']","black",49,"left","high","True","True",497,3350,NA
"A2ML0070M8FDK1","Fri Sep 18 2020 16:11:57 GMT-0500 (Central Daylight Time)","Fri Sep 18 2020 16:20:14 GMT-0500 (Central Daylight Time)","Mozilla/5.0 (Windows NT 6.1) AppleWebKit/537.36 (KHTML, like Gecko) Chrome/84.0.4147.135 Safari/537.36",57,"[0.9, 0.5, 0.1]","[0.8, 0.4, 0.2]","[u'black', u'red', u'blue']","[u'left', u'middle', u'right']","[0.9, 0.5, 0.1]","[u'low', u'medium', u'high']","black",49,"left","low","True","False",372,3450,NA
"A2ML0070M8FDK1","Fri Sep 18 2020 16:11:57 GMT-0500 (Central Daylight Time)","Fri Sep 18 2020 16:20:14 GMT-0500 (Central Daylight Time)","Mozilla/5.0 (Windows NT 6.1) AppleWebKit/537.36 (KHTML, like Gecko) Chrome/84.0.4147.135 Safari/537.36",58,"[0.9, 0.5, 0.1]","[0.8, 0.4, 0.2]","[u'black', u'red', u'blue']","[u'left', u'middle', u'right']","[0.9, 0.5, 0.1]","[u'low', u'medium', u'high']","black",49,"left","low","False","False",387,3400,NA
"A2ML0070M8FDK1","Fri Sep 18 2020 16:11:57 GMT-0500 (Central Daylight Time)","Fri Sep 18 2020 16:20:14 GMT-0500 (Central Daylight Time)","Mozilla/5.0 (Windows NT 6.1) AppleWebKit/537.36 (KHTML, like Gecko) Chrome/84.0.4147.135 Safari/537.36",59,"[0.9, 0.5, 0.1]","[0.8, 0.4, 0.2]","[u'black', u'red', u'blue']","[u'left', u'middle', u'right']","[0.9, 0.5, 0.1]","[u'low', u'medium', u'high']","blue",51,"right","high","True","False",409,3500,NA
"A2ML0070M8FDK1","Fri Sep 18 2020 16:11:57 GMT-0500 (Central Daylight Time)","Fri Sep 18 2020 16:20:14 GMT-0500 (Central Daylight Time)","Mozilla/5.0 (Windows NT 6.1) AppleWebKit/537.36 (KHTML, like Gecko) Chrome/84.0.4147.135 Safari/537.36",60,"[0.9, 0.5, 0.1]","[0.8, 0.4, 0.2]","[u'black', u'red', u'blue']","[u'left', u'middle', u'right']","[0.9, 0.5, 0.1]","[u'low', u'medium', u'high']","blue",51,"right","high","True","False",323,3600,NA
"A2ML0070M8FDK1","Fri Sep 18 2020 16:11:57 GMT-0500 (Central Daylight Time)","Fri Sep 18 2020 16:20:14 GMT-0500 (Central Daylight Time)","Mozilla/5.0 (Windows NT 6.1) AppleWebKit/537.36 (KHTML, like Gecko) Chrome/84.0.4147.135 Safari/537.36",61,"[0.9, 0.5, 0.1]","[0.8, 0.4, 0.2]","[u'black', u'red', u'blue']","[u'left', u'middle', u'right']","[0.9, 0.5, 0.1]","[u'low', u'medium', u'high']","blue",51,"right","high","True","False",370,3700,NA
"A2ML0070M8FDK1","Fri Sep 18 2020 16:11:57 GMT-0500 (Central Daylight Time)","Fri Sep 18 2020 16:20:14 GMT-0500 (Central Daylight Time)","Mozilla/5.0 (Windows NT 6.1) AppleWebKit/537.36 (KHTML, like Gecko) Chrome/84.0.4147.135 Safari/537.36",62,"[0.9, 0.5, 0.1]","[0.8, 0.4, 0.2]","[u'black', u'red', u'blue']","[u'left', u'middle', u'right']","[0.9, 0.5, 0.1]","[u'low', u'medium', u'high']","blue",51,"right","high","True","False",401,3800,NA
"A2ML0070M8FDK1","Fri Sep 18 2020 16:11:57 GMT-0500 (Central Daylight Time)","Fri Sep 18 2020 16:20:14 GMT-0500 (Central Daylight Time)","Mozilla/5.0 (Windows NT 6.1) AppleWebKit/537.36 (KHTML, like Gecko) Chrome/84.0.4147.135 Safari/537.36",63,"[0.9, 0.5, 0.1]","[0.8, 0.4, 0.2]","[u'black', u'red', u'blue']","[u'left', u'middle', u'right']","[0.9, 0.5, 0.1]","[u'low', u'medium', u'high']","blue",51,"right","high","True","False",370,3900,NA
"A2ML0070M8FDK1","Fri Sep 18 2020 16:11:57 GMT-0500 (Central Daylight Time)","Fri Sep 18 2020 16:20:14 GMT-0500 (Central Daylight Time)","Mozilla/5.0 (Windows NT 6.1) AppleWebKit/537.36 (KHTML, like Gecko) Chrome/84.0.4147.135 Safari/537.36",64,"[0.9, 0.5, 0.1]","[0.8, 0.4, 0.2]","[u'black', u'red', u'blue']","[u'left', u'middle', u'right']","[0.9, 0.5, 0.1]","[u'low', u'medium', u'high']","blue",51,"right","high","False","False",498,3850,NA
"A2ML0070M8FDK1","Fri Sep 18 2020 16:11:57 GMT-0500 (Central Daylight Time)","Fri Sep 18 2020 16:20:14 GMT-0500 (Central Daylight Time)","Mozilla/5.0 (Windows NT 6.1) AppleWebKit/537.36 (KHTML, like Gecko) Chrome/84.0.4147.135 Safari/537.36",65,"[0.9, 0.5, 0.1]","[0.8, 0.4, 0.2]","[u'black', u'red', u'blue']","[u'left', u'middle', u'right']","[0.9, 0.5, 0.1]","[u'low', u'medium', u'high']","black",49,"left","low","False","False",66,3800,NA
"A2ML0070M8FDK1","Fri Sep 18 2020 16:11:57 GMT-0500 (Central Daylight Time)","Fri Sep 18 2020 16:20:14 GMT-0500 (Central Daylight Time)","Mozilla/5.0 (Windows NT 6.1) AppleWebKit/537.36 (KHTML, like Gecko) Chrome/84.0.4147.135 Safari/537.36",66,"[0.9, 0.5, 0.1]","[0.8, 0.4, 0.2]","[u'black', u'red', u'blue']","[u'left', u'middle', u'right']","[0.9, 0.5, 0.1]","[u'low', u'medium', u'high']","red",50,"middle","medium","True","False",340,3900,NA
"A2ML0070M8FDK1","Fri Sep 18 2020 16:11:57 GMT-0500 (Central Daylight Time)","Fri Sep 18 2020 16:20:14 GMT-0500 (Central Daylight Time)","Mozilla/5.0 (Windows NT 6.1) AppleWebKit/537.36 (KHTML, like Gecko) Chrome/84.0.4147.135 Safari/537.36",67,"[0.9, 0.5, 0.1]","[0.8, 0.4, 0.2]","[u'black', u'red', u'blue']","[u'left', u'middle', u'right']","[0.9, 0.5, 0.1]","[u'low', u'medium', u'high']","red",50,"middle","medium","True","False",502,4000,NA
"A2ML0070M8FDK1","Fri Sep 18 2020 16:11:57 GMT-0500 (Central Daylight Time)","Fri Sep 18 2020 16:20:14 GMT-0500 (Central Daylight Time)","Mozilla/5.0 (Windows NT 6.1) AppleWebKit/537.36 (KHTML, like Gecko) Chrome/84.0.4147.135 Safari/537.36",68,"[0.9, 0.5, 0.1]","[0.8, 0.4, 0.2]","[u'black', u'red', u'blue']","[u'left', u'middle', u'right']","[0.9, 0.5, 0.1]","[u'low', u'medium', u'high']","red",50,"middle","medium","True","False",447,4100,NA
"A2ML0070M8FDK1","Fri Sep 18 2020 16:11:57 GMT-0500 (Central Daylight Time)","Fri Sep 18 2020 16:20:14 GMT-0500 (Central Daylight Time)","Mozilla/5.0 (Windows NT 6.1) AppleWebKit/537.36 (KHTML, like Gecko) Chrome/84.0.4147.135 Safari/537.36",69,"[0.9, 0.5, 0.1]","[0.8, 0.4, 0.2]","[u'black', u'red', u'blue']","[u'left', u'middle', u'right']","[0.9, 0.5, 0.1]","[u'low', u'medium', u'high']","red",50,"middle","medium","False","False",372,4050,NA
"A2ML0070M8FDK1","Fri Sep 18 2020 16:11:57 GMT-0500 (Central Daylight Time)","Fri Sep 18 2020 16:20:14 GMT-0500 (Central Daylight Time)","Mozilla/5.0 (Windows NT 6.1) AppleWebKit/537.36 (KHTML, like Gecko) Chrome/84.0.4147.135 Safari/537.36",70,"[0.9, 0.5, 0.1]","[0.8, 0.4, 0.2]","[u'black', u'red', u'blue']","[u'left', u'middle', u'right']","[0.9, 0.5, 0.1]","[u'low', u'medium', u'high']","blue",51,"right","high","True","False",422,4150,NA
"A2ML0070M8FDK1","Fri Sep 18 2020 16:11:57 GMT-0500 (Central Daylight Time)","Fri Sep 18 2020 16:20:14 GMT-0500 (Central Daylight Time)","Mozilla/5.0 (Windows NT 6.1) AppleWebKit/537.36 (KHTML, like Gecko) Chrome/84.0.4147.135 Safari/537.36",71,"[0.9, 0.5, 0.1]","[0.8, 0.4, 0.2]","[u'black', u'red', u'blue']","[u'left', u'middle', u'right']","[0.9, 0.5, 0.1]","[u'low', u'medium', u'high']","blue",51,"right","high","False","False",320,4100,NA
"A2ML0070M8FDK1","Fri Sep 18 2020 16:11:57 GMT-0500 (Central Daylight Time)","Fri Sep 18 2020 16:20:14 GMT-0500 (Central Daylight Time)","Mozilla/5.0 (Windows NT 6.1) AppleWebKit/537.36 (KHTML, like Gecko) Chrome/84.0.4147.135 Safari/537.36",72,"[0.9, 0.5, 0.1]","[0.8, 0.4, 0.2]","[u'black', u'red', u'blue']","[u'left', u'middle', u'right']","[0.9, 0.5, 0.1]","[u'low', u'medium', u'high']","black",49,"left","low","False","False",530,4050,NA
"A2ML0070M8FDK1","Fri Sep 18 2020 16:11:57 GMT-0500 (Central Daylight Time)","Fri Sep 18 2020 16:20:14 GMT-0500 (Central Daylight Time)","Mozilla/5.0 (Windows NT 6.1) AppleWebKit/537.36 (KHTML, like Gecko) Chrome/84.0.4147.135 Safari/537.36",73,"[0.9, 0.5, 0.1]","[0.8, 0.4, 0.2]","[u'black', u'red', u'blue']","[u'left', u'middle', u'right']","[0.9, 0.5, 0.1]","[u'low', u'medium', u'high']","red",50,"middle","medium","False","False",406,4000,NA
"A2ML0070M8FDK1","Fri Sep 18 2020 16:11:57 GMT-0500 (Central Daylight Time)","Fri Sep 18 2020 16:20:14 GMT-0500 (Central Daylight Time)","Mozilla/5.0 (Windows NT 6.1) AppleWebKit/537.36 (KHTML, like Gecko) Chrome/84.0.4147.135 Safari/537.36",74,"[0.9, 0.5, 0.1]","[0.8, 0.4, 0.2]","[u'black', u'red', u'blue']","[u'left', u'middle', u'right']","[0.9, 0.5, 0.1]","[u'low', u'medium', u'high']","blue",51,"right","high","True","False",386,4100,NA
"A2ML0070M8FDK1","Fri Sep 18 2020 16:11:57 GMT-0500 (Central Daylight Time)","Fri Sep 18 2020 16:20:14 GMT-0500 (Central Daylight Time)","Mozilla/5.0 (Windows NT 6.1) AppleWebKit/537.36 (KHTML, like Gecko) Chrome/84.0.4147.135 Safari/537.36",75,"[0.9, 0.5, 0.1]","[0.8, 0.4, 0.2]","[u'black', u'red', u'blue']","[u'left', u'middle', u'right']","[0.9, 0.5, 0.1]","[u'low', u'medium', u'high']","blue",51,"right","high","True","False",512,4200,NA
"A2ML0070M8FDK1","Fri Sep 18 2020 16:11:57 GMT-0500 (Central Daylight Time)","Fri Sep 18 2020 16:20:14 GMT-0500 (Central Daylight Time)","Mozilla/5.0 (Windows NT 6.1) AppleWebKit/537.36 (KHTML, like Gecko) Chrome/84.0.4147.135 Safari/537.36",76,"[0.9, 0.5, 0.1]","[0.8, 0.4, 0.2]","[u'black', u'red', u'blue']","[u'left', u'middle', u'right']","[0.9, 0.5, 0.1]","[u'low', u'medium', u'high']","blue",51,"right","high","True","False",377,4300,NA
"A2ML0070M8FDK1","Fri Sep 18 2020 16:11:57 GMT-0500 (Central Daylight Time)","Fri Sep 18 2020 16:20:14 GMT-0500 (Central Daylight Time)","Mozilla/5.0 (Windows NT 6.1) AppleWebKit/537.36 (KHTML, like Gecko) Chrome/84.0.4147.135 Safari/537.36",77,"[0.9, 0.5, 0.1]","[0.8, 0.4, 0.2]","[u'black', u'red', u'blue']","[u'left', u'middle', u'right']","[0.9, 0.5, 0.1]","[u'low', u'medium', u'high']","blue",51,"right","high","True","False",521,4400,NA
"A2ML0070M8FDK1","Fri Sep 18 2020 16:11:57 GMT-0500 (Central Daylight Time)","Fri Sep 18 2020 16:20:14 GMT-0500 (Central Daylight Time)","Mozilla/5.0 (Windows NT 6.1) AppleWebKit/537.36 (KHTML, like Gecko) Chrome/84.0.4147.135 Safari/537.36",78,"[0.9, 0.5, 0.1]","[0.8, 0.4, 0.2]","[u'black', u'red', u'blue']","[u'left', u'middle', u'right']","[0.9, 0.5, 0.1]","[u'low', u'medium', u'high']","blue",51,"right","high","True","False",484,4500,NA
"A2ML0070M8FDK1","Fri Sep 18 2020 16:11:57 GMT-0500 (Central Daylight Time)","Fri Sep 18 2020 16:20:14 GMT-0500 (Central Daylight Time)","Mozilla/5.0 (Windows NT 6.1) AppleWebKit/537.36 (KHTML, like Gecko) Chrome/84.0.4147.135 Safari/537.36",79,"[0.9, 0.5, 0.1]","[0.8, 0.4, 0.2]","[u'black', u'red', u'blue']","[u'left', u'middle', u'right']","[0.9, 0.5, 0.1]","[u'low', u'medium', u'high']","blue",51,"right","high","True","False",434,4600,NA
"A2ML0070M8FDK1","Fri Sep 18 2020 16:11:57 GMT-0500 (Central Daylight Time)","Fri Sep 18 2020 16:20:14 GMT-0500 (Central Daylight Time)","Mozilla/5.0 (Windows NT 6.1) AppleWebKit/537.36 (KHTML, like Gecko) Chrome/84.0.4147.135 Safari/537.36",80,"[0.9, 0.5, 0.1]","[0.8, 0.4, 0.2]","[u'black', u'red', u'blue']","[u'left', u'middle', u'right']","[0.9, 0.5, 0.1]","[u'low', u'medium', u'high']","blue",51,"right","high","False","False",516,4550,NA
"A2ML0070M8FDK1","Fri Sep 18 2020 16:11:57 GMT-0500 (Central Daylight Time)","Fri Sep 18 2020 16:20:14 GMT-0500 (Central Daylight Time)","Mozilla/5.0 (Windows NT 6.1) AppleWebKit/537.36 (KHTML, like Gecko) Chrome/84.0.4147.135 Safari/537.36",81,"[0.9, 0.5, 0.1]","[0.8, 0.4, 0.2]","[u'black', u'red', u'blue']","[u'left', u'middle', u'right']","[0.8, 0.4, 0.2]","[u'medium', u'high', u'low']","blue",51,"right","low","False","False",825,4500,NA
"A2ML0070M8FDK1","Fri Sep 18 2020 16:11:57 GMT-0500 (Central Daylight Time)","Fri Sep 18 2020 16:20:14 GMT-0500 (Central Daylight Time)","Mozilla/5.0 (Windows NT 6.1) AppleWebKit/537.36 (KHTML, like Gecko) Chrome/84.0.4147.135 Safari/537.36",82,"[0.9, 0.5, 0.1]","[0.8, 0.4, 0.2]","[u'black', u'red', u'blue']","[u'left', u'middle', u'right']","[0.8, 0.4, 0.2]","[u'medium', u'high', u'low']","black",49,"left","medium","True","False",371,4600,NA
"A2ML0070M8FDK1","Fri Sep 18 2020 16:11:57 GMT-0500 (Central Daylight Time)","Fri Sep 18 2020 16:20:14 GMT-0500 (Central Daylight Time)","Mozilla/5.0 (Windows NT 6.1) AppleWebKit/537.36 (KHTML, like Gecko) Chrome/84.0.4147.135 Safari/537.36",83,"[0.9, 0.5, 0.1]","[0.8, 0.4, 0.2]","[u'black', u'red', u'blue']","[u'left', u'middle', u'right']","[0.8, 0.4, 0.2]","[u'medium', u'high', u'low']","black",49,"left","medium","True","False",514,4700,NA
"A2ML0070M8FDK1","Fri Sep 18 2020 16:11:57 GMT-0500 (Central Daylight Time)","Fri Sep 18 2020 16:20:14 GMT-0500 (Central Daylight Time)","Mozilla/5.0 (Windows NT 6.1) AppleWebKit/537.36 (KHTML, like Gecko) Chrome/84.0.4147.135 Safari/537.36",84,"[0.9, 0.5, 0.1]","[0.8, 0.4, 0.2]","[u'black', u'red', u'blue']","[u'left', u'middle', u'right']","[0.8, 0.4, 0.2]","[u'medium', u'high', u'low']","black",49,"left","medium","True","False",320,4800,NA
"A2ML0070M8FDK1","Fri Sep 18 2020 16:11:57 GMT-0500 (Central Daylight Time)","Fri Sep 18 2020 16:20:14 GMT-0500 (Central Daylight Time)","Mozilla/5.0 (Windows NT 6.1) AppleWebKit/537.36 (KHTML, like Gecko) Chrome/84.0.4147.135 Safari/537.36",85,"[0.9, 0.5, 0.1]","[0.8, 0.4, 0.2]","[u'black', u'red', u'blue']","[u'left', u'middle', u'right']","[0.8, 0.4, 0.2]","[u'medium', u'high', u'low']","black",49,"left","medium","False","False",419,4750,NA
"A2ML0070M8FDK1","Fri Sep 18 2020 16:11:57 GMT-0500 (Central Daylight Time)","Fri Sep 18 2020 16:20:14 GMT-0500 (Central Daylight Time)","Mozilla/5.0 (Windows NT 6.1) AppleWebKit/537.36 (KHTML, like Gecko) Chrome/84.0.4147.135 Safari/537.36",86,"[0.9, 0.5, 0.1]","[0.8, 0.4, 0.2]","[u'black', u'red', u'blue']","[u'left', u'middle', u'right']","[0.8, 0.4, 0.2]","[u'medium', u'high', u'low']","blue",51,"right","low","False","False",374,4700,NA
"A2ML0070M8FDK1","Fri Sep 18 2020 16:11:57 GMT-0500 (Central Daylight Time)","Fri Sep 18 2020 16:20:14 GMT-0500 (Central Daylight Time)","Mozilla/5.0 (Windows NT 6.1) AppleWebKit/537.36 (KHTML, like Gecko) Chrome/84.0.4147.135 Safari/537.36",87,"[0.9, 0.5, 0.1]","[0.8, 0.4, 0.2]","[u'black', u'red', u'blue']","[u'left', u'middle', u'right']","[0.8, 0.4, 0.2]","[u'medium', u'high', u'low']","red",50,"middle","high","True","False",335,4800,NA
"A2ML0070M8FDK1","Fri Sep 18 2020 16:11:57 GMT-0500 (Central Daylight Time)","Fri Sep 18 2020 16:20:14 GMT-0500 (Central Daylight Time)","Mozilla/5.0 (Windows NT 6.1) AppleWebKit/537.36 (KHTML, like Gecko) Chrome/84.0.4147.135 Safari/537.36",88,"[0.9, 0.5, 0.1]","[0.8, 0.4, 0.2]","[u'black', u'red', u'blue']","[u'left', u'middle', u'right']","[0.8, 0.4, 0.2]","[u'medium', u'high', u'low']","red",50,"middle","high","True","False",580,4900,NA
"A2ML0070M8FDK1","Fri Sep 18 2020 16:11:57 GMT-0500 (Central Daylight Time)","Fri Sep 18 2020 16:20:14 GMT-0500 (Central Daylight Time)","Mozilla/5.0 (Windows NT 6.1) AppleWebKit/537.36 (KHTML, like Gecko) Chrome/84.0.4147.135 Safari/537.36",89,"[0.9, 0.5, 0.1]","[0.8, 0.4, 0.2]","[u'black', u'red', u'blue']","[u'left', u'middle', u'right']","[0.8, 0.4, 0.2]","[u'medium', u'high', u'low']","red",50,"middle","high","False","False",385,4850,NA
"A2ML0070M8FDK1","Fri Sep 18 2020 16:11:57 GMT-0500 (Central Daylight Time)","Fri Sep 18 2020 16:20:14 GMT-0500 (Central Daylight Time)","Mozilla/5.0 (Windows NT 6.1) AppleWebKit/537.36 (KHTML, like Gecko) Chrome/84.0.4147.135 Safari/537.36",90,"[0.9, 0.5, 0.1]","[0.8, 0.4, 0.2]","[u'black', u'red', u'blue']","[u'left', u'middle', u'right']","[0.8, 0.4, 0.2]","[u'medium', u'high', u'low']","black",49,"left","medium","False","False",338,4800,NA
"A2ML0070M8FDK1","Fri Sep 18 2020 16:11:57 GMT-0500 (Central Daylight Time)","Fri Sep 18 2020 16:20:14 GMT-0500 (Central Daylight Time)","Mozilla/5.0 (Windows NT 6.1) AppleWebKit/537.36 (KHTML, like Gecko) Chrome/84.0.4147.135 Safari/537.36",91,"[0.9, 0.5, 0.1]","[0.8, 0.4, 0.2]","[u'black', u'red', u'blue']","[u'left', u'middle', u'right']","[0.8, 0.4, 0.2]","[u'medium', u'high', u'low']","blue",51,"right","low","True","False",384,4900,NA
"A2ML0070M8FDK1","Fri Sep 18 2020 16:11:57 GMT-0500 (Central Daylight Time)","Fri Sep 18 2020 16:20:14 GMT-0500 (Central Daylight Time)","Mozilla/5.0 (Windows NT 6.1) AppleWebKit/537.36 (KHTML, like Gecko) Chrome/84.0.4147.135 Safari/537.36",92,"[0.9, 0.5, 0.1]","[0.8, 0.4, 0.2]","[u'black', u'red', u'blue']","[u'left', u'middle', u'right']","[0.8, 0.4, 0.2]","[u'medium', u'high', u'low']","blue",51,"right","low","False","False",356,4850,NA
"A2ML0070M8FDK1","Fri Sep 18 2020 16:11:57 GMT-0500 (Central Daylight Time)","Fri Sep 18 2020 16:20:14 GMT-0500 (Central Daylight Time)","Mozilla/5.0 (Windows NT 6.1) AppleWebKit/537.36 (KHTML, like Gecko) Chrome/84.0.4147.135 Safari/537.36",93,"[0.9, 0.5, 0.1]","[0.8, 0.4, 0.2]","[u'black', u'red', u'blue']","[u'left', u'middle', u'right']","[0.8, 0.4, 0.2]","[u'medium', u'high', u'low']","red",50,"middle","high","True","False",514,4950,NA
"A2ML0070M8FDK1","Fri Sep 18 2020 16:11:57 GMT-0500 (Central Daylight Time)","Fri Sep 18 2020 16:20:14 GMT-0500 (Central Daylight Time)","Mozilla/5.0 (Windows NT 6.1) AppleWebKit/537.36 (KHTML, like Gecko) Chrome/84.0.4147.135 Safari/537.36",94,"[0.9, 0.5, 0.1]","[0.8, 0.4, 0.2]","[u'black', u'red', u'blue']","[u'left', u'middle', u'right']","[0.8, 0.4, 0.2]","[u'medium', u'high', u'low']","red",50,"middle","high","True","False",339,5050,NA
"A2ML0070M8FDK1","Fri Sep 18 2020 16:11:57 GMT-0500 (Central Daylight Time)","Fri Sep 18 2020 16:20:14 GMT-0500 (Central Daylight Time)","Mozilla/5.0 (Windows NT 6.1) AppleWebKit/537.36 (KHTML, like Gecko) Chrome/84.0.4147.135 Safari/537.36",95,"[0.9, 0.5, 0.1]","[0.8, 0.4, 0.2]","[u'black', u'red', u'blue']","[u'left', u'middle', u'right']","[0.8, 0.4, 0.2]","[u'medium', u'high', u'low']","red",50,"middle","high","True","False",322,5150,NA
"A2ML0070M8FDK1","Fri Sep 18 2020 16:11:57 GMT-0500 (Central Daylight Time)","Fri Sep 18 2020 16:20:14 GMT-0500 (Central Daylight Time)","Mozilla/5.0 (Windows NT 6.1) AppleWebKit/537.36 (KHTML, like Gecko) Chrome/84.0.4147.135 Safari/537.36",96,"[0.9, 0.5, 0.1]","[0.8, 0.4, 0.2]","[u'black', u'red', u'blue']","[u'left', u'middle', u'right']","[0.8, 0.4, 0.2]","[u'medium', u'high', u'low']","red",50,"middle","high","True","False",212,5250,NA
"A2ML0070M8FDK1","Fri Sep 18 2020 16:11:57 GMT-0500 (Central Daylight Time)","Fri Sep 18 2020 16:20:14 GMT-0500 (Central Daylight Time)","Mozilla/5.0 (Windows NT 6.1) AppleWebKit/537.36 (KHTML, like Gecko) Chrome/84.0.4147.135 Safari/537.36",97,"[0.9, 0.5, 0.1]","[0.8, 0.4, 0.2]","[u'black', u'red', u'blue']","[u'left', u'middle', u'right']","[0.8, 0.4, 0.2]","[u'medium', u'high', u'low']","red",50,"middle","high","False","False",386,5200,NA
"A2ML0070M8FDK1","Fri Sep 18 2020 16:11:57 GMT-0500 (Central Daylight Time)","Fri Sep 18 2020 16:20:14 GMT-0500 (Central Daylight Time)","Mozilla/5.0 (Windows NT 6.1) AppleWebKit/537.36 (KHTML, like Gecko) Chrome/84.0.4147.135 Safari/537.36",98,"[0.9, 0.5, 0.1]","[0.8, 0.4, 0.2]","[u'black', u'red', u'blue']","[u'left', u'middle', u'right']","[0.8, 0.4, 0.2]","[u'medium', u'high', u'low']","blue",51,"right","low","True","False",387,5300,NA
"A2ML0070M8FDK1","Fri Sep 18 2020 16:11:57 GMT-0500 (Central Daylight Time)","Fri Sep 18 2020 16:20:14 GMT-0500 (Central Daylight Time)","Mozilla/5.0 (Windows NT 6.1) AppleWebKit/537.36 (KHTML, like Gecko) Chrome/84.0.4147.135 Safari/537.36",99,"[0.9, 0.5, 0.1]","[0.8, 0.4, 0.2]","[u'black', u'red', u'blue']","[u'left', u'middle', u'right']","[0.8, 0.4, 0.2]","[u'medium', u'high', u'low']","blue",51,"right","low","False","False",402,5250,NA
"A2ML0070M8FDK1","Fri Sep 18 2020 16:11:57 GMT-0500 (Central Daylight Time)","Fri Sep 18 2020 16:20:14 GMT-0500 (Central Daylight Time)","Mozilla/5.0 (Windows NT 6.1) AppleWebKit/537.36 (KHTML, like Gecko) Chrome/84.0.4147.135 Safari/537.36",100,"[0.9, 0.5, 0.1]","[0.8, 0.4, 0.2]","[u'black', u'red', u'blue']","[u'left', u'middle', u'right']","[0.8, 0.4, 0.2]","[u'medium', u'high', u'low']","red",50,"middle","high","True","False",498,5350,NA
"A2ML0070M8FDK1","Fri Sep 18 2020 16:11:57 GMT-0500 (Central Daylight Time)","Fri Sep 18 2020 16:20:14 GMT-0500 (Central Daylight Time)","Mozilla/5.0 (Windows NT 6.1) AppleWebKit/537.36 (KHTML, like Gecko) Chrome/84.0.4147.135 Safari/537.36",101,"[0.9, 0.5, 0.1]","[0.8, 0.4, 0.2]","[u'black', u'red', u'blue']","[u'left', u'middle', u'right']","[0.8, 0.4, 0.2]","[u'medium', u'high', u'low']","red",50,"middle","high","True","False",452,5450,NA
"A2ML0070M8FDK1","Fri Sep 18 2020 16:11:57 GMT-0500 (Central Daylight Time)","Fri Sep 18 2020 16:20:14 GMT-0500 (Central Daylight Time)","Mozilla/5.0 (Windows NT 6.1) AppleWebKit/537.36 (KHTML, like Gecko) Chrome/84.0.4147.135 Safari/537.36",102,"[0.9, 0.5, 0.1]","[0.8, 0.4, 0.2]","[u'black', u'red', u'blue']","[u'left', u'middle', u'right']","[0.8, 0.4, 0.2]","[u'medium', u'high', u'low']","red",50,"middle","high","True","False",370,5550,NA
"A2ML0070M8FDK1","Fri Sep 18 2020 16:11:57 GMT-0500 (Central Daylight Time)","Fri Sep 18 2020 16:20:14 GMT-0500 (Central Daylight Time)","Mozilla/5.0 (Windows NT 6.1) AppleWebKit/537.36 (KHTML, like Gecko) Chrome/84.0.4147.135 Safari/537.36",103,"[0.9, 0.5, 0.1]","[0.8, 0.4, 0.2]","[u'black', u'red', u'blue']","[u'left', u'middle', u'right']","[0.8, 0.4, 0.2]","[u'medium', u'high', u'low']","red",50,"middle","high","False","False",321,5500,NA
"A2ML0070M8FDK1","Fri Sep 18 2020 16:11:57 GMT-0500 (Central Daylight Time)","Fri Sep 18 2020 16:20:14 GMT-0500 (Central Daylight Time)","Mozilla/5.0 (Windows NT 6.1) AppleWebKit/537.36 (KHTML, like Gecko) Chrome/84.0.4147.135 Safari/537.36",104,"[0.9, 0.5, 0.1]","[0.8, 0.4, 0.2]","[u'black', u'red', u'blue']","[u'left', u'middle', u'right']","[0.8, 0.4, 0.2]","[u'medium', u'high', u'low']","blue",51,"right","low","False","False",492,5450,NA
"A2ML0070M8FDK1","Fri Sep 18 2020 16:11:57 GMT-0500 (Central Daylight Time)","Fri Sep 18 2020 16:20:14 GMT-0500 (Central Daylight Time)","Mozilla/5.0 (Windows NT 6.1) AppleWebKit/537.36 (KHTML, like Gecko) Chrome/84.0.4147.135 Safari/537.36",105,"[0.9, 0.5, 0.1]","[0.8, 0.4, 0.2]","[u'black', u'red', u'blue']","[u'left', u'middle', u'right']","[0.8, 0.4, 0.2]","[u'medium', u'high', u'low']","black",49,"left","medium","True","False",353,5550,NA
"A2ML0070M8FDK1","Fri Sep 18 2020 16:11:57 GMT-0500 (Central Daylight Time)","Fri Sep 18 2020 16:20:14 GMT-0500 (Central Daylight Time)","Mozilla/5.0 (Windows NT 6.1) AppleWebKit/537.36 (KHTML, like Gecko) Chrome/84.0.4147.135 Safari/537.36",106,"[0.9, 0.5, 0.1]","[0.8, 0.4, 0.2]","[u'black', u'red', u'blue']","[u'left', u'middle', u'right']","[0.8, 0.4, 0.2]","[u'medium', u'high', u'low']","black",49,"left","medium","False","False",496,5500,NA
"A2ML0070M8FDK1","Fri Sep 18 2020 16:11:57 GMT-0500 (Central Daylight Time)","Fri Sep 18 2020 16:20:14 GMT-0500 (Central Daylight Time)","Mozilla/5.0 (Windows NT 6.1) AppleWebKit/537.36 (KHTML, like Gecko) Chrome/84.0.4147.135 Safari/537.36",107,"[0.9, 0.5, 0.1]","[0.8, 0.4, 0.2]","[u'black', u'red', u'blue']","[u'left', u'middle', u'right']","[0.8, 0.4, 0.2]","[u'medium', u'high', u'low']","blue",51,"right","low","False","False",383,5450,NA
"A2ML0070M8FDK1","Fri Sep 18 2020 16:11:57 GMT-0500 (Central Daylight Time)","Fri Sep 18 2020 16:20:14 GMT-0500 (Central Daylight Time)","Mozilla/5.0 (Windows NT 6.1) AppleWebKit/537.36 (KHTML, like Gecko) Chrome/84.0.4147.135 Safari/537.36",108,"[0.9, 0.5, 0.1]","[0.8, 0.4, 0.2]","[u'black', u'red', u'blue']","[u'left', u'middle', u'right']","[0.8, 0.4, 0.2]","[u'medium', u'high', u'low']","red",50,"middle","high","True","False",323,5550,NA
"A2ML0070M8FDK1","Fri Sep 18 2020 16:11:57 GMT-0500 (Central Daylight Time)","Fri Sep 18 2020 16:20:14 GMT-0500 (Central Daylight Time)","Mozilla/5.0 (Windows NT 6.1) AppleWebKit/537.36 (KHTML, like Gecko) Chrome/84.0.4147.135 Safari/537.36",109,"[0.9, 0.5, 0.1]","[0.8, 0.4, 0.2]","[u'black', u'red', u'blue']","[u'left', u'middle', u'right']","[0.8, 0.4, 0.2]","[u'medium', u'high', u'low']","red",50,"middle","high","True","False",451,5650,NA
"A2ML0070M8FDK1","Fri Sep 18 2020 16:11:57 GMT-0500 (Central Daylight Time)","Fri Sep 18 2020 16:20:14 GMT-0500 (Central Daylight Time)","Mozilla/5.0 (Windows NT 6.1) AppleWebKit/537.36 (KHTML, like Gecko) Chrome/84.0.4147.135 Safari/537.36",110,"[0.9, 0.5, 0.1]","[0.8, 0.4, 0.2]","[u'black', u'red', u'blue']","[u'left', u'middle', u'right']","[0.8, 0.4, 0.2]","[u'medium', u'high', u'low']","red",50,"middle","high","True","False",406,5750,NA
"A2ML0070M8FDK1","Fri Sep 18 2020 16:11:57 GMT-0500 (Central Daylight Time)","Fri Sep 18 2020 16:20:14 GMT-0500 (Central Daylight Time)","Mozilla/5.0 (Windows NT 6.1) AppleWebKit/537.36 (KHTML, like Gecko) Chrome/84.0.4147.135 Safari/537.36",111,"[0.9, 0.5, 0.1]","[0.8, 0.4, 0.2]","[u'black', u'red', u'blue']","[u'left', u'middle', u'right']","[0.8, 0.4, 0.2]","[u'medium', u'high', u'low']","red",50,"middle","high","True","False",256,5850,NA
"A2ML0070M8FDK1","Fri Sep 18 2020 16:11:57 GMT-0500 (Central Daylight Time)","Fri Sep 18 2020 16:20:14 GMT-0500 (Central Daylight Time)","Mozilla/5.0 (Windows NT 6.1) AppleWebKit/537.36 (KHTML, like Gecko) Chrome/84.0.4147.135 Safari/537.36",112,"[0.9, 0.5, 0.1]","[0.8, 0.4, 0.2]","[u'black', u'red', u'blue']","[u'left', u'middle', u'right']","[0.8, 0.4, 0.2]","[u'medium', u'high', u'low']","red",50,"middle","high","True","False",531,5950,NA
"A2ML0070M8FDK1","Fri Sep 18 2020 16:11:57 GMT-0500 (Central Daylight Time)","Fri Sep 18 2020 16:20:14 GMT-0500 (Central Daylight Time)","Mozilla/5.0 (Windows NT 6.1) AppleWebKit/537.36 (KHTML, like Gecko) Chrome/84.0.4147.135 Safari/537.36",113,"[0.9, 0.5, 0.1]","[0.8, 0.4, 0.2]","[u'black', u'red', u'blue']","[u'left', u'middle', u'right']","[0.8, 0.4, 0.2]","[u'medium', u'high', u'low']","red",50,"middle","high","False","False",355,5900,NA
"A2ML0070M8FDK1","Fri Sep 18 2020 16:11:57 GMT-0500 (Central Daylight Time)","Fri Sep 18 2020 16:20:14 GMT-0500 (Central Daylight Time)","Mozilla/5.0 (Windows NT 6.1) AppleWebKit/537.36 (KHTML, like Gecko) Chrome/84.0.4147.135 Safari/537.36",114,"[0.9, 0.5, 0.1]","[0.8, 0.4, 0.2]","[u'black', u'red', u'blue']","[u'left', u'middle', u'right']","[0.8, 0.4, 0.2]","[u'medium', u'high', u'low']","blue",51,"right","low","False","False",529,5850,NA
"A2ML0070M8FDK1","Fri Sep 18 2020 16:11:57 GMT-0500 (Central Daylight Time)","Fri Sep 18 2020 16:20:14 GMT-0500 (Central Daylight Time)","Mozilla/5.0 (Windows NT 6.1) AppleWebKit/537.36 (KHTML, like Gecko) Chrome/84.0.4147.135 Safari/537.36",115,"[0.9, 0.5, 0.1]","[0.8, 0.4, 0.2]","[u'black', u'red', u'blue']","[u'left', u'middle', u'right']","[0.8, 0.4, 0.2]","[u'medium', u'high', u'low']","black",49,"left","medium","True","False",402,5950,NA
"A2ML0070M8FDK1","Fri Sep 18 2020 16:11:57 GMT-0500 (Central Daylight Time)","Fri Sep 18 2020 16:20:14 GMT-0500 (Central Daylight Time)","Mozilla/5.0 (Windows NT 6.1) AppleWebKit/537.36 (KHTML, like Gecko) Chrome/84.0.4147.135 Safari/537.36",116,"[0.9, 0.5, 0.1]","[0.8, 0.4, 0.2]","[u'black', u'red', u'blue']","[u'left', u'middle', u'right']","[0.8, 0.4, 0.2]","[u'medium', u'high', u'low']","black",49,"left","medium","True","False",343,6050,NA
"A2ML0070M8FDK1","Fri Sep 18 2020 16:11:57 GMT-0500 (Central Daylight Time)","Fri Sep 18 2020 16:20:14 GMT-0500 (Central Daylight Time)","Mozilla/5.0 (Windows NT 6.1) AppleWebKit/537.36 (KHTML, like Gecko) Chrome/84.0.4147.135 Safari/537.36",117,"[0.9, 0.5, 0.1]","[0.8, 0.4, 0.2]","[u'black', u'red', u'blue']","[u'left', u'middle', u'right']","[0.8, 0.4, 0.2]","[u'medium', u'high', u'low']","black",49,"left","medium","False","False",253,6000,NA
"A2ML0070M8FDK1","Fri Sep 18 2020 16:11:57 GMT-0500 (Central Daylight Time)","Fri Sep 18 2020 16:20:14 GMT-0500 (Central Daylight Time)","Mozilla/5.0 (Windows NT 6.1) AppleWebKit/537.36 (KHTML, like Gecko) Chrome/84.0.4147.135 Safari/537.36",118,"[0.9, 0.5, 0.1]","[0.8, 0.4, 0.2]","[u'black', u'red', u'blue']","[u'left', u'middle', u'right']","[0.8, 0.4, 0.2]","[u'medium', u'high', u'low']","blue",51,"right","low","True","False",330,6100,NA
"A2ML0070M8FDK1","Fri Sep 18 2020 16:11:57 GMT-0500 (Central Daylight Time)","Fri Sep 18 2020 16:20:14 GMT-0500 (Central Daylight Time)","Mozilla/5.0 (Windows NT 6.1) AppleWebKit/537.36 (KHTML, like Gecko) Chrome/84.0.4147.135 Safari/537.36",119,"[0.9, 0.5, 0.1]","[0.8, 0.4, 0.2]","[u'black', u'red', u'blue']","[u'left', u'middle', u'right']","[0.8, 0.4, 0.2]","[u'medium', u'high', u'low']","blue",51,"right","low","False","False",316,6050,NA
"A2ML0070M8FDK1","Fri Sep 18 2020 16:11:57 GMT-0500 (Central Daylight Time)","Fri Sep 18 2020 16:20:14 GMT-0500 (Central Daylight Time)","Mozilla/5.0 (Windows NT 6.1) AppleWebKit/537.36 (KHTML, like Gecko) Chrome/84.0.4147.135 Safari/537.36",120,"[0.9, 0.5, 0.1]","[0.8, 0.4, 0.2]","[u'black', u'red', u'blue']","[u'left', u'middle', u'right']","[0.8, 0.4, 0.2]","[u'medium', u'high', u'low']","red",50,"middle","high","False","False",498,6000,NA
"A2ML0070M8FDK1","Fri Sep 18 2020 16:11:57 GMT-0500 (Central Daylight Time)","Fri Sep 18 2020 16:20:14 GMT-0500 (Central Daylight Time)","Mozilla/5.0 (Windows NT 6.1) AppleWebKit/537.36 (KHTML, like Gecko) Chrome/84.0.4147.135 Safari/537.36",121,"[0.9, 0.5, 0.1]","[0.8, 0.4, 0.2]","[u'black', u'red', u'blue']","[u'left', u'middle', u'right']","[0.8, 0.4, 0.2]","[u'medium', u'low', u'high']","black",49,"left","medium","False","False",646,5950,NA
"A2ML0070M8FDK1","Fri Sep 18 2020 16:11:57 GMT-0500 (Central Daylight Time)","Fri Sep 18 2020 16:20:14 GMT-0500 (Central Daylight Time)","Mozilla/5.0 (Windows NT 6.1) AppleWebKit/537.36 (KHTML, like Gecko) Chrome/84.0.4147.135 Safari/537.36",122,"[0.9, 0.5, 0.1]","[0.8, 0.4, 0.2]","[u'black', u'red', u'blue']","[u'left', u'middle', u'right']","[0.8, 0.4, 0.2]","[u'medium', u'low', u'high']","blue",51,"right","high","False","False",367,5900,NA
"A2ML0070M8FDK1","Fri Sep 18 2020 16:11:57 GMT-0500 (Central Daylight Time)","Fri Sep 18 2020 16:20:14 GMT-0500 (Central Daylight Time)","Mozilla/5.0 (Windows NT 6.1) AppleWebKit/537.36 (KHTML, like Gecko) Chrome/84.0.4147.135 Safari/537.36",123,"[0.9, 0.5, 0.1]","[0.8, 0.4, 0.2]","[u'black', u'red', u'blue']","[u'left', u'middle', u'right']","[0.8, 0.4, 0.2]","[u'medium', u'low', u'high']","red",50,"middle","low","False","False",484,5850,NA
"A2ML0070M8FDK1","Fri Sep 18 2020 16:11:57 GMT-0500 (Central Daylight Time)","Fri Sep 18 2020 16:20:14 GMT-0500 (Central Daylight Time)","Mozilla/5.0 (Windows NT 6.1) AppleWebKit/537.36 (KHTML, like Gecko) Chrome/84.0.4147.135 Safari/537.36",124,"[0.9, 0.5, 0.1]","[0.8, 0.4, 0.2]","[u'black', u'red', u'blue']","[u'left', u'middle', u'right']","[0.8, 0.4, 0.2]","[u'medium', u'low', u'high']","blue",51,"right","high","False","False",370,5800,NA
"A2ML0070M8FDK1","Fri Sep 18 2020 16:11:57 GMT-0500 (Central Daylight Time)","Fri Sep 18 2020 16:20:14 GMT-0500 (Central Daylight Time)","Mozilla/5.0 (Windows NT 6.1) AppleWebKit/537.36 (KHTML, like Gecko) Chrome/84.0.4147.135 Safari/537.36",125,"[0.9, 0.5, 0.1]","[0.8, 0.4, 0.2]","[u'black', u'red', u'blue']","[u'left', u'middle', u'right']","[0.8, 0.4, 0.2]","[u'medium', u'low', u'high']","black",49,"left","medium","False","False",355,5750,NA
"A2ML0070M8FDK1","Fri Sep 18 2020 16:11:57 GMT-0500 (Central Daylight Time)","Fri Sep 18 2020 16:20:14 GMT-0500 (Central Daylight Time)","Mozilla/5.0 (Windows NT 6.1) AppleWebKit/537.36 (KHTML, like Gecko) Chrome/84.0.4147.135 Safari/537.36",126,"[0.9, 0.5, 0.1]","[0.8, 0.4, 0.2]","[u'black', u'red', u'blue']","[u'left', u'middle', u'right']","[0.8, 0.4, 0.2]","[u'medium', u'low', u'high']","red",50,"middle","low","False","False",500,5700,NA
"A2ML0070M8FDK1","Fri Sep 18 2020 16:11:57 GMT-0500 (Central Daylight Time)","Fri Sep 18 2020 16:20:14 GMT-0500 (Central Daylight Time)","Mozilla/5.0 (Windows NT 6.1) AppleWebKit/537.36 (KHTML, like Gecko) Chrome/84.0.4147.135 Safari/537.36",127,"[0.9, 0.5, 0.1]","[0.8, 0.4, 0.2]","[u'black', u'red', u'blue']","[u'left', u'middle', u'right']","[0.8, 0.4, 0.2]","[u'medium', u'low', u'high']","blue",51,"right","high","True","False",334,5800,NA
"A2ML0070M8FDK1","Fri Sep 18 2020 16:11:57 GMT-0500 (Central Daylight Time)","Fri Sep 18 2020 16:20:14 GMT-0500 (Central Daylight Time)","Mozilla/5.0 (Windows NT 6.1) AppleWebKit/537.36 (KHTML, like Gecko) Chrome/84.0.4147.135 Safari/537.36",128,"[0.9, 0.5, 0.1]","[0.8, 0.4, 0.2]","[u'black', u'red', u'blue']","[u'left', u'middle', u'right']","[0.8, 0.4, 0.2]","[u'medium', u'low', u'high']","blue",51,"right","high","True","False",322,5900,NA
"A2ML0070M8FDK1","Fri Sep 18 2020 16:11:57 GMT-0500 (Central Daylight Time)","Fri Sep 18 2020 16:20:14 GMT-0500 (Central Daylight Time)","Mozilla/5.0 (Windows NT 6.1) AppleWebKit/537.36 (KHTML, like Gecko) Chrome/84.0.4147.135 Safari/537.36",129,"[0.9, 0.5, 0.1]","[0.8, 0.4, 0.2]","[u'black', u'red', u'blue']","[u'left', u'middle', u'right']","[0.8, 0.4, 0.2]","[u'medium', u'low', u'high']","blue",51,"right","high","True","False",259,6000,NA
"A2ML0070M8FDK1","Fri Sep 18 2020 16:11:57 GMT-0500 (Central Daylight Time)","Fri Sep 18 2020 16:20:14 GMT-0500 (Central Daylight Time)","Mozilla/5.0 (Windows NT 6.1) AppleWebKit/537.36 (KHTML, like Gecko) Chrome/84.0.4147.135 Safari/537.36",130,"[0.9, 0.5, 0.1]","[0.8, 0.4, 0.2]","[u'black', u'red', u'blue']","[u'left', u'middle', u'right']","[0.8, 0.4, 0.2]","[u'medium', u'low', u'high']","blue",51,"right","high","True","False",356,6100,NA
"A2ML0070M8FDK1","Fri Sep 18 2020 16:11:57 GMT-0500 (Central Daylight Time)","Fri Sep 18 2020 16:20:14 GMT-0500 (Central Daylight Time)","Mozilla/5.0 (Windows NT 6.1) AppleWebKit/537.36 (KHTML, like Gecko) Chrome/84.0.4147.135 Safari/537.36",131,"[0.9, 0.5, 0.1]","[0.8, 0.4, 0.2]","[u'black', u'red', u'blue']","[u'left', u'middle', u'right']","[0.8, 0.4, 0.2]","[u'medium', u'low', u'high']","blue",51,"right","high","True","False",531,6200,NA
"A2ML0070M8FDK1","Fri Sep 18 2020 16:11:57 GMT-0500 (Central Daylight Time)","Fri Sep 18 2020 16:20:14 GMT-0500 (Central Daylight Time)","Mozilla/5.0 (Windows NT 6.1) AppleWebKit/537.36 (KHTML, like Gecko) Chrome/84.0.4147.135 Safari/537.36",132,"[0.9, 0.5, 0.1]","[0.8, 0.4, 0.2]","[u'black', u'red', u'blue']","[u'left', u'middle', u'right']","[0.8, 0.4, 0.2]","[u'medium', u'low', u'high']","blue",51,"right","high","True","False",405,6300,NA
"A2ML0070M8FDK1","Fri Sep 18 2020 16:11:57 GMT-0500 (Central Daylight Time)","Fri Sep 18 2020 16:20:14 GMT-0500 (Central Daylight Time)","Mozilla/5.0 (Windows NT 6.1) AppleWebKit/537.36 (KHTML, like Gecko) Chrome/84.0.4147.135 Safari/537.36",133,"[0.9, 0.5, 0.1]","[0.8, 0.4, 0.2]","[u'black', u'red', u'blue']","[u'left', u'middle', u'right']","[0.8, 0.4, 0.2]","[u'medium', u'low', u'high']","blue",51,"right","high","True","False",383,6400,NA
"A2ML0070M8FDK1","Fri Sep 18 2020 16:11:57 GMT-0500 (Central Daylight Time)","Fri Sep 18 2020 16:20:14 GMT-0500 (Central Daylight Time)","Mozilla/5.0 (Windows NT 6.1) AppleWebKit/537.36 (KHTML, like Gecko) Chrome/84.0.4147.135 Safari/537.36",134,"[0.9, 0.5, 0.1]","[0.8, 0.4, 0.2]","[u'black', u'red', u'blue']","[u'left', u'middle', u'right']","[0.8, 0.4, 0.2]","[u'medium', u'low', u'high']","blue",51,"right","high","True","False",545,6500,NA
"A2ML0070M8FDK1","Fri Sep 18 2020 16:11:57 GMT-0500 (Central Daylight Time)","Fri Sep 18 2020 16:20:14 GMT-0500 (Central Daylight Time)","Mozilla/5.0 (Windows NT 6.1) AppleWebKit/537.36 (KHTML, like Gecko) Chrome/84.0.4147.135 Safari/537.36",135,"[0.9, 0.5, 0.1]","[0.8, 0.4, 0.2]","[u'black', u'red', u'blue']","[u'left', u'middle', u'right']","[0.8, 0.4, 0.2]","[u'medium', u'low', u'high']","blue",51,"right","high","False","True",351,6450,NA
"A2ML0070M8FDK1","Fri Sep 18 2020 16:11:57 GMT-0500 (Central Daylight Time)","Fri Sep 18 2020 16:20:14 GMT-0500 (Central Daylight Time)","Mozilla/5.0 (Windows NT 6.1) AppleWebKit/537.36 (KHTML, like Gecko) Chrome/84.0.4147.135 Safari/537.36",136,"[0.9, 0.5, 0.1]","[0.8, 0.4, 0.2]","[u'black', u'red', u'blue']","[u'left', u'middle', u'right']","[0.8, 0.4, 0.2]","[u'medium', u'high', u'low']","black",49,"left","medium","False","False",337,6400,NA
"A2ML0070M8FDK1","Fri Sep 18 2020 16:11:57 GMT-0500 (Central Daylight Time)","Fri Sep 18 2020 16:20:14 GMT-0500 (Central Daylight Time)","Mozilla/5.0 (Windows NT 6.1) AppleWebKit/537.36 (KHTML, like Gecko) Chrome/84.0.4147.135 Safari/537.36",137,"[0.9, 0.5, 0.1]","[0.8, 0.4, 0.2]","[u'black', u'red', u'blue']","[u'left', u'middle', u'right']","[0.8, 0.4, 0.2]","[u'medium', u'high', u'low']","red",50,"middle","high","True","False",482,6500,NA
"A2ML0070M8FDK1","Fri Sep 18 2020 16:11:57 GMT-0500 (Central Daylight Time)","Fri Sep 18 2020 16:20:14 GMT-0500 (Central Daylight Time)","Mozilla/5.0 (Windows NT 6.1) AppleWebKit/537.36 (KHTML, like Gecko) Chrome/84.0.4147.135 Safari/537.36",138,"[0.9, 0.5, 0.1]","[0.8, 0.4, 0.2]","[u'black', u'red', u'blue']","[u'left', u'middle', u'right']","[0.8, 0.4, 0.2]","[u'medium', u'high', u'low']","red",50,"middle","high","False","False",310,6450,NA
"A2ML0070M8FDK1","Fri Sep 18 2020 16:11:57 GMT-0500 (Central Daylight Time)","Fri Sep 18 2020 16:20:14 GMT-0500 (Central Daylight Time)","Mozilla/5.0 (Windows NT 6.1) AppleWebKit/537.36 (KHTML, like Gecko) Chrome/84.0.4147.135 Safari/537.36",139,"[0.9, 0.5, 0.1]","[0.8, 0.4, 0.2]","[u'black', u'red', u'blue']","[u'left', u'middle', u'right']","[0.8, 0.4, 0.2]","[u'medium', u'high', u'low']","blue",51,"right","low","True","False",222,6550,NA
"A2ML0070M8FDK1","Fri Sep 18 2020 16:11:57 GMT-0500 (Central Daylight Time)","Fri Sep 18 2020 16:20:14 GMT-0500 (Central Daylight Time)","Mozilla/5.0 (Windows NT 6.1) AppleWebKit/537.36 (KHTML, like Gecko) Chrome/84.0.4147.135 Safari/537.36",140,"[0.9, 0.5, 0.1]","[0.8, 0.4, 0.2]","[u'black', u'red', u'blue']","[u'left', u'middle', u'right']","[0.8, 0.4, 0.2]","[u'medium', u'high', u'low']","blue",51,"right","low","True","False",345,6650,NA
"A2ML0070M8FDK1","Fri Sep 18 2020 16:11:57 GMT-0500 (Central Daylight Time)","Fri Sep 18 2020 16:20:14 GMT-0500 (Central Daylight Time)","Mozilla/5.0 (Windows NT 6.1) AppleWebKit/537.36 (KHTML, like Gecko) Chrome/84.0.4147.135 Safari/537.36",141,"[0.9, 0.5, 0.1]","[0.8, 0.4, 0.2]","[u'black', u'red', u'blue']","[u'left', u'middle', u'right']","[0.8, 0.4, 0.2]","[u'medium', u'high', u'low']","blue",51,"right","low","True","False",366,6750,NA
"A2ML0070M8FDK1","Fri Sep 18 2020 16:11:57 GMT-0500 (Central Daylight Time)","Fri Sep 18 2020 16:20:14 GMT-0500 (Central Daylight Time)","Mozilla/5.0 (Windows NT 6.1) AppleWebKit/537.36 (KHTML, like Gecko) Chrome/84.0.4147.135 Safari/537.36",142,"[0.9, 0.5, 0.1]","[0.8, 0.4, 0.2]","[u'black', u'red', u'blue']","[u'left', u'middle', u'right']","[0.8, 0.4, 0.2]","[u'medium', u'high', u'low']","blue",51,"right","low","False","False",468,6700,NA
"A2ML0070M8FDK1","Fri Sep 18 2020 16:11:57 GMT-0500 (Central Daylight Time)","Fri Sep 18 2020 16:20:14 GMT-0500 (Central Daylight Time)","Mozilla/5.0 (Windows NT 6.1) AppleWebKit/537.36 (KHTML, like Gecko) Chrome/84.0.4147.135 Safari/537.36",143,"[0.9, 0.5, 0.1]","[0.8, 0.4, 0.2]","[u'black', u'red', u'blue']","[u'left', u'middle', u'right']","[0.8, 0.4, 0.2]","[u'medium', u'high', u'low']","black",49,"left","medium","False","False",322,6650,NA
"A2ML0070M8FDK1","Fri Sep 18 2020 16:11:57 GMT-0500 (Central Daylight Time)","Fri Sep 18 2020 16:20:14 GMT-0500 (Central Daylight Time)","Mozilla/5.0 (Windows NT 6.1) AppleWebKit/537.36 (KHTML, like Gecko) Chrome/84.0.4147.135 Safari/537.36",144,"[0.9, 0.5, 0.1]","[0.8, 0.4, 0.2]","[u'black', u'red', u'blue']","[u'left', u'middle', u'right']","[0.8, 0.4, 0.2]","[u'medium', u'high', u'low']","red",50,"middle","high","True","False",310,6750,NA
"A2ML0070M8FDK1","Fri Sep 18 2020 16:11:57 GMT-0500 (Central Daylight Time)","Fri Sep 18 2020 16:20:14 GMT-0500 (Central Daylight Time)","Mozilla/5.0 (Windows NT 6.1) AppleWebKit/537.36 (KHTML, like Gecko) Chrome/84.0.4147.135 Safari/537.36",145,"[0.9, 0.5, 0.1]","[0.8, 0.4, 0.2]","[u'black', u'red', u'blue']","[u'left', u'middle', u'right']","[0.8, 0.4, 0.2]","[u'medium', u'high', u'low']","red",50,"middle","high","True","False",479,6850,NA
"A2ML0070M8FDK1","Fri Sep 18 2020 16:11:57 GMT-0500 (Central Daylight Time)","Fri Sep 18 2020 16:20:14 GMT-0500 (Central Daylight Time)","Mozilla/5.0 (Windows NT 6.1) AppleWebKit/537.36 (KHTML, like Gecko) Chrome/84.0.4147.135 Safari/537.36",146,"[0.9, 0.5, 0.1]","[0.8, 0.4, 0.2]","[u'black', u'red', u'blue']","[u'left', u'middle', u'right']","[0.8, 0.4, 0.2]","[u'medium', u'high', u'low']","red",50,"middle","high","True","False",434,6950,NA
"A2ML0070M8FDK1","Fri Sep 18 2020 16:11:57 GMT-0500 (Central Daylight Time)","Fri Sep 18 2020 16:20:14 GMT-0500 (Central Daylight Time)","Mozilla/5.0 (Windows NT 6.1) AppleWebKit/537.36 (KHTML, like Gecko) Chrome/84.0.4147.135 Safari/537.36",147,"[0.9, 0.5, 0.1]","[0.8, 0.4, 0.2]","[u'black', u'red', u'blue']","[u'left', u'middle', u'right']","[0.8, 0.4, 0.2]","[u'medium', u'high', u'low']","red",50,"middle","high","True","False",484,7050,NA
"A2ML0070M8FDK1","Fri Sep 18 2020 16:11:57 GMT-0500 (Central Daylight Time)","Fri Sep 18 2020 16:20:14 GMT-0500 (Central Daylight Time)","Mozilla/5.0 (Windows NT 6.1) AppleWebKit/537.36 (KHTML, like Gecko) Chrome/84.0.4147.135 Safari/537.36",148,"[0.9, 0.5, 0.1]","[0.8, 0.4, 0.2]","[u'black', u'red', u'blue']","[u'left', u'middle', u'right']","[0.8, 0.4, 0.2]","[u'medium', u'high', u'low']","red",50,"middle","high","True","False",353,7150,NA
"A2ML0070M8FDK1","Fri Sep 18 2020 16:11:57 GMT-0500 (Central Daylight Time)","Fri Sep 18 2020 16:20:14 GMT-0500 (Central Daylight Time)","Mozilla/5.0 (Windows NT 6.1) AppleWebKit/537.36 (KHTML, like Gecko) Chrome/84.0.4147.135 Safari/537.36",149,"[0.9, 0.5, 0.1]","[0.8, 0.4, 0.2]","[u'black', u'red', u'blue']","[u'left', u'middle', u'right']","[0.8, 0.4, 0.2]","[u'medium', u'high', u'low']","red",50,"middle","high","True","False",388,7250,NA
"A2ML0070M8FDK1","Fri Sep 18 2020 16:11:57 GMT-0500 (Central Daylight Time)","Fri Sep 18 2020 16:20:14 GMT-0500 (Central Daylight Time)","Mozilla/5.0 (Windows NT 6.1) AppleWebKit/537.36 (KHTML, like Gecko) Chrome/84.0.4147.135 Safari/537.36",150,"[0.9, 0.5, 0.1]","[0.8, 0.4, 0.2]","[u'black', u'red', u'blue']","[u'left', u'middle', u'right']","[0.8, 0.4, 0.2]","[u'medium', u'high', u'low']","red",50,"middle","high","False","False",532,7200,NA
"A2ML0070M8FDK1","Fri Sep 18 2020 16:11:57 GMT-0500 (Central Daylight Time)","Fri Sep 18 2020 16:20:14 GMT-0500 (Central Daylight Time)","Mozilla/5.0 (Windows NT 6.1) AppleWebKit/537.36 (KHTML, like Gecko) Chrome/84.0.4147.135 Safari/537.36",151,"[0.9, 0.5, 0.1]","[0.8, 0.4, 0.2]","[u'black', u'red', u'blue']","[u'left', u'middle', u'right']","[0.8, 0.4, 0.2]","[u'medium', u'high', u'low']","blue",51,"right","low","False","False",366,7150,NA
"A2ML0070M8FDK1","Fri Sep 18 2020 16:11:57 GMT-0500 (Central Daylight Time)","Fri Sep 18 2020 16:20:14 GMT-0500 (Central Daylight Time)","Mozilla/5.0 (Windows NT 6.1) AppleWebKit/537.36 (KHTML, like Gecko) Chrome/84.0.4147.135 Safari/537.36",152,"[0.9, 0.5, 0.1]","[0.8, 0.4, 0.2]","[u'black', u'red', u'blue']","[u'left', u'middle', u'right']","[0.8, 0.4, 0.2]","[u'medium', u'high', u'low']","black",49,"left","medium","True","False",529,7250,NA
"A2ML0070M8FDK1","Fri Sep 18 2020 16:11:57 GMT-0500 (Central Daylight Time)","Fri Sep 18 2020 16:20:14 GMT-0500 (Central Daylight Time)","Mozilla/5.0 (Windows NT 6.1) AppleWebKit/537.36 (KHTML, like Gecko) Chrome/84.0.4147.135 Safari/537.36",153,"[0.9, 0.5, 0.1]","[0.8, 0.4, 0.2]","[u'black', u'red', u'blue']","[u'left', u'middle', u'right']","[0.8, 0.4, 0.2]","[u'medium', u'high', u'low']","black",49,"left","medium","False","False",162,7200,NA
"A2ML0070M8FDK1","Fri Sep 18 2020 16:11:57 GMT-0500 (Central Daylight Time)","Fri Sep 18 2020 16:20:14 GMT-0500 (Central Daylight Time)","Mozilla/5.0 (Windows NT 6.1) AppleWebKit/537.36 (KHTML, like Gecko) Chrome/84.0.4147.135 Safari/537.36",154,"[0.9, 0.5, 0.1]","[0.8, 0.4, 0.2]","[u'black', u'red', u'blue']","[u'left', u'middle', u'right']","[0.8, 0.4, 0.2]","[u'medium', u'high', u'low']","blue",51,"right","low","False","False",133,7150,NA
"A2ML0070M8FDK1","Fri Sep 18 2020 16:11:57 GMT-0500 (Central Daylight Time)","Fri Sep 18 2020 16:20:14 GMT-0500 (Central Daylight Time)","Mozilla/5.0 (Windows NT 6.1) AppleWebKit/537.36 (KHTML, like Gecko) Chrome/84.0.4147.135 Safari/537.36",155,"[0.9, 0.5, 0.1]","[0.8, 0.4, 0.2]","[u'black', u'red', u'blue']","[u'left', u'middle', u'right']","[0.8, 0.4, 0.2]","[u'medium', u'high', u'low']","red",50,"middle","high","False","False",67,7100,NA
"A2ML0070M8FDK1","Fri Sep 18 2020 16:11:57 GMT-0500 (Central Daylight Time)","Fri Sep 18 2020 16:20:14 GMT-0500 (Central Daylight Time)","Mozilla/5.0 (Windows NT 6.1) AppleWebKit/537.36 (KHTML, like Gecko) Chrome/84.0.4147.135 Safari/537.36",156,"[0.9, 0.5, 0.1]","[0.8, 0.4, 0.2]","[u'black', u'red', u'blue']","[u'left', u'middle', u'right']","[0.8, 0.4, 0.2]","[u'medium', u'high', u'low']","black",49,"left","medium","False","False",199,7050,NA
"A2ML0070M8FDK1","Fri Sep 18 2020 16:11:57 GMT-0500 (Central Daylight Time)","Fri Sep 18 2020 16:20:14 GMT-0500 (Central Daylight Time)","Mozilla/5.0 (Windows NT 6.1) AppleWebKit/537.36 (KHTML, like Gecko) Chrome/84.0.4147.135 Safari/537.36",157,"[0.9, 0.5, 0.1]","[0.8, 0.4, 0.2]","[u'black', u'red', u'blue']","[u'left', u'middle', u'right']","[0.8, 0.4, 0.2]","[u'medium', u'high', u'low']","blue",51,"right","low","False","False",303,7000,NA
"A2ML0070M8FDK1","Fri Sep 18 2020 16:11:57 GMT-0500 (Central Daylight Time)","Fri Sep 18 2020 16:20:14 GMT-0500 (Central Daylight Time)","Mozilla/5.0 (Windows NT 6.1) AppleWebKit/537.36 (KHTML, like Gecko) Chrome/84.0.4147.135 Safari/537.36",158,"[0.9, 0.5, 0.1]","[0.8, 0.4, 0.2]","[u'black', u'red', u'blue']","[u'left', u'middle', u'right']","[0.8, 0.4, 0.2]","[u'medium', u'high', u'low']","red",50,"middle","high","False","False",465,6950,NA
"A2ML0070M8FDK1","Fri Sep 18 2020 16:11:57 GMT-0500 (Central Daylight Time)","Fri Sep 18 2020 16:20:14 GMT-0500 (Central Daylight Time)","Mozilla/5.0 (Windows NT 6.1) AppleWebKit/537.36 (KHTML, like Gecko) Chrome/84.0.4147.135 Safari/537.36",159,"[0.9, 0.5, 0.1]","[0.8, 0.4, 0.2]","[u'black', u'red', u'blue']","[u'left', u'middle', u'right']","[0.8, 0.4, 0.2]","[u'medium', u'high', u'low']","black",49,"left","medium","False","False",209,6900,NA
"A2ML0070M8FDK1","Fri Sep 18 2020 16:11:57 GMT-0500 (Central Daylight Time)","Fri Sep 18 2020 16:20:14 GMT-0500 (Central Daylight Time)","Mozilla/5.0 (Windows NT 6.1) AppleWebKit/537.36 (KHTML, like Gecko) Chrome/84.0.4147.135 Safari/537.36",160,"[0.9, 0.5, 0.1]","[0.8, 0.4, 0.2]","[u'black', u'red', u'blue']","[u'left', u'middle', u'right']","[0.8, 0.4, 0.2]","[u'medium', u'high', u'low']","black",49,"left","medium","False","False",580,6850,NA
