"src_subject_id","start_time","end_time","browser","index","first_half_probabilities","second_half_probabilities","deck_color","deck_position","deck_probabilities","deck_contingencies","response_color","key_press","response_position","response_probability","reward_type","trial_type","rt","reward_tally","exclusion_reason"
"A2OG8XRYJ56HS7","Tue Jan 28 2020 05:40:37 GMT-0800 (Pacific Standard Time)","Tue Jan 28 2020 05:49:33 GMT-0800 (Pacific Standard Time)","Mozilla/5.0 (Windows NT 6.1; Win64; x64) AppleWebKit/537.36 (KHTML, like Gecko) Chrome/79.0.3945.130 Safari/537.36",1,"[0.9, 0.5, 0.1]","[0.8, 0.4, 0.2]","[u'blue', u'black', u'red']","[u'left', u'middle', u'right']","[0.9, 0.5, 0.1]","[u'high', u'low', u'medium']","blue",49,"left","high","True","False",676,100,NA
"A2OG8XRYJ56HS7","Tue Jan 28 2020 05:40:37 GMT-0800 (Pacific Standard Time)","Tue Jan 28 2020 05:49:33 GMT-0800 (Pacific Standard Time)","Mozilla/5.0 (Windows NT 6.1; Win64; x64) AppleWebKit/537.36 (KHTML, like Gecko) Chrome/79.0.3945.130 Safari/537.36",2,"[0.9, 0.5, 0.1]","[0.8, 0.4, 0.2]","[u'blue', u'black', u'red']","[u'left', u'middle', u'right']","[0.9, 0.5, 0.1]","[u'high', u'low', u'medium']","blue",49,"left","high","True","False",474,200,NA
"A2OG8XRYJ56HS7","Tue Jan 28 2020 05:40:37 GMT-0800 (Pacific Standard Time)","Tue Jan 28 2020 05:49:33 GMT-0800 (Pacific Standard Time)","Mozilla/5.0 (Windows NT 6.1; Win64; x64) AppleWebKit/537.36 (KHTML, like Gecko) Chrome/79.0.3945.130 Safari/537.36",3,"[0.9, 0.5, 0.1]","[0.8, 0.4, 0.2]","[u'blue', u'black', u'red']","[u'left', u'middle', u'right']","[0.9, 0.5, 0.1]","[u'high', u'low', u'medium']","blue",49,"left","high","True","False",583,300,NA
"A2OG8XRYJ56HS7","Tue Jan 28 2020 05:40:37 GMT-0800 (Pacific Standard Time)","Tue Jan 28 2020 05:49:33 GMT-0800 (Pacific Standard Time)","Mozilla/5.0 (Windows NT 6.1; Win64; x64) AppleWebKit/537.36 (KHTML, like Gecko) Chrome/79.0.3945.130 Safari/537.36",4,"[0.9, 0.5, 0.1]","[0.8, 0.4, 0.2]","[u'blue', u'black', u'red']","[u'left', u'middle', u'right']","[0.9, 0.5, 0.1]","[u'high', u'low', u'medium']","blue",49,"left","high","True","False",576,400,NA
"A2OG8XRYJ56HS7","Tue Jan 28 2020 05:40:37 GMT-0800 (Pacific Standard Time)","Tue Jan 28 2020 05:49:33 GMT-0800 (Pacific Standard Time)","Mozilla/5.0 (Windows NT 6.1; Win64; x64) AppleWebKit/537.36 (KHTML, like Gecko) Chrome/79.0.3945.130 Safari/537.36",5,"[0.9, 0.5, 0.1]","[0.8, 0.4, 0.2]","[u'blue', u'black', u'red']","[u'left', u'middle', u'right']","[0.9, 0.5, 0.1]","[u'high', u'low', u'medium']","blue",49,"left","high","True","False",624,500,NA
"A2OG8XRYJ56HS7","Tue Jan 28 2020 05:40:37 GMT-0800 (Pacific Standard Time)","Tue Jan 28 2020 05:49:33 GMT-0800 (Pacific Standard Time)","Mozilla/5.0 (Windows NT 6.1; Win64; x64) AppleWebKit/537.36 (KHTML, like Gecko) Chrome/79.0.3945.130 Safari/537.36",6,"[0.9, 0.5, 0.1]","[0.8, 0.4, 0.2]","[u'blue', u'black', u'red']","[u'left', u'middle', u'right']","[0.9, 0.5, 0.1]","[u'high', u'low', u'medium']","blue",49,"left","high","True","False",848,600,NA
"A2OG8XRYJ56HS7","Tue Jan 28 2020 05:40:37 GMT-0800 (Pacific Standard Time)","Tue Jan 28 2020 05:49:33 GMT-0800 (Pacific Standard Time)","Mozilla/5.0 (Windows NT 6.1; Win64; x64) AppleWebKit/537.36 (KHTML, like Gecko) Chrome/79.0.3945.130 Safari/537.36",7,"[0.9, 0.5, 0.1]","[0.8, 0.4, 0.2]","[u'blue', u'black', u'red']","[u'left', u'middle', u'right']","[0.9, 0.5, 0.1]","[u'high', u'low', u'medium']","blue",49,"left","high","True","False",640,700,NA
"A2OG8XRYJ56HS7","Tue Jan 28 2020 05:40:37 GMT-0800 (Pacific Standard Time)","Tue Jan 28 2020 05:49:33 GMT-0800 (Pacific Standard Time)","Mozilla/5.0 (Windows NT 6.1; Win64; x64) AppleWebKit/537.36 (KHTML, like Gecko) Chrome/79.0.3945.130 Safari/537.36",8,"[0.9, 0.5, 0.1]","[0.8, 0.4, 0.2]","[u'blue', u'black', u'red']","[u'left', u'middle', u'right']","[0.9, 0.5, 0.1]","[u'high', u'low', u'medium']","blue",49,"left","high","True","False",719,800,NA
"A2OG8XRYJ56HS7","Tue Jan 28 2020 05:40:37 GMT-0800 (Pacific Standard Time)","Tue Jan 28 2020 05:49:33 GMT-0800 (Pacific Standard Time)","Mozilla/5.0 (Windows NT 6.1; Win64; x64) AppleWebKit/537.36 (KHTML, like Gecko) Chrome/79.0.3945.130 Safari/537.36",9,"[0.9, 0.5, 0.1]","[0.8, 0.4, 0.2]","[u'blue', u'black', u'red']","[u'left', u'middle', u'right']","[0.9, 0.5, 0.1]","[u'high', u'low', u'medium']","blue",49,"left","high","True","True",551,900,NA
"A2OG8XRYJ56HS7","Tue Jan 28 2020 05:40:37 GMT-0800 (Pacific Standard Time)","Tue Jan 28 2020 05:49:33 GMT-0800 (Pacific Standard Time)","Mozilla/5.0 (Windows NT 6.1; Win64; x64) AppleWebKit/537.36 (KHTML, like Gecko) Chrome/79.0.3945.130 Safari/537.36",10,"[0.9, 0.5, 0.1]","[0.8, 0.4, 0.2]","[u'blue', u'black', u'red']","[u'left', u'middle', u'right']","[0.9, 0.5, 0.1]","[u'low', u'high', u'medium']","blue",49,"left","low","False","False",656,850,NA
"A2OG8XRYJ56HS7","Tue Jan 28 2020 05:40:37 GMT-0800 (Pacific Standard Time)","Tue Jan 28 2020 05:49:33 GMT-0800 (Pacific Standard Time)","Mozilla/5.0 (Windows NT 6.1; Win64; x64) AppleWebKit/537.36 (KHTML, like Gecko) Chrome/79.0.3945.130 Safari/537.36",11,"[0.9, 0.5, 0.1]","[0.8, 0.4, 0.2]","[u'blue', u'black', u'red']","[u'left', u'middle', u'right']","[0.9, 0.5, 0.1]","[u'low', u'high', u'medium']","red",51,"right","medium","False","False",488,800,NA
"A2OG8XRYJ56HS7","Tue Jan 28 2020 05:40:37 GMT-0800 (Pacific Standard Time)","Tue Jan 28 2020 05:49:33 GMT-0800 (Pacific Standard Time)","Mozilla/5.0 (Windows NT 6.1; Win64; x64) AppleWebKit/537.36 (KHTML, like Gecko) Chrome/79.0.3945.130 Safari/537.36",12,"[0.9, 0.5, 0.1]","[0.8, 0.4, 0.2]","[u'blue', u'black', u'red']","[u'left', u'middle', u'right']","[0.9, 0.5, 0.1]","[u'low', u'high', u'medium']","black",50,"middle","high","True","False",425,900,NA
"A2OG8XRYJ56HS7","Tue Jan 28 2020 05:40:37 GMT-0800 (Pacific Standard Time)","Tue Jan 28 2020 05:49:33 GMT-0800 (Pacific Standard Time)","Mozilla/5.0 (Windows NT 6.1; Win64; x64) AppleWebKit/537.36 (KHTML, like Gecko) Chrome/79.0.3945.130 Safari/537.36",13,"[0.9, 0.5, 0.1]","[0.8, 0.4, 0.2]","[u'blue', u'black', u'red']","[u'left', u'middle', u'right']","[0.9, 0.5, 0.1]","[u'low', u'high', u'medium']","black",50,"middle","high","True","False",415,1000,NA
"A2OG8XRYJ56HS7","Tue Jan 28 2020 05:40:37 GMT-0800 (Pacific Standard Time)","Tue Jan 28 2020 05:49:33 GMT-0800 (Pacific Standard Time)","Mozilla/5.0 (Windows NT 6.1; Win64; x64) AppleWebKit/537.36 (KHTML, like Gecko) Chrome/79.0.3945.130 Safari/537.36",14,"[0.9, 0.5, 0.1]","[0.8, 0.4, 0.2]","[u'blue', u'black', u'red']","[u'left', u'middle', u'right']","[0.9, 0.5, 0.1]","[u'low', u'high', u'medium']","black",50,"middle","high","True","False",496,1100,NA
"A2OG8XRYJ56HS7","Tue Jan 28 2020 05:40:37 GMT-0800 (Pacific Standard Time)","Tue Jan 28 2020 05:49:33 GMT-0800 (Pacific Standard Time)","Mozilla/5.0 (Windows NT 6.1; Win64; x64) AppleWebKit/537.36 (KHTML, like Gecko) Chrome/79.0.3945.130 Safari/537.36",15,"[0.9, 0.5, 0.1]","[0.8, 0.4, 0.2]","[u'blue', u'black', u'red']","[u'left', u'middle', u'right']","[0.9, 0.5, 0.1]","[u'low', u'high', u'medium']","black",50,"middle","high","True","False",433,1200,NA
"A2OG8XRYJ56HS7","Tue Jan 28 2020 05:40:37 GMT-0800 (Pacific Standard Time)","Tue Jan 28 2020 05:49:33 GMT-0800 (Pacific Standard Time)","Mozilla/5.0 (Windows NT 6.1; Win64; x64) AppleWebKit/537.36 (KHTML, like Gecko) Chrome/79.0.3945.130 Safari/537.36",16,"[0.9, 0.5, 0.1]","[0.8, 0.4, 0.2]","[u'blue', u'black', u'red']","[u'left', u'middle', u'right']","[0.9, 0.5, 0.1]","[u'low', u'high', u'medium']","black",50,"middle","high","True","False",472,1300,NA
"A2OG8XRYJ56HS7","Tue Jan 28 2020 05:40:37 GMT-0800 (Pacific Standard Time)","Tue Jan 28 2020 05:49:33 GMT-0800 (Pacific Standard Time)","Mozilla/5.0 (Windows NT 6.1; Win64; x64) AppleWebKit/537.36 (KHTML, like Gecko) Chrome/79.0.3945.130 Safari/537.36",17,"[0.9, 0.5, 0.1]","[0.8, 0.4, 0.2]","[u'blue', u'black', u'red']","[u'left', u'middle', u'right']","[0.9, 0.5, 0.1]","[u'low', u'high', u'medium']","black",50,"middle","high","True","False",545,1400,NA
"A2OG8XRYJ56HS7","Tue Jan 28 2020 05:40:37 GMT-0800 (Pacific Standard Time)","Tue Jan 28 2020 05:49:33 GMT-0800 (Pacific Standard Time)","Mozilla/5.0 (Windows NT 6.1; Win64; x64) AppleWebKit/537.36 (KHTML, like Gecko) Chrome/79.0.3945.130 Safari/537.36",18,"[0.9, 0.5, 0.1]","[0.8, 0.4, 0.2]","[u'blue', u'black', u'red']","[u'left', u'middle', u'right']","[0.9, 0.5, 0.1]","[u'low', u'high', u'medium']","black",50,"middle","high","False","False",617,1350,NA
"A2OG8XRYJ56HS7","Tue Jan 28 2020 05:40:37 GMT-0800 (Pacific Standard Time)","Tue Jan 28 2020 05:49:33 GMT-0800 (Pacific Standard Time)","Mozilla/5.0 (Windows NT 6.1; Win64; x64) AppleWebKit/537.36 (KHTML, like Gecko) Chrome/79.0.3945.130 Safari/537.36",19,"[0.9, 0.5, 0.1]","[0.8, 0.4, 0.2]","[u'blue', u'black', u'red']","[u'left', u'middle', u'right']","[0.9, 0.5, 0.1]","[u'low', u'high', u'medium']","blue",49,"left","low","False","False",375,1300,NA
"A2OG8XRYJ56HS7","Tue Jan 28 2020 05:40:37 GMT-0800 (Pacific Standard Time)","Tue Jan 28 2020 05:49:33 GMT-0800 (Pacific Standard Time)","Mozilla/5.0 (Windows NT 6.1; Win64; x64) AppleWebKit/537.36 (KHTML, like Gecko) Chrome/79.0.3945.130 Safari/537.36",20,"[0.9, 0.5, 0.1]","[0.8, 0.4, 0.2]","[u'blue', u'black', u'red']","[u'left', u'middle', u'right']","[0.9, 0.5, 0.1]","[u'low', u'high', u'medium']","red",51,"right","medium","True","False",416,1400,NA
"A2OG8XRYJ56HS7","Tue Jan 28 2020 05:40:37 GMT-0800 (Pacific Standard Time)","Tue Jan 28 2020 05:49:33 GMT-0800 (Pacific Standard Time)","Mozilla/5.0 (Windows NT 6.1; Win64; x64) AppleWebKit/537.36 (KHTML, like Gecko) Chrome/79.0.3945.130 Safari/537.36",21,"[0.9, 0.5, 0.1]","[0.8, 0.4, 0.2]","[u'blue', u'black', u'red']","[u'left', u'middle', u'right']","[0.9, 0.5, 0.1]","[u'low', u'high', u'medium']","red",51,"right","medium","True","False",504,1500,NA
"A2OG8XRYJ56HS7","Tue Jan 28 2020 05:40:37 GMT-0800 (Pacific Standard Time)","Tue Jan 28 2020 05:49:33 GMT-0800 (Pacific Standard Time)","Mozilla/5.0 (Windows NT 6.1; Win64; x64) AppleWebKit/537.36 (KHTML, like Gecko) Chrome/79.0.3945.130 Safari/537.36",22,"[0.9, 0.5, 0.1]","[0.8, 0.4, 0.2]","[u'blue', u'black', u'red']","[u'left', u'middle', u'right']","[0.9, 0.5, 0.1]","[u'low', u'high', u'medium']","red",51,"right","medium","True","False",576,1600,NA
"A2OG8XRYJ56HS7","Tue Jan 28 2020 05:40:37 GMT-0800 (Pacific Standard Time)","Tue Jan 28 2020 05:49:33 GMT-0800 (Pacific Standard Time)","Mozilla/5.0 (Windows NT 6.1; Win64; x64) AppleWebKit/537.36 (KHTML, like Gecko) Chrome/79.0.3945.130 Safari/537.36",23,"[0.9, 0.5, 0.1]","[0.8, 0.4, 0.2]","[u'blue', u'black', u'red']","[u'left', u'middle', u'right']","[0.9, 0.5, 0.1]","[u'low', u'high', u'medium']","red",51,"right","medium","False","False",705,1550,NA
"A2OG8XRYJ56HS7","Tue Jan 28 2020 05:40:37 GMT-0800 (Pacific Standard Time)","Tue Jan 28 2020 05:49:33 GMT-0800 (Pacific Standard Time)","Mozilla/5.0 (Windows NT 6.1; Win64; x64) AppleWebKit/537.36 (KHTML, like Gecko) Chrome/79.0.3945.130 Safari/537.36",24,"[0.9, 0.5, 0.1]","[0.8, 0.4, 0.2]","[u'blue', u'black', u'red']","[u'left', u'middle', u'right']","[0.9, 0.5, 0.1]","[u'low', u'high', u'medium']","blue",49,"left","low","False","False",438,1500,NA
"A2OG8XRYJ56HS7","Tue Jan 28 2020 05:40:37 GMT-0800 (Pacific Standard Time)","Tue Jan 28 2020 05:49:33 GMT-0800 (Pacific Standard Time)","Mozilla/5.0 (Windows NT 6.1; Win64; x64) AppleWebKit/537.36 (KHTML, like Gecko) Chrome/79.0.3945.130 Safari/537.36",25,"[0.9, 0.5, 0.1]","[0.8, 0.4, 0.2]","[u'blue', u'black', u'red']","[u'left', u'middle', u'right']","[0.9, 0.5, 0.1]","[u'low', u'high', u'medium']","black",50,"middle","high","True","False",401,1600,NA
"A2OG8XRYJ56HS7","Tue Jan 28 2020 05:40:37 GMT-0800 (Pacific Standard Time)","Tue Jan 28 2020 05:49:33 GMT-0800 (Pacific Standard Time)","Mozilla/5.0 (Windows NT 6.1; Win64; x64) AppleWebKit/537.36 (KHTML, like Gecko) Chrome/79.0.3945.130 Safari/537.36",26,"[0.9, 0.5, 0.1]","[0.8, 0.4, 0.2]","[u'blue', u'black', u'red']","[u'left', u'middle', u'right']","[0.9, 0.5, 0.1]","[u'low', u'high', u'medium']","black",50,"middle","high","False","False",360,1550,NA
"A2OG8XRYJ56HS7","Tue Jan 28 2020 05:40:37 GMT-0800 (Pacific Standard Time)","Tue Jan 28 2020 05:49:33 GMT-0800 (Pacific Standard Time)","Mozilla/5.0 (Windows NT 6.1; Win64; x64) AppleWebKit/537.36 (KHTML, like Gecko) Chrome/79.0.3945.130 Safari/537.36",27,"[0.9, 0.5, 0.1]","[0.8, 0.4, 0.2]","[u'blue', u'black', u'red']","[u'left', u'middle', u'right']","[0.9, 0.5, 0.1]","[u'low', u'high', u'medium']","red",51,"right","medium","True","False",416,1650,NA
"A2OG8XRYJ56HS7","Tue Jan 28 2020 05:40:37 GMT-0800 (Pacific Standard Time)","Tue Jan 28 2020 05:49:33 GMT-0800 (Pacific Standard Time)","Mozilla/5.0 (Windows NT 6.1; Win64; x64) AppleWebKit/537.36 (KHTML, like Gecko) Chrome/79.0.3945.130 Safari/537.36",28,"[0.9, 0.5, 0.1]","[0.8, 0.4, 0.2]","[u'blue', u'black', u'red']","[u'left', u'middle', u'right']","[0.9, 0.5, 0.1]","[u'low', u'high', u'medium']","red",51,"right","medium","True","False",377,1750,NA
"A2OG8XRYJ56HS7","Tue Jan 28 2020 05:40:37 GMT-0800 (Pacific Standard Time)","Tue Jan 28 2020 05:49:33 GMT-0800 (Pacific Standard Time)","Mozilla/5.0 (Windows NT 6.1; Win64; x64) AppleWebKit/537.36 (KHTML, like Gecko) Chrome/79.0.3945.130 Safari/537.36",29,"[0.9, 0.5, 0.1]","[0.8, 0.4, 0.2]","[u'blue', u'black', u'red']","[u'left', u'middle', u'right']","[0.9, 0.5, 0.1]","[u'low', u'high', u'medium']","red",51,"right","medium","False","False",377,1700,NA
"A2OG8XRYJ56HS7","Tue Jan 28 2020 05:40:37 GMT-0800 (Pacific Standard Time)","Tue Jan 28 2020 05:49:33 GMT-0800 (Pacific Standard Time)","Mozilla/5.0 (Windows NT 6.1; Win64; x64) AppleWebKit/537.36 (KHTML, like Gecko) Chrome/79.0.3945.130 Safari/537.36",30,"[0.9, 0.5, 0.1]","[0.8, 0.4, 0.2]","[u'blue', u'black', u'red']","[u'left', u'middle', u'right']","[0.9, 0.5, 0.1]","[u'low', u'high', u'medium']","blue",49,"left","low","False","False",326,1650,NA
"A2OG8XRYJ56HS7","Tue Jan 28 2020 05:40:37 GMT-0800 (Pacific Standard Time)","Tue Jan 28 2020 05:49:33 GMT-0800 (Pacific Standard Time)","Mozilla/5.0 (Windows NT 6.1; Win64; x64) AppleWebKit/537.36 (KHTML, like Gecko) Chrome/79.0.3945.130 Safari/537.36",31,"[0.9, 0.5, 0.1]","[0.8, 0.4, 0.2]","[u'blue', u'black', u'red']","[u'left', u'middle', u'right']","[0.9, 0.5, 0.1]","[u'low', u'high', u'medium']","black",50,"middle","high","True","False",345,1750,NA
"A2OG8XRYJ56HS7","Tue Jan 28 2020 05:40:37 GMT-0800 (Pacific Standard Time)","Tue Jan 28 2020 05:49:33 GMT-0800 (Pacific Standard Time)","Mozilla/5.0 (Windows NT 6.1; Win64; x64) AppleWebKit/537.36 (KHTML, like Gecko) Chrome/79.0.3945.130 Safari/537.36",32,"[0.9, 0.5, 0.1]","[0.8, 0.4, 0.2]","[u'blue', u'black', u'red']","[u'left', u'middle', u'right']","[0.9, 0.5, 0.1]","[u'low', u'high', u'medium']","black",50,"middle","high","True","False",336,1850,NA
"A2OG8XRYJ56HS7","Tue Jan 28 2020 05:40:37 GMT-0800 (Pacific Standard Time)","Tue Jan 28 2020 05:49:33 GMT-0800 (Pacific Standard Time)","Mozilla/5.0 (Windows NT 6.1; Win64; x64) AppleWebKit/537.36 (KHTML, like Gecko) Chrome/79.0.3945.130 Safari/537.36",33,"[0.9, 0.5, 0.1]","[0.8, 0.4, 0.2]","[u'blue', u'black', u'red']","[u'left', u'middle', u'right']","[0.9, 0.5, 0.1]","[u'low', u'high', u'medium']","black",50,"middle","high","True","False",392,1950,NA
"A2OG8XRYJ56HS7","Tue Jan 28 2020 05:40:37 GMT-0800 (Pacific Standard Time)","Tue Jan 28 2020 05:49:33 GMT-0800 (Pacific Standard Time)","Mozilla/5.0 (Windows NT 6.1; Win64; x64) AppleWebKit/537.36 (KHTML, like Gecko) Chrome/79.0.3945.130 Safari/537.36",34,"[0.9, 0.5, 0.1]","[0.8, 0.4, 0.2]","[u'blue', u'black', u'red']","[u'left', u'middle', u'right']","[0.9, 0.5, 0.1]","[u'low', u'high', u'medium']","black",50,"middle","high","True","False",345,2050,NA
"A2OG8XRYJ56HS7","Tue Jan 28 2020 05:40:37 GMT-0800 (Pacific Standard Time)","Tue Jan 28 2020 05:49:33 GMT-0800 (Pacific Standard Time)","Mozilla/5.0 (Windows NT 6.1; Win64; x64) AppleWebKit/537.36 (KHTML, like Gecko) Chrome/79.0.3945.130 Safari/537.36",35,"[0.9, 0.5, 0.1]","[0.8, 0.4, 0.2]","[u'blue', u'black', u'red']","[u'left', u'middle', u'right']","[0.9, 0.5, 0.1]","[u'low', u'high', u'medium']","black",50,"middle","high","True","False",448,2150,NA
"A2OG8XRYJ56HS7","Tue Jan 28 2020 05:40:37 GMT-0800 (Pacific Standard Time)","Tue Jan 28 2020 05:49:33 GMT-0800 (Pacific Standard Time)","Mozilla/5.0 (Windows NT 6.1; Win64; x64) AppleWebKit/537.36 (KHTML, like Gecko) Chrome/79.0.3945.130 Safari/537.36",36,"[0.9, 0.5, 0.1]","[0.8, 0.4, 0.2]","[u'blue', u'black', u'red']","[u'left', u'middle', u'right']","[0.9, 0.5, 0.1]","[u'low', u'high', u'medium']","black",50,"middle","high","True","False",495,2250,NA
"A2OG8XRYJ56HS7","Tue Jan 28 2020 05:40:37 GMT-0800 (Pacific Standard Time)","Tue Jan 28 2020 05:49:33 GMT-0800 (Pacific Standard Time)","Mozilla/5.0 (Windows NT 6.1; Win64; x64) AppleWebKit/537.36 (KHTML, like Gecko) Chrome/79.0.3945.130 Safari/537.36",37,"[0.9, 0.5, 0.1]","[0.8, 0.4, 0.2]","[u'blue', u'black', u'red']","[u'left', u'middle', u'right']","[0.9, 0.5, 0.1]","[u'low', u'high', u'medium']","black",50,"middle","high","True","False",392,2350,NA
"A2OG8XRYJ56HS7","Tue Jan 28 2020 05:40:37 GMT-0800 (Pacific Standard Time)","Tue Jan 28 2020 05:49:33 GMT-0800 (Pacific Standard Time)","Mozilla/5.0 (Windows NT 6.1; Win64; x64) AppleWebKit/537.36 (KHTML, like Gecko) Chrome/79.0.3945.130 Safari/537.36",38,"[0.9, 0.5, 0.1]","[0.8, 0.4, 0.2]","[u'blue', u'black', u'red']","[u'left', u'middle', u'right']","[0.9, 0.5, 0.1]","[u'low', u'high', u'medium']","black",50,"middle","high","True","False",552,2450,NA
"A2OG8XRYJ56HS7","Tue Jan 28 2020 05:40:37 GMT-0800 (Pacific Standard Time)","Tue Jan 28 2020 05:49:33 GMT-0800 (Pacific Standard Time)","Mozilla/5.0 (Windows NT 6.1; Win64; x64) AppleWebKit/537.36 (KHTML, like Gecko) Chrome/79.0.3945.130 Safari/537.36",39,"[0.9, 0.5, 0.1]","[0.8, 0.4, 0.2]","[u'blue', u'black', u'red']","[u'left', u'middle', u'right']","[0.9, 0.5, 0.1]","[u'low', u'high', u'medium']","black",50,"middle","high","True","True",465,2550,NA
"A2OG8XRYJ56HS7","Tue Jan 28 2020 05:40:37 GMT-0800 (Pacific Standard Time)","Tue Jan 28 2020 05:49:33 GMT-0800 (Pacific Standard Time)","Mozilla/5.0 (Windows NT 6.1; Win64; x64) AppleWebKit/537.36 (KHTML, like Gecko) Chrome/79.0.3945.130 Safari/537.36",40,"[0.9, 0.5, 0.1]","[0.8, 0.4, 0.2]","[u'blue', u'black', u'red']","[u'left', u'middle', u'right']","[0.9, 0.5, 0.1]","[u'low', u'medium', u'high']","black",50,"middle","medium","False","False",456,2500,NA
"A2OG8XRYJ56HS7","Tue Jan 28 2020 05:40:37 GMT-0800 (Pacific Standard Time)","Tue Jan 28 2020 05:49:33 GMT-0800 (Pacific Standard Time)","Mozilla/5.0 (Windows NT 6.1; Win64; x64) AppleWebKit/537.36 (KHTML, like Gecko) Chrome/79.0.3945.130 Safari/537.36",41,"[0.9, 0.5, 0.1]","[0.8, 0.4, 0.2]","[u'blue', u'black', u'red']","[u'left', u'middle', u'right']","[0.9, 0.5, 0.1]","[u'high', u'low', u'medium']","black",50,"middle","low","False","False",790,2450,NA
"A2OG8XRYJ56HS7","Tue Jan 28 2020 05:40:37 GMT-0800 (Pacific Standard Time)","Tue Jan 28 2020 05:49:33 GMT-0800 (Pacific Standard Time)","Mozilla/5.0 (Windows NT 6.1; Win64; x64) AppleWebKit/537.36 (KHTML, like Gecko) Chrome/79.0.3945.130 Safari/537.36",42,"[0.9, 0.5, 0.1]","[0.8, 0.4, 0.2]","[u'blue', u'black', u'red']","[u'left', u'middle', u'right']","[0.9, 0.5, 0.1]","[u'high', u'low', u'medium']","red",51,"right","medium","False","False",304,2400,NA
"A2OG8XRYJ56HS7","Tue Jan 28 2020 05:40:37 GMT-0800 (Pacific Standard Time)","Tue Jan 28 2020 05:49:33 GMT-0800 (Pacific Standard Time)","Mozilla/5.0 (Windows NT 6.1; Win64; x64) AppleWebKit/537.36 (KHTML, like Gecko) Chrome/79.0.3945.130 Safari/537.36",43,"[0.9, 0.5, 0.1]","[0.8, 0.4, 0.2]","[u'blue', u'black', u'red']","[u'left', u'middle', u'right']","[0.9, 0.5, 0.1]","[u'high', u'low', u'medium']","blue",49,"left","high","True","False",311,2500,NA
"A2OG8XRYJ56HS7","Tue Jan 28 2020 05:40:37 GMT-0800 (Pacific Standard Time)","Tue Jan 28 2020 05:49:33 GMT-0800 (Pacific Standard Time)","Mozilla/5.0 (Windows NT 6.1; Win64; x64) AppleWebKit/537.36 (KHTML, like Gecko) Chrome/79.0.3945.130 Safari/537.36",44,"[0.9, 0.5, 0.1]","[0.8, 0.4, 0.2]","[u'blue', u'black', u'red']","[u'left', u'middle', u'right']","[0.9, 0.5, 0.1]","[u'high', u'low', u'medium']","blue",49,"left","high","True","False",455,2600,NA
"A2OG8XRYJ56HS7","Tue Jan 28 2020 05:40:37 GMT-0800 (Pacific Standard Time)","Tue Jan 28 2020 05:49:33 GMT-0800 (Pacific Standard Time)","Mozilla/5.0 (Windows NT 6.1; Win64; x64) AppleWebKit/537.36 (KHTML, like Gecko) Chrome/79.0.3945.130 Safari/537.36",45,"[0.9, 0.5, 0.1]","[0.8, 0.4, 0.2]","[u'blue', u'black', u'red']","[u'left', u'middle', u'right']","[0.9, 0.5, 0.1]","[u'high', u'low', u'medium']","blue",49,"left","high","True","False",353,2700,NA
"A2OG8XRYJ56HS7","Tue Jan 28 2020 05:40:37 GMT-0800 (Pacific Standard Time)","Tue Jan 28 2020 05:49:33 GMT-0800 (Pacific Standard Time)","Mozilla/5.0 (Windows NT 6.1; Win64; x64) AppleWebKit/537.36 (KHTML, like Gecko) Chrome/79.0.3945.130 Safari/537.36",46,"[0.9, 0.5, 0.1]","[0.8, 0.4, 0.2]","[u'blue', u'black', u'red']","[u'left', u'middle', u'right']","[0.9, 0.5, 0.1]","[u'high', u'low', u'medium']","blue",49,"left","high","True","False",375,2800,NA
"A2OG8XRYJ56HS7","Tue Jan 28 2020 05:40:37 GMT-0800 (Pacific Standard Time)","Tue Jan 28 2020 05:49:33 GMT-0800 (Pacific Standard Time)","Mozilla/5.0 (Windows NT 6.1; Win64; x64) AppleWebKit/537.36 (KHTML, like Gecko) Chrome/79.0.3945.130 Safari/537.36",47,"[0.9, 0.5, 0.1]","[0.8, 0.4, 0.2]","[u'blue', u'black', u'red']","[u'left', u'middle', u'right']","[0.9, 0.5, 0.1]","[u'high', u'low', u'medium']","blue",49,"left","high","False","False",368,2750,NA
"A2OG8XRYJ56HS7","Tue Jan 28 2020 05:40:37 GMT-0800 (Pacific Standard Time)","Tue Jan 28 2020 05:49:33 GMT-0800 (Pacific Standard Time)","Mozilla/5.0 (Windows NT 6.1; Win64; x64) AppleWebKit/537.36 (KHTML, like Gecko) Chrome/79.0.3945.130 Safari/537.36",48,"[0.9, 0.5, 0.1]","[0.8, 0.4, 0.2]","[u'blue', u'black', u'red']","[u'left', u'middle', u'right']","[0.9, 0.5, 0.1]","[u'high', u'low', u'medium']","black",50,"middle","low","True","False",344,2850,NA
"A2OG8XRYJ56HS7","Tue Jan 28 2020 05:40:37 GMT-0800 (Pacific Standard Time)","Tue Jan 28 2020 05:49:33 GMT-0800 (Pacific Standard Time)","Mozilla/5.0 (Windows NT 6.1; Win64; x64) AppleWebKit/537.36 (KHTML, like Gecko) Chrome/79.0.3945.130 Safari/537.36",49,"[0.9, 0.5, 0.1]","[0.8, 0.4, 0.2]","[u'blue', u'black', u'red']","[u'left', u'middle', u'right']","[0.9, 0.5, 0.1]","[u'high', u'low', u'medium']","black",50,"middle","low","False","False",224,2800,NA
"A2OG8XRYJ56HS7","Tue Jan 28 2020 05:40:37 GMT-0800 (Pacific Standard Time)","Tue Jan 28 2020 05:49:33 GMT-0800 (Pacific Standard Time)","Mozilla/5.0 (Windows NT 6.1; Win64; x64) AppleWebKit/537.36 (KHTML, like Gecko) Chrome/79.0.3945.130 Safari/537.36",50,"[0.9, 0.5, 0.1]","[0.8, 0.4, 0.2]","[u'blue', u'black', u'red']","[u'left', u'middle', u'right']","[0.9, 0.5, 0.1]","[u'high', u'low', u'medium']","red",51,"right","medium","False","False",312,2750,NA
"A2OG8XRYJ56HS7","Tue Jan 28 2020 05:40:37 GMT-0800 (Pacific Standard Time)","Tue Jan 28 2020 05:49:33 GMT-0800 (Pacific Standard Time)","Mozilla/5.0 (Windows NT 6.1; Win64; x64) AppleWebKit/537.36 (KHTML, like Gecko) Chrome/79.0.3945.130 Safari/537.36",51,"[0.9, 0.5, 0.1]","[0.8, 0.4, 0.2]","[u'blue', u'black', u'red']","[u'left', u'middle', u'right']","[0.9, 0.5, 0.1]","[u'high', u'low', u'medium']","blue",49,"left","high","False","False",288,2700,NA
"A2OG8XRYJ56HS7","Tue Jan 28 2020 05:40:37 GMT-0800 (Pacific Standard Time)","Tue Jan 28 2020 05:49:33 GMT-0800 (Pacific Standard Time)","Mozilla/5.0 (Windows NT 6.1; Win64; x64) AppleWebKit/537.36 (KHTML, like Gecko) Chrome/79.0.3945.130 Safari/537.36",52,"[0.9, 0.5, 0.1]","[0.8, 0.4, 0.2]","[u'blue', u'black', u'red']","[u'left', u'middle', u'right']","[0.9, 0.5, 0.1]","[u'high', u'low', u'medium']","black",50,"middle","low","False","False",344,2650,NA
"A2OG8XRYJ56HS7","Tue Jan 28 2020 05:40:37 GMT-0800 (Pacific Standard Time)","Tue Jan 28 2020 05:49:33 GMT-0800 (Pacific Standard Time)","Mozilla/5.0 (Windows NT 6.1; Win64; x64) AppleWebKit/537.36 (KHTML, like Gecko) Chrome/79.0.3945.130 Safari/537.36",53,"[0.9, 0.5, 0.1]","[0.8, 0.4, 0.2]","[u'blue', u'black', u'red']","[u'left', u'middle', u'right']","[0.9, 0.5, 0.1]","[u'high', u'low', u'medium']","red",51,"right","medium","True","False",345,2750,NA
"A2OG8XRYJ56HS7","Tue Jan 28 2020 05:40:37 GMT-0800 (Pacific Standard Time)","Tue Jan 28 2020 05:49:33 GMT-0800 (Pacific Standard Time)","Mozilla/5.0 (Windows NT 6.1; Win64; x64) AppleWebKit/537.36 (KHTML, like Gecko) Chrome/79.0.3945.130 Safari/537.36",54,"[0.9, 0.5, 0.1]","[0.8, 0.4, 0.2]","[u'blue', u'black', u'red']","[u'left', u'middle', u'right']","[0.9, 0.5, 0.1]","[u'high', u'low', u'medium']","red",51,"right","medium","False","False",297,2700,NA
"A2OG8XRYJ56HS7","Tue Jan 28 2020 05:40:37 GMT-0800 (Pacific Standard Time)","Tue Jan 28 2020 05:49:33 GMT-0800 (Pacific Standard Time)","Mozilla/5.0 (Windows NT 6.1; Win64; x64) AppleWebKit/537.36 (KHTML, like Gecko) Chrome/79.0.3945.130 Safari/537.36",55,"[0.9, 0.5, 0.1]","[0.8, 0.4, 0.2]","[u'blue', u'black', u'red']","[u'left', u'middle', u'right']","[0.9, 0.5, 0.1]","[u'high', u'low', u'medium']","black",50,"middle","low","False","False",327,2650,NA
"A2OG8XRYJ56HS7","Tue Jan 28 2020 05:40:37 GMT-0800 (Pacific Standard Time)","Tue Jan 28 2020 05:49:33 GMT-0800 (Pacific Standard Time)","Mozilla/5.0 (Windows NT 6.1; Win64; x64) AppleWebKit/537.36 (KHTML, like Gecko) Chrome/79.0.3945.130 Safari/537.36",56,"[0.9, 0.5, 0.1]","[0.8, 0.4, 0.2]","[u'blue', u'black', u'red']","[u'left', u'middle', u'right']","[0.9, 0.5, 0.1]","[u'high', u'low', u'medium']","blue",49,"left","high","True","False",48,2750,NA
"A2OG8XRYJ56HS7","Tue Jan 28 2020 05:40:37 GMT-0800 (Pacific Standard Time)","Tue Jan 28 2020 05:49:33 GMT-0800 (Pacific Standard Time)","Mozilla/5.0 (Windows NT 6.1; Win64; x64) AppleWebKit/537.36 (KHTML, like Gecko) Chrome/79.0.3945.130 Safari/537.36",57,"[0.9, 0.5, 0.1]","[0.8, 0.4, 0.2]","[u'blue', u'black', u'red']","[u'left', u'middle', u'right']","[0.9, 0.5, 0.1]","[u'high', u'low', u'medium']","blue",49,"left","high","True","False",346,2850,NA
"A2OG8XRYJ56HS7","Tue Jan 28 2020 05:40:37 GMT-0800 (Pacific Standard Time)","Tue Jan 28 2020 05:49:33 GMT-0800 (Pacific Standard Time)","Mozilla/5.0 (Windows NT 6.1; Win64; x64) AppleWebKit/537.36 (KHTML, like Gecko) Chrome/79.0.3945.130 Safari/537.36",58,"[0.9, 0.5, 0.1]","[0.8, 0.4, 0.2]","[u'blue', u'black', u'red']","[u'left', u'middle', u'right']","[0.9, 0.5, 0.1]","[u'high', u'low', u'medium']","blue",49,"left","high","True","False",278,2950,NA
"A2OG8XRYJ56HS7","Tue Jan 28 2020 05:40:37 GMT-0800 (Pacific Standard Time)","Tue Jan 28 2020 05:49:33 GMT-0800 (Pacific Standard Time)","Mozilla/5.0 (Windows NT 6.1; Win64; x64) AppleWebKit/537.36 (KHTML, like Gecko) Chrome/79.0.3945.130 Safari/537.36",59,"[0.9, 0.5, 0.1]","[0.8, 0.4, 0.2]","[u'blue', u'black', u'red']","[u'left', u'middle', u'right']","[0.9, 0.5, 0.1]","[u'high', u'low', u'medium']","blue",49,"left","high","True","False",416,3050,NA
"A2OG8XRYJ56HS7","Tue Jan 28 2020 05:40:37 GMT-0800 (Pacific Standard Time)","Tue Jan 28 2020 05:49:33 GMT-0800 (Pacific Standard Time)","Mozilla/5.0 (Windows NT 6.1; Win64; x64) AppleWebKit/537.36 (KHTML, like Gecko) Chrome/79.0.3945.130 Safari/537.36",60,"[0.9, 0.5, 0.1]","[0.8, 0.4, 0.2]","[u'blue', u'black', u'red']","[u'left', u'middle', u'right']","[0.9, 0.5, 0.1]","[u'high', u'low', u'medium']","blue",49,"left","high","True","False",440,3150,NA
"A2OG8XRYJ56HS7","Tue Jan 28 2020 05:40:37 GMT-0800 (Pacific Standard Time)","Tue Jan 28 2020 05:49:33 GMT-0800 (Pacific Standard Time)","Mozilla/5.0 (Windows NT 6.1; Win64; x64) AppleWebKit/537.36 (KHTML, like Gecko) Chrome/79.0.3945.130 Safari/537.36",61,"[0.9, 0.5, 0.1]","[0.8, 0.4, 0.2]","[u'blue', u'black', u'red']","[u'left', u'middle', u'right']","[0.9, 0.5, 0.1]","[u'high', u'low', u'medium']","blue",49,"left","high","True","False",384,3250,NA
"A2OG8XRYJ56HS7","Tue Jan 28 2020 05:40:37 GMT-0800 (Pacific Standard Time)","Tue Jan 28 2020 05:49:33 GMT-0800 (Pacific Standard Time)","Mozilla/5.0 (Windows NT 6.1; Win64; x64) AppleWebKit/537.36 (KHTML, like Gecko) Chrome/79.0.3945.130 Safari/537.36",62,"[0.9, 0.5, 0.1]","[0.8, 0.4, 0.2]","[u'blue', u'black', u'red']","[u'left', u'middle', u'right']","[0.9, 0.5, 0.1]","[u'high', u'low', u'medium']","blue",49,"left","high","True","False",328,3350,NA
"A2OG8XRYJ56HS7","Tue Jan 28 2020 05:40:37 GMT-0800 (Pacific Standard Time)","Tue Jan 28 2020 05:49:33 GMT-0800 (Pacific Standard Time)","Mozilla/5.0 (Windows NT 6.1; Win64; x64) AppleWebKit/537.36 (KHTML, like Gecko) Chrome/79.0.3945.130 Safari/537.36",63,"[0.9, 0.5, 0.1]","[0.8, 0.4, 0.2]","[u'blue', u'black', u'red']","[u'left', u'middle', u'right']","[0.9, 0.5, 0.1]","[u'high', u'low', u'medium']","blue",49,"left","high","True","False",241,3450,NA
"A2OG8XRYJ56HS7","Tue Jan 28 2020 05:40:37 GMT-0800 (Pacific Standard Time)","Tue Jan 28 2020 05:49:33 GMT-0800 (Pacific Standard Time)","Mozilla/5.0 (Windows NT 6.1; Win64; x64) AppleWebKit/537.36 (KHTML, like Gecko) Chrome/79.0.3945.130 Safari/537.36",64,"[0.9, 0.5, 0.1]","[0.8, 0.4, 0.2]","[u'blue', u'black', u'red']","[u'left', u'middle', u'right']","[0.9, 0.5, 0.1]","[u'high', u'low', u'medium']","blue",49,"left","high","True","True",367,3550,NA
"A2OG8XRYJ56HS7","Tue Jan 28 2020 05:40:37 GMT-0800 (Pacific Standard Time)","Tue Jan 28 2020 05:49:33 GMT-0800 (Pacific Standard Time)","Mozilla/5.0 (Windows NT 6.1; Win64; x64) AppleWebKit/537.36 (KHTML, like Gecko) Chrome/79.0.3945.130 Safari/537.36",65,"[0.9, 0.5, 0.1]","[0.8, 0.4, 0.2]","[u'blue', u'black', u'red']","[u'left', u'middle', u'right']","[0.9, 0.5, 0.1]","[u'medium', u'low', u'high']","blue",49,"left","medium","False","False",336,3500,NA
"A2OG8XRYJ56HS7","Tue Jan 28 2020 05:40:37 GMT-0800 (Pacific Standard Time)","Tue Jan 28 2020 05:49:33 GMT-0800 (Pacific Standard Time)","Mozilla/5.0 (Windows NT 6.1; Win64; x64) AppleWebKit/537.36 (KHTML, like Gecko) Chrome/79.0.3945.130 Safari/537.36",66,"[0.9, 0.5, 0.1]","[0.8, 0.4, 0.2]","[u'blue', u'black', u'red']","[u'left', u'middle', u'right']","[0.9, 0.5, 0.1]","[u'medium', u'low', u'high']","black",50,"middle","low","True","False",305,3600,NA
"A2OG8XRYJ56HS7","Tue Jan 28 2020 05:40:37 GMT-0800 (Pacific Standard Time)","Tue Jan 28 2020 05:49:33 GMT-0800 (Pacific Standard Time)","Mozilla/5.0 (Windows NT 6.1; Win64; x64) AppleWebKit/537.36 (KHTML, like Gecko) Chrome/79.0.3945.130 Safari/537.36",67,"[0.9, 0.5, 0.1]","[0.8, 0.4, 0.2]","[u'blue', u'black', u'red']","[u'left', u'middle', u'right']","[0.9, 0.5, 0.1]","[u'medium', u'low', u'high']","black",50,"middle","low","True","False",329,3700,NA
"A2OG8XRYJ56HS7","Tue Jan 28 2020 05:40:37 GMT-0800 (Pacific Standard Time)","Tue Jan 28 2020 05:49:33 GMT-0800 (Pacific Standard Time)","Mozilla/5.0 (Windows NT 6.1; Win64; x64) AppleWebKit/537.36 (KHTML, like Gecko) Chrome/79.0.3945.130 Safari/537.36",68,"[0.9, 0.5, 0.1]","[0.8, 0.4, 0.2]","[u'blue', u'black', u'red']","[u'left', u'middle', u'right']","[0.9, 0.5, 0.1]","[u'medium', u'low', u'high']","black",50,"middle","low","False","False",305,3650,NA
"A2OG8XRYJ56HS7","Tue Jan 28 2020 05:40:37 GMT-0800 (Pacific Standard Time)","Tue Jan 28 2020 05:49:33 GMT-0800 (Pacific Standard Time)","Mozilla/5.0 (Windows NT 6.1; Win64; x64) AppleWebKit/537.36 (KHTML, like Gecko) Chrome/79.0.3945.130 Safari/537.36",69,"[0.9, 0.5, 0.1]","[0.8, 0.4, 0.2]","[u'blue', u'black', u'red']","[u'left', u'middle', u'right']","[0.9, 0.5, 0.1]","[u'medium', u'low', u'high']","red",51,"right","high","True","False",354,3750,NA
"A2OG8XRYJ56HS7","Tue Jan 28 2020 05:40:37 GMT-0800 (Pacific Standard Time)","Tue Jan 28 2020 05:49:33 GMT-0800 (Pacific Standard Time)","Mozilla/5.0 (Windows NT 6.1; Win64; x64) AppleWebKit/537.36 (KHTML, like Gecko) Chrome/79.0.3945.130 Safari/537.36",70,"[0.9, 0.5, 0.1]","[0.8, 0.4, 0.2]","[u'blue', u'black', u'red']","[u'left', u'middle', u'right']","[0.9, 0.5, 0.1]","[u'medium', u'low', u'high']","red",51,"right","high","True","False",279,3850,NA
"A2OG8XRYJ56HS7","Tue Jan 28 2020 05:40:37 GMT-0800 (Pacific Standard Time)","Tue Jan 28 2020 05:49:33 GMT-0800 (Pacific Standard Time)","Mozilla/5.0 (Windows NT 6.1; Win64; x64) AppleWebKit/537.36 (KHTML, like Gecko) Chrome/79.0.3945.130 Safari/537.36",71,"[0.9, 0.5, 0.1]","[0.8, 0.4, 0.2]","[u'blue', u'black', u'red']","[u'left', u'middle', u'right']","[0.9, 0.5, 0.1]","[u'medium', u'low', u'high']","red",51,"right","high","True","False",424,3950,NA
"A2OG8XRYJ56HS7","Tue Jan 28 2020 05:40:37 GMT-0800 (Pacific Standard Time)","Tue Jan 28 2020 05:49:33 GMT-0800 (Pacific Standard Time)","Mozilla/5.0 (Windows NT 6.1; Win64; x64) AppleWebKit/537.36 (KHTML, like Gecko) Chrome/79.0.3945.130 Safari/537.36",72,"[0.9, 0.5, 0.1]","[0.8, 0.4, 0.2]","[u'blue', u'black', u'red']","[u'left', u'middle', u'right']","[0.9, 0.5, 0.1]","[u'medium', u'low', u'high']","red",51,"right","high","True","False",271,4050,NA
"A2OG8XRYJ56HS7","Tue Jan 28 2020 05:40:37 GMT-0800 (Pacific Standard Time)","Tue Jan 28 2020 05:49:33 GMT-0800 (Pacific Standard Time)","Mozilla/5.0 (Windows NT 6.1; Win64; x64) AppleWebKit/537.36 (KHTML, like Gecko) Chrome/79.0.3945.130 Safari/537.36",73,"[0.9, 0.5, 0.1]","[0.8, 0.4, 0.2]","[u'blue', u'black', u'red']","[u'left', u'middle', u'right']","[0.9, 0.5, 0.1]","[u'medium', u'low', u'high']","red",51,"right","high","True","False",241,4150,NA
"A2OG8XRYJ56HS7","Tue Jan 28 2020 05:40:37 GMT-0800 (Pacific Standard Time)","Tue Jan 28 2020 05:49:33 GMT-0800 (Pacific Standard Time)","Mozilla/5.0 (Windows NT 6.1; Win64; x64) AppleWebKit/537.36 (KHTML, like Gecko) Chrome/79.0.3945.130 Safari/537.36",74,"[0.9, 0.5, 0.1]","[0.8, 0.4, 0.2]","[u'blue', u'black', u'red']","[u'left', u'middle', u'right']","[0.9, 0.5, 0.1]","[u'medium', u'low', u'high']","red",51,"right","high","True","False",287,4250,NA
"A2OG8XRYJ56HS7","Tue Jan 28 2020 05:40:37 GMT-0800 (Pacific Standard Time)","Tue Jan 28 2020 05:49:33 GMT-0800 (Pacific Standard Time)","Mozilla/5.0 (Windows NT 6.1; Win64; x64) AppleWebKit/537.36 (KHTML, like Gecko) Chrome/79.0.3945.130 Safari/537.36",75,"[0.9, 0.5, 0.1]","[0.8, 0.4, 0.2]","[u'blue', u'black', u'red']","[u'left', u'middle', u'right']","[0.9, 0.5, 0.1]","[u'medium', u'low', u'high']","red",51,"right","high","True","False",297,4350,NA
"A2OG8XRYJ56HS7","Tue Jan 28 2020 05:40:37 GMT-0800 (Pacific Standard Time)","Tue Jan 28 2020 05:49:33 GMT-0800 (Pacific Standard Time)","Mozilla/5.0 (Windows NT 6.1; Win64; x64) AppleWebKit/537.36 (KHTML, like Gecko) Chrome/79.0.3945.130 Safari/537.36",76,"[0.9, 0.5, 0.1]","[0.8, 0.4, 0.2]","[u'blue', u'black', u'red']","[u'left', u'middle', u'right']","[0.9, 0.5, 0.1]","[u'medium', u'low', u'high']","red",51,"right","high","True","False",488,4450,NA
"A2OG8XRYJ56HS7","Tue Jan 28 2020 05:40:37 GMT-0800 (Pacific Standard Time)","Tue Jan 28 2020 05:49:33 GMT-0800 (Pacific Standard Time)","Mozilla/5.0 (Windows NT 6.1; Win64; x64) AppleWebKit/537.36 (KHTML, like Gecko) Chrome/79.0.3945.130 Safari/537.36",77,"[0.9, 0.5, 0.1]","[0.8, 0.4, 0.2]","[u'blue', u'black', u'red']","[u'left', u'middle', u'right']","[0.9, 0.5, 0.1]","[u'medium', u'low', u'high']","red",51,"right","high","True","True",399,4550,NA
"A2OG8XRYJ56HS7","Tue Jan 28 2020 05:40:37 GMT-0800 (Pacific Standard Time)","Tue Jan 28 2020 05:49:33 GMT-0800 (Pacific Standard Time)","Mozilla/5.0 (Windows NT 6.1; Win64; x64) AppleWebKit/537.36 (KHTML, like Gecko) Chrome/79.0.3945.130 Safari/537.36",78,"[0.9, 0.5, 0.1]","[0.8, 0.4, 0.2]","[u'blue', u'black', u'red']","[u'left', u'middle', u'right']","[0.9, 0.5, 0.1]","[u'low', u'high', u'medium']","red",51,"right","medium","False","False",305,4500,NA
"A2OG8XRYJ56HS7","Tue Jan 28 2020 05:40:37 GMT-0800 (Pacific Standard Time)","Tue Jan 28 2020 05:49:33 GMT-0800 (Pacific Standard Time)","Mozilla/5.0 (Windows NT 6.1; Win64; x64) AppleWebKit/537.36 (KHTML, like Gecko) Chrome/79.0.3945.130 Safari/537.36",79,"[0.9, 0.5, 0.1]","[0.8, 0.4, 0.2]","[u'blue', u'black', u'red']","[u'left', u'middle', u'right']","[0.9, 0.5, 0.1]","[u'low', u'high', u'medium']","blue",49,"left","low","False","False",278,4450,NA
"A2OG8XRYJ56HS7","Tue Jan 28 2020 05:40:37 GMT-0800 (Pacific Standard Time)","Tue Jan 28 2020 05:49:33 GMT-0800 (Pacific Standard Time)","Mozilla/5.0 (Windows NT 6.1; Win64; x64) AppleWebKit/537.36 (KHTML, like Gecko) Chrome/79.0.3945.130 Safari/537.36",80,"[0.9, 0.5, 0.1]","[0.8, 0.4, 0.2]","[u'blue', u'black', u'red']","[u'left', u'middle', u'right']","[0.9, 0.5, 0.1]","[u'low', u'high', u'medium']","black",50,"middle","high","True","False",264,4550,NA
"A2OG8XRYJ56HS7","Tue Jan 28 2020 05:40:37 GMT-0800 (Pacific Standard Time)","Tue Jan 28 2020 05:49:33 GMT-0800 (Pacific Standard Time)","Mozilla/5.0 (Windows NT 6.1; Win64; x64) AppleWebKit/537.36 (KHTML, like Gecko) Chrome/79.0.3945.130 Safari/537.36",81,"[0.9, 0.5, 0.1]","[0.8, 0.4, 0.2]","[u'blue', u'black', u'red']","[u'left', u'middle', u'right']","[0.8, 0.4, 0.2]","[u'low', u'medium', u'high']","black",50,"middle","medium","False","False",269,4500,NA
"A2OG8XRYJ56HS7","Tue Jan 28 2020 05:40:37 GMT-0800 (Pacific Standard Time)","Tue Jan 28 2020 05:49:33 GMT-0800 (Pacific Standard Time)","Mozilla/5.0 (Windows NT 6.1; Win64; x64) AppleWebKit/537.36 (KHTML, like Gecko) Chrome/79.0.3945.130 Safari/537.36",82,"[0.9, 0.5, 0.1]","[0.8, 0.4, 0.2]","[u'blue', u'black', u'red']","[u'left', u'middle', u'right']","[0.8, 0.4, 0.2]","[u'low', u'medium', u'high']","red",51,"right","high","True","False",265,4600,NA
"A2OG8XRYJ56HS7","Tue Jan 28 2020 05:40:37 GMT-0800 (Pacific Standard Time)","Tue Jan 28 2020 05:49:33 GMT-0800 (Pacific Standard Time)","Mozilla/5.0 (Windows NT 6.1; Win64; x64) AppleWebKit/537.36 (KHTML, like Gecko) Chrome/79.0.3945.130 Safari/537.36",83,"[0.9, 0.5, 0.1]","[0.8, 0.4, 0.2]","[u'blue', u'black', u'red']","[u'left', u'middle', u'right']","[0.8, 0.4, 0.2]","[u'low', u'medium', u'high']","red",51,"right","high","True","False",248,4700,NA
"A2OG8XRYJ56HS7","Tue Jan 28 2020 05:40:37 GMT-0800 (Pacific Standard Time)","Tue Jan 28 2020 05:49:33 GMT-0800 (Pacific Standard Time)","Mozilla/5.0 (Windows NT 6.1; Win64; x64) AppleWebKit/537.36 (KHTML, like Gecko) Chrome/79.0.3945.130 Safari/537.36",84,"[0.9, 0.5, 0.1]","[0.8, 0.4, 0.2]","[u'blue', u'black', u'red']","[u'left', u'middle', u'right']","[0.8, 0.4, 0.2]","[u'low', u'medium', u'high']","red",51,"right","high","True","False",183,4800,NA
"A2OG8XRYJ56HS7","Tue Jan 28 2020 05:40:37 GMT-0800 (Pacific Standard Time)","Tue Jan 28 2020 05:49:33 GMT-0800 (Pacific Standard Time)","Mozilla/5.0 (Windows NT 6.1; Win64; x64) AppleWebKit/537.36 (KHTML, like Gecko) Chrome/79.0.3945.130 Safari/537.36",85,"[0.9, 0.5, 0.1]","[0.8, 0.4, 0.2]","[u'blue', u'black', u'red']","[u'left', u'middle', u'right']","[0.8, 0.4, 0.2]","[u'low', u'medium', u'high']","red",51,"right","high","True","False",258,4900,NA
"A2OG8XRYJ56HS7","Tue Jan 28 2020 05:40:37 GMT-0800 (Pacific Standard Time)","Tue Jan 28 2020 05:49:33 GMT-0800 (Pacific Standard Time)","Mozilla/5.0 (Windows NT 6.1; Win64; x64) AppleWebKit/537.36 (KHTML, like Gecko) Chrome/79.0.3945.130 Safari/537.36",86,"[0.9, 0.5, 0.1]","[0.8, 0.4, 0.2]","[u'blue', u'black', u'red']","[u'left', u'middle', u'right']","[0.8, 0.4, 0.2]","[u'low', u'medium', u'high']","red",51,"right","high","False","False",312,4850,NA
"A2OG8XRYJ56HS7","Tue Jan 28 2020 05:40:37 GMT-0800 (Pacific Standard Time)","Tue Jan 28 2020 05:49:33 GMT-0800 (Pacific Standard Time)","Mozilla/5.0 (Windows NT 6.1; Win64; x64) AppleWebKit/537.36 (KHTML, like Gecko) Chrome/79.0.3945.130 Safari/537.36",87,"[0.9, 0.5, 0.1]","[0.8, 0.4, 0.2]","[u'blue', u'black', u'red']","[u'left', u'middle', u'right']","[0.8, 0.4, 0.2]","[u'low', u'medium', u'high']","black",50,"middle","medium","False","False",223,4800,NA
"A2OG8XRYJ56HS7","Tue Jan 28 2020 05:40:37 GMT-0800 (Pacific Standard Time)","Tue Jan 28 2020 05:49:33 GMT-0800 (Pacific Standard Time)","Mozilla/5.0 (Windows NT 6.1; Win64; x64) AppleWebKit/537.36 (KHTML, like Gecko) Chrome/79.0.3945.130 Safari/537.36",88,"[0.9, 0.5, 0.1]","[0.8, 0.4, 0.2]","[u'blue', u'black', u'red']","[u'left', u'middle', u'right']","[0.8, 0.4, 0.2]","[u'low', u'medium', u'high']","blue",49,"left","low","False","False",80,4750,NA
"A2OG8XRYJ56HS7","Tue Jan 28 2020 05:40:37 GMT-0800 (Pacific Standard Time)","Tue Jan 28 2020 05:49:33 GMT-0800 (Pacific Standard Time)","Mozilla/5.0 (Windows NT 6.1; Win64; x64) AppleWebKit/537.36 (KHTML, like Gecko) Chrome/79.0.3945.130 Safari/537.36",89,"[0.9, 0.5, 0.1]","[0.8, 0.4, 0.2]","[u'blue', u'black', u'red']","[u'left', u'middle', u'right']","[0.8, 0.4, 0.2]","[u'low', u'medium', u'high']","black",50,"middle","medium","False","False",152,4700,NA
"A2OG8XRYJ56HS7","Tue Jan 28 2020 05:40:37 GMT-0800 (Pacific Standard Time)","Tue Jan 28 2020 05:49:33 GMT-0800 (Pacific Standard Time)","Mozilla/5.0 (Windows NT 6.1; Win64; x64) AppleWebKit/537.36 (KHTML, like Gecko) Chrome/79.0.3945.130 Safari/537.36",90,"[0.9, 0.5, 0.1]","[0.8, 0.4, 0.2]","[u'blue', u'black', u'red']","[u'left', u'middle', u'right']","[0.8, 0.4, 0.2]","[u'low', u'medium', u'high']","red",51,"right","high","True","False",184,4800,NA
"A2OG8XRYJ56HS7","Tue Jan 28 2020 05:40:37 GMT-0800 (Pacific Standard Time)","Tue Jan 28 2020 05:49:33 GMT-0800 (Pacific Standard Time)","Mozilla/5.0 (Windows NT 6.1; Win64; x64) AppleWebKit/537.36 (KHTML, like Gecko) Chrome/79.0.3945.130 Safari/537.36",91,"[0.9, 0.5, 0.1]","[0.8, 0.4, 0.2]","[u'blue', u'black', u'red']","[u'left', u'middle', u'right']","[0.8, 0.4, 0.2]","[u'low', u'medium', u'high']","red",51,"right","high","True","False",336,4900,NA
"A2OG8XRYJ56HS7","Tue Jan 28 2020 05:40:37 GMT-0800 (Pacific Standard Time)","Tue Jan 28 2020 05:49:33 GMT-0800 (Pacific Standard Time)","Mozilla/5.0 (Windows NT 6.1; Win64; x64) AppleWebKit/537.36 (KHTML, like Gecko) Chrome/79.0.3945.130 Safari/537.36",92,"[0.9, 0.5, 0.1]","[0.8, 0.4, 0.2]","[u'blue', u'black', u'red']","[u'left', u'middle', u'right']","[0.8, 0.4, 0.2]","[u'low', u'medium', u'high']","red",51,"right","high","True","False",274,5000,NA
"A2OG8XRYJ56HS7","Tue Jan 28 2020 05:40:37 GMT-0800 (Pacific Standard Time)","Tue Jan 28 2020 05:49:33 GMT-0800 (Pacific Standard Time)","Mozilla/5.0 (Windows NT 6.1; Win64; x64) AppleWebKit/537.36 (KHTML, like Gecko) Chrome/79.0.3945.130 Safari/537.36",93,"[0.9, 0.5, 0.1]","[0.8, 0.4, 0.2]","[u'blue', u'black', u'red']","[u'left', u'middle', u'right']","[0.8, 0.4, 0.2]","[u'low', u'medium', u'high']","red",51,"right","high","False","False",367,4950,NA
"A2OG8XRYJ56HS7","Tue Jan 28 2020 05:40:37 GMT-0800 (Pacific Standard Time)","Tue Jan 28 2020 05:49:33 GMT-0800 (Pacific Standard Time)","Mozilla/5.0 (Windows NT 6.1; Win64; x64) AppleWebKit/537.36 (KHTML, like Gecko) Chrome/79.0.3945.130 Safari/537.36",94,"[0.9, 0.5, 0.1]","[0.8, 0.4, 0.2]","[u'blue', u'black', u'red']","[u'left', u'middle', u'right']","[0.8, 0.4, 0.2]","[u'low', u'medium', u'high']","blue",49,"left","low","True","False",199,5050,NA
"A2OG8XRYJ56HS7","Tue Jan 28 2020 05:40:37 GMT-0800 (Pacific Standard Time)","Tue Jan 28 2020 05:49:33 GMT-0800 (Pacific Standard Time)","Mozilla/5.0 (Windows NT 6.1; Win64; x64) AppleWebKit/537.36 (KHTML, like Gecko) Chrome/79.0.3945.130 Safari/537.36",95,"[0.9, 0.5, 0.1]","[0.8, 0.4, 0.2]","[u'blue', u'black', u'red']","[u'left', u'middle', u'right']","[0.8, 0.4, 0.2]","[u'low', u'medium', u'high']","blue",49,"left","low","False","False",145,5000,NA
"A2OG8XRYJ56HS7","Tue Jan 28 2020 05:40:37 GMT-0800 (Pacific Standard Time)","Tue Jan 28 2020 05:49:33 GMT-0800 (Pacific Standard Time)","Mozilla/5.0 (Windows NT 6.1; Win64; x64) AppleWebKit/537.36 (KHTML, like Gecko) Chrome/79.0.3945.130 Safari/537.36",96,"[0.9, 0.5, 0.1]","[0.8, 0.4, 0.2]","[u'blue', u'black', u'red']","[u'left', u'middle', u'right']","[0.8, 0.4, 0.2]","[u'low', u'medium', u'high']","black",50,"middle","medium","False","False",193,4950,NA
"A2OG8XRYJ56HS7","Tue Jan 28 2020 05:40:37 GMT-0800 (Pacific Standard Time)","Tue Jan 28 2020 05:49:33 GMT-0800 (Pacific Standard Time)","Mozilla/5.0 (Windows NT 6.1; Win64; x64) AppleWebKit/537.36 (KHTML, like Gecko) Chrome/79.0.3945.130 Safari/537.36",97,"[0.9, 0.5, 0.1]","[0.8, 0.4, 0.2]","[u'blue', u'black', u'red']","[u'left', u'middle', u'right']","[0.8, 0.4, 0.2]","[u'low', u'medium', u'high']","red",51,"right","high","True","False",495,5050,NA
"A2OG8XRYJ56HS7","Tue Jan 28 2020 05:40:37 GMT-0800 (Pacific Standard Time)","Tue Jan 28 2020 05:49:33 GMT-0800 (Pacific Standard Time)","Mozilla/5.0 (Windows NT 6.1; Win64; x64) AppleWebKit/537.36 (KHTML, like Gecko) Chrome/79.0.3945.130 Safari/537.36",98,"[0.9, 0.5, 0.1]","[0.8, 0.4, 0.2]","[u'blue', u'black', u'red']","[u'left', u'middle', u'right']","[0.8, 0.4, 0.2]","[u'low', u'medium', u'high']","red",51,"right","high","True","False",289,5150,NA
"A2OG8XRYJ56HS7","Tue Jan 28 2020 05:40:37 GMT-0800 (Pacific Standard Time)","Tue Jan 28 2020 05:49:33 GMT-0800 (Pacific Standard Time)","Mozilla/5.0 (Windows NT 6.1; Win64; x64) AppleWebKit/537.36 (KHTML, like Gecko) Chrome/79.0.3945.130 Safari/537.36",99,"[0.9, 0.5, 0.1]","[0.8, 0.4, 0.2]","[u'blue', u'black', u'red']","[u'left', u'middle', u'right']","[0.8, 0.4, 0.2]","[u'low', u'medium', u'high']","red",51,"right","high","False","False",677,5100,NA
"A2OG8XRYJ56HS7","Tue Jan 28 2020 05:40:37 GMT-0800 (Pacific Standard Time)","Tue Jan 28 2020 05:49:33 GMT-0800 (Pacific Standard Time)","Mozilla/5.0 (Windows NT 6.1; Win64; x64) AppleWebKit/537.36 (KHTML, like Gecko) Chrome/79.0.3945.130 Safari/537.36",100,"[0.9, 0.5, 0.1]","[0.8, 0.4, 0.2]","[u'blue', u'black', u'red']","[u'left', u'middle', u'right']","[0.8, 0.4, 0.2]","[u'low', u'medium', u'high']","blue",49,"left","low","False","False",215,5050,NA
"A2OG8XRYJ56HS7","Tue Jan 28 2020 05:40:37 GMT-0800 (Pacific Standard Time)","Tue Jan 28 2020 05:49:33 GMT-0800 (Pacific Standard Time)","Mozilla/5.0 (Windows NT 6.1; Win64; x64) AppleWebKit/537.36 (KHTML, like Gecko) Chrome/79.0.3945.130 Safari/537.36",101,"[0.9, 0.5, 0.1]","[0.8, 0.4, 0.2]","[u'blue', u'black', u'red']","[u'left', u'middle', u'right']","[0.8, 0.4, 0.2]","[u'low', u'medium', u'high']","black",50,"middle","medium","True","False",257,5150,NA
"A2OG8XRYJ56HS7","Tue Jan 28 2020 05:40:37 GMT-0800 (Pacific Standard Time)","Tue Jan 28 2020 05:49:33 GMT-0800 (Pacific Standard Time)","Mozilla/5.0 (Windows NT 6.1; Win64; x64) AppleWebKit/537.36 (KHTML, like Gecko) Chrome/79.0.3945.130 Safari/537.36",102,"[0.9, 0.5, 0.1]","[0.8, 0.4, 0.2]","[u'blue', u'black', u'red']","[u'left', u'middle', u'right']","[0.8, 0.4, 0.2]","[u'low', u'medium', u'high']","black",50,"middle","medium","False","False",272,5100,NA
"A2OG8XRYJ56HS7","Tue Jan 28 2020 05:40:37 GMT-0800 (Pacific Standard Time)","Tue Jan 28 2020 05:49:33 GMT-0800 (Pacific Standard Time)","Mozilla/5.0 (Windows NT 6.1; Win64; x64) AppleWebKit/537.36 (KHTML, like Gecko) Chrome/79.0.3945.130 Safari/537.36",103,"[0.9, 0.5, 0.1]","[0.8, 0.4, 0.2]","[u'blue', u'black', u'red']","[u'left', u'middle', u'right']","[0.8, 0.4, 0.2]","[u'low', u'medium', u'high']","red",51,"right","high","True","False",192,5200,NA
"A2OG8XRYJ56HS7","Tue Jan 28 2020 05:40:37 GMT-0800 (Pacific Standard Time)","Tue Jan 28 2020 05:49:33 GMT-0800 (Pacific Standard Time)","Mozilla/5.0 (Windows NT 6.1; Win64; x64) AppleWebKit/537.36 (KHTML, like Gecko) Chrome/79.0.3945.130 Safari/537.36",104,"[0.9, 0.5, 0.1]","[0.8, 0.4, 0.2]","[u'blue', u'black', u'red']","[u'left', u'middle', u'right']","[0.8, 0.4, 0.2]","[u'low', u'medium', u'high']","red",51,"right","high","True","False",209,5300,NA
"A2OG8XRYJ56HS7","Tue Jan 28 2020 05:40:37 GMT-0800 (Pacific Standard Time)","Tue Jan 28 2020 05:49:33 GMT-0800 (Pacific Standard Time)","Mozilla/5.0 (Windows NT 6.1; Win64; x64) AppleWebKit/537.36 (KHTML, like Gecko) Chrome/79.0.3945.130 Safari/537.36",105,"[0.9, 0.5, 0.1]","[0.8, 0.4, 0.2]","[u'blue', u'black', u'red']","[u'left', u'middle', u'right']","[0.8, 0.4, 0.2]","[u'low', u'medium', u'high']","red",51,"right","high","True","False",287,5400,NA
"A2OG8XRYJ56HS7","Tue Jan 28 2020 05:40:37 GMT-0800 (Pacific Standard Time)","Tue Jan 28 2020 05:49:33 GMT-0800 (Pacific Standard Time)","Mozilla/5.0 (Windows NT 6.1; Win64; x64) AppleWebKit/537.36 (KHTML, like Gecko) Chrome/79.0.3945.130 Safari/537.36",106,"[0.9, 0.5, 0.1]","[0.8, 0.4, 0.2]","[u'blue', u'black', u'red']","[u'left', u'middle', u'right']","[0.8, 0.4, 0.2]","[u'low', u'medium', u'high']","red",51,"right","high","True","False",136,5500,NA
"A2OG8XRYJ56HS7","Tue Jan 28 2020 05:40:37 GMT-0800 (Pacific Standard Time)","Tue Jan 28 2020 05:49:33 GMT-0800 (Pacific Standard Time)","Mozilla/5.0 (Windows NT 6.1; Win64; x64) AppleWebKit/537.36 (KHTML, like Gecko) Chrome/79.0.3945.130 Safari/537.36",107,"[0.9, 0.5, 0.1]","[0.8, 0.4, 0.2]","[u'blue', u'black', u'red']","[u'left', u'middle', u'right']","[0.8, 0.4, 0.2]","[u'low', u'medium', u'high']","red",51,"right","high","True","False",385,5600,NA
"A2OG8XRYJ56HS7","Tue Jan 28 2020 05:40:37 GMT-0800 (Pacific Standard Time)","Tue Jan 28 2020 05:49:33 GMT-0800 (Pacific Standard Time)","Mozilla/5.0 (Windows NT 6.1; Win64; x64) AppleWebKit/537.36 (KHTML, like Gecko) Chrome/79.0.3945.130 Safari/537.36",108,"[0.9, 0.5, 0.1]","[0.8, 0.4, 0.2]","[u'blue', u'black', u'red']","[u'left', u'middle', u'right']","[0.8, 0.4, 0.2]","[u'low', u'medium', u'high']","red",51,"right","high","True","False",232,5700,NA
"A2OG8XRYJ56HS7","Tue Jan 28 2020 05:40:37 GMT-0800 (Pacific Standard Time)","Tue Jan 28 2020 05:49:33 GMT-0800 (Pacific Standard Time)","Mozilla/5.0 (Windows NT 6.1; Win64; x64) AppleWebKit/537.36 (KHTML, like Gecko) Chrome/79.0.3945.130 Safari/537.36",109,"[0.9, 0.5, 0.1]","[0.8, 0.4, 0.2]","[u'blue', u'black', u'red']","[u'left', u'middle', u'right']","[0.8, 0.4, 0.2]","[u'low', u'medium', u'high']","red",51,"right","high","True","False",288,5800,NA
"A2OG8XRYJ56HS7","Tue Jan 28 2020 05:40:37 GMT-0800 (Pacific Standard Time)","Tue Jan 28 2020 05:49:33 GMT-0800 (Pacific Standard Time)","Mozilla/5.0 (Windows NT 6.1; Win64; x64) AppleWebKit/537.36 (KHTML, like Gecko) Chrome/79.0.3945.130 Safari/537.36",110,"[0.9, 0.5, 0.1]","[0.8, 0.4, 0.2]","[u'blue', u'black', u'red']","[u'left', u'middle', u'right']","[0.8, 0.4, 0.2]","[u'low', u'medium', u'high']","red",51,"right","high","True","False",233,5900,NA
"A2OG8XRYJ56HS7","Tue Jan 28 2020 05:40:37 GMT-0800 (Pacific Standard Time)","Tue Jan 28 2020 05:49:33 GMT-0800 (Pacific Standard Time)","Mozilla/5.0 (Windows NT 6.1; Win64; x64) AppleWebKit/537.36 (KHTML, like Gecko) Chrome/79.0.3945.130 Safari/537.36",111,"[0.9, 0.5, 0.1]","[0.8, 0.4, 0.2]","[u'blue', u'black', u'red']","[u'left', u'middle', u'right']","[0.8, 0.4, 0.2]","[u'low', u'medium', u'high']","red",51,"right","high","True","True",302,6000,NA
"A2OG8XRYJ56HS7","Tue Jan 28 2020 05:40:37 GMT-0800 (Pacific Standard Time)","Tue Jan 28 2020 05:49:33 GMT-0800 (Pacific Standard Time)","Mozilla/5.0 (Windows NT 6.1; Win64; x64) AppleWebKit/537.36 (KHTML, like Gecko) Chrome/79.0.3945.130 Safari/537.36",112,"[0.9, 0.5, 0.1]","[0.8, 0.4, 0.2]","[u'blue', u'black', u'red']","[u'left', u'middle', u'right']","[0.8, 0.4, 0.2]","[u'high', u'low', u'medium']","red",51,"right","medium","True","False",448,6100,NA
"A2OG8XRYJ56HS7","Tue Jan 28 2020 05:40:37 GMT-0800 (Pacific Standard Time)","Tue Jan 28 2020 05:49:33 GMT-0800 (Pacific Standard Time)","Mozilla/5.0 (Windows NT 6.1; Win64; x64) AppleWebKit/537.36 (KHTML, like Gecko) Chrome/79.0.3945.130 Safari/537.36",113,"[0.9, 0.5, 0.1]","[0.8, 0.4, 0.2]","[u'blue', u'black', u'red']","[u'left', u'middle', u'right']","[0.8, 0.4, 0.2]","[u'high', u'low', u'medium']","red",51,"right","medium","False","False",303,6050,NA
"A2OG8XRYJ56HS7","Tue Jan 28 2020 05:40:37 GMT-0800 (Pacific Standard Time)","Tue Jan 28 2020 05:49:33 GMT-0800 (Pacific Standard Time)","Mozilla/5.0 (Windows NT 6.1; Win64; x64) AppleWebKit/537.36 (KHTML, like Gecko) Chrome/79.0.3945.130 Safari/537.36",114,"[0.9, 0.5, 0.1]","[0.8, 0.4, 0.2]","[u'blue', u'black', u'red']","[u'left', u'middle', u'right']","[0.8, 0.4, 0.2]","[u'high', u'low', u'medium']","blue",49,"left","high","True","False",247,6150,NA
"A2OG8XRYJ56HS7","Tue Jan 28 2020 05:40:37 GMT-0800 (Pacific Standard Time)","Tue Jan 28 2020 05:49:33 GMT-0800 (Pacific Standard Time)","Mozilla/5.0 (Windows NT 6.1; Win64; x64) AppleWebKit/537.36 (KHTML, like Gecko) Chrome/79.0.3945.130 Safari/537.36",115,"[0.9, 0.5, 0.1]","[0.8, 0.4, 0.2]","[u'blue', u'black', u'red']","[u'left', u'middle', u'right']","[0.8, 0.4, 0.2]","[u'high', u'low', u'medium']","blue",49,"left","high","True","False",248,6250,NA
"A2OG8XRYJ56HS7","Tue Jan 28 2020 05:40:37 GMT-0800 (Pacific Standard Time)","Tue Jan 28 2020 05:49:33 GMT-0800 (Pacific Standard Time)","Mozilla/5.0 (Windows NT 6.1; Win64; x64) AppleWebKit/537.36 (KHTML, like Gecko) Chrome/79.0.3945.130 Safari/537.36",116,"[0.9, 0.5, 0.1]","[0.8, 0.4, 0.2]","[u'blue', u'black', u'red']","[u'left', u'middle', u'right']","[0.8, 0.4, 0.2]","[u'high', u'low', u'medium']","blue",49,"left","high","False","False",257,6200,NA
"A2OG8XRYJ56HS7","Tue Jan 28 2020 05:40:37 GMT-0800 (Pacific Standard Time)","Tue Jan 28 2020 05:49:33 GMT-0800 (Pacific Standard Time)","Mozilla/5.0 (Windows NT 6.1; Win64; x64) AppleWebKit/537.36 (KHTML, like Gecko) Chrome/79.0.3945.130 Safari/537.36",117,"[0.9, 0.5, 0.1]","[0.8, 0.4, 0.2]","[u'blue', u'black', u'red']","[u'left', u'middle', u'right']","[0.8, 0.4, 0.2]","[u'high', u'low', u'medium']","black",50,"middle","low","False","False",265,6150,NA
"A2OG8XRYJ56HS7","Tue Jan 28 2020 05:40:37 GMT-0800 (Pacific Standard Time)","Tue Jan 28 2020 05:49:33 GMT-0800 (Pacific Standard Time)","Mozilla/5.0 (Windows NT 6.1; Win64; x64) AppleWebKit/537.36 (KHTML, like Gecko) Chrome/79.0.3945.130 Safari/537.36",118,"[0.9, 0.5, 0.1]","[0.8, 0.4, 0.2]","[u'blue', u'black', u'red']","[u'left', u'middle', u'right']","[0.8, 0.4, 0.2]","[u'high', u'low', u'medium']","red",51,"right","medium","False","False",152,6100,NA
"A2OG8XRYJ56HS7","Tue Jan 28 2020 05:40:37 GMT-0800 (Pacific Standard Time)","Tue Jan 28 2020 05:49:33 GMT-0800 (Pacific Standard Time)","Mozilla/5.0 (Windows NT 6.1; Win64; x64) AppleWebKit/537.36 (KHTML, like Gecko) Chrome/79.0.3945.130 Safari/537.36",119,"[0.9, 0.5, 0.1]","[0.8, 0.4, 0.2]","[u'blue', u'black', u'red']","[u'left', u'middle', u'right']","[0.8, 0.4, 0.2]","[u'high', u'low', u'medium']","black",50,"middle","low","False","False",271,6050,NA
"A2OG8XRYJ56HS7","Tue Jan 28 2020 05:40:37 GMT-0800 (Pacific Standard Time)","Tue Jan 28 2020 05:49:33 GMT-0800 (Pacific Standard Time)","Mozilla/5.0 (Windows NT 6.1; Win64; x64) AppleWebKit/537.36 (KHTML, like Gecko) Chrome/79.0.3945.130 Safari/537.36",120,"[0.9, 0.5, 0.1]","[0.8, 0.4, 0.2]","[u'blue', u'black', u'red']","[u'left', u'middle', u'right']","[0.8, 0.4, 0.2]","[u'high', u'low', u'medium']","blue",49,"left","high","True","False",255,6150,NA
"A2OG8XRYJ56HS7","Tue Jan 28 2020 05:40:37 GMT-0800 (Pacific Standard Time)","Tue Jan 28 2020 05:49:33 GMT-0800 (Pacific Standard Time)","Mozilla/5.0 (Windows NT 6.1; Win64; x64) AppleWebKit/537.36 (KHTML, like Gecko) Chrome/79.0.3945.130 Safari/537.36",121,"[0.9, 0.5, 0.1]","[0.8, 0.4, 0.2]","[u'blue', u'black', u'red']","[u'left', u'middle', u'right']","[0.8, 0.4, 0.2]","[u'medium', u'low', u'high']","blue",49,"left","medium","False","False",318,6100,NA
"A2OG8XRYJ56HS7","Tue Jan 28 2020 05:40:37 GMT-0800 (Pacific Standard Time)","Tue Jan 28 2020 05:49:33 GMT-0800 (Pacific Standard Time)","Mozilla/5.0 (Windows NT 6.1; Win64; x64) AppleWebKit/537.36 (KHTML, like Gecko) Chrome/79.0.3945.130 Safari/537.36",122,"[0.9, 0.5, 0.1]","[0.8, 0.4, 0.2]","[u'blue', u'black', u'red']","[u'left', u'middle', u'right']","[0.8, 0.4, 0.2]","[u'medium', u'low', u'high']","red",51,"right","high","False","False",266,6050,NA
"A2OG8XRYJ56HS7","Tue Jan 28 2020 05:40:37 GMT-0800 (Pacific Standard Time)","Tue Jan 28 2020 05:49:33 GMT-0800 (Pacific Standard Time)","Mozilla/5.0 (Windows NT 6.1; Win64; x64) AppleWebKit/537.36 (KHTML, like Gecko) Chrome/79.0.3945.130 Safari/537.36",123,"[0.9, 0.5, 0.1]","[0.8, 0.4, 0.2]","[u'blue', u'black', u'red']","[u'left', u'middle', u'right']","[0.8, 0.4, 0.2]","[u'medium', u'low', u'high']","black",50,"middle","low","False","False",183,6000,NA
"A2OG8XRYJ56HS7","Tue Jan 28 2020 05:40:37 GMT-0800 (Pacific Standard Time)","Tue Jan 28 2020 05:49:33 GMT-0800 (Pacific Standard Time)","Mozilla/5.0 (Windows NT 6.1; Win64; x64) AppleWebKit/537.36 (KHTML, like Gecko) Chrome/79.0.3945.130 Safari/537.36",124,"[0.9, 0.5, 0.1]","[0.8, 0.4, 0.2]","[u'blue', u'black', u'red']","[u'left', u'middle', u'right']","[0.8, 0.4, 0.2]","[u'medium', u'low', u'high']","blue",49,"left","medium","True","False",216,6100,NA
"A2OG8XRYJ56HS7","Tue Jan 28 2020 05:40:37 GMT-0800 (Pacific Standard Time)","Tue Jan 28 2020 05:49:33 GMT-0800 (Pacific Standard Time)","Mozilla/5.0 (Windows NT 6.1; Win64; x64) AppleWebKit/537.36 (KHTML, like Gecko) Chrome/79.0.3945.130 Safari/537.36",125,"[0.9, 0.5, 0.1]","[0.8, 0.4, 0.2]","[u'blue', u'black', u'red']","[u'left', u'middle', u'right']","[0.8, 0.4, 0.2]","[u'medium', u'low', u'high']","blue",49,"left","medium","False","False",263,6050,NA
"A2OG8XRYJ56HS7","Tue Jan 28 2020 05:40:37 GMT-0800 (Pacific Standard Time)","Tue Jan 28 2020 05:49:33 GMT-0800 (Pacific Standard Time)","Mozilla/5.0 (Windows NT 6.1; Win64; x64) AppleWebKit/537.36 (KHTML, like Gecko) Chrome/79.0.3945.130 Safari/537.36",126,"[0.9, 0.5, 0.1]","[0.8, 0.4, 0.2]","[u'blue', u'black', u'red']","[u'left', u'middle', u'right']","[0.8, 0.4, 0.2]","[u'medium', u'low', u'high']","red",51,"right","high","True","False",225,6150,NA
"A2OG8XRYJ56HS7","Tue Jan 28 2020 05:40:37 GMT-0800 (Pacific Standard Time)","Tue Jan 28 2020 05:49:33 GMT-0800 (Pacific Standard Time)","Mozilla/5.0 (Windows NT 6.1; Win64; x64) AppleWebKit/537.36 (KHTML, like Gecko) Chrome/79.0.3945.130 Safari/537.36",127,"[0.9, 0.5, 0.1]","[0.8, 0.4, 0.2]","[u'blue', u'black', u'red']","[u'left', u'middle', u'right']","[0.8, 0.4, 0.2]","[u'medium', u'low', u'high']","red",51,"right","high","True","False",368,6250,NA
"A2OG8XRYJ56HS7","Tue Jan 28 2020 05:40:37 GMT-0800 (Pacific Standard Time)","Tue Jan 28 2020 05:49:33 GMT-0800 (Pacific Standard Time)","Mozilla/5.0 (Windows NT 6.1; Win64; x64) AppleWebKit/537.36 (KHTML, like Gecko) Chrome/79.0.3945.130 Safari/537.36",128,"[0.9, 0.5, 0.1]","[0.8, 0.4, 0.2]","[u'blue', u'black', u'red']","[u'left', u'middle', u'right']","[0.8, 0.4, 0.2]","[u'medium', u'low', u'high']","red",51,"right","high","True","False",239,6350,NA
"A2OG8XRYJ56HS7","Tue Jan 28 2020 05:40:37 GMT-0800 (Pacific Standard Time)","Tue Jan 28 2020 05:49:33 GMT-0800 (Pacific Standard Time)","Mozilla/5.0 (Windows NT 6.1; Win64; x64) AppleWebKit/537.36 (KHTML, like Gecko) Chrome/79.0.3945.130 Safari/537.36",129,"[0.9, 0.5, 0.1]","[0.8, 0.4, 0.2]","[u'blue', u'black', u'red']","[u'left', u'middle', u'right']","[0.8, 0.4, 0.2]","[u'medium', u'low', u'high']","red",51,"right","high","True","False",296,6450,NA
"A2OG8XRYJ56HS7","Tue Jan 28 2020 05:40:37 GMT-0800 (Pacific Standard Time)","Tue Jan 28 2020 05:49:33 GMT-0800 (Pacific Standard Time)","Mozilla/5.0 (Windows NT 6.1; Win64; x64) AppleWebKit/537.36 (KHTML, like Gecko) Chrome/79.0.3945.130 Safari/537.36",130,"[0.9, 0.5, 0.1]","[0.8, 0.4, 0.2]","[u'blue', u'black', u'red']","[u'left', u'middle', u'right']","[0.8, 0.4, 0.2]","[u'medium', u'low', u'high']","red",51,"right","high","True","False",273,6550,NA
"A2OG8XRYJ56HS7","Tue Jan 28 2020 05:40:37 GMT-0800 (Pacific Standard Time)","Tue Jan 28 2020 05:49:33 GMT-0800 (Pacific Standard Time)","Mozilla/5.0 (Windows NT 6.1; Win64; x64) AppleWebKit/537.36 (KHTML, like Gecko) Chrome/79.0.3945.130 Safari/537.36",131,"[0.9, 0.5, 0.1]","[0.8, 0.4, 0.2]","[u'blue', u'black', u'red']","[u'left', u'middle', u'right']","[0.8, 0.4, 0.2]","[u'medium', u'low', u'high']","red",51,"right","high","False","False",224,6500,NA
"A2OG8XRYJ56HS7","Tue Jan 28 2020 05:40:37 GMT-0800 (Pacific Standard Time)","Tue Jan 28 2020 05:49:33 GMT-0800 (Pacific Standard Time)","Mozilla/5.0 (Windows NT 6.1; Win64; x64) AppleWebKit/537.36 (KHTML, like Gecko) Chrome/79.0.3945.130 Safari/537.36",132,"[0.9, 0.5, 0.1]","[0.8, 0.4, 0.2]","[u'blue', u'black', u'red']","[u'left', u'middle', u'right']","[0.8, 0.4, 0.2]","[u'medium', u'low', u'high']","black",50,"middle","low","False","False",247,6450,NA
"A2OG8XRYJ56HS7","Tue Jan 28 2020 05:40:37 GMT-0800 (Pacific Standard Time)","Tue Jan 28 2020 05:49:33 GMT-0800 (Pacific Standard Time)","Mozilla/5.0 (Windows NT 6.1; Win64; x64) AppleWebKit/537.36 (KHTML, like Gecko) Chrome/79.0.3945.130 Safari/537.36",133,"[0.9, 0.5, 0.1]","[0.8, 0.4, 0.2]","[u'blue', u'black', u'red']","[u'left', u'middle', u'right']","[0.8, 0.4, 0.2]","[u'medium', u'low', u'high']","blue",49,"left","medium","False","False",169,6400,NA
"A2OG8XRYJ56HS7","Tue Jan 28 2020 05:40:37 GMT-0800 (Pacific Standard Time)","Tue Jan 28 2020 05:49:33 GMT-0800 (Pacific Standard Time)","Mozilla/5.0 (Windows NT 6.1; Win64; x64) AppleWebKit/537.36 (KHTML, like Gecko) Chrome/79.0.3945.130 Safari/537.36",134,"[0.9, 0.5, 0.1]","[0.8, 0.4, 0.2]","[u'blue', u'black', u'red']","[u'left', u'middle', u'right']","[0.8, 0.4, 0.2]","[u'medium', u'low', u'high']","black",50,"middle","low","False","False",32,6350,NA
"A2OG8XRYJ56HS7","Tue Jan 28 2020 05:40:37 GMT-0800 (Pacific Standard Time)","Tue Jan 28 2020 05:49:33 GMT-0800 (Pacific Standard Time)","Mozilla/5.0 (Windows NT 6.1; Win64; x64) AppleWebKit/537.36 (KHTML, like Gecko) Chrome/79.0.3945.130 Safari/537.36",135,"[0.9, 0.5, 0.1]","[0.8, 0.4, 0.2]","[u'blue', u'black', u'red']","[u'left', u'middle', u'right']","[0.8, 0.4, 0.2]","[u'medium', u'low', u'high']","red",51,"right","high","False","False",249,6300,NA
"A2OG8XRYJ56HS7","Tue Jan 28 2020 05:40:37 GMT-0800 (Pacific Standard Time)","Tue Jan 28 2020 05:49:33 GMT-0800 (Pacific Standard Time)","Mozilla/5.0 (Windows NT 6.1; Win64; x64) AppleWebKit/537.36 (KHTML, like Gecko) Chrome/79.0.3945.130 Safari/537.36",136,"[0.9, 0.5, 0.1]","[0.8, 0.4, 0.2]","[u'blue', u'black', u'red']","[u'left', u'middle', u'right']","[0.8, 0.4, 0.2]","[u'medium', u'low', u'high']","black",50,"middle","low","False","False",247,6250,NA
"A2OG8XRYJ56HS7","Tue Jan 28 2020 05:40:37 GMT-0800 (Pacific Standard Time)","Tue Jan 28 2020 05:49:33 GMT-0800 (Pacific Standard Time)","Mozilla/5.0 (Windows NT 6.1; Win64; x64) AppleWebKit/537.36 (KHTML, like Gecko) Chrome/79.0.3945.130 Safari/537.36",137,"[0.9, 0.5, 0.1]","[0.8, 0.4, 0.2]","[u'blue', u'black', u'red']","[u'left', u'middle', u'right']","[0.8, 0.4, 0.2]","[u'medium', u'low', u'high']","blue",49,"left","medium","True","False",111,6350,NA
"A2OG8XRYJ56HS7","Tue Jan 28 2020 05:40:37 GMT-0800 (Pacific Standard Time)","Tue Jan 28 2020 05:49:33 GMT-0800 (Pacific Standard Time)","Mozilla/5.0 (Windows NT 6.1; Win64; x64) AppleWebKit/537.36 (KHTML, like Gecko) Chrome/79.0.3945.130 Safari/537.36",138,"[0.9, 0.5, 0.1]","[0.8, 0.4, 0.2]","[u'blue', u'black', u'red']","[u'left', u'middle', u'right']","[0.8, 0.4, 0.2]","[u'medium', u'low', u'high']","blue",49,"left","medium","False","False",200,6300,NA
"A2OG8XRYJ56HS7","Tue Jan 28 2020 05:40:37 GMT-0800 (Pacific Standard Time)","Tue Jan 28 2020 05:49:33 GMT-0800 (Pacific Standard Time)","Mozilla/5.0 (Windows NT 6.1; Win64; x64) AppleWebKit/537.36 (KHTML, like Gecko) Chrome/79.0.3945.130 Safari/537.36",139,"[0.9, 0.5, 0.1]","[0.8, 0.4, 0.2]","[u'blue', u'black', u'red']","[u'left', u'middle', u'right']","[0.8, 0.4, 0.2]","[u'medium', u'low', u'high']","red",51,"right","high","False","False",40,6250,NA
"A2OG8XRYJ56HS7","Tue Jan 28 2020 05:40:37 GMT-0800 (Pacific Standard Time)","Tue Jan 28 2020 05:49:33 GMT-0800 (Pacific Standard Time)","Mozilla/5.0 (Windows NT 6.1; Win64; x64) AppleWebKit/537.36 (KHTML, like Gecko) Chrome/79.0.3945.130 Safari/537.36",140,"[0.9, 0.5, 0.1]","[0.8, 0.4, 0.2]","[u'blue', u'black', u'red']","[u'left', u'middle', u'right']","[0.8, 0.4, 0.2]","[u'medium', u'low', u'high']","black",50,"middle","low","False","False",224,6200,NA
"A2OG8XRYJ56HS7","Tue Jan 28 2020 05:40:37 GMT-0800 (Pacific Standard Time)","Tue Jan 28 2020 05:49:33 GMT-0800 (Pacific Standard Time)","Mozilla/5.0 (Windows NT 6.1; Win64; x64) AppleWebKit/537.36 (KHTML, like Gecko) Chrome/79.0.3945.130 Safari/537.36",141,"[0.9, 0.5, 0.1]","[0.8, 0.4, 0.2]","[u'blue', u'black', u'red']","[u'left', u'middle', u'right']","[0.8, 0.4, 0.2]","[u'medium', u'low', u'high']","blue",49,"left","medium","True","False",103,6300,NA
"A2OG8XRYJ56HS7","Tue Jan 28 2020 05:40:37 GMT-0800 (Pacific Standard Time)","Tue Jan 28 2020 05:49:33 GMT-0800 (Pacific Standard Time)","Mozilla/5.0 (Windows NT 6.1; Win64; x64) AppleWebKit/537.36 (KHTML, like Gecko) Chrome/79.0.3945.130 Safari/537.36",142,"[0.9, 0.5, 0.1]","[0.8, 0.4, 0.2]","[u'blue', u'black', u'red']","[u'left', u'middle', u'right']","[0.8, 0.4, 0.2]","[u'medium', u'low', u'high']","blue",49,"left","medium","True","False",248,6400,NA
"A2OG8XRYJ56HS7","Tue Jan 28 2020 05:40:37 GMT-0800 (Pacific Standard Time)","Tue Jan 28 2020 05:49:33 GMT-0800 (Pacific Standard Time)","Mozilla/5.0 (Windows NT 6.1; Win64; x64) AppleWebKit/537.36 (KHTML, like Gecko) Chrome/79.0.3945.130 Safari/537.36",143,"[0.9, 0.5, 0.1]","[0.8, 0.4, 0.2]","[u'blue', u'black', u'red']","[u'left', u'middle', u'right']","[0.8, 0.4, 0.2]","[u'medium', u'low', u'high']","blue",49,"left","medium","True","False",272,6500,NA
"A2OG8XRYJ56HS7","Tue Jan 28 2020 05:40:37 GMT-0800 (Pacific Standard Time)","Tue Jan 28 2020 05:49:33 GMT-0800 (Pacific Standard Time)","Mozilla/5.0 (Windows NT 6.1; Win64; x64) AppleWebKit/537.36 (KHTML, like Gecko) Chrome/79.0.3945.130 Safari/537.36",144,"[0.9, 0.5, 0.1]","[0.8, 0.4, 0.2]","[u'blue', u'black', u'red']","[u'left', u'middle', u'right']","[0.8, 0.4, 0.2]","[u'medium', u'low', u'high']","blue",49,"left","medium","True","False",296,6600,NA
"A2OG8XRYJ56HS7","Tue Jan 28 2020 05:40:37 GMT-0800 (Pacific Standard Time)","Tue Jan 28 2020 05:49:33 GMT-0800 (Pacific Standard Time)","Mozilla/5.0 (Windows NT 6.1; Win64; x64) AppleWebKit/537.36 (KHTML, like Gecko) Chrome/79.0.3945.130 Safari/537.36",145,"[0.9, 0.5, 0.1]","[0.8, 0.4, 0.2]","[u'blue', u'black', u'red']","[u'left', u'middle', u'right']","[0.8, 0.4, 0.2]","[u'medium', u'low', u'high']","blue",49,"left","medium","False","False",320,6550,NA
"A2OG8XRYJ56HS7","Tue Jan 28 2020 05:40:37 GMT-0800 (Pacific Standard Time)","Tue Jan 28 2020 05:49:33 GMT-0800 (Pacific Standard Time)","Mozilla/5.0 (Windows NT 6.1; Win64; x64) AppleWebKit/537.36 (KHTML, like Gecko) Chrome/79.0.3945.130 Safari/537.36",146,"[0.9, 0.5, 0.1]","[0.8, 0.4, 0.2]","[u'blue', u'black', u'red']","[u'left', u'middle', u'right']","[0.8, 0.4, 0.2]","[u'medium', u'low', u'high']","red",51,"right","high","True","False",250,6650,NA
"A2OG8XRYJ56HS7","Tue Jan 28 2020 05:40:37 GMT-0800 (Pacific Standard Time)","Tue Jan 28 2020 05:49:33 GMT-0800 (Pacific Standard Time)","Mozilla/5.0 (Windows NT 6.1; Win64; x64) AppleWebKit/537.36 (KHTML, like Gecko) Chrome/79.0.3945.130 Safari/537.36",147,"[0.9, 0.5, 0.1]","[0.8, 0.4, 0.2]","[u'blue', u'black', u'red']","[u'left', u'middle', u'right']","[0.8, 0.4, 0.2]","[u'medium', u'low', u'high']","red",51,"right","high","False","False",232,6600,NA
"A2OG8XRYJ56HS7","Tue Jan 28 2020 05:40:37 GMT-0800 (Pacific Standard Time)","Tue Jan 28 2020 05:49:33 GMT-0800 (Pacific Standard Time)","Mozilla/5.0 (Windows NT 6.1; Win64; x64) AppleWebKit/537.36 (KHTML, like Gecko) Chrome/79.0.3945.130 Safari/537.36",148,"[0.9, 0.5, 0.1]","[0.8, 0.4, 0.2]","[u'blue', u'black', u'red']","[u'left', u'middle', u'right']","[0.8, 0.4, 0.2]","[u'medium', u'low', u'high']","black",50,"middle","low","True","False",104,6700,NA
"A2OG8XRYJ56HS7","Tue Jan 28 2020 05:40:37 GMT-0800 (Pacific Standard Time)","Tue Jan 28 2020 05:49:33 GMT-0800 (Pacific Standard Time)","Mozilla/5.0 (Windows NT 6.1; Win64; x64) AppleWebKit/537.36 (KHTML, like Gecko) Chrome/79.0.3945.130 Safari/537.36",149,"[0.9, 0.5, 0.1]","[0.8, 0.4, 0.2]","[u'blue', u'black', u'red']","[u'left', u'middle', u'right']","[0.8, 0.4, 0.2]","[u'medium', u'low', u'high']","black",50,"middle","low","False","False",232,6650,NA
"A2OG8XRYJ56HS7","Tue Jan 28 2020 05:40:37 GMT-0800 (Pacific Standard Time)","Tue Jan 28 2020 05:49:33 GMT-0800 (Pacific Standard Time)","Mozilla/5.0 (Windows NT 6.1; Win64; x64) AppleWebKit/537.36 (KHTML, like Gecko) Chrome/79.0.3945.130 Safari/537.36",150,"[0.9, 0.5, 0.1]","[0.8, 0.4, 0.2]","[u'blue', u'black', u'red']","[u'left', u'middle', u'right']","[0.8, 0.4, 0.2]","[u'medium', u'low', u'high']","blue",49,"left","medium","True","False",159,6750,NA
"A2OG8XRYJ56HS7","Tue Jan 28 2020 05:40:37 GMT-0800 (Pacific Standard Time)","Tue Jan 28 2020 05:49:33 GMT-0800 (Pacific Standard Time)","Mozilla/5.0 (Windows NT 6.1; Win64; x64) AppleWebKit/537.36 (KHTML, like Gecko) Chrome/79.0.3945.130 Safari/537.36",151,"[0.9, 0.5, 0.1]","[0.8, 0.4, 0.2]","[u'blue', u'black', u'red']","[u'left', u'middle', u'right']","[0.8, 0.4, 0.2]","[u'medium', u'low', u'high']","blue",49,"left","medium","False","False",248,6700,NA
"A2OG8XRYJ56HS7","Tue Jan 28 2020 05:40:37 GMT-0800 (Pacific Standard Time)","Tue Jan 28 2020 05:49:33 GMT-0800 (Pacific Standard Time)","Mozilla/5.0 (Windows NT 6.1; Win64; x64) AppleWebKit/537.36 (KHTML, like Gecko) Chrome/79.0.3945.130 Safari/537.36",152,"[0.9, 0.5, 0.1]","[0.8, 0.4, 0.2]","[u'blue', u'black', u'red']","[u'left', u'middle', u'right']","[0.8, 0.4, 0.2]","[u'medium', u'low', u'high']","red",51,"right","high","True","False",98,6800,NA
"A2OG8XRYJ56HS7","Tue Jan 28 2020 05:40:37 GMT-0800 (Pacific Standard Time)","Tue Jan 28 2020 05:49:33 GMT-0800 (Pacific Standard Time)","Mozilla/5.0 (Windows NT 6.1; Win64; x64) AppleWebKit/537.36 (KHTML, like Gecko) Chrome/79.0.3945.130 Safari/537.36",153,"[0.9, 0.5, 0.1]","[0.8, 0.4, 0.2]","[u'blue', u'black', u'red']","[u'left', u'middle', u'right']","[0.8, 0.4, 0.2]","[u'medium', u'low', u'high']","red",51,"right","high","True","False",287,6900,NA
"A2OG8XRYJ56HS7","Tue Jan 28 2020 05:40:37 GMT-0800 (Pacific Standard Time)","Tue Jan 28 2020 05:49:33 GMT-0800 (Pacific Standard Time)","Mozilla/5.0 (Windows NT 6.1; Win64; x64) AppleWebKit/537.36 (KHTML, like Gecko) Chrome/79.0.3945.130 Safari/537.36",154,"[0.9, 0.5, 0.1]","[0.8, 0.4, 0.2]","[u'blue', u'black', u'red']","[u'left', u'middle', u'right']","[0.8, 0.4, 0.2]","[u'medium', u'low', u'high']","red",51,"right","high","False","False",448,6850,NA
"A2OG8XRYJ56HS7","Tue Jan 28 2020 05:40:37 GMT-0800 (Pacific Standard Time)","Tue Jan 28 2020 05:49:33 GMT-0800 (Pacific Standard Time)","Mozilla/5.0 (Windows NT 6.1; Win64; x64) AppleWebKit/537.36 (KHTML, like Gecko) Chrome/79.0.3945.130 Safari/537.36",155,"[0.9, 0.5, 0.1]","[0.8, 0.4, 0.2]","[u'blue', u'black', u'red']","[u'left', u'middle', u'right']","[0.8, 0.4, 0.2]","[u'medium', u'low', u'high']","blue",49,"left","medium","False","False",175,6800,NA
"A2OG8XRYJ56HS7","Tue Jan 28 2020 05:40:37 GMT-0800 (Pacific Standard Time)","Tue Jan 28 2020 05:49:33 GMT-0800 (Pacific Standard Time)","Mozilla/5.0 (Windows NT 6.1; Win64; x64) AppleWebKit/537.36 (KHTML, like Gecko) Chrome/79.0.3945.130 Safari/537.36",156,"[0.9, 0.5, 0.1]","[0.8, 0.4, 0.2]","[u'blue', u'black', u'red']","[u'left', u'middle', u'right']","[0.8, 0.4, 0.2]","[u'medium', u'low', u'high']","black",50,"middle","low","False","False",129,6750,NA
"A2OG8XRYJ56HS7","Tue Jan 28 2020 05:40:37 GMT-0800 (Pacific Standard Time)","Tue Jan 28 2020 05:49:33 GMT-0800 (Pacific Standard Time)","Mozilla/5.0 (Windows NT 6.1; Win64; x64) AppleWebKit/537.36 (KHTML, like Gecko) Chrome/79.0.3945.130 Safari/537.36",157,"[0.9, 0.5, 0.1]","[0.8, 0.4, 0.2]","[u'blue', u'black', u'red']","[u'left', u'middle', u'right']","[0.8, 0.4, 0.2]","[u'medium', u'low', u'high']","red",51,"right","high","True","False",73,6850,NA
"A2OG8XRYJ56HS7","Tue Jan 28 2020 05:40:37 GMT-0800 (Pacific Standard Time)","Tue Jan 28 2020 05:49:33 GMT-0800 (Pacific Standard Time)","Mozilla/5.0 (Windows NT 6.1; Win64; x64) AppleWebKit/537.36 (KHTML, like Gecko) Chrome/79.0.3945.130 Safari/537.36",158,"[0.9, 0.5, 0.1]","[0.8, 0.4, 0.2]","[u'blue', u'black', u'red']","[u'left', u'middle', u'right']","[0.8, 0.4, 0.2]","[u'medium', u'low', u'high']","red",51,"right","high","True","False",201,6950,NA
"A2OG8XRYJ56HS7","Tue Jan 28 2020 05:40:37 GMT-0800 (Pacific Standard Time)","Tue Jan 28 2020 05:49:33 GMT-0800 (Pacific Standard Time)","Mozilla/5.0 (Windows NT 6.1; Win64; x64) AppleWebKit/537.36 (KHTML, like Gecko) Chrome/79.0.3945.130 Safari/537.36",159,"[0.9, 0.5, 0.1]","[0.8, 0.4, 0.2]","[u'blue', u'black', u'red']","[u'left', u'middle', u'right']","[0.8, 0.4, 0.2]","[u'medium', u'low', u'high']","red",51,"right","high","False","False",144,6900,NA
"A2OG8XRYJ56HS7","Tue Jan 28 2020 05:40:37 GMT-0800 (Pacific Standard Time)","Tue Jan 28 2020 05:49:33 GMT-0800 (Pacific Standard Time)","Mozilla/5.0 (Windows NT 6.1; Win64; x64) AppleWebKit/537.36 (KHTML, like Gecko) Chrome/79.0.3945.130 Safari/537.36",160,"[0.9, 0.5, 0.1]","[0.8, 0.4, 0.2]","[u'blue', u'black', u'red']","[u'left', u'middle', u'right']","[0.8, 0.4, 0.2]","[u'medium', u'low', u'high']","blue",49,"left","medium","True","False",72,7000,NA
