"src_subject_id","start_time","end_time","browser","index","first_half_probabilities","second_half_probabilities","deck_color","deck_position","deck_probabilities","deck_contingencies","response_color","key_press","response_position","response_probability","reward_type","trial_type","rt","reward_tally","exclusion_reason"
"A1CA6ZXKK09ZRI","Fri Sep 18 2020 18:53:15 GMT+0300 (East Africa Time)","Fri Sep 18 2020 19:57:41 GMT+0300 (East Africa Time)","Mozilla/5.0 (Windows NT 6.3; Win64; x64) AppleWebKit/537.36 (KHTML, like Gecko) Chrome/85.0.4183.102 Safari/537.36",1,"[0.9, 0.5, 0.1]","[0.8, 0.4, 0.2]","[u'red', u'blue', u'black']","[u'left', u'middle', u'right']","[0.9, 0.5, 0.1]","[u'high', u'low', u'medium']","blue",50,"middle","low","False","False",506,-50,NA
"A1CA6ZXKK09ZRI","Fri Sep 18 2020 18:53:15 GMT+0300 (East Africa Time)","Fri Sep 18 2020 19:57:41 GMT+0300 (East Africa Time)","Mozilla/5.0 (Windows NT 6.3; Win64; x64) AppleWebKit/537.36 (KHTML, like Gecko) Chrome/85.0.4183.102 Safari/537.36",2,"[0.9, 0.5, 0.1]","[0.8, 0.4, 0.2]","[u'red', u'blue', u'black']","[u'left', u'middle', u'right']","[0.9, 0.5, 0.1]","[u'high', u'low', u'medium']","black",51,"right","medium","False","False",553,-100,NA
"A1CA6ZXKK09ZRI","Fri Sep 18 2020 18:53:15 GMT+0300 (East Africa Time)","Fri Sep 18 2020 19:57:41 GMT+0300 (East Africa Time)","Mozilla/5.0 (Windows NT 6.3; Win64; x64) AppleWebKit/537.36 (KHTML, like Gecko) Chrome/85.0.4183.102 Safari/537.36",3,"[0.9, 0.5, 0.1]","[0.8, 0.4, 0.2]","[u'red', u'blue', u'black']","[u'left', u'middle', u'right']","[0.9, 0.5, 0.1]","[u'high', u'low', u'medium']","red",49,"left","high","True","False",339,0,NA
"A1CA6ZXKK09ZRI","Fri Sep 18 2020 18:53:15 GMT+0300 (East Africa Time)","Fri Sep 18 2020 19:57:41 GMT+0300 (East Africa Time)","Mozilla/5.0 (Windows NT 6.3; Win64; x64) AppleWebKit/537.36 (KHTML, like Gecko) Chrome/85.0.4183.102 Safari/537.36",4,"[0.9, 0.5, 0.1]","[0.8, 0.4, 0.2]","[u'red', u'blue', u'black']","[u'left', u'middle', u'right']","[0.9, 0.5, 0.1]","[u'high', u'low', u'medium']","red",49,"left","high","True","False",153,100,NA
"A1CA6ZXKK09ZRI","Fri Sep 18 2020 18:53:15 GMT+0300 (East Africa Time)","Fri Sep 18 2020 19:57:41 GMT+0300 (East Africa Time)","Mozilla/5.0 (Windows NT 6.3; Win64; x64) AppleWebKit/537.36 (KHTML, like Gecko) Chrome/85.0.4183.102 Safari/537.36",5,"[0.9, 0.5, 0.1]","[0.8, 0.4, 0.2]","[u'red', u'blue', u'black']","[u'left', u'middle', u'right']","[0.9, 0.5, 0.1]","[u'high', u'low', u'medium']","red",49,"left","high","True","False",532,200,NA
"A1CA6ZXKK09ZRI","Fri Sep 18 2020 18:53:15 GMT+0300 (East Africa Time)","Fri Sep 18 2020 19:57:41 GMT+0300 (East Africa Time)","Mozilla/5.0 (Windows NT 6.3; Win64; x64) AppleWebKit/537.36 (KHTML, like Gecko) Chrome/85.0.4183.102 Safari/537.36",6,"[0.9, 0.5, 0.1]","[0.8, 0.4, 0.2]","[u'red', u'blue', u'black']","[u'left', u'middle', u'right']","[0.9, 0.5, 0.1]","[u'high', u'low', u'medium']","red",49,"left","high","True","False",467,300,NA
"A1CA6ZXKK09ZRI","Fri Sep 18 2020 18:53:15 GMT+0300 (East Africa Time)","Fri Sep 18 2020 19:57:41 GMT+0300 (East Africa Time)","Mozilla/5.0 (Windows NT 6.3; Win64; x64) AppleWebKit/537.36 (KHTML, like Gecko) Chrome/85.0.4183.102 Safari/537.36",7,"[0.9, 0.5, 0.1]","[0.8, 0.4, 0.2]","[u'red', u'blue', u'black']","[u'left', u'middle', u'right']","[0.9, 0.5, 0.1]","[u'high', u'low', u'medium']","red",49,"left","high","True","False",451,400,NA
"A1CA6ZXKK09ZRI","Fri Sep 18 2020 18:53:15 GMT+0300 (East Africa Time)","Fri Sep 18 2020 19:57:41 GMT+0300 (East Africa Time)","Mozilla/5.0 (Windows NT 6.3; Win64; x64) AppleWebKit/537.36 (KHTML, like Gecko) Chrome/85.0.4183.102 Safari/537.36",8,"[0.9, 0.5, 0.1]","[0.8, 0.4, 0.2]","[u'red', u'blue', u'black']","[u'left', u'middle', u'right']","[0.9, 0.5, 0.1]","[u'high', u'low', u'medium']","red",49,"left","high","True","False",403,500,NA
"A1CA6ZXKK09ZRI","Fri Sep 18 2020 18:53:15 GMT+0300 (East Africa Time)","Fri Sep 18 2020 19:57:41 GMT+0300 (East Africa Time)","Mozilla/5.0 (Windows NT 6.3; Win64; x64) AppleWebKit/537.36 (KHTML, like Gecko) Chrome/85.0.4183.102 Safari/537.36",9,"[0.9, 0.5, 0.1]","[0.8, 0.4, 0.2]","[u'red', u'blue', u'black']","[u'left', u'middle', u'right']","[0.9, 0.5, 0.1]","[u'high', u'low', u'medium']","red",49,"left","high","True","False",427,600,NA
"A1CA6ZXKK09ZRI","Fri Sep 18 2020 18:53:15 GMT+0300 (East Africa Time)","Fri Sep 18 2020 19:57:41 GMT+0300 (East Africa Time)","Mozilla/5.0 (Windows NT 6.3; Win64; x64) AppleWebKit/537.36 (KHTML, like Gecko) Chrome/85.0.4183.102 Safari/537.36",10,"[0.9, 0.5, 0.1]","[0.8, 0.4, 0.2]","[u'red', u'blue', u'black']","[u'left', u'middle', u'right']","[0.9, 0.5, 0.1]","[u'high', u'low', u'medium']","red",49,"left","high","True","False",672,700,NA
"A1CA6ZXKK09ZRI","Fri Sep 18 2020 18:53:15 GMT+0300 (East Africa Time)","Fri Sep 18 2020 19:57:41 GMT+0300 (East Africa Time)","Mozilla/5.0 (Windows NT 6.3; Win64; x64) AppleWebKit/537.36 (KHTML, like Gecko) Chrome/85.0.4183.102 Safari/537.36",11,"[0.9, 0.5, 0.1]","[0.8, 0.4, 0.2]","[u'red', u'blue', u'black']","[u'left', u'middle', u'right']","[0.9, 0.5, 0.1]","[u'high', u'low', u'medium']","red",49,"left","high","True","True",546,800,NA
"A1CA6ZXKK09ZRI","Fri Sep 18 2020 18:53:15 GMT+0300 (East Africa Time)","Fri Sep 18 2020 19:57:41 GMT+0300 (East Africa Time)","Mozilla/5.0 (Windows NT 6.3; Win64; x64) AppleWebKit/537.36 (KHTML, like Gecko) Chrome/85.0.4183.102 Safari/537.36",12,"[0.9, 0.5, 0.1]","[0.8, 0.4, 0.2]","[u'red', u'blue', u'black']","[u'left', u'middle', u'right']","[0.9, 0.5, 0.1]","[u'low', u'medium', u'high']","red",49,"left","low","False","False",371,750,NA
"A1CA6ZXKK09ZRI","Fri Sep 18 2020 18:53:15 GMT+0300 (East Africa Time)","Fri Sep 18 2020 19:57:41 GMT+0300 (East Africa Time)","Mozilla/5.0 (Windows NT 6.3; Win64; x64) AppleWebKit/537.36 (KHTML, like Gecko) Chrome/85.0.4183.102 Safari/537.36",13,"[0.9, 0.5, 0.1]","[0.8, 0.4, 0.2]","[u'red', u'blue', u'black']","[u'left', u'middle', u'right']","[0.9, 0.5, 0.1]","[u'low', u'medium', u'high']","blue",50,"middle","medium","True","False",66,850,NA
"A1CA6ZXKK09ZRI","Fri Sep 18 2020 18:53:15 GMT+0300 (East Africa Time)","Fri Sep 18 2020 19:57:41 GMT+0300 (East Africa Time)","Mozilla/5.0 (Windows NT 6.3; Win64; x64) AppleWebKit/537.36 (KHTML, like Gecko) Chrome/85.0.4183.102 Safari/537.36",14,"[0.9, 0.5, 0.1]","[0.8, 0.4, 0.2]","[u'red', u'blue', u'black']","[u'left', u'middle', u'right']","[0.9, 0.5, 0.1]","[u'low', u'medium', u'high']","blue",50,"middle","medium","True","False",380,950,NA
"A1CA6ZXKK09ZRI","Fri Sep 18 2020 18:53:15 GMT+0300 (East Africa Time)","Fri Sep 18 2020 19:57:41 GMT+0300 (East Africa Time)","Mozilla/5.0 (Windows NT 6.3; Win64; x64) AppleWebKit/537.36 (KHTML, like Gecko) Chrome/85.0.4183.102 Safari/537.36",15,"[0.9, 0.5, 0.1]","[0.8, 0.4, 0.2]","[u'red', u'blue', u'black']","[u'left', u'middle', u'right']","[0.9, 0.5, 0.1]","[u'low', u'medium', u'high']","blue",50,"middle","medium","False","False",394,900,NA
"A1CA6ZXKK09ZRI","Fri Sep 18 2020 18:53:15 GMT+0300 (East Africa Time)","Fri Sep 18 2020 19:57:41 GMT+0300 (East Africa Time)","Mozilla/5.0 (Windows NT 6.3; Win64; x64) AppleWebKit/537.36 (KHTML, like Gecko) Chrome/85.0.4183.102 Safari/537.36",16,"[0.9, 0.5, 0.1]","[0.8, 0.4, 0.2]","[u'red', u'blue', u'black']","[u'left', u'middle', u'right']","[0.9, 0.5, 0.1]","[u'low', u'medium', u'high']","black",51,"right","high","True","False",395,1000,NA
"A1CA6ZXKK09ZRI","Fri Sep 18 2020 18:53:15 GMT+0300 (East Africa Time)","Fri Sep 18 2020 19:57:41 GMT+0300 (East Africa Time)","Mozilla/5.0 (Windows NT 6.3; Win64; x64) AppleWebKit/537.36 (KHTML, like Gecko) Chrome/85.0.4183.102 Safari/537.36",17,"[0.9, 0.5, 0.1]","[0.8, 0.4, 0.2]","[u'red', u'blue', u'black']","[u'left', u'middle', u'right']","[0.9, 0.5, 0.1]","[u'low', u'medium', u'high']","black",51,"right","high","True","False",810,1100,NA
"A1CA6ZXKK09ZRI","Fri Sep 18 2020 18:53:15 GMT+0300 (East Africa Time)","Fri Sep 18 2020 19:57:41 GMT+0300 (East Africa Time)","Mozilla/5.0 (Windows NT 6.3; Win64; x64) AppleWebKit/537.36 (KHTML, like Gecko) Chrome/85.0.4183.102 Safari/537.36",18,"[0.9, 0.5, 0.1]","[0.8, 0.4, 0.2]","[u'red', u'blue', u'black']","[u'left', u'middle', u'right']","[0.9, 0.5, 0.1]","[u'low', u'medium', u'high']","black",51,"right","high","True","False",498,1200,NA
"A1CA6ZXKK09ZRI","Fri Sep 18 2020 18:53:15 GMT+0300 (East Africa Time)","Fri Sep 18 2020 19:57:41 GMT+0300 (East Africa Time)","Mozilla/5.0 (Windows NT 6.3; Win64; x64) AppleWebKit/537.36 (KHTML, like Gecko) Chrome/85.0.4183.102 Safari/537.36",19,"[0.9, 0.5, 0.1]","[0.8, 0.4, 0.2]","[u'red', u'blue', u'black']","[u'left', u'middle', u'right']","[0.9, 0.5, 0.1]","[u'low', u'medium', u'high']","black",51,"right","high","True","False",115,1300,NA
"A1CA6ZXKK09ZRI","Fri Sep 18 2020 18:53:15 GMT+0300 (East Africa Time)","Fri Sep 18 2020 19:57:41 GMT+0300 (East Africa Time)","Mozilla/5.0 (Windows NT 6.3; Win64; x64) AppleWebKit/537.36 (KHTML, like Gecko) Chrome/85.0.4183.102 Safari/537.36",20,"[0.9, 0.5, 0.1]","[0.8, 0.4, 0.2]","[u'red', u'blue', u'black']","[u'left', u'middle', u'right']","[0.9, 0.5, 0.1]","[u'low', u'medium', u'high']","black",51,"right","high","True","False",531,1400,NA
"A1CA6ZXKK09ZRI","Fri Sep 18 2020 18:53:15 GMT+0300 (East Africa Time)","Fri Sep 18 2020 19:57:41 GMT+0300 (East Africa Time)","Mozilla/5.0 (Windows NT 6.3; Win64; x64) AppleWebKit/537.36 (KHTML, like Gecko) Chrome/85.0.4183.102 Safari/537.36",21,"[0.9, 0.5, 0.1]","[0.8, 0.4, 0.2]","[u'red', u'blue', u'black']","[u'left', u'middle', u'right']","[0.9, 0.5, 0.1]","[u'low', u'medium', u'high']","black",51,"right","high","True","False",195,1500,NA
"A1CA6ZXKK09ZRI","Fri Sep 18 2020 18:53:15 GMT+0300 (East Africa Time)","Fri Sep 18 2020 19:57:41 GMT+0300 (East Africa Time)","Mozilla/5.0 (Windows NT 6.3; Win64; x64) AppleWebKit/537.36 (KHTML, like Gecko) Chrome/85.0.4183.102 Safari/537.36",22,"[0.9, 0.5, 0.1]","[0.8, 0.4, 0.2]","[u'red', u'blue', u'black']","[u'left', u'middle', u'right']","[0.9, 0.5, 0.1]","[u'low', u'medium', u'high']","black",51,"right","high","True","False",187,1600,NA
"A1CA6ZXKK09ZRI","Fri Sep 18 2020 18:53:15 GMT+0300 (East Africa Time)","Fri Sep 18 2020 19:57:41 GMT+0300 (East Africa Time)","Mozilla/5.0 (Windows NT 6.3; Win64; x64) AppleWebKit/537.36 (KHTML, like Gecko) Chrome/85.0.4183.102 Safari/537.36",23,"[0.9, 0.5, 0.1]","[0.8, 0.4, 0.2]","[u'red', u'blue', u'black']","[u'left', u'middle', u'right']","[0.9, 0.5, 0.1]","[u'low', u'medium', u'high']","black",51,"right","high","True","False",490,1700,NA
"A1CA6ZXKK09ZRI","Fri Sep 18 2020 18:53:15 GMT+0300 (East Africa Time)","Fri Sep 18 2020 19:57:41 GMT+0300 (East Africa Time)","Mozilla/5.0 (Windows NT 6.3; Win64; x64) AppleWebKit/537.36 (KHTML, like Gecko) Chrome/85.0.4183.102 Safari/537.36",24,"[0.9, 0.5, 0.1]","[0.8, 0.4, 0.2]","[u'red', u'blue', u'black']","[u'left', u'middle', u'right']","[0.9, 0.5, 0.1]","[u'low', u'medium', u'high']","black",51,"right","high","False","True",419,1650,NA
"A1CA6ZXKK09ZRI","Fri Sep 18 2020 18:53:15 GMT+0300 (East Africa Time)","Fri Sep 18 2020 19:57:41 GMT+0300 (East Africa Time)","Mozilla/5.0 (Windows NT 6.3; Win64; x64) AppleWebKit/537.36 (KHTML, like Gecko) Chrome/85.0.4183.102 Safari/537.36",25,"[0.9, 0.5, 0.1]","[0.8, 0.4, 0.2]","[u'red', u'blue', u'black']","[u'left', u'middle', u'right']","[0.9, 0.5, 0.1]","[u'high', u'low', u'medium']","red",49,"left","high","False","False",387,1600,NA
"A1CA6ZXKK09ZRI","Fri Sep 18 2020 18:53:15 GMT+0300 (East Africa Time)","Fri Sep 18 2020 19:57:41 GMT+0300 (East Africa Time)","Mozilla/5.0 (Windows NT 6.3; Win64; x64) AppleWebKit/537.36 (KHTML, like Gecko) Chrome/85.0.4183.102 Safari/537.36",26,"[0.9, 0.5, 0.1]","[0.8, 0.4, 0.2]","[u'red', u'blue', u'black']","[u'left', u'middle', u'right']","[0.9, 0.5, 0.1]","[u'high', u'low', u'medium']","blue",50,"middle","low","False","False",306,1550,NA
"A1CA6ZXKK09ZRI","Fri Sep 18 2020 18:53:15 GMT+0300 (East Africa Time)","Fri Sep 18 2020 19:57:41 GMT+0300 (East Africa Time)","Mozilla/5.0 (Windows NT 6.3; Win64; x64) AppleWebKit/537.36 (KHTML, like Gecko) Chrome/85.0.4183.102 Safari/537.36",27,"[0.9, 0.5, 0.1]","[0.8, 0.4, 0.2]","[u'red', u'blue', u'black']","[u'left', u'middle', u'right']","[0.9, 0.5, 0.1]","[u'high', u'low', u'medium']","black",51,"right","medium","True","False",114,1650,NA
"A1CA6ZXKK09ZRI","Fri Sep 18 2020 18:53:15 GMT+0300 (East Africa Time)","Fri Sep 18 2020 19:57:41 GMT+0300 (East Africa Time)","Mozilla/5.0 (Windows NT 6.3; Win64; x64) AppleWebKit/537.36 (KHTML, like Gecko) Chrome/85.0.4183.102 Safari/537.36",28,"[0.9, 0.5, 0.1]","[0.8, 0.4, 0.2]","[u'red', u'blue', u'black']","[u'left', u'middle', u'right']","[0.9, 0.5, 0.1]","[u'high', u'low', u'medium']","black",51,"right","medium","False","False",402,1600,NA
"A1CA6ZXKK09ZRI","Fri Sep 18 2020 18:53:15 GMT+0300 (East Africa Time)","Fri Sep 18 2020 19:57:41 GMT+0300 (East Africa Time)","Mozilla/5.0 (Windows NT 6.3; Win64; x64) AppleWebKit/537.36 (KHTML, like Gecko) Chrome/85.0.4183.102 Safari/537.36",29,"[0.9, 0.5, 0.1]","[0.8, 0.4, 0.2]","[u'red', u'blue', u'black']","[u'left', u'middle', u'right']","[0.9, 0.5, 0.1]","[u'high', u'low', u'medium']","red",49,"left","high","True","False",339,1700,NA
"A1CA6ZXKK09ZRI","Fri Sep 18 2020 18:53:15 GMT+0300 (East Africa Time)","Fri Sep 18 2020 19:57:41 GMT+0300 (East Africa Time)","Mozilla/5.0 (Windows NT 6.3; Win64; x64) AppleWebKit/537.36 (KHTML, like Gecko) Chrome/85.0.4183.102 Safari/537.36",30,"[0.9, 0.5, 0.1]","[0.8, 0.4, 0.2]","[u'red', u'blue', u'black']","[u'left', u'middle', u'right']","[0.9, 0.5, 0.1]","[u'high', u'low', u'medium']","red",49,"left","high","True","False",698,1800,NA
"A1CA6ZXKK09ZRI","Fri Sep 18 2020 18:53:15 GMT+0300 (East Africa Time)","Fri Sep 18 2020 19:57:41 GMT+0300 (East Africa Time)","Mozilla/5.0 (Windows NT 6.3; Win64; x64) AppleWebKit/537.36 (KHTML, like Gecko) Chrome/85.0.4183.102 Safari/537.36",31,"[0.9, 0.5, 0.1]","[0.8, 0.4, 0.2]","[u'red', u'blue', u'black']","[u'left', u'middle', u'right']","[0.9, 0.5, 0.1]","[u'high', u'low', u'medium']","red",49,"left","high","True","False",418,1900,NA
"A1CA6ZXKK09ZRI","Fri Sep 18 2020 18:53:15 GMT+0300 (East Africa Time)","Fri Sep 18 2020 19:57:41 GMT+0300 (East Africa Time)","Mozilla/5.0 (Windows NT 6.3; Win64; x64) AppleWebKit/537.36 (KHTML, like Gecko) Chrome/85.0.4183.102 Safari/537.36",32,"[0.9, 0.5, 0.1]","[0.8, 0.4, 0.2]","[u'red', u'blue', u'black']","[u'left', u'middle', u'right']","[0.9, 0.5, 0.1]","[u'high', u'low', u'medium']","red",49,"left","high","True","False",298,2000,NA
"A1CA6ZXKK09ZRI","Fri Sep 18 2020 18:53:15 GMT+0300 (East Africa Time)","Fri Sep 18 2020 19:57:41 GMT+0300 (East Africa Time)","Mozilla/5.0 (Windows NT 6.3; Win64; x64) AppleWebKit/537.36 (KHTML, like Gecko) Chrome/85.0.4183.102 Safari/537.36",33,"[0.9, 0.5, 0.1]","[0.8, 0.4, 0.2]","[u'red', u'blue', u'black']","[u'left', u'middle', u'right']","[0.9, 0.5, 0.1]","[u'high', u'low', u'medium']","red",49,"left","high","True","False",452,2100,NA
"A1CA6ZXKK09ZRI","Fri Sep 18 2020 18:53:15 GMT+0300 (East Africa Time)","Fri Sep 18 2020 19:57:41 GMT+0300 (East Africa Time)","Mozilla/5.0 (Windows NT 6.3; Win64; x64) AppleWebKit/537.36 (KHTML, like Gecko) Chrome/85.0.4183.102 Safari/537.36",34,"[0.9, 0.5, 0.1]","[0.8, 0.4, 0.2]","[u'red', u'blue', u'black']","[u'left', u'middle', u'right']","[0.9, 0.5, 0.1]","[u'high', u'low', u'medium']","red",49,"left","high","True","False",490,2200,NA
"A1CA6ZXKK09ZRI","Fri Sep 18 2020 18:53:15 GMT+0300 (East Africa Time)","Fri Sep 18 2020 19:57:41 GMT+0300 (East Africa Time)","Mozilla/5.0 (Windows NT 6.3; Win64; x64) AppleWebKit/537.36 (KHTML, like Gecko) Chrome/85.0.4183.102 Safari/537.36",35,"[0.9, 0.5, 0.1]","[0.8, 0.4, 0.2]","[u'red', u'blue', u'black']","[u'left', u'middle', u'right']","[0.9, 0.5, 0.1]","[u'high', u'low', u'medium']","red",49,"left","high","True","False",627,2300,NA
"A1CA6ZXKK09ZRI","Fri Sep 18 2020 18:53:15 GMT+0300 (East Africa Time)","Fri Sep 18 2020 19:57:41 GMT+0300 (East Africa Time)","Mozilla/5.0 (Windows NT 6.3; Win64; x64) AppleWebKit/537.36 (KHTML, like Gecko) Chrome/85.0.4183.102 Safari/537.36",36,"[0.9, 0.5, 0.1]","[0.8, 0.4, 0.2]","[u'red', u'blue', u'black']","[u'left', u'middle', u'right']","[0.9, 0.5, 0.1]","[u'high', u'low', u'medium']","red",49,"left","high","True","False",442,2400,NA
"A1CA6ZXKK09ZRI","Fri Sep 18 2020 18:53:15 GMT+0300 (East Africa Time)","Fri Sep 18 2020 19:57:41 GMT+0300 (East Africa Time)","Mozilla/5.0 (Windows NT 6.3; Win64; x64) AppleWebKit/537.36 (KHTML, like Gecko) Chrome/85.0.4183.102 Safari/537.36",37,"[0.9, 0.5, 0.1]","[0.8, 0.4, 0.2]","[u'red', u'blue', u'black']","[u'left', u'middle', u'right']","[0.9, 0.5, 0.1]","[u'high', u'low', u'medium']","red",49,"left","high","False","True",356,2350,NA
"A1CA6ZXKK09ZRI","Fri Sep 18 2020 18:53:15 GMT+0300 (East Africa Time)","Fri Sep 18 2020 19:57:41 GMT+0300 (East Africa Time)","Mozilla/5.0 (Windows NT 6.3; Win64; x64) AppleWebKit/537.36 (KHTML, like Gecko) Chrome/85.0.4183.102 Safari/537.36",38,"[0.9, 0.5, 0.1]","[0.8, 0.4, 0.2]","[u'red', u'blue', u'black']","[u'left', u'middle', u'right']","[0.9, 0.5, 0.1]","[u'low', u'high', u'medium']","black",51,"right","medium","False","False",131,2300,NA
"A1CA6ZXKK09ZRI","Fri Sep 18 2020 18:53:15 GMT+0300 (East Africa Time)","Fri Sep 18 2020 19:57:41 GMT+0300 (East Africa Time)","Mozilla/5.0 (Windows NT 6.3; Win64; x64) AppleWebKit/537.36 (KHTML, like Gecko) Chrome/85.0.4183.102 Safari/537.36",39,"[0.9, 0.5, 0.1]","[0.8, 0.4, 0.2]","[u'red', u'blue', u'black']","[u'left', u'middle', u'right']","[0.9, 0.5, 0.1]","[u'low', u'high', u'medium']","blue",50,"middle","high","True","False",363,2400,NA
"A1CA6ZXKK09ZRI","Fri Sep 18 2020 18:53:15 GMT+0300 (East Africa Time)","Fri Sep 18 2020 19:57:41 GMT+0300 (East Africa Time)","Mozilla/5.0 (Windows NT 6.3; Win64; x64) AppleWebKit/537.36 (KHTML, like Gecko) Chrome/85.0.4183.102 Safari/537.36",40,"[0.9, 0.5, 0.1]","[0.8, 0.4, 0.2]","[u'red', u'blue', u'black']","[u'left', u'middle', u'right']","[0.9, 0.5, 0.1]","[u'low', u'high', u'medium']","blue",50,"middle","high","True","False",522,2500,NA
"A1CA6ZXKK09ZRI","Fri Sep 18 2020 18:53:15 GMT+0300 (East Africa Time)","Fri Sep 18 2020 19:57:41 GMT+0300 (East Africa Time)","Mozilla/5.0 (Windows NT 6.3; Win64; x64) AppleWebKit/537.36 (KHTML, like Gecko) Chrome/85.0.4183.102 Safari/537.36",41,"[0.9, 0.5, 0.1]","[0.8, 0.4, 0.2]","[u'red', u'blue', u'black']","[u'left', u'middle', u'right']","[0.9, 0.5, 0.1]","[u'high', u'low', u'medium']","red",49,"left","high","True","False",1361,2600,NA
"A1CA6ZXKK09ZRI","Fri Sep 18 2020 18:53:15 GMT+0300 (East Africa Time)","Fri Sep 18 2020 19:57:41 GMT+0300 (East Africa Time)","Mozilla/5.0 (Windows NT 6.3; Win64; x64) AppleWebKit/537.36 (KHTML, like Gecko) Chrome/85.0.4183.102 Safari/537.36",42,"[0.9, 0.5, 0.1]","[0.8, 0.4, 0.2]","[u'red', u'blue', u'black']","[u'left', u'middle', u'right']","[0.9, 0.5, 0.1]","[u'high', u'low', u'medium']","red",49,"left","high","True","False",187,2700,NA
"A1CA6ZXKK09ZRI","Fri Sep 18 2020 18:53:15 GMT+0300 (East Africa Time)","Fri Sep 18 2020 19:57:41 GMT+0300 (East Africa Time)","Mozilla/5.0 (Windows NT 6.3; Win64; x64) AppleWebKit/537.36 (KHTML, like Gecko) Chrome/85.0.4183.102 Safari/537.36",43,"[0.9, 0.5, 0.1]","[0.8, 0.4, 0.2]","[u'red', u'blue', u'black']","[u'left', u'middle', u'right']","[0.9, 0.5, 0.1]","[u'high', u'low', u'medium']","red",49,"left","high","True","False",474,2800,NA
"A1CA6ZXKK09ZRI","Fri Sep 18 2020 18:53:15 GMT+0300 (East Africa Time)","Fri Sep 18 2020 19:57:41 GMT+0300 (East Africa Time)","Mozilla/5.0 (Windows NT 6.3; Win64; x64) AppleWebKit/537.36 (KHTML, like Gecko) Chrome/85.0.4183.102 Safari/537.36",44,"[0.9, 0.5, 0.1]","[0.8, 0.4, 0.2]","[u'red', u'blue', u'black']","[u'left', u'middle', u'right']","[0.9, 0.5, 0.1]","[u'high', u'low', u'medium']","red",49,"left","high","True","False",74,2900,NA
"A1CA6ZXKK09ZRI","Fri Sep 18 2020 18:53:15 GMT+0300 (East Africa Time)","Fri Sep 18 2020 19:57:41 GMT+0300 (East Africa Time)","Mozilla/5.0 (Windows NT 6.3; Win64; x64) AppleWebKit/537.36 (KHTML, like Gecko) Chrome/85.0.4183.102 Safari/537.36",45,"[0.9, 0.5, 0.1]","[0.8, 0.4, 0.2]","[u'red', u'blue', u'black']","[u'left', u'middle', u'right']","[0.9, 0.5, 0.1]","[u'high', u'low', u'medium']","red",49,"left","high","True","False",474,3000,NA
"A1CA6ZXKK09ZRI","Fri Sep 18 2020 18:53:15 GMT+0300 (East Africa Time)","Fri Sep 18 2020 19:57:41 GMT+0300 (East Africa Time)","Mozilla/5.0 (Windows NT 6.3; Win64; x64) AppleWebKit/537.36 (KHTML, like Gecko) Chrome/85.0.4183.102 Safari/537.36",46,"[0.9, 0.5, 0.1]","[0.8, 0.4, 0.2]","[u'red', u'blue', u'black']","[u'left', u'middle', u'right']","[0.9, 0.5, 0.1]","[u'high', u'low', u'medium']","red",49,"left","high","False","False",402,2950,NA
"A1CA6ZXKK09ZRI","Fri Sep 18 2020 18:53:15 GMT+0300 (East Africa Time)","Fri Sep 18 2020 19:57:41 GMT+0300 (East Africa Time)","Mozilla/5.0 (Windows NT 6.3; Win64; x64) AppleWebKit/537.36 (KHTML, like Gecko) Chrome/85.0.4183.102 Safari/537.36",47,"[0.9, 0.5, 0.1]","[0.8, 0.4, 0.2]","[u'red', u'blue', u'black']","[u'left', u'middle', u'right']","[0.9, 0.5, 0.1]","[u'high', u'low', u'medium']","black",51,"right","medium","True","False",92,3050,NA
"A1CA6ZXKK09ZRI","Fri Sep 18 2020 18:53:15 GMT+0300 (East Africa Time)","Fri Sep 18 2020 19:57:41 GMT+0300 (East Africa Time)","Mozilla/5.0 (Windows NT 6.3; Win64; x64) AppleWebKit/537.36 (KHTML, like Gecko) Chrome/85.0.4183.102 Safari/537.36",48,"[0.9, 0.5, 0.1]","[0.8, 0.4, 0.2]","[u'red', u'blue', u'black']","[u'left', u'middle', u'right']","[0.9, 0.5, 0.1]","[u'high', u'low', u'medium']","black",51,"right","medium","True","False",378,3150,NA
"A1CA6ZXKK09ZRI","Fri Sep 18 2020 18:53:15 GMT+0300 (East Africa Time)","Fri Sep 18 2020 19:57:41 GMT+0300 (East Africa Time)","Mozilla/5.0 (Windows NT 6.3; Win64; x64) AppleWebKit/537.36 (KHTML, like Gecko) Chrome/85.0.4183.102 Safari/537.36",49,"[0.9, 0.5, 0.1]","[0.8, 0.4, 0.2]","[u'red', u'blue', u'black']","[u'left', u'middle', u'right']","[0.9, 0.5, 0.1]","[u'high', u'low', u'medium']","black",51,"right","medium","True","False",371,3250,NA
"A1CA6ZXKK09ZRI","Fri Sep 18 2020 18:53:15 GMT+0300 (East Africa Time)","Fri Sep 18 2020 19:57:41 GMT+0300 (East Africa Time)","Mozilla/5.0 (Windows NT 6.3; Win64; x64) AppleWebKit/537.36 (KHTML, like Gecko) Chrome/85.0.4183.102 Safari/537.36",50,"[0.9, 0.5, 0.1]","[0.8, 0.4, 0.2]","[u'red', u'blue', u'black']","[u'left', u'middle', u'right']","[0.9, 0.5, 0.1]","[u'high', u'low', u'medium']","black",51,"right","medium","False","False",626,3200,NA
"A1CA6ZXKK09ZRI","Fri Sep 18 2020 18:53:15 GMT+0300 (East Africa Time)","Fri Sep 18 2020 19:57:41 GMT+0300 (East Africa Time)","Mozilla/5.0 (Windows NT 6.3; Win64; x64) AppleWebKit/537.36 (KHTML, like Gecko) Chrome/85.0.4183.102 Safari/537.36",51,"[0.9, 0.5, 0.1]","[0.8, 0.4, 0.2]","[u'red', u'blue', u'black']","[u'left', u'middle', u'right']","[0.9, 0.5, 0.1]","[u'high', u'low', u'medium']","blue",50,"middle","low","False","False",1011,3150,NA
"A1CA6ZXKK09ZRI","Fri Sep 18 2020 18:53:15 GMT+0300 (East Africa Time)","Fri Sep 18 2020 19:57:41 GMT+0300 (East Africa Time)","Mozilla/5.0 (Windows NT 6.3; Win64; x64) AppleWebKit/537.36 (KHTML, like Gecko) Chrome/85.0.4183.102 Safari/537.36",52,"[0.9, 0.5, 0.1]","[0.8, 0.4, 0.2]","[u'red', u'blue', u'black']","[u'left', u'middle', u'right']","[0.9, 0.5, 0.1]","[u'high', u'low', u'medium']","red",49,"left","high","True","False",91,3250,NA
"A1CA6ZXKK09ZRI","Fri Sep 18 2020 18:53:15 GMT+0300 (East Africa Time)","Fri Sep 18 2020 19:57:41 GMT+0300 (East Africa Time)","Mozilla/5.0 (Windows NT 6.3; Win64; x64) AppleWebKit/537.36 (KHTML, like Gecko) Chrome/85.0.4183.102 Safari/537.36",53,"[0.9, 0.5, 0.1]","[0.8, 0.4, 0.2]","[u'red', u'blue', u'black']","[u'left', u'middle', u'right']","[0.9, 0.5, 0.1]","[u'high', u'low', u'medium']","red",49,"left","high","True","False",315,3350,NA
"A1CA6ZXKK09ZRI","Fri Sep 18 2020 18:53:15 GMT+0300 (East Africa Time)","Fri Sep 18 2020 19:57:41 GMT+0300 (East Africa Time)","Mozilla/5.0 (Windows NT 6.3; Win64; x64) AppleWebKit/537.36 (KHTML, like Gecko) Chrome/85.0.4183.102 Safari/537.36",54,"[0.9, 0.5, 0.1]","[0.8, 0.4, 0.2]","[u'red', u'blue', u'black']","[u'left', u'middle', u'right']","[0.9, 0.5, 0.1]","[u'high', u'low', u'medium']","red",49,"left","high","True","False",522,3450,NA
"A1CA6ZXKK09ZRI","Fri Sep 18 2020 18:53:15 GMT+0300 (East Africa Time)","Fri Sep 18 2020 19:57:41 GMT+0300 (East Africa Time)","Mozilla/5.0 (Windows NT 6.3; Win64; x64) AppleWebKit/537.36 (KHTML, like Gecko) Chrome/85.0.4183.102 Safari/537.36",55,"[0.9, 0.5, 0.1]","[0.8, 0.4, 0.2]","[u'red', u'blue', u'black']","[u'left', u'middle', u'right']","[0.9, 0.5, 0.1]","[u'high', u'low', u'medium']","red",49,"left","high","True","False",426,3550,NA
"A1CA6ZXKK09ZRI","Fri Sep 18 2020 18:53:15 GMT+0300 (East Africa Time)","Fri Sep 18 2020 19:57:41 GMT+0300 (East Africa Time)","Mozilla/5.0 (Windows NT 6.3; Win64; x64) AppleWebKit/537.36 (KHTML, like Gecko) Chrome/85.0.4183.102 Safari/537.36",56,"[0.9, 0.5, 0.1]","[0.8, 0.4, 0.2]","[u'red', u'blue', u'black']","[u'left', u'middle', u'right']","[0.9, 0.5, 0.1]","[u'high', u'low', u'medium']","red",49,"left","high","True","False",322,3650,NA
"A1CA6ZXKK09ZRI","Fri Sep 18 2020 18:53:15 GMT+0300 (East Africa Time)","Fri Sep 18 2020 19:57:41 GMT+0300 (East Africa Time)","Mozilla/5.0 (Windows NT 6.3; Win64; x64) AppleWebKit/537.36 (KHTML, like Gecko) Chrome/85.0.4183.102 Safari/537.36",57,"[0.9, 0.5, 0.1]","[0.8, 0.4, 0.2]","[u'red', u'blue', u'black']","[u'left', u'middle', u'right']","[0.9, 0.5, 0.1]","[u'high', u'low', u'medium']","red",49,"left","high","True","False",1098,3750,NA
"A1CA6ZXKK09ZRI","Fri Sep 18 2020 18:53:15 GMT+0300 (East Africa Time)","Fri Sep 18 2020 19:57:41 GMT+0300 (East Africa Time)","Mozilla/5.0 (Windows NT 6.3; Win64; x64) AppleWebKit/537.36 (KHTML, like Gecko) Chrome/85.0.4183.102 Safari/537.36",58,"[0.9, 0.5, 0.1]","[0.8, 0.4, 0.2]","[u'red', u'blue', u'black']","[u'left', u'middle', u'right']","[0.9, 0.5, 0.1]","[u'high', u'low', u'medium']","red",49,"left","high","True","False",666,3850,NA
"A1CA6ZXKK09ZRI","Fri Sep 18 2020 18:53:15 GMT+0300 (East Africa Time)","Fri Sep 18 2020 19:57:41 GMT+0300 (East Africa Time)","Mozilla/5.0 (Windows NT 6.3; Win64; x64) AppleWebKit/537.36 (KHTML, like Gecko) Chrome/85.0.4183.102 Safari/537.36",59,"[0.9, 0.5, 0.1]","[0.8, 0.4, 0.2]","[u'red', u'blue', u'black']","[u'left', u'middle', u'right']","[0.9, 0.5, 0.1]","[u'high', u'low', u'medium']","red",49,"left","high","True","False",26,3950,NA
"A1CA6ZXKK09ZRI","Fri Sep 18 2020 18:53:15 GMT+0300 (East Africa Time)","Fri Sep 18 2020 19:57:41 GMT+0300 (East Africa Time)","Mozilla/5.0 (Windows NT 6.3; Win64; x64) AppleWebKit/537.36 (KHTML, like Gecko) Chrome/85.0.4183.102 Safari/537.36",60,"[0.9, 0.5, 0.1]","[0.8, 0.4, 0.2]","[u'red', u'blue', u'black']","[u'left', u'middle', u'right']","[0.9, 0.5, 0.1]","[u'high', u'low', u'medium']","red",49,"left","high","True","True",412,4050,NA
"A1CA6ZXKK09ZRI","Fri Sep 18 2020 18:53:15 GMT+0300 (East Africa Time)","Fri Sep 18 2020 19:57:41 GMT+0300 (East Africa Time)","Mozilla/5.0 (Windows NT 6.3; Win64; x64) AppleWebKit/537.36 (KHTML, like Gecko) Chrome/85.0.4183.102 Safari/537.36",61,"[0.9, 0.5, 0.1]","[0.8, 0.4, 0.2]","[u'red', u'blue', u'black']","[u'left', u'middle', u'right']","[0.9, 0.5, 0.1]","[u'low', u'medium', u'high']","red",49,"left","low","False","False",248,4000,NA
"A1CA6ZXKK09ZRI","Fri Sep 18 2020 18:53:15 GMT+0300 (East Africa Time)","Fri Sep 18 2020 19:57:41 GMT+0300 (East Africa Time)","Mozilla/5.0 (Windows NT 6.3; Win64; x64) AppleWebKit/537.36 (KHTML, like Gecko) Chrome/85.0.4183.102 Safari/537.36",62,"[0.9, 0.5, 0.1]","[0.8, 0.4, 0.2]","[u'red', u'blue', u'black']","[u'left', u'middle', u'right']","[0.9, 0.5, 0.1]","[u'low', u'medium', u'high']","black",51,"right","high","True","False",618,4100,NA
"A1CA6ZXKK09ZRI","Fri Sep 18 2020 18:53:15 GMT+0300 (East Africa Time)","Fri Sep 18 2020 19:57:41 GMT+0300 (East Africa Time)","Mozilla/5.0 (Windows NT 6.3; Win64; x64) AppleWebKit/537.36 (KHTML, like Gecko) Chrome/85.0.4183.102 Safari/537.36",63,"[0.9, 0.5, 0.1]","[0.8, 0.4, 0.2]","[u'red', u'blue', u'black']","[u'left', u'middle', u'right']","[0.9, 0.5, 0.1]","[u'low', u'medium', u'high']","black",51,"right","high","False","False",346,4050,NA
"A1CA6ZXKK09ZRI","Fri Sep 18 2020 18:53:15 GMT+0300 (East Africa Time)","Fri Sep 18 2020 19:57:41 GMT+0300 (East Africa Time)","Mozilla/5.0 (Windows NT 6.3; Win64; x64) AppleWebKit/537.36 (KHTML, like Gecko) Chrome/85.0.4183.102 Safari/537.36",64,"[0.9, 0.5, 0.1]","[0.8, 0.4, 0.2]","[u'red', u'blue', u'black']","[u'left', u'middle', u'right']","[0.9, 0.5, 0.1]","[u'low', u'medium', u'high']","blue",50,"middle","medium","False","False",42,4000,NA
"A1CA6ZXKK09ZRI","Fri Sep 18 2020 18:53:15 GMT+0300 (East Africa Time)","Fri Sep 18 2020 19:57:41 GMT+0300 (East Africa Time)","Mozilla/5.0 (Windows NT 6.3; Win64; x64) AppleWebKit/537.36 (KHTML, like Gecko) Chrome/85.0.4183.102 Safari/537.36",65,"[0.9, 0.5, 0.1]","[0.8, 0.4, 0.2]","[u'red', u'blue', u'black']","[u'left', u'middle', u'right']","[0.9, 0.5, 0.1]","[u'low', u'medium', u'high']","red",49,"left","low","False","False",163,3950,NA
"A1CA6ZXKK09ZRI","Fri Sep 18 2020 18:53:15 GMT+0300 (East Africa Time)","Fri Sep 18 2020 19:57:41 GMT+0300 (East Africa Time)","Mozilla/5.0 (Windows NT 6.3; Win64; x64) AppleWebKit/537.36 (KHTML, like Gecko) Chrome/85.0.4183.102 Safari/537.36",66,"[0.9, 0.5, 0.1]","[0.8, 0.4, 0.2]","[u'red', u'blue', u'black']","[u'left', u'middle', u'right']","[0.9, 0.5, 0.1]","[u'low', u'medium', u'high']","black",51,"right","high","True","False",411,4050,NA
"A1CA6ZXKK09ZRI","Fri Sep 18 2020 18:53:15 GMT+0300 (East Africa Time)","Fri Sep 18 2020 19:57:41 GMT+0300 (East Africa Time)","Mozilla/5.0 (Windows NT 6.3; Win64; x64) AppleWebKit/537.36 (KHTML, like Gecko) Chrome/85.0.4183.102 Safari/537.36",67,"[0.9, 0.5, 0.1]","[0.8, 0.4, 0.2]","[u'red', u'blue', u'black']","[u'left', u'middle', u'right']","[0.9, 0.5, 0.1]","[u'low', u'medium', u'high']","black",51,"right","high","True","False",434,4150,NA
"A1CA6ZXKK09ZRI","Fri Sep 18 2020 18:53:15 GMT+0300 (East Africa Time)","Fri Sep 18 2020 19:57:41 GMT+0300 (East Africa Time)","Mozilla/5.0 (Windows NT 6.3; Win64; x64) AppleWebKit/537.36 (KHTML, like Gecko) Chrome/85.0.4183.102 Safari/537.36",68,"[0.9, 0.5, 0.1]","[0.8, 0.4, 0.2]","[u'red', u'blue', u'black']","[u'left', u'middle', u'right']","[0.9, 0.5, 0.1]","[u'low', u'medium', u'high']","black",51,"right","high","True","False",163,4250,NA
"A1CA6ZXKK09ZRI","Fri Sep 18 2020 18:53:15 GMT+0300 (East Africa Time)","Fri Sep 18 2020 19:57:41 GMT+0300 (East Africa Time)","Mozilla/5.0 (Windows NT 6.3; Win64; x64) AppleWebKit/537.36 (KHTML, like Gecko) Chrome/85.0.4183.102 Safari/537.36",69,"[0.9, 0.5, 0.1]","[0.8, 0.4, 0.2]","[u'red', u'blue', u'black']","[u'left', u'middle', u'right']","[0.9, 0.5, 0.1]","[u'low', u'medium', u'high']","black",51,"right","high","True","False",379,4350,NA
"A1CA6ZXKK09ZRI","Fri Sep 18 2020 18:53:15 GMT+0300 (East Africa Time)","Fri Sep 18 2020 19:57:41 GMT+0300 (East Africa Time)","Mozilla/5.0 (Windows NT 6.3; Win64; x64) AppleWebKit/537.36 (KHTML, like Gecko) Chrome/85.0.4183.102 Safari/537.36",70,"[0.9, 0.5, 0.1]","[0.8, 0.4, 0.2]","[u'red', u'blue', u'black']","[u'left', u'middle', u'right']","[0.9, 0.5, 0.1]","[u'low', u'medium', u'high']","black",51,"right","high","True","False",186,4450,NA
"A1CA6ZXKK09ZRI","Fri Sep 18 2020 18:53:15 GMT+0300 (East Africa Time)","Fri Sep 18 2020 19:57:41 GMT+0300 (East Africa Time)","Mozilla/5.0 (Windows NT 6.3; Win64; x64) AppleWebKit/537.36 (KHTML, like Gecko) Chrome/85.0.4183.102 Safari/537.36",71,"[0.9, 0.5, 0.1]","[0.8, 0.4, 0.2]","[u'red', u'blue', u'black']","[u'left', u'middle', u'right']","[0.9, 0.5, 0.1]","[u'low', u'medium', u'high']","black",51,"right","high","True","False",130,4550,NA
"A1CA6ZXKK09ZRI","Fri Sep 18 2020 18:53:15 GMT+0300 (East Africa Time)","Fri Sep 18 2020 19:57:41 GMT+0300 (East Africa Time)","Mozilla/5.0 (Windows NT 6.3; Win64; x64) AppleWebKit/537.36 (KHTML, like Gecko) Chrome/85.0.4183.102 Safari/537.36",72,"[0.9, 0.5, 0.1]","[0.8, 0.4, 0.2]","[u'red', u'blue', u'black']","[u'left', u'middle', u'right']","[0.9, 0.5, 0.1]","[u'low', u'medium', u'high']","black",51,"right","high","True","False",97,4650,NA
"A1CA6ZXKK09ZRI","Fri Sep 18 2020 18:53:15 GMT+0300 (East Africa Time)","Fri Sep 18 2020 19:57:41 GMT+0300 (East Africa Time)","Mozilla/5.0 (Windows NT 6.3; Win64; x64) AppleWebKit/537.36 (KHTML, like Gecko) Chrome/85.0.4183.102 Safari/537.36",73,"[0.9, 0.5, 0.1]","[0.8, 0.4, 0.2]","[u'red', u'blue', u'black']","[u'left', u'middle', u'right']","[0.9, 0.5, 0.1]","[u'low', u'medium', u'high']","black",51,"right","high","True","False",147,4750,NA
"A1CA6ZXKK09ZRI","Fri Sep 18 2020 18:53:15 GMT+0300 (East Africa Time)","Fri Sep 18 2020 19:57:41 GMT+0300 (East Africa Time)","Mozilla/5.0 (Windows NT 6.3; Win64; x64) AppleWebKit/537.36 (KHTML, like Gecko) Chrome/85.0.4183.102 Safari/537.36",74,"[0.9, 0.5, 0.1]","[0.8, 0.4, 0.2]","[u'red', u'blue', u'black']","[u'left', u'middle', u'right']","[0.9, 0.5, 0.1]","[u'low', u'medium', u'high']","black",51,"right","high","True","True",314,4850,NA
"A1CA6ZXKK09ZRI","Fri Sep 18 2020 18:53:15 GMT+0300 (East Africa Time)","Fri Sep 18 2020 19:57:41 GMT+0300 (East Africa Time)","Mozilla/5.0 (Windows NT 6.3; Win64; x64) AppleWebKit/537.36 (KHTML, like Gecko) Chrome/85.0.4183.102 Safari/537.36",75,"[0.9, 0.5, 0.1]","[0.8, 0.4, 0.2]","[u'red', u'blue', u'black']","[u'left', u'middle', u'right']","[0.9, 0.5, 0.1]","[u'low', u'high', u'medium']","black",51,"right","medium","True","False",314,4950,NA
"A1CA6ZXKK09ZRI","Fri Sep 18 2020 18:53:15 GMT+0300 (East Africa Time)","Fri Sep 18 2020 19:57:41 GMT+0300 (East Africa Time)","Mozilla/5.0 (Windows NT 6.3; Win64; x64) AppleWebKit/537.36 (KHTML, like Gecko) Chrome/85.0.4183.102 Safari/537.36",76,"[0.9, 0.5, 0.1]","[0.8, 0.4, 0.2]","[u'red', u'blue', u'black']","[u'left', u'middle', u'right']","[0.9, 0.5, 0.1]","[u'low', u'high', u'medium']","black",51,"right","medium","False","False",419,4900,NA
"A1CA6ZXKK09ZRI","Fri Sep 18 2020 18:53:15 GMT+0300 (East Africa Time)","Fri Sep 18 2020 19:57:41 GMT+0300 (East Africa Time)","Mozilla/5.0 (Windows NT 6.3; Win64; x64) AppleWebKit/537.36 (KHTML, like Gecko) Chrome/85.0.4183.102 Safari/537.36",77,"[0.9, 0.5, 0.1]","[0.8, 0.4, 0.2]","[u'red', u'blue', u'black']","[u'left', u'middle', u'right']","[0.9, 0.5, 0.1]","[u'low', u'high', u'medium']","blue",50,"middle","high","True","False",554,5000,NA
"A1CA6ZXKK09ZRI","Fri Sep 18 2020 18:53:15 GMT+0300 (East Africa Time)","Fri Sep 18 2020 19:57:41 GMT+0300 (East Africa Time)","Mozilla/5.0 (Windows NT 6.3; Win64; x64) AppleWebKit/537.36 (KHTML, like Gecko) Chrome/85.0.4183.102 Safari/537.36",78,"[0.9, 0.5, 0.1]","[0.8, 0.4, 0.2]","[u'red', u'blue', u'black']","[u'left', u'middle', u'right']","[0.9, 0.5, 0.1]","[u'low', u'high', u'medium']","blue",50,"middle","high","True","False",289,5100,NA
"A1CA6ZXKK09ZRI","Fri Sep 18 2020 18:53:15 GMT+0300 (East Africa Time)","Fri Sep 18 2020 19:57:41 GMT+0300 (East Africa Time)","Mozilla/5.0 (Windows NT 6.3; Win64; x64) AppleWebKit/537.36 (KHTML, like Gecko) Chrome/85.0.4183.102 Safari/537.36",79,"[0.9, 0.5, 0.1]","[0.8, 0.4, 0.2]","[u'red', u'blue', u'black']","[u'left', u'middle', u'right']","[0.9, 0.5, 0.1]","[u'low', u'high', u'medium']","blue",50,"middle","high","True","False",482,5200,NA
"A1CA6ZXKK09ZRI","Fri Sep 18 2020 18:53:15 GMT+0300 (East Africa Time)","Fri Sep 18 2020 19:57:41 GMT+0300 (East Africa Time)","Mozilla/5.0 (Windows NT 6.3; Win64; x64) AppleWebKit/537.36 (KHTML, like Gecko) Chrome/85.0.4183.102 Safari/537.36",80,"[0.9, 0.5, 0.1]","[0.8, 0.4, 0.2]","[u'red', u'blue', u'black']","[u'left', u'middle', u'right']","[0.9, 0.5, 0.1]","[u'low', u'high', u'medium']","blue",50,"middle","high","True","False",275,5300,NA
"A1CA6ZXKK09ZRI","Fri Sep 18 2020 18:53:15 GMT+0300 (East Africa Time)","Fri Sep 18 2020 19:57:41 GMT+0300 (East Africa Time)","Mozilla/5.0 (Windows NT 6.3; Win64; x64) AppleWebKit/537.36 (KHTML, like Gecko) Chrome/85.0.4183.102 Safari/537.36",81,"[0.9, 0.5, 0.1]","[0.8, 0.4, 0.2]","[u'red', u'blue', u'black']","[u'left', u'middle', u'right']","[0.8, 0.4, 0.2]","[u'low', u'medium', u'high']","red",49,"left","low","False","False",617,5250,NA
"A1CA6ZXKK09ZRI","Fri Sep 18 2020 18:53:15 GMT+0300 (East Africa Time)","Fri Sep 18 2020 19:57:41 GMT+0300 (East Africa Time)","Mozilla/5.0 (Windows NT 6.3; Win64; x64) AppleWebKit/537.36 (KHTML, like Gecko) Chrome/85.0.4183.102 Safari/537.36",82,"[0.9, 0.5, 0.1]","[0.8, 0.4, 0.2]","[u'red', u'blue', u'black']","[u'left', u'middle', u'right']","[0.8, 0.4, 0.2]","[u'low', u'medium', u'high']","blue",50,"middle","medium","False","False",187,5200,NA
"A1CA6ZXKK09ZRI","Fri Sep 18 2020 18:53:15 GMT+0300 (East Africa Time)","Fri Sep 18 2020 19:57:41 GMT+0300 (East Africa Time)","Mozilla/5.0 (Windows NT 6.3; Win64; x64) AppleWebKit/537.36 (KHTML, like Gecko) Chrome/85.0.4183.102 Safari/537.36",83,"[0.9, 0.5, 0.1]","[0.8, 0.4, 0.2]","[u'red', u'blue', u'black']","[u'left', u'middle', u'right']","[0.8, 0.4, 0.2]","[u'low', u'medium', u'high']","black",51,"right","high","True","False",378,5300,NA
"A1CA6ZXKK09ZRI","Fri Sep 18 2020 18:53:15 GMT+0300 (East Africa Time)","Fri Sep 18 2020 19:57:41 GMT+0300 (East Africa Time)","Mozilla/5.0 (Windows NT 6.3; Win64; x64) AppleWebKit/537.36 (KHTML, like Gecko) Chrome/85.0.4183.102 Safari/537.36",84,"[0.9, 0.5, 0.1]","[0.8, 0.4, 0.2]","[u'red', u'blue', u'black']","[u'left', u'middle', u'right']","[0.8, 0.4, 0.2]","[u'low', u'medium', u'high']","black",51,"right","high","True","False",3098,5400,NA
"A1CA6ZXKK09ZRI","Fri Sep 18 2020 18:53:15 GMT+0300 (East Africa Time)","Fri Sep 18 2020 19:57:41 GMT+0300 (East Africa Time)","Mozilla/5.0 (Windows NT 6.3; Win64; x64) AppleWebKit/537.36 (KHTML, like Gecko) Chrome/85.0.4183.102 Safari/537.36",85,"[0.9, 0.5, 0.1]","[0.8, 0.4, 0.2]","[u'red', u'blue', u'black']","[u'left', u'middle', u'right']","[0.8, 0.4, 0.2]","[u'low', u'medium', u'high']","black",51,"right","high","False","False",4745,5350,NA
"A1CA6ZXKK09ZRI","Fri Sep 18 2020 18:53:15 GMT+0300 (East Africa Time)","Fri Sep 18 2020 19:57:41 GMT+0300 (East Africa Time)","Mozilla/5.0 (Windows NT 6.3; Win64; x64) AppleWebKit/537.36 (KHTML, like Gecko) Chrome/85.0.4183.102 Safari/537.36",86,"[0.9, 0.5, 0.1]","[0.8, 0.4, 0.2]","[u'red', u'blue', u'black']","[u'left', u'middle', u'right']","[0.8, 0.4, 0.2]","[u'low', u'medium', u'high']","blue",50,"middle","medium","True","False",619,5450,NA
"A1CA6ZXKK09ZRI","Fri Sep 18 2020 18:53:15 GMT+0300 (East Africa Time)","Fri Sep 18 2020 19:57:41 GMT+0300 (East Africa Time)","Mozilla/5.0 (Windows NT 6.3; Win64; x64) AppleWebKit/537.36 (KHTML, like Gecko) Chrome/85.0.4183.102 Safari/537.36",87,"[0.9, 0.5, 0.1]","[0.8, 0.4, 0.2]","[u'red', u'blue', u'black']","[u'left', u'middle', u'right']","[0.8, 0.4, 0.2]","[u'low', u'medium', u'high']","blue",50,"middle","medium","False","False",132,5400,NA
"A1CA6ZXKK09ZRI","Fri Sep 18 2020 18:53:15 GMT+0300 (East Africa Time)","Fri Sep 18 2020 19:57:41 GMT+0300 (East Africa Time)","Mozilla/5.0 (Windows NT 6.3; Win64; x64) AppleWebKit/537.36 (KHTML, like Gecko) Chrome/85.0.4183.102 Safari/537.36",88,"[0.9, 0.5, 0.1]","[0.8, 0.4, 0.2]","[u'red', u'blue', u'black']","[u'left', u'middle', u'right']","[0.8, 0.4, 0.2]","[u'low', u'medium', u'high']","red",49,"left","low","False","False",33,5350,NA
"A1CA6ZXKK09ZRI","Fri Sep 18 2020 18:53:15 GMT+0300 (East Africa Time)","Fri Sep 18 2020 19:57:41 GMT+0300 (East Africa Time)","Mozilla/5.0 (Windows NT 6.3; Win64; x64) AppleWebKit/537.36 (KHTML, like Gecko) Chrome/85.0.4183.102 Safari/537.36",89,"[0.9, 0.5, 0.1]","[0.8, 0.4, 0.2]","[u'red', u'blue', u'black']","[u'left', u'middle', u'right']","[0.8, 0.4, 0.2]","[u'low', u'medium', u'high']","black",51,"right","high","True","False",650,5450,NA
"A1CA6ZXKK09ZRI","Fri Sep 18 2020 18:53:15 GMT+0300 (East Africa Time)","Fri Sep 18 2020 19:57:41 GMT+0300 (East Africa Time)","Mozilla/5.0 (Windows NT 6.3; Win64; x64) AppleWebKit/537.36 (KHTML, like Gecko) Chrome/85.0.4183.102 Safari/537.36",90,"[0.9, 0.5, 0.1]","[0.8, 0.4, 0.2]","[u'red', u'blue', u'black']","[u'left', u'middle', u'right']","[0.8, 0.4, 0.2]","[u'low', u'medium', u'high']","black",51,"right","high","True","False",1956,5550,NA
"A1CA6ZXKK09ZRI","Fri Sep 18 2020 18:53:15 GMT+0300 (East Africa Time)","Fri Sep 18 2020 19:57:41 GMT+0300 (East Africa Time)","Mozilla/5.0 (Windows NT 6.3; Win64; x64) AppleWebKit/537.36 (KHTML, like Gecko) Chrome/85.0.4183.102 Safari/537.36",91,"[0.9, 0.5, 0.1]","[0.8, 0.4, 0.2]","[u'red', u'blue', u'black']","[u'left', u'middle', u'right']","[0.8, 0.4, 0.2]","[u'low', u'medium', u'high']","black",51,"right","high","False","False",649,5500,NA
"A1CA6ZXKK09ZRI","Fri Sep 18 2020 18:53:15 GMT+0300 (East Africa Time)","Fri Sep 18 2020 19:57:41 GMT+0300 (East Africa Time)","Mozilla/5.0 (Windows NT 6.3; Win64; x64) AppleWebKit/537.36 (KHTML, like Gecko) Chrome/85.0.4183.102 Safari/537.36",92,"[0.9, 0.5, 0.1]","[0.8, 0.4, 0.2]","[u'red', u'blue', u'black']","[u'left', u'middle', u'right']","[0.8, 0.4, 0.2]","[u'low', u'medium', u'high']","blue",50,"middle","medium","True","False",467,5600,NA
"A1CA6ZXKK09ZRI","Fri Sep 18 2020 18:53:15 GMT+0300 (East Africa Time)","Fri Sep 18 2020 19:57:41 GMT+0300 (East Africa Time)","Mozilla/5.0 (Windows NT 6.3; Win64; x64) AppleWebKit/537.36 (KHTML, like Gecko) Chrome/85.0.4183.102 Safari/537.36",93,"[0.9, 0.5, 0.1]","[0.8, 0.4, 0.2]","[u'red', u'blue', u'black']","[u'left', u'middle', u'right']","[0.8, 0.4, 0.2]","[u'low', u'medium', u'high']","red",49,"left","low","False","False",339,5550,NA
"A1CA6ZXKK09ZRI","Fri Sep 18 2020 18:53:15 GMT+0300 (East Africa Time)","Fri Sep 18 2020 19:57:41 GMT+0300 (East Africa Time)","Mozilla/5.0 (Windows NT 6.3; Win64; x64) AppleWebKit/537.36 (KHTML, like Gecko) Chrome/85.0.4183.102 Safari/537.36",94,"[0.9, 0.5, 0.1]","[0.8, 0.4, 0.2]","[u'red', u'blue', u'black']","[u'left', u'middle', u'right']","[0.8, 0.4, 0.2]","[u'low', u'medium', u'high']","black",51,"right","high","False","False",474,5500,NA
"A1CA6ZXKK09ZRI","Fri Sep 18 2020 18:53:15 GMT+0300 (East Africa Time)","Fri Sep 18 2020 19:57:41 GMT+0300 (East Africa Time)","Mozilla/5.0 (Windows NT 6.3; Win64; x64) AppleWebKit/537.36 (KHTML, like Gecko) Chrome/85.0.4183.102 Safari/537.36",95,"[0.9, 0.5, 0.1]","[0.8, 0.4, 0.2]","[u'red', u'blue', u'black']","[u'left', u'middle', u'right']","[0.8, 0.4, 0.2]","[u'low', u'medium', u'high']","blue",50,"middle","medium","False","False",364,5450,NA
"A1CA6ZXKK09ZRI","Fri Sep 18 2020 18:53:15 GMT+0300 (East Africa Time)","Fri Sep 18 2020 19:57:41 GMT+0300 (East Africa Time)","Mozilla/5.0 (Windows NT 6.3; Win64; x64) AppleWebKit/537.36 (KHTML, like Gecko) Chrome/85.0.4183.102 Safari/537.36",96,"[0.9, 0.5, 0.1]","[0.8, 0.4, 0.2]","[u'red', u'blue', u'black']","[u'left', u'middle', u'right']","[0.8, 0.4, 0.2]","[u'low', u'medium', u'high']","red",49,"left","low","False","False",73,5400,NA
"A1CA6ZXKK09ZRI","Fri Sep 18 2020 18:53:15 GMT+0300 (East Africa Time)","Fri Sep 18 2020 19:57:41 GMT+0300 (East Africa Time)","Mozilla/5.0 (Windows NT 6.3; Win64; x64) AppleWebKit/537.36 (KHTML, like Gecko) Chrome/85.0.4183.102 Safari/537.36",97,"[0.9, 0.5, 0.1]","[0.8, 0.4, 0.2]","[u'red', u'blue', u'black']","[u'left', u'middle', u'right']","[0.8, 0.4, 0.2]","[u'low', u'medium', u'high']","black",51,"right","high","True","False",579,5500,NA
"A1CA6ZXKK09ZRI","Fri Sep 18 2020 18:53:15 GMT+0300 (East Africa Time)","Fri Sep 18 2020 19:57:41 GMT+0300 (East Africa Time)","Mozilla/5.0 (Windows NT 6.3; Win64; x64) AppleWebKit/537.36 (KHTML, like Gecko) Chrome/85.0.4183.102 Safari/537.36",98,"[0.9, 0.5, 0.1]","[0.8, 0.4, 0.2]","[u'red', u'blue', u'black']","[u'left', u'middle', u'right']","[0.8, 0.4, 0.2]","[u'low', u'medium', u'high']","black",51,"right","high","True","False",123,5600,NA
"A1CA6ZXKK09ZRI","Fri Sep 18 2020 18:53:15 GMT+0300 (East Africa Time)","Fri Sep 18 2020 19:57:41 GMT+0300 (East Africa Time)","Mozilla/5.0 (Windows NT 6.3; Win64; x64) AppleWebKit/537.36 (KHTML, like Gecko) Chrome/85.0.4183.102 Safari/537.36",99,"[0.9, 0.5, 0.1]","[0.8, 0.4, 0.2]","[u'red', u'blue', u'black']","[u'left', u'middle', u'right']","[0.8, 0.4, 0.2]","[u'low', u'medium', u'high']","black",51,"right","high","False","False",482,5550,NA
"A1CA6ZXKK09ZRI","Fri Sep 18 2020 18:53:15 GMT+0300 (East Africa Time)","Fri Sep 18 2020 19:57:41 GMT+0300 (East Africa Time)","Mozilla/5.0 (Windows NT 6.3; Win64; x64) AppleWebKit/537.36 (KHTML, like Gecko) Chrome/85.0.4183.102 Safari/537.36",100,"[0.9, 0.5, 0.1]","[0.8, 0.4, 0.2]","[u'red', u'blue', u'black']","[u'left', u'middle', u'right']","[0.8, 0.4, 0.2]","[u'low', u'medium', u'high']","red",49,"left","low","False","False",388,5500,NA
"A1CA6ZXKK09ZRI","Fri Sep 18 2020 18:53:15 GMT+0300 (East Africa Time)","Fri Sep 18 2020 19:57:41 GMT+0300 (East Africa Time)","Mozilla/5.0 (Windows NT 6.3; Win64; x64) AppleWebKit/537.36 (KHTML, like Gecko) Chrome/85.0.4183.102 Safari/537.36",101,"[0.9, 0.5, 0.1]","[0.8, 0.4, 0.2]","[u'red', u'blue', u'black']","[u'left', u'middle', u'right']","[0.8, 0.4, 0.2]","[u'low', u'medium', u'high']","blue",50,"middle","medium","True","False",858,5600,NA
"A1CA6ZXKK09ZRI","Fri Sep 18 2020 18:53:15 GMT+0300 (East Africa Time)","Fri Sep 18 2020 19:57:41 GMT+0300 (East Africa Time)","Mozilla/5.0 (Windows NT 6.3; Win64; x64) AppleWebKit/537.36 (KHTML, like Gecko) Chrome/85.0.4183.102 Safari/537.36",102,"[0.9, 0.5, 0.1]","[0.8, 0.4, 0.2]","[u'red', u'blue', u'black']","[u'left', u'middle', u'right']","[0.8, 0.4, 0.2]","[u'low', u'medium', u'high']","blue",50,"middle","medium","False","False",180,5550,NA
"A1CA6ZXKK09ZRI","Fri Sep 18 2020 18:53:15 GMT+0300 (East Africa Time)","Fri Sep 18 2020 19:57:41 GMT+0300 (East Africa Time)","Mozilla/5.0 (Windows NT 6.3; Win64; x64) AppleWebKit/537.36 (KHTML, like Gecko) Chrome/85.0.4183.102 Safari/537.36",103,"[0.9, 0.5, 0.1]","[0.8, 0.4, 0.2]","[u'red', u'blue', u'black']","[u'left', u'middle', u'right']","[0.8, 0.4, 0.2]","[u'low', u'medium', u'high']","black",51,"right","high","True","False",3026,5650,NA
"A1CA6ZXKK09ZRI","Fri Sep 18 2020 18:53:15 GMT+0300 (East Africa Time)","Fri Sep 18 2020 19:57:41 GMT+0300 (East Africa Time)","Mozilla/5.0 (Windows NT 6.3; Win64; x64) AppleWebKit/537.36 (KHTML, like Gecko) Chrome/85.0.4183.102 Safari/537.36",104,"[0.9, 0.5, 0.1]","[0.8, 0.4, 0.2]","[u'red', u'blue', u'black']","[u'left', u'middle', u'right']","[0.8, 0.4, 0.2]","[u'low', u'medium', u'high']","black",51,"right","high","True","False",673,5750,NA
"A1CA6ZXKK09ZRI","Fri Sep 18 2020 18:53:15 GMT+0300 (East Africa Time)","Fri Sep 18 2020 19:57:41 GMT+0300 (East Africa Time)","Mozilla/5.0 (Windows NT 6.3; Win64; x64) AppleWebKit/537.36 (KHTML, like Gecko) Chrome/85.0.4183.102 Safari/537.36",105,"[0.9, 0.5, 0.1]","[0.8, 0.4, 0.2]","[u'red', u'blue', u'black']","[u'left', u'middle', u'right']","[0.8, 0.4, 0.2]","[u'low', u'medium', u'high']","black",51,"right","high","True","False",1299,5850,NA
"A1CA6ZXKK09ZRI","Fri Sep 18 2020 18:53:15 GMT+0300 (East Africa Time)","Fri Sep 18 2020 19:57:41 GMT+0300 (East Africa Time)","Mozilla/5.0 (Windows NT 6.3; Win64; x64) AppleWebKit/537.36 (KHTML, like Gecko) Chrome/85.0.4183.102 Safari/537.36",106,"[0.9, 0.5, 0.1]","[0.8, 0.4, 0.2]","[u'red', u'blue', u'black']","[u'left', u'middle', u'right']","[0.8, 0.4, 0.2]","[u'low', u'medium', u'high']","black",51,"right","high","True","False",826,5950,NA
"A1CA6ZXKK09ZRI","Fri Sep 18 2020 18:53:15 GMT+0300 (East Africa Time)","Fri Sep 18 2020 19:57:41 GMT+0300 (East Africa Time)","Mozilla/5.0 (Windows NT 6.3; Win64; x64) AppleWebKit/537.36 (KHTML, like Gecko) Chrome/85.0.4183.102 Safari/537.36",107,"[0.9, 0.5, 0.1]","[0.8, 0.4, 0.2]","[u'red', u'blue', u'black']","[u'left', u'middle', u'right']","[0.8, 0.4, 0.2]","[u'low', u'medium', u'high']","black",51,"right","high","False","False",529,5900,NA
"A1CA6ZXKK09ZRI","Fri Sep 18 2020 18:53:15 GMT+0300 (East Africa Time)","Fri Sep 18 2020 19:57:41 GMT+0300 (East Africa Time)","Mozilla/5.0 (Windows NT 6.3; Win64; x64) AppleWebKit/537.36 (KHTML, like Gecko) Chrome/85.0.4183.102 Safari/537.36",108,"[0.9, 0.5, 0.1]","[0.8, 0.4, 0.2]","[u'red', u'blue', u'black']","[u'left', u'middle', u'right']","[0.8, 0.4, 0.2]","[u'low', u'medium', u'high']","red",49,"left","low","False","False",75,5850,NA
"A1CA6ZXKK09ZRI","Fri Sep 18 2020 18:53:15 GMT+0300 (East Africa Time)","Fri Sep 18 2020 19:57:41 GMT+0300 (East Africa Time)","Mozilla/5.0 (Windows NT 6.3; Win64; x64) AppleWebKit/537.36 (KHTML, like Gecko) Chrome/85.0.4183.102 Safari/537.36",109,"[0.9, 0.5, 0.1]","[0.8, 0.4, 0.2]","[u'red', u'blue', u'black']","[u'left', u'middle', u'right']","[0.8, 0.4, 0.2]","[u'low', u'medium', u'high']","blue",50,"middle","medium","False","False",906,5800,NA
"A1CA6ZXKK09ZRI","Fri Sep 18 2020 18:53:15 GMT+0300 (East Africa Time)","Fri Sep 18 2020 19:57:41 GMT+0300 (East Africa Time)","Mozilla/5.0 (Windows NT 6.3; Win64; x64) AppleWebKit/537.36 (KHTML, like Gecko) Chrome/85.0.4183.102 Safari/537.36",110,"[0.9, 0.5, 0.1]","[0.8, 0.4, 0.2]","[u'red', u'blue', u'black']","[u'left', u'middle', u'right']","[0.8, 0.4, 0.2]","[u'low', u'medium', u'high']","black",51,"right","high","False","False",107,5750,NA
"A1CA6ZXKK09ZRI","Fri Sep 18 2020 18:53:15 GMT+0300 (East Africa Time)","Fri Sep 18 2020 19:57:41 GMT+0300 (East Africa Time)","Mozilla/5.0 (Windows NT 6.3; Win64; x64) AppleWebKit/537.36 (KHTML, like Gecko) Chrome/85.0.4183.102 Safari/537.36",111,"[0.9, 0.5, 0.1]","[0.8, 0.4, 0.2]","[u'red', u'blue', u'black']","[u'left', u'middle', u'right']","[0.8, 0.4, 0.2]","[u'low', u'medium', u'high']","red",49,"left","low","False","False",562,5700,NA
"A1CA6ZXKK09ZRI","Fri Sep 18 2020 18:53:15 GMT+0300 (East Africa Time)","Fri Sep 18 2020 19:57:41 GMT+0300 (East Africa Time)","Mozilla/5.0 (Windows NT 6.3; Win64; x64) AppleWebKit/537.36 (KHTML, like Gecko) Chrome/85.0.4183.102 Safari/537.36",112,"[0.9, 0.5, 0.1]","[0.8, 0.4, 0.2]","[u'red', u'blue', u'black']","[u'left', u'middle', u'right']","[0.8, 0.4, 0.2]","[u'low', u'medium', u'high']","red",49,"left","low","False","False",34,5650,NA
"A1CA6ZXKK09ZRI","Fri Sep 18 2020 18:53:15 GMT+0300 (East Africa Time)","Fri Sep 18 2020 19:57:41 GMT+0300 (East Africa Time)","Mozilla/5.0 (Windows NT 6.3; Win64; x64) AppleWebKit/537.36 (KHTML, like Gecko) Chrome/85.0.4183.102 Safari/537.36",113,"[0.9, 0.5, 0.1]","[0.8, 0.4, 0.2]","[u'red', u'blue', u'black']","[u'left', u'middle', u'right']","[0.8, 0.4, 0.2]","[u'low', u'medium', u'high']","red",49,"left","low","False","False",74,5600,NA
"A1CA6ZXKK09ZRI","Fri Sep 18 2020 18:53:15 GMT+0300 (East Africa Time)","Fri Sep 18 2020 19:57:41 GMT+0300 (East Africa Time)","Mozilla/5.0 (Windows NT 6.3; Win64; x64) AppleWebKit/537.36 (KHTML, like Gecko) Chrome/85.0.4183.102 Safari/537.36",114,"[0.9, 0.5, 0.1]","[0.8, 0.4, 0.2]","[u'red', u'blue', u'black']","[u'left', u'middle', u'right']","[0.8, 0.4, 0.2]","[u'low', u'medium', u'high']","blue",50,"middle","medium","True","False",450,5700,NA
"A1CA6ZXKK09ZRI","Fri Sep 18 2020 18:53:15 GMT+0300 (East Africa Time)","Fri Sep 18 2020 19:57:41 GMT+0300 (East Africa Time)","Mozilla/5.0 (Windows NT 6.3; Win64; x64) AppleWebKit/537.36 (KHTML, like Gecko) Chrome/85.0.4183.102 Safari/537.36",115,"[0.9, 0.5, 0.1]","[0.8, 0.4, 0.2]","[u'red', u'blue', u'black']","[u'left', u'middle', u'right']","[0.8, 0.4, 0.2]","[u'low', u'medium', u'high']","blue",50,"middle","medium","False","False",513,5650,NA
"A1CA6ZXKK09ZRI","Fri Sep 18 2020 18:53:15 GMT+0300 (East Africa Time)","Fri Sep 18 2020 19:57:41 GMT+0300 (East Africa Time)","Mozilla/5.0 (Windows NT 6.3; Win64; x64) AppleWebKit/537.36 (KHTML, like Gecko) Chrome/85.0.4183.102 Safari/537.36",116,"[0.9, 0.5, 0.1]","[0.8, 0.4, 0.2]","[u'red', u'blue', u'black']","[u'left', u'middle', u'right']","[0.8, 0.4, 0.2]","[u'low', u'medium', u'high']","black",51,"right","high","True","False",307,5750,NA
"A1CA6ZXKK09ZRI","Fri Sep 18 2020 18:53:15 GMT+0300 (East Africa Time)","Fri Sep 18 2020 19:57:41 GMT+0300 (East Africa Time)","Mozilla/5.0 (Windows NT 6.3; Win64; x64) AppleWebKit/537.36 (KHTML, like Gecko) Chrome/85.0.4183.102 Safari/537.36",117,"[0.9, 0.5, 0.1]","[0.8, 0.4, 0.2]","[u'red', u'blue', u'black']","[u'left', u'middle', u'right']","[0.8, 0.4, 0.2]","[u'low', u'medium', u'high']","black",51,"right","high","True","False",267,5850,NA
"A1CA6ZXKK09ZRI","Fri Sep 18 2020 18:53:15 GMT+0300 (East Africa Time)","Fri Sep 18 2020 19:57:41 GMT+0300 (East Africa Time)","Mozilla/5.0 (Windows NT 6.3; Win64; x64) AppleWebKit/537.36 (KHTML, like Gecko) Chrome/85.0.4183.102 Safari/537.36",118,"[0.9, 0.5, 0.1]","[0.8, 0.4, 0.2]","[u'red', u'blue', u'black']","[u'left', u'middle', u'right']","[0.8, 0.4, 0.2]","[u'low', u'medium', u'high']","black",51,"right","high","True","False",1187,5950,NA
"A1CA6ZXKK09ZRI","Fri Sep 18 2020 18:53:15 GMT+0300 (East Africa Time)","Fri Sep 18 2020 19:57:41 GMT+0300 (East Africa Time)","Mozilla/5.0 (Windows NT 6.3; Win64; x64) AppleWebKit/537.36 (KHTML, like Gecko) Chrome/85.0.4183.102 Safari/537.36",119,"[0.9, 0.5, 0.1]","[0.8, 0.4, 0.2]","[u'red', u'blue', u'black']","[u'left', u'middle', u'right']","[0.8, 0.4, 0.2]","[u'low', u'medium', u'high']","black",51,"right","high","False","False",379,5900,NA
"A1CA6ZXKK09ZRI","Fri Sep 18 2020 18:53:15 GMT+0300 (East Africa Time)","Fri Sep 18 2020 19:57:41 GMT+0300 (East Africa Time)","Mozilla/5.0 (Windows NT 6.3; Win64; x64) AppleWebKit/537.36 (KHTML, like Gecko) Chrome/85.0.4183.102 Safari/537.36",120,"[0.9, 0.5, 0.1]","[0.8, 0.4, 0.2]","[u'red', u'blue', u'black']","[u'left', u'middle', u'right']","[0.8, 0.4, 0.2]","[u'low', u'medium', u'high']","black",51,"right","high","True","False",617,6000,NA
"A1CA6ZXKK09ZRI","Fri Sep 18 2020 18:53:15 GMT+0300 (East Africa Time)","Fri Sep 18 2020 19:57:41 GMT+0300 (East Africa Time)","Mozilla/5.0 (Windows NT 6.3; Win64; x64) AppleWebKit/537.36 (KHTML, like Gecko) Chrome/85.0.4183.102 Safari/537.36",121,"[0.9, 0.5, 0.1]","[0.8, 0.4, 0.2]","[u'red', u'blue', u'black']","[u'left', u'middle', u'right']","[0.8, 0.4, 0.2]","[u'high', u'medium', u'low']","black",51,"right","low","False","False",2843,5950,NA
"A1CA6ZXKK09ZRI","Fri Sep 18 2020 18:53:15 GMT+0300 (East Africa Time)","Fri Sep 18 2020 19:57:41 GMT+0300 (East Africa Time)","Mozilla/5.0 (Windows NT 6.3; Win64; x64) AppleWebKit/537.36 (KHTML, like Gecko) Chrome/85.0.4183.102 Safari/537.36",122,"[0.9, 0.5, 0.1]","[0.8, 0.4, 0.2]","[u'red', u'blue', u'black']","[u'left', u'middle', u'right']","[0.8, 0.4, 0.2]","[u'high', u'medium', u'low']","red",49,"left","high","True","False",299,6050,NA
"A1CA6ZXKK09ZRI","Fri Sep 18 2020 18:53:15 GMT+0300 (East Africa Time)","Fri Sep 18 2020 19:57:41 GMT+0300 (East Africa Time)","Mozilla/5.0 (Windows NT 6.3; Win64; x64) AppleWebKit/537.36 (KHTML, like Gecko) Chrome/85.0.4183.102 Safari/537.36",123,"[0.9, 0.5, 0.1]","[0.8, 0.4, 0.2]","[u'red', u'blue', u'black']","[u'left', u'middle', u'right']","[0.8, 0.4, 0.2]","[u'high', u'medium', u'low']","red",49,"left","high","True","False",329,6150,NA
"A1CA6ZXKK09ZRI","Fri Sep 18 2020 18:53:15 GMT+0300 (East Africa Time)","Fri Sep 18 2020 19:57:41 GMT+0300 (East Africa Time)","Mozilla/5.0 (Windows NT 6.3; Win64; x64) AppleWebKit/537.36 (KHTML, like Gecko) Chrome/85.0.4183.102 Safari/537.36",124,"[0.9, 0.5, 0.1]","[0.8, 0.4, 0.2]","[u'red', u'blue', u'black']","[u'left', u'middle', u'right']","[0.8, 0.4, 0.2]","[u'high', u'medium', u'low']","red",49,"left","high","True","False",363,6250,NA
"A1CA6ZXKK09ZRI","Fri Sep 18 2020 18:53:15 GMT+0300 (East Africa Time)","Fri Sep 18 2020 19:57:41 GMT+0300 (East Africa Time)","Mozilla/5.0 (Windows NT 6.3; Win64; x64) AppleWebKit/537.36 (KHTML, like Gecko) Chrome/85.0.4183.102 Safari/537.36",125,"[0.9, 0.5, 0.1]","[0.8, 0.4, 0.2]","[u'red', u'blue', u'black']","[u'left', u'middle', u'right']","[0.8, 0.4, 0.2]","[u'high', u'medium', u'low']","red",49,"left","high","True","False",651,6350,NA
"A1CA6ZXKK09ZRI","Fri Sep 18 2020 18:53:15 GMT+0300 (East Africa Time)","Fri Sep 18 2020 19:57:41 GMT+0300 (East Africa Time)","Mozilla/5.0 (Windows NT 6.3; Win64; x64) AppleWebKit/537.36 (KHTML, like Gecko) Chrome/85.0.4183.102 Safari/537.36",126,"[0.9, 0.5, 0.1]","[0.8, 0.4, 0.2]","[u'red', u'blue', u'black']","[u'left', u'middle', u'right']","[0.8, 0.4, 0.2]","[u'high', u'medium', u'low']","red",49,"left","high","False","False",329,6300,NA
"A1CA6ZXKK09ZRI","Fri Sep 18 2020 18:53:15 GMT+0300 (East Africa Time)","Fri Sep 18 2020 19:57:41 GMT+0300 (East Africa Time)","Mozilla/5.0 (Windows NT 6.3; Win64; x64) AppleWebKit/537.36 (KHTML, like Gecko) Chrome/85.0.4183.102 Safari/537.36",127,"[0.9, 0.5, 0.1]","[0.8, 0.4, 0.2]","[u'red', u'blue', u'black']","[u'left', u'middle', u'right']","[0.8, 0.4, 0.2]","[u'high', u'medium', u'low']","red",49,"left","high","True","False",98,6400,NA
"A1CA6ZXKK09ZRI","Fri Sep 18 2020 18:53:15 GMT+0300 (East Africa Time)","Fri Sep 18 2020 19:57:41 GMT+0300 (East Africa Time)","Mozilla/5.0 (Windows NT 6.3; Win64; x64) AppleWebKit/537.36 (KHTML, like Gecko) Chrome/85.0.4183.102 Safari/537.36",128,"[0.9, 0.5, 0.1]","[0.8, 0.4, 0.2]","[u'red', u'blue', u'black']","[u'left', u'middle', u'right']","[0.8, 0.4, 0.2]","[u'high', u'medium', u'low']","red",49,"left","high","False","False",276,6350,NA
"A1CA6ZXKK09ZRI","Fri Sep 18 2020 18:53:15 GMT+0300 (East Africa Time)","Fri Sep 18 2020 19:57:41 GMT+0300 (East Africa Time)","Mozilla/5.0 (Windows NT 6.3; Win64; x64) AppleWebKit/537.36 (KHTML, like Gecko) Chrome/85.0.4183.102 Safari/537.36",129,"[0.9, 0.5, 0.1]","[0.8, 0.4, 0.2]","[u'red', u'blue', u'black']","[u'left', u'middle', u'right']","[0.8, 0.4, 0.2]","[u'high', u'medium', u'low']","red",49,"left","high","True","False",26,6450,NA
"A1CA6ZXKK09ZRI","Fri Sep 18 2020 18:53:15 GMT+0300 (East Africa Time)","Fri Sep 18 2020 19:57:41 GMT+0300 (East Africa Time)","Mozilla/5.0 (Windows NT 6.3; Win64; x64) AppleWebKit/537.36 (KHTML, like Gecko) Chrome/85.0.4183.102 Safari/537.36",130,"[0.9, 0.5, 0.1]","[0.8, 0.4, 0.2]","[u'red', u'blue', u'black']","[u'left', u'middle', u'right']","[0.8, 0.4, 0.2]","[u'high', u'medium', u'low']","blue",50,"middle","medium","True","False",306,6550,NA
"A1CA6ZXKK09ZRI","Fri Sep 18 2020 18:53:15 GMT+0300 (East Africa Time)","Fri Sep 18 2020 19:57:41 GMT+0300 (East Africa Time)","Mozilla/5.0 (Windows NT 6.3; Win64; x64) AppleWebKit/537.36 (KHTML, like Gecko) Chrome/85.0.4183.102 Safari/537.36",131,"[0.9, 0.5, 0.1]","[0.8, 0.4, 0.2]","[u'red', u'blue', u'black']","[u'left', u'middle', u'right']","[0.8, 0.4, 0.2]","[u'high', u'medium', u'low']","blue",50,"middle","medium","False","False",395,6500,NA
"A1CA6ZXKK09ZRI","Fri Sep 18 2020 18:53:15 GMT+0300 (East Africa Time)","Fri Sep 18 2020 19:57:41 GMT+0300 (East Africa Time)","Mozilla/5.0 (Windows NT 6.3; Win64; x64) AppleWebKit/537.36 (KHTML, like Gecko) Chrome/85.0.4183.102 Safari/537.36",132,"[0.9, 0.5, 0.1]","[0.8, 0.4, 0.2]","[u'red', u'blue', u'black']","[u'left', u'middle', u'right']","[0.8, 0.4, 0.2]","[u'high', u'medium', u'low']","black",51,"right","low","False","False",595,6450,NA
"A1CA6ZXKK09ZRI","Fri Sep 18 2020 18:53:15 GMT+0300 (East Africa Time)","Fri Sep 18 2020 19:57:41 GMT+0300 (East Africa Time)","Mozilla/5.0 (Windows NT 6.3; Win64; x64) AppleWebKit/537.36 (KHTML, like Gecko) Chrome/85.0.4183.102 Safari/537.36",133,"[0.9, 0.5, 0.1]","[0.8, 0.4, 0.2]","[u'red', u'blue', u'black']","[u'left', u'middle', u'right']","[0.8, 0.4, 0.2]","[u'high', u'medium', u'low']","red",49,"left","high","True","False",98,6550,NA
"A1CA6ZXKK09ZRI","Fri Sep 18 2020 18:53:15 GMT+0300 (East Africa Time)","Fri Sep 18 2020 19:57:41 GMT+0300 (East Africa Time)","Mozilla/5.0 (Windows NT 6.3; Win64; x64) AppleWebKit/537.36 (KHTML, like Gecko) Chrome/85.0.4183.102 Safari/537.36",134,"[0.9, 0.5, 0.1]","[0.8, 0.4, 0.2]","[u'red', u'blue', u'black']","[u'left', u'middle', u'right']","[0.8, 0.4, 0.2]","[u'high', u'medium', u'low']","red",49,"left","high","False","False",483,6500,NA
"A1CA6ZXKK09ZRI","Fri Sep 18 2020 18:53:15 GMT+0300 (East Africa Time)","Fri Sep 18 2020 19:57:41 GMT+0300 (East Africa Time)","Mozilla/5.0 (Windows NT 6.3; Win64; x64) AppleWebKit/537.36 (KHTML, like Gecko) Chrome/85.0.4183.102 Safari/537.36",135,"[0.9, 0.5, 0.1]","[0.8, 0.4, 0.2]","[u'red', u'blue', u'black']","[u'left', u'middle', u'right']","[0.8, 0.4, 0.2]","[u'high', u'medium', u'low']","red",49,"left","high","True","False",73,6600,NA
"A1CA6ZXKK09ZRI","Fri Sep 18 2020 18:53:15 GMT+0300 (East Africa Time)","Fri Sep 18 2020 19:57:41 GMT+0300 (East Africa Time)","Mozilla/5.0 (Windows NT 6.3; Win64; x64) AppleWebKit/537.36 (KHTML, like Gecko) Chrome/85.0.4183.102 Safari/537.36",136,"[0.9, 0.5, 0.1]","[0.8, 0.4, 0.2]","[u'red', u'blue', u'black']","[u'left', u'middle', u'right']","[0.8, 0.4, 0.2]","[u'high', u'medium', u'low']","blue",50,"middle","medium","False","False",122,6550,NA
"A1CA6ZXKK09ZRI","Fri Sep 18 2020 18:53:15 GMT+0300 (East Africa Time)","Fri Sep 18 2020 19:57:41 GMT+0300 (East Africa Time)","Mozilla/5.0 (Windows NT 6.3; Win64; x64) AppleWebKit/537.36 (KHTML, like Gecko) Chrome/85.0.4183.102 Safari/537.36",137,"[0.9, 0.5, 0.1]","[0.8, 0.4, 0.2]","[u'red', u'blue', u'black']","[u'left', u'middle', u'right']","[0.8, 0.4, 0.2]","[u'high', u'medium', u'low']","red",49,"left","high","False","False",555,6500,NA
"A1CA6ZXKK09ZRI","Fri Sep 18 2020 18:53:15 GMT+0300 (East Africa Time)","Fri Sep 18 2020 19:57:41 GMT+0300 (East Africa Time)","Mozilla/5.0 (Windows NT 6.3; Win64; x64) AppleWebKit/537.36 (KHTML, like Gecko) Chrome/85.0.4183.102 Safari/537.36",138,"[0.9, 0.5, 0.1]","[0.8, 0.4, 0.2]","[u'red', u'blue', u'black']","[u'left', u'middle', u'right']","[0.8, 0.4, 0.2]","[u'high', u'medium', u'low']","blue",50,"middle","medium","False","False",402,6450,NA
"A1CA6ZXKK09ZRI","Fri Sep 18 2020 18:53:15 GMT+0300 (East Africa Time)","Fri Sep 18 2020 19:57:41 GMT+0300 (East Africa Time)","Mozilla/5.0 (Windows NT 6.3; Win64; x64) AppleWebKit/537.36 (KHTML, like Gecko) Chrome/85.0.4183.102 Safari/537.36",139,"[0.9, 0.5, 0.1]","[0.8, 0.4, 0.2]","[u'red', u'blue', u'black']","[u'left', u'middle', u'right']","[0.8, 0.4, 0.2]","[u'high', u'medium', u'low']","black",51,"right","low","True","False",34,6550,NA
"A1CA6ZXKK09ZRI","Fri Sep 18 2020 18:53:15 GMT+0300 (East Africa Time)","Fri Sep 18 2020 19:57:41 GMT+0300 (East Africa Time)","Mozilla/5.0 (Windows NT 6.3; Win64; x64) AppleWebKit/537.36 (KHTML, like Gecko) Chrome/85.0.4183.102 Safari/537.36",140,"[0.9, 0.5, 0.1]","[0.8, 0.4, 0.2]","[u'red', u'blue', u'black']","[u'left', u'middle', u'right']","[0.8, 0.4, 0.2]","[u'high', u'medium', u'low']","black",51,"right","low","False","False",292,6500,NA
"A1CA6ZXKK09ZRI","Fri Sep 18 2020 18:53:15 GMT+0300 (East Africa Time)","Fri Sep 18 2020 19:57:41 GMT+0300 (East Africa Time)","Mozilla/5.0 (Windows NT 6.3; Win64; x64) AppleWebKit/537.36 (KHTML, like Gecko) Chrome/85.0.4183.102 Safari/537.36",141,"[0.9, 0.5, 0.1]","[0.8, 0.4, 0.2]","[u'red', u'blue', u'black']","[u'left', u'middle', u'right']","[0.8, 0.4, 0.2]","[u'high', u'medium', u'low']","red",49,"left","high","True","False",459,6600,NA
"A1CA6ZXKK09ZRI","Fri Sep 18 2020 18:53:15 GMT+0300 (East Africa Time)","Fri Sep 18 2020 19:57:41 GMT+0300 (East Africa Time)","Mozilla/5.0 (Windows NT 6.3; Win64; x64) AppleWebKit/537.36 (KHTML, like Gecko) Chrome/85.0.4183.102 Safari/537.36",142,"[0.9, 0.5, 0.1]","[0.8, 0.4, 0.2]","[u'red', u'blue', u'black']","[u'left', u'middle', u'right']","[0.8, 0.4, 0.2]","[u'high', u'medium', u'low']","red",49,"left","high","True","False",611,6700,NA
"A1CA6ZXKK09ZRI","Fri Sep 18 2020 18:53:15 GMT+0300 (East Africa Time)","Fri Sep 18 2020 19:57:41 GMT+0300 (East Africa Time)","Mozilla/5.0 (Windows NT 6.3; Win64; x64) AppleWebKit/537.36 (KHTML, like Gecko) Chrome/85.0.4183.102 Safari/537.36",143,"[0.9, 0.5, 0.1]","[0.8, 0.4, 0.2]","[u'red', u'blue', u'black']","[u'left', u'middle', u'right']","[0.8, 0.4, 0.2]","[u'high', u'medium', u'low']","red",49,"left","high","False","False",155,6650,NA
"A1CA6ZXKK09ZRI","Fri Sep 18 2020 18:53:15 GMT+0300 (East Africa Time)","Fri Sep 18 2020 19:57:41 GMT+0300 (East Africa Time)","Mozilla/5.0 (Windows NT 6.3; Win64; x64) AppleWebKit/537.36 (KHTML, like Gecko) Chrome/85.0.4183.102 Safari/537.36",144,"[0.9, 0.5, 0.1]","[0.8, 0.4, 0.2]","[u'red', u'blue', u'black']","[u'left', u'middle', u'right']","[0.8, 0.4, 0.2]","[u'high', u'medium', u'low']","black",51,"right","low","True","False",73,6750,NA
"A1CA6ZXKK09ZRI","Fri Sep 18 2020 18:53:15 GMT+0300 (East Africa Time)","Fri Sep 18 2020 19:57:41 GMT+0300 (East Africa Time)","Mozilla/5.0 (Windows NT 6.3; Win64; x64) AppleWebKit/537.36 (KHTML, like Gecko) Chrome/85.0.4183.102 Safari/537.36",145,"[0.9, 0.5, 0.1]","[0.8, 0.4, 0.2]","[u'red', u'blue', u'black']","[u'left', u'middle', u'right']","[0.8, 0.4, 0.2]","[u'high', u'medium', u'low']","black",51,"right","low","False","False",300,6700,NA
"A1CA6ZXKK09ZRI","Fri Sep 18 2020 18:53:15 GMT+0300 (East Africa Time)","Fri Sep 18 2020 19:57:41 GMT+0300 (East Africa Time)","Mozilla/5.0 (Windows NT 6.3; Win64; x64) AppleWebKit/537.36 (KHTML, like Gecko) Chrome/85.0.4183.102 Safari/537.36",146,"[0.9, 0.5, 0.1]","[0.8, 0.4, 0.2]","[u'red', u'blue', u'black']","[u'left', u'middle', u'right']","[0.8, 0.4, 0.2]","[u'high', u'medium', u'low']","red",49,"left","high","True","False",531,6800,NA
"A1CA6ZXKK09ZRI","Fri Sep 18 2020 18:53:15 GMT+0300 (East Africa Time)","Fri Sep 18 2020 19:57:41 GMT+0300 (East Africa Time)","Mozilla/5.0 (Windows NT 6.3; Win64; x64) AppleWebKit/537.36 (KHTML, like Gecko) Chrome/85.0.4183.102 Safari/537.36",147,"[0.9, 0.5, 0.1]","[0.8, 0.4, 0.2]","[u'red', u'blue', u'black']","[u'left', u'middle', u'right']","[0.8, 0.4, 0.2]","[u'high', u'medium', u'low']","red",49,"left","high","True","False",571,6900,NA
"A1CA6ZXKK09ZRI","Fri Sep 18 2020 18:53:15 GMT+0300 (East Africa Time)","Fri Sep 18 2020 19:57:41 GMT+0300 (East Africa Time)","Mozilla/5.0 (Windows NT 6.3; Win64; x64) AppleWebKit/537.36 (KHTML, like Gecko) Chrome/85.0.4183.102 Safari/537.36",148,"[0.9, 0.5, 0.1]","[0.8, 0.4, 0.2]","[u'red', u'blue', u'black']","[u'left', u'middle', u'right']","[0.8, 0.4, 0.2]","[u'high', u'medium', u'low']","red",49,"left","high","False","False",451,6850,NA
"A1CA6ZXKK09ZRI","Fri Sep 18 2020 18:53:15 GMT+0300 (East Africa Time)","Fri Sep 18 2020 19:57:41 GMT+0300 (East Africa Time)","Mozilla/5.0 (Windows NT 6.3; Win64; x64) AppleWebKit/537.36 (KHTML, like Gecko) Chrome/85.0.4183.102 Safari/537.36",149,"[0.9, 0.5, 0.1]","[0.8, 0.4, 0.2]","[u'red', u'blue', u'black']","[u'left', u'middle', u'right']","[0.8, 0.4, 0.2]","[u'high', u'medium', u'low']","blue",50,"middle","medium","False","False",211,6800,NA
"A1CA6ZXKK09ZRI","Fri Sep 18 2020 18:53:15 GMT+0300 (East Africa Time)","Fri Sep 18 2020 19:57:41 GMT+0300 (East Africa Time)","Mozilla/5.0 (Windows NT 6.3; Win64; x64) AppleWebKit/537.36 (KHTML, like Gecko) Chrome/85.0.4183.102 Safari/537.36",150,"[0.9, 0.5, 0.1]","[0.8, 0.4, 0.2]","[u'red', u'blue', u'black']","[u'left', u'middle', u'right']","[0.8, 0.4, 0.2]","[u'high', u'medium', u'low']","red",49,"left","high","True","False",177,6900,NA
"A1CA6ZXKK09ZRI","Fri Sep 18 2020 18:53:15 GMT+0300 (East Africa Time)","Fri Sep 18 2020 19:57:41 GMT+0300 (East Africa Time)","Mozilla/5.0 (Windows NT 6.3; Win64; x64) AppleWebKit/537.36 (KHTML, like Gecko) Chrome/85.0.4183.102 Safari/537.36",151,"[0.9, 0.5, 0.1]","[0.8, 0.4, 0.2]","[u'red', u'blue', u'black']","[u'left', u'middle', u'right']","[0.8, 0.4, 0.2]","[u'high', u'medium', u'low']","black",51,"right","low","False","False",450,6850,NA
"A1CA6ZXKK09ZRI","Fri Sep 18 2020 18:53:15 GMT+0300 (East Africa Time)","Fri Sep 18 2020 19:57:41 GMT+0300 (East Africa Time)","Mozilla/5.0 (Windows NT 6.3; Win64; x64) AppleWebKit/537.36 (KHTML, like Gecko) Chrome/85.0.4183.102 Safari/537.36",152,"[0.9, 0.5, 0.1]","[0.8, 0.4, 0.2]","[u'red', u'blue', u'black']","[u'left', u'middle', u'right']","[0.8, 0.4, 0.2]","[u'high', u'medium', u'low']","red",49,"left","high","True","False",76,6950,NA
"A1CA6ZXKK09ZRI","Fri Sep 18 2020 18:53:15 GMT+0300 (East Africa Time)","Fri Sep 18 2020 19:57:41 GMT+0300 (East Africa Time)","Mozilla/5.0 (Windows NT 6.3; Win64; x64) AppleWebKit/537.36 (KHTML, like Gecko) Chrome/85.0.4183.102 Safari/537.36",153,"[0.9, 0.5, 0.1]","[0.8, 0.4, 0.2]","[u'red', u'blue', u'black']","[u'left', u'middle', u'right']","[0.8, 0.4, 0.2]","[u'high', u'medium', u'low']","red",49,"left","high","False","False",170,6900,NA
"A1CA6ZXKK09ZRI","Fri Sep 18 2020 18:53:15 GMT+0300 (East Africa Time)","Fri Sep 18 2020 19:57:41 GMT+0300 (East Africa Time)","Mozilla/5.0 (Windows NT 6.3; Win64; x64) AppleWebKit/537.36 (KHTML, like Gecko) Chrome/85.0.4183.102 Safari/537.36",154,"[0.9, 0.5, 0.1]","[0.8, 0.4, 0.2]","[u'red', u'blue', u'black']","[u'left', u'middle', u'right']","[0.8, 0.4, 0.2]","[u'high', u'medium', u'low']","black",51,"right","low","False","False",441,6850,NA
"A1CA6ZXKK09ZRI","Fri Sep 18 2020 18:53:15 GMT+0300 (East Africa Time)","Fri Sep 18 2020 19:57:41 GMT+0300 (East Africa Time)","Mozilla/5.0 (Windows NT 6.3; Win64; x64) AppleWebKit/537.36 (KHTML, like Gecko) Chrome/85.0.4183.102 Safari/537.36",155,"[0.9, 0.5, 0.1]","[0.8, 0.4, 0.2]","[u'red', u'blue', u'black']","[u'left', u'middle', u'right']","[0.8, 0.4, 0.2]","[u'high', u'medium', u'low']","blue",50,"middle","medium","False","False",284,6800,NA
"A1CA6ZXKK09ZRI","Fri Sep 18 2020 18:53:15 GMT+0300 (East Africa Time)","Fri Sep 18 2020 19:57:41 GMT+0300 (East Africa Time)","Mozilla/5.0 (Windows NT 6.3; Win64; x64) AppleWebKit/537.36 (KHTML, like Gecko) Chrome/85.0.4183.102 Safari/537.36",156,"[0.9, 0.5, 0.1]","[0.8, 0.4, 0.2]","[u'red', u'blue', u'black']","[u'left', u'middle', u'right']","[0.8, 0.4, 0.2]","[u'high', u'medium', u'low']","red",49,"left","high","True","False",218,6900,NA
"A1CA6ZXKK09ZRI","Fri Sep 18 2020 18:53:15 GMT+0300 (East Africa Time)","Fri Sep 18 2020 19:57:41 GMT+0300 (East Africa Time)","Mozilla/5.0 (Windows NT 6.3; Win64; x64) AppleWebKit/537.36 (KHTML, like Gecko) Chrome/85.0.4183.102 Safari/537.36",157,"[0.9, 0.5, 0.1]","[0.8, 0.4, 0.2]","[u'red', u'blue', u'black']","[u'left', u'middle', u'right']","[0.8, 0.4, 0.2]","[u'high', u'medium', u'low']","red",49,"left","high","True","False",618,7000,NA
"A1CA6ZXKK09ZRI","Fri Sep 18 2020 18:53:15 GMT+0300 (East Africa Time)","Fri Sep 18 2020 19:57:41 GMT+0300 (East Africa Time)","Mozilla/5.0 (Windows NT 6.3; Win64; x64) AppleWebKit/537.36 (KHTML, like Gecko) Chrome/85.0.4183.102 Safari/537.36",158,"[0.9, 0.5, 0.1]","[0.8, 0.4, 0.2]","[u'red', u'blue', u'black']","[u'left', u'middle', u'right']","[0.8, 0.4, 0.2]","[u'high', u'medium', u'low']","red",49,"left","high","False","False",371,6950,NA
"A1CA6ZXKK09ZRI","Fri Sep 18 2020 18:53:15 GMT+0300 (East Africa Time)","Fri Sep 18 2020 19:57:41 GMT+0300 (East Africa Time)","Mozilla/5.0 (Windows NT 6.3; Win64; x64) AppleWebKit/537.36 (KHTML, like Gecko) Chrome/85.0.4183.102 Safari/537.36",159,"[0.9, 0.5, 0.1]","[0.8, 0.4, 0.2]","[u'red', u'blue', u'black']","[u'left', u'middle', u'right']","[0.8, 0.4, 0.2]","[u'high', u'medium', u'low']","red",49,"left","high","True","False",55,7050,NA
"A1CA6ZXKK09ZRI","Fri Sep 18 2020 18:53:15 GMT+0300 (East Africa Time)","Fri Sep 18 2020 19:57:41 GMT+0300 (East Africa Time)","Mozilla/5.0 (Windows NT 6.3; Win64; x64) AppleWebKit/537.36 (KHTML, like Gecko) Chrome/85.0.4183.102 Safari/537.36",160,"[0.9, 0.5, 0.1]","[0.8, 0.4, 0.2]","[u'red', u'blue', u'black']","[u'left', u'middle', u'right']","[0.8, 0.4, 0.2]","[u'high', u'medium', u'low']","red",49,"left","high","True","False",524,7150,NA
