"src_subject_id","start_time","end_time","browser","index","first_half_probabilities","second_half_probabilities","deck_color","deck_position","deck_probabilities","deck_contingencies","response_color","key_press","response_position","response_probability","reward_type","trial_type","rt","reward_tally","exclusion_reason"
"AIHHRINW9IN1I","Fri Sep 18 2020 12:28:46 GMT-0400 (Eastern Daylight Time)","Fri Sep 18 2020 12:35:42 GMT-0400 (Eastern Daylight Time)","Mozilla/5.0 (Macintosh; Intel Mac OS X 10_15_6) AppleWebKit/537.36 (KHTML, like Gecko) Chrome/85.0.4183.102 Safari/537.36",1,"[0.9, 0.5, 0.1]","[0.8, 0.4, 0.2]","[u'blue', u'black', u'red']","[u'left', u'middle', u'right']","[0.9, 0.5, 0.1]","[u'low', u'medium', u'high']","blue",49,"left","low","False","False",549,-50,NA
"AIHHRINW9IN1I","Fri Sep 18 2020 12:28:46 GMT-0400 (Eastern Daylight Time)","Fri Sep 18 2020 12:35:42 GMT-0400 (Eastern Daylight Time)","Mozilla/5.0 (Macintosh; Intel Mac OS X 10_15_6) AppleWebKit/537.36 (KHTML, like Gecko) Chrome/85.0.4183.102 Safari/537.36",2,"[0.9, 0.5, 0.1]","[0.8, 0.4, 0.2]","[u'blue', u'black', u'red']","[u'left', u'middle', u'right']","[0.9, 0.5, 0.1]","[u'low', u'medium', u'high']","black",50,"middle","medium","False","False",322,-100,NA
"AIHHRINW9IN1I","Fri Sep 18 2020 12:28:46 GMT-0400 (Eastern Daylight Time)","Fri Sep 18 2020 12:35:42 GMT-0400 (Eastern Daylight Time)","Mozilla/5.0 (Macintosh; Intel Mac OS X 10_15_6) AppleWebKit/537.36 (KHTML, like Gecko) Chrome/85.0.4183.102 Safari/537.36",3,"[0.9, 0.5, 0.1]","[0.8, 0.4, 0.2]","[u'blue', u'black', u'red']","[u'left', u'middle', u'right']","[0.9, 0.5, 0.1]","[u'low', u'medium', u'high']","red",51,"right","high","True","False",283,0,NA
"AIHHRINW9IN1I","Fri Sep 18 2020 12:28:46 GMT-0400 (Eastern Daylight Time)","Fri Sep 18 2020 12:35:42 GMT-0400 (Eastern Daylight Time)","Mozilla/5.0 (Macintosh; Intel Mac OS X 10_15_6) AppleWebKit/537.36 (KHTML, like Gecko) Chrome/85.0.4183.102 Safari/537.36",4,"[0.9, 0.5, 0.1]","[0.8, 0.4, 0.2]","[u'blue', u'black', u'red']","[u'left', u'middle', u'right']","[0.9, 0.5, 0.1]","[u'low', u'medium', u'high']","red",51,"right","high","True","False",346,100,NA
"AIHHRINW9IN1I","Fri Sep 18 2020 12:28:46 GMT-0400 (Eastern Daylight Time)","Fri Sep 18 2020 12:35:42 GMT-0400 (Eastern Daylight Time)","Mozilla/5.0 (Macintosh; Intel Mac OS X 10_15_6) AppleWebKit/537.36 (KHTML, like Gecko) Chrome/85.0.4183.102 Safari/537.36",5,"[0.9, 0.5, 0.1]","[0.8, 0.4, 0.2]","[u'blue', u'black', u'red']","[u'left', u'middle', u'right']","[0.9, 0.5, 0.1]","[u'low', u'medium', u'high']","red",51,"right","high","True","False",309,200,NA
"AIHHRINW9IN1I","Fri Sep 18 2020 12:28:46 GMT-0400 (Eastern Daylight Time)","Fri Sep 18 2020 12:35:42 GMT-0400 (Eastern Daylight Time)","Mozilla/5.0 (Macintosh; Intel Mac OS X 10_15_6) AppleWebKit/537.36 (KHTML, like Gecko) Chrome/85.0.4183.102 Safari/537.36",6,"[0.9, 0.5, 0.1]","[0.8, 0.4, 0.2]","[u'blue', u'black', u'red']","[u'left', u'middle', u'right']","[0.9, 0.5, 0.1]","[u'low', u'medium', u'high']","red",51,"right","high","True","False",307,300,NA
"AIHHRINW9IN1I","Fri Sep 18 2020 12:28:46 GMT-0400 (Eastern Daylight Time)","Fri Sep 18 2020 12:35:42 GMT-0400 (Eastern Daylight Time)","Mozilla/5.0 (Macintosh; Intel Mac OS X 10_15_6) AppleWebKit/537.36 (KHTML, like Gecko) Chrome/85.0.4183.102 Safari/537.36",7,"[0.9, 0.5, 0.1]","[0.8, 0.4, 0.2]","[u'blue', u'black', u'red']","[u'left', u'middle', u'right']","[0.9, 0.5, 0.1]","[u'low', u'medium', u'high']","red",51,"right","high","True","False",256,400,NA
"AIHHRINW9IN1I","Fri Sep 18 2020 12:28:46 GMT-0400 (Eastern Daylight Time)","Fri Sep 18 2020 12:35:42 GMT-0400 (Eastern Daylight Time)","Mozilla/5.0 (Macintosh; Intel Mac OS X 10_15_6) AppleWebKit/537.36 (KHTML, like Gecko) Chrome/85.0.4183.102 Safari/537.36",8,"[0.9, 0.5, 0.1]","[0.8, 0.4, 0.2]","[u'blue', u'black', u'red']","[u'left', u'middle', u'right']","[0.9, 0.5, 0.1]","[u'low', u'medium', u'high']","red",51,"right","high","True","False",253,500,NA
"AIHHRINW9IN1I","Fri Sep 18 2020 12:28:46 GMT-0400 (Eastern Daylight Time)","Fri Sep 18 2020 12:35:42 GMT-0400 (Eastern Daylight Time)","Mozilla/5.0 (Macintosh; Intel Mac OS X 10_15_6) AppleWebKit/537.36 (KHTML, like Gecko) Chrome/85.0.4183.102 Safari/537.36",9,"[0.9, 0.5, 0.1]","[0.8, 0.4, 0.2]","[u'blue', u'black', u'red']","[u'left', u'middle', u'right']","[0.9, 0.5, 0.1]","[u'low', u'medium', u'high']","red",51,"right","high","True","False",245,600,NA
"AIHHRINW9IN1I","Fri Sep 18 2020 12:28:46 GMT-0400 (Eastern Daylight Time)","Fri Sep 18 2020 12:35:42 GMT-0400 (Eastern Daylight Time)","Mozilla/5.0 (Macintosh; Intel Mac OS X 10_15_6) AppleWebKit/537.36 (KHTML, like Gecko) Chrome/85.0.4183.102 Safari/537.36",10,"[0.9, 0.5, 0.1]","[0.8, 0.4, 0.2]","[u'blue', u'black', u'red']","[u'left', u'middle', u'right']","[0.9, 0.5, 0.1]","[u'low', u'medium', u'high']","red",51,"right","high","True","False",268,700,NA
"AIHHRINW9IN1I","Fri Sep 18 2020 12:28:46 GMT-0400 (Eastern Daylight Time)","Fri Sep 18 2020 12:35:42 GMT-0400 (Eastern Daylight Time)","Mozilla/5.0 (Macintosh; Intel Mac OS X 10_15_6) AppleWebKit/537.36 (KHTML, like Gecko) Chrome/85.0.4183.102 Safari/537.36",11,"[0.9, 0.5, 0.1]","[0.8, 0.4, 0.2]","[u'blue', u'black', u'red']","[u'left', u'middle', u'right']","[0.9, 0.5, 0.1]","[u'low', u'medium', u'high']","red",51,"right","high","False","True",238,650,NA
"AIHHRINW9IN1I","Fri Sep 18 2020 12:28:46 GMT-0400 (Eastern Daylight Time)","Fri Sep 18 2020 12:35:42 GMT-0400 (Eastern Daylight Time)","Mozilla/5.0 (Macintosh; Intel Mac OS X 10_15_6) AppleWebKit/537.36 (KHTML, like Gecko) Chrome/85.0.4183.102 Safari/537.36",12,"[0.9, 0.5, 0.1]","[0.8, 0.4, 0.2]","[u'blue', u'black', u'red']","[u'left', u'middle', u'right']","[0.9, 0.5, 0.1]","[u'high', u'low', u'medium']","red",51,"right","medium","True","False",237,750,NA
"AIHHRINW9IN1I","Fri Sep 18 2020 12:28:46 GMT-0400 (Eastern Daylight Time)","Fri Sep 18 2020 12:35:42 GMT-0400 (Eastern Daylight Time)","Mozilla/5.0 (Macintosh; Intel Mac OS X 10_15_6) AppleWebKit/537.36 (KHTML, like Gecko) Chrome/85.0.4183.102 Safari/537.36",13,"[0.9, 0.5, 0.1]","[0.8, 0.4, 0.2]","[u'blue', u'black', u'red']","[u'left', u'middle', u'right']","[0.9, 0.5, 0.1]","[u'high', u'low', u'medium']","red",51,"right","medium","False","False",256,700,NA
"AIHHRINW9IN1I","Fri Sep 18 2020 12:28:46 GMT-0400 (Eastern Daylight Time)","Fri Sep 18 2020 12:35:42 GMT-0400 (Eastern Daylight Time)","Mozilla/5.0 (Macintosh; Intel Mac OS X 10_15_6) AppleWebKit/537.36 (KHTML, like Gecko) Chrome/85.0.4183.102 Safari/537.36",14,"[0.9, 0.5, 0.1]","[0.8, 0.4, 0.2]","[u'blue', u'black', u'red']","[u'left', u'middle', u'right']","[0.9, 0.5, 0.1]","[u'high', u'low', u'medium']","red",51,"right","medium","False","False",211,650,NA
"AIHHRINW9IN1I","Fri Sep 18 2020 12:28:46 GMT-0400 (Eastern Daylight Time)","Fri Sep 18 2020 12:35:42 GMT-0400 (Eastern Daylight Time)","Mozilla/5.0 (Macintosh; Intel Mac OS X 10_15_6) AppleWebKit/537.36 (KHTML, like Gecko) Chrome/85.0.4183.102 Safari/537.36",15,"[0.9, 0.5, 0.1]","[0.8, 0.4, 0.2]","[u'blue', u'black', u'red']","[u'left', u'middle', u'right']","[0.9, 0.5, 0.1]","[u'high', u'low', u'medium']","black",50,"middle","low","False","False",279,600,NA
"AIHHRINW9IN1I","Fri Sep 18 2020 12:28:46 GMT-0400 (Eastern Daylight Time)","Fri Sep 18 2020 12:35:42 GMT-0400 (Eastern Daylight Time)","Mozilla/5.0 (Macintosh; Intel Mac OS X 10_15_6) AppleWebKit/537.36 (KHTML, like Gecko) Chrome/85.0.4183.102 Safari/537.36",16,"[0.9, 0.5, 0.1]","[0.8, 0.4, 0.2]","[u'blue', u'black', u'red']","[u'left', u'middle', u'right']","[0.9, 0.5, 0.1]","[u'high', u'low', u'medium']","blue",49,"left","high","True","False",275,700,NA
"AIHHRINW9IN1I","Fri Sep 18 2020 12:28:46 GMT-0400 (Eastern Daylight Time)","Fri Sep 18 2020 12:35:42 GMT-0400 (Eastern Daylight Time)","Mozilla/5.0 (Macintosh; Intel Mac OS X 10_15_6) AppleWebKit/537.36 (KHTML, like Gecko) Chrome/85.0.4183.102 Safari/537.36",17,"[0.9, 0.5, 0.1]","[0.8, 0.4, 0.2]","[u'blue', u'black', u'red']","[u'left', u'middle', u'right']","[0.9, 0.5, 0.1]","[u'high', u'low', u'medium']","blue",49,"left","high","False","False",290,650,NA
"AIHHRINW9IN1I","Fri Sep 18 2020 12:28:46 GMT-0400 (Eastern Daylight Time)","Fri Sep 18 2020 12:35:42 GMT-0400 (Eastern Daylight Time)","Mozilla/5.0 (Macintosh; Intel Mac OS X 10_15_6) AppleWebKit/537.36 (KHTML, like Gecko) Chrome/85.0.4183.102 Safari/537.36",18,"[0.9, 0.5, 0.1]","[0.8, 0.4, 0.2]","[u'blue', u'black', u'red']","[u'left', u'middle', u'right']","[0.9, 0.5, 0.1]","[u'high', u'low', u'medium']","blue",49,"left","high","True","False",258,750,NA
"AIHHRINW9IN1I","Fri Sep 18 2020 12:28:46 GMT-0400 (Eastern Daylight Time)","Fri Sep 18 2020 12:35:42 GMT-0400 (Eastern Daylight Time)","Mozilla/5.0 (Macintosh; Intel Mac OS X 10_15_6) AppleWebKit/537.36 (KHTML, like Gecko) Chrome/85.0.4183.102 Safari/537.36",19,"[0.9, 0.5, 0.1]","[0.8, 0.4, 0.2]","[u'blue', u'black', u'red']","[u'left', u'middle', u'right']","[0.9, 0.5, 0.1]","[u'high', u'low', u'medium']","blue",49,"left","high","True","False",347,850,NA
"AIHHRINW9IN1I","Fri Sep 18 2020 12:28:46 GMT-0400 (Eastern Daylight Time)","Fri Sep 18 2020 12:35:42 GMT-0400 (Eastern Daylight Time)","Mozilla/5.0 (Macintosh; Intel Mac OS X 10_15_6) AppleWebKit/537.36 (KHTML, like Gecko) Chrome/85.0.4183.102 Safari/537.36",20,"[0.9, 0.5, 0.1]","[0.8, 0.4, 0.2]","[u'blue', u'black', u'red']","[u'left', u'middle', u'right']","[0.9, 0.5, 0.1]","[u'high', u'low', u'medium']","blue",49,"left","high","True","False",424,950,NA
"AIHHRINW9IN1I","Fri Sep 18 2020 12:28:46 GMT-0400 (Eastern Daylight Time)","Fri Sep 18 2020 12:35:42 GMT-0400 (Eastern Daylight Time)","Mozilla/5.0 (Macintosh; Intel Mac OS X 10_15_6) AppleWebKit/537.36 (KHTML, like Gecko) Chrome/85.0.4183.102 Safari/537.36",21,"[0.9, 0.5, 0.1]","[0.8, 0.4, 0.2]","[u'blue', u'black', u'red']","[u'left', u'middle', u'right']","[0.9, 0.5, 0.1]","[u'high', u'low', u'medium']","blue",49,"left","high","True","False",277,1050,NA
"AIHHRINW9IN1I","Fri Sep 18 2020 12:28:46 GMT-0400 (Eastern Daylight Time)","Fri Sep 18 2020 12:35:42 GMT-0400 (Eastern Daylight Time)","Mozilla/5.0 (Macintosh; Intel Mac OS X 10_15_6) AppleWebKit/537.36 (KHTML, like Gecko) Chrome/85.0.4183.102 Safari/537.36",22,"[0.9, 0.5, 0.1]","[0.8, 0.4, 0.2]","[u'blue', u'black', u'red']","[u'left', u'middle', u'right']","[0.9, 0.5, 0.1]","[u'high', u'low', u'medium']","blue",49,"left","high","True","False",270,1150,NA
"AIHHRINW9IN1I","Fri Sep 18 2020 12:28:46 GMT-0400 (Eastern Daylight Time)","Fri Sep 18 2020 12:35:42 GMT-0400 (Eastern Daylight Time)","Mozilla/5.0 (Macintosh; Intel Mac OS X 10_15_6) AppleWebKit/537.36 (KHTML, like Gecko) Chrome/85.0.4183.102 Safari/537.36",23,"[0.9, 0.5, 0.1]","[0.8, 0.4, 0.2]","[u'blue', u'black', u'red']","[u'left', u'middle', u'right']","[0.9, 0.5, 0.1]","[u'high', u'low', u'medium']","blue",49,"left","high","True","False",301,1250,NA
"AIHHRINW9IN1I","Fri Sep 18 2020 12:28:46 GMT-0400 (Eastern Daylight Time)","Fri Sep 18 2020 12:35:42 GMT-0400 (Eastern Daylight Time)","Mozilla/5.0 (Macintosh; Intel Mac OS X 10_15_6) AppleWebKit/537.36 (KHTML, like Gecko) Chrome/85.0.4183.102 Safari/537.36",24,"[0.9, 0.5, 0.1]","[0.8, 0.4, 0.2]","[u'blue', u'black', u'red']","[u'left', u'middle', u'right']","[0.9, 0.5, 0.1]","[u'high', u'low', u'medium']","blue",49,"left","high","True","True",249,1350,NA
"AIHHRINW9IN1I","Fri Sep 18 2020 12:28:46 GMT-0400 (Eastern Daylight Time)","Fri Sep 18 2020 12:35:42 GMT-0400 (Eastern Daylight Time)","Mozilla/5.0 (Macintosh; Intel Mac OS X 10_15_6) AppleWebKit/537.36 (KHTML, like Gecko) Chrome/85.0.4183.102 Safari/537.36",25,"[0.9, 0.5, 0.1]","[0.8, 0.4, 0.2]","[u'blue', u'black', u'red']","[u'left', u'middle', u'right']","[0.9, 0.5, 0.1]","[u'low', u'high', u'medium']","blue",49,"left","low","False","False",261,1300,NA
"AIHHRINW9IN1I","Fri Sep 18 2020 12:28:46 GMT-0400 (Eastern Daylight Time)","Fri Sep 18 2020 12:35:42 GMT-0400 (Eastern Daylight Time)","Mozilla/5.0 (Macintosh; Intel Mac OS X 10_15_6) AppleWebKit/537.36 (KHTML, like Gecko) Chrome/85.0.4183.102 Safari/537.36",26,"[0.9, 0.5, 0.1]","[0.8, 0.4, 0.2]","[u'blue', u'black', u'red']","[u'left', u'middle', u'right']","[0.9, 0.5, 0.1]","[u'low', u'high', u'medium']","blue",49,"left","low","False","False",229,1250,NA
"AIHHRINW9IN1I","Fri Sep 18 2020 12:28:46 GMT-0400 (Eastern Daylight Time)","Fri Sep 18 2020 12:35:42 GMT-0400 (Eastern Daylight Time)","Mozilla/5.0 (Macintosh; Intel Mac OS X 10_15_6) AppleWebKit/537.36 (KHTML, like Gecko) Chrome/85.0.4183.102 Safari/537.36",27,"[0.9, 0.5, 0.1]","[0.8, 0.4, 0.2]","[u'blue', u'black', u'red']","[u'left', u'middle', u'right']","[0.9, 0.5, 0.1]","[u'low', u'high', u'medium']","blue",49,"left","low","False","False",251,1200,NA
"AIHHRINW9IN1I","Fri Sep 18 2020 12:28:46 GMT-0400 (Eastern Daylight Time)","Fri Sep 18 2020 12:35:42 GMT-0400 (Eastern Daylight Time)","Mozilla/5.0 (Macintosh; Intel Mac OS X 10_15_6) AppleWebKit/537.36 (KHTML, like Gecko) Chrome/85.0.4183.102 Safari/537.36",28,"[0.9, 0.5, 0.1]","[0.8, 0.4, 0.2]","[u'blue', u'black', u'red']","[u'left', u'middle', u'right']","[0.9, 0.5, 0.1]","[u'low', u'high', u'medium']","red",51,"right","medium","True","False",333,1300,NA
"AIHHRINW9IN1I","Fri Sep 18 2020 12:28:46 GMT-0400 (Eastern Daylight Time)","Fri Sep 18 2020 12:35:42 GMT-0400 (Eastern Daylight Time)","Mozilla/5.0 (Macintosh; Intel Mac OS X 10_15_6) AppleWebKit/537.36 (KHTML, like Gecko) Chrome/85.0.4183.102 Safari/537.36",29,"[0.9, 0.5, 0.1]","[0.8, 0.4, 0.2]","[u'blue', u'black', u'red']","[u'left', u'middle', u'right']","[0.9, 0.5, 0.1]","[u'low', u'high', u'medium']","red",51,"right","medium","True","False",260,1400,NA
"AIHHRINW9IN1I","Fri Sep 18 2020 12:28:46 GMT-0400 (Eastern Daylight Time)","Fri Sep 18 2020 12:35:42 GMT-0400 (Eastern Daylight Time)","Mozilla/5.0 (Macintosh; Intel Mac OS X 10_15_6) AppleWebKit/537.36 (KHTML, like Gecko) Chrome/85.0.4183.102 Safari/537.36",30,"[0.9, 0.5, 0.1]","[0.8, 0.4, 0.2]","[u'blue', u'black', u'red']","[u'left', u'middle', u'right']","[0.9, 0.5, 0.1]","[u'low', u'high', u'medium']","red",51,"right","medium","True","False",358,1500,NA
"AIHHRINW9IN1I","Fri Sep 18 2020 12:28:46 GMT-0400 (Eastern Daylight Time)","Fri Sep 18 2020 12:35:42 GMT-0400 (Eastern Daylight Time)","Mozilla/5.0 (Macintosh; Intel Mac OS X 10_15_6) AppleWebKit/537.36 (KHTML, like Gecko) Chrome/85.0.4183.102 Safari/537.36",31,"[0.9, 0.5, 0.1]","[0.8, 0.4, 0.2]","[u'blue', u'black', u'red']","[u'left', u'middle', u'right']","[0.9, 0.5, 0.1]","[u'low', u'high', u'medium']","red",51,"right","medium","True","False",282,1600,NA
"AIHHRINW9IN1I","Fri Sep 18 2020 12:28:46 GMT-0400 (Eastern Daylight Time)","Fri Sep 18 2020 12:35:42 GMT-0400 (Eastern Daylight Time)","Mozilla/5.0 (Macintosh; Intel Mac OS X 10_15_6) AppleWebKit/537.36 (KHTML, like Gecko) Chrome/85.0.4183.102 Safari/537.36",32,"[0.9, 0.5, 0.1]","[0.8, 0.4, 0.2]","[u'blue', u'black', u'red']","[u'left', u'middle', u'right']","[0.9, 0.5, 0.1]","[u'low', u'high', u'medium']","red",51,"right","medium","False","False",261,1550,NA
"AIHHRINW9IN1I","Fri Sep 18 2020 12:28:46 GMT-0400 (Eastern Daylight Time)","Fri Sep 18 2020 12:35:42 GMT-0400 (Eastern Daylight Time)","Mozilla/5.0 (Macintosh; Intel Mac OS X 10_15_6) AppleWebKit/537.36 (KHTML, like Gecko) Chrome/85.0.4183.102 Safari/537.36",33,"[0.9, 0.5, 0.1]","[0.8, 0.4, 0.2]","[u'blue', u'black', u'red']","[u'left', u'middle', u'right']","[0.9, 0.5, 0.1]","[u'low', u'high', u'medium']","red",51,"right","medium","True","False",306,1650,NA
"AIHHRINW9IN1I","Fri Sep 18 2020 12:28:46 GMT-0400 (Eastern Daylight Time)","Fri Sep 18 2020 12:35:42 GMT-0400 (Eastern Daylight Time)","Mozilla/5.0 (Macintosh; Intel Mac OS X 10_15_6) AppleWebKit/537.36 (KHTML, like Gecko) Chrome/85.0.4183.102 Safari/537.36",34,"[0.9, 0.5, 0.1]","[0.8, 0.4, 0.2]","[u'blue', u'black', u'red']","[u'left', u'middle', u'right']","[0.9, 0.5, 0.1]","[u'low', u'high', u'medium']","red",51,"right","medium","True","False",248,1750,NA
"AIHHRINW9IN1I","Fri Sep 18 2020 12:28:46 GMT-0400 (Eastern Daylight Time)","Fri Sep 18 2020 12:35:42 GMT-0400 (Eastern Daylight Time)","Mozilla/5.0 (Macintosh; Intel Mac OS X 10_15_6) AppleWebKit/537.36 (KHTML, like Gecko) Chrome/85.0.4183.102 Safari/537.36",35,"[0.9, 0.5, 0.1]","[0.8, 0.4, 0.2]","[u'blue', u'black', u'red']","[u'left', u'middle', u'right']","[0.9, 0.5, 0.1]","[u'low', u'high', u'medium']","red",51,"right","medium","True","False",270,1850,NA
"AIHHRINW9IN1I","Fri Sep 18 2020 12:28:46 GMT-0400 (Eastern Daylight Time)","Fri Sep 18 2020 12:35:42 GMT-0400 (Eastern Daylight Time)","Mozilla/5.0 (Macintosh; Intel Mac OS X 10_15_6) AppleWebKit/537.36 (KHTML, like Gecko) Chrome/85.0.4183.102 Safari/537.36",36,"[0.9, 0.5, 0.1]","[0.8, 0.4, 0.2]","[u'blue', u'black', u'red']","[u'left', u'middle', u'right']","[0.9, 0.5, 0.1]","[u'low', u'high', u'medium']","red",51,"right","medium","False","False",233,1800,NA
"AIHHRINW9IN1I","Fri Sep 18 2020 12:28:46 GMT-0400 (Eastern Daylight Time)","Fri Sep 18 2020 12:35:42 GMT-0400 (Eastern Daylight Time)","Mozilla/5.0 (Macintosh; Intel Mac OS X 10_15_6) AppleWebKit/537.36 (KHTML, like Gecko) Chrome/85.0.4183.102 Safari/537.36",37,"[0.9, 0.5, 0.1]","[0.8, 0.4, 0.2]","[u'blue', u'black', u'red']","[u'left', u'middle', u'right']","[0.9, 0.5, 0.1]","[u'low', u'high', u'medium']","red",51,"right","medium","True","False",75,1900,NA
"AIHHRINW9IN1I","Fri Sep 18 2020 12:28:46 GMT-0400 (Eastern Daylight Time)","Fri Sep 18 2020 12:35:42 GMT-0400 (Eastern Daylight Time)","Mozilla/5.0 (Macintosh; Intel Mac OS X 10_15_6) AppleWebKit/537.36 (KHTML, like Gecko) Chrome/85.0.4183.102 Safari/537.36",38,"[0.9, 0.5, 0.1]","[0.8, 0.4, 0.2]","[u'blue', u'black', u'red']","[u'left', u'middle', u'right']","[0.9, 0.5, 0.1]","[u'low', u'high', u'medium']","red",51,"right","medium","False","False",1008,1850,NA
"AIHHRINW9IN1I","Fri Sep 18 2020 12:28:46 GMT-0400 (Eastern Daylight Time)","Fri Sep 18 2020 12:35:42 GMT-0400 (Eastern Daylight Time)","Mozilla/5.0 (Macintosh; Intel Mac OS X 10_15_6) AppleWebKit/537.36 (KHTML, like Gecko) Chrome/85.0.4183.102 Safari/537.36",39,"[0.9, 0.5, 0.1]","[0.8, 0.4, 0.2]","[u'blue', u'black', u'red']","[u'left', u'middle', u'right']","[0.9, 0.5, 0.1]","[u'low', u'high', u'medium']","red",51,"right","medium","False","False",233,1800,NA
"AIHHRINW9IN1I","Fri Sep 18 2020 12:28:46 GMT-0400 (Eastern Daylight Time)","Fri Sep 18 2020 12:35:42 GMT-0400 (Eastern Daylight Time)","Mozilla/5.0 (Macintosh; Intel Mac OS X 10_15_6) AppleWebKit/537.36 (KHTML, like Gecko) Chrome/85.0.4183.102 Safari/537.36",40,"[0.9, 0.5, 0.1]","[0.8, 0.4, 0.2]","[u'blue', u'black', u'red']","[u'left', u'middle', u'right']","[0.9, 0.5, 0.1]","[u'low', u'high', u'medium']","black",50,"middle","high","True","False",222,1900,NA
"AIHHRINW9IN1I","Fri Sep 18 2020 12:28:46 GMT-0400 (Eastern Daylight Time)","Fri Sep 18 2020 12:35:42 GMT-0400 (Eastern Daylight Time)","Mozilla/5.0 (Macintosh; Intel Mac OS X 10_15_6) AppleWebKit/537.36 (KHTML, like Gecko) Chrome/85.0.4183.102 Safari/537.36",41,"[0.9, 0.5, 0.1]","[0.8, 0.4, 0.2]","[u'blue', u'black', u'red']","[u'left', u'middle', u'right']","[0.9, 0.5, 0.1]","[u'high', u'low', u'medium']","blue",49,"left","high","True","False",815,2000,NA
"AIHHRINW9IN1I","Fri Sep 18 2020 12:28:46 GMT-0400 (Eastern Daylight Time)","Fri Sep 18 2020 12:35:42 GMT-0400 (Eastern Daylight Time)","Mozilla/5.0 (Macintosh; Intel Mac OS X 10_15_6) AppleWebKit/537.36 (KHTML, like Gecko) Chrome/85.0.4183.102 Safari/537.36",42,"[0.9, 0.5, 0.1]","[0.8, 0.4, 0.2]","[u'blue', u'black', u'red']","[u'left', u'middle', u'right']","[0.9, 0.5, 0.1]","[u'high', u'low', u'medium']","blue",49,"left","high","True","False",284,2100,NA
"AIHHRINW9IN1I","Fri Sep 18 2020 12:28:46 GMT-0400 (Eastern Daylight Time)","Fri Sep 18 2020 12:35:42 GMT-0400 (Eastern Daylight Time)","Mozilla/5.0 (Macintosh; Intel Mac OS X 10_15_6) AppleWebKit/537.36 (KHTML, like Gecko) Chrome/85.0.4183.102 Safari/537.36",43,"[0.9, 0.5, 0.1]","[0.8, 0.4, 0.2]","[u'blue', u'black', u'red']","[u'left', u'middle', u'right']","[0.9, 0.5, 0.1]","[u'high', u'low', u'medium']","blue",49,"left","high","True","False",289,2200,NA
"AIHHRINW9IN1I","Fri Sep 18 2020 12:28:46 GMT-0400 (Eastern Daylight Time)","Fri Sep 18 2020 12:35:42 GMT-0400 (Eastern Daylight Time)","Mozilla/5.0 (Macintosh; Intel Mac OS X 10_15_6) AppleWebKit/537.36 (KHTML, like Gecko) Chrome/85.0.4183.102 Safari/537.36",44,"[0.9, 0.5, 0.1]","[0.8, 0.4, 0.2]","[u'blue', u'black', u'red']","[u'left', u'middle', u'right']","[0.9, 0.5, 0.1]","[u'high', u'low', u'medium']","blue",49,"left","high","True","False",251,2300,NA
"AIHHRINW9IN1I","Fri Sep 18 2020 12:28:46 GMT-0400 (Eastern Daylight Time)","Fri Sep 18 2020 12:35:42 GMT-0400 (Eastern Daylight Time)","Mozilla/5.0 (Macintosh; Intel Mac OS X 10_15_6) AppleWebKit/537.36 (KHTML, like Gecko) Chrome/85.0.4183.102 Safari/537.36",45,"[0.9, 0.5, 0.1]","[0.8, 0.4, 0.2]","[u'blue', u'black', u'red']","[u'left', u'middle', u'right']","[0.9, 0.5, 0.1]","[u'high', u'low', u'medium']","blue",49,"left","high","True","False",263,2400,NA
"AIHHRINW9IN1I","Fri Sep 18 2020 12:28:46 GMT-0400 (Eastern Daylight Time)","Fri Sep 18 2020 12:35:42 GMT-0400 (Eastern Daylight Time)","Mozilla/5.0 (Macintosh; Intel Mac OS X 10_15_6) AppleWebKit/537.36 (KHTML, like Gecko) Chrome/85.0.4183.102 Safari/537.36",46,"[0.9, 0.5, 0.1]","[0.8, 0.4, 0.2]","[u'blue', u'black', u'red']","[u'left', u'middle', u'right']","[0.9, 0.5, 0.1]","[u'high', u'low', u'medium']","blue",49,"left","high","True","False",260,2500,NA
"AIHHRINW9IN1I","Fri Sep 18 2020 12:28:46 GMT-0400 (Eastern Daylight Time)","Fri Sep 18 2020 12:35:42 GMT-0400 (Eastern Daylight Time)","Mozilla/5.0 (Macintosh; Intel Mac OS X 10_15_6) AppleWebKit/537.36 (KHTML, like Gecko) Chrome/85.0.4183.102 Safari/537.36",47,"[0.9, 0.5, 0.1]","[0.8, 0.4, 0.2]","[u'blue', u'black', u'red']","[u'left', u'middle', u'right']","[0.9, 0.5, 0.1]","[u'high', u'low', u'medium']","blue",49,"left","high","True","False",252,2600,NA
"AIHHRINW9IN1I","Fri Sep 18 2020 12:28:46 GMT-0400 (Eastern Daylight Time)","Fri Sep 18 2020 12:35:42 GMT-0400 (Eastern Daylight Time)","Mozilla/5.0 (Macintosh; Intel Mac OS X 10_15_6) AppleWebKit/537.36 (KHTML, like Gecko) Chrome/85.0.4183.102 Safari/537.36",48,"[0.9, 0.5, 0.1]","[0.8, 0.4, 0.2]","[u'blue', u'black', u'red']","[u'left', u'middle', u'right']","[0.9, 0.5, 0.1]","[u'high', u'low', u'medium']","blue",49,"left","high","True","False",43,2700,NA
"AIHHRINW9IN1I","Fri Sep 18 2020 12:28:46 GMT-0400 (Eastern Daylight Time)","Fri Sep 18 2020 12:35:42 GMT-0400 (Eastern Daylight Time)","Mozilla/5.0 (Macintosh; Intel Mac OS X 10_15_6) AppleWebKit/537.36 (KHTML, like Gecko) Chrome/85.0.4183.102 Safari/537.36",49,"[0.9, 0.5, 0.1]","[0.8, 0.4, 0.2]","[u'blue', u'black', u'red']","[u'left', u'middle', u'right']","[0.9, 0.5, 0.1]","[u'high', u'low', u'medium']","blue",49,"left","high","True","True",151,2800,NA
"AIHHRINW9IN1I","Fri Sep 18 2020 12:28:46 GMT-0400 (Eastern Daylight Time)","Fri Sep 18 2020 12:35:42 GMT-0400 (Eastern Daylight Time)","Mozilla/5.0 (Macintosh; Intel Mac OS X 10_15_6) AppleWebKit/537.36 (KHTML, like Gecko) Chrome/85.0.4183.102 Safari/537.36",50,"[0.9, 0.5, 0.1]","[0.8, 0.4, 0.2]","[u'blue', u'black', u'red']","[u'left', u'middle', u'right']","[0.9, 0.5, 0.1]","[u'medium', u'high', u'low']","blue",49,"left","medium","False","False",283,2750,NA
"AIHHRINW9IN1I","Fri Sep 18 2020 12:28:46 GMT-0400 (Eastern Daylight Time)","Fri Sep 18 2020 12:35:42 GMT-0400 (Eastern Daylight Time)","Mozilla/5.0 (Macintosh; Intel Mac OS X 10_15_6) AppleWebKit/537.36 (KHTML, like Gecko) Chrome/85.0.4183.102 Safari/537.36",51,"[0.9, 0.5, 0.1]","[0.8, 0.4, 0.2]","[u'blue', u'black', u'red']","[u'left', u'middle', u'right']","[0.9, 0.5, 0.1]","[u'medium', u'high', u'low']","blue",49,"left","medium","True","False",174,2850,NA
"AIHHRINW9IN1I","Fri Sep 18 2020 12:28:46 GMT-0400 (Eastern Daylight Time)","Fri Sep 18 2020 12:35:42 GMT-0400 (Eastern Daylight Time)","Mozilla/5.0 (Macintosh; Intel Mac OS X 10_15_6) AppleWebKit/537.36 (KHTML, like Gecko) Chrome/85.0.4183.102 Safari/537.36",52,"[0.9, 0.5, 0.1]","[0.8, 0.4, 0.2]","[u'blue', u'black', u'red']","[u'left', u'middle', u'right']","[0.9, 0.5, 0.1]","[u'medium', u'high', u'low']","blue",49,"left","medium","True","False",194,2950,NA
"AIHHRINW9IN1I","Fri Sep 18 2020 12:28:46 GMT-0400 (Eastern Daylight Time)","Fri Sep 18 2020 12:35:42 GMT-0400 (Eastern Daylight Time)","Mozilla/5.0 (Macintosh; Intel Mac OS X 10_15_6) AppleWebKit/537.36 (KHTML, like Gecko) Chrome/85.0.4183.102 Safari/537.36",53,"[0.9, 0.5, 0.1]","[0.8, 0.4, 0.2]","[u'blue', u'black', u'red']","[u'left', u'middle', u'right']","[0.9, 0.5, 0.1]","[u'medium', u'high', u'low']","blue",49,"left","medium","True","False",262,3050,NA
"AIHHRINW9IN1I","Fri Sep 18 2020 12:28:46 GMT-0400 (Eastern Daylight Time)","Fri Sep 18 2020 12:35:42 GMT-0400 (Eastern Daylight Time)","Mozilla/5.0 (Macintosh; Intel Mac OS X 10_15_6) AppleWebKit/537.36 (KHTML, like Gecko) Chrome/85.0.4183.102 Safari/537.36",54,"[0.9, 0.5, 0.1]","[0.8, 0.4, 0.2]","[u'blue', u'black', u'red']","[u'left', u'middle', u'right']","[0.9, 0.5, 0.1]","[u'medium', u'high', u'low']","blue",49,"left","medium","True","False",195,3150,NA
"AIHHRINW9IN1I","Fri Sep 18 2020 12:28:46 GMT-0400 (Eastern Daylight Time)","Fri Sep 18 2020 12:35:42 GMT-0400 (Eastern Daylight Time)","Mozilla/5.0 (Macintosh; Intel Mac OS X 10_15_6) AppleWebKit/537.36 (KHTML, like Gecko) Chrome/85.0.4183.102 Safari/537.36",55,"[0.9, 0.5, 0.1]","[0.8, 0.4, 0.2]","[u'blue', u'black', u'red']","[u'left', u'middle', u'right']","[0.9, 0.5, 0.1]","[u'medium', u'high', u'low']","blue",49,"left","medium","True","False",241,3250,NA
"AIHHRINW9IN1I","Fri Sep 18 2020 12:28:46 GMT-0400 (Eastern Daylight Time)","Fri Sep 18 2020 12:35:42 GMT-0400 (Eastern Daylight Time)","Mozilla/5.0 (Macintosh; Intel Mac OS X 10_15_6) AppleWebKit/537.36 (KHTML, like Gecko) Chrome/85.0.4183.102 Safari/537.36",56,"[0.9, 0.5, 0.1]","[0.8, 0.4, 0.2]","[u'blue', u'black', u'red']","[u'left', u'middle', u'right']","[0.9, 0.5, 0.1]","[u'medium', u'high', u'low']","blue",49,"left","medium","True","False",171,3350,NA
"AIHHRINW9IN1I","Fri Sep 18 2020 12:28:46 GMT-0400 (Eastern Daylight Time)","Fri Sep 18 2020 12:35:42 GMT-0400 (Eastern Daylight Time)","Mozilla/5.0 (Macintosh; Intel Mac OS X 10_15_6) AppleWebKit/537.36 (KHTML, like Gecko) Chrome/85.0.4183.102 Safari/537.36",57,"[0.9, 0.5, 0.1]","[0.8, 0.4, 0.2]","[u'blue', u'black', u'red']","[u'left', u'middle', u'right']","[0.9, 0.5, 0.1]","[u'medium', u'high', u'low']","blue",49,"left","medium","True","False",134,3450,NA
"AIHHRINW9IN1I","Fri Sep 18 2020 12:28:46 GMT-0400 (Eastern Daylight Time)","Fri Sep 18 2020 12:35:42 GMT-0400 (Eastern Daylight Time)","Mozilla/5.0 (Macintosh; Intel Mac OS X 10_15_6) AppleWebKit/537.36 (KHTML, like Gecko) Chrome/85.0.4183.102 Safari/537.36",58,"[0.9, 0.5, 0.1]","[0.8, 0.4, 0.2]","[u'blue', u'black', u'red']","[u'left', u'middle', u'right']","[0.9, 0.5, 0.1]","[u'medium', u'high', u'low']","blue",49,"left","medium","False","False",220,3400,NA
"AIHHRINW9IN1I","Fri Sep 18 2020 12:28:46 GMT-0400 (Eastern Daylight Time)","Fri Sep 18 2020 12:35:42 GMT-0400 (Eastern Daylight Time)","Mozilla/5.0 (Macintosh; Intel Mac OS X 10_15_6) AppleWebKit/537.36 (KHTML, like Gecko) Chrome/85.0.4183.102 Safari/537.36",59,"[0.9, 0.5, 0.1]","[0.8, 0.4, 0.2]","[u'blue', u'black', u'red']","[u'left', u'middle', u'right']","[0.9, 0.5, 0.1]","[u'medium', u'high', u'low']","blue",49,"left","medium","True","False",247,3500,NA
"AIHHRINW9IN1I","Fri Sep 18 2020 12:28:46 GMT-0400 (Eastern Daylight Time)","Fri Sep 18 2020 12:35:42 GMT-0400 (Eastern Daylight Time)","Mozilla/5.0 (Macintosh; Intel Mac OS X 10_15_6) AppleWebKit/537.36 (KHTML, like Gecko) Chrome/85.0.4183.102 Safari/537.36",60,"[0.9, 0.5, 0.1]","[0.8, 0.4, 0.2]","[u'blue', u'black', u'red']","[u'left', u'middle', u'right']","[0.9, 0.5, 0.1]","[u'medium', u'high', u'low']","blue",49,"left","medium","False","False",244,3450,NA
"AIHHRINW9IN1I","Fri Sep 18 2020 12:28:46 GMT-0400 (Eastern Daylight Time)","Fri Sep 18 2020 12:35:42 GMT-0400 (Eastern Daylight Time)","Mozilla/5.0 (Macintosh; Intel Mac OS X 10_15_6) AppleWebKit/537.36 (KHTML, like Gecko) Chrome/85.0.4183.102 Safari/537.36",61,"[0.9, 0.5, 0.1]","[0.8, 0.4, 0.2]","[u'blue', u'black', u'red']","[u'left', u'middle', u'right']","[0.9, 0.5, 0.1]","[u'medium', u'high', u'low']","blue",49,"left","medium","True","False",226,3550,NA
"AIHHRINW9IN1I","Fri Sep 18 2020 12:28:46 GMT-0400 (Eastern Daylight Time)","Fri Sep 18 2020 12:35:42 GMT-0400 (Eastern Daylight Time)","Mozilla/5.0 (Macintosh; Intel Mac OS X 10_15_6) AppleWebKit/537.36 (KHTML, like Gecko) Chrome/85.0.4183.102 Safari/537.36",62,"[0.9, 0.5, 0.1]","[0.8, 0.4, 0.2]","[u'blue', u'black', u'red']","[u'left', u'middle', u'right']","[0.9, 0.5, 0.1]","[u'medium', u'high', u'low']","blue",49,"left","medium","False","False",155,3500,NA
"AIHHRINW9IN1I","Fri Sep 18 2020 12:28:46 GMT-0400 (Eastern Daylight Time)","Fri Sep 18 2020 12:35:42 GMT-0400 (Eastern Daylight Time)","Mozilla/5.0 (Macintosh; Intel Mac OS X 10_15_6) AppleWebKit/537.36 (KHTML, like Gecko) Chrome/85.0.4183.102 Safari/537.36",63,"[0.9, 0.5, 0.1]","[0.8, 0.4, 0.2]","[u'blue', u'black', u'red']","[u'left', u'middle', u'right']","[0.9, 0.5, 0.1]","[u'medium', u'high', u'low']","red",51,"right","low","False","False",262,3450,NA
"AIHHRINW9IN1I","Fri Sep 18 2020 12:28:46 GMT-0400 (Eastern Daylight Time)","Fri Sep 18 2020 12:35:42 GMT-0400 (Eastern Daylight Time)","Mozilla/5.0 (Macintosh; Intel Mac OS X 10_15_6) AppleWebKit/537.36 (KHTML, like Gecko) Chrome/85.0.4183.102 Safari/537.36",64,"[0.9, 0.5, 0.1]","[0.8, 0.4, 0.2]","[u'blue', u'black', u'red']","[u'left', u'middle', u'right']","[0.9, 0.5, 0.1]","[u'medium', u'high', u'low']","black",50,"middle","high","True","False",194,3550,NA
"AIHHRINW9IN1I","Fri Sep 18 2020 12:28:46 GMT-0400 (Eastern Daylight Time)","Fri Sep 18 2020 12:35:42 GMT-0400 (Eastern Daylight Time)","Mozilla/5.0 (Macintosh; Intel Mac OS X 10_15_6) AppleWebKit/537.36 (KHTML, like Gecko) Chrome/85.0.4183.102 Safari/537.36",65,"[0.9, 0.5, 0.1]","[0.8, 0.4, 0.2]","[u'blue', u'black', u'red']","[u'left', u'middle', u'right']","[0.9, 0.5, 0.1]","[u'medium', u'high', u'low']","black",50,"middle","high","True","False",227,3650,NA
"AIHHRINW9IN1I","Fri Sep 18 2020 12:28:46 GMT-0400 (Eastern Daylight Time)","Fri Sep 18 2020 12:35:42 GMT-0400 (Eastern Daylight Time)","Mozilla/5.0 (Macintosh; Intel Mac OS X 10_15_6) AppleWebKit/537.36 (KHTML, like Gecko) Chrome/85.0.4183.102 Safari/537.36",66,"[0.9, 0.5, 0.1]","[0.8, 0.4, 0.2]","[u'blue', u'black', u'red']","[u'left', u'middle', u'right']","[0.9, 0.5, 0.1]","[u'medium', u'high', u'low']","black",50,"middle","high","True","False",136,3750,NA
"AIHHRINW9IN1I","Fri Sep 18 2020 12:28:46 GMT-0400 (Eastern Daylight Time)","Fri Sep 18 2020 12:35:42 GMT-0400 (Eastern Daylight Time)","Mozilla/5.0 (Macintosh; Intel Mac OS X 10_15_6) AppleWebKit/537.36 (KHTML, like Gecko) Chrome/85.0.4183.102 Safari/537.36",67,"[0.9, 0.5, 0.1]","[0.8, 0.4, 0.2]","[u'blue', u'black', u'red']","[u'left', u'middle', u'right']","[0.9, 0.5, 0.1]","[u'medium', u'high', u'low']","black",50,"middle","high","True","False",102,3850,NA
"AIHHRINW9IN1I","Fri Sep 18 2020 12:28:46 GMT-0400 (Eastern Daylight Time)","Fri Sep 18 2020 12:35:42 GMT-0400 (Eastern Daylight Time)","Mozilla/5.0 (Macintosh; Intel Mac OS X 10_15_6) AppleWebKit/537.36 (KHTML, like Gecko) Chrome/85.0.4183.102 Safari/537.36",68,"[0.9, 0.5, 0.1]","[0.8, 0.4, 0.2]","[u'blue', u'black', u'red']","[u'left', u'middle', u'right']","[0.9, 0.5, 0.1]","[u'medium', u'high', u'low']","black",50,"middle","high","True","False",78,3950,NA
"AIHHRINW9IN1I","Fri Sep 18 2020 12:28:46 GMT-0400 (Eastern Daylight Time)","Fri Sep 18 2020 12:35:42 GMT-0400 (Eastern Daylight Time)","Mozilla/5.0 (Macintosh; Intel Mac OS X 10_15_6) AppleWebKit/537.36 (KHTML, like Gecko) Chrome/85.0.4183.102 Safari/537.36",69,"[0.9, 0.5, 0.1]","[0.8, 0.4, 0.2]","[u'blue', u'black', u'red']","[u'left', u'middle', u'right']","[0.9, 0.5, 0.1]","[u'medium', u'high', u'low']","black",50,"middle","high","True","False",252,4050,NA
"AIHHRINW9IN1I","Fri Sep 18 2020 12:28:46 GMT-0400 (Eastern Daylight Time)","Fri Sep 18 2020 12:35:42 GMT-0400 (Eastern Daylight Time)","Mozilla/5.0 (Macintosh; Intel Mac OS X 10_15_6) AppleWebKit/537.36 (KHTML, like Gecko) Chrome/85.0.4183.102 Safari/537.36",70,"[0.9, 0.5, 0.1]","[0.8, 0.4, 0.2]","[u'blue', u'black', u'red']","[u'left', u'middle', u'right']","[0.9, 0.5, 0.1]","[u'medium', u'high', u'low']","black",50,"middle","high","True","False",183,4150,NA
"AIHHRINW9IN1I","Fri Sep 18 2020 12:28:46 GMT-0400 (Eastern Daylight Time)","Fri Sep 18 2020 12:35:42 GMT-0400 (Eastern Daylight Time)","Mozilla/5.0 (Macintosh; Intel Mac OS X 10_15_6) AppleWebKit/537.36 (KHTML, like Gecko) Chrome/85.0.4183.102 Safari/537.36",71,"[0.9, 0.5, 0.1]","[0.8, 0.4, 0.2]","[u'blue', u'black', u'red']","[u'left', u'middle', u'right']","[0.9, 0.5, 0.1]","[u'medium', u'high', u'low']","black",50,"middle","high","True","False",236,4250,NA
"AIHHRINW9IN1I","Fri Sep 18 2020 12:28:46 GMT-0400 (Eastern Daylight Time)","Fri Sep 18 2020 12:35:42 GMT-0400 (Eastern Daylight Time)","Mozilla/5.0 (Macintosh; Intel Mac OS X 10_15_6) AppleWebKit/537.36 (KHTML, like Gecko) Chrome/85.0.4183.102 Safari/537.36",72,"[0.9, 0.5, 0.1]","[0.8, 0.4, 0.2]","[u'blue', u'black', u'red']","[u'left', u'middle', u'right']","[0.9, 0.5, 0.1]","[u'medium', u'high', u'low']","black",50,"middle","high","True","True",446,4350,NA
"AIHHRINW9IN1I","Fri Sep 18 2020 12:28:46 GMT-0400 (Eastern Daylight Time)","Fri Sep 18 2020 12:35:42 GMT-0400 (Eastern Daylight Time)","Mozilla/5.0 (Macintosh; Intel Mac OS X 10_15_6) AppleWebKit/537.36 (KHTML, like Gecko) Chrome/85.0.4183.102 Safari/537.36",73,"[0.9, 0.5, 0.1]","[0.8, 0.4, 0.2]","[u'blue', u'black', u'red']","[u'left', u'middle', u'right']","[0.9, 0.5, 0.1]","[u'high', u'low', u'medium']","black",50,"middle","low","False","False",249,4300,NA
"AIHHRINW9IN1I","Fri Sep 18 2020 12:28:46 GMT-0400 (Eastern Daylight Time)","Fri Sep 18 2020 12:35:42 GMT-0400 (Eastern Daylight Time)","Mozilla/5.0 (Macintosh; Intel Mac OS X 10_15_6) AppleWebKit/537.36 (KHTML, like Gecko) Chrome/85.0.4183.102 Safari/537.36",74,"[0.9, 0.5, 0.1]","[0.8, 0.4, 0.2]","[u'blue', u'black', u'red']","[u'left', u'middle', u'right']","[0.9, 0.5, 0.1]","[u'high', u'low', u'medium']","black",50,"middle","low","False","False",337,4250,NA
"AIHHRINW9IN1I","Fri Sep 18 2020 12:28:46 GMT-0400 (Eastern Daylight Time)","Fri Sep 18 2020 12:35:42 GMT-0400 (Eastern Daylight Time)","Mozilla/5.0 (Macintosh; Intel Mac OS X 10_15_6) AppleWebKit/537.36 (KHTML, like Gecko) Chrome/85.0.4183.102 Safari/537.36",75,"[0.9, 0.5, 0.1]","[0.8, 0.4, 0.2]","[u'blue', u'black', u'red']","[u'left', u'middle', u'right']","[0.9, 0.5, 0.1]","[u'high', u'low', u'medium']","black",50,"middle","low","False","False",259,4200,NA
"AIHHRINW9IN1I","Fri Sep 18 2020 12:28:46 GMT-0400 (Eastern Daylight Time)","Fri Sep 18 2020 12:35:42 GMT-0400 (Eastern Daylight Time)","Mozilla/5.0 (Macintosh; Intel Mac OS X 10_15_6) AppleWebKit/537.36 (KHTML, like Gecko) Chrome/85.0.4183.102 Safari/537.36",76,"[0.9, 0.5, 0.1]","[0.8, 0.4, 0.2]","[u'blue', u'black', u'red']","[u'left', u'middle', u'right']","[0.9, 0.5, 0.1]","[u'high', u'low', u'medium']","red",51,"right","medium","True","False",223,4300,NA
"AIHHRINW9IN1I","Fri Sep 18 2020 12:28:46 GMT-0400 (Eastern Daylight Time)","Fri Sep 18 2020 12:35:42 GMT-0400 (Eastern Daylight Time)","Mozilla/5.0 (Macintosh; Intel Mac OS X 10_15_6) AppleWebKit/537.36 (KHTML, like Gecko) Chrome/85.0.4183.102 Safari/537.36",77,"[0.9, 0.5, 0.1]","[0.8, 0.4, 0.2]","[u'blue', u'black', u'red']","[u'left', u'middle', u'right']","[0.9, 0.5, 0.1]","[u'high', u'low', u'medium']","red",51,"right","medium","True","False",39,4400,NA
"AIHHRINW9IN1I","Fri Sep 18 2020 12:28:46 GMT-0400 (Eastern Daylight Time)","Fri Sep 18 2020 12:35:42 GMT-0400 (Eastern Daylight Time)","Mozilla/5.0 (Macintosh; Intel Mac OS X 10_15_6) AppleWebKit/537.36 (KHTML, like Gecko) Chrome/85.0.4183.102 Safari/537.36",78,"[0.9, 0.5, 0.1]","[0.8, 0.4, 0.2]","[u'blue', u'black', u'red']","[u'left', u'middle', u'right']","[0.9, 0.5, 0.1]","[u'high', u'low', u'medium']","red",51,"right","medium","False","False",183,4350,NA
"AIHHRINW9IN1I","Fri Sep 18 2020 12:28:46 GMT-0400 (Eastern Daylight Time)","Fri Sep 18 2020 12:35:42 GMT-0400 (Eastern Daylight Time)","Mozilla/5.0 (Macintosh; Intel Mac OS X 10_15_6) AppleWebKit/537.36 (KHTML, like Gecko) Chrome/85.0.4183.102 Safari/537.36",79,"[0.9, 0.5, 0.1]","[0.8, 0.4, 0.2]","[u'blue', u'black', u'red']","[u'left', u'middle', u'right']","[0.9, 0.5, 0.1]","[u'high', u'low', u'medium']","red",51,"right","medium","False","False",131,4300,NA
"AIHHRINW9IN1I","Fri Sep 18 2020 12:28:46 GMT-0400 (Eastern Daylight Time)","Fri Sep 18 2020 12:35:42 GMT-0400 (Eastern Daylight Time)","Mozilla/5.0 (Macintosh; Intel Mac OS X 10_15_6) AppleWebKit/537.36 (KHTML, like Gecko) Chrome/85.0.4183.102 Safari/537.36",80,"[0.9, 0.5, 0.1]","[0.8, 0.4, 0.2]","[u'blue', u'black', u'red']","[u'left', u'middle', u'right']","[0.9, 0.5, 0.1]","[u'high', u'low', u'medium']","blue",49,"left","high","True","False",230,4400,NA
"AIHHRINW9IN1I","Fri Sep 18 2020 12:28:46 GMT-0400 (Eastern Daylight Time)","Fri Sep 18 2020 12:35:42 GMT-0400 (Eastern Daylight Time)","Mozilla/5.0 (Macintosh; Intel Mac OS X 10_15_6) AppleWebKit/537.36 (KHTML, like Gecko) Chrome/85.0.4183.102 Safari/537.36",81,"[0.9, 0.5, 0.1]","[0.8, 0.4, 0.2]","[u'blue', u'black', u'red']","[u'left', u'middle', u'right']","[0.8, 0.4, 0.2]","[u'medium', u'low', u'high']","blue",49,"left","medium","True","False",421,4500,NA
"AIHHRINW9IN1I","Fri Sep 18 2020 12:28:46 GMT-0400 (Eastern Daylight Time)","Fri Sep 18 2020 12:35:42 GMT-0400 (Eastern Daylight Time)","Mozilla/5.0 (Macintosh; Intel Mac OS X 10_15_6) AppleWebKit/537.36 (KHTML, like Gecko) Chrome/85.0.4183.102 Safari/537.36",82,"[0.9, 0.5, 0.1]","[0.8, 0.4, 0.2]","[u'blue', u'black', u'red']","[u'left', u'middle', u'right']","[0.8, 0.4, 0.2]","[u'medium', u'low', u'high']","blue",49,"left","medium","True","False",249,4600,NA
"AIHHRINW9IN1I","Fri Sep 18 2020 12:28:46 GMT-0400 (Eastern Daylight Time)","Fri Sep 18 2020 12:35:42 GMT-0400 (Eastern Daylight Time)","Mozilla/5.0 (Macintosh; Intel Mac OS X 10_15_6) AppleWebKit/537.36 (KHTML, like Gecko) Chrome/85.0.4183.102 Safari/537.36",83,"[0.9, 0.5, 0.1]","[0.8, 0.4, 0.2]","[u'blue', u'black', u'red']","[u'left', u'middle', u'right']","[0.8, 0.4, 0.2]","[u'medium', u'low', u'high']","blue",49,"left","medium","False","False",257,4550,NA
"AIHHRINW9IN1I","Fri Sep 18 2020 12:28:46 GMT-0400 (Eastern Daylight Time)","Fri Sep 18 2020 12:35:42 GMT-0400 (Eastern Daylight Time)","Mozilla/5.0 (Macintosh; Intel Mac OS X 10_15_6) AppleWebKit/537.36 (KHTML, like Gecko) Chrome/85.0.4183.102 Safari/537.36",84,"[0.9, 0.5, 0.1]","[0.8, 0.4, 0.2]","[u'blue', u'black', u'red']","[u'left', u'middle', u'right']","[0.8, 0.4, 0.2]","[u'medium', u'low', u'high']","blue",49,"left","medium","True","False",203,4650,NA
"AIHHRINW9IN1I","Fri Sep 18 2020 12:28:46 GMT-0400 (Eastern Daylight Time)","Fri Sep 18 2020 12:35:42 GMT-0400 (Eastern Daylight Time)","Mozilla/5.0 (Macintosh; Intel Mac OS X 10_15_6) AppleWebKit/537.36 (KHTML, like Gecko) Chrome/85.0.4183.102 Safari/537.36",85,"[0.9, 0.5, 0.1]","[0.8, 0.4, 0.2]","[u'blue', u'black', u'red']","[u'left', u'middle', u'right']","[0.8, 0.4, 0.2]","[u'medium', u'low', u'high']","blue",49,"left","medium","True","False",255,4750,NA
"AIHHRINW9IN1I","Fri Sep 18 2020 12:28:46 GMT-0400 (Eastern Daylight Time)","Fri Sep 18 2020 12:35:42 GMT-0400 (Eastern Daylight Time)","Mozilla/5.0 (Macintosh; Intel Mac OS X 10_15_6) AppleWebKit/537.36 (KHTML, like Gecko) Chrome/85.0.4183.102 Safari/537.36",86,"[0.9, 0.5, 0.1]","[0.8, 0.4, 0.2]","[u'blue', u'black', u'red']","[u'left', u'middle', u'right']","[0.8, 0.4, 0.2]","[u'medium', u'low', u'high']","blue",49,"left","medium","False","False",233,4700,NA
"AIHHRINW9IN1I","Fri Sep 18 2020 12:28:46 GMT-0400 (Eastern Daylight Time)","Fri Sep 18 2020 12:35:42 GMT-0400 (Eastern Daylight Time)","Mozilla/5.0 (Macintosh; Intel Mac OS X 10_15_6) AppleWebKit/537.36 (KHTML, like Gecko) Chrome/85.0.4183.102 Safari/537.36",87,"[0.9, 0.5, 0.1]","[0.8, 0.4, 0.2]","[u'blue', u'black', u'red']","[u'left', u'middle', u'right']","[0.8, 0.4, 0.2]","[u'medium', u'low', u'high']","blue",49,"left","medium","False","False",242,4650,NA
"AIHHRINW9IN1I","Fri Sep 18 2020 12:28:46 GMT-0400 (Eastern Daylight Time)","Fri Sep 18 2020 12:35:42 GMT-0400 (Eastern Daylight Time)","Mozilla/5.0 (Macintosh; Intel Mac OS X 10_15_6) AppleWebKit/537.36 (KHTML, like Gecko) Chrome/85.0.4183.102 Safari/537.36",88,"[0.9, 0.5, 0.1]","[0.8, 0.4, 0.2]","[u'blue', u'black', u'red']","[u'left', u'middle', u'right']","[0.8, 0.4, 0.2]","[u'medium', u'low', u'high']","blue",49,"left","medium","False","False",187,4600,NA
"AIHHRINW9IN1I","Fri Sep 18 2020 12:28:46 GMT-0400 (Eastern Daylight Time)","Fri Sep 18 2020 12:35:42 GMT-0400 (Eastern Daylight Time)","Mozilla/5.0 (Macintosh; Intel Mac OS X 10_15_6) AppleWebKit/537.36 (KHTML, like Gecko) Chrome/85.0.4183.102 Safari/537.36",89,"[0.9, 0.5, 0.1]","[0.8, 0.4, 0.2]","[u'blue', u'black', u'red']","[u'left', u'middle', u'right']","[0.8, 0.4, 0.2]","[u'medium', u'low', u'high']","black",50,"middle","low","True","False",231,4700,NA
"AIHHRINW9IN1I","Fri Sep 18 2020 12:28:46 GMT-0400 (Eastern Daylight Time)","Fri Sep 18 2020 12:35:42 GMT-0400 (Eastern Daylight Time)","Mozilla/5.0 (Macintosh; Intel Mac OS X 10_15_6) AppleWebKit/537.36 (KHTML, like Gecko) Chrome/85.0.4183.102 Safari/537.36",90,"[0.9, 0.5, 0.1]","[0.8, 0.4, 0.2]","[u'blue', u'black', u'red']","[u'left', u'middle', u'right']","[0.8, 0.4, 0.2]","[u'medium', u'low', u'high']","black",50,"middle","low","False","False",291,4650,NA
"AIHHRINW9IN1I","Fri Sep 18 2020 12:28:46 GMT-0400 (Eastern Daylight Time)","Fri Sep 18 2020 12:35:42 GMT-0400 (Eastern Daylight Time)","Mozilla/5.0 (Macintosh; Intel Mac OS X 10_15_6) AppleWebKit/537.36 (KHTML, like Gecko) Chrome/85.0.4183.102 Safari/537.36",91,"[0.9, 0.5, 0.1]","[0.8, 0.4, 0.2]","[u'blue', u'black', u'red']","[u'left', u'middle', u'right']","[0.8, 0.4, 0.2]","[u'medium', u'low', u'high']","black",50,"middle","low","True","False",241,4750,NA
"AIHHRINW9IN1I","Fri Sep 18 2020 12:28:46 GMT-0400 (Eastern Daylight Time)","Fri Sep 18 2020 12:35:42 GMT-0400 (Eastern Daylight Time)","Mozilla/5.0 (Macintosh; Intel Mac OS X 10_15_6) AppleWebKit/537.36 (KHTML, like Gecko) Chrome/85.0.4183.102 Safari/537.36",92,"[0.9, 0.5, 0.1]","[0.8, 0.4, 0.2]","[u'blue', u'black', u'red']","[u'left', u'middle', u'right']","[0.8, 0.4, 0.2]","[u'medium', u'low', u'high']","black",50,"middle","low","False","False",188,4700,NA
"AIHHRINW9IN1I","Fri Sep 18 2020 12:28:46 GMT-0400 (Eastern Daylight Time)","Fri Sep 18 2020 12:35:42 GMT-0400 (Eastern Daylight Time)","Mozilla/5.0 (Macintosh; Intel Mac OS X 10_15_6) AppleWebKit/537.36 (KHTML, like Gecko) Chrome/85.0.4183.102 Safari/537.36",93,"[0.9, 0.5, 0.1]","[0.8, 0.4, 0.2]","[u'blue', u'black', u'red']","[u'left', u'middle', u'right']","[0.8, 0.4, 0.2]","[u'medium', u'low', u'high']","black",50,"middle","low","False","False",136,4650,NA
"AIHHRINW9IN1I","Fri Sep 18 2020 12:28:46 GMT-0400 (Eastern Daylight Time)","Fri Sep 18 2020 12:35:42 GMT-0400 (Eastern Daylight Time)","Mozilla/5.0 (Macintosh; Intel Mac OS X 10_15_6) AppleWebKit/537.36 (KHTML, like Gecko) Chrome/85.0.4183.102 Safari/537.36",94,"[0.9, 0.5, 0.1]","[0.8, 0.4, 0.2]","[u'blue', u'black', u'red']","[u'left', u'middle', u'right']","[0.8, 0.4, 0.2]","[u'medium', u'low', u'high']","red",51,"right","high","True","False",170,4750,NA
"AIHHRINW9IN1I","Fri Sep 18 2020 12:28:46 GMT-0400 (Eastern Daylight Time)","Fri Sep 18 2020 12:35:42 GMT-0400 (Eastern Daylight Time)","Mozilla/5.0 (Macintosh; Intel Mac OS X 10_15_6) AppleWebKit/537.36 (KHTML, like Gecko) Chrome/85.0.4183.102 Safari/537.36",95,"[0.9, 0.5, 0.1]","[0.8, 0.4, 0.2]","[u'blue', u'black', u'red']","[u'left', u'middle', u'right']","[0.8, 0.4, 0.2]","[u'medium', u'low', u'high']","red",51,"right","high","True","False",105,4850,NA
"AIHHRINW9IN1I","Fri Sep 18 2020 12:28:46 GMT-0400 (Eastern Daylight Time)","Fri Sep 18 2020 12:35:42 GMT-0400 (Eastern Daylight Time)","Mozilla/5.0 (Macintosh; Intel Mac OS X 10_15_6) AppleWebKit/537.36 (KHTML, like Gecko) Chrome/85.0.4183.102 Safari/537.36",96,"[0.9, 0.5, 0.1]","[0.8, 0.4, 0.2]","[u'blue', u'black', u'red']","[u'left', u'middle', u'right']","[0.8, 0.4, 0.2]","[u'medium', u'low', u'high']","red",51,"right","high","False","False",71,4800,NA
"AIHHRINW9IN1I","Fri Sep 18 2020 12:28:46 GMT-0400 (Eastern Daylight Time)","Fri Sep 18 2020 12:35:42 GMT-0400 (Eastern Daylight Time)","Mozilla/5.0 (Macintosh; Intel Mac OS X 10_15_6) AppleWebKit/537.36 (KHTML, like Gecko) Chrome/85.0.4183.102 Safari/537.36",97,"[0.9, 0.5, 0.1]","[0.8, 0.4, 0.2]","[u'blue', u'black', u'red']","[u'left', u'middle', u'right']","[0.8, 0.4, 0.2]","[u'medium', u'low', u'high']","red",51,"right","high","True","False",73,4900,NA
"AIHHRINW9IN1I","Fri Sep 18 2020 12:28:46 GMT-0400 (Eastern Daylight Time)","Fri Sep 18 2020 12:35:42 GMT-0400 (Eastern Daylight Time)","Mozilla/5.0 (Macintosh; Intel Mac OS X 10_15_6) AppleWebKit/537.36 (KHTML, like Gecko) Chrome/85.0.4183.102 Safari/537.36",98,"[0.9, 0.5, 0.1]","[0.8, 0.4, 0.2]","[u'blue', u'black', u'red']","[u'left', u'middle', u'right']","[0.8, 0.4, 0.2]","[u'medium', u'low', u'high']","red",51,"right","high","True","False",210,5000,NA
"AIHHRINW9IN1I","Fri Sep 18 2020 12:28:46 GMT-0400 (Eastern Daylight Time)","Fri Sep 18 2020 12:35:42 GMT-0400 (Eastern Daylight Time)","Mozilla/5.0 (Macintosh; Intel Mac OS X 10_15_6) AppleWebKit/537.36 (KHTML, like Gecko) Chrome/85.0.4183.102 Safari/537.36",99,"[0.9, 0.5, 0.1]","[0.8, 0.4, 0.2]","[u'blue', u'black', u'red']","[u'left', u'middle', u'right']","[0.8, 0.4, 0.2]","[u'medium', u'low', u'high']","red",51,"right","high","True","False",138,5100,NA
"AIHHRINW9IN1I","Fri Sep 18 2020 12:28:46 GMT-0400 (Eastern Daylight Time)","Fri Sep 18 2020 12:35:42 GMT-0400 (Eastern Daylight Time)","Mozilla/5.0 (Macintosh; Intel Mac OS X 10_15_6) AppleWebKit/537.36 (KHTML, like Gecko) Chrome/85.0.4183.102 Safari/537.36",100,"[0.9, 0.5, 0.1]","[0.8, 0.4, 0.2]","[u'blue', u'black', u'red']","[u'left', u'middle', u'right']","[0.8, 0.4, 0.2]","[u'medium', u'low', u'high']","red",51,"right","high","True","False",34,5200,NA
"AIHHRINW9IN1I","Fri Sep 18 2020 12:28:46 GMT-0400 (Eastern Daylight Time)","Fri Sep 18 2020 12:35:42 GMT-0400 (Eastern Daylight Time)","Mozilla/5.0 (Macintosh; Intel Mac OS X 10_15_6) AppleWebKit/537.36 (KHTML, like Gecko) Chrome/85.0.4183.102 Safari/537.36",101,"[0.9, 0.5, 0.1]","[0.8, 0.4, 0.2]","[u'blue', u'black', u'red']","[u'left', u'middle', u'right']","[0.8, 0.4, 0.2]","[u'medium', u'low', u'high']","red",51,"right","high","True","False",232,5300,NA
"AIHHRINW9IN1I","Fri Sep 18 2020 12:28:46 GMT-0400 (Eastern Daylight Time)","Fri Sep 18 2020 12:35:42 GMT-0400 (Eastern Daylight Time)","Mozilla/5.0 (Macintosh; Intel Mac OS X 10_15_6) AppleWebKit/537.36 (KHTML, like Gecko) Chrome/85.0.4183.102 Safari/537.36",102,"[0.9, 0.5, 0.1]","[0.8, 0.4, 0.2]","[u'blue', u'black', u'red']","[u'left', u'middle', u'right']","[0.8, 0.4, 0.2]","[u'medium', u'low', u'high']","red",51,"right","high","True","True",218,5400,NA
"AIHHRINW9IN1I","Fri Sep 18 2020 12:28:46 GMT-0400 (Eastern Daylight Time)","Fri Sep 18 2020 12:35:42 GMT-0400 (Eastern Daylight Time)","Mozilla/5.0 (Macintosh; Intel Mac OS X 10_15_6) AppleWebKit/537.36 (KHTML, like Gecko) Chrome/85.0.4183.102 Safari/537.36",103,"[0.9, 0.5, 0.1]","[0.8, 0.4, 0.2]","[u'blue', u'black', u'red']","[u'left', u'middle', u'right']","[0.8, 0.4, 0.2]","[u'high', u'low', u'medium']","red",51,"right","medium","False","False",69,5350,NA
"AIHHRINW9IN1I","Fri Sep 18 2020 12:28:46 GMT-0400 (Eastern Daylight Time)","Fri Sep 18 2020 12:35:42 GMT-0400 (Eastern Daylight Time)","Mozilla/5.0 (Macintosh; Intel Mac OS X 10_15_6) AppleWebKit/537.36 (KHTML, like Gecko) Chrome/85.0.4183.102 Safari/537.36",104,"[0.9, 0.5, 0.1]","[0.8, 0.4, 0.2]","[u'blue', u'black', u'red']","[u'left', u'middle', u'right']","[0.8, 0.4, 0.2]","[u'high', u'low', u'medium']","red",51,"right","medium","False","False",159,5300,NA
"AIHHRINW9IN1I","Fri Sep 18 2020 12:28:46 GMT-0400 (Eastern Daylight Time)","Fri Sep 18 2020 12:35:42 GMT-0400 (Eastern Daylight Time)","Mozilla/5.0 (Macintosh; Intel Mac OS X 10_15_6) AppleWebKit/537.36 (KHTML, like Gecko) Chrome/85.0.4183.102 Safari/537.36",105,"[0.9, 0.5, 0.1]","[0.8, 0.4, 0.2]","[u'blue', u'black', u'red']","[u'left', u'middle', u'right']","[0.8, 0.4, 0.2]","[u'high', u'low', u'medium']","red",51,"right","medium","False","False",435,5250,NA
"AIHHRINW9IN1I","Fri Sep 18 2020 12:28:46 GMT-0400 (Eastern Daylight Time)","Fri Sep 18 2020 12:35:42 GMT-0400 (Eastern Daylight Time)","Mozilla/5.0 (Macintosh; Intel Mac OS X 10_15_6) AppleWebKit/537.36 (KHTML, like Gecko) Chrome/85.0.4183.102 Safari/537.36",106,"[0.9, 0.5, 0.1]","[0.8, 0.4, 0.2]","[u'blue', u'black', u'red']","[u'left', u'middle', u'right']","[0.8, 0.4, 0.2]","[u'high', u'low', u'medium']","black",50,"middle","low","False","False",221,5200,NA
"AIHHRINW9IN1I","Fri Sep 18 2020 12:28:46 GMT-0400 (Eastern Daylight Time)","Fri Sep 18 2020 12:35:42 GMT-0400 (Eastern Daylight Time)","Mozilla/5.0 (Macintosh; Intel Mac OS X 10_15_6) AppleWebKit/537.36 (KHTML, like Gecko) Chrome/85.0.4183.102 Safari/537.36",107,"[0.9, 0.5, 0.1]","[0.8, 0.4, 0.2]","[u'blue', u'black', u'red']","[u'left', u'middle', u'right']","[0.8, 0.4, 0.2]","[u'high', u'low', u'medium']","blue",49,"left","high","True","False",233,5300,NA
"AIHHRINW9IN1I","Fri Sep 18 2020 12:28:46 GMT-0400 (Eastern Daylight Time)","Fri Sep 18 2020 12:35:42 GMT-0400 (Eastern Daylight Time)","Mozilla/5.0 (Macintosh; Intel Mac OS X 10_15_6) AppleWebKit/537.36 (KHTML, like Gecko) Chrome/85.0.4183.102 Safari/537.36",108,"[0.9, 0.5, 0.1]","[0.8, 0.4, 0.2]","[u'blue', u'black', u'red']","[u'left', u'middle', u'right']","[0.8, 0.4, 0.2]","[u'high', u'low', u'medium']","blue",49,"left","high","True","False",205,5400,NA
"AIHHRINW9IN1I","Fri Sep 18 2020 12:28:46 GMT-0400 (Eastern Daylight Time)","Fri Sep 18 2020 12:35:42 GMT-0400 (Eastern Daylight Time)","Mozilla/5.0 (Macintosh; Intel Mac OS X 10_15_6) AppleWebKit/537.36 (KHTML, like Gecko) Chrome/85.0.4183.102 Safari/537.36",109,"[0.9, 0.5, 0.1]","[0.8, 0.4, 0.2]","[u'blue', u'black', u'red']","[u'left', u'middle', u'right']","[0.8, 0.4, 0.2]","[u'high', u'low', u'medium']","blue",49,"left","high","False","False",81,5350,NA
"AIHHRINW9IN1I","Fri Sep 18 2020 12:28:46 GMT-0400 (Eastern Daylight Time)","Fri Sep 18 2020 12:35:42 GMT-0400 (Eastern Daylight Time)","Mozilla/5.0 (Macintosh; Intel Mac OS X 10_15_6) AppleWebKit/537.36 (KHTML, like Gecko) Chrome/85.0.4183.102 Safari/537.36",110,"[0.9, 0.5, 0.1]","[0.8, 0.4, 0.2]","[u'blue', u'black', u'red']","[u'left', u'middle', u'right']","[0.8, 0.4, 0.2]","[u'high', u'low', u'medium']","blue",49,"left","high","True","False",155,5450,NA
"AIHHRINW9IN1I","Fri Sep 18 2020 12:28:46 GMT-0400 (Eastern Daylight Time)","Fri Sep 18 2020 12:35:42 GMT-0400 (Eastern Daylight Time)","Mozilla/5.0 (Macintosh; Intel Mac OS X 10_15_6) AppleWebKit/537.36 (KHTML, like Gecko) Chrome/85.0.4183.102 Safari/537.36",111,"[0.9, 0.5, 0.1]","[0.8, 0.4, 0.2]","[u'blue', u'black', u'red']","[u'left', u'middle', u'right']","[0.8, 0.4, 0.2]","[u'high', u'low', u'medium']","blue",49,"left","high","True","False",254,5550,NA
"AIHHRINW9IN1I","Fri Sep 18 2020 12:28:46 GMT-0400 (Eastern Daylight Time)","Fri Sep 18 2020 12:35:42 GMT-0400 (Eastern Daylight Time)","Mozilla/5.0 (Macintosh; Intel Mac OS X 10_15_6) AppleWebKit/537.36 (KHTML, like Gecko) Chrome/85.0.4183.102 Safari/537.36",112,"[0.9, 0.5, 0.1]","[0.8, 0.4, 0.2]","[u'blue', u'black', u'red']","[u'left', u'middle', u'right']","[0.8, 0.4, 0.2]","[u'high', u'low', u'medium']","blue",49,"left","high","True","False",250,5650,NA
"AIHHRINW9IN1I","Fri Sep 18 2020 12:28:46 GMT-0400 (Eastern Daylight Time)","Fri Sep 18 2020 12:35:42 GMT-0400 (Eastern Daylight Time)","Mozilla/5.0 (Macintosh; Intel Mac OS X 10_15_6) AppleWebKit/537.36 (KHTML, like Gecko) Chrome/85.0.4183.102 Safari/537.36",113,"[0.9, 0.5, 0.1]","[0.8, 0.4, 0.2]","[u'blue', u'black', u'red']","[u'left', u'middle', u'right']","[0.8, 0.4, 0.2]","[u'high', u'low', u'medium']","blue",49,"left","high","True","False",156,5750,NA
"AIHHRINW9IN1I","Fri Sep 18 2020 12:28:46 GMT-0400 (Eastern Daylight Time)","Fri Sep 18 2020 12:35:42 GMT-0400 (Eastern Daylight Time)","Mozilla/5.0 (Macintosh; Intel Mac OS X 10_15_6) AppleWebKit/537.36 (KHTML, like Gecko) Chrome/85.0.4183.102 Safari/537.36",114,"[0.9, 0.5, 0.1]","[0.8, 0.4, 0.2]","[u'blue', u'black', u'red']","[u'left', u'middle', u'right']","[0.8, 0.4, 0.2]","[u'high', u'low', u'medium']","blue",49,"left","high","True","False",242,5850,NA
"AIHHRINW9IN1I","Fri Sep 18 2020 12:28:46 GMT-0400 (Eastern Daylight Time)","Fri Sep 18 2020 12:35:42 GMT-0400 (Eastern Daylight Time)","Mozilla/5.0 (Macintosh; Intel Mac OS X 10_15_6) AppleWebKit/537.36 (KHTML, like Gecko) Chrome/85.0.4183.102 Safari/537.36",115,"[0.9, 0.5, 0.1]","[0.8, 0.4, 0.2]","[u'blue', u'black', u'red']","[u'left', u'middle', u'right']","[0.8, 0.4, 0.2]","[u'high', u'low', u'medium']","blue",49,"left","high","True","True",153,5950,NA
"AIHHRINW9IN1I","Fri Sep 18 2020 12:28:46 GMT-0400 (Eastern Daylight Time)","Fri Sep 18 2020 12:35:42 GMT-0400 (Eastern Daylight Time)","Mozilla/5.0 (Macintosh; Intel Mac OS X 10_15_6) AppleWebKit/537.36 (KHTML, like Gecko) Chrome/85.0.4183.102 Safari/537.36",116,"[0.9, 0.5, 0.1]","[0.8, 0.4, 0.2]","[u'blue', u'black', u'red']","[u'left', u'middle', u'right']","[0.8, 0.4, 0.2]","[u'medium', u'low', u'high']","blue",49,"left","medium","False","False",174,5900,NA
"AIHHRINW9IN1I","Fri Sep 18 2020 12:28:46 GMT-0400 (Eastern Daylight Time)","Fri Sep 18 2020 12:35:42 GMT-0400 (Eastern Daylight Time)","Mozilla/5.0 (Macintosh; Intel Mac OS X 10_15_6) AppleWebKit/537.36 (KHTML, like Gecko) Chrome/85.0.4183.102 Safari/537.36",117,"[0.9, 0.5, 0.1]","[0.8, 0.4, 0.2]","[u'blue', u'black', u'red']","[u'left', u'middle', u'right']","[0.8, 0.4, 0.2]","[u'medium', u'low', u'high']","blue",49,"left","medium","True","False",145,6000,NA
"AIHHRINW9IN1I","Fri Sep 18 2020 12:28:46 GMT-0400 (Eastern Daylight Time)","Fri Sep 18 2020 12:35:42 GMT-0400 (Eastern Daylight Time)","Mozilla/5.0 (Macintosh; Intel Mac OS X 10_15_6) AppleWebKit/537.36 (KHTML, like Gecko) Chrome/85.0.4183.102 Safari/537.36",118,"[0.9, 0.5, 0.1]","[0.8, 0.4, 0.2]","[u'blue', u'black', u'red']","[u'left', u'middle', u'right']","[0.8, 0.4, 0.2]","[u'medium', u'low', u'high']","blue",49,"left","medium","True","False",190,6100,NA
"AIHHRINW9IN1I","Fri Sep 18 2020 12:28:46 GMT-0400 (Eastern Daylight Time)","Fri Sep 18 2020 12:35:42 GMT-0400 (Eastern Daylight Time)","Mozilla/5.0 (Macintosh; Intel Mac OS X 10_15_6) AppleWebKit/537.36 (KHTML, like Gecko) Chrome/85.0.4183.102 Safari/537.36",119,"[0.9, 0.5, 0.1]","[0.8, 0.4, 0.2]","[u'blue', u'black', u'red']","[u'left', u'middle', u'right']","[0.8, 0.4, 0.2]","[u'medium', u'low', u'high']","blue",49,"left","medium","False","False",103,6050,NA
"AIHHRINW9IN1I","Fri Sep 18 2020 12:28:46 GMT-0400 (Eastern Daylight Time)","Fri Sep 18 2020 12:35:42 GMT-0400 (Eastern Daylight Time)","Mozilla/5.0 (Macintosh; Intel Mac OS X 10_15_6) AppleWebKit/537.36 (KHTML, like Gecko) Chrome/85.0.4183.102 Safari/537.36",120,"[0.9, 0.5, 0.1]","[0.8, 0.4, 0.2]","[u'blue', u'black', u'red']","[u'left', u'middle', u'right']","[0.8, 0.4, 0.2]","[u'medium', u'low', u'high']","black",50,"middle","low","False","False",194,6000,NA
"AIHHRINW9IN1I","Fri Sep 18 2020 12:28:46 GMT-0400 (Eastern Daylight Time)","Fri Sep 18 2020 12:35:42 GMT-0400 (Eastern Daylight Time)","Mozilla/5.0 (Macintosh; Intel Mac OS X 10_15_6) AppleWebKit/537.36 (KHTML, like Gecko) Chrome/85.0.4183.102 Safari/537.36",121,"[0.9, 0.5, 0.1]","[0.8, 0.4, 0.2]","[u'blue', u'black', u'red']","[u'left', u'middle', u'right']","[0.8, 0.4, 0.2]","[u'low', u'high', u'medium']","blue",49,"left","low","False","False",401,5950,NA
"AIHHRINW9IN1I","Fri Sep 18 2020 12:28:46 GMT-0400 (Eastern Daylight Time)","Fri Sep 18 2020 12:35:42 GMT-0400 (Eastern Daylight Time)","Mozilla/5.0 (Macintosh; Intel Mac OS X 10_15_6) AppleWebKit/537.36 (KHTML, like Gecko) Chrome/85.0.4183.102 Safari/537.36",122,"[0.9, 0.5, 0.1]","[0.8, 0.4, 0.2]","[u'blue', u'black', u'red']","[u'left', u'middle', u'right']","[0.8, 0.4, 0.2]","[u'low', u'high', u'medium']","blue",49,"left","low","False","False",83,5900,NA
"AIHHRINW9IN1I","Fri Sep 18 2020 12:28:46 GMT-0400 (Eastern Daylight Time)","Fri Sep 18 2020 12:35:42 GMT-0400 (Eastern Daylight Time)","Mozilla/5.0 (Macintosh; Intel Mac OS X 10_15_6) AppleWebKit/537.36 (KHTML, like Gecko) Chrome/85.0.4183.102 Safari/537.36",123,"[0.9, 0.5, 0.1]","[0.8, 0.4, 0.2]","[u'blue', u'black', u'red']","[u'left', u'middle', u'right']","[0.8, 0.4, 0.2]","[u'low', u'high', u'medium']","black",50,"middle","high","True","False",186,6000,NA
"AIHHRINW9IN1I","Fri Sep 18 2020 12:28:46 GMT-0400 (Eastern Daylight Time)","Fri Sep 18 2020 12:35:42 GMT-0400 (Eastern Daylight Time)","Mozilla/5.0 (Macintosh; Intel Mac OS X 10_15_6) AppleWebKit/537.36 (KHTML, like Gecko) Chrome/85.0.4183.102 Safari/537.36",124,"[0.9, 0.5, 0.1]","[0.8, 0.4, 0.2]","[u'blue', u'black', u'red']","[u'left', u'middle', u'right']","[0.8, 0.4, 0.2]","[u'low', u'high', u'medium']","black",50,"middle","high","True","False",113,6100,NA
"AIHHRINW9IN1I","Fri Sep 18 2020 12:28:46 GMT-0400 (Eastern Daylight Time)","Fri Sep 18 2020 12:35:42 GMT-0400 (Eastern Daylight Time)","Mozilla/5.0 (Macintosh; Intel Mac OS X 10_15_6) AppleWebKit/537.36 (KHTML, like Gecko) Chrome/85.0.4183.102 Safari/537.36",125,"[0.9, 0.5, 0.1]","[0.8, 0.4, 0.2]","[u'blue', u'black', u'red']","[u'left', u'middle', u'right']","[0.8, 0.4, 0.2]","[u'low', u'high', u'medium']","black",50,"middle","high","True","False",239,6200,NA
"AIHHRINW9IN1I","Fri Sep 18 2020 12:28:46 GMT-0400 (Eastern Daylight Time)","Fri Sep 18 2020 12:35:42 GMT-0400 (Eastern Daylight Time)","Mozilla/5.0 (Macintosh; Intel Mac OS X 10_15_6) AppleWebKit/537.36 (KHTML, like Gecko) Chrome/85.0.4183.102 Safari/537.36",126,"[0.9, 0.5, 0.1]","[0.8, 0.4, 0.2]","[u'blue', u'black', u'red']","[u'left', u'middle', u'right']","[0.8, 0.4, 0.2]","[u'low', u'high', u'medium']","black",50,"middle","high","True","False",102,6300,NA
"AIHHRINW9IN1I","Fri Sep 18 2020 12:28:46 GMT-0400 (Eastern Daylight Time)","Fri Sep 18 2020 12:35:42 GMT-0400 (Eastern Daylight Time)","Mozilla/5.0 (Macintosh; Intel Mac OS X 10_15_6) AppleWebKit/537.36 (KHTML, like Gecko) Chrome/85.0.4183.102 Safari/537.36",127,"[0.9, 0.5, 0.1]","[0.8, 0.4, 0.2]","[u'blue', u'black', u'red']","[u'left', u'middle', u'right']","[0.8, 0.4, 0.2]","[u'low', u'high', u'medium']","black",50,"middle","high","True","False",239,6400,NA
"AIHHRINW9IN1I","Fri Sep 18 2020 12:28:46 GMT-0400 (Eastern Daylight Time)","Fri Sep 18 2020 12:35:42 GMT-0400 (Eastern Daylight Time)","Mozilla/5.0 (Macintosh; Intel Mac OS X 10_15_6) AppleWebKit/537.36 (KHTML, like Gecko) Chrome/85.0.4183.102 Safari/537.36",128,"[0.9, 0.5, 0.1]","[0.8, 0.4, 0.2]","[u'blue', u'black', u'red']","[u'left', u'middle', u'right']","[0.8, 0.4, 0.2]","[u'low', u'high', u'medium']","black",50,"middle","high","False","False",245,6350,NA
"AIHHRINW9IN1I","Fri Sep 18 2020 12:28:46 GMT-0400 (Eastern Daylight Time)","Fri Sep 18 2020 12:35:42 GMT-0400 (Eastern Daylight Time)","Mozilla/5.0 (Macintosh; Intel Mac OS X 10_15_6) AppleWebKit/537.36 (KHTML, like Gecko) Chrome/85.0.4183.102 Safari/537.36",129,"[0.9, 0.5, 0.1]","[0.8, 0.4, 0.2]","[u'blue', u'black', u'red']","[u'left', u'middle', u'right']","[0.8, 0.4, 0.2]","[u'low', u'high', u'medium']","black",50,"middle","high","True","False",216,6450,NA
"AIHHRINW9IN1I","Fri Sep 18 2020 12:28:46 GMT-0400 (Eastern Daylight Time)","Fri Sep 18 2020 12:35:42 GMT-0400 (Eastern Daylight Time)","Mozilla/5.0 (Macintosh; Intel Mac OS X 10_15_6) AppleWebKit/537.36 (KHTML, like Gecko) Chrome/85.0.4183.102 Safari/537.36",130,"[0.9, 0.5, 0.1]","[0.8, 0.4, 0.2]","[u'blue', u'black', u'red']","[u'left', u'middle', u'right']","[0.8, 0.4, 0.2]","[u'low', u'high', u'medium']","black",50,"middle","high","False","False",212,6400,NA
"AIHHRINW9IN1I","Fri Sep 18 2020 12:28:46 GMT-0400 (Eastern Daylight Time)","Fri Sep 18 2020 12:35:42 GMT-0400 (Eastern Daylight Time)","Mozilla/5.0 (Macintosh; Intel Mac OS X 10_15_6) AppleWebKit/537.36 (KHTML, like Gecko) Chrome/85.0.4183.102 Safari/537.36",131,"[0.9, 0.5, 0.1]","[0.8, 0.4, 0.2]","[u'blue', u'black', u'red']","[u'left', u'middle', u'right']","[0.8, 0.4, 0.2]","[u'low', u'high', u'medium']","red",51,"right","medium","False","False",170,6350,NA
"AIHHRINW9IN1I","Fri Sep 18 2020 12:28:46 GMT-0400 (Eastern Daylight Time)","Fri Sep 18 2020 12:35:42 GMT-0400 (Eastern Daylight Time)","Mozilla/5.0 (Macintosh; Intel Mac OS X 10_15_6) AppleWebKit/537.36 (KHTML, like Gecko) Chrome/85.0.4183.102 Safari/537.36",132,"[0.9, 0.5, 0.1]","[0.8, 0.4, 0.2]","[u'blue', u'black', u'red']","[u'left', u'middle', u'right']","[0.8, 0.4, 0.2]","[u'low', u'high', u'medium']","red",51,"right","medium","False","False",163,6300,NA
"AIHHRINW9IN1I","Fri Sep 18 2020 12:28:46 GMT-0400 (Eastern Daylight Time)","Fri Sep 18 2020 12:35:42 GMT-0400 (Eastern Daylight Time)","Mozilla/5.0 (Macintosh; Intel Mac OS X 10_15_6) AppleWebKit/537.36 (KHTML, like Gecko) Chrome/85.0.4183.102 Safari/537.36",133,"[0.9, 0.5, 0.1]","[0.8, 0.4, 0.2]","[u'blue', u'black', u'red']","[u'left', u'middle', u'right']","[0.8, 0.4, 0.2]","[u'low', u'high', u'medium']","black",50,"middle","high","True","False",199,6400,NA
"AIHHRINW9IN1I","Fri Sep 18 2020 12:28:46 GMT-0400 (Eastern Daylight Time)","Fri Sep 18 2020 12:35:42 GMT-0400 (Eastern Daylight Time)","Mozilla/5.0 (Macintosh; Intel Mac OS X 10_15_6) AppleWebKit/537.36 (KHTML, like Gecko) Chrome/85.0.4183.102 Safari/537.36",134,"[0.9, 0.5, 0.1]","[0.8, 0.4, 0.2]","[u'blue', u'black', u'red']","[u'left', u'middle', u'right']","[0.8, 0.4, 0.2]","[u'low', u'high', u'medium']","black",50,"middle","high","True","False",235,6500,NA
"AIHHRINW9IN1I","Fri Sep 18 2020 12:28:46 GMT-0400 (Eastern Daylight Time)","Fri Sep 18 2020 12:35:42 GMT-0400 (Eastern Daylight Time)","Mozilla/5.0 (Macintosh; Intel Mac OS X 10_15_6) AppleWebKit/537.36 (KHTML, like Gecko) Chrome/85.0.4183.102 Safari/537.36",135,"[0.9, 0.5, 0.1]","[0.8, 0.4, 0.2]","[u'blue', u'black', u'red']","[u'left', u'middle', u'right']","[0.8, 0.4, 0.2]","[u'low', u'high', u'medium']","black",50,"middle","high","True","False",217,6600,NA
"AIHHRINW9IN1I","Fri Sep 18 2020 12:28:46 GMT-0400 (Eastern Daylight Time)","Fri Sep 18 2020 12:35:42 GMT-0400 (Eastern Daylight Time)","Mozilla/5.0 (Macintosh; Intel Mac OS X 10_15_6) AppleWebKit/537.36 (KHTML, like Gecko) Chrome/85.0.4183.102 Safari/537.36",136,"[0.9, 0.5, 0.1]","[0.8, 0.4, 0.2]","[u'blue', u'black', u'red']","[u'left', u'middle', u'right']","[0.8, 0.4, 0.2]","[u'low', u'high', u'medium']","black",50,"middle","high","True","False",123,6700,NA
"AIHHRINW9IN1I","Fri Sep 18 2020 12:28:46 GMT-0400 (Eastern Daylight Time)","Fri Sep 18 2020 12:35:42 GMT-0400 (Eastern Daylight Time)","Mozilla/5.0 (Macintosh; Intel Mac OS X 10_15_6) AppleWebKit/537.36 (KHTML, like Gecko) Chrome/85.0.4183.102 Safari/537.36",137,"[0.9, 0.5, 0.1]","[0.8, 0.4, 0.2]","[u'blue', u'black', u'red']","[u'left', u'middle', u'right']","[0.8, 0.4, 0.2]","[u'low', u'high', u'medium']","black",50,"middle","high","True","False",183,6800,NA
"AIHHRINW9IN1I","Fri Sep 18 2020 12:28:46 GMT-0400 (Eastern Daylight Time)","Fri Sep 18 2020 12:35:42 GMT-0400 (Eastern Daylight Time)","Mozilla/5.0 (Macintosh; Intel Mac OS X 10_15_6) AppleWebKit/537.36 (KHTML, like Gecko) Chrome/85.0.4183.102 Safari/537.36",138,"[0.9, 0.5, 0.1]","[0.8, 0.4, 0.2]","[u'blue', u'black', u'red']","[u'left', u'middle', u'right']","[0.8, 0.4, 0.2]","[u'low', u'high', u'medium']","black",50,"middle","high","True","False",147,6900,NA
"AIHHRINW9IN1I","Fri Sep 18 2020 12:28:46 GMT-0400 (Eastern Daylight Time)","Fri Sep 18 2020 12:35:42 GMT-0400 (Eastern Daylight Time)","Mozilla/5.0 (Macintosh; Intel Mac OS X 10_15_6) AppleWebKit/537.36 (KHTML, like Gecko) Chrome/85.0.4183.102 Safari/537.36",139,"[0.9, 0.5, 0.1]","[0.8, 0.4, 0.2]","[u'blue', u'black', u'red']","[u'left', u'middle', u'right']","[0.8, 0.4, 0.2]","[u'low', u'high', u'medium']","black",50,"middle","high","True","False",169,7000,NA
"AIHHRINW9IN1I","Fri Sep 18 2020 12:28:46 GMT-0400 (Eastern Daylight Time)","Fri Sep 18 2020 12:35:42 GMT-0400 (Eastern Daylight Time)","Mozilla/5.0 (Macintosh; Intel Mac OS X 10_15_6) AppleWebKit/537.36 (KHTML, like Gecko) Chrome/85.0.4183.102 Safari/537.36",140,"[0.9, 0.5, 0.1]","[0.8, 0.4, 0.2]","[u'blue', u'black', u'red']","[u'left', u'middle', u'right']","[0.8, 0.4, 0.2]","[u'low', u'high', u'medium']","black",50,"middle","high","True","False",86,7100,NA
"AIHHRINW9IN1I","Fri Sep 18 2020 12:28:46 GMT-0400 (Eastern Daylight Time)","Fri Sep 18 2020 12:35:42 GMT-0400 (Eastern Daylight Time)","Mozilla/5.0 (Macintosh; Intel Mac OS X 10_15_6) AppleWebKit/537.36 (KHTML, like Gecko) Chrome/85.0.4183.102 Safari/537.36",141,"[0.9, 0.5, 0.1]","[0.8, 0.4, 0.2]","[u'blue', u'black', u'red']","[u'left', u'middle', u'right']","[0.8, 0.4, 0.2]","[u'low', u'high', u'medium']","black",50,"middle","high","True","True",351,7200,NA
"AIHHRINW9IN1I","Fri Sep 18 2020 12:28:46 GMT-0400 (Eastern Daylight Time)","Fri Sep 18 2020 12:35:42 GMT-0400 (Eastern Daylight Time)","Mozilla/5.0 (Macintosh; Intel Mac OS X 10_15_6) AppleWebKit/537.36 (KHTML, like Gecko) Chrome/85.0.4183.102 Safari/537.36",142,"[0.9, 0.5, 0.1]","[0.8, 0.4, 0.2]","[u'blue', u'black', u'red']","[u'left', u'middle', u'right']","[0.8, 0.4, 0.2]","[u'high', u'medium', u'low']","black",50,"middle","medium","False","False",153,7150,NA
"AIHHRINW9IN1I","Fri Sep 18 2020 12:28:46 GMT-0400 (Eastern Daylight Time)","Fri Sep 18 2020 12:35:42 GMT-0400 (Eastern Daylight Time)","Mozilla/5.0 (Macintosh; Intel Mac OS X 10_15_6) AppleWebKit/537.36 (KHTML, like Gecko) Chrome/85.0.4183.102 Safari/537.36",143,"[0.9, 0.5, 0.1]","[0.8, 0.4, 0.2]","[u'blue', u'black', u'red']","[u'left', u'middle', u'right']","[0.8, 0.4, 0.2]","[u'high', u'medium', u'low']","black",50,"middle","medium","False","False",210,7100,NA
"AIHHRINW9IN1I","Fri Sep 18 2020 12:28:46 GMT-0400 (Eastern Daylight Time)","Fri Sep 18 2020 12:35:42 GMT-0400 (Eastern Daylight Time)","Mozilla/5.0 (Macintosh; Intel Mac OS X 10_15_6) AppleWebKit/537.36 (KHTML, like Gecko) Chrome/85.0.4183.102 Safari/537.36",144,"[0.9, 0.5, 0.1]","[0.8, 0.4, 0.2]","[u'blue', u'black', u'red']","[u'left', u'middle', u'right']","[0.8, 0.4, 0.2]","[u'high', u'medium', u'low']","blue",49,"left","high","False","False",113,7050,NA
"AIHHRINW9IN1I","Fri Sep 18 2020 12:28:46 GMT-0400 (Eastern Daylight Time)","Fri Sep 18 2020 12:35:42 GMT-0400 (Eastern Daylight Time)","Mozilla/5.0 (Macintosh; Intel Mac OS X 10_15_6) AppleWebKit/537.36 (KHTML, like Gecko) Chrome/85.0.4183.102 Safari/537.36",145,"[0.9, 0.5, 0.1]","[0.8, 0.4, 0.2]","[u'blue', u'black', u'red']","[u'left', u'middle', u'right']","[0.8, 0.4, 0.2]","[u'high', u'medium', u'low']","blue",49,"left","high","True","False",108,7150,NA
"AIHHRINW9IN1I","Fri Sep 18 2020 12:28:46 GMT-0400 (Eastern Daylight Time)","Fri Sep 18 2020 12:35:42 GMT-0400 (Eastern Daylight Time)","Mozilla/5.0 (Macintosh; Intel Mac OS X 10_15_6) AppleWebKit/537.36 (KHTML, like Gecko) Chrome/85.0.4183.102 Safari/537.36",146,"[0.9, 0.5, 0.1]","[0.8, 0.4, 0.2]","[u'blue', u'black', u'red']","[u'left', u'middle', u'right']","[0.8, 0.4, 0.2]","[u'high', u'medium', u'low']","blue",49,"left","high","True","False",190,7250,NA
"AIHHRINW9IN1I","Fri Sep 18 2020 12:28:46 GMT-0400 (Eastern Daylight Time)","Fri Sep 18 2020 12:35:42 GMT-0400 (Eastern Daylight Time)","Mozilla/5.0 (Macintosh; Intel Mac OS X 10_15_6) AppleWebKit/537.36 (KHTML, like Gecko) Chrome/85.0.4183.102 Safari/537.36",147,"[0.9, 0.5, 0.1]","[0.8, 0.4, 0.2]","[u'blue', u'black', u'red']","[u'left', u'middle', u'right']","[0.8, 0.4, 0.2]","[u'high', u'medium', u'low']","blue",49,"left","high","True","False",96,7350,NA
"AIHHRINW9IN1I","Fri Sep 18 2020 12:28:46 GMT-0400 (Eastern Daylight Time)","Fri Sep 18 2020 12:35:42 GMT-0400 (Eastern Daylight Time)","Mozilla/5.0 (Macintosh; Intel Mac OS X 10_15_6) AppleWebKit/537.36 (KHTML, like Gecko) Chrome/85.0.4183.102 Safari/537.36",148,"[0.9, 0.5, 0.1]","[0.8, 0.4, 0.2]","[u'blue', u'black', u'red']","[u'left', u'middle', u'right']","[0.8, 0.4, 0.2]","[u'high', u'medium', u'low']","blue",49,"left","high","True","False",135,7450,NA
"AIHHRINW9IN1I","Fri Sep 18 2020 12:28:46 GMT-0400 (Eastern Daylight Time)","Fri Sep 18 2020 12:35:42 GMT-0400 (Eastern Daylight Time)","Mozilla/5.0 (Macintosh; Intel Mac OS X 10_15_6) AppleWebKit/537.36 (KHTML, like Gecko) Chrome/85.0.4183.102 Safari/537.36",149,"[0.9, 0.5, 0.1]","[0.8, 0.4, 0.2]","[u'blue', u'black', u'red']","[u'left', u'middle', u'right']","[0.8, 0.4, 0.2]","[u'high', u'medium', u'low']","blue",49,"left","high","True","False",211,7550,NA
"AIHHRINW9IN1I","Fri Sep 18 2020 12:28:46 GMT-0400 (Eastern Daylight Time)","Fri Sep 18 2020 12:35:42 GMT-0400 (Eastern Daylight Time)","Mozilla/5.0 (Macintosh; Intel Mac OS X 10_15_6) AppleWebKit/537.36 (KHTML, like Gecko) Chrome/85.0.4183.102 Safari/537.36",150,"[0.9, 0.5, 0.1]","[0.8, 0.4, 0.2]","[u'blue', u'black', u'red']","[u'left', u'middle', u'right']","[0.8, 0.4, 0.2]","[u'high', u'medium', u'low']","blue",49,"left","high","True","False",113,7650,NA
"AIHHRINW9IN1I","Fri Sep 18 2020 12:28:46 GMT-0400 (Eastern Daylight Time)","Fri Sep 18 2020 12:35:42 GMT-0400 (Eastern Daylight Time)","Mozilla/5.0 (Macintosh; Intel Mac OS X 10_15_6) AppleWebKit/537.36 (KHTML, like Gecko) Chrome/85.0.4183.102 Safari/537.36",151,"[0.9, 0.5, 0.1]","[0.8, 0.4, 0.2]","[u'blue', u'black', u'red']","[u'left', u'middle', u'right']","[0.8, 0.4, 0.2]","[u'high', u'medium', u'low']","blue",49,"left","high","True","False",251,7750,NA
"AIHHRINW9IN1I","Fri Sep 18 2020 12:28:46 GMT-0400 (Eastern Daylight Time)","Fri Sep 18 2020 12:35:42 GMT-0400 (Eastern Daylight Time)","Mozilla/5.0 (Macintosh; Intel Mac OS X 10_15_6) AppleWebKit/537.36 (KHTML, like Gecko) Chrome/85.0.4183.102 Safari/537.36",152,"[0.9, 0.5, 0.1]","[0.8, 0.4, 0.2]","[u'blue', u'black', u'red']","[u'left', u'middle', u'right']","[0.8, 0.4, 0.2]","[u'high', u'medium', u'low']","blue",49,"left","high","True","True",87,7850,NA
"AIHHRINW9IN1I","Fri Sep 18 2020 12:28:46 GMT-0400 (Eastern Daylight Time)","Fri Sep 18 2020 12:35:42 GMT-0400 (Eastern Daylight Time)","Mozilla/5.0 (Macintosh; Intel Mac OS X 10_15_6) AppleWebKit/537.36 (KHTML, like Gecko) Chrome/85.0.4183.102 Safari/537.36",153,"[0.9, 0.5, 0.1]","[0.8, 0.4, 0.2]","[u'blue', u'black', u'red']","[u'left', u'middle', u'right']","[0.8, 0.4, 0.2]","[u'medium', u'high', u'low']","blue",49,"left","medium","True","False",283,7950,NA
"AIHHRINW9IN1I","Fri Sep 18 2020 12:28:46 GMT-0400 (Eastern Daylight Time)","Fri Sep 18 2020 12:35:42 GMT-0400 (Eastern Daylight Time)","Mozilla/5.0 (Macintosh; Intel Mac OS X 10_15_6) AppleWebKit/537.36 (KHTML, like Gecko) Chrome/85.0.4183.102 Safari/537.36",154,"[0.9, 0.5, 0.1]","[0.8, 0.4, 0.2]","[u'blue', u'black', u'red']","[u'left', u'middle', u'right']","[0.8, 0.4, 0.2]","[u'medium', u'high', u'low']","blue",49,"left","medium","False","False",288,7900,NA
"AIHHRINW9IN1I","Fri Sep 18 2020 12:28:46 GMT-0400 (Eastern Daylight Time)","Fri Sep 18 2020 12:35:42 GMT-0400 (Eastern Daylight Time)","Mozilla/5.0 (Macintosh; Intel Mac OS X 10_15_6) AppleWebKit/537.36 (KHTML, like Gecko) Chrome/85.0.4183.102 Safari/537.36",155,"[0.9, 0.5, 0.1]","[0.8, 0.4, 0.2]","[u'blue', u'black', u'red']","[u'left', u'middle', u'right']","[0.8, 0.4, 0.2]","[u'medium', u'high', u'low']","blue",49,"left","medium","False","False",440,7850,NA
"AIHHRINW9IN1I","Fri Sep 18 2020 12:28:46 GMT-0400 (Eastern Daylight Time)","Fri Sep 18 2020 12:35:42 GMT-0400 (Eastern Daylight Time)","Mozilla/5.0 (Macintosh; Intel Mac OS X 10_15_6) AppleWebKit/537.36 (KHTML, like Gecko) Chrome/85.0.4183.102 Safari/537.36",156,"[0.9, 0.5, 0.1]","[0.8, 0.4, 0.2]","[u'blue', u'black', u'red']","[u'left', u'middle', u'right']","[0.8, 0.4, 0.2]","[u'medium', u'high', u'low']","black",50,"middle","high","False","False",209,7800,NA
"AIHHRINW9IN1I","Fri Sep 18 2020 12:28:46 GMT-0400 (Eastern Daylight Time)","Fri Sep 18 2020 12:35:42 GMT-0400 (Eastern Daylight Time)","Mozilla/5.0 (Macintosh; Intel Mac OS X 10_15_6) AppleWebKit/537.36 (KHTML, like Gecko) Chrome/85.0.4183.102 Safari/537.36",157,"[0.9, 0.5, 0.1]","[0.8, 0.4, 0.2]","[u'blue', u'black', u'red']","[u'left', u'middle', u'right']","[0.8, 0.4, 0.2]","[u'medium', u'high', u'low']","black",50,"middle","high","True","False",354,7900,NA
"AIHHRINW9IN1I","Fri Sep 18 2020 12:28:46 GMT-0400 (Eastern Daylight Time)","Fri Sep 18 2020 12:35:42 GMT-0400 (Eastern Daylight Time)","Mozilla/5.0 (Macintosh; Intel Mac OS X 10_15_6) AppleWebKit/537.36 (KHTML, like Gecko) Chrome/85.0.4183.102 Safari/537.36",158,"[0.9, 0.5, 0.1]","[0.8, 0.4, 0.2]","[u'blue', u'black', u'red']","[u'left', u'middle', u'right']","[0.8, 0.4, 0.2]","[u'medium', u'high', u'low']","black",50,"middle","high","True","False",251,8000,NA
"AIHHRINW9IN1I","Fri Sep 18 2020 12:28:46 GMT-0400 (Eastern Daylight Time)","Fri Sep 18 2020 12:35:42 GMT-0400 (Eastern Daylight Time)","Mozilla/5.0 (Macintosh; Intel Mac OS X 10_15_6) AppleWebKit/537.36 (KHTML, like Gecko) Chrome/85.0.4183.102 Safari/537.36",159,"[0.9, 0.5, 0.1]","[0.8, 0.4, 0.2]","[u'blue', u'black', u'red']","[u'left', u'middle', u'right']","[0.8, 0.4, 0.2]","[u'medium', u'high', u'low']","black",50,"middle","high","True","False",214,8100,NA
"AIHHRINW9IN1I","Fri Sep 18 2020 12:28:46 GMT-0400 (Eastern Daylight Time)","Fri Sep 18 2020 12:35:42 GMT-0400 (Eastern Daylight Time)","Mozilla/5.0 (Macintosh; Intel Mac OS X 10_15_6) AppleWebKit/537.36 (KHTML, like Gecko) Chrome/85.0.4183.102 Safari/537.36",160,"[0.9, 0.5, 0.1]","[0.8, 0.4, 0.2]","[u'blue', u'black', u'red']","[u'left', u'middle', u'right']","[0.8, 0.4, 0.2]","[u'medium', u'high', u'low']","black",50,"middle","high","True","False",220,8200,NA
