"src_subject_id","start_time","end_time","browser","index","first_half_probabilities","second_half_probabilities","deck_color","deck_position","deck_probabilities","deck_contingencies","response_color","key_press","response_position","response_probability","reward_type","trial_type","rt","reward_tally","exclusion_reason"
"A15J42M6EC7Y1K","Tue Jan 28 2020 13:25:50 GMT-0500 (Eastern Standard Time)","Tue Jan 28 2020 13:33:46 GMT-0500 (Eastern Standard Time)","Mozilla/5.0 (Macintosh; Intel Mac OS X 10_14_2) AppleWebKit/537.36 (KHTML, like Gecko) Chrome/79.0.3945.130 Safari/537.36",1,"[0.9, 0.5, 0.1]","[0.8, 0.4, 0.2]","[u'blue', u'red', u'black']","[u'left', u'middle', u'right']","[0.9, 0.5, 0.1]","[u'medium', u'low', u'high']","blue",49,"left","medium","False","False",511,-50,NA
"A15J42M6EC7Y1K","Tue Jan 28 2020 13:25:50 GMT-0500 (Eastern Standard Time)","Tue Jan 28 2020 13:33:46 GMT-0500 (Eastern Standard Time)","Mozilla/5.0 (Macintosh; Intel Mac OS X 10_14_2) AppleWebKit/537.36 (KHTML, like Gecko) Chrome/79.0.3945.130 Safari/537.36",2,"[0.9, 0.5, 0.1]","[0.8, 0.4, 0.2]","[u'blue', u'red', u'black']","[u'left', u'middle', u'right']","[0.9, 0.5, 0.1]","[u'medium', u'low', u'high']","red",50,"middle","low","False","False",493,-100,NA
"A15J42M6EC7Y1K","Tue Jan 28 2020 13:25:50 GMT-0500 (Eastern Standard Time)","Tue Jan 28 2020 13:33:46 GMT-0500 (Eastern Standard Time)","Mozilla/5.0 (Macintosh; Intel Mac OS X 10_14_2) AppleWebKit/537.36 (KHTML, like Gecko) Chrome/79.0.3945.130 Safari/537.36",3,"[0.9, 0.5, 0.1]","[0.8, 0.4, 0.2]","[u'blue', u'red', u'black']","[u'left', u'middle', u'right']","[0.9, 0.5, 0.1]","[u'medium', u'low', u'high']","black",51,"right","high","True","False",325,0,NA
"A15J42M6EC7Y1K","Tue Jan 28 2020 13:25:50 GMT-0500 (Eastern Standard Time)","Tue Jan 28 2020 13:33:46 GMT-0500 (Eastern Standard Time)","Mozilla/5.0 (Macintosh; Intel Mac OS X 10_14_2) AppleWebKit/537.36 (KHTML, like Gecko) Chrome/79.0.3945.130 Safari/537.36",4,"[0.9, 0.5, 0.1]","[0.8, 0.4, 0.2]","[u'blue', u'red', u'black']","[u'left', u'middle', u'right']","[0.9, 0.5, 0.1]","[u'medium', u'low', u'high']","black",51,"right","high","True","False",359,100,NA
"A15J42M6EC7Y1K","Tue Jan 28 2020 13:25:50 GMT-0500 (Eastern Standard Time)","Tue Jan 28 2020 13:33:46 GMT-0500 (Eastern Standard Time)","Mozilla/5.0 (Macintosh; Intel Mac OS X 10_14_2) AppleWebKit/537.36 (KHTML, like Gecko) Chrome/79.0.3945.130 Safari/537.36",5,"[0.9, 0.5, 0.1]","[0.8, 0.4, 0.2]","[u'blue', u'red', u'black']","[u'left', u'middle', u'right']","[0.9, 0.5, 0.1]","[u'medium', u'low', u'high']","black",51,"right","high","True","False",308,200,NA
"A15J42M6EC7Y1K","Tue Jan 28 2020 13:25:50 GMT-0500 (Eastern Standard Time)","Tue Jan 28 2020 13:33:46 GMT-0500 (Eastern Standard Time)","Mozilla/5.0 (Macintosh; Intel Mac OS X 10_14_2) AppleWebKit/537.36 (KHTML, like Gecko) Chrome/79.0.3945.130 Safari/537.36",6,"[0.9, 0.5, 0.1]","[0.8, 0.4, 0.2]","[u'blue', u'red', u'black']","[u'left', u'middle', u'right']","[0.9, 0.5, 0.1]","[u'medium', u'low', u'high']","black",51,"right","high","True","False",374,300,NA
"A15J42M6EC7Y1K","Tue Jan 28 2020 13:25:50 GMT-0500 (Eastern Standard Time)","Tue Jan 28 2020 13:33:46 GMT-0500 (Eastern Standard Time)","Mozilla/5.0 (Macintosh; Intel Mac OS X 10_14_2) AppleWebKit/537.36 (KHTML, like Gecko) Chrome/79.0.3945.130 Safari/537.36",7,"[0.9, 0.5, 0.1]","[0.8, 0.4, 0.2]","[u'blue', u'red', u'black']","[u'left', u'middle', u'right']","[0.9, 0.5, 0.1]","[u'medium', u'low', u'high']","black",51,"right","high","True","False",268,400,NA
"A15J42M6EC7Y1K","Tue Jan 28 2020 13:25:50 GMT-0500 (Eastern Standard Time)","Tue Jan 28 2020 13:33:46 GMT-0500 (Eastern Standard Time)","Mozilla/5.0 (Macintosh; Intel Mac OS X 10_14_2) AppleWebKit/537.36 (KHTML, like Gecko) Chrome/79.0.3945.130 Safari/537.36",8,"[0.9, 0.5, 0.1]","[0.8, 0.4, 0.2]","[u'blue', u'red', u'black']","[u'left', u'middle', u'right']","[0.9, 0.5, 0.1]","[u'medium', u'low', u'high']","black",51,"right","high","True","False",267,500,NA
"A15J42M6EC7Y1K","Tue Jan 28 2020 13:25:50 GMT-0500 (Eastern Standard Time)","Tue Jan 28 2020 13:33:46 GMT-0500 (Eastern Standard Time)","Mozilla/5.0 (Macintosh; Intel Mac OS X 10_14_2) AppleWebKit/537.36 (KHTML, like Gecko) Chrome/79.0.3945.130 Safari/537.36",9,"[0.9, 0.5, 0.1]","[0.8, 0.4, 0.2]","[u'blue', u'red', u'black']","[u'left', u'middle', u'right']","[0.9, 0.5, 0.1]","[u'medium', u'low', u'high']","black",51,"right","high","True","False",328,600,NA
"A15J42M6EC7Y1K","Tue Jan 28 2020 13:25:50 GMT-0500 (Eastern Standard Time)","Tue Jan 28 2020 13:33:46 GMT-0500 (Eastern Standard Time)","Mozilla/5.0 (Macintosh; Intel Mac OS X 10_14_2) AppleWebKit/537.36 (KHTML, like Gecko) Chrome/79.0.3945.130 Safari/537.36",10,"[0.9, 0.5, 0.1]","[0.8, 0.4, 0.2]","[u'blue', u'red', u'black']","[u'left', u'middle', u'right']","[0.9, 0.5, 0.1]","[u'medium', u'low', u'high']","black",51,"right","high","True","False",364,700,NA
"A15J42M6EC7Y1K","Tue Jan 28 2020 13:25:50 GMT-0500 (Eastern Standard Time)","Tue Jan 28 2020 13:33:46 GMT-0500 (Eastern Standard Time)","Mozilla/5.0 (Macintosh; Intel Mac OS X 10_14_2) AppleWebKit/537.36 (KHTML, like Gecko) Chrome/79.0.3945.130 Safari/537.36",11,"[0.9, 0.5, 0.1]","[0.8, 0.4, 0.2]","[u'blue', u'red', u'black']","[u'left', u'middle', u'right']","[0.9, 0.5, 0.1]","[u'medium', u'low', u'high']","black",51,"right","high","True","True",214,800,NA
"A15J42M6EC7Y1K","Tue Jan 28 2020 13:25:50 GMT-0500 (Eastern Standard Time)","Tue Jan 28 2020 13:33:46 GMT-0500 (Eastern Standard Time)","Mozilla/5.0 (Macintosh; Intel Mac OS X 10_14_2) AppleWebKit/537.36 (KHTML, like Gecko) Chrome/79.0.3945.130 Safari/537.36",12,"[0.9, 0.5, 0.1]","[0.8, 0.4, 0.2]","[u'blue', u'red', u'black']","[u'left', u'middle', u'right']","[0.9, 0.5, 0.1]","[u'low', u'high', u'medium']","black",51,"right","medium","True","False",217,900,NA
"A15J42M6EC7Y1K","Tue Jan 28 2020 13:25:50 GMT-0500 (Eastern Standard Time)","Tue Jan 28 2020 13:33:46 GMT-0500 (Eastern Standard Time)","Mozilla/5.0 (Macintosh; Intel Mac OS X 10_14_2) AppleWebKit/537.36 (KHTML, like Gecko) Chrome/79.0.3945.130 Safari/537.36",13,"[0.9, 0.5, 0.1]","[0.8, 0.4, 0.2]","[u'blue', u'red', u'black']","[u'left', u'middle', u'right']","[0.9, 0.5, 0.1]","[u'low', u'high', u'medium']","black",51,"right","medium","False","False",249,850,NA
"A15J42M6EC7Y1K","Tue Jan 28 2020 13:25:50 GMT-0500 (Eastern Standard Time)","Tue Jan 28 2020 13:33:46 GMT-0500 (Eastern Standard Time)","Mozilla/5.0 (Macintosh; Intel Mac OS X 10_14_2) AppleWebKit/537.36 (KHTML, like Gecko) Chrome/79.0.3945.130 Safari/537.36",14,"[0.9, 0.5, 0.1]","[0.8, 0.4, 0.2]","[u'blue', u'red', u'black']","[u'left', u'middle', u'right']","[0.9, 0.5, 0.1]","[u'low', u'high', u'medium']","red",50,"middle","high","True","False",363,950,NA
"A15J42M6EC7Y1K","Tue Jan 28 2020 13:25:50 GMT-0500 (Eastern Standard Time)","Tue Jan 28 2020 13:33:46 GMT-0500 (Eastern Standard Time)","Mozilla/5.0 (Macintosh; Intel Mac OS X 10_14_2) AppleWebKit/537.36 (KHTML, like Gecko) Chrome/79.0.3945.130 Safari/537.36",15,"[0.9, 0.5, 0.1]","[0.8, 0.4, 0.2]","[u'blue', u'red', u'black']","[u'left', u'middle', u'right']","[0.9, 0.5, 0.1]","[u'low', u'high', u'medium']","red",50,"middle","high","True","False",255,1050,NA
"A15J42M6EC7Y1K","Tue Jan 28 2020 13:25:50 GMT-0500 (Eastern Standard Time)","Tue Jan 28 2020 13:33:46 GMT-0500 (Eastern Standard Time)","Mozilla/5.0 (Macintosh; Intel Mac OS X 10_14_2) AppleWebKit/537.36 (KHTML, like Gecko) Chrome/79.0.3945.130 Safari/537.36",16,"[0.9, 0.5, 0.1]","[0.8, 0.4, 0.2]","[u'blue', u'red', u'black']","[u'left', u'middle', u'right']","[0.9, 0.5, 0.1]","[u'low', u'high', u'medium']","red",50,"middle","high","True","False",259,1150,NA
"A15J42M6EC7Y1K","Tue Jan 28 2020 13:25:50 GMT-0500 (Eastern Standard Time)","Tue Jan 28 2020 13:33:46 GMT-0500 (Eastern Standard Time)","Mozilla/5.0 (Macintosh; Intel Mac OS X 10_14_2) AppleWebKit/537.36 (KHTML, like Gecko) Chrome/79.0.3945.130 Safari/537.36",17,"[0.9, 0.5, 0.1]","[0.8, 0.4, 0.2]","[u'blue', u'red', u'black']","[u'left', u'middle', u'right']","[0.9, 0.5, 0.1]","[u'low', u'high', u'medium']","red",50,"middle","high","True","False",178,1250,NA
"A15J42M6EC7Y1K","Tue Jan 28 2020 13:25:50 GMT-0500 (Eastern Standard Time)","Tue Jan 28 2020 13:33:46 GMT-0500 (Eastern Standard Time)","Mozilla/5.0 (Macintosh; Intel Mac OS X 10_14_2) AppleWebKit/537.36 (KHTML, like Gecko) Chrome/79.0.3945.130 Safari/537.36",18,"[0.9, 0.5, 0.1]","[0.8, 0.4, 0.2]","[u'blue', u'red', u'black']","[u'left', u'middle', u'right']","[0.9, 0.5, 0.1]","[u'low', u'high', u'medium']","red",50,"middle","high","True","False",110,1350,NA
"A15J42M6EC7Y1K","Tue Jan 28 2020 13:25:50 GMT-0500 (Eastern Standard Time)","Tue Jan 28 2020 13:33:46 GMT-0500 (Eastern Standard Time)","Mozilla/5.0 (Macintosh; Intel Mac OS X 10_14_2) AppleWebKit/537.36 (KHTML, like Gecko) Chrome/79.0.3945.130 Safari/537.36",19,"[0.9, 0.5, 0.1]","[0.8, 0.4, 0.2]","[u'blue', u'red', u'black']","[u'left', u'middle', u'right']","[0.9, 0.5, 0.1]","[u'low', u'high', u'medium']","red",50,"middle","high","True","False",164,1450,NA
"A15J42M6EC7Y1K","Tue Jan 28 2020 13:25:50 GMT-0500 (Eastern Standard Time)","Tue Jan 28 2020 13:33:46 GMT-0500 (Eastern Standard Time)","Mozilla/5.0 (Macintosh; Intel Mac OS X 10_14_2) AppleWebKit/537.36 (KHTML, like Gecko) Chrome/79.0.3945.130 Safari/537.36",20,"[0.9, 0.5, 0.1]","[0.8, 0.4, 0.2]","[u'blue', u'red', u'black']","[u'left', u'middle', u'right']","[0.9, 0.5, 0.1]","[u'low', u'high', u'medium']","red",50,"middle","high","True","False",264,1550,NA
"A15J42M6EC7Y1K","Tue Jan 28 2020 13:25:50 GMT-0500 (Eastern Standard Time)","Tue Jan 28 2020 13:33:46 GMT-0500 (Eastern Standard Time)","Mozilla/5.0 (Macintosh; Intel Mac OS X 10_14_2) AppleWebKit/537.36 (KHTML, like Gecko) Chrome/79.0.3945.130 Safari/537.36",21,"[0.9, 0.5, 0.1]","[0.8, 0.4, 0.2]","[u'blue', u'red', u'black']","[u'left', u'middle', u'right']","[0.9, 0.5, 0.1]","[u'low', u'high', u'medium']","red",50,"middle","high","True","False",302,1650,NA
"A15J42M6EC7Y1K","Tue Jan 28 2020 13:25:50 GMT-0500 (Eastern Standard Time)","Tue Jan 28 2020 13:33:46 GMT-0500 (Eastern Standard Time)","Mozilla/5.0 (Macintosh; Intel Mac OS X 10_14_2) AppleWebKit/537.36 (KHTML, like Gecko) Chrome/79.0.3945.130 Safari/537.36",22,"[0.9, 0.5, 0.1]","[0.8, 0.4, 0.2]","[u'blue', u'red', u'black']","[u'left', u'middle', u'right']","[0.9, 0.5, 0.1]","[u'low', u'high', u'medium']","red",50,"middle","high","True","True",213,1750,NA
"A15J42M6EC7Y1K","Tue Jan 28 2020 13:25:50 GMT-0500 (Eastern Standard Time)","Tue Jan 28 2020 13:33:46 GMT-0500 (Eastern Standard Time)","Mozilla/5.0 (Macintosh; Intel Mac OS X 10_14_2) AppleWebKit/537.36 (KHTML, like Gecko) Chrome/79.0.3945.130 Safari/537.36",23,"[0.9, 0.5, 0.1]","[0.8, 0.4, 0.2]","[u'blue', u'red', u'black']","[u'left', u'middle', u'right']","[0.9, 0.5, 0.1]","[u'high', u'low', u'medium']","red",50,"middle","low","False","False",257,1700,NA
"A15J42M6EC7Y1K","Tue Jan 28 2020 13:25:50 GMT-0500 (Eastern Standard Time)","Tue Jan 28 2020 13:33:46 GMT-0500 (Eastern Standard Time)","Mozilla/5.0 (Macintosh; Intel Mac OS X 10_14_2) AppleWebKit/537.36 (KHTML, like Gecko) Chrome/79.0.3945.130 Safari/537.36",24,"[0.9, 0.5, 0.1]","[0.8, 0.4, 0.2]","[u'blue', u'red', u'black']","[u'left', u'middle', u'right']","[0.9, 0.5, 0.1]","[u'high', u'low', u'medium']","blue",49,"left","high","True","False",224,1800,NA
"A15J42M6EC7Y1K","Tue Jan 28 2020 13:25:50 GMT-0500 (Eastern Standard Time)","Tue Jan 28 2020 13:33:46 GMT-0500 (Eastern Standard Time)","Mozilla/5.0 (Macintosh; Intel Mac OS X 10_14_2) AppleWebKit/537.36 (KHTML, like Gecko) Chrome/79.0.3945.130 Safari/537.36",25,"[0.9, 0.5, 0.1]","[0.8, 0.4, 0.2]","[u'blue', u'red', u'black']","[u'left', u'middle', u'right']","[0.9, 0.5, 0.1]","[u'high', u'low', u'medium']","blue",49,"left","high","True","False",197,1900,NA
"A15J42M6EC7Y1K","Tue Jan 28 2020 13:25:50 GMT-0500 (Eastern Standard Time)","Tue Jan 28 2020 13:33:46 GMT-0500 (Eastern Standard Time)","Mozilla/5.0 (Macintosh; Intel Mac OS X 10_14_2) AppleWebKit/537.36 (KHTML, like Gecko) Chrome/79.0.3945.130 Safari/537.36",26,"[0.9, 0.5, 0.1]","[0.8, 0.4, 0.2]","[u'blue', u'red', u'black']","[u'left', u'middle', u'right']","[0.9, 0.5, 0.1]","[u'high', u'low', u'medium']","blue",49,"left","high","True","False",239,2000,NA
"A15J42M6EC7Y1K","Tue Jan 28 2020 13:25:50 GMT-0500 (Eastern Standard Time)","Tue Jan 28 2020 13:33:46 GMT-0500 (Eastern Standard Time)","Mozilla/5.0 (Macintosh; Intel Mac OS X 10_14_2) AppleWebKit/537.36 (KHTML, like Gecko) Chrome/79.0.3945.130 Safari/537.36",27,"[0.9, 0.5, 0.1]","[0.8, 0.4, 0.2]","[u'blue', u'red', u'black']","[u'left', u'middle', u'right']","[0.9, 0.5, 0.1]","[u'high', u'low', u'medium']","blue",49,"left","high","True","False",263,2100,NA
"A15J42M6EC7Y1K","Tue Jan 28 2020 13:25:50 GMT-0500 (Eastern Standard Time)","Tue Jan 28 2020 13:33:46 GMT-0500 (Eastern Standard Time)","Mozilla/5.0 (Macintosh; Intel Mac OS X 10_14_2) AppleWebKit/537.36 (KHTML, like Gecko) Chrome/79.0.3945.130 Safari/537.36",28,"[0.9, 0.5, 0.1]","[0.8, 0.4, 0.2]","[u'blue', u'red', u'black']","[u'left', u'middle', u'right']","[0.9, 0.5, 0.1]","[u'high', u'low', u'medium']","blue",49,"left","high","True","False",246,2200,NA
"A15J42M6EC7Y1K","Tue Jan 28 2020 13:25:50 GMT-0500 (Eastern Standard Time)","Tue Jan 28 2020 13:33:46 GMT-0500 (Eastern Standard Time)","Mozilla/5.0 (Macintosh; Intel Mac OS X 10_14_2) AppleWebKit/537.36 (KHTML, like Gecko) Chrome/79.0.3945.130 Safari/537.36",29,"[0.9, 0.5, 0.1]","[0.8, 0.4, 0.2]","[u'blue', u'red', u'black']","[u'left', u'middle', u'right']","[0.9, 0.5, 0.1]","[u'high', u'low', u'medium']","blue",49,"left","high","True","False",207,2300,NA
"A15J42M6EC7Y1K","Tue Jan 28 2020 13:25:50 GMT-0500 (Eastern Standard Time)","Tue Jan 28 2020 13:33:46 GMT-0500 (Eastern Standard Time)","Mozilla/5.0 (Macintosh; Intel Mac OS X 10_14_2) AppleWebKit/537.36 (KHTML, like Gecko) Chrome/79.0.3945.130 Safari/537.36",30,"[0.9, 0.5, 0.1]","[0.8, 0.4, 0.2]","[u'blue', u'red', u'black']","[u'left', u'middle', u'right']","[0.9, 0.5, 0.1]","[u'high', u'low', u'medium']","blue",49,"left","high","True","False",223,2400,NA
"A15J42M6EC7Y1K","Tue Jan 28 2020 13:25:50 GMT-0500 (Eastern Standard Time)","Tue Jan 28 2020 13:33:46 GMT-0500 (Eastern Standard Time)","Mozilla/5.0 (Macintosh; Intel Mac OS X 10_14_2) AppleWebKit/537.36 (KHTML, like Gecko) Chrome/79.0.3945.130 Safari/537.36",31,"[0.9, 0.5, 0.1]","[0.8, 0.4, 0.2]","[u'blue', u'red', u'black']","[u'left', u'middle', u'right']","[0.9, 0.5, 0.1]","[u'high', u'low', u'medium']","blue",49,"left","high","True","False",253,2500,NA
"A15J42M6EC7Y1K","Tue Jan 28 2020 13:25:50 GMT-0500 (Eastern Standard Time)","Tue Jan 28 2020 13:33:46 GMT-0500 (Eastern Standard Time)","Mozilla/5.0 (Macintosh; Intel Mac OS X 10_14_2) AppleWebKit/537.36 (KHTML, like Gecko) Chrome/79.0.3945.130 Safari/537.36",32,"[0.9, 0.5, 0.1]","[0.8, 0.4, 0.2]","[u'blue', u'red', u'black']","[u'left', u'middle', u'right']","[0.9, 0.5, 0.1]","[u'high', u'low', u'medium']","blue",49,"left","high","True","True",281,2600,NA
"A15J42M6EC7Y1K","Tue Jan 28 2020 13:25:50 GMT-0500 (Eastern Standard Time)","Tue Jan 28 2020 13:33:46 GMT-0500 (Eastern Standard Time)","Mozilla/5.0 (Macintosh; Intel Mac OS X 10_14_2) AppleWebKit/537.36 (KHTML, like Gecko) Chrome/79.0.3945.130 Safari/537.36",33,"[0.9, 0.5, 0.1]","[0.8, 0.4, 0.2]","[u'blue', u'red', u'black']","[u'left', u'middle', u'right']","[0.9, 0.5, 0.1]","[u'low', u'medium', u'high']","blue",49,"left","low","False","False",282,2550,NA
"A15J42M6EC7Y1K","Tue Jan 28 2020 13:25:50 GMT-0500 (Eastern Standard Time)","Tue Jan 28 2020 13:33:46 GMT-0500 (Eastern Standard Time)","Mozilla/5.0 (Macintosh; Intel Mac OS X 10_14_2) AppleWebKit/537.36 (KHTML, like Gecko) Chrome/79.0.3945.130 Safari/537.36",34,"[0.9, 0.5, 0.1]","[0.8, 0.4, 0.2]","[u'blue', u'red', u'black']","[u'left', u'middle', u'right']","[0.9, 0.5, 0.1]","[u'low', u'medium', u'high']","black",51,"right","high","True","False",456,2650,NA
"A15J42M6EC7Y1K","Tue Jan 28 2020 13:25:50 GMT-0500 (Eastern Standard Time)","Tue Jan 28 2020 13:33:46 GMT-0500 (Eastern Standard Time)","Mozilla/5.0 (Macintosh; Intel Mac OS X 10_14_2) AppleWebKit/537.36 (KHTML, like Gecko) Chrome/79.0.3945.130 Safari/537.36",35,"[0.9, 0.5, 0.1]","[0.8, 0.4, 0.2]","[u'blue', u'red', u'black']","[u'left', u'middle', u'right']","[0.9, 0.5, 0.1]","[u'low', u'medium', u'high']","black",51,"right","high","True","False",330,2750,NA
"A15J42M6EC7Y1K","Tue Jan 28 2020 13:25:50 GMT-0500 (Eastern Standard Time)","Tue Jan 28 2020 13:33:46 GMT-0500 (Eastern Standard Time)","Mozilla/5.0 (Macintosh; Intel Mac OS X 10_14_2) AppleWebKit/537.36 (KHTML, like Gecko) Chrome/79.0.3945.130 Safari/537.36",36,"[0.9, 0.5, 0.1]","[0.8, 0.4, 0.2]","[u'blue', u'red', u'black']","[u'left', u'middle', u'right']","[0.9, 0.5, 0.1]","[u'low', u'medium', u'high']","black",51,"right","high","True","False",273,2850,NA
"A15J42M6EC7Y1K","Tue Jan 28 2020 13:25:50 GMT-0500 (Eastern Standard Time)","Tue Jan 28 2020 13:33:46 GMT-0500 (Eastern Standard Time)","Mozilla/5.0 (Macintosh; Intel Mac OS X 10_14_2) AppleWebKit/537.36 (KHTML, like Gecko) Chrome/79.0.3945.130 Safari/537.36",37,"[0.9, 0.5, 0.1]","[0.8, 0.4, 0.2]","[u'blue', u'red', u'black']","[u'left', u'middle', u'right']","[0.9, 0.5, 0.1]","[u'low', u'medium', u'high']","black",51,"right","high","True","False",296,2950,NA
"A15J42M6EC7Y1K","Tue Jan 28 2020 13:25:50 GMT-0500 (Eastern Standard Time)","Tue Jan 28 2020 13:33:46 GMT-0500 (Eastern Standard Time)","Mozilla/5.0 (Macintosh; Intel Mac OS X 10_14_2) AppleWebKit/537.36 (KHTML, like Gecko) Chrome/79.0.3945.130 Safari/537.36",38,"[0.9, 0.5, 0.1]","[0.8, 0.4, 0.2]","[u'blue', u'red', u'black']","[u'left', u'middle', u'right']","[0.9, 0.5, 0.1]","[u'low', u'medium', u'high']","black",51,"right","high","True","False",204,3050,NA
"A15J42M6EC7Y1K","Tue Jan 28 2020 13:25:50 GMT-0500 (Eastern Standard Time)","Tue Jan 28 2020 13:33:46 GMT-0500 (Eastern Standard Time)","Mozilla/5.0 (Macintosh; Intel Mac OS X 10_14_2) AppleWebKit/537.36 (KHTML, like Gecko) Chrome/79.0.3945.130 Safari/537.36",39,"[0.9, 0.5, 0.1]","[0.8, 0.4, 0.2]","[u'blue', u'red', u'black']","[u'left', u'middle', u'right']","[0.9, 0.5, 0.1]","[u'low', u'medium', u'high']","black",51,"right","high","True","False",236,3150,NA
"A15J42M6EC7Y1K","Tue Jan 28 2020 13:25:50 GMT-0500 (Eastern Standard Time)","Tue Jan 28 2020 13:33:46 GMT-0500 (Eastern Standard Time)","Mozilla/5.0 (Macintosh; Intel Mac OS X 10_14_2) AppleWebKit/537.36 (KHTML, like Gecko) Chrome/79.0.3945.130 Safari/537.36",40,"[0.9, 0.5, 0.1]","[0.8, 0.4, 0.2]","[u'blue', u'red', u'black']","[u'left', u'middle', u'right']","[0.9, 0.5, 0.1]","[u'low', u'medium', u'high']","black",51,"right","high","True","False",331,3250,NA
"A15J42M6EC7Y1K","Tue Jan 28 2020 13:25:50 GMT-0500 (Eastern Standard Time)","Tue Jan 28 2020 13:33:46 GMT-0500 (Eastern Standard Time)","Mozilla/5.0 (Macintosh; Intel Mac OS X 10_14_2) AppleWebKit/537.36 (KHTML, like Gecko) Chrome/79.0.3945.130 Safari/537.36",41,"[0.9, 0.5, 0.1]","[0.8, 0.4, 0.2]","[u'blue', u'red', u'black']","[u'left', u'middle', u'right']","[0.9, 0.5, 0.1]","[u'high', u'medium', u'low']","red",50,"middle","medium","False","False",982,3200,NA
"A15J42M6EC7Y1K","Tue Jan 28 2020 13:25:50 GMT-0500 (Eastern Standard Time)","Tue Jan 28 2020 13:33:46 GMT-0500 (Eastern Standard Time)","Mozilla/5.0 (Macintosh; Intel Mac OS X 10_14_2) AppleWebKit/537.36 (KHTML, like Gecko) Chrome/79.0.3945.130 Safari/537.36",42,"[0.9, 0.5, 0.1]","[0.8, 0.4, 0.2]","[u'blue', u'red', u'black']","[u'left', u'middle', u'right']","[0.9, 0.5, 0.1]","[u'high', u'medium', u'low']","black",51,"right","low","False","False",351,3150,NA
"A15J42M6EC7Y1K","Tue Jan 28 2020 13:25:50 GMT-0500 (Eastern Standard Time)","Tue Jan 28 2020 13:33:46 GMT-0500 (Eastern Standard Time)","Mozilla/5.0 (Macintosh; Intel Mac OS X 10_14_2) AppleWebKit/537.36 (KHTML, like Gecko) Chrome/79.0.3945.130 Safari/537.36",43,"[0.9, 0.5, 0.1]","[0.8, 0.4, 0.2]","[u'blue', u'red', u'black']","[u'left', u'middle', u'right']","[0.9, 0.5, 0.1]","[u'high', u'medium', u'low']","blue",49,"left","high","True","False",252,3250,NA
"A15J42M6EC7Y1K","Tue Jan 28 2020 13:25:50 GMT-0500 (Eastern Standard Time)","Tue Jan 28 2020 13:33:46 GMT-0500 (Eastern Standard Time)","Mozilla/5.0 (Macintosh; Intel Mac OS X 10_14_2) AppleWebKit/537.36 (KHTML, like Gecko) Chrome/79.0.3945.130 Safari/537.36",44,"[0.9, 0.5, 0.1]","[0.8, 0.4, 0.2]","[u'blue', u'red', u'black']","[u'left', u'middle', u'right']","[0.9, 0.5, 0.1]","[u'high', u'medium', u'low']","blue",49,"left","high","True","False",246,3350,NA
"A15J42M6EC7Y1K","Tue Jan 28 2020 13:25:50 GMT-0500 (Eastern Standard Time)","Tue Jan 28 2020 13:33:46 GMT-0500 (Eastern Standard Time)","Mozilla/5.0 (Macintosh; Intel Mac OS X 10_14_2) AppleWebKit/537.36 (KHTML, like Gecko) Chrome/79.0.3945.130 Safari/537.36",45,"[0.9, 0.5, 0.1]","[0.8, 0.4, 0.2]","[u'blue', u'red', u'black']","[u'left', u'middle', u'right']","[0.9, 0.5, 0.1]","[u'high', u'medium', u'low']","blue",49,"left","high","True","False",207,3450,NA
"A15J42M6EC7Y1K","Tue Jan 28 2020 13:25:50 GMT-0500 (Eastern Standard Time)","Tue Jan 28 2020 13:33:46 GMT-0500 (Eastern Standard Time)","Mozilla/5.0 (Macintosh; Intel Mac OS X 10_14_2) AppleWebKit/537.36 (KHTML, like Gecko) Chrome/79.0.3945.130 Safari/537.36",46,"[0.9, 0.5, 0.1]","[0.8, 0.4, 0.2]","[u'blue', u'red', u'black']","[u'left', u'middle', u'right']","[0.9, 0.5, 0.1]","[u'high', u'medium', u'low']","blue",49,"left","high","True","False",932,3550,NA
"A15J42M6EC7Y1K","Tue Jan 28 2020 13:25:50 GMT-0500 (Eastern Standard Time)","Tue Jan 28 2020 13:33:46 GMT-0500 (Eastern Standard Time)","Mozilla/5.0 (Macintosh; Intel Mac OS X 10_14_2) AppleWebKit/537.36 (KHTML, like Gecko) Chrome/79.0.3945.130 Safari/537.36",47,"[0.9, 0.5, 0.1]","[0.8, 0.4, 0.2]","[u'blue', u'red', u'black']","[u'left', u'middle', u'right']","[0.9, 0.5, 0.1]","[u'high', u'medium', u'low']","blue",49,"left","high","True","False",601,3650,NA
"A15J42M6EC7Y1K","Tue Jan 28 2020 13:25:50 GMT-0500 (Eastern Standard Time)","Tue Jan 28 2020 13:33:46 GMT-0500 (Eastern Standard Time)","Mozilla/5.0 (Macintosh; Intel Mac OS X 10_14_2) AppleWebKit/537.36 (KHTML, like Gecko) Chrome/79.0.3945.130 Safari/537.36",48,"[0.9, 0.5, 0.1]","[0.8, 0.4, 0.2]","[u'blue', u'red', u'black']","[u'left', u'middle', u'right']","[0.9, 0.5, 0.1]","[u'high', u'medium', u'low']","blue",49,"left","high","True","False",396,3750,NA
"A15J42M6EC7Y1K","Tue Jan 28 2020 13:25:50 GMT-0500 (Eastern Standard Time)","Tue Jan 28 2020 13:33:46 GMT-0500 (Eastern Standard Time)","Mozilla/5.0 (Macintosh; Intel Mac OS X 10_14_2) AppleWebKit/537.36 (KHTML, like Gecko) Chrome/79.0.3945.130 Safari/537.36",49,"[0.9, 0.5, 0.1]","[0.8, 0.4, 0.2]","[u'blue', u'red', u'black']","[u'left', u'middle', u'right']","[0.9, 0.5, 0.1]","[u'high', u'medium', u'low']","blue",49,"left","high","True","False",753,3850,NA
"A15J42M6EC7Y1K","Tue Jan 28 2020 13:25:50 GMT-0500 (Eastern Standard Time)","Tue Jan 28 2020 13:33:46 GMT-0500 (Eastern Standard Time)","Mozilla/5.0 (Macintosh; Intel Mac OS X 10_14_2) AppleWebKit/537.36 (KHTML, like Gecko) Chrome/79.0.3945.130 Safari/537.36",50,"[0.9, 0.5, 0.1]","[0.8, 0.4, 0.2]","[u'blue', u'red', u'black']","[u'left', u'middle', u'right']","[0.9, 0.5, 0.1]","[u'high', u'medium', u'low']","blue",49,"left","high","False","False",376,3800,NA
"A15J42M6EC7Y1K","Tue Jan 28 2020 13:25:50 GMT-0500 (Eastern Standard Time)","Tue Jan 28 2020 13:33:46 GMT-0500 (Eastern Standard Time)","Mozilla/5.0 (Macintosh; Intel Mac OS X 10_14_2) AppleWebKit/537.36 (KHTML, like Gecko) Chrome/79.0.3945.130 Safari/537.36",51,"[0.9, 0.5, 0.1]","[0.8, 0.4, 0.2]","[u'blue', u'red', u'black']","[u'left', u'middle', u'right']","[0.9, 0.5, 0.1]","[u'high', u'medium', u'low']","black",51,"right","low","False","False",315,3750,NA
"A15J42M6EC7Y1K","Tue Jan 28 2020 13:25:50 GMT-0500 (Eastern Standard Time)","Tue Jan 28 2020 13:33:46 GMT-0500 (Eastern Standard Time)","Mozilla/5.0 (Macintosh; Intel Mac OS X 10_14_2) AppleWebKit/537.36 (KHTML, like Gecko) Chrome/79.0.3945.130 Safari/537.36",52,"[0.9, 0.5, 0.1]","[0.8, 0.4, 0.2]","[u'blue', u'red', u'black']","[u'left', u'middle', u'right']","[0.9, 0.5, 0.1]","[u'high', u'medium', u'low']","red",50,"middle","medium","False","False",317,3700,NA
"A15J42M6EC7Y1K","Tue Jan 28 2020 13:25:50 GMT-0500 (Eastern Standard Time)","Tue Jan 28 2020 13:33:46 GMT-0500 (Eastern Standard Time)","Mozilla/5.0 (Macintosh; Intel Mac OS X 10_14_2) AppleWebKit/537.36 (KHTML, like Gecko) Chrome/79.0.3945.130 Safari/537.36",53,"[0.9, 0.5, 0.1]","[0.8, 0.4, 0.2]","[u'blue', u'red', u'black']","[u'left', u'middle', u'right']","[0.9, 0.5, 0.1]","[u'high', u'medium', u'low']","blue",49,"left","high","True","False",349,3800,NA
"A15J42M6EC7Y1K","Tue Jan 28 2020 13:25:50 GMT-0500 (Eastern Standard Time)","Tue Jan 28 2020 13:33:46 GMT-0500 (Eastern Standard Time)","Mozilla/5.0 (Macintosh; Intel Mac OS X 10_14_2) AppleWebKit/537.36 (KHTML, like Gecko) Chrome/79.0.3945.130 Safari/537.36",54,"[0.9, 0.5, 0.1]","[0.8, 0.4, 0.2]","[u'blue', u'red', u'black']","[u'left', u'middle', u'right']","[0.9, 0.5, 0.1]","[u'high', u'medium', u'low']","blue",49,"left","high","True","False",334,3900,NA
"A15J42M6EC7Y1K","Tue Jan 28 2020 13:25:50 GMT-0500 (Eastern Standard Time)","Tue Jan 28 2020 13:33:46 GMT-0500 (Eastern Standard Time)","Mozilla/5.0 (Macintosh; Intel Mac OS X 10_14_2) AppleWebKit/537.36 (KHTML, like Gecko) Chrome/79.0.3945.130 Safari/537.36",55,"[0.9, 0.5, 0.1]","[0.8, 0.4, 0.2]","[u'blue', u'red', u'black']","[u'left', u'middle', u'right']","[0.9, 0.5, 0.1]","[u'high', u'medium', u'low']","blue",49,"left","high","True","False",686,4000,NA
"A15J42M6EC7Y1K","Tue Jan 28 2020 13:25:50 GMT-0500 (Eastern Standard Time)","Tue Jan 28 2020 13:33:46 GMT-0500 (Eastern Standard Time)","Mozilla/5.0 (Macintosh; Intel Mac OS X 10_14_2) AppleWebKit/537.36 (KHTML, like Gecko) Chrome/79.0.3945.130 Safari/537.36",56,"[0.9, 0.5, 0.1]","[0.8, 0.4, 0.2]","[u'blue', u'red', u'black']","[u'left', u'middle', u'right']","[0.9, 0.5, 0.1]","[u'high', u'medium', u'low']","blue",49,"left","high","True","False",335,4100,NA
"A15J42M6EC7Y1K","Tue Jan 28 2020 13:25:50 GMT-0500 (Eastern Standard Time)","Tue Jan 28 2020 13:33:46 GMT-0500 (Eastern Standard Time)","Mozilla/5.0 (Macintosh; Intel Mac OS X 10_14_2) AppleWebKit/537.36 (KHTML, like Gecko) Chrome/79.0.3945.130 Safari/537.36",57,"[0.9, 0.5, 0.1]","[0.8, 0.4, 0.2]","[u'blue', u'red', u'black']","[u'left', u'middle', u'right']","[0.9, 0.5, 0.1]","[u'high', u'medium', u'low']","blue",49,"left","high","True","False",354,4200,NA
"A15J42M6EC7Y1K","Tue Jan 28 2020 13:25:50 GMT-0500 (Eastern Standard Time)","Tue Jan 28 2020 13:33:46 GMT-0500 (Eastern Standard Time)","Mozilla/5.0 (Macintosh; Intel Mac OS X 10_14_2) AppleWebKit/537.36 (KHTML, like Gecko) Chrome/79.0.3945.130 Safari/537.36",58,"[0.9, 0.5, 0.1]","[0.8, 0.4, 0.2]","[u'blue', u'red', u'black']","[u'left', u'middle', u'right']","[0.9, 0.5, 0.1]","[u'high', u'medium', u'low']","blue",49,"left","high","True","False",314,4300,NA
"A15J42M6EC7Y1K","Tue Jan 28 2020 13:25:50 GMT-0500 (Eastern Standard Time)","Tue Jan 28 2020 13:33:46 GMT-0500 (Eastern Standard Time)","Mozilla/5.0 (Macintosh; Intel Mac OS X 10_14_2) AppleWebKit/537.36 (KHTML, like Gecko) Chrome/79.0.3945.130 Safari/537.36",59,"[0.9, 0.5, 0.1]","[0.8, 0.4, 0.2]","[u'blue', u'red', u'black']","[u'left', u'middle', u'right']","[0.9, 0.5, 0.1]","[u'high', u'medium', u'low']","blue",49,"left","high","True","False",311,4400,NA
"A15J42M6EC7Y1K","Tue Jan 28 2020 13:25:50 GMT-0500 (Eastern Standard Time)","Tue Jan 28 2020 13:33:46 GMT-0500 (Eastern Standard Time)","Mozilla/5.0 (Macintosh; Intel Mac OS X 10_14_2) AppleWebKit/537.36 (KHTML, like Gecko) Chrome/79.0.3945.130 Safari/537.36",60,"[0.9, 0.5, 0.1]","[0.8, 0.4, 0.2]","[u'blue', u'red', u'black']","[u'left', u'middle', u'right']","[0.9, 0.5, 0.1]","[u'high', u'medium', u'low']","blue",49,"left","high","True","False",295,4500,NA
"A15J42M6EC7Y1K","Tue Jan 28 2020 13:25:50 GMT-0500 (Eastern Standard Time)","Tue Jan 28 2020 13:33:46 GMT-0500 (Eastern Standard Time)","Mozilla/5.0 (Macintosh; Intel Mac OS X 10_14_2) AppleWebKit/537.36 (KHTML, like Gecko) Chrome/79.0.3945.130 Safari/537.36",61,"[0.9, 0.5, 0.1]","[0.8, 0.4, 0.2]","[u'blue', u'red', u'black']","[u'left', u'middle', u'right']","[0.9, 0.5, 0.1]","[u'high', u'medium', u'low']","blue",49,"left","high","True","True",288,4600,NA
"A15J42M6EC7Y1K","Tue Jan 28 2020 13:25:50 GMT-0500 (Eastern Standard Time)","Tue Jan 28 2020 13:33:46 GMT-0500 (Eastern Standard Time)","Mozilla/5.0 (Macintosh; Intel Mac OS X 10_14_2) AppleWebKit/537.36 (KHTML, like Gecko) Chrome/79.0.3945.130 Safari/537.36",62,"[0.9, 0.5, 0.1]","[0.8, 0.4, 0.2]","[u'blue', u'red', u'black']","[u'left', u'middle', u'right']","[0.9, 0.5, 0.1]","[u'medium', u'high', u'low']","blue",49,"left","medium","False","False",275,4550,NA
"A15J42M6EC7Y1K","Tue Jan 28 2020 13:25:50 GMT-0500 (Eastern Standard Time)","Tue Jan 28 2020 13:33:46 GMT-0500 (Eastern Standard Time)","Mozilla/5.0 (Macintosh; Intel Mac OS X 10_14_2) AppleWebKit/537.36 (KHTML, like Gecko) Chrome/79.0.3945.130 Safari/537.36",63,"[0.9, 0.5, 0.1]","[0.8, 0.4, 0.2]","[u'blue', u'red', u'black']","[u'left', u'middle', u'right']","[0.9, 0.5, 0.1]","[u'medium', u'high', u'low']","red",50,"middle","high","True","False",257,4650,NA
"A15J42M6EC7Y1K","Tue Jan 28 2020 13:25:50 GMT-0500 (Eastern Standard Time)","Tue Jan 28 2020 13:33:46 GMT-0500 (Eastern Standard Time)","Mozilla/5.0 (Macintosh; Intel Mac OS X 10_14_2) AppleWebKit/537.36 (KHTML, like Gecko) Chrome/79.0.3945.130 Safari/537.36",64,"[0.9, 0.5, 0.1]","[0.8, 0.4, 0.2]","[u'blue', u'red', u'black']","[u'left', u'middle', u'right']","[0.9, 0.5, 0.1]","[u'medium', u'high', u'low']","red",50,"middle","high","True","False",253,4750,NA
"A15J42M6EC7Y1K","Tue Jan 28 2020 13:25:50 GMT-0500 (Eastern Standard Time)","Tue Jan 28 2020 13:33:46 GMT-0500 (Eastern Standard Time)","Mozilla/5.0 (Macintosh; Intel Mac OS X 10_14_2) AppleWebKit/537.36 (KHTML, like Gecko) Chrome/79.0.3945.130 Safari/537.36",65,"[0.9, 0.5, 0.1]","[0.8, 0.4, 0.2]","[u'blue', u'red', u'black']","[u'left', u'middle', u'right']","[0.9, 0.5, 0.1]","[u'medium', u'high', u'low']","red",50,"middle","high","True","False",270,4850,NA
"A15J42M6EC7Y1K","Tue Jan 28 2020 13:25:50 GMT-0500 (Eastern Standard Time)","Tue Jan 28 2020 13:33:46 GMT-0500 (Eastern Standard Time)","Mozilla/5.0 (Macintosh; Intel Mac OS X 10_14_2) AppleWebKit/537.36 (KHTML, like Gecko) Chrome/79.0.3945.130 Safari/537.36",66,"[0.9, 0.5, 0.1]","[0.8, 0.4, 0.2]","[u'blue', u'red', u'black']","[u'left', u'middle', u'right']","[0.9, 0.5, 0.1]","[u'medium', u'high', u'low']","red",50,"middle","high","True","False",239,4950,NA
"A15J42M6EC7Y1K","Tue Jan 28 2020 13:25:50 GMT-0500 (Eastern Standard Time)","Tue Jan 28 2020 13:33:46 GMT-0500 (Eastern Standard Time)","Mozilla/5.0 (Macintosh; Intel Mac OS X 10_14_2) AppleWebKit/537.36 (KHTML, like Gecko) Chrome/79.0.3945.130 Safari/537.36",67,"[0.9, 0.5, 0.1]","[0.8, 0.4, 0.2]","[u'blue', u'red', u'black']","[u'left', u'middle', u'right']","[0.9, 0.5, 0.1]","[u'medium', u'high', u'low']","red",50,"middle","high","True","False",274,5050,NA
"A15J42M6EC7Y1K","Tue Jan 28 2020 13:25:50 GMT-0500 (Eastern Standard Time)","Tue Jan 28 2020 13:33:46 GMT-0500 (Eastern Standard Time)","Mozilla/5.0 (Macintosh; Intel Mac OS X 10_14_2) AppleWebKit/537.36 (KHTML, like Gecko) Chrome/79.0.3945.130 Safari/537.36",68,"[0.9, 0.5, 0.1]","[0.8, 0.4, 0.2]","[u'blue', u'red', u'black']","[u'left', u'middle', u'right']","[0.9, 0.5, 0.1]","[u'medium', u'high', u'low']","red",50,"middle","high","True","False",260,5150,NA
"A15J42M6EC7Y1K","Tue Jan 28 2020 13:25:50 GMT-0500 (Eastern Standard Time)","Tue Jan 28 2020 13:33:46 GMT-0500 (Eastern Standard Time)","Mozilla/5.0 (Macintosh; Intel Mac OS X 10_14_2) AppleWebKit/537.36 (KHTML, like Gecko) Chrome/79.0.3945.130 Safari/537.36",69,"[0.9, 0.5, 0.1]","[0.8, 0.4, 0.2]","[u'blue', u'red', u'black']","[u'left', u'middle', u'right']","[0.9, 0.5, 0.1]","[u'medium', u'high', u'low']","red",50,"middle","high","False","False",243,5100,NA
"A15J42M6EC7Y1K","Tue Jan 28 2020 13:25:50 GMT-0500 (Eastern Standard Time)","Tue Jan 28 2020 13:33:46 GMT-0500 (Eastern Standard Time)","Mozilla/5.0 (Macintosh; Intel Mac OS X 10_14_2) AppleWebKit/537.36 (KHTML, like Gecko) Chrome/79.0.3945.130 Safari/537.36",70,"[0.9, 0.5, 0.1]","[0.8, 0.4, 0.2]","[u'blue', u'red', u'black']","[u'left', u'middle', u'right']","[0.9, 0.5, 0.1]","[u'medium', u'high', u'low']","black",51,"right","low","False","False",323,5050,NA
"A15J42M6EC7Y1K","Tue Jan 28 2020 13:25:50 GMT-0500 (Eastern Standard Time)","Tue Jan 28 2020 13:33:46 GMT-0500 (Eastern Standard Time)","Mozilla/5.0 (Macintosh; Intel Mac OS X 10_14_2) AppleWebKit/537.36 (KHTML, like Gecko) Chrome/79.0.3945.130 Safari/537.36",71,"[0.9, 0.5, 0.1]","[0.8, 0.4, 0.2]","[u'blue', u'red', u'black']","[u'left', u'middle', u'right']","[0.9, 0.5, 0.1]","[u'medium', u'high', u'low']","red",50,"middle","high","True","False",1008,5150,NA
"A15J42M6EC7Y1K","Tue Jan 28 2020 13:25:50 GMT-0500 (Eastern Standard Time)","Tue Jan 28 2020 13:33:46 GMT-0500 (Eastern Standard Time)","Mozilla/5.0 (Macintosh; Intel Mac OS X 10_14_2) AppleWebKit/537.36 (KHTML, like Gecko) Chrome/79.0.3945.130 Safari/537.36",72,"[0.9, 0.5, 0.1]","[0.8, 0.4, 0.2]","[u'blue', u'red', u'black']","[u'left', u'middle', u'right']","[0.9, 0.5, 0.1]","[u'medium', u'high', u'low']","red",50,"middle","high","True","True",309,5250,NA
"A15J42M6EC7Y1K","Tue Jan 28 2020 13:25:50 GMT-0500 (Eastern Standard Time)","Tue Jan 28 2020 13:33:46 GMT-0500 (Eastern Standard Time)","Mozilla/5.0 (Macintosh; Intel Mac OS X 10_14_2) AppleWebKit/537.36 (KHTML, like Gecko) Chrome/79.0.3945.130 Safari/537.36",73,"[0.9, 0.5, 0.1]","[0.8, 0.4, 0.2]","[u'blue', u'red', u'black']","[u'left', u'middle', u'right']","[0.9, 0.5, 0.1]","[u'medium', u'low', u'high']","red",50,"middle","low","False","False",250,5200,NA
"A15J42M6EC7Y1K","Tue Jan 28 2020 13:25:50 GMT-0500 (Eastern Standard Time)","Tue Jan 28 2020 13:33:46 GMT-0500 (Eastern Standard Time)","Mozilla/5.0 (Macintosh; Intel Mac OS X 10_14_2) AppleWebKit/537.36 (KHTML, like Gecko) Chrome/79.0.3945.130 Safari/537.36",74,"[0.9, 0.5, 0.1]","[0.8, 0.4, 0.2]","[u'blue', u'red', u'black']","[u'left', u'middle', u'right']","[0.9, 0.5, 0.1]","[u'medium', u'low', u'high']","blue",49,"left","medium","True","False",336,5300,NA
"A15J42M6EC7Y1K","Tue Jan 28 2020 13:25:50 GMT-0500 (Eastern Standard Time)","Tue Jan 28 2020 13:33:46 GMT-0500 (Eastern Standard Time)","Mozilla/5.0 (Macintosh; Intel Mac OS X 10_14_2) AppleWebKit/537.36 (KHTML, like Gecko) Chrome/79.0.3945.130 Safari/537.36",75,"[0.9, 0.5, 0.1]","[0.8, 0.4, 0.2]","[u'blue', u'red', u'black']","[u'left', u'middle', u'right']","[0.9, 0.5, 0.1]","[u'medium', u'low', u'high']","blue",49,"left","medium","False","False",286,5250,NA
"A15J42M6EC7Y1K","Tue Jan 28 2020 13:25:50 GMT-0500 (Eastern Standard Time)","Tue Jan 28 2020 13:33:46 GMT-0500 (Eastern Standard Time)","Mozilla/5.0 (Macintosh; Intel Mac OS X 10_14_2) AppleWebKit/537.36 (KHTML, like Gecko) Chrome/79.0.3945.130 Safari/537.36",76,"[0.9, 0.5, 0.1]","[0.8, 0.4, 0.2]","[u'blue', u'red', u'black']","[u'left', u'middle', u'right']","[0.9, 0.5, 0.1]","[u'medium', u'low', u'high']","red",50,"middle","low","False","False",271,5200,NA
"A15J42M6EC7Y1K","Tue Jan 28 2020 13:25:50 GMT-0500 (Eastern Standard Time)","Tue Jan 28 2020 13:33:46 GMT-0500 (Eastern Standard Time)","Mozilla/5.0 (Macintosh; Intel Mac OS X 10_14_2) AppleWebKit/537.36 (KHTML, like Gecko) Chrome/79.0.3945.130 Safari/537.36",77,"[0.9, 0.5, 0.1]","[0.8, 0.4, 0.2]","[u'blue', u'red', u'black']","[u'left', u'middle', u'right']","[0.9, 0.5, 0.1]","[u'medium', u'low', u'high']","blue",49,"left","medium","True","False",327,5300,NA
"A15J42M6EC7Y1K","Tue Jan 28 2020 13:25:50 GMT-0500 (Eastern Standard Time)","Tue Jan 28 2020 13:33:46 GMT-0500 (Eastern Standard Time)","Mozilla/5.0 (Macintosh; Intel Mac OS X 10_14_2) AppleWebKit/537.36 (KHTML, like Gecko) Chrome/79.0.3945.130 Safari/537.36",78,"[0.9, 0.5, 0.1]","[0.8, 0.4, 0.2]","[u'blue', u'red', u'black']","[u'left', u'middle', u'right']","[0.9, 0.5, 0.1]","[u'medium', u'low', u'high']","blue",49,"left","medium","True","False",323,5400,NA
"A15J42M6EC7Y1K","Tue Jan 28 2020 13:25:50 GMT-0500 (Eastern Standard Time)","Tue Jan 28 2020 13:33:46 GMT-0500 (Eastern Standard Time)","Mozilla/5.0 (Macintosh; Intel Mac OS X 10_14_2) AppleWebKit/537.36 (KHTML, like Gecko) Chrome/79.0.3945.130 Safari/537.36",79,"[0.9, 0.5, 0.1]","[0.8, 0.4, 0.2]","[u'blue', u'red', u'black']","[u'left', u'middle', u'right']","[0.9, 0.5, 0.1]","[u'medium', u'low', u'high']","blue",49,"left","medium","False","False",335,5350,NA
"A15J42M6EC7Y1K","Tue Jan 28 2020 13:25:50 GMT-0500 (Eastern Standard Time)","Tue Jan 28 2020 13:33:46 GMT-0500 (Eastern Standard Time)","Mozilla/5.0 (Macintosh; Intel Mac OS X 10_14_2) AppleWebKit/537.36 (KHTML, like Gecko) Chrome/79.0.3945.130 Safari/537.36",80,"[0.9, 0.5, 0.1]","[0.8, 0.4, 0.2]","[u'blue', u'red', u'black']","[u'left', u'middle', u'right']","[0.9, 0.5, 0.1]","[u'medium', u'low', u'high']","blue",49,"left","medium","False","False",524,5300,NA
"A15J42M6EC7Y1K","Tue Jan 28 2020 13:25:50 GMT-0500 (Eastern Standard Time)","Tue Jan 28 2020 13:33:46 GMT-0500 (Eastern Standard Time)","Mozilla/5.0 (Macintosh; Intel Mac OS X 10_14_2) AppleWebKit/537.36 (KHTML, like Gecko) Chrome/79.0.3945.130 Safari/537.36",81,"[0.9, 0.5, 0.1]","[0.8, 0.4, 0.2]","[u'blue', u'red', u'black']","[u'left', u'middle', u'right']","[0.8, 0.4, 0.2]","[u'low', u'high', u'medium']","black",51,"right","medium","True","False",476,5400,NA
"A15J42M6EC7Y1K","Tue Jan 28 2020 13:25:50 GMT-0500 (Eastern Standard Time)","Tue Jan 28 2020 13:33:46 GMT-0500 (Eastern Standard Time)","Mozilla/5.0 (Macintosh; Intel Mac OS X 10_14_2) AppleWebKit/537.36 (KHTML, like Gecko) Chrome/79.0.3945.130 Safari/537.36",82,"[0.9, 0.5, 0.1]","[0.8, 0.4, 0.2]","[u'blue', u'red', u'black']","[u'left', u'middle', u'right']","[0.8, 0.4, 0.2]","[u'low', u'high', u'medium']","black",51,"right","medium","True","False",264,5500,NA
"A15J42M6EC7Y1K","Tue Jan 28 2020 13:25:50 GMT-0500 (Eastern Standard Time)","Tue Jan 28 2020 13:33:46 GMT-0500 (Eastern Standard Time)","Mozilla/5.0 (Macintosh; Intel Mac OS X 10_14_2) AppleWebKit/537.36 (KHTML, like Gecko) Chrome/79.0.3945.130 Safari/537.36",83,"[0.9, 0.5, 0.1]","[0.8, 0.4, 0.2]","[u'blue', u'red', u'black']","[u'left', u'middle', u'right']","[0.8, 0.4, 0.2]","[u'low', u'high', u'medium']","black",51,"right","medium","True","False",291,5600,NA
"A15J42M6EC7Y1K","Tue Jan 28 2020 13:25:50 GMT-0500 (Eastern Standard Time)","Tue Jan 28 2020 13:33:46 GMT-0500 (Eastern Standard Time)","Mozilla/5.0 (Macintosh; Intel Mac OS X 10_14_2) AppleWebKit/537.36 (KHTML, like Gecko) Chrome/79.0.3945.130 Safari/537.36",84,"[0.9, 0.5, 0.1]","[0.8, 0.4, 0.2]","[u'blue', u'red', u'black']","[u'left', u'middle', u'right']","[0.8, 0.4, 0.2]","[u'low', u'high', u'medium']","black",51,"right","medium","True","False",361,5700,NA
"A15J42M6EC7Y1K","Tue Jan 28 2020 13:25:50 GMT-0500 (Eastern Standard Time)","Tue Jan 28 2020 13:33:46 GMT-0500 (Eastern Standard Time)","Mozilla/5.0 (Macintosh; Intel Mac OS X 10_14_2) AppleWebKit/537.36 (KHTML, like Gecko) Chrome/79.0.3945.130 Safari/537.36",85,"[0.9, 0.5, 0.1]","[0.8, 0.4, 0.2]","[u'blue', u'red', u'black']","[u'left', u'middle', u'right']","[0.8, 0.4, 0.2]","[u'low', u'high', u'medium']","black",51,"right","medium","False","False",270,5650,NA
"A15J42M6EC7Y1K","Tue Jan 28 2020 13:25:50 GMT-0500 (Eastern Standard Time)","Tue Jan 28 2020 13:33:46 GMT-0500 (Eastern Standard Time)","Mozilla/5.0 (Macintosh; Intel Mac OS X 10_14_2) AppleWebKit/537.36 (KHTML, like Gecko) Chrome/79.0.3945.130 Safari/537.36",86,"[0.9, 0.5, 0.1]","[0.8, 0.4, 0.2]","[u'blue', u'red', u'black']","[u'left', u'middle', u'right']","[0.8, 0.4, 0.2]","[u'low', u'high', u'medium']","blue",49,"left","low","False","False",351,5600,NA
"A15J42M6EC7Y1K","Tue Jan 28 2020 13:25:50 GMT-0500 (Eastern Standard Time)","Tue Jan 28 2020 13:33:46 GMT-0500 (Eastern Standard Time)","Mozilla/5.0 (Macintosh; Intel Mac OS X 10_14_2) AppleWebKit/537.36 (KHTML, like Gecko) Chrome/79.0.3945.130 Safari/537.36",87,"[0.9, 0.5, 0.1]","[0.8, 0.4, 0.2]","[u'blue', u'red', u'black']","[u'left', u'middle', u'right']","[0.8, 0.4, 0.2]","[u'low', u'high', u'medium']","black",51,"right","medium","True","False",250,5700,NA
"A15J42M6EC7Y1K","Tue Jan 28 2020 13:25:50 GMT-0500 (Eastern Standard Time)","Tue Jan 28 2020 13:33:46 GMT-0500 (Eastern Standard Time)","Mozilla/5.0 (Macintosh; Intel Mac OS X 10_14_2) AppleWebKit/537.36 (KHTML, like Gecko) Chrome/79.0.3945.130 Safari/537.36",88,"[0.9, 0.5, 0.1]","[0.8, 0.4, 0.2]","[u'blue', u'red', u'black']","[u'left', u'middle', u'right']","[0.8, 0.4, 0.2]","[u'low', u'high', u'medium']","black",51,"right","medium","False","False",377,5650,NA
"A15J42M6EC7Y1K","Tue Jan 28 2020 13:25:50 GMT-0500 (Eastern Standard Time)","Tue Jan 28 2020 13:33:46 GMT-0500 (Eastern Standard Time)","Mozilla/5.0 (Macintosh; Intel Mac OS X 10_14_2) AppleWebKit/537.36 (KHTML, like Gecko) Chrome/79.0.3945.130 Safari/537.36",89,"[0.9, 0.5, 0.1]","[0.8, 0.4, 0.2]","[u'blue', u'red', u'black']","[u'left', u'middle', u'right']","[0.8, 0.4, 0.2]","[u'low', u'high', u'medium']","red",50,"middle","high","True","False",376,5750,NA
"A15J42M6EC7Y1K","Tue Jan 28 2020 13:25:50 GMT-0500 (Eastern Standard Time)","Tue Jan 28 2020 13:33:46 GMT-0500 (Eastern Standard Time)","Mozilla/5.0 (Macintosh; Intel Mac OS X 10_14_2) AppleWebKit/537.36 (KHTML, like Gecko) Chrome/79.0.3945.130 Safari/537.36",90,"[0.9, 0.5, 0.1]","[0.8, 0.4, 0.2]","[u'blue', u'red', u'black']","[u'left', u'middle', u'right']","[0.8, 0.4, 0.2]","[u'low', u'high', u'medium']","red",50,"middle","high","True","False",388,5850,NA
"A15J42M6EC7Y1K","Tue Jan 28 2020 13:25:50 GMT-0500 (Eastern Standard Time)","Tue Jan 28 2020 13:33:46 GMT-0500 (Eastern Standard Time)","Mozilla/5.0 (Macintosh; Intel Mac OS X 10_14_2) AppleWebKit/537.36 (KHTML, like Gecko) Chrome/79.0.3945.130 Safari/537.36",91,"[0.9, 0.5, 0.1]","[0.8, 0.4, 0.2]","[u'blue', u'red', u'black']","[u'left', u'middle', u'right']","[0.8, 0.4, 0.2]","[u'low', u'high', u'medium']","red",50,"middle","high","True","False",233,5950,NA
"A15J42M6EC7Y1K","Tue Jan 28 2020 13:25:50 GMT-0500 (Eastern Standard Time)","Tue Jan 28 2020 13:33:46 GMT-0500 (Eastern Standard Time)","Mozilla/5.0 (Macintosh; Intel Mac OS X 10_14_2) AppleWebKit/537.36 (KHTML, like Gecko) Chrome/79.0.3945.130 Safari/537.36",92,"[0.9, 0.5, 0.1]","[0.8, 0.4, 0.2]","[u'blue', u'red', u'black']","[u'left', u'middle', u'right']","[0.8, 0.4, 0.2]","[u'low', u'high', u'medium']","red",50,"middle","high","True","False",482,6050,NA
"A15J42M6EC7Y1K","Tue Jan 28 2020 13:25:50 GMT-0500 (Eastern Standard Time)","Tue Jan 28 2020 13:33:46 GMT-0500 (Eastern Standard Time)","Mozilla/5.0 (Macintosh; Intel Mac OS X 10_14_2) AppleWebKit/537.36 (KHTML, like Gecko) Chrome/79.0.3945.130 Safari/537.36",93,"[0.9, 0.5, 0.1]","[0.8, 0.4, 0.2]","[u'blue', u'red', u'black']","[u'left', u'middle', u'right']","[0.8, 0.4, 0.2]","[u'low', u'high', u'medium']","red",50,"middle","high","True","False",350,6150,NA
"A15J42M6EC7Y1K","Tue Jan 28 2020 13:25:50 GMT-0500 (Eastern Standard Time)","Tue Jan 28 2020 13:33:46 GMT-0500 (Eastern Standard Time)","Mozilla/5.0 (Macintosh; Intel Mac OS X 10_14_2) AppleWebKit/537.36 (KHTML, like Gecko) Chrome/79.0.3945.130 Safari/537.36",94,"[0.9, 0.5, 0.1]","[0.8, 0.4, 0.2]","[u'blue', u'red', u'black']","[u'left', u'middle', u'right']","[0.8, 0.4, 0.2]","[u'low', u'high', u'medium']","red",50,"middle","high","True","False",263,6250,NA
"A15J42M6EC7Y1K","Tue Jan 28 2020 13:25:50 GMT-0500 (Eastern Standard Time)","Tue Jan 28 2020 13:33:46 GMT-0500 (Eastern Standard Time)","Mozilla/5.0 (Macintosh; Intel Mac OS X 10_14_2) AppleWebKit/537.36 (KHTML, like Gecko) Chrome/79.0.3945.130 Safari/537.36",95,"[0.9, 0.5, 0.1]","[0.8, 0.4, 0.2]","[u'blue', u'red', u'black']","[u'left', u'middle', u'right']","[0.8, 0.4, 0.2]","[u'low', u'high', u'medium']","red",50,"middle","high","True","False",251,6350,NA
"A15J42M6EC7Y1K","Tue Jan 28 2020 13:25:50 GMT-0500 (Eastern Standard Time)","Tue Jan 28 2020 13:33:46 GMT-0500 (Eastern Standard Time)","Mozilla/5.0 (Macintosh; Intel Mac OS X 10_14_2) AppleWebKit/537.36 (KHTML, like Gecko) Chrome/79.0.3945.130 Safari/537.36",96,"[0.9, 0.5, 0.1]","[0.8, 0.4, 0.2]","[u'blue', u'red', u'black']","[u'left', u'middle', u'right']","[0.8, 0.4, 0.2]","[u'low', u'high', u'medium']","red",50,"middle","high","True","False",309,6450,NA
"A15J42M6EC7Y1K","Tue Jan 28 2020 13:25:50 GMT-0500 (Eastern Standard Time)","Tue Jan 28 2020 13:33:46 GMT-0500 (Eastern Standard Time)","Mozilla/5.0 (Macintosh; Intel Mac OS X 10_14_2) AppleWebKit/537.36 (KHTML, like Gecko) Chrome/79.0.3945.130 Safari/537.36",97,"[0.9, 0.5, 0.1]","[0.8, 0.4, 0.2]","[u'blue', u'red', u'black']","[u'left', u'middle', u'right']","[0.8, 0.4, 0.2]","[u'low', u'high', u'medium']","red",50,"middle","high","True","True",267,6550,NA
"A15J42M6EC7Y1K","Tue Jan 28 2020 13:25:50 GMT-0500 (Eastern Standard Time)","Tue Jan 28 2020 13:33:46 GMT-0500 (Eastern Standard Time)","Mozilla/5.0 (Macintosh; Intel Mac OS X 10_14_2) AppleWebKit/537.36 (KHTML, like Gecko) Chrome/79.0.3945.130 Safari/537.36",98,"[0.9, 0.5, 0.1]","[0.8, 0.4, 0.2]","[u'blue', u'red', u'black']","[u'left', u'middle', u'right']","[0.8, 0.4, 0.2]","[u'high', u'low', u'medium']","red",50,"middle","low","False","False",316,6500,NA
"A15J42M6EC7Y1K","Tue Jan 28 2020 13:25:50 GMT-0500 (Eastern Standard Time)","Tue Jan 28 2020 13:33:46 GMT-0500 (Eastern Standard Time)","Mozilla/5.0 (Macintosh; Intel Mac OS X 10_14_2) AppleWebKit/537.36 (KHTML, like Gecko) Chrome/79.0.3945.130 Safari/537.36",99,"[0.9, 0.5, 0.1]","[0.8, 0.4, 0.2]","[u'blue', u'red', u'black']","[u'left', u'middle', u'right']","[0.8, 0.4, 0.2]","[u'high', u'low', u'medium']","red",50,"middle","low","False","False",299,6450,NA
"A15J42M6EC7Y1K","Tue Jan 28 2020 13:25:50 GMT-0500 (Eastern Standard Time)","Tue Jan 28 2020 13:33:46 GMT-0500 (Eastern Standard Time)","Mozilla/5.0 (Macintosh; Intel Mac OS X 10_14_2) AppleWebKit/537.36 (KHTML, like Gecko) Chrome/79.0.3945.130 Safari/537.36",100,"[0.9, 0.5, 0.1]","[0.8, 0.4, 0.2]","[u'blue', u'red', u'black']","[u'left', u'middle', u'right']","[0.8, 0.4, 0.2]","[u'high', u'low', u'medium']","black",51,"right","medium","False","False",342,6400,NA
"A15J42M6EC7Y1K","Tue Jan 28 2020 13:25:50 GMT-0500 (Eastern Standard Time)","Tue Jan 28 2020 13:33:46 GMT-0500 (Eastern Standard Time)","Mozilla/5.0 (Macintosh; Intel Mac OS X 10_14_2) AppleWebKit/537.36 (KHTML, like Gecko) Chrome/79.0.3945.130 Safari/537.36",101,"[0.9, 0.5, 0.1]","[0.8, 0.4, 0.2]","[u'blue', u'red', u'black']","[u'left', u'middle', u'right']","[0.8, 0.4, 0.2]","[u'high', u'low', u'medium']","blue",49,"left","high","True","False",446,6500,NA
"A15J42M6EC7Y1K","Tue Jan 28 2020 13:25:50 GMT-0500 (Eastern Standard Time)","Tue Jan 28 2020 13:33:46 GMT-0500 (Eastern Standard Time)","Mozilla/5.0 (Macintosh; Intel Mac OS X 10_14_2) AppleWebKit/537.36 (KHTML, like Gecko) Chrome/79.0.3945.130 Safari/537.36",102,"[0.9, 0.5, 0.1]","[0.8, 0.4, 0.2]","[u'blue', u'red', u'black']","[u'left', u'middle', u'right']","[0.8, 0.4, 0.2]","[u'high', u'low', u'medium']","blue",49,"left","high","True","False",293,6600,NA
"A15J42M6EC7Y1K","Tue Jan 28 2020 13:25:50 GMT-0500 (Eastern Standard Time)","Tue Jan 28 2020 13:33:46 GMT-0500 (Eastern Standard Time)","Mozilla/5.0 (Macintosh; Intel Mac OS X 10_14_2) AppleWebKit/537.36 (KHTML, like Gecko) Chrome/79.0.3945.130 Safari/537.36",103,"[0.9, 0.5, 0.1]","[0.8, 0.4, 0.2]","[u'blue', u'red', u'black']","[u'left', u'middle', u'right']","[0.8, 0.4, 0.2]","[u'high', u'low', u'medium']","blue",49,"left","high","True","False",231,6700,NA
"A15J42M6EC7Y1K","Tue Jan 28 2020 13:25:50 GMT-0500 (Eastern Standard Time)","Tue Jan 28 2020 13:33:46 GMT-0500 (Eastern Standard Time)","Mozilla/5.0 (Macintosh; Intel Mac OS X 10_14_2) AppleWebKit/537.36 (KHTML, like Gecko) Chrome/79.0.3945.130 Safari/537.36",104,"[0.9, 0.5, 0.1]","[0.8, 0.4, 0.2]","[u'blue', u'red', u'black']","[u'left', u'middle', u'right']","[0.8, 0.4, 0.2]","[u'high', u'low', u'medium']","blue",49,"left","high","False","False",239,6650,NA
"A15J42M6EC7Y1K","Tue Jan 28 2020 13:25:50 GMT-0500 (Eastern Standard Time)","Tue Jan 28 2020 13:33:46 GMT-0500 (Eastern Standard Time)","Mozilla/5.0 (Macintosh; Intel Mac OS X 10_14_2) AppleWebKit/537.36 (KHTML, like Gecko) Chrome/79.0.3945.130 Safari/537.36",105,"[0.9, 0.5, 0.1]","[0.8, 0.4, 0.2]","[u'blue', u'red', u'black']","[u'left', u'middle', u'right']","[0.8, 0.4, 0.2]","[u'high', u'low', u'medium']","red",50,"middle","low","False","False",288,6600,NA
"A15J42M6EC7Y1K","Tue Jan 28 2020 13:25:50 GMT-0500 (Eastern Standard Time)","Tue Jan 28 2020 13:33:46 GMT-0500 (Eastern Standard Time)","Mozilla/5.0 (Macintosh; Intel Mac OS X 10_14_2) AppleWebKit/537.36 (KHTML, like Gecko) Chrome/79.0.3945.130 Safari/537.36",106,"[0.9, 0.5, 0.1]","[0.8, 0.4, 0.2]","[u'blue', u'red', u'black']","[u'left', u'middle', u'right']","[0.8, 0.4, 0.2]","[u'high', u'low', u'medium']","blue",49,"left","high","True","False",295,6700,NA
"A15J42M6EC7Y1K","Tue Jan 28 2020 13:25:50 GMT-0500 (Eastern Standard Time)","Tue Jan 28 2020 13:33:46 GMT-0500 (Eastern Standard Time)","Mozilla/5.0 (Macintosh; Intel Mac OS X 10_14_2) AppleWebKit/537.36 (KHTML, like Gecko) Chrome/79.0.3945.130 Safari/537.36",107,"[0.9, 0.5, 0.1]","[0.8, 0.4, 0.2]","[u'blue', u'red', u'black']","[u'left', u'middle', u'right']","[0.8, 0.4, 0.2]","[u'high', u'low', u'medium']","blue",49,"left","high","True","False",243,6800,NA
"A15J42M6EC7Y1K","Tue Jan 28 2020 13:25:50 GMT-0500 (Eastern Standard Time)","Tue Jan 28 2020 13:33:46 GMT-0500 (Eastern Standard Time)","Mozilla/5.0 (Macintosh; Intel Mac OS X 10_14_2) AppleWebKit/537.36 (KHTML, like Gecko) Chrome/79.0.3945.130 Safari/537.36",108,"[0.9, 0.5, 0.1]","[0.8, 0.4, 0.2]","[u'blue', u'red', u'black']","[u'left', u'middle', u'right']","[0.8, 0.4, 0.2]","[u'high', u'low', u'medium']","blue",49,"left","high","True","False",258,6900,NA
"A15J42M6EC7Y1K","Tue Jan 28 2020 13:25:50 GMT-0500 (Eastern Standard Time)","Tue Jan 28 2020 13:33:46 GMT-0500 (Eastern Standard Time)","Mozilla/5.0 (Macintosh; Intel Mac OS X 10_14_2) AppleWebKit/537.36 (KHTML, like Gecko) Chrome/79.0.3945.130 Safari/537.36",109,"[0.9, 0.5, 0.1]","[0.8, 0.4, 0.2]","[u'blue', u'red', u'black']","[u'left', u'middle', u'right']","[0.8, 0.4, 0.2]","[u'high', u'low', u'medium']","blue",49,"left","high","True","False",199,7000,NA
"A15J42M6EC7Y1K","Tue Jan 28 2020 13:25:50 GMT-0500 (Eastern Standard Time)","Tue Jan 28 2020 13:33:46 GMT-0500 (Eastern Standard Time)","Mozilla/5.0 (Macintosh; Intel Mac OS X 10_14_2) AppleWebKit/537.36 (KHTML, like Gecko) Chrome/79.0.3945.130 Safari/537.36",110,"[0.9, 0.5, 0.1]","[0.8, 0.4, 0.2]","[u'blue', u'red', u'black']","[u'left', u'middle', u'right']","[0.8, 0.4, 0.2]","[u'high', u'low', u'medium']","blue",49,"left","high","False","True",329,6950,NA
"A15J42M6EC7Y1K","Tue Jan 28 2020 13:25:50 GMT-0500 (Eastern Standard Time)","Tue Jan 28 2020 13:33:46 GMT-0500 (Eastern Standard Time)","Mozilla/5.0 (Macintosh; Intel Mac OS X 10_14_2) AppleWebKit/537.36 (KHTML, like Gecko) Chrome/79.0.3945.130 Safari/537.36",111,"[0.9, 0.5, 0.1]","[0.8, 0.4, 0.2]","[u'blue', u'red', u'black']","[u'left', u'middle', u'right']","[0.8, 0.4, 0.2]","[u'low', u'medium', u'high']","blue",49,"left","low","False","False",622,6900,NA
"A15J42M6EC7Y1K","Tue Jan 28 2020 13:25:50 GMT-0500 (Eastern Standard Time)","Tue Jan 28 2020 13:33:46 GMT-0500 (Eastern Standard Time)","Mozilla/5.0 (Macintosh; Intel Mac OS X 10_14_2) AppleWebKit/537.36 (KHTML, like Gecko) Chrome/79.0.3945.130 Safari/537.36",112,"[0.9, 0.5, 0.1]","[0.8, 0.4, 0.2]","[u'blue', u'red', u'black']","[u'left', u'middle', u'right']","[0.8, 0.4, 0.2]","[u'low', u'medium', u'high']","black",51,"right","high","True","False",311,7000,NA
"A15J42M6EC7Y1K","Tue Jan 28 2020 13:25:50 GMT-0500 (Eastern Standard Time)","Tue Jan 28 2020 13:33:46 GMT-0500 (Eastern Standard Time)","Mozilla/5.0 (Macintosh; Intel Mac OS X 10_14_2) AppleWebKit/537.36 (KHTML, like Gecko) Chrome/79.0.3945.130 Safari/537.36",113,"[0.9, 0.5, 0.1]","[0.8, 0.4, 0.2]","[u'blue', u'red', u'black']","[u'left', u'middle', u'right']","[0.8, 0.4, 0.2]","[u'low', u'medium', u'high']","black",51,"right","high","True","False",365,7100,NA
"A15J42M6EC7Y1K","Tue Jan 28 2020 13:25:50 GMT-0500 (Eastern Standard Time)","Tue Jan 28 2020 13:33:46 GMT-0500 (Eastern Standard Time)","Mozilla/5.0 (Macintosh; Intel Mac OS X 10_14_2) AppleWebKit/537.36 (KHTML, like Gecko) Chrome/79.0.3945.130 Safari/537.36",114,"[0.9, 0.5, 0.1]","[0.8, 0.4, 0.2]","[u'blue', u'red', u'black']","[u'left', u'middle', u'right']","[0.8, 0.4, 0.2]","[u'low', u'medium', u'high']","black",51,"right","high","False","False",349,7050,NA
"A15J42M6EC7Y1K","Tue Jan 28 2020 13:25:50 GMT-0500 (Eastern Standard Time)","Tue Jan 28 2020 13:33:46 GMT-0500 (Eastern Standard Time)","Mozilla/5.0 (Macintosh; Intel Mac OS X 10_14_2) AppleWebKit/537.36 (KHTML, like Gecko) Chrome/79.0.3945.130 Safari/537.36",115,"[0.9, 0.5, 0.1]","[0.8, 0.4, 0.2]","[u'blue', u'red', u'black']","[u'left', u'middle', u'right']","[0.8, 0.4, 0.2]","[u'low', u'medium', u'high']","red",50,"middle","medium","True","False",620,7150,NA
"A15J42M6EC7Y1K","Tue Jan 28 2020 13:25:50 GMT-0500 (Eastern Standard Time)","Tue Jan 28 2020 13:33:46 GMT-0500 (Eastern Standard Time)","Mozilla/5.0 (Macintosh; Intel Mac OS X 10_14_2) AppleWebKit/537.36 (KHTML, like Gecko) Chrome/79.0.3945.130 Safari/537.36",116,"[0.9, 0.5, 0.1]","[0.8, 0.4, 0.2]","[u'blue', u'red', u'black']","[u'left', u'middle', u'right']","[0.8, 0.4, 0.2]","[u'low', u'medium', u'high']","red",50,"middle","medium","False","False",286,7100,NA
"A15J42M6EC7Y1K","Tue Jan 28 2020 13:25:50 GMT-0500 (Eastern Standard Time)","Tue Jan 28 2020 13:33:46 GMT-0500 (Eastern Standard Time)","Mozilla/5.0 (Macintosh; Intel Mac OS X 10_14_2) AppleWebKit/537.36 (KHTML, like Gecko) Chrome/79.0.3945.130 Safari/537.36",117,"[0.9, 0.5, 0.1]","[0.8, 0.4, 0.2]","[u'blue', u'red', u'black']","[u'left', u'middle', u'right']","[0.8, 0.4, 0.2]","[u'low', u'medium', u'high']","black",51,"right","high","True","False",374,7200,NA
"A15J42M6EC7Y1K","Tue Jan 28 2020 13:25:50 GMT-0500 (Eastern Standard Time)","Tue Jan 28 2020 13:33:46 GMT-0500 (Eastern Standard Time)","Mozilla/5.0 (Macintosh; Intel Mac OS X 10_14_2) AppleWebKit/537.36 (KHTML, like Gecko) Chrome/79.0.3945.130 Safari/537.36",118,"[0.9, 0.5, 0.1]","[0.8, 0.4, 0.2]","[u'blue', u'red', u'black']","[u'left', u'middle', u'right']","[0.8, 0.4, 0.2]","[u'low', u'medium', u'high']","black",51,"right","high","True","False",328,7300,NA
"A15J42M6EC7Y1K","Tue Jan 28 2020 13:25:50 GMT-0500 (Eastern Standard Time)","Tue Jan 28 2020 13:33:46 GMT-0500 (Eastern Standard Time)","Mozilla/5.0 (Macintosh; Intel Mac OS X 10_14_2) AppleWebKit/537.36 (KHTML, like Gecko) Chrome/79.0.3945.130 Safari/537.36",119,"[0.9, 0.5, 0.1]","[0.8, 0.4, 0.2]","[u'blue', u'red', u'black']","[u'left', u'middle', u'right']","[0.8, 0.4, 0.2]","[u'low', u'medium', u'high']","black",51,"right","high","True","False",376,7400,NA
"A15J42M6EC7Y1K","Tue Jan 28 2020 13:25:50 GMT-0500 (Eastern Standard Time)","Tue Jan 28 2020 13:33:46 GMT-0500 (Eastern Standard Time)","Mozilla/5.0 (Macintosh; Intel Mac OS X 10_14_2) AppleWebKit/537.36 (KHTML, like Gecko) Chrome/79.0.3945.130 Safari/537.36",120,"[0.9, 0.5, 0.1]","[0.8, 0.4, 0.2]","[u'blue', u'red', u'black']","[u'left', u'middle', u'right']","[0.8, 0.4, 0.2]","[u'low', u'medium', u'high']","black",51,"right","high","True","False",314,7500,NA
"A15J42M6EC7Y1K","Tue Jan 28 2020 13:25:50 GMT-0500 (Eastern Standard Time)","Tue Jan 28 2020 13:33:46 GMT-0500 (Eastern Standard Time)","Mozilla/5.0 (Macintosh; Intel Mac OS X 10_14_2) AppleWebKit/537.36 (KHTML, like Gecko) Chrome/79.0.3945.130 Safari/537.36",121,"[0.9, 0.5, 0.1]","[0.8, 0.4, 0.2]","[u'blue', u'red', u'black']","[u'left', u'middle', u'right']","[0.8, 0.4, 0.2]","[u'medium', u'high', u'low']","black",51,"right","low","False","False",411,7450,NA
"A15J42M6EC7Y1K","Tue Jan 28 2020 13:25:50 GMT-0500 (Eastern Standard Time)","Tue Jan 28 2020 13:33:46 GMT-0500 (Eastern Standard Time)","Mozilla/5.0 (Macintosh; Intel Mac OS X 10_14_2) AppleWebKit/537.36 (KHTML, like Gecko) Chrome/79.0.3945.130 Safari/537.36",122,"[0.9, 0.5, 0.1]","[0.8, 0.4, 0.2]","[u'blue', u'red', u'black']","[u'left', u'middle', u'right']","[0.8, 0.4, 0.2]","[u'medium', u'high', u'low']","blue",49,"left","medium","False","False",447,7400,NA
"A15J42M6EC7Y1K","Tue Jan 28 2020 13:25:50 GMT-0500 (Eastern Standard Time)","Tue Jan 28 2020 13:33:46 GMT-0500 (Eastern Standard Time)","Mozilla/5.0 (Macintosh; Intel Mac OS X 10_14_2) AppleWebKit/537.36 (KHTML, like Gecko) Chrome/79.0.3945.130 Safari/537.36",123,"[0.9, 0.5, 0.1]","[0.8, 0.4, 0.2]","[u'blue', u'red', u'black']","[u'left', u'middle', u'right']","[0.8, 0.4, 0.2]","[u'medium', u'high', u'low']","red",50,"middle","high","True","False",253,7500,NA
"A15J42M6EC7Y1K","Tue Jan 28 2020 13:25:50 GMT-0500 (Eastern Standard Time)","Tue Jan 28 2020 13:33:46 GMT-0500 (Eastern Standard Time)","Mozilla/5.0 (Macintosh; Intel Mac OS X 10_14_2) AppleWebKit/537.36 (KHTML, like Gecko) Chrome/79.0.3945.130 Safari/537.36",124,"[0.9, 0.5, 0.1]","[0.8, 0.4, 0.2]","[u'blue', u'red', u'black']","[u'left', u'middle', u'right']","[0.8, 0.4, 0.2]","[u'medium', u'high', u'low']","red",50,"middle","high","True","False",390,7600,NA
"A15J42M6EC7Y1K","Tue Jan 28 2020 13:25:50 GMT-0500 (Eastern Standard Time)","Tue Jan 28 2020 13:33:46 GMT-0500 (Eastern Standard Time)","Mozilla/5.0 (Macintosh; Intel Mac OS X 10_14_2) AppleWebKit/537.36 (KHTML, like Gecko) Chrome/79.0.3945.130 Safari/537.36",125,"[0.9, 0.5, 0.1]","[0.8, 0.4, 0.2]","[u'blue', u'red', u'black']","[u'left', u'middle', u'right']","[0.8, 0.4, 0.2]","[u'medium', u'high', u'low']","red",50,"middle","high","True","False",273,7700,NA
"A15J42M6EC7Y1K","Tue Jan 28 2020 13:25:50 GMT-0500 (Eastern Standard Time)","Tue Jan 28 2020 13:33:46 GMT-0500 (Eastern Standard Time)","Mozilla/5.0 (Macintosh; Intel Mac OS X 10_14_2) AppleWebKit/537.36 (KHTML, like Gecko) Chrome/79.0.3945.130 Safari/537.36",126,"[0.9, 0.5, 0.1]","[0.8, 0.4, 0.2]","[u'blue', u'red', u'black']","[u'left', u'middle', u'right']","[0.8, 0.4, 0.2]","[u'medium', u'high', u'low']","red",50,"middle","high","True","False",269,7800,NA
"A15J42M6EC7Y1K","Tue Jan 28 2020 13:25:50 GMT-0500 (Eastern Standard Time)","Tue Jan 28 2020 13:33:46 GMT-0500 (Eastern Standard Time)","Mozilla/5.0 (Macintosh; Intel Mac OS X 10_14_2) AppleWebKit/537.36 (KHTML, like Gecko) Chrome/79.0.3945.130 Safari/537.36",127,"[0.9, 0.5, 0.1]","[0.8, 0.4, 0.2]","[u'blue', u'red', u'black']","[u'left', u'middle', u'right']","[0.8, 0.4, 0.2]","[u'medium', u'high', u'low']","red",50,"middle","high","False","False",305,7750,NA
"A15J42M6EC7Y1K","Tue Jan 28 2020 13:25:50 GMT-0500 (Eastern Standard Time)","Tue Jan 28 2020 13:33:46 GMT-0500 (Eastern Standard Time)","Mozilla/5.0 (Macintosh; Intel Mac OS X 10_14_2) AppleWebKit/537.36 (KHTML, like Gecko) Chrome/79.0.3945.130 Safari/537.36",128,"[0.9, 0.5, 0.1]","[0.8, 0.4, 0.2]","[u'blue', u'red', u'black']","[u'left', u'middle', u'right']","[0.8, 0.4, 0.2]","[u'medium', u'high', u'low']","red",50,"middle","high","False","False",584,7700,NA
"A15J42M6EC7Y1K","Tue Jan 28 2020 13:25:50 GMT-0500 (Eastern Standard Time)","Tue Jan 28 2020 13:33:46 GMT-0500 (Eastern Standard Time)","Mozilla/5.0 (Macintosh; Intel Mac OS X 10_14_2) AppleWebKit/537.36 (KHTML, like Gecko) Chrome/79.0.3945.130 Safari/537.36",129,"[0.9, 0.5, 0.1]","[0.8, 0.4, 0.2]","[u'blue', u'red', u'black']","[u'left', u'middle', u'right']","[0.8, 0.4, 0.2]","[u'medium', u'high', u'low']","black",51,"right","low","False","False",344,7650,NA
"A15J42M6EC7Y1K","Tue Jan 28 2020 13:25:50 GMT-0500 (Eastern Standard Time)","Tue Jan 28 2020 13:33:46 GMT-0500 (Eastern Standard Time)","Mozilla/5.0 (Macintosh; Intel Mac OS X 10_14_2) AppleWebKit/537.36 (KHTML, like Gecko) Chrome/79.0.3945.130 Safari/537.36",130,"[0.9, 0.5, 0.1]","[0.8, 0.4, 0.2]","[u'blue', u'red', u'black']","[u'left', u'middle', u'right']","[0.8, 0.4, 0.2]","[u'medium', u'high', u'low']","blue",49,"left","medium","False","False",258,7600,NA
"A15J42M6EC7Y1K","Tue Jan 28 2020 13:25:50 GMT-0500 (Eastern Standard Time)","Tue Jan 28 2020 13:33:46 GMT-0500 (Eastern Standard Time)","Mozilla/5.0 (Macintosh; Intel Mac OS X 10_14_2) AppleWebKit/537.36 (KHTML, like Gecko) Chrome/79.0.3945.130 Safari/537.36",131,"[0.9, 0.5, 0.1]","[0.8, 0.4, 0.2]","[u'blue', u'red', u'black']","[u'left', u'middle', u'right']","[0.8, 0.4, 0.2]","[u'medium', u'high', u'low']","red",50,"middle","high","False","False",262,7550,NA
"A15J42M6EC7Y1K","Tue Jan 28 2020 13:25:50 GMT-0500 (Eastern Standard Time)","Tue Jan 28 2020 13:33:46 GMT-0500 (Eastern Standard Time)","Mozilla/5.0 (Macintosh; Intel Mac OS X 10_14_2) AppleWebKit/537.36 (KHTML, like Gecko) Chrome/79.0.3945.130 Safari/537.36",132,"[0.9, 0.5, 0.1]","[0.8, 0.4, 0.2]","[u'blue', u'red', u'black']","[u'left', u'middle', u'right']","[0.8, 0.4, 0.2]","[u'medium', u'high', u'low']","black",51,"right","low","False","False",277,7500,NA
"A15J42M6EC7Y1K","Tue Jan 28 2020 13:25:50 GMT-0500 (Eastern Standard Time)","Tue Jan 28 2020 13:33:46 GMT-0500 (Eastern Standard Time)","Mozilla/5.0 (Macintosh; Intel Mac OS X 10_14_2) AppleWebKit/537.36 (KHTML, like Gecko) Chrome/79.0.3945.130 Safari/537.36",133,"[0.9, 0.5, 0.1]","[0.8, 0.4, 0.2]","[u'blue', u'red', u'black']","[u'left', u'middle', u'right']","[0.8, 0.4, 0.2]","[u'medium', u'high', u'low']","blue",49,"left","medium","True","False",319,7600,NA
"A15J42M6EC7Y1K","Tue Jan 28 2020 13:25:50 GMT-0500 (Eastern Standard Time)","Tue Jan 28 2020 13:33:46 GMT-0500 (Eastern Standard Time)","Mozilla/5.0 (Macintosh; Intel Mac OS X 10_14_2) AppleWebKit/537.36 (KHTML, like Gecko) Chrome/79.0.3945.130 Safari/537.36",134,"[0.9, 0.5, 0.1]","[0.8, 0.4, 0.2]","[u'blue', u'red', u'black']","[u'left', u'middle', u'right']","[0.8, 0.4, 0.2]","[u'medium', u'high', u'low']","blue",49,"left","medium","True","False",275,7700,NA
"A15J42M6EC7Y1K","Tue Jan 28 2020 13:25:50 GMT-0500 (Eastern Standard Time)","Tue Jan 28 2020 13:33:46 GMT-0500 (Eastern Standard Time)","Mozilla/5.0 (Macintosh; Intel Mac OS X 10_14_2) AppleWebKit/537.36 (KHTML, like Gecko) Chrome/79.0.3945.130 Safari/537.36",135,"[0.9, 0.5, 0.1]","[0.8, 0.4, 0.2]","[u'blue', u'red', u'black']","[u'left', u'middle', u'right']","[0.8, 0.4, 0.2]","[u'medium', u'high', u'low']","blue",49,"left","medium","True","False",301,7800,NA
"A15J42M6EC7Y1K","Tue Jan 28 2020 13:25:50 GMT-0500 (Eastern Standard Time)","Tue Jan 28 2020 13:33:46 GMT-0500 (Eastern Standard Time)","Mozilla/5.0 (Macintosh; Intel Mac OS X 10_14_2) AppleWebKit/537.36 (KHTML, like Gecko) Chrome/79.0.3945.130 Safari/537.36",136,"[0.9, 0.5, 0.1]","[0.8, 0.4, 0.2]","[u'blue', u'red', u'black']","[u'left', u'middle', u'right']","[0.8, 0.4, 0.2]","[u'medium', u'high', u'low']","blue",49,"left","medium","True","False",272,7900,NA
"A15J42M6EC7Y1K","Tue Jan 28 2020 13:25:50 GMT-0500 (Eastern Standard Time)","Tue Jan 28 2020 13:33:46 GMT-0500 (Eastern Standard Time)","Mozilla/5.0 (Macintosh; Intel Mac OS X 10_14_2) AppleWebKit/537.36 (KHTML, like Gecko) Chrome/79.0.3945.130 Safari/537.36",137,"[0.9, 0.5, 0.1]","[0.8, 0.4, 0.2]","[u'blue', u'red', u'black']","[u'left', u'middle', u'right']","[0.8, 0.4, 0.2]","[u'medium', u'high', u'low']","blue",49,"left","medium","True","False",248,8000,NA
"A15J42M6EC7Y1K","Tue Jan 28 2020 13:25:50 GMT-0500 (Eastern Standard Time)","Tue Jan 28 2020 13:33:46 GMT-0500 (Eastern Standard Time)","Mozilla/5.0 (Macintosh; Intel Mac OS X 10_14_2) AppleWebKit/537.36 (KHTML, like Gecko) Chrome/79.0.3945.130 Safari/537.36",138,"[0.9, 0.5, 0.1]","[0.8, 0.4, 0.2]","[u'blue', u'red', u'black']","[u'left', u'middle', u'right']","[0.8, 0.4, 0.2]","[u'medium', u'high', u'low']","blue",49,"left","medium","True","False",671,8100,NA
"A15J42M6EC7Y1K","Tue Jan 28 2020 13:25:50 GMT-0500 (Eastern Standard Time)","Tue Jan 28 2020 13:33:46 GMT-0500 (Eastern Standard Time)","Mozilla/5.0 (Macintosh; Intel Mac OS X 10_14_2) AppleWebKit/537.36 (KHTML, like Gecko) Chrome/79.0.3945.130 Safari/537.36",139,"[0.9, 0.5, 0.1]","[0.8, 0.4, 0.2]","[u'blue', u'red', u'black']","[u'left', u'middle', u'right']","[0.8, 0.4, 0.2]","[u'medium', u'high', u'low']","blue",49,"left","medium","True","False",340,8200,NA
"A15J42M6EC7Y1K","Tue Jan 28 2020 13:25:50 GMT-0500 (Eastern Standard Time)","Tue Jan 28 2020 13:33:46 GMT-0500 (Eastern Standard Time)","Mozilla/5.0 (Macintosh; Intel Mac OS X 10_14_2) AppleWebKit/537.36 (KHTML, like Gecko) Chrome/79.0.3945.130 Safari/537.36",140,"[0.9, 0.5, 0.1]","[0.8, 0.4, 0.2]","[u'blue', u'red', u'black']","[u'left', u'middle', u'right']","[0.8, 0.4, 0.2]","[u'medium', u'high', u'low']","blue",49,"left","medium","False","False",286,8150,NA
"A15J42M6EC7Y1K","Tue Jan 28 2020 13:25:50 GMT-0500 (Eastern Standard Time)","Tue Jan 28 2020 13:33:46 GMT-0500 (Eastern Standard Time)","Mozilla/5.0 (Macintosh; Intel Mac OS X 10_14_2) AppleWebKit/537.36 (KHTML, like Gecko) Chrome/79.0.3945.130 Safari/537.36",141,"[0.9, 0.5, 0.1]","[0.8, 0.4, 0.2]","[u'blue', u'red', u'black']","[u'left', u'middle', u'right']","[0.8, 0.4, 0.2]","[u'medium', u'high', u'low']","red",50,"middle","high","True","False",463,8250,NA
"A15J42M6EC7Y1K","Tue Jan 28 2020 13:25:50 GMT-0500 (Eastern Standard Time)","Tue Jan 28 2020 13:33:46 GMT-0500 (Eastern Standard Time)","Mozilla/5.0 (Macintosh; Intel Mac OS X 10_14_2) AppleWebKit/537.36 (KHTML, like Gecko) Chrome/79.0.3945.130 Safari/537.36",142,"[0.9, 0.5, 0.1]","[0.8, 0.4, 0.2]","[u'blue', u'red', u'black']","[u'left', u'middle', u'right']","[0.8, 0.4, 0.2]","[u'medium', u'high', u'low']","red",50,"middle","high","True","False",264,8350,NA
"A15J42M6EC7Y1K","Tue Jan 28 2020 13:25:50 GMT-0500 (Eastern Standard Time)","Tue Jan 28 2020 13:33:46 GMT-0500 (Eastern Standard Time)","Mozilla/5.0 (Macintosh; Intel Mac OS X 10_14_2) AppleWebKit/537.36 (KHTML, like Gecko) Chrome/79.0.3945.130 Safari/537.36",143,"[0.9, 0.5, 0.1]","[0.8, 0.4, 0.2]","[u'blue', u'red', u'black']","[u'left', u'middle', u'right']","[0.8, 0.4, 0.2]","[u'medium', u'high', u'low']","red",50,"middle","high","True","False",268,8450,NA
"A15J42M6EC7Y1K","Tue Jan 28 2020 13:25:50 GMT-0500 (Eastern Standard Time)","Tue Jan 28 2020 13:33:46 GMT-0500 (Eastern Standard Time)","Mozilla/5.0 (Macintosh; Intel Mac OS X 10_14_2) AppleWebKit/537.36 (KHTML, like Gecko) Chrome/79.0.3945.130 Safari/537.36",144,"[0.9, 0.5, 0.1]","[0.8, 0.4, 0.2]","[u'blue', u'red', u'black']","[u'left', u'middle', u'right']","[0.8, 0.4, 0.2]","[u'medium', u'high', u'low']","red",50,"middle","high","True","False",387,8550,NA
"A15J42M6EC7Y1K","Tue Jan 28 2020 13:25:50 GMT-0500 (Eastern Standard Time)","Tue Jan 28 2020 13:33:46 GMT-0500 (Eastern Standard Time)","Mozilla/5.0 (Macintosh; Intel Mac OS X 10_14_2) AppleWebKit/537.36 (KHTML, like Gecko) Chrome/79.0.3945.130 Safari/537.36",145,"[0.9, 0.5, 0.1]","[0.8, 0.4, 0.2]","[u'blue', u'red', u'black']","[u'left', u'middle', u'right']","[0.8, 0.4, 0.2]","[u'medium', u'high', u'low']","red",50,"middle","high","True","False",307,8650,NA
"A15J42M6EC7Y1K","Tue Jan 28 2020 13:25:50 GMT-0500 (Eastern Standard Time)","Tue Jan 28 2020 13:33:46 GMT-0500 (Eastern Standard Time)","Mozilla/5.0 (Macintosh; Intel Mac OS X 10_14_2) AppleWebKit/537.36 (KHTML, like Gecko) Chrome/79.0.3945.130 Safari/537.36",146,"[0.9, 0.5, 0.1]","[0.8, 0.4, 0.2]","[u'blue', u'red', u'black']","[u'left', u'middle', u'right']","[0.8, 0.4, 0.2]","[u'medium', u'high', u'low']","red",50,"middle","high","True","False",311,8750,NA
"A15J42M6EC7Y1K","Tue Jan 28 2020 13:25:50 GMT-0500 (Eastern Standard Time)","Tue Jan 28 2020 13:33:46 GMT-0500 (Eastern Standard Time)","Mozilla/5.0 (Macintosh; Intel Mac OS X 10_14_2) AppleWebKit/537.36 (KHTML, like Gecko) Chrome/79.0.3945.130 Safari/537.36",147,"[0.9, 0.5, 0.1]","[0.8, 0.4, 0.2]","[u'blue', u'red', u'black']","[u'left', u'middle', u'right']","[0.8, 0.4, 0.2]","[u'medium', u'high', u'low']","red",50,"middle","high","True","False",234,8850,NA
"A15J42M6EC7Y1K","Tue Jan 28 2020 13:25:50 GMT-0500 (Eastern Standard Time)","Tue Jan 28 2020 13:33:46 GMT-0500 (Eastern Standard Time)","Mozilla/5.0 (Macintosh; Intel Mac OS X 10_14_2) AppleWebKit/537.36 (KHTML, like Gecko) Chrome/79.0.3945.130 Safari/537.36",148,"[0.9, 0.5, 0.1]","[0.8, 0.4, 0.2]","[u'blue', u'red', u'black']","[u'left', u'middle', u'right']","[0.8, 0.4, 0.2]","[u'medium', u'high', u'low']","red",50,"middle","high","False","False",237,8800,NA
"A15J42M6EC7Y1K","Tue Jan 28 2020 13:25:50 GMT-0500 (Eastern Standard Time)","Tue Jan 28 2020 13:33:46 GMT-0500 (Eastern Standard Time)","Mozilla/5.0 (Macintosh; Intel Mac OS X 10_14_2) AppleWebKit/537.36 (KHTML, like Gecko) Chrome/79.0.3945.130 Safari/537.36",149,"[0.9, 0.5, 0.1]","[0.8, 0.4, 0.2]","[u'blue', u'red', u'black']","[u'left', u'middle', u'right']","[0.8, 0.4, 0.2]","[u'medium', u'high', u'low']","blue",49,"left","medium","False","False",325,8750,NA
"A15J42M6EC7Y1K","Tue Jan 28 2020 13:25:50 GMT-0500 (Eastern Standard Time)","Tue Jan 28 2020 13:33:46 GMT-0500 (Eastern Standard Time)","Mozilla/5.0 (Macintosh; Intel Mac OS X 10_14_2) AppleWebKit/537.36 (KHTML, like Gecko) Chrome/79.0.3945.130 Safari/537.36",150,"[0.9, 0.5, 0.1]","[0.8, 0.4, 0.2]","[u'blue', u'red', u'black']","[u'left', u'middle', u'right']","[0.8, 0.4, 0.2]","[u'medium', u'high', u'low']","red",50,"middle","high","True","True",215,8850,NA
"A15J42M6EC7Y1K","Tue Jan 28 2020 13:25:50 GMT-0500 (Eastern Standard Time)","Tue Jan 28 2020 13:33:46 GMT-0500 (Eastern Standard Time)","Mozilla/5.0 (Macintosh; Intel Mac OS X 10_14_2) AppleWebKit/537.36 (KHTML, like Gecko) Chrome/79.0.3945.130 Safari/537.36",151,"[0.9, 0.5, 0.1]","[0.8, 0.4, 0.2]","[u'blue', u'red', u'black']","[u'left', u'middle', u'right']","[0.8, 0.4, 0.2]","[u'high', u'low', u'medium']","red",50,"middle","low","False","False",211,8800,NA
"A15J42M6EC7Y1K","Tue Jan 28 2020 13:25:50 GMT-0500 (Eastern Standard Time)","Tue Jan 28 2020 13:33:46 GMT-0500 (Eastern Standard Time)","Mozilla/5.0 (Macintosh; Intel Mac OS X 10_14_2) AppleWebKit/537.36 (KHTML, like Gecko) Chrome/79.0.3945.130 Safari/537.36",152,"[0.9, 0.5, 0.1]","[0.8, 0.4, 0.2]","[u'blue', u'red', u'black']","[u'left', u'middle', u'right']","[0.8, 0.4, 0.2]","[u'high', u'low', u'medium']","black",51,"right","medium","True","False",267,8900,NA
"A15J42M6EC7Y1K","Tue Jan 28 2020 13:25:50 GMT-0500 (Eastern Standard Time)","Tue Jan 28 2020 13:33:46 GMT-0500 (Eastern Standard Time)","Mozilla/5.0 (Macintosh; Intel Mac OS X 10_14_2) AppleWebKit/537.36 (KHTML, like Gecko) Chrome/79.0.3945.130 Safari/537.36",153,"[0.9, 0.5, 0.1]","[0.8, 0.4, 0.2]","[u'blue', u'red', u'black']","[u'left', u'middle', u'right']","[0.8, 0.4, 0.2]","[u'high', u'low', u'medium']","black",51,"right","medium","False","False",272,8850,NA
"A15J42M6EC7Y1K","Tue Jan 28 2020 13:25:50 GMT-0500 (Eastern Standard Time)","Tue Jan 28 2020 13:33:46 GMT-0500 (Eastern Standard Time)","Mozilla/5.0 (Macintosh; Intel Mac OS X 10_14_2) AppleWebKit/537.36 (KHTML, like Gecko) Chrome/79.0.3945.130 Safari/537.36",154,"[0.9, 0.5, 0.1]","[0.8, 0.4, 0.2]","[u'blue', u'red', u'black']","[u'left', u'middle', u'right']","[0.8, 0.4, 0.2]","[u'high', u'low', u'medium']","red",50,"middle","low","False","False",351,8800,NA
"A15J42M6EC7Y1K","Tue Jan 28 2020 13:25:50 GMT-0500 (Eastern Standard Time)","Tue Jan 28 2020 13:33:46 GMT-0500 (Eastern Standard Time)","Mozilla/5.0 (Macintosh; Intel Mac OS X 10_14_2) AppleWebKit/537.36 (KHTML, like Gecko) Chrome/79.0.3945.130 Safari/537.36",155,"[0.9, 0.5, 0.1]","[0.8, 0.4, 0.2]","[u'blue', u'red', u'black']","[u'left', u'middle', u'right']","[0.8, 0.4, 0.2]","[u'high', u'low', u'medium']","black",51,"right","medium","False","False",271,8750,NA
"A15J42M6EC7Y1K","Tue Jan 28 2020 13:25:50 GMT-0500 (Eastern Standard Time)","Tue Jan 28 2020 13:33:46 GMT-0500 (Eastern Standard Time)","Mozilla/5.0 (Macintosh; Intel Mac OS X 10_14_2) AppleWebKit/537.36 (KHTML, like Gecko) Chrome/79.0.3945.130 Safari/537.36",156,"[0.9, 0.5, 0.1]","[0.8, 0.4, 0.2]","[u'blue', u'red', u'black']","[u'left', u'middle', u'right']","[0.8, 0.4, 0.2]","[u'high', u'low', u'medium']","blue",49,"left","high","True","False",232,8850,NA
"A15J42M6EC7Y1K","Tue Jan 28 2020 13:25:50 GMT-0500 (Eastern Standard Time)","Tue Jan 28 2020 13:33:46 GMT-0500 (Eastern Standard Time)","Mozilla/5.0 (Macintosh; Intel Mac OS X 10_14_2) AppleWebKit/537.36 (KHTML, like Gecko) Chrome/79.0.3945.130 Safari/537.36",157,"[0.9, 0.5, 0.1]","[0.8, 0.4, 0.2]","[u'blue', u'red', u'black']","[u'left', u'middle', u'right']","[0.8, 0.4, 0.2]","[u'high', u'low', u'medium']","blue",49,"left","high","True","False",235,8950,NA
"A15J42M6EC7Y1K","Tue Jan 28 2020 13:25:50 GMT-0500 (Eastern Standard Time)","Tue Jan 28 2020 13:33:46 GMT-0500 (Eastern Standard Time)","Mozilla/5.0 (Macintosh; Intel Mac OS X 10_14_2) AppleWebKit/537.36 (KHTML, like Gecko) Chrome/79.0.3945.130 Safari/537.36",158,"[0.9, 0.5, 0.1]","[0.8, 0.4, 0.2]","[u'blue', u'red', u'black']","[u'left', u'middle', u'right']","[0.8, 0.4, 0.2]","[u'high', u'low', u'medium']","blue",49,"left","high","True","False",318,9050,NA
"A15J42M6EC7Y1K","Tue Jan 28 2020 13:25:50 GMT-0500 (Eastern Standard Time)","Tue Jan 28 2020 13:33:46 GMT-0500 (Eastern Standard Time)","Mozilla/5.0 (Macintosh; Intel Mac OS X 10_14_2) AppleWebKit/537.36 (KHTML, like Gecko) Chrome/79.0.3945.130 Safari/537.36",159,"[0.9, 0.5, 0.1]","[0.8, 0.4, 0.2]","[u'blue', u'red', u'black']","[u'left', u'middle', u'right']","[0.8, 0.4, 0.2]","[u'high', u'low', u'medium']","blue",49,"left","high","True","False",227,9150,NA
"A15J42M6EC7Y1K","Tue Jan 28 2020 13:25:50 GMT-0500 (Eastern Standard Time)","Tue Jan 28 2020 13:33:46 GMT-0500 (Eastern Standard Time)","Mozilla/5.0 (Macintosh; Intel Mac OS X 10_14_2) AppleWebKit/537.36 (KHTML, like Gecko) Chrome/79.0.3945.130 Safari/537.36",160,"[0.9, 0.5, 0.1]","[0.8, 0.4, 0.2]","[u'blue', u'red', u'black']","[u'left', u'middle', u'right']","[0.8, 0.4, 0.2]","[u'high', u'low', u'medium']","blue",49,"left","high","True","False",310,9250,NA
