"src_subject_id","start_time","end_time","browser","index","first_half_probabilities","second_half_probabilities","deck_color","deck_position","deck_probabilities","deck_contingencies","response_color","key_press","response_position","response_probability","reward_type","trial_type","rt","reward_tally","exclusion_reason"
"AMNRYECHXZY34","Sun Sep 20 2020 11:09:46 GMT-0400 (Eastern Daylight Time)","Sun Sep 20 2020 11:16:39 GMT-0400 (Eastern Daylight Time)","Mozilla/5.0 (Windows NT 10.0; Win64; x64; rv:80.0) Gecko/20100101 Firefox/80.0",1,"[0.9, 0.5, 0.1]","[0.8, 0.4, 0.2]","[u'red', u'blue', u'black']","[u'left', u'middle', u'right']","[0.9, 0.5, 0.1]","[u'high', u'low', u'medium']","red",49,"left","high","True","False",1071,100,NA
"AMNRYECHXZY34","Sun Sep 20 2020 11:09:46 GMT-0400 (Eastern Daylight Time)","Sun Sep 20 2020 11:16:39 GMT-0400 (Eastern Daylight Time)","Mozilla/5.0 (Windows NT 10.0; Win64; x64; rv:80.0) Gecko/20100101 Firefox/80.0",2,"[0.9, 0.5, 0.1]","[0.8, 0.4, 0.2]","[u'red', u'blue', u'black']","[u'left', u'middle', u'right']","[0.9, 0.5, 0.1]","[u'high', u'low', u'medium']","red",49,"left","high","False","False",504,50,NA
"AMNRYECHXZY34","Sun Sep 20 2020 11:09:46 GMT-0400 (Eastern Daylight Time)","Sun Sep 20 2020 11:16:39 GMT-0400 (Eastern Daylight Time)","Mozilla/5.0 (Windows NT 10.0; Win64; x64; rv:80.0) Gecko/20100101 Firefox/80.0",3,"[0.9, 0.5, 0.1]","[0.8, 0.4, 0.2]","[u'red', u'blue', u'black']","[u'left', u'middle', u'right']","[0.9, 0.5, 0.1]","[u'high', u'low', u'medium']","red",49,"left","high","True","False",428,150,NA
"AMNRYECHXZY34","Sun Sep 20 2020 11:09:46 GMT-0400 (Eastern Daylight Time)","Sun Sep 20 2020 11:16:39 GMT-0400 (Eastern Daylight Time)","Mozilla/5.0 (Windows NT 10.0; Win64; x64; rv:80.0) Gecko/20100101 Firefox/80.0",4,"[0.9, 0.5, 0.1]","[0.8, 0.4, 0.2]","[u'red', u'blue', u'black']","[u'left', u'middle', u'right']","[0.9, 0.5, 0.1]","[u'high', u'low', u'medium']","red",49,"left","high","True","False",682,250,NA
"AMNRYECHXZY34","Sun Sep 20 2020 11:09:46 GMT-0400 (Eastern Daylight Time)","Sun Sep 20 2020 11:16:39 GMT-0400 (Eastern Daylight Time)","Mozilla/5.0 (Windows NT 10.0; Win64; x64; rv:80.0) Gecko/20100101 Firefox/80.0",5,"[0.9, 0.5, 0.1]","[0.8, 0.4, 0.2]","[u'red', u'blue', u'black']","[u'left', u'middle', u'right']","[0.9, 0.5, 0.1]","[u'high', u'low', u'medium']","red",49,"left","high","True","False",390,350,NA
"AMNRYECHXZY34","Sun Sep 20 2020 11:09:46 GMT-0400 (Eastern Daylight Time)","Sun Sep 20 2020 11:16:39 GMT-0400 (Eastern Daylight Time)","Mozilla/5.0 (Windows NT 10.0; Win64; x64; rv:80.0) Gecko/20100101 Firefox/80.0",6,"[0.9, 0.5, 0.1]","[0.8, 0.4, 0.2]","[u'red', u'blue', u'black']","[u'left', u'middle', u'right']","[0.9, 0.5, 0.1]","[u'high', u'low', u'medium']","red",49,"left","high","True","False",416,450,NA
"AMNRYECHXZY34","Sun Sep 20 2020 11:09:46 GMT-0400 (Eastern Daylight Time)","Sun Sep 20 2020 11:16:39 GMT-0400 (Eastern Daylight Time)","Mozilla/5.0 (Windows NT 10.0; Win64; x64; rv:80.0) Gecko/20100101 Firefox/80.0",7,"[0.9, 0.5, 0.1]","[0.8, 0.4, 0.2]","[u'red', u'blue', u'black']","[u'left', u'middle', u'right']","[0.9, 0.5, 0.1]","[u'high', u'low', u'medium']","red",49,"left","high","True","False",390,550,NA
"AMNRYECHXZY34","Sun Sep 20 2020 11:09:46 GMT-0400 (Eastern Daylight Time)","Sun Sep 20 2020 11:16:39 GMT-0400 (Eastern Daylight Time)","Mozilla/5.0 (Windows NT 10.0; Win64; x64; rv:80.0) Gecko/20100101 Firefox/80.0",8,"[0.9, 0.5, 0.1]","[0.8, 0.4, 0.2]","[u'red', u'blue', u'black']","[u'left', u'middle', u'right']","[0.9, 0.5, 0.1]","[u'high', u'low', u'medium']","red",49,"left","high","True","False",419,650,NA
"AMNRYECHXZY34","Sun Sep 20 2020 11:09:46 GMT-0400 (Eastern Daylight Time)","Sun Sep 20 2020 11:16:39 GMT-0400 (Eastern Daylight Time)","Mozilla/5.0 (Windows NT 10.0; Win64; x64; rv:80.0) Gecko/20100101 Firefox/80.0",9,"[0.9, 0.5, 0.1]","[0.8, 0.4, 0.2]","[u'red', u'blue', u'black']","[u'left', u'middle', u'right']","[0.9, 0.5, 0.1]","[u'high', u'low', u'medium']","red",49,"left","high","False","True",462,600,NA
"AMNRYECHXZY34","Sun Sep 20 2020 11:09:46 GMT-0400 (Eastern Daylight Time)","Sun Sep 20 2020 11:16:39 GMT-0400 (Eastern Daylight Time)","Mozilla/5.0 (Windows NT 10.0; Win64; x64; rv:80.0) Gecko/20100101 Firefox/80.0",10,"[0.9, 0.5, 0.1]","[0.8, 0.4, 0.2]","[u'red', u'blue', u'black']","[u'left', u'middle', u'right']","[0.9, 0.5, 0.1]","[u'medium', u'low', u'high']","red",49,"left","medium","False","False",399,550,NA
"AMNRYECHXZY34","Sun Sep 20 2020 11:09:46 GMT-0400 (Eastern Daylight Time)","Sun Sep 20 2020 11:16:39 GMT-0400 (Eastern Daylight Time)","Mozilla/5.0 (Windows NT 10.0; Win64; x64; rv:80.0) Gecko/20100101 Firefox/80.0",11,"[0.9, 0.5, 0.1]","[0.8, 0.4, 0.2]","[u'red', u'blue', u'black']","[u'left', u'middle', u'right']","[0.9, 0.5, 0.1]","[u'medium', u'low', u'high']","blue",50,"middle","low","False","False",557,500,NA
"AMNRYECHXZY34","Sun Sep 20 2020 11:09:46 GMT-0400 (Eastern Daylight Time)","Sun Sep 20 2020 11:16:39 GMT-0400 (Eastern Daylight Time)","Mozilla/5.0 (Windows NT 10.0; Win64; x64; rv:80.0) Gecko/20100101 Firefox/80.0",12,"[0.9, 0.5, 0.1]","[0.8, 0.4, 0.2]","[u'red', u'blue', u'black']","[u'left', u'middle', u'right']","[0.9, 0.5, 0.1]","[u'medium', u'low', u'high']","black",51,"right","high","True","False",403,600,NA
"AMNRYECHXZY34","Sun Sep 20 2020 11:09:46 GMT-0400 (Eastern Daylight Time)","Sun Sep 20 2020 11:16:39 GMT-0400 (Eastern Daylight Time)","Mozilla/5.0 (Windows NT 10.0; Win64; x64; rv:80.0) Gecko/20100101 Firefox/80.0",13,"[0.9, 0.5, 0.1]","[0.8, 0.4, 0.2]","[u'red', u'blue', u'black']","[u'left', u'middle', u'right']","[0.9, 0.5, 0.1]","[u'medium', u'low', u'high']","black",51,"right","high","True","False",440,700,NA
"AMNRYECHXZY34","Sun Sep 20 2020 11:09:46 GMT-0400 (Eastern Daylight Time)","Sun Sep 20 2020 11:16:39 GMT-0400 (Eastern Daylight Time)","Mozilla/5.0 (Windows NT 10.0; Win64; x64; rv:80.0) Gecko/20100101 Firefox/80.0",14,"[0.9, 0.5, 0.1]","[0.8, 0.4, 0.2]","[u'red', u'blue', u'black']","[u'left', u'middle', u'right']","[0.9, 0.5, 0.1]","[u'medium', u'low', u'high']","black",51,"right","high","False","False",411,650,NA
"AMNRYECHXZY34","Sun Sep 20 2020 11:09:46 GMT-0400 (Eastern Daylight Time)","Sun Sep 20 2020 11:16:39 GMT-0400 (Eastern Daylight Time)","Mozilla/5.0 (Windows NT 10.0; Win64; x64; rv:80.0) Gecko/20100101 Firefox/80.0",15,"[0.9, 0.5, 0.1]","[0.8, 0.4, 0.2]","[u'red', u'blue', u'black']","[u'left', u'middle', u'right']","[0.9, 0.5, 0.1]","[u'medium', u'low', u'high']","black",51,"right","high","True","False",386,750,NA
"AMNRYECHXZY34","Sun Sep 20 2020 11:09:46 GMT-0400 (Eastern Daylight Time)","Sun Sep 20 2020 11:16:39 GMT-0400 (Eastern Daylight Time)","Mozilla/5.0 (Windows NT 10.0; Win64; x64; rv:80.0) Gecko/20100101 Firefox/80.0",16,"[0.9, 0.5, 0.1]","[0.8, 0.4, 0.2]","[u'red', u'blue', u'black']","[u'left', u'middle', u'right']","[0.9, 0.5, 0.1]","[u'medium', u'low', u'high']","black",51,"right","high","True","False",401,850,NA
"AMNRYECHXZY34","Sun Sep 20 2020 11:09:46 GMT-0400 (Eastern Daylight Time)","Sun Sep 20 2020 11:16:39 GMT-0400 (Eastern Daylight Time)","Mozilla/5.0 (Windows NT 10.0; Win64; x64; rv:80.0) Gecko/20100101 Firefox/80.0",17,"[0.9, 0.5, 0.1]","[0.8, 0.4, 0.2]","[u'red', u'blue', u'black']","[u'left', u'middle', u'right']","[0.9, 0.5, 0.1]","[u'medium', u'low', u'high']","black",51,"right","high","False","False",468,800,NA
"AMNRYECHXZY34","Sun Sep 20 2020 11:09:46 GMT-0400 (Eastern Daylight Time)","Sun Sep 20 2020 11:16:39 GMT-0400 (Eastern Daylight Time)","Mozilla/5.0 (Windows NT 10.0; Win64; x64; rv:80.0) Gecko/20100101 Firefox/80.0",18,"[0.9, 0.5, 0.1]","[0.8, 0.4, 0.2]","[u'red', u'blue', u'black']","[u'left', u'middle', u'right']","[0.9, 0.5, 0.1]","[u'medium', u'low', u'high']","black",51,"right","high","True","False",401,900,NA
"AMNRYECHXZY34","Sun Sep 20 2020 11:09:46 GMT-0400 (Eastern Daylight Time)","Sun Sep 20 2020 11:16:39 GMT-0400 (Eastern Daylight Time)","Mozilla/5.0 (Windows NT 10.0; Win64; x64; rv:80.0) Gecko/20100101 Firefox/80.0",19,"[0.9, 0.5, 0.1]","[0.8, 0.4, 0.2]","[u'red', u'blue', u'black']","[u'left', u'middle', u'right']","[0.9, 0.5, 0.1]","[u'medium', u'low', u'high']","black",51,"right","high","True","False",358,1000,NA
"AMNRYECHXZY34","Sun Sep 20 2020 11:09:46 GMT-0400 (Eastern Daylight Time)","Sun Sep 20 2020 11:16:39 GMT-0400 (Eastern Daylight Time)","Mozilla/5.0 (Windows NT 10.0; Win64; x64; rv:80.0) Gecko/20100101 Firefox/80.0",20,"[0.9, 0.5, 0.1]","[0.8, 0.4, 0.2]","[u'red', u'blue', u'black']","[u'left', u'middle', u'right']","[0.9, 0.5, 0.1]","[u'medium', u'low', u'high']","black",51,"right","high","True","True",350,1100,NA
"AMNRYECHXZY34","Sun Sep 20 2020 11:09:46 GMT-0400 (Eastern Daylight Time)","Sun Sep 20 2020 11:16:39 GMT-0400 (Eastern Daylight Time)","Mozilla/5.0 (Windows NT 10.0; Win64; x64; rv:80.0) Gecko/20100101 Firefox/80.0",21,"[0.9, 0.5, 0.1]","[0.8, 0.4, 0.2]","[u'red', u'blue', u'black']","[u'left', u'middle', u'right']","[0.9, 0.5, 0.1]","[u'high', u'medium', u'low']","black",51,"right","low","False","False",390,1050,NA
"AMNRYECHXZY34","Sun Sep 20 2020 11:09:46 GMT-0400 (Eastern Daylight Time)","Sun Sep 20 2020 11:16:39 GMT-0400 (Eastern Daylight Time)","Mozilla/5.0 (Windows NT 10.0; Win64; x64; rv:80.0) Gecko/20100101 Firefox/80.0",22,"[0.9, 0.5, 0.1]","[0.8, 0.4, 0.2]","[u'red', u'blue', u'black']","[u'left', u'middle', u'right']","[0.9, 0.5, 0.1]","[u'high', u'medium', u'low']","black",51,"right","low","False","False",360,1000,NA
"AMNRYECHXZY34","Sun Sep 20 2020 11:09:46 GMT-0400 (Eastern Daylight Time)","Sun Sep 20 2020 11:16:39 GMT-0400 (Eastern Daylight Time)","Mozilla/5.0 (Windows NT 10.0; Win64; x64; rv:80.0) Gecko/20100101 Firefox/80.0",23,"[0.9, 0.5, 0.1]","[0.8, 0.4, 0.2]","[u'red', u'blue', u'black']","[u'left', u'middle', u'right']","[0.9, 0.5, 0.1]","[u'high', u'medium', u'low']","black",51,"right","low","False","False",394,950,NA
"AMNRYECHXZY34","Sun Sep 20 2020 11:09:46 GMT-0400 (Eastern Daylight Time)","Sun Sep 20 2020 11:16:39 GMT-0400 (Eastern Daylight Time)","Mozilla/5.0 (Windows NT 10.0; Win64; x64; rv:80.0) Gecko/20100101 Firefox/80.0",24,"[0.9, 0.5, 0.1]","[0.8, 0.4, 0.2]","[u'red', u'blue', u'black']","[u'left', u'middle', u'right']","[0.9, 0.5, 0.1]","[u'high', u'medium', u'low']","red",49,"left","high","True","False",379,1050,NA
"AMNRYECHXZY34","Sun Sep 20 2020 11:09:46 GMT-0400 (Eastern Daylight Time)","Sun Sep 20 2020 11:16:39 GMT-0400 (Eastern Daylight Time)","Mozilla/5.0 (Windows NT 10.0; Win64; x64; rv:80.0) Gecko/20100101 Firefox/80.0",25,"[0.9, 0.5, 0.1]","[0.8, 0.4, 0.2]","[u'red', u'blue', u'black']","[u'left', u'middle', u'right']","[0.9, 0.5, 0.1]","[u'high', u'medium', u'low']","red",49,"left","high","True","False",594,1150,NA
"AMNRYECHXZY34","Sun Sep 20 2020 11:09:46 GMT-0400 (Eastern Daylight Time)","Sun Sep 20 2020 11:16:39 GMT-0400 (Eastern Daylight Time)","Mozilla/5.0 (Windows NT 10.0; Win64; x64; rv:80.0) Gecko/20100101 Firefox/80.0",26,"[0.9, 0.5, 0.1]","[0.8, 0.4, 0.2]","[u'red', u'blue', u'black']","[u'left', u'middle', u'right']","[0.9, 0.5, 0.1]","[u'high', u'medium', u'low']","red",49,"left","high","True","False",374,1250,NA
"AMNRYECHXZY34","Sun Sep 20 2020 11:09:46 GMT-0400 (Eastern Daylight Time)","Sun Sep 20 2020 11:16:39 GMT-0400 (Eastern Daylight Time)","Mozilla/5.0 (Windows NT 10.0; Win64; x64; rv:80.0) Gecko/20100101 Firefox/80.0",27,"[0.9, 0.5, 0.1]","[0.8, 0.4, 0.2]","[u'red', u'blue', u'black']","[u'left', u'middle', u'right']","[0.9, 0.5, 0.1]","[u'high', u'medium', u'low']","red",49,"left","high","True","False",455,1350,NA
"AMNRYECHXZY34","Sun Sep 20 2020 11:09:46 GMT-0400 (Eastern Daylight Time)","Sun Sep 20 2020 11:16:39 GMT-0400 (Eastern Daylight Time)","Mozilla/5.0 (Windows NT 10.0; Win64; x64; rv:80.0) Gecko/20100101 Firefox/80.0",28,"[0.9, 0.5, 0.1]","[0.8, 0.4, 0.2]","[u'red', u'blue', u'black']","[u'left', u'middle', u'right']","[0.9, 0.5, 0.1]","[u'high', u'medium', u'low']","red",49,"left","high","False","False",659,1300,NA
"AMNRYECHXZY34","Sun Sep 20 2020 11:09:46 GMT-0400 (Eastern Daylight Time)","Sun Sep 20 2020 11:16:39 GMT-0400 (Eastern Daylight Time)","Mozilla/5.0 (Windows NT 10.0; Win64; x64; rv:80.0) Gecko/20100101 Firefox/80.0",29,"[0.9, 0.5, 0.1]","[0.8, 0.4, 0.2]","[u'red', u'blue', u'black']","[u'left', u'middle', u'right']","[0.9, 0.5, 0.1]","[u'high', u'medium', u'low']","red",49,"left","high","True","False",390,1400,NA
"AMNRYECHXZY34","Sun Sep 20 2020 11:09:46 GMT-0400 (Eastern Daylight Time)","Sun Sep 20 2020 11:16:39 GMT-0400 (Eastern Daylight Time)","Mozilla/5.0 (Windows NT 10.0; Win64; x64; rv:80.0) Gecko/20100101 Firefox/80.0",30,"[0.9, 0.5, 0.1]","[0.8, 0.4, 0.2]","[u'red', u'blue', u'black']","[u'left', u'middle', u'right']","[0.9, 0.5, 0.1]","[u'high', u'medium', u'low']","red",49,"left","high","True","False",458,1500,NA
"AMNRYECHXZY34","Sun Sep 20 2020 11:09:46 GMT-0400 (Eastern Daylight Time)","Sun Sep 20 2020 11:16:39 GMT-0400 (Eastern Daylight Time)","Mozilla/5.0 (Windows NT 10.0; Win64; x64; rv:80.0) Gecko/20100101 Firefox/80.0",31,"[0.9, 0.5, 0.1]","[0.8, 0.4, 0.2]","[u'red', u'blue', u'black']","[u'left', u'middle', u'right']","[0.9, 0.5, 0.1]","[u'high', u'medium', u'low']","red",49,"left","high","True","False",459,1600,NA
"AMNRYECHXZY34","Sun Sep 20 2020 11:09:46 GMT-0400 (Eastern Daylight Time)","Sun Sep 20 2020 11:16:39 GMT-0400 (Eastern Daylight Time)","Mozilla/5.0 (Windows NT 10.0; Win64; x64; rv:80.0) Gecko/20100101 Firefox/80.0",32,"[0.9, 0.5, 0.1]","[0.8, 0.4, 0.2]","[u'red', u'blue', u'black']","[u'left', u'middle', u'right']","[0.9, 0.5, 0.1]","[u'high', u'medium', u'low']","red",49,"left","high","True","True",401,1700,NA
"AMNRYECHXZY34","Sun Sep 20 2020 11:09:46 GMT-0400 (Eastern Daylight Time)","Sun Sep 20 2020 11:16:39 GMT-0400 (Eastern Daylight Time)","Mozilla/5.0 (Windows NT 10.0; Win64; x64; rv:80.0) Gecko/20100101 Firefox/80.0",33,"[0.9, 0.5, 0.1]","[0.8, 0.4, 0.2]","[u'red', u'blue', u'black']","[u'left', u'middle', u'right']","[0.9, 0.5, 0.1]","[u'medium', u'high', u'low']","red",49,"left","medium","False","False",377,1650,NA
"AMNRYECHXZY34","Sun Sep 20 2020 11:09:46 GMT-0400 (Eastern Daylight Time)","Sun Sep 20 2020 11:16:39 GMT-0400 (Eastern Daylight Time)","Mozilla/5.0 (Windows NT 10.0; Win64; x64; rv:80.0) Gecko/20100101 Firefox/80.0",34,"[0.9, 0.5, 0.1]","[0.8, 0.4, 0.2]","[u'red', u'blue', u'black']","[u'left', u'middle', u'right']","[0.9, 0.5, 0.1]","[u'medium', u'high', u'low']","blue",50,"middle","high","True","False",343,1750,NA
"AMNRYECHXZY34","Sun Sep 20 2020 11:09:46 GMT-0400 (Eastern Daylight Time)","Sun Sep 20 2020 11:16:39 GMT-0400 (Eastern Daylight Time)","Mozilla/5.0 (Windows NT 10.0; Win64; x64; rv:80.0) Gecko/20100101 Firefox/80.0",35,"[0.9, 0.5, 0.1]","[0.8, 0.4, 0.2]","[u'red', u'blue', u'black']","[u'left', u'middle', u'right']","[0.9, 0.5, 0.1]","[u'medium', u'high', u'low']","blue",50,"middle","high","True","False",352,1850,NA
"AMNRYECHXZY34","Sun Sep 20 2020 11:09:46 GMT-0400 (Eastern Daylight Time)","Sun Sep 20 2020 11:16:39 GMT-0400 (Eastern Daylight Time)","Mozilla/5.0 (Windows NT 10.0; Win64; x64; rv:80.0) Gecko/20100101 Firefox/80.0",36,"[0.9, 0.5, 0.1]","[0.8, 0.4, 0.2]","[u'red', u'blue', u'black']","[u'left', u'middle', u'right']","[0.9, 0.5, 0.1]","[u'medium', u'high', u'low']","blue",50,"middle","high","True","False",290,1950,NA
"AMNRYECHXZY34","Sun Sep 20 2020 11:09:46 GMT-0400 (Eastern Daylight Time)","Sun Sep 20 2020 11:16:39 GMT-0400 (Eastern Daylight Time)","Mozilla/5.0 (Windows NT 10.0; Win64; x64; rv:80.0) Gecko/20100101 Firefox/80.0",37,"[0.9, 0.5, 0.1]","[0.8, 0.4, 0.2]","[u'red', u'blue', u'black']","[u'left', u'middle', u'right']","[0.9, 0.5, 0.1]","[u'medium', u'high', u'low']","blue",50,"middle","high","True","False",328,2050,NA
"AMNRYECHXZY34","Sun Sep 20 2020 11:09:46 GMT-0400 (Eastern Daylight Time)","Sun Sep 20 2020 11:16:39 GMT-0400 (Eastern Daylight Time)","Mozilla/5.0 (Windows NT 10.0; Win64; x64; rv:80.0) Gecko/20100101 Firefox/80.0",38,"[0.9, 0.5, 0.1]","[0.8, 0.4, 0.2]","[u'red', u'blue', u'black']","[u'left', u'middle', u'right']","[0.9, 0.5, 0.1]","[u'medium', u'high', u'low']","blue",50,"middle","high","True","False",417,2150,NA
"AMNRYECHXZY34","Sun Sep 20 2020 11:09:46 GMT-0400 (Eastern Daylight Time)","Sun Sep 20 2020 11:16:39 GMT-0400 (Eastern Daylight Time)","Mozilla/5.0 (Windows NT 10.0; Win64; x64; rv:80.0) Gecko/20100101 Firefox/80.0",39,"[0.9, 0.5, 0.1]","[0.8, 0.4, 0.2]","[u'red', u'blue', u'black']","[u'left', u'middle', u'right']","[0.9, 0.5, 0.1]","[u'medium', u'high', u'low']","blue",50,"middle","high","True","False",352,2250,NA
"AMNRYECHXZY34","Sun Sep 20 2020 11:09:46 GMT-0400 (Eastern Daylight Time)","Sun Sep 20 2020 11:16:39 GMT-0400 (Eastern Daylight Time)","Mozilla/5.0 (Windows NT 10.0; Win64; x64; rv:80.0) Gecko/20100101 Firefox/80.0",40,"[0.9, 0.5, 0.1]","[0.8, 0.4, 0.2]","[u'red', u'blue', u'black']","[u'left', u'middle', u'right']","[0.9, 0.5, 0.1]","[u'medium', u'high', u'low']","blue",50,"middle","high","True","False",383,2350,NA
"AMNRYECHXZY34","Sun Sep 20 2020 11:09:46 GMT-0400 (Eastern Daylight Time)","Sun Sep 20 2020 11:16:39 GMT-0400 (Eastern Daylight Time)","Mozilla/5.0 (Windows NT 10.0; Win64; x64; rv:80.0) Gecko/20100101 Firefox/80.0",41,"[0.9, 0.5, 0.1]","[0.8, 0.4, 0.2]","[u'red', u'blue', u'black']","[u'left', u'middle', u'right']","[0.9, 0.5, 0.1]","[u'low', u'medium', u'high']","blue",50,"middle","medium","True","False",417,2450,NA
"AMNRYECHXZY34","Sun Sep 20 2020 11:09:46 GMT-0400 (Eastern Daylight Time)","Sun Sep 20 2020 11:16:39 GMT-0400 (Eastern Daylight Time)","Mozilla/5.0 (Windows NT 10.0; Win64; x64; rv:80.0) Gecko/20100101 Firefox/80.0",42,"[0.9, 0.5, 0.1]","[0.8, 0.4, 0.2]","[u'red', u'blue', u'black']","[u'left', u'middle', u'right']","[0.9, 0.5, 0.1]","[u'low', u'medium', u'high']","blue",50,"middle","medium","False","False",371,2400,NA
"AMNRYECHXZY34","Sun Sep 20 2020 11:09:46 GMT-0400 (Eastern Daylight Time)","Sun Sep 20 2020 11:16:39 GMT-0400 (Eastern Daylight Time)","Mozilla/5.0 (Windows NT 10.0; Win64; x64; rv:80.0) Gecko/20100101 Firefox/80.0",43,"[0.9, 0.5, 0.1]","[0.8, 0.4, 0.2]","[u'red', u'blue', u'black']","[u'left', u'middle', u'right']","[0.9, 0.5, 0.1]","[u'low', u'medium', u'high']","black",51,"right","high","True","False",340,2500,NA
"AMNRYECHXZY34","Sun Sep 20 2020 11:09:46 GMT-0400 (Eastern Daylight Time)","Sun Sep 20 2020 11:16:39 GMT-0400 (Eastern Daylight Time)","Mozilla/5.0 (Windows NT 10.0; Win64; x64; rv:80.0) Gecko/20100101 Firefox/80.0",44,"[0.9, 0.5, 0.1]","[0.8, 0.4, 0.2]","[u'red', u'blue', u'black']","[u'left', u'middle', u'right']","[0.9, 0.5, 0.1]","[u'low', u'medium', u'high']","black",51,"right","high","True","False",372,2600,NA
"AMNRYECHXZY34","Sun Sep 20 2020 11:09:46 GMT-0400 (Eastern Daylight Time)","Sun Sep 20 2020 11:16:39 GMT-0400 (Eastern Daylight Time)","Mozilla/5.0 (Windows NT 10.0; Win64; x64; rv:80.0) Gecko/20100101 Firefox/80.0",45,"[0.9, 0.5, 0.1]","[0.8, 0.4, 0.2]","[u'red', u'blue', u'black']","[u'left', u'middle', u'right']","[0.9, 0.5, 0.1]","[u'low', u'medium', u'high']","black",51,"right","high","True","False",521,2700,NA
"AMNRYECHXZY34","Sun Sep 20 2020 11:09:46 GMT-0400 (Eastern Daylight Time)","Sun Sep 20 2020 11:16:39 GMT-0400 (Eastern Daylight Time)","Mozilla/5.0 (Windows NT 10.0; Win64; x64; rv:80.0) Gecko/20100101 Firefox/80.0",46,"[0.9, 0.5, 0.1]","[0.8, 0.4, 0.2]","[u'red', u'blue', u'black']","[u'left', u'middle', u'right']","[0.9, 0.5, 0.1]","[u'low', u'medium', u'high']","black",51,"right","high","True","False",388,2800,NA
"AMNRYECHXZY34","Sun Sep 20 2020 11:09:46 GMT-0400 (Eastern Daylight Time)","Sun Sep 20 2020 11:16:39 GMT-0400 (Eastern Daylight Time)","Mozilla/5.0 (Windows NT 10.0; Win64; x64; rv:80.0) Gecko/20100101 Firefox/80.0",47,"[0.9, 0.5, 0.1]","[0.8, 0.4, 0.2]","[u'red', u'blue', u'black']","[u'left', u'middle', u'right']","[0.9, 0.5, 0.1]","[u'low', u'medium', u'high']","black",51,"right","high","True","False",408,2900,NA
"AMNRYECHXZY34","Sun Sep 20 2020 11:09:46 GMT-0400 (Eastern Daylight Time)","Sun Sep 20 2020 11:16:39 GMT-0400 (Eastern Daylight Time)","Mozilla/5.0 (Windows NT 10.0; Win64; x64; rv:80.0) Gecko/20100101 Firefox/80.0",48,"[0.9, 0.5, 0.1]","[0.8, 0.4, 0.2]","[u'red', u'blue', u'black']","[u'left', u'middle', u'right']","[0.9, 0.5, 0.1]","[u'low', u'medium', u'high']","black",51,"right","high","True","False",498,3000,NA
"AMNRYECHXZY34","Sun Sep 20 2020 11:09:46 GMT-0400 (Eastern Daylight Time)","Sun Sep 20 2020 11:16:39 GMT-0400 (Eastern Daylight Time)","Mozilla/5.0 (Windows NT 10.0; Win64; x64; rv:80.0) Gecko/20100101 Firefox/80.0",49,"[0.9, 0.5, 0.1]","[0.8, 0.4, 0.2]","[u'red', u'blue', u'black']","[u'left', u'middle', u'right']","[0.9, 0.5, 0.1]","[u'low', u'medium', u'high']","black",51,"right","high","True","False",397,3100,NA
"AMNRYECHXZY34","Sun Sep 20 2020 11:09:46 GMT-0400 (Eastern Daylight Time)","Sun Sep 20 2020 11:16:39 GMT-0400 (Eastern Daylight Time)","Mozilla/5.0 (Windows NT 10.0; Win64; x64; rv:80.0) Gecko/20100101 Firefox/80.0",50,"[0.9, 0.5, 0.1]","[0.8, 0.4, 0.2]","[u'red', u'blue', u'black']","[u'left', u'middle', u'right']","[0.9, 0.5, 0.1]","[u'low', u'medium', u'high']","black",51,"right","high","False","False",344,3050,NA
"AMNRYECHXZY34","Sun Sep 20 2020 11:09:46 GMT-0400 (Eastern Daylight Time)","Sun Sep 20 2020 11:16:39 GMT-0400 (Eastern Daylight Time)","Mozilla/5.0 (Windows NT 10.0; Win64; x64; rv:80.0) Gecko/20100101 Firefox/80.0",51,"[0.9, 0.5, 0.1]","[0.8, 0.4, 0.2]","[u'red', u'blue', u'black']","[u'left', u'middle', u'right']","[0.9, 0.5, 0.1]","[u'low', u'medium', u'high']","red",49,"left","low","False","False",456,3000,NA
"AMNRYECHXZY34","Sun Sep 20 2020 11:09:46 GMT-0400 (Eastern Daylight Time)","Sun Sep 20 2020 11:16:39 GMT-0400 (Eastern Daylight Time)","Mozilla/5.0 (Windows NT 10.0; Win64; x64; rv:80.0) Gecko/20100101 Firefox/80.0",52,"[0.9, 0.5, 0.1]","[0.8, 0.4, 0.2]","[u'red', u'blue', u'black']","[u'left', u'middle', u'right']","[0.9, 0.5, 0.1]","[u'low', u'medium', u'high']","red",49,"left","low","False","False",428,2950,NA
"AMNRYECHXZY34","Sun Sep 20 2020 11:09:46 GMT-0400 (Eastern Daylight Time)","Sun Sep 20 2020 11:16:39 GMT-0400 (Eastern Daylight Time)","Mozilla/5.0 (Windows NT 10.0; Win64; x64; rv:80.0) Gecko/20100101 Firefox/80.0",53,"[0.9, 0.5, 0.1]","[0.8, 0.4, 0.2]","[u'red', u'blue', u'black']","[u'left', u'middle', u'right']","[0.9, 0.5, 0.1]","[u'low', u'medium', u'high']","blue",50,"middle","medium","True","False",321,3050,NA
"AMNRYECHXZY34","Sun Sep 20 2020 11:09:46 GMT-0400 (Eastern Daylight Time)","Sun Sep 20 2020 11:16:39 GMT-0400 (Eastern Daylight Time)","Mozilla/5.0 (Windows NT 10.0; Win64; x64; rv:80.0) Gecko/20100101 Firefox/80.0",54,"[0.9, 0.5, 0.1]","[0.8, 0.4, 0.2]","[u'red', u'blue', u'black']","[u'left', u'middle', u'right']","[0.9, 0.5, 0.1]","[u'low', u'medium', u'high']","blue",50,"middle","medium","False","False",312,3000,NA
"AMNRYECHXZY34","Sun Sep 20 2020 11:09:46 GMT-0400 (Eastern Daylight Time)","Sun Sep 20 2020 11:16:39 GMT-0400 (Eastern Daylight Time)","Mozilla/5.0 (Windows NT 10.0; Win64; x64; rv:80.0) Gecko/20100101 Firefox/80.0",55,"[0.9, 0.5, 0.1]","[0.8, 0.4, 0.2]","[u'red', u'blue', u'black']","[u'left', u'middle', u'right']","[0.9, 0.5, 0.1]","[u'low', u'medium', u'high']","black",51,"right","high","False","False",340,2950,NA
"AMNRYECHXZY34","Sun Sep 20 2020 11:09:46 GMT-0400 (Eastern Daylight Time)","Sun Sep 20 2020 11:16:39 GMT-0400 (Eastern Daylight Time)","Mozilla/5.0 (Windows NT 10.0; Win64; x64; rv:80.0) Gecko/20100101 Firefox/80.0",56,"[0.9, 0.5, 0.1]","[0.8, 0.4, 0.2]","[u'red', u'blue', u'black']","[u'left', u'middle', u'right']","[0.9, 0.5, 0.1]","[u'low', u'medium', u'high']","red",49,"left","low","False","False",320,2900,NA
"AMNRYECHXZY34","Sun Sep 20 2020 11:09:46 GMT-0400 (Eastern Daylight Time)","Sun Sep 20 2020 11:16:39 GMT-0400 (Eastern Daylight Time)","Mozilla/5.0 (Windows NT 10.0; Win64; x64; rv:80.0) Gecko/20100101 Firefox/80.0",57,"[0.9, 0.5, 0.1]","[0.8, 0.4, 0.2]","[u'red', u'blue', u'black']","[u'left', u'middle', u'right']","[0.9, 0.5, 0.1]","[u'low', u'medium', u'high']","red",49,"left","low","False","False",299,2850,NA
"AMNRYECHXZY34","Sun Sep 20 2020 11:09:46 GMT-0400 (Eastern Daylight Time)","Sun Sep 20 2020 11:16:39 GMT-0400 (Eastern Daylight Time)","Mozilla/5.0 (Windows NT 10.0; Win64; x64; rv:80.0) Gecko/20100101 Firefox/80.0",58,"[0.9, 0.5, 0.1]","[0.8, 0.4, 0.2]","[u'red', u'blue', u'black']","[u'left', u'middle', u'right']","[0.9, 0.5, 0.1]","[u'low', u'medium', u'high']","blue",50,"middle","medium","False","False",262,2800,NA
"AMNRYECHXZY34","Sun Sep 20 2020 11:09:46 GMT-0400 (Eastern Daylight Time)","Sun Sep 20 2020 11:16:39 GMT-0400 (Eastern Daylight Time)","Mozilla/5.0 (Windows NT 10.0; Win64; x64; rv:80.0) Gecko/20100101 Firefox/80.0",59,"[0.9, 0.5, 0.1]","[0.8, 0.4, 0.2]","[u'red', u'blue', u'black']","[u'left', u'middle', u'right']","[0.9, 0.5, 0.1]","[u'low', u'medium', u'high']","black",51,"right","high","True","False",308,2900,NA
"AMNRYECHXZY34","Sun Sep 20 2020 11:09:46 GMT-0400 (Eastern Daylight Time)","Sun Sep 20 2020 11:16:39 GMT-0400 (Eastern Daylight Time)","Mozilla/5.0 (Windows NT 10.0; Win64; x64; rv:80.0) Gecko/20100101 Firefox/80.0",60,"[0.9, 0.5, 0.1]","[0.8, 0.4, 0.2]","[u'red', u'blue', u'black']","[u'left', u'middle', u'right']","[0.9, 0.5, 0.1]","[u'low', u'medium', u'high']","black",51,"right","high","True","False",303,3000,NA
"AMNRYECHXZY34","Sun Sep 20 2020 11:09:46 GMT-0400 (Eastern Daylight Time)","Sun Sep 20 2020 11:16:39 GMT-0400 (Eastern Daylight Time)","Mozilla/5.0 (Windows NT 10.0; Win64; x64; rv:80.0) Gecko/20100101 Firefox/80.0",61,"[0.9, 0.5, 0.1]","[0.8, 0.4, 0.2]","[u'red', u'blue', u'black']","[u'left', u'middle', u'right']","[0.9, 0.5, 0.1]","[u'low', u'medium', u'high']","black",51,"right","high","True","False",432,3100,NA
"AMNRYECHXZY34","Sun Sep 20 2020 11:09:46 GMT-0400 (Eastern Daylight Time)","Sun Sep 20 2020 11:16:39 GMT-0400 (Eastern Daylight Time)","Mozilla/5.0 (Windows NT 10.0; Win64; x64; rv:80.0) Gecko/20100101 Firefox/80.0",62,"[0.9, 0.5, 0.1]","[0.8, 0.4, 0.2]","[u'red', u'blue', u'black']","[u'left', u'middle', u'right']","[0.9, 0.5, 0.1]","[u'low', u'medium', u'high']","black",51,"right","high","True","False",320,3200,NA
"AMNRYECHXZY34","Sun Sep 20 2020 11:09:46 GMT-0400 (Eastern Daylight Time)","Sun Sep 20 2020 11:16:39 GMT-0400 (Eastern Daylight Time)","Mozilla/5.0 (Windows NT 10.0; Win64; x64; rv:80.0) Gecko/20100101 Firefox/80.0",63,"[0.9, 0.5, 0.1]","[0.8, 0.4, 0.2]","[u'red', u'blue', u'black']","[u'left', u'middle', u'right']","[0.9, 0.5, 0.1]","[u'low', u'medium', u'high']","black",51,"right","high","True","False",346,3300,NA
"AMNRYECHXZY34","Sun Sep 20 2020 11:09:46 GMT-0400 (Eastern Daylight Time)","Sun Sep 20 2020 11:16:39 GMT-0400 (Eastern Daylight Time)","Mozilla/5.0 (Windows NT 10.0; Win64; x64; rv:80.0) Gecko/20100101 Firefox/80.0",64,"[0.9, 0.5, 0.1]","[0.8, 0.4, 0.2]","[u'red', u'blue', u'black']","[u'left', u'middle', u'right']","[0.9, 0.5, 0.1]","[u'low', u'medium', u'high']","black",51,"right","high","True","False",380,3400,NA
"AMNRYECHXZY34","Sun Sep 20 2020 11:09:46 GMT-0400 (Eastern Daylight Time)","Sun Sep 20 2020 11:16:39 GMT-0400 (Eastern Daylight Time)","Mozilla/5.0 (Windows NT 10.0; Win64; x64; rv:80.0) Gecko/20100101 Firefox/80.0",65,"[0.9, 0.5, 0.1]","[0.8, 0.4, 0.2]","[u'red', u'blue', u'black']","[u'left', u'middle', u'right']","[0.9, 0.5, 0.1]","[u'low', u'medium', u'high']","black",51,"right","high","True","False",331,3500,NA
"AMNRYECHXZY34","Sun Sep 20 2020 11:09:46 GMT-0400 (Eastern Daylight Time)","Sun Sep 20 2020 11:16:39 GMT-0400 (Eastern Daylight Time)","Mozilla/5.0 (Windows NT 10.0; Win64; x64; rv:80.0) Gecko/20100101 Firefox/80.0",66,"[0.9, 0.5, 0.1]","[0.8, 0.4, 0.2]","[u'red', u'blue', u'black']","[u'left', u'middle', u'right']","[0.9, 0.5, 0.1]","[u'low', u'medium', u'high']","black",51,"right","high","False","False",315,3450,NA
"AMNRYECHXZY34","Sun Sep 20 2020 11:09:46 GMT-0400 (Eastern Daylight Time)","Sun Sep 20 2020 11:16:39 GMT-0400 (Eastern Daylight Time)","Mozilla/5.0 (Windows NT 10.0; Win64; x64; rv:80.0) Gecko/20100101 Firefox/80.0",67,"[0.9, 0.5, 0.1]","[0.8, 0.4, 0.2]","[u'red', u'blue', u'black']","[u'left', u'middle', u'right']","[0.9, 0.5, 0.1]","[u'low', u'medium', u'high']","black",51,"right","high","True","True",356,3550,NA
"AMNRYECHXZY34","Sun Sep 20 2020 11:09:46 GMT-0400 (Eastern Daylight Time)","Sun Sep 20 2020 11:16:39 GMT-0400 (Eastern Daylight Time)","Mozilla/5.0 (Windows NT 10.0; Win64; x64; rv:80.0) Gecko/20100101 Firefox/80.0",68,"[0.9, 0.5, 0.1]","[0.8, 0.4, 0.2]","[u'red', u'blue', u'black']","[u'left', u'middle', u'right']","[0.9, 0.5, 0.1]","[u'low', u'high', u'medium']","black",51,"right","medium","True","False",353,3650,NA
"AMNRYECHXZY34","Sun Sep 20 2020 11:09:46 GMT-0400 (Eastern Daylight Time)","Sun Sep 20 2020 11:16:39 GMT-0400 (Eastern Daylight Time)","Mozilla/5.0 (Windows NT 10.0; Win64; x64; rv:80.0) Gecko/20100101 Firefox/80.0",69,"[0.9, 0.5, 0.1]","[0.8, 0.4, 0.2]","[u'red', u'blue', u'black']","[u'left', u'middle', u'right']","[0.9, 0.5, 0.1]","[u'low', u'high', u'medium']","black",51,"right","medium","True","False",361,3750,NA
"AMNRYECHXZY34","Sun Sep 20 2020 11:09:46 GMT-0400 (Eastern Daylight Time)","Sun Sep 20 2020 11:16:39 GMT-0400 (Eastern Daylight Time)","Mozilla/5.0 (Windows NT 10.0; Win64; x64; rv:80.0) Gecko/20100101 Firefox/80.0",70,"[0.9, 0.5, 0.1]","[0.8, 0.4, 0.2]","[u'red', u'blue', u'black']","[u'left', u'middle', u'right']","[0.9, 0.5, 0.1]","[u'low', u'high', u'medium']","black",51,"right","medium","False","False",331,3700,NA
"AMNRYECHXZY34","Sun Sep 20 2020 11:09:46 GMT-0400 (Eastern Daylight Time)","Sun Sep 20 2020 11:16:39 GMT-0400 (Eastern Daylight Time)","Mozilla/5.0 (Windows NT 10.0; Win64; x64; rv:80.0) Gecko/20100101 Firefox/80.0",71,"[0.9, 0.5, 0.1]","[0.8, 0.4, 0.2]","[u'red', u'blue', u'black']","[u'left', u'middle', u'right']","[0.9, 0.5, 0.1]","[u'low', u'high', u'medium']","black",51,"right","medium","True","False",313,3800,NA
"AMNRYECHXZY34","Sun Sep 20 2020 11:09:46 GMT-0400 (Eastern Daylight Time)","Sun Sep 20 2020 11:16:39 GMT-0400 (Eastern Daylight Time)","Mozilla/5.0 (Windows NT 10.0; Win64; x64; rv:80.0) Gecko/20100101 Firefox/80.0",72,"[0.9, 0.5, 0.1]","[0.8, 0.4, 0.2]","[u'red', u'blue', u'black']","[u'left', u'middle', u'right']","[0.9, 0.5, 0.1]","[u'low', u'high', u'medium']","black",51,"right","medium","False","False",252,3750,NA
"AMNRYECHXZY34","Sun Sep 20 2020 11:09:46 GMT-0400 (Eastern Daylight Time)","Sun Sep 20 2020 11:16:39 GMT-0400 (Eastern Daylight Time)","Mozilla/5.0 (Windows NT 10.0; Win64; x64; rv:80.0) Gecko/20100101 Firefox/80.0",73,"[0.9, 0.5, 0.1]","[0.8, 0.4, 0.2]","[u'red', u'blue', u'black']","[u'left', u'middle', u'right']","[0.9, 0.5, 0.1]","[u'low', u'high', u'medium']","red",49,"left","low","False","False",317,3700,NA
"AMNRYECHXZY34","Sun Sep 20 2020 11:09:46 GMT-0400 (Eastern Daylight Time)","Sun Sep 20 2020 11:16:39 GMT-0400 (Eastern Daylight Time)","Mozilla/5.0 (Windows NT 10.0; Win64; x64; rv:80.0) Gecko/20100101 Firefox/80.0",74,"[0.9, 0.5, 0.1]","[0.8, 0.4, 0.2]","[u'red', u'blue', u'black']","[u'left', u'middle', u'right']","[0.9, 0.5, 0.1]","[u'low', u'high', u'medium']","red",49,"left","low","True","False",315,3800,NA
"AMNRYECHXZY34","Sun Sep 20 2020 11:09:46 GMT-0400 (Eastern Daylight Time)","Sun Sep 20 2020 11:16:39 GMT-0400 (Eastern Daylight Time)","Mozilla/5.0 (Windows NT 10.0; Win64; x64; rv:80.0) Gecko/20100101 Firefox/80.0",75,"[0.9, 0.5, 0.1]","[0.8, 0.4, 0.2]","[u'red', u'blue', u'black']","[u'left', u'middle', u'right']","[0.9, 0.5, 0.1]","[u'low', u'high', u'medium']","red",49,"left","low","False","False",320,3750,NA
"AMNRYECHXZY34","Sun Sep 20 2020 11:09:46 GMT-0400 (Eastern Daylight Time)","Sun Sep 20 2020 11:16:39 GMT-0400 (Eastern Daylight Time)","Mozilla/5.0 (Windows NT 10.0; Win64; x64; rv:80.0) Gecko/20100101 Firefox/80.0",76,"[0.9, 0.5, 0.1]","[0.8, 0.4, 0.2]","[u'red', u'blue', u'black']","[u'left', u'middle', u'right']","[0.9, 0.5, 0.1]","[u'low', u'high', u'medium']","red",49,"left","low","False","False",319,3700,NA
"AMNRYECHXZY34","Sun Sep 20 2020 11:09:46 GMT-0400 (Eastern Daylight Time)","Sun Sep 20 2020 11:16:39 GMT-0400 (Eastern Daylight Time)","Mozilla/5.0 (Windows NT 10.0; Win64; x64; rv:80.0) Gecko/20100101 Firefox/80.0",77,"[0.9, 0.5, 0.1]","[0.8, 0.4, 0.2]","[u'red', u'blue', u'black']","[u'left', u'middle', u'right']","[0.9, 0.5, 0.1]","[u'low', u'high', u'medium']","red",49,"left","low","False","False",329,3650,NA
"AMNRYECHXZY34","Sun Sep 20 2020 11:09:46 GMT-0400 (Eastern Daylight Time)","Sun Sep 20 2020 11:16:39 GMT-0400 (Eastern Daylight Time)","Mozilla/5.0 (Windows NT 10.0; Win64; x64; rv:80.0) Gecko/20100101 Firefox/80.0",78,"[0.9, 0.5, 0.1]","[0.8, 0.4, 0.2]","[u'red', u'blue', u'black']","[u'left', u'middle', u'right']","[0.9, 0.5, 0.1]","[u'low', u'high', u'medium']","black",51,"right","medium","False","False",319,3600,NA
"AMNRYECHXZY34","Sun Sep 20 2020 11:09:46 GMT-0400 (Eastern Daylight Time)","Sun Sep 20 2020 11:16:39 GMT-0400 (Eastern Daylight Time)","Mozilla/5.0 (Windows NT 10.0; Win64; x64; rv:80.0) Gecko/20100101 Firefox/80.0",79,"[0.9, 0.5, 0.1]","[0.8, 0.4, 0.2]","[u'red', u'blue', u'black']","[u'left', u'middle', u'right']","[0.9, 0.5, 0.1]","[u'low', u'high', u'medium']","black",51,"right","medium","False","False",347,3550,NA
"AMNRYECHXZY34","Sun Sep 20 2020 11:09:46 GMT-0400 (Eastern Daylight Time)","Sun Sep 20 2020 11:16:39 GMT-0400 (Eastern Daylight Time)","Mozilla/5.0 (Windows NT 10.0; Win64; x64; rv:80.0) Gecko/20100101 Firefox/80.0",80,"[0.9, 0.5, 0.1]","[0.8, 0.4, 0.2]","[u'red', u'blue', u'black']","[u'left', u'middle', u'right']","[0.9, 0.5, 0.1]","[u'low', u'high', u'medium']","black",51,"right","medium","True","False",319,3650,NA
"AMNRYECHXZY34","Sun Sep 20 2020 11:09:46 GMT-0400 (Eastern Daylight Time)","Sun Sep 20 2020 11:16:39 GMT-0400 (Eastern Daylight Time)","Mozilla/5.0 (Windows NT 10.0; Win64; x64; rv:80.0) Gecko/20100101 Firefox/80.0",81,"[0.9, 0.5, 0.1]","[0.8, 0.4, 0.2]","[u'red', u'blue', u'black']","[u'left', u'middle', u'right']","[0.8, 0.4, 0.2]","[u'medium', u'low', u'high']","black",51,"right","high","True","False",317,3750,NA
"AMNRYECHXZY34","Sun Sep 20 2020 11:09:46 GMT-0400 (Eastern Daylight Time)","Sun Sep 20 2020 11:16:39 GMT-0400 (Eastern Daylight Time)","Mozilla/5.0 (Windows NT 10.0; Win64; x64; rv:80.0) Gecko/20100101 Firefox/80.0",82,"[0.9, 0.5, 0.1]","[0.8, 0.4, 0.2]","[u'red', u'blue', u'black']","[u'left', u'middle', u'right']","[0.8, 0.4, 0.2]","[u'medium', u'low', u'high']","black",51,"right","high","True","False",354,3850,NA
"AMNRYECHXZY34","Sun Sep 20 2020 11:09:46 GMT-0400 (Eastern Daylight Time)","Sun Sep 20 2020 11:16:39 GMT-0400 (Eastern Daylight Time)","Mozilla/5.0 (Windows NT 10.0; Win64; x64; rv:80.0) Gecko/20100101 Firefox/80.0",83,"[0.9, 0.5, 0.1]","[0.8, 0.4, 0.2]","[u'red', u'blue', u'black']","[u'left', u'middle', u'right']","[0.8, 0.4, 0.2]","[u'medium', u'low', u'high']","black",51,"right","high","False","False",404,3800,NA
"AMNRYECHXZY34","Sun Sep 20 2020 11:09:46 GMT-0400 (Eastern Daylight Time)","Sun Sep 20 2020 11:16:39 GMT-0400 (Eastern Daylight Time)","Mozilla/5.0 (Windows NT 10.0; Win64; x64; rv:80.0) Gecko/20100101 Firefox/80.0",84,"[0.9, 0.5, 0.1]","[0.8, 0.4, 0.2]","[u'red', u'blue', u'black']","[u'left', u'middle', u'right']","[0.8, 0.4, 0.2]","[u'medium', u'low', u'high']","blue",50,"middle","low","True","False",564,3900,NA
"AMNRYECHXZY34","Sun Sep 20 2020 11:09:46 GMT-0400 (Eastern Daylight Time)","Sun Sep 20 2020 11:16:39 GMT-0400 (Eastern Daylight Time)","Mozilla/5.0 (Windows NT 10.0; Win64; x64; rv:80.0) Gecko/20100101 Firefox/80.0",85,"[0.9, 0.5, 0.1]","[0.8, 0.4, 0.2]","[u'red', u'blue', u'black']","[u'left', u'middle', u'right']","[0.8, 0.4, 0.2]","[u'medium', u'low', u'high']","blue",50,"middle","low","True","False",312,4000,NA
"AMNRYECHXZY34","Sun Sep 20 2020 11:09:46 GMT-0400 (Eastern Daylight Time)","Sun Sep 20 2020 11:16:39 GMT-0400 (Eastern Daylight Time)","Mozilla/5.0 (Windows NT 10.0; Win64; x64; rv:80.0) Gecko/20100101 Firefox/80.0",86,"[0.9, 0.5, 0.1]","[0.8, 0.4, 0.2]","[u'red', u'blue', u'black']","[u'left', u'middle', u'right']","[0.8, 0.4, 0.2]","[u'medium', u'low', u'high']","blue",50,"middle","low","False","False",312,3950,NA
"AMNRYECHXZY34","Sun Sep 20 2020 11:09:46 GMT-0400 (Eastern Daylight Time)","Sun Sep 20 2020 11:16:39 GMT-0400 (Eastern Daylight Time)","Mozilla/5.0 (Windows NT 10.0; Win64; x64; rv:80.0) Gecko/20100101 Firefox/80.0",87,"[0.9, 0.5, 0.1]","[0.8, 0.4, 0.2]","[u'red', u'blue', u'black']","[u'left', u'middle', u'right']","[0.8, 0.4, 0.2]","[u'medium', u'low', u'high']","blue",50,"middle","low","False","False",284,3900,NA
"AMNRYECHXZY34","Sun Sep 20 2020 11:09:46 GMT-0400 (Eastern Daylight Time)","Sun Sep 20 2020 11:16:39 GMT-0400 (Eastern Daylight Time)","Mozilla/5.0 (Windows NT 10.0; Win64; x64; rv:80.0) Gecko/20100101 Firefox/80.0",88,"[0.9, 0.5, 0.1]","[0.8, 0.4, 0.2]","[u'red', u'blue', u'black']","[u'left', u'middle', u'right']","[0.8, 0.4, 0.2]","[u'medium', u'low', u'high']","black",51,"right","high","True","False",324,4000,NA
"AMNRYECHXZY34","Sun Sep 20 2020 11:09:46 GMT-0400 (Eastern Daylight Time)","Sun Sep 20 2020 11:16:39 GMT-0400 (Eastern Daylight Time)","Mozilla/5.0 (Windows NT 10.0; Win64; x64; rv:80.0) Gecko/20100101 Firefox/80.0",89,"[0.9, 0.5, 0.1]","[0.8, 0.4, 0.2]","[u'red', u'blue', u'black']","[u'left', u'middle', u'right']","[0.8, 0.4, 0.2]","[u'medium', u'low', u'high']","black",51,"right","high","True","False",312,4100,NA
"AMNRYECHXZY34","Sun Sep 20 2020 11:09:46 GMT-0400 (Eastern Daylight Time)","Sun Sep 20 2020 11:16:39 GMT-0400 (Eastern Daylight Time)","Mozilla/5.0 (Windows NT 10.0; Win64; x64; rv:80.0) Gecko/20100101 Firefox/80.0",90,"[0.9, 0.5, 0.1]","[0.8, 0.4, 0.2]","[u'red', u'blue', u'black']","[u'left', u'middle', u'right']","[0.8, 0.4, 0.2]","[u'medium', u'low', u'high']","black",51,"right","high","False","False",435,4050,NA
"AMNRYECHXZY34","Sun Sep 20 2020 11:09:46 GMT-0400 (Eastern Daylight Time)","Sun Sep 20 2020 11:16:39 GMT-0400 (Eastern Daylight Time)","Mozilla/5.0 (Windows NT 10.0; Win64; x64; rv:80.0) Gecko/20100101 Firefox/80.0",91,"[0.9, 0.5, 0.1]","[0.8, 0.4, 0.2]","[u'red', u'blue', u'black']","[u'left', u'middle', u'right']","[0.8, 0.4, 0.2]","[u'medium', u'low', u'high']","black",51,"right","high","True","False",277,4150,NA
"AMNRYECHXZY34","Sun Sep 20 2020 11:09:46 GMT-0400 (Eastern Daylight Time)","Sun Sep 20 2020 11:16:39 GMT-0400 (Eastern Daylight Time)","Mozilla/5.0 (Windows NT 10.0; Win64; x64; rv:80.0) Gecko/20100101 Firefox/80.0",92,"[0.9, 0.5, 0.1]","[0.8, 0.4, 0.2]","[u'red', u'blue', u'black']","[u'left', u'middle', u'right']","[0.8, 0.4, 0.2]","[u'medium', u'low', u'high']","black",51,"right","high","True","False",363,4250,NA
"AMNRYECHXZY34","Sun Sep 20 2020 11:09:46 GMT-0400 (Eastern Daylight Time)","Sun Sep 20 2020 11:16:39 GMT-0400 (Eastern Daylight Time)","Mozilla/5.0 (Windows NT 10.0; Win64; x64; rv:80.0) Gecko/20100101 Firefox/80.0",93,"[0.9, 0.5, 0.1]","[0.8, 0.4, 0.2]","[u'red', u'blue', u'black']","[u'left', u'middle', u'right']","[0.8, 0.4, 0.2]","[u'medium', u'low', u'high']","black",51,"right","high","False","False",331,4200,NA
"AMNRYECHXZY34","Sun Sep 20 2020 11:09:46 GMT-0400 (Eastern Daylight Time)","Sun Sep 20 2020 11:16:39 GMT-0400 (Eastern Daylight Time)","Mozilla/5.0 (Windows NT 10.0; Win64; x64; rv:80.0) Gecko/20100101 Firefox/80.0",94,"[0.9, 0.5, 0.1]","[0.8, 0.4, 0.2]","[u'red', u'blue', u'black']","[u'left', u'middle', u'right']","[0.8, 0.4, 0.2]","[u'medium', u'low', u'high']","black",51,"right","high","True","False",292,4300,NA
"AMNRYECHXZY34","Sun Sep 20 2020 11:09:46 GMT-0400 (Eastern Daylight Time)","Sun Sep 20 2020 11:16:39 GMT-0400 (Eastern Daylight Time)","Mozilla/5.0 (Windows NT 10.0; Win64; x64; rv:80.0) Gecko/20100101 Firefox/80.0",95,"[0.9, 0.5, 0.1]","[0.8, 0.4, 0.2]","[u'red', u'blue', u'black']","[u'left', u'middle', u'right']","[0.8, 0.4, 0.2]","[u'medium', u'low', u'high']","black",51,"right","high","True","False",282,4400,NA
"AMNRYECHXZY34","Sun Sep 20 2020 11:09:46 GMT-0400 (Eastern Daylight Time)","Sun Sep 20 2020 11:16:39 GMT-0400 (Eastern Daylight Time)","Mozilla/5.0 (Windows NT 10.0; Win64; x64; rv:80.0) Gecko/20100101 Firefox/80.0",96,"[0.9, 0.5, 0.1]","[0.8, 0.4, 0.2]","[u'red', u'blue', u'black']","[u'left', u'middle', u'right']","[0.8, 0.4, 0.2]","[u'medium', u'low', u'high']","black",51,"right","high","True","True",302,4500,NA
"AMNRYECHXZY34","Sun Sep 20 2020 11:09:46 GMT-0400 (Eastern Daylight Time)","Sun Sep 20 2020 11:16:39 GMT-0400 (Eastern Daylight Time)","Mozilla/5.0 (Windows NT 10.0; Win64; x64; rv:80.0) Gecko/20100101 Firefox/80.0",97,"[0.9, 0.5, 0.1]","[0.8, 0.4, 0.2]","[u'red', u'blue', u'black']","[u'left', u'middle', u'right']","[0.8, 0.4, 0.2]","[u'high', u'medium', u'low']","black",51,"right","low","False","False",328,4450,NA
"AMNRYECHXZY34","Sun Sep 20 2020 11:09:46 GMT-0400 (Eastern Daylight Time)","Sun Sep 20 2020 11:16:39 GMT-0400 (Eastern Daylight Time)","Mozilla/5.0 (Windows NT 10.0; Win64; x64; rv:80.0) Gecko/20100101 Firefox/80.0",98,"[0.9, 0.5, 0.1]","[0.8, 0.4, 0.2]","[u'red', u'blue', u'black']","[u'left', u'middle', u'right']","[0.8, 0.4, 0.2]","[u'high', u'medium', u'low']","black",51,"right","low","False","False",414,4400,NA
"AMNRYECHXZY34","Sun Sep 20 2020 11:09:46 GMT-0400 (Eastern Daylight Time)","Sun Sep 20 2020 11:16:39 GMT-0400 (Eastern Daylight Time)","Mozilla/5.0 (Windows NT 10.0; Win64; x64; rv:80.0) Gecko/20100101 Firefox/80.0",99,"[0.9, 0.5, 0.1]","[0.8, 0.4, 0.2]","[u'red', u'blue', u'black']","[u'left', u'middle', u'right']","[0.8, 0.4, 0.2]","[u'high', u'medium', u'low']","black",51,"right","low","True","False",290,4500,NA
"AMNRYECHXZY34","Sun Sep 20 2020 11:09:46 GMT-0400 (Eastern Daylight Time)","Sun Sep 20 2020 11:16:39 GMT-0400 (Eastern Daylight Time)","Mozilla/5.0 (Windows NT 10.0; Win64; x64; rv:80.0) Gecko/20100101 Firefox/80.0",100,"[0.9, 0.5, 0.1]","[0.8, 0.4, 0.2]","[u'red', u'blue', u'black']","[u'left', u'middle', u'right']","[0.8, 0.4, 0.2]","[u'high', u'medium', u'low']","black",51,"right","low","False","False",282,4450,NA
"AMNRYECHXZY34","Sun Sep 20 2020 11:09:46 GMT-0400 (Eastern Daylight Time)","Sun Sep 20 2020 11:16:39 GMT-0400 (Eastern Daylight Time)","Mozilla/5.0 (Windows NT 10.0; Win64; x64; rv:80.0) Gecko/20100101 Firefox/80.0",101,"[0.9, 0.5, 0.1]","[0.8, 0.4, 0.2]","[u'red', u'blue', u'black']","[u'left', u'middle', u'right']","[0.8, 0.4, 0.2]","[u'high', u'medium', u'low']","black",51,"right","low","False","False",330,4400,NA
"AMNRYECHXZY34","Sun Sep 20 2020 11:09:46 GMT-0400 (Eastern Daylight Time)","Sun Sep 20 2020 11:16:39 GMT-0400 (Eastern Daylight Time)","Mozilla/5.0 (Windows NT 10.0; Win64; x64; rv:80.0) Gecko/20100101 Firefox/80.0",102,"[0.9, 0.5, 0.1]","[0.8, 0.4, 0.2]","[u'red', u'blue', u'black']","[u'left', u'middle', u'right']","[0.8, 0.4, 0.2]","[u'high', u'medium', u'low']","red",49,"left","high","False","False",306,4350,NA
"AMNRYECHXZY34","Sun Sep 20 2020 11:09:46 GMT-0400 (Eastern Daylight Time)","Sun Sep 20 2020 11:16:39 GMT-0400 (Eastern Daylight Time)","Mozilla/5.0 (Windows NT 10.0; Win64; x64; rv:80.0) Gecko/20100101 Firefox/80.0",103,"[0.9, 0.5, 0.1]","[0.8, 0.4, 0.2]","[u'red', u'blue', u'black']","[u'left', u'middle', u'right']","[0.8, 0.4, 0.2]","[u'high', u'medium', u'low']","red",49,"left","high","True","False",288,4450,NA
"AMNRYECHXZY34","Sun Sep 20 2020 11:09:46 GMT-0400 (Eastern Daylight Time)","Sun Sep 20 2020 11:16:39 GMT-0400 (Eastern Daylight Time)","Mozilla/5.0 (Windows NT 10.0; Win64; x64; rv:80.0) Gecko/20100101 Firefox/80.0",104,"[0.9, 0.5, 0.1]","[0.8, 0.4, 0.2]","[u'red', u'blue', u'black']","[u'left', u'middle', u'right']","[0.8, 0.4, 0.2]","[u'high', u'medium', u'low']","red",49,"left","high","False","False",286,4400,NA
"AMNRYECHXZY34","Sun Sep 20 2020 11:09:46 GMT-0400 (Eastern Daylight Time)","Sun Sep 20 2020 11:16:39 GMT-0400 (Eastern Daylight Time)","Mozilla/5.0 (Windows NT 10.0; Win64; x64; rv:80.0) Gecko/20100101 Firefox/80.0",105,"[0.9, 0.5, 0.1]","[0.8, 0.4, 0.2]","[u'red', u'blue', u'black']","[u'left', u'middle', u'right']","[0.8, 0.4, 0.2]","[u'high', u'medium', u'low']","red",49,"left","high","False","False",300,4350,NA
"AMNRYECHXZY34","Sun Sep 20 2020 11:09:46 GMT-0400 (Eastern Daylight Time)","Sun Sep 20 2020 11:16:39 GMT-0400 (Eastern Daylight Time)","Mozilla/5.0 (Windows NT 10.0; Win64; x64; rv:80.0) Gecko/20100101 Firefox/80.0",106,"[0.9, 0.5, 0.1]","[0.8, 0.4, 0.2]","[u'red', u'blue', u'black']","[u'left', u'middle', u'right']","[0.8, 0.4, 0.2]","[u'high', u'medium', u'low']","red",49,"left","high","False","False",422,4300,NA
"AMNRYECHXZY34","Sun Sep 20 2020 11:09:46 GMT-0400 (Eastern Daylight Time)","Sun Sep 20 2020 11:16:39 GMT-0400 (Eastern Daylight Time)","Mozilla/5.0 (Windows NT 10.0; Win64; x64; rv:80.0) Gecko/20100101 Firefox/80.0",107,"[0.9, 0.5, 0.1]","[0.8, 0.4, 0.2]","[u'red', u'blue', u'black']","[u'left', u'middle', u'right']","[0.8, 0.4, 0.2]","[u'high', u'medium', u'low']","blue",50,"middle","medium","False","False",301,4250,NA
"AMNRYECHXZY34","Sun Sep 20 2020 11:09:46 GMT-0400 (Eastern Daylight Time)","Sun Sep 20 2020 11:16:39 GMT-0400 (Eastern Daylight Time)","Mozilla/5.0 (Windows NT 10.0; Win64; x64; rv:80.0) Gecko/20100101 Firefox/80.0",108,"[0.9, 0.5, 0.1]","[0.8, 0.4, 0.2]","[u'red', u'blue', u'black']","[u'left', u'middle', u'right']","[0.8, 0.4, 0.2]","[u'high', u'medium', u'low']","blue",50,"middle","medium","False","False",308,4200,NA
"AMNRYECHXZY34","Sun Sep 20 2020 11:09:46 GMT-0400 (Eastern Daylight Time)","Sun Sep 20 2020 11:16:39 GMT-0400 (Eastern Daylight Time)","Mozilla/5.0 (Windows NT 10.0; Win64; x64; rv:80.0) Gecko/20100101 Firefox/80.0",109,"[0.9, 0.5, 0.1]","[0.8, 0.4, 0.2]","[u'red', u'blue', u'black']","[u'left', u'middle', u'right']","[0.8, 0.4, 0.2]","[u'high', u'medium', u'low']","red",49,"left","high","True","False",310,4300,NA
"AMNRYECHXZY34","Sun Sep 20 2020 11:09:46 GMT-0400 (Eastern Daylight Time)","Sun Sep 20 2020 11:16:39 GMT-0400 (Eastern Daylight Time)","Mozilla/5.0 (Windows NT 10.0; Win64; x64; rv:80.0) Gecko/20100101 Firefox/80.0",110,"[0.9, 0.5, 0.1]","[0.8, 0.4, 0.2]","[u'red', u'blue', u'black']","[u'left', u'middle', u'right']","[0.8, 0.4, 0.2]","[u'high', u'medium', u'low']","red",49,"left","high","False","False",281,4250,NA
"AMNRYECHXZY34","Sun Sep 20 2020 11:09:46 GMT-0400 (Eastern Daylight Time)","Sun Sep 20 2020 11:16:39 GMT-0400 (Eastern Daylight Time)","Mozilla/5.0 (Windows NT 10.0; Win64; x64; rv:80.0) Gecko/20100101 Firefox/80.0",111,"[0.9, 0.5, 0.1]","[0.8, 0.4, 0.2]","[u'red', u'blue', u'black']","[u'left', u'middle', u'right']","[0.8, 0.4, 0.2]","[u'high', u'medium', u'low']","black",51,"right","low","False","False",270,4200,NA
"AMNRYECHXZY34","Sun Sep 20 2020 11:09:46 GMT-0400 (Eastern Daylight Time)","Sun Sep 20 2020 11:16:39 GMT-0400 (Eastern Daylight Time)","Mozilla/5.0 (Windows NT 10.0; Win64; x64; rv:80.0) Gecko/20100101 Firefox/80.0",112,"[0.9, 0.5, 0.1]","[0.8, 0.4, 0.2]","[u'red', u'blue', u'black']","[u'left', u'middle', u'right']","[0.8, 0.4, 0.2]","[u'high', u'medium', u'low']","black",51,"right","low","False","False",277,4150,NA
"AMNRYECHXZY34","Sun Sep 20 2020 11:09:46 GMT-0400 (Eastern Daylight Time)","Sun Sep 20 2020 11:16:39 GMT-0400 (Eastern Daylight Time)","Mozilla/5.0 (Windows NT 10.0; Win64; x64; rv:80.0) Gecko/20100101 Firefox/80.0",113,"[0.9, 0.5, 0.1]","[0.8, 0.4, 0.2]","[u'red', u'blue', u'black']","[u'left', u'middle', u'right']","[0.8, 0.4, 0.2]","[u'high', u'medium', u'low']","blue",50,"middle","medium","False","False",321,4100,NA
"AMNRYECHXZY34","Sun Sep 20 2020 11:09:46 GMT-0400 (Eastern Daylight Time)","Sun Sep 20 2020 11:16:39 GMT-0400 (Eastern Daylight Time)","Mozilla/5.0 (Windows NT 10.0; Win64; x64; rv:80.0) Gecko/20100101 Firefox/80.0",114,"[0.9, 0.5, 0.1]","[0.8, 0.4, 0.2]","[u'red', u'blue', u'black']","[u'left', u'middle', u'right']","[0.8, 0.4, 0.2]","[u'high', u'medium', u'low']","blue",50,"middle","medium","False","False",315,4050,NA
"AMNRYECHXZY34","Sun Sep 20 2020 11:09:46 GMT-0400 (Eastern Daylight Time)","Sun Sep 20 2020 11:16:39 GMT-0400 (Eastern Daylight Time)","Mozilla/5.0 (Windows NT 10.0; Win64; x64; rv:80.0) Gecko/20100101 Firefox/80.0",115,"[0.9, 0.5, 0.1]","[0.8, 0.4, 0.2]","[u'red', u'blue', u'black']","[u'left', u'middle', u'right']","[0.8, 0.4, 0.2]","[u'high', u'medium', u'low']","black",51,"right","low","False","False",178,4000,NA
"AMNRYECHXZY34","Sun Sep 20 2020 11:09:46 GMT-0400 (Eastern Daylight Time)","Sun Sep 20 2020 11:16:39 GMT-0400 (Eastern Daylight Time)","Mozilla/5.0 (Windows NT 10.0; Win64; x64; rv:80.0) Gecko/20100101 Firefox/80.0",116,"[0.9, 0.5, 0.1]","[0.8, 0.4, 0.2]","[u'red', u'blue', u'black']","[u'left', u'middle', u'right']","[0.8, 0.4, 0.2]","[u'high', u'medium', u'low']","red",49,"left","high","True","False",227,4100,NA
"AMNRYECHXZY34","Sun Sep 20 2020 11:09:46 GMT-0400 (Eastern Daylight Time)","Sun Sep 20 2020 11:16:39 GMT-0400 (Eastern Daylight Time)","Mozilla/5.0 (Windows NT 10.0; Win64; x64; rv:80.0) Gecko/20100101 Firefox/80.0",117,"[0.9, 0.5, 0.1]","[0.8, 0.4, 0.2]","[u'red', u'blue', u'black']","[u'left', u'middle', u'right']","[0.8, 0.4, 0.2]","[u'high', u'medium', u'low']","red",49,"left","high","False","False",279,4050,NA
"AMNRYECHXZY34","Sun Sep 20 2020 11:09:46 GMT-0400 (Eastern Daylight Time)","Sun Sep 20 2020 11:16:39 GMT-0400 (Eastern Daylight Time)","Mozilla/5.0 (Windows NT 10.0; Win64; x64; rv:80.0) Gecko/20100101 Firefox/80.0",118,"[0.9, 0.5, 0.1]","[0.8, 0.4, 0.2]","[u'red', u'blue', u'black']","[u'left', u'middle', u'right']","[0.8, 0.4, 0.2]","[u'high', u'medium', u'low']","red",49,"left","high","False","False",268,4000,NA
"AMNRYECHXZY34","Sun Sep 20 2020 11:09:46 GMT-0400 (Eastern Daylight Time)","Sun Sep 20 2020 11:16:39 GMT-0400 (Eastern Daylight Time)","Mozilla/5.0 (Windows NT 10.0; Win64; x64; rv:80.0) Gecko/20100101 Firefox/80.0",119,"[0.9, 0.5, 0.1]","[0.8, 0.4, 0.2]","[u'red', u'blue', u'black']","[u'left', u'middle', u'right']","[0.8, 0.4, 0.2]","[u'high', u'medium', u'low']","red",49,"left","high","True","False",277,4100,NA
"AMNRYECHXZY34","Sun Sep 20 2020 11:09:46 GMT-0400 (Eastern Daylight Time)","Sun Sep 20 2020 11:16:39 GMT-0400 (Eastern Daylight Time)","Mozilla/5.0 (Windows NT 10.0; Win64; x64; rv:80.0) Gecko/20100101 Firefox/80.0",120,"[0.9, 0.5, 0.1]","[0.8, 0.4, 0.2]","[u'red', u'blue', u'black']","[u'left', u'middle', u'right']","[0.8, 0.4, 0.2]","[u'high', u'medium', u'low']","red",49,"left","high","True","False",306,4200,NA
"AMNRYECHXZY34","Sun Sep 20 2020 11:09:46 GMT-0400 (Eastern Daylight Time)","Sun Sep 20 2020 11:16:39 GMT-0400 (Eastern Daylight Time)","Mozilla/5.0 (Windows NT 10.0; Win64; x64; rv:80.0) Gecko/20100101 Firefox/80.0",121,"[0.9, 0.5, 0.1]","[0.8, 0.4, 0.2]","[u'red', u'blue', u'black']","[u'left', u'middle', u'right']","[0.8, 0.4, 0.2]","[u'low', u'medium', u'high']","red",49,"left","low","False","False",300,4150,NA
"AMNRYECHXZY34","Sun Sep 20 2020 11:09:46 GMT-0400 (Eastern Daylight Time)","Sun Sep 20 2020 11:16:39 GMT-0400 (Eastern Daylight Time)","Mozilla/5.0 (Windows NT 10.0; Win64; x64; rv:80.0) Gecko/20100101 Firefox/80.0",122,"[0.9, 0.5, 0.1]","[0.8, 0.4, 0.2]","[u'red', u'blue', u'black']","[u'left', u'middle', u'right']","[0.8, 0.4, 0.2]","[u'low', u'medium', u'high']","red",49,"left","low","False","False",317,4100,NA
"AMNRYECHXZY34","Sun Sep 20 2020 11:09:46 GMT-0400 (Eastern Daylight Time)","Sun Sep 20 2020 11:16:39 GMT-0400 (Eastern Daylight Time)","Mozilla/5.0 (Windows NT 10.0; Win64; x64; rv:80.0) Gecko/20100101 Firefox/80.0",123,"[0.9, 0.5, 0.1]","[0.8, 0.4, 0.2]","[u'red', u'blue', u'black']","[u'left', u'middle', u'right']","[0.8, 0.4, 0.2]","[u'low', u'medium', u'high']","red",49,"left","low","False","False",272,4050,NA
"AMNRYECHXZY34","Sun Sep 20 2020 11:09:46 GMT-0400 (Eastern Daylight Time)","Sun Sep 20 2020 11:16:39 GMT-0400 (Eastern Daylight Time)","Mozilla/5.0 (Windows NT 10.0; Win64; x64; rv:80.0) Gecko/20100101 Firefox/80.0",124,"[0.9, 0.5, 0.1]","[0.8, 0.4, 0.2]","[u'red', u'blue', u'black']","[u'left', u'middle', u'right']","[0.8, 0.4, 0.2]","[u'low', u'medium', u'high']","red",49,"left","low","False","False",294,4000,NA
"AMNRYECHXZY34","Sun Sep 20 2020 11:09:46 GMT-0400 (Eastern Daylight Time)","Sun Sep 20 2020 11:16:39 GMT-0400 (Eastern Daylight Time)","Mozilla/5.0 (Windows NT 10.0; Win64; x64; rv:80.0) Gecko/20100101 Firefox/80.0",125,"[0.9, 0.5, 0.1]","[0.8, 0.4, 0.2]","[u'red', u'blue', u'black']","[u'left', u'middle', u'right']","[0.8, 0.4, 0.2]","[u'low', u'medium', u'high']","blue",50,"middle","medium","True","False",312,4100,NA
"AMNRYECHXZY34","Sun Sep 20 2020 11:09:46 GMT-0400 (Eastern Daylight Time)","Sun Sep 20 2020 11:16:39 GMT-0400 (Eastern Daylight Time)","Mozilla/5.0 (Windows NT 10.0; Win64; x64; rv:80.0) Gecko/20100101 Firefox/80.0",126,"[0.9, 0.5, 0.1]","[0.8, 0.4, 0.2]","[u'red', u'blue', u'black']","[u'left', u'middle', u'right']","[0.8, 0.4, 0.2]","[u'low', u'medium', u'high']","blue",50,"middle","medium","True","False",1514,4200,NA
"AMNRYECHXZY34","Sun Sep 20 2020 11:09:46 GMT-0400 (Eastern Daylight Time)","Sun Sep 20 2020 11:16:39 GMT-0400 (Eastern Daylight Time)","Mozilla/5.0 (Windows NT 10.0; Win64; x64; rv:80.0) Gecko/20100101 Firefox/80.0",127,"[0.9, 0.5, 0.1]","[0.8, 0.4, 0.2]","[u'red', u'blue', u'black']","[u'left', u'middle', u'right']","[0.8, 0.4, 0.2]","[u'low', u'medium', u'high']","blue",50,"middle","medium","False","False",300,4150,NA
"AMNRYECHXZY34","Sun Sep 20 2020 11:09:46 GMT-0400 (Eastern Daylight Time)","Sun Sep 20 2020 11:16:39 GMT-0400 (Eastern Daylight Time)","Mozilla/5.0 (Windows NT 10.0; Win64; x64; rv:80.0) Gecko/20100101 Firefox/80.0",128,"[0.9, 0.5, 0.1]","[0.8, 0.4, 0.2]","[u'red', u'blue', u'black']","[u'left', u'middle', u'right']","[0.8, 0.4, 0.2]","[u'low', u'medium', u'high']","blue",50,"middle","medium","True","False",220,4250,NA
"AMNRYECHXZY34","Sun Sep 20 2020 11:09:46 GMT-0400 (Eastern Daylight Time)","Sun Sep 20 2020 11:16:39 GMT-0400 (Eastern Daylight Time)","Mozilla/5.0 (Windows NT 10.0; Win64; x64; rv:80.0) Gecko/20100101 Firefox/80.0",129,"[0.9, 0.5, 0.1]","[0.8, 0.4, 0.2]","[u'red', u'blue', u'black']","[u'left', u'middle', u'right']","[0.8, 0.4, 0.2]","[u'low', u'medium', u'high']","blue",50,"middle","medium","True","False",245,4350,NA
"AMNRYECHXZY34","Sun Sep 20 2020 11:09:46 GMT-0400 (Eastern Daylight Time)","Sun Sep 20 2020 11:16:39 GMT-0400 (Eastern Daylight Time)","Mozilla/5.0 (Windows NT 10.0; Win64; x64; rv:80.0) Gecko/20100101 Firefox/80.0",130,"[0.9, 0.5, 0.1]","[0.8, 0.4, 0.2]","[u'red', u'blue', u'black']","[u'left', u'middle', u'right']","[0.8, 0.4, 0.2]","[u'low', u'medium', u'high']","blue",50,"middle","medium","False","False",326,4300,NA
"AMNRYECHXZY34","Sun Sep 20 2020 11:09:46 GMT-0400 (Eastern Daylight Time)","Sun Sep 20 2020 11:16:39 GMT-0400 (Eastern Daylight Time)","Mozilla/5.0 (Windows NT 10.0; Win64; x64; rv:80.0) Gecko/20100101 Firefox/80.0",131,"[0.9, 0.5, 0.1]","[0.8, 0.4, 0.2]","[u'red', u'blue', u'black']","[u'left', u'middle', u'right']","[0.8, 0.4, 0.2]","[u'low', u'medium', u'high']","blue",50,"middle","medium","False","False",111,4250,NA
"AMNRYECHXZY34","Sun Sep 20 2020 11:09:46 GMT-0400 (Eastern Daylight Time)","Sun Sep 20 2020 11:16:39 GMT-0400 (Eastern Daylight Time)","Mozilla/5.0 (Windows NT 10.0; Win64; x64; rv:80.0) Gecko/20100101 Firefox/80.0",132,"[0.9, 0.5, 0.1]","[0.8, 0.4, 0.2]","[u'red', u'blue', u'black']","[u'left', u'middle', u'right']","[0.8, 0.4, 0.2]","[u'low', u'medium', u'high']","blue",50,"middle","medium","False","False",157,4200,NA
"AMNRYECHXZY34","Sun Sep 20 2020 11:09:46 GMT-0400 (Eastern Daylight Time)","Sun Sep 20 2020 11:16:39 GMT-0400 (Eastern Daylight Time)","Mozilla/5.0 (Windows NT 10.0; Win64; x64; rv:80.0) Gecko/20100101 Firefox/80.0",133,"[0.9, 0.5, 0.1]","[0.8, 0.4, 0.2]","[u'red', u'blue', u'black']","[u'left', u'middle', u'right']","[0.8, 0.4, 0.2]","[u'low', u'medium', u'high']","black",51,"right","high","False","False",1,4150,NA
"AMNRYECHXZY34","Sun Sep 20 2020 11:09:46 GMT-0400 (Eastern Daylight Time)","Sun Sep 20 2020 11:16:39 GMT-0400 (Eastern Daylight Time)","Mozilla/5.0 (Windows NT 10.0; Win64; x64; rv:80.0) Gecko/20100101 Firefox/80.0",134,"[0.9, 0.5, 0.1]","[0.8, 0.4, 0.2]","[u'red', u'blue', u'black']","[u'left', u'middle', u'right']","[0.8, 0.4, 0.2]","[u'low', u'medium', u'high']","black",51,"right","high","False","False",190,4100,NA
"AMNRYECHXZY34","Sun Sep 20 2020 11:09:46 GMT-0400 (Eastern Daylight Time)","Sun Sep 20 2020 11:16:39 GMT-0400 (Eastern Daylight Time)","Mozilla/5.0 (Windows NT 10.0; Win64; x64; rv:80.0) Gecko/20100101 Firefox/80.0",135,"[0.9, 0.5, 0.1]","[0.8, 0.4, 0.2]","[u'red', u'blue', u'black']","[u'left', u'middle', u'right']","[0.8, 0.4, 0.2]","[u'low', u'medium', u'high']","black",51,"right","high","True","False",145,4200,NA
"AMNRYECHXZY34","Sun Sep 20 2020 11:09:46 GMT-0400 (Eastern Daylight Time)","Sun Sep 20 2020 11:16:39 GMT-0400 (Eastern Daylight Time)","Mozilla/5.0 (Windows NT 10.0; Win64; x64; rv:80.0) Gecko/20100101 Firefox/80.0",136,"[0.9, 0.5, 0.1]","[0.8, 0.4, 0.2]","[u'red', u'blue', u'black']","[u'left', u'middle', u'right']","[0.8, 0.4, 0.2]","[u'low', u'medium', u'high']","black",51,"right","high","True","False",245,4300,NA
"AMNRYECHXZY34","Sun Sep 20 2020 11:09:46 GMT-0400 (Eastern Daylight Time)","Sun Sep 20 2020 11:16:39 GMT-0400 (Eastern Daylight Time)","Mozilla/5.0 (Windows NT 10.0; Win64; x64; rv:80.0) Gecko/20100101 Firefox/80.0",137,"[0.9, 0.5, 0.1]","[0.8, 0.4, 0.2]","[u'red', u'blue', u'black']","[u'left', u'middle', u'right']","[0.8, 0.4, 0.2]","[u'low', u'medium', u'high']","black",51,"right","high","True","False",190,4400,NA
"AMNRYECHXZY34","Sun Sep 20 2020 11:09:46 GMT-0400 (Eastern Daylight Time)","Sun Sep 20 2020 11:16:39 GMT-0400 (Eastern Daylight Time)","Mozilla/5.0 (Windows NT 10.0; Win64; x64; rv:80.0) Gecko/20100101 Firefox/80.0",138,"[0.9, 0.5, 0.1]","[0.8, 0.4, 0.2]","[u'red', u'blue', u'black']","[u'left', u'middle', u'right']","[0.8, 0.4, 0.2]","[u'low', u'medium', u'high']","black",51,"right","high","True","False",237,4500,NA
"AMNRYECHXZY34","Sun Sep 20 2020 11:09:46 GMT-0400 (Eastern Daylight Time)","Sun Sep 20 2020 11:16:39 GMT-0400 (Eastern Daylight Time)","Mozilla/5.0 (Windows NT 10.0; Win64; x64; rv:80.0) Gecko/20100101 Firefox/80.0",139,"[0.9, 0.5, 0.1]","[0.8, 0.4, 0.2]","[u'red', u'blue', u'black']","[u'left', u'middle', u'right']","[0.8, 0.4, 0.2]","[u'low', u'medium', u'high']","black",51,"right","high","True","False",280,4600,NA
"AMNRYECHXZY34","Sun Sep 20 2020 11:09:46 GMT-0400 (Eastern Daylight Time)","Sun Sep 20 2020 11:16:39 GMT-0400 (Eastern Daylight Time)","Mozilla/5.0 (Windows NT 10.0; Win64; x64; rv:80.0) Gecko/20100101 Firefox/80.0",140,"[0.9, 0.5, 0.1]","[0.8, 0.4, 0.2]","[u'red', u'blue', u'black']","[u'left', u'middle', u'right']","[0.8, 0.4, 0.2]","[u'low', u'medium', u'high']","black",51,"right","high","True","False",258,4700,NA
"AMNRYECHXZY34","Sun Sep 20 2020 11:09:46 GMT-0400 (Eastern Daylight Time)","Sun Sep 20 2020 11:16:39 GMT-0400 (Eastern Daylight Time)","Mozilla/5.0 (Windows NT 10.0; Win64; x64; rv:80.0) Gecko/20100101 Firefox/80.0",141,"[0.9, 0.5, 0.1]","[0.8, 0.4, 0.2]","[u'red', u'blue', u'black']","[u'left', u'middle', u'right']","[0.8, 0.4, 0.2]","[u'low', u'medium', u'high']","black",51,"right","high","False","True",231,4650,NA
"AMNRYECHXZY34","Sun Sep 20 2020 11:09:46 GMT-0400 (Eastern Daylight Time)","Sun Sep 20 2020 11:16:39 GMT-0400 (Eastern Daylight Time)","Mozilla/5.0 (Windows NT 10.0; Win64; x64; rv:80.0) Gecko/20100101 Firefox/80.0",142,"[0.9, 0.5, 0.1]","[0.8, 0.4, 0.2]","[u'red', u'blue', u'black']","[u'left', u'middle', u'right']","[0.8, 0.4, 0.2]","[u'low', u'high', u'medium']","black",51,"right","medium","True","False",234,4750,NA
"AMNRYECHXZY34","Sun Sep 20 2020 11:09:46 GMT-0400 (Eastern Daylight Time)","Sun Sep 20 2020 11:16:39 GMT-0400 (Eastern Daylight Time)","Mozilla/5.0 (Windows NT 10.0; Win64; x64; rv:80.0) Gecko/20100101 Firefox/80.0",143,"[0.9, 0.5, 0.1]","[0.8, 0.4, 0.2]","[u'red', u'blue', u'black']","[u'left', u'middle', u'right']","[0.8, 0.4, 0.2]","[u'low', u'high', u'medium']","black",51,"right","medium","False","False",183,4700,NA
"AMNRYECHXZY34","Sun Sep 20 2020 11:09:46 GMT-0400 (Eastern Daylight Time)","Sun Sep 20 2020 11:16:39 GMT-0400 (Eastern Daylight Time)","Mozilla/5.0 (Windows NT 10.0; Win64; x64; rv:80.0) Gecko/20100101 Firefox/80.0",144,"[0.9, 0.5, 0.1]","[0.8, 0.4, 0.2]","[u'red', u'blue', u'black']","[u'left', u'middle', u'right']","[0.8, 0.4, 0.2]","[u'low', u'high', u'medium']","black",51,"right","medium","True","False",265,4800,NA
"AMNRYECHXZY34","Sun Sep 20 2020 11:09:46 GMT-0400 (Eastern Daylight Time)","Sun Sep 20 2020 11:16:39 GMT-0400 (Eastern Daylight Time)","Mozilla/5.0 (Windows NT 10.0; Win64; x64; rv:80.0) Gecko/20100101 Firefox/80.0",145,"[0.9, 0.5, 0.1]","[0.8, 0.4, 0.2]","[u'red', u'blue', u'black']","[u'left', u'middle', u'right']","[0.8, 0.4, 0.2]","[u'low', u'high', u'medium']","black",51,"right","medium","False","False",167,4750,NA
"AMNRYECHXZY34","Sun Sep 20 2020 11:09:46 GMT-0400 (Eastern Daylight Time)","Sun Sep 20 2020 11:16:39 GMT-0400 (Eastern Daylight Time)","Mozilla/5.0 (Windows NT 10.0; Win64; x64; rv:80.0) Gecko/20100101 Firefox/80.0",146,"[0.9, 0.5, 0.1]","[0.8, 0.4, 0.2]","[u'red', u'blue', u'black']","[u'left', u'middle', u'right']","[0.8, 0.4, 0.2]","[u'low', u'high', u'medium']","black",51,"right","medium","False","False",260,4700,NA
"AMNRYECHXZY34","Sun Sep 20 2020 11:09:46 GMT-0400 (Eastern Daylight Time)","Sun Sep 20 2020 11:16:39 GMT-0400 (Eastern Daylight Time)","Mozilla/5.0 (Windows NT 10.0; Win64; x64; rv:80.0) Gecko/20100101 Firefox/80.0",147,"[0.9, 0.5, 0.1]","[0.8, 0.4, 0.2]","[u'red', u'blue', u'black']","[u'left', u'middle', u'right']","[0.8, 0.4, 0.2]","[u'low', u'high', u'medium']","black",51,"right","medium","False","False",217,4650,NA
"AMNRYECHXZY34","Sun Sep 20 2020 11:09:46 GMT-0400 (Eastern Daylight Time)","Sun Sep 20 2020 11:16:39 GMT-0400 (Eastern Daylight Time)","Mozilla/5.0 (Windows NT 10.0; Win64; x64; rv:80.0) Gecko/20100101 Firefox/80.0",148,"[0.9, 0.5, 0.1]","[0.8, 0.4, 0.2]","[u'red', u'blue', u'black']","[u'left', u'middle', u'right']","[0.8, 0.4, 0.2]","[u'low', u'high', u'medium']","black",51,"right","medium","False","False",618,4600,NA
"AMNRYECHXZY34","Sun Sep 20 2020 11:09:46 GMT-0400 (Eastern Daylight Time)","Sun Sep 20 2020 11:16:39 GMT-0400 (Eastern Daylight Time)","Mozilla/5.0 (Windows NT 10.0; Win64; x64; rv:80.0) Gecko/20100101 Firefox/80.0",149,"[0.9, 0.5, 0.1]","[0.8, 0.4, 0.2]","[u'red', u'blue', u'black']","[u'left', u'middle', u'right']","[0.8, 0.4, 0.2]","[u'low', u'high', u'medium']","black",51,"right","medium","False","False",888,4550,NA
"AMNRYECHXZY34","Sun Sep 20 2020 11:09:46 GMT-0400 (Eastern Daylight Time)","Sun Sep 20 2020 11:16:39 GMT-0400 (Eastern Daylight Time)","Mozilla/5.0 (Windows NT 10.0; Win64; x64; rv:80.0) Gecko/20100101 Firefox/80.0",150,"[0.9, 0.5, 0.1]","[0.8, 0.4, 0.2]","[u'red', u'blue', u'black']","[u'left', u'middle', u'right']","[0.8, 0.4, 0.2]","[u'low', u'high', u'medium']","red",49,"left","low","False","False",308,4500,NA
"AMNRYECHXZY34","Sun Sep 20 2020 11:09:46 GMT-0400 (Eastern Daylight Time)","Sun Sep 20 2020 11:16:39 GMT-0400 (Eastern Daylight Time)","Mozilla/5.0 (Windows NT 10.0; Win64; x64; rv:80.0) Gecko/20100101 Firefox/80.0",151,"[0.9, 0.5, 0.1]","[0.8, 0.4, 0.2]","[u'red', u'blue', u'black']","[u'left', u'middle', u'right']","[0.8, 0.4, 0.2]","[u'low', u'high', u'medium']","black",51,"right","medium","False","False",808,4450,NA
"AMNRYECHXZY34","Sun Sep 20 2020 11:09:46 GMT-0400 (Eastern Daylight Time)","Sun Sep 20 2020 11:16:39 GMT-0400 (Eastern Daylight Time)","Mozilla/5.0 (Windows NT 10.0; Win64; x64; rv:80.0) Gecko/20100101 Firefox/80.0",152,"[0.9, 0.5, 0.1]","[0.8, 0.4, 0.2]","[u'red', u'blue', u'black']","[u'left', u'middle', u'right']","[0.8, 0.4, 0.2]","[u'low', u'high', u'medium']","blue",50,"middle","high","False","False",17,4400,NA
"AMNRYECHXZY34","Sun Sep 20 2020 11:09:46 GMT-0400 (Eastern Daylight Time)","Sun Sep 20 2020 11:16:39 GMT-0400 (Eastern Daylight Time)","Mozilla/5.0 (Windows NT 10.0; Win64; x64; rv:80.0) Gecko/20100101 Firefox/80.0",153,"[0.9, 0.5, 0.1]","[0.8, 0.4, 0.2]","[u'red', u'blue', u'black']","[u'left', u'middle', u'right']","[0.8, 0.4, 0.2]","[u'low', u'high', u'medium']","red",49,"left","low","False","False",1376,4350,NA
"AMNRYECHXZY34","Sun Sep 20 2020 11:09:46 GMT-0400 (Eastern Daylight Time)","Sun Sep 20 2020 11:16:39 GMT-0400 (Eastern Daylight Time)","Mozilla/5.0 (Windows NT 10.0; Win64; x64; rv:80.0) Gecko/20100101 Firefox/80.0",154,"[0.9, 0.5, 0.1]","[0.8, 0.4, 0.2]","[u'red', u'blue', u'black']","[u'left', u'middle', u'right']","[0.8, 0.4, 0.2]","[u'low', u'high', u'medium']","black",51,"right","medium","False","False",732,4300,NA
"AMNRYECHXZY34","Sun Sep 20 2020 11:09:46 GMT-0400 (Eastern Daylight Time)","Sun Sep 20 2020 11:16:39 GMT-0400 (Eastern Daylight Time)","Mozilla/5.0 (Windows NT 10.0; Win64; x64; rv:80.0) Gecko/20100101 Firefox/80.0",155,"[0.9, 0.5, 0.1]","[0.8, 0.4, 0.2]","[u'red', u'blue', u'black']","[u'left', u'middle', u'right']","[0.8, 0.4, 0.2]","[u'low', u'high', u'medium']","blue",50,"middle","high","False","False",3373,4250,NA
"AMNRYECHXZY34","Sun Sep 20 2020 11:09:46 GMT-0400 (Eastern Daylight Time)","Sun Sep 20 2020 11:16:39 GMT-0400 (Eastern Daylight Time)","Mozilla/5.0 (Windows NT 10.0; Win64; x64; rv:80.0) Gecko/20100101 Firefox/80.0",156,"[0.9, 0.5, 0.1]","[0.8, 0.4, 0.2]","[u'red', u'blue', u'black']","[u'left', u'middle', u'right']","[0.8, 0.4, 0.2]","[u'low', u'high', u'medium']","black",51,"right","medium","False","False",336,4200,NA
"AMNRYECHXZY34","Sun Sep 20 2020 11:09:46 GMT-0400 (Eastern Daylight Time)","Sun Sep 20 2020 11:16:39 GMT-0400 (Eastern Daylight Time)","Mozilla/5.0 (Windows NT 10.0; Win64; x64; rv:80.0) Gecko/20100101 Firefox/80.0",157,"[0.9, 0.5, 0.1]","[0.8, 0.4, 0.2]","[u'red', u'blue', u'black']","[u'left', u'middle', u'right']","[0.8, 0.4, 0.2]","[u'low', u'high', u'medium']","black",51,"right","medium","True","False",304,4300,NA
"AMNRYECHXZY34","Sun Sep 20 2020 11:09:46 GMT-0400 (Eastern Daylight Time)","Sun Sep 20 2020 11:16:39 GMT-0400 (Eastern Daylight Time)","Mozilla/5.0 (Windows NT 10.0; Win64; x64; rv:80.0) Gecko/20100101 Firefox/80.0",158,"[0.9, 0.5, 0.1]","[0.8, 0.4, 0.2]","[u'red', u'blue', u'black']","[u'left', u'middle', u'right']","[0.8, 0.4, 0.2]","[u'low', u'high', u'medium']","black",51,"right","medium","True","False",261,4400,NA
"AMNRYECHXZY34","Sun Sep 20 2020 11:09:46 GMT-0400 (Eastern Daylight Time)","Sun Sep 20 2020 11:16:39 GMT-0400 (Eastern Daylight Time)","Mozilla/5.0 (Windows NT 10.0; Win64; x64; rv:80.0) Gecko/20100101 Firefox/80.0",159,"[0.9, 0.5, 0.1]","[0.8, 0.4, 0.2]","[u'red', u'blue', u'black']","[u'left', u'middle', u'right']","[0.8, 0.4, 0.2]","[u'low', u'high', u'medium']","black",51,"right","medium","False","False",323,4350,NA
"AMNRYECHXZY34","Sun Sep 20 2020 11:09:46 GMT-0400 (Eastern Daylight Time)","Sun Sep 20 2020 11:16:39 GMT-0400 (Eastern Daylight Time)","Mozilla/5.0 (Windows NT 10.0; Win64; x64; rv:80.0) Gecko/20100101 Firefox/80.0",160,"[0.9, 0.5, 0.1]","[0.8, 0.4, 0.2]","[u'red', u'blue', u'black']","[u'left', u'middle', u'right']","[0.8, 0.4, 0.2]","[u'low', u'high', u'medium']","black",51,"right","medium","False","False",338,4300,NA
