"src_subject_id","start_time","end_time","browser","index","first_half_probabilities","second_half_probabilities","deck_color","deck_position","deck_probabilities","deck_contingencies","response_color","key_press","response_position","response_probability","reward_type","trial_type","rt","reward_tally","exclusion_reason"
"A16PGNEFSNCTXF","Sun Sep 20 2020 15:12:54 GMT-0500 (Central Daylight Time)","Sun Sep 20 2020 15:24:40 GMT-0500 (Central Daylight Time)","Mozilla/5.0 (Windows NT 6.3; Win64; x64) AppleWebKit/537.36 (KHTML, like Gecko) Chrome/83.0.4103.116 Safari/537.36",1,"[0.9, 0.5, 0.1]","[0.8, 0.4, 0.2]","[u'red', u'black', u'blue']","[u'left', u'middle', u'right']","[0.9, 0.5, 0.1]","[u'medium', u'low', u'high']","red",49,"left","medium","False","False",2433,-50,NA
"A16PGNEFSNCTXF","Sun Sep 20 2020 15:12:54 GMT-0500 (Central Daylight Time)","Sun Sep 20 2020 15:24:40 GMT-0500 (Central Daylight Time)","Mozilla/5.0 (Windows NT 6.3; Win64; x64) AppleWebKit/537.36 (KHTML, like Gecko) Chrome/83.0.4103.116 Safari/537.36",2,"[0.9, 0.5, 0.1]","[0.8, 0.4, 0.2]","[u'red', u'black', u'blue']","[u'left', u'middle', u'right']","[0.9, 0.5, 0.1]","[u'medium', u'low', u'high']","red",49,"left","medium","True","False",1689,50,NA
"A16PGNEFSNCTXF","Sun Sep 20 2020 15:12:54 GMT-0500 (Central Daylight Time)","Sun Sep 20 2020 15:24:40 GMT-0500 (Central Daylight Time)","Mozilla/5.0 (Windows NT 6.3; Win64; x64) AppleWebKit/537.36 (KHTML, like Gecko) Chrome/83.0.4103.116 Safari/537.36",3,"[0.9, 0.5, 0.1]","[0.8, 0.4, 0.2]","[u'red', u'black', u'blue']","[u'left', u'middle', u'right']","[0.9, 0.5, 0.1]","[u'medium', u'low', u'high']","black",50,"middle","low","False","False",2374,0,NA
"A16PGNEFSNCTXF","Sun Sep 20 2020 15:12:54 GMT-0500 (Central Daylight Time)","Sun Sep 20 2020 15:24:40 GMT-0500 (Central Daylight Time)","Mozilla/5.0 (Windows NT 6.3; Win64; x64) AppleWebKit/537.36 (KHTML, like Gecko) Chrome/83.0.4103.116 Safari/537.36",4,"[0.9, 0.5, 0.1]","[0.8, 0.4, 0.2]","[u'red', u'black', u'blue']","[u'left', u'middle', u'right']","[0.9, 0.5, 0.1]","[u'medium', u'low', u'high']","red",49,"left","medium","False","False",1749,-50,NA
"A16PGNEFSNCTXF","Sun Sep 20 2020 15:12:54 GMT-0500 (Central Daylight Time)","Sun Sep 20 2020 15:24:40 GMT-0500 (Central Daylight Time)","Mozilla/5.0 (Windows NT 6.3; Win64; x64) AppleWebKit/537.36 (KHTML, like Gecko) Chrome/83.0.4103.116 Safari/537.36",5,"[0.9, 0.5, 0.1]","[0.8, 0.4, 0.2]","[u'red', u'black', u'blue']","[u'left', u'middle', u'right']","[0.9, 0.5, 0.1]","[u'medium', u'low', u'high']","blue",51,"right","high","True","False",1705,50,NA
"A16PGNEFSNCTXF","Sun Sep 20 2020 15:12:54 GMT-0500 (Central Daylight Time)","Sun Sep 20 2020 15:24:40 GMT-0500 (Central Daylight Time)","Mozilla/5.0 (Windows NT 6.3; Win64; x64) AppleWebKit/537.36 (KHTML, like Gecko) Chrome/83.0.4103.116 Safari/537.36",6,"[0.9, 0.5, 0.1]","[0.8, 0.4, 0.2]","[u'red', u'black', u'blue']","[u'left', u'middle', u'right']","[0.9, 0.5, 0.1]","[u'medium', u'low', u'high']","blue",51,"right","high","True","False",1573,150,NA
"A16PGNEFSNCTXF","Sun Sep 20 2020 15:12:54 GMT-0500 (Central Daylight Time)","Sun Sep 20 2020 15:24:40 GMT-0500 (Central Daylight Time)","Mozilla/5.0 (Windows NT 6.3; Win64; x64) AppleWebKit/537.36 (KHTML, like Gecko) Chrome/83.0.4103.116 Safari/537.36",7,"[0.9, 0.5, 0.1]","[0.8, 0.4, 0.2]","[u'red', u'black', u'blue']","[u'left', u'middle', u'right']","[0.9, 0.5, 0.1]","[u'medium', u'low', u'high']","blue",51,"right","high","True","False",1025,250,NA
"A16PGNEFSNCTXF","Sun Sep 20 2020 15:12:54 GMT-0500 (Central Daylight Time)","Sun Sep 20 2020 15:24:40 GMT-0500 (Central Daylight Time)","Mozilla/5.0 (Windows NT 6.3; Win64; x64) AppleWebKit/537.36 (KHTML, like Gecko) Chrome/83.0.4103.116 Safari/537.36",8,"[0.9, 0.5, 0.1]","[0.8, 0.4, 0.2]","[u'red', u'black', u'blue']","[u'left', u'middle', u'right']","[0.9, 0.5, 0.1]","[u'medium', u'low', u'high']","blue",51,"right","high","True","False",1028,350,NA
"A16PGNEFSNCTXF","Sun Sep 20 2020 15:12:54 GMT-0500 (Central Daylight Time)","Sun Sep 20 2020 15:24:40 GMT-0500 (Central Daylight Time)","Mozilla/5.0 (Windows NT 6.3; Win64; x64) AppleWebKit/537.36 (KHTML, like Gecko) Chrome/83.0.4103.116 Safari/537.36",9,"[0.9, 0.5, 0.1]","[0.8, 0.4, 0.2]","[u'red', u'black', u'blue']","[u'left', u'middle', u'right']","[0.9, 0.5, 0.1]","[u'medium', u'low', u'high']","blue",51,"right","high","True","False",1043,450,NA
"A16PGNEFSNCTXF","Sun Sep 20 2020 15:12:54 GMT-0500 (Central Daylight Time)","Sun Sep 20 2020 15:24:40 GMT-0500 (Central Daylight Time)","Mozilla/5.0 (Windows NT 6.3; Win64; x64) AppleWebKit/537.36 (KHTML, like Gecko) Chrome/83.0.4103.116 Safari/537.36",10,"[0.9, 0.5, 0.1]","[0.8, 0.4, 0.2]","[u'red', u'black', u'blue']","[u'left', u'middle', u'right']","[0.9, 0.5, 0.1]","[u'medium', u'low', u'high']","blue",51,"right","high","True","False",1171,550,NA
"A16PGNEFSNCTXF","Sun Sep 20 2020 15:12:54 GMT-0500 (Central Daylight Time)","Sun Sep 20 2020 15:24:40 GMT-0500 (Central Daylight Time)","Mozilla/5.0 (Windows NT 6.3; Win64; x64) AppleWebKit/537.36 (KHTML, like Gecko) Chrome/83.0.4103.116 Safari/537.36",11,"[0.9, 0.5, 0.1]","[0.8, 0.4, 0.2]","[u'red', u'black', u'blue']","[u'left', u'middle', u'right']","[0.9, 0.5, 0.1]","[u'medium', u'low', u'high']","blue",51,"right","high","True","False",1219,650,NA
"A16PGNEFSNCTXF","Sun Sep 20 2020 15:12:54 GMT-0500 (Central Daylight Time)","Sun Sep 20 2020 15:24:40 GMT-0500 (Central Daylight Time)","Mozilla/5.0 (Windows NT 6.3; Win64; x64) AppleWebKit/537.36 (KHTML, like Gecko) Chrome/83.0.4103.116 Safari/537.36",12,"[0.9, 0.5, 0.1]","[0.8, 0.4, 0.2]","[u'red', u'black', u'blue']","[u'left', u'middle', u'right']","[0.9, 0.5, 0.1]","[u'medium', u'low', u'high']","blue",51,"right","high","True","False",1068,750,NA
"A16PGNEFSNCTXF","Sun Sep 20 2020 15:12:54 GMT-0500 (Central Daylight Time)","Sun Sep 20 2020 15:24:40 GMT-0500 (Central Daylight Time)","Mozilla/5.0 (Windows NT 6.3; Win64; x64) AppleWebKit/537.36 (KHTML, like Gecko) Chrome/83.0.4103.116 Safari/537.36",13,"[0.9, 0.5, 0.1]","[0.8, 0.4, 0.2]","[u'red', u'black', u'blue']","[u'left', u'middle', u'right']","[0.9, 0.5, 0.1]","[u'medium', u'low', u'high']","blue",51,"right","high","True","True",969,850,NA
"A16PGNEFSNCTXF","Sun Sep 20 2020 15:12:54 GMT-0500 (Central Daylight Time)","Sun Sep 20 2020 15:24:40 GMT-0500 (Central Daylight Time)","Mozilla/5.0 (Windows NT 6.3; Win64; x64) AppleWebKit/537.36 (KHTML, like Gecko) Chrome/83.0.4103.116 Safari/537.36",14,"[0.9, 0.5, 0.1]","[0.8, 0.4, 0.2]","[u'red', u'black', u'blue']","[u'left', u'middle', u'right']","[0.9, 0.5, 0.1]","[u'medium', u'high', u'low']","blue",51,"right","low","False","False",1149,800,NA
"A16PGNEFSNCTXF","Sun Sep 20 2020 15:12:54 GMT-0500 (Central Daylight Time)","Sun Sep 20 2020 15:24:40 GMT-0500 (Central Daylight Time)","Mozilla/5.0 (Windows NT 6.3; Win64; x64) AppleWebKit/537.36 (KHTML, like Gecko) Chrome/83.0.4103.116 Safari/537.36",15,"[0.9, 0.5, 0.1]","[0.8, 0.4, 0.2]","[u'red', u'black', u'blue']","[u'left', u'middle', u'right']","[0.9, 0.5, 0.1]","[u'medium', u'high', u'low']","black",50,"middle","high","True","False",1159,900,NA
"A16PGNEFSNCTXF","Sun Sep 20 2020 15:12:54 GMT-0500 (Central Daylight Time)","Sun Sep 20 2020 15:24:40 GMT-0500 (Central Daylight Time)","Mozilla/5.0 (Windows NT 6.3; Win64; x64) AppleWebKit/537.36 (KHTML, like Gecko) Chrome/83.0.4103.116 Safari/537.36",16,"[0.9, 0.5, 0.1]","[0.8, 0.4, 0.2]","[u'red', u'black', u'blue']","[u'left', u'middle', u'right']","[0.9, 0.5, 0.1]","[u'medium', u'high', u'low']","black",50,"middle","high","True","False",1016,1000,NA
"A16PGNEFSNCTXF","Sun Sep 20 2020 15:12:54 GMT-0500 (Central Daylight Time)","Sun Sep 20 2020 15:24:40 GMT-0500 (Central Daylight Time)","Mozilla/5.0 (Windows NT 6.3; Win64; x64) AppleWebKit/537.36 (KHTML, like Gecko) Chrome/83.0.4103.116 Safari/537.36",17,"[0.9, 0.5, 0.1]","[0.8, 0.4, 0.2]","[u'red', u'black', u'blue']","[u'left', u'middle', u'right']","[0.9, 0.5, 0.1]","[u'medium', u'high', u'low']","black",50,"middle","high","True","False",1105,1100,NA
"A16PGNEFSNCTXF","Sun Sep 20 2020 15:12:54 GMT-0500 (Central Daylight Time)","Sun Sep 20 2020 15:24:40 GMT-0500 (Central Daylight Time)","Mozilla/5.0 (Windows NT 6.3; Win64; x64) AppleWebKit/537.36 (KHTML, like Gecko) Chrome/83.0.4103.116 Safari/537.36",18,"[0.9, 0.5, 0.1]","[0.8, 0.4, 0.2]","[u'red', u'black', u'blue']","[u'left', u'middle', u'right']","[0.9, 0.5, 0.1]","[u'medium', u'high', u'low']","black",50,"middle","high","False","False",1061,1050,NA
"A16PGNEFSNCTXF","Sun Sep 20 2020 15:12:54 GMT-0500 (Central Daylight Time)","Sun Sep 20 2020 15:24:40 GMT-0500 (Central Daylight Time)","Mozilla/5.0 (Windows NT 6.3; Win64; x64) AppleWebKit/537.36 (KHTML, like Gecko) Chrome/83.0.4103.116 Safari/537.36",19,"[0.9, 0.5, 0.1]","[0.8, 0.4, 0.2]","[u'red', u'black', u'blue']","[u'left', u'middle', u'right']","[0.9, 0.5, 0.1]","[u'medium', u'high', u'low']","blue",51,"right","low","False","False",1325,1000,NA
"A16PGNEFSNCTXF","Sun Sep 20 2020 15:12:54 GMT-0500 (Central Daylight Time)","Sun Sep 20 2020 15:24:40 GMT-0500 (Central Daylight Time)","Mozilla/5.0 (Windows NT 6.3; Win64; x64) AppleWebKit/537.36 (KHTML, like Gecko) Chrome/83.0.4103.116 Safari/537.36",20,"[0.9, 0.5, 0.1]","[0.8, 0.4, 0.2]","[u'red', u'black', u'blue']","[u'left', u'middle', u'right']","[0.9, 0.5, 0.1]","[u'medium', u'high', u'low']","red",49,"left","medium","True","False",961,1100,NA
"A16PGNEFSNCTXF","Sun Sep 20 2020 15:12:54 GMT-0500 (Central Daylight Time)","Sun Sep 20 2020 15:24:40 GMT-0500 (Central Daylight Time)","Mozilla/5.0 (Windows NT 6.3; Win64; x64) AppleWebKit/537.36 (KHTML, like Gecko) Chrome/83.0.4103.116 Safari/537.36",21,"[0.9, 0.5, 0.1]","[0.8, 0.4, 0.2]","[u'red', u'black', u'blue']","[u'left', u'middle', u'right']","[0.9, 0.5, 0.1]","[u'medium', u'high', u'low']","red",49,"left","medium","False","False",995,1050,NA
"A16PGNEFSNCTXF","Sun Sep 20 2020 15:12:54 GMT-0500 (Central Daylight Time)","Sun Sep 20 2020 15:24:40 GMT-0500 (Central Daylight Time)","Mozilla/5.0 (Windows NT 6.3; Win64; x64) AppleWebKit/537.36 (KHTML, like Gecko) Chrome/83.0.4103.116 Safari/537.36",22,"[0.9, 0.5, 0.1]","[0.8, 0.4, 0.2]","[u'red', u'black', u'blue']","[u'left', u'middle', u'right']","[0.9, 0.5, 0.1]","[u'medium', u'high', u'low']","blue",51,"right","low","True","False",1312,1150,NA
"A16PGNEFSNCTXF","Sun Sep 20 2020 15:12:54 GMT-0500 (Central Daylight Time)","Sun Sep 20 2020 15:24:40 GMT-0500 (Central Daylight Time)","Mozilla/5.0 (Windows NT 6.3; Win64; x64) AppleWebKit/537.36 (KHTML, like Gecko) Chrome/83.0.4103.116 Safari/537.36",23,"[0.9, 0.5, 0.1]","[0.8, 0.4, 0.2]","[u'red', u'black', u'blue']","[u'left', u'middle', u'right']","[0.9, 0.5, 0.1]","[u'medium', u'high', u'low']","blue",51,"right","low","False","False",1108,1100,NA
"A16PGNEFSNCTXF","Sun Sep 20 2020 15:12:54 GMT-0500 (Central Daylight Time)","Sun Sep 20 2020 15:24:40 GMT-0500 (Central Daylight Time)","Mozilla/5.0 (Windows NT 6.3; Win64; x64) AppleWebKit/537.36 (KHTML, like Gecko) Chrome/83.0.4103.116 Safari/537.36",24,"[0.9, 0.5, 0.1]","[0.8, 0.4, 0.2]","[u'red', u'black', u'blue']","[u'left', u'middle', u'right']","[0.9, 0.5, 0.1]","[u'medium', u'high', u'low']","black",50,"middle","high","True","False",687,1200,NA
"A16PGNEFSNCTXF","Sun Sep 20 2020 15:12:54 GMT-0500 (Central Daylight Time)","Sun Sep 20 2020 15:24:40 GMT-0500 (Central Daylight Time)","Mozilla/5.0 (Windows NT 6.3; Win64; x64) AppleWebKit/537.36 (KHTML, like Gecko) Chrome/83.0.4103.116 Safari/537.36",25,"[0.9, 0.5, 0.1]","[0.8, 0.4, 0.2]","[u'red', u'black', u'blue']","[u'left', u'middle', u'right']","[0.9, 0.5, 0.1]","[u'medium', u'high', u'low']","red",49,"left","medium","True","False",780,1300,NA
"A16PGNEFSNCTXF","Sun Sep 20 2020 15:12:54 GMT-0500 (Central Daylight Time)","Sun Sep 20 2020 15:24:40 GMT-0500 (Central Daylight Time)","Mozilla/5.0 (Windows NT 6.3; Win64; x64) AppleWebKit/537.36 (KHTML, like Gecko) Chrome/83.0.4103.116 Safari/537.36",26,"[0.9, 0.5, 0.1]","[0.8, 0.4, 0.2]","[u'red', u'black', u'blue']","[u'left', u'middle', u'right']","[0.9, 0.5, 0.1]","[u'medium', u'high', u'low']","black",50,"middle","high","True","False",1207,1400,NA
"A16PGNEFSNCTXF","Sun Sep 20 2020 15:12:54 GMT-0500 (Central Daylight Time)","Sun Sep 20 2020 15:24:40 GMT-0500 (Central Daylight Time)","Mozilla/5.0 (Windows NT 6.3; Win64; x64) AppleWebKit/537.36 (KHTML, like Gecko) Chrome/83.0.4103.116 Safari/537.36",27,"[0.9, 0.5, 0.1]","[0.8, 0.4, 0.2]","[u'red', u'black', u'blue']","[u'left', u'middle', u'right']","[0.9, 0.5, 0.1]","[u'medium', u'high', u'low']","blue",51,"right","low","False","False",821,1350,NA
"A16PGNEFSNCTXF","Sun Sep 20 2020 15:12:54 GMT-0500 (Central Daylight Time)","Sun Sep 20 2020 15:24:40 GMT-0500 (Central Daylight Time)","Mozilla/5.0 (Windows NT 6.3; Win64; x64) AppleWebKit/537.36 (KHTML, like Gecko) Chrome/83.0.4103.116 Safari/537.36",28,"[0.9, 0.5, 0.1]","[0.8, 0.4, 0.2]","[u'red', u'black', u'blue']","[u'left', u'middle', u'right']","[0.9, 0.5, 0.1]","[u'medium', u'high', u'low']","red",49,"left","medium","False","False",1781,1300,NA
"A16PGNEFSNCTXF","Sun Sep 20 2020 15:12:54 GMT-0500 (Central Daylight Time)","Sun Sep 20 2020 15:24:40 GMT-0500 (Central Daylight Time)","Mozilla/5.0 (Windows NT 6.3; Win64; x64) AppleWebKit/537.36 (KHTML, like Gecko) Chrome/83.0.4103.116 Safari/537.36",29,"[0.9, 0.5, 0.1]","[0.8, 0.4, 0.2]","[u'red', u'black', u'blue']","[u'left', u'middle', u'right']","[0.9, 0.5, 0.1]","[u'medium', u'high', u'low']","blue",51,"right","low","False","False",3050,1250,NA
"A16PGNEFSNCTXF","Sun Sep 20 2020 15:12:54 GMT-0500 (Central Daylight Time)","Sun Sep 20 2020 15:24:40 GMT-0500 (Central Daylight Time)","Mozilla/5.0 (Windows NT 6.3; Win64; x64) AppleWebKit/537.36 (KHTML, like Gecko) Chrome/83.0.4103.116 Safari/537.36",30,"[0.9, 0.5, 0.1]","[0.8, 0.4, 0.2]","[u'red', u'black', u'blue']","[u'left', u'middle', u'right']","[0.9, 0.5, 0.1]","[u'medium', u'high', u'low']","black",50,"middle","high","True","False",1047,1350,NA
"A16PGNEFSNCTXF","Sun Sep 20 2020 15:12:54 GMT-0500 (Central Daylight Time)","Sun Sep 20 2020 15:24:40 GMT-0500 (Central Daylight Time)","Mozilla/5.0 (Windows NT 6.3; Win64; x64) AppleWebKit/537.36 (KHTML, like Gecko) Chrome/83.0.4103.116 Safari/537.36",31,"[0.9, 0.5, 0.1]","[0.8, 0.4, 0.2]","[u'red', u'black', u'blue']","[u'left', u'middle', u'right']","[0.9, 0.5, 0.1]","[u'medium', u'high', u'low']","black",50,"middle","high","True","False",826,1450,NA
"A16PGNEFSNCTXF","Sun Sep 20 2020 15:12:54 GMT-0500 (Central Daylight Time)","Sun Sep 20 2020 15:24:40 GMT-0500 (Central Daylight Time)","Mozilla/5.0 (Windows NT 6.3; Win64; x64) AppleWebKit/537.36 (KHTML, like Gecko) Chrome/83.0.4103.116 Safari/537.36",32,"[0.9, 0.5, 0.1]","[0.8, 0.4, 0.2]","[u'red', u'black', u'blue']","[u'left', u'middle', u'right']","[0.9, 0.5, 0.1]","[u'medium', u'high', u'low']","black",50,"middle","high","True","False",1172,1550,NA
"A16PGNEFSNCTXF","Sun Sep 20 2020 15:12:54 GMT-0500 (Central Daylight Time)","Sun Sep 20 2020 15:24:40 GMT-0500 (Central Daylight Time)","Mozilla/5.0 (Windows NT 6.3; Win64; x64) AppleWebKit/537.36 (KHTML, like Gecko) Chrome/83.0.4103.116 Safari/537.36",33,"[0.9, 0.5, 0.1]","[0.8, 0.4, 0.2]","[u'red', u'black', u'blue']","[u'left', u'middle', u'right']","[0.9, 0.5, 0.1]","[u'medium', u'high', u'low']","black",50,"middle","high","True","False",1582,1650,NA
"A16PGNEFSNCTXF","Sun Sep 20 2020 15:12:54 GMT-0500 (Central Daylight Time)","Sun Sep 20 2020 15:24:40 GMT-0500 (Central Daylight Time)","Mozilla/5.0 (Windows NT 6.3; Win64; x64) AppleWebKit/537.36 (KHTML, like Gecko) Chrome/83.0.4103.116 Safari/537.36",34,"[0.9, 0.5, 0.1]","[0.8, 0.4, 0.2]","[u'red', u'black', u'blue']","[u'left', u'middle', u'right']","[0.9, 0.5, 0.1]","[u'medium', u'high', u'low']","black",50,"middle","high","True","False",965,1750,NA
"A16PGNEFSNCTXF","Sun Sep 20 2020 15:12:54 GMT-0500 (Central Daylight Time)","Sun Sep 20 2020 15:24:40 GMT-0500 (Central Daylight Time)","Mozilla/5.0 (Windows NT 6.3; Win64; x64) AppleWebKit/537.36 (KHTML, like Gecko) Chrome/83.0.4103.116 Safari/537.36",35,"[0.9, 0.5, 0.1]","[0.8, 0.4, 0.2]","[u'red', u'black', u'blue']","[u'left', u'middle', u'right']","[0.9, 0.5, 0.1]","[u'medium', u'high', u'low']","black",50,"middle","high","True","False",879,1850,NA
"A16PGNEFSNCTXF","Sun Sep 20 2020 15:12:54 GMT-0500 (Central Daylight Time)","Sun Sep 20 2020 15:24:40 GMT-0500 (Central Daylight Time)","Mozilla/5.0 (Windows NT 6.3; Win64; x64) AppleWebKit/537.36 (KHTML, like Gecko) Chrome/83.0.4103.116 Safari/537.36",36,"[0.9, 0.5, 0.1]","[0.8, 0.4, 0.2]","[u'red', u'black', u'blue']","[u'left', u'middle', u'right']","[0.9, 0.5, 0.1]","[u'medium', u'high', u'low']","black",50,"middle","high","True","False",885,1950,NA
"A16PGNEFSNCTXF","Sun Sep 20 2020 15:12:54 GMT-0500 (Central Daylight Time)","Sun Sep 20 2020 15:24:40 GMT-0500 (Central Daylight Time)","Mozilla/5.0 (Windows NT 6.3; Win64; x64) AppleWebKit/537.36 (KHTML, like Gecko) Chrome/83.0.4103.116 Safari/537.36",37,"[0.9, 0.5, 0.1]","[0.8, 0.4, 0.2]","[u'red', u'black', u'blue']","[u'left', u'middle', u'right']","[0.9, 0.5, 0.1]","[u'medium', u'high', u'low']","black",50,"middle","high","False","False",1029,1900,NA
"A16PGNEFSNCTXF","Sun Sep 20 2020 15:12:54 GMT-0500 (Central Daylight Time)","Sun Sep 20 2020 15:24:40 GMT-0500 (Central Daylight Time)","Mozilla/5.0 (Windows NT 6.3; Win64; x64) AppleWebKit/537.36 (KHTML, like Gecko) Chrome/83.0.4103.116 Safari/537.36",38,"[0.9, 0.5, 0.1]","[0.8, 0.4, 0.2]","[u'red', u'black', u'blue']","[u'left', u'middle', u'right']","[0.9, 0.5, 0.1]","[u'medium', u'high', u'low']","red",49,"left","medium","False","False",955,1850,NA
"A16PGNEFSNCTXF","Sun Sep 20 2020 15:12:54 GMT-0500 (Central Daylight Time)","Sun Sep 20 2020 15:24:40 GMT-0500 (Central Daylight Time)","Mozilla/5.0 (Windows NT 6.3; Win64; x64) AppleWebKit/537.36 (KHTML, like Gecko) Chrome/83.0.4103.116 Safari/537.36",39,"[0.9, 0.5, 0.1]","[0.8, 0.4, 0.2]","[u'red', u'black', u'blue']","[u'left', u'middle', u'right']","[0.9, 0.5, 0.1]","[u'medium', u'high', u'low']","blue",51,"right","low","False","False",775,1800,NA
"A16PGNEFSNCTXF","Sun Sep 20 2020 15:12:54 GMT-0500 (Central Daylight Time)","Sun Sep 20 2020 15:24:40 GMT-0500 (Central Daylight Time)","Mozilla/5.0 (Windows NT 6.3; Win64; x64) AppleWebKit/537.36 (KHTML, like Gecko) Chrome/83.0.4103.116 Safari/537.36",40,"[0.9, 0.5, 0.1]","[0.8, 0.4, 0.2]","[u'red', u'black', u'blue']","[u'left', u'middle', u'right']","[0.9, 0.5, 0.1]","[u'medium', u'high', u'low']","black",50,"middle","high","True","False",837,1900,NA
"A16PGNEFSNCTXF","Sun Sep 20 2020 15:12:54 GMT-0500 (Central Daylight Time)","Sun Sep 20 2020 15:24:40 GMT-0500 (Central Daylight Time)","Mozilla/5.0 (Windows NT 6.3; Win64; x64) AppleWebKit/537.36 (KHTML, like Gecko) Chrome/83.0.4103.116 Safari/537.36",41,"[0.9, 0.5, 0.1]","[0.8, 0.4, 0.2]","[u'red', u'black', u'blue']","[u'left', u'middle', u'right']","[0.9, 0.5, 0.1]","[u'high', u'medium', u'low']","black",50,"middle","medium","False","False",3547,1850,NA
"A16PGNEFSNCTXF","Sun Sep 20 2020 15:12:54 GMT-0500 (Central Daylight Time)","Sun Sep 20 2020 15:24:40 GMT-0500 (Central Daylight Time)","Mozilla/5.0 (Windows NT 6.3; Win64; x64) AppleWebKit/537.36 (KHTML, like Gecko) Chrome/83.0.4103.116 Safari/537.36",42,"[0.9, 0.5, 0.1]","[0.8, 0.4, 0.2]","[u'red', u'black', u'blue']","[u'left', u'middle', u'right']","[0.9, 0.5, 0.1]","[u'high', u'medium', u'low']","red",49,"left","high","False","False",828,1800,NA
"A16PGNEFSNCTXF","Sun Sep 20 2020 15:12:54 GMT-0500 (Central Daylight Time)","Sun Sep 20 2020 15:24:40 GMT-0500 (Central Daylight Time)","Mozilla/5.0 (Windows NT 6.3; Win64; x64) AppleWebKit/537.36 (KHTML, like Gecko) Chrome/83.0.4103.116 Safari/537.36",43,"[0.9, 0.5, 0.1]","[0.8, 0.4, 0.2]","[u'red', u'black', u'blue']","[u'left', u'middle', u'right']","[0.9, 0.5, 0.1]","[u'high', u'medium', u'low']","blue",51,"right","low","False","False",726,1750,NA
"A16PGNEFSNCTXF","Sun Sep 20 2020 15:12:54 GMT-0500 (Central Daylight Time)","Sun Sep 20 2020 15:24:40 GMT-0500 (Central Daylight Time)","Mozilla/5.0 (Windows NT 6.3; Win64; x64) AppleWebKit/537.36 (KHTML, like Gecko) Chrome/83.0.4103.116 Safari/537.36",44,"[0.9, 0.5, 0.1]","[0.8, 0.4, 0.2]","[u'red', u'black', u'blue']","[u'left', u'middle', u'right']","[0.9, 0.5, 0.1]","[u'high', u'medium', u'low']","black",50,"middle","medium","True","False",378,1850,NA
"A16PGNEFSNCTXF","Sun Sep 20 2020 15:12:54 GMT-0500 (Central Daylight Time)","Sun Sep 20 2020 15:24:40 GMT-0500 (Central Daylight Time)","Mozilla/5.0 (Windows NT 6.3; Win64; x64) AppleWebKit/537.36 (KHTML, like Gecko) Chrome/83.0.4103.116 Safari/537.36",45,"[0.9, 0.5, 0.1]","[0.8, 0.4, 0.2]","[u'red', u'black', u'blue']","[u'left', u'middle', u'right']","[0.9, 0.5, 0.1]","[u'high', u'medium', u'low']","black",50,"middle","medium","True","False",485,1950,NA
"A16PGNEFSNCTXF","Sun Sep 20 2020 15:12:54 GMT-0500 (Central Daylight Time)","Sun Sep 20 2020 15:24:40 GMT-0500 (Central Daylight Time)","Mozilla/5.0 (Windows NT 6.3; Win64; x64) AppleWebKit/537.36 (KHTML, like Gecko) Chrome/83.0.4103.116 Safari/537.36",46,"[0.9, 0.5, 0.1]","[0.8, 0.4, 0.2]","[u'red', u'black', u'blue']","[u'left', u'middle', u'right']","[0.9, 0.5, 0.1]","[u'high', u'medium', u'low']","black",50,"middle","medium","False","False",461,1900,NA
"A16PGNEFSNCTXF","Sun Sep 20 2020 15:12:54 GMT-0500 (Central Daylight Time)","Sun Sep 20 2020 15:24:40 GMT-0500 (Central Daylight Time)","Mozilla/5.0 (Windows NT 6.3; Win64; x64) AppleWebKit/537.36 (KHTML, like Gecko) Chrome/83.0.4103.116 Safari/537.36",47,"[0.9, 0.5, 0.1]","[0.8, 0.4, 0.2]","[u'red', u'black', u'blue']","[u'left', u'middle', u'right']","[0.9, 0.5, 0.1]","[u'high', u'medium', u'low']","blue",51,"right","low","False","False",1206,1850,NA
"A16PGNEFSNCTXF","Sun Sep 20 2020 15:12:54 GMT-0500 (Central Daylight Time)","Sun Sep 20 2020 15:24:40 GMT-0500 (Central Daylight Time)","Mozilla/5.0 (Windows NT 6.3; Win64; x64) AppleWebKit/537.36 (KHTML, like Gecko) Chrome/83.0.4103.116 Safari/537.36",48,"[0.9, 0.5, 0.1]","[0.8, 0.4, 0.2]","[u'red', u'black', u'blue']","[u'left', u'middle', u'right']","[0.9, 0.5, 0.1]","[u'high', u'medium', u'low']","black",50,"middle","medium","True","False",764,1950,NA
"A16PGNEFSNCTXF","Sun Sep 20 2020 15:12:54 GMT-0500 (Central Daylight Time)","Sun Sep 20 2020 15:24:40 GMT-0500 (Central Daylight Time)","Mozilla/5.0 (Windows NT 6.3; Win64; x64) AppleWebKit/537.36 (KHTML, like Gecko) Chrome/83.0.4103.116 Safari/537.36",49,"[0.9, 0.5, 0.1]","[0.8, 0.4, 0.2]","[u'red', u'black', u'blue']","[u'left', u'middle', u'right']","[0.9, 0.5, 0.1]","[u'high', u'medium', u'low']","black",50,"middle","medium","False","False",541,1900,NA
"A16PGNEFSNCTXF","Sun Sep 20 2020 15:12:54 GMT-0500 (Central Daylight Time)","Sun Sep 20 2020 15:24:40 GMT-0500 (Central Daylight Time)","Mozilla/5.0 (Windows NT 6.3; Win64; x64) AppleWebKit/537.36 (KHTML, like Gecko) Chrome/83.0.4103.116 Safari/537.36",50,"[0.9, 0.5, 0.1]","[0.8, 0.4, 0.2]","[u'red', u'black', u'blue']","[u'left', u'middle', u'right']","[0.9, 0.5, 0.1]","[u'high', u'medium', u'low']","red",49,"left","high","True","False",945,2000,NA
"A16PGNEFSNCTXF","Sun Sep 20 2020 15:12:54 GMT-0500 (Central Daylight Time)","Sun Sep 20 2020 15:24:40 GMT-0500 (Central Daylight Time)","Mozilla/5.0 (Windows NT 6.3; Win64; x64) AppleWebKit/537.36 (KHTML, like Gecko) Chrome/83.0.4103.116 Safari/537.36",51,"[0.9, 0.5, 0.1]","[0.8, 0.4, 0.2]","[u'red', u'black', u'blue']","[u'left', u'middle', u'right']","[0.9, 0.5, 0.1]","[u'high', u'medium', u'low']","black",50,"middle","medium","True","False",604,2100,NA
"A16PGNEFSNCTXF","Sun Sep 20 2020 15:12:54 GMT-0500 (Central Daylight Time)","Sun Sep 20 2020 15:24:40 GMT-0500 (Central Daylight Time)","Mozilla/5.0 (Windows NT 6.3; Win64; x64) AppleWebKit/537.36 (KHTML, like Gecko) Chrome/83.0.4103.116 Safari/537.36",52,"[0.9, 0.5, 0.1]","[0.8, 0.4, 0.2]","[u'red', u'black', u'blue']","[u'left', u'middle', u'right']","[0.9, 0.5, 0.1]","[u'high', u'medium', u'low']","black",50,"middle","medium","False","False",696,2050,NA
"A16PGNEFSNCTXF","Sun Sep 20 2020 15:12:54 GMT-0500 (Central Daylight Time)","Sun Sep 20 2020 15:24:40 GMT-0500 (Central Daylight Time)","Mozilla/5.0 (Windows NT 6.3; Win64; x64) AppleWebKit/537.36 (KHTML, like Gecko) Chrome/83.0.4103.116 Safari/537.36",53,"[0.9, 0.5, 0.1]","[0.8, 0.4, 0.2]","[u'red', u'black', u'blue']","[u'left', u'middle', u'right']","[0.9, 0.5, 0.1]","[u'high', u'medium', u'low']","red",49,"left","high","True","False",588,2150,NA
"A16PGNEFSNCTXF","Sun Sep 20 2020 15:12:54 GMT-0500 (Central Daylight Time)","Sun Sep 20 2020 15:24:40 GMT-0500 (Central Daylight Time)","Mozilla/5.0 (Windows NT 6.3; Win64; x64) AppleWebKit/537.36 (KHTML, like Gecko) Chrome/83.0.4103.116 Safari/537.36",54,"[0.9, 0.5, 0.1]","[0.8, 0.4, 0.2]","[u'red', u'black', u'blue']","[u'left', u'middle', u'right']","[0.9, 0.5, 0.1]","[u'high', u'medium', u'low']","red",49,"left","high","True","False",998,2250,NA
"A16PGNEFSNCTXF","Sun Sep 20 2020 15:12:54 GMT-0500 (Central Daylight Time)","Sun Sep 20 2020 15:24:40 GMT-0500 (Central Daylight Time)","Mozilla/5.0 (Windows NT 6.3; Win64; x64) AppleWebKit/537.36 (KHTML, like Gecko) Chrome/83.0.4103.116 Safari/537.36",55,"[0.9, 0.5, 0.1]","[0.8, 0.4, 0.2]","[u'red', u'black', u'blue']","[u'left', u'middle', u'right']","[0.9, 0.5, 0.1]","[u'high', u'medium', u'low']","red",49,"left","high","False","False",585,2200,NA
"A16PGNEFSNCTXF","Sun Sep 20 2020 15:12:54 GMT-0500 (Central Daylight Time)","Sun Sep 20 2020 15:24:40 GMT-0500 (Central Daylight Time)","Mozilla/5.0 (Windows NT 6.3; Win64; x64) AppleWebKit/537.36 (KHTML, like Gecko) Chrome/83.0.4103.116 Safari/537.36",56,"[0.9, 0.5, 0.1]","[0.8, 0.4, 0.2]","[u'red', u'black', u'blue']","[u'left', u'middle', u'right']","[0.9, 0.5, 0.1]","[u'high', u'medium', u'low']","blue",51,"right","low","False","False",841,2150,NA
"A16PGNEFSNCTXF","Sun Sep 20 2020 15:12:54 GMT-0500 (Central Daylight Time)","Sun Sep 20 2020 15:24:40 GMT-0500 (Central Daylight Time)","Mozilla/5.0 (Windows NT 6.3; Win64; x64) AppleWebKit/537.36 (KHTML, like Gecko) Chrome/83.0.4103.116 Safari/537.36",57,"[0.9, 0.5, 0.1]","[0.8, 0.4, 0.2]","[u'red', u'black', u'blue']","[u'left', u'middle', u'right']","[0.9, 0.5, 0.1]","[u'high', u'medium', u'low']","black",50,"middle","medium","False","False",459,2100,NA
"A16PGNEFSNCTXF","Sun Sep 20 2020 15:12:54 GMT-0500 (Central Daylight Time)","Sun Sep 20 2020 15:24:40 GMT-0500 (Central Daylight Time)","Mozilla/5.0 (Windows NT 6.3; Win64; x64) AppleWebKit/537.36 (KHTML, like Gecko) Chrome/83.0.4103.116 Safari/537.36",58,"[0.9, 0.5, 0.1]","[0.8, 0.4, 0.2]","[u'red', u'black', u'blue']","[u'left', u'middle', u'right']","[0.9, 0.5, 0.1]","[u'high', u'medium', u'low']","red",49,"left","high","True","False",920,2200,NA
"A16PGNEFSNCTXF","Sun Sep 20 2020 15:12:54 GMT-0500 (Central Daylight Time)","Sun Sep 20 2020 15:24:40 GMT-0500 (Central Daylight Time)","Mozilla/5.0 (Windows NT 6.3; Win64; x64) AppleWebKit/537.36 (KHTML, like Gecko) Chrome/83.0.4103.116 Safari/537.36",59,"[0.9, 0.5, 0.1]","[0.8, 0.4, 0.2]","[u'red', u'black', u'blue']","[u'left', u'middle', u'right']","[0.9, 0.5, 0.1]","[u'high', u'medium', u'low']","red",49,"left","high","True","False",775,2300,NA
"A16PGNEFSNCTXF","Sun Sep 20 2020 15:12:54 GMT-0500 (Central Daylight Time)","Sun Sep 20 2020 15:24:40 GMT-0500 (Central Daylight Time)","Mozilla/5.0 (Windows NT 6.3; Win64; x64) AppleWebKit/537.36 (KHTML, like Gecko) Chrome/83.0.4103.116 Safari/537.36",60,"[0.9, 0.5, 0.1]","[0.8, 0.4, 0.2]","[u'red', u'black', u'blue']","[u'left', u'middle', u'right']","[0.9, 0.5, 0.1]","[u'high', u'medium', u'low']","red",49,"left","high","True","False",1056,2400,NA
"A16PGNEFSNCTXF","Sun Sep 20 2020 15:12:54 GMT-0500 (Central Daylight Time)","Sun Sep 20 2020 15:24:40 GMT-0500 (Central Daylight Time)","Mozilla/5.0 (Windows NT 6.3; Win64; x64) AppleWebKit/537.36 (KHTML, like Gecko) Chrome/83.0.4103.116 Safari/537.36",61,"[0.9, 0.5, 0.1]","[0.8, 0.4, 0.2]","[u'red', u'black', u'blue']","[u'left', u'middle', u'right']","[0.9, 0.5, 0.1]","[u'high', u'medium', u'low']","red",49,"left","high","True","False",874,2500,NA
"A16PGNEFSNCTXF","Sun Sep 20 2020 15:12:54 GMT-0500 (Central Daylight Time)","Sun Sep 20 2020 15:24:40 GMT-0500 (Central Daylight Time)","Mozilla/5.0 (Windows NT 6.3; Win64; x64) AppleWebKit/537.36 (KHTML, like Gecko) Chrome/83.0.4103.116 Safari/537.36",62,"[0.9, 0.5, 0.1]","[0.8, 0.4, 0.2]","[u'red', u'black', u'blue']","[u'left', u'middle', u'right']","[0.9, 0.5, 0.1]","[u'high', u'medium', u'low']","red",49,"left","high","True","False",630,2600,NA
"A16PGNEFSNCTXF","Sun Sep 20 2020 15:12:54 GMT-0500 (Central Daylight Time)","Sun Sep 20 2020 15:24:40 GMT-0500 (Central Daylight Time)","Mozilla/5.0 (Windows NT 6.3; Win64; x64) AppleWebKit/537.36 (KHTML, like Gecko) Chrome/83.0.4103.116 Safari/537.36",63,"[0.9, 0.5, 0.1]","[0.8, 0.4, 0.2]","[u'red', u'black', u'blue']","[u'left', u'middle', u'right']","[0.9, 0.5, 0.1]","[u'high', u'medium', u'low']","red",49,"left","high","True","False",605,2700,NA
"A16PGNEFSNCTXF","Sun Sep 20 2020 15:12:54 GMT-0500 (Central Daylight Time)","Sun Sep 20 2020 15:24:40 GMT-0500 (Central Daylight Time)","Mozilla/5.0 (Windows NT 6.3; Win64; x64) AppleWebKit/537.36 (KHTML, like Gecko) Chrome/83.0.4103.116 Safari/537.36",64,"[0.9, 0.5, 0.1]","[0.8, 0.4, 0.2]","[u'red', u'black', u'blue']","[u'left', u'middle', u'right']","[0.9, 0.5, 0.1]","[u'high', u'medium', u'low']","red",49,"left","high","True","False",455,2800,NA
"A16PGNEFSNCTXF","Sun Sep 20 2020 15:12:54 GMT-0500 (Central Daylight Time)","Sun Sep 20 2020 15:24:40 GMT-0500 (Central Daylight Time)","Mozilla/5.0 (Windows NT 6.3; Win64; x64) AppleWebKit/537.36 (KHTML, like Gecko) Chrome/83.0.4103.116 Safari/537.36",65,"[0.9, 0.5, 0.1]","[0.8, 0.4, 0.2]","[u'red', u'black', u'blue']","[u'left', u'middle', u'right']","[0.9, 0.5, 0.1]","[u'high', u'medium', u'low']","red",49,"left","high","True","False",556,2900,NA
"A16PGNEFSNCTXF","Sun Sep 20 2020 15:12:54 GMT-0500 (Central Daylight Time)","Sun Sep 20 2020 15:24:40 GMT-0500 (Central Daylight Time)","Mozilla/5.0 (Windows NT 6.3; Win64; x64) AppleWebKit/537.36 (KHTML, like Gecko) Chrome/83.0.4103.116 Safari/537.36",66,"[0.9, 0.5, 0.1]","[0.8, 0.4, 0.2]","[u'red', u'black', u'blue']","[u'left', u'middle', u'right']","[0.9, 0.5, 0.1]","[u'high', u'medium', u'low']","red",49,"left","high","False","True",359,2850,NA
"A16PGNEFSNCTXF","Sun Sep 20 2020 15:12:54 GMT-0500 (Central Daylight Time)","Sun Sep 20 2020 15:24:40 GMT-0500 (Central Daylight Time)","Mozilla/5.0 (Windows NT 6.3; Win64; x64) AppleWebKit/537.36 (KHTML, like Gecko) Chrome/83.0.4103.116 Safari/537.36",67,"[0.9, 0.5, 0.1]","[0.8, 0.4, 0.2]","[u'red', u'black', u'blue']","[u'left', u'middle', u'right']","[0.9, 0.5, 0.1]","[u'medium', u'low', u'high']","black",50,"middle","low","False","False",715,2800,NA
"A16PGNEFSNCTXF","Sun Sep 20 2020 15:12:54 GMT-0500 (Central Daylight Time)","Sun Sep 20 2020 15:24:40 GMT-0500 (Central Daylight Time)","Mozilla/5.0 (Windows NT 6.3; Win64; x64) AppleWebKit/537.36 (KHTML, like Gecko) Chrome/83.0.4103.116 Safari/537.36",68,"[0.9, 0.5, 0.1]","[0.8, 0.4, 0.2]","[u'red', u'black', u'blue']","[u'left', u'middle', u'right']","[0.9, 0.5, 0.1]","[u'medium', u'low', u'high']","blue",51,"right","high","True","False",512,2900,NA
"A16PGNEFSNCTXF","Sun Sep 20 2020 15:12:54 GMT-0500 (Central Daylight Time)","Sun Sep 20 2020 15:24:40 GMT-0500 (Central Daylight Time)","Mozilla/5.0 (Windows NT 6.3; Win64; x64) AppleWebKit/537.36 (KHTML, like Gecko) Chrome/83.0.4103.116 Safari/537.36",69,"[0.9, 0.5, 0.1]","[0.8, 0.4, 0.2]","[u'red', u'black', u'blue']","[u'left', u'middle', u'right']","[0.9, 0.5, 0.1]","[u'medium', u'low', u'high']","blue",51,"right","high","True","False",666,3000,NA
"A16PGNEFSNCTXF","Sun Sep 20 2020 15:12:54 GMT-0500 (Central Daylight Time)","Sun Sep 20 2020 15:24:40 GMT-0500 (Central Daylight Time)","Mozilla/5.0 (Windows NT 6.3; Win64; x64) AppleWebKit/537.36 (KHTML, like Gecko) Chrome/83.0.4103.116 Safari/537.36",70,"[0.9, 0.5, 0.1]","[0.8, 0.4, 0.2]","[u'red', u'black', u'blue']","[u'left', u'middle', u'right']","[0.9, 0.5, 0.1]","[u'medium', u'low', u'high']","blue",51,"right","high","True","False",633,3100,NA
"A16PGNEFSNCTXF","Sun Sep 20 2020 15:12:54 GMT-0500 (Central Daylight Time)","Sun Sep 20 2020 15:24:40 GMT-0500 (Central Daylight Time)","Mozilla/5.0 (Windows NT 6.3; Win64; x64) AppleWebKit/537.36 (KHTML, like Gecko) Chrome/83.0.4103.116 Safari/537.36",71,"[0.9, 0.5, 0.1]","[0.8, 0.4, 0.2]","[u'red', u'black', u'blue']","[u'left', u'middle', u'right']","[0.9, 0.5, 0.1]","[u'medium', u'low', u'high']","blue",51,"right","high","True","False",538,3200,NA
"A16PGNEFSNCTXF","Sun Sep 20 2020 15:12:54 GMT-0500 (Central Daylight Time)","Sun Sep 20 2020 15:24:40 GMT-0500 (Central Daylight Time)","Mozilla/5.0 (Windows NT 6.3; Win64; x64) AppleWebKit/537.36 (KHTML, like Gecko) Chrome/83.0.4103.116 Safari/537.36",72,"[0.9, 0.5, 0.1]","[0.8, 0.4, 0.2]","[u'red', u'black', u'blue']","[u'left', u'middle', u'right']","[0.9, 0.5, 0.1]","[u'medium', u'low', u'high']","blue",51,"right","high","True","False",523,3300,NA
"A16PGNEFSNCTXF","Sun Sep 20 2020 15:12:54 GMT-0500 (Central Daylight Time)","Sun Sep 20 2020 15:24:40 GMT-0500 (Central Daylight Time)","Mozilla/5.0 (Windows NT 6.3; Win64; x64) AppleWebKit/537.36 (KHTML, like Gecko) Chrome/83.0.4103.116 Safari/537.36",73,"[0.9, 0.5, 0.1]","[0.8, 0.4, 0.2]","[u'red', u'black', u'blue']","[u'left', u'middle', u'right']","[0.9, 0.5, 0.1]","[u'medium', u'low', u'high']","blue",51,"right","high","True","False",457,3400,NA
"A16PGNEFSNCTXF","Sun Sep 20 2020 15:12:54 GMT-0500 (Central Daylight Time)","Sun Sep 20 2020 15:24:40 GMT-0500 (Central Daylight Time)","Mozilla/5.0 (Windows NT 6.3; Win64; x64) AppleWebKit/537.36 (KHTML, like Gecko) Chrome/83.0.4103.116 Safari/537.36",74,"[0.9, 0.5, 0.1]","[0.8, 0.4, 0.2]","[u'red', u'black', u'blue']","[u'left', u'middle', u'right']","[0.9, 0.5, 0.1]","[u'medium', u'low', u'high']","blue",51,"right","high","True","False",895,3500,NA
"A16PGNEFSNCTXF","Sun Sep 20 2020 15:12:54 GMT-0500 (Central Daylight Time)","Sun Sep 20 2020 15:24:40 GMT-0500 (Central Daylight Time)","Mozilla/5.0 (Windows NT 6.3; Win64; x64) AppleWebKit/537.36 (KHTML, like Gecko) Chrome/83.0.4103.116 Safari/537.36",75,"[0.9, 0.5, 0.1]","[0.8, 0.4, 0.2]","[u'red', u'black', u'blue']","[u'left', u'middle', u'right']","[0.9, 0.5, 0.1]","[u'medium', u'low', u'high']","blue",51,"right","high","True","False",837,3600,NA
"A16PGNEFSNCTXF","Sun Sep 20 2020 15:12:54 GMT-0500 (Central Daylight Time)","Sun Sep 20 2020 15:24:40 GMT-0500 (Central Daylight Time)","Mozilla/5.0 (Windows NT 6.3; Win64; x64) AppleWebKit/537.36 (KHTML, like Gecko) Chrome/83.0.4103.116 Safari/537.36",76,"[0.9, 0.5, 0.1]","[0.8, 0.4, 0.2]","[u'red', u'black', u'blue']","[u'left', u'middle', u'right']","[0.9, 0.5, 0.1]","[u'medium', u'low', u'high']","blue",51,"right","high","True","True",507,3700,NA
"A16PGNEFSNCTXF","Sun Sep 20 2020 15:12:54 GMT-0500 (Central Daylight Time)","Sun Sep 20 2020 15:24:40 GMT-0500 (Central Daylight Time)","Mozilla/5.0 (Windows NT 6.3; Win64; x64) AppleWebKit/537.36 (KHTML, like Gecko) Chrome/83.0.4103.116 Safari/537.36",77,"[0.9, 0.5, 0.1]","[0.8, 0.4, 0.2]","[u'red', u'black', u'blue']","[u'left', u'middle', u'right']","[0.9, 0.5, 0.1]","[u'high', u'low', u'medium']","blue",51,"right","medium","True","False",858,3800,NA
"A16PGNEFSNCTXF","Sun Sep 20 2020 15:12:54 GMT-0500 (Central Daylight Time)","Sun Sep 20 2020 15:24:40 GMT-0500 (Central Daylight Time)","Mozilla/5.0 (Windows NT 6.3; Win64; x64) AppleWebKit/537.36 (KHTML, like Gecko) Chrome/83.0.4103.116 Safari/537.36",78,"[0.9, 0.5, 0.1]","[0.8, 0.4, 0.2]","[u'red', u'black', u'blue']","[u'left', u'middle', u'right']","[0.9, 0.5, 0.1]","[u'high', u'low', u'medium']","blue",51,"right","medium","False","False",451,3750,NA
"A16PGNEFSNCTXF","Sun Sep 20 2020 15:12:54 GMT-0500 (Central Daylight Time)","Sun Sep 20 2020 15:24:40 GMT-0500 (Central Daylight Time)","Mozilla/5.0 (Windows NT 6.3; Win64; x64) AppleWebKit/537.36 (KHTML, like Gecko) Chrome/83.0.4103.116 Safari/537.36",79,"[0.9, 0.5, 0.1]","[0.8, 0.4, 0.2]","[u'red', u'black', u'blue']","[u'left', u'middle', u'right']","[0.9, 0.5, 0.1]","[u'high', u'low', u'medium']","black",50,"middle","low","False","False",249,3700,NA
"A16PGNEFSNCTXF","Sun Sep 20 2020 15:12:54 GMT-0500 (Central Daylight Time)","Sun Sep 20 2020 15:24:40 GMT-0500 (Central Daylight Time)","Mozilla/5.0 (Windows NT 6.3; Win64; x64) AppleWebKit/537.36 (KHTML, like Gecko) Chrome/83.0.4103.116 Safari/537.36",80,"[0.9, 0.5, 0.1]","[0.8, 0.4, 0.2]","[u'red', u'black', u'blue']","[u'left', u'middle', u'right']","[0.9, 0.5, 0.1]","[u'high', u'low', u'medium']","red",49,"left","high","True","False",882,3800,NA
"A16PGNEFSNCTXF","Sun Sep 20 2020 15:12:54 GMT-0500 (Central Daylight Time)","Sun Sep 20 2020 15:24:40 GMT-0500 (Central Daylight Time)","Mozilla/5.0 (Windows NT 6.3; Win64; x64) AppleWebKit/537.36 (KHTML, like Gecko) Chrome/83.0.4103.116 Safari/537.36",81,"[0.9, 0.5, 0.1]","[0.8, 0.4, 0.2]","[u'red', u'black', u'blue']","[u'left', u'middle', u'right']","[0.8, 0.4, 0.2]","[u'low', u'high', u'medium']","blue",51,"right","medium","False","False",2027,3750,NA
"A16PGNEFSNCTXF","Sun Sep 20 2020 15:12:54 GMT-0500 (Central Daylight Time)","Sun Sep 20 2020 15:24:40 GMT-0500 (Central Daylight Time)","Mozilla/5.0 (Windows NT 6.3; Win64; x64) AppleWebKit/537.36 (KHTML, like Gecko) Chrome/83.0.4103.116 Safari/537.36",82,"[0.9, 0.5, 0.1]","[0.8, 0.4, 0.2]","[u'red', u'black', u'blue']","[u'left', u'middle', u'right']","[0.8, 0.4, 0.2]","[u'low', u'high', u'medium']","black",50,"middle","high","True","False",378,3850,NA
"A16PGNEFSNCTXF","Sun Sep 20 2020 15:12:54 GMT-0500 (Central Daylight Time)","Sun Sep 20 2020 15:24:40 GMT-0500 (Central Daylight Time)","Mozilla/5.0 (Windows NT 6.3; Win64; x64) AppleWebKit/537.36 (KHTML, like Gecko) Chrome/83.0.4103.116 Safari/537.36",83,"[0.9, 0.5, 0.1]","[0.8, 0.4, 0.2]","[u'red', u'black', u'blue']","[u'left', u'middle', u'right']","[0.8, 0.4, 0.2]","[u'low', u'high', u'medium']","black",50,"middle","high","True","False",721,3950,NA
"A16PGNEFSNCTXF","Sun Sep 20 2020 15:12:54 GMT-0500 (Central Daylight Time)","Sun Sep 20 2020 15:24:40 GMT-0500 (Central Daylight Time)","Mozilla/5.0 (Windows NT 6.3; Win64; x64) AppleWebKit/537.36 (KHTML, like Gecko) Chrome/83.0.4103.116 Safari/537.36",84,"[0.9, 0.5, 0.1]","[0.8, 0.4, 0.2]","[u'red', u'black', u'blue']","[u'left', u'middle', u'right']","[0.8, 0.4, 0.2]","[u'low', u'high', u'medium']","black",50,"middle","high","True","False",674,4050,NA
"A16PGNEFSNCTXF","Sun Sep 20 2020 15:12:54 GMT-0500 (Central Daylight Time)","Sun Sep 20 2020 15:24:40 GMT-0500 (Central Daylight Time)","Mozilla/5.0 (Windows NT 6.3; Win64; x64) AppleWebKit/537.36 (KHTML, like Gecko) Chrome/83.0.4103.116 Safari/537.36",85,"[0.9, 0.5, 0.1]","[0.8, 0.4, 0.2]","[u'red', u'black', u'blue']","[u'left', u'middle', u'right']","[0.8, 0.4, 0.2]","[u'low', u'high', u'medium']","black",50,"middle","high","False","False",609,4000,NA
"A16PGNEFSNCTXF","Sun Sep 20 2020 15:12:54 GMT-0500 (Central Daylight Time)","Sun Sep 20 2020 15:24:40 GMT-0500 (Central Daylight Time)","Mozilla/5.0 (Windows NT 6.3; Win64; x64) AppleWebKit/537.36 (KHTML, like Gecko) Chrome/83.0.4103.116 Safari/537.36",86,"[0.9, 0.5, 0.1]","[0.8, 0.4, 0.2]","[u'red', u'black', u'blue']","[u'left', u'middle', u'right']","[0.8, 0.4, 0.2]","[u'low', u'high', u'medium']","red",49,"left","low","False","False",468,3950,NA
"A16PGNEFSNCTXF","Sun Sep 20 2020 15:12:54 GMT-0500 (Central Daylight Time)","Sun Sep 20 2020 15:24:40 GMT-0500 (Central Daylight Time)","Mozilla/5.0 (Windows NT 6.3; Win64; x64) AppleWebKit/537.36 (KHTML, like Gecko) Chrome/83.0.4103.116 Safari/537.36",87,"[0.9, 0.5, 0.1]","[0.8, 0.4, 0.2]","[u'red', u'black', u'blue']","[u'left', u'middle', u'right']","[0.8, 0.4, 0.2]","[u'low', u'high', u'medium']","black",50,"middle","high","True","False",947,4050,NA
"A16PGNEFSNCTXF","Sun Sep 20 2020 15:12:54 GMT-0500 (Central Daylight Time)","Sun Sep 20 2020 15:24:40 GMT-0500 (Central Daylight Time)","Mozilla/5.0 (Windows NT 6.3; Win64; x64) AppleWebKit/537.36 (KHTML, like Gecko) Chrome/83.0.4103.116 Safari/537.36",88,"[0.9, 0.5, 0.1]","[0.8, 0.4, 0.2]","[u'red', u'black', u'blue']","[u'left', u'middle', u'right']","[0.8, 0.4, 0.2]","[u'low', u'high', u'medium']","black",50,"middle","high","True","False",528,4150,NA
"A16PGNEFSNCTXF","Sun Sep 20 2020 15:12:54 GMT-0500 (Central Daylight Time)","Sun Sep 20 2020 15:24:40 GMT-0500 (Central Daylight Time)","Mozilla/5.0 (Windows NT 6.3; Win64; x64) AppleWebKit/537.36 (KHTML, like Gecko) Chrome/83.0.4103.116 Safari/537.36",89,"[0.9, 0.5, 0.1]","[0.8, 0.4, 0.2]","[u'red', u'black', u'blue']","[u'left', u'middle', u'right']","[0.8, 0.4, 0.2]","[u'low', u'high', u'medium']","black",50,"middle","high","True","False",886,4250,NA
"A16PGNEFSNCTXF","Sun Sep 20 2020 15:12:54 GMT-0500 (Central Daylight Time)","Sun Sep 20 2020 15:24:40 GMT-0500 (Central Daylight Time)","Mozilla/5.0 (Windows NT 6.3; Win64; x64) AppleWebKit/537.36 (KHTML, like Gecko) Chrome/83.0.4103.116 Safari/537.36",90,"[0.9, 0.5, 0.1]","[0.8, 0.4, 0.2]","[u'red', u'black', u'blue']","[u'left', u'middle', u'right']","[0.8, 0.4, 0.2]","[u'low', u'high', u'medium']","black",50,"middle","high","True","False",714,4350,NA
"A16PGNEFSNCTXF","Sun Sep 20 2020 15:12:54 GMT-0500 (Central Daylight Time)","Sun Sep 20 2020 15:24:40 GMT-0500 (Central Daylight Time)","Mozilla/5.0 (Windows NT 6.3; Win64; x64) AppleWebKit/537.36 (KHTML, like Gecko) Chrome/83.0.4103.116 Safari/537.36",91,"[0.9, 0.5, 0.1]","[0.8, 0.4, 0.2]","[u'red', u'black', u'blue']","[u'left', u'middle', u'right']","[0.8, 0.4, 0.2]","[u'low', u'high', u'medium']","black",50,"middle","high","False","True",892,4300,NA
"A16PGNEFSNCTXF","Sun Sep 20 2020 15:12:54 GMT-0500 (Central Daylight Time)","Sun Sep 20 2020 15:24:40 GMT-0500 (Central Daylight Time)","Mozilla/5.0 (Windows NT 6.3; Win64; x64) AppleWebKit/537.36 (KHTML, like Gecko) Chrome/83.0.4103.116 Safari/537.36",92,"[0.9, 0.5, 0.1]","[0.8, 0.4, 0.2]","[u'red', u'black', u'blue']","[u'left', u'middle', u'right']","[0.8, 0.4, 0.2]","[u'high', u'low', u'medium']","red",49,"left","high","False","False",873,4250,NA
"A16PGNEFSNCTXF","Sun Sep 20 2020 15:12:54 GMT-0500 (Central Daylight Time)","Sun Sep 20 2020 15:24:40 GMT-0500 (Central Daylight Time)","Mozilla/5.0 (Windows NT 6.3; Win64; x64) AppleWebKit/537.36 (KHTML, like Gecko) Chrome/83.0.4103.116 Safari/537.36",93,"[0.9, 0.5, 0.1]","[0.8, 0.4, 0.2]","[u'red', u'black', u'blue']","[u'left', u'middle', u'right']","[0.8, 0.4, 0.2]","[u'high', u'low', u'medium']","black",50,"middle","low","False","False",685,4200,NA
"A16PGNEFSNCTXF","Sun Sep 20 2020 15:12:54 GMT-0500 (Central Daylight Time)","Sun Sep 20 2020 15:24:40 GMT-0500 (Central Daylight Time)","Mozilla/5.0 (Windows NT 6.3; Win64; x64) AppleWebKit/537.36 (KHTML, like Gecko) Chrome/83.0.4103.116 Safari/537.36",94,"[0.9, 0.5, 0.1]","[0.8, 0.4, 0.2]","[u'red', u'black', u'blue']","[u'left', u'middle', u'right']","[0.8, 0.4, 0.2]","[u'high', u'low', u'medium']","blue",51,"right","medium","False","False",591,4150,NA
"A16PGNEFSNCTXF","Sun Sep 20 2020 15:12:54 GMT-0500 (Central Daylight Time)","Sun Sep 20 2020 15:24:40 GMT-0500 (Central Daylight Time)","Mozilla/5.0 (Windows NT 6.3; Win64; x64) AppleWebKit/537.36 (KHTML, like Gecko) Chrome/83.0.4103.116 Safari/537.36",95,"[0.9, 0.5, 0.1]","[0.8, 0.4, 0.2]","[u'red', u'black', u'blue']","[u'left', u'middle', u'right']","[0.8, 0.4, 0.2]","[u'high', u'low', u'medium']","black",50,"middle","low","False","False",641,4100,NA
"A16PGNEFSNCTXF","Sun Sep 20 2020 15:12:54 GMT-0500 (Central Daylight Time)","Sun Sep 20 2020 15:24:40 GMT-0500 (Central Daylight Time)","Mozilla/5.0 (Windows NT 6.3; Win64; x64) AppleWebKit/537.36 (KHTML, like Gecko) Chrome/83.0.4103.116 Safari/537.36",96,"[0.9, 0.5, 0.1]","[0.8, 0.4, 0.2]","[u'red', u'black', u'blue']","[u'left', u'middle', u'right']","[0.8, 0.4, 0.2]","[u'high', u'low', u'medium']","red",49,"left","high","True","False",830,4200,NA
"A16PGNEFSNCTXF","Sun Sep 20 2020 15:12:54 GMT-0500 (Central Daylight Time)","Sun Sep 20 2020 15:24:40 GMT-0500 (Central Daylight Time)","Mozilla/5.0 (Windows NT 6.3; Win64; x64) AppleWebKit/537.36 (KHTML, like Gecko) Chrome/83.0.4103.116 Safari/537.36",97,"[0.9, 0.5, 0.1]","[0.8, 0.4, 0.2]","[u'red', u'black', u'blue']","[u'left', u'middle', u'right']","[0.8, 0.4, 0.2]","[u'high', u'low', u'medium']","red",49,"left","high","True","False",511,4300,NA
"A16PGNEFSNCTXF","Sun Sep 20 2020 15:12:54 GMT-0500 (Central Daylight Time)","Sun Sep 20 2020 15:24:40 GMT-0500 (Central Daylight Time)","Mozilla/5.0 (Windows NT 6.3; Win64; x64) AppleWebKit/537.36 (KHTML, like Gecko) Chrome/83.0.4103.116 Safari/537.36",98,"[0.9, 0.5, 0.1]","[0.8, 0.4, 0.2]","[u'red', u'black', u'blue']","[u'left', u'middle', u'right']","[0.8, 0.4, 0.2]","[u'high', u'low', u'medium']","red",49,"left","high","True","False",435,4400,NA
"A16PGNEFSNCTXF","Sun Sep 20 2020 15:12:54 GMT-0500 (Central Daylight Time)","Sun Sep 20 2020 15:24:40 GMT-0500 (Central Daylight Time)","Mozilla/5.0 (Windows NT 6.3; Win64; x64) AppleWebKit/537.36 (KHTML, like Gecko) Chrome/83.0.4103.116 Safari/537.36",99,"[0.9, 0.5, 0.1]","[0.8, 0.4, 0.2]","[u'red', u'black', u'blue']","[u'left', u'middle', u'right']","[0.8, 0.4, 0.2]","[u'high', u'low', u'medium']","red",49,"left","high","True","False",321,4500,NA
"A16PGNEFSNCTXF","Sun Sep 20 2020 15:12:54 GMT-0500 (Central Daylight Time)","Sun Sep 20 2020 15:24:40 GMT-0500 (Central Daylight Time)","Mozilla/5.0 (Windows NT 6.3; Win64; x64) AppleWebKit/537.36 (KHTML, like Gecko) Chrome/83.0.4103.116 Safari/537.36",100,"[0.9, 0.5, 0.1]","[0.8, 0.4, 0.2]","[u'red', u'black', u'blue']","[u'left', u'middle', u'right']","[0.8, 0.4, 0.2]","[u'high', u'low', u'medium']","red",49,"left","high","True","False",236,4600,NA
"A16PGNEFSNCTXF","Sun Sep 20 2020 15:12:54 GMT-0500 (Central Daylight Time)","Sun Sep 20 2020 15:24:40 GMT-0500 (Central Daylight Time)","Mozilla/5.0 (Windows NT 6.3; Win64; x64) AppleWebKit/537.36 (KHTML, like Gecko) Chrome/83.0.4103.116 Safari/537.36",101,"[0.9, 0.5, 0.1]","[0.8, 0.4, 0.2]","[u'red', u'black', u'blue']","[u'left', u'middle', u'right']","[0.8, 0.4, 0.2]","[u'high', u'low', u'medium']","red",49,"left","high","True","False",373,4700,NA
"A16PGNEFSNCTXF","Sun Sep 20 2020 15:12:54 GMT-0500 (Central Daylight Time)","Sun Sep 20 2020 15:24:40 GMT-0500 (Central Daylight Time)","Mozilla/5.0 (Windows NT 6.3; Win64; x64) AppleWebKit/537.36 (KHTML, like Gecko) Chrome/83.0.4103.116 Safari/537.36",102,"[0.9, 0.5, 0.1]","[0.8, 0.4, 0.2]","[u'red', u'black', u'blue']","[u'left', u'middle', u'right']","[0.8, 0.4, 0.2]","[u'high', u'low', u'medium']","red",49,"left","high","True","False",203,4800,NA
"A16PGNEFSNCTXF","Sun Sep 20 2020 15:12:54 GMT-0500 (Central Daylight Time)","Sun Sep 20 2020 15:24:40 GMT-0500 (Central Daylight Time)","Mozilla/5.0 (Windows NT 6.3; Win64; x64) AppleWebKit/537.36 (KHTML, like Gecko) Chrome/83.0.4103.116 Safari/537.36",103,"[0.9, 0.5, 0.1]","[0.8, 0.4, 0.2]","[u'red', u'black', u'blue']","[u'left', u'middle', u'right']","[0.8, 0.4, 0.2]","[u'high', u'low', u'medium']","red",49,"left","high","False","False",372,4750,NA
"A16PGNEFSNCTXF","Sun Sep 20 2020 15:12:54 GMT-0500 (Central Daylight Time)","Sun Sep 20 2020 15:24:40 GMT-0500 (Central Daylight Time)","Mozilla/5.0 (Windows NT 6.3; Win64; x64) AppleWebKit/537.36 (KHTML, like Gecko) Chrome/83.0.4103.116 Safari/537.36",104,"[0.9, 0.5, 0.1]","[0.8, 0.4, 0.2]","[u'red', u'black', u'blue']","[u'left', u'middle', u'right']","[0.8, 0.4, 0.2]","[u'high', u'low', u'medium']","black",50,"middle","low","True","False",414,4850,NA
"A16PGNEFSNCTXF","Sun Sep 20 2020 15:12:54 GMT-0500 (Central Daylight Time)","Sun Sep 20 2020 15:24:40 GMT-0500 (Central Daylight Time)","Mozilla/5.0 (Windows NT 6.3; Win64; x64) AppleWebKit/537.36 (KHTML, like Gecko) Chrome/83.0.4103.116 Safari/537.36",105,"[0.9, 0.5, 0.1]","[0.8, 0.4, 0.2]","[u'red', u'black', u'blue']","[u'left', u'middle', u'right']","[0.8, 0.4, 0.2]","[u'high', u'low', u'medium']","black",50,"middle","low","False","False",428,4800,NA
"A16PGNEFSNCTXF","Sun Sep 20 2020 15:12:54 GMT-0500 (Central Daylight Time)","Sun Sep 20 2020 15:24:40 GMT-0500 (Central Daylight Time)","Mozilla/5.0 (Windows NT 6.3; Win64; x64) AppleWebKit/537.36 (KHTML, like Gecko) Chrome/83.0.4103.116 Safari/537.36",106,"[0.9, 0.5, 0.1]","[0.8, 0.4, 0.2]","[u'red', u'black', u'blue']","[u'left', u'middle', u'right']","[0.8, 0.4, 0.2]","[u'high', u'low', u'medium']","red",49,"left","high","False","False",310,4750,NA
"A16PGNEFSNCTXF","Sun Sep 20 2020 15:12:54 GMT-0500 (Central Daylight Time)","Sun Sep 20 2020 15:24:40 GMT-0500 (Central Daylight Time)","Mozilla/5.0 (Windows NT 6.3; Win64; x64) AppleWebKit/537.36 (KHTML, like Gecko) Chrome/83.0.4103.116 Safari/537.36",107,"[0.9, 0.5, 0.1]","[0.8, 0.4, 0.2]","[u'red', u'black', u'blue']","[u'left', u'middle', u'right']","[0.8, 0.4, 0.2]","[u'high', u'low', u'medium']","red",49,"left","high","False","False",519,4700,NA
"A16PGNEFSNCTXF","Sun Sep 20 2020 15:12:54 GMT-0500 (Central Daylight Time)","Sun Sep 20 2020 15:24:40 GMT-0500 (Central Daylight Time)","Mozilla/5.0 (Windows NT 6.3; Win64; x64) AppleWebKit/537.36 (KHTML, like Gecko) Chrome/83.0.4103.116 Safari/537.36",108,"[0.9, 0.5, 0.1]","[0.8, 0.4, 0.2]","[u'red', u'black', u'blue']","[u'left', u'middle', u'right']","[0.8, 0.4, 0.2]","[u'high', u'low', u'medium']","blue",51,"right","medium","False","False",343,4650,NA
"A16PGNEFSNCTXF","Sun Sep 20 2020 15:12:54 GMT-0500 (Central Daylight Time)","Sun Sep 20 2020 15:24:40 GMT-0500 (Central Daylight Time)","Mozilla/5.0 (Windows NT 6.3; Win64; x64) AppleWebKit/537.36 (KHTML, like Gecko) Chrome/83.0.4103.116 Safari/537.36",109,"[0.9, 0.5, 0.1]","[0.8, 0.4, 0.2]","[u'red', u'black', u'blue']","[u'left', u'middle', u'right']","[0.8, 0.4, 0.2]","[u'high', u'low', u'medium']","black",50,"middle","low","False","False",813,4600,NA
"A16PGNEFSNCTXF","Sun Sep 20 2020 15:12:54 GMT-0500 (Central Daylight Time)","Sun Sep 20 2020 15:24:40 GMT-0500 (Central Daylight Time)","Mozilla/5.0 (Windows NT 6.3; Win64; x64) AppleWebKit/537.36 (KHTML, like Gecko) Chrome/83.0.4103.116 Safari/537.36",110,"[0.9, 0.5, 0.1]","[0.8, 0.4, 0.2]","[u'red', u'black', u'blue']","[u'left', u'middle', u'right']","[0.8, 0.4, 0.2]","[u'high', u'low', u'medium']","red",49,"left","high","False","False",292,4550,NA
"A16PGNEFSNCTXF","Sun Sep 20 2020 15:12:54 GMT-0500 (Central Daylight Time)","Sun Sep 20 2020 15:24:40 GMT-0500 (Central Daylight Time)","Mozilla/5.0 (Windows NT 6.3; Win64; x64) AppleWebKit/537.36 (KHTML, like Gecko) Chrome/83.0.4103.116 Safari/537.36",111,"[0.9, 0.5, 0.1]","[0.8, 0.4, 0.2]","[u'red', u'black', u'blue']","[u'left', u'middle', u'right']","[0.8, 0.4, 0.2]","[u'high', u'low', u'medium']","blue",51,"right","medium","True","False",1501,4650,NA
"A16PGNEFSNCTXF","Sun Sep 20 2020 15:12:54 GMT-0500 (Central Daylight Time)","Sun Sep 20 2020 15:24:40 GMT-0500 (Central Daylight Time)","Mozilla/5.0 (Windows NT 6.3; Win64; x64) AppleWebKit/537.36 (KHTML, like Gecko) Chrome/83.0.4103.116 Safari/537.36",112,"[0.9, 0.5, 0.1]","[0.8, 0.4, 0.2]","[u'red', u'black', u'blue']","[u'left', u'middle', u'right']","[0.8, 0.4, 0.2]","[u'high', u'low', u'medium']","blue",51,"right","medium","False","False",779,4600,NA
"A16PGNEFSNCTXF","Sun Sep 20 2020 15:12:54 GMT-0500 (Central Daylight Time)","Sun Sep 20 2020 15:24:40 GMT-0500 (Central Daylight Time)","Mozilla/5.0 (Windows NT 6.3; Win64; x64) AppleWebKit/537.36 (KHTML, like Gecko) Chrome/83.0.4103.116 Safari/537.36",113,"[0.9, 0.5, 0.1]","[0.8, 0.4, 0.2]","[u'red', u'black', u'blue']","[u'left', u'middle', u'right']","[0.8, 0.4, 0.2]","[u'high', u'low', u'medium']","black",50,"middle","low","False","False",617,4550,NA
"A16PGNEFSNCTXF","Sun Sep 20 2020 15:12:54 GMT-0500 (Central Daylight Time)","Sun Sep 20 2020 15:24:40 GMT-0500 (Central Daylight Time)","Mozilla/5.0 (Windows NT 6.3; Win64; x64) AppleWebKit/537.36 (KHTML, like Gecko) Chrome/83.0.4103.116 Safari/537.36",114,"[0.9, 0.5, 0.1]","[0.8, 0.4, 0.2]","[u'red', u'black', u'blue']","[u'left', u'middle', u'right']","[0.8, 0.4, 0.2]","[u'high', u'low', u'medium']","red",49,"left","high","True","False",813,4650,NA
"A16PGNEFSNCTXF","Sun Sep 20 2020 15:12:54 GMT-0500 (Central Daylight Time)","Sun Sep 20 2020 15:24:40 GMT-0500 (Central Daylight Time)","Mozilla/5.0 (Windows NT 6.3; Win64; x64) AppleWebKit/537.36 (KHTML, like Gecko) Chrome/83.0.4103.116 Safari/537.36",115,"[0.9, 0.5, 0.1]","[0.8, 0.4, 0.2]","[u'red', u'black', u'blue']","[u'left', u'middle', u'right']","[0.8, 0.4, 0.2]","[u'high', u'low', u'medium']","red",49,"left","high","False","False",536,4600,NA
"A16PGNEFSNCTXF","Sun Sep 20 2020 15:12:54 GMT-0500 (Central Daylight Time)","Sun Sep 20 2020 15:24:40 GMT-0500 (Central Daylight Time)","Mozilla/5.0 (Windows NT 6.3; Win64; x64) AppleWebKit/537.36 (KHTML, like Gecko) Chrome/83.0.4103.116 Safari/537.36",116,"[0.9, 0.5, 0.1]","[0.8, 0.4, 0.2]","[u'red', u'black', u'blue']","[u'left', u'middle', u'right']","[0.8, 0.4, 0.2]","[u'high', u'low', u'medium']","black",50,"middle","low","False","False",1002,4550,NA
"A16PGNEFSNCTXF","Sun Sep 20 2020 15:12:54 GMT-0500 (Central Daylight Time)","Sun Sep 20 2020 15:24:40 GMT-0500 (Central Daylight Time)","Mozilla/5.0 (Windows NT 6.3; Win64; x64) AppleWebKit/537.36 (KHTML, like Gecko) Chrome/83.0.4103.116 Safari/537.36",117,"[0.9, 0.5, 0.1]","[0.8, 0.4, 0.2]","[u'red', u'black', u'blue']","[u'left', u'middle', u'right']","[0.8, 0.4, 0.2]","[u'high', u'low', u'medium']","red",49,"left","high","True","False",1558,4650,NA
"A16PGNEFSNCTXF","Sun Sep 20 2020 15:12:54 GMT-0500 (Central Daylight Time)","Sun Sep 20 2020 15:24:40 GMT-0500 (Central Daylight Time)","Mozilla/5.0 (Windows NT 6.3; Win64; x64) AppleWebKit/537.36 (KHTML, like Gecko) Chrome/83.0.4103.116 Safari/537.36",118,"[0.9, 0.5, 0.1]","[0.8, 0.4, 0.2]","[u'red', u'black', u'blue']","[u'left', u'middle', u'right']","[0.8, 0.4, 0.2]","[u'high', u'low', u'medium']","red",49,"left","high","True","False",891,4750,NA
"A16PGNEFSNCTXF","Sun Sep 20 2020 15:12:54 GMT-0500 (Central Daylight Time)","Sun Sep 20 2020 15:24:40 GMT-0500 (Central Daylight Time)","Mozilla/5.0 (Windows NT 6.3; Win64; x64) AppleWebKit/537.36 (KHTML, like Gecko) Chrome/83.0.4103.116 Safari/537.36",119,"[0.9, 0.5, 0.1]","[0.8, 0.4, 0.2]","[u'red', u'black', u'blue']","[u'left', u'middle', u'right']","[0.8, 0.4, 0.2]","[u'high', u'low', u'medium']","red",49,"left","high","True","False",730,4850,NA
"A16PGNEFSNCTXF","Sun Sep 20 2020 15:12:54 GMT-0500 (Central Daylight Time)","Sun Sep 20 2020 15:24:40 GMT-0500 (Central Daylight Time)","Mozilla/5.0 (Windows NT 6.3; Win64; x64) AppleWebKit/537.36 (KHTML, like Gecko) Chrome/83.0.4103.116 Safari/537.36",120,"[0.9, 0.5, 0.1]","[0.8, 0.4, 0.2]","[u'red', u'black', u'blue']","[u'left', u'middle', u'right']","[0.8, 0.4, 0.2]","[u'high', u'low', u'medium']","red",49,"left","high","False","False",588,4800,NA
"A16PGNEFSNCTXF","Sun Sep 20 2020 15:12:54 GMT-0500 (Central Daylight Time)","Sun Sep 20 2020 15:24:40 GMT-0500 (Central Daylight Time)","Mozilla/5.0 (Windows NT 6.3; Win64; x64) AppleWebKit/537.36 (KHTML, like Gecko) Chrome/83.0.4103.116 Safari/537.36",121,"[0.9, 0.5, 0.1]","[0.8, 0.4, 0.2]","[u'red', u'black', u'blue']","[u'left', u'middle', u'right']","[0.8, 0.4, 0.2]","[u'low', u'high', u'medium']","black",50,"middle","high","True","False",1728,4900,NA
"A16PGNEFSNCTXF","Sun Sep 20 2020 15:12:54 GMT-0500 (Central Daylight Time)","Sun Sep 20 2020 15:24:40 GMT-0500 (Central Daylight Time)","Mozilla/5.0 (Windows NT 6.3; Win64; x64) AppleWebKit/537.36 (KHTML, like Gecko) Chrome/83.0.4103.116 Safari/537.36",122,"[0.9, 0.5, 0.1]","[0.8, 0.4, 0.2]","[u'red', u'black', u'blue']","[u'left', u'middle', u'right']","[0.8, 0.4, 0.2]","[u'low', u'high', u'medium']","black",50,"middle","high","False","False",294,4850,NA
"A16PGNEFSNCTXF","Sun Sep 20 2020 15:12:54 GMT-0500 (Central Daylight Time)","Sun Sep 20 2020 15:24:40 GMT-0500 (Central Daylight Time)","Mozilla/5.0 (Windows NT 6.3; Win64; x64) AppleWebKit/537.36 (KHTML, like Gecko) Chrome/83.0.4103.116 Safari/537.36",123,"[0.9, 0.5, 0.1]","[0.8, 0.4, 0.2]","[u'red', u'black', u'blue']","[u'left', u'middle', u'right']","[0.8, 0.4, 0.2]","[u'low', u'high', u'medium']","red",49,"left","low","False","False",1057,4800,NA
"A16PGNEFSNCTXF","Sun Sep 20 2020 15:12:54 GMT-0500 (Central Daylight Time)","Sun Sep 20 2020 15:24:40 GMT-0500 (Central Daylight Time)","Mozilla/5.0 (Windows NT 6.3; Win64; x64) AppleWebKit/537.36 (KHTML, like Gecko) Chrome/83.0.4103.116 Safari/537.36",124,"[0.9, 0.5, 0.1]","[0.8, 0.4, 0.2]","[u'red', u'black', u'blue']","[u'left', u'middle', u'right']","[0.8, 0.4, 0.2]","[u'low', u'high', u'medium']","black",50,"middle","high","True","False",742,4900,NA
"A16PGNEFSNCTXF","Sun Sep 20 2020 15:12:54 GMT-0500 (Central Daylight Time)","Sun Sep 20 2020 15:24:40 GMT-0500 (Central Daylight Time)","Mozilla/5.0 (Windows NT 6.3; Win64; x64) AppleWebKit/537.36 (KHTML, like Gecko) Chrome/83.0.4103.116 Safari/537.36",125,"[0.9, 0.5, 0.1]","[0.8, 0.4, 0.2]","[u'red', u'black', u'blue']","[u'left', u'middle', u'right']","[0.8, 0.4, 0.2]","[u'low', u'high', u'medium']","black",50,"middle","high","True","False",508,5000,NA
"A16PGNEFSNCTXF","Sun Sep 20 2020 15:12:54 GMT-0500 (Central Daylight Time)","Sun Sep 20 2020 15:24:40 GMT-0500 (Central Daylight Time)","Mozilla/5.0 (Windows NT 6.3; Win64; x64) AppleWebKit/537.36 (KHTML, like Gecko) Chrome/83.0.4103.116 Safari/537.36",126,"[0.9, 0.5, 0.1]","[0.8, 0.4, 0.2]","[u'red', u'black', u'blue']","[u'left', u'middle', u'right']","[0.8, 0.4, 0.2]","[u'low', u'high', u'medium']","black",50,"middle","high","False","False",817,4950,NA
"A16PGNEFSNCTXF","Sun Sep 20 2020 15:12:54 GMT-0500 (Central Daylight Time)","Sun Sep 20 2020 15:24:40 GMT-0500 (Central Daylight Time)","Mozilla/5.0 (Windows NT 6.3; Win64; x64) AppleWebKit/537.36 (KHTML, like Gecko) Chrome/83.0.4103.116 Safari/537.36",127,"[0.9, 0.5, 0.1]","[0.8, 0.4, 0.2]","[u'red', u'black', u'blue']","[u'left', u'middle', u'right']","[0.8, 0.4, 0.2]","[u'low', u'high', u'medium']","blue",51,"right","medium","False","False",1291,4900,NA
"A16PGNEFSNCTXF","Sun Sep 20 2020 15:12:54 GMT-0500 (Central Daylight Time)","Sun Sep 20 2020 15:24:40 GMT-0500 (Central Daylight Time)","Mozilla/5.0 (Windows NT 6.3; Win64; x64) AppleWebKit/537.36 (KHTML, like Gecko) Chrome/83.0.4103.116 Safari/537.36",128,"[0.9, 0.5, 0.1]","[0.8, 0.4, 0.2]","[u'red', u'black', u'blue']","[u'left', u'middle', u'right']","[0.8, 0.4, 0.2]","[u'low', u'high', u'medium']","red",49,"left","low","False","False",677,4850,NA
"A16PGNEFSNCTXF","Sun Sep 20 2020 15:12:54 GMT-0500 (Central Daylight Time)","Sun Sep 20 2020 15:24:40 GMT-0500 (Central Daylight Time)","Mozilla/5.0 (Windows NT 6.3; Win64; x64) AppleWebKit/537.36 (KHTML, like Gecko) Chrome/83.0.4103.116 Safari/537.36",129,"[0.9, 0.5, 0.1]","[0.8, 0.4, 0.2]","[u'red', u'black', u'blue']","[u'left', u'middle', u'right']","[0.8, 0.4, 0.2]","[u'low', u'high', u'medium']","black",50,"middle","high","True","False",350,4950,NA
"A16PGNEFSNCTXF","Sun Sep 20 2020 15:12:54 GMT-0500 (Central Daylight Time)","Sun Sep 20 2020 15:24:40 GMT-0500 (Central Daylight Time)","Mozilla/5.0 (Windows NT 6.3; Win64; x64) AppleWebKit/537.36 (KHTML, like Gecko) Chrome/83.0.4103.116 Safari/537.36",130,"[0.9, 0.5, 0.1]","[0.8, 0.4, 0.2]","[u'red', u'black', u'blue']","[u'left', u'middle', u'right']","[0.8, 0.4, 0.2]","[u'low', u'high', u'medium']","black",50,"middle","high","True","False",716,5050,NA
"A16PGNEFSNCTXF","Sun Sep 20 2020 15:12:54 GMT-0500 (Central Daylight Time)","Sun Sep 20 2020 15:24:40 GMT-0500 (Central Daylight Time)","Mozilla/5.0 (Windows NT 6.3; Win64; x64) AppleWebKit/537.36 (KHTML, like Gecko) Chrome/83.0.4103.116 Safari/537.36",131,"[0.9, 0.5, 0.1]","[0.8, 0.4, 0.2]","[u'red', u'black', u'blue']","[u'left', u'middle', u'right']","[0.8, 0.4, 0.2]","[u'low', u'high', u'medium']","black",50,"middle","high","True","False",474,5150,NA
"A16PGNEFSNCTXF","Sun Sep 20 2020 15:12:54 GMT-0500 (Central Daylight Time)","Sun Sep 20 2020 15:24:40 GMT-0500 (Central Daylight Time)","Mozilla/5.0 (Windows NT 6.3; Win64; x64) AppleWebKit/537.36 (KHTML, like Gecko) Chrome/83.0.4103.116 Safari/537.36",132,"[0.9, 0.5, 0.1]","[0.8, 0.4, 0.2]","[u'red', u'black', u'blue']","[u'left', u'middle', u'right']","[0.8, 0.4, 0.2]","[u'low', u'high', u'medium']","black",50,"middle","high","True","False",472,5250,NA
"A16PGNEFSNCTXF","Sun Sep 20 2020 15:12:54 GMT-0500 (Central Daylight Time)","Sun Sep 20 2020 15:24:40 GMT-0500 (Central Daylight Time)","Mozilla/5.0 (Windows NT 6.3; Win64; x64) AppleWebKit/537.36 (KHTML, like Gecko) Chrome/83.0.4103.116 Safari/537.36",133,"[0.9, 0.5, 0.1]","[0.8, 0.4, 0.2]","[u'red', u'black', u'blue']","[u'left', u'middle', u'right']","[0.8, 0.4, 0.2]","[u'low', u'high', u'medium']","black",50,"middle","high","True","False",449,5350,NA
"A16PGNEFSNCTXF","Sun Sep 20 2020 15:12:54 GMT-0500 (Central Daylight Time)","Sun Sep 20 2020 15:24:40 GMT-0500 (Central Daylight Time)","Mozilla/5.0 (Windows NT 6.3; Win64; x64) AppleWebKit/537.36 (KHTML, like Gecko) Chrome/83.0.4103.116 Safari/537.36",134,"[0.9, 0.5, 0.1]","[0.8, 0.4, 0.2]","[u'red', u'black', u'blue']","[u'left', u'middle', u'right']","[0.8, 0.4, 0.2]","[u'low', u'high', u'medium']","black",50,"middle","high","True","False",737,5450,NA
"A16PGNEFSNCTXF","Sun Sep 20 2020 15:12:54 GMT-0500 (Central Daylight Time)","Sun Sep 20 2020 15:24:40 GMT-0500 (Central Daylight Time)","Mozilla/5.0 (Windows NT 6.3; Win64; x64) AppleWebKit/537.36 (KHTML, like Gecko) Chrome/83.0.4103.116 Safari/537.36",135,"[0.9, 0.5, 0.1]","[0.8, 0.4, 0.2]","[u'red', u'black', u'blue']","[u'left', u'middle', u'right']","[0.8, 0.4, 0.2]","[u'low', u'high', u'medium']","black",50,"middle","high","True","False",731,5550,NA
"A16PGNEFSNCTXF","Sun Sep 20 2020 15:12:54 GMT-0500 (Central Daylight Time)","Sun Sep 20 2020 15:24:40 GMT-0500 (Central Daylight Time)","Mozilla/5.0 (Windows NT 6.3; Win64; x64) AppleWebKit/537.36 (KHTML, like Gecko) Chrome/83.0.4103.116 Safari/537.36",136,"[0.9, 0.5, 0.1]","[0.8, 0.4, 0.2]","[u'red', u'black', u'blue']","[u'left', u'middle', u'right']","[0.8, 0.4, 0.2]","[u'low', u'high', u'medium']","black",50,"middle","high","True","False",665,5650,NA
"A16PGNEFSNCTXF","Sun Sep 20 2020 15:12:54 GMT-0500 (Central Daylight Time)","Sun Sep 20 2020 15:24:40 GMT-0500 (Central Daylight Time)","Mozilla/5.0 (Windows NT 6.3; Win64; x64) AppleWebKit/537.36 (KHTML, like Gecko) Chrome/83.0.4103.116 Safari/537.36",137,"[0.9, 0.5, 0.1]","[0.8, 0.4, 0.2]","[u'red', u'black', u'blue']","[u'left', u'middle', u'right']","[0.8, 0.4, 0.2]","[u'low', u'high', u'medium']","black",50,"middle","high","True","True",758,5750,NA
"A16PGNEFSNCTXF","Sun Sep 20 2020 15:12:54 GMT-0500 (Central Daylight Time)","Sun Sep 20 2020 15:24:40 GMT-0500 (Central Daylight Time)","Mozilla/5.0 (Windows NT 6.3; Win64; x64) AppleWebKit/537.36 (KHTML, like Gecko) Chrome/83.0.4103.116 Safari/537.36",138,"[0.9, 0.5, 0.1]","[0.8, 0.4, 0.2]","[u'red', u'black', u'blue']","[u'left', u'middle', u'right']","[0.8, 0.4, 0.2]","[u'low', u'medium', u'high']","black",50,"middle","medium","True","False",758,5850,NA
"A16PGNEFSNCTXF","Sun Sep 20 2020 15:12:54 GMT-0500 (Central Daylight Time)","Sun Sep 20 2020 15:24:40 GMT-0500 (Central Daylight Time)","Mozilla/5.0 (Windows NT 6.3; Win64; x64) AppleWebKit/537.36 (KHTML, like Gecko) Chrome/83.0.4103.116 Safari/537.36",139,"[0.9, 0.5, 0.1]","[0.8, 0.4, 0.2]","[u'red', u'black', u'blue']","[u'left', u'middle', u'right']","[0.8, 0.4, 0.2]","[u'low', u'medium', u'high']","black",50,"middle","medium","False","False",659,5800,NA
"A16PGNEFSNCTXF","Sun Sep 20 2020 15:12:54 GMT-0500 (Central Daylight Time)","Sun Sep 20 2020 15:24:40 GMT-0500 (Central Daylight Time)","Mozilla/5.0 (Windows NT 6.3; Win64; x64) AppleWebKit/537.36 (KHTML, like Gecko) Chrome/83.0.4103.116 Safari/537.36",140,"[0.9, 0.5, 0.1]","[0.8, 0.4, 0.2]","[u'red', u'black', u'blue']","[u'left', u'middle', u'right']","[0.8, 0.4, 0.2]","[u'low', u'medium', u'high']","blue",51,"right","high","True","False",952,5900,NA
"A16PGNEFSNCTXF","Sun Sep 20 2020 15:12:54 GMT-0500 (Central Daylight Time)","Sun Sep 20 2020 15:24:40 GMT-0500 (Central Daylight Time)","Mozilla/5.0 (Windows NT 6.3; Win64; x64) AppleWebKit/537.36 (KHTML, like Gecko) Chrome/83.0.4103.116 Safari/537.36",141,"[0.9, 0.5, 0.1]","[0.8, 0.4, 0.2]","[u'red', u'black', u'blue']","[u'left', u'middle', u'right']","[0.8, 0.4, 0.2]","[u'low', u'medium', u'high']","blue",51,"right","high","True","False",789,6000,NA
"A16PGNEFSNCTXF","Sun Sep 20 2020 15:12:54 GMT-0500 (Central Daylight Time)","Sun Sep 20 2020 15:24:40 GMT-0500 (Central Daylight Time)","Mozilla/5.0 (Windows NT 6.3; Win64; x64) AppleWebKit/537.36 (KHTML, like Gecko) Chrome/83.0.4103.116 Safari/537.36",142,"[0.9, 0.5, 0.1]","[0.8, 0.4, 0.2]","[u'red', u'black', u'blue']","[u'left', u'middle', u'right']","[0.8, 0.4, 0.2]","[u'low', u'medium', u'high']","blue",51,"right","high","True","False",863,6100,NA
"A16PGNEFSNCTXF","Sun Sep 20 2020 15:12:54 GMT-0500 (Central Daylight Time)","Sun Sep 20 2020 15:24:40 GMT-0500 (Central Daylight Time)","Mozilla/5.0 (Windows NT 6.3; Win64; x64) AppleWebKit/537.36 (KHTML, like Gecko) Chrome/83.0.4103.116 Safari/537.36",143,"[0.9, 0.5, 0.1]","[0.8, 0.4, 0.2]","[u'red', u'black', u'blue']","[u'left', u'middle', u'right']","[0.8, 0.4, 0.2]","[u'low', u'medium', u'high']","blue",51,"right","high","True","False",740,6200,NA
"A16PGNEFSNCTXF","Sun Sep 20 2020 15:12:54 GMT-0500 (Central Daylight Time)","Sun Sep 20 2020 15:24:40 GMT-0500 (Central Daylight Time)","Mozilla/5.0 (Windows NT 6.3; Win64; x64) AppleWebKit/537.36 (KHTML, like Gecko) Chrome/83.0.4103.116 Safari/537.36",144,"[0.9, 0.5, 0.1]","[0.8, 0.4, 0.2]","[u'red', u'black', u'blue']","[u'left', u'middle', u'right']","[0.8, 0.4, 0.2]","[u'low', u'medium', u'high']","blue",51,"right","high","True","False",817,6300,NA
"A16PGNEFSNCTXF","Sun Sep 20 2020 15:12:54 GMT-0500 (Central Daylight Time)","Sun Sep 20 2020 15:24:40 GMT-0500 (Central Daylight Time)","Mozilla/5.0 (Windows NT 6.3; Win64; x64) AppleWebKit/537.36 (KHTML, like Gecko) Chrome/83.0.4103.116 Safari/537.36",145,"[0.9, 0.5, 0.1]","[0.8, 0.4, 0.2]","[u'red', u'black', u'blue']","[u'left', u'middle', u'right']","[0.8, 0.4, 0.2]","[u'low', u'medium', u'high']","blue",51,"right","high","True","False",710,6400,NA
"A16PGNEFSNCTXF","Sun Sep 20 2020 15:12:54 GMT-0500 (Central Daylight Time)","Sun Sep 20 2020 15:24:40 GMT-0500 (Central Daylight Time)","Mozilla/5.0 (Windows NT 6.3; Win64; x64) AppleWebKit/537.36 (KHTML, like Gecko) Chrome/83.0.4103.116 Safari/537.36",146,"[0.9, 0.5, 0.1]","[0.8, 0.4, 0.2]","[u'red', u'black', u'blue']","[u'left', u'middle', u'right']","[0.8, 0.4, 0.2]","[u'low', u'medium', u'high']","blue",51,"right","high","True","False",696,6500,NA
"A16PGNEFSNCTXF","Sun Sep 20 2020 15:12:54 GMT-0500 (Central Daylight Time)","Sun Sep 20 2020 15:24:40 GMT-0500 (Central Daylight Time)","Mozilla/5.0 (Windows NT 6.3; Win64; x64) AppleWebKit/537.36 (KHTML, like Gecko) Chrome/83.0.4103.116 Safari/537.36",147,"[0.9, 0.5, 0.1]","[0.8, 0.4, 0.2]","[u'red', u'black', u'blue']","[u'left', u'middle', u'right']","[0.8, 0.4, 0.2]","[u'low', u'medium', u'high']","blue",51,"right","high","True","False",719,6600,NA
"A16PGNEFSNCTXF","Sun Sep 20 2020 15:12:54 GMT-0500 (Central Daylight Time)","Sun Sep 20 2020 15:24:40 GMT-0500 (Central Daylight Time)","Mozilla/5.0 (Windows NT 6.3; Win64; x64) AppleWebKit/537.36 (KHTML, like Gecko) Chrome/83.0.4103.116 Safari/537.36",148,"[0.9, 0.5, 0.1]","[0.8, 0.4, 0.2]","[u'red', u'black', u'blue']","[u'left', u'middle', u'right']","[0.8, 0.4, 0.2]","[u'low', u'medium', u'high']","blue",51,"right","high","True","True",818,6700,NA
"A16PGNEFSNCTXF","Sun Sep 20 2020 15:12:54 GMT-0500 (Central Daylight Time)","Sun Sep 20 2020 15:24:40 GMT-0500 (Central Daylight Time)","Mozilla/5.0 (Windows NT 6.3; Win64; x64) AppleWebKit/537.36 (KHTML, like Gecko) Chrome/83.0.4103.116 Safari/537.36",149,"[0.9, 0.5, 0.1]","[0.8, 0.4, 0.2]","[u'red', u'black', u'blue']","[u'left', u'middle', u'right']","[0.8, 0.4, 0.2]","[u'high', u'low', u'medium']","blue",51,"right","medium","False","False",516,6650,NA
"A16PGNEFSNCTXF","Sun Sep 20 2020 15:12:54 GMT-0500 (Central Daylight Time)","Sun Sep 20 2020 15:24:40 GMT-0500 (Central Daylight Time)","Mozilla/5.0 (Windows NT 6.3; Win64; x64) AppleWebKit/537.36 (KHTML, like Gecko) Chrome/83.0.4103.116 Safari/537.36",150,"[0.9, 0.5, 0.1]","[0.8, 0.4, 0.2]","[u'red', u'black', u'blue']","[u'left', u'middle', u'right']","[0.8, 0.4, 0.2]","[u'high', u'low', u'medium']","red",49,"left","high","True","False",1354,6750,NA
"A16PGNEFSNCTXF","Sun Sep 20 2020 15:12:54 GMT-0500 (Central Daylight Time)","Sun Sep 20 2020 15:24:40 GMT-0500 (Central Daylight Time)","Mozilla/5.0 (Windows NT 6.3; Win64; x64) AppleWebKit/537.36 (KHTML, like Gecko) Chrome/83.0.4103.116 Safari/537.36",151,"[0.9, 0.5, 0.1]","[0.8, 0.4, 0.2]","[u'red', u'black', u'blue']","[u'left', u'middle', u'right']","[0.8, 0.4, 0.2]","[u'high', u'low', u'medium']","red",49,"left","high","True","False",628,6850,NA
"A16PGNEFSNCTXF","Sun Sep 20 2020 15:12:54 GMT-0500 (Central Daylight Time)","Sun Sep 20 2020 15:24:40 GMT-0500 (Central Daylight Time)","Mozilla/5.0 (Windows NT 6.3; Win64; x64) AppleWebKit/537.36 (KHTML, like Gecko) Chrome/83.0.4103.116 Safari/537.36",152,"[0.9, 0.5, 0.1]","[0.8, 0.4, 0.2]","[u'red', u'black', u'blue']","[u'left', u'middle', u'right']","[0.8, 0.4, 0.2]","[u'high', u'low', u'medium']","red",49,"left","high","True","False",680,6950,NA
"A16PGNEFSNCTXF","Sun Sep 20 2020 15:12:54 GMT-0500 (Central Daylight Time)","Sun Sep 20 2020 15:24:40 GMT-0500 (Central Daylight Time)","Mozilla/5.0 (Windows NT 6.3; Win64; x64) AppleWebKit/537.36 (KHTML, like Gecko) Chrome/83.0.4103.116 Safari/537.36",153,"[0.9, 0.5, 0.1]","[0.8, 0.4, 0.2]","[u'red', u'black', u'blue']","[u'left', u'middle', u'right']","[0.8, 0.4, 0.2]","[u'high', u'low', u'medium']","red",49,"left","high","True","False",550,7050,NA
"A16PGNEFSNCTXF","Sun Sep 20 2020 15:12:54 GMT-0500 (Central Daylight Time)","Sun Sep 20 2020 15:24:40 GMT-0500 (Central Daylight Time)","Mozilla/5.0 (Windows NT 6.3; Win64; x64) AppleWebKit/537.36 (KHTML, like Gecko) Chrome/83.0.4103.116 Safari/537.36",154,"[0.9, 0.5, 0.1]","[0.8, 0.4, 0.2]","[u'red', u'black', u'blue']","[u'left', u'middle', u'right']","[0.8, 0.4, 0.2]","[u'high', u'low', u'medium']","red",49,"left","high","True","False",649,7150,NA
"A16PGNEFSNCTXF","Sun Sep 20 2020 15:12:54 GMT-0500 (Central Daylight Time)","Sun Sep 20 2020 15:24:40 GMT-0500 (Central Daylight Time)","Mozilla/5.0 (Windows NT 6.3; Win64; x64) AppleWebKit/537.36 (KHTML, like Gecko) Chrome/83.0.4103.116 Safari/537.36",155,"[0.9, 0.5, 0.1]","[0.8, 0.4, 0.2]","[u'red', u'black', u'blue']","[u'left', u'middle', u'right']","[0.8, 0.4, 0.2]","[u'high', u'low', u'medium']","red",49,"left","high","True","False",682,7250,NA
"A16PGNEFSNCTXF","Sun Sep 20 2020 15:12:54 GMT-0500 (Central Daylight Time)","Sun Sep 20 2020 15:24:40 GMT-0500 (Central Daylight Time)","Mozilla/5.0 (Windows NT 6.3; Win64; x64) AppleWebKit/537.36 (KHTML, like Gecko) Chrome/83.0.4103.116 Safari/537.36",156,"[0.9, 0.5, 0.1]","[0.8, 0.4, 0.2]","[u'red', u'black', u'blue']","[u'left', u'middle', u'right']","[0.8, 0.4, 0.2]","[u'high', u'low', u'medium']","red",49,"left","high","True","False",907,7350,NA
"A16PGNEFSNCTXF","Sun Sep 20 2020 15:12:54 GMT-0500 (Central Daylight Time)","Sun Sep 20 2020 15:24:40 GMT-0500 (Central Daylight Time)","Mozilla/5.0 (Windows NT 6.3; Win64; x64) AppleWebKit/537.36 (KHTML, like Gecko) Chrome/83.0.4103.116 Safari/537.36",157,"[0.9, 0.5, 0.1]","[0.8, 0.4, 0.2]","[u'red', u'black', u'blue']","[u'left', u'middle', u'right']","[0.8, 0.4, 0.2]","[u'high', u'low', u'medium']","red",49,"left","high","True","False",390,7450,NA
"A16PGNEFSNCTXF","Sun Sep 20 2020 15:12:54 GMT-0500 (Central Daylight Time)","Sun Sep 20 2020 15:24:40 GMT-0500 (Central Daylight Time)","Mozilla/5.0 (Windows NT 6.3; Win64; x64) AppleWebKit/537.36 (KHTML, like Gecko) Chrome/83.0.4103.116 Safari/537.36",158,"[0.9, 0.5, 0.1]","[0.8, 0.4, 0.2]","[u'red', u'black', u'blue']","[u'left', u'middle', u'right']","[0.8, 0.4, 0.2]","[u'high', u'low', u'medium']","red",49,"left","high","True","True",616,7550,NA
"A16PGNEFSNCTXF","Sun Sep 20 2020 15:12:54 GMT-0500 (Central Daylight Time)","Sun Sep 20 2020 15:24:40 GMT-0500 (Central Daylight Time)","Mozilla/5.0 (Windows NT 6.3; Win64; x64) AppleWebKit/537.36 (KHTML, like Gecko) Chrome/83.0.4103.116 Safari/537.36",159,"[0.9, 0.5, 0.1]","[0.8, 0.4, 0.2]","[u'red', u'black', u'blue']","[u'left', u'middle', u'right']","[0.8, 0.4, 0.2]","[u'low', u'high', u'medium']","red",49,"left","low","True","False",479,7650,NA
"A16PGNEFSNCTXF","Sun Sep 20 2020 15:12:54 GMT-0500 (Central Daylight Time)","Sun Sep 20 2020 15:24:40 GMT-0500 (Central Daylight Time)","Mozilla/5.0 (Windows NT 6.3; Win64; x64) AppleWebKit/537.36 (KHTML, like Gecko) Chrome/83.0.4103.116 Safari/537.36",160,"[0.9, 0.5, 0.1]","[0.8, 0.4, 0.2]","[u'red', u'black', u'blue']","[u'left', u'middle', u'right']","[0.8, 0.4, 0.2]","[u'low', u'high', u'medium']","red",49,"left","low","False","False",539,7600,NA
