"src_subject_id","start_time","end_time","browser","index","first_half_probabilities","second_half_probabilities","deck_color","deck_position","deck_probabilities","deck_contingencies","response_color","key_press","response_position","response_probability","reward_type","trial_type","rt","reward_tally","exclusion_reason"
"ASTR3EPUOKEXV","Sun Sep 20 2020 10:59:16 GMT-0400 (Eastern Daylight Time)","Sun Sep 20 2020 12:23:20 GMT-0400 (Eastern Daylight Time)","Mozilla/5.0 (Windows NT 10.0; Win64; x64) AppleWebKit/537.36 (KHTML, like Gecko) Chrome/85.0.4183.102 Safari/537.36",1,"[0.9, 0.5, 0.1]","[0.8, 0.4, 0.2]","[u'red', u'black', u'blue']","[u'left', u'middle', u'right']","[0.9, 0.5, 0.1]","[u'high', u'low', u'medium']","blue",51,"right","medium",TRUE,FALSE,844,100,NA
"ASTR3EPUOKEXV","Sun Sep 20 2020 10:59:16 GMT-0400 (Eastern Daylight Time)","Sun Sep 20 2020 12:23:20 GMT-0400 (Eastern Daylight Time)","Mozilla/5.0 (Windows NT 10.0; Win64; x64) AppleWebKit/537.36 (KHTML, like Gecko) Chrome/85.0.4183.102 Safari/537.36",2,"[0.9, 0.5, 0.1]","[0.8, 0.4, 0.2]","[u'red', u'black', u'blue']","[u'left', u'middle', u'right']","[0.9, 0.5, 0.1]","[u'high', u'low', u'medium']","blue",51,"right","medium",FALSE,FALSE,298,50,NA
"ASTR3EPUOKEXV","Sun Sep 20 2020 10:59:16 GMT-0400 (Eastern Daylight Time)","Sun Sep 20 2020 12:23:20 GMT-0400 (Eastern Daylight Time)","Mozilla/5.0 (Windows NT 10.0; Win64; x64) AppleWebKit/537.36 (KHTML, like Gecko) Chrome/85.0.4183.102 Safari/537.36",3,"[0.9, 0.5, 0.1]","[0.8, 0.4, 0.2]","[u'red', u'black', u'blue']","[u'left', u'middle', u'right']","[0.9, 0.5, 0.1]","[u'high', u'low', u'medium']","black",50,"middle","low",FALSE,FALSE,677,0,NA
"ASTR3EPUOKEXV","Sun Sep 20 2020 10:59:16 GMT-0400 (Eastern Daylight Time)","Sun Sep 20 2020 12:23:20 GMT-0400 (Eastern Daylight Time)","Mozilla/5.0 (Windows NT 10.0; Win64; x64) AppleWebKit/537.36 (KHTML, like Gecko) Chrome/85.0.4183.102 Safari/537.36",4,"[0.9, 0.5, 0.1]","[0.8, 0.4, 0.2]","[u'red', u'black', u'blue']","[u'left', u'middle', u'right']","[0.9, 0.5, 0.1]","[u'high', u'low', u'medium']","blue",51,"right","medium",TRUE,FALSE,274,100,NA
"ASTR3EPUOKEXV","Sun Sep 20 2020 10:59:16 GMT-0400 (Eastern Daylight Time)","Sun Sep 20 2020 12:23:20 GMT-0400 (Eastern Daylight Time)","Mozilla/5.0 (Windows NT 10.0; Win64; x64) AppleWebKit/537.36 (KHTML, like Gecko) Chrome/85.0.4183.102 Safari/537.36",5,"[0.9, 0.5, 0.1]","[0.8, 0.4, 0.2]","[u'red', u'black', u'blue']","[u'left', u'middle', u'right']","[0.9, 0.5, 0.1]","[u'high', u'low', u'medium']","blue",51,"right","medium",FALSE,FALSE,334,50,NA
"ASTR3EPUOKEXV","Sun Sep 20 2020 10:59:16 GMT-0400 (Eastern Daylight Time)","Sun Sep 20 2020 12:23:20 GMT-0400 (Eastern Daylight Time)","Mozilla/5.0 (Windows NT 10.0; Win64; x64) AppleWebKit/537.36 (KHTML, like Gecko) Chrome/85.0.4183.102 Safari/537.36",6,"[0.9, 0.5, 0.1]","[0.8, 0.4, 0.2]","[u'red', u'black', u'blue']","[u'left', u'middle', u'right']","[0.9, 0.5, 0.1]","[u'high', u'low', u'medium']","red",49,"left","high",TRUE,FALSE,238,150,NA
"ASTR3EPUOKEXV","Sun Sep 20 2020 10:59:16 GMT-0400 (Eastern Daylight Time)","Sun Sep 20 2020 12:23:20 GMT-0400 (Eastern Daylight Time)","Mozilla/5.0 (Windows NT 10.0; Win64; x64) AppleWebKit/537.36 (KHTML, like Gecko) Chrome/85.0.4183.102 Safari/537.36",7,"[0.9, 0.5, 0.1]","[0.8, 0.4, 0.2]","[u'red', u'black', u'blue']","[u'left', u'middle', u'right']","[0.9, 0.5, 0.1]","[u'high', u'low', u'medium']","blue",51,"right","medium",FALSE,FALSE,187,100,NA
"ASTR3EPUOKEXV","Sun Sep 20 2020 10:59:16 GMT-0400 (Eastern Daylight Time)","Sun Sep 20 2020 12:23:20 GMT-0400 (Eastern Daylight Time)","Mozilla/5.0 (Windows NT 10.0; Win64; x64) AppleWebKit/537.36 (KHTML, like Gecko) Chrome/85.0.4183.102 Safari/537.36",8,"[0.9, 0.5, 0.1]","[0.8, 0.4, 0.2]","[u'red', u'black', u'blue']","[u'left', u'middle', u'right']","[0.9, 0.5, 0.1]","[u'high', u'low', u'medium']","red",49,"left","high",TRUE,FALSE,139,200,NA
"ASTR3EPUOKEXV","Sun Sep 20 2020 10:59:16 GMT-0400 (Eastern Daylight Time)","Sun Sep 20 2020 12:23:20 GMT-0400 (Eastern Daylight Time)","Mozilla/5.0 (Windows NT 10.0; Win64; x64) AppleWebKit/537.36 (KHTML, like Gecko) Chrome/85.0.4183.102 Safari/537.36",9,"[0.9, 0.5, 0.1]","[0.8, 0.4, 0.2]","[u'red', u'black', u'blue']","[u'left', u'middle', u'right']","[0.9, 0.5, 0.1]","[u'high', u'low', u'medium']","red",49,"left","high",TRUE,FALSE,137,300,NA
"ASTR3EPUOKEXV","Sun Sep 20 2020 10:59:16 GMT-0400 (Eastern Daylight Time)","Sun Sep 20 2020 12:23:20 GMT-0400 (Eastern Daylight Time)","Mozilla/5.0 (Windows NT 10.0; Win64; x64) AppleWebKit/537.36 (KHTML, like Gecko) Chrome/85.0.4183.102 Safari/537.36",10,"[0.9, 0.5, 0.1]","[0.8, 0.4, 0.2]","[u'red', u'black', u'blue']","[u'left', u'middle', u'right']","[0.9, 0.5, 0.1]","[u'high', u'low', u'medium']","black",50,"middle","low",FALSE,FALSE,214,250,NA
"ASTR3EPUOKEXV","Sun Sep 20 2020 10:59:16 GMT-0400 (Eastern Daylight Time)","Sun Sep 20 2020 12:23:20 GMT-0400 (Eastern Daylight Time)","Mozilla/5.0 (Windows NT 10.0; Win64; x64) AppleWebKit/537.36 (KHTML, like Gecko) Chrome/85.0.4183.102 Safari/537.36",11,"[0.9, 0.5, 0.1]","[0.8, 0.4, 0.2]","[u'red', u'black', u'blue']","[u'left', u'middle', u'right']","[0.9, 0.5, 0.1]","[u'high', u'low', u'medium']","red",49,"left","high",TRUE,FALSE,115,350,NA
"ASTR3EPUOKEXV","Sun Sep 20 2020 10:59:16 GMT-0400 (Eastern Daylight Time)","Sun Sep 20 2020 12:23:20 GMT-0400 (Eastern Daylight Time)","Mozilla/5.0 (Windows NT 10.0; Win64; x64) AppleWebKit/537.36 (KHTML, like Gecko) Chrome/85.0.4183.102 Safari/537.36",12,"[0.9, 0.5, 0.1]","[0.8, 0.4, 0.2]","[u'red', u'black', u'blue']","[u'left', u'middle', u'right']","[0.9, 0.5, 0.1]","[u'high', u'low', u'medium']","red",49,"left","high",TRUE,FALSE,82,450,NA
"ASTR3EPUOKEXV","Sun Sep 20 2020 10:59:16 GMT-0400 (Eastern Daylight Time)","Sun Sep 20 2020 12:23:20 GMT-0400 (Eastern Daylight Time)","Mozilla/5.0 (Windows NT 10.0; Win64; x64) AppleWebKit/537.36 (KHTML, like Gecko) Chrome/85.0.4183.102 Safari/537.36",13,"[0.9, 0.5, 0.1]","[0.8, 0.4, 0.2]","[u'red', u'black', u'blue']","[u'left', u'middle', u'right']","[0.9, 0.5, 0.1]","[u'high', u'low', u'medium']","red",49,"left","high",TRUE,FALSE,6,550,NA
"ASTR3EPUOKEXV","Sun Sep 20 2020 10:59:16 GMT-0400 (Eastern Daylight Time)","Sun Sep 20 2020 12:23:20 GMT-0400 (Eastern Daylight Time)","Mozilla/5.0 (Windows NT 10.0; Win64; x64) AppleWebKit/537.36 (KHTML, like Gecko) Chrome/85.0.4183.102 Safari/537.36",14,"[0.9, 0.5, 0.1]","[0.8, 0.4, 0.2]","[u'red', u'black', u'blue']","[u'left', u'middle', u'right']","[0.9, 0.5, 0.1]","[u'high', u'low', u'medium']","red",49,"left","high",TRUE,FALSE,532,650,NA
"ASTR3EPUOKEXV","Sun Sep 20 2020 10:59:16 GMT-0400 (Eastern Daylight Time)","Sun Sep 20 2020 12:23:20 GMT-0400 (Eastern Daylight Time)","Mozilla/5.0 (Windows NT 10.0; Win64; x64) AppleWebKit/537.36 (KHTML, like Gecko) Chrome/85.0.4183.102 Safari/537.36",15,"[0.9, 0.5, 0.1]","[0.8, 0.4, 0.2]","[u'red', u'black', u'blue']","[u'left', u'middle', u'right']","[0.9, 0.5, 0.1]","[u'high', u'low', u'medium']","red",49,"left","high",TRUE,FALSE,227,750,NA
"ASTR3EPUOKEXV","Sun Sep 20 2020 10:59:16 GMT-0400 (Eastern Daylight Time)","Sun Sep 20 2020 12:23:20 GMT-0400 (Eastern Daylight Time)","Mozilla/5.0 (Windows NT 10.0; Win64; x64) AppleWebKit/537.36 (KHTML, like Gecko) Chrome/85.0.4183.102 Safari/537.36",16,"[0.9, 0.5, 0.1]","[0.8, 0.4, 0.2]","[u'red', u'black', u'blue']","[u'left', u'middle', u'right']","[0.9, 0.5, 0.1]","[u'high', u'low', u'medium']","red",49,"left","high",TRUE,FALSE,218,850,NA
"ASTR3EPUOKEXV","Sun Sep 20 2020 10:59:16 GMT-0400 (Eastern Daylight Time)","Sun Sep 20 2020 12:23:20 GMT-0400 (Eastern Daylight Time)","Mozilla/5.0 (Windows NT 10.0; Win64; x64) AppleWebKit/537.36 (KHTML, like Gecko) Chrome/85.0.4183.102 Safari/537.36",17,"[0.9, 0.5, 0.1]","[0.8, 0.4, 0.2]","[u'red', u'black', u'blue']","[u'left', u'middle', u'right']","[0.9, 0.5, 0.1]","[u'high', u'low', u'medium']","blue",51,"right","medium",FALSE,FALSE,73,800,NA
"ASTR3EPUOKEXV","Sun Sep 20 2020 10:59:16 GMT-0400 (Eastern Daylight Time)","Sun Sep 20 2020 12:23:20 GMT-0400 (Eastern Daylight Time)","Mozilla/5.0 (Windows NT 10.0; Win64; x64) AppleWebKit/537.36 (KHTML, like Gecko) Chrome/85.0.4183.102 Safari/537.36",18,"[0.9, 0.5, 0.1]","[0.8, 0.4, 0.2]","[u'red', u'black', u'blue']","[u'left', u'middle', u'right']","[0.9, 0.5, 0.1]","[u'high', u'low', u'medium']","red",49,"left","high",TRUE,FALSE,93,900,NA
"ASTR3EPUOKEXV","Sun Sep 20 2020 10:59:16 GMT-0400 (Eastern Daylight Time)","Sun Sep 20 2020 12:23:20 GMT-0400 (Eastern Daylight Time)","Mozilla/5.0 (Windows NT 10.0; Win64; x64) AppleWebKit/537.36 (KHTML, like Gecko) Chrome/85.0.4183.102 Safari/537.36",19,"[0.9, 0.5, 0.1]","[0.8, 0.4, 0.2]","[u'red', u'black', u'blue']","[u'left', u'middle', u'right']","[0.9, 0.5, 0.1]","[u'high', u'low', u'medium']","red",49,"left","high",TRUE,FALSE,42,1000,NA
"ASTR3EPUOKEXV","Sun Sep 20 2020 10:59:16 GMT-0400 (Eastern Daylight Time)","Sun Sep 20 2020 12:23:20 GMT-0400 (Eastern Daylight Time)","Mozilla/5.0 (Windows NT 10.0; Win64; x64) AppleWebKit/537.36 (KHTML, like Gecko) Chrome/85.0.4183.102 Safari/537.36",20,"[0.9, 0.5, 0.1]","[0.8, 0.4, 0.2]","[u'red', u'black', u'blue']","[u'left', u'middle', u'right']","[0.9, 0.5, 0.1]","[u'high', u'low', u'medium']","red",49,"left","high",TRUE,TRUE,366,1100,NA
"ASTR3EPUOKEXV","Sun Sep 20 2020 10:59:16 GMT-0400 (Eastern Daylight Time)","Sun Sep 20 2020 12:23:20 GMT-0400 (Eastern Daylight Time)","Mozilla/5.0 (Windows NT 10.0; Win64; x64) AppleWebKit/537.36 (KHTML, like Gecko) Chrome/85.0.4183.102 Safari/537.36",21,"[0.9, 0.5, 0.1]","[0.8, 0.4, 0.2]","[u'red', u'black', u'blue']","[u'left', u'middle', u'right']","[0.9, 0.5, 0.1]","[u'medium', u'high', u'low']","red",49,"left","medium",TRUE,FALSE,203,1200,NA
"ASTR3EPUOKEXV","Sun Sep 20 2020 10:59:16 GMT-0400 (Eastern Daylight Time)","Sun Sep 20 2020 12:23:20 GMT-0400 (Eastern Daylight Time)","Mozilla/5.0 (Windows NT 10.0; Win64; x64) AppleWebKit/537.36 (KHTML, like Gecko) Chrome/85.0.4183.102 Safari/537.36",22,"[0.9, 0.5, 0.1]","[0.8, 0.4, 0.2]","[u'red', u'black', u'blue']","[u'left', u'middle', u'right']","[0.9, 0.5, 0.1]","[u'medium', u'high', u'low']","red",49,"left","medium",TRUE,FALSE,152,1300,NA
"ASTR3EPUOKEXV","Sun Sep 20 2020 10:59:16 GMT-0400 (Eastern Daylight Time)","Sun Sep 20 2020 12:23:20 GMT-0400 (Eastern Daylight Time)","Mozilla/5.0 (Windows NT 10.0; Win64; x64) AppleWebKit/537.36 (KHTML, like Gecko) Chrome/85.0.4183.102 Safari/537.36",23,"[0.9, 0.5, 0.1]","[0.8, 0.4, 0.2]","[u'red', u'black', u'blue']","[u'left', u'middle', u'right']","[0.9, 0.5, 0.1]","[u'medium', u'high', u'low']","red",49,"left","medium",TRUE,FALSE,261,1400,NA
"ASTR3EPUOKEXV","Sun Sep 20 2020 10:59:16 GMT-0400 (Eastern Daylight Time)","Sun Sep 20 2020 12:23:20 GMT-0400 (Eastern Daylight Time)","Mozilla/5.0 (Windows NT 10.0; Win64; x64) AppleWebKit/537.36 (KHTML, like Gecko) Chrome/85.0.4183.102 Safari/537.36",24,"[0.9, 0.5, 0.1]","[0.8, 0.4, 0.2]","[u'red', u'black', u'blue']","[u'left', u'middle', u'right']","[0.9, 0.5, 0.1]","[u'medium', u'high', u'low']","red",49,"left","medium",FALSE,FALSE,214,1350,NA
"ASTR3EPUOKEXV","Sun Sep 20 2020 10:59:16 GMT-0400 (Eastern Daylight Time)","Sun Sep 20 2020 12:23:20 GMT-0400 (Eastern Daylight Time)","Mozilla/5.0 (Windows NT 10.0; Win64; x64) AppleWebKit/537.36 (KHTML, like Gecko) Chrome/85.0.4183.102 Safari/537.36",25,"[0.9, 0.5, 0.1]","[0.8, 0.4, 0.2]","[u'red', u'black', u'blue']","[u'left', u'middle', u'right']","[0.9, 0.5, 0.1]","[u'medium', u'high', u'low']","black",50,"middle","high",TRUE,FALSE,280,1450,NA
"ASTR3EPUOKEXV","Sun Sep 20 2020 10:59:16 GMT-0400 (Eastern Daylight Time)","Sun Sep 20 2020 12:23:20 GMT-0400 (Eastern Daylight Time)","Mozilla/5.0 (Windows NT 10.0; Win64; x64) AppleWebKit/537.36 (KHTML, like Gecko) Chrome/85.0.4183.102 Safari/537.36",26,"[0.9, 0.5, 0.1]","[0.8, 0.4, 0.2]","[u'red', u'black', u'blue']","[u'left', u'middle', u'right']","[0.9, 0.5, 0.1]","[u'medium', u'high', u'low']","black",50,"middle","high",TRUE,FALSE,259,1550,NA
"ASTR3EPUOKEXV","Sun Sep 20 2020 10:59:16 GMT-0400 (Eastern Daylight Time)","Sun Sep 20 2020 12:23:20 GMT-0400 (Eastern Daylight Time)","Mozilla/5.0 (Windows NT 10.0; Win64; x64) AppleWebKit/537.36 (KHTML, like Gecko) Chrome/85.0.4183.102 Safari/537.36",27,"[0.9, 0.5, 0.1]","[0.8, 0.4, 0.2]","[u'red', u'black', u'blue']","[u'left', u'middle', u'right']","[0.9, 0.5, 0.1]","[u'medium', u'high', u'low']","black",50,"middle","high",TRUE,FALSE,112,1650,NA
"ASTR3EPUOKEXV","Sun Sep 20 2020 10:59:16 GMT-0400 (Eastern Daylight Time)","Sun Sep 20 2020 12:23:20 GMT-0400 (Eastern Daylight Time)","Mozilla/5.0 (Windows NT 10.0; Win64; x64) AppleWebKit/537.36 (KHTML, like Gecko) Chrome/85.0.4183.102 Safari/537.36",28,"[0.9, 0.5, 0.1]","[0.8, 0.4, 0.2]","[u'red', u'black', u'blue']","[u'left', u'middle', u'right']","[0.9, 0.5, 0.1]","[u'medium', u'high', u'low']","black",50,"middle","high",FALSE,FALSE,195,1600,NA
"ASTR3EPUOKEXV","Sun Sep 20 2020 10:59:16 GMT-0400 (Eastern Daylight Time)","Sun Sep 20 2020 12:23:20 GMT-0400 (Eastern Daylight Time)","Mozilla/5.0 (Windows NT 10.0; Win64; x64) AppleWebKit/537.36 (KHTML, like Gecko) Chrome/85.0.4183.102 Safari/537.36",29,"[0.9, 0.5, 0.1]","[0.8, 0.4, 0.2]","[u'red', u'black', u'blue']","[u'left', u'middle', u'right']","[0.9, 0.5, 0.1]","[u'medium', u'high', u'low']","red",49,"left","medium",FALSE,FALSE,241,1550,NA
"ASTR3EPUOKEXV","Sun Sep 20 2020 10:59:16 GMT-0400 (Eastern Daylight Time)","Sun Sep 20 2020 12:23:20 GMT-0400 (Eastern Daylight Time)","Mozilla/5.0 (Windows NT 10.0; Win64; x64) AppleWebKit/537.36 (KHTML, like Gecko) Chrome/85.0.4183.102 Safari/537.36",30,"[0.9, 0.5, 0.1]","[0.8, 0.4, 0.2]","[u'red', u'black', u'blue']","[u'left', u'middle', u'right']","[0.9, 0.5, 0.1]","[u'medium', u'high', u'low']","black",50,"middle","high",FALSE,FALSE,261,1500,NA
"ASTR3EPUOKEXV","Sun Sep 20 2020 10:59:16 GMT-0400 (Eastern Daylight Time)","Sun Sep 20 2020 12:23:20 GMT-0400 (Eastern Daylight Time)","Mozilla/5.0 (Windows NT 10.0; Win64; x64) AppleWebKit/537.36 (KHTML, like Gecko) Chrome/85.0.4183.102 Safari/537.36",31,"[0.9, 0.5, 0.1]","[0.8, 0.4, 0.2]","[u'red', u'black', u'blue']","[u'left', u'middle', u'right']","[0.9, 0.5, 0.1]","[u'medium', u'high', u'low']","blue",51,"right","low",FALSE,FALSE,684,1450,NA
"ASTR3EPUOKEXV","Sun Sep 20 2020 10:59:16 GMT-0400 (Eastern Daylight Time)","Sun Sep 20 2020 12:23:20 GMT-0400 (Eastern Daylight Time)","Mozilla/5.0 (Windows NT 10.0; Win64; x64) AppleWebKit/537.36 (KHTML, like Gecko) Chrome/85.0.4183.102 Safari/537.36",32,"[0.9, 0.5, 0.1]","[0.8, 0.4, 0.2]","[u'red', u'black', u'blue']","[u'left', u'middle', u'right']","[0.9, 0.5, 0.1]","[u'medium', u'high', u'low']","red",49,"left","medium",TRUE,FALSE,244,1550,NA
"ASTR3EPUOKEXV","Sun Sep 20 2020 10:59:16 GMT-0400 (Eastern Daylight Time)","Sun Sep 20 2020 12:23:20 GMT-0400 (Eastern Daylight Time)","Mozilla/5.0 (Windows NT 10.0; Win64; x64) AppleWebKit/537.36 (KHTML, like Gecko) Chrome/85.0.4183.102 Safari/537.36",33,"[0.9, 0.5, 0.1]","[0.8, 0.4, 0.2]","[u'red', u'black', u'blue']","[u'left', u'middle', u'right']","[0.9, 0.5, 0.1]","[u'medium', u'high', u'low']","red",49,"left","medium",FALSE,FALSE,123,1500,NA
"ASTR3EPUOKEXV","Sun Sep 20 2020 10:59:16 GMT-0400 (Eastern Daylight Time)","Sun Sep 20 2020 12:23:20 GMT-0400 (Eastern Daylight Time)","Mozilla/5.0 (Windows NT 10.0; Win64; x64) AppleWebKit/537.36 (KHTML, like Gecko) Chrome/85.0.4183.102 Safari/537.36",34,"[0.9, 0.5, 0.1]","[0.8, 0.4, 0.2]","[u'red', u'black', u'blue']","[u'left', u'middle', u'right']","[0.9, 0.5, 0.1]","[u'medium', u'high', u'low']","red",49,"left","medium",TRUE,FALSE,225,1600,NA
"ASTR3EPUOKEXV","Sun Sep 20 2020 10:59:16 GMT-0400 (Eastern Daylight Time)","Sun Sep 20 2020 12:23:20 GMT-0400 (Eastern Daylight Time)","Mozilla/5.0 (Windows NT 10.0; Win64; x64) AppleWebKit/537.36 (KHTML, like Gecko) Chrome/85.0.4183.102 Safari/537.36",35,"[0.9, 0.5, 0.1]","[0.8, 0.4, 0.2]","[u'red', u'black', u'blue']","[u'left', u'middle', u'right']","[0.9, 0.5, 0.1]","[u'medium', u'high', u'low']","red",49,"left","medium",TRUE,FALSE,171,1700,NA
"ASTR3EPUOKEXV","Sun Sep 20 2020 10:59:16 GMT-0400 (Eastern Daylight Time)","Sun Sep 20 2020 12:23:20 GMT-0400 (Eastern Daylight Time)","Mozilla/5.0 (Windows NT 10.0; Win64; x64) AppleWebKit/537.36 (KHTML, like Gecko) Chrome/85.0.4183.102 Safari/537.36",36,"[0.9, 0.5, 0.1]","[0.8, 0.4, 0.2]","[u'red', u'black', u'blue']","[u'left', u'middle', u'right']","[0.9, 0.5, 0.1]","[u'medium', u'high', u'low']","red",49,"left","medium",TRUE,FALSE,178,1800,NA
"ASTR3EPUOKEXV","Sun Sep 20 2020 10:59:16 GMT-0400 (Eastern Daylight Time)","Sun Sep 20 2020 12:23:20 GMT-0400 (Eastern Daylight Time)","Mozilla/5.0 (Windows NT 10.0; Win64; x64) AppleWebKit/537.36 (KHTML, like Gecko) Chrome/85.0.4183.102 Safari/537.36",37,"[0.9, 0.5, 0.1]","[0.8, 0.4, 0.2]","[u'red', u'black', u'blue']","[u'left', u'middle', u'right']","[0.9, 0.5, 0.1]","[u'medium', u'high', u'low']","red",49,"left","medium",FALSE,FALSE,364,1750,NA
"ASTR3EPUOKEXV","Sun Sep 20 2020 10:59:16 GMT-0400 (Eastern Daylight Time)","Sun Sep 20 2020 12:23:20 GMT-0400 (Eastern Daylight Time)","Mozilla/5.0 (Windows NT 10.0; Win64; x64) AppleWebKit/537.36 (KHTML, like Gecko) Chrome/85.0.4183.102 Safari/537.36",38,"[0.9, 0.5, 0.1]","[0.8, 0.4, 0.2]","[u'red', u'black', u'blue']","[u'left', u'middle', u'right']","[0.9, 0.5, 0.1]","[u'medium', u'high', u'low']","black",50,"middle","high",TRUE,FALSE,152,1850,NA
"ASTR3EPUOKEXV","Sun Sep 20 2020 10:59:16 GMT-0400 (Eastern Daylight Time)","Sun Sep 20 2020 12:23:20 GMT-0400 (Eastern Daylight Time)","Mozilla/5.0 (Windows NT 10.0; Win64; x64) AppleWebKit/537.36 (KHTML, like Gecko) Chrome/85.0.4183.102 Safari/537.36",39,"[0.9, 0.5, 0.1]","[0.8, 0.4, 0.2]","[u'red', u'black', u'blue']","[u'left', u'middle', u'right']","[0.9, 0.5, 0.1]","[u'medium', u'high', u'low']","black",50,"middle","high",TRUE,FALSE,47,1950,NA
"ASTR3EPUOKEXV","Sun Sep 20 2020 10:59:16 GMT-0400 (Eastern Daylight Time)","Sun Sep 20 2020 12:23:20 GMT-0400 (Eastern Daylight Time)","Mozilla/5.0 (Windows NT 10.0; Win64; x64) AppleWebKit/537.36 (KHTML, like Gecko) Chrome/85.0.4183.102 Safari/537.36",40,"[0.9, 0.5, 0.1]","[0.8, 0.4, 0.2]","[u'red', u'black', u'blue']","[u'left', u'middle', u'right']","[0.9, 0.5, 0.1]","[u'medium', u'high', u'low']","black",50,"middle","high",TRUE,FALSE,396,2050,NA
"ASTR3EPUOKEXV","Sun Sep 20 2020 10:59:16 GMT-0400 (Eastern Daylight Time)","Sun Sep 20 2020 12:23:20 GMT-0400 (Eastern Daylight Time)","Mozilla/5.0 (Windows NT 10.0; Win64; x64) AppleWebKit/537.36 (KHTML, like Gecko) Chrome/85.0.4183.102 Safari/537.36",41,"[0.9, 0.5, 0.1]","[0.8, 0.4, 0.2]","[u'red', u'black', u'blue']","[u'left', u'middle', u'right']","[0.9, 0.5, 0.1]","[u'high', u'low', u'medium']","black",50,"middle","low",FALSE,FALSE,309,2000,NA
"ASTR3EPUOKEXV","Sun Sep 20 2020 10:59:16 GMT-0400 (Eastern Daylight Time)","Sun Sep 20 2020 12:23:20 GMT-0400 (Eastern Daylight Time)","Mozilla/5.0 (Windows NT 10.0; Win64; x64) AppleWebKit/537.36 (KHTML, like Gecko) Chrome/85.0.4183.102 Safari/537.36",42,"[0.9, 0.5, 0.1]","[0.8, 0.4, 0.2]","[u'red', u'black', u'blue']","[u'left', u'middle', u'right']","[0.9, 0.5, 0.1]","[u'high', u'low', u'medium']","blue",51,"right","medium",TRUE,FALSE,190,2100,NA
"ASTR3EPUOKEXV","Sun Sep 20 2020 10:59:16 GMT-0400 (Eastern Daylight Time)","Sun Sep 20 2020 12:23:20 GMT-0400 (Eastern Daylight Time)","Mozilla/5.0 (Windows NT 10.0; Win64; x64) AppleWebKit/537.36 (KHTML, like Gecko) Chrome/85.0.4183.102 Safari/537.36",43,"[0.9, 0.5, 0.1]","[0.8, 0.4, 0.2]","[u'red', u'black', u'blue']","[u'left', u'middle', u'right']","[0.9, 0.5, 0.1]","[u'high', u'low', u'medium']","blue",51,"right","medium",TRUE,FALSE,102,2200,NA
"ASTR3EPUOKEXV","Sun Sep 20 2020 10:59:16 GMT-0400 (Eastern Daylight Time)","Sun Sep 20 2020 12:23:20 GMT-0400 (Eastern Daylight Time)","Mozilla/5.0 (Windows NT 10.0; Win64; x64) AppleWebKit/537.36 (KHTML, like Gecko) Chrome/85.0.4183.102 Safari/537.36",44,"[0.9, 0.5, 0.1]","[0.8, 0.4, 0.2]","[u'red', u'black', u'blue']","[u'left', u'middle', u'right']","[0.9, 0.5, 0.1]","[u'high', u'low', u'medium']","blue",51,"right","medium",TRUE,FALSE,514,2300,NA
"ASTR3EPUOKEXV","Sun Sep 20 2020 10:59:16 GMT-0400 (Eastern Daylight Time)","Sun Sep 20 2020 12:23:20 GMT-0400 (Eastern Daylight Time)","Mozilla/5.0 (Windows NT 10.0; Win64; x64) AppleWebKit/537.36 (KHTML, like Gecko) Chrome/85.0.4183.102 Safari/537.36",45,"[0.9, 0.5, 0.1]","[0.8, 0.4, 0.2]","[u'red', u'black', u'blue']","[u'left', u'middle', u'right']","[0.9, 0.5, 0.1]","[u'high', u'low', u'medium']","blue",51,"right","medium",FALSE,FALSE,205,2250,NA
"ASTR3EPUOKEXV","Sun Sep 20 2020 10:59:16 GMT-0400 (Eastern Daylight Time)","Sun Sep 20 2020 12:23:20 GMT-0400 (Eastern Daylight Time)","Mozilla/5.0 (Windows NT 10.0; Win64; x64) AppleWebKit/537.36 (KHTML, like Gecko) Chrome/85.0.4183.102 Safari/537.36",46,"[0.9, 0.5, 0.1]","[0.8, 0.4, 0.2]","[u'red', u'black', u'blue']","[u'left', u'middle', u'right']","[0.9, 0.5, 0.1]","[u'high', u'low', u'medium']","red",49,"left","high",FALSE,FALSE,212,2200,NA
"ASTR3EPUOKEXV","Sun Sep 20 2020 10:59:16 GMT-0400 (Eastern Daylight Time)","Sun Sep 20 2020 12:23:20 GMT-0400 (Eastern Daylight Time)","Mozilla/5.0 (Windows NT 10.0; Win64; x64) AppleWebKit/537.36 (KHTML, like Gecko) Chrome/85.0.4183.102 Safari/537.36",47,"[0.9, 0.5, 0.1]","[0.8, 0.4, 0.2]","[u'red', u'black', u'blue']","[u'left', u'middle', u'right']","[0.9, 0.5, 0.1]","[u'high', u'low', u'medium']","black",50,"middle","low",FALSE,FALSE,227,2150,NA
"ASTR3EPUOKEXV","Sun Sep 20 2020 10:59:16 GMT-0400 (Eastern Daylight Time)","Sun Sep 20 2020 12:23:20 GMT-0400 (Eastern Daylight Time)","Mozilla/5.0 (Windows NT 10.0; Win64; x64) AppleWebKit/537.36 (KHTML, like Gecko) Chrome/85.0.4183.102 Safari/537.36",48,"[0.9, 0.5, 0.1]","[0.8, 0.4, 0.2]","[u'red', u'black', u'blue']","[u'left', u'middle', u'right']","[0.9, 0.5, 0.1]","[u'high', u'low', u'medium']","blue",51,"right","medium",FALSE,FALSE,225,2100,NA
"ASTR3EPUOKEXV","Sun Sep 20 2020 10:59:16 GMT-0400 (Eastern Daylight Time)","Sun Sep 20 2020 12:23:20 GMT-0400 (Eastern Daylight Time)","Mozilla/5.0 (Windows NT 10.0; Win64; x64) AppleWebKit/537.36 (KHTML, like Gecko) Chrome/85.0.4183.102 Safari/537.36",49,"[0.9, 0.5, 0.1]","[0.8, 0.4, 0.2]","[u'red', u'black', u'blue']","[u'left', u'middle', u'right']","[0.9, 0.5, 0.1]","[u'high', u'low', u'medium']","red",49,"left","high",TRUE,FALSE,347,2200,NA
"ASTR3EPUOKEXV","Sun Sep 20 2020 10:59:16 GMT-0400 (Eastern Daylight Time)","Sun Sep 20 2020 12:23:20 GMT-0400 (Eastern Daylight Time)","Mozilla/5.0 (Windows NT 10.0; Win64; x64) AppleWebKit/537.36 (KHTML, like Gecko) Chrome/85.0.4183.102 Safari/537.36",50,"[0.9, 0.5, 0.1]","[0.8, 0.4, 0.2]","[u'red', u'black', u'blue']","[u'left', u'middle', u'right']","[0.9, 0.5, 0.1]","[u'high', u'low', u'medium']","red",49,"left","high",TRUE,FALSE,238,2300,NA
"ASTR3EPUOKEXV","Sun Sep 20 2020 10:59:16 GMT-0400 (Eastern Daylight Time)","Sun Sep 20 2020 12:23:20 GMT-0400 (Eastern Daylight Time)","Mozilla/5.0 (Windows NT 10.0; Win64; x64) AppleWebKit/537.36 (KHTML, like Gecko) Chrome/85.0.4183.102 Safari/537.36",51,"[0.9, 0.5, 0.1]","[0.8, 0.4, 0.2]","[u'red', u'black', u'blue']","[u'left', u'middle', u'right']","[0.9, 0.5, 0.1]","[u'high', u'low', u'medium']","red",49,"left","high",FALSE,FALSE,384,2250,NA
"ASTR3EPUOKEXV","Sun Sep 20 2020 10:59:16 GMT-0400 (Eastern Daylight Time)","Sun Sep 20 2020 12:23:20 GMT-0400 (Eastern Daylight Time)","Mozilla/5.0 (Windows NT 10.0; Win64; x64) AppleWebKit/537.36 (KHTML, like Gecko) Chrome/85.0.4183.102 Safari/537.36",52,"[0.9, 0.5, 0.1]","[0.8, 0.4, 0.2]","[u'red', u'black', u'blue']","[u'left', u'middle', u'right']","[0.9, 0.5, 0.1]","[u'high', u'low', u'medium']","black",50,"middle","low",TRUE,FALSE,313,2350,NA
"ASTR3EPUOKEXV","Sun Sep 20 2020 10:59:16 GMT-0400 (Eastern Daylight Time)","Sun Sep 20 2020 12:23:20 GMT-0400 (Eastern Daylight Time)","Mozilla/5.0 (Windows NT 10.0; Win64; x64) AppleWebKit/537.36 (KHTML, like Gecko) Chrome/85.0.4183.102 Safari/537.36",53,"[0.9, 0.5, 0.1]","[0.8, 0.4, 0.2]","[u'red', u'black', u'blue']","[u'left', u'middle', u'right']","[0.9, 0.5, 0.1]","[u'high', u'low', u'medium']","black",50,"middle","low",FALSE,FALSE,258,2300,NA
"ASTR3EPUOKEXV","Sun Sep 20 2020 10:59:16 GMT-0400 (Eastern Daylight Time)","Sun Sep 20 2020 12:23:20 GMT-0400 (Eastern Daylight Time)","Mozilla/5.0 (Windows NT 10.0; Win64; x64) AppleWebKit/537.36 (KHTML, like Gecko) Chrome/85.0.4183.102 Safari/537.36",54,"[0.9, 0.5, 0.1]","[0.8, 0.4, 0.2]","[u'red', u'black', u'blue']","[u'left', u'middle', u'right']","[0.9, 0.5, 0.1]","[u'high', u'low', u'medium']","red",49,"left","high",TRUE,FALSE,1730,2400,NA
"ASTR3EPUOKEXV","Sun Sep 20 2020 10:59:16 GMT-0400 (Eastern Daylight Time)","Sun Sep 20 2020 12:23:20 GMT-0400 (Eastern Daylight Time)","Mozilla/5.0 (Windows NT 10.0; Win64; x64) AppleWebKit/537.36 (KHTML, like Gecko) Chrome/85.0.4183.102 Safari/537.36",55,"[0.9, 0.5, 0.1]","[0.8, 0.4, 0.2]","[u'red', u'black', u'blue']","[u'left', u'middle', u'right']","[0.9, 0.5, 0.1]","[u'high', u'low', u'medium']","blue",51,"right","medium",FALSE,FALSE,351,2350,NA
"ASTR3EPUOKEXV","Sun Sep 20 2020 10:59:16 GMT-0400 (Eastern Daylight Time)","Sun Sep 20 2020 12:23:20 GMT-0400 (Eastern Daylight Time)","Mozilla/5.0 (Windows NT 10.0; Win64; x64) AppleWebKit/537.36 (KHTML, like Gecko) Chrome/85.0.4183.102 Safari/537.36",56,"[0.9, 0.5, 0.1]","[0.8, 0.4, 0.2]","[u'red', u'black', u'blue']","[u'left', u'middle', u'right']","[0.9, 0.5, 0.1]","[u'high', u'low', u'medium']","red",49,"left","high",TRUE,FALSE,1097,2450,NA
"ASTR3EPUOKEXV","Sun Sep 20 2020 10:59:16 GMT-0400 (Eastern Daylight Time)","Sun Sep 20 2020 12:23:20 GMT-0400 (Eastern Daylight Time)","Mozilla/5.0 (Windows NT 10.0; Win64; x64) AppleWebKit/537.36 (KHTML, like Gecko) Chrome/85.0.4183.102 Safari/537.36",57,"[0.9, 0.5, 0.1]","[0.8, 0.4, 0.2]","[u'red', u'black', u'blue']","[u'left', u'middle', u'right']","[0.9, 0.5, 0.1]","[u'high', u'low', u'medium']","red",49,"left","high",TRUE,FALSE,493,2550,NA
"ASTR3EPUOKEXV","Sun Sep 20 2020 10:59:16 GMT-0400 (Eastern Daylight Time)","Sun Sep 20 2020 12:23:20 GMT-0400 (Eastern Daylight Time)","Mozilla/5.0 (Windows NT 10.0; Win64; x64) AppleWebKit/537.36 (KHTML, like Gecko) Chrome/85.0.4183.102 Safari/537.36",58,"[0.9, 0.5, 0.1]","[0.8, 0.4, 0.2]","[u'red', u'black', u'blue']","[u'left', u'middle', u'right']","[0.9, 0.5, 0.1]","[u'high', u'low', u'medium']","red",49,"left","high",TRUE,FALSE,188,2650,NA
"ASTR3EPUOKEXV","Sun Sep 20 2020 10:59:16 GMT-0400 (Eastern Daylight Time)","Sun Sep 20 2020 12:23:20 GMT-0400 (Eastern Daylight Time)","Mozilla/5.0 (Windows NT 10.0; Win64; x64) AppleWebKit/537.36 (KHTML, like Gecko) Chrome/85.0.4183.102 Safari/537.36",59,"[0.9, 0.5, 0.1]","[0.8, 0.4, 0.2]","[u'red', u'black', u'blue']","[u'left', u'middle', u'right']","[0.9, 0.5, 0.1]","[u'high', u'low', u'medium']","red",49,"left","high",TRUE,FALSE,247,2750,NA
"ASTR3EPUOKEXV","Sun Sep 20 2020 10:59:16 GMT-0400 (Eastern Daylight Time)","Sun Sep 20 2020 12:23:20 GMT-0400 (Eastern Daylight Time)","Mozilla/5.0 (Windows NT 10.0; Win64; x64) AppleWebKit/537.36 (KHTML, like Gecko) Chrome/85.0.4183.102 Safari/537.36",60,"[0.9, 0.5, 0.1]","[0.8, 0.4, 0.2]","[u'red', u'black', u'blue']","[u'left', u'middle', u'right']","[0.9, 0.5, 0.1]","[u'high', u'low', u'medium']","red",49,"left","high",TRUE,FALSE,236,2850,NA
"ASTR3EPUOKEXV","Sun Sep 20 2020 10:59:16 GMT-0400 (Eastern Daylight Time)","Sun Sep 20 2020 12:23:20 GMT-0400 (Eastern Daylight Time)","Mozilla/5.0 (Windows NT 10.0; Win64; x64) AppleWebKit/537.36 (KHTML, like Gecko) Chrome/85.0.4183.102 Safari/537.36",61,"[0.9, 0.5, 0.1]","[0.8, 0.4, 0.2]","[u'red', u'black', u'blue']","[u'left', u'middle', u'right']","[0.9, 0.5, 0.1]","[u'high', u'low', u'medium']","red",49,"left","high",TRUE,FALSE,174,2950,NA
"ASTR3EPUOKEXV","Sun Sep 20 2020 10:59:16 GMT-0400 (Eastern Daylight Time)","Sun Sep 20 2020 12:23:20 GMT-0400 (Eastern Daylight Time)","Mozilla/5.0 (Windows NT 10.0; Win64; x64) AppleWebKit/537.36 (KHTML, like Gecko) Chrome/85.0.4183.102 Safari/537.36",62,"[0.9, 0.5, 0.1]","[0.8, 0.4, 0.2]","[u'red', u'black', u'blue']","[u'left', u'middle', u'right']","[0.9, 0.5, 0.1]","[u'high', u'low', u'medium']","red",49,"left","high",TRUE,FALSE,159,3050,NA
"ASTR3EPUOKEXV","Sun Sep 20 2020 10:59:16 GMT-0400 (Eastern Daylight Time)","Sun Sep 20 2020 12:23:20 GMT-0400 (Eastern Daylight Time)","Mozilla/5.0 (Windows NT 10.0; Win64; x64) AppleWebKit/537.36 (KHTML, like Gecko) Chrome/85.0.4183.102 Safari/537.36",63,"[0.9, 0.5, 0.1]","[0.8, 0.4, 0.2]","[u'red', u'black', u'blue']","[u'left', u'middle', u'right']","[0.9, 0.5, 0.1]","[u'high', u'low', u'medium']","red",49,"left","high",TRUE,TRUE,170,3150,NA
"ASTR3EPUOKEXV","Sun Sep 20 2020 10:59:16 GMT-0400 (Eastern Daylight Time)","Sun Sep 20 2020 12:23:20 GMT-0400 (Eastern Daylight Time)","Mozilla/5.0 (Windows NT 10.0; Win64; x64) AppleWebKit/537.36 (KHTML, like Gecko) Chrome/85.0.4183.102 Safari/537.36",64,"[0.9, 0.5, 0.1]","[0.8, 0.4, 0.2]","[u'red', u'black', u'blue']","[u'left', u'middle', u'right']","[0.9, 0.5, 0.1]","[u'low', u'medium', u'high']","red",49,"left","low",FALSE,FALSE,134,3100,NA
"ASTR3EPUOKEXV","Sun Sep 20 2020 10:59:16 GMT-0400 (Eastern Daylight Time)","Sun Sep 20 2020 12:23:20 GMT-0400 (Eastern Daylight Time)","Mozilla/5.0 (Windows NT 10.0; Win64; x64) AppleWebKit/537.36 (KHTML, like Gecko) Chrome/85.0.4183.102 Safari/537.36",65,"[0.9, 0.5, 0.1]","[0.8, 0.4, 0.2]","[u'red', u'black', u'blue']","[u'left', u'middle', u'right']","[0.9, 0.5, 0.1]","[u'low', u'medium', u'high']","blue",51,"right","high",TRUE,FALSE,305,3200,NA
"ASTR3EPUOKEXV","Sun Sep 20 2020 10:59:16 GMT-0400 (Eastern Daylight Time)","Sun Sep 20 2020 12:23:20 GMT-0400 (Eastern Daylight Time)","Mozilla/5.0 (Windows NT 10.0; Win64; x64) AppleWebKit/537.36 (KHTML, like Gecko) Chrome/85.0.4183.102 Safari/537.36",66,"[0.9, 0.5, 0.1]","[0.8, 0.4, 0.2]","[u'red', u'black', u'blue']","[u'left', u'middle', u'right']","[0.9, 0.5, 0.1]","[u'low', u'medium', u'high']","blue",51,"right","high",TRUE,FALSE,283,3300,NA
"ASTR3EPUOKEXV","Sun Sep 20 2020 10:59:16 GMT-0400 (Eastern Daylight Time)","Sun Sep 20 2020 12:23:20 GMT-0400 (Eastern Daylight Time)","Mozilla/5.0 (Windows NT 10.0; Win64; x64) AppleWebKit/537.36 (KHTML, like Gecko) Chrome/85.0.4183.102 Safari/537.36",67,"[0.9, 0.5, 0.1]","[0.8, 0.4, 0.2]","[u'red', u'black', u'blue']","[u'left', u'middle', u'right']","[0.9, 0.5, 0.1]","[u'low', u'medium', u'high']","blue",51,"right","high",TRUE,FALSE,202,3400,NA
"ASTR3EPUOKEXV","Sun Sep 20 2020 10:59:16 GMT-0400 (Eastern Daylight Time)","Sun Sep 20 2020 12:23:20 GMT-0400 (Eastern Daylight Time)","Mozilla/5.0 (Windows NT 10.0; Win64; x64) AppleWebKit/537.36 (KHTML, like Gecko) Chrome/85.0.4183.102 Safari/537.36",68,"[0.9, 0.5, 0.1]","[0.8, 0.4, 0.2]","[u'red', u'black', u'blue']","[u'left', u'middle', u'right']","[0.9, 0.5, 0.1]","[u'low', u'medium', u'high']","blue",51,"right","high",TRUE,FALSE,176,3500,NA
"ASTR3EPUOKEXV","Sun Sep 20 2020 10:59:16 GMT-0400 (Eastern Daylight Time)","Sun Sep 20 2020 12:23:20 GMT-0400 (Eastern Daylight Time)","Mozilla/5.0 (Windows NT 10.0; Win64; x64) AppleWebKit/537.36 (KHTML, like Gecko) Chrome/85.0.4183.102 Safari/537.36",69,"[0.9, 0.5, 0.1]","[0.8, 0.4, 0.2]","[u'red', u'black', u'blue']","[u'left', u'middle', u'right']","[0.9, 0.5, 0.1]","[u'low', u'medium', u'high']","blue",51,"right","high",TRUE,FALSE,206,3600,NA
"ASTR3EPUOKEXV","Sun Sep 20 2020 10:59:16 GMT-0400 (Eastern Daylight Time)","Sun Sep 20 2020 12:23:20 GMT-0400 (Eastern Daylight Time)","Mozilla/5.0 (Windows NT 10.0; Win64; x64) AppleWebKit/537.36 (KHTML, like Gecko) Chrome/85.0.4183.102 Safari/537.36",70,"[0.9, 0.5, 0.1]","[0.8, 0.4, 0.2]","[u'red', u'black', u'blue']","[u'left', u'middle', u'right']","[0.9, 0.5, 0.1]","[u'low', u'medium', u'high']","red",49,"left","low",FALSE,FALSE,172,3550,NA
"ASTR3EPUOKEXV","Sun Sep 20 2020 10:59:16 GMT-0400 (Eastern Daylight Time)","Sun Sep 20 2020 12:23:20 GMT-0400 (Eastern Daylight Time)","Mozilla/5.0 (Windows NT 10.0; Win64; x64) AppleWebKit/537.36 (KHTML, like Gecko) Chrome/85.0.4183.102 Safari/537.36",71,"[0.9, 0.5, 0.1]","[0.8, 0.4, 0.2]","[u'red', u'black', u'blue']","[u'left', u'middle', u'right']","[0.9, 0.5, 0.1]","[u'low', u'medium', u'high']","blue",51,"right","high",TRUE,FALSE,260,3650,NA
"ASTR3EPUOKEXV","Sun Sep 20 2020 10:59:16 GMT-0400 (Eastern Daylight Time)","Sun Sep 20 2020 12:23:20 GMT-0400 (Eastern Daylight Time)","Mozilla/5.0 (Windows NT 10.0; Win64; x64) AppleWebKit/537.36 (KHTML, like Gecko) Chrome/85.0.4183.102 Safari/537.36",72,"[0.9, 0.5, 0.1]","[0.8, 0.4, 0.2]","[u'red', u'black', u'blue']","[u'left', u'middle', u'right']","[0.9, 0.5, 0.1]","[u'low', u'medium', u'high']","blue",51,"right","high",TRUE,FALSE,1013,3750,NA
"ASTR3EPUOKEXV","Sun Sep 20 2020 10:59:16 GMT-0400 (Eastern Daylight Time)","Sun Sep 20 2020 12:23:20 GMT-0400 (Eastern Daylight Time)","Mozilla/5.0 (Windows NT 10.0; Win64; x64) AppleWebKit/537.36 (KHTML, like Gecko) Chrome/85.0.4183.102 Safari/537.36",73,"[0.9, 0.5, 0.1]","[0.8, 0.4, 0.2]","[u'red', u'black', u'blue']","[u'left', u'middle', u'right']","[0.9, 0.5, 0.1]","[u'low', u'medium', u'high']","blue",51,"right","high",TRUE,FALSE,397,3850,NA
"ASTR3EPUOKEXV","Sun Sep 20 2020 10:59:16 GMT-0400 (Eastern Daylight Time)","Sun Sep 20 2020 12:23:20 GMT-0400 (Eastern Daylight Time)","Mozilla/5.0 (Windows NT 10.0; Win64; x64) AppleWebKit/537.36 (KHTML, like Gecko) Chrome/85.0.4183.102 Safari/537.36",74,"[0.9, 0.5, 0.1]","[0.8, 0.4, 0.2]","[u'red', u'black', u'blue']","[u'left', u'middle', u'right']","[0.9, 0.5, 0.1]","[u'low', u'medium', u'high']","blue",51,"right","high",TRUE,TRUE,360,3950,NA
"ASTR3EPUOKEXV","Sun Sep 20 2020 10:59:16 GMT-0400 (Eastern Daylight Time)","Sun Sep 20 2020 12:23:20 GMT-0400 (Eastern Daylight Time)","Mozilla/5.0 (Windows NT 10.0; Win64; x64) AppleWebKit/537.36 (KHTML, like Gecko) Chrome/85.0.4183.102 Safari/537.36",75,"[0.9, 0.5, 0.1]","[0.8, 0.4, 0.2]","[u'red', u'black', u'blue']","[u'left', u'middle', u'right']","[0.9, 0.5, 0.1]","[u'high', u'medium', u'low']","blue",51,"right","low",FALSE,FALSE,287,3900,NA
"ASTR3EPUOKEXV","Sun Sep 20 2020 10:59:16 GMT-0400 (Eastern Daylight Time)","Sun Sep 20 2020 12:23:20 GMT-0400 (Eastern Daylight Time)","Mozilla/5.0 (Windows NT 10.0; Win64; x64) AppleWebKit/537.36 (KHTML, like Gecko) Chrome/85.0.4183.102 Safari/537.36",76,"[0.9, 0.5, 0.1]","[0.8, 0.4, 0.2]","[u'red', u'black', u'blue']","[u'left', u'middle', u'right']","[0.9, 0.5, 0.1]","[u'high', u'medium', u'low']","red",49,"left","high",TRUE,FALSE,292,4000,NA
"ASTR3EPUOKEXV","Sun Sep 20 2020 10:59:16 GMT-0400 (Eastern Daylight Time)","Sun Sep 20 2020 12:23:20 GMT-0400 (Eastern Daylight Time)","Mozilla/5.0 (Windows NT 10.0; Win64; x64) AppleWebKit/537.36 (KHTML, like Gecko) Chrome/85.0.4183.102 Safari/537.36",77,"[0.9, 0.5, 0.1]","[0.8, 0.4, 0.2]","[u'red', u'black', u'blue']","[u'left', u'middle', u'right']","[0.9, 0.5, 0.1]","[u'high', u'medium', u'low']","black",50,"middle","medium",TRUE,FALSE,654,4100,NA
"ASTR3EPUOKEXV","Sun Sep 20 2020 10:59:16 GMT-0400 (Eastern Daylight Time)","Sun Sep 20 2020 12:23:20 GMT-0400 (Eastern Daylight Time)","Mozilla/5.0 (Windows NT 10.0; Win64; x64) AppleWebKit/537.36 (KHTML, like Gecko) Chrome/85.0.4183.102 Safari/537.36",78,"[0.9, 0.5, 0.1]","[0.8, 0.4, 0.2]","[u'red', u'black', u'blue']","[u'left', u'middle', u'right']","[0.9, 0.5, 0.1]","[u'high', u'medium', u'low']","black",50,"middle","medium",FALSE,FALSE,277,4050,NA
"ASTR3EPUOKEXV","Sun Sep 20 2020 10:59:16 GMT-0400 (Eastern Daylight Time)","Sun Sep 20 2020 12:23:20 GMT-0400 (Eastern Daylight Time)","Mozilla/5.0 (Windows NT 10.0; Win64; x64) AppleWebKit/537.36 (KHTML, like Gecko) Chrome/85.0.4183.102 Safari/537.36",79,"[0.9, 0.5, 0.1]","[0.8, 0.4, 0.2]","[u'red', u'black', u'blue']","[u'left', u'middle', u'right']","[0.9, 0.5, 0.1]","[u'high', u'medium', u'low']","red",49,"left","high",TRUE,FALSE,269,4150,NA
"ASTR3EPUOKEXV","Sun Sep 20 2020 10:59:16 GMT-0400 (Eastern Daylight Time)","Sun Sep 20 2020 12:23:20 GMT-0400 (Eastern Daylight Time)","Mozilla/5.0 (Windows NT 10.0; Win64; x64) AppleWebKit/537.36 (KHTML, like Gecko) Chrome/85.0.4183.102 Safari/537.36",80,"[0.9, 0.5, 0.1]","[0.8, 0.4, 0.2]","[u'red', u'black', u'blue']","[u'left', u'middle', u'right']","[0.9, 0.5, 0.1]","[u'high', u'medium', u'low']","red",49,"left","high",TRUE,FALSE,133,4250,NA
"ASTR3EPUOKEXV","Sun Sep 20 2020 10:59:16 GMT-0400 (Eastern Daylight Time)","Sun Sep 20 2020 12:23:20 GMT-0400 (Eastern Daylight Time)","Mozilla/5.0 (Windows NT 10.0; Win64; x64) AppleWebKit/537.36 (KHTML, like Gecko) Chrome/85.0.4183.102 Safari/537.36",81,"[0.9, 0.5, 0.1]","[0.8, 0.4, 0.2]","[u'red', u'black', u'blue']","[u'left', u'middle', u'right']","[0.8, 0.4, 0.2]","[u'medium', u'low', u'high']","black",50,"middle","low",FALSE,FALSE,771,4200,NA
"ASTR3EPUOKEXV","Sun Sep 20 2020 10:59:16 GMT-0400 (Eastern Daylight Time)","Sun Sep 20 2020 12:23:20 GMT-0400 (Eastern Daylight Time)","Mozilla/5.0 (Windows NT 10.0; Win64; x64) AppleWebKit/537.36 (KHTML, like Gecko) Chrome/85.0.4183.102 Safari/537.36",82,"[0.9, 0.5, 0.1]","[0.8, 0.4, 0.2]","[u'red', u'black', u'blue']","[u'left', u'middle', u'right']","[0.8, 0.4, 0.2]","[u'medium', u'low', u'high']","red",49,"left","medium",FALSE,FALSE,950,4150,NA
"ASTR3EPUOKEXV","Sun Sep 20 2020 10:59:16 GMT-0400 (Eastern Daylight Time)","Sun Sep 20 2020 12:23:20 GMT-0400 (Eastern Daylight Time)","Mozilla/5.0 (Windows NT 10.0; Win64; x64) AppleWebKit/537.36 (KHTML, like Gecko) Chrome/85.0.4183.102 Safari/537.36",83,"[0.9, 0.5, 0.1]","[0.8, 0.4, 0.2]","[u'red', u'black', u'blue']","[u'left', u'middle', u'right']","[0.8, 0.4, 0.2]","[u'medium', u'low', u'high']","blue",51,"right","high",FALSE,FALSE,241,4100,NA
"ASTR3EPUOKEXV","Sun Sep 20 2020 10:59:16 GMT-0400 (Eastern Daylight Time)","Sun Sep 20 2020 12:23:20 GMT-0400 (Eastern Daylight Time)","Mozilla/5.0 (Windows NT 10.0; Win64; x64) AppleWebKit/537.36 (KHTML, like Gecko) Chrome/85.0.4183.102 Safari/537.36",84,"[0.9, 0.5, 0.1]","[0.8, 0.4, 0.2]","[u'red', u'black', u'blue']","[u'left', u'middle', u'right']","[0.8, 0.4, 0.2]","[u'medium', u'low', u'high']","blue",51,"right","high",TRUE,FALSE,131,4200,NA
"ASTR3EPUOKEXV","Sun Sep 20 2020 10:59:16 GMT-0400 (Eastern Daylight Time)","Sun Sep 20 2020 12:23:20 GMT-0400 (Eastern Daylight Time)","Mozilla/5.0 (Windows NT 10.0; Win64; x64) AppleWebKit/537.36 (KHTML, like Gecko) Chrome/85.0.4183.102 Safari/537.36",85,"[0.9, 0.5, 0.1]","[0.8, 0.4, 0.2]","[u'red', u'black', u'blue']","[u'left', u'middle', u'right']","[0.8, 0.4, 0.2]","[u'medium', u'low', u'high']","blue",51,"right","high",TRUE,FALSE,474,4300,NA
"ASTR3EPUOKEXV","Sun Sep 20 2020 10:59:16 GMT-0400 (Eastern Daylight Time)","Sun Sep 20 2020 12:23:20 GMT-0400 (Eastern Daylight Time)","Mozilla/5.0 (Windows NT 10.0; Win64; x64) AppleWebKit/537.36 (KHTML, like Gecko) Chrome/85.0.4183.102 Safari/537.36",86,"[0.9, 0.5, 0.1]","[0.8, 0.4, 0.2]","[u'red', u'black', u'blue']","[u'left', u'middle', u'right']","[0.8, 0.4, 0.2]","[u'medium', u'low', u'high']","blue",51,"right","high",FALSE,FALSE,219,4250,NA
"ASTR3EPUOKEXV","Sun Sep 20 2020 10:59:16 GMT-0400 (Eastern Daylight Time)","Sun Sep 20 2020 12:23:20 GMT-0400 (Eastern Daylight Time)","Mozilla/5.0 (Windows NT 10.0; Win64; x64) AppleWebKit/537.36 (KHTML, like Gecko) Chrome/85.0.4183.102 Safari/537.36",87,"[0.9, 0.5, 0.1]","[0.8, 0.4, 0.2]","[u'red', u'black', u'blue']","[u'left', u'middle', u'right']","[0.8, 0.4, 0.2]","[u'medium', u'low', u'high']","black",50,"middle","low",FALSE,FALSE,222,4200,NA
"ASTR3EPUOKEXV","Sun Sep 20 2020 10:59:16 GMT-0400 (Eastern Daylight Time)","Sun Sep 20 2020 12:23:20 GMT-0400 (Eastern Daylight Time)","Mozilla/5.0 (Windows NT 10.0; Win64; x64) AppleWebKit/537.36 (KHTML, like Gecko) Chrome/85.0.4183.102 Safari/537.36",88,"[0.9, 0.5, 0.1]","[0.8, 0.4, 0.2]","[u'red', u'black', u'blue']","[u'left', u'middle', u'right']","[0.8, 0.4, 0.2]","[u'medium', u'low', u'high']","red",49,"left","medium",TRUE,FALSE,320,4300,NA
"ASTR3EPUOKEXV","Sun Sep 20 2020 10:59:16 GMT-0400 (Eastern Daylight Time)","Sun Sep 20 2020 12:23:20 GMT-0400 (Eastern Daylight Time)","Mozilla/5.0 (Windows NT 10.0; Win64; x64) AppleWebKit/537.36 (KHTML, like Gecko) Chrome/85.0.4183.102 Safari/537.36",89,"[0.9, 0.5, 0.1]","[0.8, 0.4, 0.2]","[u'red', u'black', u'blue']","[u'left', u'middle', u'right']","[0.8, 0.4, 0.2]","[u'medium', u'low', u'high']","red",49,"left","medium",FALSE,FALSE,292,4250,NA
"ASTR3EPUOKEXV","Sun Sep 20 2020 10:59:16 GMT-0400 (Eastern Daylight Time)","Sun Sep 20 2020 12:23:20 GMT-0400 (Eastern Daylight Time)","Mozilla/5.0 (Windows NT 10.0; Win64; x64) AppleWebKit/537.36 (KHTML, like Gecko) Chrome/85.0.4183.102 Safari/537.36",90,"[0.9, 0.5, 0.1]","[0.8, 0.4, 0.2]","[u'red', u'black', u'blue']","[u'left', u'middle', u'right']","[0.8, 0.4, 0.2]","[u'medium', u'low', u'high']","blue",51,"right","high",FALSE,FALSE,247,4200,NA
"ASTR3EPUOKEXV","Sun Sep 20 2020 10:59:16 GMT-0400 (Eastern Daylight Time)","Sun Sep 20 2020 12:23:20 GMT-0400 (Eastern Daylight Time)","Mozilla/5.0 (Windows NT 10.0; Win64; x64) AppleWebKit/537.36 (KHTML, like Gecko) Chrome/85.0.4183.102 Safari/537.36",91,"[0.9, 0.5, 0.1]","[0.8, 0.4, 0.2]","[u'red', u'black', u'blue']","[u'left', u'middle', u'right']","[0.8, 0.4, 0.2]","[u'medium', u'low', u'high']","black",50,"middle","low",FALSE,FALSE,367,4150,NA
"ASTR3EPUOKEXV","Sun Sep 20 2020 10:59:16 GMT-0400 (Eastern Daylight Time)","Sun Sep 20 2020 12:23:20 GMT-0400 (Eastern Daylight Time)","Mozilla/5.0 (Windows NT 10.0; Win64; x64) AppleWebKit/537.36 (KHTML, like Gecko) Chrome/85.0.4183.102 Safari/537.36",92,"[0.9, 0.5, 0.1]","[0.8, 0.4, 0.2]","[u'red', u'black', u'blue']","[u'left', u'middle', u'right']","[0.8, 0.4, 0.2]","[u'medium', u'low', u'high']","red",49,"left","medium",TRUE,FALSE,414,4250,NA
"ASTR3EPUOKEXV","Sun Sep 20 2020 10:59:16 GMT-0400 (Eastern Daylight Time)","Sun Sep 20 2020 12:23:20 GMT-0400 (Eastern Daylight Time)","Mozilla/5.0 (Windows NT 10.0; Win64; x64) AppleWebKit/537.36 (KHTML, like Gecko) Chrome/85.0.4183.102 Safari/537.36",93,"[0.9, 0.5, 0.1]","[0.8, 0.4, 0.2]","[u'red', u'black', u'blue']","[u'left', u'middle', u'right']","[0.8, 0.4, 0.2]","[u'medium', u'low', u'high']","red",49,"left","medium",TRUE,FALSE,324,4350,NA
"ASTR3EPUOKEXV","Sun Sep 20 2020 10:59:16 GMT-0400 (Eastern Daylight Time)","Sun Sep 20 2020 12:23:20 GMT-0400 (Eastern Daylight Time)","Mozilla/5.0 (Windows NT 10.0; Win64; x64) AppleWebKit/537.36 (KHTML, like Gecko) Chrome/85.0.4183.102 Safari/537.36",94,"[0.9, 0.5, 0.1]","[0.8, 0.4, 0.2]","[u'red', u'black', u'blue']","[u'left', u'middle', u'right']","[0.8, 0.4, 0.2]","[u'medium', u'low', u'high']","red",49,"left","medium",TRUE,FALSE,260,4450,NA
"ASTR3EPUOKEXV","Sun Sep 20 2020 10:59:16 GMT-0400 (Eastern Daylight Time)","Sun Sep 20 2020 12:23:20 GMT-0400 (Eastern Daylight Time)","Mozilla/5.0 (Windows NT 10.0; Win64; x64) AppleWebKit/537.36 (KHTML, like Gecko) Chrome/85.0.4183.102 Safari/537.36",95,"[0.9, 0.5, 0.1]","[0.8, 0.4, 0.2]","[u'red', u'black', u'blue']","[u'left', u'middle', u'right']","[0.8, 0.4, 0.2]","[u'medium', u'low', u'high']","red",49,"left","medium",FALSE,FALSE,298,4400,NA
"ASTR3EPUOKEXV","Sun Sep 20 2020 10:59:16 GMT-0400 (Eastern Daylight Time)","Sun Sep 20 2020 12:23:20 GMT-0400 (Eastern Daylight Time)","Mozilla/5.0 (Windows NT 10.0; Win64; x64) AppleWebKit/537.36 (KHTML, like Gecko) Chrome/85.0.4183.102 Safari/537.36",96,"[0.9, 0.5, 0.1]","[0.8, 0.4, 0.2]","[u'red', u'black', u'blue']","[u'left', u'middle', u'right']","[0.8, 0.4, 0.2]","[u'medium', u'low', u'high']","black",50,"middle","low",FALSE,FALSE,325,4350,NA
"ASTR3EPUOKEXV","Sun Sep 20 2020 10:59:16 GMT-0400 (Eastern Daylight Time)","Sun Sep 20 2020 12:23:20 GMT-0400 (Eastern Daylight Time)","Mozilla/5.0 (Windows NT 10.0; Win64; x64) AppleWebKit/537.36 (KHTML, like Gecko) Chrome/85.0.4183.102 Safari/537.36",97,"[0.9, 0.5, 0.1]","[0.8, 0.4, 0.2]","[u'red', u'black', u'blue']","[u'left', u'middle', u'right']","[0.8, 0.4, 0.2]","[u'medium', u'low', u'high']","blue",51,"right","high",FALSE,FALSE,364,4300,NA
"ASTR3EPUOKEXV","Sun Sep 20 2020 10:59:16 GMT-0400 (Eastern Daylight Time)","Sun Sep 20 2020 12:23:20 GMT-0400 (Eastern Daylight Time)","Mozilla/5.0 (Windows NT 10.0; Win64; x64) AppleWebKit/537.36 (KHTML, like Gecko) Chrome/85.0.4183.102 Safari/537.36",98,"[0.9, 0.5, 0.1]","[0.8, 0.4, 0.2]","[u'red', u'black', u'blue']","[u'left', u'middle', u'right']","[0.8, 0.4, 0.2]","[u'medium', u'low', u'high']","red",49,"left","medium",FALSE,FALSE,268,4250,NA
"ASTR3EPUOKEXV","Sun Sep 20 2020 10:59:16 GMT-0400 (Eastern Daylight Time)","Sun Sep 20 2020 12:23:20 GMT-0400 (Eastern Daylight Time)","Mozilla/5.0 (Windows NT 10.0; Win64; x64) AppleWebKit/537.36 (KHTML, like Gecko) Chrome/85.0.4183.102 Safari/537.36",99,"[0.9, 0.5, 0.1]","[0.8, 0.4, 0.2]","[u'red', u'black', u'blue']","[u'left', u'middle', u'right']","[0.8, 0.4, 0.2]","[u'medium', u'low', u'high']","red",49,"left","medium",TRUE,FALSE,348,4350,NA
"ASTR3EPUOKEXV","Sun Sep 20 2020 10:59:16 GMT-0400 (Eastern Daylight Time)","Sun Sep 20 2020 12:23:20 GMT-0400 (Eastern Daylight Time)","Mozilla/5.0 (Windows NT 10.0; Win64; x64) AppleWebKit/537.36 (KHTML, like Gecko) Chrome/85.0.4183.102 Safari/537.36",100,"[0.9, 0.5, 0.1]","[0.8, 0.4, 0.2]","[u'red', u'black', u'blue']","[u'left', u'middle', u'right']","[0.8, 0.4, 0.2]","[u'medium', u'low', u'high']","red",49,"left","medium",TRUE,FALSE,275,4450,NA
"ASTR3EPUOKEXV","Sun Sep 20 2020 10:59:16 GMT-0400 (Eastern Daylight Time)","Sun Sep 20 2020 12:23:20 GMT-0400 (Eastern Daylight Time)","Mozilla/5.0 (Windows NT 10.0; Win64; x64) AppleWebKit/537.36 (KHTML, like Gecko) Chrome/85.0.4183.102 Safari/537.36",101,"[0.9, 0.5, 0.1]","[0.8, 0.4, 0.2]","[u'red', u'black', u'blue']","[u'left', u'middle', u'right']","[0.8, 0.4, 0.2]","[u'medium', u'low', u'high']","black",50,"middle","low",FALSE,FALSE,347,4400,NA
"ASTR3EPUOKEXV","Sun Sep 20 2020 10:59:16 GMT-0400 (Eastern Daylight Time)","Sun Sep 20 2020 12:23:20 GMT-0400 (Eastern Daylight Time)","Mozilla/5.0 (Windows NT 10.0; Win64; x64) AppleWebKit/537.36 (KHTML, like Gecko) Chrome/85.0.4183.102 Safari/537.36",102,"[0.9, 0.5, 0.1]","[0.8, 0.4, 0.2]","[u'red', u'black', u'blue']","[u'left', u'middle', u'right']","[0.8, 0.4, 0.2]","[u'medium', u'low', u'high']","red",49,"left","medium",TRUE,FALSE,456,4500,NA
"ASTR3EPUOKEXV","Sun Sep 20 2020 10:59:16 GMT-0400 (Eastern Daylight Time)","Sun Sep 20 2020 12:23:20 GMT-0400 (Eastern Daylight Time)","Mozilla/5.0 (Windows NT 10.0; Win64; x64) AppleWebKit/537.36 (KHTML, like Gecko) Chrome/85.0.4183.102 Safari/537.36",103,"[0.9, 0.5, 0.1]","[0.8, 0.4, 0.2]","[u'red', u'black', u'blue']","[u'left', u'middle', u'right']","[0.8, 0.4, 0.2]","[u'medium', u'low', u'high']","red",49,"left","medium",TRUE,FALSE,581,4600,NA
"ASTR3EPUOKEXV","Sun Sep 20 2020 10:59:16 GMT-0400 (Eastern Daylight Time)","Sun Sep 20 2020 12:23:20 GMT-0400 (Eastern Daylight Time)","Mozilla/5.0 (Windows NT 10.0; Win64; x64) AppleWebKit/537.36 (KHTML, like Gecko) Chrome/85.0.4183.102 Safari/537.36",104,"[0.9, 0.5, 0.1]","[0.8, 0.4, 0.2]","[u'red', u'black', u'blue']","[u'left', u'middle', u'right']","[0.8, 0.4, 0.2]","[u'medium', u'low', u'high']","red",49,"left","medium",TRUE,FALSE,322,4700,NA
"ASTR3EPUOKEXV","Sun Sep 20 2020 10:59:16 GMT-0400 (Eastern Daylight Time)","Sun Sep 20 2020 12:23:20 GMT-0400 (Eastern Daylight Time)","Mozilla/5.0 (Windows NT 10.0; Win64; x64) AppleWebKit/537.36 (KHTML, like Gecko) Chrome/85.0.4183.102 Safari/537.36",105,"[0.9, 0.5, 0.1]","[0.8, 0.4, 0.2]","[u'red', u'black', u'blue']","[u'left', u'middle', u'right']","[0.8, 0.4, 0.2]","[u'medium', u'low', u'high']","red",49,"left","medium",FALSE,FALSE,209,4650,NA
"ASTR3EPUOKEXV","Sun Sep 20 2020 10:59:16 GMT-0400 (Eastern Daylight Time)","Sun Sep 20 2020 12:23:20 GMT-0400 (Eastern Daylight Time)","Mozilla/5.0 (Windows NT 10.0; Win64; x64) AppleWebKit/537.36 (KHTML, like Gecko) Chrome/85.0.4183.102 Safari/537.36",106,"[0.9, 0.5, 0.1]","[0.8, 0.4, 0.2]","[u'red', u'black', u'blue']","[u'left', u'middle', u'right']","[0.8, 0.4, 0.2]","[u'medium', u'low', u'high']","blue",51,"right","high",TRUE,FALSE,189,4750,NA
"ASTR3EPUOKEXV","Sun Sep 20 2020 10:59:16 GMT-0400 (Eastern Daylight Time)","Sun Sep 20 2020 12:23:20 GMT-0400 (Eastern Daylight Time)","Mozilla/5.0 (Windows NT 10.0; Win64; x64) AppleWebKit/537.36 (KHTML, like Gecko) Chrome/85.0.4183.102 Safari/537.36",107,"[0.9, 0.5, 0.1]","[0.8, 0.4, 0.2]","[u'red', u'black', u'blue']","[u'left', u'middle', u'right']","[0.8, 0.4, 0.2]","[u'medium', u'low', u'high']","blue",51,"right","high",TRUE,FALSE,147,4850,NA
"ASTR3EPUOKEXV","Sun Sep 20 2020 10:59:16 GMT-0400 (Eastern Daylight Time)","Sun Sep 20 2020 12:23:20 GMT-0400 (Eastern Daylight Time)","Mozilla/5.0 (Windows NT 10.0; Win64; x64) AppleWebKit/537.36 (KHTML, like Gecko) Chrome/85.0.4183.102 Safari/537.36",108,"[0.9, 0.5, 0.1]","[0.8, 0.4, 0.2]","[u'red', u'black', u'blue']","[u'left', u'middle', u'right']","[0.8, 0.4, 0.2]","[u'medium', u'low', u'high']","blue",51,"right","high",TRUE,FALSE,29,4950,NA
"ASTR3EPUOKEXV","Sun Sep 20 2020 10:59:16 GMT-0400 (Eastern Daylight Time)","Sun Sep 20 2020 12:23:20 GMT-0400 (Eastern Daylight Time)","Mozilla/5.0 (Windows NT 10.0; Win64; x64) AppleWebKit/537.36 (KHTML, like Gecko) Chrome/85.0.4183.102 Safari/537.36",109,"[0.9, 0.5, 0.1]","[0.8, 0.4, 0.2]","[u'red', u'black', u'blue']","[u'left', u'middle', u'right']","[0.8, 0.4, 0.2]","[u'medium', u'low', u'high']","blue",51,"right","high",FALSE,FALSE,80,4900,NA
"ASTR3EPUOKEXV","Sun Sep 20 2020 10:59:16 GMT-0400 (Eastern Daylight Time)","Sun Sep 20 2020 12:23:20 GMT-0400 (Eastern Daylight Time)","Mozilla/5.0 (Windows NT 10.0; Win64; x64) AppleWebKit/537.36 (KHTML, like Gecko) Chrome/85.0.4183.102 Safari/537.36",110,"[0.9, 0.5, 0.1]","[0.8, 0.4, 0.2]","[u'red', u'black', u'blue']","[u'left', u'middle', u'right']","[0.8, 0.4, 0.2]","[u'medium', u'low', u'high']","red",49,"left","medium",TRUE,FALSE,283,5000,NA
"ASTR3EPUOKEXV","Sun Sep 20 2020 10:59:16 GMT-0400 (Eastern Daylight Time)","Sun Sep 20 2020 12:23:20 GMT-0400 (Eastern Daylight Time)","Mozilla/5.0 (Windows NT 10.0; Win64; x64) AppleWebKit/537.36 (KHTML, like Gecko) Chrome/85.0.4183.102 Safari/537.36",111,"[0.9, 0.5, 0.1]","[0.8, 0.4, 0.2]","[u'red', u'black', u'blue']","[u'left', u'middle', u'right']","[0.8, 0.4, 0.2]","[u'medium', u'low', u'high']","red",49,"left","medium",FALSE,FALSE,180,4950,NA
"ASTR3EPUOKEXV","Sun Sep 20 2020 10:59:16 GMT-0400 (Eastern Daylight Time)","Sun Sep 20 2020 12:23:20 GMT-0400 (Eastern Daylight Time)","Mozilla/5.0 (Windows NT 10.0; Win64; x64) AppleWebKit/537.36 (KHTML, like Gecko) Chrome/85.0.4183.102 Safari/537.36",112,"[0.9, 0.5, 0.1]","[0.8, 0.4, 0.2]","[u'red', u'black', u'blue']","[u'left', u'middle', u'right']","[0.8, 0.4, 0.2]","[u'medium', u'low', u'high']","black",50,"middle","low",FALSE,FALSE,411,4900,NA
"ASTR3EPUOKEXV","Sun Sep 20 2020 10:59:16 GMT-0400 (Eastern Daylight Time)","Sun Sep 20 2020 12:23:20 GMT-0400 (Eastern Daylight Time)","Mozilla/5.0 (Windows NT 10.0; Win64; x64) AppleWebKit/537.36 (KHTML, like Gecko) Chrome/85.0.4183.102 Safari/537.36",113,"[0.9, 0.5, 0.1]","[0.8, 0.4, 0.2]","[u'red', u'black', u'blue']","[u'left', u'middle', u'right']","[0.8, 0.4, 0.2]","[u'medium', u'low', u'high']","blue",51,"right","high",TRUE,FALSE,274,5000,NA
"ASTR3EPUOKEXV","Sun Sep 20 2020 10:59:16 GMT-0400 (Eastern Daylight Time)","Sun Sep 20 2020 12:23:20 GMT-0400 (Eastern Daylight Time)","Mozilla/5.0 (Windows NT 10.0; Win64; x64) AppleWebKit/537.36 (KHTML, like Gecko) Chrome/85.0.4183.102 Safari/537.36",114,"[0.9, 0.5, 0.1]","[0.8, 0.4, 0.2]","[u'red', u'black', u'blue']","[u'left', u'middle', u'right']","[0.8, 0.4, 0.2]","[u'medium', u'low', u'high']","red",49,"left","medium",TRUE,FALSE,163,5100,NA
"ASTR3EPUOKEXV","Sun Sep 20 2020 10:59:16 GMT-0400 (Eastern Daylight Time)","Sun Sep 20 2020 12:23:20 GMT-0400 (Eastern Daylight Time)","Mozilla/5.0 (Windows NT 10.0; Win64; x64) AppleWebKit/537.36 (KHTML, like Gecko) Chrome/85.0.4183.102 Safari/537.36",115,"[0.9, 0.5, 0.1]","[0.8, 0.4, 0.2]","[u'red', u'black', u'blue']","[u'left', u'middle', u'right']","[0.8, 0.4, 0.2]","[u'medium', u'low', u'high']","red",49,"left","medium",TRUE,FALSE,216,5200,NA
"ASTR3EPUOKEXV","Sun Sep 20 2020 10:59:16 GMT-0400 (Eastern Daylight Time)","Sun Sep 20 2020 12:23:20 GMT-0400 (Eastern Daylight Time)","Mozilla/5.0 (Windows NT 10.0; Win64; x64) AppleWebKit/537.36 (KHTML, like Gecko) Chrome/85.0.4183.102 Safari/537.36",116,"[0.9, 0.5, 0.1]","[0.8, 0.4, 0.2]","[u'red', u'black', u'blue']","[u'left', u'middle', u'right']","[0.8, 0.4, 0.2]","[u'medium', u'low', u'high']","red",49,"left","medium",TRUE,FALSE,381,5300,NA
"ASTR3EPUOKEXV","Sun Sep 20 2020 10:59:16 GMT-0400 (Eastern Daylight Time)","Sun Sep 20 2020 12:23:20 GMT-0400 (Eastern Daylight Time)","Mozilla/5.0 (Windows NT 10.0; Win64; x64) AppleWebKit/537.36 (KHTML, like Gecko) Chrome/85.0.4183.102 Safari/537.36",117,"[0.9, 0.5, 0.1]","[0.8, 0.4, 0.2]","[u'red', u'black', u'blue']","[u'left', u'middle', u'right']","[0.8, 0.4, 0.2]","[u'medium', u'low', u'high']","red",49,"left","medium",FALSE,FALSE,548,5250,NA
"ASTR3EPUOKEXV","Sun Sep 20 2020 10:59:16 GMT-0400 (Eastern Daylight Time)","Sun Sep 20 2020 12:23:20 GMT-0400 (Eastern Daylight Time)","Mozilla/5.0 (Windows NT 10.0; Win64; x64) AppleWebKit/537.36 (KHTML, like Gecko) Chrome/85.0.4183.102 Safari/537.36",118,"[0.9, 0.5, 0.1]","[0.8, 0.4, 0.2]","[u'red', u'black', u'blue']","[u'left', u'middle', u'right']","[0.8, 0.4, 0.2]","[u'medium', u'low', u'high']","black",50,"middle","low",FALSE,FALSE,244,5200,NA
"ASTR3EPUOKEXV","Sun Sep 20 2020 10:59:16 GMT-0400 (Eastern Daylight Time)","Sun Sep 20 2020 12:23:20 GMT-0400 (Eastern Daylight Time)","Mozilla/5.0 (Windows NT 10.0; Win64; x64) AppleWebKit/537.36 (KHTML, like Gecko) Chrome/85.0.4183.102 Safari/537.36",119,"[0.9, 0.5, 0.1]","[0.8, 0.4, 0.2]","[u'red', u'black', u'blue']","[u'left', u'middle', u'right']","[0.8, 0.4, 0.2]","[u'medium', u'low', u'high']","blue",51,"right","high",TRUE,FALSE,408,5300,NA
"ASTR3EPUOKEXV","Sun Sep 20 2020 10:59:16 GMT-0400 (Eastern Daylight Time)","Sun Sep 20 2020 12:23:20 GMT-0400 (Eastern Daylight Time)","Mozilla/5.0 (Windows NT 10.0; Win64; x64) AppleWebKit/537.36 (KHTML, like Gecko) Chrome/85.0.4183.102 Safari/537.36",120,"[0.9, 0.5, 0.1]","[0.8, 0.4, 0.2]","[u'red', u'black', u'blue']","[u'left', u'middle', u'right']","[0.8, 0.4, 0.2]","[u'medium', u'low', u'high']","blue",51,"right","high",TRUE,FALSE,251,5400,NA
"ASTR3EPUOKEXV","Sun Sep 20 2020 10:59:16 GMT-0400 (Eastern Daylight Time)","Sun Sep 20 2020 12:23:20 GMT-0400 (Eastern Daylight Time)","Mozilla/5.0 (Windows NT 10.0; Win64; x64) AppleWebKit/537.36 (KHTML, like Gecko) Chrome/85.0.4183.102 Safari/537.36",121,"[0.9, 0.5, 0.1]","[0.8, 0.4, 0.2]","[u'red', u'black', u'blue']","[u'left', u'middle', u'right']","[0.8, 0.4, 0.2]","[u'high', u'low', u'medium']","black",50,"middle","low",FALSE,FALSE,846,5350,NA
"ASTR3EPUOKEXV","Sun Sep 20 2020 10:59:16 GMT-0400 (Eastern Daylight Time)","Sun Sep 20 2020 12:23:20 GMT-0400 (Eastern Daylight Time)","Mozilla/5.0 (Windows NT 10.0; Win64; x64) AppleWebKit/537.36 (KHTML, like Gecko) Chrome/85.0.4183.102 Safari/537.36",122,"[0.9, 0.5, 0.1]","[0.8, 0.4, 0.2]","[u'red', u'black', u'blue']","[u'left', u'middle', u'right']","[0.8, 0.4, 0.2]","[u'high', u'low', u'medium']","blue",51,"right","medium",TRUE,FALSE,2347,5450,NA
"ASTR3EPUOKEXV","Sun Sep 20 2020 10:59:16 GMT-0400 (Eastern Daylight Time)","Sun Sep 20 2020 12:23:20 GMT-0400 (Eastern Daylight Time)","Mozilla/5.0 (Windows NT 10.0; Win64; x64) AppleWebKit/537.36 (KHTML, like Gecko) Chrome/85.0.4183.102 Safari/537.36",123,"[0.9, 0.5, 0.1]","[0.8, 0.4, 0.2]","[u'red', u'black', u'blue']","[u'left', u'middle', u'right']","[0.8, 0.4, 0.2]","[u'high', u'low', u'medium']","blue",51,"right","medium",TRUE,FALSE,667,5550,NA
"ASTR3EPUOKEXV","Sun Sep 20 2020 10:59:16 GMT-0400 (Eastern Daylight Time)","Sun Sep 20 2020 12:23:20 GMT-0400 (Eastern Daylight Time)","Mozilla/5.0 (Windows NT 10.0; Win64; x64) AppleWebKit/537.36 (KHTML, like Gecko) Chrome/85.0.4183.102 Safari/537.36",124,"[0.9, 0.5, 0.1]","[0.8, 0.4, 0.2]","[u'red', u'black', u'blue']","[u'left', u'middle', u'right']","[0.8, 0.4, 0.2]","[u'high', u'low', u'medium']","blue",51,"right","medium",FALSE,FALSE,244,5500,NA
"ASTR3EPUOKEXV","Sun Sep 20 2020 10:59:16 GMT-0400 (Eastern Daylight Time)","Sun Sep 20 2020 12:23:20 GMT-0400 (Eastern Daylight Time)","Mozilla/5.0 (Windows NT 10.0; Win64; x64) AppleWebKit/537.36 (KHTML, like Gecko) Chrome/85.0.4183.102 Safari/537.36",125,"[0.9, 0.5, 0.1]","[0.8, 0.4, 0.2]","[u'red', u'black', u'blue']","[u'left', u'middle', u'right']","[0.8, 0.4, 0.2]","[u'high', u'low', u'medium']","black",50,"middle","low",FALSE,FALSE,286,5450,NA
"ASTR3EPUOKEXV","Sun Sep 20 2020 10:59:16 GMT-0400 (Eastern Daylight Time)","Sun Sep 20 2020 12:23:20 GMT-0400 (Eastern Daylight Time)","Mozilla/5.0 (Windows NT 10.0; Win64; x64) AppleWebKit/537.36 (KHTML, like Gecko) Chrome/85.0.4183.102 Safari/537.36",126,"[0.9, 0.5, 0.1]","[0.8, 0.4, 0.2]","[u'red', u'black', u'blue']","[u'left', u'middle', u'right']","[0.8, 0.4, 0.2]","[u'high', u'low', u'medium']","red",49,"left","high",TRUE,FALSE,135,5550,NA
"ASTR3EPUOKEXV","Sun Sep 20 2020 10:59:16 GMT-0400 (Eastern Daylight Time)","Sun Sep 20 2020 12:23:20 GMT-0400 (Eastern Daylight Time)","Mozilla/5.0 (Windows NT 10.0; Win64; x64) AppleWebKit/537.36 (KHTML, like Gecko) Chrome/85.0.4183.102 Safari/537.36",127,"[0.9, 0.5, 0.1]","[0.8, 0.4, 0.2]","[u'red', u'black', u'blue']","[u'left', u'middle', u'right']","[0.8, 0.4, 0.2]","[u'high', u'low', u'medium']","red",49,"left","high",FALSE,FALSE,181,5500,NA
"ASTR3EPUOKEXV","Sun Sep 20 2020 10:59:16 GMT-0400 (Eastern Daylight Time)","Sun Sep 20 2020 12:23:20 GMT-0400 (Eastern Daylight Time)","Mozilla/5.0 (Windows NT 10.0; Win64; x64) AppleWebKit/537.36 (KHTML, like Gecko) Chrome/85.0.4183.102 Safari/537.36",128,"[0.9, 0.5, 0.1]","[0.8, 0.4, 0.2]","[u'red', u'black', u'blue']","[u'left', u'middle', u'right']","[0.8, 0.4, 0.2]","[u'high', u'low', u'medium']","black",50,"middle","low",TRUE,FALSE,266,5600,NA
"ASTR3EPUOKEXV","Sun Sep 20 2020 10:59:16 GMT-0400 (Eastern Daylight Time)","Sun Sep 20 2020 12:23:20 GMT-0400 (Eastern Daylight Time)","Mozilla/5.0 (Windows NT 10.0; Win64; x64) AppleWebKit/537.36 (KHTML, like Gecko) Chrome/85.0.4183.102 Safari/537.36",129,"[0.9, 0.5, 0.1]","[0.8, 0.4, 0.2]","[u'red', u'black', u'blue']","[u'left', u'middle', u'right']","[0.8, 0.4, 0.2]","[u'high', u'low', u'medium']","black",50,"middle","low",FALSE,FALSE,353,5550,NA
"ASTR3EPUOKEXV","Sun Sep 20 2020 10:59:16 GMT-0400 (Eastern Daylight Time)","Sun Sep 20 2020 12:23:20 GMT-0400 (Eastern Daylight Time)","Mozilla/5.0 (Windows NT 10.0; Win64; x64) AppleWebKit/537.36 (KHTML, like Gecko) Chrome/85.0.4183.102 Safari/537.36",130,"[0.9, 0.5, 0.1]","[0.8, 0.4, 0.2]","[u'red', u'black', u'blue']","[u'left', u'middle', u'right']","[0.8, 0.4, 0.2]","[u'high', u'low', u'medium']","blue",51,"right","medium",TRUE,FALSE,436,5650,NA
"ASTR3EPUOKEXV","Sun Sep 20 2020 10:59:16 GMT-0400 (Eastern Daylight Time)","Sun Sep 20 2020 12:23:20 GMT-0400 (Eastern Daylight Time)","Mozilla/5.0 (Windows NT 10.0; Win64; x64) AppleWebKit/537.36 (KHTML, like Gecko) Chrome/85.0.4183.102 Safari/537.36",131,"[0.9, 0.5, 0.1]","[0.8, 0.4, 0.2]","[u'red', u'black', u'blue']","[u'left', u'middle', u'right']","[0.8, 0.4, 0.2]","[u'high', u'low', u'medium']","blue",51,"right","medium",FALSE,FALSE,639,5600,NA
"ASTR3EPUOKEXV","Sun Sep 20 2020 10:59:16 GMT-0400 (Eastern Daylight Time)","Sun Sep 20 2020 12:23:20 GMT-0400 (Eastern Daylight Time)","Mozilla/5.0 (Windows NT 10.0; Win64; x64) AppleWebKit/537.36 (KHTML, like Gecko) Chrome/85.0.4183.102 Safari/537.36",132,"[0.9, 0.5, 0.1]","[0.8, 0.4, 0.2]","[u'red', u'black', u'blue']","[u'left', u'middle', u'right']","[0.8, 0.4, 0.2]","[u'high', u'low', u'medium']","red",49,"left","high",TRUE,FALSE,199,5700,NA
"ASTR3EPUOKEXV","Sun Sep 20 2020 10:59:16 GMT-0400 (Eastern Daylight Time)","Sun Sep 20 2020 12:23:20 GMT-0400 (Eastern Daylight Time)","Mozilla/5.0 (Windows NT 10.0; Win64; x64) AppleWebKit/537.36 (KHTML, like Gecko) Chrome/85.0.4183.102 Safari/537.36",133,"[0.9, 0.5, 0.1]","[0.8, 0.4, 0.2]","[u'red', u'black', u'blue']","[u'left', u'middle', u'right']","[0.8, 0.4, 0.2]","[u'high', u'low', u'medium']","black",50,"middle","low",FALSE,FALSE,708,5650,NA
"ASTR3EPUOKEXV","Sun Sep 20 2020 10:59:16 GMT-0400 (Eastern Daylight Time)","Sun Sep 20 2020 12:23:20 GMT-0400 (Eastern Daylight Time)","Mozilla/5.0 (Windows NT 10.0; Win64; x64) AppleWebKit/537.36 (KHTML, like Gecko) Chrome/85.0.4183.102 Safari/537.36",134,"[0.9, 0.5, 0.1]","[0.8, 0.4, 0.2]","[u'red', u'black', u'blue']","[u'left', u'middle', u'right']","[0.8, 0.4, 0.2]","[u'high', u'low', u'medium']","blue",51,"right","medium",FALSE,FALSE,167,5600,NA
"ASTR3EPUOKEXV","Sun Sep 20 2020 10:59:16 GMT-0400 (Eastern Daylight Time)","Sun Sep 20 2020 12:23:20 GMT-0400 (Eastern Daylight Time)","Mozilla/5.0 (Windows NT 10.0; Win64; x64) AppleWebKit/537.36 (KHTML, like Gecko) Chrome/85.0.4183.102 Safari/537.36",135,"[0.9, 0.5, 0.1]","[0.8, 0.4, 0.2]","[u'red', u'black', u'blue']","[u'left', u'middle', u'right']","[0.8, 0.4, 0.2]","[u'high', u'low', u'medium']","red",49,"left","high",FALSE,FALSE,134,5550,NA
"ASTR3EPUOKEXV","Sun Sep 20 2020 10:59:16 GMT-0400 (Eastern Daylight Time)","Sun Sep 20 2020 12:23:20 GMT-0400 (Eastern Daylight Time)","Mozilla/5.0 (Windows NT 10.0; Win64; x64) AppleWebKit/537.36 (KHTML, like Gecko) Chrome/85.0.4183.102 Safari/537.36",136,"[0.9, 0.5, 0.1]","[0.8, 0.4, 0.2]","[u'red', u'black', u'blue']","[u'left', u'middle', u'right']","[0.8, 0.4, 0.2]","[u'high', u'low', u'medium']","blue",51,"right","medium",FALSE,FALSE,322,5500,NA
"ASTR3EPUOKEXV","Sun Sep 20 2020 10:59:16 GMT-0400 (Eastern Daylight Time)","Sun Sep 20 2020 12:23:20 GMT-0400 (Eastern Daylight Time)","Mozilla/5.0 (Windows NT 10.0; Win64; x64) AppleWebKit/537.36 (KHTML, like Gecko) Chrome/85.0.4183.102 Safari/537.36",137,"[0.9, 0.5, 0.1]","[0.8, 0.4, 0.2]","[u'red', u'black', u'blue']","[u'left', u'middle', u'right']","[0.8, 0.4, 0.2]","[u'high', u'low', u'medium']","black",50,"middle","low",FALSE,FALSE,423,5450,NA
"ASTR3EPUOKEXV","Sun Sep 20 2020 10:59:16 GMT-0400 (Eastern Daylight Time)","Sun Sep 20 2020 12:23:20 GMT-0400 (Eastern Daylight Time)","Mozilla/5.0 (Windows NT 10.0; Win64; x64) AppleWebKit/537.36 (KHTML, like Gecko) Chrome/85.0.4183.102 Safari/537.36",138,"[0.9, 0.5, 0.1]","[0.8, 0.4, 0.2]","[u'red', u'black', u'blue']","[u'left', u'middle', u'right']","[0.8, 0.4, 0.2]","[u'high', u'low', u'medium']","blue",51,"right","medium",FALSE,FALSE,307,5400,NA
"ASTR3EPUOKEXV","Sun Sep 20 2020 10:59:16 GMT-0400 (Eastern Daylight Time)","Sun Sep 20 2020 12:23:20 GMT-0400 (Eastern Daylight Time)","Mozilla/5.0 (Windows NT 10.0; Win64; x64) AppleWebKit/537.36 (KHTML, like Gecko) Chrome/85.0.4183.102 Safari/537.36",139,"[0.9, 0.5, 0.1]","[0.8, 0.4, 0.2]","[u'red', u'black', u'blue']","[u'left', u'middle', u'right']","[0.8, 0.4, 0.2]","[u'high', u'low', u'medium']","blue",51,"right","medium",FALSE,FALSE,246,5350,NA
"ASTR3EPUOKEXV","Sun Sep 20 2020 10:59:16 GMT-0400 (Eastern Daylight Time)","Sun Sep 20 2020 12:23:20 GMT-0400 (Eastern Daylight Time)","Mozilla/5.0 (Windows NT 10.0; Win64; x64) AppleWebKit/537.36 (KHTML, like Gecko) Chrome/85.0.4183.102 Safari/537.36",140,"[0.9, 0.5, 0.1]","[0.8, 0.4, 0.2]","[u'red', u'black', u'blue']","[u'left', u'middle', u'right']","[0.8, 0.4, 0.2]","[u'high', u'low', u'medium']","black",50,"middle","low",FALSE,FALSE,179,5300,NA
"ASTR3EPUOKEXV","Sun Sep 20 2020 10:59:16 GMT-0400 (Eastern Daylight Time)","Sun Sep 20 2020 12:23:20 GMT-0400 (Eastern Daylight Time)","Mozilla/5.0 (Windows NT 10.0; Win64; x64) AppleWebKit/537.36 (KHTML, like Gecko) Chrome/85.0.4183.102 Safari/537.36",141,"[0.9, 0.5, 0.1]","[0.8, 0.4, 0.2]","[u'red', u'black', u'blue']","[u'left', u'middle', u'right']","[0.8, 0.4, 0.2]","[u'high', u'low', u'medium']","red",49,"left","high",FALSE,FALSE,223,5250,NA
"ASTR3EPUOKEXV","Sun Sep 20 2020 10:59:16 GMT-0400 (Eastern Daylight Time)","Sun Sep 20 2020 12:23:20 GMT-0400 (Eastern Daylight Time)","Mozilla/5.0 (Windows NT 10.0; Win64; x64) AppleWebKit/537.36 (KHTML, like Gecko) Chrome/85.0.4183.102 Safari/537.36",142,"[0.9, 0.5, 0.1]","[0.8, 0.4, 0.2]","[u'red', u'black', u'blue']","[u'left', u'middle', u'right']","[0.8, 0.4, 0.2]","[u'high', u'low', u'medium']","red",49,"left","high",TRUE,FALSE,327,5350,NA
"ASTR3EPUOKEXV","Sun Sep 20 2020 10:59:16 GMT-0400 (Eastern Daylight Time)","Sun Sep 20 2020 12:23:20 GMT-0400 (Eastern Daylight Time)","Mozilla/5.0 (Windows NT 10.0; Win64; x64) AppleWebKit/537.36 (KHTML, like Gecko) Chrome/85.0.4183.102 Safari/537.36",143,"[0.9, 0.5, 0.1]","[0.8, 0.4, 0.2]","[u'red', u'black', u'blue']","[u'left', u'middle', u'right']","[0.8, 0.4, 0.2]","[u'high', u'low', u'medium']","red",49,"left","high",FALSE,FALSE,277,5300,NA
"ASTR3EPUOKEXV","Sun Sep 20 2020 10:59:16 GMT-0400 (Eastern Daylight Time)","Sun Sep 20 2020 12:23:20 GMT-0400 (Eastern Daylight Time)","Mozilla/5.0 (Windows NT 10.0; Win64; x64) AppleWebKit/537.36 (KHTML, like Gecko) Chrome/85.0.4183.102 Safari/537.36",144,"[0.9, 0.5, 0.1]","[0.8, 0.4, 0.2]","[u'red', u'black', u'blue']","[u'left', u'middle', u'right']","[0.8, 0.4, 0.2]","[u'high', u'low', u'medium']","black",50,"middle","low",FALSE,FALSE,275,5250,NA
"ASTR3EPUOKEXV","Sun Sep 20 2020 10:59:16 GMT-0400 (Eastern Daylight Time)","Sun Sep 20 2020 12:23:20 GMT-0400 (Eastern Daylight Time)","Mozilla/5.0 (Windows NT 10.0; Win64; x64) AppleWebKit/537.36 (KHTML, like Gecko) Chrome/85.0.4183.102 Safari/537.36",145,"[0.9, 0.5, 0.1]","[0.8, 0.4, 0.2]","[u'red', u'black', u'blue']","[u'left', u'middle', u'right']","[0.8, 0.4, 0.2]","[u'high', u'low', u'medium']","blue",51,"right","medium",FALSE,FALSE,363,5200,NA
"ASTR3EPUOKEXV","Sun Sep 20 2020 10:59:16 GMT-0400 (Eastern Daylight Time)","Sun Sep 20 2020 12:23:20 GMT-0400 (Eastern Daylight Time)","Mozilla/5.0 (Windows NT 10.0; Win64; x64) AppleWebKit/537.36 (KHTML, like Gecko) Chrome/85.0.4183.102 Safari/537.36",146,"[0.9, 0.5, 0.1]","[0.8, 0.4, 0.2]","[u'red', u'black', u'blue']","[u'left', u'middle', u'right']","[0.8, 0.4, 0.2]","[u'high', u'low', u'medium']","blue",51,"right","medium",TRUE,FALSE,471,5300,NA
"ASTR3EPUOKEXV","Sun Sep 20 2020 10:59:16 GMT-0400 (Eastern Daylight Time)","Sun Sep 20 2020 12:23:20 GMT-0400 (Eastern Daylight Time)","Mozilla/5.0 (Windows NT 10.0; Win64; x64) AppleWebKit/537.36 (KHTML, like Gecko) Chrome/85.0.4183.102 Safari/537.36",147,"[0.9, 0.5, 0.1]","[0.8, 0.4, 0.2]","[u'red', u'black', u'blue']","[u'left', u'middle', u'right']","[0.8, 0.4, 0.2]","[u'high', u'low', u'medium']","blue",51,"right","medium",TRUE,FALSE,258,5400,NA
"ASTR3EPUOKEXV","Sun Sep 20 2020 10:59:16 GMT-0400 (Eastern Daylight Time)","Sun Sep 20 2020 12:23:20 GMT-0400 (Eastern Daylight Time)","Mozilla/5.0 (Windows NT 10.0; Win64; x64) AppleWebKit/537.36 (KHTML, like Gecko) Chrome/85.0.4183.102 Safari/537.36",148,"[0.9, 0.5, 0.1]","[0.8, 0.4, 0.2]","[u'red', u'black', u'blue']","[u'left', u'middle', u'right']","[0.8, 0.4, 0.2]","[u'high', u'low', u'medium']","blue",51,"right","medium",TRUE,FALSE,264,5500,NA
"ASTR3EPUOKEXV","Sun Sep 20 2020 10:59:16 GMT-0400 (Eastern Daylight Time)","Sun Sep 20 2020 12:23:20 GMT-0400 (Eastern Daylight Time)","Mozilla/5.0 (Windows NT 10.0; Win64; x64) AppleWebKit/537.36 (KHTML, like Gecko) Chrome/85.0.4183.102 Safari/537.36",149,"[0.9, 0.5, 0.1]","[0.8, 0.4, 0.2]","[u'red', u'black', u'blue']","[u'left', u'middle', u'right']","[0.8, 0.4, 0.2]","[u'high', u'low', u'medium']","blue",51,"right","medium",FALSE,FALSE,257,5450,NA
"ASTR3EPUOKEXV","Sun Sep 20 2020 10:59:16 GMT-0400 (Eastern Daylight Time)","Sun Sep 20 2020 12:23:20 GMT-0400 (Eastern Daylight Time)","Mozilla/5.0 (Windows NT 10.0; Win64; x64) AppleWebKit/537.36 (KHTML, like Gecko) Chrome/85.0.4183.102 Safari/537.36",150,"[0.9, 0.5, 0.1]","[0.8, 0.4, 0.2]","[u'red', u'black', u'blue']","[u'left', u'middle', u'right']","[0.8, 0.4, 0.2]","[u'high', u'low', u'medium']","red",49,"left","high",TRUE,FALSE,472,5550,NA
"ASTR3EPUOKEXV","Sun Sep 20 2020 10:59:16 GMT-0400 (Eastern Daylight Time)","Sun Sep 20 2020 12:23:20 GMT-0400 (Eastern Daylight Time)","Mozilla/5.0 (Windows NT 10.0; Win64; x64) AppleWebKit/537.36 (KHTML, like Gecko) Chrome/85.0.4183.102 Safari/537.36",151,"[0.9, 0.5, 0.1]","[0.8, 0.4, 0.2]","[u'red', u'black', u'blue']","[u'left', u'middle', u'right']","[0.8, 0.4, 0.2]","[u'high', u'low', u'medium']","red",49,"left","high",TRUE,FALSE,275,5650,NA
"ASTR3EPUOKEXV","Sun Sep 20 2020 10:59:16 GMT-0400 (Eastern Daylight Time)","Sun Sep 20 2020 12:23:20 GMT-0400 (Eastern Daylight Time)","Mozilla/5.0 (Windows NT 10.0; Win64; x64) AppleWebKit/537.36 (KHTML, like Gecko) Chrome/85.0.4183.102 Safari/537.36",152,"[0.9, 0.5, 0.1]","[0.8, 0.4, 0.2]","[u'red', u'black', u'blue']","[u'left', u'middle', u'right']","[0.8, 0.4, 0.2]","[u'high', u'low', u'medium']","red",49,"left","high",TRUE,FALSE,250,5750,NA
"ASTR3EPUOKEXV","Sun Sep 20 2020 10:59:16 GMT-0400 (Eastern Daylight Time)","Sun Sep 20 2020 12:23:20 GMT-0400 (Eastern Daylight Time)","Mozilla/5.0 (Windows NT 10.0; Win64; x64) AppleWebKit/537.36 (KHTML, like Gecko) Chrome/85.0.4183.102 Safari/537.36",153,"[0.9, 0.5, 0.1]","[0.8, 0.4, 0.2]","[u'red', u'black', u'blue']","[u'left', u'middle', u'right']","[0.8, 0.4, 0.2]","[u'high', u'low', u'medium']","red",49,"left","high",TRUE,FALSE,226,5850,NA
"ASTR3EPUOKEXV","Sun Sep 20 2020 10:59:16 GMT-0400 (Eastern Daylight Time)","Sun Sep 20 2020 12:23:20 GMT-0400 (Eastern Daylight Time)","Mozilla/5.0 (Windows NT 10.0; Win64; x64) AppleWebKit/537.36 (KHTML, like Gecko) Chrome/85.0.4183.102 Safari/537.36",154,"[0.9, 0.5, 0.1]","[0.8, 0.4, 0.2]","[u'red', u'black', u'blue']","[u'left', u'middle', u'right']","[0.8, 0.4, 0.2]","[u'high', u'low', u'medium']","black",50,"middle","low",FALSE,FALSE,198,5800,NA
"ASTR3EPUOKEXV","Sun Sep 20 2020 10:59:16 GMT-0400 (Eastern Daylight Time)","Sun Sep 20 2020 12:23:20 GMT-0400 (Eastern Daylight Time)","Mozilla/5.0 (Windows NT 10.0; Win64; x64) AppleWebKit/537.36 (KHTML, like Gecko) Chrome/85.0.4183.102 Safari/537.36",155,"[0.9, 0.5, 0.1]","[0.8, 0.4, 0.2]","[u'red', u'black', u'blue']","[u'left', u'middle', u'right']","[0.8, 0.4, 0.2]","[u'high', u'low', u'medium']","blue",51,"right","medium",FALSE,FALSE,329,5750,NA
"ASTR3EPUOKEXV","Sun Sep 20 2020 10:59:16 GMT-0400 (Eastern Daylight Time)","Sun Sep 20 2020 12:23:20 GMT-0400 (Eastern Daylight Time)","Mozilla/5.0 (Windows NT 10.0; Win64; x64) AppleWebKit/537.36 (KHTML, like Gecko) Chrome/85.0.4183.102 Safari/537.36",156,"[0.9, 0.5, 0.1]","[0.8, 0.4, 0.2]","[u'red', u'black', u'blue']","[u'left', u'middle', u'right']","[0.8, 0.4, 0.2]","[u'high', u'low', u'medium']","red",49,"left","high",TRUE,FALSE,228,5850,NA
"ASTR3EPUOKEXV","Sun Sep 20 2020 10:59:16 GMT-0400 (Eastern Daylight Time)","Sun Sep 20 2020 12:23:20 GMT-0400 (Eastern Daylight Time)","Mozilla/5.0 (Windows NT 10.0; Win64; x64) AppleWebKit/537.36 (KHTML, like Gecko) Chrome/85.0.4183.102 Safari/537.36",157,"[0.9, 0.5, 0.1]","[0.8, 0.4, 0.2]","[u'red', u'black', u'blue']","[u'left', u'middle', u'right']","[0.8, 0.4, 0.2]","[u'high', u'low', u'medium']","red",49,"left","high",FALSE,FALSE,453,5800,NA
"ASTR3EPUOKEXV","Sun Sep 20 2020 10:59:16 GMT-0400 (Eastern Daylight Time)","Sun Sep 20 2020 12:23:20 GMT-0400 (Eastern Daylight Time)","Mozilla/5.0 (Windows NT 10.0; Win64; x64) AppleWebKit/537.36 (KHTML, like Gecko) Chrome/85.0.4183.102 Safari/537.36",158,"[0.9, 0.5, 0.1]","[0.8, 0.4, 0.2]","[u'red', u'black', u'blue']","[u'left', u'middle', u'right']","[0.8, 0.4, 0.2]","[u'high', u'low', u'medium']","black",50,"middle","low",FALSE,FALSE,380,5750,NA
"ASTR3EPUOKEXV","Sun Sep 20 2020 10:59:16 GMT-0400 (Eastern Daylight Time)","Sun Sep 20 2020 12:23:20 GMT-0400 (Eastern Daylight Time)","Mozilla/5.0 (Windows NT 10.0; Win64; x64) AppleWebKit/537.36 (KHTML, like Gecko) Chrome/85.0.4183.102 Safari/537.36",159,"[0.9, 0.5, 0.1]","[0.8, 0.4, 0.2]","[u'red', u'black', u'blue']","[u'left', u'middle', u'right']","[0.8, 0.4, 0.2]","[u'high', u'low', u'medium']","red",49,"left","high",TRUE,FALSE,352,5850,NA
"ASTR3EPUOKEXV","Sun Sep 20 2020 10:59:16 GMT-0400 (Eastern Daylight Time)","Sun Sep 20 2020 12:23:20 GMT-0400 (Eastern Daylight Time)","Mozilla/5.0 (Windows NT 10.0; Win64; x64) AppleWebKit/537.36 (KHTML, like Gecko) Chrome/85.0.4183.102 Safari/537.36",160,"[0.9, 0.5, 0.1]","[0.8, 0.4, 0.2]","[u'red', u'black', u'blue']","[u'left', u'middle', u'right']","[0.8, 0.4, 0.2]","[u'high', u'low', u'medium']","red",49,"left","high",FALSE,FALSE,914,5800,NA
