"src_subject_id","start_time","end_time","browser","index","first_half_probabilities","second_half_probabilities","deck_color","deck_position","deck_probabilities","deck_contingencies","response_color","key_press","response_position","response_probability","reward_type","trial_type","rt","reward_tally","exclusion_reason"
"A24LC97AU3QC7G","Tue Jan 28 2020 12:34:23 GMT-0600 (Central Standard Time)","Tue Jan 28 2020 12:42:07 GMT-0600 (Central Standard Time)","Mozilla/5.0 (Windows NT 6.1; Win64; x64) AppleWebKit/537.36 (KHTML, like Gecko) Chrome/79.0.3945.130 Safari/537.36",1,"[0.9, 0.5, 0.1]","[0.8, 0.4, 0.2]","[u'black', u'blue', u'red']","[u'left', u'middle', u'right']","[0.9, 0.5, 0.1]","[u'low', u'medium', u'high']","blue",50,"middle","medium","False","False",660,-50,NA
"A24LC97AU3QC7G","Tue Jan 28 2020 12:34:23 GMT-0600 (Central Standard Time)","Tue Jan 28 2020 12:42:07 GMT-0600 (Central Standard Time)","Mozilla/5.0 (Windows NT 6.1; Win64; x64) AppleWebKit/537.36 (KHTML, like Gecko) Chrome/79.0.3945.130 Safari/537.36",2,"[0.9, 0.5, 0.1]","[0.8, 0.4, 0.2]","[u'black', u'blue', u'red']","[u'left', u'middle', u'right']","[0.9, 0.5, 0.1]","[u'low', u'medium', u'high']","black",49,"left","low","True","False",437,50,NA
"A24LC97AU3QC7G","Tue Jan 28 2020 12:34:23 GMT-0600 (Central Standard Time)","Tue Jan 28 2020 12:42:07 GMT-0600 (Central Standard Time)","Mozilla/5.0 (Windows NT 6.1; Win64; x64) AppleWebKit/537.36 (KHTML, like Gecko) Chrome/79.0.3945.130 Safari/537.36",3,"[0.9, 0.5, 0.1]","[0.8, 0.4, 0.2]","[u'black', u'blue', u'red']","[u'left', u'middle', u'right']","[0.9, 0.5, 0.1]","[u'low', u'medium', u'high']","black",49,"left","low","True","False",358,150,NA
"A24LC97AU3QC7G","Tue Jan 28 2020 12:34:23 GMT-0600 (Central Standard Time)","Tue Jan 28 2020 12:42:07 GMT-0600 (Central Standard Time)","Mozilla/5.0 (Windows NT 6.1; Win64; x64) AppleWebKit/537.36 (KHTML, like Gecko) Chrome/79.0.3945.130 Safari/537.36",4,"[0.9, 0.5, 0.1]","[0.8, 0.4, 0.2]","[u'black', u'blue', u'red']","[u'left', u'middle', u'right']","[0.9, 0.5, 0.1]","[u'low', u'medium', u'high']","black",49,"left","low","False","False",519,100,NA
"A24LC97AU3QC7G","Tue Jan 28 2020 12:34:23 GMT-0600 (Central Standard Time)","Tue Jan 28 2020 12:42:07 GMT-0600 (Central Standard Time)","Mozilla/5.0 (Windows NT 6.1; Win64; x64) AppleWebKit/537.36 (KHTML, like Gecko) Chrome/79.0.3945.130 Safari/537.36",5,"[0.9, 0.5, 0.1]","[0.8, 0.4, 0.2]","[u'black', u'blue', u'red']","[u'left', u'middle', u'right']","[0.9, 0.5, 0.1]","[u'low', u'medium', u'high']","red",51,"right","high","True","False",699,200,NA
"A24LC97AU3QC7G","Tue Jan 28 2020 12:34:23 GMT-0600 (Central Standard Time)","Tue Jan 28 2020 12:42:07 GMT-0600 (Central Standard Time)","Mozilla/5.0 (Windows NT 6.1; Win64; x64) AppleWebKit/537.36 (KHTML, like Gecko) Chrome/79.0.3945.130 Safari/537.36",6,"[0.9, 0.5, 0.1]","[0.8, 0.4, 0.2]","[u'black', u'blue', u'red']","[u'left', u'middle', u'right']","[0.9, 0.5, 0.1]","[u'low', u'medium', u'high']","red",51,"right","high","False","False",400,150,NA
"A24LC97AU3QC7G","Tue Jan 28 2020 12:34:23 GMT-0600 (Central Standard Time)","Tue Jan 28 2020 12:42:07 GMT-0600 (Central Standard Time)","Mozilla/5.0 (Windows NT 6.1; Win64; x64) AppleWebKit/537.36 (KHTML, like Gecko) Chrome/79.0.3945.130 Safari/537.36",7,"[0.9, 0.5, 0.1]","[0.8, 0.4, 0.2]","[u'black', u'blue', u'red']","[u'left', u'middle', u'right']","[0.9, 0.5, 0.1]","[u'low', u'medium', u'high']","black",49,"left","low","True","False",1018,250,NA
"A24LC97AU3QC7G","Tue Jan 28 2020 12:34:23 GMT-0600 (Central Standard Time)","Tue Jan 28 2020 12:42:07 GMT-0600 (Central Standard Time)","Mozilla/5.0 (Windows NT 6.1; Win64; x64) AppleWebKit/537.36 (KHTML, like Gecko) Chrome/79.0.3945.130 Safari/537.36",8,"[0.9, 0.5, 0.1]","[0.8, 0.4, 0.2]","[u'black', u'blue', u'red']","[u'left', u'middle', u'right']","[0.9, 0.5, 0.1]","[u'low', u'medium', u'high']","black",49,"left","low","False","False",660,200,NA
"A24LC97AU3QC7G","Tue Jan 28 2020 12:34:23 GMT-0600 (Central Standard Time)","Tue Jan 28 2020 12:42:07 GMT-0600 (Central Standard Time)","Mozilla/5.0 (Windows NT 6.1; Win64; x64) AppleWebKit/537.36 (KHTML, like Gecko) Chrome/79.0.3945.130 Safari/537.36",9,"[0.9, 0.5, 0.1]","[0.8, 0.4, 0.2]","[u'black', u'blue', u'red']","[u'left', u'middle', u'right']","[0.9, 0.5, 0.1]","[u'low', u'medium', u'high']","black",49,"left","low","False","False",1139,150,NA
"A24LC97AU3QC7G","Tue Jan 28 2020 12:34:23 GMT-0600 (Central Standard Time)","Tue Jan 28 2020 12:42:07 GMT-0600 (Central Standard Time)","Mozilla/5.0 (Windows NT 6.1; Win64; x64) AppleWebKit/537.36 (KHTML, like Gecko) Chrome/79.0.3945.130 Safari/537.36",10,"[0.9, 0.5, 0.1]","[0.8, 0.4, 0.2]","[u'black', u'blue', u'red']","[u'left', u'middle', u'right']","[0.9, 0.5, 0.1]","[u'low', u'medium', u'high']","red",51,"right","high","True","False",379,250,NA
"A24LC97AU3QC7G","Tue Jan 28 2020 12:34:23 GMT-0600 (Central Standard Time)","Tue Jan 28 2020 12:42:07 GMT-0600 (Central Standard Time)","Mozilla/5.0 (Windows NT 6.1; Win64; x64) AppleWebKit/537.36 (KHTML, like Gecko) Chrome/79.0.3945.130 Safari/537.36",11,"[0.9, 0.5, 0.1]","[0.8, 0.4, 0.2]","[u'black', u'blue', u'red']","[u'left', u'middle', u'right']","[0.9, 0.5, 0.1]","[u'low', u'medium', u'high']","black",49,"left","low","False","False",360,200,NA
"A24LC97AU3QC7G","Tue Jan 28 2020 12:34:23 GMT-0600 (Central Standard Time)","Tue Jan 28 2020 12:42:07 GMT-0600 (Central Standard Time)","Mozilla/5.0 (Windows NT 6.1; Win64; x64) AppleWebKit/537.36 (KHTML, like Gecko) Chrome/79.0.3945.130 Safari/537.36",12,"[0.9, 0.5, 0.1]","[0.8, 0.4, 0.2]","[u'black', u'blue', u'red']","[u'left', u'middle', u'right']","[0.9, 0.5, 0.1]","[u'low', u'medium', u'high']","red",51,"right","high","False","False",939,150,NA
"A24LC97AU3QC7G","Tue Jan 28 2020 12:34:23 GMT-0600 (Central Standard Time)","Tue Jan 28 2020 12:42:07 GMT-0600 (Central Standard Time)","Mozilla/5.0 (Windows NT 6.1; Win64; x64) AppleWebKit/537.36 (KHTML, like Gecko) Chrome/79.0.3945.130 Safari/537.36",13,"[0.9, 0.5, 0.1]","[0.8, 0.4, 0.2]","[u'black', u'blue', u'red']","[u'left', u'middle', u'right']","[0.9, 0.5, 0.1]","[u'low', u'medium', u'high']","red",51,"right","high","True","False",3330,250,NA
"A24LC97AU3QC7G","Tue Jan 28 2020 12:34:23 GMT-0600 (Central Standard Time)","Tue Jan 28 2020 12:42:07 GMT-0600 (Central Standard Time)","Mozilla/5.0 (Windows NT 6.1; Win64; x64) AppleWebKit/537.36 (KHTML, like Gecko) Chrome/79.0.3945.130 Safari/537.36",14,"[0.9, 0.5, 0.1]","[0.8, 0.4, 0.2]","[u'black', u'blue', u'red']","[u'left', u'middle', u'right']","[0.9, 0.5, 0.1]","[u'low', u'medium', u'high']","red",51,"right","high","True","False",687,350,NA
"A24LC97AU3QC7G","Tue Jan 28 2020 12:34:23 GMT-0600 (Central Standard Time)","Tue Jan 28 2020 12:42:07 GMT-0600 (Central Standard Time)","Mozilla/5.0 (Windows NT 6.1; Win64; x64) AppleWebKit/537.36 (KHTML, like Gecko) Chrome/79.0.3945.130 Safari/537.36",15,"[0.9, 0.5, 0.1]","[0.8, 0.4, 0.2]","[u'black', u'blue', u'red']","[u'left', u'middle', u'right']","[0.9, 0.5, 0.1]","[u'low', u'medium', u'high']","black",49,"left","low","True","False",1120,450,NA
"A24LC97AU3QC7G","Tue Jan 28 2020 12:34:23 GMT-0600 (Central Standard Time)","Tue Jan 28 2020 12:42:07 GMT-0600 (Central Standard Time)","Mozilla/5.0 (Windows NT 6.1; Win64; x64) AppleWebKit/537.36 (KHTML, like Gecko) Chrome/79.0.3945.130 Safari/537.36",16,"[0.9, 0.5, 0.1]","[0.8, 0.4, 0.2]","[u'black', u'blue', u'red']","[u'left', u'middle', u'right']","[0.9, 0.5, 0.1]","[u'low', u'medium', u'high']","black",49,"left","low","False","False",938,400,NA
"A24LC97AU3QC7G","Tue Jan 28 2020 12:34:23 GMT-0600 (Central Standard Time)","Tue Jan 28 2020 12:42:07 GMT-0600 (Central Standard Time)","Mozilla/5.0 (Windows NT 6.1; Win64; x64) AppleWebKit/537.36 (KHTML, like Gecko) Chrome/79.0.3945.130 Safari/537.36",17,"[0.9, 0.5, 0.1]","[0.8, 0.4, 0.2]","[u'black', u'blue', u'red']","[u'left', u'middle', u'right']","[0.9, 0.5, 0.1]","[u'low', u'medium', u'high']","red",51,"right","high","True","False",559,500,NA
"A24LC97AU3QC7G","Tue Jan 28 2020 12:34:23 GMT-0600 (Central Standard Time)","Tue Jan 28 2020 12:42:07 GMT-0600 (Central Standard Time)","Mozilla/5.0 (Windows NT 6.1; Win64; x64) AppleWebKit/537.36 (KHTML, like Gecko) Chrome/79.0.3945.130 Safari/537.36",18,"[0.9, 0.5, 0.1]","[0.8, 0.4, 0.2]","[u'black', u'blue', u'red']","[u'left', u'middle', u'right']","[0.9, 0.5, 0.1]","[u'low', u'medium', u'high']","red",51,"right","high","True","False",419,600,NA
"A24LC97AU3QC7G","Tue Jan 28 2020 12:34:23 GMT-0600 (Central Standard Time)","Tue Jan 28 2020 12:42:07 GMT-0600 (Central Standard Time)","Mozilla/5.0 (Windows NT 6.1; Win64; x64) AppleWebKit/537.36 (KHTML, like Gecko) Chrome/79.0.3945.130 Safari/537.36",19,"[0.9, 0.5, 0.1]","[0.8, 0.4, 0.2]","[u'black', u'blue', u'red']","[u'left', u'middle', u'right']","[0.9, 0.5, 0.1]","[u'low', u'medium', u'high']","black",49,"left","low","False","False",359,550,NA
"A24LC97AU3QC7G","Tue Jan 28 2020 12:34:23 GMT-0600 (Central Standard Time)","Tue Jan 28 2020 12:42:07 GMT-0600 (Central Standard Time)","Mozilla/5.0 (Windows NT 6.1; Win64; x64) AppleWebKit/537.36 (KHTML, like Gecko) Chrome/79.0.3945.130 Safari/537.36",20,"[0.9, 0.5, 0.1]","[0.8, 0.4, 0.2]","[u'black', u'blue', u'red']","[u'left', u'middle', u'right']","[0.9, 0.5, 0.1]","[u'low', u'medium', u'high']","red",51,"right","high","True","False",320,650,NA
"A24LC97AU3QC7G","Tue Jan 28 2020 12:34:23 GMT-0600 (Central Standard Time)","Tue Jan 28 2020 12:42:07 GMT-0600 (Central Standard Time)","Mozilla/5.0 (Windows NT 6.1; Win64; x64) AppleWebKit/537.36 (KHTML, like Gecko) Chrome/79.0.3945.130 Safari/537.36",21,"[0.9, 0.5, 0.1]","[0.8, 0.4, 0.2]","[u'black', u'blue', u'red']","[u'left', u'middle', u'right']","[0.9, 0.5, 0.1]","[u'low', u'medium', u'high']","red",51,"right","high","False","False",398,600,NA
"A24LC97AU3QC7G","Tue Jan 28 2020 12:34:23 GMT-0600 (Central Standard Time)","Tue Jan 28 2020 12:42:07 GMT-0600 (Central Standard Time)","Mozilla/5.0 (Windows NT 6.1; Win64; x64) AppleWebKit/537.36 (KHTML, like Gecko) Chrome/79.0.3945.130 Safari/537.36",22,"[0.9, 0.5, 0.1]","[0.8, 0.4, 0.2]","[u'black', u'blue', u'red']","[u'left', u'middle', u'right']","[0.9, 0.5, 0.1]","[u'low', u'medium', u'high']","black",49,"left","low","True","False",399,700,NA
"A24LC97AU3QC7G","Tue Jan 28 2020 12:34:23 GMT-0600 (Central Standard Time)","Tue Jan 28 2020 12:42:07 GMT-0600 (Central Standard Time)","Mozilla/5.0 (Windows NT 6.1; Win64; x64) AppleWebKit/537.36 (KHTML, like Gecko) Chrome/79.0.3945.130 Safari/537.36",23,"[0.9, 0.5, 0.1]","[0.8, 0.4, 0.2]","[u'black', u'blue', u'red']","[u'left', u'middle', u'right']","[0.9, 0.5, 0.1]","[u'low', u'medium', u'high']","red",51,"right","high","True","False",399,800,NA
"A24LC97AU3QC7G","Tue Jan 28 2020 12:34:23 GMT-0600 (Central Standard Time)","Tue Jan 28 2020 12:42:07 GMT-0600 (Central Standard Time)","Mozilla/5.0 (Windows NT 6.1; Win64; x64) AppleWebKit/537.36 (KHTML, like Gecko) Chrome/79.0.3945.130 Safari/537.36",24,"[0.9, 0.5, 0.1]","[0.8, 0.4, 0.2]","[u'black', u'blue', u'red']","[u'left', u'middle', u'right']","[0.9, 0.5, 0.1]","[u'low', u'medium', u'high']","black",49,"left","low","False","False",438,750,NA
"A24LC97AU3QC7G","Tue Jan 28 2020 12:34:23 GMT-0600 (Central Standard Time)","Tue Jan 28 2020 12:42:07 GMT-0600 (Central Standard Time)","Mozilla/5.0 (Windows NT 6.1; Win64; x64) AppleWebKit/537.36 (KHTML, like Gecko) Chrome/79.0.3945.130 Safari/537.36",25,"[0.9, 0.5, 0.1]","[0.8, 0.4, 0.2]","[u'black', u'blue', u'red']","[u'left', u'middle', u'right']","[0.9, 0.5, 0.1]","[u'low', u'medium', u'high']","red",51,"right","high","False","False",318,700,NA
"A24LC97AU3QC7G","Tue Jan 28 2020 12:34:23 GMT-0600 (Central Standard Time)","Tue Jan 28 2020 12:42:07 GMT-0600 (Central Standard Time)","Mozilla/5.0 (Windows NT 6.1; Win64; x64) AppleWebKit/537.36 (KHTML, like Gecko) Chrome/79.0.3945.130 Safari/537.36",26,"[0.9, 0.5, 0.1]","[0.8, 0.4, 0.2]","[u'black', u'blue', u'red']","[u'left', u'middle', u'right']","[0.9, 0.5, 0.1]","[u'low', u'medium', u'high']","red",51,"right","high","True","False",320,800,NA
"A24LC97AU3QC7G","Tue Jan 28 2020 12:34:23 GMT-0600 (Central Standard Time)","Tue Jan 28 2020 12:42:07 GMT-0600 (Central Standard Time)","Mozilla/5.0 (Windows NT 6.1; Win64; x64) AppleWebKit/537.36 (KHTML, like Gecko) Chrome/79.0.3945.130 Safari/537.36",27,"[0.9, 0.5, 0.1]","[0.8, 0.4, 0.2]","[u'black', u'blue', u'red']","[u'left', u'middle', u'right']","[0.9, 0.5, 0.1]","[u'low', u'medium', u'high']","blue",50,"middle","medium","True","False",1098,900,NA
"A24LC97AU3QC7G","Tue Jan 28 2020 12:34:23 GMT-0600 (Central Standard Time)","Tue Jan 28 2020 12:42:07 GMT-0600 (Central Standard Time)","Mozilla/5.0 (Windows NT 6.1; Win64; x64) AppleWebKit/537.36 (KHTML, like Gecko) Chrome/79.0.3945.130 Safari/537.36",28,"[0.9, 0.5, 0.1]","[0.8, 0.4, 0.2]","[u'black', u'blue', u'red']","[u'left', u'middle', u'right']","[0.9, 0.5, 0.1]","[u'low', u'medium', u'high']","black",49,"left","low","False","False",579,850,NA
"A24LC97AU3QC7G","Tue Jan 28 2020 12:34:23 GMT-0600 (Central Standard Time)","Tue Jan 28 2020 12:42:07 GMT-0600 (Central Standard Time)","Mozilla/5.0 (Windows NT 6.1; Win64; x64) AppleWebKit/537.36 (KHTML, like Gecko) Chrome/79.0.3945.130 Safari/537.36",29,"[0.9, 0.5, 0.1]","[0.8, 0.4, 0.2]","[u'black', u'blue', u'red']","[u'left', u'middle', u'right']","[0.9, 0.5, 0.1]","[u'low', u'medium', u'high']","red",51,"right","high","True","False",459,950,NA
"A24LC97AU3QC7G","Tue Jan 28 2020 12:34:23 GMT-0600 (Central Standard Time)","Tue Jan 28 2020 12:42:07 GMT-0600 (Central Standard Time)","Mozilla/5.0 (Windows NT 6.1; Win64; x64) AppleWebKit/537.36 (KHTML, like Gecko) Chrome/79.0.3945.130 Safari/537.36",30,"[0.9, 0.5, 0.1]","[0.8, 0.4, 0.2]","[u'black', u'blue', u'red']","[u'left', u'middle', u'right']","[0.9, 0.5, 0.1]","[u'low', u'medium', u'high']","blue",50,"middle","medium","False","False",340,900,NA
"A24LC97AU3QC7G","Tue Jan 28 2020 12:34:23 GMT-0600 (Central Standard Time)","Tue Jan 28 2020 12:42:07 GMT-0600 (Central Standard Time)","Mozilla/5.0 (Windows NT 6.1; Win64; x64) AppleWebKit/537.36 (KHTML, like Gecko) Chrome/79.0.3945.130 Safari/537.36",31,"[0.9, 0.5, 0.1]","[0.8, 0.4, 0.2]","[u'black', u'blue', u'red']","[u'left', u'middle', u'right']","[0.9, 0.5, 0.1]","[u'low', u'medium', u'high']","black",49,"left","low","False","False",860,850,NA
"A24LC97AU3QC7G","Tue Jan 28 2020 12:34:23 GMT-0600 (Central Standard Time)","Tue Jan 28 2020 12:42:07 GMT-0600 (Central Standard Time)","Mozilla/5.0 (Windows NT 6.1; Win64; x64) AppleWebKit/537.36 (KHTML, like Gecko) Chrome/79.0.3945.130 Safari/537.36",32,"[0.9, 0.5, 0.1]","[0.8, 0.4, 0.2]","[u'black', u'blue', u'red']","[u'left', u'middle', u'right']","[0.9, 0.5, 0.1]","[u'low', u'medium', u'high']","red",51,"right","high","True","False",658,950,NA
"A24LC97AU3QC7G","Tue Jan 28 2020 12:34:23 GMT-0600 (Central Standard Time)","Tue Jan 28 2020 12:42:07 GMT-0600 (Central Standard Time)","Mozilla/5.0 (Windows NT 6.1; Win64; x64) AppleWebKit/537.36 (KHTML, like Gecko) Chrome/79.0.3945.130 Safari/537.36",33,"[0.9, 0.5, 0.1]","[0.8, 0.4, 0.2]","[u'black', u'blue', u'red']","[u'left', u'middle', u'right']","[0.9, 0.5, 0.1]","[u'low', u'medium', u'high']","red",51,"right","high","True","False",278,1050,NA
"A24LC97AU3QC7G","Tue Jan 28 2020 12:34:23 GMT-0600 (Central Standard Time)","Tue Jan 28 2020 12:42:07 GMT-0600 (Central Standard Time)","Mozilla/5.0 (Windows NT 6.1; Win64; x64) AppleWebKit/537.36 (KHTML, like Gecko) Chrome/79.0.3945.130 Safari/537.36",34,"[0.9, 0.5, 0.1]","[0.8, 0.4, 0.2]","[u'black', u'blue', u'red']","[u'left', u'middle', u'right']","[0.9, 0.5, 0.1]","[u'low', u'medium', u'high']","red",51,"right","high","True","False",919,1150,NA
"A24LC97AU3QC7G","Tue Jan 28 2020 12:34:23 GMT-0600 (Central Standard Time)","Tue Jan 28 2020 12:42:07 GMT-0600 (Central Standard Time)","Mozilla/5.0 (Windows NT 6.1; Win64; x64) AppleWebKit/537.36 (KHTML, like Gecko) Chrome/79.0.3945.130 Safari/537.36",35,"[0.9, 0.5, 0.1]","[0.8, 0.4, 0.2]","[u'black', u'blue', u'red']","[u'left', u'middle', u'right']","[0.9, 0.5, 0.1]","[u'low', u'medium', u'high']","red",51,"right","high","True","False",419,1250,NA
"A24LC97AU3QC7G","Tue Jan 28 2020 12:34:23 GMT-0600 (Central Standard Time)","Tue Jan 28 2020 12:42:07 GMT-0600 (Central Standard Time)","Mozilla/5.0 (Windows NT 6.1; Win64; x64) AppleWebKit/537.36 (KHTML, like Gecko) Chrome/79.0.3945.130 Safari/537.36",36,"[0.9, 0.5, 0.1]","[0.8, 0.4, 0.2]","[u'black', u'blue', u'red']","[u'left', u'middle', u'right']","[0.9, 0.5, 0.1]","[u'low', u'medium', u'high']","red",51,"right","high","True","False",219,1350,NA
"A24LC97AU3QC7G","Tue Jan 28 2020 12:34:23 GMT-0600 (Central Standard Time)","Tue Jan 28 2020 12:42:07 GMT-0600 (Central Standard Time)","Mozilla/5.0 (Windows NT 6.1; Win64; x64) AppleWebKit/537.36 (KHTML, like Gecko) Chrome/79.0.3945.130 Safari/537.36",37,"[0.9, 0.5, 0.1]","[0.8, 0.4, 0.2]","[u'black', u'blue', u'red']","[u'left', u'middle', u'right']","[0.9, 0.5, 0.1]","[u'low', u'medium', u'high']","red",51,"right","high","True","False",320,1450,NA
"A24LC97AU3QC7G","Tue Jan 28 2020 12:34:23 GMT-0600 (Central Standard Time)","Tue Jan 28 2020 12:42:07 GMT-0600 (Central Standard Time)","Mozilla/5.0 (Windows NT 6.1; Win64; x64) AppleWebKit/537.36 (KHTML, like Gecko) Chrome/79.0.3945.130 Safari/537.36",38,"[0.9, 0.5, 0.1]","[0.8, 0.4, 0.2]","[u'black', u'blue', u'red']","[u'left', u'middle', u'right']","[0.9, 0.5, 0.1]","[u'low', u'medium', u'high']","red",51,"right","high","True","False",378,1550,NA
"A24LC97AU3QC7G","Tue Jan 28 2020 12:34:23 GMT-0600 (Central Standard Time)","Tue Jan 28 2020 12:42:07 GMT-0600 (Central Standard Time)","Mozilla/5.0 (Windows NT 6.1; Win64; x64) AppleWebKit/537.36 (KHTML, like Gecko) Chrome/79.0.3945.130 Safari/537.36",39,"[0.9, 0.5, 0.1]","[0.8, 0.4, 0.2]","[u'black', u'blue', u'red']","[u'left', u'middle', u'right']","[0.9, 0.5, 0.1]","[u'low', u'medium', u'high']","red",51,"right","high","True","False",299,1650,NA
"A24LC97AU3QC7G","Tue Jan 28 2020 12:34:23 GMT-0600 (Central Standard Time)","Tue Jan 28 2020 12:42:07 GMT-0600 (Central Standard Time)","Mozilla/5.0 (Windows NT 6.1; Win64; x64) AppleWebKit/537.36 (KHTML, like Gecko) Chrome/79.0.3945.130 Safari/537.36",40,"[0.9, 0.5, 0.1]","[0.8, 0.4, 0.2]","[u'black', u'blue', u'red']","[u'left', u'middle', u'right']","[0.9, 0.5, 0.1]","[u'low', u'medium', u'high']","red",51,"right","high","True","True",439,1750,NA
"A24LC97AU3QC7G","Tue Jan 28 2020 12:34:23 GMT-0600 (Central Standard Time)","Tue Jan 28 2020 12:42:07 GMT-0600 (Central Standard Time)","Mozilla/5.0 (Windows NT 6.1; Win64; x64) AppleWebKit/537.36 (KHTML, like Gecko) Chrome/79.0.3945.130 Safari/537.36",41,"[0.9, 0.5, 0.1]","[0.8, 0.4, 0.2]","[u'black', u'blue', u'red']","[u'left', u'middle', u'right']","[0.9, 0.5, 0.1]","[u'low', u'high', u'medium']","red",51,"right","medium","False","False",518,1700,NA
"A24LC97AU3QC7G","Tue Jan 28 2020 12:34:23 GMT-0600 (Central Standard Time)","Tue Jan 28 2020 12:42:07 GMT-0600 (Central Standard Time)","Mozilla/5.0 (Windows NT 6.1; Win64; x64) AppleWebKit/537.36 (KHTML, like Gecko) Chrome/79.0.3945.130 Safari/537.36",42,"[0.9, 0.5, 0.1]","[0.8, 0.4, 0.2]","[u'black', u'blue', u'red']","[u'left', u'middle', u'right']","[0.9, 0.5, 0.1]","[u'low', u'high', u'medium']","red",51,"right","medium","True","False",1119,1800,NA
"A24LC97AU3QC7G","Tue Jan 28 2020 12:34:23 GMT-0600 (Central Standard Time)","Tue Jan 28 2020 12:42:07 GMT-0600 (Central Standard Time)","Mozilla/5.0 (Windows NT 6.1; Win64; x64) AppleWebKit/537.36 (KHTML, like Gecko) Chrome/79.0.3945.130 Safari/537.36",43,"[0.9, 0.5, 0.1]","[0.8, 0.4, 0.2]","[u'black', u'blue', u'red']","[u'left', u'middle', u'right']","[0.9, 0.5, 0.1]","[u'low', u'high', u'medium']","red",51,"right","medium","True","False",218,1900,NA
"A24LC97AU3QC7G","Tue Jan 28 2020 12:34:23 GMT-0600 (Central Standard Time)","Tue Jan 28 2020 12:42:07 GMT-0600 (Central Standard Time)","Mozilla/5.0 (Windows NT 6.1; Win64; x64) AppleWebKit/537.36 (KHTML, like Gecko) Chrome/79.0.3945.130 Safari/537.36",44,"[0.9, 0.5, 0.1]","[0.8, 0.4, 0.2]","[u'black', u'blue', u'red']","[u'left', u'middle', u'right']","[0.9, 0.5, 0.1]","[u'low', u'high', u'medium']","red",51,"right","medium","False","False",318,1850,NA
"A24LC97AU3QC7G","Tue Jan 28 2020 12:34:23 GMT-0600 (Central Standard Time)","Tue Jan 28 2020 12:42:07 GMT-0600 (Central Standard Time)","Mozilla/5.0 (Windows NT 6.1; Win64; x64) AppleWebKit/537.36 (KHTML, like Gecko) Chrome/79.0.3945.130 Safari/537.36",45,"[0.9, 0.5, 0.1]","[0.8, 0.4, 0.2]","[u'black', u'blue', u'red']","[u'left', u'middle', u'right']","[0.9, 0.5, 0.1]","[u'low', u'high', u'medium']","red",51,"right","medium","False","False",359,1800,NA
"A24LC97AU3QC7G","Tue Jan 28 2020 12:34:23 GMT-0600 (Central Standard Time)","Tue Jan 28 2020 12:42:07 GMT-0600 (Central Standard Time)","Mozilla/5.0 (Windows NT 6.1; Win64; x64) AppleWebKit/537.36 (KHTML, like Gecko) Chrome/79.0.3945.130 Safari/537.36",46,"[0.9, 0.5, 0.1]","[0.8, 0.4, 0.2]","[u'black', u'blue', u'red']","[u'left', u'middle', u'right']","[0.9, 0.5, 0.1]","[u'low', u'high', u'medium']","red",51,"right","medium","True","False",580,1900,NA
"A24LC97AU3QC7G","Tue Jan 28 2020 12:34:23 GMT-0600 (Central Standard Time)","Tue Jan 28 2020 12:42:07 GMT-0600 (Central Standard Time)","Mozilla/5.0 (Windows NT 6.1; Win64; x64) AppleWebKit/537.36 (KHTML, like Gecko) Chrome/79.0.3945.130 Safari/537.36",47,"[0.9, 0.5, 0.1]","[0.8, 0.4, 0.2]","[u'black', u'blue', u'red']","[u'left', u'middle', u'right']","[0.9, 0.5, 0.1]","[u'low', u'high', u'medium']","red",51,"right","medium","False","False",658,1850,NA
"A24LC97AU3QC7G","Tue Jan 28 2020 12:34:23 GMT-0600 (Central Standard Time)","Tue Jan 28 2020 12:42:07 GMT-0600 (Central Standard Time)","Mozilla/5.0 (Windows NT 6.1; Win64; x64) AppleWebKit/537.36 (KHTML, like Gecko) Chrome/79.0.3945.130 Safari/537.36",48,"[0.9, 0.5, 0.1]","[0.8, 0.4, 0.2]","[u'black', u'blue', u'red']","[u'left', u'middle', u'right']","[0.9, 0.5, 0.1]","[u'low', u'high', u'medium']","red",51,"right","medium","False","False",579,1800,NA
"A24LC97AU3QC7G","Tue Jan 28 2020 12:34:23 GMT-0600 (Central Standard Time)","Tue Jan 28 2020 12:42:07 GMT-0600 (Central Standard Time)","Mozilla/5.0 (Windows NT 6.1; Win64; x64) AppleWebKit/537.36 (KHTML, like Gecko) Chrome/79.0.3945.130 Safari/537.36",49,"[0.9, 0.5, 0.1]","[0.8, 0.4, 0.2]","[u'black', u'blue', u'red']","[u'left', u'middle', u'right']","[0.9, 0.5, 0.1]","[u'low', u'high', u'medium']","red",51,"right","medium","True","False",1039,1900,NA
"A24LC97AU3QC7G","Tue Jan 28 2020 12:34:23 GMT-0600 (Central Standard Time)","Tue Jan 28 2020 12:42:07 GMT-0600 (Central Standard Time)","Mozilla/5.0 (Windows NT 6.1; Win64; x64) AppleWebKit/537.36 (KHTML, like Gecko) Chrome/79.0.3945.130 Safari/537.36",50,"[0.9, 0.5, 0.1]","[0.8, 0.4, 0.2]","[u'black', u'blue', u'red']","[u'left', u'middle', u'right']","[0.9, 0.5, 0.1]","[u'low', u'high', u'medium']","blue",50,"middle","high","True","False",419,2000,NA
"A24LC97AU3QC7G","Tue Jan 28 2020 12:34:23 GMT-0600 (Central Standard Time)","Tue Jan 28 2020 12:42:07 GMT-0600 (Central Standard Time)","Mozilla/5.0 (Windows NT 6.1; Win64; x64) AppleWebKit/537.36 (KHTML, like Gecko) Chrome/79.0.3945.130 Safari/537.36",51,"[0.9, 0.5, 0.1]","[0.8, 0.4, 0.2]","[u'black', u'blue', u'red']","[u'left', u'middle', u'right']","[0.9, 0.5, 0.1]","[u'low', u'high', u'medium']","blue",50,"middle","high","False","False",420,1950,NA
"A24LC97AU3QC7G","Tue Jan 28 2020 12:34:23 GMT-0600 (Central Standard Time)","Tue Jan 28 2020 12:42:07 GMT-0600 (Central Standard Time)","Mozilla/5.0 (Windows NT 6.1; Win64; x64) AppleWebKit/537.36 (KHTML, like Gecko) Chrome/79.0.3945.130 Safari/537.36",52,"[0.9, 0.5, 0.1]","[0.8, 0.4, 0.2]","[u'black', u'blue', u'red']","[u'left', u'middle', u'right']","[0.9, 0.5, 0.1]","[u'low', u'high', u'medium']","blue",50,"middle","high","True","False",779,2050,NA
"A24LC97AU3QC7G","Tue Jan 28 2020 12:34:23 GMT-0600 (Central Standard Time)","Tue Jan 28 2020 12:42:07 GMT-0600 (Central Standard Time)","Mozilla/5.0 (Windows NT 6.1; Win64; x64) AppleWebKit/537.36 (KHTML, like Gecko) Chrome/79.0.3945.130 Safari/537.36",53,"[0.9, 0.5, 0.1]","[0.8, 0.4, 0.2]","[u'black', u'blue', u'red']","[u'left', u'middle', u'right']","[0.9, 0.5, 0.1]","[u'low', u'high', u'medium']","blue",50,"middle","high","False","False",800,2000,NA
"A24LC97AU3QC7G","Tue Jan 28 2020 12:34:23 GMT-0600 (Central Standard Time)","Tue Jan 28 2020 12:42:07 GMT-0600 (Central Standard Time)","Mozilla/5.0 (Windows NT 6.1; Win64; x64) AppleWebKit/537.36 (KHTML, like Gecko) Chrome/79.0.3945.130 Safari/537.36",54,"[0.9, 0.5, 0.1]","[0.8, 0.4, 0.2]","[u'black', u'blue', u'red']","[u'left', u'middle', u'right']","[0.9, 0.5, 0.1]","[u'low', u'high', u'medium']","blue",50,"middle","high","False","False",459,1950,NA
"A24LC97AU3QC7G","Tue Jan 28 2020 12:34:23 GMT-0600 (Central Standard Time)","Tue Jan 28 2020 12:42:07 GMT-0600 (Central Standard Time)","Mozilla/5.0 (Windows NT 6.1; Win64; x64) AppleWebKit/537.36 (KHTML, like Gecko) Chrome/79.0.3945.130 Safari/537.36",55,"[0.9, 0.5, 0.1]","[0.8, 0.4, 0.2]","[u'black', u'blue', u'red']","[u'left', u'middle', u'right']","[0.9, 0.5, 0.1]","[u'low', u'high', u'medium']","black",49,"left","low","False","False",560,1900,NA
"A24LC97AU3QC7G","Tue Jan 28 2020 12:34:23 GMT-0600 (Central Standard Time)","Tue Jan 28 2020 12:42:07 GMT-0600 (Central Standard Time)","Mozilla/5.0 (Windows NT 6.1; Win64; x64) AppleWebKit/537.36 (KHTML, like Gecko) Chrome/79.0.3945.130 Safari/537.36",56,"[0.9, 0.5, 0.1]","[0.8, 0.4, 0.2]","[u'black', u'blue', u'red']","[u'left', u'middle', u'right']","[0.9, 0.5, 0.1]","[u'low', u'high', u'medium']","red",51,"right","medium","True","False",680,2000,NA
"A24LC97AU3QC7G","Tue Jan 28 2020 12:34:23 GMT-0600 (Central Standard Time)","Tue Jan 28 2020 12:42:07 GMT-0600 (Central Standard Time)","Mozilla/5.0 (Windows NT 6.1; Win64; x64) AppleWebKit/537.36 (KHTML, like Gecko) Chrome/79.0.3945.130 Safari/537.36",57,"[0.9, 0.5, 0.1]","[0.8, 0.4, 0.2]","[u'black', u'blue', u'red']","[u'left', u'middle', u'right']","[0.9, 0.5, 0.1]","[u'low', u'high', u'medium']","blue",50,"middle","high","True","False",399,2100,NA
"A24LC97AU3QC7G","Tue Jan 28 2020 12:34:23 GMT-0600 (Central Standard Time)","Tue Jan 28 2020 12:42:07 GMT-0600 (Central Standard Time)","Mozilla/5.0 (Windows NT 6.1; Win64; x64) AppleWebKit/537.36 (KHTML, like Gecko) Chrome/79.0.3945.130 Safari/537.36",58,"[0.9, 0.5, 0.1]","[0.8, 0.4, 0.2]","[u'black', u'blue', u'red']","[u'left', u'middle', u'right']","[0.9, 0.5, 0.1]","[u'low', u'high', u'medium']","red",51,"right","medium","True","False",398,2200,NA
"A24LC97AU3QC7G","Tue Jan 28 2020 12:34:23 GMT-0600 (Central Standard Time)","Tue Jan 28 2020 12:42:07 GMT-0600 (Central Standard Time)","Mozilla/5.0 (Windows NT 6.1; Win64; x64) AppleWebKit/537.36 (KHTML, like Gecko) Chrome/79.0.3945.130 Safari/537.36",59,"[0.9, 0.5, 0.1]","[0.8, 0.4, 0.2]","[u'black', u'blue', u'red']","[u'left', u'middle', u'right']","[0.9, 0.5, 0.1]","[u'low', u'high', u'medium']","blue",50,"middle","high","True","False",459,2300,NA
"A24LC97AU3QC7G","Tue Jan 28 2020 12:34:23 GMT-0600 (Central Standard Time)","Tue Jan 28 2020 12:42:07 GMT-0600 (Central Standard Time)","Mozilla/5.0 (Windows NT 6.1; Win64; x64) AppleWebKit/537.36 (KHTML, like Gecko) Chrome/79.0.3945.130 Safari/537.36",60,"[0.9, 0.5, 0.1]","[0.8, 0.4, 0.2]","[u'black', u'blue', u'red']","[u'left', u'middle', u'right']","[0.9, 0.5, 0.1]","[u'low', u'high', u'medium']","red",51,"right","medium","False","False",319,2250,NA
"A24LC97AU3QC7G","Tue Jan 28 2020 12:34:23 GMT-0600 (Central Standard Time)","Tue Jan 28 2020 12:42:07 GMT-0600 (Central Standard Time)","Mozilla/5.0 (Windows NT 6.1; Win64; x64) AppleWebKit/537.36 (KHTML, like Gecko) Chrome/79.0.3945.130 Safari/537.36",61,"[0.9, 0.5, 0.1]","[0.8, 0.4, 0.2]","[u'black', u'blue', u'red']","[u'left', u'middle', u'right']","[0.9, 0.5, 0.1]","[u'low', u'high', u'medium']","blue",50,"middle","high","True","False",339,2350,NA
"A24LC97AU3QC7G","Tue Jan 28 2020 12:34:23 GMT-0600 (Central Standard Time)","Tue Jan 28 2020 12:42:07 GMT-0600 (Central Standard Time)","Mozilla/5.0 (Windows NT 6.1; Win64; x64) AppleWebKit/537.36 (KHTML, like Gecko) Chrome/79.0.3945.130 Safari/537.36",62,"[0.9, 0.5, 0.1]","[0.8, 0.4, 0.2]","[u'black', u'blue', u'red']","[u'left', u'middle', u'right']","[0.9, 0.5, 0.1]","[u'low', u'high', u'medium']","blue",50,"middle","high","True","False",360,2450,NA
"A24LC97AU3QC7G","Tue Jan 28 2020 12:34:23 GMT-0600 (Central Standard Time)","Tue Jan 28 2020 12:42:07 GMT-0600 (Central Standard Time)","Mozilla/5.0 (Windows NT 6.1; Win64; x64) AppleWebKit/537.36 (KHTML, like Gecko) Chrome/79.0.3945.130 Safari/537.36",63,"[0.9, 0.5, 0.1]","[0.8, 0.4, 0.2]","[u'black', u'blue', u'red']","[u'left', u'middle', u'right']","[0.9, 0.5, 0.1]","[u'low', u'high', u'medium']","blue",50,"middle","high","True","False",378,2550,NA
"A24LC97AU3QC7G","Tue Jan 28 2020 12:34:23 GMT-0600 (Central Standard Time)","Tue Jan 28 2020 12:42:07 GMT-0600 (Central Standard Time)","Mozilla/5.0 (Windows NT 6.1; Win64; x64) AppleWebKit/537.36 (KHTML, like Gecko) Chrome/79.0.3945.130 Safari/537.36",64,"[0.9, 0.5, 0.1]","[0.8, 0.4, 0.2]","[u'black', u'blue', u'red']","[u'left', u'middle', u'right']","[0.9, 0.5, 0.1]","[u'low', u'high', u'medium']","blue",50,"middle","high","True","False",319,2650,NA
"A24LC97AU3QC7G","Tue Jan 28 2020 12:34:23 GMT-0600 (Central Standard Time)","Tue Jan 28 2020 12:42:07 GMT-0600 (Central Standard Time)","Mozilla/5.0 (Windows NT 6.1; Win64; x64) AppleWebKit/537.36 (KHTML, like Gecko) Chrome/79.0.3945.130 Safari/537.36",65,"[0.9, 0.5, 0.1]","[0.8, 0.4, 0.2]","[u'black', u'blue', u'red']","[u'left', u'middle', u'right']","[0.9, 0.5, 0.1]","[u'low', u'high', u'medium']","blue",50,"middle","high","True","False",279,2750,NA
"A24LC97AU3QC7G","Tue Jan 28 2020 12:34:23 GMT-0600 (Central Standard Time)","Tue Jan 28 2020 12:42:07 GMT-0600 (Central Standard Time)","Mozilla/5.0 (Windows NT 6.1; Win64; x64) AppleWebKit/537.36 (KHTML, like Gecko) Chrome/79.0.3945.130 Safari/537.36",66,"[0.9, 0.5, 0.1]","[0.8, 0.4, 0.2]","[u'black', u'blue', u'red']","[u'left', u'middle', u'right']","[0.9, 0.5, 0.1]","[u'low', u'high', u'medium']","blue",50,"middle","high","True","False",299,2850,NA
"A24LC97AU3QC7G","Tue Jan 28 2020 12:34:23 GMT-0600 (Central Standard Time)","Tue Jan 28 2020 12:42:07 GMT-0600 (Central Standard Time)","Mozilla/5.0 (Windows NT 6.1; Win64; x64) AppleWebKit/537.36 (KHTML, like Gecko) Chrome/79.0.3945.130 Safari/537.36",67,"[0.9, 0.5, 0.1]","[0.8, 0.4, 0.2]","[u'black', u'blue', u'red']","[u'left', u'middle', u'right']","[0.9, 0.5, 0.1]","[u'low', u'high', u'medium']","blue",50,"middle","high","True","False",500,2950,NA
"A24LC97AU3QC7G","Tue Jan 28 2020 12:34:23 GMT-0600 (Central Standard Time)","Tue Jan 28 2020 12:42:07 GMT-0600 (Central Standard Time)","Mozilla/5.0 (Windows NT 6.1; Win64; x64) AppleWebKit/537.36 (KHTML, like Gecko) Chrome/79.0.3945.130 Safari/537.36",68,"[0.9, 0.5, 0.1]","[0.8, 0.4, 0.2]","[u'black', u'blue', u'red']","[u'left', u'middle', u'right']","[0.9, 0.5, 0.1]","[u'low', u'high', u'medium']","blue",50,"middle","high","False","False",320,2900,NA
"A24LC97AU3QC7G","Tue Jan 28 2020 12:34:23 GMT-0600 (Central Standard Time)","Tue Jan 28 2020 12:42:07 GMT-0600 (Central Standard Time)","Mozilla/5.0 (Windows NT 6.1; Win64; x64) AppleWebKit/537.36 (KHTML, like Gecko) Chrome/79.0.3945.130 Safari/537.36",69,"[0.9, 0.5, 0.1]","[0.8, 0.4, 0.2]","[u'black', u'blue', u'red']","[u'left', u'middle', u'right']","[0.9, 0.5, 0.1]","[u'low', u'high', u'medium']","blue",50,"middle","high","True","True",458,3000,NA
"A24LC97AU3QC7G","Tue Jan 28 2020 12:34:23 GMT-0600 (Central Standard Time)","Tue Jan 28 2020 12:42:07 GMT-0600 (Central Standard Time)","Mozilla/5.0 (Windows NT 6.1; Win64; x64) AppleWebKit/537.36 (KHTML, like Gecko) Chrome/79.0.3945.130 Safari/537.36",70,"[0.9, 0.5, 0.1]","[0.8, 0.4, 0.2]","[u'black', u'blue', u'red']","[u'left', u'middle', u'right']","[0.9, 0.5, 0.1]","[u'low', u'medium', u'high']","blue",50,"middle","medium","True","False",599,3100,NA
"A24LC97AU3QC7G","Tue Jan 28 2020 12:34:23 GMT-0600 (Central Standard Time)","Tue Jan 28 2020 12:42:07 GMT-0600 (Central Standard Time)","Mozilla/5.0 (Windows NT 6.1; Win64; x64) AppleWebKit/537.36 (KHTML, like Gecko) Chrome/79.0.3945.130 Safari/537.36",71,"[0.9, 0.5, 0.1]","[0.8, 0.4, 0.2]","[u'black', u'blue', u'red']","[u'left', u'middle', u'right']","[0.9, 0.5, 0.1]","[u'low', u'medium', u'high']","blue",50,"middle","medium","False","False",379,3050,NA
"A24LC97AU3QC7G","Tue Jan 28 2020 12:34:23 GMT-0600 (Central Standard Time)","Tue Jan 28 2020 12:42:07 GMT-0600 (Central Standard Time)","Mozilla/5.0 (Windows NT 6.1; Win64; x64) AppleWebKit/537.36 (KHTML, like Gecko) Chrome/79.0.3945.130 Safari/537.36",72,"[0.9, 0.5, 0.1]","[0.8, 0.4, 0.2]","[u'black', u'blue', u'red']","[u'left', u'middle', u'right']","[0.9, 0.5, 0.1]","[u'low', u'medium', u'high']","blue",50,"middle","medium","True","False",379,3150,NA
"A24LC97AU3QC7G","Tue Jan 28 2020 12:34:23 GMT-0600 (Central Standard Time)","Tue Jan 28 2020 12:42:07 GMT-0600 (Central Standard Time)","Mozilla/5.0 (Windows NT 6.1; Win64; x64) AppleWebKit/537.36 (KHTML, like Gecko) Chrome/79.0.3945.130 Safari/537.36",73,"[0.9, 0.5, 0.1]","[0.8, 0.4, 0.2]","[u'black', u'blue', u'red']","[u'left', u'middle', u'right']","[0.9, 0.5, 0.1]","[u'low', u'medium', u'high']","blue",50,"middle","medium","True","False",619,3250,NA
"A24LC97AU3QC7G","Tue Jan 28 2020 12:34:23 GMT-0600 (Central Standard Time)","Tue Jan 28 2020 12:42:07 GMT-0600 (Central Standard Time)","Mozilla/5.0 (Windows NT 6.1; Win64; x64) AppleWebKit/537.36 (KHTML, like Gecko) Chrome/79.0.3945.130 Safari/537.36",74,"[0.9, 0.5, 0.1]","[0.8, 0.4, 0.2]","[u'black', u'blue', u'red']","[u'left', u'middle', u'right']","[0.9, 0.5, 0.1]","[u'low', u'medium', u'high']","blue",50,"middle","medium","True","False",980,3350,NA
"A24LC97AU3QC7G","Tue Jan 28 2020 12:34:23 GMT-0600 (Central Standard Time)","Tue Jan 28 2020 12:42:07 GMT-0600 (Central Standard Time)","Mozilla/5.0 (Windows NT 6.1; Win64; x64) AppleWebKit/537.36 (KHTML, like Gecko) Chrome/79.0.3945.130 Safari/537.36",75,"[0.9, 0.5, 0.1]","[0.8, 0.4, 0.2]","[u'black', u'blue', u'red']","[u'left', u'middle', u'right']","[0.9, 0.5, 0.1]","[u'low', u'medium', u'high']","blue",50,"middle","medium","True","False",658,3450,NA
"A24LC97AU3QC7G","Tue Jan 28 2020 12:34:23 GMT-0600 (Central Standard Time)","Tue Jan 28 2020 12:42:07 GMT-0600 (Central Standard Time)","Mozilla/5.0 (Windows NT 6.1; Win64; x64) AppleWebKit/537.36 (KHTML, like Gecko) Chrome/79.0.3945.130 Safari/537.36",76,"[0.9, 0.5, 0.1]","[0.8, 0.4, 0.2]","[u'black', u'blue', u'red']","[u'left', u'middle', u'right']","[0.9, 0.5, 0.1]","[u'low', u'medium', u'high']","blue",50,"middle","medium","False","False",839,3400,NA
"A24LC97AU3QC7G","Tue Jan 28 2020 12:34:23 GMT-0600 (Central Standard Time)","Tue Jan 28 2020 12:42:07 GMT-0600 (Central Standard Time)","Mozilla/5.0 (Windows NT 6.1; Win64; x64) AppleWebKit/537.36 (KHTML, like Gecko) Chrome/79.0.3945.130 Safari/537.36",77,"[0.9, 0.5, 0.1]","[0.8, 0.4, 0.2]","[u'black', u'blue', u'red']","[u'left', u'middle', u'right']","[0.9, 0.5, 0.1]","[u'low', u'medium', u'high']","red",51,"right","high","True","False",959,3500,NA
"A24LC97AU3QC7G","Tue Jan 28 2020 12:34:23 GMT-0600 (Central Standard Time)","Tue Jan 28 2020 12:42:07 GMT-0600 (Central Standard Time)","Mozilla/5.0 (Windows NT 6.1; Win64; x64) AppleWebKit/537.36 (KHTML, like Gecko) Chrome/79.0.3945.130 Safari/537.36",78,"[0.9, 0.5, 0.1]","[0.8, 0.4, 0.2]","[u'black', u'blue', u'red']","[u'left', u'middle', u'right']","[0.9, 0.5, 0.1]","[u'low', u'medium', u'high']","blue",50,"middle","medium","False","False",615,3450,NA
"A24LC97AU3QC7G","Tue Jan 28 2020 12:34:23 GMT-0600 (Central Standard Time)","Tue Jan 28 2020 12:42:07 GMT-0600 (Central Standard Time)","Mozilla/5.0 (Windows NT 6.1; Win64; x64) AppleWebKit/537.36 (KHTML, like Gecko) Chrome/79.0.3945.130 Safari/537.36",79,"[0.9, 0.5, 0.1]","[0.8, 0.4, 0.2]","[u'black', u'blue', u'red']","[u'left', u'middle', u'right']","[0.9, 0.5, 0.1]","[u'low', u'medium', u'high']","blue",50,"middle","medium","True","False",220,3550,NA
"A24LC97AU3QC7G","Tue Jan 28 2020 12:34:23 GMT-0600 (Central Standard Time)","Tue Jan 28 2020 12:42:07 GMT-0600 (Central Standard Time)","Mozilla/5.0 (Windows NT 6.1; Win64; x64) AppleWebKit/537.36 (KHTML, like Gecko) Chrome/79.0.3945.130 Safari/537.36",80,"[0.9, 0.5, 0.1]","[0.8, 0.4, 0.2]","[u'black', u'blue', u'red']","[u'left', u'middle', u'right']","[0.9, 0.5, 0.1]","[u'low', u'medium', u'high']","blue",50,"middle","medium","True","False",459,3650,NA
"A24LC97AU3QC7G","Tue Jan 28 2020 12:34:23 GMT-0600 (Central Standard Time)","Tue Jan 28 2020 12:42:07 GMT-0600 (Central Standard Time)","Mozilla/5.0 (Windows NT 6.1; Win64; x64) AppleWebKit/537.36 (KHTML, like Gecko) Chrome/79.0.3945.130 Safari/537.36",81,"[0.9, 0.5, 0.1]","[0.8, 0.4, 0.2]","[u'black', u'blue', u'red']","[u'left', u'middle', u'right']","[0.8, 0.4, 0.2]","[u'high', u'medium', u'low']","blue",50,"middle","medium","True","False",640,3750,NA
"A24LC97AU3QC7G","Tue Jan 28 2020 12:34:23 GMT-0600 (Central Standard Time)","Tue Jan 28 2020 12:42:07 GMT-0600 (Central Standard Time)","Mozilla/5.0 (Windows NT 6.1; Win64; x64) AppleWebKit/537.36 (KHTML, like Gecko) Chrome/79.0.3945.130 Safari/537.36",82,"[0.9, 0.5, 0.1]","[0.8, 0.4, 0.2]","[u'black', u'blue', u'red']","[u'left', u'middle', u'right']","[0.8, 0.4, 0.2]","[u'high', u'medium', u'low']","blue",50,"middle","medium","False","False",58,3700,NA
"A24LC97AU3QC7G","Tue Jan 28 2020 12:34:23 GMT-0600 (Central Standard Time)","Tue Jan 28 2020 12:42:07 GMT-0600 (Central Standard Time)","Mozilla/5.0 (Windows NT 6.1; Win64; x64) AppleWebKit/537.36 (KHTML, like Gecko) Chrome/79.0.3945.130 Safari/537.36",83,"[0.9, 0.5, 0.1]","[0.8, 0.4, 0.2]","[u'black', u'blue', u'red']","[u'left', u'middle', u'right']","[0.8, 0.4, 0.2]","[u'high', u'medium', u'low']","black",49,"left","high","True","False",280,3800,NA
"A24LC97AU3QC7G","Tue Jan 28 2020 12:34:23 GMT-0600 (Central Standard Time)","Tue Jan 28 2020 12:42:07 GMT-0600 (Central Standard Time)","Mozilla/5.0 (Windows NT 6.1; Win64; x64) AppleWebKit/537.36 (KHTML, like Gecko) Chrome/79.0.3945.130 Safari/537.36",84,"[0.9, 0.5, 0.1]","[0.8, 0.4, 0.2]","[u'black', u'blue', u'red']","[u'left', u'middle', u'right']","[0.8, 0.4, 0.2]","[u'high', u'medium', u'low']","black",49,"left","high","False","False",258,3750,NA
"A24LC97AU3QC7G","Tue Jan 28 2020 12:34:23 GMT-0600 (Central Standard Time)","Tue Jan 28 2020 12:42:07 GMT-0600 (Central Standard Time)","Mozilla/5.0 (Windows NT 6.1; Win64; x64) AppleWebKit/537.36 (KHTML, like Gecko) Chrome/79.0.3945.130 Safari/537.36",85,"[0.9, 0.5, 0.1]","[0.8, 0.4, 0.2]","[u'black', u'blue', u'red']","[u'left', u'middle', u'right']","[0.8, 0.4, 0.2]","[u'high', u'medium', u'low']","red",51,"right","low","True","False",239,3850,NA
"A24LC97AU3QC7G","Tue Jan 28 2020 12:34:23 GMT-0600 (Central Standard Time)","Tue Jan 28 2020 12:42:07 GMT-0600 (Central Standard Time)","Mozilla/5.0 (Windows NT 6.1; Win64; x64) AppleWebKit/537.36 (KHTML, like Gecko) Chrome/79.0.3945.130 Safari/537.36",86,"[0.9, 0.5, 0.1]","[0.8, 0.4, 0.2]","[u'black', u'blue', u'red']","[u'left', u'middle', u'right']","[0.8, 0.4, 0.2]","[u'high', u'medium', u'low']","red",51,"right","low","True","False",239,3950,NA
"A24LC97AU3QC7G","Tue Jan 28 2020 12:34:23 GMT-0600 (Central Standard Time)","Tue Jan 28 2020 12:42:07 GMT-0600 (Central Standard Time)","Mozilla/5.0 (Windows NT 6.1; Win64; x64) AppleWebKit/537.36 (KHTML, like Gecko) Chrome/79.0.3945.130 Safari/537.36",87,"[0.9, 0.5, 0.1]","[0.8, 0.4, 0.2]","[u'black', u'blue', u'red']","[u'left', u'middle', u'right']","[0.8, 0.4, 0.2]","[u'high', u'medium', u'low']","red",51,"right","low","False","False",199,3900,NA
"A24LC97AU3QC7G","Tue Jan 28 2020 12:34:23 GMT-0600 (Central Standard Time)","Tue Jan 28 2020 12:42:07 GMT-0600 (Central Standard Time)","Mozilla/5.0 (Windows NT 6.1; Win64; x64) AppleWebKit/537.36 (KHTML, like Gecko) Chrome/79.0.3945.130 Safari/537.36",88,"[0.9, 0.5, 0.1]","[0.8, 0.4, 0.2]","[u'black', u'blue', u'red']","[u'left', u'middle', u'right']","[0.8, 0.4, 0.2]","[u'high', u'medium', u'low']","red",51,"right","low","False","False",479,3850,NA
"A24LC97AU3QC7G","Tue Jan 28 2020 12:34:23 GMT-0600 (Central Standard Time)","Tue Jan 28 2020 12:42:07 GMT-0600 (Central Standard Time)","Mozilla/5.0 (Windows NT 6.1; Win64; x64) AppleWebKit/537.36 (KHTML, like Gecko) Chrome/79.0.3945.130 Safari/537.36",89,"[0.9, 0.5, 0.1]","[0.8, 0.4, 0.2]","[u'black', u'blue', u'red']","[u'left', u'middle', u'right']","[0.8, 0.4, 0.2]","[u'high', u'medium', u'low']","red",51,"right","low","False","False",600,3800,NA
"A24LC97AU3QC7G","Tue Jan 28 2020 12:34:23 GMT-0600 (Central Standard Time)","Tue Jan 28 2020 12:42:07 GMT-0600 (Central Standard Time)","Mozilla/5.0 (Windows NT 6.1; Win64; x64) AppleWebKit/537.36 (KHTML, like Gecko) Chrome/79.0.3945.130 Safari/537.36",90,"[0.9, 0.5, 0.1]","[0.8, 0.4, 0.2]","[u'black', u'blue', u'red']","[u'left', u'middle', u'right']","[0.8, 0.4, 0.2]","[u'high', u'medium', u'low']","blue",50,"middle","medium","False","False",298,3750,NA
"A24LC97AU3QC7G","Tue Jan 28 2020 12:34:23 GMT-0600 (Central Standard Time)","Tue Jan 28 2020 12:42:07 GMT-0600 (Central Standard Time)","Mozilla/5.0 (Windows NT 6.1; Win64; x64) AppleWebKit/537.36 (KHTML, like Gecko) Chrome/79.0.3945.130 Safari/537.36",91,"[0.9, 0.5, 0.1]","[0.8, 0.4, 0.2]","[u'black', u'blue', u'red']","[u'left', u'middle', u'right']","[0.8, 0.4, 0.2]","[u'high', u'medium', u'low']","black",49,"left","high","False","False",320,3700,NA
"A24LC97AU3QC7G","Tue Jan 28 2020 12:34:23 GMT-0600 (Central Standard Time)","Tue Jan 28 2020 12:42:07 GMT-0600 (Central Standard Time)","Mozilla/5.0 (Windows NT 6.1; Win64; x64) AppleWebKit/537.36 (KHTML, like Gecko) Chrome/79.0.3945.130 Safari/537.36",92,"[0.9, 0.5, 0.1]","[0.8, 0.4, 0.2]","[u'black', u'blue', u'red']","[u'left', u'middle', u'right']","[0.8, 0.4, 0.2]","[u'high', u'medium', u'low']","blue",50,"middle","medium","True","False",220,3800,NA
"A24LC97AU3QC7G","Tue Jan 28 2020 12:34:23 GMT-0600 (Central Standard Time)","Tue Jan 28 2020 12:42:07 GMT-0600 (Central Standard Time)","Mozilla/5.0 (Windows NT 6.1; Win64; x64) AppleWebKit/537.36 (KHTML, like Gecko) Chrome/79.0.3945.130 Safari/537.36",93,"[0.9, 0.5, 0.1]","[0.8, 0.4, 0.2]","[u'black', u'blue', u'red']","[u'left', u'middle', u'right']","[0.8, 0.4, 0.2]","[u'high', u'medium', u'low']","blue",50,"middle","medium","False","False",280,3750,NA
"A24LC97AU3QC7G","Tue Jan 28 2020 12:34:23 GMT-0600 (Central Standard Time)","Tue Jan 28 2020 12:42:07 GMT-0600 (Central Standard Time)","Mozilla/5.0 (Windows NT 6.1; Win64; x64) AppleWebKit/537.36 (KHTML, like Gecko) Chrome/79.0.3945.130 Safari/537.36",94,"[0.9, 0.5, 0.1]","[0.8, 0.4, 0.2]","[u'black', u'blue', u'red']","[u'left', u'middle', u'right']","[0.8, 0.4, 0.2]","[u'high', u'medium', u'low']","blue",50,"middle","medium","True","False",559,3850,NA
"A24LC97AU3QC7G","Tue Jan 28 2020 12:34:23 GMT-0600 (Central Standard Time)","Tue Jan 28 2020 12:42:07 GMT-0600 (Central Standard Time)","Mozilla/5.0 (Windows NT 6.1; Win64; x64) AppleWebKit/537.36 (KHTML, like Gecko) Chrome/79.0.3945.130 Safari/537.36",95,"[0.9, 0.5, 0.1]","[0.8, 0.4, 0.2]","[u'black', u'blue', u'red']","[u'left', u'middle', u'right']","[0.8, 0.4, 0.2]","[u'high', u'medium', u'low']","blue",50,"middle","medium","False","False",599,3800,NA
"A24LC97AU3QC7G","Tue Jan 28 2020 12:34:23 GMT-0600 (Central Standard Time)","Tue Jan 28 2020 12:42:07 GMT-0600 (Central Standard Time)","Mozilla/5.0 (Windows NT 6.1; Win64; x64) AppleWebKit/537.36 (KHTML, like Gecko) Chrome/79.0.3945.130 Safari/537.36",96,"[0.9, 0.5, 0.1]","[0.8, 0.4, 0.2]","[u'black', u'blue', u'red']","[u'left', u'middle', u'right']","[0.8, 0.4, 0.2]","[u'high', u'medium', u'low']","blue",50,"middle","medium","False","False",3126,3750,NA
"A24LC97AU3QC7G","Tue Jan 28 2020 12:34:23 GMT-0600 (Central Standard Time)","Tue Jan 28 2020 12:42:07 GMT-0600 (Central Standard Time)","Mozilla/5.0 (Windows NT 6.1; Win64; x64) AppleWebKit/537.36 (KHTML, like Gecko) Chrome/79.0.3945.130 Safari/537.36",97,"[0.9, 0.5, 0.1]","[0.8, 0.4, 0.2]","[u'black', u'blue', u'red']","[u'left', u'middle', u'right']","[0.8, 0.4, 0.2]","[u'high', u'medium', u'low']","black",49,"left","high","False","False",292,3700,NA
"A24LC97AU3QC7G","Tue Jan 28 2020 12:34:23 GMT-0600 (Central Standard Time)","Tue Jan 28 2020 12:42:07 GMT-0600 (Central Standard Time)","Mozilla/5.0 (Windows NT 6.1; Win64; x64) AppleWebKit/537.36 (KHTML, like Gecko) Chrome/79.0.3945.130 Safari/537.36",98,"[0.9, 0.5, 0.1]","[0.8, 0.4, 0.2]","[u'black', u'blue', u'red']","[u'left', u'middle', u'right']","[0.8, 0.4, 0.2]","[u'high', u'medium', u'low']","red",51,"right","low","False","False",1638,3650,NA
"A24LC97AU3QC7G","Tue Jan 28 2020 12:34:23 GMT-0600 (Central Standard Time)","Tue Jan 28 2020 12:42:07 GMT-0600 (Central Standard Time)","Mozilla/5.0 (Windows NT 6.1; Win64; x64) AppleWebKit/537.36 (KHTML, like Gecko) Chrome/79.0.3945.130 Safari/537.36",99,"[0.9, 0.5, 0.1]","[0.8, 0.4, 0.2]","[u'black', u'blue', u'red']","[u'left', u'middle', u'right']","[0.8, 0.4, 0.2]","[u'high', u'medium', u'low']","red",51,"right","low","False","False",1000,3600,NA
"A24LC97AU3QC7G","Tue Jan 28 2020 12:34:23 GMT-0600 (Central Standard Time)","Tue Jan 28 2020 12:42:07 GMT-0600 (Central Standard Time)","Mozilla/5.0 (Windows NT 6.1; Win64; x64) AppleWebKit/537.36 (KHTML, like Gecko) Chrome/79.0.3945.130 Safari/537.36",100,"[0.9, 0.5, 0.1]","[0.8, 0.4, 0.2]","[u'black', u'blue', u'red']","[u'left', u'middle', u'right']","[0.8, 0.4, 0.2]","[u'high', u'medium', u'low']","blue",50,"middle","medium","True","False",1199,3700,NA
"A24LC97AU3QC7G","Tue Jan 28 2020 12:34:23 GMT-0600 (Central Standard Time)","Tue Jan 28 2020 12:42:07 GMT-0600 (Central Standard Time)","Mozilla/5.0 (Windows NT 6.1; Win64; x64) AppleWebKit/537.36 (KHTML, like Gecko) Chrome/79.0.3945.130 Safari/537.36",101,"[0.9, 0.5, 0.1]","[0.8, 0.4, 0.2]","[u'black', u'blue', u'red']","[u'left', u'middle', u'right']","[0.8, 0.4, 0.2]","[u'high', u'medium', u'low']","blue",50,"middle","medium","True","False",720,3800,NA
"A24LC97AU3QC7G","Tue Jan 28 2020 12:34:23 GMT-0600 (Central Standard Time)","Tue Jan 28 2020 12:42:07 GMT-0600 (Central Standard Time)","Mozilla/5.0 (Windows NT 6.1; Win64; x64) AppleWebKit/537.36 (KHTML, like Gecko) Chrome/79.0.3945.130 Safari/537.36",102,"[0.9, 0.5, 0.1]","[0.8, 0.4, 0.2]","[u'black', u'blue', u'red']","[u'left', u'middle', u'right']","[0.8, 0.4, 0.2]","[u'high', u'medium', u'low']","blue",50,"middle","medium","True","False",400,3900,NA
"A24LC97AU3QC7G","Tue Jan 28 2020 12:34:23 GMT-0600 (Central Standard Time)","Tue Jan 28 2020 12:42:07 GMT-0600 (Central Standard Time)","Mozilla/5.0 (Windows NT 6.1; Win64; x64) AppleWebKit/537.36 (KHTML, like Gecko) Chrome/79.0.3945.130 Safari/537.36",103,"[0.9, 0.5, 0.1]","[0.8, 0.4, 0.2]","[u'black', u'blue', u'red']","[u'left', u'middle', u'right']","[0.8, 0.4, 0.2]","[u'high', u'medium', u'low']","blue",50,"middle","medium","False","False",339,3850,NA
"A24LC97AU3QC7G","Tue Jan 28 2020 12:34:23 GMT-0600 (Central Standard Time)","Tue Jan 28 2020 12:42:07 GMT-0600 (Central Standard Time)","Mozilla/5.0 (Windows NT 6.1; Win64; x64) AppleWebKit/537.36 (KHTML, like Gecko) Chrome/79.0.3945.130 Safari/537.36",104,"[0.9, 0.5, 0.1]","[0.8, 0.4, 0.2]","[u'black', u'blue', u'red']","[u'left', u'middle', u'right']","[0.8, 0.4, 0.2]","[u'high', u'medium', u'low']","blue",50,"middle","medium","False","False",300,3800,NA
"A24LC97AU3QC7G","Tue Jan 28 2020 12:34:23 GMT-0600 (Central Standard Time)","Tue Jan 28 2020 12:42:07 GMT-0600 (Central Standard Time)","Mozilla/5.0 (Windows NT 6.1; Win64; x64) AppleWebKit/537.36 (KHTML, like Gecko) Chrome/79.0.3945.130 Safari/537.36",105,"[0.9, 0.5, 0.1]","[0.8, 0.4, 0.2]","[u'black', u'blue', u'red']","[u'left', u'middle', u'right']","[0.8, 0.4, 0.2]","[u'high', u'medium', u'low']","blue",50,"middle","medium","False","False",78,3750,NA
"A24LC97AU3QC7G","Tue Jan 28 2020 12:34:23 GMT-0600 (Central Standard Time)","Tue Jan 28 2020 12:42:07 GMT-0600 (Central Standard Time)","Mozilla/5.0 (Windows NT 6.1; Win64; x64) AppleWebKit/537.36 (KHTML, like Gecko) Chrome/79.0.3945.130 Safari/537.36",106,"[0.9, 0.5, 0.1]","[0.8, 0.4, 0.2]","[u'black', u'blue', u'red']","[u'left', u'middle', u'right']","[0.8, 0.4, 0.2]","[u'high', u'medium', u'low']","black",49,"left","high","False","False",259,3700,NA
"A24LC97AU3QC7G","Tue Jan 28 2020 12:34:23 GMT-0600 (Central Standard Time)","Tue Jan 28 2020 12:42:07 GMT-0600 (Central Standard Time)","Mozilla/5.0 (Windows NT 6.1; Win64; x64) AppleWebKit/537.36 (KHTML, like Gecko) Chrome/79.0.3945.130 Safari/537.36",107,"[0.9, 0.5, 0.1]","[0.8, 0.4, 0.2]","[u'black', u'blue', u'red']","[u'left', u'middle', u'right']","[0.8, 0.4, 0.2]","[u'high', u'medium', u'low']","black",49,"left","high","True","False",339,3800,NA
"A24LC97AU3QC7G","Tue Jan 28 2020 12:34:23 GMT-0600 (Central Standard Time)","Tue Jan 28 2020 12:42:07 GMT-0600 (Central Standard Time)","Mozilla/5.0 (Windows NT 6.1; Win64; x64) AppleWebKit/537.36 (KHTML, like Gecko) Chrome/79.0.3945.130 Safari/537.36",108,"[0.9, 0.5, 0.1]","[0.8, 0.4, 0.2]","[u'black', u'blue', u'red']","[u'left', u'middle', u'right']","[0.8, 0.4, 0.2]","[u'high', u'medium', u'low']","black",49,"left","high","True","False",279,3900,NA
"A24LC97AU3QC7G","Tue Jan 28 2020 12:34:23 GMT-0600 (Central Standard Time)","Tue Jan 28 2020 12:42:07 GMT-0600 (Central Standard Time)","Mozilla/5.0 (Windows NT 6.1; Win64; x64) AppleWebKit/537.36 (KHTML, like Gecko) Chrome/79.0.3945.130 Safari/537.36",109,"[0.9, 0.5, 0.1]","[0.8, 0.4, 0.2]","[u'black', u'blue', u'red']","[u'left', u'middle', u'right']","[0.8, 0.4, 0.2]","[u'high', u'medium', u'low']","black",49,"left","high","False","False",598,3850,NA
"A24LC97AU3QC7G","Tue Jan 28 2020 12:34:23 GMT-0600 (Central Standard Time)","Tue Jan 28 2020 12:42:07 GMT-0600 (Central Standard Time)","Mozilla/5.0 (Windows NT 6.1; Win64; x64) AppleWebKit/537.36 (KHTML, like Gecko) Chrome/79.0.3945.130 Safari/537.36",110,"[0.9, 0.5, 0.1]","[0.8, 0.4, 0.2]","[u'black', u'blue', u'red']","[u'left', u'middle', u'right']","[0.8, 0.4, 0.2]","[u'high', u'medium', u'low']","black",49,"left","high","True","False",460,3950,NA
"A24LC97AU3QC7G","Tue Jan 28 2020 12:34:23 GMT-0600 (Central Standard Time)","Tue Jan 28 2020 12:42:07 GMT-0600 (Central Standard Time)","Mozilla/5.0 (Windows NT 6.1; Win64; x64) AppleWebKit/537.36 (KHTML, like Gecko) Chrome/79.0.3945.130 Safari/537.36",111,"[0.9, 0.5, 0.1]","[0.8, 0.4, 0.2]","[u'black', u'blue', u'red']","[u'left', u'middle', u'right']","[0.8, 0.4, 0.2]","[u'high', u'medium', u'low']","black",49,"left","high","True","False",259,4050,NA
"A24LC97AU3QC7G","Tue Jan 28 2020 12:34:23 GMT-0600 (Central Standard Time)","Tue Jan 28 2020 12:42:07 GMT-0600 (Central Standard Time)","Mozilla/5.0 (Windows NT 6.1; Win64; x64) AppleWebKit/537.36 (KHTML, like Gecko) Chrome/79.0.3945.130 Safari/537.36",112,"[0.9, 0.5, 0.1]","[0.8, 0.4, 0.2]","[u'black', u'blue', u'red']","[u'left', u'middle', u'right']","[0.8, 0.4, 0.2]","[u'high', u'medium', u'low']","black",49,"left","high","True","False",380,4150,NA
"A24LC97AU3QC7G","Tue Jan 28 2020 12:34:23 GMT-0600 (Central Standard Time)","Tue Jan 28 2020 12:42:07 GMT-0600 (Central Standard Time)","Mozilla/5.0 (Windows NT 6.1; Win64; x64) AppleWebKit/537.36 (KHTML, like Gecko) Chrome/79.0.3945.130 Safari/537.36",113,"[0.9, 0.5, 0.1]","[0.8, 0.4, 0.2]","[u'black', u'blue', u'red']","[u'left', u'middle', u'right']","[0.8, 0.4, 0.2]","[u'high', u'medium', u'low']","black",49,"left","high","False","False",340,4100,NA
"A24LC97AU3QC7G","Tue Jan 28 2020 12:34:23 GMT-0600 (Central Standard Time)","Tue Jan 28 2020 12:42:07 GMT-0600 (Central Standard Time)","Mozilla/5.0 (Windows NT 6.1; Win64; x64) AppleWebKit/537.36 (KHTML, like Gecko) Chrome/79.0.3945.130 Safari/537.36",114,"[0.9, 0.5, 0.1]","[0.8, 0.4, 0.2]","[u'black', u'blue', u'red']","[u'left', u'middle', u'right']","[0.8, 0.4, 0.2]","[u'high', u'medium', u'low']","black",49,"left","high","False","True",320,4050,NA
"A24LC97AU3QC7G","Tue Jan 28 2020 12:34:23 GMT-0600 (Central Standard Time)","Tue Jan 28 2020 12:42:07 GMT-0600 (Central Standard Time)","Mozilla/5.0 (Windows NT 6.1; Win64; x64) AppleWebKit/537.36 (KHTML, like Gecko) Chrome/79.0.3945.130 Safari/537.36",115,"[0.9, 0.5, 0.1]","[0.8, 0.4, 0.2]","[u'black', u'blue', u'red']","[u'left', u'middle', u'right']","[0.8, 0.4, 0.2]","[u'low', u'high', u'medium']","black",49,"left","low","False","False",719,4000,NA
"A24LC97AU3QC7G","Tue Jan 28 2020 12:34:23 GMT-0600 (Central Standard Time)","Tue Jan 28 2020 12:42:07 GMT-0600 (Central Standard Time)","Mozilla/5.0 (Windows NT 6.1; Win64; x64) AppleWebKit/537.36 (KHTML, like Gecko) Chrome/79.0.3945.130 Safari/537.36",116,"[0.9, 0.5, 0.1]","[0.8, 0.4, 0.2]","[u'black', u'blue', u'red']","[u'left', u'middle', u'right']","[0.8, 0.4, 0.2]","[u'low', u'high', u'medium']","black",49,"left","low","False","False",459,3950,NA
"A24LC97AU3QC7G","Tue Jan 28 2020 12:34:23 GMT-0600 (Central Standard Time)","Tue Jan 28 2020 12:42:07 GMT-0600 (Central Standard Time)","Mozilla/5.0 (Windows NT 6.1; Win64; x64) AppleWebKit/537.36 (KHTML, like Gecko) Chrome/79.0.3945.130 Safari/537.36",117,"[0.9, 0.5, 0.1]","[0.8, 0.4, 0.2]","[u'black', u'blue', u'red']","[u'left', u'middle', u'right']","[0.8, 0.4, 0.2]","[u'low', u'high', u'medium']","red",51,"right","medium","True","False",258,4050,NA
"A24LC97AU3QC7G","Tue Jan 28 2020 12:34:23 GMT-0600 (Central Standard Time)","Tue Jan 28 2020 12:42:07 GMT-0600 (Central Standard Time)","Mozilla/5.0 (Windows NT 6.1; Win64; x64) AppleWebKit/537.36 (KHTML, like Gecko) Chrome/79.0.3945.130 Safari/537.36",118,"[0.9, 0.5, 0.1]","[0.8, 0.4, 0.2]","[u'black', u'blue', u'red']","[u'left', u'middle', u'right']","[0.8, 0.4, 0.2]","[u'low', u'high', u'medium']","red",51,"right","medium","True","False",279,4150,NA
"A24LC97AU3QC7G","Tue Jan 28 2020 12:34:23 GMT-0600 (Central Standard Time)","Tue Jan 28 2020 12:42:07 GMT-0600 (Central Standard Time)","Mozilla/5.0 (Windows NT 6.1; Win64; x64) AppleWebKit/537.36 (KHTML, like Gecko) Chrome/79.0.3945.130 Safari/537.36",119,"[0.9, 0.5, 0.1]","[0.8, 0.4, 0.2]","[u'black', u'blue', u'red']","[u'left', u'middle', u'right']","[0.8, 0.4, 0.2]","[u'low', u'high', u'medium']","red",51,"right","medium","False","False",279,4100,NA
"A24LC97AU3QC7G","Tue Jan 28 2020 12:34:23 GMT-0600 (Central Standard Time)","Tue Jan 28 2020 12:42:07 GMT-0600 (Central Standard Time)","Mozilla/5.0 (Windows NT 6.1; Win64; x64) AppleWebKit/537.36 (KHTML, like Gecko) Chrome/79.0.3945.130 Safari/537.36",120,"[0.9, 0.5, 0.1]","[0.8, 0.4, 0.2]","[u'black', u'blue', u'red']","[u'left', u'middle', u'right']","[0.8, 0.4, 0.2]","[u'low', u'high', u'medium']","red",51,"right","medium","False","False",299,4050,NA
"A24LC97AU3QC7G","Tue Jan 28 2020 12:34:23 GMT-0600 (Central Standard Time)","Tue Jan 28 2020 12:42:07 GMT-0600 (Central Standard Time)","Mozilla/5.0 (Windows NT 6.1; Win64; x64) AppleWebKit/537.36 (KHTML, like Gecko) Chrome/79.0.3945.130 Safari/537.36",121,"[0.9, 0.5, 0.1]","[0.8, 0.4, 0.2]","[u'black', u'blue', u'red']","[u'left', u'middle', u'right']","[0.8, 0.4, 0.2]","[u'medium', u'low', u'high']","blue",50,"middle","low","True","False",318,4150,NA
"A24LC97AU3QC7G","Tue Jan 28 2020 12:34:23 GMT-0600 (Central Standard Time)","Tue Jan 28 2020 12:42:07 GMT-0600 (Central Standard Time)","Mozilla/5.0 (Windows NT 6.1; Win64; x64) AppleWebKit/537.36 (KHTML, like Gecko) Chrome/79.0.3945.130 Safari/537.36",122,"[0.9, 0.5, 0.1]","[0.8, 0.4, 0.2]","[u'black', u'blue', u'red']","[u'left', u'middle', u'right']","[0.8, 0.4, 0.2]","[u'medium', u'low', u'high']","blue",50,"middle","low","False","False",259,4100,NA
"A24LC97AU3QC7G","Tue Jan 28 2020 12:34:23 GMT-0600 (Central Standard Time)","Tue Jan 28 2020 12:42:07 GMT-0600 (Central Standard Time)","Mozilla/5.0 (Windows NT 6.1; Win64; x64) AppleWebKit/537.36 (KHTML, like Gecko) Chrome/79.0.3945.130 Safari/537.36",123,"[0.9, 0.5, 0.1]","[0.8, 0.4, 0.2]","[u'black', u'blue', u'red']","[u'left', u'middle', u'right']","[0.8, 0.4, 0.2]","[u'medium', u'low', u'high']","blue",50,"middle","low","False","False",440,4050,NA
"A24LC97AU3QC7G","Tue Jan 28 2020 12:34:23 GMT-0600 (Central Standard Time)","Tue Jan 28 2020 12:42:07 GMT-0600 (Central Standard Time)","Mozilla/5.0 (Windows NT 6.1; Win64; x64) AppleWebKit/537.36 (KHTML, like Gecko) Chrome/79.0.3945.130 Safari/537.36",124,"[0.9, 0.5, 0.1]","[0.8, 0.4, 0.2]","[u'black', u'blue', u'red']","[u'left', u'middle', u'right']","[0.8, 0.4, 0.2]","[u'medium', u'low', u'high']","red",51,"right","high","True","False",260,4150,NA
"A24LC97AU3QC7G","Tue Jan 28 2020 12:34:23 GMT-0600 (Central Standard Time)","Tue Jan 28 2020 12:42:07 GMT-0600 (Central Standard Time)","Mozilla/5.0 (Windows NT 6.1; Win64; x64) AppleWebKit/537.36 (KHTML, like Gecko) Chrome/79.0.3945.130 Safari/537.36",125,"[0.9, 0.5, 0.1]","[0.8, 0.4, 0.2]","[u'black', u'blue', u'red']","[u'left', u'middle', u'right']","[0.8, 0.4, 0.2]","[u'medium', u'low', u'high']","red",51,"right","high","True","False",280,4250,NA
"A24LC97AU3QC7G","Tue Jan 28 2020 12:34:23 GMT-0600 (Central Standard Time)","Tue Jan 28 2020 12:42:07 GMT-0600 (Central Standard Time)","Mozilla/5.0 (Windows NT 6.1; Win64; x64) AppleWebKit/537.36 (KHTML, like Gecko) Chrome/79.0.3945.130 Safari/537.36",126,"[0.9, 0.5, 0.1]","[0.8, 0.4, 0.2]","[u'black', u'blue', u'red']","[u'left', u'middle', u'right']","[0.8, 0.4, 0.2]","[u'medium', u'low', u'high']","red",51,"right","high","True","False",360,4350,NA
"A24LC97AU3QC7G","Tue Jan 28 2020 12:34:23 GMT-0600 (Central Standard Time)","Tue Jan 28 2020 12:42:07 GMT-0600 (Central Standard Time)","Mozilla/5.0 (Windows NT 6.1; Win64; x64) AppleWebKit/537.36 (KHTML, like Gecko) Chrome/79.0.3945.130 Safari/537.36",127,"[0.9, 0.5, 0.1]","[0.8, 0.4, 0.2]","[u'black', u'blue', u'red']","[u'left', u'middle', u'right']","[0.8, 0.4, 0.2]","[u'medium', u'low', u'high']","red",51,"right","high","True","False",280,4450,NA
"A24LC97AU3QC7G","Tue Jan 28 2020 12:34:23 GMT-0600 (Central Standard Time)","Tue Jan 28 2020 12:42:07 GMT-0600 (Central Standard Time)","Mozilla/5.0 (Windows NT 6.1; Win64; x64) AppleWebKit/537.36 (KHTML, like Gecko) Chrome/79.0.3945.130 Safari/537.36",128,"[0.9, 0.5, 0.1]","[0.8, 0.4, 0.2]","[u'black', u'blue', u'red']","[u'left', u'middle', u'right']","[0.8, 0.4, 0.2]","[u'medium', u'low', u'high']","red",51,"right","high","True","False",539,4550,NA
"A24LC97AU3QC7G","Tue Jan 28 2020 12:34:23 GMT-0600 (Central Standard Time)","Tue Jan 28 2020 12:42:07 GMT-0600 (Central Standard Time)","Mozilla/5.0 (Windows NT 6.1; Win64; x64) AppleWebKit/537.36 (KHTML, like Gecko) Chrome/79.0.3945.130 Safari/537.36",129,"[0.9, 0.5, 0.1]","[0.8, 0.4, 0.2]","[u'black', u'blue', u'red']","[u'left', u'middle', u'right']","[0.8, 0.4, 0.2]","[u'medium', u'low', u'high']","red",51,"right","high","True","False",379,4650,NA
"A24LC97AU3QC7G","Tue Jan 28 2020 12:34:23 GMT-0600 (Central Standard Time)","Tue Jan 28 2020 12:42:07 GMT-0600 (Central Standard Time)","Mozilla/5.0 (Windows NT 6.1; Win64; x64) AppleWebKit/537.36 (KHTML, like Gecko) Chrome/79.0.3945.130 Safari/537.36",130,"[0.9, 0.5, 0.1]","[0.8, 0.4, 0.2]","[u'black', u'blue', u'red']","[u'left', u'middle', u'right']","[0.8, 0.4, 0.2]","[u'medium', u'low', u'high']","red",51,"right","high","False","False",319,4600,NA
"A24LC97AU3QC7G","Tue Jan 28 2020 12:34:23 GMT-0600 (Central Standard Time)","Tue Jan 28 2020 12:42:07 GMT-0600 (Central Standard Time)","Mozilla/5.0 (Windows NT 6.1; Win64; x64) AppleWebKit/537.36 (KHTML, like Gecko) Chrome/79.0.3945.130 Safari/537.36",131,"[0.9, 0.5, 0.1]","[0.8, 0.4, 0.2]","[u'black', u'blue', u'red']","[u'left', u'middle', u'right']","[0.8, 0.4, 0.2]","[u'medium', u'low', u'high']","black",49,"left","medium","True","False",299,4700,NA
"A24LC97AU3QC7G","Tue Jan 28 2020 12:34:23 GMT-0600 (Central Standard Time)","Tue Jan 28 2020 12:42:07 GMT-0600 (Central Standard Time)","Mozilla/5.0 (Windows NT 6.1; Win64; x64) AppleWebKit/537.36 (KHTML, like Gecko) Chrome/79.0.3945.130 Safari/537.36",132,"[0.9, 0.5, 0.1]","[0.8, 0.4, 0.2]","[u'black', u'blue', u'red']","[u'left', u'middle', u'right']","[0.8, 0.4, 0.2]","[u'medium', u'low', u'high']","black",49,"left","medium","False","False",338,4650,NA
"A24LC97AU3QC7G","Tue Jan 28 2020 12:34:23 GMT-0600 (Central Standard Time)","Tue Jan 28 2020 12:42:07 GMT-0600 (Central Standard Time)","Mozilla/5.0 (Windows NT 6.1; Win64; x64) AppleWebKit/537.36 (KHTML, like Gecko) Chrome/79.0.3945.130 Safari/537.36",133,"[0.9, 0.5, 0.1]","[0.8, 0.4, 0.2]","[u'black', u'blue', u'red']","[u'left', u'middle', u'right']","[0.8, 0.4, 0.2]","[u'medium', u'low', u'high']","red",51,"right","high","False","False",241,4600,NA
"A24LC97AU3QC7G","Tue Jan 28 2020 12:34:23 GMT-0600 (Central Standard Time)","Tue Jan 28 2020 12:42:07 GMT-0600 (Central Standard Time)","Mozilla/5.0 (Windows NT 6.1; Win64; x64) AppleWebKit/537.36 (KHTML, like Gecko) Chrome/79.0.3945.130 Safari/537.36",134,"[0.9, 0.5, 0.1]","[0.8, 0.4, 0.2]","[u'black', u'blue', u'red']","[u'left', u'middle', u'right']","[0.8, 0.4, 0.2]","[u'medium', u'low', u'high']","red",51,"right","high","True","False",278,4700,NA
"A24LC97AU3QC7G","Tue Jan 28 2020 12:34:23 GMT-0600 (Central Standard Time)","Tue Jan 28 2020 12:42:07 GMT-0600 (Central Standard Time)","Mozilla/5.0 (Windows NT 6.1; Win64; x64) AppleWebKit/537.36 (KHTML, like Gecko) Chrome/79.0.3945.130 Safari/537.36",135,"[0.9, 0.5, 0.1]","[0.8, 0.4, 0.2]","[u'black', u'blue', u'red']","[u'left', u'middle', u'right']","[0.8, 0.4, 0.2]","[u'medium', u'low', u'high']","red",51,"right","high","True","False",319,4800,NA
"A24LC97AU3QC7G","Tue Jan 28 2020 12:34:23 GMT-0600 (Central Standard Time)","Tue Jan 28 2020 12:42:07 GMT-0600 (Central Standard Time)","Mozilla/5.0 (Windows NT 6.1; Win64; x64) AppleWebKit/537.36 (KHTML, like Gecko) Chrome/79.0.3945.130 Safari/537.36",136,"[0.9, 0.5, 0.1]","[0.8, 0.4, 0.2]","[u'black', u'blue', u'red']","[u'left', u'middle', u'right']","[0.8, 0.4, 0.2]","[u'medium', u'low', u'high']","red",51,"right","high","True","False",360,4900,NA
"A24LC97AU3QC7G","Tue Jan 28 2020 12:34:23 GMT-0600 (Central Standard Time)","Tue Jan 28 2020 12:42:07 GMT-0600 (Central Standard Time)","Mozilla/5.0 (Windows NT 6.1; Win64; x64) AppleWebKit/537.36 (KHTML, like Gecko) Chrome/79.0.3945.130 Safari/537.36",137,"[0.9, 0.5, 0.1]","[0.8, 0.4, 0.2]","[u'black', u'blue', u'red']","[u'left', u'middle', u'right']","[0.8, 0.4, 0.2]","[u'medium', u'low', u'high']","red",51,"right","high","True","False",519,5000,NA
"A24LC97AU3QC7G","Tue Jan 28 2020 12:34:23 GMT-0600 (Central Standard Time)","Tue Jan 28 2020 12:42:07 GMT-0600 (Central Standard Time)","Mozilla/5.0 (Windows NT 6.1; Win64; x64) AppleWebKit/537.36 (KHTML, like Gecko) Chrome/79.0.3945.130 Safari/537.36",138,"[0.9, 0.5, 0.1]","[0.8, 0.4, 0.2]","[u'black', u'blue', u'red']","[u'left', u'middle', u'right']","[0.8, 0.4, 0.2]","[u'medium', u'low', u'high']","red",51,"right","high","True","False",380,5100,NA
"A24LC97AU3QC7G","Tue Jan 28 2020 12:34:23 GMT-0600 (Central Standard Time)","Tue Jan 28 2020 12:42:07 GMT-0600 (Central Standard Time)","Mozilla/5.0 (Windows NT 6.1; Win64; x64) AppleWebKit/537.36 (KHTML, like Gecko) Chrome/79.0.3945.130 Safari/537.36",139,"[0.9, 0.5, 0.1]","[0.8, 0.4, 0.2]","[u'black', u'blue', u'red']","[u'left', u'middle', u'right']","[0.8, 0.4, 0.2]","[u'medium', u'low', u'high']","red",51,"right","high","False","False",420,5050,NA
"A24LC97AU3QC7G","Tue Jan 28 2020 12:34:23 GMT-0600 (Central Standard Time)","Tue Jan 28 2020 12:42:07 GMT-0600 (Central Standard Time)","Mozilla/5.0 (Windows NT 6.1; Win64; x64) AppleWebKit/537.36 (KHTML, like Gecko) Chrome/79.0.3945.130 Safari/537.36",140,"[0.9, 0.5, 0.1]","[0.8, 0.4, 0.2]","[u'black', u'blue', u'red']","[u'left', u'middle', u'right']","[0.8, 0.4, 0.2]","[u'medium', u'low', u'high']","blue",50,"middle","low","False","False",478,5000,NA
"A24LC97AU3QC7G","Tue Jan 28 2020 12:34:23 GMT-0600 (Central Standard Time)","Tue Jan 28 2020 12:42:07 GMT-0600 (Central Standard Time)","Mozilla/5.0 (Windows NT 6.1; Win64; x64) AppleWebKit/537.36 (KHTML, like Gecko) Chrome/79.0.3945.130 Safari/537.36",141,"[0.9, 0.5, 0.1]","[0.8, 0.4, 0.2]","[u'black', u'blue', u'red']","[u'left', u'middle', u'right']","[0.8, 0.4, 0.2]","[u'medium', u'low', u'high']","black",49,"left","medium","True","False",279,5100,NA
"A24LC97AU3QC7G","Tue Jan 28 2020 12:34:23 GMT-0600 (Central Standard Time)","Tue Jan 28 2020 12:42:07 GMT-0600 (Central Standard Time)","Mozilla/5.0 (Windows NT 6.1; Win64; x64) AppleWebKit/537.36 (KHTML, like Gecko) Chrome/79.0.3945.130 Safari/537.36",142,"[0.9, 0.5, 0.1]","[0.8, 0.4, 0.2]","[u'black', u'blue', u'red']","[u'left', u'middle', u'right']","[0.8, 0.4, 0.2]","[u'medium', u'low', u'high']","red",51,"right","high","True","False",538,5200,NA
"A24LC97AU3QC7G","Tue Jan 28 2020 12:34:23 GMT-0600 (Central Standard Time)","Tue Jan 28 2020 12:42:07 GMT-0600 (Central Standard Time)","Mozilla/5.0 (Windows NT 6.1; Win64; x64) AppleWebKit/537.36 (KHTML, like Gecko) Chrome/79.0.3945.130 Safari/537.36",143,"[0.9, 0.5, 0.1]","[0.8, 0.4, 0.2]","[u'black', u'blue', u'red']","[u'left', u'middle', u'right']","[0.8, 0.4, 0.2]","[u'medium', u'low', u'high']","red",51,"right","high","True","False",339,5300,NA
"A24LC97AU3QC7G","Tue Jan 28 2020 12:34:23 GMT-0600 (Central Standard Time)","Tue Jan 28 2020 12:42:07 GMT-0600 (Central Standard Time)","Mozilla/5.0 (Windows NT 6.1; Win64; x64) AppleWebKit/537.36 (KHTML, like Gecko) Chrome/79.0.3945.130 Safari/537.36",144,"[0.9, 0.5, 0.1]","[0.8, 0.4, 0.2]","[u'black', u'blue', u'red']","[u'left', u'middle', u'right']","[0.8, 0.4, 0.2]","[u'medium', u'low', u'high']","red",51,"right","high","True","False",479,5400,NA
"A24LC97AU3QC7G","Tue Jan 28 2020 12:34:23 GMT-0600 (Central Standard Time)","Tue Jan 28 2020 12:42:07 GMT-0600 (Central Standard Time)","Mozilla/5.0 (Windows NT 6.1; Win64; x64) AppleWebKit/537.36 (KHTML, like Gecko) Chrome/79.0.3945.130 Safari/537.36",145,"[0.9, 0.5, 0.1]","[0.8, 0.4, 0.2]","[u'black', u'blue', u'red']","[u'left', u'middle', u'right']","[0.8, 0.4, 0.2]","[u'medium', u'low', u'high']","red",51,"right","high","True","False",380,5500,NA
"A24LC97AU3QC7G","Tue Jan 28 2020 12:34:23 GMT-0600 (Central Standard Time)","Tue Jan 28 2020 12:42:07 GMT-0600 (Central Standard Time)","Mozilla/5.0 (Windows NT 6.1; Win64; x64) AppleWebKit/537.36 (KHTML, like Gecko) Chrome/79.0.3945.130 Safari/537.36",146,"[0.9, 0.5, 0.1]","[0.8, 0.4, 0.2]","[u'black', u'blue', u'red']","[u'left', u'middle', u'right']","[0.8, 0.4, 0.2]","[u'medium', u'low', u'high']","red",51,"right","high","True","False",378,5600,NA
"A24LC97AU3QC7G","Tue Jan 28 2020 12:34:23 GMT-0600 (Central Standard Time)","Tue Jan 28 2020 12:42:07 GMT-0600 (Central Standard Time)","Mozilla/5.0 (Windows NT 6.1; Win64; x64) AppleWebKit/537.36 (KHTML, like Gecko) Chrome/79.0.3945.130 Safari/537.36",147,"[0.9, 0.5, 0.1]","[0.8, 0.4, 0.2]","[u'black', u'blue', u'red']","[u'left', u'middle', u'right']","[0.8, 0.4, 0.2]","[u'medium', u'low', u'high']","red",51,"right","high","True","False",60,5700,NA
"A24LC97AU3QC7G","Tue Jan 28 2020 12:34:23 GMT-0600 (Central Standard Time)","Tue Jan 28 2020 12:42:07 GMT-0600 (Central Standard Time)","Mozilla/5.0 (Windows NT 6.1; Win64; x64) AppleWebKit/537.36 (KHTML, like Gecko) Chrome/79.0.3945.130 Safari/537.36",148,"[0.9, 0.5, 0.1]","[0.8, 0.4, 0.2]","[u'black', u'blue', u'red']","[u'left', u'middle', u'right']","[0.8, 0.4, 0.2]","[u'medium', u'low', u'high']","red",51,"right","high","True","False",298,5800,NA
"A24LC97AU3QC7G","Tue Jan 28 2020 12:34:23 GMT-0600 (Central Standard Time)","Tue Jan 28 2020 12:42:07 GMT-0600 (Central Standard Time)","Mozilla/5.0 (Windows NT 6.1; Win64; x64) AppleWebKit/537.36 (KHTML, like Gecko) Chrome/79.0.3945.130 Safari/537.36",149,"[0.9, 0.5, 0.1]","[0.8, 0.4, 0.2]","[u'black', u'blue', u'red']","[u'left', u'middle', u'right']","[0.8, 0.4, 0.2]","[u'medium', u'low', u'high']","black",49,"left","medium","False","False",360,5750,NA
"A24LC97AU3QC7G","Tue Jan 28 2020 12:34:23 GMT-0600 (Central Standard Time)","Tue Jan 28 2020 12:42:07 GMT-0600 (Central Standard Time)","Mozilla/5.0 (Windows NT 6.1; Win64; x64) AppleWebKit/537.36 (KHTML, like Gecko) Chrome/79.0.3945.130 Safari/537.36",150,"[0.9, 0.5, 0.1]","[0.8, 0.4, 0.2]","[u'black', u'blue', u'red']","[u'left', u'middle', u'right']","[0.8, 0.4, 0.2]","[u'medium', u'low', u'high']","red",51,"right","high","True","False",260,5850,NA
"A24LC97AU3QC7G","Tue Jan 28 2020 12:34:23 GMT-0600 (Central Standard Time)","Tue Jan 28 2020 12:42:07 GMT-0600 (Central Standard Time)","Mozilla/5.0 (Windows NT 6.1; Win64; x64) AppleWebKit/537.36 (KHTML, like Gecko) Chrome/79.0.3945.130 Safari/537.36",151,"[0.9, 0.5, 0.1]","[0.8, 0.4, 0.2]","[u'black', u'blue', u'red']","[u'left', u'middle', u'right']","[0.8, 0.4, 0.2]","[u'medium', u'low', u'high']","red",51,"right","high","True","True",321,5950,NA
"A24LC97AU3QC7G","Tue Jan 28 2020 12:34:23 GMT-0600 (Central Standard Time)","Tue Jan 28 2020 12:42:07 GMT-0600 (Central Standard Time)","Mozilla/5.0 (Windows NT 6.1; Win64; x64) AppleWebKit/537.36 (KHTML, like Gecko) Chrome/79.0.3945.130 Safari/537.36",152,"[0.9, 0.5, 0.1]","[0.8, 0.4, 0.2]","[u'black', u'blue', u'red']","[u'left', u'middle', u'right']","[0.8, 0.4, 0.2]","[u'high', u'low', u'medium']","red",51,"right","medium","True","False",198,6050,NA
"A24LC97AU3QC7G","Tue Jan 28 2020 12:34:23 GMT-0600 (Central Standard Time)","Tue Jan 28 2020 12:42:07 GMT-0600 (Central Standard Time)","Mozilla/5.0 (Windows NT 6.1; Win64; x64) AppleWebKit/537.36 (KHTML, like Gecko) Chrome/79.0.3945.130 Safari/537.36",153,"[0.9, 0.5, 0.1]","[0.8, 0.4, 0.2]","[u'black', u'blue', u'red']","[u'left', u'middle', u'right']","[0.8, 0.4, 0.2]","[u'high', u'low', u'medium']","red",51,"right","medium","False","False",199,6000,NA
"A24LC97AU3QC7G","Tue Jan 28 2020 12:34:23 GMT-0600 (Central Standard Time)","Tue Jan 28 2020 12:42:07 GMT-0600 (Central Standard Time)","Mozilla/5.0 (Windows NT 6.1; Win64; x64) AppleWebKit/537.36 (KHTML, like Gecko) Chrome/79.0.3945.130 Safari/537.36",154,"[0.9, 0.5, 0.1]","[0.8, 0.4, 0.2]","[u'black', u'blue', u'red']","[u'left', u'middle', u'right']","[0.8, 0.4, 0.2]","[u'high', u'low', u'medium']","blue",50,"middle","low","False","False",479,5950,NA
"A24LC97AU3QC7G","Tue Jan 28 2020 12:34:23 GMT-0600 (Central Standard Time)","Tue Jan 28 2020 12:42:07 GMT-0600 (Central Standard Time)","Mozilla/5.0 (Windows NT 6.1; Win64; x64) AppleWebKit/537.36 (KHTML, like Gecko) Chrome/79.0.3945.130 Safari/537.36",155,"[0.9, 0.5, 0.1]","[0.8, 0.4, 0.2]","[u'black', u'blue', u'red']","[u'left', u'middle', u'right']","[0.8, 0.4, 0.2]","[u'high', u'low', u'medium']","black",49,"left","high","True","False",299,6050,NA
"A24LC97AU3QC7G","Tue Jan 28 2020 12:34:23 GMT-0600 (Central Standard Time)","Tue Jan 28 2020 12:42:07 GMT-0600 (Central Standard Time)","Mozilla/5.0 (Windows NT 6.1; Win64; x64) AppleWebKit/537.36 (KHTML, like Gecko) Chrome/79.0.3945.130 Safari/537.36",156,"[0.9, 0.5, 0.1]","[0.8, 0.4, 0.2]","[u'black', u'blue', u'red']","[u'left', u'middle', u'right']","[0.8, 0.4, 0.2]","[u'high', u'low', u'medium']","red",51,"right","medium","False","False",239,6000,NA
"A24LC97AU3QC7G","Tue Jan 28 2020 12:34:23 GMT-0600 (Central Standard Time)","Tue Jan 28 2020 12:42:07 GMT-0600 (Central Standard Time)","Mozilla/5.0 (Windows NT 6.1; Win64; x64) AppleWebKit/537.36 (KHTML, like Gecko) Chrome/79.0.3945.130 Safari/537.36",157,"[0.9, 0.5, 0.1]","[0.8, 0.4, 0.2]","[u'black', u'blue', u'red']","[u'left', u'middle', u'right']","[0.8, 0.4, 0.2]","[u'high', u'low', u'medium']","red",51,"right","medium","False","False",319,5950,NA
"A24LC97AU3QC7G","Tue Jan 28 2020 12:34:23 GMT-0600 (Central Standard Time)","Tue Jan 28 2020 12:42:07 GMT-0600 (Central Standard Time)","Mozilla/5.0 (Windows NT 6.1; Win64; x64) AppleWebKit/537.36 (KHTML, like Gecko) Chrome/79.0.3945.130 Safari/537.36",158,"[0.9, 0.5, 0.1]","[0.8, 0.4, 0.2]","[u'black', u'blue', u'red']","[u'left', u'middle', u'right']","[0.8, 0.4, 0.2]","[u'high', u'low', u'medium']","blue",50,"middle","low","True","False",139,6050,NA
"A24LC97AU3QC7G","Tue Jan 28 2020 12:34:23 GMT-0600 (Central Standard Time)","Tue Jan 28 2020 12:42:07 GMT-0600 (Central Standard Time)","Mozilla/5.0 (Windows NT 6.1; Win64; x64) AppleWebKit/537.36 (KHTML, like Gecko) Chrome/79.0.3945.130 Safari/537.36",159,"[0.9, 0.5, 0.1]","[0.8, 0.4, 0.2]","[u'black', u'blue', u'red']","[u'left', u'middle', u'right']","[0.8, 0.4, 0.2]","[u'high', u'low', u'medium']","blue",50,"middle","low","False","False",259,6000,NA
"A24LC97AU3QC7G","Tue Jan 28 2020 12:34:23 GMT-0600 (Central Standard Time)","Tue Jan 28 2020 12:42:07 GMT-0600 (Central Standard Time)","Mozilla/5.0 (Windows NT 6.1; Win64; x64) AppleWebKit/537.36 (KHTML, like Gecko) Chrome/79.0.3945.130 Safari/537.36",160,"[0.9, 0.5, 0.1]","[0.8, 0.4, 0.2]","[u'black', u'blue', u'red']","[u'left', u'middle', u'right']","[0.8, 0.4, 0.2]","[u'high', u'low', u'medium']","black",49,"left","high","True","False",239,6100,NA
