"src_subject_id","start_time","end_time","browser","index","first_half_probabilities","second_half_probabilities","deck_color","deck_position","deck_probabilities","deck_contingencies","response_color","key_press","response_position","response_probability","reward_type","trial_type","rt","reward_tally","exclusion_reason"
"A29OIZAIHTFKUV","Mon Sep 21 2020 04:48:22 GMT-0400 (Eastern Daylight Time)","Mon Sep 21 2020 04:57:12 GMT-0400 (Eastern Daylight Time)","Mozilla/5.0 (Macintosh; Intel Mac OS X 10_13_2) AppleWebKit/537.36 (KHTML, like Gecko) Chrome/85.0.4183.102 Safari/537.36",1,"[0.9, 0.5, 0.1]","[0.8, 0.4, 0.2]","[u'black', u'red', u'blue']","[u'left', u'middle', u'right']","[0.9, 0.5, 0.1]","[u'medium', u'low', u'high']","black",49,"left","medium","True","False",1299,100,NA
"A29OIZAIHTFKUV","Mon Sep 21 2020 04:48:22 GMT-0400 (Eastern Daylight Time)","Mon Sep 21 2020 04:57:12 GMT-0400 (Eastern Daylight Time)","Mozilla/5.0 (Macintosh; Intel Mac OS X 10_13_2) AppleWebKit/537.36 (KHTML, like Gecko) Chrome/85.0.4183.102 Safari/537.36",2,"[0.9, 0.5, 0.1]","[0.8, 0.4, 0.2]","[u'black', u'red', u'blue']","[u'left', u'middle', u'right']","[0.9, 0.5, 0.1]","[u'medium', u'low', u'high']","black",49,"left","medium","False","False",880,50,NA
"A29OIZAIHTFKUV","Mon Sep 21 2020 04:48:22 GMT-0400 (Eastern Daylight Time)","Mon Sep 21 2020 04:57:12 GMT-0400 (Eastern Daylight Time)","Mozilla/5.0 (Macintosh; Intel Mac OS X 10_13_2) AppleWebKit/537.36 (KHTML, like Gecko) Chrome/85.0.4183.102 Safari/537.36",3,"[0.9, 0.5, 0.1]","[0.8, 0.4, 0.2]","[u'black', u'red', u'blue']","[u'left', u'middle', u'right']","[0.9, 0.5, 0.1]","[u'medium', u'low', u'high']","black",49,"left","medium","True","False",680,150,NA
"A29OIZAIHTFKUV","Mon Sep 21 2020 04:48:22 GMT-0400 (Eastern Daylight Time)","Mon Sep 21 2020 04:57:12 GMT-0400 (Eastern Daylight Time)","Mozilla/5.0 (Macintosh; Intel Mac OS X 10_13_2) AppleWebKit/537.36 (KHTML, like Gecko) Chrome/85.0.4183.102 Safari/537.36",4,"[0.9, 0.5, 0.1]","[0.8, 0.4, 0.2]","[u'black', u'red', u'blue']","[u'left', u'middle', u'right']","[0.9, 0.5, 0.1]","[u'medium', u'low', u'high']","red",50,"middle","low","False","False",890,100,NA
"A29OIZAIHTFKUV","Mon Sep 21 2020 04:48:22 GMT-0400 (Eastern Daylight Time)","Mon Sep 21 2020 04:57:12 GMT-0400 (Eastern Daylight Time)","Mozilla/5.0 (Macintosh; Intel Mac OS X 10_13_2) AppleWebKit/537.36 (KHTML, like Gecko) Chrome/85.0.4183.102 Safari/537.36",5,"[0.9, 0.5, 0.1]","[0.8, 0.4, 0.2]","[u'black', u'red', u'blue']","[u'left', u'middle', u'right']","[0.9, 0.5, 0.1]","[u'medium', u'low', u'high']","black",49,"left","medium","False","False",924,50,NA
"A29OIZAIHTFKUV","Mon Sep 21 2020 04:48:22 GMT-0400 (Eastern Daylight Time)","Mon Sep 21 2020 04:57:12 GMT-0400 (Eastern Daylight Time)","Mozilla/5.0 (Macintosh; Intel Mac OS X 10_13_2) AppleWebKit/537.36 (KHTML, like Gecko) Chrome/85.0.4183.102 Safari/537.36",6,"[0.9, 0.5, 0.1]","[0.8, 0.4, 0.2]","[u'black', u'red', u'blue']","[u'left', u'middle', u'right']","[0.9, 0.5, 0.1]","[u'medium', u'low', u'high']","black",49,"left","medium","False","False",695,0,NA
"A29OIZAIHTFKUV","Mon Sep 21 2020 04:48:22 GMT-0400 (Eastern Daylight Time)","Mon Sep 21 2020 04:57:12 GMT-0400 (Eastern Daylight Time)","Mozilla/5.0 (Macintosh; Intel Mac OS X 10_13_2) AppleWebKit/537.36 (KHTML, like Gecko) Chrome/85.0.4183.102 Safari/537.36",7,"[0.9, 0.5, 0.1]","[0.8, 0.4, 0.2]","[u'black', u'red', u'blue']","[u'left', u'middle', u'right']","[0.9, 0.5, 0.1]","[u'medium', u'low', u'high']","blue",51,"right","high","True","False",447,100,NA
"A29OIZAIHTFKUV","Mon Sep 21 2020 04:48:22 GMT-0400 (Eastern Daylight Time)","Mon Sep 21 2020 04:57:12 GMT-0400 (Eastern Daylight Time)","Mozilla/5.0 (Macintosh; Intel Mac OS X 10_13_2) AppleWebKit/537.36 (KHTML, like Gecko) Chrome/85.0.4183.102 Safari/537.36",8,"[0.9, 0.5, 0.1]","[0.8, 0.4, 0.2]","[u'black', u'red', u'blue']","[u'left', u'middle', u'right']","[0.9, 0.5, 0.1]","[u'medium', u'low', u'high']","blue",51,"right","high","True","False",505,200,NA
"A29OIZAIHTFKUV","Mon Sep 21 2020 04:48:22 GMT-0400 (Eastern Daylight Time)","Mon Sep 21 2020 04:57:12 GMT-0400 (Eastern Daylight Time)","Mozilla/5.0 (Macintosh; Intel Mac OS X 10_13_2) AppleWebKit/537.36 (KHTML, like Gecko) Chrome/85.0.4183.102 Safari/537.36",9,"[0.9, 0.5, 0.1]","[0.8, 0.4, 0.2]","[u'black', u'red', u'blue']","[u'left', u'middle', u'right']","[0.9, 0.5, 0.1]","[u'medium', u'low', u'high']","blue",51,"right","high","True","False",826,300,NA
"A29OIZAIHTFKUV","Mon Sep 21 2020 04:48:22 GMT-0400 (Eastern Daylight Time)","Mon Sep 21 2020 04:57:12 GMT-0400 (Eastern Daylight Time)","Mozilla/5.0 (Macintosh; Intel Mac OS X 10_13_2) AppleWebKit/537.36 (KHTML, like Gecko) Chrome/85.0.4183.102 Safari/537.36",10,"[0.9, 0.5, 0.1]","[0.8, 0.4, 0.2]","[u'black', u'red', u'blue']","[u'left', u'middle', u'right']","[0.9, 0.5, 0.1]","[u'medium', u'low', u'high']","blue",51,"right","high","True","False",592,400,NA
"A29OIZAIHTFKUV","Mon Sep 21 2020 04:48:22 GMT-0400 (Eastern Daylight Time)","Mon Sep 21 2020 04:57:12 GMT-0400 (Eastern Daylight Time)","Mozilla/5.0 (Macintosh; Intel Mac OS X 10_13_2) AppleWebKit/537.36 (KHTML, like Gecko) Chrome/85.0.4183.102 Safari/537.36",11,"[0.9, 0.5, 0.1]","[0.8, 0.4, 0.2]","[u'black', u'red', u'blue']","[u'left', u'middle', u'right']","[0.9, 0.5, 0.1]","[u'medium', u'low', u'high']","blue",51,"right","high","True","False",586,500,NA
"A29OIZAIHTFKUV","Mon Sep 21 2020 04:48:22 GMT-0400 (Eastern Daylight Time)","Mon Sep 21 2020 04:57:12 GMT-0400 (Eastern Daylight Time)","Mozilla/5.0 (Macintosh; Intel Mac OS X 10_13_2) AppleWebKit/537.36 (KHTML, like Gecko) Chrome/85.0.4183.102 Safari/537.36",12,"[0.9, 0.5, 0.1]","[0.8, 0.4, 0.2]","[u'black', u'red', u'blue']","[u'left', u'middle', u'right']","[0.9, 0.5, 0.1]","[u'medium', u'low', u'high']","blue",51,"right","high","True","False",590,600,NA
"A29OIZAIHTFKUV","Mon Sep 21 2020 04:48:22 GMT-0400 (Eastern Daylight Time)","Mon Sep 21 2020 04:57:12 GMT-0400 (Eastern Daylight Time)","Mozilla/5.0 (Macintosh; Intel Mac OS X 10_13_2) AppleWebKit/537.36 (KHTML, like Gecko) Chrome/85.0.4183.102 Safari/537.36",13,"[0.9, 0.5, 0.1]","[0.8, 0.4, 0.2]","[u'black', u'red', u'blue']","[u'left', u'middle', u'right']","[0.9, 0.5, 0.1]","[u'medium', u'low', u'high']","blue",51,"right","high","True","False",522,700,NA
"A29OIZAIHTFKUV","Mon Sep 21 2020 04:48:22 GMT-0400 (Eastern Daylight Time)","Mon Sep 21 2020 04:57:12 GMT-0400 (Eastern Daylight Time)","Mozilla/5.0 (Macintosh; Intel Mac OS X 10_13_2) AppleWebKit/537.36 (KHTML, like Gecko) Chrome/85.0.4183.102 Safari/537.36",14,"[0.9, 0.5, 0.1]","[0.8, 0.4, 0.2]","[u'black', u'red', u'blue']","[u'left', u'middle', u'right']","[0.9, 0.5, 0.1]","[u'medium', u'low', u'high']","blue",51,"right","high","True","False",478,800,NA
"A29OIZAIHTFKUV","Mon Sep 21 2020 04:48:22 GMT-0400 (Eastern Daylight Time)","Mon Sep 21 2020 04:57:12 GMT-0400 (Eastern Daylight Time)","Mozilla/5.0 (Macintosh; Intel Mac OS X 10_13_2) AppleWebKit/537.36 (KHTML, like Gecko) Chrome/85.0.4183.102 Safari/537.36",15,"[0.9, 0.5, 0.1]","[0.8, 0.4, 0.2]","[u'black', u'red', u'blue']","[u'left', u'middle', u'right']","[0.9, 0.5, 0.1]","[u'medium', u'low', u'high']","blue",51,"right","high","True","True",548,900,NA
"A29OIZAIHTFKUV","Mon Sep 21 2020 04:48:22 GMT-0400 (Eastern Daylight Time)","Mon Sep 21 2020 04:57:12 GMT-0400 (Eastern Daylight Time)","Mozilla/5.0 (Macintosh; Intel Mac OS X 10_13_2) AppleWebKit/537.36 (KHTML, like Gecko) Chrome/85.0.4183.102 Safari/537.36",16,"[0.9, 0.5, 0.1]","[0.8, 0.4, 0.2]","[u'black', u'red', u'blue']","[u'left', u'middle', u'right']","[0.9, 0.5, 0.1]","[u'high', u'medium', u'low']","blue",51,"right","low","False","False",626,850,NA
"A29OIZAIHTFKUV","Mon Sep 21 2020 04:48:22 GMT-0400 (Eastern Daylight Time)","Mon Sep 21 2020 04:57:12 GMT-0400 (Eastern Daylight Time)","Mozilla/5.0 (Macintosh; Intel Mac OS X 10_13_2) AppleWebKit/537.36 (KHTML, like Gecko) Chrome/85.0.4183.102 Safari/537.36",17,"[0.9, 0.5, 0.1]","[0.8, 0.4, 0.2]","[u'black', u'red', u'blue']","[u'left', u'middle', u'right']","[0.9, 0.5, 0.1]","[u'high', u'medium', u'low']","blue",51,"right","low","False","False",667,800,NA
"A29OIZAIHTFKUV","Mon Sep 21 2020 04:48:22 GMT-0400 (Eastern Daylight Time)","Mon Sep 21 2020 04:57:12 GMT-0400 (Eastern Daylight Time)","Mozilla/5.0 (Macintosh; Intel Mac OS X 10_13_2) AppleWebKit/537.36 (KHTML, like Gecko) Chrome/85.0.4183.102 Safari/537.36",18,"[0.9, 0.5, 0.1]","[0.8, 0.4, 0.2]","[u'black', u'red', u'blue']","[u'left', u'middle', u'right']","[0.9, 0.5, 0.1]","[u'high', u'medium', u'low']","red",50,"middle","medium","False","False",265,750,NA
"A29OIZAIHTFKUV","Mon Sep 21 2020 04:48:22 GMT-0400 (Eastern Daylight Time)","Mon Sep 21 2020 04:57:12 GMT-0400 (Eastern Daylight Time)","Mozilla/5.0 (Macintosh; Intel Mac OS X 10_13_2) AppleWebKit/537.36 (KHTML, like Gecko) Chrome/85.0.4183.102 Safari/537.36",19,"[0.9, 0.5, 0.1]","[0.8, 0.4, 0.2]","[u'black', u'red', u'blue']","[u'left', u'middle', u'right']","[0.9, 0.5, 0.1]","[u'high', u'medium', u'low']","black",49,"left","high","False","False",317,700,NA
"A29OIZAIHTFKUV","Mon Sep 21 2020 04:48:22 GMT-0400 (Eastern Daylight Time)","Mon Sep 21 2020 04:57:12 GMT-0400 (Eastern Daylight Time)","Mozilla/5.0 (Macintosh; Intel Mac OS X 10_13_2) AppleWebKit/537.36 (KHTML, like Gecko) Chrome/85.0.4183.102 Safari/537.36",20,"[0.9, 0.5, 0.1]","[0.8, 0.4, 0.2]","[u'black', u'red', u'blue']","[u'left', u'middle', u'right']","[0.9, 0.5, 0.1]","[u'high', u'medium', u'low']","blue",51,"right","low","False","False",292,650,NA
"A29OIZAIHTFKUV","Mon Sep 21 2020 04:48:22 GMT-0400 (Eastern Daylight Time)","Mon Sep 21 2020 04:57:12 GMT-0400 (Eastern Daylight Time)","Mozilla/5.0 (Macintosh; Intel Mac OS X 10_13_2) AppleWebKit/537.36 (KHTML, like Gecko) Chrome/85.0.4183.102 Safari/537.36",21,"[0.9, 0.5, 0.1]","[0.8, 0.4, 0.2]","[u'black', u'red', u'blue']","[u'left', u'middle', u'right']","[0.9, 0.5, 0.1]","[u'high', u'medium', u'low']","blue",51,"right","low","False","False",459,600,NA
"A29OIZAIHTFKUV","Mon Sep 21 2020 04:48:22 GMT-0400 (Eastern Daylight Time)","Mon Sep 21 2020 04:57:12 GMT-0400 (Eastern Daylight Time)","Mozilla/5.0 (Macintosh; Intel Mac OS X 10_13_2) AppleWebKit/537.36 (KHTML, like Gecko) Chrome/85.0.4183.102 Safari/537.36",22,"[0.9, 0.5, 0.1]","[0.8, 0.4, 0.2]","[u'black', u'red', u'blue']","[u'left', u'middle', u'right']","[0.9, 0.5, 0.1]","[u'high', u'medium', u'low']","red",50,"middle","medium","True","False",655,700,NA
"A29OIZAIHTFKUV","Mon Sep 21 2020 04:48:22 GMT-0400 (Eastern Daylight Time)","Mon Sep 21 2020 04:57:12 GMT-0400 (Eastern Daylight Time)","Mozilla/5.0 (Macintosh; Intel Mac OS X 10_13_2) AppleWebKit/537.36 (KHTML, like Gecko) Chrome/85.0.4183.102 Safari/537.36",23,"[0.9, 0.5, 0.1]","[0.8, 0.4, 0.2]","[u'black', u'red', u'blue']","[u'left', u'middle', u'right']","[0.9, 0.5, 0.1]","[u'high', u'medium', u'low']","red",50,"middle","medium","True","False",315,800,NA
"A29OIZAIHTFKUV","Mon Sep 21 2020 04:48:22 GMT-0400 (Eastern Daylight Time)","Mon Sep 21 2020 04:57:12 GMT-0400 (Eastern Daylight Time)","Mozilla/5.0 (Macintosh; Intel Mac OS X 10_13_2) AppleWebKit/537.36 (KHTML, like Gecko) Chrome/85.0.4183.102 Safari/537.36",24,"[0.9, 0.5, 0.1]","[0.8, 0.4, 0.2]","[u'black', u'red', u'blue']","[u'left', u'middle', u'right']","[0.9, 0.5, 0.1]","[u'high', u'medium', u'low']","red",50,"middle","medium","True","False",344,900,NA
"A29OIZAIHTFKUV","Mon Sep 21 2020 04:48:22 GMT-0400 (Eastern Daylight Time)","Mon Sep 21 2020 04:57:12 GMT-0400 (Eastern Daylight Time)","Mozilla/5.0 (Macintosh; Intel Mac OS X 10_13_2) AppleWebKit/537.36 (KHTML, like Gecko) Chrome/85.0.4183.102 Safari/537.36",25,"[0.9, 0.5, 0.1]","[0.8, 0.4, 0.2]","[u'black', u'red', u'blue']","[u'left', u'middle', u'right']","[0.9, 0.5, 0.1]","[u'high', u'medium', u'low']","red",50,"middle","medium","False","False",328,850,NA
"A29OIZAIHTFKUV","Mon Sep 21 2020 04:48:22 GMT-0400 (Eastern Daylight Time)","Mon Sep 21 2020 04:57:12 GMT-0400 (Eastern Daylight Time)","Mozilla/5.0 (Macintosh; Intel Mac OS X 10_13_2) AppleWebKit/537.36 (KHTML, like Gecko) Chrome/85.0.4183.102 Safari/537.36",26,"[0.9, 0.5, 0.1]","[0.8, 0.4, 0.2]","[u'black', u'red', u'blue']","[u'left', u'middle', u'right']","[0.9, 0.5, 0.1]","[u'high', u'medium', u'low']","red",50,"middle","medium","True","False",404,950,NA
"A29OIZAIHTFKUV","Mon Sep 21 2020 04:48:22 GMT-0400 (Eastern Daylight Time)","Mon Sep 21 2020 04:57:12 GMT-0400 (Eastern Daylight Time)","Mozilla/5.0 (Macintosh; Intel Mac OS X 10_13_2) AppleWebKit/537.36 (KHTML, like Gecko) Chrome/85.0.4183.102 Safari/537.36",27,"[0.9, 0.5, 0.1]","[0.8, 0.4, 0.2]","[u'black', u'red', u'blue']","[u'left', u'middle', u'right']","[0.9, 0.5, 0.1]","[u'high', u'medium', u'low']","red",50,"middle","medium","False","False",415,900,NA
"A29OIZAIHTFKUV","Mon Sep 21 2020 04:48:22 GMT-0400 (Eastern Daylight Time)","Mon Sep 21 2020 04:57:12 GMT-0400 (Eastern Daylight Time)","Mozilla/5.0 (Macintosh; Intel Mac OS X 10_13_2) AppleWebKit/537.36 (KHTML, like Gecko) Chrome/85.0.4183.102 Safari/537.36",28,"[0.9, 0.5, 0.1]","[0.8, 0.4, 0.2]","[u'black', u'red', u'blue']","[u'left', u'middle', u'right']","[0.9, 0.5, 0.1]","[u'high', u'medium', u'low']","red",50,"middle","medium","True","False",334,1000,NA
"A29OIZAIHTFKUV","Mon Sep 21 2020 04:48:22 GMT-0400 (Eastern Daylight Time)","Mon Sep 21 2020 04:57:12 GMT-0400 (Eastern Daylight Time)","Mozilla/5.0 (Macintosh; Intel Mac OS X 10_13_2) AppleWebKit/537.36 (KHTML, like Gecko) Chrome/85.0.4183.102 Safari/537.36",29,"[0.9, 0.5, 0.1]","[0.8, 0.4, 0.2]","[u'black', u'red', u'blue']","[u'left', u'middle', u'right']","[0.9, 0.5, 0.1]","[u'high', u'medium', u'low']","red",50,"middle","medium","False","False",346,950,NA
"A29OIZAIHTFKUV","Mon Sep 21 2020 04:48:22 GMT-0400 (Eastern Daylight Time)","Mon Sep 21 2020 04:57:12 GMT-0400 (Eastern Daylight Time)","Mozilla/5.0 (Macintosh; Intel Mac OS X 10_13_2) AppleWebKit/537.36 (KHTML, like Gecko) Chrome/85.0.4183.102 Safari/537.36",30,"[0.9, 0.5, 0.1]","[0.8, 0.4, 0.2]","[u'black', u'red', u'blue']","[u'left', u'middle', u'right']","[0.9, 0.5, 0.1]","[u'high', u'medium', u'low']","red",50,"middle","medium","True","False",256,1050,NA
"A29OIZAIHTFKUV","Mon Sep 21 2020 04:48:22 GMT-0400 (Eastern Daylight Time)","Mon Sep 21 2020 04:57:12 GMT-0400 (Eastern Daylight Time)","Mozilla/5.0 (Macintosh; Intel Mac OS X 10_13_2) AppleWebKit/537.36 (KHTML, like Gecko) Chrome/85.0.4183.102 Safari/537.36",31,"[0.9, 0.5, 0.1]","[0.8, 0.4, 0.2]","[u'black', u'red', u'blue']","[u'left', u'middle', u'right']","[0.9, 0.5, 0.1]","[u'high', u'medium', u'low']","red",50,"middle","medium","False","False",833,1000,NA
"A29OIZAIHTFKUV","Mon Sep 21 2020 04:48:22 GMT-0400 (Eastern Daylight Time)","Mon Sep 21 2020 04:57:12 GMT-0400 (Eastern Daylight Time)","Mozilla/5.0 (Macintosh; Intel Mac OS X 10_13_2) AppleWebKit/537.36 (KHTML, like Gecko) Chrome/85.0.4183.102 Safari/537.36",32,"[0.9, 0.5, 0.1]","[0.8, 0.4, 0.2]","[u'black', u'red', u'blue']","[u'left', u'middle', u'right']","[0.9, 0.5, 0.1]","[u'high', u'medium', u'low']","blue",51,"right","low","False","False",246,950,NA
"A29OIZAIHTFKUV","Mon Sep 21 2020 04:48:22 GMT-0400 (Eastern Daylight Time)","Mon Sep 21 2020 04:57:12 GMT-0400 (Eastern Daylight Time)","Mozilla/5.0 (Macintosh; Intel Mac OS X 10_13_2) AppleWebKit/537.36 (KHTML, like Gecko) Chrome/85.0.4183.102 Safari/537.36",33,"[0.9, 0.5, 0.1]","[0.8, 0.4, 0.2]","[u'black', u'red', u'blue']","[u'left', u'middle', u'right']","[0.9, 0.5, 0.1]","[u'high', u'medium', u'low']","blue",51,"right","low","False","False",355,900,NA
"A29OIZAIHTFKUV","Mon Sep 21 2020 04:48:22 GMT-0400 (Eastern Daylight Time)","Mon Sep 21 2020 04:57:12 GMT-0400 (Eastern Daylight Time)","Mozilla/5.0 (Macintosh; Intel Mac OS X 10_13_2) AppleWebKit/537.36 (KHTML, like Gecko) Chrome/85.0.4183.102 Safari/537.36",34,"[0.9, 0.5, 0.1]","[0.8, 0.4, 0.2]","[u'black', u'red', u'blue']","[u'left', u'middle', u'right']","[0.9, 0.5, 0.1]","[u'high', u'medium', u'low']","black",49,"left","high","False","False",205,850,NA
"A29OIZAIHTFKUV","Mon Sep 21 2020 04:48:22 GMT-0400 (Eastern Daylight Time)","Mon Sep 21 2020 04:57:12 GMT-0400 (Eastern Daylight Time)","Mozilla/5.0 (Macintosh; Intel Mac OS X 10_13_2) AppleWebKit/537.36 (KHTML, like Gecko) Chrome/85.0.4183.102 Safari/537.36",35,"[0.9, 0.5, 0.1]","[0.8, 0.4, 0.2]","[u'black', u'red', u'blue']","[u'left', u'middle', u'right']","[0.9, 0.5, 0.1]","[u'high', u'medium', u'low']","black",49,"left","high","True","False",96,950,NA
"A29OIZAIHTFKUV","Mon Sep 21 2020 04:48:22 GMT-0400 (Eastern Daylight Time)","Mon Sep 21 2020 04:57:12 GMT-0400 (Eastern Daylight Time)","Mozilla/5.0 (Macintosh; Intel Mac OS X 10_13_2) AppleWebKit/537.36 (KHTML, like Gecko) Chrome/85.0.4183.102 Safari/537.36",36,"[0.9, 0.5, 0.1]","[0.8, 0.4, 0.2]","[u'black', u'red', u'blue']","[u'left', u'middle', u'right']","[0.9, 0.5, 0.1]","[u'high', u'medium', u'low']","black",49,"left","high","True","False",285,1050,NA
"A29OIZAIHTFKUV","Mon Sep 21 2020 04:48:22 GMT-0400 (Eastern Daylight Time)","Mon Sep 21 2020 04:57:12 GMT-0400 (Eastern Daylight Time)","Mozilla/5.0 (Macintosh; Intel Mac OS X 10_13_2) AppleWebKit/537.36 (KHTML, like Gecko) Chrome/85.0.4183.102 Safari/537.36",37,"[0.9, 0.5, 0.1]","[0.8, 0.4, 0.2]","[u'black', u'red', u'blue']","[u'left', u'middle', u'right']","[0.9, 0.5, 0.1]","[u'high', u'medium', u'low']","black",49,"left","high","True","False",286,1150,NA
"A29OIZAIHTFKUV","Mon Sep 21 2020 04:48:22 GMT-0400 (Eastern Daylight Time)","Mon Sep 21 2020 04:57:12 GMT-0400 (Eastern Daylight Time)","Mozilla/5.0 (Macintosh; Intel Mac OS X 10_13_2) AppleWebKit/537.36 (KHTML, like Gecko) Chrome/85.0.4183.102 Safari/537.36",38,"[0.9, 0.5, 0.1]","[0.8, 0.4, 0.2]","[u'black', u'red', u'blue']","[u'left', u'middle', u'right']","[0.9, 0.5, 0.1]","[u'high', u'medium', u'low']","black",49,"left","high","True","False",241,1250,NA
"A29OIZAIHTFKUV","Mon Sep 21 2020 04:48:22 GMT-0400 (Eastern Daylight Time)","Mon Sep 21 2020 04:57:12 GMT-0400 (Eastern Daylight Time)","Mozilla/5.0 (Macintosh; Intel Mac OS X 10_13_2) AppleWebKit/537.36 (KHTML, like Gecko) Chrome/85.0.4183.102 Safari/537.36",39,"[0.9, 0.5, 0.1]","[0.8, 0.4, 0.2]","[u'black', u'red', u'blue']","[u'left', u'middle', u'right']","[0.9, 0.5, 0.1]","[u'high', u'medium', u'low']","black",49,"left","high","True","False",340,1350,NA
"A29OIZAIHTFKUV","Mon Sep 21 2020 04:48:22 GMT-0400 (Eastern Daylight Time)","Mon Sep 21 2020 04:57:12 GMT-0400 (Eastern Daylight Time)","Mozilla/5.0 (Macintosh; Intel Mac OS X 10_13_2) AppleWebKit/537.36 (KHTML, like Gecko) Chrome/85.0.4183.102 Safari/537.36",40,"[0.9, 0.5, 0.1]","[0.8, 0.4, 0.2]","[u'black', u'red', u'blue']","[u'left', u'middle', u'right']","[0.9, 0.5, 0.1]","[u'high', u'medium', u'low']","black",49,"left","high","False","False",339,1300,NA
"A29OIZAIHTFKUV","Mon Sep 21 2020 04:48:22 GMT-0400 (Eastern Daylight Time)","Mon Sep 21 2020 04:57:12 GMT-0400 (Eastern Daylight Time)","Mozilla/5.0 (Macintosh; Intel Mac OS X 10_13_2) AppleWebKit/537.36 (KHTML, like Gecko) Chrome/85.0.4183.102 Safari/537.36",41,"[0.9, 0.5, 0.1]","[0.8, 0.4, 0.2]","[u'black', u'red', u'blue']","[u'left', u'middle', u'right']","[0.9, 0.5, 0.1]","[u'medium', u'high', u'low']","red",50,"middle","high","True","False",1375,1400,NA
"A29OIZAIHTFKUV","Mon Sep 21 2020 04:48:22 GMT-0400 (Eastern Daylight Time)","Mon Sep 21 2020 04:57:12 GMT-0400 (Eastern Daylight Time)","Mozilla/5.0 (Macintosh; Intel Mac OS X 10_13_2) AppleWebKit/537.36 (KHTML, like Gecko) Chrome/85.0.4183.102 Safari/537.36",42,"[0.9, 0.5, 0.1]","[0.8, 0.4, 0.2]","[u'black', u'red', u'blue']","[u'left', u'middle', u'right']","[0.9, 0.5, 0.1]","[u'medium', u'high', u'low']","red",50,"middle","high","True","False",489,1500,NA
"A29OIZAIHTFKUV","Mon Sep 21 2020 04:48:22 GMT-0400 (Eastern Daylight Time)","Mon Sep 21 2020 04:57:12 GMT-0400 (Eastern Daylight Time)","Mozilla/5.0 (Macintosh; Intel Mac OS X 10_13_2) AppleWebKit/537.36 (KHTML, like Gecko) Chrome/85.0.4183.102 Safari/537.36",43,"[0.9, 0.5, 0.1]","[0.8, 0.4, 0.2]","[u'black', u'red', u'blue']","[u'left', u'middle', u'right']","[0.9, 0.5, 0.1]","[u'medium', u'high', u'low']","red",50,"middle","high","True","False",715,1600,NA
"A29OIZAIHTFKUV","Mon Sep 21 2020 04:48:22 GMT-0400 (Eastern Daylight Time)","Mon Sep 21 2020 04:57:12 GMT-0400 (Eastern Daylight Time)","Mozilla/5.0 (Macintosh; Intel Mac OS X 10_13_2) AppleWebKit/537.36 (KHTML, like Gecko) Chrome/85.0.4183.102 Safari/537.36",44,"[0.9, 0.5, 0.1]","[0.8, 0.4, 0.2]","[u'black', u'red', u'blue']","[u'left', u'middle', u'right']","[0.9, 0.5, 0.1]","[u'medium', u'high', u'low']","red",50,"middle","high","True","False",246,1700,NA
"A29OIZAIHTFKUV","Mon Sep 21 2020 04:48:22 GMT-0400 (Eastern Daylight Time)","Mon Sep 21 2020 04:57:12 GMT-0400 (Eastern Daylight Time)","Mozilla/5.0 (Macintosh; Intel Mac OS X 10_13_2) AppleWebKit/537.36 (KHTML, like Gecko) Chrome/85.0.4183.102 Safari/537.36",45,"[0.9, 0.5, 0.1]","[0.8, 0.4, 0.2]","[u'black', u'red', u'blue']","[u'left', u'middle', u'right']","[0.9, 0.5, 0.1]","[u'medium', u'high', u'low']","red",50,"middle","high","True","False",297,1800,NA
"A29OIZAIHTFKUV","Mon Sep 21 2020 04:48:22 GMT-0400 (Eastern Daylight Time)","Mon Sep 21 2020 04:57:12 GMT-0400 (Eastern Daylight Time)","Mozilla/5.0 (Macintosh; Intel Mac OS X 10_13_2) AppleWebKit/537.36 (KHTML, like Gecko) Chrome/85.0.4183.102 Safari/537.36",46,"[0.9, 0.5, 0.1]","[0.8, 0.4, 0.2]","[u'black', u'red', u'blue']","[u'left', u'middle', u'right']","[0.9, 0.5, 0.1]","[u'medium', u'high', u'low']","red",50,"middle","high","False","False",259,1750,NA
"A29OIZAIHTFKUV","Mon Sep 21 2020 04:48:22 GMT-0400 (Eastern Daylight Time)","Mon Sep 21 2020 04:57:12 GMT-0400 (Eastern Daylight Time)","Mozilla/5.0 (Macintosh; Intel Mac OS X 10_13_2) AppleWebKit/537.36 (KHTML, like Gecko) Chrome/85.0.4183.102 Safari/537.36",47,"[0.9, 0.5, 0.1]","[0.8, 0.4, 0.2]","[u'black', u'red', u'blue']","[u'left', u'middle', u'right']","[0.9, 0.5, 0.1]","[u'medium', u'high', u'low']","red",50,"middle","high","True","False",294,1850,NA
"A29OIZAIHTFKUV","Mon Sep 21 2020 04:48:22 GMT-0400 (Eastern Daylight Time)","Mon Sep 21 2020 04:57:12 GMT-0400 (Eastern Daylight Time)","Mozilla/5.0 (Macintosh; Intel Mac OS X 10_13_2) AppleWebKit/537.36 (KHTML, like Gecko) Chrome/85.0.4183.102 Safari/537.36",48,"[0.9, 0.5, 0.1]","[0.8, 0.4, 0.2]","[u'black', u'red', u'blue']","[u'left', u'middle', u'right']","[0.9, 0.5, 0.1]","[u'medium', u'high', u'low']","red",50,"middle","high","True","False",339,1950,NA
"A29OIZAIHTFKUV","Mon Sep 21 2020 04:48:22 GMT-0400 (Eastern Daylight Time)","Mon Sep 21 2020 04:57:12 GMT-0400 (Eastern Daylight Time)","Mozilla/5.0 (Macintosh; Intel Mac OS X 10_13_2) AppleWebKit/537.36 (KHTML, like Gecko) Chrome/85.0.4183.102 Safari/537.36",49,"[0.9, 0.5, 0.1]","[0.8, 0.4, 0.2]","[u'black', u'red', u'blue']","[u'left', u'middle', u'right']","[0.9, 0.5, 0.1]","[u'medium', u'high', u'low']","red",50,"middle","high","True","True",237,2050,NA
"A29OIZAIHTFKUV","Mon Sep 21 2020 04:48:22 GMT-0400 (Eastern Daylight Time)","Mon Sep 21 2020 04:57:12 GMT-0400 (Eastern Daylight Time)","Mozilla/5.0 (Macintosh; Intel Mac OS X 10_13_2) AppleWebKit/537.36 (KHTML, like Gecko) Chrome/85.0.4183.102 Safari/537.36",50,"[0.9, 0.5, 0.1]","[0.8, 0.4, 0.2]","[u'black', u'red', u'blue']","[u'left', u'middle', u'right']","[0.9, 0.5, 0.1]","[u'high', u'medium', u'low']","red",50,"middle","medium","False","False",354,2000,NA
"A29OIZAIHTFKUV","Mon Sep 21 2020 04:48:22 GMT-0400 (Eastern Daylight Time)","Mon Sep 21 2020 04:57:12 GMT-0400 (Eastern Daylight Time)","Mozilla/5.0 (Macintosh; Intel Mac OS X 10_13_2) AppleWebKit/537.36 (KHTML, like Gecko) Chrome/85.0.4183.102 Safari/537.36",51,"[0.9, 0.5, 0.1]","[0.8, 0.4, 0.2]","[u'black', u'red', u'blue']","[u'left', u'middle', u'right']","[0.9, 0.5, 0.1]","[u'high', u'medium', u'low']","red",50,"middle","medium","True","False",315,2100,NA
"A29OIZAIHTFKUV","Mon Sep 21 2020 04:48:22 GMT-0400 (Eastern Daylight Time)","Mon Sep 21 2020 04:57:12 GMT-0400 (Eastern Daylight Time)","Mozilla/5.0 (Macintosh; Intel Mac OS X 10_13_2) AppleWebKit/537.36 (KHTML, like Gecko) Chrome/85.0.4183.102 Safari/537.36",52,"[0.9, 0.5, 0.1]","[0.8, 0.4, 0.2]","[u'black', u'red', u'blue']","[u'left', u'middle', u'right']","[0.9, 0.5, 0.1]","[u'high', u'medium', u'low']","red",50,"middle","medium","True","False",362,2200,NA
"A29OIZAIHTFKUV","Mon Sep 21 2020 04:48:22 GMT-0400 (Eastern Daylight Time)","Mon Sep 21 2020 04:57:12 GMT-0400 (Eastern Daylight Time)","Mozilla/5.0 (Macintosh; Intel Mac OS X 10_13_2) AppleWebKit/537.36 (KHTML, like Gecko) Chrome/85.0.4183.102 Safari/537.36",53,"[0.9, 0.5, 0.1]","[0.8, 0.4, 0.2]","[u'black', u'red', u'blue']","[u'left', u'middle', u'right']","[0.9, 0.5, 0.1]","[u'high', u'medium', u'low']","red",50,"middle","medium","True","False",311,2300,NA
"A29OIZAIHTFKUV","Mon Sep 21 2020 04:48:22 GMT-0400 (Eastern Daylight Time)","Mon Sep 21 2020 04:57:12 GMT-0400 (Eastern Daylight Time)","Mozilla/5.0 (Macintosh; Intel Mac OS X 10_13_2) AppleWebKit/537.36 (KHTML, like Gecko) Chrome/85.0.4183.102 Safari/537.36",54,"[0.9, 0.5, 0.1]","[0.8, 0.4, 0.2]","[u'black', u'red', u'blue']","[u'left', u'middle', u'right']","[0.9, 0.5, 0.1]","[u'high', u'medium', u'low']","red",50,"middle","medium","False","False",364,2250,NA
"A29OIZAIHTFKUV","Mon Sep 21 2020 04:48:22 GMT-0400 (Eastern Daylight Time)","Mon Sep 21 2020 04:57:12 GMT-0400 (Eastern Daylight Time)","Mozilla/5.0 (Macintosh; Intel Mac OS X 10_13_2) AppleWebKit/537.36 (KHTML, like Gecko) Chrome/85.0.4183.102 Safari/537.36",55,"[0.9, 0.5, 0.1]","[0.8, 0.4, 0.2]","[u'black', u'red', u'blue']","[u'left', u'middle', u'right']","[0.9, 0.5, 0.1]","[u'high', u'medium', u'low']","red",50,"middle","medium","True","False",273,2350,NA
"A29OIZAIHTFKUV","Mon Sep 21 2020 04:48:22 GMT-0400 (Eastern Daylight Time)","Mon Sep 21 2020 04:57:12 GMT-0400 (Eastern Daylight Time)","Mozilla/5.0 (Macintosh; Intel Mac OS X 10_13_2) AppleWebKit/537.36 (KHTML, like Gecko) Chrome/85.0.4183.102 Safari/537.36",56,"[0.9, 0.5, 0.1]","[0.8, 0.4, 0.2]","[u'black', u'red', u'blue']","[u'left', u'middle', u'right']","[0.9, 0.5, 0.1]","[u'high', u'medium', u'low']","red",50,"middle","medium","False","False",275,2300,NA
"A29OIZAIHTFKUV","Mon Sep 21 2020 04:48:22 GMT-0400 (Eastern Daylight Time)","Mon Sep 21 2020 04:57:12 GMT-0400 (Eastern Daylight Time)","Mozilla/5.0 (Macintosh; Intel Mac OS X 10_13_2) AppleWebKit/537.36 (KHTML, like Gecko) Chrome/85.0.4183.102 Safari/537.36",57,"[0.9, 0.5, 0.1]","[0.8, 0.4, 0.2]","[u'black', u'red', u'blue']","[u'left', u'middle', u'right']","[0.9, 0.5, 0.1]","[u'high', u'medium', u'low']","red",50,"middle","medium","True","False",298,2400,NA
"A29OIZAIHTFKUV","Mon Sep 21 2020 04:48:22 GMT-0400 (Eastern Daylight Time)","Mon Sep 21 2020 04:57:12 GMT-0400 (Eastern Daylight Time)","Mozilla/5.0 (Macintosh; Intel Mac OS X 10_13_2) AppleWebKit/537.36 (KHTML, like Gecko) Chrome/85.0.4183.102 Safari/537.36",58,"[0.9, 0.5, 0.1]","[0.8, 0.4, 0.2]","[u'black', u'red', u'blue']","[u'left', u'middle', u'right']","[0.9, 0.5, 0.1]","[u'high', u'medium', u'low']","red",50,"middle","medium","False","False",258,2350,NA
"A29OIZAIHTFKUV","Mon Sep 21 2020 04:48:22 GMT-0400 (Eastern Daylight Time)","Mon Sep 21 2020 04:57:12 GMT-0400 (Eastern Daylight Time)","Mozilla/5.0 (Macintosh; Intel Mac OS X 10_13_2) AppleWebKit/537.36 (KHTML, like Gecko) Chrome/85.0.4183.102 Safari/537.36",59,"[0.9, 0.5, 0.1]","[0.8, 0.4, 0.2]","[u'black', u'red', u'blue']","[u'left', u'middle', u'right']","[0.9, 0.5, 0.1]","[u'high', u'medium', u'low']","red",50,"middle","medium","True","False",321,2450,NA
"A29OIZAIHTFKUV","Mon Sep 21 2020 04:48:22 GMT-0400 (Eastern Daylight Time)","Mon Sep 21 2020 04:57:12 GMT-0400 (Eastern Daylight Time)","Mozilla/5.0 (Macintosh; Intel Mac OS X 10_13_2) AppleWebKit/537.36 (KHTML, like Gecko) Chrome/85.0.4183.102 Safari/537.36",60,"[0.9, 0.5, 0.1]","[0.8, 0.4, 0.2]","[u'black', u'red', u'blue']","[u'left', u'middle', u'right']","[0.9, 0.5, 0.1]","[u'high', u'medium', u'low']","red",50,"middle","medium","True","False",209,2550,NA
"A29OIZAIHTFKUV","Mon Sep 21 2020 04:48:22 GMT-0400 (Eastern Daylight Time)","Mon Sep 21 2020 04:57:12 GMT-0400 (Eastern Daylight Time)","Mozilla/5.0 (Macintosh; Intel Mac OS X 10_13_2) AppleWebKit/537.36 (KHTML, like Gecko) Chrome/85.0.4183.102 Safari/537.36",61,"[0.9, 0.5, 0.1]","[0.8, 0.4, 0.2]","[u'black', u'red', u'blue']","[u'left', u'middle', u'right']","[0.9, 0.5, 0.1]","[u'high', u'medium', u'low']","red",50,"middle","medium","False","False",295,2500,NA
"A29OIZAIHTFKUV","Mon Sep 21 2020 04:48:22 GMT-0400 (Eastern Daylight Time)","Mon Sep 21 2020 04:57:12 GMT-0400 (Eastern Daylight Time)","Mozilla/5.0 (Macintosh; Intel Mac OS X 10_13_2) AppleWebKit/537.36 (KHTML, like Gecko) Chrome/85.0.4183.102 Safari/537.36",62,"[0.9, 0.5, 0.1]","[0.8, 0.4, 0.2]","[u'black', u'red', u'blue']","[u'left', u'middle', u'right']","[0.9, 0.5, 0.1]","[u'high', u'medium', u'low']","black",49,"left","high","True","False",217,2600,NA
"A29OIZAIHTFKUV","Mon Sep 21 2020 04:48:22 GMT-0400 (Eastern Daylight Time)","Mon Sep 21 2020 04:57:12 GMT-0400 (Eastern Daylight Time)","Mozilla/5.0 (Macintosh; Intel Mac OS X 10_13_2) AppleWebKit/537.36 (KHTML, like Gecko) Chrome/85.0.4183.102 Safari/537.36",63,"[0.9, 0.5, 0.1]","[0.8, 0.4, 0.2]","[u'black', u'red', u'blue']","[u'left', u'middle', u'right']","[0.9, 0.5, 0.1]","[u'high', u'medium', u'low']","black",49,"left","high","True","False",127,2700,NA
"A29OIZAIHTFKUV","Mon Sep 21 2020 04:48:22 GMT-0400 (Eastern Daylight Time)","Mon Sep 21 2020 04:57:12 GMT-0400 (Eastern Daylight Time)","Mozilla/5.0 (Macintosh; Intel Mac OS X 10_13_2) AppleWebKit/537.36 (KHTML, like Gecko) Chrome/85.0.4183.102 Safari/537.36",64,"[0.9, 0.5, 0.1]","[0.8, 0.4, 0.2]","[u'black', u'red', u'blue']","[u'left', u'middle', u'right']","[0.9, 0.5, 0.1]","[u'high', u'medium', u'low']","black",49,"left","high","False","False",226,2650,NA
"A29OIZAIHTFKUV","Mon Sep 21 2020 04:48:22 GMT-0400 (Eastern Daylight Time)","Mon Sep 21 2020 04:57:12 GMT-0400 (Eastern Daylight Time)","Mozilla/5.0 (Macintosh; Intel Mac OS X 10_13_2) AppleWebKit/537.36 (KHTML, like Gecko) Chrome/85.0.4183.102 Safari/537.36",65,"[0.9, 0.5, 0.1]","[0.8, 0.4, 0.2]","[u'black', u'red', u'blue']","[u'left', u'middle', u'right']","[0.9, 0.5, 0.1]","[u'high', u'medium', u'low']","black",49,"left","high","True","False",311,2750,NA
"A29OIZAIHTFKUV","Mon Sep 21 2020 04:48:22 GMT-0400 (Eastern Daylight Time)","Mon Sep 21 2020 04:57:12 GMT-0400 (Eastern Daylight Time)","Mozilla/5.0 (Macintosh; Intel Mac OS X 10_13_2) AppleWebKit/537.36 (KHTML, like Gecko) Chrome/85.0.4183.102 Safari/537.36",66,"[0.9, 0.5, 0.1]","[0.8, 0.4, 0.2]","[u'black', u'red', u'blue']","[u'left', u'middle', u'right']","[0.9, 0.5, 0.1]","[u'high', u'medium', u'low']","black",49,"left","high","True","False",175,2850,NA
"A29OIZAIHTFKUV","Mon Sep 21 2020 04:48:22 GMT-0400 (Eastern Daylight Time)","Mon Sep 21 2020 04:57:12 GMT-0400 (Eastern Daylight Time)","Mozilla/5.0 (Macintosh; Intel Mac OS X 10_13_2) AppleWebKit/537.36 (KHTML, like Gecko) Chrome/85.0.4183.102 Safari/537.36",67,"[0.9, 0.5, 0.1]","[0.8, 0.4, 0.2]","[u'black', u'red', u'blue']","[u'left', u'middle', u'right']","[0.9, 0.5, 0.1]","[u'high', u'medium', u'low']","black",49,"left","high","False","False",578,2800,NA
"A29OIZAIHTFKUV","Mon Sep 21 2020 04:48:22 GMT-0400 (Eastern Daylight Time)","Mon Sep 21 2020 04:57:12 GMT-0400 (Eastern Daylight Time)","Mozilla/5.0 (Macintosh; Intel Mac OS X 10_13_2) AppleWebKit/537.36 (KHTML, like Gecko) Chrome/85.0.4183.102 Safari/537.36",68,"[0.9, 0.5, 0.1]","[0.8, 0.4, 0.2]","[u'black', u'red', u'blue']","[u'left', u'middle', u'right']","[0.9, 0.5, 0.1]","[u'high', u'medium', u'low']","blue",51,"right","low","False","False",79,2750,NA
"A29OIZAIHTFKUV","Mon Sep 21 2020 04:48:22 GMT-0400 (Eastern Daylight Time)","Mon Sep 21 2020 04:57:12 GMT-0400 (Eastern Daylight Time)","Mozilla/5.0 (Macintosh; Intel Mac OS X 10_13_2) AppleWebKit/537.36 (KHTML, like Gecko) Chrome/85.0.4183.102 Safari/537.36",69,"[0.9, 0.5, 0.1]","[0.8, 0.4, 0.2]","[u'black', u'red', u'blue']","[u'left', u'middle', u'right']","[0.9, 0.5, 0.1]","[u'high', u'medium', u'low']","blue",51,"right","low","False","False",59,2700,NA
"A29OIZAIHTFKUV","Mon Sep 21 2020 04:48:22 GMT-0400 (Eastern Daylight Time)","Mon Sep 21 2020 04:57:12 GMT-0400 (Eastern Daylight Time)","Mozilla/5.0 (Macintosh; Intel Mac OS X 10_13_2) AppleWebKit/537.36 (KHTML, like Gecko) Chrome/85.0.4183.102 Safari/537.36",70,"[0.9, 0.5, 0.1]","[0.8, 0.4, 0.2]","[u'black', u'red', u'blue']","[u'left', u'middle', u'right']","[0.9, 0.5, 0.1]","[u'high', u'medium', u'low']","red",50,"middle","medium","False","False",42,2650,NA
"A29OIZAIHTFKUV","Mon Sep 21 2020 04:48:22 GMT-0400 (Eastern Daylight Time)","Mon Sep 21 2020 04:57:12 GMT-0400 (Eastern Daylight Time)","Mozilla/5.0 (Macintosh; Intel Mac OS X 10_13_2) AppleWebKit/537.36 (KHTML, like Gecko) Chrome/85.0.4183.102 Safari/537.36",71,"[0.9, 0.5, 0.1]","[0.8, 0.4, 0.2]","[u'black', u'red', u'blue']","[u'left', u'middle', u'right']","[0.9, 0.5, 0.1]","[u'high', u'medium', u'low']","red",50,"middle","medium","False","False",534,2600,NA
"A29OIZAIHTFKUV","Mon Sep 21 2020 04:48:22 GMT-0400 (Eastern Daylight Time)","Mon Sep 21 2020 04:57:12 GMT-0400 (Eastern Daylight Time)","Mozilla/5.0 (Macintosh; Intel Mac OS X 10_13_2) AppleWebKit/537.36 (KHTML, like Gecko) Chrome/85.0.4183.102 Safari/537.36",72,"[0.9, 0.5, 0.1]","[0.8, 0.4, 0.2]","[u'black', u'red', u'blue']","[u'left', u'middle', u'right']","[0.9, 0.5, 0.1]","[u'high', u'medium', u'low']","black",49,"left","high","True","False",108,2700,NA
"A29OIZAIHTFKUV","Mon Sep 21 2020 04:48:22 GMT-0400 (Eastern Daylight Time)","Mon Sep 21 2020 04:57:12 GMT-0400 (Eastern Daylight Time)","Mozilla/5.0 (Macintosh; Intel Mac OS X 10_13_2) AppleWebKit/537.36 (KHTML, like Gecko) Chrome/85.0.4183.102 Safari/537.36",73,"[0.9, 0.5, 0.1]","[0.8, 0.4, 0.2]","[u'black', u'red', u'blue']","[u'left', u'middle', u'right']","[0.9, 0.5, 0.1]","[u'high', u'medium', u'low']","black",49,"left","high","True","False",149,2800,NA
"A29OIZAIHTFKUV","Mon Sep 21 2020 04:48:22 GMT-0400 (Eastern Daylight Time)","Mon Sep 21 2020 04:57:12 GMT-0400 (Eastern Daylight Time)","Mozilla/5.0 (Macintosh; Intel Mac OS X 10_13_2) AppleWebKit/537.36 (KHTML, like Gecko) Chrome/85.0.4183.102 Safari/537.36",74,"[0.9, 0.5, 0.1]","[0.8, 0.4, 0.2]","[u'black', u'red', u'blue']","[u'left', u'middle', u'right']","[0.9, 0.5, 0.1]","[u'high', u'medium', u'low']","black",49,"left","high","True","False",264,2900,NA
"A29OIZAIHTFKUV","Mon Sep 21 2020 04:48:22 GMT-0400 (Eastern Daylight Time)","Mon Sep 21 2020 04:57:12 GMT-0400 (Eastern Daylight Time)","Mozilla/5.0 (Macintosh; Intel Mac OS X 10_13_2) AppleWebKit/537.36 (KHTML, like Gecko) Chrome/85.0.4183.102 Safari/537.36",75,"[0.9, 0.5, 0.1]","[0.8, 0.4, 0.2]","[u'black', u'red', u'blue']","[u'left', u'middle', u'right']","[0.9, 0.5, 0.1]","[u'high', u'medium', u'low']","black",49,"left","high","True","False",255,3000,NA
"A29OIZAIHTFKUV","Mon Sep 21 2020 04:48:22 GMT-0400 (Eastern Daylight Time)","Mon Sep 21 2020 04:57:12 GMT-0400 (Eastern Daylight Time)","Mozilla/5.0 (Macintosh; Intel Mac OS X 10_13_2) AppleWebKit/537.36 (KHTML, like Gecko) Chrome/85.0.4183.102 Safari/537.36",76,"[0.9, 0.5, 0.1]","[0.8, 0.4, 0.2]","[u'black', u'red', u'blue']","[u'left', u'middle', u'right']","[0.9, 0.5, 0.1]","[u'high', u'medium', u'low']","black",49,"left","high","True","False",321,3100,NA
"A29OIZAIHTFKUV","Mon Sep 21 2020 04:48:22 GMT-0400 (Eastern Daylight Time)","Mon Sep 21 2020 04:57:12 GMT-0400 (Eastern Daylight Time)","Mozilla/5.0 (Macintosh; Intel Mac OS X 10_13_2) AppleWebKit/537.36 (KHTML, like Gecko) Chrome/85.0.4183.102 Safari/537.36",77,"[0.9, 0.5, 0.1]","[0.8, 0.4, 0.2]","[u'black', u'red', u'blue']","[u'left', u'middle', u'right']","[0.9, 0.5, 0.1]","[u'high', u'medium', u'low']","black",49,"left","high","True","False",352,3200,NA
"A29OIZAIHTFKUV","Mon Sep 21 2020 04:48:22 GMT-0400 (Eastern Daylight Time)","Mon Sep 21 2020 04:57:12 GMT-0400 (Eastern Daylight Time)","Mozilla/5.0 (Macintosh; Intel Mac OS X 10_13_2) AppleWebKit/537.36 (KHTML, like Gecko) Chrome/85.0.4183.102 Safari/537.36",78,"[0.9, 0.5, 0.1]","[0.8, 0.4, 0.2]","[u'black', u'red', u'blue']","[u'left', u'middle', u'right']","[0.9, 0.5, 0.1]","[u'high', u'medium', u'low']","black",49,"left","high","True","False",249,3300,NA
"A29OIZAIHTFKUV","Mon Sep 21 2020 04:48:22 GMT-0400 (Eastern Daylight Time)","Mon Sep 21 2020 04:57:12 GMT-0400 (Eastern Daylight Time)","Mozilla/5.0 (Macintosh; Intel Mac OS X 10_13_2) AppleWebKit/537.36 (KHTML, like Gecko) Chrome/85.0.4183.102 Safari/537.36",79,"[0.9, 0.5, 0.1]","[0.8, 0.4, 0.2]","[u'black', u'red', u'blue']","[u'left', u'middle', u'right']","[0.9, 0.5, 0.1]","[u'high', u'medium', u'low']","black",49,"left","high","True","False",259,3400,NA
"A29OIZAIHTFKUV","Mon Sep 21 2020 04:48:22 GMT-0400 (Eastern Daylight Time)","Mon Sep 21 2020 04:57:12 GMT-0400 (Eastern Daylight Time)","Mozilla/5.0 (Macintosh; Intel Mac OS X 10_13_2) AppleWebKit/537.36 (KHTML, like Gecko) Chrome/85.0.4183.102 Safari/537.36",80,"[0.9, 0.5, 0.1]","[0.8, 0.4, 0.2]","[u'black', u'red', u'blue']","[u'left', u'middle', u'right']","[0.9, 0.5, 0.1]","[u'high', u'medium', u'low']","black",49,"left","high","True","True",271,3500,NA
"A29OIZAIHTFKUV","Mon Sep 21 2020 04:48:22 GMT-0400 (Eastern Daylight Time)","Mon Sep 21 2020 04:57:12 GMT-0400 (Eastern Daylight Time)","Mozilla/5.0 (Macintosh; Intel Mac OS X 10_13_2) AppleWebKit/537.36 (KHTML, like Gecko) Chrome/85.0.4183.102 Safari/537.36",81,"[0.9, 0.5, 0.1]","[0.8, 0.4, 0.2]","[u'black', u'red', u'blue']","[u'left', u'middle', u'right']","[0.8, 0.4, 0.2]","[u'low', u'high', u'medium']","blue",51,"right","medium","False","False",1737,3450,NA
"A29OIZAIHTFKUV","Mon Sep 21 2020 04:48:22 GMT-0400 (Eastern Daylight Time)","Mon Sep 21 2020 04:57:12 GMT-0400 (Eastern Daylight Time)","Mozilla/5.0 (Macintosh; Intel Mac OS X 10_13_2) AppleWebKit/537.36 (KHTML, like Gecko) Chrome/85.0.4183.102 Safari/537.36",82,"[0.9, 0.5, 0.1]","[0.8, 0.4, 0.2]","[u'black', u'red', u'blue']","[u'left', u'middle', u'right']","[0.8, 0.4, 0.2]","[u'low', u'high', u'medium']","blue",51,"right","medium","False","False",392,3400,NA
"A29OIZAIHTFKUV","Mon Sep 21 2020 04:48:22 GMT-0400 (Eastern Daylight Time)","Mon Sep 21 2020 04:57:12 GMT-0400 (Eastern Daylight Time)","Mozilla/5.0 (Macintosh; Intel Mac OS X 10_13_2) AppleWebKit/537.36 (KHTML, like Gecko) Chrome/85.0.4183.102 Safari/537.36",83,"[0.9, 0.5, 0.1]","[0.8, 0.4, 0.2]","[u'black', u'red', u'blue']","[u'left', u'middle', u'right']","[0.8, 0.4, 0.2]","[u'low', u'high', u'medium']","red",50,"middle","high","True","False",448,3500,NA
"A29OIZAIHTFKUV","Mon Sep 21 2020 04:48:22 GMT-0400 (Eastern Daylight Time)","Mon Sep 21 2020 04:57:12 GMT-0400 (Eastern Daylight Time)","Mozilla/5.0 (Macintosh; Intel Mac OS X 10_13_2) AppleWebKit/537.36 (KHTML, like Gecko) Chrome/85.0.4183.102 Safari/537.36",84,"[0.9, 0.5, 0.1]","[0.8, 0.4, 0.2]","[u'black', u'red', u'blue']","[u'left', u'middle', u'right']","[0.8, 0.4, 0.2]","[u'low', u'high', u'medium']","red",50,"middle","high","False","False",114,3450,NA
"A29OIZAIHTFKUV","Mon Sep 21 2020 04:48:22 GMT-0400 (Eastern Daylight Time)","Mon Sep 21 2020 04:57:12 GMT-0400 (Eastern Daylight Time)","Mozilla/5.0 (Macintosh; Intel Mac OS X 10_13_2) AppleWebKit/537.36 (KHTML, like Gecko) Chrome/85.0.4183.102 Safari/537.36",85,"[0.9, 0.5, 0.1]","[0.8, 0.4, 0.2]","[u'black', u'red', u'blue']","[u'left', u'middle', u'right']","[0.8, 0.4, 0.2]","[u'low', u'high', u'medium']","red",50,"middle","high","False","False",114,3400,NA
"A29OIZAIHTFKUV","Mon Sep 21 2020 04:48:22 GMT-0400 (Eastern Daylight Time)","Mon Sep 21 2020 04:57:12 GMT-0400 (Eastern Daylight Time)","Mozilla/5.0 (Macintosh; Intel Mac OS X 10_13_2) AppleWebKit/537.36 (KHTML, like Gecko) Chrome/85.0.4183.102 Safari/537.36",86,"[0.9, 0.5, 0.1]","[0.8, 0.4, 0.2]","[u'black', u'red', u'blue']","[u'left', u'middle', u'right']","[0.8, 0.4, 0.2]","[u'low', u'high', u'medium']","black",49,"left","low","True","False",330,3500,NA
"A29OIZAIHTFKUV","Mon Sep 21 2020 04:48:22 GMT-0400 (Eastern Daylight Time)","Mon Sep 21 2020 04:57:12 GMT-0400 (Eastern Daylight Time)","Mozilla/5.0 (Macintosh; Intel Mac OS X 10_13_2) AppleWebKit/537.36 (KHTML, like Gecko) Chrome/85.0.4183.102 Safari/537.36",87,"[0.9, 0.5, 0.1]","[0.8, 0.4, 0.2]","[u'black', u'red', u'blue']","[u'left', u'middle', u'right']","[0.8, 0.4, 0.2]","[u'low', u'high', u'medium']","black",49,"left","low","False","False",176,3450,NA
"A29OIZAIHTFKUV","Mon Sep 21 2020 04:48:22 GMT-0400 (Eastern Daylight Time)","Mon Sep 21 2020 04:57:12 GMT-0400 (Eastern Daylight Time)","Mozilla/5.0 (Macintosh; Intel Mac OS X 10_13_2) AppleWebKit/537.36 (KHTML, like Gecko) Chrome/85.0.4183.102 Safari/537.36",88,"[0.9, 0.5, 0.1]","[0.8, 0.4, 0.2]","[u'black', u'red', u'blue']","[u'left', u'middle', u'right']","[0.8, 0.4, 0.2]","[u'low', u'high', u'medium']","black",49,"left","low","False","False",233,3400,NA
"A29OIZAIHTFKUV","Mon Sep 21 2020 04:48:22 GMT-0400 (Eastern Daylight Time)","Mon Sep 21 2020 04:57:12 GMT-0400 (Eastern Daylight Time)","Mozilla/5.0 (Macintosh; Intel Mac OS X 10_13_2) AppleWebKit/537.36 (KHTML, like Gecko) Chrome/85.0.4183.102 Safari/537.36",89,"[0.9, 0.5, 0.1]","[0.8, 0.4, 0.2]","[u'black', u'red', u'blue']","[u'left', u'middle', u'right']","[0.8, 0.4, 0.2]","[u'low', u'high', u'medium']","blue",51,"right","medium","False","False",94,3350,NA
"A29OIZAIHTFKUV","Mon Sep 21 2020 04:48:22 GMT-0400 (Eastern Daylight Time)","Mon Sep 21 2020 04:57:12 GMT-0400 (Eastern Daylight Time)","Mozilla/5.0 (Macintosh; Intel Mac OS X 10_13_2) AppleWebKit/537.36 (KHTML, like Gecko) Chrome/85.0.4183.102 Safari/537.36",90,"[0.9, 0.5, 0.1]","[0.8, 0.4, 0.2]","[u'black', u'red', u'blue']","[u'left', u'middle', u'right']","[0.8, 0.4, 0.2]","[u'low', u'high', u'medium']","red",50,"middle","high","True","False",134,3450,NA
"A29OIZAIHTFKUV","Mon Sep 21 2020 04:48:22 GMT-0400 (Eastern Daylight Time)","Mon Sep 21 2020 04:57:12 GMT-0400 (Eastern Daylight Time)","Mozilla/5.0 (Macintosh; Intel Mac OS X 10_13_2) AppleWebKit/537.36 (KHTML, like Gecko) Chrome/85.0.4183.102 Safari/537.36",91,"[0.9, 0.5, 0.1]","[0.8, 0.4, 0.2]","[u'black', u'red', u'blue']","[u'left', u'middle', u'right']","[0.8, 0.4, 0.2]","[u'low', u'high', u'medium']","red",50,"middle","high","True","False",51,3550,NA
"A29OIZAIHTFKUV","Mon Sep 21 2020 04:48:22 GMT-0400 (Eastern Daylight Time)","Mon Sep 21 2020 04:57:12 GMT-0400 (Eastern Daylight Time)","Mozilla/5.0 (Macintosh; Intel Mac OS X 10_13_2) AppleWebKit/537.36 (KHTML, like Gecko) Chrome/85.0.4183.102 Safari/537.36",92,"[0.9, 0.5, 0.1]","[0.8, 0.4, 0.2]","[u'black', u'red', u'blue']","[u'left', u'middle', u'right']","[0.8, 0.4, 0.2]","[u'low', u'high', u'medium']","red",50,"middle","high","False","False",145,3500,NA
"A29OIZAIHTFKUV","Mon Sep 21 2020 04:48:22 GMT-0400 (Eastern Daylight Time)","Mon Sep 21 2020 04:57:12 GMT-0400 (Eastern Daylight Time)","Mozilla/5.0 (Macintosh; Intel Mac OS X 10_13_2) AppleWebKit/537.36 (KHTML, like Gecko) Chrome/85.0.4183.102 Safari/537.36",93,"[0.9, 0.5, 0.1]","[0.8, 0.4, 0.2]","[u'black', u'red', u'blue']","[u'left', u'middle', u'right']","[0.8, 0.4, 0.2]","[u'low', u'high', u'medium']","blue",51,"right","medium","False","False",171,3450,NA
"A29OIZAIHTFKUV","Mon Sep 21 2020 04:48:22 GMT-0400 (Eastern Daylight Time)","Mon Sep 21 2020 04:57:12 GMT-0400 (Eastern Daylight Time)","Mozilla/5.0 (Macintosh; Intel Mac OS X 10_13_2) AppleWebKit/537.36 (KHTML, like Gecko) Chrome/85.0.4183.102 Safari/537.36",94,"[0.9, 0.5, 0.1]","[0.8, 0.4, 0.2]","[u'black', u'red', u'blue']","[u'left', u'middle', u'right']","[0.8, 0.4, 0.2]","[u'low', u'high', u'medium']","black",49,"left","low","True","False",63,3550,NA
"A29OIZAIHTFKUV","Mon Sep 21 2020 04:48:22 GMT-0400 (Eastern Daylight Time)","Mon Sep 21 2020 04:57:12 GMT-0400 (Eastern Daylight Time)","Mozilla/5.0 (Macintosh; Intel Mac OS X 10_13_2) AppleWebKit/537.36 (KHTML, like Gecko) Chrome/85.0.4183.102 Safari/537.36",95,"[0.9, 0.5, 0.1]","[0.8, 0.4, 0.2]","[u'black', u'red', u'blue']","[u'left', u'middle', u'right']","[0.8, 0.4, 0.2]","[u'low', u'high', u'medium']","black",49,"left","low","True","False",18,3650,NA
"A29OIZAIHTFKUV","Mon Sep 21 2020 04:48:22 GMT-0400 (Eastern Daylight Time)","Mon Sep 21 2020 04:57:12 GMT-0400 (Eastern Daylight Time)","Mozilla/5.0 (Macintosh; Intel Mac OS X 10_13_2) AppleWebKit/537.36 (KHTML, like Gecko) Chrome/85.0.4183.102 Safari/537.36",96,"[0.9, 0.5, 0.1]","[0.8, 0.4, 0.2]","[u'black', u'red', u'blue']","[u'left', u'middle', u'right']","[0.8, 0.4, 0.2]","[u'low', u'high', u'medium']","black",49,"left","low","False","False",7,3600,NA
"A29OIZAIHTFKUV","Mon Sep 21 2020 04:48:22 GMT-0400 (Eastern Daylight Time)","Mon Sep 21 2020 04:57:12 GMT-0400 (Eastern Daylight Time)","Mozilla/5.0 (Macintosh; Intel Mac OS X 10_13_2) AppleWebKit/537.36 (KHTML, like Gecko) Chrome/85.0.4183.102 Safari/537.36",97,"[0.9, 0.5, 0.1]","[0.8, 0.4, 0.2]","[u'black', u'red', u'blue']","[u'left', u'middle', u'right']","[0.8, 0.4, 0.2]","[u'low', u'high', u'medium']","red",50,"middle","high","True","False",484,3700,NA
"A29OIZAIHTFKUV","Mon Sep 21 2020 04:48:22 GMT-0400 (Eastern Daylight Time)","Mon Sep 21 2020 04:57:12 GMT-0400 (Eastern Daylight Time)","Mozilla/5.0 (Macintosh; Intel Mac OS X 10_13_2) AppleWebKit/537.36 (KHTML, like Gecko) Chrome/85.0.4183.102 Safari/537.36",98,"[0.9, 0.5, 0.1]","[0.8, 0.4, 0.2]","[u'black', u'red', u'blue']","[u'left', u'middle', u'right']","[0.8, 0.4, 0.2]","[u'low', u'high', u'medium']","red",50,"middle","high","False","False",441,3650,NA
"A29OIZAIHTFKUV","Mon Sep 21 2020 04:48:22 GMT-0400 (Eastern Daylight Time)","Mon Sep 21 2020 04:57:12 GMT-0400 (Eastern Daylight Time)","Mozilla/5.0 (Macintosh; Intel Mac OS X 10_13_2) AppleWebKit/537.36 (KHTML, like Gecko) Chrome/85.0.4183.102 Safari/537.36",99,"[0.9, 0.5, 0.1]","[0.8, 0.4, 0.2]","[u'black', u'red', u'blue']","[u'left', u'middle', u'right']","[0.8, 0.4, 0.2]","[u'low', u'high', u'medium']","blue",51,"right","medium","False","False",234,3600,NA
"A29OIZAIHTFKUV","Mon Sep 21 2020 04:48:22 GMT-0400 (Eastern Daylight Time)","Mon Sep 21 2020 04:57:12 GMT-0400 (Eastern Daylight Time)","Mozilla/5.0 (Macintosh; Intel Mac OS X 10_13_2) AppleWebKit/537.36 (KHTML, like Gecko) Chrome/85.0.4183.102 Safari/537.36",100,"[0.9, 0.5, 0.1]","[0.8, 0.4, 0.2]","[u'black', u'red', u'blue']","[u'left', u'middle', u'right']","[0.8, 0.4, 0.2]","[u'low', u'high', u'medium']","red",50,"middle","high","True","False",267,3700,NA
"A29OIZAIHTFKUV","Mon Sep 21 2020 04:48:22 GMT-0400 (Eastern Daylight Time)","Mon Sep 21 2020 04:57:12 GMT-0400 (Eastern Daylight Time)","Mozilla/5.0 (Macintosh; Intel Mac OS X 10_13_2) AppleWebKit/537.36 (KHTML, like Gecko) Chrome/85.0.4183.102 Safari/537.36",101,"[0.9, 0.5, 0.1]","[0.8, 0.4, 0.2]","[u'black', u'red', u'blue']","[u'left', u'middle', u'right']","[0.8, 0.4, 0.2]","[u'low', u'high', u'medium']","red",50,"middle","high","True","False",183,3800,NA
"A29OIZAIHTFKUV","Mon Sep 21 2020 04:48:22 GMT-0400 (Eastern Daylight Time)","Mon Sep 21 2020 04:57:12 GMT-0400 (Eastern Daylight Time)","Mozilla/5.0 (Macintosh; Intel Mac OS X 10_13_2) AppleWebKit/537.36 (KHTML, like Gecko) Chrome/85.0.4183.102 Safari/537.36",102,"[0.9, 0.5, 0.1]","[0.8, 0.4, 0.2]","[u'black', u'red', u'blue']","[u'left', u'middle', u'right']","[0.8, 0.4, 0.2]","[u'low', u'high', u'medium']","red",50,"middle","high","True","False",78,3900,NA
"A29OIZAIHTFKUV","Mon Sep 21 2020 04:48:22 GMT-0400 (Eastern Daylight Time)","Mon Sep 21 2020 04:57:12 GMT-0400 (Eastern Daylight Time)","Mozilla/5.0 (Macintosh; Intel Mac OS X 10_13_2) AppleWebKit/537.36 (KHTML, like Gecko) Chrome/85.0.4183.102 Safari/537.36",103,"[0.9, 0.5, 0.1]","[0.8, 0.4, 0.2]","[u'black', u'red', u'blue']","[u'left', u'middle', u'right']","[0.8, 0.4, 0.2]","[u'low', u'high', u'medium']","red",50,"middle","high","True","False",411,4000,NA
"A29OIZAIHTFKUV","Mon Sep 21 2020 04:48:22 GMT-0400 (Eastern Daylight Time)","Mon Sep 21 2020 04:57:12 GMT-0400 (Eastern Daylight Time)","Mozilla/5.0 (Macintosh; Intel Mac OS X 10_13_2) AppleWebKit/537.36 (KHTML, like Gecko) Chrome/85.0.4183.102 Safari/537.36",104,"[0.9, 0.5, 0.1]","[0.8, 0.4, 0.2]","[u'black', u'red', u'blue']","[u'left', u'middle', u'right']","[0.8, 0.4, 0.2]","[u'low', u'high', u'medium']","red",50,"middle","high","True","False",106,4100,NA
"A29OIZAIHTFKUV","Mon Sep 21 2020 04:48:22 GMT-0400 (Eastern Daylight Time)","Mon Sep 21 2020 04:57:12 GMT-0400 (Eastern Daylight Time)","Mozilla/5.0 (Macintosh; Intel Mac OS X 10_13_2) AppleWebKit/537.36 (KHTML, like Gecko) Chrome/85.0.4183.102 Safari/537.36",105,"[0.9, 0.5, 0.1]","[0.8, 0.4, 0.2]","[u'black', u'red', u'blue']","[u'left', u'middle', u'right']","[0.8, 0.4, 0.2]","[u'low', u'high', u'medium']","red",50,"middle","high","True","False",50,4200,NA
"A29OIZAIHTFKUV","Mon Sep 21 2020 04:48:22 GMT-0400 (Eastern Daylight Time)","Mon Sep 21 2020 04:57:12 GMT-0400 (Eastern Daylight Time)","Mozilla/5.0 (Macintosh; Intel Mac OS X 10_13_2) AppleWebKit/537.36 (KHTML, like Gecko) Chrome/85.0.4183.102 Safari/537.36",106,"[0.9, 0.5, 0.1]","[0.8, 0.4, 0.2]","[u'black', u'red', u'blue']","[u'left', u'middle', u'right']","[0.8, 0.4, 0.2]","[u'low', u'high', u'medium']","red",50,"middle","high","True","True",353,4300,NA
"A29OIZAIHTFKUV","Mon Sep 21 2020 04:48:22 GMT-0400 (Eastern Daylight Time)","Mon Sep 21 2020 04:57:12 GMT-0400 (Eastern Daylight Time)","Mozilla/5.0 (Macintosh; Intel Mac OS X 10_13_2) AppleWebKit/537.36 (KHTML, like Gecko) Chrome/85.0.4183.102 Safari/537.36",107,"[0.9, 0.5, 0.1]","[0.8, 0.4, 0.2]","[u'black', u'red', u'blue']","[u'left', u'middle', u'right']","[0.8, 0.4, 0.2]","[u'high', u'low', u'medium']","red",50,"middle","low","False","False",433,4250,NA
"A29OIZAIHTFKUV","Mon Sep 21 2020 04:48:22 GMT-0400 (Eastern Daylight Time)","Mon Sep 21 2020 04:57:12 GMT-0400 (Eastern Daylight Time)","Mozilla/5.0 (Macintosh; Intel Mac OS X 10_13_2) AppleWebKit/537.36 (KHTML, like Gecko) Chrome/85.0.4183.102 Safari/537.36",108,"[0.9, 0.5, 0.1]","[0.8, 0.4, 0.2]","[u'black', u'red', u'blue']","[u'left', u'middle', u'right']","[0.8, 0.4, 0.2]","[u'high', u'low', u'medium']","red",50,"middle","low","True","False",313,4350,NA
"A29OIZAIHTFKUV","Mon Sep 21 2020 04:48:22 GMT-0400 (Eastern Daylight Time)","Mon Sep 21 2020 04:57:12 GMT-0400 (Eastern Daylight Time)","Mozilla/5.0 (Macintosh; Intel Mac OS X 10_13_2) AppleWebKit/537.36 (KHTML, like Gecko) Chrome/85.0.4183.102 Safari/537.36",109,"[0.9, 0.5, 0.1]","[0.8, 0.4, 0.2]","[u'black', u'red', u'blue']","[u'left', u'middle', u'right']","[0.8, 0.4, 0.2]","[u'high', u'low', u'medium']","red",50,"middle","low","False","False",316,4300,NA
"A29OIZAIHTFKUV","Mon Sep 21 2020 04:48:22 GMT-0400 (Eastern Daylight Time)","Mon Sep 21 2020 04:57:12 GMT-0400 (Eastern Daylight Time)","Mozilla/5.0 (Macintosh; Intel Mac OS X 10_13_2) AppleWebKit/537.36 (KHTML, like Gecko) Chrome/85.0.4183.102 Safari/537.36",110,"[0.9, 0.5, 0.1]","[0.8, 0.4, 0.2]","[u'black', u'red', u'blue']","[u'left', u'middle', u'right']","[0.8, 0.4, 0.2]","[u'high', u'low', u'medium']","red",50,"middle","low","True","False",262,4400,NA
"A29OIZAIHTFKUV","Mon Sep 21 2020 04:48:22 GMT-0400 (Eastern Daylight Time)","Mon Sep 21 2020 04:57:12 GMT-0400 (Eastern Daylight Time)","Mozilla/5.0 (Macintosh; Intel Mac OS X 10_13_2) AppleWebKit/537.36 (KHTML, like Gecko) Chrome/85.0.4183.102 Safari/537.36",111,"[0.9, 0.5, 0.1]","[0.8, 0.4, 0.2]","[u'black', u'red', u'blue']","[u'left', u'middle', u'right']","[0.8, 0.4, 0.2]","[u'high', u'low', u'medium']","red",50,"middle","low","False","False",304,4350,NA
"A29OIZAIHTFKUV","Mon Sep 21 2020 04:48:22 GMT-0400 (Eastern Daylight Time)","Mon Sep 21 2020 04:57:12 GMT-0400 (Eastern Daylight Time)","Mozilla/5.0 (Macintosh; Intel Mac OS X 10_13_2) AppleWebKit/537.36 (KHTML, like Gecko) Chrome/85.0.4183.102 Safari/537.36",112,"[0.9, 0.5, 0.1]","[0.8, 0.4, 0.2]","[u'black', u'red', u'blue']","[u'left', u'middle', u'right']","[0.8, 0.4, 0.2]","[u'high', u'low', u'medium']","red",50,"middle","low","False","False",410,4300,NA
"A29OIZAIHTFKUV","Mon Sep 21 2020 04:48:22 GMT-0400 (Eastern Daylight Time)","Mon Sep 21 2020 04:57:12 GMT-0400 (Eastern Daylight Time)","Mozilla/5.0 (Macintosh; Intel Mac OS X 10_13_2) AppleWebKit/537.36 (KHTML, like Gecko) Chrome/85.0.4183.102 Safari/537.36",113,"[0.9, 0.5, 0.1]","[0.8, 0.4, 0.2]","[u'black', u'red', u'blue']","[u'left', u'middle', u'right']","[0.8, 0.4, 0.2]","[u'high', u'low', u'medium']","black",49,"left","high","True","False",71,4400,NA
"A29OIZAIHTFKUV","Mon Sep 21 2020 04:48:22 GMT-0400 (Eastern Daylight Time)","Mon Sep 21 2020 04:57:12 GMT-0400 (Eastern Daylight Time)","Mozilla/5.0 (Macintosh; Intel Mac OS X 10_13_2) AppleWebKit/537.36 (KHTML, like Gecko) Chrome/85.0.4183.102 Safari/537.36",114,"[0.9, 0.5, 0.1]","[0.8, 0.4, 0.2]","[u'black', u'red', u'blue']","[u'left', u'middle', u'right']","[0.8, 0.4, 0.2]","[u'high', u'low', u'medium']","black",49,"left","high","True","False",249,4500,NA
"A29OIZAIHTFKUV","Mon Sep 21 2020 04:48:22 GMT-0400 (Eastern Daylight Time)","Mon Sep 21 2020 04:57:12 GMT-0400 (Eastern Daylight Time)","Mozilla/5.0 (Macintosh; Intel Mac OS X 10_13_2) AppleWebKit/537.36 (KHTML, like Gecko) Chrome/85.0.4183.102 Safari/537.36",115,"[0.9, 0.5, 0.1]","[0.8, 0.4, 0.2]","[u'black', u'red', u'blue']","[u'left', u'middle', u'right']","[0.8, 0.4, 0.2]","[u'high', u'low', u'medium']","black",49,"left","high","True","False",365,4600,NA
"A29OIZAIHTFKUV","Mon Sep 21 2020 04:48:22 GMT-0400 (Eastern Daylight Time)","Mon Sep 21 2020 04:57:12 GMT-0400 (Eastern Daylight Time)","Mozilla/5.0 (Macintosh; Intel Mac OS X 10_13_2) AppleWebKit/537.36 (KHTML, like Gecko) Chrome/85.0.4183.102 Safari/537.36",116,"[0.9, 0.5, 0.1]","[0.8, 0.4, 0.2]","[u'black', u'red', u'blue']","[u'left', u'middle', u'right']","[0.8, 0.4, 0.2]","[u'high', u'low', u'medium']","black",49,"left","high","False","False",238,4550,NA
"A29OIZAIHTFKUV","Mon Sep 21 2020 04:48:22 GMT-0400 (Eastern Daylight Time)","Mon Sep 21 2020 04:57:12 GMT-0400 (Eastern Daylight Time)","Mozilla/5.0 (Macintosh; Intel Mac OS X 10_13_2) AppleWebKit/537.36 (KHTML, like Gecko) Chrome/85.0.4183.102 Safari/537.36",117,"[0.9, 0.5, 0.1]","[0.8, 0.4, 0.2]","[u'black', u'red', u'blue']","[u'left', u'middle', u'right']","[0.8, 0.4, 0.2]","[u'high', u'low', u'medium']","black",49,"left","high","True","False",211,4650,NA
"A29OIZAIHTFKUV","Mon Sep 21 2020 04:48:22 GMT-0400 (Eastern Daylight Time)","Mon Sep 21 2020 04:57:12 GMT-0400 (Eastern Daylight Time)","Mozilla/5.0 (Macintosh; Intel Mac OS X 10_13_2) AppleWebKit/537.36 (KHTML, like Gecko) Chrome/85.0.4183.102 Safari/537.36",118,"[0.9, 0.5, 0.1]","[0.8, 0.4, 0.2]","[u'black', u'red', u'blue']","[u'left', u'middle', u'right']","[0.8, 0.4, 0.2]","[u'high', u'low', u'medium']","black",49,"left","high","True","False",239,4750,NA
"A29OIZAIHTFKUV","Mon Sep 21 2020 04:48:22 GMT-0400 (Eastern Daylight Time)","Mon Sep 21 2020 04:57:12 GMT-0400 (Eastern Daylight Time)","Mozilla/5.0 (Macintosh; Intel Mac OS X 10_13_2) AppleWebKit/537.36 (KHTML, like Gecko) Chrome/85.0.4183.102 Safari/537.36",119,"[0.9, 0.5, 0.1]","[0.8, 0.4, 0.2]","[u'black', u'red', u'blue']","[u'left', u'middle', u'right']","[0.8, 0.4, 0.2]","[u'high', u'low', u'medium']","black",49,"left","high","True","False",478,4850,NA
"A29OIZAIHTFKUV","Mon Sep 21 2020 04:48:22 GMT-0400 (Eastern Daylight Time)","Mon Sep 21 2020 04:57:12 GMT-0400 (Eastern Daylight Time)","Mozilla/5.0 (Macintosh; Intel Mac OS X 10_13_2) AppleWebKit/537.36 (KHTML, like Gecko) Chrome/85.0.4183.102 Safari/537.36",120,"[0.9, 0.5, 0.1]","[0.8, 0.4, 0.2]","[u'black', u'red', u'blue']","[u'left', u'middle', u'right']","[0.8, 0.4, 0.2]","[u'high', u'low', u'medium']","black",49,"left","high","False","False",273,4800,NA
"A29OIZAIHTFKUV","Mon Sep 21 2020 04:48:22 GMT-0400 (Eastern Daylight Time)","Mon Sep 21 2020 04:57:12 GMT-0400 (Eastern Daylight Time)","Mozilla/5.0 (Macintosh; Intel Mac OS X 10_13_2) AppleWebKit/537.36 (KHTML, like Gecko) Chrome/85.0.4183.102 Safari/537.36",121,"[0.9, 0.5, 0.1]","[0.8, 0.4, 0.2]","[u'black', u'red', u'blue']","[u'left', u'middle', u'right']","[0.8, 0.4, 0.2]","[u'low', u'high', u'medium']","black",49,"left","low","True","False",752,4900,NA
"A29OIZAIHTFKUV","Mon Sep 21 2020 04:48:22 GMT-0400 (Eastern Daylight Time)","Mon Sep 21 2020 04:57:12 GMT-0400 (Eastern Daylight Time)","Mozilla/5.0 (Macintosh; Intel Mac OS X 10_13_2) AppleWebKit/537.36 (KHTML, like Gecko) Chrome/85.0.4183.102 Safari/537.36",122,"[0.9, 0.5, 0.1]","[0.8, 0.4, 0.2]","[u'black', u'red', u'blue']","[u'left', u'middle', u'right']","[0.8, 0.4, 0.2]","[u'low', u'high', u'medium']","black",49,"left","low","False","False",138,4850,NA
"A29OIZAIHTFKUV","Mon Sep 21 2020 04:48:22 GMT-0400 (Eastern Daylight Time)","Mon Sep 21 2020 04:57:12 GMT-0400 (Eastern Daylight Time)","Mozilla/5.0 (Macintosh; Intel Mac OS X 10_13_2) AppleWebKit/537.36 (KHTML, like Gecko) Chrome/85.0.4183.102 Safari/537.36",123,"[0.9, 0.5, 0.1]","[0.8, 0.4, 0.2]","[u'black', u'red', u'blue']","[u'left', u'middle', u'right']","[0.8, 0.4, 0.2]","[u'low', u'high', u'medium']","black",49,"left","low","False","False",73,4800,NA
"A29OIZAIHTFKUV","Mon Sep 21 2020 04:48:22 GMT-0400 (Eastern Daylight Time)","Mon Sep 21 2020 04:57:12 GMT-0400 (Eastern Daylight Time)","Mozilla/5.0 (Macintosh; Intel Mac OS X 10_13_2) AppleWebKit/537.36 (KHTML, like Gecko) Chrome/85.0.4183.102 Safari/537.36",124,"[0.9, 0.5, 0.1]","[0.8, 0.4, 0.2]","[u'black', u'red', u'blue']","[u'left', u'middle', u'right']","[0.8, 0.4, 0.2]","[u'low', u'high', u'medium']","red",50,"middle","high","False","False",499,4750,NA
"A29OIZAIHTFKUV","Mon Sep 21 2020 04:48:22 GMT-0400 (Eastern Daylight Time)","Mon Sep 21 2020 04:57:12 GMT-0400 (Eastern Daylight Time)","Mozilla/5.0 (Macintosh; Intel Mac OS X 10_13_2) AppleWebKit/537.36 (KHTML, like Gecko) Chrome/85.0.4183.102 Safari/537.36",125,"[0.9, 0.5, 0.1]","[0.8, 0.4, 0.2]","[u'black', u'red', u'blue']","[u'left', u'middle', u'right']","[0.8, 0.4, 0.2]","[u'low', u'high', u'medium']","blue",51,"right","medium","False","False",254,4700,NA
"A29OIZAIHTFKUV","Mon Sep 21 2020 04:48:22 GMT-0400 (Eastern Daylight Time)","Mon Sep 21 2020 04:57:12 GMT-0400 (Eastern Daylight Time)","Mozilla/5.0 (Macintosh; Intel Mac OS X 10_13_2) AppleWebKit/537.36 (KHTML, like Gecko) Chrome/85.0.4183.102 Safari/537.36",126,"[0.9, 0.5, 0.1]","[0.8, 0.4, 0.2]","[u'black', u'red', u'blue']","[u'left', u'middle', u'right']","[0.8, 0.4, 0.2]","[u'low', u'high', u'medium']","blue",51,"right","medium","True","False",16,4800,NA
"A29OIZAIHTFKUV","Mon Sep 21 2020 04:48:22 GMT-0400 (Eastern Daylight Time)","Mon Sep 21 2020 04:57:12 GMT-0400 (Eastern Daylight Time)","Mozilla/5.0 (Macintosh; Intel Mac OS X 10_13_2) AppleWebKit/537.36 (KHTML, like Gecko) Chrome/85.0.4183.102 Safari/537.36",127,"[0.9, 0.5, 0.1]","[0.8, 0.4, 0.2]","[u'black', u'red', u'blue']","[u'left', u'middle', u'right']","[0.8, 0.4, 0.2]","[u'low', u'high', u'medium']","blue",51,"right","medium","False","False",215,4750,NA
"A29OIZAIHTFKUV","Mon Sep 21 2020 04:48:22 GMT-0400 (Eastern Daylight Time)","Mon Sep 21 2020 04:57:12 GMT-0400 (Eastern Daylight Time)","Mozilla/5.0 (Macintosh; Intel Mac OS X 10_13_2) AppleWebKit/537.36 (KHTML, like Gecko) Chrome/85.0.4183.102 Safari/537.36",128,"[0.9, 0.5, 0.1]","[0.8, 0.4, 0.2]","[u'black', u'red', u'blue']","[u'left', u'middle', u'right']","[0.8, 0.4, 0.2]","[u'low', u'high', u'medium']","red",50,"middle","high","True","False",314,4850,NA
"A29OIZAIHTFKUV","Mon Sep 21 2020 04:48:22 GMT-0400 (Eastern Daylight Time)","Mon Sep 21 2020 04:57:12 GMT-0400 (Eastern Daylight Time)","Mozilla/5.0 (Macintosh; Intel Mac OS X 10_13_2) AppleWebKit/537.36 (KHTML, like Gecko) Chrome/85.0.4183.102 Safari/537.36",129,"[0.9, 0.5, 0.1]","[0.8, 0.4, 0.2]","[u'black', u'red', u'blue']","[u'left', u'middle', u'right']","[0.8, 0.4, 0.2]","[u'low', u'high', u'medium']","red",50,"middle","high","True","False",145,4950,NA
"A29OIZAIHTFKUV","Mon Sep 21 2020 04:48:22 GMT-0400 (Eastern Daylight Time)","Mon Sep 21 2020 04:57:12 GMT-0400 (Eastern Daylight Time)","Mozilla/5.0 (Macintosh; Intel Mac OS X 10_13_2) AppleWebKit/537.36 (KHTML, like Gecko) Chrome/85.0.4183.102 Safari/537.36",130,"[0.9, 0.5, 0.1]","[0.8, 0.4, 0.2]","[u'black', u'red', u'blue']","[u'left', u'middle', u'right']","[0.8, 0.4, 0.2]","[u'low', u'high', u'medium']","red",50,"middle","high","False","False",146,4900,NA
"A29OIZAIHTFKUV","Mon Sep 21 2020 04:48:22 GMT-0400 (Eastern Daylight Time)","Mon Sep 21 2020 04:57:12 GMT-0400 (Eastern Daylight Time)","Mozilla/5.0 (Macintosh; Intel Mac OS X 10_13_2) AppleWebKit/537.36 (KHTML, like Gecko) Chrome/85.0.4183.102 Safari/537.36",131,"[0.9, 0.5, 0.1]","[0.8, 0.4, 0.2]","[u'black', u'red', u'blue']","[u'left', u'middle', u'right']","[0.8, 0.4, 0.2]","[u'low', u'high', u'medium']","red",50,"middle","high","True","False",298,5000,NA
"A29OIZAIHTFKUV","Mon Sep 21 2020 04:48:22 GMT-0400 (Eastern Daylight Time)","Mon Sep 21 2020 04:57:12 GMT-0400 (Eastern Daylight Time)","Mozilla/5.0 (Macintosh; Intel Mac OS X 10_13_2) AppleWebKit/537.36 (KHTML, like Gecko) Chrome/85.0.4183.102 Safari/537.36",132,"[0.9, 0.5, 0.1]","[0.8, 0.4, 0.2]","[u'black', u'red', u'blue']","[u'left', u'middle', u'right']","[0.8, 0.4, 0.2]","[u'low', u'high', u'medium']","red",50,"middle","high","True","False",369,5100,NA
"A29OIZAIHTFKUV","Mon Sep 21 2020 04:48:22 GMT-0400 (Eastern Daylight Time)","Mon Sep 21 2020 04:57:12 GMT-0400 (Eastern Daylight Time)","Mozilla/5.0 (Macintosh; Intel Mac OS X 10_13_2) AppleWebKit/537.36 (KHTML, like Gecko) Chrome/85.0.4183.102 Safari/537.36",133,"[0.9, 0.5, 0.1]","[0.8, 0.4, 0.2]","[u'black', u'red', u'blue']","[u'left', u'middle', u'right']","[0.8, 0.4, 0.2]","[u'low', u'high', u'medium']","red",50,"middle","high","True","False",409,5200,NA
"A29OIZAIHTFKUV","Mon Sep 21 2020 04:48:22 GMT-0400 (Eastern Daylight Time)","Mon Sep 21 2020 04:57:12 GMT-0400 (Eastern Daylight Time)","Mozilla/5.0 (Macintosh; Intel Mac OS X 10_13_2) AppleWebKit/537.36 (KHTML, like Gecko) Chrome/85.0.4183.102 Safari/537.36",134,"[0.9, 0.5, 0.1]","[0.8, 0.4, 0.2]","[u'black', u'red', u'blue']","[u'left', u'middle', u'right']","[0.8, 0.4, 0.2]","[u'low', u'high', u'medium']","red",50,"middle","high","False","False",513,5150,NA
"A29OIZAIHTFKUV","Mon Sep 21 2020 04:48:22 GMT-0400 (Eastern Daylight Time)","Mon Sep 21 2020 04:57:12 GMT-0400 (Eastern Daylight Time)","Mozilla/5.0 (Macintosh; Intel Mac OS X 10_13_2) AppleWebKit/537.36 (KHTML, like Gecko) Chrome/85.0.4183.102 Safari/537.36",135,"[0.9, 0.5, 0.1]","[0.8, 0.4, 0.2]","[u'black', u'red', u'blue']","[u'left', u'middle', u'right']","[0.8, 0.4, 0.2]","[u'low', u'high', u'medium']","black",49,"left","low","False","False",170,5100,NA
"A29OIZAIHTFKUV","Mon Sep 21 2020 04:48:22 GMT-0400 (Eastern Daylight Time)","Mon Sep 21 2020 04:57:12 GMT-0400 (Eastern Daylight Time)","Mozilla/5.0 (Macintosh; Intel Mac OS X 10_13_2) AppleWebKit/537.36 (KHTML, like Gecko) Chrome/85.0.4183.102 Safari/537.36",136,"[0.9, 0.5, 0.1]","[0.8, 0.4, 0.2]","[u'black', u'red', u'blue']","[u'left', u'middle', u'right']","[0.8, 0.4, 0.2]","[u'low', u'high', u'medium']","black",49,"left","low","False","False",134,5050,NA
"A29OIZAIHTFKUV","Mon Sep 21 2020 04:48:22 GMT-0400 (Eastern Daylight Time)","Mon Sep 21 2020 04:57:12 GMT-0400 (Eastern Daylight Time)","Mozilla/5.0 (Macintosh; Intel Mac OS X 10_13_2) AppleWebKit/537.36 (KHTML, like Gecko) Chrome/85.0.4183.102 Safari/537.36",137,"[0.9, 0.5, 0.1]","[0.8, 0.4, 0.2]","[u'black', u'red', u'blue']","[u'left', u'middle', u'right']","[0.8, 0.4, 0.2]","[u'low', u'high', u'medium']","red",50,"middle","high","True","False",410,5150,NA
"A29OIZAIHTFKUV","Mon Sep 21 2020 04:48:22 GMT-0400 (Eastern Daylight Time)","Mon Sep 21 2020 04:57:12 GMT-0400 (Eastern Daylight Time)","Mozilla/5.0 (Macintosh; Intel Mac OS X 10_13_2) AppleWebKit/537.36 (KHTML, like Gecko) Chrome/85.0.4183.102 Safari/537.36",138,"[0.9, 0.5, 0.1]","[0.8, 0.4, 0.2]","[u'black', u'red', u'blue']","[u'left', u'middle', u'right']","[0.8, 0.4, 0.2]","[u'low', u'high', u'medium']","red",50,"middle","high","True","False",262,5250,NA
"A29OIZAIHTFKUV","Mon Sep 21 2020 04:48:22 GMT-0400 (Eastern Daylight Time)","Mon Sep 21 2020 04:57:12 GMT-0400 (Eastern Daylight Time)","Mozilla/5.0 (Macintosh; Intel Mac OS X 10_13_2) AppleWebKit/537.36 (KHTML, like Gecko) Chrome/85.0.4183.102 Safari/537.36",139,"[0.9, 0.5, 0.1]","[0.8, 0.4, 0.2]","[u'black', u'red', u'blue']","[u'left', u'middle', u'right']","[0.8, 0.4, 0.2]","[u'low', u'high', u'medium']","red",50,"middle","high","True","False",238,5350,NA
"A29OIZAIHTFKUV","Mon Sep 21 2020 04:48:22 GMT-0400 (Eastern Daylight Time)","Mon Sep 21 2020 04:57:12 GMT-0400 (Eastern Daylight Time)","Mozilla/5.0 (Macintosh; Intel Mac OS X 10_13_2) AppleWebKit/537.36 (KHTML, like Gecko) Chrome/85.0.4183.102 Safari/537.36",140,"[0.9, 0.5, 0.1]","[0.8, 0.4, 0.2]","[u'black', u'red', u'blue']","[u'left', u'middle', u'right']","[0.8, 0.4, 0.2]","[u'low', u'high', u'medium']","red",50,"middle","high","False","False",279,5300,NA
"A29OIZAIHTFKUV","Mon Sep 21 2020 04:48:22 GMT-0400 (Eastern Daylight Time)","Mon Sep 21 2020 04:57:12 GMT-0400 (Eastern Daylight Time)","Mozilla/5.0 (Macintosh; Intel Mac OS X 10_13_2) AppleWebKit/537.36 (KHTML, like Gecko) Chrome/85.0.4183.102 Safari/537.36",141,"[0.9, 0.5, 0.1]","[0.8, 0.4, 0.2]","[u'black', u'red', u'blue']","[u'left', u'middle', u'right']","[0.8, 0.4, 0.2]","[u'low', u'high', u'medium']","red",50,"middle","high","True","False",225,5400,NA
"A29OIZAIHTFKUV","Mon Sep 21 2020 04:48:22 GMT-0400 (Eastern Daylight Time)","Mon Sep 21 2020 04:57:12 GMT-0400 (Eastern Daylight Time)","Mozilla/5.0 (Macintosh; Intel Mac OS X 10_13_2) AppleWebKit/537.36 (KHTML, like Gecko) Chrome/85.0.4183.102 Safari/537.36",142,"[0.9, 0.5, 0.1]","[0.8, 0.4, 0.2]","[u'black', u'red', u'blue']","[u'left', u'middle', u'right']","[0.8, 0.4, 0.2]","[u'low', u'high', u'medium']","red",50,"middle","high","True","False",227,5500,NA
"A29OIZAIHTFKUV","Mon Sep 21 2020 04:48:22 GMT-0400 (Eastern Daylight Time)","Mon Sep 21 2020 04:57:12 GMT-0400 (Eastern Daylight Time)","Mozilla/5.0 (Macintosh; Intel Mac OS X 10_13_2) AppleWebKit/537.36 (KHTML, like Gecko) Chrome/85.0.4183.102 Safari/537.36",143,"[0.9, 0.5, 0.1]","[0.8, 0.4, 0.2]","[u'black', u'red', u'blue']","[u'left', u'middle', u'right']","[0.8, 0.4, 0.2]","[u'low', u'high', u'medium']","red",50,"middle","high","False","False",154,5450,NA
"A29OIZAIHTFKUV","Mon Sep 21 2020 04:48:22 GMT-0400 (Eastern Daylight Time)","Mon Sep 21 2020 04:57:12 GMT-0400 (Eastern Daylight Time)","Mozilla/5.0 (Macintosh; Intel Mac OS X 10_13_2) AppleWebKit/537.36 (KHTML, like Gecko) Chrome/85.0.4183.102 Safari/537.36",144,"[0.9, 0.5, 0.1]","[0.8, 0.4, 0.2]","[u'black', u'red', u'blue']","[u'left', u'middle', u'right']","[0.8, 0.4, 0.2]","[u'low', u'high', u'medium']","red",50,"middle","high","True","False",138,5550,NA
"A29OIZAIHTFKUV","Mon Sep 21 2020 04:48:22 GMT-0400 (Eastern Daylight Time)","Mon Sep 21 2020 04:57:12 GMT-0400 (Eastern Daylight Time)","Mozilla/5.0 (Macintosh; Intel Mac OS X 10_13_2) AppleWebKit/537.36 (KHTML, like Gecko) Chrome/85.0.4183.102 Safari/537.36",145,"[0.9, 0.5, 0.1]","[0.8, 0.4, 0.2]","[u'black', u'red', u'blue']","[u'left', u'middle', u'right']","[0.8, 0.4, 0.2]","[u'low', u'high', u'medium']","red",50,"middle","high","True","True",273,5650,NA
"A29OIZAIHTFKUV","Mon Sep 21 2020 04:48:22 GMT-0400 (Eastern Daylight Time)","Mon Sep 21 2020 04:57:12 GMT-0400 (Eastern Daylight Time)","Mozilla/5.0 (Macintosh; Intel Mac OS X 10_13_2) AppleWebKit/537.36 (KHTML, like Gecko) Chrome/85.0.4183.102 Safari/537.36",146,"[0.9, 0.5, 0.1]","[0.8, 0.4, 0.2]","[u'black', u'red', u'blue']","[u'left', u'middle', u'right']","[0.8, 0.4, 0.2]","[u'high', u'low', u'medium']","red",50,"middle","low","True","False",433,5750,NA
"A29OIZAIHTFKUV","Mon Sep 21 2020 04:48:22 GMT-0400 (Eastern Daylight Time)","Mon Sep 21 2020 04:57:12 GMT-0400 (Eastern Daylight Time)","Mozilla/5.0 (Macintosh; Intel Mac OS X 10_13_2) AppleWebKit/537.36 (KHTML, like Gecko) Chrome/85.0.4183.102 Safari/537.36",147,"[0.9, 0.5, 0.1]","[0.8, 0.4, 0.2]","[u'black', u'red', u'blue']","[u'left', u'middle', u'right']","[0.8, 0.4, 0.2]","[u'high', u'low', u'medium']","red",50,"middle","low","False","False",531,5700,NA
"A29OIZAIHTFKUV","Mon Sep 21 2020 04:48:22 GMT-0400 (Eastern Daylight Time)","Mon Sep 21 2020 04:57:12 GMT-0400 (Eastern Daylight Time)","Mozilla/5.0 (Macintosh; Intel Mac OS X 10_13_2) AppleWebKit/537.36 (KHTML, like Gecko) Chrome/85.0.4183.102 Safari/537.36",148,"[0.9, 0.5, 0.1]","[0.8, 0.4, 0.2]","[u'black', u'red', u'blue']","[u'left', u'middle', u'right']","[0.8, 0.4, 0.2]","[u'high', u'low', u'medium']","red",50,"middle","low","False","False",413,5650,NA
"A29OIZAIHTFKUV","Mon Sep 21 2020 04:48:22 GMT-0400 (Eastern Daylight Time)","Mon Sep 21 2020 04:57:12 GMT-0400 (Eastern Daylight Time)","Mozilla/5.0 (Macintosh; Intel Mac OS X 10_13_2) AppleWebKit/537.36 (KHTML, like Gecko) Chrome/85.0.4183.102 Safari/537.36",149,"[0.9, 0.5, 0.1]","[0.8, 0.4, 0.2]","[u'black', u'red', u'blue']","[u'left', u'middle', u'right']","[0.8, 0.4, 0.2]","[u'high', u'low', u'medium']","blue",51,"right","medium","False","False",194,5600,NA
"A29OIZAIHTFKUV","Mon Sep 21 2020 04:48:22 GMT-0400 (Eastern Daylight Time)","Mon Sep 21 2020 04:57:12 GMT-0400 (Eastern Daylight Time)","Mozilla/5.0 (Macintosh; Intel Mac OS X 10_13_2) AppleWebKit/537.36 (KHTML, like Gecko) Chrome/85.0.4183.102 Safari/537.36",150,"[0.9, 0.5, 0.1]","[0.8, 0.4, 0.2]","[u'black', u'red', u'blue']","[u'left', u'middle', u'right']","[0.8, 0.4, 0.2]","[u'high', u'low', u'medium']","red",50,"middle","low","False","False",131,5550,NA
"A29OIZAIHTFKUV","Mon Sep 21 2020 04:48:22 GMT-0400 (Eastern Daylight Time)","Mon Sep 21 2020 04:57:12 GMT-0400 (Eastern Daylight Time)","Mozilla/5.0 (Macintosh; Intel Mac OS X 10_13_2) AppleWebKit/537.36 (KHTML, like Gecko) Chrome/85.0.4183.102 Safari/537.36",151,"[0.9, 0.5, 0.1]","[0.8, 0.4, 0.2]","[u'black', u'red', u'blue']","[u'left', u'middle', u'right']","[0.8, 0.4, 0.2]","[u'high', u'low', u'medium']","red",50,"middle","low","True","False",113,5650,NA
"A29OIZAIHTFKUV","Mon Sep 21 2020 04:48:22 GMT-0400 (Eastern Daylight Time)","Mon Sep 21 2020 04:57:12 GMT-0400 (Eastern Daylight Time)","Mozilla/5.0 (Macintosh; Intel Mac OS X 10_13_2) AppleWebKit/537.36 (KHTML, like Gecko) Chrome/85.0.4183.102 Safari/537.36",152,"[0.9, 0.5, 0.1]","[0.8, 0.4, 0.2]","[u'black', u'red', u'blue']","[u'left', u'middle', u'right']","[0.8, 0.4, 0.2]","[u'high', u'low', u'medium']","black",49,"left","high","True","False",257,5750,NA
"A29OIZAIHTFKUV","Mon Sep 21 2020 04:48:22 GMT-0400 (Eastern Daylight Time)","Mon Sep 21 2020 04:57:12 GMT-0400 (Eastern Daylight Time)","Mozilla/5.0 (Macintosh; Intel Mac OS X 10_13_2) AppleWebKit/537.36 (KHTML, like Gecko) Chrome/85.0.4183.102 Safari/537.36",153,"[0.9, 0.5, 0.1]","[0.8, 0.4, 0.2]","[u'black', u'red', u'blue']","[u'left', u'middle', u'right']","[0.8, 0.4, 0.2]","[u'high', u'low', u'medium']","black",49,"left","high","True","False",235,5850,NA
"A29OIZAIHTFKUV","Mon Sep 21 2020 04:48:22 GMT-0400 (Eastern Daylight Time)","Mon Sep 21 2020 04:57:12 GMT-0400 (Eastern Daylight Time)","Mozilla/5.0 (Macintosh; Intel Mac OS X 10_13_2) AppleWebKit/537.36 (KHTML, like Gecko) Chrome/85.0.4183.102 Safari/537.36",154,"[0.9, 0.5, 0.1]","[0.8, 0.4, 0.2]","[u'black', u'red', u'blue']","[u'left', u'middle', u'right']","[0.8, 0.4, 0.2]","[u'high', u'low', u'medium']","black",49,"left","high","True","False",258,5950,NA
"A29OIZAIHTFKUV","Mon Sep 21 2020 04:48:22 GMT-0400 (Eastern Daylight Time)","Mon Sep 21 2020 04:57:12 GMT-0400 (Eastern Daylight Time)","Mozilla/5.0 (Macintosh; Intel Mac OS X 10_13_2) AppleWebKit/537.36 (KHTML, like Gecko) Chrome/85.0.4183.102 Safari/537.36",155,"[0.9, 0.5, 0.1]","[0.8, 0.4, 0.2]","[u'black', u'red', u'blue']","[u'left', u'middle', u'right']","[0.8, 0.4, 0.2]","[u'high', u'low', u'medium']","black",49,"left","high","True","False",246,6050,NA
"A29OIZAIHTFKUV","Mon Sep 21 2020 04:48:22 GMT-0400 (Eastern Daylight Time)","Mon Sep 21 2020 04:57:12 GMT-0400 (Eastern Daylight Time)","Mozilla/5.0 (Macintosh; Intel Mac OS X 10_13_2) AppleWebKit/537.36 (KHTML, like Gecko) Chrome/85.0.4183.102 Safari/537.36",156,"[0.9, 0.5, 0.1]","[0.8, 0.4, 0.2]","[u'black', u'red', u'blue']","[u'left', u'middle', u'right']","[0.8, 0.4, 0.2]","[u'high', u'low', u'medium']","black",49,"left","high","True","False",448,6150,NA
"A29OIZAIHTFKUV","Mon Sep 21 2020 04:48:22 GMT-0400 (Eastern Daylight Time)","Mon Sep 21 2020 04:57:12 GMT-0400 (Eastern Daylight Time)","Mozilla/5.0 (Macintosh; Intel Mac OS X 10_13_2) AppleWebKit/537.36 (KHTML, like Gecko) Chrome/85.0.4183.102 Safari/537.36",157,"[0.9, 0.5, 0.1]","[0.8, 0.4, 0.2]","[u'black', u'red', u'blue']","[u'left', u'middle', u'right']","[0.8, 0.4, 0.2]","[u'high', u'low', u'medium']","black",49,"left","high","True","False",347,6250,NA
"A29OIZAIHTFKUV","Mon Sep 21 2020 04:48:22 GMT-0400 (Eastern Daylight Time)","Mon Sep 21 2020 04:57:12 GMT-0400 (Eastern Daylight Time)","Mozilla/5.0 (Macintosh; Intel Mac OS X 10_13_2) AppleWebKit/537.36 (KHTML, like Gecko) Chrome/85.0.4183.102 Safari/537.36",158,"[0.9, 0.5, 0.1]","[0.8, 0.4, 0.2]","[u'black', u'red', u'blue']","[u'left', u'middle', u'right']","[0.8, 0.4, 0.2]","[u'high', u'low', u'medium']","black",49,"left","high","False","False",318,6200,NA
"A29OIZAIHTFKUV","Mon Sep 21 2020 04:48:22 GMT-0400 (Eastern Daylight Time)","Mon Sep 21 2020 04:57:12 GMT-0400 (Eastern Daylight Time)","Mozilla/5.0 (Macintosh; Intel Mac OS X 10_13_2) AppleWebKit/537.36 (KHTML, like Gecko) Chrome/85.0.4183.102 Safari/537.36",159,"[0.9, 0.5, 0.1]","[0.8, 0.4, 0.2]","[u'black', u'red', u'blue']","[u'left', u'middle', u'right']","[0.8, 0.4, 0.2]","[u'high', u'low', u'medium']","black",49,"left","high","True","False",593,6300,NA
"A29OIZAIHTFKUV","Mon Sep 21 2020 04:48:22 GMT-0400 (Eastern Daylight Time)","Mon Sep 21 2020 04:57:12 GMT-0400 (Eastern Daylight Time)","Mozilla/5.0 (Macintosh; Intel Mac OS X 10_13_2) AppleWebKit/537.36 (KHTML, like Gecko) Chrome/85.0.4183.102 Safari/537.36",160,"[0.9, 0.5, 0.1]","[0.8, 0.4, 0.2]","[u'black', u'red', u'blue']","[u'left', u'middle', u'right']","[0.8, 0.4, 0.2]","[u'high', u'low', u'medium']","black",49,"left","high","False","True",282,6250,NA
