"src_subject_id","start_time","end_time","browser","index","first_half_probabilities","second_half_probabilities","deck_color","deck_position","deck_probabilities","deck_contingencies","response_color","key_press","response_position","response_probability","reward_type","trial_type","rt","reward_tally","exclusion_reason"
"A1ZK3LRUC4ICY7","Wed Jan 29 2020 07:10:14 GMT-0600 (Central Standard Time)","Wed Jan 29 2020 07:18:00 GMT-0600 (Central Standard Time)","Mozilla/5.0 (Windows NT 6.3; Win64; x64) AppleWebKit/537.36 (KHTML, like Gecko) Chrome/79.0.3945.130 Safari/537.36",1,"[0.9, 0.5, 0.1]","[0.8, 0.4, 0.2]","[u'blue', u'black', u'red']","[u'left', u'middle', u'right']","[0.9, 0.5, 0.1]","[u'low', u'medium', u'high']","blue",49,"left","low",FALSE,FALSE,1194,-50,NA
"A1ZK3LRUC4ICY7","Wed Jan 29 2020 07:10:14 GMT-0600 (Central Standard Time)","Wed Jan 29 2020 07:18:00 GMT-0600 (Central Standard Time)","Mozilla/5.0 (Windows NT 6.3; Win64; x64) AppleWebKit/537.36 (KHTML, like Gecko) Chrome/79.0.3945.130 Safari/537.36",2,"[0.9, 0.5, 0.1]","[0.8, 0.4, 0.2]","[u'blue', u'black', u'red']","[u'left', u'middle', u'right']","[0.9, 0.5, 0.1]","[u'low', u'medium', u'high']","blue",49,"left","low",FALSE,FALSE,738,-100,NA
"A1ZK3LRUC4ICY7","Wed Jan 29 2020 07:10:14 GMT-0600 (Central Standard Time)","Wed Jan 29 2020 07:18:00 GMT-0600 (Central Standard Time)","Mozilla/5.0 (Windows NT 6.3; Win64; x64) AppleWebKit/537.36 (KHTML, like Gecko) Chrome/79.0.3945.130 Safari/537.36",3,"[0.9, 0.5, 0.1]","[0.8, 0.4, 0.2]","[u'blue', u'black', u'red']","[u'left', u'middle', u'right']","[0.9, 0.5, 0.1]","[u'low', u'medium', u'high']","black",50,"middle","medium",TRUE,FALSE,418,0,NA
"A1ZK3LRUC4ICY7","Wed Jan 29 2020 07:10:14 GMT-0600 (Central Standard Time)","Wed Jan 29 2020 07:18:00 GMT-0600 (Central Standard Time)","Mozilla/5.0 (Windows NT 6.3; Win64; x64) AppleWebKit/537.36 (KHTML, like Gecko) Chrome/79.0.3945.130 Safari/537.36",4,"[0.9, 0.5, 0.1]","[0.8, 0.4, 0.2]","[u'blue', u'black', u'red']","[u'left', u'middle', u'right']","[0.9, 0.5, 0.1]","[u'low', u'medium', u'high']","black",50,"middle","medium",FALSE,FALSE,466,-50,NA
"A1ZK3LRUC4ICY7","Wed Jan 29 2020 07:10:14 GMT-0600 (Central Standard Time)","Wed Jan 29 2020 07:18:00 GMT-0600 (Central Standard Time)","Mozilla/5.0 (Windows NT 6.3; Win64; x64) AppleWebKit/537.36 (KHTML, like Gecko) Chrome/79.0.3945.130 Safari/537.36",5,"[0.9, 0.5, 0.1]","[0.8, 0.4, 0.2]","[u'blue', u'black', u'red']","[u'left', u'middle', u'right']","[0.9, 0.5, 0.1]","[u'low', u'medium', u'high']","black",50,"middle","medium",TRUE,FALSE,1138,50,NA
"A1ZK3LRUC4ICY7","Wed Jan 29 2020 07:10:14 GMT-0600 (Central Standard Time)","Wed Jan 29 2020 07:18:00 GMT-0600 (Central Standard Time)","Mozilla/5.0 (Windows NT 6.3; Win64; x64) AppleWebKit/537.36 (KHTML, like Gecko) Chrome/79.0.3945.130 Safari/537.36",6,"[0.9, 0.5, 0.1]","[0.8, 0.4, 0.2]","[u'blue', u'black', u'red']","[u'left', u'middle', u'right']","[0.9, 0.5, 0.1]","[u'low', u'medium', u'high']","red",51,"right","high",TRUE,FALSE,443,150,NA
"A1ZK3LRUC4ICY7","Wed Jan 29 2020 07:10:14 GMT-0600 (Central Standard Time)","Wed Jan 29 2020 07:18:00 GMT-0600 (Central Standard Time)","Mozilla/5.0 (Windows NT 6.3; Win64; x64) AppleWebKit/537.36 (KHTML, like Gecko) Chrome/79.0.3945.130 Safari/537.36",7,"[0.9, 0.5, 0.1]","[0.8, 0.4, 0.2]","[u'blue', u'black', u'red']","[u'left', u'middle', u'right']","[0.9, 0.5, 0.1]","[u'low', u'medium', u'high']","red",51,"right","high",TRUE,FALSE,363,250,NA
"A1ZK3LRUC4ICY7","Wed Jan 29 2020 07:10:14 GMT-0600 (Central Standard Time)","Wed Jan 29 2020 07:18:00 GMT-0600 (Central Standard Time)","Mozilla/5.0 (Windows NT 6.3; Win64; x64) AppleWebKit/537.36 (KHTML, like Gecko) Chrome/79.0.3945.130 Safari/537.36",8,"[0.9, 0.5, 0.1]","[0.8, 0.4, 0.2]","[u'blue', u'black', u'red']","[u'left', u'middle', u'right']","[0.9, 0.5, 0.1]","[u'low', u'medium', u'high']","blue",49,"left","low",FALSE,FALSE,618,200,NA
"A1ZK3LRUC4ICY7","Wed Jan 29 2020 07:10:14 GMT-0600 (Central Standard Time)","Wed Jan 29 2020 07:18:00 GMT-0600 (Central Standard Time)","Mozilla/5.0 (Windows NT 6.3; Win64; x64) AppleWebKit/537.36 (KHTML, like Gecko) Chrome/79.0.3945.130 Safari/537.36",9,"[0.9, 0.5, 0.1]","[0.8, 0.4, 0.2]","[u'blue', u'black', u'red']","[u'left', u'middle', u'right']","[0.9, 0.5, 0.1]","[u'low', u'medium', u'high']","black",50,"middle","medium",FALSE,FALSE,434,150,NA
"A1ZK3LRUC4ICY7","Wed Jan 29 2020 07:10:14 GMT-0600 (Central Standard Time)","Wed Jan 29 2020 07:18:00 GMT-0600 (Central Standard Time)","Mozilla/5.0 (Windows NT 6.3; Win64; x64) AppleWebKit/537.36 (KHTML, like Gecko) Chrome/79.0.3945.130 Safari/537.36",10,"[0.9, 0.5, 0.1]","[0.8, 0.4, 0.2]","[u'blue', u'black', u'red']","[u'left', u'middle', u'right']","[0.9, 0.5, 0.1]","[u'low', u'medium', u'high']","red",51,"right","high",TRUE,FALSE,10,250,NA
"A1ZK3LRUC4ICY7","Wed Jan 29 2020 07:10:14 GMT-0600 (Central Standard Time)","Wed Jan 29 2020 07:18:00 GMT-0600 (Central Standard Time)","Mozilla/5.0 (Windows NT 6.3; Win64; x64) AppleWebKit/537.36 (KHTML, like Gecko) Chrome/79.0.3945.130 Safari/537.36",11,"[0.9, 0.5, 0.1]","[0.8, 0.4, 0.2]","[u'blue', u'black', u'red']","[u'left', u'middle', u'right']","[0.9, 0.5, 0.1]","[u'low', u'medium', u'high']","black",50,"middle","medium",FALSE,FALSE,642,200,NA
"A1ZK3LRUC4ICY7","Wed Jan 29 2020 07:10:14 GMT-0600 (Central Standard Time)","Wed Jan 29 2020 07:18:00 GMT-0600 (Central Standard Time)","Mozilla/5.0 (Windows NT 6.3; Win64; x64) AppleWebKit/537.36 (KHTML, like Gecko) Chrome/79.0.3945.130 Safari/537.36",12,"[0.9, 0.5, 0.1]","[0.8, 0.4, 0.2]","[u'blue', u'black', u'red']","[u'left', u'middle', u'right']","[0.9, 0.5, 0.1]","[u'low', u'medium', u'high']","black",50,"middle","medium",TRUE,FALSE,538,300,NA
"A1ZK3LRUC4ICY7","Wed Jan 29 2020 07:10:14 GMT-0600 (Central Standard Time)","Wed Jan 29 2020 07:18:00 GMT-0600 (Central Standard Time)","Mozilla/5.0 (Windows NT 6.3; Win64; x64) AppleWebKit/537.36 (KHTML, like Gecko) Chrome/79.0.3945.130 Safari/537.36",13,"[0.9, 0.5, 0.1]","[0.8, 0.4, 0.2]","[u'blue', u'black', u'red']","[u'left', u'middle', u'right']","[0.9, 0.5, 0.1]","[u'low', u'medium', u'high']","black",50,"middle","medium",FALSE,FALSE,1127,250,NA
"A1ZK3LRUC4ICY7","Wed Jan 29 2020 07:10:14 GMT-0600 (Central Standard Time)","Wed Jan 29 2020 07:18:00 GMT-0600 (Central Standard Time)","Mozilla/5.0 (Windows NT 6.3; Win64; x64) AppleWebKit/537.36 (KHTML, like Gecko) Chrome/79.0.3945.130 Safari/537.36",14,"[0.9, 0.5, 0.1]","[0.8, 0.4, 0.2]","[u'blue', u'black', u'red']","[u'left', u'middle', u'right']","[0.9, 0.5, 0.1]","[u'low', u'medium', u'high']","blue",49,"left","low",FALSE,FALSE,298,200,NA
"A1ZK3LRUC4ICY7","Wed Jan 29 2020 07:10:14 GMT-0600 (Central Standard Time)","Wed Jan 29 2020 07:18:00 GMT-0600 (Central Standard Time)","Mozilla/5.0 (Windows NT 6.3; Win64; x64) AppleWebKit/537.36 (KHTML, like Gecko) Chrome/79.0.3945.130 Safari/537.36",15,"[0.9, 0.5, 0.1]","[0.8, 0.4, 0.2]","[u'blue', u'black', u'red']","[u'left', u'middle', u'right']","[0.9, 0.5, 0.1]","[u'low', u'medium', u'high']","blue",49,"left","low",FALSE,FALSE,371,150,NA
"A1ZK3LRUC4ICY7","Wed Jan 29 2020 07:10:14 GMT-0600 (Central Standard Time)","Wed Jan 29 2020 07:18:00 GMT-0600 (Central Standard Time)","Mozilla/5.0 (Windows NT 6.3; Win64; x64) AppleWebKit/537.36 (KHTML, like Gecko) Chrome/79.0.3945.130 Safari/537.36",16,"[0.9, 0.5, 0.1]","[0.8, 0.4, 0.2]","[u'blue', u'black', u'red']","[u'left', u'middle', u'right']","[0.9, 0.5, 0.1]","[u'low', u'medium', u'high']","blue",49,"left","low",FALSE,FALSE,404,100,NA
"A1ZK3LRUC4ICY7","Wed Jan 29 2020 07:10:14 GMT-0600 (Central Standard Time)","Wed Jan 29 2020 07:18:00 GMT-0600 (Central Standard Time)","Mozilla/5.0 (Windows NT 6.3; Win64; x64) AppleWebKit/537.36 (KHTML, like Gecko) Chrome/79.0.3945.130 Safari/537.36",17,"[0.9, 0.5, 0.1]","[0.8, 0.4, 0.2]","[u'blue', u'black', u'red']","[u'left', u'middle', u'right']","[0.9, 0.5, 0.1]","[u'low', u'medium', u'high']","red",51,"right","high",TRUE,FALSE,266,200,NA
"A1ZK3LRUC4ICY7","Wed Jan 29 2020 07:10:14 GMT-0600 (Central Standard Time)","Wed Jan 29 2020 07:18:00 GMT-0600 (Central Standard Time)","Mozilla/5.0 (Windows NT 6.3; Win64; x64) AppleWebKit/537.36 (KHTML, like Gecko) Chrome/79.0.3945.130 Safari/537.36",18,"[0.9, 0.5, 0.1]","[0.8, 0.4, 0.2]","[u'blue', u'black', u'red']","[u'left', u'middle', u'right']","[0.9, 0.5, 0.1]","[u'low', u'medium', u'high']","red",51,"right","high",TRUE,FALSE,794,300,NA
"A1ZK3LRUC4ICY7","Wed Jan 29 2020 07:10:14 GMT-0600 (Central Standard Time)","Wed Jan 29 2020 07:18:00 GMT-0600 (Central Standard Time)","Mozilla/5.0 (Windows NT 6.3; Win64; x64) AppleWebKit/537.36 (KHTML, like Gecko) Chrome/79.0.3945.130 Safari/537.36",19,"[0.9, 0.5, 0.1]","[0.8, 0.4, 0.2]","[u'blue', u'black', u'red']","[u'left', u'middle', u'right']","[0.9, 0.5, 0.1]","[u'low', u'medium', u'high']","black",50,"middle","medium",TRUE,FALSE,291,400,NA
"A1ZK3LRUC4ICY7","Wed Jan 29 2020 07:10:14 GMT-0600 (Central Standard Time)","Wed Jan 29 2020 07:18:00 GMT-0600 (Central Standard Time)","Mozilla/5.0 (Windows NT 6.3; Win64; x64) AppleWebKit/537.36 (KHTML, like Gecko) Chrome/79.0.3945.130 Safari/537.36",20,"[0.9, 0.5, 0.1]","[0.8, 0.4, 0.2]","[u'blue', u'black', u'red']","[u'left', u'middle', u'right']","[0.9, 0.5, 0.1]","[u'low', u'medium', u'high']","black",50,"middle","medium",TRUE,FALSE,267,500,NA
"A1ZK3LRUC4ICY7","Wed Jan 29 2020 07:10:14 GMT-0600 (Central Standard Time)","Wed Jan 29 2020 07:18:00 GMT-0600 (Central Standard Time)","Mozilla/5.0 (Windows NT 6.3; Win64; x64) AppleWebKit/537.36 (KHTML, like Gecko) Chrome/79.0.3945.130 Safari/537.36",21,"[0.9, 0.5, 0.1]","[0.8, 0.4, 0.2]","[u'blue', u'black', u'red']","[u'left', u'middle', u'right']","[0.9, 0.5, 0.1]","[u'low', u'medium', u'high']","blue",49,"left","low",TRUE,FALSE,1730,600,NA
"A1ZK3LRUC4ICY7","Wed Jan 29 2020 07:10:14 GMT-0600 (Central Standard Time)","Wed Jan 29 2020 07:18:00 GMT-0600 (Central Standard Time)","Mozilla/5.0 (Windows NT 6.3; Win64; x64) AppleWebKit/537.36 (KHTML, like Gecko) Chrome/79.0.3945.130 Safari/537.36",22,"[0.9, 0.5, 0.1]","[0.8, 0.4, 0.2]","[u'blue', u'black', u'red']","[u'left', u'middle', u'right']","[0.9, 0.5, 0.1]","[u'low', u'medium', u'high']","blue",49,"left","low",FALSE,FALSE,282,550,NA
"A1ZK3LRUC4ICY7","Wed Jan 29 2020 07:10:14 GMT-0600 (Central Standard Time)","Wed Jan 29 2020 07:18:00 GMT-0600 (Central Standard Time)","Mozilla/5.0 (Windows NT 6.3; Win64; x64) AppleWebKit/537.36 (KHTML, like Gecko) Chrome/79.0.3945.130 Safari/537.36",23,"[0.9, 0.5, 0.1]","[0.8, 0.4, 0.2]","[u'blue', u'black', u'red']","[u'left', u'middle', u'right']","[0.9, 0.5, 0.1]","[u'low', u'medium', u'high']","black",50,"middle","medium",FALSE,FALSE,266,500,NA
"A1ZK3LRUC4ICY7","Wed Jan 29 2020 07:10:14 GMT-0600 (Central Standard Time)","Wed Jan 29 2020 07:18:00 GMT-0600 (Central Standard Time)","Mozilla/5.0 (Windows NT 6.3; Win64; x64) AppleWebKit/537.36 (KHTML, like Gecko) Chrome/79.0.3945.130 Safari/537.36",24,"[0.9, 0.5, 0.1]","[0.8, 0.4, 0.2]","[u'blue', u'black', u'red']","[u'left', u'middle', u'right']","[0.9, 0.5, 0.1]","[u'low', u'medium', u'high']","red",51,"right","high",FALSE,FALSE,299,450,NA
"A1ZK3LRUC4ICY7","Wed Jan 29 2020 07:10:14 GMT-0600 (Central Standard Time)","Wed Jan 29 2020 07:18:00 GMT-0600 (Central Standard Time)","Mozilla/5.0 (Windows NT 6.3; Win64; x64) AppleWebKit/537.36 (KHTML, like Gecko) Chrome/79.0.3945.130 Safari/537.36",25,"[0.9, 0.5, 0.1]","[0.8, 0.4, 0.2]","[u'blue', u'black', u'red']","[u'left', u'middle', u'right']","[0.9, 0.5, 0.1]","[u'low', u'medium', u'high']","red",51,"right","high",TRUE,FALSE,330,550,NA
"A1ZK3LRUC4ICY7","Wed Jan 29 2020 07:10:14 GMT-0600 (Central Standard Time)","Wed Jan 29 2020 07:18:00 GMT-0600 (Central Standard Time)","Mozilla/5.0 (Windows NT 6.3; Win64; x64) AppleWebKit/537.36 (KHTML, like Gecko) Chrome/79.0.3945.130 Safari/537.36",26,"[0.9, 0.5, 0.1]","[0.8, 0.4, 0.2]","[u'blue', u'black', u'red']","[u'left', u'middle', u'right']","[0.9, 0.5, 0.1]","[u'low', u'medium', u'high']","red",51,"right","high",TRUE,FALSE,339,650,NA
"A1ZK3LRUC4ICY7","Wed Jan 29 2020 07:10:14 GMT-0600 (Central Standard Time)","Wed Jan 29 2020 07:18:00 GMT-0600 (Central Standard Time)","Mozilla/5.0 (Windows NT 6.3; Win64; x64) AppleWebKit/537.36 (KHTML, like Gecko) Chrome/79.0.3945.130 Safari/537.36",27,"[0.9, 0.5, 0.1]","[0.8, 0.4, 0.2]","[u'blue', u'black', u'red']","[u'left', u'middle', u'right']","[0.9, 0.5, 0.1]","[u'low', u'medium', u'high']","black",50,"middle","medium",TRUE,FALSE,282,750,NA
"A1ZK3LRUC4ICY7","Wed Jan 29 2020 07:10:14 GMT-0600 (Central Standard Time)","Wed Jan 29 2020 07:18:00 GMT-0600 (Central Standard Time)","Mozilla/5.0 (Windows NT 6.3; Win64; x64) AppleWebKit/537.36 (KHTML, like Gecko) Chrome/79.0.3945.130 Safari/537.36",28,"[0.9, 0.5, 0.1]","[0.8, 0.4, 0.2]","[u'blue', u'black', u'red']","[u'left', u'middle', u'right']","[0.9, 0.5, 0.1]","[u'low', u'medium', u'high']","black",50,"middle","medium",TRUE,FALSE,259,850,NA
"A1ZK3LRUC4ICY7","Wed Jan 29 2020 07:10:14 GMT-0600 (Central Standard Time)","Wed Jan 29 2020 07:18:00 GMT-0600 (Central Standard Time)","Mozilla/5.0 (Windows NT 6.3; Win64; x64) AppleWebKit/537.36 (KHTML, like Gecko) Chrome/79.0.3945.130 Safari/537.36",29,"[0.9, 0.5, 0.1]","[0.8, 0.4, 0.2]","[u'blue', u'black', u'red']","[u'left', u'middle', u'right']","[0.9, 0.5, 0.1]","[u'low', u'medium', u'high']","blue",49,"left","low",TRUE,FALSE,315,950,NA
"A1ZK3LRUC4ICY7","Wed Jan 29 2020 07:10:14 GMT-0600 (Central Standard Time)","Wed Jan 29 2020 07:18:00 GMT-0600 (Central Standard Time)","Mozilla/5.0 (Windows NT 6.3; Win64; x64) AppleWebKit/537.36 (KHTML, like Gecko) Chrome/79.0.3945.130 Safari/537.36",30,"[0.9, 0.5, 0.1]","[0.8, 0.4, 0.2]","[u'blue', u'black', u'red']","[u'left', u'middle', u'right']","[0.9, 0.5, 0.1]","[u'low', u'medium', u'high']","blue",49,"left","low",FALSE,FALSE,282,900,NA
"A1ZK3LRUC4ICY7","Wed Jan 29 2020 07:10:14 GMT-0600 (Central Standard Time)","Wed Jan 29 2020 07:18:00 GMT-0600 (Central Standard Time)","Mozilla/5.0 (Windows NT 6.3; Win64; x64) AppleWebKit/537.36 (KHTML, like Gecko) Chrome/79.0.3945.130 Safari/537.36",31,"[0.9, 0.5, 0.1]","[0.8, 0.4, 0.2]","[u'blue', u'black', u'red']","[u'left', u'middle', u'right']","[0.9, 0.5, 0.1]","[u'low', u'medium', u'high']","red",51,"right","high",TRUE,FALSE,410,1000,NA
"A1ZK3LRUC4ICY7","Wed Jan 29 2020 07:10:14 GMT-0600 (Central Standard Time)","Wed Jan 29 2020 07:18:00 GMT-0600 (Central Standard Time)","Mozilla/5.0 (Windows NT 6.3; Win64; x64) AppleWebKit/537.36 (KHTML, like Gecko) Chrome/79.0.3945.130 Safari/537.36",32,"[0.9, 0.5, 0.1]","[0.8, 0.4, 0.2]","[u'blue', u'black', u'red']","[u'left', u'middle', u'right']","[0.9, 0.5, 0.1]","[u'low', u'medium', u'high']","red",51,"right","high",TRUE,FALSE,258,1100,NA
"A1ZK3LRUC4ICY7","Wed Jan 29 2020 07:10:14 GMT-0600 (Central Standard Time)","Wed Jan 29 2020 07:18:00 GMT-0600 (Central Standard Time)","Mozilla/5.0 (Windows NT 6.3; Win64; x64) AppleWebKit/537.36 (KHTML, like Gecko) Chrome/79.0.3945.130 Safari/537.36",33,"[0.9, 0.5, 0.1]","[0.8, 0.4, 0.2]","[u'blue', u'black', u'red']","[u'left', u'middle', u'right']","[0.9, 0.5, 0.1]","[u'low', u'medium', u'high']","black",50,"middle","medium",FALSE,FALSE,66,1050,NA
"A1ZK3LRUC4ICY7","Wed Jan 29 2020 07:10:14 GMT-0600 (Central Standard Time)","Wed Jan 29 2020 07:18:00 GMT-0600 (Central Standard Time)","Mozilla/5.0 (Windows NT 6.3; Win64; x64) AppleWebKit/537.36 (KHTML, like Gecko) Chrome/79.0.3945.130 Safari/537.36",34,"[0.9, 0.5, 0.1]","[0.8, 0.4, 0.2]","[u'blue', u'black', u'red']","[u'left', u'middle', u'right']","[0.9, 0.5, 0.1]","[u'low', u'medium', u'high']","blue",49,"left","low",FALSE,FALSE,466,1000,NA
"A1ZK3LRUC4ICY7","Wed Jan 29 2020 07:10:14 GMT-0600 (Central Standard Time)","Wed Jan 29 2020 07:18:00 GMT-0600 (Central Standard Time)","Mozilla/5.0 (Windows NT 6.3; Win64; x64) AppleWebKit/537.36 (KHTML, like Gecko) Chrome/79.0.3945.130 Safari/537.36",35,"[0.9, 0.5, 0.1]","[0.8, 0.4, 0.2]","[u'blue', u'black', u'red']","[u'left', u'middle', u'right']","[0.9, 0.5, 0.1]","[u'low', u'medium', u'high']","black",50,"middle","medium",TRUE,FALSE,539,1100,NA
"A1ZK3LRUC4ICY7","Wed Jan 29 2020 07:10:14 GMT-0600 (Central Standard Time)","Wed Jan 29 2020 07:18:00 GMT-0600 (Central Standard Time)","Mozilla/5.0 (Windows NT 6.3; Win64; x64) AppleWebKit/537.36 (KHTML, like Gecko) Chrome/79.0.3945.130 Safari/537.36",36,"[0.9, 0.5, 0.1]","[0.8, 0.4, 0.2]","[u'blue', u'black', u'red']","[u'left', u'middle', u'right']","[0.9, 0.5, 0.1]","[u'low', u'medium', u'high']","blue",49,"left","low",FALSE,FALSE,371,1050,NA
"A1ZK3LRUC4ICY7","Wed Jan 29 2020 07:10:14 GMT-0600 (Central Standard Time)","Wed Jan 29 2020 07:18:00 GMT-0600 (Central Standard Time)","Mozilla/5.0 (Windows NT 6.3; Win64; x64) AppleWebKit/537.36 (KHTML, like Gecko) Chrome/79.0.3945.130 Safari/537.36",37,"[0.9, 0.5, 0.1]","[0.8, 0.4, 0.2]","[u'blue', u'black', u'red']","[u'left', u'middle', u'right']","[0.9, 0.5, 0.1]","[u'low', u'medium', u'high']","red",51,"right","high",TRUE,FALSE,282,1150,NA
"A1ZK3LRUC4ICY7","Wed Jan 29 2020 07:10:14 GMT-0600 (Central Standard Time)","Wed Jan 29 2020 07:18:00 GMT-0600 (Central Standard Time)","Mozilla/5.0 (Windows NT 6.3; Win64; x64) AppleWebKit/537.36 (KHTML, like Gecko) Chrome/79.0.3945.130 Safari/537.36",38,"[0.9, 0.5, 0.1]","[0.8, 0.4, 0.2]","[u'blue', u'black', u'red']","[u'left', u'middle', u'right']","[0.9, 0.5, 0.1]","[u'low', u'medium', u'high']","red",51,"right","high",TRUE,FALSE,266,1250,NA
"A1ZK3LRUC4ICY7","Wed Jan 29 2020 07:10:14 GMT-0600 (Central Standard Time)","Wed Jan 29 2020 07:18:00 GMT-0600 (Central Standard Time)","Mozilla/5.0 (Windows NT 6.3; Win64; x64) AppleWebKit/537.36 (KHTML, like Gecko) Chrome/79.0.3945.130 Safari/537.36",39,"[0.9, 0.5, 0.1]","[0.8, 0.4, 0.2]","[u'blue', u'black', u'red']","[u'left', u'middle', u'right']","[0.9, 0.5, 0.1]","[u'low', u'medium', u'high']","black",50,"middle","medium",FALSE,FALSE,315,1200,NA
"A1ZK3LRUC4ICY7","Wed Jan 29 2020 07:10:14 GMT-0600 (Central Standard Time)","Wed Jan 29 2020 07:18:00 GMT-0600 (Central Standard Time)","Mozilla/5.0 (Windows NT 6.3; Win64; x64) AppleWebKit/537.36 (KHTML, like Gecko) Chrome/79.0.3945.130 Safari/537.36",40,"[0.9, 0.5, 0.1]","[0.8, 0.4, 0.2]","[u'blue', u'black', u'red']","[u'left', u'middle', u'right']","[0.9, 0.5, 0.1]","[u'low', u'medium', u'high']","black",50,"middle","medium",FALSE,FALSE,267,1150,NA
"A1ZK3LRUC4ICY7","Wed Jan 29 2020 07:10:14 GMT-0600 (Central Standard Time)","Wed Jan 29 2020 07:18:00 GMT-0600 (Central Standard Time)","Mozilla/5.0 (Windows NT 6.3; Win64; x64) AppleWebKit/537.36 (KHTML, like Gecko) Chrome/79.0.3945.130 Safari/537.36",41,"[0.9, 0.5, 0.1]","[0.8, 0.4, 0.2]","[u'blue', u'black', u'red']","[u'left', u'middle', u'right']","[0.9, 0.5, 0.1]","[u'high', u'medium', u'low']","blue",49,"left","high",TRUE,FALSE,2210,1250,NA
"A1ZK3LRUC4ICY7","Wed Jan 29 2020 07:10:14 GMT-0600 (Central Standard Time)","Wed Jan 29 2020 07:18:00 GMT-0600 (Central Standard Time)","Mozilla/5.0 (Windows NT 6.3; Win64; x64) AppleWebKit/537.36 (KHTML, like Gecko) Chrome/79.0.3945.130 Safari/537.36",42,"[0.9, 0.5, 0.1]","[0.8, 0.4, 0.2]","[u'blue', u'black', u'red']","[u'left', u'middle', u'right']","[0.9, 0.5, 0.1]","[u'high', u'medium', u'low']","black",50,"middle","medium",FALSE,FALSE,370,1200,NA
"A1ZK3LRUC4ICY7","Wed Jan 29 2020 07:10:14 GMT-0600 (Central Standard Time)","Wed Jan 29 2020 07:18:00 GMT-0600 (Central Standard Time)","Mozilla/5.0 (Windows NT 6.3; Win64; x64) AppleWebKit/537.36 (KHTML, like Gecko) Chrome/79.0.3945.130 Safari/537.36",43,"[0.9, 0.5, 0.1]","[0.8, 0.4, 0.2]","[u'blue', u'black', u'red']","[u'left', u'middle', u'right']","[0.9, 0.5, 0.1]","[u'high', u'medium', u'low']","red",51,"right","low",FALSE,FALSE,323,1150,NA
"A1ZK3LRUC4ICY7","Wed Jan 29 2020 07:10:14 GMT-0600 (Central Standard Time)","Wed Jan 29 2020 07:18:00 GMT-0600 (Central Standard Time)","Mozilla/5.0 (Windows NT 6.3; Win64; x64) AppleWebKit/537.36 (KHTML, like Gecko) Chrome/79.0.3945.130 Safari/537.36",44,"[0.9, 0.5, 0.1]","[0.8, 0.4, 0.2]","[u'blue', u'black', u'red']","[u'left', u'middle', u'right']","[0.9, 0.5, 0.1]","[u'high', u'medium', u'low']","black",50,"middle","medium",FALSE,FALSE,315,1100,NA
"A1ZK3LRUC4ICY7","Wed Jan 29 2020 07:10:14 GMT-0600 (Central Standard Time)","Wed Jan 29 2020 07:18:00 GMT-0600 (Central Standard Time)","Mozilla/5.0 (Windows NT 6.3; Win64; x64) AppleWebKit/537.36 (KHTML, like Gecko) Chrome/79.0.3945.130 Safari/537.36",45,"[0.9, 0.5, 0.1]","[0.8, 0.4, 0.2]","[u'blue', u'black', u'red']","[u'left', u'middle', u'right']","[0.9, 0.5, 0.1]","[u'high', u'medium', u'low']","red",51,"right","low",FALSE,FALSE,281,1050,NA
"A1ZK3LRUC4ICY7","Wed Jan 29 2020 07:10:14 GMT-0600 (Central Standard Time)","Wed Jan 29 2020 07:18:00 GMT-0600 (Central Standard Time)","Mozilla/5.0 (Windows NT 6.3; Win64; x64) AppleWebKit/537.36 (KHTML, like Gecko) Chrome/79.0.3945.130 Safari/537.36",46,"[0.9, 0.5, 0.1]","[0.8, 0.4, 0.2]","[u'blue', u'black', u'red']","[u'left', u'middle', u'right']","[0.9, 0.5, 0.1]","[u'high', u'medium', u'low']","red",51,"right","low",FALSE,FALSE,571,1000,NA
"A1ZK3LRUC4ICY7","Wed Jan 29 2020 07:10:14 GMT-0600 (Central Standard Time)","Wed Jan 29 2020 07:18:00 GMT-0600 (Central Standard Time)","Mozilla/5.0 (Windows NT 6.3; Win64; x64) AppleWebKit/537.36 (KHTML, like Gecko) Chrome/79.0.3945.130 Safari/537.36",47,"[0.9, 0.5, 0.1]","[0.8, 0.4, 0.2]","[u'blue', u'black', u'red']","[u'left', u'middle', u'right']","[0.9, 0.5, 0.1]","[u'high', u'medium', u'low']","red",51,"right","low",TRUE,FALSE,347,1100,NA
"A1ZK3LRUC4ICY7","Wed Jan 29 2020 07:10:14 GMT-0600 (Central Standard Time)","Wed Jan 29 2020 07:18:00 GMT-0600 (Central Standard Time)","Mozilla/5.0 (Windows NT 6.3; Win64; x64) AppleWebKit/537.36 (KHTML, like Gecko) Chrome/79.0.3945.130 Safari/537.36",48,"[0.9, 0.5, 0.1]","[0.8, 0.4, 0.2]","[u'blue', u'black', u'red']","[u'left', u'middle', u'right']","[0.9, 0.5, 0.1]","[u'high', u'medium', u'low']","red",51,"right","low",FALSE,FALSE,234,1050,NA
"A1ZK3LRUC4ICY7","Wed Jan 29 2020 07:10:14 GMT-0600 (Central Standard Time)","Wed Jan 29 2020 07:18:00 GMT-0600 (Central Standard Time)","Mozilla/5.0 (Windows NT 6.3; Win64; x64) AppleWebKit/537.36 (KHTML, like Gecko) Chrome/79.0.3945.130 Safari/537.36",49,"[0.9, 0.5, 0.1]","[0.8, 0.4, 0.2]","[u'blue', u'black', u'red']","[u'left', u'middle', u'right']","[0.9, 0.5, 0.1]","[u'high', u'medium', u'low']","black",50,"middle","medium",FALSE,FALSE,210,1000,NA
"A1ZK3LRUC4ICY7","Wed Jan 29 2020 07:10:14 GMT-0600 (Central Standard Time)","Wed Jan 29 2020 07:18:00 GMT-0600 (Central Standard Time)","Mozilla/5.0 (Windows NT 6.3; Win64; x64) AppleWebKit/537.36 (KHTML, like Gecko) Chrome/79.0.3945.130 Safari/537.36",50,"[0.9, 0.5, 0.1]","[0.8, 0.4, 0.2]","[u'blue', u'black', u'red']","[u'left', u'middle', u'right']","[0.9, 0.5, 0.1]","[u'high', u'medium', u'low']","black",50,"middle","medium",TRUE,FALSE,290,1100,NA
"A1ZK3LRUC4ICY7","Wed Jan 29 2020 07:10:14 GMT-0600 (Central Standard Time)","Wed Jan 29 2020 07:18:00 GMT-0600 (Central Standard Time)","Mozilla/5.0 (Windows NT 6.3; Win64; x64) AppleWebKit/537.36 (KHTML, like Gecko) Chrome/79.0.3945.130 Safari/537.36",51,"[0.9, 0.5, 0.1]","[0.8, 0.4, 0.2]","[u'blue', u'black', u'red']","[u'left', u'middle', u'right']","[0.9, 0.5, 0.1]","[u'high', u'medium', u'low']","black",50,"middle","medium",TRUE,FALSE,1202,1200,NA
"A1ZK3LRUC4ICY7","Wed Jan 29 2020 07:10:14 GMT-0600 (Central Standard Time)","Wed Jan 29 2020 07:18:00 GMT-0600 (Central Standard Time)","Mozilla/5.0 (Windows NT 6.3; Win64; x64) AppleWebKit/537.36 (KHTML, like Gecko) Chrome/79.0.3945.130 Safari/537.36",52,"[0.9, 0.5, 0.1]","[0.8, 0.4, 0.2]","[u'blue', u'black', u'red']","[u'left', u'middle', u'right']","[0.9, 0.5, 0.1]","[u'high', u'medium', u'low']","blue",49,"left","high",TRUE,FALSE,266,1300,NA
"A1ZK3LRUC4ICY7","Wed Jan 29 2020 07:10:14 GMT-0600 (Central Standard Time)","Wed Jan 29 2020 07:18:00 GMT-0600 (Central Standard Time)","Mozilla/5.0 (Windows NT 6.3; Win64; x64) AppleWebKit/537.36 (KHTML, like Gecko) Chrome/79.0.3945.130 Safari/537.36",53,"[0.9, 0.5, 0.1]","[0.8, 0.4, 0.2]","[u'blue', u'black', u'red']","[u'left', u'middle', u'right']","[0.9, 0.5, 0.1]","[u'high', u'medium', u'low']","blue",49,"left","high",TRUE,FALSE,251,1400,NA
"A1ZK3LRUC4ICY7","Wed Jan 29 2020 07:10:14 GMT-0600 (Central Standard Time)","Wed Jan 29 2020 07:18:00 GMT-0600 (Central Standard Time)","Mozilla/5.0 (Windows NT 6.3; Win64; x64) AppleWebKit/537.36 (KHTML, like Gecko) Chrome/79.0.3945.130 Safari/537.36",54,"[0.9, 0.5, 0.1]","[0.8, 0.4, 0.2]","[u'blue', u'black', u'red']","[u'left', u'middle', u'right']","[0.9, 0.5, 0.1]","[u'high', u'medium', u'low']","red",51,"right","low",TRUE,FALSE,258,1500,NA
"A1ZK3LRUC4ICY7","Wed Jan 29 2020 07:10:14 GMT-0600 (Central Standard Time)","Wed Jan 29 2020 07:18:00 GMT-0600 (Central Standard Time)","Mozilla/5.0 (Windows NT 6.3; Win64; x64) AppleWebKit/537.36 (KHTML, like Gecko) Chrome/79.0.3945.130 Safari/537.36",55,"[0.9, 0.5, 0.1]","[0.8, 0.4, 0.2]","[u'blue', u'black', u'red']","[u'left', u'middle', u'right']","[0.9, 0.5, 0.1]","[u'high', u'medium', u'low']","red",51,"right","low",FALSE,FALSE,242,1450,NA
"A1ZK3LRUC4ICY7","Wed Jan 29 2020 07:10:14 GMT-0600 (Central Standard Time)","Wed Jan 29 2020 07:18:00 GMT-0600 (Central Standard Time)","Mozilla/5.0 (Windows NT 6.3; Win64; x64) AppleWebKit/537.36 (KHTML, like Gecko) Chrome/79.0.3945.130 Safari/537.36",56,"[0.9, 0.5, 0.1]","[0.8, 0.4, 0.2]","[u'blue', u'black', u'red']","[u'left', u'middle', u'right']","[0.9, 0.5, 0.1]","[u'high', u'medium', u'low']","black",50,"middle","medium",FALSE,FALSE,275,1400,NA
"A1ZK3LRUC4ICY7","Wed Jan 29 2020 07:10:14 GMT-0600 (Central Standard Time)","Wed Jan 29 2020 07:18:00 GMT-0600 (Central Standard Time)","Mozilla/5.0 (Windows NT 6.3; Win64; x64) AppleWebKit/537.36 (KHTML, like Gecko) Chrome/79.0.3945.130 Safari/537.36",57,"[0.9, 0.5, 0.1]","[0.8, 0.4, 0.2]","[u'blue', u'black', u'red']","[u'left', u'middle', u'right']","[0.9, 0.5, 0.1]","[u'high', u'medium', u'low']","black",50,"middle","medium",TRUE,FALSE,210,1500,NA
"A1ZK3LRUC4ICY7","Wed Jan 29 2020 07:10:14 GMT-0600 (Central Standard Time)","Wed Jan 29 2020 07:18:00 GMT-0600 (Central Standard Time)","Mozilla/5.0 (Windows NT 6.3; Win64; x64) AppleWebKit/537.36 (KHTML, like Gecko) Chrome/79.0.3945.130 Safari/537.36",58,"[0.9, 0.5, 0.1]","[0.8, 0.4, 0.2]","[u'blue', u'black', u'red']","[u'left', u'middle', u'right']","[0.9, 0.5, 0.1]","[u'high', u'medium', u'low']","black",50,"middle","medium",FALSE,FALSE,259,1450,NA
"A1ZK3LRUC4ICY7","Wed Jan 29 2020 07:10:14 GMT-0600 (Central Standard Time)","Wed Jan 29 2020 07:18:00 GMT-0600 (Central Standard Time)","Mozilla/5.0 (Windows NT 6.3; Win64; x64) AppleWebKit/537.36 (KHTML, like Gecko) Chrome/79.0.3945.130 Safari/537.36",59,"[0.9, 0.5, 0.1]","[0.8, 0.4, 0.2]","[u'blue', u'black', u'red']","[u'left', u'middle', u'right']","[0.9, 0.5, 0.1]","[u'high', u'medium', u'low']","blue",49,"left","high",TRUE,FALSE,346,1550,NA
"A1ZK3LRUC4ICY7","Wed Jan 29 2020 07:10:14 GMT-0600 (Central Standard Time)","Wed Jan 29 2020 07:18:00 GMT-0600 (Central Standard Time)","Mozilla/5.0 (Windows NT 6.3; Win64; x64) AppleWebKit/537.36 (KHTML, like Gecko) Chrome/79.0.3945.130 Safari/537.36",60,"[0.9, 0.5, 0.1]","[0.8, 0.4, 0.2]","[u'blue', u'black', u'red']","[u'left', u'middle', u'right']","[0.9, 0.5, 0.1]","[u'high', u'medium', u'low']","blue",49,"left","high",TRUE,FALSE,266,1650,NA
"A1ZK3LRUC4ICY7","Wed Jan 29 2020 07:10:14 GMT-0600 (Central Standard Time)","Wed Jan 29 2020 07:18:00 GMT-0600 (Central Standard Time)","Mozilla/5.0 (Windows NT 6.3; Win64; x64) AppleWebKit/537.36 (KHTML, like Gecko) Chrome/79.0.3945.130 Safari/537.36",61,"[0.9, 0.5, 0.1]","[0.8, 0.4, 0.2]","[u'blue', u'black', u'red']","[u'left', u'middle', u'right']","[0.9, 0.5, 0.1]","[u'high', u'medium', u'low']","blue",49,"left","high",FALSE,FALSE,259,1600,NA
"A1ZK3LRUC4ICY7","Wed Jan 29 2020 07:10:14 GMT-0600 (Central Standard Time)","Wed Jan 29 2020 07:18:00 GMT-0600 (Central Standard Time)","Mozilla/5.0 (Windows NT 6.3; Win64; x64) AppleWebKit/537.36 (KHTML, like Gecko) Chrome/79.0.3945.130 Safari/537.36",62,"[0.9, 0.5, 0.1]","[0.8, 0.4, 0.2]","[u'blue', u'black', u'red']","[u'left', u'middle', u'right']","[0.9, 0.5, 0.1]","[u'high', u'medium', u'low']","black",50,"middle","medium",TRUE,FALSE,243,1700,NA
"A1ZK3LRUC4ICY7","Wed Jan 29 2020 07:10:14 GMT-0600 (Central Standard Time)","Wed Jan 29 2020 07:18:00 GMT-0600 (Central Standard Time)","Mozilla/5.0 (Windows NT 6.3; Win64; x64) AppleWebKit/537.36 (KHTML, like Gecko) Chrome/79.0.3945.130 Safari/537.36",63,"[0.9, 0.5, 0.1]","[0.8, 0.4, 0.2]","[u'blue', u'black', u'red']","[u'left', u'middle', u'right']","[0.9, 0.5, 0.1]","[u'high', u'medium', u'low']","black",50,"middle","medium",TRUE,FALSE,250,1800,NA
"A1ZK3LRUC4ICY7","Wed Jan 29 2020 07:10:14 GMT-0600 (Central Standard Time)","Wed Jan 29 2020 07:18:00 GMT-0600 (Central Standard Time)","Mozilla/5.0 (Windows NT 6.3; Win64; x64) AppleWebKit/537.36 (KHTML, like Gecko) Chrome/79.0.3945.130 Safari/537.36",64,"[0.9, 0.5, 0.1]","[0.8, 0.4, 0.2]","[u'blue', u'black', u'red']","[u'left', u'middle', u'right']","[0.9, 0.5, 0.1]","[u'high', u'medium', u'low']","red",51,"right","low",FALSE,FALSE,250,1750,NA
"A1ZK3LRUC4ICY7","Wed Jan 29 2020 07:10:14 GMT-0600 (Central Standard Time)","Wed Jan 29 2020 07:18:00 GMT-0600 (Central Standard Time)","Mozilla/5.0 (Windows NT 6.3; Win64; x64) AppleWebKit/537.36 (KHTML, like Gecko) Chrome/79.0.3945.130 Safari/537.36",65,"[0.9, 0.5, 0.1]","[0.8, 0.4, 0.2]","[u'blue', u'black', u'red']","[u'left', u'middle', u'right']","[0.9, 0.5, 0.1]","[u'high', u'medium', u'low']","red",51,"right","low",FALSE,FALSE,338,1700,NA
"A1ZK3LRUC4ICY7","Wed Jan 29 2020 07:10:14 GMT-0600 (Central Standard Time)","Wed Jan 29 2020 07:18:00 GMT-0600 (Central Standard Time)","Mozilla/5.0 (Windows NT 6.3; Win64; x64) AppleWebKit/537.36 (KHTML, like Gecko) Chrome/79.0.3945.130 Safari/537.36",66,"[0.9, 0.5, 0.1]","[0.8, 0.4, 0.2]","[u'blue', u'black', u'red']","[u'left', u'middle', u'right']","[0.9, 0.5, 0.1]","[u'high', u'medium', u'low']","red",51,"right","low",FALSE,FALSE,147,1650,NA
"A1ZK3LRUC4ICY7","Wed Jan 29 2020 07:10:14 GMT-0600 (Central Standard Time)","Wed Jan 29 2020 07:18:00 GMT-0600 (Central Standard Time)","Mozilla/5.0 (Windows NT 6.3; Win64; x64) AppleWebKit/537.36 (KHTML, like Gecko) Chrome/79.0.3945.130 Safari/537.36",67,"[0.9, 0.5, 0.1]","[0.8, 0.4, 0.2]","[u'blue', u'black', u'red']","[u'left', u'middle', u'right']","[0.9, 0.5, 0.1]","[u'high', u'medium', u'low']","red",51,"right","low",TRUE,FALSE,154,1750,NA
"A1ZK3LRUC4ICY7","Wed Jan 29 2020 07:10:14 GMT-0600 (Central Standard Time)","Wed Jan 29 2020 07:18:00 GMT-0600 (Central Standard Time)","Mozilla/5.0 (Windows NT 6.3; Win64; x64) AppleWebKit/537.36 (KHTML, like Gecko) Chrome/79.0.3945.130 Safari/537.36",68,"[0.9, 0.5, 0.1]","[0.8, 0.4, 0.2]","[u'blue', u'black', u'red']","[u'left', u'middle', u'right']","[0.9, 0.5, 0.1]","[u'high', u'medium', u'low']","red",51,"right","low",FALSE,FALSE,274,1700,NA
"A1ZK3LRUC4ICY7","Wed Jan 29 2020 07:10:14 GMT-0600 (Central Standard Time)","Wed Jan 29 2020 07:18:00 GMT-0600 (Central Standard Time)","Mozilla/5.0 (Windows NT 6.3; Win64; x64) AppleWebKit/537.36 (KHTML, like Gecko) Chrome/79.0.3945.130 Safari/537.36",69,"[0.9, 0.5, 0.1]","[0.8, 0.4, 0.2]","[u'blue', u'black', u'red']","[u'left', u'middle', u'right']","[0.9, 0.5, 0.1]","[u'high', u'medium', u'low']","black",50,"middle","medium",FALSE,FALSE,241,1650,NA
"A1ZK3LRUC4ICY7","Wed Jan 29 2020 07:10:14 GMT-0600 (Central Standard Time)","Wed Jan 29 2020 07:18:00 GMT-0600 (Central Standard Time)","Mozilla/5.0 (Windows NT 6.3; Win64; x64) AppleWebKit/537.36 (KHTML, like Gecko) Chrome/79.0.3945.130 Safari/537.36",70,"[0.9, 0.5, 0.1]","[0.8, 0.4, 0.2]","[u'blue', u'black', u'red']","[u'left', u'middle', u'right']","[0.9, 0.5, 0.1]","[u'high', u'medium', u'low']","blue",49,"left","high",TRUE,FALSE,235,1750,NA
"A1ZK3LRUC4ICY7","Wed Jan 29 2020 07:10:14 GMT-0600 (Central Standard Time)","Wed Jan 29 2020 07:18:00 GMT-0600 (Central Standard Time)","Mozilla/5.0 (Windows NT 6.3; Win64; x64) AppleWebKit/537.36 (KHTML, like Gecko) Chrome/79.0.3945.130 Safari/537.36",71,"[0.9, 0.5, 0.1]","[0.8, 0.4, 0.2]","[u'blue', u'black', u'red']","[u'left', u'middle', u'right']","[0.9, 0.5, 0.1]","[u'high', u'medium', u'low']","black",50,"middle","medium",TRUE,FALSE,514,1850,NA
"A1ZK3LRUC4ICY7","Wed Jan 29 2020 07:10:14 GMT-0600 (Central Standard Time)","Wed Jan 29 2020 07:18:00 GMT-0600 (Central Standard Time)","Mozilla/5.0 (Windows NT 6.3; Win64; x64) AppleWebKit/537.36 (KHTML, like Gecko) Chrome/79.0.3945.130 Safari/537.36",72,"[0.9, 0.5, 0.1]","[0.8, 0.4, 0.2]","[u'blue', u'black', u'red']","[u'left', u'middle', u'right']","[0.9, 0.5, 0.1]","[u'high', u'medium', u'low']","blue",49,"left","high",TRUE,FALSE,243,1950,NA
"A1ZK3LRUC4ICY7","Wed Jan 29 2020 07:10:14 GMT-0600 (Central Standard Time)","Wed Jan 29 2020 07:18:00 GMT-0600 (Central Standard Time)","Mozilla/5.0 (Windows NT 6.3; Win64; x64) AppleWebKit/537.36 (KHTML, like Gecko) Chrome/79.0.3945.130 Safari/537.36",73,"[0.9, 0.5, 0.1]","[0.8, 0.4, 0.2]","[u'blue', u'black', u'red']","[u'left', u'middle', u'right']","[0.9, 0.5, 0.1]","[u'high', u'medium', u'low']","black",50,"middle","medium",TRUE,FALSE,330,2050,NA
"A1ZK3LRUC4ICY7","Wed Jan 29 2020 07:10:14 GMT-0600 (Central Standard Time)","Wed Jan 29 2020 07:18:00 GMT-0600 (Central Standard Time)","Mozilla/5.0 (Windows NT 6.3; Win64; x64) AppleWebKit/537.36 (KHTML, like Gecko) Chrome/79.0.3945.130 Safari/537.36",74,"[0.9, 0.5, 0.1]","[0.8, 0.4, 0.2]","[u'blue', u'black', u'red']","[u'left', u'middle', u'right']","[0.9, 0.5, 0.1]","[u'high', u'medium', u'low']","blue",49,"left","high",TRUE,FALSE,258,2150,NA
"A1ZK3LRUC4ICY7","Wed Jan 29 2020 07:10:14 GMT-0600 (Central Standard Time)","Wed Jan 29 2020 07:18:00 GMT-0600 (Central Standard Time)","Mozilla/5.0 (Windows NT 6.3; Win64; x64) AppleWebKit/537.36 (KHTML, like Gecko) Chrome/79.0.3945.130 Safari/537.36",75,"[0.9, 0.5, 0.1]","[0.8, 0.4, 0.2]","[u'blue', u'black', u'red']","[u'left', u'middle', u'right']","[0.9, 0.5, 0.1]","[u'high', u'medium', u'low']","black",50,"middle","medium",FALSE,FALSE,292,2100,NA
"A1ZK3LRUC4ICY7","Wed Jan 29 2020 07:10:14 GMT-0600 (Central Standard Time)","Wed Jan 29 2020 07:18:00 GMT-0600 (Central Standard Time)","Mozilla/5.0 (Windows NT 6.3; Win64; x64) AppleWebKit/537.36 (KHTML, like Gecko) Chrome/79.0.3945.130 Safari/537.36",76,"[0.9, 0.5, 0.1]","[0.8, 0.4, 0.2]","[u'blue', u'black', u'red']","[u'left', u'middle', u'right']","[0.9, 0.5, 0.1]","[u'high', u'medium', u'low']","red",51,"right","low",FALSE,FALSE,330,2050,NA
"A1ZK3LRUC4ICY7","Wed Jan 29 2020 07:10:14 GMT-0600 (Central Standard Time)","Wed Jan 29 2020 07:18:00 GMT-0600 (Central Standard Time)","Mozilla/5.0 (Windows NT 6.3; Win64; x64) AppleWebKit/537.36 (KHTML, like Gecko) Chrome/79.0.3945.130 Safari/537.36",77,"[0.9, 0.5, 0.1]","[0.8, 0.4, 0.2]","[u'blue', u'black', u'red']","[u'left', u'middle', u'right']","[0.9, 0.5, 0.1]","[u'high', u'medium', u'low']","red",51,"right","low",FALSE,FALSE,355,2000,NA
"A1ZK3LRUC4ICY7","Wed Jan 29 2020 07:10:14 GMT-0600 (Central Standard Time)","Wed Jan 29 2020 07:18:00 GMT-0600 (Central Standard Time)","Mozilla/5.0 (Windows NT 6.3; Win64; x64) AppleWebKit/537.36 (KHTML, like Gecko) Chrome/79.0.3945.130 Safari/537.36",78,"[0.9, 0.5, 0.1]","[0.8, 0.4, 0.2]","[u'blue', u'black', u'red']","[u'left', u'middle', u'right']","[0.9, 0.5, 0.1]","[u'high', u'medium', u'low']","black",50,"middle","medium",TRUE,FALSE,283,2100,NA
"A1ZK3LRUC4ICY7","Wed Jan 29 2020 07:10:14 GMT-0600 (Central Standard Time)","Wed Jan 29 2020 07:18:00 GMT-0600 (Central Standard Time)","Mozilla/5.0 (Windows NT 6.3; Win64; x64) AppleWebKit/537.36 (KHTML, like Gecko) Chrome/79.0.3945.130 Safari/537.36",79,"[0.9, 0.5, 0.1]","[0.8, 0.4, 0.2]","[u'blue', u'black', u'red']","[u'left', u'middle', u'right']","[0.9, 0.5, 0.1]","[u'high', u'medium', u'low']","black",50,"middle","medium",TRUE,FALSE,354,2200,NA
"A1ZK3LRUC4ICY7","Wed Jan 29 2020 07:10:14 GMT-0600 (Central Standard Time)","Wed Jan 29 2020 07:18:00 GMT-0600 (Central Standard Time)","Mozilla/5.0 (Windows NT 6.3; Win64; x64) AppleWebKit/537.36 (KHTML, like Gecko) Chrome/79.0.3945.130 Safari/537.36",80,"[0.9, 0.5, 0.1]","[0.8, 0.4, 0.2]","[u'blue', u'black', u'red']","[u'left', u'middle', u'right']","[0.9, 0.5, 0.1]","[u'high', u'medium', u'low']","black",50,"middle","medium",FALSE,FALSE,275,2150,NA
"A1ZK3LRUC4ICY7","Wed Jan 29 2020 07:10:14 GMT-0600 (Central Standard Time)","Wed Jan 29 2020 07:18:00 GMT-0600 (Central Standard Time)","Mozilla/5.0 (Windows NT 6.3; Win64; x64) AppleWebKit/537.36 (KHTML, like Gecko) Chrome/79.0.3945.130 Safari/537.36",81,"[0.9, 0.5, 0.1]","[0.8, 0.4, 0.2]","[u'blue', u'black', u'red']","[u'left', u'middle', u'right']","[0.8, 0.4, 0.2]","[u'low', u'high', u'medium']","blue",49,"left","low",TRUE,FALSE,810,2250,NA
"A1ZK3LRUC4ICY7","Wed Jan 29 2020 07:10:14 GMT-0600 (Central Standard Time)","Wed Jan 29 2020 07:18:00 GMT-0600 (Central Standard Time)","Mozilla/5.0 (Windows NT 6.3; Win64; x64) AppleWebKit/537.36 (KHTML, like Gecko) Chrome/79.0.3945.130 Safari/537.36",82,"[0.9, 0.5, 0.1]","[0.8, 0.4, 0.2]","[u'blue', u'black', u'red']","[u'left', u'middle', u'right']","[0.8, 0.4, 0.2]","[u'low', u'high', u'medium']","blue",49,"left","low",FALSE,FALSE,299,2200,NA
"A1ZK3LRUC4ICY7","Wed Jan 29 2020 07:10:14 GMT-0600 (Central Standard Time)","Wed Jan 29 2020 07:18:00 GMT-0600 (Central Standard Time)","Mozilla/5.0 (Windows NT 6.3; Win64; x64) AppleWebKit/537.36 (KHTML, like Gecko) Chrome/79.0.3945.130 Safari/537.36",83,"[0.9, 0.5, 0.1]","[0.8, 0.4, 0.2]","[u'blue', u'black', u'red']","[u'left', u'middle', u'right']","[0.8, 0.4, 0.2]","[u'low', u'high', u'medium']","blue",49,"left","low",FALSE,FALSE,307,2150,NA
"A1ZK3LRUC4ICY7","Wed Jan 29 2020 07:10:14 GMT-0600 (Central Standard Time)","Wed Jan 29 2020 07:18:00 GMT-0600 (Central Standard Time)","Mozilla/5.0 (Windows NT 6.3; Win64; x64) AppleWebKit/537.36 (KHTML, like Gecko) Chrome/79.0.3945.130 Safari/537.36",84,"[0.9, 0.5, 0.1]","[0.8, 0.4, 0.2]","[u'blue', u'black', u'red']","[u'left', u'middle', u'right']","[0.8, 0.4, 0.2]","[u'low', u'high', u'medium']","black",50,"middle","high",FALSE,FALSE,283,2100,NA
"A1ZK3LRUC4ICY7","Wed Jan 29 2020 07:10:14 GMT-0600 (Central Standard Time)","Wed Jan 29 2020 07:18:00 GMT-0600 (Central Standard Time)","Mozilla/5.0 (Windows NT 6.3; Win64; x64) AppleWebKit/537.36 (KHTML, like Gecko) Chrome/79.0.3945.130 Safari/537.36",85,"[0.9, 0.5, 0.1]","[0.8, 0.4, 0.2]","[u'blue', u'black', u'red']","[u'left', u'middle', u'right']","[0.8, 0.4, 0.2]","[u'low', u'high', u'medium']","black",50,"middle","high",TRUE,FALSE,146,2200,NA
"A1ZK3LRUC4ICY7","Wed Jan 29 2020 07:10:14 GMT-0600 (Central Standard Time)","Wed Jan 29 2020 07:18:00 GMT-0600 (Central Standard Time)","Mozilla/5.0 (Windows NT 6.3; Win64; x64) AppleWebKit/537.36 (KHTML, like Gecko) Chrome/79.0.3945.130 Safari/537.36",86,"[0.9, 0.5, 0.1]","[0.8, 0.4, 0.2]","[u'blue', u'black', u'red']","[u'left', u'middle', u'right']","[0.8, 0.4, 0.2]","[u'low', u'high', u'medium']","black",50,"middle","high",FALSE,FALSE,491,2150,NA
"A1ZK3LRUC4ICY7","Wed Jan 29 2020 07:10:14 GMT-0600 (Central Standard Time)","Wed Jan 29 2020 07:18:00 GMT-0600 (Central Standard Time)","Mozilla/5.0 (Windows NT 6.3; Win64; x64) AppleWebKit/537.36 (KHTML, like Gecko) Chrome/79.0.3945.130 Safari/537.36",87,"[0.9, 0.5, 0.1]","[0.8, 0.4, 0.2]","[u'blue', u'black', u'red']","[u'left', u'middle', u'right']","[0.8, 0.4, 0.2]","[u'low', u'high', u'medium']","red",51,"right","medium",FALSE,FALSE,323,2100,NA
"A1ZK3LRUC4ICY7","Wed Jan 29 2020 07:10:14 GMT-0600 (Central Standard Time)","Wed Jan 29 2020 07:18:00 GMT-0600 (Central Standard Time)","Mozilla/5.0 (Windows NT 6.3; Win64; x64) AppleWebKit/537.36 (KHTML, like Gecko) Chrome/79.0.3945.130 Safari/537.36",88,"[0.9, 0.5, 0.1]","[0.8, 0.4, 0.2]","[u'blue', u'black', u'red']","[u'left', u'middle', u'right']","[0.8, 0.4, 0.2]","[u'low', u'high', u'medium']","red",51,"right","medium",FALSE,FALSE,291,2050,NA
"A1ZK3LRUC4ICY7","Wed Jan 29 2020 07:10:14 GMT-0600 (Central Standard Time)","Wed Jan 29 2020 07:18:00 GMT-0600 (Central Standard Time)","Mozilla/5.0 (Windows NT 6.3; Win64; x64) AppleWebKit/537.36 (KHTML, like Gecko) Chrome/79.0.3945.130 Safari/537.36",89,"[0.9, 0.5, 0.1]","[0.8, 0.4, 0.2]","[u'blue', u'black', u'red']","[u'left', u'middle', u'right']","[0.8, 0.4, 0.2]","[u'low', u'high', u'medium']","red",51,"right","medium",FALSE,FALSE,258,2000,NA
"A1ZK3LRUC4ICY7","Wed Jan 29 2020 07:10:14 GMT-0600 (Central Standard Time)","Wed Jan 29 2020 07:18:00 GMT-0600 (Central Standard Time)","Mozilla/5.0 (Windows NT 6.3; Win64; x64) AppleWebKit/537.36 (KHTML, like Gecko) Chrome/79.0.3945.130 Safari/537.36",90,"[0.9, 0.5, 0.1]","[0.8, 0.4, 0.2]","[u'blue', u'black', u'red']","[u'left', u'middle', u'right']","[0.8, 0.4, 0.2]","[u'low', u'high', u'medium']","red",51,"right","medium",FALSE,FALSE,339,1950,NA
"A1ZK3LRUC4ICY7","Wed Jan 29 2020 07:10:14 GMT-0600 (Central Standard Time)","Wed Jan 29 2020 07:18:00 GMT-0600 (Central Standard Time)","Mozilla/5.0 (Windows NT 6.3; Win64; x64) AppleWebKit/537.36 (KHTML, like Gecko) Chrome/79.0.3945.130 Safari/537.36",91,"[0.9, 0.5, 0.1]","[0.8, 0.4, 0.2]","[u'blue', u'black', u'red']","[u'left', u'middle', u'right']","[0.8, 0.4, 0.2]","[u'low', u'high', u'medium']","red",51,"right","medium",FALSE,FALSE,234,1900,NA
"A1ZK3LRUC4ICY7","Wed Jan 29 2020 07:10:14 GMT-0600 (Central Standard Time)","Wed Jan 29 2020 07:18:00 GMT-0600 (Central Standard Time)","Mozilla/5.0 (Windows NT 6.3; Win64; x64) AppleWebKit/537.36 (KHTML, like Gecko) Chrome/79.0.3945.130 Safari/537.36",92,"[0.9, 0.5, 0.1]","[0.8, 0.4, 0.2]","[u'blue', u'black', u'red']","[u'left', u'middle', u'right']","[0.8, 0.4, 0.2]","[u'low', u'high', u'medium']","black",50,"middle","high",FALSE,FALSE,307,1850,NA
"A1ZK3LRUC4ICY7","Wed Jan 29 2020 07:10:14 GMT-0600 (Central Standard Time)","Wed Jan 29 2020 07:18:00 GMT-0600 (Central Standard Time)","Mozilla/5.0 (Windows NT 6.3; Win64; x64) AppleWebKit/537.36 (KHTML, like Gecko) Chrome/79.0.3945.130 Safari/537.36",93,"[0.9, 0.5, 0.1]","[0.8, 0.4, 0.2]","[u'blue', u'black', u'red']","[u'left', u'middle', u'right']","[0.8, 0.4, 0.2]","[u'low', u'high', u'medium']","blue",49,"left","low",FALSE,FALSE,259,1800,NA
"A1ZK3LRUC4ICY7","Wed Jan 29 2020 07:10:14 GMT-0600 (Central Standard Time)","Wed Jan 29 2020 07:18:00 GMT-0600 (Central Standard Time)","Mozilla/5.0 (Windows NT 6.3; Win64; x64) AppleWebKit/537.36 (KHTML, like Gecko) Chrome/79.0.3945.130 Safari/537.36",94,"[0.9, 0.5, 0.1]","[0.8, 0.4, 0.2]","[u'blue', u'black', u'red']","[u'left', u'middle', u'right']","[0.8, 0.4, 0.2]","[u'low', u'high', u'medium']","black",50,"middle","high",TRUE,FALSE,251,1900,NA
"A1ZK3LRUC4ICY7","Wed Jan 29 2020 07:10:14 GMT-0600 (Central Standard Time)","Wed Jan 29 2020 07:18:00 GMT-0600 (Central Standard Time)","Mozilla/5.0 (Windows NT 6.3; Win64; x64) AppleWebKit/537.36 (KHTML, like Gecko) Chrome/79.0.3945.130 Safari/537.36",95,"[0.9, 0.5, 0.1]","[0.8, 0.4, 0.2]","[u'blue', u'black', u'red']","[u'left', u'middle', u'right']","[0.8, 0.4, 0.2]","[u'low', u'high', u'medium']","black",50,"middle","high",FALSE,FALSE,282,1850,NA
"A1ZK3LRUC4ICY7","Wed Jan 29 2020 07:10:14 GMT-0600 (Central Standard Time)","Wed Jan 29 2020 07:18:00 GMT-0600 (Central Standard Time)","Mozilla/5.0 (Windows NT 6.3; Win64; x64) AppleWebKit/537.36 (KHTML, like Gecko) Chrome/79.0.3945.130 Safari/537.36",96,"[0.9, 0.5, 0.1]","[0.8, 0.4, 0.2]","[u'blue', u'black', u'red']","[u'left', u'middle', u'right']","[0.8, 0.4, 0.2]","[u'low', u'high', u'medium']","blue",49,"left","low",FALSE,FALSE,340,1800,NA
"A1ZK3LRUC4ICY7","Wed Jan 29 2020 07:10:14 GMT-0600 (Central Standard Time)","Wed Jan 29 2020 07:18:00 GMT-0600 (Central Standard Time)","Mozilla/5.0 (Windows NT 6.3; Win64; x64) AppleWebKit/537.36 (KHTML, like Gecko) Chrome/79.0.3945.130 Safari/537.36",97,"[0.9, 0.5, 0.1]","[0.8, 0.4, 0.2]","[u'blue', u'black', u'red']","[u'left', u'middle', u'right']","[0.8, 0.4, 0.2]","[u'low', u'high', u'medium']","red",51,"right","medium",TRUE,FALSE,266,1900,NA
"A1ZK3LRUC4ICY7","Wed Jan 29 2020 07:10:14 GMT-0600 (Central Standard Time)","Wed Jan 29 2020 07:18:00 GMT-0600 (Central Standard Time)","Mozilla/5.0 (Windows NT 6.3; Win64; x64) AppleWebKit/537.36 (KHTML, like Gecko) Chrome/79.0.3945.130 Safari/537.36",98,"[0.9, 0.5, 0.1]","[0.8, 0.4, 0.2]","[u'blue', u'black', u'red']","[u'left', u'middle', u'right']","[0.8, 0.4, 0.2]","[u'low', u'high', u'medium']","blue",49,"left","low",FALSE,FALSE,377,1850,NA
"A1ZK3LRUC4ICY7","Wed Jan 29 2020 07:10:14 GMT-0600 (Central Standard Time)","Wed Jan 29 2020 07:18:00 GMT-0600 (Central Standard Time)","Mozilla/5.0 (Windows NT 6.3; Win64; x64) AppleWebKit/537.36 (KHTML, like Gecko) Chrome/79.0.3945.130 Safari/537.36",99,"[0.9, 0.5, 0.1]","[0.8, 0.4, 0.2]","[u'blue', u'black', u'red']","[u'left', u'middle', u'right']","[0.8, 0.4, 0.2]","[u'low', u'high', u'medium']","black",50,"middle","high",TRUE,FALSE,274,1950,NA
"A1ZK3LRUC4ICY7","Wed Jan 29 2020 07:10:14 GMT-0600 (Central Standard Time)","Wed Jan 29 2020 07:18:00 GMT-0600 (Central Standard Time)","Mozilla/5.0 (Windows NT 6.3; Win64; x64) AppleWebKit/537.36 (KHTML, like Gecko) Chrome/79.0.3945.130 Safari/537.36",100,"[0.9, 0.5, 0.1]","[0.8, 0.4, 0.2]","[u'blue', u'black', u'red']","[u'left', u'middle', u'right']","[0.8, 0.4, 0.2]","[u'low', u'high', u'medium']","red",51,"right","medium",FALSE,FALSE,291,1900,NA
"A1ZK3LRUC4ICY7","Wed Jan 29 2020 07:10:14 GMT-0600 (Central Standard Time)","Wed Jan 29 2020 07:18:00 GMT-0600 (Central Standard Time)","Mozilla/5.0 (Windows NT 6.3; Win64; x64) AppleWebKit/537.36 (KHTML, like Gecko) Chrome/79.0.3945.130 Safari/537.36",101,"[0.9, 0.5, 0.1]","[0.8, 0.4, 0.2]","[u'blue', u'black', u'red']","[u'left', u'middle', u'right']","[0.8, 0.4, 0.2]","[u'low', u'high', u'medium']","red",51,"right","medium",FALSE,FALSE,251,1850,NA
"A1ZK3LRUC4ICY7","Wed Jan 29 2020 07:10:14 GMT-0600 (Central Standard Time)","Wed Jan 29 2020 07:18:00 GMT-0600 (Central Standard Time)","Mozilla/5.0 (Windows NT 6.3; Win64; x64) AppleWebKit/537.36 (KHTML, like Gecko) Chrome/79.0.3945.130 Safari/537.36",102,"[0.9, 0.5, 0.1]","[0.8, 0.4, 0.2]","[u'blue', u'black', u'red']","[u'left', u'middle', u'right']","[0.8, 0.4, 0.2]","[u'low', u'high', u'medium']","red",51,"right","medium",TRUE,FALSE,611,1950,NA
"A1ZK3LRUC4ICY7","Wed Jan 29 2020 07:10:14 GMT-0600 (Central Standard Time)","Wed Jan 29 2020 07:18:00 GMT-0600 (Central Standard Time)","Mozilla/5.0 (Windows NT 6.3; Win64; x64) AppleWebKit/537.36 (KHTML, like Gecko) Chrome/79.0.3945.130 Safari/537.36",103,"[0.9, 0.5, 0.1]","[0.8, 0.4, 0.2]","[u'blue', u'black', u'red']","[u'left', u'middle', u'right']","[0.8, 0.4, 0.2]","[u'low', u'high', u'medium']","blue",49,"left","low",TRUE,FALSE,370,2050,NA
"A1ZK3LRUC4ICY7","Wed Jan 29 2020 07:10:14 GMT-0600 (Central Standard Time)","Wed Jan 29 2020 07:18:00 GMT-0600 (Central Standard Time)","Mozilla/5.0 (Windows NT 6.3; Win64; x64) AppleWebKit/537.36 (KHTML, like Gecko) Chrome/79.0.3945.130 Safari/537.36",104,"[0.9, 0.5, 0.1]","[0.8, 0.4, 0.2]","[u'blue', u'black', u'red']","[u'left', u'middle', u'right']","[0.8, 0.4, 0.2]","[u'low', u'high', u'medium']","black",50,"middle","high",FALSE,FALSE,355,2000,NA
"A1ZK3LRUC4ICY7","Wed Jan 29 2020 07:10:14 GMT-0600 (Central Standard Time)","Wed Jan 29 2020 07:18:00 GMT-0600 (Central Standard Time)","Mozilla/5.0 (Windows NT 6.3; Win64; x64) AppleWebKit/537.36 (KHTML, like Gecko) Chrome/79.0.3945.130 Safari/537.36",105,"[0.9, 0.5, 0.1]","[0.8, 0.4, 0.2]","[u'blue', u'black', u'red']","[u'left', u'middle', u'right']","[0.8, 0.4, 0.2]","[u'low', u'high', u'medium']","blue",49,"left","low",FALSE,FALSE,450,1950,NA
"A1ZK3LRUC4ICY7","Wed Jan 29 2020 07:10:14 GMT-0600 (Central Standard Time)","Wed Jan 29 2020 07:18:00 GMT-0600 (Central Standard Time)","Mozilla/5.0 (Windows NT 6.3; Win64; x64) AppleWebKit/537.36 (KHTML, like Gecko) Chrome/79.0.3945.130 Safari/537.36",106,"[0.9, 0.5, 0.1]","[0.8, 0.4, 0.2]","[u'blue', u'black', u'red']","[u'left', u'middle', u'right']","[0.8, 0.4, 0.2]","[u'low', u'high', u'medium']","black",50,"middle","high",FALSE,FALSE,290,1900,NA
"A1ZK3LRUC4ICY7","Wed Jan 29 2020 07:10:14 GMT-0600 (Central Standard Time)","Wed Jan 29 2020 07:18:00 GMT-0600 (Central Standard Time)","Mozilla/5.0 (Windows NT 6.3; Win64; x64) AppleWebKit/537.36 (KHTML, like Gecko) Chrome/79.0.3945.130 Safari/537.36",107,"[0.9, 0.5, 0.1]","[0.8, 0.4, 0.2]","[u'blue', u'black', u'red']","[u'left', u'middle', u'right']","[0.8, 0.4, 0.2]","[u'low', u'high', u'medium']","black",50,"middle","high",TRUE,FALSE,210,2000,NA
"A1ZK3LRUC4ICY7","Wed Jan 29 2020 07:10:14 GMT-0600 (Central Standard Time)","Wed Jan 29 2020 07:18:00 GMT-0600 (Central Standard Time)","Mozilla/5.0 (Windows NT 6.3; Win64; x64) AppleWebKit/537.36 (KHTML, like Gecko) Chrome/79.0.3945.130 Safari/537.36",108,"[0.9, 0.5, 0.1]","[0.8, 0.4, 0.2]","[u'blue', u'black', u'red']","[u'left', u'middle', u'right']","[0.8, 0.4, 0.2]","[u'low', u'high', u'medium']","red",51,"right","medium",FALSE,FALSE,299,1950,NA
"A1ZK3LRUC4ICY7","Wed Jan 29 2020 07:10:14 GMT-0600 (Central Standard Time)","Wed Jan 29 2020 07:18:00 GMT-0600 (Central Standard Time)","Mozilla/5.0 (Windows NT 6.3; Win64; x64) AppleWebKit/537.36 (KHTML, like Gecko) Chrome/79.0.3945.130 Safari/537.36",109,"[0.9, 0.5, 0.1]","[0.8, 0.4, 0.2]","[u'blue', u'black', u'red']","[u'left', u'middle', u'right']","[0.8, 0.4, 0.2]","[u'low', u'high', u'medium']","black",50,"middle","high",TRUE,FALSE,275,2050,NA
"A1ZK3LRUC4ICY7","Wed Jan 29 2020 07:10:14 GMT-0600 (Central Standard Time)","Wed Jan 29 2020 07:18:00 GMT-0600 (Central Standard Time)","Mozilla/5.0 (Windows NT 6.3; Win64; x64) AppleWebKit/537.36 (KHTML, like Gecko) Chrome/79.0.3945.130 Safari/537.36",110,"[0.9, 0.5, 0.1]","[0.8, 0.4, 0.2]","[u'blue', u'black', u'red']","[u'left', u'middle', u'right']","[0.8, 0.4, 0.2]","[u'low', u'high', u'medium']","black",50,"middle","high",TRUE,FALSE,273,2150,NA
"A1ZK3LRUC4ICY7","Wed Jan 29 2020 07:10:14 GMT-0600 (Central Standard Time)","Wed Jan 29 2020 07:18:00 GMT-0600 (Central Standard Time)","Mozilla/5.0 (Windows NT 6.3; Win64; x64) AppleWebKit/537.36 (KHTML, like Gecko) Chrome/79.0.3945.130 Safari/537.36",111,"[0.9, 0.5, 0.1]","[0.8, 0.4, 0.2]","[u'blue', u'black', u'red']","[u'left', u'middle', u'right']","[0.8, 0.4, 0.2]","[u'low', u'high', u'medium']","black",50,"middle","high",FALSE,FALSE,314,2100,NA
"A1ZK3LRUC4ICY7","Wed Jan 29 2020 07:10:14 GMT-0600 (Central Standard Time)","Wed Jan 29 2020 07:18:00 GMT-0600 (Central Standard Time)","Mozilla/5.0 (Windows NT 6.3; Win64; x64) AppleWebKit/537.36 (KHTML, like Gecko) Chrome/79.0.3945.130 Safari/537.36",112,"[0.9, 0.5, 0.1]","[0.8, 0.4, 0.2]","[u'blue', u'black', u'red']","[u'left', u'middle', u'right']","[0.8, 0.4, 0.2]","[u'low', u'high', u'medium']","red",51,"right","medium",FALSE,FALSE,43,2050,NA
"A1ZK3LRUC4ICY7","Wed Jan 29 2020 07:10:14 GMT-0600 (Central Standard Time)","Wed Jan 29 2020 07:18:00 GMT-0600 (Central Standard Time)","Mozilla/5.0 (Windows NT 6.3; Win64; x64) AppleWebKit/537.36 (KHTML, like Gecko) Chrome/79.0.3945.130 Safari/537.36",113,"[0.9, 0.5, 0.1]","[0.8, 0.4, 0.2]","[u'blue', u'black', u'red']","[u'left', u'middle', u'right']","[0.8, 0.4, 0.2]","[u'low', u'high', u'medium']","red",51,"right","medium",TRUE,FALSE,387,2150,NA
"A1ZK3LRUC4ICY7","Wed Jan 29 2020 07:10:14 GMT-0600 (Central Standard Time)","Wed Jan 29 2020 07:18:00 GMT-0600 (Central Standard Time)","Mozilla/5.0 (Windows NT 6.3; Win64; x64) AppleWebKit/537.36 (KHTML, like Gecko) Chrome/79.0.3945.130 Safari/537.36",114,"[0.9, 0.5, 0.1]","[0.8, 0.4, 0.2]","[u'blue', u'black', u'red']","[u'left', u'middle', u'right']","[0.8, 0.4, 0.2]","[u'low', u'high', u'medium']","red",51,"right","medium",TRUE,FALSE,331,2250,NA
"A1ZK3LRUC4ICY7","Wed Jan 29 2020 07:10:14 GMT-0600 (Central Standard Time)","Wed Jan 29 2020 07:18:00 GMT-0600 (Central Standard Time)","Mozilla/5.0 (Windows NT 6.3; Win64; x64) AppleWebKit/537.36 (KHTML, like Gecko) Chrome/79.0.3945.130 Safari/537.36",115,"[0.9, 0.5, 0.1]","[0.8, 0.4, 0.2]","[u'blue', u'black', u'red']","[u'left', u'middle', u'right']","[0.8, 0.4, 0.2]","[u'low', u'high', u'medium']","red",51,"right","medium",FALSE,FALSE,290,2200,NA
"A1ZK3LRUC4ICY7","Wed Jan 29 2020 07:10:14 GMT-0600 (Central Standard Time)","Wed Jan 29 2020 07:18:00 GMT-0600 (Central Standard Time)","Mozilla/5.0 (Windows NT 6.3; Win64; x64) AppleWebKit/537.36 (KHTML, like Gecko) Chrome/79.0.3945.130 Safari/537.36",116,"[0.9, 0.5, 0.1]","[0.8, 0.4, 0.2]","[u'blue', u'black', u'red']","[u'left', u'middle', u'right']","[0.8, 0.4, 0.2]","[u'low', u'high', u'medium']","black",50,"middle","high",TRUE,FALSE,259,2300,NA
"A1ZK3LRUC4ICY7","Wed Jan 29 2020 07:10:14 GMT-0600 (Central Standard Time)","Wed Jan 29 2020 07:18:00 GMT-0600 (Central Standard Time)","Mozilla/5.0 (Windows NT 6.3; Win64; x64) AppleWebKit/537.36 (KHTML, like Gecko) Chrome/79.0.3945.130 Safari/537.36",117,"[0.9, 0.5, 0.1]","[0.8, 0.4, 0.2]","[u'blue', u'black', u'red']","[u'left', u'middle', u'right']","[0.8, 0.4, 0.2]","[u'low', u'high', u'medium']","black",50,"middle","high",TRUE,FALSE,291,2400,NA
"A1ZK3LRUC4ICY7","Wed Jan 29 2020 07:10:14 GMT-0600 (Central Standard Time)","Wed Jan 29 2020 07:18:00 GMT-0600 (Central Standard Time)","Mozilla/5.0 (Windows NT 6.3; Win64; x64) AppleWebKit/537.36 (KHTML, like Gecko) Chrome/79.0.3945.130 Safari/537.36",118,"[0.9, 0.5, 0.1]","[0.8, 0.4, 0.2]","[u'blue', u'black', u'red']","[u'left', u'middle', u'right']","[0.8, 0.4, 0.2]","[u'low', u'high', u'medium']","black",50,"middle","high",TRUE,FALSE,282,2500,NA
"A1ZK3LRUC4ICY7","Wed Jan 29 2020 07:10:14 GMT-0600 (Central Standard Time)","Wed Jan 29 2020 07:18:00 GMT-0600 (Central Standard Time)","Mozilla/5.0 (Windows NT 6.3; Win64; x64) AppleWebKit/537.36 (KHTML, like Gecko) Chrome/79.0.3945.130 Safari/537.36",119,"[0.9, 0.5, 0.1]","[0.8, 0.4, 0.2]","[u'blue', u'black', u'red']","[u'left', u'middle', u'right']","[0.8, 0.4, 0.2]","[u'low', u'high', u'medium']","black",50,"middle","high",FALSE,FALSE,66,2450,NA
"A1ZK3LRUC4ICY7","Wed Jan 29 2020 07:10:14 GMT-0600 (Central Standard Time)","Wed Jan 29 2020 07:18:00 GMT-0600 (Central Standard Time)","Mozilla/5.0 (Windows NT 6.3; Win64; x64) AppleWebKit/537.36 (KHTML, like Gecko) Chrome/79.0.3945.130 Safari/537.36",120,"[0.9, 0.5, 0.1]","[0.8, 0.4, 0.2]","[u'blue', u'black', u'red']","[u'left', u'middle', u'right']","[0.8, 0.4, 0.2]","[u'low', u'high', u'medium']","blue",49,"left","low",FALSE,FALSE,243,2400,NA
"A1ZK3LRUC4ICY7","Wed Jan 29 2020 07:10:14 GMT-0600 (Central Standard Time)","Wed Jan 29 2020 07:18:00 GMT-0600 (Central Standard Time)","Mozilla/5.0 (Windows NT 6.3; Win64; x64) AppleWebKit/537.36 (KHTML, like Gecko) Chrome/79.0.3945.130 Safari/537.36",121,"[0.9, 0.5, 0.1]","[0.8, 0.4, 0.2]","[u'blue', u'black', u'red']","[u'left', u'middle', u'right']","[0.8, 0.4, 0.2]","[u'high', u'low', u'medium']","blue",49,"left","high",FALSE,FALSE,555,2350,NA
"A1ZK3LRUC4ICY7","Wed Jan 29 2020 07:10:14 GMT-0600 (Central Standard Time)","Wed Jan 29 2020 07:18:00 GMT-0600 (Central Standard Time)","Mozilla/5.0 (Windows NT 6.3; Win64; x64) AppleWebKit/537.36 (KHTML, like Gecko) Chrome/79.0.3945.130 Safari/537.36",122,"[0.9, 0.5, 0.1]","[0.8, 0.4, 0.2]","[u'blue', u'black', u'red']","[u'left', u'middle', u'right']","[0.8, 0.4, 0.2]","[u'high', u'low', u'medium']","black",50,"middle","low",TRUE,FALSE,243,2450,NA
"A1ZK3LRUC4ICY7","Wed Jan 29 2020 07:10:14 GMT-0600 (Central Standard Time)","Wed Jan 29 2020 07:18:00 GMT-0600 (Central Standard Time)","Mozilla/5.0 (Windows NT 6.3; Win64; x64) AppleWebKit/537.36 (KHTML, like Gecko) Chrome/79.0.3945.130 Safari/537.36",123,"[0.9, 0.5, 0.1]","[0.8, 0.4, 0.2]","[u'blue', u'black', u'red']","[u'left', u'middle', u'right']","[0.8, 0.4, 0.2]","[u'high', u'low', u'medium']","red",51,"right","medium",TRUE,FALSE,282,2550,NA
"A1ZK3LRUC4ICY7","Wed Jan 29 2020 07:10:14 GMT-0600 (Central Standard Time)","Wed Jan 29 2020 07:18:00 GMT-0600 (Central Standard Time)","Mozilla/5.0 (Windows NT 6.3; Win64; x64) AppleWebKit/537.36 (KHTML, like Gecko) Chrome/79.0.3945.130 Safari/537.36",124,"[0.9, 0.5, 0.1]","[0.8, 0.4, 0.2]","[u'blue', u'black', u'red']","[u'left', u'middle', u'right']","[0.8, 0.4, 0.2]","[u'high', u'low', u'medium']","red",51,"right","medium",FALSE,FALSE,467,2500,NA
"A1ZK3LRUC4ICY7","Wed Jan 29 2020 07:10:14 GMT-0600 (Central Standard Time)","Wed Jan 29 2020 07:18:00 GMT-0600 (Central Standard Time)","Mozilla/5.0 (Windows NT 6.3; Win64; x64) AppleWebKit/537.36 (KHTML, like Gecko) Chrome/79.0.3945.130 Safari/537.36",125,"[0.9, 0.5, 0.1]","[0.8, 0.4, 0.2]","[u'blue', u'black', u'red']","[u'left', u'middle', u'right']","[0.8, 0.4, 0.2]","[u'high', u'low', u'medium']","red",51,"right","medium",TRUE,FALSE,498,2600,NA
"A1ZK3LRUC4ICY7","Wed Jan 29 2020 07:10:14 GMT-0600 (Central Standard Time)","Wed Jan 29 2020 07:18:00 GMT-0600 (Central Standard Time)","Mozilla/5.0 (Windows NT 6.3; Win64; x64) AppleWebKit/537.36 (KHTML, like Gecko) Chrome/79.0.3945.130 Safari/537.36",126,"[0.9, 0.5, 0.1]","[0.8, 0.4, 0.2]","[u'blue', u'black', u'red']","[u'left', u'middle', u'right']","[0.8, 0.4, 0.2]","[u'high', u'low', u'medium']","black",50,"middle","low",TRUE,FALSE,363,2700,NA
"A1ZK3LRUC4ICY7","Wed Jan 29 2020 07:10:14 GMT-0600 (Central Standard Time)","Wed Jan 29 2020 07:18:00 GMT-0600 (Central Standard Time)","Mozilla/5.0 (Windows NT 6.3; Win64; x64) AppleWebKit/537.36 (KHTML, like Gecko) Chrome/79.0.3945.130 Safari/537.36",127,"[0.9, 0.5, 0.1]","[0.8, 0.4, 0.2]","[u'blue', u'black', u'red']","[u'left', u'middle', u'right']","[0.8, 0.4, 0.2]","[u'high', u'low', u'medium']","black",50,"middle","low",FALSE,FALSE,283,2650,NA
"A1ZK3LRUC4ICY7","Wed Jan 29 2020 07:10:14 GMT-0600 (Central Standard Time)","Wed Jan 29 2020 07:18:00 GMT-0600 (Central Standard Time)","Mozilla/5.0 (Windows NT 6.3; Win64; x64) AppleWebKit/537.36 (KHTML, like Gecko) Chrome/79.0.3945.130 Safari/537.36",128,"[0.9, 0.5, 0.1]","[0.8, 0.4, 0.2]","[u'blue', u'black', u'red']","[u'left', u'middle', u'right']","[0.8, 0.4, 0.2]","[u'high', u'low', u'medium']","red",51,"right","medium",TRUE,FALSE,506,2750,NA
"A1ZK3LRUC4ICY7","Wed Jan 29 2020 07:10:14 GMT-0600 (Central Standard Time)","Wed Jan 29 2020 07:18:00 GMT-0600 (Central Standard Time)","Mozilla/5.0 (Windows NT 6.3; Win64; x64) AppleWebKit/537.36 (KHTML, like Gecko) Chrome/79.0.3945.130 Safari/537.36",129,"[0.9, 0.5, 0.1]","[0.8, 0.4, 0.2]","[u'blue', u'black', u'red']","[u'left', u'middle', u'right']","[0.8, 0.4, 0.2]","[u'high', u'low', u'medium']","red",51,"right","medium",FALSE,FALSE,323,2700,NA
"A1ZK3LRUC4ICY7","Wed Jan 29 2020 07:10:14 GMT-0600 (Central Standard Time)","Wed Jan 29 2020 07:18:00 GMT-0600 (Central Standard Time)","Mozilla/5.0 (Windows NT 6.3; Win64; x64) AppleWebKit/537.36 (KHTML, like Gecko) Chrome/79.0.3945.130 Safari/537.36",130,"[0.9, 0.5, 0.1]","[0.8, 0.4, 0.2]","[u'blue', u'black', u'red']","[u'left', u'middle', u'right']","[0.8, 0.4, 0.2]","[u'high', u'low', u'medium']","red",51,"right","medium",TRUE,FALSE,291,2800,NA
"A1ZK3LRUC4ICY7","Wed Jan 29 2020 07:10:14 GMT-0600 (Central Standard Time)","Wed Jan 29 2020 07:18:00 GMT-0600 (Central Standard Time)","Mozilla/5.0 (Windows NT 6.3; Win64; x64) AppleWebKit/537.36 (KHTML, like Gecko) Chrome/79.0.3945.130 Safari/537.36",131,"[0.9, 0.5, 0.1]","[0.8, 0.4, 0.2]","[u'blue', u'black', u'red']","[u'left', u'middle', u'right']","[0.8, 0.4, 0.2]","[u'high', u'low', u'medium']","red",51,"right","medium",TRUE,FALSE,474,2900,NA
"A1ZK3LRUC4ICY7","Wed Jan 29 2020 07:10:14 GMT-0600 (Central Standard Time)","Wed Jan 29 2020 07:18:00 GMT-0600 (Central Standard Time)","Mozilla/5.0 (Windows NT 6.3; Win64; x64) AppleWebKit/537.36 (KHTML, like Gecko) Chrome/79.0.3945.130 Safari/537.36",132,"[0.9, 0.5, 0.1]","[0.8, 0.4, 0.2]","[u'blue', u'black', u'red']","[u'left', u'middle', u'right']","[0.8, 0.4, 0.2]","[u'high', u'low', u'medium']","red",51,"right","medium",TRUE,FALSE,843,3000,NA
"A1ZK3LRUC4ICY7","Wed Jan 29 2020 07:10:14 GMT-0600 (Central Standard Time)","Wed Jan 29 2020 07:18:00 GMT-0600 (Central Standard Time)","Mozilla/5.0 (Windows NT 6.3; Win64; x64) AppleWebKit/537.36 (KHTML, like Gecko) Chrome/79.0.3945.130 Safari/537.36",133,"[0.9, 0.5, 0.1]","[0.8, 0.4, 0.2]","[u'blue', u'black', u'red']","[u'left', u'middle', u'right']","[0.8, 0.4, 0.2]","[u'high', u'low', u'medium']","red",51,"right","medium",FALSE,FALSE,618,2950,NA
"A1ZK3LRUC4ICY7","Wed Jan 29 2020 07:10:14 GMT-0600 (Central Standard Time)","Wed Jan 29 2020 07:18:00 GMT-0600 (Central Standard Time)","Mozilla/5.0 (Windows NT 6.3; Win64; x64) AppleWebKit/537.36 (KHTML, like Gecko) Chrome/79.0.3945.130 Safari/537.36",134,"[0.9, 0.5, 0.1]","[0.8, 0.4, 0.2]","[u'blue', u'black', u'red']","[u'left', u'middle', u'right']","[0.8, 0.4, 0.2]","[u'high', u'low', u'medium']","black",50,"middle","low",FALSE,FALSE,274,2900,NA
"A1ZK3LRUC4ICY7","Wed Jan 29 2020 07:10:14 GMT-0600 (Central Standard Time)","Wed Jan 29 2020 07:18:00 GMT-0600 (Central Standard Time)","Mozilla/5.0 (Windows NT 6.3; Win64; x64) AppleWebKit/537.36 (KHTML, like Gecko) Chrome/79.0.3945.130 Safari/537.36",135,"[0.9, 0.5, 0.1]","[0.8, 0.4, 0.2]","[u'blue', u'black', u'red']","[u'left', u'middle', u'right']","[0.8, 0.4, 0.2]","[u'high', u'low', u'medium']","black",50,"middle","low",FALSE,FALSE,370,2850,NA
"A1ZK3LRUC4ICY7","Wed Jan 29 2020 07:10:14 GMT-0600 (Central Standard Time)","Wed Jan 29 2020 07:18:00 GMT-0600 (Central Standard Time)","Mozilla/5.0 (Windows NT 6.3; Win64; x64) AppleWebKit/537.36 (KHTML, like Gecko) Chrome/79.0.3945.130 Safari/537.36",136,"[0.9, 0.5, 0.1]","[0.8, 0.4, 0.2]","[u'blue', u'black', u'red']","[u'left', u'middle', u'right']","[0.8, 0.4, 0.2]","[u'high', u'low', u'medium']","red",51,"right","medium",TRUE,FALSE,299,2950,NA
"A1ZK3LRUC4ICY7","Wed Jan 29 2020 07:10:14 GMT-0600 (Central Standard Time)","Wed Jan 29 2020 07:18:00 GMT-0600 (Central Standard Time)","Mozilla/5.0 (Windows NT 6.3; Win64; x64) AppleWebKit/537.36 (KHTML, like Gecko) Chrome/79.0.3945.130 Safari/537.36",137,"[0.9, 0.5, 0.1]","[0.8, 0.4, 0.2]","[u'blue', u'black', u'red']","[u'left', u'middle', u'right']","[0.8, 0.4, 0.2]","[u'high', u'low', u'medium']","blue",49,"left","high",TRUE,FALSE,1148,3050,NA
"A1ZK3LRUC4ICY7","Wed Jan 29 2020 07:10:14 GMT-0600 (Central Standard Time)","Wed Jan 29 2020 07:18:00 GMT-0600 (Central Standard Time)","Mozilla/5.0 (Windows NT 6.3; Win64; x64) AppleWebKit/537.36 (KHTML, like Gecko) Chrome/79.0.3945.130 Safari/537.36",138,"[0.9, 0.5, 0.1]","[0.8, 0.4, 0.2]","[u'blue', u'black', u'red']","[u'left', u'middle', u'right']","[0.8, 0.4, 0.2]","[u'high', u'low', u'medium']","blue",49,"left","high",TRUE,FALSE,683,3150,NA
"A1ZK3LRUC4ICY7","Wed Jan 29 2020 07:10:14 GMT-0600 (Central Standard Time)","Wed Jan 29 2020 07:18:00 GMT-0600 (Central Standard Time)","Mozilla/5.0 (Windows NT 6.3; Win64; x64) AppleWebKit/537.36 (KHTML, like Gecko) Chrome/79.0.3945.130 Safari/537.36",139,"[0.9, 0.5, 0.1]","[0.8, 0.4, 0.2]","[u'blue', u'black', u'red']","[u'left', u'middle', u'right']","[0.8, 0.4, 0.2]","[u'high', u'low', u'medium']","black",50,"middle","low",TRUE,FALSE,266,3250,NA
"A1ZK3LRUC4ICY7","Wed Jan 29 2020 07:10:14 GMT-0600 (Central Standard Time)","Wed Jan 29 2020 07:18:00 GMT-0600 (Central Standard Time)","Mozilla/5.0 (Windows NT 6.3; Win64; x64) AppleWebKit/537.36 (KHTML, like Gecko) Chrome/79.0.3945.130 Safari/537.36",140,"[0.9, 0.5, 0.1]","[0.8, 0.4, 0.2]","[u'blue', u'black', u'red']","[u'left', u'middle', u'right']","[0.8, 0.4, 0.2]","[u'high', u'low', u'medium']","black",50,"middle","low",FALSE,FALSE,274,3200,NA
"A1ZK3LRUC4ICY7","Wed Jan 29 2020 07:10:14 GMT-0600 (Central Standard Time)","Wed Jan 29 2020 07:18:00 GMT-0600 (Central Standard Time)","Mozilla/5.0 (Windows NT 6.3; Win64; x64) AppleWebKit/537.36 (KHTML, like Gecko) Chrome/79.0.3945.130 Safari/537.36",141,"[0.9, 0.5, 0.1]","[0.8, 0.4, 0.2]","[u'blue', u'black', u'red']","[u'left', u'middle', u'right']","[0.8, 0.4, 0.2]","[u'high', u'low', u'medium']","red",51,"right","medium",FALSE,FALSE,266,3150,NA
"A1ZK3LRUC4ICY7","Wed Jan 29 2020 07:10:14 GMT-0600 (Central Standard Time)","Wed Jan 29 2020 07:18:00 GMT-0600 (Central Standard Time)","Mozilla/5.0 (Windows NT 6.3; Win64; x64) AppleWebKit/537.36 (KHTML, like Gecko) Chrome/79.0.3945.130 Safari/537.36",142,"[0.9, 0.5, 0.1]","[0.8, 0.4, 0.2]","[u'blue', u'black', u'red']","[u'left', u'middle', u'right']","[0.8, 0.4, 0.2]","[u'high', u'low', u'medium']","red",51,"right","medium",TRUE,FALSE,195,3250,NA
"A1ZK3LRUC4ICY7","Wed Jan 29 2020 07:10:14 GMT-0600 (Central Standard Time)","Wed Jan 29 2020 07:18:00 GMT-0600 (Central Standard Time)","Mozilla/5.0 (Windows NT 6.3; Win64; x64) AppleWebKit/537.36 (KHTML, like Gecko) Chrome/79.0.3945.130 Safari/537.36",143,"[0.9, 0.5, 0.1]","[0.8, 0.4, 0.2]","[u'blue', u'black', u'red']","[u'left', u'middle', u'right']","[0.8, 0.4, 0.2]","[u'high', u'low', u'medium']","blue",49,"left","high",FALSE,FALSE,308,3200,NA
"A1ZK3LRUC4ICY7","Wed Jan 29 2020 07:10:14 GMT-0600 (Central Standard Time)","Wed Jan 29 2020 07:18:00 GMT-0600 (Central Standard Time)","Mozilla/5.0 (Windows NT 6.3; Win64; x64) AppleWebKit/537.36 (KHTML, like Gecko) Chrome/79.0.3945.130 Safari/537.36",144,"[0.9, 0.5, 0.1]","[0.8, 0.4, 0.2]","[u'blue', u'black', u'red']","[u'left', u'middle', u'right']","[0.8, 0.4, 0.2]","[u'high', u'low', u'medium']","black",50,"middle","low",FALSE,FALSE,290,3150,NA
"A1ZK3LRUC4ICY7","Wed Jan 29 2020 07:10:14 GMT-0600 (Central Standard Time)","Wed Jan 29 2020 07:18:00 GMT-0600 (Central Standard Time)","Mozilla/5.0 (Windows NT 6.3; Win64; x64) AppleWebKit/537.36 (KHTML, like Gecko) Chrome/79.0.3945.130 Safari/537.36",145,"[0.9, 0.5, 0.1]","[0.8, 0.4, 0.2]","[u'blue', u'black', u'red']","[u'left', u'middle', u'right']","[0.8, 0.4, 0.2]","[u'high', u'low', u'medium']","red",51,"right","medium",FALSE,FALSE,274,3100,NA
"A1ZK3LRUC4ICY7","Wed Jan 29 2020 07:10:14 GMT-0600 (Central Standard Time)","Wed Jan 29 2020 07:18:00 GMT-0600 (Central Standard Time)","Mozilla/5.0 (Windows NT 6.3; Win64; x64) AppleWebKit/537.36 (KHTML, like Gecko) Chrome/79.0.3945.130 Safari/537.36",146,"[0.9, 0.5, 0.1]","[0.8, 0.4, 0.2]","[u'blue', u'black', u'red']","[u'left', u'middle', u'right']","[0.8, 0.4, 0.2]","[u'high', u'low', u'medium']","red",51,"right","medium",FALSE,FALSE,131,3050,NA
"A1ZK3LRUC4ICY7","Wed Jan 29 2020 07:10:14 GMT-0600 (Central Standard Time)","Wed Jan 29 2020 07:18:00 GMT-0600 (Central Standard Time)","Mozilla/5.0 (Windows NT 6.3; Win64; x64) AppleWebKit/537.36 (KHTML, like Gecko) Chrome/79.0.3945.130 Safari/537.36",147,"[0.9, 0.5, 0.1]","[0.8, 0.4, 0.2]","[u'blue', u'black', u'red']","[u'left', u'middle', u'right']","[0.8, 0.4, 0.2]","[u'high', u'low', u'medium']","black",50,"middle","low",FALSE,FALSE,290,3000,NA
"A1ZK3LRUC4ICY7","Wed Jan 29 2020 07:10:14 GMT-0600 (Central Standard Time)","Wed Jan 29 2020 07:18:00 GMT-0600 (Central Standard Time)","Mozilla/5.0 (Windows NT 6.3; Win64; x64) AppleWebKit/537.36 (KHTML, like Gecko) Chrome/79.0.3945.130 Safari/537.36",148,"[0.9, 0.5, 0.1]","[0.8, 0.4, 0.2]","[u'blue', u'black', u'red']","[u'left', u'middle', u'right']","[0.8, 0.4, 0.2]","[u'high', u'low', u'medium']","red",51,"right","medium",TRUE,FALSE,163,3100,NA
"A1ZK3LRUC4ICY7","Wed Jan 29 2020 07:10:14 GMT-0600 (Central Standard Time)","Wed Jan 29 2020 07:18:00 GMT-0600 (Central Standard Time)","Mozilla/5.0 (Windows NT 6.3; Win64; x64) AppleWebKit/537.36 (KHTML, like Gecko) Chrome/79.0.3945.130 Safari/537.36",149,"[0.9, 0.5, 0.1]","[0.8, 0.4, 0.2]","[u'blue', u'black', u'red']","[u'left', u'middle', u'right']","[0.8, 0.4, 0.2]","[u'high', u'low', u'medium']","black",50,"middle","low",FALSE,FALSE,339,3050,NA
"A1ZK3LRUC4ICY7","Wed Jan 29 2020 07:10:14 GMT-0600 (Central Standard Time)","Wed Jan 29 2020 07:18:00 GMT-0600 (Central Standard Time)","Mozilla/5.0 (Windows NT 6.3; Win64; x64) AppleWebKit/537.36 (KHTML, like Gecko) Chrome/79.0.3945.130 Safari/537.36",150,"[0.9, 0.5, 0.1]","[0.8, 0.4, 0.2]","[u'blue', u'black', u'red']","[u'left', u'middle', u'right']","[0.8, 0.4, 0.2]","[u'high', u'low', u'medium']","red",51,"right","medium",FALSE,FALSE,347,3000,NA
"A1ZK3LRUC4ICY7","Wed Jan 29 2020 07:10:14 GMT-0600 (Central Standard Time)","Wed Jan 29 2020 07:18:00 GMT-0600 (Central Standard Time)","Mozilla/5.0 (Windows NT 6.3; Win64; x64) AppleWebKit/537.36 (KHTML, like Gecko) Chrome/79.0.3945.130 Safari/537.36",151,"[0.9, 0.5, 0.1]","[0.8, 0.4, 0.2]","[u'blue', u'black', u'red']","[u'left', u'middle', u'right']","[0.8, 0.4, 0.2]","[u'high', u'low', u'medium']","red",51,"right","medium",FALSE,FALSE,466,2950,NA
"A1ZK3LRUC4ICY7","Wed Jan 29 2020 07:10:14 GMT-0600 (Central Standard Time)","Wed Jan 29 2020 07:18:00 GMT-0600 (Central Standard Time)","Mozilla/5.0 (Windows NT 6.3; Win64; x64) AppleWebKit/537.36 (KHTML, like Gecko) Chrome/79.0.3945.130 Safari/537.36",152,"[0.9, 0.5, 0.1]","[0.8, 0.4, 0.2]","[u'blue', u'black', u'red']","[u'left', u'middle', u'right']","[0.8, 0.4, 0.2]","[u'high', u'low', u'medium']","blue",49,"left","high",FALSE,FALSE,147,2900,NA
"A1ZK3LRUC4ICY7","Wed Jan 29 2020 07:10:14 GMT-0600 (Central Standard Time)","Wed Jan 29 2020 07:18:00 GMT-0600 (Central Standard Time)","Mozilla/5.0 (Windows NT 6.3; Win64; x64) AppleWebKit/537.36 (KHTML, like Gecko) Chrome/79.0.3945.130 Safari/537.36",153,"[0.9, 0.5, 0.1]","[0.8, 0.4, 0.2]","[u'blue', u'black', u'red']","[u'left', u'middle', u'right']","[0.8, 0.4, 0.2]","[u'high', u'low', u'medium']","black",50,"middle","low",FALSE,FALSE,251,2850,NA
"A1ZK3LRUC4ICY7","Wed Jan 29 2020 07:10:14 GMT-0600 (Central Standard Time)","Wed Jan 29 2020 07:18:00 GMT-0600 (Central Standard Time)","Mozilla/5.0 (Windows NT 6.3; Win64; x64) AppleWebKit/537.36 (KHTML, like Gecko) Chrome/79.0.3945.130 Safari/537.36",154,"[0.9, 0.5, 0.1]","[0.8, 0.4, 0.2]","[u'blue', u'black', u'red']","[u'left', u'middle', u'right']","[0.8, 0.4, 0.2]","[u'high', u'low', u'medium']","black",50,"middle","low",FALSE,FALSE,203,2800,NA
"A1ZK3LRUC4ICY7","Wed Jan 29 2020 07:10:14 GMT-0600 (Central Standard Time)","Wed Jan 29 2020 07:18:00 GMT-0600 (Central Standard Time)","Mozilla/5.0 (Windows NT 6.3; Win64; x64) AppleWebKit/537.36 (KHTML, like Gecko) Chrome/79.0.3945.130 Safari/537.36",155,"[0.9, 0.5, 0.1]","[0.8, 0.4, 0.2]","[u'blue', u'black', u'red']","[u'left', u'middle', u'right']","[0.8, 0.4, 0.2]","[u'high', u'low', u'medium']","blue",49,"left","high",TRUE,FALSE,323,2900,NA
"A1ZK3LRUC4ICY7","Wed Jan 29 2020 07:10:14 GMT-0600 (Central Standard Time)","Wed Jan 29 2020 07:18:00 GMT-0600 (Central Standard Time)","Mozilla/5.0 (Windows NT 6.3; Win64; x64) AppleWebKit/537.36 (KHTML, like Gecko) Chrome/79.0.3945.130 Safari/537.36",156,"[0.9, 0.5, 0.1]","[0.8, 0.4, 0.2]","[u'blue', u'black', u'red']","[u'left', u'middle', u'right']","[0.8, 0.4, 0.2]","[u'high', u'low', u'medium']","blue",49,"left","high",FALSE,FALSE,146,2850,NA
"A1ZK3LRUC4ICY7","Wed Jan 29 2020 07:10:14 GMT-0600 (Central Standard Time)","Wed Jan 29 2020 07:18:00 GMT-0600 (Central Standard Time)","Mozilla/5.0 (Windows NT 6.3; Win64; x64) AppleWebKit/537.36 (KHTML, like Gecko) Chrome/79.0.3945.130 Safari/537.36",157,"[0.9, 0.5, 0.1]","[0.8, 0.4, 0.2]","[u'blue', u'black', u'red']","[u'left', u'middle', u'right']","[0.8, 0.4, 0.2]","[u'high', u'low', u'medium']","red",51,"right","medium",FALSE,FALSE,283,2800,NA
"A1ZK3LRUC4ICY7","Wed Jan 29 2020 07:10:14 GMT-0600 (Central Standard Time)","Wed Jan 29 2020 07:18:00 GMT-0600 (Central Standard Time)","Mozilla/5.0 (Windows NT 6.3; Win64; x64) AppleWebKit/537.36 (KHTML, like Gecko) Chrome/79.0.3945.130 Safari/537.36",158,"[0.9, 0.5, 0.1]","[0.8, 0.4, 0.2]","[u'blue', u'black', u'red']","[u'left', u'middle', u'right']","[0.8, 0.4, 0.2]","[u'high', u'low', u'medium']","blue",49,"left","high",TRUE,FALSE,227,2900,NA
"A1ZK3LRUC4ICY7","Wed Jan 29 2020 07:10:14 GMT-0600 (Central Standard Time)","Wed Jan 29 2020 07:18:00 GMT-0600 (Central Standard Time)","Mozilla/5.0 (Windows NT 6.3; Win64; x64) AppleWebKit/537.36 (KHTML, like Gecko) Chrome/79.0.3945.130 Safari/537.36",159,"[0.9, 0.5, 0.1]","[0.8, 0.4, 0.2]","[u'blue', u'black', u'red']","[u'left', u'middle', u'right']","[0.8, 0.4, 0.2]","[u'high', u'low', u'medium']","black",50,"middle","low",FALSE,FALSE,634,2850,NA
"A1ZK3LRUC4ICY7","Wed Jan 29 2020 07:10:14 GMT-0600 (Central Standard Time)","Wed Jan 29 2020 07:18:00 GMT-0600 (Central Standard Time)","Mozilla/5.0 (Windows NT 6.3; Win64; x64) AppleWebKit/537.36 (KHTML, like Gecko) Chrome/79.0.3945.130 Safari/537.36",160,"[0.9, 0.5, 0.1]","[0.8, 0.4, 0.2]","[u'blue', u'black', u'red']","[u'left', u'middle', u'right']","[0.8, 0.4, 0.2]","[u'high', u'low', u'medium']","blue",49,"left","high",TRUE,FALSE,339,2950,NA
