"src_subject_id","start_time","end_time","browser","index","first_half_probabilities","second_half_probabilities","deck_color","deck_position","deck_probabilities","deck_contingencies","response_color","key_press","response_position","response_probability","reward_type","trial_type","rt","reward_tally","exclusion_reason"
"A1MNY9OSINZ2GA","Mon Sep 21 2020 10:43:37 GMT-0400 (Eastern Daylight Time)","Mon Sep 21 2020 10:55:15 GMT-0400 (Eastern Daylight Time)","Mozilla/5.0 (Windows NT 6.1; Win64; x64) AppleWebKit/537.36 (KHTML, like Gecko) Chrome/85.0.4183.102 Safari/537.36",1,"[0.9, 0.5, 0.1]","[0.8, 0.4, 0.2]","[u'blue', u'black', u'red']","[u'left', u'middle', u'right']","[0.9, 0.5, 0.1]","[u'low', u'high', u'medium']","blue",49,"left","low","False","False",2343,-50,NA
"A1MNY9OSINZ2GA","Mon Sep 21 2020 10:43:37 GMT-0400 (Eastern Daylight Time)","Mon Sep 21 2020 10:55:15 GMT-0400 (Eastern Daylight Time)","Mozilla/5.0 (Windows NT 6.1; Win64; x64) AppleWebKit/537.36 (KHTML, like Gecko) Chrome/85.0.4183.102 Safari/537.36",2,"[0.9, 0.5, 0.1]","[0.8, 0.4, 0.2]","[u'blue', u'black', u'red']","[u'left', u'middle', u'right']","[0.9, 0.5, 0.1]","[u'low', u'high', u'medium']","red",51,"right","medium","False","False",1423,-100,NA
"A1MNY9OSINZ2GA","Mon Sep 21 2020 10:43:37 GMT-0400 (Eastern Daylight Time)","Mon Sep 21 2020 10:55:15 GMT-0400 (Eastern Daylight Time)","Mozilla/5.0 (Windows NT 6.1; Win64; x64) AppleWebKit/537.36 (KHTML, like Gecko) Chrome/85.0.4183.102 Safari/537.36",3,"[0.9, 0.5, 0.1]","[0.8, 0.4, 0.2]","[u'blue', u'black', u'red']","[u'left', u'middle', u'right']","[0.9, 0.5, 0.1]","[u'low', u'high', u'medium']","black",50,"middle","high","True","False",879,0,NA
"A1MNY9OSINZ2GA","Mon Sep 21 2020 10:43:37 GMT-0400 (Eastern Daylight Time)","Mon Sep 21 2020 10:55:15 GMT-0400 (Eastern Daylight Time)","Mozilla/5.0 (Windows NT 6.1; Win64; x64) AppleWebKit/537.36 (KHTML, like Gecko) Chrome/85.0.4183.102 Safari/537.36",4,"[0.9, 0.5, 0.1]","[0.8, 0.4, 0.2]","[u'blue', u'black', u'red']","[u'left', u'middle', u'right']","[0.9, 0.5, 0.1]","[u'low', u'high', u'medium']","black",50,"middle","high","True","False",1265,100,NA
"A1MNY9OSINZ2GA","Mon Sep 21 2020 10:43:37 GMT-0400 (Eastern Daylight Time)","Mon Sep 21 2020 10:55:15 GMT-0400 (Eastern Daylight Time)","Mozilla/5.0 (Windows NT 6.1; Win64; x64) AppleWebKit/537.36 (KHTML, like Gecko) Chrome/85.0.4183.102 Safari/537.36",5,"[0.9, 0.5, 0.1]","[0.8, 0.4, 0.2]","[u'blue', u'black', u'red']","[u'left', u'middle', u'right']","[0.9, 0.5, 0.1]","[u'low', u'high', u'medium']","black",50,"middle","high","True","False",1228,200,NA
"A1MNY9OSINZ2GA","Mon Sep 21 2020 10:43:37 GMT-0400 (Eastern Daylight Time)","Mon Sep 21 2020 10:55:15 GMT-0400 (Eastern Daylight Time)","Mozilla/5.0 (Windows NT 6.1; Win64; x64) AppleWebKit/537.36 (KHTML, like Gecko) Chrome/85.0.4183.102 Safari/537.36",6,"[0.9, 0.5, 0.1]","[0.8, 0.4, 0.2]","[u'blue', u'black', u'red']","[u'left', u'middle', u'right']","[0.9, 0.5, 0.1]","[u'low', u'high', u'medium']","black",50,"middle","high","False","False",789,150,NA
"A1MNY9OSINZ2GA","Mon Sep 21 2020 10:43:37 GMT-0400 (Eastern Daylight Time)","Mon Sep 21 2020 10:55:15 GMT-0400 (Eastern Daylight Time)","Mozilla/5.0 (Windows NT 6.1; Win64; x64) AppleWebKit/537.36 (KHTML, like Gecko) Chrome/85.0.4183.102 Safari/537.36",7,"[0.9, 0.5, 0.1]","[0.8, 0.4, 0.2]","[u'blue', u'black', u'red']","[u'left', u'middle', u'right']","[0.9, 0.5, 0.1]","[u'low', u'high', u'medium']","blue",49,"left","low","True","False",2295,250,NA
"A1MNY9OSINZ2GA","Mon Sep 21 2020 10:43:37 GMT-0400 (Eastern Daylight Time)","Mon Sep 21 2020 10:55:15 GMT-0400 (Eastern Daylight Time)","Mozilla/5.0 (Windows NT 6.1; Win64; x64) AppleWebKit/537.36 (KHTML, like Gecko) Chrome/85.0.4183.102 Safari/537.36",8,"[0.9, 0.5, 0.1]","[0.8, 0.4, 0.2]","[u'blue', u'black', u'red']","[u'left', u'middle', u'right']","[0.9, 0.5, 0.1]","[u'low', u'high', u'medium']","blue",49,"left","low","False","False",1685,200,NA
"A1MNY9OSINZ2GA","Mon Sep 21 2020 10:43:37 GMT-0400 (Eastern Daylight Time)","Mon Sep 21 2020 10:55:15 GMT-0400 (Eastern Daylight Time)","Mozilla/5.0 (Windows NT 6.1; Win64; x64) AppleWebKit/537.36 (KHTML, like Gecko) Chrome/85.0.4183.102 Safari/537.36",9,"[0.9, 0.5, 0.1]","[0.8, 0.4, 0.2]","[u'blue', u'black', u'red']","[u'left', u'middle', u'right']","[0.9, 0.5, 0.1]","[u'low', u'high', u'medium']","red",51,"right","medium","False","False",1032,150,NA
"A1MNY9OSINZ2GA","Mon Sep 21 2020 10:43:37 GMT-0400 (Eastern Daylight Time)","Mon Sep 21 2020 10:55:15 GMT-0400 (Eastern Daylight Time)","Mozilla/5.0 (Windows NT 6.1; Win64; x64) AppleWebKit/537.36 (KHTML, like Gecko) Chrome/85.0.4183.102 Safari/537.36",10,"[0.9, 0.5, 0.1]","[0.8, 0.4, 0.2]","[u'blue', u'black', u'red']","[u'left', u'middle', u'right']","[0.9, 0.5, 0.1]","[u'low', u'high', u'medium']","black",50,"middle","high","True","False",864,250,NA
"A1MNY9OSINZ2GA","Mon Sep 21 2020 10:43:37 GMT-0400 (Eastern Daylight Time)","Mon Sep 21 2020 10:55:15 GMT-0400 (Eastern Daylight Time)","Mozilla/5.0 (Windows NT 6.1; Win64; x64) AppleWebKit/537.36 (KHTML, like Gecko) Chrome/85.0.4183.102 Safari/537.36",11,"[0.9, 0.5, 0.1]","[0.8, 0.4, 0.2]","[u'blue', u'black', u'red']","[u'left', u'middle', u'right']","[0.9, 0.5, 0.1]","[u'low', u'high', u'medium']","black",50,"middle","high","True","False",599,350,NA
"A1MNY9OSINZ2GA","Mon Sep 21 2020 10:43:37 GMT-0400 (Eastern Daylight Time)","Mon Sep 21 2020 10:55:15 GMT-0400 (Eastern Daylight Time)","Mozilla/5.0 (Windows NT 6.1; Win64; x64) AppleWebKit/537.36 (KHTML, like Gecko) Chrome/85.0.4183.102 Safari/537.36",12,"[0.9, 0.5, 0.1]","[0.8, 0.4, 0.2]","[u'blue', u'black', u'red']","[u'left', u'middle', u'right']","[0.9, 0.5, 0.1]","[u'low', u'high', u'medium']","blue",49,"left","low","False","False",1113,300,NA
"A1MNY9OSINZ2GA","Mon Sep 21 2020 10:43:37 GMT-0400 (Eastern Daylight Time)","Mon Sep 21 2020 10:55:15 GMT-0400 (Eastern Daylight Time)","Mozilla/5.0 (Windows NT 6.1; Win64; x64) AppleWebKit/537.36 (KHTML, like Gecko) Chrome/85.0.4183.102 Safari/537.36",13,"[0.9, 0.5, 0.1]","[0.8, 0.4, 0.2]","[u'blue', u'black', u'red']","[u'left', u'middle', u'right']","[0.9, 0.5, 0.1]","[u'low', u'high', u'medium']","red",51,"right","medium","False","False",1270,250,NA
"A1MNY9OSINZ2GA","Mon Sep 21 2020 10:43:37 GMT-0400 (Eastern Daylight Time)","Mon Sep 21 2020 10:55:15 GMT-0400 (Eastern Daylight Time)","Mozilla/5.0 (Windows NT 6.1; Win64; x64) AppleWebKit/537.36 (KHTML, like Gecko) Chrome/85.0.4183.102 Safari/537.36",14,"[0.9, 0.5, 0.1]","[0.8, 0.4, 0.2]","[u'blue', u'black', u'red']","[u'left', u'middle', u'right']","[0.9, 0.5, 0.1]","[u'low', u'high', u'medium']","black",50,"middle","high","True","False",1297,350,NA
"A1MNY9OSINZ2GA","Mon Sep 21 2020 10:43:37 GMT-0400 (Eastern Daylight Time)","Mon Sep 21 2020 10:55:15 GMT-0400 (Eastern Daylight Time)","Mozilla/5.0 (Windows NT 6.1; Win64; x64) AppleWebKit/537.36 (KHTML, like Gecko) Chrome/85.0.4183.102 Safari/537.36",15,"[0.9, 0.5, 0.1]","[0.8, 0.4, 0.2]","[u'blue', u'black', u'red']","[u'left', u'middle', u'right']","[0.9, 0.5, 0.1]","[u'low', u'high', u'medium']","black",50,"middle","high","False","False",659,300,NA
"A1MNY9OSINZ2GA","Mon Sep 21 2020 10:43:37 GMT-0400 (Eastern Daylight Time)","Mon Sep 21 2020 10:55:15 GMT-0400 (Eastern Daylight Time)","Mozilla/5.0 (Windows NT 6.1; Win64; x64) AppleWebKit/537.36 (KHTML, like Gecko) Chrome/85.0.4183.102 Safari/537.36",16,"[0.9, 0.5, 0.1]","[0.8, 0.4, 0.2]","[u'blue', u'black', u'red']","[u'left', u'middle', u'right']","[0.9, 0.5, 0.1]","[u'low', u'high', u'medium']","blue",49,"left","low","False","False",649,250,NA
"A1MNY9OSINZ2GA","Mon Sep 21 2020 10:43:37 GMT-0400 (Eastern Daylight Time)","Mon Sep 21 2020 10:55:15 GMT-0400 (Eastern Daylight Time)","Mozilla/5.0 (Windows NT 6.1; Win64; x64) AppleWebKit/537.36 (KHTML, like Gecko) Chrome/85.0.4183.102 Safari/537.36",17,"[0.9, 0.5, 0.1]","[0.8, 0.4, 0.2]","[u'blue', u'black', u'red']","[u'left', u'middle', u'right']","[0.9, 0.5, 0.1]","[u'low', u'high', u'medium']","black",50,"middle","high","True","False",519,350,NA
"A1MNY9OSINZ2GA","Mon Sep 21 2020 10:43:37 GMT-0400 (Eastern Daylight Time)","Mon Sep 21 2020 10:55:15 GMT-0400 (Eastern Daylight Time)","Mozilla/5.0 (Windows NT 6.1; Win64; x64) AppleWebKit/537.36 (KHTML, like Gecko) Chrome/85.0.4183.102 Safari/537.36",18,"[0.9, 0.5, 0.1]","[0.8, 0.4, 0.2]","[u'blue', u'black', u'red']","[u'left', u'middle', u'right']","[0.9, 0.5, 0.1]","[u'low', u'high', u'medium']","black",50,"middle","high","True","False",826,450,NA
"A1MNY9OSINZ2GA","Mon Sep 21 2020 10:43:37 GMT-0400 (Eastern Daylight Time)","Mon Sep 21 2020 10:55:15 GMT-0400 (Eastern Daylight Time)","Mozilla/5.0 (Windows NT 6.1; Win64; x64) AppleWebKit/537.36 (KHTML, like Gecko) Chrome/85.0.4183.102 Safari/537.36",19,"[0.9, 0.5, 0.1]","[0.8, 0.4, 0.2]","[u'blue', u'black', u'red']","[u'left', u'middle', u'right']","[0.9, 0.5, 0.1]","[u'low', u'high', u'medium']","black",50,"middle","high","False","False",632,400,NA
"A1MNY9OSINZ2GA","Mon Sep 21 2020 10:43:37 GMT-0400 (Eastern Daylight Time)","Mon Sep 21 2020 10:55:15 GMT-0400 (Eastern Daylight Time)","Mozilla/5.0 (Windows NT 6.1; Win64; x64) AppleWebKit/537.36 (KHTML, like Gecko) Chrome/85.0.4183.102 Safari/537.36",20,"[0.9, 0.5, 0.1]","[0.8, 0.4, 0.2]","[u'blue', u'black', u'red']","[u'left', u'middle', u'right']","[0.9, 0.5, 0.1]","[u'low', u'high', u'medium']","black",50,"middle","high","True","False",698,500,NA
"A1MNY9OSINZ2GA","Mon Sep 21 2020 10:43:37 GMT-0400 (Eastern Daylight Time)","Mon Sep 21 2020 10:55:15 GMT-0400 (Eastern Daylight Time)","Mozilla/5.0 (Windows NT 6.1; Win64; x64) AppleWebKit/537.36 (KHTML, like Gecko) Chrome/85.0.4183.102 Safari/537.36",21,"[0.9, 0.5, 0.1]","[0.8, 0.4, 0.2]","[u'blue', u'black', u'red']","[u'left', u'middle', u'right']","[0.9, 0.5, 0.1]","[u'low', u'high', u'medium']","black",50,"middle","high","True","False",989,600,NA
"A1MNY9OSINZ2GA","Mon Sep 21 2020 10:43:37 GMT-0400 (Eastern Daylight Time)","Mon Sep 21 2020 10:55:15 GMT-0400 (Eastern Daylight Time)","Mozilla/5.0 (Windows NT 6.1; Win64; x64) AppleWebKit/537.36 (KHTML, like Gecko) Chrome/85.0.4183.102 Safari/537.36",22,"[0.9, 0.5, 0.1]","[0.8, 0.4, 0.2]","[u'blue', u'black', u'red']","[u'left', u'middle', u'right']","[0.9, 0.5, 0.1]","[u'low', u'high', u'medium']","black",50,"middle","high","False","False",823,550,NA
"A1MNY9OSINZ2GA","Mon Sep 21 2020 10:43:37 GMT-0400 (Eastern Daylight Time)","Mon Sep 21 2020 10:55:15 GMT-0400 (Eastern Daylight Time)","Mozilla/5.0 (Windows NT 6.1; Win64; x64) AppleWebKit/537.36 (KHTML, like Gecko) Chrome/85.0.4183.102 Safari/537.36",23,"[0.9, 0.5, 0.1]","[0.8, 0.4, 0.2]","[u'blue', u'black', u'red']","[u'left', u'middle', u'right']","[0.9, 0.5, 0.1]","[u'low', u'high', u'medium']","black",50,"middle","high","True","True",666,650,NA
"A1MNY9OSINZ2GA","Mon Sep 21 2020 10:43:37 GMT-0400 (Eastern Daylight Time)","Mon Sep 21 2020 10:55:15 GMT-0400 (Eastern Daylight Time)","Mozilla/5.0 (Windows NT 6.1; Win64; x64) AppleWebKit/537.36 (KHTML, like Gecko) Chrome/85.0.4183.102 Safari/537.36",24,"[0.9, 0.5, 0.1]","[0.8, 0.4, 0.2]","[u'blue', u'black', u'red']","[u'left', u'middle', u'right']","[0.9, 0.5, 0.1]","[u'low', u'medium', u'high']","black",50,"middle","medium","True","False",762,750,NA
"A1MNY9OSINZ2GA","Mon Sep 21 2020 10:43:37 GMT-0400 (Eastern Daylight Time)","Mon Sep 21 2020 10:55:15 GMT-0400 (Eastern Daylight Time)","Mozilla/5.0 (Windows NT 6.1; Win64; x64) AppleWebKit/537.36 (KHTML, like Gecko) Chrome/85.0.4183.102 Safari/537.36",25,"[0.9, 0.5, 0.1]","[0.8, 0.4, 0.2]","[u'blue', u'black', u'red']","[u'left', u'middle', u'right']","[0.9, 0.5, 0.1]","[u'low', u'medium', u'high']","red",51,"right","high","True","False",1499,850,NA
"A1MNY9OSINZ2GA","Mon Sep 21 2020 10:43:37 GMT-0400 (Eastern Daylight Time)","Mon Sep 21 2020 10:55:15 GMT-0400 (Eastern Daylight Time)","Mozilla/5.0 (Windows NT 6.1; Win64; x64) AppleWebKit/537.36 (KHTML, like Gecko) Chrome/85.0.4183.102 Safari/537.36",26,"[0.9, 0.5, 0.1]","[0.8, 0.4, 0.2]","[u'blue', u'black', u'red']","[u'left', u'middle', u'right']","[0.9, 0.5, 0.1]","[u'low', u'medium', u'high']","black",50,"middle","medium","False","False",949,800,NA
"A1MNY9OSINZ2GA","Mon Sep 21 2020 10:43:37 GMT-0400 (Eastern Daylight Time)","Mon Sep 21 2020 10:55:15 GMT-0400 (Eastern Daylight Time)","Mozilla/5.0 (Windows NT 6.1; Win64; x64) AppleWebKit/537.36 (KHTML, like Gecko) Chrome/85.0.4183.102 Safari/537.36",27,"[0.9, 0.5, 0.1]","[0.8, 0.4, 0.2]","[u'blue', u'black', u'red']","[u'left', u'middle', u'right']","[0.9, 0.5, 0.1]","[u'low', u'medium', u'high']","black",50,"middle","medium","True","False",484,900,NA
"A1MNY9OSINZ2GA","Mon Sep 21 2020 10:43:37 GMT-0400 (Eastern Daylight Time)","Mon Sep 21 2020 10:55:15 GMT-0400 (Eastern Daylight Time)","Mozilla/5.0 (Windows NT 6.1; Win64; x64) AppleWebKit/537.36 (KHTML, like Gecko) Chrome/85.0.4183.102 Safari/537.36",28,"[0.9, 0.5, 0.1]","[0.8, 0.4, 0.2]","[u'blue', u'black', u'red']","[u'left', u'middle', u'right']","[0.9, 0.5, 0.1]","[u'low', u'medium', u'high']","black",50,"middle","medium","False","False",1016,850,NA
"A1MNY9OSINZ2GA","Mon Sep 21 2020 10:43:37 GMT-0400 (Eastern Daylight Time)","Mon Sep 21 2020 10:55:15 GMT-0400 (Eastern Daylight Time)","Mozilla/5.0 (Windows NT 6.1; Win64; x64) AppleWebKit/537.36 (KHTML, like Gecko) Chrome/85.0.4183.102 Safari/537.36",29,"[0.9, 0.5, 0.1]","[0.8, 0.4, 0.2]","[u'blue', u'black', u'red']","[u'left', u'middle', u'right']","[0.9, 0.5, 0.1]","[u'low', u'medium', u'high']","black",50,"middle","medium","True","False",837,950,NA
"A1MNY9OSINZ2GA","Mon Sep 21 2020 10:43:37 GMT-0400 (Eastern Daylight Time)","Mon Sep 21 2020 10:55:15 GMT-0400 (Eastern Daylight Time)","Mozilla/5.0 (Windows NT 6.1; Win64; x64) AppleWebKit/537.36 (KHTML, like Gecko) Chrome/85.0.4183.102 Safari/537.36",30,"[0.9, 0.5, 0.1]","[0.8, 0.4, 0.2]","[u'blue', u'black', u'red']","[u'left', u'middle', u'right']","[0.9, 0.5, 0.1]","[u'low', u'medium', u'high']","black",50,"middle","medium","False","False",589,900,NA
"A1MNY9OSINZ2GA","Mon Sep 21 2020 10:43:37 GMT-0400 (Eastern Daylight Time)","Mon Sep 21 2020 10:55:15 GMT-0400 (Eastern Daylight Time)","Mozilla/5.0 (Windows NT 6.1; Win64; x64) AppleWebKit/537.36 (KHTML, like Gecko) Chrome/85.0.4183.102 Safari/537.36",31,"[0.9, 0.5, 0.1]","[0.8, 0.4, 0.2]","[u'blue', u'black', u'red']","[u'left', u'middle', u'right']","[0.9, 0.5, 0.1]","[u'low', u'medium', u'high']","blue",49,"left","low","False","False",398,850,NA
"A1MNY9OSINZ2GA","Mon Sep 21 2020 10:43:37 GMT-0400 (Eastern Daylight Time)","Mon Sep 21 2020 10:55:15 GMT-0400 (Eastern Daylight Time)","Mozilla/5.0 (Windows NT 6.1; Win64; x64) AppleWebKit/537.36 (KHTML, like Gecko) Chrome/85.0.4183.102 Safari/537.36",32,"[0.9, 0.5, 0.1]","[0.8, 0.4, 0.2]","[u'blue', u'black', u'red']","[u'left', u'middle', u'right']","[0.9, 0.5, 0.1]","[u'low', u'medium', u'high']","red",51,"right","high","True","False",354,950,NA
"A1MNY9OSINZ2GA","Mon Sep 21 2020 10:43:37 GMT-0400 (Eastern Daylight Time)","Mon Sep 21 2020 10:55:15 GMT-0400 (Eastern Daylight Time)","Mozilla/5.0 (Windows NT 6.1; Win64; x64) AppleWebKit/537.36 (KHTML, like Gecko) Chrome/85.0.4183.102 Safari/537.36",33,"[0.9, 0.5, 0.1]","[0.8, 0.4, 0.2]","[u'blue', u'black', u'red']","[u'left', u'middle', u'right']","[0.9, 0.5, 0.1]","[u'low', u'medium', u'high']","black",50,"middle","medium","True","False",736,1050,NA
"A1MNY9OSINZ2GA","Mon Sep 21 2020 10:43:37 GMT-0400 (Eastern Daylight Time)","Mon Sep 21 2020 10:55:15 GMT-0400 (Eastern Daylight Time)","Mozilla/5.0 (Windows NT 6.1; Win64; x64) AppleWebKit/537.36 (KHTML, like Gecko) Chrome/85.0.4183.102 Safari/537.36",34,"[0.9, 0.5, 0.1]","[0.8, 0.4, 0.2]","[u'blue', u'black', u'red']","[u'left', u'middle', u'right']","[0.9, 0.5, 0.1]","[u'low', u'medium', u'high']","red",51,"right","high","True","False",967,1150,NA
"A1MNY9OSINZ2GA","Mon Sep 21 2020 10:43:37 GMT-0400 (Eastern Daylight Time)","Mon Sep 21 2020 10:55:15 GMT-0400 (Eastern Daylight Time)","Mozilla/5.0 (Windows NT 6.1; Win64; x64) AppleWebKit/537.36 (KHTML, like Gecko) Chrome/85.0.4183.102 Safari/537.36",35,"[0.9, 0.5, 0.1]","[0.8, 0.4, 0.2]","[u'blue', u'black', u'red']","[u'left', u'middle', u'right']","[0.9, 0.5, 0.1]","[u'low', u'medium', u'high']","black",50,"middle","medium","False","False",824,1100,NA
"A1MNY9OSINZ2GA","Mon Sep 21 2020 10:43:37 GMT-0400 (Eastern Daylight Time)","Mon Sep 21 2020 10:55:15 GMT-0400 (Eastern Daylight Time)","Mozilla/5.0 (Windows NT 6.1; Win64; x64) AppleWebKit/537.36 (KHTML, like Gecko) Chrome/85.0.4183.102 Safari/537.36",36,"[0.9, 0.5, 0.1]","[0.8, 0.4, 0.2]","[u'blue', u'black', u'red']","[u'left', u'middle', u'right']","[0.9, 0.5, 0.1]","[u'low', u'medium', u'high']","red",51,"right","high","True","False",524,1200,NA
"A1MNY9OSINZ2GA","Mon Sep 21 2020 10:43:37 GMT-0400 (Eastern Daylight Time)","Mon Sep 21 2020 10:55:15 GMT-0400 (Eastern Daylight Time)","Mozilla/5.0 (Windows NT 6.1; Win64; x64) AppleWebKit/537.36 (KHTML, like Gecko) Chrome/85.0.4183.102 Safari/537.36",37,"[0.9, 0.5, 0.1]","[0.8, 0.4, 0.2]","[u'blue', u'black', u'red']","[u'left', u'middle', u'right']","[0.9, 0.5, 0.1]","[u'low', u'medium', u'high']","red",51,"right","high","True","False",364,1300,NA
"A1MNY9OSINZ2GA","Mon Sep 21 2020 10:43:37 GMT-0400 (Eastern Daylight Time)","Mon Sep 21 2020 10:55:15 GMT-0400 (Eastern Daylight Time)","Mozilla/5.0 (Windows NT 6.1; Win64; x64) AppleWebKit/537.36 (KHTML, like Gecko) Chrome/85.0.4183.102 Safari/537.36",38,"[0.9, 0.5, 0.1]","[0.8, 0.4, 0.2]","[u'blue', u'black', u'red']","[u'left', u'middle', u'right']","[0.9, 0.5, 0.1]","[u'low', u'medium', u'high']","black",50,"middle","medium","True","False",695,1400,NA
"A1MNY9OSINZ2GA","Mon Sep 21 2020 10:43:37 GMT-0400 (Eastern Daylight Time)","Mon Sep 21 2020 10:55:15 GMT-0400 (Eastern Daylight Time)","Mozilla/5.0 (Windows NT 6.1; Win64; x64) AppleWebKit/537.36 (KHTML, like Gecko) Chrome/85.0.4183.102 Safari/537.36",39,"[0.9, 0.5, 0.1]","[0.8, 0.4, 0.2]","[u'blue', u'black', u'red']","[u'left', u'middle', u'right']","[0.9, 0.5, 0.1]","[u'low', u'medium', u'high']","red",51,"right","high","True","False",957,1500,NA
"A1MNY9OSINZ2GA","Mon Sep 21 2020 10:43:37 GMT-0400 (Eastern Daylight Time)","Mon Sep 21 2020 10:55:15 GMT-0400 (Eastern Daylight Time)","Mozilla/5.0 (Windows NT 6.1; Win64; x64) AppleWebKit/537.36 (KHTML, like Gecko) Chrome/85.0.4183.102 Safari/537.36",40,"[0.9, 0.5, 0.1]","[0.8, 0.4, 0.2]","[u'blue', u'black', u'red']","[u'left', u'middle', u'right']","[0.9, 0.5, 0.1]","[u'low', u'medium', u'high']","red",51,"right","high","True","False",764,1600,NA
"A1MNY9OSINZ2GA","Mon Sep 21 2020 10:43:37 GMT-0400 (Eastern Daylight Time)","Mon Sep 21 2020 10:55:15 GMT-0400 (Eastern Daylight Time)","Mozilla/5.0 (Windows NT 6.1; Win64; x64) AppleWebKit/537.36 (KHTML, like Gecko) Chrome/85.0.4183.102 Safari/537.36",41,"[0.9, 0.5, 0.1]","[0.8, 0.4, 0.2]","[u'blue', u'black', u'red']","[u'left', u'middle', u'right']","[0.9, 0.5, 0.1]","[u'medium', u'high', u'low']","red",51,"right","low","False","False",3008,1550,NA
"A1MNY9OSINZ2GA","Mon Sep 21 2020 10:43:37 GMT-0400 (Eastern Daylight Time)","Mon Sep 21 2020 10:55:15 GMT-0400 (Eastern Daylight Time)","Mozilla/5.0 (Windows NT 6.1; Win64; x64) AppleWebKit/537.36 (KHTML, like Gecko) Chrome/85.0.4183.102 Safari/537.36",42,"[0.9, 0.5, 0.1]","[0.8, 0.4, 0.2]","[u'blue', u'black', u'red']","[u'left', u'middle', u'right']","[0.9, 0.5, 0.1]","[u'medium', u'high', u'low']","blue",49,"left","medium","True","False",753,1650,NA
"A1MNY9OSINZ2GA","Mon Sep 21 2020 10:43:37 GMT-0400 (Eastern Daylight Time)","Mon Sep 21 2020 10:55:15 GMT-0400 (Eastern Daylight Time)","Mozilla/5.0 (Windows NT 6.1; Win64; x64) AppleWebKit/537.36 (KHTML, like Gecko) Chrome/85.0.4183.102 Safari/537.36",43,"[0.9, 0.5, 0.1]","[0.8, 0.4, 0.2]","[u'blue', u'black', u'red']","[u'left', u'middle', u'right']","[0.9, 0.5, 0.1]","[u'medium', u'high', u'low']","blue",49,"left","medium","True","False",638,1750,NA
"A1MNY9OSINZ2GA","Mon Sep 21 2020 10:43:37 GMT-0400 (Eastern Daylight Time)","Mon Sep 21 2020 10:55:15 GMT-0400 (Eastern Daylight Time)","Mozilla/5.0 (Windows NT 6.1; Win64; x64) AppleWebKit/537.36 (KHTML, like Gecko) Chrome/85.0.4183.102 Safari/537.36",44,"[0.9, 0.5, 0.1]","[0.8, 0.4, 0.2]","[u'blue', u'black', u'red']","[u'left', u'middle', u'right']","[0.9, 0.5, 0.1]","[u'medium', u'high', u'low']","black",50,"middle","high","True","False",1005,1850,NA
"A1MNY9OSINZ2GA","Mon Sep 21 2020 10:43:37 GMT-0400 (Eastern Daylight Time)","Mon Sep 21 2020 10:55:15 GMT-0400 (Eastern Daylight Time)","Mozilla/5.0 (Windows NT 6.1; Win64; x64) AppleWebKit/537.36 (KHTML, like Gecko) Chrome/85.0.4183.102 Safari/537.36",45,"[0.9, 0.5, 0.1]","[0.8, 0.4, 0.2]","[u'blue', u'black', u'red']","[u'left', u'middle', u'right']","[0.9, 0.5, 0.1]","[u'medium', u'high', u'low']","blue",49,"left","medium","False","False",1107,1800,NA
"A1MNY9OSINZ2GA","Mon Sep 21 2020 10:43:37 GMT-0400 (Eastern Daylight Time)","Mon Sep 21 2020 10:55:15 GMT-0400 (Eastern Daylight Time)","Mozilla/5.0 (Windows NT 6.1; Win64; x64) AppleWebKit/537.36 (KHTML, like Gecko) Chrome/85.0.4183.102 Safari/537.36",46,"[0.9, 0.5, 0.1]","[0.8, 0.4, 0.2]","[u'blue', u'black', u'red']","[u'left', u'middle', u'right']","[0.9, 0.5, 0.1]","[u'medium', u'high', u'low']","blue",49,"left","medium","False","False",805,1750,NA
"A1MNY9OSINZ2GA","Mon Sep 21 2020 10:43:37 GMT-0400 (Eastern Daylight Time)","Mon Sep 21 2020 10:55:15 GMT-0400 (Eastern Daylight Time)","Mozilla/5.0 (Windows NT 6.1; Win64; x64) AppleWebKit/537.36 (KHTML, like Gecko) Chrome/85.0.4183.102 Safari/537.36",47,"[0.9, 0.5, 0.1]","[0.8, 0.4, 0.2]","[u'blue', u'black', u'red']","[u'left', u'middle', u'right']","[0.9, 0.5, 0.1]","[u'medium', u'high', u'low']","black",50,"middle","high","True","False",1044,1850,NA
"A1MNY9OSINZ2GA","Mon Sep 21 2020 10:43:37 GMT-0400 (Eastern Daylight Time)","Mon Sep 21 2020 10:55:15 GMT-0400 (Eastern Daylight Time)","Mozilla/5.0 (Windows NT 6.1; Win64; x64) AppleWebKit/537.36 (KHTML, like Gecko) Chrome/85.0.4183.102 Safari/537.36",48,"[0.9, 0.5, 0.1]","[0.8, 0.4, 0.2]","[u'blue', u'black', u'red']","[u'left', u'middle', u'right']","[0.9, 0.5, 0.1]","[u'medium', u'high', u'low']","black",50,"middle","high","True","False",373,1950,NA
"A1MNY9OSINZ2GA","Mon Sep 21 2020 10:43:37 GMT-0400 (Eastern Daylight Time)","Mon Sep 21 2020 10:55:15 GMT-0400 (Eastern Daylight Time)","Mozilla/5.0 (Windows NT 6.1; Win64; x64) AppleWebKit/537.36 (KHTML, like Gecko) Chrome/85.0.4183.102 Safari/537.36",49,"[0.9, 0.5, 0.1]","[0.8, 0.4, 0.2]","[u'blue', u'black', u'red']","[u'left', u'middle', u'right']","[0.9, 0.5, 0.1]","[u'medium', u'high', u'low']","black",50,"middle","high","True","False",916,2050,NA
"A1MNY9OSINZ2GA","Mon Sep 21 2020 10:43:37 GMT-0400 (Eastern Daylight Time)","Mon Sep 21 2020 10:55:15 GMT-0400 (Eastern Daylight Time)","Mozilla/5.0 (Windows NT 6.1; Win64; x64) AppleWebKit/537.36 (KHTML, like Gecko) Chrome/85.0.4183.102 Safari/537.36",50,"[0.9, 0.5, 0.1]","[0.8, 0.4, 0.2]","[u'blue', u'black', u'red']","[u'left', u'middle', u'right']","[0.9, 0.5, 0.1]","[u'medium', u'high', u'low']","blue",49,"left","medium","True","False",1062,2150,NA
"A1MNY9OSINZ2GA","Mon Sep 21 2020 10:43:37 GMT-0400 (Eastern Daylight Time)","Mon Sep 21 2020 10:55:15 GMT-0400 (Eastern Daylight Time)","Mozilla/5.0 (Windows NT 6.1; Win64; x64) AppleWebKit/537.36 (KHTML, like Gecko) Chrome/85.0.4183.102 Safari/537.36",51,"[0.9, 0.5, 0.1]","[0.8, 0.4, 0.2]","[u'blue', u'black', u'red']","[u'left', u'middle', u'right']","[0.9, 0.5, 0.1]","[u'medium', u'high', u'low']","blue",49,"left","medium","True","False",919,2250,NA
"A1MNY9OSINZ2GA","Mon Sep 21 2020 10:43:37 GMT-0400 (Eastern Daylight Time)","Mon Sep 21 2020 10:55:15 GMT-0400 (Eastern Daylight Time)","Mozilla/5.0 (Windows NT 6.1; Win64; x64) AppleWebKit/537.36 (KHTML, like Gecko) Chrome/85.0.4183.102 Safari/537.36",52,"[0.9, 0.5, 0.1]","[0.8, 0.4, 0.2]","[u'blue', u'black', u'red']","[u'left', u'middle', u'right']","[0.9, 0.5, 0.1]","[u'medium', u'high', u'low']","blue",49,"left","medium","True","False",544,2350,NA
"A1MNY9OSINZ2GA","Mon Sep 21 2020 10:43:37 GMT-0400 (Eastern Daylight Time)","Mon Sep 21 2020 10:55:15 GMT-0400 (Eastern Daylight Time)","Mozilla/5.0 (Windows NT 6.1; Win64; x64) AppleWebKit/537.36 (KHTML, like Gecko) Chrome/85.0.4183.102 Safari/537.36",53,"[0.9, 0.5, 0.1]","[0.8, 0.4, 0.2]","[u'blue', u'black', u'red']","[u'left', u'middle', u'right']","[0.9, 0.5, 0.1]","[u'medium', u'high', u'low']","black",50,"middle","high","False","False",1109,2300,NA
"A1MNY9OSINZ2GA","Mon Sep 21 2020 10:43:37 GMT-0400 (Eastern Daylight Time)","Mon Sep 21 2020 10:55:15 GMT-0400 (Eastern Daylight Time)","Mozilla/5.0 (Windows NT 6.1; Win64; x64) AppleWebKit/537.36 (KHTML, like Gecko) Chrome/85.0.4183.102 Safari/537.36",54,"[0.9, 0.5, 0.1]","[0.8, 0.4, 0.2]","[u'blue', u'black', u'red']","[u'left', u'middle', u'right']","[0.9, 0.5, 0.1]","[u'medium', u'high', u'low']","black",50,"middle","high","False","False",1071,2250,NA
"A1MNY9OSINZ2GA","Mon Sep 21 2020 10:43:37 GMT-0400 (Eastern Daylight Time)","Mon Sep 21 2020 10:55:15 GMT-0400 (Eastern Daylight Time)","Mozilla/5.0 (Windows NT 6.1; Win64; x64) AppleWebKit/537.36 (KHTML, like Gecko) Chrome/85.0.4183.102 Safari/537.36",55,"[0.9, 0.5, 0.1]","[0.8, 0.4, 0.2]","[u'blue', u'black', u'red']","[u'left', u'middle', u'right']","[0.9, 0.5, 0.1]","[u'medium', u'high', u'low']","blue",49,"left","medium","True","False",602,2350,NA
"A1MNY9OSINZ2GA","Mon Sep 21 2020 10:43:37 GMT-0400 (Eastern Daylight Time)","Mon Sep 21 2020 10:55:15 GMT-0400 (Eastern Daylight Time)","Mozilla/5.0 (Windows NT 6.1; Win64; x64) AppleWebKit/537.36 (KHTML, like Gecko) Chrome/85.0.4183.102 Safari/537.36",56,"[0.9, 0.5, 0.1]","[0.8, 0.4, 0.2]","[u'blue', u'black', u'red']","[u'left', u'middle', u'right']","[0.9, 0.5, 0.1]","[u'medium', u'high', u'low']","blue",49,"left","medium","False","False",649,2300,NA
"A1MNY9OSINZ2GA","Mon Sep 21 2020 10:43:37 GMT-0400 (Eastern Daylight Time)","Mon Sep 21 2020 10:55:15 GMT-0400 (Eastern Daylight Time)","Mozilla/5.0 (Windows NT 6.1; Win64; x64) AppleWebKit/537.36 (KHTML, like Gecko) Chrome/85.0.4183.102 Safari/537.36",57,"[0.9, 0.5, 0.1]","[0.8, 0.4, 0.2]","[u'blue', u'black', u'red']","[u'left', u'middle', u'right']","[0.9, 0.5, 0.1]","[u'medium', u'high', u'low']","black",50,"middle","high","False","False",929,2250,NA
"A1MNY9OSINZ2GA","Mon Sep 21 2020 10:43:37 GMT-0400 (Eastern Daylight Time)","Mon Sep 21 2020 10:55:15 GMT-0400 (Eastern Daylight Time)","Mozilla/5.0 (Windows NT 6.1; Win64; x64) AppleWebKit/537.36 (KHTML, like Gecko) Chrome/85.0.4183.102 Safari/537.36",58,"[0.9, 0.5, 0.1]","[0.8, 0.4, 0.2]","[u'blue', u'black', u'red']","[u'left', u'middle', u'right']","[0.9, 0.5, 0.1]","[u'medium', u'high', u'low']","red",51,"right","low","False","False",829,2200,NA
"A1MNY9OSINZ2GA","Mon Sep 21 2020 10:43:37 GMT-0400 (Eastern Daylight Time)","Mon Sep 21 2020 10:55:15 GMT-0400 (Eastern Daylight Time)","Mozilla/5.0 (Windows NT 6.1; Win64; x64) AppleWebKit/537.36 (KHTML, like Gecko) Chrome/85.0.4183.102 Safari/537.36",59,"[0.9, 0.5, 0.1]","[0.8, 0.4, 0.2]","[u'blue', u'black', u'red']","[u'left', u'middle', u'right']","[0.9, 0.5, 0.1]","[u'medium', u'high', u'low']","blue",49,"left","medium","False","False",236,2150,NA
"A1MNY9OSINZ2GA","Mon Sep 21 2020 10:43:37 GMT-0400 (Eastern Daylight Time)","Mon Sep 21 2020 10:55:15 GMT-0400 (Eastern Daylight Time)","Mozilla/5.0 (Windows NT 6.1; Win64; x64) AppleWebKit/537.36 (KHTML, like Gecko) Chrome/85.0.4183.102 Safari/537.36",60,"[0.9, 0.5, 0.1]","[0.8, 0.4, 0.2]","[u'blue', u'black', u'red']","[u'left', u'middle', u'right']","[0.9, 0.5, 0.1]","[u'medium', u'high', u'low']","black",50,"middle","high","True","False",162,2250,NA
"A1MNY9OSINZ2GA","Mon Sep 21 2020 10:43:37 GMT-0400 (Eastern Daylight Time)","Mon Sep 21 2020 10:55:15 GMT-0400 (Eastern Daylight Time)","Mozilla/5.0 (Windows NT 6.1; Win64; x64) AppleWebKit/537.36 (KHTML, like Gecko) Chrome/85.0.4183.102 Safari/537.36",61,"[0.9, 0.5, 0.1]","[0.8, 0.4, 0.2]","[u'blue', u'black', u'red']","[u'left', u'middle', u'right']","[0.9, 0.5, 0.1]","[u'medium', u'high', u'low']","black",50,"middle","high","True","False",569,2350,NA
"A1MNY9OSINZ2GA","Mon Sep 21 2020 10:43:37 GMT-0400 (Eastern Daylight Time)","Mon Sep 21 2020 10:55:15 GMT-0400 (Eastern Daylight Time)","Mozilla/5.0 (Windows NT 6.1; Win64; x64) AppleWebKit/537.36 (KHTML, like Gecko) Chrome/85.0.4183.102 Safari/537.36",62,"[0.9, 0.5, 0.1]","[0.8, 0.4, 0.2]","[u'blue', u'black', u'red']","[u'left', u'middle', u'right']","[0.9, 0.5, 0.1]","[u'medium', u'high', u'low']","black",50,"middle","high","False","False",479,2300,NA
"A1MNY9OSINZ2GA","Mon Sep 21 2020 10:43:37 GMT-0400 (Eastern Daylight Time)","Mon Sep 21 2020 10:55:15 GMT-0400 (Eastern Daylight Time)","Mozilla/5.0 (Windows NT 6.1; Win64; x64) AppleWebKit/537.36 (KHTML, like Gecko) Chrome/85.0.4183.102 Safari/537.36",63,"[0.9, 0.5, 0.1]","[0.8, 0.4, 0.2]","[u'blue', u'black', u'red']","[u'left', u'middle', u'right']","[0.9, 0.5, 0.1]","[u'medium', u'high', u'low']","blue",49,"left","medium","True","False",695,2400,NA
"A1MNY9OSINZ2GA","Mon Sep 21 2020 10:43:37 GMT-0400 (Eastern Daylight Time)","Mon Sep 21 2020 10:55:15 GMT-0400 (Eastern Daylight Time)","Mozilla/5.0 (Windows NT 6.1; Win64; x64) AppleWebKit/537.36 (KHTML, like Gecko) Chrome/85.0.4183.102 Safari/537.36",64,"[0.9, 0.5, 0.1]","[0.8, 0.4, 0.2]","[u'blue', u'black', u'red']","[u'left', u'middle', u'right']","[0.9, 0.5, 0.1]","[u'medium', u'high', u'low']","blue",49,"left","medium","False","False",486,2350,NA
"A1MNY9OSINZ2GA","Mon Sep 21 2020 10:43:37 GMT-0400 (Eastern Daylight Time)","Mon Sep 21 2020 10:55:15 GMT-0400 (Eastern Daylight Time)","Mozilla/5.0 (Windows NT 6.1; Win64; x64) AppleWebKit/537.36 (KHTML, like Gecko) Chrome/85.0.4183.102 Safari/537.36",65,"[0.9, 0.5, 0.1]","[0.8, 0.4, 0.2]","[u'blue', u'black', u'red']","[u'left', u'middle', u'right']","[0.9, 0.5, 0.1]","[u'medium', u'high', u'low']","black",50,"middle","high","True","False",981,2450,NA
"A1MNY9OSINZ2GA","Mon Sep 21 2020 10:43:37 GMT-0400 (Eastern Daylight Time)","Mon Sep 21 2020 10:55:15 GMT-0400 (Eastern Daylight Time)","Mozilla/5.0 (Windows NT 6.1; Win64; x64) AppleWebKit/537.36 (KHTML, like Gecko) Chrome/85.0.4183.102 Safari/537.36",66,"[0.9, 0.5, 0.1]","[0.8, 0.4, 0.2]","[u'blue', u'black', u'red']","[u'left', u'middle', u'right']","[0.9, 0.5, 0.1]","[u'medium', u'high', u'low']","black",50,"middle","high","True","False",862,2550,NA
"A1MNY9OSINZ2GA","Mon Sep 21 2020 10:43:37 GMT-0400 (Eastern Daylight Time)","Mon Sep 21 2020 10:55:15 GMT-0400 (Eastern Daylight Time)","Mozilla/5.0 (Windows NT 6.1; Win64; x64) AppleWebKit/537.36 (KHTML, like Gecko) Chrome/85.0.4183.102 Safari/537.36",67,"[0.9, 0.5, 0.1]","[0.8, 0.4, 0.2]","[u'blue', u'black', u'red']","[u'left', u'middle', u'right']","[0.9, 0.5, 0.1]","[u'medium', u'high', u'low']","blue",49,"left","medium","True","False",689,2650,NA
"A1MNY9OSINZ2GA","Mon Sep 21 2020 10:43:37 GMT-0400 (Eastern Daylight Time)","Mon Sep 21 2020 10:55:15 GMT-0400 (Eastern Daylight Time)","Mozilla/5.0 (Windows NT 6.1; Win64; x64) AppleWebKit/537.36 (KHTML, like Gecko) Chrome/85.0.4183.102 Safari/537.36",68,"[0.9, 0.5, 0.1]","[0.8, 0.4, 0.2]","[u'blue', u'black', u'red']","[u'left', u'middle', u'right']","[0.9, 0.5, 0.1]","[u'medium', u'high', u'low']","blue",49,"left","medium","True","False",473,2750,NA
"A1MNY9OSINZ2GA","Mon Sep 21 2020 10:43:37 GMT-0400 (Eastern Daylight Time)","Mon Sep 21 2020 10:55:15 GMT-0400 (Eastern Daylight Time)","Mozilla/5.0 (Windows NT 6.1; Win64; x64) AppleWebKit/537.36 (KHTML, like Gecko) Chrome/85.0.4183.102 Safari/537.36",69,"[0.9, 0.5, 0.1]","[0.8, 0.4, 0.2]","[u'blue', u'black', u'red']","[u'left', u'middle', u'right']","[0.9, 0.5, 0.1]","[u'medium', u'high', u'low']","blue",49,"left","medium","True","False",464,2850,NA
"A1MNY9OSINZ2GA","Mon Sep 21 2020 10:43:37 GMT-0400 (Eastern Daylight Time)","Mon Sep 21 2020 10:55:15 GMT-0400 (Eastern Daylight Time)","Mozilla/5.0 (Windows NT 6.1; Win64; x64) AppleWebKit/537.36 (KHTML, like Gecko) Chrome/85.0.4183.102 Safari/537.36",70,"[0.9, 0.5, 0.1]","[0.8, 0.4, 0.2]","[u'blue', u'black', u'red']","[u'left', u'middle', u'right']","[0.9, 0.5, 0.1]","[u'medium', u'high', u'low']","black",50,"middle","high","True","False",875,2950,NA
"A1MNY9OSINZ2GA","Mon Sep 21 2020 10:43:37 GMT-0400 (Eastern Daylight Time)","Mon Sep 21 2020 10:55:15 GMT-0400 (Eastern Daylight Time)","Mozilla/5.0 (Windows NT 6.1; Win64; x64) AppleWebKit/537.36 (KHTML, like Gecko) Chrome/85.0.4183.102 Safari/537.36",71,"[0.9, 0.5, 0.1]","[0.8, 0.4, 0.2]","[u'blue', u'black', u'red']","[u'left', u'middle', u'right']","[0.9, 0.5, 0.1]","[u'medium', u'high', u'low']","black",50,"middle","high","False","False",767,2900,NA
"A1MNY9OSINZ2GA","Mon Sep 21 2020 10:43:37 GMT-0400 (Eastern Daylight Time)","Mon Sep 21 2020 10:55:15 GMT-0400 (Eastern Daylight Time)","Mozilla/5.0 (Windows NT 6.1; Win64; x64) AppleWebKit/537.36 (KHTML, like Gecko) Chrome/85.0.4183.102 Safari/537.36",72,"[0.9, 0.5, 0.1]","[0.8, 0.4, 0.2]","[u'blue', u'black', u'red']","[u'left', u'middle', u'right']","[0.9, 0.5, 0.1]","[u'medium', u'high', u'low']","blue",49,"left","medium","False","False",390,2850,NA
"A1MNY9OSINZ2GA","Mon Sep 21 2020 10:43:37 GMT-0400 (Eastern Daylight Time)","Mon Sep 21 2020 10:55:15 GMT-0400 (Eastern Daylight Time)","Mozilla/5.0 (Windows NT 6.1; Win64; x64) AppleWebKit/537.36 (KHTML, like Gecko) Chrome/85.0.4183.102 Safari/537.36",73,"[0.9, 0.5, 0.1]","[0.8, 0.4, 0.2]","[u'blue', u'black', u'red']","[u'left', u'middle', u'right']","[0.9, 0.5, 0.1]","[u'medium', u'high', u'low']","black",50,"middle","high","True","False",474,2950,NA
"A1MNY9OSINZ2GA","Mon Sep 21 2020 10:43:37 GMT-0400 (Eastern Daylight Time)","Mon Sep 21 2020 10:55:15 GMT-0400 (Eastern Daylight Time)","Mozilla/5.0 (Windows NT 6.1; Win64; x64) AppleWebKit/537.36 (KHTML, like Gecko) Chrome/85.0.4183.102 Safari/537.36",74,"[0.9, 0.5, 0.1]","[0.8, 0.4, 0.2]","[u'blue', u'black', u'red']","[u'left', u'middle', u'right']","[0.9, 0.5, 0.1]","[u'medium', u'high', u'low']","black",50,"middle","high","True","False",594,3050,NA
"A1MNY9OSINZ2GA","Mon Sep 21 2020 10:43:37 GMT-0400 (Eastern Daylight Time)","Mon Sep 21 2020 10:55:15 GMT-0400 (Eastern Daylight Time)","Mozilla/5.0 (Windows NT 6.1; Win64; x64) AppleWebKit/537.36 (KHTML, like Gecko) Chrome/85.0.4183.102 Safari/537.36",75,"[0.9, 0.5, 0.1]","[0.8, 0.4, 0.2]","[u'blue', u'black', u'red']","[u'left', u'middle', u'right']","[0.9, 0.5, 0.1]","[u'medium', u'high', u'low']","black",50,"middle","high","True","False",450,3150,NA
"A1MNY9OSINZ2GA","Mon Sep 21 2020 10:43:37 GMT-0400 (Eastern Daylight Time)","Mon Sep 21 2020 10:55:15 GMT-0400 (Eastern Daylight Time)","Mozilla/5.0 (Windows NT 6.1; Win64; x64) AppleWebKit/537.36 (KHTML, like Gecko) Chrome/85.0.4183.102 Safari/537.36",76,"[0.9, 0.5, 0.1]","[0.8, 0.4, 0.2]","[u'blue', u'black', u'red']","[u'left', u'middle', u'right']","[0.9, 0.5, 0.1]","[u'medium', u'high', u'low']","black",50,"middle","high","False","False",598,3100,NA
"A1MNY9OSINZ2GA","Mon Sep 21 2020 10:43:37 GMT-0400 (Eastern Daylight Time)","Mon Sep 21 2020 10:55:15 GMT-0400 (Eastern Daylight Time)","Mozilla/5.0 (Windows NT 6.1; Win64; x64) AppleWebKit/537.36 (KHTML, like Gecko) Chrome/85.0.4183.102 Safari/537.36",77,"[0.9, 0.5, 0.1]","[0.8, 0.4, 0.2]","[u'blue', u'black', u'red']","[u'left', u'middle', u'right']","[0.9, 0.5, 0.1]","[u'medium', u'high', u'low']","blue",49,"left","medium","False","False",1384,3050,NA
"A1MNY9OSINZ2GA","Mon Sep 21 2020 10:43:37 GMT-0400 (Eastern Daylight Time)","Mon Sep 21 2020 10:55:15 GMT-0400 (Eastern Daylight Time)","Mozilla/5.0 (Windows NT 6.1; Win64; x64) AppleWebKit/537.36 (KHTML, like Gecko) Chrome/85.0.4183.102 Safari/537.36",78,"[0.9, 0.5, 0.1]","[0.8, 0.4, 0.2]","[u'blue', u'black', u'red']","[u'left', u'middle', u'right']","[0.9, 0.5, 0.1]","[u'medium', u'high', u'low']","black",50,"middle","high","True","False",224,3150,NA
"A1MNY9OSINZ2GA","Mon Sep 21 2020 10:43:37 GMT-0400 (Eastern Daylight Time)","Mon Sep 21 2020 10:55:15 GMT-0400 (Eastern Daylight Time)","Mozilla/5.0 (Windows NT 6.1; Win64; x64) AppleWebKit/537.36 (KHTML, like Gecko) Chrome/85.0.4183.102 Safari/537.36",79,"[0.9, 0.5, 0.1]","[0.8, 0.4, 0.2]","[u'blue', u'black', u'red']","[u'left', u'middle', u'right']","[0.9, 0.5, 0.1]","[u'medium', u'high', u'low']","black",50,"middle","high","True","False",364,3250,NA
"A1MNY9OSINZ2GA","Mon Sep 21 2020 10:43:37 GMT-0400 (Eastern Daylight Time)","Mon Sep 21 2020 10:55:15 GMT-0400 (Eastern Daylight Time)","Mozilla/5.0 (Windows NT 6.1; Win64; x64) AppleWebKit/537.36 (KHTML, like Gecko) Chrome/85.0.4183.102 Safari/537.36",80,"[0.9, 0.5, 0.1]","[0.8, 0.4, 0.2]","[u'blue', u'black', u'red']","[u'left', u'middle', u'right']","[0.9, 0.5, 0.1]","[u'medium', u'high', u'low']","black",50,"middle","high","True","False",800,3350,NA
"A1MNY9OSINZ2GA","Mon Sep 21 2020 10:43:37 GMT-0400 (Eastern Daylight Time)","Mon Sep 21 2020 10:55:15 GMT-0400 (Eastern Daylight Time)","Mozilla/5.0 (Windows NT 6.1; Win64; x64) AppleWebKit/537.36 (KHTML, like Gecko) Chrome/85.0.4183.102 Safari/537.36",81,"[0.9, 0.5, 0.1]","[0.8, 0.4, 0.2]","[u'blue', u'black', u'red']","[u'left', u'middle', u'right']","[0.8, 0.4, 0.2]","[u'low', u'medium', u'high']","black",50,"middle","medium","False","False",2309,3300,NA
"A1MNY9OSINZ2GA","Mon Sep 21 2020 10:43:37 GMT-0400 (Eastern Daylight Time)","Mon Sep 21 2020 10:55:15 GMT-0400 (Eastern Daylight Time)","Mozilla/5.0 (Windows NT 6.1; Win64; x64) AppleWebKit/537.36 (KHTML, like Gecko) Chrome/85.0.4183.102 Safari/537.36",82,"[0.9, 0.5, 0.1]","[0.8, 0.4, 0.2]","[u'blue', u'black', u'red']","[u'left', u'middle', u'right']","[0.8, 0.4, 0.2]","[u'low', u'medium', u'high']","red",51,"right","high","True","False",215,3400,NA
"A1MNY9OSINZ2GA","Mon Sep 21 2020 10:43:37 GMT-0400 (Eastern Daylight Time)","Mon Sep 21 2020 10:55:15 GMT-0400 (Eastern Daylight Time)","Mozilla/5.0 (Windows NT 6.1; Win64; x64) AppleWebKit/537.36 (KHTML, like Gecko) Chrome/85.0.4183.102 Safari/537.36",83,"[0.9, 0.5, 0.1]","[0.8, 0.4, 0.2]","[u'blue', u'black', u'red']","[u'left', u'middle', u'right']","[0.8, 0.4, 0.2]","[u'low', u'medium', u'high']","red",51,"right","high","True","False",780,3500,NA
"A1MNY9OSINZ2GA","Mon Sep 21 2020 10:43:37 GMT-0400 (Eastern Daylight Time)","Mon Sep 21 2020 10:55:15 GMT-0400 (Eastern Daylight Time)","Mozilla/5.0 (Windows NT 6.1; Win64; x64) AppleWebKit/537.36 (KHTML, like Gecko) Chrome/85.0.4183.102 Safari/537.36",84,"[0.9, 0.5, 0.1]","[0.8, 0.4, 0.2]","[u'blue', u'black', u'red']","[u'left', u'middle', u'right']","[0.8, 0.4, 0.2]","[u'low', u'medium', u'high']","red",51,"right","high","False","False",748,3450,NA
"A1MNY9OSINZ2GA","Mon Sep 21 2020 10:43:37 GMT-0400 (Eastern Daylight Time)","Mon Sep 21 2020 10:55:15 GMT-0400 (Eastern Daylight Time)","Mozilla/5.0 (Windows NT 6.1; Win64; x64) AppleWebKit/537.36 (KHTML, like Gecko) Chrome/85.0.4183.102 Safari/537.36",85,"[0.9, 0.5, 0.1]","[0.8, 0.4, 0.2]","[u'blue', u'black', u'red']","[u'left', u'middle', u'right']","[0.8, 0.4, 0.2]","[u'low', u'medium', u'high']","red",51,"right","high","True","False",814,3550,NA
"A1MNY9OSINZ2GA","Mon Sep 21 2020 10:43:37 GMT-0400 (Eastern Daylight Time)","Mon Sep 21 2020 10:55:15 GMT-0400 (Eastern Daylight Time)","Mozilla/5.0 (Windows NT 6.1; Win64; x64) AppleWebKit/537.36 (KHTML, like Gecko) Chrome/85.0.4183.102 Safari/537.36",86,"[0.9, 0.5, 0.1]","[0.8, 0.4, 0.2]","[u'blue', u'black', u'red']","[u'left', u'middle', u'right']","[0.8, 0.4, 0.2]","[u'low', u'medium', u'high']","red",51,"right","high","True","False",738,3650,NA
"A1MNY9OSINZ2GA","Mon Sep 21 2020 10:43:37 GMT-0400 (Eastern Daylight Time)","Mon Sep 21 2020 10:55:15 GMT-0400 (Eastern Daylight Time)","Mozilla/5.0 (Windows NT 6.1; Win64; x64) AppleWebKit/537.36 (KHTML, like Gecko) Chrome/85.0.4183.102 Safari/537.36",87,"[0.9, 0.5, 0.1]","[0.8, 0.4, 0.2]","[u'blue', u'black', u'red']","[u'left', u'middle', u'right']","[0.8, 0.4, 0.2]","[u'low', u'medium', u'high']","red",51,"right","high","True","False",978,3750,NA
"A1MNY9OSINZ2GA","Mon Sep 21 2020 10:43:37 GMT-0400 (Eastern Daylight Time)","Mon Sep 21 2020 10:55:15 GMT-0400 (Eastern Daylight Time)","Mozilla/5.0 (Windows NT 6.1; Win64; x64) AppleWebKit/537.36 (KHTML, like Gecko) Chrome/85.0.4183.102 Safari/537.36",88,"[0.9, 0.5, 0.1]","[0.8, 0.4, 0.2]","[u'blue', u'black', u'red']","[u'left', u'middle', u'right']","[0.8, 0.4, 0.2]","[u'low', u'medium', u'high']","black",50,"middle","medium","False","False",1045,3700,NA
"A1MNY9OSINZ2GA","Mon Sep 21 2020 10:43:37 GMT-0400 (Eastern Daylight Time)","Mon Sep 21 2020 10:55:15 GMT-0400 (Eastern Daylight Time)","Mozilla/5.0 (Windows NT 6.1; Win64; x64) AppleWebKit/537.36 (KHTML, like Gecko) Chrome/85.0.4183.102 Safari/537.36",89,"[0.9, 0.5, 0.1]","[0.8, 0.4, 0.2]","[u'blue', u'black', u'red']","[u'left', u'middle', u'right']","[0.8, 0.4, 0.2]","[u'low', u'medium', u'high']","red",51,"right","high","True","False",778,3800,NA
"A1MNY9OSINZ2GA","Mon Sep 21 2020 10:43:37 GMT-0400 (Eastern Daylight Time)","Mon Sep 21 2020 10:55:15 GMT-0400 (Eastern Daylight Time)","Mozilla/5.0 (Windows NT 6.1; Win64; x64) AppleWebKit/537.36 (KHTML, like Gecko) Chrome/85.0.4183.102 Safari/537.36",90,"[0.9, 0.5, 0.1]","[0.8, 0.4, 0.2]","[u'blue', u'black', u'red']","[u'left', u'middle', u'right']","[0.8, 0.4, 0.2]","[u'low', u'medium', u'high']","red",51,"right","high","True","False",788,3900,NA
"A1MNY9OSINZ2GA","Mon Sep 21 2020 10:43:37 GMT-0400 (Eastern Daylight Time)","Mon Sep 21 2020 10:55:15 GMT-0400 (Eastern Daylight Time)","Mozilla/5.0 (Windows NT 6.1; Win64; x64) AppleWebKit/537.36 (KHTML, like Gecko) Chrome/85.0.4183.102 Safari/537.36",91,"[0.9, 0.5, 0.1]","[0.8, 0.4, 0.2]","[u'blue', u'black', u'red']","[u'left', u'middle', u'right']","[0.8, 0.4, 0.2]","[u'low', u'medium', u'high']","red",51,"right","high","False","True",369,3850,NA
"A1MNY9OSINZ2GA","Mon Sep 21 2020 10:43:37 GMT-0400 (Eastern Daylight Time)","Mon Sep 21 2020 10:55:15 GMT-0400 (Eastern Daylight Time)","Mozilla/5.0 (Windows NT 6.1; Win64; x64) AppleWebKit/537.36 (KHTML, like Gecko) Chrome/85.0.4183.102 Safari/537.36",92,"[0.9, 0.5, 0.1]","[0.8, 0.4, 0.2]","[u'blue', u'black', u'red']","[u'left', u'middle', u'right']","[0.8, 0.4, 0.2]","[u'medium', u'high', u'low']","red",51,"right","low","False","False",634,3800,NA
"A1MNY9OSINZ2GA","Mon Sep 21 2020 10:43:37 GMT-0400 (Eastern Daylight Time)","Mon Sep 21 2020 10:55:15 GMT-0400 (Eastern Daylight Time)","Mozilla/5.0 (Windows NT 6.1; Win64; x64) AppleWebKit/537.36 (KHTML, like Gecko) Chrome/85.0.4183.102 Safari/537.36",93,"[0.9, 0.5, 0.1]","[0.8, 0.4, 0.2]","[u'blue', u'black', u'red']","[u'left', u'middle', u'right']","[0.8, 0.4, 0.2]","[u'medium', u'high', u'low']","blue",49,"left","medium","True","False",1261,3900,NA
"A1MNY9OSINZ2GA","Mon Sep 21 2020 10:43:37 GMT-0400 (Eastern Daylight Time)","Mon Sep 21 2020 10:55:15 GMT-0400 (Eastern Daylight Time)","Mozilla/5.0 (Windows NT 6.1; Win64; x64) AppleWebKit/537.36 (KHTML, like Gecko) Chrome/85.0.4183.102 Safari/537.36",94,"[0.9, 0.5, 0.1]","[0.8, 0.4, 0.2]","[u'blue', u'black', u'red']","[u'left', u'middle', u'right']","[0.8, 0.4, 0.2]","[u'medium', u'high', u'low']","blue",49,"left","medium","False","False",933,3850,NA
"A1MNY9OSINZ2GA","Mon Sep 21 2020 10:43:37 GMT-0400 (Eastern Daylight Time)","Mon Sep 21 2020 10:55:15 GMT-0400 (Eastern Daylight Time)","Mozilla/5.0 (Windows NT 6.1; Win64; x64) AppleWebKit/537.36 (KHTML, like Gecko) Chrome/85.0.4183.102 Safari/537.36",95,"[0.9, 0.5, 0.1]","[0.8, 0.4, 0.2]","[u'blue', u'black', u'red']","[u'left', u'middle', u'right']","[0.8, 0.4, 0.2]","[u'medium', u'high', u'low']","black",50,"middle","high","True","False",594,3950,NA
"A1MNY9OSINZ2GA","Mon Sep 21 2020 10:43:37 GMT-0400 (Eastern Daylight Time)","Mon Sep 21 2020 10:55:15 GMT-0400 (Eastern Daylight Time)","Mozilla/5.0 (Windows NT 6.1; Win64; x64) AppleWebKit/537.36 (KHTML, like Gecko) Chrome/85.0.4183.102 Safari/537.36",96,"[0.9, 0.5, 0.1]","[0.8, 0.4, 0.2]","[u'blue', u'black', u'red']","[u'left', u'middle', u'right']","[0.8, 0.4, 0.2]","[u'medium', u'high', u'low']","black",50,"middle","high","True","False",600,4050,NA
"A1MNY9OSINZ2GA","Mon Sep 21 2020 10:43:37 GMT-0400 (Eastern Daylight Time)","Mon Sep 21 2020 10:55:15 GMT-0400 (Eastern Daylight Time)","Mozilla/5.0 (Windows NT 6.1; Win64; x64) AppleWebKit/537.36 (KHTML, like Gecko) Chrome/85.0.4183.102 Safari/537.36",97,"[0.9, 0.5, 0.1]","[0.8, 0.4, 0.2]","[u'blue', u'black', u'red']","[u'left', u'middle', u'right']","[0.8, 0.4, 0.2]","[u'medium', u'high', u'low']","black",50,"middle","high","True","False",769,4150,NA
"A1MNY9OSINZ2GA","Mon Sep 21 2020 10:43:37 GMT-0400 (Eastern Daylight Time)","Mon Sep 21 2020 10:55:15 GMT-0400 (Eastern Daylight Time)","Mozilla/5.0 (Windows NT 6.1; Win64; x64) AppleWebKit/537.36 (KHTML, like Gecko) Chrome/85.0.4183.102 Safari/537.36",98,"[0.9, 0.5, 0.1]","[0.8, 0.4, 0.2]","[u'blue', u'black', u'red']","[u'left', u'middle', u'right']","[0.8, 0.4, 0.2]","[u'medium', u'high', u'low']","black",50,"middle","high","True","False",660,4250,NA
"A1MNY9OSINZ2GA","Mon Sep 21 2020 10:43:37 GMT-0400 (Eastern Daylight Time)","Mon Sep 21 2020 10:55:15 GMT-0400 (Eastern Daylight Time)","Mozilla/5.0 (Windows NT 6.1; Win64; x64) AppleWebKit/537.36 (KHTML, like Gecko) Chrome/85.0.4183.102 Safari/537.36",99,"[0.9, 0.5, 0.1]","[0.8, 0.4, 0.2]","[u'blue', u'black', u'red']","[u'left', u'middle', u'right']","[0.8, 0.4, 0.2]","[u'medium', u'high', u'low']","black",50,"middle","high","True","False",347,4350,NA
"A1MNY9OSINZ2GA","Mon Sep 21 2020 10:43:37 GMT-0400 (Eastern Daylight Time)","Mon Sep 21 2020 10:55:15 GMT-0400 (Eastern Daylight Time)","Mozilla/5.0 (Windows NT 6.1; Win64; x64) AppleWebKit/537.36 (KHTML, like Gecko) Chrome/85.0.4183.102 Safari/537.36",100,"[0.9, 0.5, 0.1]","[0.8, 0.4, 0.2]","[u'blue', u'black', u'red']","[u'left', u'middle', u'right']","[0.8, 0.4, 0.2]","[u'medium', u'high', u'low']","black",50,"middle","high","True","False",409,4450,NA
"A1MNY9OSINZ2GA","Mon Sep 21 2020 10:43:37 GMT-0400 (Eastern Daylight Time)","Mon Sep 21 2020 10:55:15 GMT-0400 (Eastern Daylight Time)","Mozilla/5.0 (Windows NT 6.1; Win64; x64) AppleWebKit/537.36 (KHTML, like Gecko) Chrome/85.0.4183.102 Safari/537.36",101,"[0.9, 0.5, 0.1]","[0.8, 0.4, 0.2]","[u'blue', u'black', u'red']","[u'left', u'middle', u'right']","[0.8, 0.4, 0.2]","[u'medium', u'high', u'low']","black",50,"middle","high","True","False",264,4550,NA
"A1MNY9OSINZ2GA","Mon Sep 21 2020 10:43:37 GMT-0400 (Eastern Daylight Time)","Mon Sep 21 2020 10:55:15 GMT-0400 (Eastern Daylight Time)","Mozilla/5.0 (Windows NT 6.1; Win64; x64) AppleWebKit/537.36 (KHTML, like Gecko) Chrome/85.0.4183.102 Safari/537.36",102,"[0.9, 0.5, 0.1]","[0.8, 0.4, 0.2]","[u'blue', u'black', u'red']","[u'left', u'middle', u'right']","[0.8, 0.4, 0.2]","[u'medium', u'high', u'low']","black",50,"middle","high","True","False",353,4650,NA
"A1MNY9OSINZ2GA","Mon Sep 21 2020 10:43:37 GMT-0400 (Eastern Daylight Time)","Mon Sep 21 2020 10:55:15 GMT-0400 (Eastern Daylight Time)","Mozilla/5.0 (Windows NT 6.1; Win64; x64) AppleWebKit/537.36 (KHTML, like Gecko) Chrome/85.0.4183.102 Safari/537.36",103,"[0.9, 0.5, 0.1]","[0.8, 0.4, 0.2]","[u'blue', u'black', u'red']","[u'left', u'middle', u'right']","[0.8, 0.4, 0.2]","[u'medium', u'high', u'low']","black",50,"middle","high","False","True",294,4600,NA
"A1MNY9OSINZ2GA","Mon Sep 21 2020 10:43:37 GMT-0400 (Eastern Daylight Time)","Mon Sep 21 2020 10:55:15 GMT-0400 (Eastern Daylight Time)","Mozilla/5.0 (Windows NT 6.1; Win64; x64) AppleWebKit/537.36 (KHTML, like Gecko) Chrome/85.0.4183.102 Safari/537.36",104,"[0.9, 0.5, 0.1]","[0.8, 0.4, 0.2]","[u'blue', u'black', u'red']","[u'left', u'middle', u'right']","[0.8, 0.4, 0.2]","[u'high', u'low', u'medium']","black",50,"middle","low","False","False",1680,4550,NA
"A1MNY9OSINZ2GA","Mon Sep 21 2020 10:43:37 GMT-0400 (Eastern Daylight Time)","Mon Sep 21 2020 10:55:15 GMT-0400 (Eastern Daylight Time)","Mozilla/5.0 (Windows NT 6.1; Win64; x64) AppleWebKit/537.36 (KHTML, like Gecko) Chrome/85.0.4183.102 Safari/537.36",105,"[0.9, 0.5, 0.1]","[0.8, 0.4, 0.2]","[u'blue', u'black', u'red']","[u'left', u'middle', u'right']","[0.8, 0.4, 0.2]","[u'high', u'low', u'medium']","red",51,"right","medium","True","False",353,4650,NA
"A1MNY9OSINZ2GA","Mon Sep 21 2020 10:43:37 GMT-0400 (Eastern Daylight Time)","Mon Sep 21 2020 10:55:15 GMT-0400 (Eastern Daylight Time)","Mozilla/5.0 (Windows NT 6.1; Win64; x64) AppleWebKit/537.36 (KHTML, like Gecko) Chrome/85.0.4183.102 Safari/537.36",106,"[0.9, 0.5, 0.1]","[0.8, 0.4, 0.2]","[u'blue', u'black', u'red']","[u'left', u'middle', u'right']","[0.8, 0.4, 0.2]","[u'high', u'low', u'medium']","red",51,"right","medium","False","False",1154,4600,NA
"A1MNY9OSINZ2GA","Mon Sep 21 2020 10:43:37 GMT-0400 (Eastern Daylight Time)","Mon Sep 21 2020 10:55:15 GMT-0400 (Eastern Daylight Time)","Mozilla/5.0 (Windows NT 6.1; Win64; x64) AppleWebKit/537.36 (KHTML, like Gecko) Chrome/85.0.4183.102 Safari/537.36",107,"[0.9, 0.5, 0.1]","[0.8, 0.4, 0.2]","[u'blue', u'black', u'red']","[u'left', u'middle', u'right']","[0.8, 0.4, 0.2]","[u'high', u'low', u'medium']","blue",49,"left","high","True","False",869,4700,NA
"A1MNY9OSINZ2GA","Mon Sep 21 2020 10:43:37 GMT-0400 (Eastern Daylight Time)","Mon Sep 21 2020 10:55:15 GMT-0400 (Eastern Daylight Time)","Mozilla/5.0 (Windows NT 6.1; Win64; x64) AppleWebKit/537.36 (KHTML, like Gecko) Chrome/85.0.4183.102 Safari/537.36",108,"[0.9, 0.5, 0.1]","[0.8, 0.4, 0.2]","[u'blue', u'black', u'red']","[u'left', u'middle', u'right']","[0.8, 0.4, 0.2]","[u'high', u'low', u'medium']","blue",49,"left","high","False","False",597,4650,NA
"A1MNY9OSINZ2GA","Mon Sep 21 2020 10:43:37 GMT-0400 (Eastern Daylight Time)","Mon Sep 21 2020 10:55:15 GMT-0400 (Eastern Daylight Time)","Mozilla/5.0 (Windows NT 6.1; Win64; x64) AppleWebKit/537.36 (KHTML, like Gecko) Chrome/85.0.4183.102 Safari/537.36",109,"[0.9, 0.5, 0.1]","[0.8, 0.4, 0.2]","[u'blue', u'black', u'red']","[u'left', u'middle', u'right']","[0.8, 0.4, 0.2]","[u'high', u'low', u'medium']","black",50,"middle","low","False","False",206,4600,NA
"A1MNY9OSINZ2GA","Mon Sep 21 2020 10:43:37 GMT-0400 (Eastern Daylight Time)","Mon Sep 21 2020 10:55:15 GMT-0400 (Eastern Daylight Time)","Mozilla/5.0 (Windows NT 6.1; Win64; x64) AppleWebKit/537.36 (KHTML, like Gecko) Chrome/85.0.4183.102 Safari/537.36",110,"[0.9, 0.5, 0.1]","[0.8, 0.4, 0.2]","[u'blue', u'black', u'red']","[u'left', u'middle', u'right']","[0.8, 0.4, 0.2]","[u'high', u'low', u'medium']","black",50,"middle","low","False","False",897,4550,NA
"A1MNY9OSINZ2GA","Mon Sep 21 2020 10:43:37 GMT-0400 (Eastern Daylight Time)","Mon Sep 21 2020 10:55:15 GMT-0400 (Eastern Daylight Time)","Mozilla/5.0 (Windows NT 6.1; Win64; x64) AppleWebKit/537.36 (KHTML, like Gecko) Chrome/85.0.4183.102 Safari/537.36",111,"[0.9, 0.5, 0.1]","[0.8, 0.4, 0.2]","[u'blue', u'black', u'red']","[u'left', u'middle', u'right']","[0.8, 0.4, 0.2]","[u'high', u'low', u'medium']","red",51,"right","medium","True","False",798,4650,NA
"A1MNY9OSINZ2GA","Mon Sep 21 2020 10:43:37 GMT-0400 (Eastern Daylight Time)","Mon Sep 21 2020 10:55:15 GMT-0400 (Eastern Daylight Time)","Mozilla/5.0 (Windows NT 6.1; Win64; x64) AppleWebKit/537.36 (KHTML, like Gecko) Chrome/85.0.4183.102 Safari/537.36",112,"[0.9, 0.5, 0.1]","[0.8, 0.4, 0.2]","[u'blue', u'black', u'red']","[u'left', u'middle', u'right']","[0.8, 0.4, 0.2]","[u'high', u'low', u'medium']","red",51,"right","medium","True","False",548,4750,NA
"A1MNY9OSINZ2GA","Mon Sep 21 2020 10:43:37 GMT-0400 (Eastern Daylight Time)","Mon Sep 21 2020 10:55:15 GMT-0400 (Eastern Daylight Time)","Mozilla/5.0 (Windows NT 6.1; Win64; x64) AppleWebKit/537.36 (KHTML, like Gecko) Chrome/85.0.4183.102 Safari/537.36",113,"[0.9, 0.5, 0.1]","[0.8, 0.4, 0.2]","[u'blue', u'black', u'red']","[u'left', u'middle', u'right']","[0.8, 0.4, 0.2]","[u'high', u'low', u'medium']","red",51,"right","medium","False","False",628,4700,NA
"A1MNY9OSINZ2GA","Mon Sep 21 2020 10:43:37 GMT-0400 (Eastern Daylight Time)","Mon Sep 21 2020 10:55:15 GMT-0400 (Eastern Daylight Time)","Mozilla/5.0 (Windows NT 6.1; Win64; x64) AppleWebKit/537.36 (KHTML, like Gecko) Chrome/85.0.4183.102 Safari/537.36",114,"[0.9, 0.5, 0.1]","[0.8, 0.4, 0.2]","[u'blue', u'black', u'red']","[u'left', u'middle', u'right']","[0.8, 0.4, 0.2]","[u'high', u'low', u'medium']","blue",49,"left","high","True","False",270,4800,NA
"A1MNY9OSINZ2GA","Mon Sep 21 2020 10:43:37 GMT-0400 (Eastern Daylight Time)","Mon Sep 21 2020 10:55:15 GMT-0400 (Eastern Daylight Time)","Mozilla/5.0 (Windows NT 6.1; Win64; x64) AppleWebKit/537.36 (KHTML, like Gecko) Chrome/85.0.4183.102 Safari/537.36",115,"[0.9, 0.5, 0.1]","[0.8, 0.4, 0.2]","[u'blue', u'black', u'red']","[u'left', u'middle', u'right']","[0.8, 0.4, 0.2]","[u'high', u'low', u'medium']","blue",49,"left","high","True","False",1032,4900,NA
"A1MNY9OSINZ2GA","Mon Sep 21 2020 10:43:37 GMT-0400 (Eastern Daylight Time)","Mon Sep 21 2020 10:55:15 GMT-0400 (Eastern Daylight Time)","Mozilla/5.0 (Windows NT 6.1; Win64; x64) AppleWebKit/537.36 (KHTML, like Gecko) Chrome/85.0.4183.102 Safari/537.36",116,"[0.9, 0.5, 0.1]","[0.8, 0.4, 0.2]","[u'blue', u'black', u'red']","[u'left', u'middle', u'right']","[0.8, 0.4, 0.2]","[u'high', u'low', u'medium']","blue",49,"left","high","False","False",729,4850,NA
"A1MNY9OSINZ2GA","Mon Sep 21 2020 10:43:37 GMT-0400 (Eastern Daylight Time)","Mon Sep 21 2020 10:55:15 GMT-0400 (Eastern Daylight Time)","Mozilla/5.0 (Windows NT 6.1; Win64; x64) AppleWebKit/537.36 (KHTML, like Gecko) Chrome/85.0.4183.102 Safari/537.36",117,"[0.9, 0.5, 0.1]","[0.8, 0.4, 0.2]","[u'blue', u'black', u'red']","[u'left', u'middle', u'right']","[0.8, 0.4, 0.2]","[u'high', u'low', u'medium']","black",50,"middle","low","True","False",1006,4950,NA
"A1MNY9OSINZ2GA","Mon Sep 21 2020 10:43:37 GMT-0400 (Eastern Daylight Time)","Mon Sep 21 2020 10:55:15 GMT-0400 (Eastern Daylight Time)","Mozilla/5.0 (Windows NT 6.1; Win64; x64) AppleWebKit/537.36 (KHTML, like Gecko) Chrome/85.0.4183.102 Safari/537.36",118,"[0.9, 0.5, 0.1]","[0.8, 0.4, 0.2]","[u'blue', u'black', u'red']","[u'left', u'middle', u'right']","[0.8, 0.4, 0.2]","[u'high', u'low', u'medium']","black",50,"middle","low","True","False",508,5050,NA
"A1MNY9OSINZ2GA","Mon Sep 21 2020 10:43:37 GMT-0400 (Eastern Daylight Time)","Mon Sep 21 2020 10:55:15 GMT-0400 (Eastern Daylight Time)","Mozilla/5.0 (Windows NT 6.1; Win64; x64) AppleWebKit/537.36 (KHTML, like Gecko) Chrome/85.0.4183.102 Safari/537.36",119,"[0.9, 0.5, 0.1]","[0.8, 0.4, 0.2]","[u'blue', u'black', u'red']","[u'left', u'middle', u'right']","[0.8, 0.4, 0.2]","[u'high', u'low', u'medium']","black",50,"middle","low","False","False",454,5000,NA
"A1MNY9OSINZ2GA","Mon Sep 21 2020 10:43:37 GMT-0400 (Eastern Daylight Time)","Mon Sep 21 2020 10:55:15 GMT-0400 (Eastern Daylight Time)","Mozilla/5.0 (Windows NT 6.1; Win64; x64) AppleWebKit/537.36 (KHTML, like Gecko) Chrome/85.0.4183.102 Safari/537.36",120,"[0.9, 0.5, 0.1]","[0.8, 0.4, 0.2]","[u'blue', u'black', u'red']","[u'left', u'middle', u'right']","[0.8, 0.4, 0.2]","[u'high', u'low', u'medium']","red",51,"right","medium","False","False",503,4950,NA
"A1MNY9OSINZ2GA","Mon Sep 21 2020 10:43:37 GMT-0400 (Eastern Daylight Time)","Mon Sep 21 2020 10:55:15 GMT-0400 (Eastern Daylight Time)","Mozilla/5.0 (Windows NT 6.1; Win64; x64) AppleWebKit/537.36 (KHTML, like Gecko) Chrome/85.0.4183.102 Safari/537.36",121,"[0.9, 0.5, 0.1]","[0.8, 0.4, 0.2]","[u'blue', u'black', u'red']","[u'left', u'middle', u'right']","[0.8, 0.4, 0.2]","[u'medium', u'high', u'low']","red",51,"right","low","False","False",2360,4900,NA
"A1MNY9OSINZ2GA","Mon Sep 21 2020 10:43:37 GMT-0400 (Eastern Daylight Time)","Mon Sep 21 2020 10:55:15 GMT-0400 (Eastern Daylight Time)","Mozilla/5.0 (Windows NT 6.1; Win64; x64) AppleWebKit/537.36 (KHTML, like Gecko) Chrome/85.0.4183.102 Safari/537.36",122,"[0.9, 0.5, 0.1]","[0.8, 0.4, 0.2]","[u'blue', u'black', u'red']","[u'left', u'middle', u'right']","[0.8, 0.4, 0.2]","[u'medium', u'high', u'low']","black",50,"middle","high","True","False",562,5000,NA
"A1MNY9OSINZ2GA","Mon Sep 21 2020 10:43:37 GMT-0400 (Eastern Daylight Time)","Mon Sep 21 2020 10:55:15 GMT-0400 (Eastern Daylight Time)","Mozilla/5.0 (Windows NT 6.1; Win64; x64) AppleWebKit/537.36 (KHTML, like Gecko) Chrome/85.0.4183.102 Safari/537.36",123,"[0.9, 0.5, 0.1]","[0.8, 0.4, 0.2]","[u'blue', u'black', u'red']","[u'left', u'middle', u'right']","[0.8, 0.4, 0.2]","[u'medium', u'high', u'low']","black",50,"middle","high","False","False",834,4950,NA
"A1MNY9OSINZ2GA","Mon Sep 21 2020 10:43:37 GMT-0400 (Eastern Daylight Time)","Mon Sep 21 2020 10:55:15 GMT-0400 (Eastern Daylight Time)","Mozilla/5.0 (Windows NT 6.1; Win64; x64) AppleWebKit/537.36 (KHTML, like Gecko) Chrome/85.0.4183.102 Safari/537.36",124,"[0.9, 0.5, 0.1]","[0.8, 0.4, 0.2]","[u'blue', u'black', u'red']","[u'left', u'middle', u'right']","[0.8, 0.4, 0.2]","[u'medium', u'high', u'low']","blue",49,"left","medium","False","False",334,4900,NA
"A1MNY9OSINZ2GA","Mon Sep 21 2020 10:43:37 GMT-0400 (Eastern Daylight Time)","Mon Sep 21 2020 10:55:15 GMT-0400 (Eastern Daylight Time)","Mozilla/5.0 (Windows NT 6.1; Win64; x64) AppleWebKit/537.36 (KHTML, like Gecko) Chrome/85.0.4183.102 Safari/537.36",125,"[0.9, 0.5, 0.1]","[0.8, 0.4, 0.2]","[u'blue', u'black', u'red']","[u'left', u'middle', u'right']","[0.8, 0.4, 0.2]","[u'medium', u'high', u'low']","red",51,"right","low","False","False",583,4850,NA
"A1MNY9OSINZ2GA","Mon Sep 21 2020 10:43:37 GMT-0400 (Eastern Daylight Time)","Mon Sep 21 2020 10:55:15 GMT-0400 (Eastern Daylight Time)","Mozilla/5.0 (Windows NT 6.1; Win64; x64) AppleWebKit/537.36 (KHTML, like Gecko) Chrome/85.0.4183.102 Safari/537.36",126,"[0.9, 0.5, 0.1]","[0.8, 0.4, 0.2]","[u'blue', u'black', u'red']","[u'left', u'middle', u'right']","[0.8, 0.4, 0.2]","[u'medium', u'high', u'low']","black",50,"middle","high","True","False",316,4950,NA
"A1MNY9OSINZ2GA","Mon Sep 21 2020 10:43:37 GMT-0400 (Eastern Daylight Time)","Mon Sep 21 2020 10:55:15 GMT-0400 (Eastern Daylight Time)","Mozilla/5.0 (Windows NT 6.1; Win64; x64) AppleWebKit/537.36 (KHTML, like Gecko) Chrome/85.0.4183.102 Safari/537.36",127,"[0.9, 0.5, 0.1]","[0.8, 0.4, 0.2]","[u'blue', u'black', u'red']","[u'left', u'middle', u'right']","[0.8, 0.4, 0.2]","[u'medium', u'high', u'low']","black",50,"middle","high","False","False",457,4900,NA
"A1MNY9OSINZ2GA","Mon Sep 21 2020 10:43:37 GMT-0400 (Eastern Daylight Time)","Mon Sep 21 2020 10:55:15 GMT-0400 (Eastern Daylight Time)","Mozilla/5.0 (Windows NT 6.1; Win64; x64) AppleWebKit/537.36 (KHTML, like Gecko) Chrome/85.0.4183.102 Safari/537.36",128,"[0.9, 0.5, 0.1]","[0.8, 0.4, 0.2]","[u'blue', u'black', u'red']","[u'left', u'middle', u'right']","[0.8, 0.4, 0.2]","[u'medium', u'high', u'low']","black",50,"middle","high","True","False",584,5000,NA
"A1MNY9OSINZ2GA","Mon Sep 21 2020 10:43:37 GMT-0400 (Eastern Daylight Time)","Mon Sep 21 2020 10:55:15 GMT-0400 (Eastern Daylight Time)","Mozilla/5.0 (Windows NT 6.1; Win64; x64) AppleWebKit/537.36 (KHTML, like Gecko) Chrome/85.0.4183.102 Safari/537.36",129,"[0.9, 0.5, 0.1]","[0.8, 0.4, 0.2]","[u'blue', u'black', u'red']","[u'left', u'middle', u'right']","[0.8, 0.4, 0.2]","[u'medium', u'high', u'low']","black",50,"middle","high","False","False",459,4950,NA
"A1MNY9OSINZ2GA","Mon Sep 21 2020 10:43:37 GMT-0400 (Eastern Daylight Time)","Mon Sep 21 2020 10:55:15 GMT-0400 (Eastern Daylight Time)","Mozilla/5.0 (Windows NT 6.1; Win64; x64) AppleWebKit/537.36 (KHTML, like Gecko) Chrome/85.0.4183.102 Safari/537.36",130,"[0.9, 0.5, 0.1]","[0.8, 0.4, 0.2]","[u'blue', u'black', u'red']","[u'left', u'middle', u'right']","[0.8, 0.4, 0.2]","[u'medium', u'high', u'low']","blue",49,"left","medium","False","False",668,4900,NA
"A1MNY9OSINZ2GA","Mon Sep 21 2020 10:43:37 GMT-0400 (Eastern Daylight Time)","Mon Sep 21 2020 10:55:15 GMT-0400 (Eastern Daylight Time)","Mozilla/5.0 (Windows NT 6.1; Win64; x64) AppleWebKit/537.36 (KHTML, like Gecko) Chrome/85.0.4183.102 Safari/537.36",131,"[0.9, 0.5, 0.1]","[0.8, 0.4, 0.2]","[u'blue', u'black', u'red']","[u'left', u'middle', u'right']","[0.8, 0.4, 0.2]","[u'medium', u'high', u'low']","black",50,"middle","high","False","False",1541,4850,NA
"A1MNY9OSINZ2GA","Mon Sep 21 2020 10:43:37 GMT-0400 (Eastern Daylight Time)","Mon Sep 21 2020 10:55:15 GMT-0400 (Eastern Daylight Time)","Mozilla/5.0 (Windows NT 6.1; Win64; x64) AppleWebKit/537.36 (KHTML, like Gecko) Chrome/85.0.4183.102 Safari/537.36",132,"[0.9, 0.5, 0.1]","[0.8, 0.4, 0.2]","[u'blue', u'black', u'red']","[u'left', u'middle', u'right']","[0.8, 0.4, 0.2]","[u'medium', u'high', u'low']","red",51,"right","low","False","False",977,4800,NA
"A1MNY9OSINZ2GA","Mon Sep 21 2020 10:43:37 GMT-0400 (Eastern Daylight Time)","Mon Sep 21 2020 10:55:15 GMT-0400 (Eastern Daylight Time)","Mozilla/5.0 (Windows NT 6.1; Win64; x64) AppleWebKit/537.36 (KHTML, like Gecko) Chrome/85.0.4183.102 Safari/537.36",133,"[0.9, 0.5, 0.1]","[0.8, 0.4, 0.2]","[u'blue', u'black', u'red']","[u'left', u'middle', u'right']","[0.8, 0.4, 0.2]","[u'medium', u'high', u'low']","blue",49,"left","medium","False","False",624,4750,NA
"A1MNY9OSINZ2GA","Mon Sep 21 2020 10:43:37 GMT-0400 (Eastern Daylight Time)","Mon Sep 21 2020 10:55:15 GMT-0400 (Eastern Daylight Time)","Mozilla/5.0 (Windows NT 6.1; Win64; x64) AppleWebKit/537.36 (KHTML, like Gecko) Chrome/85.0.4183.102 Safari/537.36",134,"[0.9, 0.5, 0.1]","[0.8, 0.4, 0.2]","[u'blue', u'black', u'red']","[u'left', u'middle', u'right']","[0.8, 0.4, 0.2]","[u'medium', u'high', u'low']","black",50,"middle","high","True","False",589,4850,NA
"A1MNY9OSINZ2GA","Mon Sep 21 2020 10:43:37 GMT-0400 (Eastern Daylight Time)","Mon Sep 21 2020 10:55:15 GMT-0400 (Eastern Daylight Time)","Mozilla/5.0 (Windows NT 6.1; Win64; x64) AppleWebKit/537.36 (KHTML, like Gecko) Chrome/85.0.4183.102 Safari/537.36",135,"[0.9, 0.5, 0.1]","[0.8, 0.4, 0.2]","[u'blue', u'black', u'red']","[u'left', u'middle', u'right']","[0.8, 0.4, 0.2]","[u'medium', u'high', u'low']","red",51,"right","low","False","False",1895,4800,NA
"A1MNY9OSINZ2GA","Mon Sep 21 2020 10:43:37 GMT-0400 (Eastern Daylight Time)","Mon Sep 21 2020 10:55:15 GMT-0400 (Eastern Daylight Time)","Mozilla/5.0 (Windows NT 6.1; Win64; x64) AppleWebKit/537.36 (KHTML, like Gecko) Chrome/85.0.4183.102 Safari/537.36",136,"[0.9, 0.5, 0.1]","[0.8, 0.4, 0.2]","[u'blue', u'black', u'red']","[u'left', u'middle', u'right']","[0.8, 0.4, 0.2]","[u'medium', u'high', u'low']","blue",49,"left","medium","True","False",1517,4900,NA
"A1MNY9OSINZ2GA","Mon Sep 21 2020 10:43:37 GMT-0400 (Eastern Daylight Time)","Mon Sep 21 2020 10:55:15 GMT-0400 (Eastern Daylight Time)","Mozilla/5.0 (Windows NT 6.1; Win64; x64) AppleWebKit/537.36 (KHTML, like Gecko) Chrome/85.0.4183.102 Safari/537.36",137,"[0.9, 0.5, 0.1]","[0.8, 0.4, 0.2]","[u'blue', u'black', u'red']","[u'left', u'middle', u'right']","[0.8, 0.4, 0.2]","[u'medium', u'high', u'low']","black",50,"middle","high","True","False",2734,5000,NA
"A1MNY9OSINZ2GA","Mon Sep 21 2020 10:43:37 GMT-0400 (Eastern Daylight Time)","Mon Sep 21 2020 10:55:15 GMT-0400 (Eastern Daylight Time)","Mozilla/5.0 (Windows NT 6.1; Win64; x64) AppleWebKit/537.36 (KHTML, like Gecko) Chrome/85.0.4183.102 Safari/537.36",138,"[0.9, 0.5, 0.1]","[0.8, 0.4, 0.2]","[u'blue', u'black', u'red']","[u'left', u'middle', u'right']","[0.8, 0.4, 0.2]","[u'medium', u'high', u'low']","red",51,"right","low","False","False",709,4950,NA
"A1MNY9OSINZ2GA","Mon Sep 21 2020 10:43:37 GMT-0400 (Eastern Daylight Time)","Mon Sep 21 2020 10:55:15 GMT-0400 (Eastern Daylight Time)","Mozilla/5.0 (Windows NT 6.1; Win64; x64) AppleWebKit/537.36 (KHTML, like Gecko) Chrome/85.0.4183.102 Safari/537.36",139,"[0.9, 0.5, 0.1]","[0.8, 0.4, 0.2]","[u'blue', u'black', u'red']","[u'left', u'middle', u'right']","[0.8, 0.4, 0.2]","[u'medium', u'high', u'low']","blue",49,"left","medium","False","False",2249,4900,NA
"A1MNY9OSINZ2GA","Mon Sep 21 2020 10:43:37 GMT-0400 (Eastern Daylight Time)","Mon Sep 21 2020 10:55:15 GMT-0400 (Eastern Daylight Time)","Mozilla/5.0 (Windows NT 6.1; Win64; x64) AppleWebKit/537.36 (KHTML, like Gecko) Chrome/85.0.4183.102 Safari/537.36",140,"[0.9, 0.5, 0.1]","[0.8, 0.4, 0.2]","[u'blue', u'black', u'red']","[u'left', u'middle', u'right']","[0.8, 0.4, 0.2]","[u'medium', u'high', u'low']","black",50,"middle","high","True","False",802,5000,NA
"A1MNY9OSINZ2GA","Mon Sep 21 2020 10:43:37 GMT-0400 (Eastern Daylight Time)","Mon Sep 21 2020 10:55:15 GMT-0400 (Eastern Daylight Time)","Mozilla/5.0 (Windows NT 6.1; Win64; x64) AppleWebKit/537.36 (KHTML, like Gecko) Chrome/85.0.4183.102 Safari/537.36",141,"[0.9, 0.5, 0.1]","[0.8, 0.4, 0.2]","[u'blue', u'black', u'red']","[u'left', u'middle', u'right']","[0.8, 0.4, 0.2]","[u'medium', u'high', u'low']","red",51,"right","low","False","False",934,4950,NA
"A1MNY9OSINZ2GA","Mon Sep 21 2020 10:43:37 GMT-0400 (Eastern Daylight Time)","Mon Sep 21 2020 10:55:15 GMT-0400 (Eastern Daylight Time)","Mozilla/5.0 (Windows NT 6.1; Win64; x64) AppleWebKit/537.36 (KHTML, like Gecko) Chrome/85.0.4183.102 Safari/537.36",142,"[0.9, 0.5, 0.1]","[0.8, 0.4, 0.2]","[u'blue', u'black', u'red']","[u'left', u'middle', u'right']","[0.8, 0.4, 0.2]","[u'medium', u'high', u'low']","black",50,"middle","high","True","False",783,5050,NA
"A1MNY9OSINZ2GA","Mon Sep 21 2020 10:43:37 GMT-0400 (Eastern Daylight Time)","Mon Sep 21 2020 10:55:15 GMT-0400 (Eastern Daylight Time)","Mozilla/5.0 (Windows NT 6.1; Win64; x64) AppleWebKit/537.36 (KHTML, like Gecko) Chrome/85.0.4183.102 Safari/537.36",143,"[0.9, 0.5, 0.1]","[0.8, 0.4, 0.2]","[u'blue', u'black', u'red']","[u'left', u'middle', u'right']","[0.8, 0.4, 0.2]","[u'medium', u'high', u'low']","black",50,"middle","high","False","False",553,5000,NA
"A1MNY9OSINZ2GA","Mon Sep 21 2020 10:43:37 GMT-0400 (Eastern Daylight Time)","Mon Sep 21 2020 10:55:15 GMT-0400 (Eastern Daylight Time)","Mozilla/5.0 (Windows NT 6.1; Win64; x64) AppleWebKit/537.36 (KHTML, like Gecko) Chrome/85.0.4183.102 Safari/537.36",144,"[0.9, 0.5, 0.1]","[0.8, 0.4, 0.2]","[u'blue', u'black', u'red']","[u'left', u'middle', u'right']","[0.8, 0.4, 0.2]","[u'medium', u'high', u'low']","blue",49,"left","medium","True","False",880,5100,NA
"A1MNY9OSINZ2GA","Mon Sep 21 2020 10:43:37 GMT-0400 (Eastern Daylight Time)","Mon Sep 21 2020 10:55:15 GMT-0400 (Eastern Daylight Time)","Mozilla/5.0 (Windows NT 6.1; Win64; x64) AppleWebKit/537.36 (KHTML, like Gecko) Chrome/85.0.4183.102 Safari/537.36",145,"[0.9, 0.5, 0.1]","[0.8, 0.4, 0.2]","[u'blue', u'black', u'red']","[u'left', u'middle', u'right']","[0.8, 0.4, 0.2]","[u'medium', u'high', u'low']","black",50,"middle","high","True","False",663,5200,NA
"A1MNY9OSINZ2GA","Mon Sep 21 2020 10:43:37 GMT-0400 (Eastern Daylight Time)","Mon Sep 21 2020 10:55:15 GMT-0400 (Eastern Daylight Time)","Mozilla/5.0 (Windows NT 6.1; Win64; x64) AppleWebKit/537.36 (KHTML, like Gecko) Chrome/85.0.4183.102 Safari/537.36",146,"[0.9, 0.5, 0.1]","[0.8, 0.4, 0.2]","[u'blue', u'black', u'red']","[u'left', u'middle', u'right']","[0.8, 0.4, 0.2]","[u'medium', u'high', u'low']","blue",49,"left","medium","False","False",809,5150,NA
"A1MNY9OSINZ2GA","Mon Sep 21 2020 10:43:37 GMT-0400 (Eastern Daylight Time)","Mon Sep 21 2020 10:55:15 GMT-0400 (Eastern Daylight Time)","Mozilla/5.0 (Windows NT 6.1; Win64; x64) AppleWebKit/537.36 (KHTML, like Gecko) Chrome/85.0.4183.102 Safari/537.36",147,"[0.9, 0.5, 0.1]","[0.8, 0.4, 0.2]","[u'blue', u'black', u'red']","[u'left', u'middle', u'right']","[0.8, 0.4, 0.2]","[u'medium', u'high', u'low']","black",50,"middle","high","True","False",879,5250,NA
"A1MNY9OSINZ2GA","Mon Sep 21 2020 10:43:37 GMT-0400 (Eastern Daylight Time)","Mon Sep 21 2020 10:55:15 GMT-0400 (Eastern Daylight Time)","Mozilla/5.0 (Windows NT 6.1; Win64; x64) AppleWebKit/537.36 (KHTML, like Gecko) Chrome/85.0.4183.102 Safari/537.36",148,"[0.9, 0.5, 0.1]","[0.8, 0.4, 0.2]","[u'blue', u'black', u'red']","[u'left', u'middle', u'right']","[0.8, 0.4, 0.2]","[u'medium', u'high', u'low']","black",50,"middle","high","False","False",409,5200,NA
"A1MNY9OSINZ2GA","Mon Sep 21 2020 10:43:37 GMT-0400 (Eastern Daylight Time)","Mon Sep 21 2020 10:55:15 GMT-0400 (Eastern Daylight Time)","Mozilla/5.0 (Windows NT 6.1; Win64; x64) AppleWebKit/537.36 (KHTML, like Gecko) Chrome/85.0.4183.102 Safari/537.36",149,"[0.9, 0.5, 0.1]","[0.8, 0.4, 0.2]","[u'blue', u'black', u'red']","[u'left', u'middle', u'right']","[0.8, 0.4, 0.2]","[u'medium', u'high', u'low']","blue",49,"left","medium","False","False",450,5150,NA
"A1MNY9OSINZ2GA","Mon Sep 21 2020 10:43:37 GMT-0400 (Eastern Daylight Time)","Mon Sep 21 2020 10:55:15 GMT-0400 (Eastern Daylight Time)","Mozilla/5.0 (Windows NT 6.1; Win64; x64) AppleWebKit/537.36 (KHTML, like Gecko) Chrome/85.0.4183.102 Safari/537.36",150,"[0.9, 0.5, 0.1]","[0.8, 0.4, 0.2]","[u'blue', u'black', u'red']","[u'left', u'middle', u'right']","[0.8, 0.4, 0.2]","[u'medium', u'high', u'low']","red",51,"right","low","False","False",373,5100,NA
"A1MNY9OSINZ2GA","Mon Sep 21 2020 10:43:37 GMT-0400 (Eastern Daylight Time)","Mon Sep 21 2020 10:55:15 GMT-0400 (Eastern Daylight Time)","Mozilla/5.0 (Windows NT 6.1; Win64; x64) AppleWebKit/537.36 (KHTML, like Gecko) Chrome/85.0.4183.102 Safari/537.36",151,"[0.9, 0.5, 0.1]","[0.8, 0.4, 0.2]","[u'blue', u'black', u'red']","[u'left', u'middle', u'right']","[0.8, 0.4, 0.2]","[u'medium', u'high', u'low']","black",50,"middle","high","True","False",352,5200,NA
"A1MNY9OSINZ2GA","Mon Sep 21 2020 10:43:37 GMT-0400 (Eastern Daylight Time)","Mon Sep 21 2020 10:55:15 GMT-0400 (Eastern Daylight Time)","Mozilla/5.0 (Windows NT 6.1; Win64; x64) AppleWebKit/537.36 (KHTML, like Gecko) Chrome/85.0.4183.102 Safari/537.36",152,"[0.9, 0.5, 0.1]","[0.8, 0.4, 0.2]","[u'blue', u'black', u'red']","[u'left', u'middle', u'right']","[0.8, 0.4, 0.2]","[u'medium', u'high', u'low']","black",50,"middle","high","True","False",789,5300,NA
"A1MNY9OSINZ2GA","Mon Sep 21 2020 10:43:37 GMT-0400 (Eastern Daylight Time)","Mon Sep 21 2020 10:55:15 GMT-0400 (Eastern Daylight Time)","Mozilla/5.0 (Windows NT 6.1; Win64; x64) AppleWebKit/537.36 (KHTML, like Gecko) Chrome/85.0.4183.102 Safari/537.36",153,"[0.9, 0.5, 0.1]","[0.8, 0.4, 0.2]","[u'blue', u'black', u'red']","[u'left', u'middle', u'right']","[0.8, 0.4, 0.2]","[u'medium', u'high', u'low']","black",50,"middle","high","True","False",2890,5400,NA
"A1MNY9OSINZ2GA","Mon Sep 21 2020 10:43:37 GMT-0400 (Eastern Daylight Time)","Mon Sep 21 2020 10:55:15 GMT-0400 (Eastern Daylight Time)","Mozilla/5.0 (Windows NT 6.1; Win64; x64) AppleWebKit/537.36 (KHTML, like Gecko) Chrome/85.0.4183.102 Safari/537.36",154,"[0.9, 0.5, 0.1]","[0.8, 0.4, 0.2]","[u'blue', u'black', u'red']","[u'left', u'middle', u'right']","[0.8, 0.4, 0.2]","[u'medium', u'high', u'low']","black",50,"middle","high","False","False",1002,5350,NA
"A1MNY9OSINZ2GA","Mon Sep 21 2020 10:43:37 GMT-0400 (Eastern Daylight Time)","Mon Sep 21 2020 10:55:15 GMT-0400 (Eastern Daylight Time)","Mozilla/5.0 (Windows NT 6.1; Win64; x64) AppleWebKit/537.36 (KHTML, like Gecko) Chrome/85.0.4183.102 Safari/537.36",155,"[0.9, 0.5, 0.1]","[0.8, 0.4, 0.2]","[u'blue', u'black', u'red']","[u'left', u'middle', u'right']","[0.8, 0.4, 0.2]","[u'medium', u'high', u'low']","black",50,"middle","high","False","False",823,5300,NA
"A1MNY9OSINZ2GA","Mon Sep 21 2020 10:43:37 GMT-0400 (Eastern Daylight Time)","Mon Sep 21 2020 10:55:15 GMT-0400 (Eastern Daylight Time)","Mozilla/5.0 (Windows NT 6.1; Win64; x64) AppleWebKit/537.36 (KHTML, like Gecko) Chrome/85.0.4183.102 Safari/537.36",156,"[0.9, 0.5, 0.1]","[0.8, 0.4, 0.2]","[u'blue', u'black', u'red']","[u'left', u'middle', u'right']","[0.8, 0.4, 0.2]","[u'medium', u'high', u'low']","blue",49,"left","medium","False","False",954,5250,NA
"A1MNY9OSINZ2GA","Mon Sep 21 2020 10:43:37 GMT-0400 (Eastern Daylight Time)","Mon Sep 21 2020 10:55:15 GMT-0400 (Eastern Daylight Time)","Mozilla/5.0 (Windows NT 6.1; Win64; x64) AppleWebKit/537.36 (KHTML, like Gecko) Chrome/85.0.4183.102 Safari/537.36",157,"[0.9, 0.5, 0.1]","[0.8, 0.4, 0.2]","[u'blue', u'black', u'red']","[u'left', u'middle', u'right']","[0.8, 0.4, 0.2]","[u'medium', u'high', u'low']","black",50,"middle","high","True","False",714,5350,NA
"A1MNY9OSINZ2GA","Mon Sep 21 2020 10:43:37 GMT-0400 (Eastern Daylight Time)","Mon Sep 21 2020 10:55:15 GMT-0400 (Eastern Daylight Time)","Mozilla/5.0 (Windows NT 6.1; Win64; x64) AppleWebKit/537.36 (KHTML, like Gecko) Chrome/85.0.4183.102 Safari/537.36",158,"[0.9, 0.5, 0.1]","[0.8, 0.4, 0.2]","[u'blue', u'black', u'red']","[u'left', u'middle', u'right']","[0.8, 0.4, 0.2]","[u'medium', u'high', u'low']","black",50,"middle","high","True","False",619,5450,NA
"A1MNY9OSINZ2GA","Mon Sep 21 2020 10:43:37 GMT-0400 (Eastern Daylight Time)","Mon Sep 21 2020 10:55:15 GMT-0400 (Eastern Daylight Time)","Mozilla/5.0 (Windows NT 6.1; Win64; x64) AppleWebKit/537.36 (KHTML, like Gecko) Chrome/85.0.4183.102 Safari/537.36",159,"[0.9, 0.5, 0.1]","[0.8, 0.4, 0.2]","[u'blue', u'black', u'red']","[u'left', u'middle', u'right']","[0.8, 0.4, 0.2]","[u'medium', u'high', u'low']","black",50,"middle","high","True","False",873,5550,NA
"A1MNY9OSINZ2GA","Mon Sep 21 2020 10:43:37 GMT-0400 (Eastern Daylight Time)","Mon Sep 21 2020 10:55:15 GMT-0400 (Eastern Daylight Time)","Mozilla/5.0 (Windows NT 6.1; Win64; x64) AppleWebKit/537.36 (KHTML, like Gecko) Chrome/85.0.4183.102 Safari/537.36",160,"[0.9, 0.5, 0.1]","[0.8, 0.4, 0.2]","[u'blue', u'black', u'red']","[u'left', u'middle', u'right']","[0.8, 0.4, 0.2]","[u'medium', u'high', u'low']","black",50,"middle","high","False","True",334,5500,NA
