"src_subject_id","start_time","end_time","browser","index","first_half_probabilities","second_half_probabilities","deck_color","deck_position","deck_probabilities","deck_contingencies","response_color","key_press","response_position","response_probability","reward_type","trial_type","rt","reward_tally","exclusion_reason"
"AV5FCKI1TTSKR","Tue Jan 28 2020 14:13:47 GMT-0500 (Eastern Standard Time)","Tue Jan 28 2020 14:19:54 GMT-0500 (Eastern Standard Time)","Mozilla/5.0 (X11; Linux x86_64) AppleWebKit/537.36 (KHTML, like Gecko) turkernator/1.2.21 Chrome/76.0.3809.146 Electron/6.0.12 Safari/537.36",1,"[0.9, 0.5, 0.1]","[0.8, 0.4, 0.2]","[u'red', u'black', u'blue']","[u'left', u'middle', u'right']","[0.9, 0.5, 0.1]","[u'medium', u'high', u'low']","blue",51,"right","low","False","False",872,-50,NA
"AV5FCKI1TTSKR","Tue Jan 28 2020 14:13:47 GMT-0500 (Eastern Standard Time)","Tue Jan 28 2020 14:19:54 GMT-0500 (Eastern Standard Time)","Mozilla/5.0 (X11; Linux x86_64) AppleWebKit/537.36 (KHTML, like Gecko) turkernator/1.2.21 Chrome/76.0.3809.146 Electron/6.0.12 Safari/537.36",2,"[0.9, 0.5, 0.1]","[0.8, 0.4, 0.2]","[u'red', u'black', u'blue']","[u'left', u'middle', u'right']","[0.9, 0.5, 0.1]","[u'medium', u'high', u'low']","red",49,"left","medium","True","False",437,50,NA
"AV5FCKI1TTSKR","Tue Jan 28 2020 14:13:47 GMT-0500 (Eastern Standard Time)","Tue Jan 28 2020 14:19:54 GMT-0500 (Eastern Standard Time)","Mozilla/5.0 (X11; Linux x86_64) AppleWebKit/537.36 (KHTML, like Gecko) turkernator/1.2.21 Chrome/76.0.3809.146 Electron/6.0.12 Safari/537.36",3,"[0.9, 0.5, 0.1]","[0.8, 0.4, 0.2]","[u'red', u'black', u'blue']","[u'left', u'middle', u'right']","[0.9, 0.5, 0.1]","[u'medium', u'high', u'low']","red",49,"left","medium","False","False",514,0,NA
"AV5FCKI1TTSKR","Tue Jan 28 2020 14:13:47 GMT-0500 (Eastern Standard Time)","Tue Jan 28 2020 14:19:54 GMT-0500 (Eastern Standard Time)","Mozilla/5.0 (X11; Linux x86_64) AppleWebKit/537.36 (KHTML, like Gecko) turkernator/1.2.21 Chrome/76.0.3809.146 Electron/6.0.12 Safari/537.36",4,"[0.9, 0.5, 0.1]","[0.8, 0.4, 0.2]","[u'red', u'black', u'blue']","[u'left', u'middle', u'right']","[0.9, 0.5, 0.1]","[u'medium', u'high', u'low']","black",50,"middle","high","True","False",332,100,NA
"AV5FCKI1TTSKR","Tue Jan 28 2020 14:13:47 GMT-0500 (Eastern Standard Time)","Tue Jan 28 2020 14:19:54 GMT-0500 (Eastern Standard Time)","Mozilla/5.0 (X11; Linux x86_64) AppleWebKit/537.36 (KHTML, like Gecko) turkernator/1.2.21 Chrome/76.0.3809.146 Electron/6.0.12 Safari/537.36",5,"[0.9, 0.5, 0.1]","[0.8, 0.4, 0.2]","[u'red', u'black', u'blue']","[u'left', u'middle', u'right']","[0.9, 0.5, 0.1]","[u'medium', u'high', u'low']","blue",51,"right","low","False","False",302,50,NA
"AV5FCKI1TTSKR","Tue Jan 28 2020 14:13:47 GMT-0500 (Eastern Standard Time)","Tue Jan 28 2020 14:19:54 GMT-0500 (Eastern Standard Time)","Mozilla/5.0 (X11; Linux x86_64) AppleWebKit/537.36 (KHTML, like Gecko) turkernator/1.2.21 Chrome/76.0.3809.146 Electron/6.0.12 Safari/537.36",6,"[0.9, 0.5, 0.1]","[0.8, 0.4, 0.2]","[u'red', u'black', u'blue']","[u'left', u'middle', u'right']","[0.9, 0.5, 0.1]","[u'medium', u'high', u'low']","black",50,"middle","high","True","False",317,150,NA
"AV5FCKI1TTSKR","Tue Jan 28 2020 14:13:47 GMT-0500 (Eastern Standard Time)","Tue Jan 28 2020 14:19:54 GMT-0500 (Eastern Standard Time)","Mozilla/5.0 (X11; Linux x86_64) AppleWebKit/537.36 (KHTML, like Gecko) turkernator/1.2.21 Chrome/76.0.3809.146 Electron/6.0.12 Safari/537.36",7,"[0.9, 0.5, 0.1]","[0.8, 0.4, 0.2]","[u'red', u'black', u'blue']","[u'left', u'middle', u'right']","[0.9, 0.5, 0.1]","[u'medium', u'high', u'low']","black",50,"middle","high","True","False",259,250,NA
"AV5FCKI1TTSKR","Tue Jan 28 2020 14:13:47 GMT-0500 (Eastern Standard Time)","Tue Jan 28 2020 14:19:54 GMT-0500 (Eastern Standard Time)","Mozilla/5.0 (X11; Linux x86_64) AppleWebKit/537.36 (KHTML, like Gecko) turkernator/1.2.21 Chrome/76.0.3809.146 Electron/6.0.12 Safari/537.36",8,"[0.9, 0.5, 0.1]","[0.8, 0.4, 0.2]","[u'red', u'black', u'blue']","[u'left', u'middle', u'right']","[0.9, 0.5, 0.1]","[u'medium', u'high', u'low']","black",50,"middle","high","True","False",265,350,NA
"AV5FCKI1TTSKR","Tue Jan 28 2020 14:13:47 GMT-0500 (Eastern Standard Time)","Tue Jan 28 2020 14:19:54 GMT-0500 (Eastern Standard Time)","Mozilla/5.0 (X11; Linux x86_64) AppleWebKit/537.36 (KHTML, like Gecko) turkernator/1.2.21 Chrome/76.0.3809.146 Electron/6.0.12 Safari/537.36",9,"[0.9, 0.5, 0.1]","[0.8, 0.4, 0.2]","[u'red', u'black', u'blue']","[u'left', u'middle', u'right']","[0.9, 0.5, 0.1]","[u'medium', u'high', u'low']","black",50,"middle","high","True","False",182,450,NA
"AV5FCKI1TTSKR","Tue Jan 28 2020 14:13:47 GMT-0500 (Eastern Standard Time)","Tue Jan 28 2020 14:19:54 GMT-0500 (Eastern Standard Time)","Mozilla/5.0 (X11; Linux x86_64) AppleWebKit/537.36 (KHTML, like Gecko) turkernator/1.2.21 Chrome/76.0.3809.146 Electron/6.0.12 Safari/537.36",10,"[0.9, 0.5, 0.1]","[0.8, 0.4, 0.2]","[u'red', u'black', u'blue']","[u'left', u'middle', u'right']","[0.9, 0.5, 0.1]","[u'medium', u'high', u'low']","black",50,"middle","high","True","False",114,550,NA
"AV5FCKI1TTSKR","Tue Jan 28 2020 14:13:47 GMT-0500 (Eastern Standard Time)","Tue Jan 28 2020 14:19:54 GMT-0500 (Eastern Standard Time)","Mozilla/5.0 (X11; Linux x86_64) AppleWebKit/537.36 (KHTML, like Gecko) turkernator/1.2.21 Chrome/76.0.3809.146 Electron/6.0.12 Safari/537.36",11,"[0.9, 0.5, 0.1]","[0.8, 0.4, 0.2]","[u'red', u'black', u'blue']","[u'left', u'middle', u'right']","[0.9, 0.5, 0.1]","[u'medium', u'high', u'low']","black",50,"middle","high","True","False",215,650,NA
"AV5FCKI1TTSKR","Tue Jan 28 2020 14:13:47 GMT-0500 (Eastern Standard Time)","Tue Jan 28 2020 14:19:54 GMT-0500 (Eastern Standard Time)","Mozilla/5.0 (X11; Linux x86_64) AppleWebKit/537.36 (KHTML, like Gecko) turkernator/1.2.21 Chrome/76.0.3809.146 Electron/6.0.12 Safari/537.36",12,"[0.9, 0.5, 0.1]","[0.8, 0.4, 0.2]","[u'red', u'black', u'blue']","[u'left', u'middle', u'right']","[0.9, 0.5, 0.1]","[u'medium', u'high', u'low']","black",50,"middle","high","True","False",132,750,NA
"AV5FCKI1TTSKR","Tue Jan 28 2020 14:13:47 GMT-0500 (Eastern Standard Time)","Tue Jan 28 2020 14:19:54 GMT-0500 (Eastern Standard Time)","Mozilla/5.0 (X11; Linux x86_64) AppleWebKit/537.36 (KHTML, like Gecko) turkernator/1.2.21 Chrome/76.0.3809.146 Electron/6.0.12 Safari/537.36",13,"[0.9, 0.5, 0.1]","[0.8, 0.4, 0.2]","[u'red', u'black', u'blue']","[u'left', u'middle', u'right']","[0.9, 0.5, 0.1]","[u'medium', u'high', u'low']","black",50,"middle","high","True","True",147,850,NA
"AV5FCKI1TTSKR","Tue Jan 28 2020 14:13:47 GMT-0500 (Eastern Standard Time)","Tue Jan 28 2020 14:19:54 GMT-0500 (Eastern Standard Time)","Mozilla/5.0 (X11; Linux x86_64) AppleWebKit/537.36 (KHTML, like Gecko) turkernator/1.2.21 Chrome/76.0.3809.146 Electron/6.0.12 Safari/537.36",14,"[0.9, 0.5, 0.1]","[0.8, 0.4, 0.2]","[u'red', u'black', u'blue']","[u'left', u'middle', u'right']","[0.9, 0.5, 0.1]","[u'low', u'medium', u'high']","black",50,"middle","medium","False","False",99,800,NA
"AV5FCKI1TTSKR","Tue Jan 28 2020 14:13:47 GMT-0500 (Eastern Standard Time)","Tue Jan 28 2020 14:19:54 GMT-0500 (Eastern Standard Time)","Mozilla/5.0 (X11; Linux x86_64) AppleWebKit/537.36 (KHTML, like Gecko) turkernator/1.2.21 Chrome/76.0.3809.146 Electron/6.0.12 Safari/537.36",15,"[0.9, 0.5, 0.1]","[0.8, 0.4, 0.2]","[u'red', u'black', u'blue']","[u'left', u'middle', u'right']","[0.9, 0.5, 0.1]","[u'low', u'medium', u'high']","blue",51,"right","high","True","False",32,900,NA
"AV5FCKI1TTSKR","Tue Jan 28 2020 14:13:47 GMT-0500 (Eastern Standard Time)","Tue Jan 28 2020 14:19:54 GMT-0500 (Eastern Standard Time)","Mozilla/5.0 (X11; Linux x86_64) AppleWebKit/537.36 (KHTML, like Gecko) turkernator/1.2.21 Chrome/76.0.3809.146 Electron/6.0.12 Safari/537.36",16,"[0.9, 0.5, 0.1]","[0.8, 0.4, 0.2]","[u'red', u'black', u'blue']","[u'left', u'middle', u'right']","[0.9, 0.5, 0.1]","[u'low', u'medium', u'high']","blue",51,"right","high","False","False",81,850,NA
"AV5FCKI1TTSKR","Tue Jan 28 2020 14:13:47 GMT-0500 (Eastern Standard Time)","Tue Jan 28 2020 14:19:54 GMT-0500 (Eastern Standard Time)","Mozilla/5.0 (X11; Linux x86_64) AppleWebKit/537.36 (KHTML, like Gecko) turkernator/1.2.21 Chrome/76.0.3809.146 Electron/6.0.12 Safari/537.36",17,"[0.9, 0.5, 0.1]","[0.8, 0.4, 0.2]","[u'red', u'black', u'blue']","[u'left', u'middle', u'right']","[0.9, 0.5, 0.1]","[u'low', u'medium', u'high']","red",49,"left","low","False","False",381,800,NA
"AV5FCKI1TTSKR","Tue Jan 28 2020 14:13:47 GMT-0500 (Eastern Standard Time)","Tue Jan 28 2020 14:19:54 GMT-0500 (Eastern Standard Time)","Mozilla/5.0 (X11; Linux x86_64) AppleWebKit/537.36 (KHTML, like Gecko) turkernator/1.2.21 Chrome/76.0.3809.146 Electron/6.0.12 Safari/537.36",18,"[0.9, 0.5, 0.1]","[0.8, 0.4, 0.2]","[u'red', u'black', u'blue']","[u'left', u'middle', u'right']","[0.9, 0.5, 0.1]","[u'low', u'medium', u'high']","black",50,"middle","medium","True","False",565,900,NA
"AV5FCKI1TTSKR","Tue Jan 28 2020 14:13:47 GMT-0500 (Eastern Standard Time)","Tue Jan 28 2020 14:19:54 GMT-0500 (Eastern Standard Time)","Mozilla/5.0 (X11; Linux x86_64) AppleWebKit/537.36 (KHTML, like Gecko) turkernator/1.2.21 Chrome/76.0.3809.146 Electron/6.0.12 Safari/537.36",19,"[0.9, 0.5, 0.1]","[0.8, 0.4, 0.2]","[u'red', u'black', u'blue']","[u'left', u'middle', u'right']","[0.9, 0.5, 0.1]","[u'low', u'medium', u'high']","black",50,"middle","medium","False","False",115,850,NA
"AV5FCKI1TTSKR","Tue Jan 28 2020 14:13:47 GMT-0500 (Eastern Standard Time)","Tue Jan 28 2020 14:19:54 GMT-0500 (Eastern Standard Time)","Mozilla/5.0 (X11; Linux x86_64) AppleWebKit/537.36 (KHTML, like Gecko) turkernator/1.2.21 Chrome/76.0.3809.146 Electron/6.0.12 Safari/537.36",20,"[0.9, 0.5, 0.1]","[0.8, 0.4, 0.2]","[u'red', u'black', u'blue']","[u'left', u'middle', u'right']","[0.9, 0.5, 0.1]","[u'low', u'medium', u'high']","blue",51,"right","high","True","False",130,950,NA
"AV5FCKI1TTSKR","Tue Jan 28 2020 14:13:47 GMT-0500 (Eastern Standard Time)","Tue Jan 28 2020 14:19:54 GMT-0500 (Eastern Standard Time)","Mozilla/5.0 (X11; Linux x86_64) AppleWebKit/537.36 (KHTML, like Gecko) turkernator/1.2.21 Chrome/76.0.3809.146 Electron/6.0.12 Safari/537.36",21,"[0.9, 0.5, 0.1]","[0.8, 0.4, 0.2]","[u'red', u'black', u'blue']","[u'left', u'middle', u'right']","[0.9, 0.5, 0.1]","[u'low', u'medium', u'high']","blue",51,"right","high","False","False",132,900,NA
"AV5FCKI1TTSKR","Tue Jan 28 2020 14:13:47 GMT-0500 (Eastern Standard Time)","Tue Jan 28 2020 14:19:54 GMT-0500 (Eastern Standard Time)","Mozilla/5.0 (X11; Linux x86_64) AppleWebKit/537.36 (KHTML, like Gecko) turkernator/1.2.21 Chrome/76.0.3809.146 Electron/6.0.12 Safari/537.36",22,"[0.9, 0.5, 0.1]","[0.8, 0.4, 0.2]","[u'red', u'black', u'blue']","[u'left', u'middle', u'right']","[0.9, 0.5, 0.1]","[u'low', u'medium', u'high']","black",50,"middle","medium","True","False",115,1000,NA
"AV5FCKI1TTSKR","Tue Jan 28 2020 14:13:47 GMT-0500 (Eastern Standard Time)","Tue Jan 28 2020 14:19:54 GMT-0500 (Eastern Standard Time)","Mozilla/5.0 (X11; Linux x86_64) AppleWebKit/537.36 (KHTML, like Gecko) turkernator/1.2.21 Chrome/76.0.3809.146 Electron/6.0.12 Safari/537.36",23,"[0.9, 0.5, 0.1]","[0.8, 0.4, 0.2]","[u'red', u'black', u'blue']","[u'left', u'middle', u'right']","[0.9, 0.5, 0.1]","[u'low', u'medium', u'high']","black",50,"middle","medium","True","False",455,1100,NA
"AV5FCKI1TTSKR","Tue Jan 28 2020 14:13:47 GMT-0500 (Eastern Standard Time)","Tue Jan 28 2020 14:19:54 GMT-0500 (Eastern Standard Time)","Mozilla/5.0 (X11; Linux x86_64) AppleWebKit/537.36 (KHTML, like Gecko) turkernator/1.2.21 Chrome/76.0.3809.146 Electron/6.0.12 Safari/537.36",24,"[0.9, 0.5, 0.1]","[0.8, 0.4, 0.2]","[u'red', u'black', u'blue']","[u'left', u'middle', u'right']","[0.9, 0.5, 0.1]","[u'low', u'medium', u'high']","black",50,"middle","medium","True","False",75,1200,NA
"AV5FCKI1TTSKR","Tue Jan 28 2020 14:13:47 GMT-0500 (Eastern Standard Time)","Tue Jan 28 2020 14:19:54 GMT-0500 (Eastern Standard Time)","Mozilla/5.0 (X11; Linux x86_64) AppleWebKit/537.36 (KHTML, like Gecko) turkernator/1.2.21 Chrome/76.0.3809.146 Electron/6.0.12 Safari/537.36",25,"[0.9, 0.5, 0.1]","[0.8, 0.4, 0.2]","[u'red', u'black', u'blue']","[u'left', u'middle', u'right']","[0.9, 0.5, 0.1]","[u'low', u'medium', u'high']","black",50,"middle","medium","False","False",111,1150,NA
"AV5FCKI1TTSKR","Tue Jan 28 2020 14:13:47 GMT-0500 (Eastern Standard Time)","Tue Jan 28 2020 14:19:54 GMT-0500 (Eastern Standard Time)","Mozilla/5.0 (X11; Linux x86_64) AppleWebKit/537.36 (KHTML, like Gecko) turkernator/1.2.21 Chrome/76.0.3809.146 Electron/6.0.12 Safari/537.36",26,"[0.9, 0.5, 0.1]","[0.8, 0.4, 0.2]","[u'red', u'black', u'blue']","[u'left', u'middle', u'right']","[0.9, 0.5, 0.1]","[u'low', u'medium', u'high']","black",50,"middle","medium","True","False",281,1250,NA
"AV5FCKI1TTSKR","Tue Jan 28 2020 14:13:47 GMT-0500 (Eastern Standard Time)","Tue Jan 28 2020 14:19:54 GMT-0500 (Eastern Standard Time)","Mozilla/5.0 (X11; Linux x86_64) AppleWebKit/537.36 (KHTML, like Gecko) turkernator/1.2.21 Chrome/76.0.3809.146 Electron/6.0.12 Safari/537.36",27,"[0.9, 0.5, 0.1]","[0.8, 0.4, 0.2]","[u'red', u'black', u'blue']","[u'left', u'middle', u'right']","[0.9, 0.5, 0.1]","[u'low', u'medium', u'high']","black",50,"middle","medium","True","False",202,1350,NA
"AV5FCKI1TTSKR","Tue Jan 28 2020 14:13:47 GMT-0500 (Eastern Standard Time)","Tue Jan 28 2020 14:19:54 GMT-0500 (Eastern Standard Time)","Mozilla/5.0 (X11; Linux x86_64) AppleWebKit/537.36 (KHTML, like Gecko) turkernator/1.2.21 Chrome/76.0.3809.146 Electron/6.0.12 Safari/537.36",28,"[0.9, 0.5, 0.1]","[0.8, 0.4, 0.2]","[u'red', u'black', u'blue']","[u'left', u'middle', u'right']","[0.9, 0.5, 0.1]","[u'low', u'medium', u'high']","black",50,"middle","medium","True","False",60,1450,NA
"AV5FCKI1TTSKR","Tue Jan 28 2020 14:13:47 GMT-0500 (Eastern Standard Time)","Tue Jan 28 2020 14:19:54 GMT-0500 (Eastern Standard Time)","Mozilla/5.0 (X11; Linux x86_64) AppleWebKit/537.36 (KHTML, like Gecko) turkernator/1.2.21 Chrome/76.0.3809.146 Electron/6.0.12 Safari/537.36",29,"[0.9, 0.5, 0.1]","[0.8, 0.4, 0.2]","[u'red', u'black', u'blue']","[u'left', u'middle', u'right']","[0.9, 0.5, 0.1]","[u'low', u'medium', u'high']","black",50,"middle","medium","False","False",131,1400,NA
"AV5FCKI1TTSKR","Tue Jan 28 2020 14:13:47 GMT-0500 (Eastern Standard Time)","Tue Jan 28 2020 14:19:54 GMT-0500 (Eastern Standard Time)","Mozilla/5.0 (X11; Linux x86_64) AppleWebKit/537.36 (KHTML, like Gecko) turkernator/1.2.21 Chrome/76.0.3809.146 Electron/6.0.12 Safari/537.36",30,"[0.9, 0.5, 0.1]","[0.8, 0.4, 0.2]","[u'red', u'black', u'blue']","[u'left', u'middle', u'right']","[0.9, 0.5, 0.1]","[u'low', u'medium', u'high']","black",50,"middle","medium","True","False",65,1500,NA
"AV5FCKI1TTSKR","Tue Jan 28 2020 14:13:47 GMT-0500 (Eastern Standard Time)","Tue Jan 28 2020 14:19:54 GMT-0500 (Eastern Standard Time)","Mozilla/5.0 (X11; Linux x86_64) AppleWebKit/537.36 (KHTML, like Gecko) turkernator/1.2.21 Chrome/76.0.3809.146 Electron/6.0.12 Safari/537.36",31,"[0.9, 0.5, 0.1]","[0.8, 0.4, 0.2]","[u'red', u'black', u'blue']","[u'left', u'middle', u'right']","[0.9, 0.5, 0.1]","[u'low', u'medium', u'high']","black",50,"middle","medium","False","False",47,1450,NA
"AV5FCKI1TTSKR","Tue Jan 28 2020 14:13:47 GMT-0500 (Eastern Standard Time)","Tue Jan 28 2020 14:19:54 GMT-0500 (Eastern Standard Time)","Mozilla/5.0 (X11; Linux x86_64) AppleWebKit/537.36 (KHTML, like Gecko) turkernator/1.2.21 Chrome/76.0.3809.146 Electron/6.0.12 Safari/537.36",32,"[0.9, 0.5, 0.1]","[0.8, 0.4, 0.2]","[u'red', u'black', u'blue']","[u'left', u'middle', u'right']","[0.9, 0.5, 0.1]","[u'low', u'medium', u'high']","black",50,"middle","medium","True","False",35,1550,NA
"AV5FCKI1TTSKR","Tue Jan 28 2020 14:13:47 GMT-0500 (Eastern Standard Time)","Tue Jan 28 2020 14:19:54 GMT-0500 (Eastern Standard Time)","Mozilla/5.0 (X11; Linux x86_64) AppleWebKit/537.36 (KHTML, like Gecko) turkernator/1.2.21 Chrome/76.0.3809.146 Electron/6.0.12 Safari/537.36",33,"[0.9, 0.5, 0.1]","[0.8, 0.4, 0.2]","[u'red', u'black', u'blue']","[u'left', u'middle', u'right']","[0.9, 0.5, 0.1]","[u'low', u'medium', u'high']","black",50,"middle","medium","True","False",68,1650,NA
"AV5FCKI1TTSKR","Tue Jan 28 2020 14:13:47 GMT-0500 (Eastern Standard Time)","Tue Jan 28 2020 14:19:54 GMT-0500 (Eastern Standard Time)","Mozilla/5.0 (X11; Linux x86_64) AppleWebKit/537.36 (KHTML, like Gecko) turkernator/1.2.21 Chrome/76.0.3809.146 Electron/6.0.12 Safari/537.36",34,"[0.9, 0.5, 0.1]","[0.8, 0.4, 0.2]","[u'red', u'black', u'blue']","[u'left', u'middle', u'right']","[0.9, 0.5, 0.1]","[u'low', u'medium', u'high']","black",50,"middle","medium","False","False",26,1600,NA
"AV5FCKI1TTSKR","Tue Jan 28 2020 14:13:47 GMT-0500 (Eastern Standard Time)","Tue Jan 28 2020 14:19:54 GMT-0500 (Eastern Standard Time)","Mozilla/5.0 (X11; Linux x86_64) AppleWebKit/537.36 (KHTML, like Gecko) turkernator/1.2.21 Chrome/76.0.3809.146 Electron/6.0.12 Safari/537.36",35,"[0.9, 0.5, 0.1]","[0.8, 0.4, 0.2]","[u'red', u'black', u'blue']","[u'left', u'middle', u'right']","[0.9, 0.5, 0.1]","[u'low', u'medium', u'high']","black",50,"middle","medium","False","False",529,1550,NA
"AV5FCKI1TTSKR","Tue Jan 28 2020 14:13:47 GMT-0500 (Eastern Standard Time)","Tue Jan 28 2020 14:19:54 GMT-0500 (Eastern Standard Time)","Mozilla/5.0 (X11; Linux x86_64) AppleWebKit/537.36 (KHTML, like Gecko) turkernator/1.2.21 Chrome/76.0.3809.146 Electron/6.0.12 Safari/537.36",36,"[0.9, 0.5, 0.1]","[0.8, 0.4, 0.2]","[u'red', u'black', u'blue']","[u'left', u'middle', u'right']","[0.9, 0.5, 0.1]","[u'low', u'medium', u'high']","blue",51,"right","high","True","False",53,1650,NA
"AV5FCKI1TTSKR","Tue Jan 28 2020 14:13:47 GMT-0500 (Eastern Standard Time)","Tue Jan 28 2020 14:19:54 GMT-0500 (Eastern Standard Time)","Mozilla/5.0 (X11; Linux x86_64) AppleWebKit/537.36 (KHTML, like Gecko) turkernator/1.2.21 Chrome/76.0.3809.146 Electron/6.0.12 Safari/537.36",37,"[0.9, 0.5, 0.1]","[0.8, 0.4, 0.2]","[u'red', u'black', u'blue']","[u'left', u'middle', u'right']","[0.9, 0.5, 0.1]","[u'low', u'medium', u'high']","blue",51,"right","high","True","False",429,1750,NA
"AV5FCKI1TTSKR","Tue Jan 28 2020 14:13:47 GMT-0500 (Eastern Standard Time)","Tue Jan 28 2020 14:19:54 GMT-0500 (Eastern Standard Time)","Mozilla/5.0 (X11; Linux x86_64) AppleWebKit/537.36 (KHTML, like Gecko) turkernator/1.2.21 Chrome/76.0.3809.146 Electron/6.0.12 Safari/537.36",38,"[0.9, 0.5, 0.1]","[0.8, 0.4, 0.2]","[u'red', u'black', u'blue']","[u'left', u'middle', u'right']","[0.9, 0.5, 0.1]","[u'low', u'medium', u'high']","blue",51,"right","high","True","False",211,1850,NA
"AV5FCKI1TTSKR","Tue Jan 28 2020 14:13:47 GMT-0500 (Eastern Standard Time)","Tue Jan 28 2020 14:19:54 GMT-0500 (Eastern Standard Time)","Mozilla/5.0 (X11; Linux x86_64) AppleWebKit/537.36 (KHTML, like Gecko) turkernator/1.2.21 Chrome/76.0.3809.146 Electron/6.0.12 Safari/537.36",39,"[0.9, 0.5, 0.1]","[0.8, 0.4, 0.2]","[u'red', u'black', u'blue']","[u'left', u'middle', u'right']","[0.9, 0.5, 0.1]","[u'low', u'medium', u'high']","blue",51,"right","high","True","False",430,1950,NA
"AV5FCKI1TTSKR","Tue Jan 28 2020 14:13:47 GMT-0500 (Eastern Standard Time)","Tue Jan 28 2020 14:19:54 GMT-0500 (Eastern Standard Time)","Mozilla/5.0 (X11; Linux x86_64) AppleWebKit/537.36 (KHTML, like Gecko) turkernator/1.2.21 Chrome/76.0.3809.146 Electron/6.0.12 Safari/537.36",40,"[0.9, 0.5, 0.1]","[0.8, 0.4, 0.2]","[u'red', u'black', u'blue']","[u'left', u'middle', u'right']","[0.9, 0.5, 0.1]","[u'low', u'medium', u'high']","blue",51,"right","high","True","False",232,2050,NA
"AV5FCKI1TTSKR","Tue Jan 28 2020 14:13:47 GMT-0500 (Eastern Standard Time)","Tue Jan 28 2020 14:19:54 GMT-0500 (Eastern Standard Time)","Mozilla/5.0 (X11; Linux x86_64) AppleWebKit/537.36 (KHTML, like Gecko) turkernator/1.2.21 Chrome/76.0.3809.146 Electron/6.0.12 Safari/537.36",41,"[0.9, 0.5, 0.1]","[0.8, 0.4, 0.2]","[u'red', u'black', u'blue']","[u'left', u'middle', u'right']","[0.9, 0.5, 0.1]","[u'low', u'high', u'medium']","black",50,"middle","high","True","False",532,2150,NA
"AV5FCKI1TTSKR","Tue Jan 28 2020 14:13:47 GMT-0500 (Eastern Standard Time)","Tue Jan 28 2020 14:19:54 GMT-0500 (Eastern Standard Time)","Mozilla/5.0 (X11; Linux x86_64) AppleWebKit/537.36 (KHTML, like Gecko) turkernator/1.2.21 Chrome/76.0.3809.146 Electron/6.0.12 Safari/537.36",42,"[0.9, 0.5, 0.1]","[0.8, 0.4, 0.2]","[u'red', u'black', u'blue']","[u'left', u'middle', u'right']","[0.9, 0.5, 0.1]","[u'low', u'high', u'medium']","black",50,"middle","high","False","False",247,2100,NA
"AV5FCKI1TTSKR","Tue Jan 28 2020 14:13:47 GMT-0500 (Eastern Standard Time)","Tue Jan 28 2020 14:19:54 GMT-0500 (Eastern Standard Time)","Mozilla/5.0 (X11; Linux x86_64) AppleWebKit/537.36 (KHTML, like Gecko) turkernator/1.2.21 Chrome/76.0.3809.146 Electron/6.0.12 Safari/537.36",43,"[0.9, 0.5, 0.1]","[0.8, 0.4, 0.2]","[u'red', u'black', u'blue']","[u'left', u'middle', u'right']","[0.9, 0.5, 0.1]","[u'low', u'high', u'medium']","blue",51,"right","medium","True","False",131,2200,NA
"AV5FCKI1TTSKR","Tue Jan 28 2020 14:13:47 GMT-0500 (Eastern Standard Time)","Tue Jan 28 2020 14:19:54 GMT-0500 (Eastern Standard Time)","Mozilla/5.0 (X11; Linux x86_64) AppleWebKit/537.36 (KHTML, like Gecko) turkernator/1.2.21 Chrome/76.0.3809.146 Electron/6.0.12 Safari/537.36",44,"[0.9, 0.5, 0.1]","[0.8, 0.4, 0.2]","[u'red', u'black', u'blue']","[u'left', u'middle', u'right']","[0.9, 0.5, 0.1]","[u'low', u'high', u'medium']","blue",51,"right","medium","True","False",115,2300,NA
"AV5FCKI1TTSKR","Tue Jan 28 2020 14:13:47 GMT-0500 (Eastern Standard Time)","Tue Jan 28 2020 14:19:54 GMT-0500 (Eastern Standard Time)","Mozilla/5.0 (X11; Linux x86_64) AppleWebKit/537.36 (KHTML, like Gecko) turkernator/1.2.21 Chrome/76.0.3809.146 Electron/6.0.12 Safari/537.36",45,"[0.9, 0.5, 0.1]","[0.8, 0.4, 0.2]","[u'red', u'black', u'blue']","[u'left', u'middle', u'right']","[0.9, 0.5, 0.1]","[u'low', u'high', u'medium']","blue",51,"right","medium","False","False",151,2250,NA
"AV5FCKI1TTSKR","Tue Jan 28 2020 14:13:47 GMT-0500 (Eastern Standard Time)","Tue Jan 28 2020 14:19:54 GMT-0500 (Eastern Standard Time)","Mozilla/5.0 (X11; Linux x86_64) AppleWebKit/537.36 (KHTML, like Gecko) turkernator/1.2.21 Chrome/76.0.3809.146 Electron/6.0.12 Safari/537.36",46,"[0.9, 0.5, 0.1]","[0.8, 0.4, 0.2]","[u'red', u'black', u'blue']","[u'left', u'middle', u'right']","[0.9, 0.5, 0.1]","[u'low', u'high', u'medium']","red",49,"left","low","False","False",180,2200,NA
"AV5FCKI1TTSKR","Tue Jan 28 2020 14:13:47 GMT-0500 (Eastern Standard Time)","Tue Jan 28 2020 14:19:54 GMT-0500 (Eastern Standard Time)","Mozilla/5.0 (X11; Linux x86_64) AppleWebKit/537.36 (KHTML, like Gecko) turkernator/1.2.21 Chrome/76.0.3809.146 Electron/6.0.12 Safari/537.36",47,"[0.9, 0.5, 0.1]","[0.8, 0.4, 0.2]","[u'red', u'black', u'blue']","[u'left', u'middle', u'right']","[0.9, 0.5, 0.1]","[u'low', u'high', u'medium']","black",50,"middle","high","True","False",66,2300,NA
"AV5FCKI1TTSKR","Tue Jan 28 2020 14:13:47 GMT-0500 (Eastern Standard Time)","Tue Jan 28 2020 14:19:54 GMT-0500 (Eastern Standard Time)","Mozilla/5.0 (X11; Linux x86_64) AppleWebKit/537.36 (KHTML, like Gecko) turkernator/1.2.21 Chrome/76.0.3809.146 Electron/6.0.12 Safari/537.36",48,"[0.9, 0.5, 0.1]","[0.8, 0.4, 0.2]","[u'red', u'black', u'blue']","[u'left', u'middle', u'right']","[0.9, 0.5, 0.1]","[u'low', u'high', u'medium']","black",50,"middle","high","True","False",162,2400,NA
"AV5FCKI1TTSKR","Tue Jan 28 2020 14:13:47 GMT-0500 (Eastern Standard Time)","Tue Jan 28 2020 14:19:54 GMT-0500 (Eastern Standard Time)","Mozilla/5.0 (X11; Linux x86_64) AppleWebKit/537.36 (KHTML, like Gecko) turkernator/1.2.21 Chrome/76.0.3809.146 Electron/6.0.12 Safari/537.36",49,"[0.9, 0.5, 0.1]","[0.8, 0.4, 0.2]","[u'red', u'black', u'blue']","[u'left', u'middle', u'right']","[0.9, 0.5, 0.1]","[u'low', u'high', u'medium']","black",50,"middle","high","False","False",223,2350,NA
"AV5FCKI1TTSKR","Tue Jan 28 2020 14:13:47 GMT-0500 (Eastern Standard Time)","Tue Jan 28 2020 14:19:54 GMT-0500 (Eastern Standard Time)","Mozilla/5.0 (X11; Linux x86_64) AppleWebKit/537.36 (KHTML, like Gecko) turkernator/1.2.21 Chrome/76.0.3809.146 Electron/6.0.12 Safari/537.36",50,"[0.9, 0.5, 0.1]","[0.8, 0.4, 0.2]","[u'red', u'black', u'blue']","[u'left', u'middle', u'right']","[0.9, 0.5, 0.1]","[u'low', u'high', u'medium']","black",50,"middle","high","True","False",26,2450,NA
"AV5FCKI1TTSKR","Tue Jan 28 2020 14:13:47 GMT-0500 (Eastern Standard Time)","Tue Jan 28 2020 14:19:54 GMT-0500 (Eastern Standard Time)","Mozilla/5.0 (X11; Linux x86_64) AppleWebKit/537.36 (KHTML, like Gecko) turkernator/1.2.21 Chrome/76.0.3809.146 Electron/6.0.12 Safari/537.36",51,"[0.9, 0.5, 0.1]","[0.8, 0.4, 0.2]","[u'red', u'black', u'blue']","[u'left', u'middle', u'right']","[0.9, 0.5, 0.1]","[u'low', u'high', u'medium']","black",50,"middle","high","True","False",227,2550,NA
"AV5FCKI1TTSKR","Tue Jan 28 2020 14:13:47 GMT-0500 (Eastern Standard Time)","Tue Jan 28 2020 14:19:54 GMT-0500 (Eastern Standard Time)","Mozilla/5.0 (X11; Linux x86_64) AppleWebKit/537.36 (KHTML, like Gecko) turkernator/1.2.21 Chrome/76.0.3809.146 Electron/6.0.12 Safari/537.36",52,"[0.9, 0.5, 0.1]","[0.8, 0.4, 0.2]","[u'red', u'black', u'blue']","[u'left', u'middle', u'right']","[0.9, 0.5, 0.1]","[u'low', u'high', u'medium']","black",50,"middle","high","True","False",232,2650,NA
"AV5FCKI1TTSKR","Tue Jan 28 2020 14:13:47 GMT-0500 (Eastern Standard Time)","Tue Jan 28 2020 14:19:54 GMT-0500 (Eastern Standard Time)","Mozilla/5.0 (X11; Linux x86_64) AppleWebKit/537.36 (KHTML, like Gecko) turkernator/1.2.21 Chrome/76.0.3809.146 Electron/6.0.12 Safari/537.36",53,"[0.9, 0.5, 0.1]","[0.8, 0.4, 0.2]","[u'red', u'black', u'blue']","[u'left', u'middle', u'right']","[0.9, 0.5, 0.1]","[u'low', u'high', u'medium']","black",50,"middle","high","True","False",235,2750,NA
"AV5FCKI1TTSKR","Tue Jan 28 2020 14:13:47 GMT-0500 (Eastern Standard Time)","Tue Jan 28 2020 14:19:54 GMT-0500 (Eastern Standard Time)","Mozilla/5.0 (X11; Linux x86_64) AppleWebKit/537.36 (KHTML, like Gecko) turkernator/1.2.21 Chrome/76.0.3809.146 Electron/6.0.12 Safari/537.36",54,"[0.9, 0.5, 0.1]","[0.8, 0.4, 0.2]","[u'red', u'black', u'blue']","[u'left', u'middle', u'right']","[0.9, 0.5, 0.1]","[u'low', u'high', u'medium']","black",50,"middle","high","True","False",129,2850,NA
"AV5FCKI1TTSKR","Tue Jan 28 2020 14:13:47 GMT-0500 (Eastern Standard Time)","Tue Jan 28 2020 14:19:54 GMT-0500 (Eastern Standard Time)","Mozilla/5.0 (X11; Linux x86_64) AppleWebKit/537.36 (KHTML, like Gecko) turkernator/1.2.21 Chrome/76.0.3809.146 Electron/6.0.12 Safari/537.36",55,"[0.9, 0.5, 0.1]","[0.8, 0.4, 0.2]","[u'red', u'black', u'blue']","[u'left', u'middle', u'right']","[0.9, 0.5, 0.1]","[u'low', u'high', u'medium']","black",50,"middle","high","False","True",213,2800,NA
"AV5FCKI1TTSKR","Tue Jan 28 2020 14:13:47 GMT-0500 (Eastern Standard Time)","Tue Jan 28 2020 14:19:54 GMT-0500 (Eastern Standard Time)","Mozilla/5.0 (X11; Linux x86_64) AppleWebKit/537.36 (KHTML, like Gecko) turkernator/1.2.21 Chrome/76.0.3809.146 Electron/6.0.12 Safari/537.36",56,"[0.9, 0.5, 0.1]","[0.8, 0.4, 0.2]","[u'red', u'black', u'blue']","[u'left', u'middle', u'right']","[0.9, 0.5, 0.1]","[u'low', u'medium', u'high']","blue",51,"right","high","True","False",199,2900,NA
"AV5FCKI1TTSKR","Tue Jan 28 2020 14:13:47 GMT-0500 (Eastern Standard Time)","Tue Jan 28 2020 14:19:54 GMT-0500 (Eastern Standard Time)","Mozilla/5.0 (X11; Linux x86_64) AppleWebKit/537.36 (KHTML, like Gecko) turkernator/1.2.21 Chrome/76.0.3809.146 Electron/6.0.12 Safari/537.36",57,"[0.9, 0.5, 0.1]","[0.8, 0.4, 0.2]","[u'red', u'black', u'blue']","[u'left', u'middle', u'right']","[0.9, 0.5, 0.1]","[u'low', u'medium', u'high']","blue",51,"right","high","True","False",181,3000,NA
"AV5FCKI1TTSKR","Tue Jan 28 2020 14:13:47 GMT-0500 (Eastern Standard Time)","Tue Jan 28 2020 14:19:54 GMT-0500 (Eastern Standard Time)","Mozilla/5.0 (X11; Linux x86_64) AppleWebKit/537.36 (KHTML, like Gecko) turkernator/1.2.21 Chrome/76.0.3809.146 Electron/6.0.12 Safari/537.36",58,"[0.9, 0.5, 0.1]","[0.8, 0.4, 0.2]","[u'red', u'black', u'blue']","[u'left', u'middle', u'right']","[0.9, 0.5, 0.1]","[u'low', u'medium', u'high']","blue",51,"right","high","True","False",97,3100,NA
"AV5FCKI1TTSKR","Tue Jan 28 2020 14:13:47 GMT-0500 (Eastern Standard Time)","Tue Jan 28 2020 14:19:54 GMT-0500 (Eastern Standard Time)","Mozilla/5.0 (X11; Linux x86_64) AppleWebKit/537.36 (KHTML, like Gecko) turkernator/1.2.21 Chrome/76.0.3809.146 Electron/6.0.12 Safari/537.36",59,"[0.9, 0.5, 0.1]","[0.8, 0.4, 0.2]","[u'red', u'black', u'blue']","[u'left', u'middle', u'right']","[0.9, 0.5, 0.1]","[u'low', u'medium', u'high']","blue",51,"right","high","True","False",165,3200,NA
"AV5FCKI1TTSKR","Tue Jan 28 2020 14:13:47 GMT-0500 (Eastern Standard Time)","Tue Jan 28 2020 14:19:54 GMT-0500 (Eastern Standard Time)","Mozilla/5.0 (X11; Linux x86_64) AppleWebKit/537.36 (KHTML, like Gecko) turkernator/1.2.21 Chrome/76.0.3809.146 Electron/6.0.12 Safari/537.36",60,"[0.9, 0.5, 0.1]","[0.8, 0.4, 0.2]","[u'red', u'black', u'blue']","[u'left', u'middle', u'right']","[0.9, 0.5, 0.1]","[u'low', u'medium', u'high']","blue",51,"right","high","True","False",214,3300,NA
"AV5FCKI1TTSKR","Tue Jan 28 2020 14:13:47 GMT-0500 (Eastern Standard Time)","Tue Jan 28 2020 14:19:54 GMT-0500 (Eastern Standard Time)","Mozilla/5.0 (X11; Linux x86_64) AppleWebKit/537.36 (KHTML, like Gecko) turkernator/1.2.21 Chrome/76.0.3809.146 Electron/6.0.12 Safari/537.36",61,"[0.9, 0.5, 0.1]","[0.8, 0.4, 0.2]","[u'red', u'black', u'blue']","[u'left', u'middle', u'right']","[0.9, 0.5, 0.1]","[u'low', u'medium', u'high']","blue",51,"right","high","True","False",217,3400,NA
"AV5FCKI1TTSKR","Tue Jan 28 2020 14:13:47 GMT-0500 (Eastern Standard Time)","Tue Jan 28 2020 14:19:54 GMT-0500 (Eastern Standard Time)","Mozilla/5.0 (X11; Linux x86_64) AppleWebKit/537.36 (KHTML, like Gecko) turkernator/1.2.21 Chrome/76.0.3809.146 Electron/6.0.12 Safari/537.36",62,"[0.9, 0.5, 0.1]","[0.8, 0.4, 0.2]","[u'red', u'black', u'blue']","[u'left', u'middle', u'right']","[0.9, 0.5, 0.1]","[u'low', u'medium', u'high']","blue",51,"right","high","True","False",178,3500,NA
"AV5FCKI1TTSKR","Tue Jan 28 2020 14:13:47 GMT-0500 (Eastern Standard Time)","Tue Jan 28 2020 14:19:54 GMT-0500 (Eastern Standard Time)","Mozilla/5.0 (X11; Linux x86_64) AppleWebKit/537.36 (KHTML, like Gecko) turkernator/1.2.21 Chrome/76.0.3809.146 Electron/6.0.12 Safari/537.36",63,"[0.9, 0.5, 0.1]","[0.8, 0.4, 0.2]","[u'red', u'black', u'blue']","[u'left', u'middle', u'right']","[0.9, 0.5, 0.1]","[u'low', u'medium', u'high']","blue",51,"right","high","True","False",198,3600,NA
"AV5FCKI1TTSKR","Tue Jan 28 2020 14:13:47 GMT-0500 (Eastern Standard Time)","Tue Jan 28 2020 14:19:54 GMT-0500 (Eastern Standard Time)","Mozilla/5.0 (X11; Linux x86_64) AppleWebKit/537.36 (KHTML, like Gecko) turkernator/1.2.21 Chrome/76.0.3809.146 Electron/6.0.12 Safari/537.36",64,"[0.9, 0.5, 0.1]","[0.8, 0.4, 0.2]","[u'red', u'black', u'blue']","[u'left', u'middle', u'right']","[0.9, 0.5, 0.1]","[u'low', u'medium', u'high']","blue",51,"right","high","True","True",47,3700,NA
"AV5FCKI1TTSKR","Tue Jan 28 2020 14:13:47 GMT-0500 (Eastern Standard Time)","Tue Jan 28 2020 14:19:54 GMT-0500 (Eastern Standard Time)","Mozilla/5.0 (X11; Linux x86_64) AppleWebKit/537.36 (KHTML, like Gecko) turkernator/1.2.21 Chrome/76.0.3809.146 Electron/6.0.12 Safari/537.36",65,"[0.9, 0.5, 0.1]","[0.8, 0.4, 0.2]","[u'red', u'black', u'blue']","[u'left', u'middle', u'right']","[0.9, 0.5, 0.1]","[u'high', u'medium', u'low']","blue",51,"right","low","False","False",81,3650,NA
"AV5FCKI1TTSKR","Tue Jan 28 2020 14:13:47 GMT-0500 (Eastern Standard Time)","Tue Jan 28 2020 14:19:54 GMT-0500 (Eastern Standard Time)","Mozilla/5.0 (X11; Linux x86_64) AppleWebKit/537.36 (KHTML, like Gecko) turkernator/1.2.21 Chrome/76.0.3809.146 Electron/6.0.12 Safari/537.36",66,"[0.9, 0.5, 0.1]","[0.8, 0.4, 0.2]","[u'red', u'black', u'blue']","[u'left', u'middle', u'right']","[0.9, 0.5, 0.1]","[u'high', u'medium', u'low']","black",50,"middle","medium","False","False",198,3600,NA
"AV5FCKI1TTSKR","Tue Jan 28 2020 14:13:47 GMT-0500 (Eastern Standard Time)","Tue Jan 28 2020 14:19:54 GMT-0500 (Eastern Standard Time)","Mozilla/5.0 (X11; Linux x86_64) AppleWebKit/537.36 (KHTML, like Gecko) turkernator/1.2.21 Chrome/76.0.3809.146 Electron/6.0.12 Safari/537.36",67,"[0.9, 0.5, 0.1]","[0.8, 0.4, 0.2]","[u'red', u'black', u'blue']","[u'left', u'middle', u'right']","[0.9, 0.5, 0.1]","[u'high', u'medium', u'low']","blue",51,"right","low","False","False",378,3550,NA
"AV5FCKI1TTSKR","Tue Jan 28 2020 14:13:47 GMT-0500 (Eastern Standard Time)","Tue Jan 28 2020 14:19:54 GMT-0500 (Eastern Standard Time)","Mozilla/5.0 (X11; Linux x86_64) AppleWebKit/537.36 (KHTML, like Gecko) turkernator/1.2.21 Chrome/76.0.3809.146 Electron/6.0.12 Safari/537.36",68,"[0.9, 0.5, 0.1]","[0.8, 0.4, 0.2]","[u'red', u'black', u'blue']","[u'left', u'middle', u'right']","[0.9, 0.5, 0.1]","[u'high', u'medium', u'low']","red",49,"left","high","True","False",68,3650,NA
"AV5FCKI1TTSKR","Tue Jan 28 2020 14:13:47 GMT-0500 (Eastern Standard Time)","Tue Jan 28 2020 14:19:54 GMT-0500 (Eastern Standard Time)","Mozilla/5.0 (X11; Linux x86_64) AppleWebKit/537.36 (KHTML, like Gecko) turkernator/1.2.21 Chrome/76.0.3809.146 Electron/6.0.12 Safari/537.36",69,"[0.9, 0.5, 0.1]","[0.8, 0.4, 0.2]","[u'red', u'black', u'blue']","[u'left', u'middle', u'right']","[0.9, 0.5, 0.1]","[u'high', u'medium', u'low']","red",49,"left","high","True","False",198,3750,NA
"AV5FCKI1TTSKR","Tue Jan 28 2020 14:13:47 GMT-0500 (Eastern Standard Time)","Tue Jan 28 2020 14:19:54 GMT-0500 (Eastern Standard Time)","Mozilla/5.0 (X11; Linux x86_64) AppleWebKit/537.36 (KHTML, like Gecko) turkernator/1.2.21 Chrome/76.0.3809.146 Electron/6.0.12 Safari/537.36",70,"[0.9, 0.5, 0.1]","[0.8, 0.4, 0.2]","[u'red', u'black', u'blue']","[u'left', u'middle', u'right']","[0.9, 0.5, 0.1]","[u'high', u'medium', u'low']","red",49,"left","high","True","False",165,3850,NA
"AV5FCKI1TTSKR","Tue Jan 28 2020 14:13:47 GMT-0500 (Eastern Standard Time)","Tue Jan 28 2020 14:19:54 GMT-0500 (Eastern Standard Time)","Mozilla/5.0 (X11; Linux x86_64) AppleWebKit/537.36 (KHTML, like Gecko) turkernator/1.2.21 Chrome/76.0.3809.146 Electron/6.0.12 Safari/537.36",71,"[0.9, 0.5, 0.1]","[0.8, 0.4, 0.2]","[u'red', u'black', u'blue']","[u'left', u'middle', u'right']","[0.9, 0.5, 0.1]","[u'high', u'medium', u'low']","red",49,"left","high","True","False",164,3950,NA
"AV5FCKI1TTSKR","Tue Jan 28 2020 14:13:47 GMT-0500 (Eastern Standard Time)","Tue Jan 28 2020 14:19:54 GMT-0500 (Eastern Standard Time)","Mozilla/5.0 (X11; Linux x86_64) AppleWebKit/537.36 (KHTML, like Gecko) turkernator/1.2.21 Chrome/76.0.3809.146 Electron/6.0.12 Safari/537.36",72,"[0.9, 0.5, 0.1]","[0.8, 0.4, 0.2]","[u'red', u'black', u'blue']","[u'left', u'middle', u'right']","[0.9, 0.5, 0.1]","[u'high', u'medium', u'low']","red",49,"left","high","False","False",148,3900,NA
"AV5FCKI1TTSKR","Tue Jan 28 2020 14:13:47 GMT-0500 (Eastern Standard Time)","Tue Jan 28 2020 14:19:54 GMT-0500 (Eastern Standard Time)","Mozilla/5.0 (X11; Linux x86_64) AppleWebKit/537.36 (KHTML, like Gecko) turkernator/1.2.21 Chrome/76.0.3809.146 Electron/6.0.12 Safari/537.36",73,"[0.9, 0.5, 0.1]","[0.8, 0.4, 0.2]","[u'red', u'black', u'blue']","[u'left', u'middle', u'right']","[0.9, 0.5, 0.1]","[u'high', u'medium', u'low']","black",50,"middle","medium","True","False",164,4000,NA
"AV5FCKI1TTSKR","Tue Jan 28 2020 14:13:47 GMT-0500 (Eastern Standard Time)","Tue Jan 28 2020 14:19:54 GMT-0500 (Eastern Standard Time)","Mozilla/5.0 (X11; Linux x86_64) AppleWebKit/537.36 (KHTML, like Gecko) turkernator/1.2.21 Chrome/76.0.3809.146 Electron/6.0.12 Safari/537.36",74,"[0.9, 0.5, 0.1]","[0.8, 0.4, 0.2]","[u'red', u'black', u'blue']","[u'left', u'middle', u'right']","[0.9, 0.5, 0.1]","[u'high', u'medium', u'low']","black",50,"middle","medium","True","False",115,4100,NA
"AV5FCKI1TTSKR","Tue Jan 28 2020 14:13:47 GMT-0500 (Eastern Standard Time)","Tue Jan 28 2020 14:19:54 GMT-0500 (Eastern Standard Time)","Mozilla/5.0 (X11; Linux x86_64) AppleWebKit/537.36 (KHTML, like Gecko) turkernator/1.2.21 Chrome/76.0.3809.146 Electron/6.0.12 Safari/537.36",75,"[0.9, 0.5, 0.1]","[0.8, 0.4, 0.2]","[u'red', u'black', u'blue']","[u'left', u'middle', u'right']","[0.9, 0.5, 0.1]","[u'high', u'medium', u'low']","black",50,"middle","medium","True","False",218,4200,NA
"AV5FCKI1TTSKR","Tue Jan 28 2020 14:13:47 GMT-0500 (Eastern Standard Time)","Tue Jan 28 2020 14:19:54 GMT-0500 (Eastern Standard Time)","Mozilla/5.0 (X11; Linux x86_64) AppleWebKit/537.36 (KHTML, like Gecko) turkernator/1.2.21 Chrome/76.0.3809.146 Electron/6.0.12 Safari/537.36",76,"[0.9, 0.5, 0.1]","[0.8, 0.4, 0.2]","[u'red', u'black', u'blue']","[u'left', u'middle', u'right']","[0.9, 0.5, 0.1]","[u'high', u'medium', u'low']","black",50,"middle","medium","True","False",44,4300,NA
"AV5FCKI1TTSKR","Tue Jan 28 2020 14:13:47 GMT-0500 (Eastern Standard Time)","Tue Jan 28 2020 14:19:54 GMT-0500 (Eastern Standard Time)","Mozilla/5.0 (X11; Linux x86_64) AppleWebKit/537.36 (KHTML, like Gecko) turkernator/1.2.21 Chrome/76.0.3809.146 Electron/6.0.12 Safari/537.36",77,"[0.9, 0.5, 0.1]","[0.8, 0.4, 0.2]","[u'red', u'black', u'blue']","[u'left', u'middle', u'right']","[0.9, 0.5, 0.1]","[u'high', u'medium', u'low']","black",50,"middle","medium","True","False",498,4400,NA
"AV5FCKI1TTSKR","Tue Jan 28 2020 14:13:47 GMT-0500 (Eastern Standard Time)","Tue Jan 28 2020 14:19:54 GMT-0500 (Eastern Standard Time)","Mozilla/5.0 (X11; Linux x86_64) AppleWebKit/537.36 (KHTML, like Gecko) turkernator/1.2.21 Chrome/76.0.3809.146 Electron/6.0.12 Safari/537.36",78,"[0.9, 0.5, 0.1]","[0.8, 0.4, 0.2]","[u'red', u'black', u'blue']","[u'left', u'middle', u'right']","[0.9, 0.5, 0.1]","[u'high', u'medium', u'low']","black",50,"middle","medium","True","False",166,4500,NA
"AV5FCKI1TTSKR","Tue Jan 28 2020 14:13:47 GMT-0500 (Eastern Standard Time)","Tue Jan 28 2020 14:19:54 GMT-0500 (Eastern Standard Time)","Mozilla/5.0 (X11; Linux x86_64) AppleWebKit/537.36 (KHTML, like Gecko) turkernator/1.2.21 Chrome/76.0.3809.146 Electron/6.0.12 Safari/537.36",79,"[0.9, 0.5, 0.1]","[0.8, 0.4, 0.2]","[u'red', u'black', u'blue']","[u'left', u'middle', u'right']","[0.9, 0.5, 0.1]","[u'high', u'medium', u'low']","black",50,"middle","medium","False","False",214,4450,NA
"AV5FCKI1TTSKR","Tue Jan 28 2020 14:13:47 GMT-0500 (Eastern Standard Time)","Tue Jan 28 2020 14:19:54 GMT-0500 (Eastern Standard Time)","Mozilla/5.0 (X11; Linux x86_64) AppleWebKit/537.36 (KHTML, like Gecko) turkernator/1.2.21 Chrome/76.0.3809.146 Electron/6.0.12 Safari/537.36",80,"[0.9, 0.5, 0.1]","[0.8, 0.4, 0.2]","[u'red', u'black', u'blue']","[u'left', u'middle', u'right']","[0.9, 0.5, 0.1]","[u'high', u'medium', u'low']","blue",51,"right","low","True","False",129,4550,NA
"AV5FCKI1TTSKR","Tue Jan 28 2020 14:13:47 GMT-0500 (Eastern Standard Time)","Tue Jan 28 2020 14:19:54 GMT-0500 (Eastern Standard Time)","Mozilla/5.0 (X11; Linux x86_64) AppleWebKit/537.36 (KHTML, like Gecko) turkernator/1.2.21 Chrome/76.0.3809.146 Electron/6.0.12 Safari/537.36",81,"[0.9, 0.5, 0.1]","[0.8, 0.4, 0.2]","[u'red', u'black', u'blue']","[u'left', u'middle', u'right']","[0.8, 0.4, 0.2]","[u'low', u'medium', u'high']","blue",51,"right","high","False","False",400,4500,NA
"AV5FCKI1TTSKR","Tue Jan 28 2020 14:13:47 GMT-0500 (Eastern Standard Time)","Tue Jan 28 2020 14:19:54 GMT-0500 (Eastern Standard Time)","Mozilla/5.0 (X11; Linux x86_64) AppleWebKit/537.36 (KHTML, like Gecko) turkernator/1.2.21 Chrome/76.0.3809.146 Electron/6.0.12 Safari/537.36",82,"[0.9, 0.5, 0.1]","[0.8, 0.4, 0.2]","[u'red', u'black', u'blue']","[u'left', u'middle', u'right']","[0.8, 0.4, 0.2]","[u'low', u'medium', u'high']","black",50,"middle","medium","True","False",412,4600,NA
"AV5FCKI1TTSKR","Tue Jan 28 2020 14:13:47 GMT-0500 (Eastern Standard Time)","Tue Jan 28 2020 14:19:54 GMT-0500 (Eastern Standard Time)","Mozilla/5.0 (X11; Linux x86_64) AppleWebKit/537.36 (KHTML, like Gecko) turkernator/1.2.21 Chrome/76.0.3809.146 Electron/6.0.12 Safari/537.36",83,"[0.9, 0.5, 0.1]","[0.8, 0.4, 0.2]","[u'red', u'black', u'blue']","[u'left', u'middle', u'right']","[0.8, 0.4, 0.2]","[u'low', u'medium', u'high']","black",50,"middle","medium","True","False",195,4700,NA
"AV5FCKI1TTSKR","Tue Jan 28 2020 14:13:47 GMT-0500 (Eastern Standard Time)","Tue Jan 28 2020 14:19:54 GMT-0500 (Eastern Standard Time)","Mozilla/5.0 (X11; Linux x86_64) AppleWebKit/537.36 (KHTML, like Gecko) turkernator/1.2.21 Chrome/76.0.3809.146 Electron/6.0.12 Safari/537.36",84,"[0.9, 0.5, 0.1]","[0.8, 0.4, 0.2]","[u'red', u'black', u'blue']","[u'left', u'middle', u'right']","[0.8, 0.4, 0.2]","[u'low', u'medium', u'high']","black",50,"middle","medium","False","False",200,4650,NA
"AV5FCKI1TTSKR","Tue Jan 28 2020 14:13:47 GMT-0500 (Eastern Standard Time)","Tue Jan 28 2020 14:19:54 GMT-0500 (Eastern Standard Time)","Mozilla/5.0 (X11; Linux x86_64) AppleWebKit/537.36 (KHTML, like Gecko) turkernator/1.2.21 Chrome/76.0.3809.146 Electron/6.0.12 Safari/537.36",85,"[0.9, 0.5, 0.1]","[0.8, 0.4, 0.2]","[u'red', u'black', u'blue']","[u'left', u'middle', u'right']","[0.8, 0.4, 0.2]","[u'low', u'medium', u'high']","blue",51,"right","high","True","False",133,4750,NA
"AV5FCKI1TTSKR","Tue Jan 28 2020 14:13:47 GMT-0500 (Eastern Standard Time)","Tue Jan 28 2020 14:19:54 GMT-0500 (Eastern Standard Time)","Mozilla/5.0 (X11; Linux x86_64) AppleWebKit/537.36 (KHTML, like Gecko) turkernator/1.2.21 Chrome/76.0.3809.146 Electron/6.0.12 Safari/537.36",86,"[0.9, 0.5, 0.1]","[0.8, 0.4, 0.2]","[u'red', u'black', u'blue']","[u'left', u'middle', u'right']","[0.8, 0.4, 0.2]","[u'low', u'medium', u'high']","blue",51,"right","high","False","False",163,4700,NA
"AV5FCKI1TTSKR","Tue Jan 28 2020 14:13:47 GMT-0500 (Eastern Standard Time)","Tue Jan 28 2020 14:19:54 GMT-0500 (Eastern Standard Time)","Mozilla/5.0 (X11; Linux x86_64) AppleWebKit/537.36 (KHTML, like Gecko) turkernator/1.2.21 Chrome/76.0.3809.146 Electron/6.0.12 Safari/537.36",87,"[0.9, 0.5, 0.1]","[0.8, 0.4, 0.2]","[u'red', u'black', u'blue']","[u'left', u'middle', u'right']","[0.8, 0.4, 0.2]","[u'low', u'medium', u'high']","red",49,"left","low","False","False",231,4650,NA
"AV5FCKI1TTSKR","Tue Jan 28 2020 14:13:47 GMT-0500 (Eastern Standard Time)","Tue Jan 28 2020 14:19:54 GMT-0500 (Eastern Standard Time)","Mozilla/5.0 (X11; Linux x86_64) AppleWebKit/537.36 (KHTML, like Gecko) turkernator/1.2.21 Chrome/76.0.3809.146 Electron/6.0.12 Safari/537.36",88,"[0.9, 0.5, 0.1]","[0.8, 0.4, 0.2]","[u'red', u'black', u'blue']","[u'left', u'middle', u'right']","[0.8, 0.4, 0.2]","[u'low', u'medium', u'high']","black",50,"middle","medium","False","False",169,4600,NA
"AV5FCKI1TTSKR","Tue Jan 28 2020 14:13:47 GMT-0500 (Eastern Standard Time)","Tue Jan 28 2020 14:19:54 GMT-0500 (Eastern Standard Time)","Mozilla/5.0 (X11; Linux x86_64) AppleWebKit/537.36 (KHTML, like Gecko) turkernator/1.2.21 Chrome/76.0.3809.146 Electron/6.0.12 Safari/537.36",89,"[0.9, 0.5, 0.1]","[0.8, 0.4, 0.2]","[u'red', u'black', u'blue']","[u'left', u'middle', u'right']","[0.8, 0.4, 0.2]","[u'low', u'medium', u'high']","blue",51,"right","high","True","False",275,4700,NA
"AV5FCKI1TTSKR","Tue Jan 28 2020 14:13:47 GMT-0500 (Eastern Standard Time)","Tue Jan 28 2020 14:19:54 GMT-0500 (Eastern Standard Time)","Mozilla/5.0 (X11; Linux x86_64) AppleWebKit/537.36 (KHTML, like Gecko) turkernator/1.2.21 Chrome/76.0.3809.146 Electron/6.0.12 Safari/537.36",90,"[0.9, 0.5, 0.1]","[0.8, 0.4, 0.2]","[u'red', u'black', u'blue']","[u'left', u'middle', u'right']","[0.8, 0.4, 0.2]","[u'low', u'medium', u'high']","blue",51,"right","high","True","False",167,4800,NA
"AV5FCKI1TTSKR","Tue Jan 28 2020 14:13:47 GMT-0500 (Eastern Standard Time)","Tue Jan 28 2020 14:19:54 GMT-0500 (Eastern Standard Time)","Mozilla/5.0 (X11; Linux x86_64) AppleWebKit/537.36 (KHTML, like Gecko) turkernator/1.2.21 Chrome/76.0.3809.146 Electron/6.0.12 Safari/537.36",91,"[0.9, 0.5, 0.1]","[0.8, 0.4, 0.2]","[u'red', u'black', u'blue']","[u'left', u'middle', u'right']","[0.8, 0.4, 0.2]","[u'low', u'medium', u'high']","blue",51,"right","high","True","False",231,4900,NA
"AV5FCKI1TTSKR","Tue Jan 28 2020 14:13:47 GMT-0500 (Eastern Standard Time)","Tue Jan 28 2020 14:19:54 GMT-0500 (Eastern Standard Time)","Mozilla/5.0 (X11; Linux x86_64) AppleWebKit/537.36 (KHTML, like Gecko) turkernator/1.2.21 Chrome/76.0.3809.146 Electron/6.0.12 Safari/537.36",92,"[0.9, 0.5, 0.1]","[0.8, 0.4, 0.2]","[u'red', u'black', u'blue']","[u'left', u'middle', u'right']","[0.8, 0.4, 0.2]","[u'low', u'medium', u'high']","blue",51,"right","high","True","False",220,5000,NA
"AV5FCKI1TTSKR","Tue Jan 28 2020 14:13:47 GMT-0500 (Eastern Standard Time)","Tue Jan 28 2020 14:19:54 GMT-0500 (Eastern Standard Time)","Mozilla/5.0 (X11; Linux x86_64) AppleWebKit/537.36 (KHTML, like Gecko) turkernator/1.2.21 Chrome/76.0.3809.146 Electron/6.0.12 Safari/537.36",93,"[0.9, 0.5, 0.1]","[0.8, 0.4, 0.2]","[u'red', u'black', u'blue']","[u'left', u'middle', u'right']","[0.8, 0.4, 0.2]","[u'low', u'medium', u'high']","blue",51,"right","high","True","False",225,5100,NA
"AV5FCKI1TTSKR","Tue Jan 28 2020 14:13:47 GMT-0500 (Eastern Standard Time)","Tue Jan 28 2020 14:19:54 GMT-0500 (Eastern Standard Time)","Mozilla/5.0 (X11; Linux x86_64) AppleWebKit/537.36 (KHTML, like Gecko) turkernator/1.2.21 Chrome/76.0.3809.146 Electron/6.0.12 Safari/537.36",94,"[0.9, 0.5, 0.1]","[0.8, 0.4, 0.2]","[u'red', u'black', u'blue']","[u'left', u'middle', u'right']","[0.8, 0.4, 0.2]","[u'low', u'medium', u'high']","blue",51,"right","high","True","False",162,5200,NA
"AV5FCKI1TTSKR","Tue Jan 28 2020 14:13:47 GMT-0500 (Eastern Standard Time)","Tue Jan 28 2020 14:19:54 GMT-0500 (Eastern Standard Time)","Mozilla/5.0 (X11; Linux x86_64) AppleWebKit/537.36 (KHTML, like Gecko) turkernator/1.2.21 Chrome/76.0.3809.146 Electron/6.0.12 Safari/537.36",95,"[0.9, 0.5, 0.1]","[0.8, 0.4, 0.2]","[u'red', u'black', u'blue']","[u'left', u'middle', u'right']","[0.8, 0.4, 0.2]","[u'low', u'medium', u'high']","blue",51,"right","high","True","False",253,5300,NA
"AV5FCKI1TTSKR","Tue Jan 28 2020 14:13:47 GMT-0500 (Eastern Standard Time)","Tue Jan 28 2020 14:19:54 GMT-0500 (Eastern Standard Time)","Mozilla/5.0 (X11; Linux x86_64) AppleWebKit/537.36 (KHTML, like Gecko) turkernator/1.2.21 Chrome/76.0.3809.146 Electron/6.0.12 Safari/537.36",96,"[0.9, 0.5, 0.1]","[0.8, 0.4, 0.2]","[u'red', u'black', u'blue']","[u'left', u'middle', u'right']","[0.8, 0.4, 0.2]","[u'low', u'medium', u'high']","blue",51,"right","high","True","False",220,5400,NA
"AV5FCKI1TTSKR","Tue Jan 28 2020 14:13:47 GMT-0500 (Eastern Standard Time)","Tue Jan 28 2020 14:19:54 GMT-0500 (Eastern Standard Time)","Mozilla/5.0 (X11; Linux x86_64) AppleWebKit/537.36 (KHTML, like Gecko) turkernator/1.2.21 Chrome/76.0.3809.146 Electron/6.0.12 Safari/537.36",97,"[0.9, 0.5, 0.1]","[0.8, 0.4, 0.2]","[u'red', u'black', u'blue']","[u'left', u'middle', u'right']","[0.8, 0.4, 0.2]","[u'low', u'medium', u'high']","blue",51,"right","high","True","True",241,5500,NA
"AV5FCKI1TTSKR","Tue Jan 28 2020 14:13:47 GMT-0500 (Eastern Standard Time)","Tue Jan 28 2020 14:19:54 GMT-0500 (Eastern Standard Time)","Mozilla/5.0 (X11; Linux x86_64) AppleWebKit/537.36 (KHTML, like Gecko) turkernator/1.2.21 Chrome/76.0.3809.146 Electron/6.0.12 Safari/537.36",98,"[0.9, 0.5, 0.1]","[0.8, 0.4, 0.2]","[u'red', u'black', u'blue']","[u'left', u'middle', u'right']","[0.8, 0.4, 0.2]","[u'low', u'high', u'medium']","blue",51,"right","medium","False","False",156,5450,NA
"AV5FCKI1TTSKR","Tue Jan 28 2020 14:13:47 GMT-0500 (Eastern Standard Time)","Tue Jan 28 2020 14:19:54 GMT-0500 (Eastern Standard Time)","Mozilla/5.0 (X11; Linux x86_64) AppleWebKit/537.36 (KHTML, like Gecko) turkernator/1.2.21 Chrome/76.0.3809.146 Electron/6.0.12 Safari/537.36",99,"[0.9, 0.5, 0.1]","[0.8, 0.4, 0.2]","[u'red', u'black', u'blue']","[u'left', u'middle', u'right']","[0.8, 0.4, 0.2]","[u'low', u'high', u'medium']","black",50,"middle","high","True","False",164,5550,NA
"AV5FCKI1TTSKR","Tue Jan 28 2020 14:13:47 GMT-0500 (Eastern Standard Time)","Tue Jan 28 2020 14:19:54 GMT-0500 (Eastern Standard Time)","Mozilla/5.0 (X11; Linux x86_64) AppleWebKit/537.36 (KHTML, like Gecko) turkernator/1.2.21 Chrome/76.0.3809.146 Electron/6.0.12 Safari/537.36",100,"[0.9, 0.5, 0.1]","[0.8, 0.4, 0.2]","[u'red', u'black', u'blue']","[u'left', u'middle', u'right']","[0.8, 0.4, 0.2]","[u'low', u'high', u'medium']","black",50,"middle","high","True","False",98,5650,NA
"AV5FCKI1TTSKR","Tue Jan 28 2020 14:13:47 GMT-0500 (Eastern Standard Time)","Tue Jan 28 2020 14:19:54 GMT-0500 (Eastern Standard Time)","Mozilla/5.0 (X11; Linux x86_64) AppleWebKit/537.36 (KHTML, like Gecko) turkernator/1.2.21 Chrome/76.0.3809.146 Electron/6.0.12 Safari/537.36",101,"[0.9, 0.5, 0.1]","[0.8, 0.4, 0.2]","[u'red', u'black', u'blue']","[u'left', u'middle', u'right']","[0.8, 0.4, 0.2]","[u'low', u'high', u'medium']","black",50,"middle","high","True","False",250,5750,NA
"AV5FCKI1TTSKR","Tue Jan 28 2020 14:13:47 GMT-0500 (Eastern Standard Time)","Tue Jan 28 2020 14:19:54 GMT-0500 (Eastern Standard Time)","Mozilla/5.0 (X11; Linux x86_64) AppleWebKit/537.36 (KHTML, like Gecko) turkernator/1.2.21 Chrome/76.0.3809.146 Electron/6.0.12 Safari/537.36",102,"[0.9, 0.5, 0.1]","[0.8, 0.4, 0.2]","[u'red', u'black', u'blue']","[u'left', u'middle', u'right']","[0.8, 0.4, 0.2]","[u'low', u'high', u'medium']","black",50,"middle","high","True","False",178,5850,NA
"AV5FCKI1TTSKR","Tue Jan 28 2020 14:13:47 GMT-0500 (Eastern Standard Time)","Tue Jan 28 2020 14:19:54 GMT-0500 (Eastern Standard Time)","Mozilla/5.0 (X11; Linux x86_64) AppleWebKit/537.36 (KHTML, like Gecko) turkernator/1.2.21 Chrome/76.0.3809.146 Electron/6.0.12 Safari/537.36",103,"[0.9, 0.5, 0.1]","[0.8, 0.4, 0.2]","[u'red', u'black', u'blue']","[u'left', u'middle', u'right']","[0.8, 0.4, 0.2]","[u'low', u'high', u'medium']","black",50,"middle","high","True","False",133,5950,NA
"AV5FCKI1TTSKR","Tue Jan 28 2020 14:13:47 GMT-0500 (Eastern Standard Time)","Tue Jan 28 2020 14:19:54 GMT-0500 (Eastern Standard Time)","Mozilla/5.0 (X11; Linux x86_64) AppleWebKit/537.36 (KHTML, like Gecko) turkernator/1.2.21 Chrome/76.0.3809.146 Electron/6.0.12 Safari/537.36",104,"[0.9, 0.5, 0.1]","[0.8, 0.4, 0.2]","[u'red', u'black', u'blue']","[u'left', u'middle', u'right']","[0.8, 0.4, 0.2]","[u'low', u'high', u'medium']","black",50,"middle","high","True","False",179,6050,NA
"AV5FCKI1TTSKR","Tue Jan 28 2020 14:13:47 GMT-0500 (Eastern Standard Time)","Tue Jan 28 2020 14:19:54 GMT-0500 (Eastern Standard Time)","Mozilla/5.0 (X11; Linux x86_64) AppleWebKit/537.36 (KHTML, like Gecko) turkernator/1.2.21 Chrome/76.0.3809.146 Electron/6.0.12 Safari/537.36",105,"[0.9, 0.5, 0.1]","[0.8, 0.4, 0.2]","[u'red', u'black', u'blue']","[u'left', u'middle', u'right']","[0.8, 0.4, 0.2]","[u'low', u'high', u'medium']","black",50,"middle","high","True","False",164,6150,NA
"AV5FCKI1TTSKR","Tue Jan 28 2020 14:13:47 GMT-0500 (Eastern Standard Time)","Tue Jan 28 2020 14:19:54 GMT-0500 (Eastern Standard Time)","Mozilla/5.0 (X11; Linux x86_64) AppleWebKit/537.36 (KHTML, like Gecko) turkernator/1.2.21 Chrome/76.0.3809.146 Electron/6.0.12 Safari/537.36",106,"[0.9, 0.5, 0.1]","[0.8, 0.4, 0.2]","[u'red', u'black', u'blue']","[u'left', u'middle', u'right']","[0.8, 0.4, 0.2]","[u'low', u'high', u'medium']","black",50,"middle","high","False","False",47,6100,NA
"AV5FCKI1TTSKR","Tue Jan 28 2020 14:13:47 GMT-0500 (Eastern Standard Time)","Tue Jan 28 2020 14:19:54 GMT-0500 (Eastern Standard Time)","Mozilla/5.0 (X11; Linux x86_64) AppleWebKit/537.36 (KHTML, like Gecko) turkernator/1.2.21 Chrome/76.0.3809.146 Electron/6.0.12 Safari/537.36",107,"[0.9, 0.5, 0.1]","[0.8, 0.4, 0.2]","[u'red', u'black', u'blue']","[u'left', u'middle', u'right']","[0.8, 0.4, 0.2]","[u'low', u'high', u'medium']","blue",51,"right","medium","False","False",248,6050,NA
"AV5FCKI1TTSKR","Tue Jan 28 2020 14:13:47 GMT-0500 (Eastern Standard Time)","Tue Jan 28 2020 14:19:54 GMT-0500 (Eastern Standard Time)","Mozilla/5.0 (X11; Linux x86_64) AppleWebKit/537.36 (KHTML, like Gecko) turkernator/1.2.21 Chrome/76.0.3809.146 Electron/6.0.12 Safari/537.36",108,"[0.9, 0.5, 0.1]","[0.8, 0.4, 0.2]","[u'red', u'black', u'blue']","[u'left', u'middle', u'right']","[0.8, 0.4, 0.2]","[u'low', u'high', u'medium']","red",49,"left","low","False","False",381,6000,NA
"AV5FCKI1TTSKR","Tue Jan 28 2020 14:13:47 GMT-0500 (Eastern Standard Time)","Tue Jan 28 2020 14:19:54 GMT-0500 (Eastern Standard Time)","Mozilla/5.0 (X11; Linux x86_64) AppleWebKit/537.36 (KHTML, like Gecko) turkernator/1.2.21 Chrome/76.0.3809.146 Electron/6.0.12 Safari/537.36",109,"[0.9, 0.5, 0.1]","[0.8, 0.4, 0.2]","[u'red', u'black', u'blue']","[u'left', u'middle', u'right']","[0.8, 0.4, 0.2]","[u'low', u'high', u'medium']","black",50,"middle","high","True","False",85,6100,NA
"AV5FCKI1TTSKR","Tue Jan 28 2020 14:13:47 GMT-0500 (Eastern Standard Time)","Tue Jan 28 2020 14:19:54 GMT-0500 (Eastern Standard Time)","Mozilla/5.0 (X11; Linux x86_64) AppleWebKit/537.36 (KHTML, like Gecko) turkernator/1.2.21 Chrome/76.0.3809.146 Electron/6.0.12 Safari/537.36",110,"[0.9, 0.5, 0.1]","[0.8, 0.4, 0.2]","[u'red', u'black', u'blue']","[u'left', u'middle', u'right']","[0.8, 0.4, 0.2]","[u'low', u'high', u'medium']","black",50,"middle","high","True","False",160,6200,NA
"AV5FCKI1TTSKR","Tue Jan 28 2020 14:13:47 GMT-0500 (Eastern Standard Time)","Tue Jan 28 2020 14:19:54 GMT-0500 (Eastern Standard Time)","Mozilla/5.0 (X11; Linux x86_64) AppleWebKit/537.36 (KHTML, like Gecko) turkernator/1.2.21 Chrome/76.0.3809.146 Electron/6.0.12 Safari/537.36",111,"[0.9, 0.5, 0.1]","[0.8, 0.4, 0.2]","[u'red', u'black', u'blue']","[u'left', u'middle', u'right']","[0.8, 0.4, 0.2]","[u'low', u'high', u'medium']","black",50,"middle","high","True","False",199,6300,NA
"AV5FCKI1TTSKR","Tue Jan 28 2020 14:13:47 GMT-0500 (Eastern Standard Time)","Tue Jan 28 2020 14:19:54 GMT-0500 (Eastern Standard Time)","Mozilla/5.0 (X11; Linux x86_64) AppleWebKit/537.36 (KHTML, like Gecko) turkernator/1.2.21 Chrome/76.0.3809.146 Electron/6.0.12 Safari/537.36",112,"[0.9, 0.5, 0.1]","[0.8, 0.4, 0.2]","[u'red', u'black', u'blue']","[u'left', u'middle', u'right']","[0.8, 0.4, 0.2]","[u'low', u'high', u'medium']","black",50,"middle","high","True","False",198,6400,NA
"AV5FCKI1TTSKR","Tue Jan 28 2020 14:13:47 GMT-0500 (Eastern Standard Time)","Tue Jan 28 2020 14:19:54 GMT-0500 (Eastern Standard Time)","Mozilla/5.0 (X11; Linux x86_64) AppleWebKit/537.36 (KHTML, like Gecko) turkernator/1.2.21 Chrome/76.0.3809.146 Electron/6.0.12 Safari/537.36",113,"[0.9, 0.5, 0.1]","[0.8, 0.4, 0.2]","[u'red', u'black', u'blue']","[u'left', u'middle', u'right']","[0.8, 0.4, 0.2]","[u'low', u'high', u'medium']","black",50,"middle","high","True","False",115,6500,NA
"AV5FCKI1TTSKR","Tue Jan 28 2020 14:13:47 GMT-0500 (Eastern Standard Time)","Tue Jan 28 2020 14:19:54 GMT-0500 (Eastern Standard Time)","Mozilla/5.0 (X11; Linux x86_64) AppleWebKit/537.36 (KHTML, like Gecko) turkernator/1.2.21 Chrome/76.0.3809.146 Electron/6.0.12 Safari/537.36",114,"[0.9, 0.5, 0.1]","[0.8, 0.4, 0.2]","[u'red', u'black', u'blue']","[u'left', u'middle', u'right']","[0.8, 0.4, 0.2]","[u'low', u'high', u'medium']","black",50,"middle","high","True","False",231,6600,NA
"AV5FCKI1TTSKR","Tue Jan 28 2020 14:13:47 GMT-0500 (Eastern Standard Time)","Tue Jan 28 2020 14:19:54 GMT-0500 (Eastern Standard Time)","Mozilla/5.0 (X11; Linux x86_64) AppleWebKit/537.36 (KHTML, like Gecko) turkernator/1.2.21 Chrome/76.0.3809.146 Electron/6.0.12 Safari/537.36",115,"[0.9, 0.5, 0.1]","[0.8, 0.4, 0.2]","[u'red', u'black', u'blue']","[u'left', u'middle', u'right']","[0.8, 0.4, 0.2]","[u'low', u'high', u'medium']","black",50,"middle","high","True","False",181,6700,NA
"AV5FCKI1TTSKR","Tue Jan 28 2020 14:13:47 GMT-0500 (Eastern Standard Time)","Tue Jan 28 2020 14:19:54 GMT-0500 (Eastern Standard Time)","Mozilla/5.0 (X11; Linux x86_64) AppleWebKit/537.36 (KHTML, like Gecko) turkernator/1.2.21 Chrome/76.0.3809.146 Electron/6.0.12 Safari/537.36",116,"[0.9, 0.5, 0.1]","[0.8, 0.4, 0.2]","[u'red', u'black', u'blue']","[u'left', u'middle', u'right']","[0.8, 0.4, 0.2]","[u'low', u'high', u'medium']","blue",51,"right","medium","True","False",214,6800,NA
"AV5FCKI1TTSKR","Tue Jan 28 2020 14:13:47 GMT-0500 (Eastern Standard Time)","Tue Jan 28 2020 14:19:54 GMT-0500 (Eastern Standard Time)","Mozilla/5.0 (X11; Linux x86_64) AppleWebKit/537.36 (KHTML, like Gecko) turkernator/1.2.21 Chrome/76.0.3809.146 Electron/6.0.12 Safari/537.36",117,"[0.9, 0.5, 0.1]","[0.8, 0.4, 0.2]","[u'red', u'black', u'blue']","[u'left', u'middle', u'right']","[0.8, 0.4, 0.2]","[u'low', u'high', u'medium']","blue",51,"right","medium","False","False",182,6750,NA
"AV5FCKI1TTSKR","Tue Jan 28 2020 14:13:47 GMT-0500 (Eastern Standard Time)","Tue Jan 28 2020 14:19:54 GMT-0500 (Eastern Standard Time)","Mozilla/5.0 (X11; Linux x86_64) AppleWebKit/537.36 (KHTML, like Gecko) turkernator/1.2.21 Chrome/76.0.3809.146 Electron/6.0.12 Safari/537.36",118,"[0.9, 0.5, 0.1]","[0.8, 0.4, 0.2]","[u'red', u'black', u'blue']","[u'left', u'middle', u'right']","[0.8, 0.4, 0.2]","[u'low', u'high', u'medium']","blue",51,"right","medium","True","False",167,6850,NA
"AV5FCKI1TTSKR","Tue Jan 28 2020 14:13:47 GMT-0500 (Eastern Standard Time)","Tue Jan 28 2020 14:19:54 GMT-0500 (Eastern Standard Time)","Mozilla/5.0 (X11; Linux x86_64) AppleWebKit/537.36 (KHTML, like Gecko) turkernator/1.2.21 Chrome/76.0.3809.146 Electron/6.0.12 Safari/537.36",119,"[0.9, 0.5, 0.1]","[0.8, 0.4, 0.2]","[u'red', u'black', u'blue']","[u'left', u'middle', u'right']","[0.8, 0.4, 0.2]","[u'low', u'high', u'medium']","blue",51,"right","medium","True","False",192,6950,NA
"AV5FCKI1TTSKR","Tue Jan 28 2020 14:13:47 GMT-0500 (Eastern Standard Time)","Tue Jan 28 2020 14:19:54 GMT-0500 (Eastern Standard Time)","Mozilla/5.0 (X11; Linux x86_64) AppleWebKit/537.36 (KHTML, like Gecko) turkernator/1.2.21 Chrome/76.0.3809.146 Electron/6.0.12 Safari/537.36",120,"[0.9, 0.5, 0.1]","[0.8, 0.4, 0.2]","[u'red', u'black', u'blue']","[u'left', u'middle', u'right']","[0.8, 0.4, 0.2]","[u'low', u'high', u'medium']","blue",51,"right","medium","False","False",68,6900,NA
"AV5FCKI1TTSKR","Tue Jan 28 2020 14:13:47 GMT-0500 (Eastern Standard Time)","Tue Jan 28 2020 14:19:54 GMT-0500 (Eastern Standard Time)","Mozilla/5.0 (X11; Linux x86_64) AppleWebKit/537.36 (KHTML, like Gecko) turkernator/1.2.21 Chrome/76.0.3809.146 Electron/6.0.12 Safari/537.36",121,"[0.9, 0.5, 0.1]","[0.8, 0.4, 0.2]","[u'red', u'black', u'blue']","[u'left', u'middle', u'right']","[0.8, 0.4, 0.2]","[u'medium', u'low', u'high']","black",50,"middle","low","False","False",599,6850,NA
"AV5FCKI1TTSKR","Tue Jan 28 2020 14:13:47 GMT-0500 (Eastern Standard Time)","Tue Jan 28 2020 14:19:54 GMT-0500 (Eastern Standard Time)","Mozilla/5.0 (X11; Linux x86_64) AppleWebKit/537.36 (KHTML, like Gecko) turkernator/1.2.21 Chrome/76.0.3809.146 Electron/6.0.12 Safari/537.36",122,"[0.9, 0.5, 0.1]","[0.8, 0.4, 0.2]","[u'red', u'black', u'blue']","[u'left', u'middle', u'right']","[0.8, 0.4, 0.2]","[u'medium', u'low', u'high']","black",50,"middle","low","False","False",83,6800,NA
"AV5FCKI1TTSKR","Tue Jan 28 2020 14:13:47 GMT-0500 (Eastern Standard Time)","Tue Jan 28 2020 14:19:54 GMT-0500 (Eastern Standard Time)","Mozilla/5.0 (X11; Linux x86_64) AppleWebKit/537.36 (KHTML, like Gecko) turkernator/1.2.21 Chrome/76.0.3809.146 Electron/6.0.12 Safari/537.36",123,"[0.9, 0.5, 0.1]","[0.8, 0.4, 0.2]","[u'red', u'black', u'blue']","[u'left', u'middle', u'right']","[0.8, 0.4, 0.2]","[u'medium', u'low', u'high']","red",49,"left","medium","False","False",88,6750,NA
"AV5FCKI1TTSKR","Tue Jan 28 2020 14:13:47 GMT-0500 (Eastern Standard Time)","Tue Jan 28 2020 14:19:54 GMT-0500 (Eastern Standard Time)","Mozilla/5.0 (X11; Linux x86_64) AppleWebKit/537.36 (KHTML, like Gecko) turkernator/1.2.21 Chrome/76.0.3809.146 Electron/6.0.12 Safari/537.36",124,"[0.9, 0.5, 0.1]","[0.8, 0.4, 0.2]","[u'red', u'black', u'blue']","[u'left', u'middle', u'right']","[0.8, 0.4, 0.2]","[u'medium', u'low', u'high']","blue",51,"right","high","True","False",123,6850,NA
"AV5FCKI1TTSKR","Tue Jan 28 2020 14:13:47 GMT-0500 (Eastern Standard Time)","Tue Jan 28 2020 14:19:54 GMT-0500 (Eastern Standard Time)","Mozilla/5.0 (X11; Linux x86_64) AppleWebKit/537.36 (KHTML, like Gecko) turkernator/1.2.21 Chrome/76.0.3809.146 Electron/6.0.12 Safari/537.36",125,"[0.9, 0.5, 0.1]","[0.8, 0.4, 0.2]","[u'red', u'black', u'blue']","[u'left', u'middle', u'right']","[0.8, 0.4, 0.2]","[u'medium', u'low', u'high']","blue",51,"right","high","True","False",214,6950,NA
"AV5FCKI1TTSKR","Tue Jan 28 2020 14:13:47 GMT-0500 (Eastern Standard Time)","Tue Jan 28 2020 14:19:54 GMT-0500 (Eastern Standard Time)","Mozilla/5.0 (X11; Linux x86_64) AppleWebKit/537.36 (KHTML, like Gecko) turkernator/1.2.21 Chrome/76.0.3809.146 Electron/6.0.12 Safari/537.36",126,"[0.9, 0.5, 0.1]","[0.8, 0.4, 0.2]","[u'red', u'black', u'blue']","[u'left', u'middle', u'right']","[0.8, 0.4, 0.2]","[u'medium', u'low', u'high']","blue",51,"right","high","False","False",142,6900,NA
"AV5FCKI1TTSKR","Tue Jan 28 2020 14:13:47 GMT-0500 (Eastern Standard Time)","Tue Jan 28 2020 14:19:54 GMT-0500 (Eastern Standard Time)","Mozilla/5.0 (X11; Linux x86_64) AppleWebKit/537.36 (KHTML, like Gecko) turkernator/1.2.21 Chrome/76.0.3809.146 Electron/6.0.12 Safari/537.36",127,"[0.9, 0.5, 0.1]","[0.8, 0.4, 0.2]","[u'red', u'black', u'blue']","[u'left', u'middle', u'right']","[0.8, 0.4, 0.2]","[u'medium', u'low', u'high']","red",49,"left","medium","True","False",37,7000,NA
"AV5FCKI1TTSKR","Tue Jan 28 2020 14:13:47 GMT-0500 (Eastern Standard Time)","Tue Jan 28 2020 14:19:54 GMT-0500 (Eastern Standard Time)","Mozilla/5.0 (X11; Linux x86_64) AppleWebKit/537.36 (KHTML, like Gecko) turkernator/1.2.21 Chrome/76.0.3809.146 Electron/6.0.12 Safari/537.36",128,"[0.9, 0.5, 0.1]","[0.8, 0.4, 0.2]","[u'red', u'black', u'blue']","[u'left', u'middle', u'right']","[0.8, 0.4, 0.2]","[u'medium', u'low', u'high']","red",49,"left","medium","False","False",184,6950,NA
"AV5FCKI1TTSKR","Tue Jan 28 2020 14:13:47 GMT-0500 (Eastern Standard Time)","Tue Jan 28 2020 14:19:54 GMT-0500 (Eastern Standard Time)","Mozilla/5.0 (X11; Linux x86_64) AppleWebKit/537.36 (KHTML, like Gecko) turkernator/1.2.21 Chrome/76.0.3809.146 Electron/6.0.12 Safari/537.36",129,"[0.9, 0.5, 0.1]","[0.8, 0.4, 0.2]","[u'red', u'black', u'blue']","[u'left', u'middle', u'right']","[0.8, 0.4, 0.2]","[u'medium', u'low', u'high']","black",50,"middle","low","False","False",128,6900,NA
"AV5FCKI1TTSKR","Tue Jan 28 2020 14:13:47 GMT-0500 (Eastern Standard Time)","Tue Jan 28 2020 14:19:54 GMT-0500 (Eastern Standard Time)","Mozilla/5.0 (X11; Linux x86_64) AppleWebKit/537.36 (KHTML, like Gecko) turkernator/1.2.21 Chrome/76.0.3809.146 Electron/6.0.12 Safari/537.36",130,"[0.9, 0.5, 0.1]","[0.8, 0.4, 0.2]","[u'red', u'black', u'blue']","[u'left', u'middle', u'right']","[0.8, 0.4, 0.2]","[u'medium', u'low', u'high']","black",50,"middle","low","False","False",65,6850,NA
"AV5FCKI1TTSKR","Tue Jan 28 2020 14:13:47 GMT-0500 (Eastern Standard Time)","Tue Jan 28 2020 14:19:54 GMT-0500 (Eastern Standard Time)","Mozilla/5.0 (X11; Linux x86_64) AppleWebKit/537.36 (KHTML, like Gecko) turkernator/1.2.21 Chrome/76.0.3809.146 Electron/6.0.12 Safari/537.36",131,"[0.9, 0.5, 0.1]","[0.8, 0.4, 0.2]","[u'red', u'black', u'blue']","[u'left', u'middle', u'right']","[0.8, 0.4, 0.2]","[u'medium', u'low', u'high']","blue",51,"right","high","True","False",98,6950,NA
"AV5FCKI1TTSKR","Tue Jan 28 2020 14:13:47 GMT-0500 (Eastern Standard Time)","Tue Jan 28 2020 14:19:54 GMT-0500 (Eastern Standard Time)","Mozilla/5.0 (X11; Linux x86_64) AppleWebKit/537.36 (KHTML, like Gecko) turkernator/1.2.21 Chrome/76.0.3809.146 Electron/6.0.12 Safari/537.36",132,"[0.9, 0.5, 0.1]","[0.8, 0.4, 0.2]","[u'red', u'black', u'blue']","[u'left', u'middle', u'right']","[0.8, 0.4, 0.2]","[u'medium', u'low', u'high']","blue",51,"right","high","False","False",131,6900,NA
"AV5FCKI1TTSKR","Tue Jan 28 2020 14:13:47 GMT-0500 (Eastern Standard Time)","Tue Jan 28 2020 14:19:54 GMT-0500 (Eastern Standard Time)","Mozilla/5.0 (X11; Linux x86_64) AppleWebKit/537.36 (KHTML, like Gecko) turkernator/1.2.21 Chrome/76.0.3809.146 Electron/6.0.12 Safari/537.36",133,"[0.9, 0.5, 0.1]","[0.8, 0.4, 0.2]","[u'red', u'black', u'blue']","[u'left', u'middle', u'right']","[0.8, 0.4, 0.2]","[u'medium', u'low', u'high']","black",50,"middle","low","True","False",119,7000,NA
"AV5FCKI1TTSKR","Tue Jan 28 2020 14:13:47 GMT-0500 (Eastern Standard Time)","Tue Jan 28 2020 14:19:54 GMT-0500 (Eastern Standard Time)","Mozilla/5.0 (X11; Linux x86_64) AppleWebKit/537.36 (KHTML, like Gecko) turkernator/1.2.21 Chrome/76.0.3809.146 Electron/6.0.12 Safari/537.36",134,"[0.9, 0.5, 0.1]","[0.8, 0.4, 0.2]","[u'red', u'black', u'blue']","[u'left', u'middle', u'right']","[0.8, 0.4, 0.2]","[u'medium', u'low', u'high']","black",50,"middle","low","False","False",110,6950,NA
"AV5FCKI1TTSKR","Tue Jan 28 2020 14:13:47 GMT-0500 (Eastern Standard Time)","Tue Jan 28 2020 14:19:54 GMT-0500 (Eastern Standard Time)","Mozilla/5.0 (X11; Linux x86_64) AppleWebKit/537.36 (KHTML, like Gecko) turkernator/1.2.21 Chrome/76.0.3809.146 Electron/6.0.12 Safari/537.36",135,"[0.9, 0.5, 0.1]","[0.8, 0.4, 0.2]","[u'red', u'black', u'blue']","[u'left', u'middle', u'right']","[0.8, 0.4, 0.2]","[u'medium', u'low', u'high']","red",49,"left","medium","False","False",198,6900,NA
"AV5FCKI1TTSKR","Tue Jan 28 2020 14:13:47 GMT-0500 (Eastern Standard Time)","Tue Jan 28 2020 14:19:54 GMT-0500 (Eastern Standard Time)","Mozilla/5.0 (X11; Linux x86_64) AppleWebKit/537.36 (KHTML, like Gecko) turkernator/1.2.21 Chrome/76.0.3809.146 Electron/6.0.12 Safari/537.36",136,"[0.9, 0.5, 0.1]","[0.8, 0.4, 0.2]","[u'red', u'black', u'blue']","[u'left', u'middle', u'right']","[0.8, 0.4, 0.2]","[u'medium', u'low', u'high']","blue",51,"right","high","True","False",114,7000,NA
"AV5FCKI1TTSKR","Tue Jan 28 2020 14:13:47 GMT-0500 (Eastern Standard Time)","Tue Jan 28 2020 14:19:54 GMT-0500 (Eastern Standard Time)","Mozilla/5.0 (X11; Linux x86_64) AppleWebKit/537.36 (KHTML, like Gecko) turkernator/1.2.21 Chrome/76.0.3809.146 Electron/6.0.12 Safari/537.36",137,"[0.9, 0.5, 0.1]","[0.8, 0.4, 0.2]","[u'red', u'black', u'blue']","[u'left', u'middle', u'right']","[0.8, 0.4, 0.2]","[u'medium', u'low', u'high']","blue",51,"right","high","True","False",148,7100,NA
"AV5FCKI1TTSKR","Tue Jan 28 2020 14:13:47 GMT-0500 (Eastern Standard Time)","Tue Jan 28 2020 14:19:54 GMT-0500 (Eastern Standard Time)","Mozilla/5.0 (X11; Linux x86_64) AppleWebKit/537.36 (KHTML, like Gecko) turkernator/1.2.21 Chrome/76.0.3809.146 Electron/6.0.12 Safari/537.36",138,"[0.9, 0.5, 0.1]","[0.8, 0.4, 0.2]","[u'red', u'black', u'blue']","[u'left', u'middle', u'right']","[0.8, 0.4, 0.2]","[u'medium', u'low', u'high']","blue",51,"right","high","True","False",181,7200,NA
"AV5FCKI1TTSKR","Tue Jan 28 2020 14:13:47 GMT-0500 (Eastern Standard Time)","Tue Jan 28 2020 14:19:54 GMT-0500 (Eastern Standard Time)","Mozilla/5.0 (X11; Linux x86_64) AppleWebKit/537.36 (KHTML, like Gecko) turkernator/1.2.21 Chrome/76.0.3809.146 Electron/6.0.12 Safari/537.36",139,"[0.9, 0.5, 0.1]","[0.8, 0.4, 0.2]","[u'red', u'black', u'blue']","[u'left', u'middle', u'right']","[0.8, 0.4, 0.2]","[u'medium', u'low', u'high']","blue",51,"right","high","True","False",181,7300,NA
"AV5FCKI1TTSKR","Tue Jan 28 2020 14:13:47 GMT-0500 (Eastern Standard Time)","Tue Jan 28 2020 14:19:54 GMT-0500 (Eastern Standard Time)","Mozilla/5.0 (X11; Linux x86_64) AppleWebKit/537.36 (KHTML, like Gecko) turkernator/1.2.21 Chrome/76.0.3809.146 Electron/6.0.12 Safari/537.36",140,"[0.9, 0.5, 0.1]","[0.8, 0.4, 0.2]","[u'red', u'black', u'blue']","[u'left', u'middle', u'right']","[0.8, 0.4, 0.2]","[u'medium', u'low', u'high']","blue",51,"right","high","True","False",223,7400,NA
"AV5FCKI1TTSKR","Tue Jan 28 2020 14:13:47 GMT-0500 (Eastern Standard Time)","Tue Jan 28 2020 14:19:54 GMT-0500 (Eastern Standard Time)","Mozilla/5.0 (X11; Linux x86_64) AppleWebKit/537.36 (KHTML, like Gecko) turkernator/1.2.21 Chrome/76.0.3809.146 Electron/6.0.12 Safari/537.36",141,"[0.9, 0.5, 0.1]","[0.8, 0.4, 0.2]","[u'red', u'black', u'blue']","[u'left', u'middle', u'right']","[0.8, 0.4, 0.2]","[u'medium', u'low', u'high']","blue",51,"right","high","False","False",256,7350,NA
"AV5FCKI1TTSKR","Tue Jan 28 2020 14:13:47 GMT-0500 (Eastern Standard Time)","Tue Jan 28 2020 14:19:54 GMT-0500 (Eastern Standard Time)","Mozilla/5.0 (X11; Linux x86_64) AppleWebKit/537.36 (KHTML, like Gecko) turkernator/1.2.21 Chrome/76.0.3809.146 Electron/6.0.12 Safari/537.36",142,"[0.9, 0.5, 0.1]","[0.8, 0.4, 0.2]","[u'red', u'black', u'blue']","[u'left', u'middle', u'right']","[0.8, 0.4, 0.2]","[u'medium', u'low', u'high']","red",49,"left","medium","False","False",84,7300,NA
"AV5FCKI1TTSKR","Tue Jan 28 2020 14:13:47 GMT-0500 (Eastern Standard Time)","Tue Jan 28 2020 14:19:54 GMT-0500 (Eastern Standard Time)","Mozilla/5.0 (X11; Linux x86_64) AppleWebKit/537.36 (KHTML, like Gecko) turkernator/1.2.21 Chrome/76.0.3809.146 Electron/6.0.12 Safari/537.36",143,"[0.9, 0.5, 0.1]","[0.8, 0.4, 0.2]","[u'red', u'black', u'blue']","[u'left', u'middle', u'right']","[0.8, 0.4, 0.2]","[u'medium', u'low', u'high']","black",50,"middle","low","False","False",178,7250,NA
"AV5FCKI1TTSKR","Tue Jan 28 2020 14:13:47 GMT-0500 (Eastern Standard Time)","Tue Jan 28 2020 14:19:54 GMT-0500 (Eastern Standard Time)","Mozilla/5.0 (X11; Linux x86_64) AppleWebKit/537.36 (KHTML, like Gecko) turkernator/1.2.21 Chrome/76.0.3809.146 Electron/6.0.12 Safari/537.36",144,"[0.9, 0.5, 0.1]","[0.8, 0.4, 0.2]","[u'red', u'black', u'blue']","[u'left', u'middle', u'right']","[0.8, 0.4, 0.2]","[u'medium', u'low', u'high']","black",50,"middle","low","True","False",167,7350,NA
"AV5FCKI1TTSKR","Tue Jan 28 2020 14:13:47 GMT-0500 (Eastern Standard Time)","Tue Jan 28 2020 14:19:54 GMT-0500 (Eastern Standard Time)","Mozilla/5.0 (X11; Linux x86_64) AppleWebKit/537.36 (KHTML, like Gecko) turkernator/1.2.21 Chrome/76.0.3809.146 Electron/6.0.12 Safari/537.36",145,"[0.9, 0.5, 0.1]","[0.8, 0.4, 0.2]","[u'red', u'black', u'blue']","[u'left', u'middle', u'right']","[0.8, 0.4, 0.2]","[u'medium', u'low', u'high']","black",50,"middle","low","True","False",246,7450,NA
"AV5FCKI1TTSKR","Tue Jan 28 2020 14:13:47 GMT-0500 (Eastern Standard Time)","Tue Jan 28 2020 14:19:54 GMT-0500 (Eastern Standard Time)","Mozilla/5.0 (X11; Linux x86_64) AppleWebKit/537.36 (KHTML, like Gecko) turkernator/1.2.21 Chrome/76.0.3809.146 Electron/6.0.12 Safari/537.36",146,"[0.9, 0.5, 0.1]","[0.8, 0.4, 0.2]","[u'red', u'black', u'blue']","[u'left', u'middle', u'right']","[0.8, 0.4, 0.2]","[u'medium', u'low', u'high']","black",50,"middle","low","False","False",215,7400,NA
"AV5FCKI1TTSKR","Tue Jan 28 2020 14:13:47 GMT-0500 (Eastern Standard Time)","Tue Jan 28 2020 14:19:54 GMT-0500 (Eastern Standard Time)","Mozilla/5.0 (X11; Linux x86_64) AppleWebKit/537.36 (KHTML, like Gecko) turkernator/1.2.21 Chrome/76.0.3809.146 Electron/6.0.12 Safari/537.36",147,"[0.9, 0.5, 0.1]","[0.8, 0.4, 0.2]","[u'red', u'black', u'blue']","[u'left', u'middle', u'right']","[0.8, 0.4, 0.2]","[u'medium', u'low', u'high']","blue",51,"right","high","True","False",82,7500,NA
"AV5FCKI1TTSKR","Tue Jan 28 2020 14:13:47 GMT-0500 (Eastern Standard Time)","Tue Jan 28 2020 14:19:54 GMT-0500 (Eastern Standard Time)","Mozilla/5.0 (X11; Linux x86_64) AppleWebKit/537.36 (KHTML, like Gecko) turkernator/1.2.21 Chrome/76.0.3809.146 Electron/6.0.12 Safari/537.36",148,"[0.9, 0.5, 0.1]","[0.8, 0.4, 0.2]","[u'red', u'black', u'blue']","[u'left', u'middle', u'right']","[0.8, 0.4, 0.2]","[u'medium', u'low', u'high']","blue",51,"right","high","True","False",196,7600,NA
"AV5FCKI1TTSKR","Tue Jan 28 2020 14:13:47 GMT-0500 (Eastern Standard Time)","Tue Jan 28 2020 14:19:54 GMT-0500 (Eastern Standard Time)","Mozilla/5.0 (X11; Linux x86_64) AppleWebKit/537.36 (KHTML, like Gecko) turkernator/1.2.21 Chrome/76.0.3809.146 Electron/6.0.12 Safari/537.36",149,"[0.9, 0.5, 0.1]","[0.8, 0.4, 0.2]","[u'red', u'black', u'blue']","[u'left', u'middle', u'right']","[0.8, 0.4, 0.2]","[u'medium', u'low', u'high']","blue",51,"right","high","True","False",230,7700,NA
"AV5FCKI1TTSKR","Tue Jan 28 2020 14:13:47 GMT-0500 (Eastern Standard Time)","Tue Jan 28 2020 14:19:54 GMT-0500 (Eastern Standard Time)","Mozilla/5.0 (X11; Linux x86_64) AppleWebKit/537.36 (KHTML, like Gecko) turkernator/1.2.21 Chrome/76.0.3809.146 Electron/6.0.12 Safari/537.36",150,"[0.9, 0.5, 0.1]","[0.8, 0.4, 0.2]","[u'red', u'black', u'blue']","[u'left', u'middle', u'right']","[0.8, 0.4, 0.2]","[u'medium', u'low', u'high']","blue",51,"right","high","True","False",115,7800,NA
"AV5FCKI1TTSKR","Tue Jan 28 2020 14:13:47 GMT-0500 (Eastern Standard Time)","Tue Jan 28 2020 14:19:54 GMT-0500 (Eastern Standard Time)","Mozilla/5.0 (X11; Linux x86_64) AppleWebKit/537.36 (KHTML, like Gecko) turkernator/1.2.21 Chrome/76.0.3809.146 Electron/6.0.12 Safari/537.36",151,"[0.9, 0.5, 0.1]","[0.8, 0.4, 0.2]","[u'red', u'black', u'blue']","[u'left', u'middle', u'right']","[0.8, 0.4, 0.2]","[u'medium', u'low', u'high']","blue",51,"right","high","True","False",281,7900,NA
"AV5FCKI1TTSKR","Tue Jan 28 2020 14:13:47 GMT-0500 (Eastern Standard Time)","Tue Jan 28 2020 14:19:54 GMT-0500 (Eastern Standard Time)","Mozilla/5.0 (X11; Linux x86_64) AppleWebKit/537.36 (KHTML, like Gecko) turkernator/1.2.21 Chrome/76.0.3809.146 Electron/6.0.12 Safari/537.36",152,"[0.9, 0.5, 0.1]","[0.8, 0.4, 0.2]","[u'red', u'black', u'blue']","[u'left', u'middle', u'right']","[0.8, 0.4, 0.2]","[u'medium', u'low', u'high']","blue",51,"right","high","True","False",132,8000,NA
"AV5FCKI1TTSKR","Tue Jan 28 2020 14:13:47 GMT-0500 (Eastern Standard Time)","Tue Jan 28 2020 14:19:54 GMT-0500 (Eastern Standard Time)","Mozilla/5.0 (X11; Linux x86_64) AppleWebKit/537.36 (KHTML, like Gecko) turkernator/1.2.21 Chrome/76.0.3809.146 Electron/6.0.12 Safari/537.36",153,"[0.9, 0.5, 0.1]","[0.8, 0.4, 0.2]","[u'red', u'black', u'blue']","[u'left', u'middle', u'right']","[0.8, 0.4, 0.2]","[u'medium', u'low', u'high']","blue",51,"right","high","True","False",17,8100,NA
"AV5FCKI1TTSKR","Tue Jan 28 2020 14:13:47 GMT-0500 (Eastern Standard Time)","Tue Jan 28 2020 14:19:54 GMT-0500 (Eastern Standard Time)","Mozilla/5.0 (X11; Linux x86_64) AppleWebKit/537.36 (KHTML, like Gecko) turkernator/1.2.21 Chrome/76.0.3809.146 Electron/6.0.12 Safari/537.36",154,"[0.9, 0.5, 0.1]","[0.8, 0.4, 0.2]","[u'red', u'black', u'blue']","[u'left', u'middle', u'right']","[0.8, 0.4, 0.2]","[u'medium', u'low', u'high']","blue",51,"right","high","True","False",132,8200,NA
"AV5FCKI1TTSKR","Tue Jan 28 2020 14:13:47 GMT-0500 (Eastern Standard Time)","Tue Jan 28 2020 14:19:54 GMT-0500 (Eastern Standard Time)","Mozilla/5.0 (X11; Linux x86_64) AppleWebKit/537.36 (KHTML, like Gecko) turkernator/1.2.21 Chrome/76.0.3809.146 Electron/6.0.12 Safari/537.36",155,"[0.9, 0.5, 0.1]","[0.8, 0.4, 0.2]","[u'red', u'black', u'blue']","[u'left', u'middle', u'right']","[0.8, 0.4, 0.2]","[u'medium', u'low', u'high']","blue",51,"right","high","False","True",145,8150,NA
"AV5FCKI1TTSKR","Tue Jan 28 2020 14:13:47 GMT-0500 (Eastern Standard Time)","Tue Jan 28 2020 14:19:54 GMT-0500 (Eastern Standard Time)","Mozilla/5.0 (X11; Linux x86_64) AppleWebKit/537.36 (KHTML, like Gecko) turkernator/1.2.21 Chrome/76.0.3809.146 Electron/6.0.12 Safari/537.36",156,"[0.9, 0.5, 0.1]","[0.8, 0.4, 0.2]","[u'red', u'black', u'blue']","[u'left', u'middle', u'right']","[0.8, 0.4, 0.2]","[u'high', u'medium', u'low']","red",49,"left","high","True","False",315,8250,NA
"AV5FCKI1TTSKR","Tue Jan 28 2020 14:13:47 GMT-0500 (Eastern Standard Time)","Tue Jan 28 2020 14:19:54 GMT-0500 (Eastern Standard Time)","Mozilla/5.0 (X11; Linux x86_64) AppleWebKit/537.36 (KHTML, like Gecko) turkernator/1.2.21 Chrome/76.0.3809.146 Electron/6.0.12 Safari/537.36",157,"[0.9, 0.5, 0.1]","[0.8, 0.4, 0.2]","[u'red', u'black', u'blue']","[u'left', u'middle', u'right']","[0.8, 0.4, 0.2]","[u'high', u'medium', u'low']","red",49,"left","high","True","False",217,8350,NA
"AV5FCKI1TTSKR","Tue Jan 28 2020 14:13:47 GMT-0500 (Eastern Standard Time)","Tue Jan 28 2020 14:19:54 GMT-0500 (Eastern Standard Time)","Mozilla/5.0 (X11; Linux x86_64) AppleWebKit/537.36 (KHTML, like Gecko) turkernator/1.2.21 Chrome/76.0.3809.146 Electron/6.0.12 Safari/537.36",158,"[0.9, 0.5, 0.1]","[0.8, 0.4, 0.2]","[u'red', u'black', u'blue']","[u'left', u'middle', u'right']","[0.8, 0.4, 0.2]","[u'high', u'medium', u'low']","red",49,"left","high","True","False",177,8450,NA
"AV5FCKI1TTSKR","Tue Jan 28 2020 14:13:47 GMT-0500 (Eastern Standard Time)","Tue Jan 28 2020 14:19:54 GMT-0500 (Eastern Standard Time)","Mozilla/5.0 (X11; Linux x86_64) AppleWebKit/537.36 (KHTML, like Gecko) turkernator/1.2.21 Chrome/76.0.3809.146 Electron/6.0.12 Safari/537.36",159,"[0.9, 0.5, 0.1]","[0.8, 0.4, 0.2]","[u'red', u'black', u'blue']","[u'left', u'middle', u'right']","[0.8, 0.4, 0.2]","[u'high', u'medium', u'low']","red",49,"left","high","True","False",149,8550,NA
"AV5FCKI1TTSKR","Tue Jan 28 2020 14:13:47 GMT-0500 (Eastern Standard Time)","Tue Jan 28 2020 14:19:54 GMT-0500 (Eastern Standard Time)","Mozilla/5.0 (X11; Linux x86_64) AppleWebKit/537.36 (KHTML, like Gecko) turkernator/1.2.21 Chrome/76.0.3809.146 Electron/6.0.12 Safari/537.36",160,"[0.9, 0.5, 0.1]","[0.8, 0.4, 0.2]","[u'red', u'black', u'blue']","[u'left', u'middle', u'right']","[0.8, 0.4, 0.2]","[u'high', u'medium', u'low']","red",49,"left","high","False","False",231,8500,NA
