"src_subject_id","start_time","end_time","browser","index","first_half_probabilities","second_half_probabilities","deck_color","deck_position","deck_probabilities","deck_contingencies","response_color","key_press","response_position","response_probability","reward_type","trial_type","rt","reward_tally","exclusion_reason"
"A39C210BKD7YNN","Tue Jan 28 2020 14:42:30 GMT-0500 (Eastern Standard Time)","Tue Jan 28 2020 14:49:26 GMT-0500 (Eastern Standard Time)","Mozilla/5.0 (Windows NT 10.0; Win64; x64) AppleWebKit/537.36 (KHTML, like Gecko) Chrome/79.0.3945.130 Safari/537.36",1,"[0.9, 0.5, 0.1]","[0.8, 0.4, 0.2]","[u'blue', u'red', u'black']","[u'left', u'middle', u'right']","[0.9, 0.5, 0.1]","[u'medium', u'high', u'low']","blue",49,"left","medium","False","False",897,-50,NA
"A39C210BKD7YNN","Tue Jan 28 2020 14:42:30 GMT-0500 (Eastern Standard Time)","Tue Jan 28 2020 14:49:26 GMT-0500 (Eastern Standard Time)","Mozilla/5.0 (Windows NT 10.0; Win64; x64) AppleWebKit/537.36 (KHTML, like Gecko) Chrome/79.0.3945.130 Safari/537.36",2,"[0.9, 0.5, 0.1]","[0.8, 0.4, 0.2]","[u'blue', u'red', u'black']","[u'left', u'middle', u'right']","[0.9, 0.5, 0.1]","[u'medium', u'high', u'low']","black",51,"right","low","False","False",376,-100,NA
"A39C210BKD7YNN","Tue Jan 28 2020 14:42:30 GMT-0500 (Eastern Standard Time)","Tue Jan 28 2020 14:49:26 GMT-0500 (Eastern Standard Time)","Mozilla/5.0 (Windows NT 10.0; Win64; x64) AppleWebKit/537.36 (KHTML, like Gecko) Chrome/79.0.3945.130 Safari/537.36",3,"[0.9, 0.5, 0.1]","[0.8, 0.4, 0.2]","[u'blue', u'red', u'black']","[u'left', u'middle', u'right']","[0.9, 0.5, 0.1]","[u'medium', u'high', u'low']","red",50,"middle","high","False","False",297,-150,NA
"A39C210BKD7YNN","Tue Jan 28 2020 14:42:30 GMT-0500 (Eastern Standard Time)","Tue Jan 28 2020 14:49:26 GMT-0500 (Eastern Standard Time)","Mozilla/5.0 (Windows NT 10.0; Win64; x64) AppleWebKit/537.36 (KHTML, like Gecko) Chrome/79.0.3945.130 Safari/537.36",4,"[0.9, 0.5, 0.1]","[0.8, 0.4, 0.2]","[u'blue', u'red', u'black']","[u'left', u'middle', u'right']","[0.9, 0.5, 0.1]","[u'medium', u'high', u'low']","black",51,"right","low","False","False",293,-200,NA
"A39C210BKD7YNN","Tue Jan 28 2020 14:42:30 GMT-0500 (Eastern Standard Time)","Tue Jan 28 2020 14:49:26 GMT-0500 (Eastern Standard Time)","Mozilla/5.0 (Windows NT 10.0; Win64; x64) AppleWebKit/537.36 (KHTML, like Gecko) Chrome/79.0.3945.130 Safari/537.36",5,"[0.9, 0.5, 0.1]","[0.8, 0.4, 0.2]","[u'blue', u'red', u'black']","[u'left', u'middle', u'right']","[0.9, 0.5, 0.1]","[u'medium', u'high', u'low']","blue",49,"left","medium","True","False",267,-100,NA
"A39C210BKD7YNN","Tue Jan 28 2020 14:42:30 GMT-0500 (Eastern Standard Time)","Tue Jan 28 2020 14:49:26 GMT-0500 (Eastern Standard Time)","Mozilla/5.0 (Windows NT 10.0; Win64; x64) AppleWebKit/537.36 (KHTML, like Gecko) Chrome/79.0.3945.130 Safari/537.36",6,"[0.9, 0.5, 0.1]","[0.8, 0.4, 0.2]","[u'blue', u'red', u'black']","[u'left', u'middle', u'right']","[0.9, 0.5, 0.1]","[u'medium', u'high', u'low']","blue",49,"left","medium","True","False",329,0,NA
"A39C210BKD7YNN","Tue Jan 28 2020 14:42:30 GMT-0500 (Eastern Standard Time)","Tue Jan 28 2020 14:49:26 GMT-0500 (Eastern Standard Time)","Mozilla/5.0 (Windows NT 10.0; Win64; x64) AppleWebKit/537.36 (KHTML, like Gecko) Chrome/79.0.3945.130 Safari/537.36",7,"[0.9, 0.5, 0.1]","[0.8, 0.4, 0.2]","[u'blue', u'red', u'black']","[u'left', u'middle', u'right']","[0.9, 0.5, 0.1]","[u'medium', u'high', u'low']","blue",49,"left","medium","False","False",439,-50,NA
"A39C210BKD7YNN","Tue Jan 28 2020 14:42:30 GMT-0500 (Eastern Standard Time)","Tue Jan 28 2020 14:49:26 GMT-0500 (Eastern Standard Time)","Mozilla/5.0 (Windows NT 10.0; Win64; x64) AppleWebKit/537.36 (KHTML, like Gecko) Chrome/79.0.3945.130 Safari/537.36",8,"[0.9, 0.5, 0.1]","[0.8, 0.4, 0.2]","[u'blue', u'red', u'black']","[u'left', u'middle', u'right']","[0.9, 0.5, 0.1]","[u'medium', u'high', u'low']","red",50,"middle","high","False","False",336,-100,NA
"A39C210BKD7YNN","Tue Jan 28 2020 14:42:30 GMT-0500 (Eastern Standard Time)","Tue Jan 28 2020 14:49:26 GMT-0500 (Eastern Standard Time)","Mozilla/5.0 (Windows NT 10.0; Win64; x64) AppleWebKit/537.36 (KHTML, like Gecko) Chrome/79.0.3945.130 Safari/537.36",9,"[0.9, 0.5, 0.1]","[0.8, 0.4, 0.2]","[u'blue', u'red', u'black']","[u'left', u'middle', u'right']","[0.9, 0.5, 0.1]","[u'medium', u'high', u'low']","blue",49,"left","medium","True","False",310,0,NA
"A39C210BKD7YNN","Tue Jan 28 2020 14:42:30 GMT-0500 (Eastern Standard Time)","Tue Jan 28 2020 14:49:26 GMT-0500 (Eastern Standard Time)","Mozilla/5.0 (Windows NT 10.0; Win64; x64) AppleWebKit/537.36 (KHTML, like Gecko) Chrome/79.0.3945.130 Safari/537.36",10,"[0.9, 0.5, 0.1]","[0.8, 0.4, 0.2]","[u'blue', u'red', u'black']","[u'left', u'middle', u'right']","[0.9, 0.5, 0.1]","[u'medium', u'high', u'low']","blue",49,"left","medium","True","False",435,100,NA
"A39C210BKD7YNN","Tue Jan 28 2020 14:42:30 GMT-0500 (Eastern Standard Time)","Tue Jan 28 2020 14:49:26 GMT-0500 (Eastern Standard Time)","Mozilla/5.0 (Windows NT 10.0; Win64; x64) AppleWebKit/537.36 (KHTML, like Gecko) Chrome/79.0.3945.130 Safari/537.36",11,"[0.9, 0.5, 0.1]","[0.8, 0.4, 0.2]","[u'blue', u'red', u'black']","[u'left', u'middle', u'right']","[0.9, 0.5, 0.1]","[u'medium', u'high', u'low']","blue",49,"left","medium","True","False",419,200,NA
"A39C210BKD7YNN","Tue Jan 28 2020 14:42:30 GMT-0500 (Eastern Standard Time)","Tue Jan 28 2020 14:49:26 GMT-0500 (Eastern Standard Time)","Mozilla/5.0 (Windows NT 10.0; Win64; x64) AppleWebKit/537.36 (KHTML, like Gecko) Chrome/79.0.3945.130 Safari/537.36",12,"[0.9, 0.5, 0.1]","[0.8, 0.4, 0.2]","[u'blue', u'red', u'black']","[u'left', u'middle', u'right']","[0.9, 0.5, 0.1]","[u'medium', u'high', u'low']","blue",49,"left","medium","True","False",469,300,NA
"A39C210BKD7YNN","Tue Jan 28 2020 14:42:30 GMT-0500 (Eastern Standard Time)","Tue Jan 28 2020 14:49:26 GMT-0500 (Eastern Standard Time)","Mozilla/5.0 (Windows NT 10.0; Win64; x64) AppleWebKit/537.36 (KHTML, like Gecko) Chrome/79.0.3945.130 Safari/537.36",13,"[0.9, 0.5, 0.1]","[0.8, 0.4, 0.2]","[u'blue', u'red', u'black']","[u'left', u'middle', u'right']","[0.9, 0.5, 0.1]","[u'medium', u'high', u'low']","blue",49,"left","medium","True","False",455,400,NA
"A39C210BKD7YNN","Tue Jan 28 2020 14:42:30 GMT-0500 (Eastern Standard Time)","Tue Jan 28 2020 14:49:26 GMT-0500 (Eastern Standard Time)","Mozilla/5.0 (Windows NT 10.0; Win64; x64) AppleWebKit/537.36 (KHTML, like Gecko) Chrome/79.0.3945.130 Safari/537.36",14,"[0.9, 0.5, 0.1]","[0.8, 0.4, 0.2]","[u'blue', u'red', u'black']","[u'left', u'middle', u'right']","[0.9, 0.5, 0.1]","[u'medium', u'high', u'low']","blue",49,"left","medium","False","False",507,350,NA
"A39C210BKD7YNN","Tue Jan 28 2020 14:42:30 GMT-0500 (Eastern Standard Time)","Tue Jan 28 2020 14:49:26 GMT-0500 (Eastern Standard Time)","Mozilla/5.0 (Windows NT 10.0; Win64; x64) AppleWebKit/537.36 (KHTML, like Gecko) Chrome/79.0.3945.130 Safari/537.36",15,"[0.9, 0.5, 0.1]","[0.8, 0.4, 0.2]","[u'blue', u'red', u'black']","[u'left', u'middle', u'right']","[0.9, 0.5, 0.1]","[u'medium', u'high', u'low']","red",50,"middle","high","True","False",293,450,NA
"A39C210BKD7YNN","Tue Jan 28 2020 14:42:30 GMT-0500 (Eastern Standard Time)","Tue Jan 28 2020 14:49:26 GMT-0500 (Eastern Standard Time)","Mozilla/5.0 (Windows NT 10.0; Win64; x64) AppleWebKit/537.36 (KHTML, like Gecko) Chrome/79.0.3945.130 Safari/537.36",16,"[0.9, 0.5, 0.1]","[0.8, 0.4, 0.2]","[u'blue', u'red', u'black']","[u'left', u'middle', u'right']","[0.9, 0.5, 0.1]","[u'medium', u'high', u'low']","blue",49,"left","medium","True","False",360,550,NA
"A39C210BKD7YNN","Tue Jan 28 2020 14:42:30 GMT-0500 (Eastern Standard Time)","Tue Jan 28 2020 14:49:26 GMT-0500 (Eastern Standard Time)","Mozilla/5.0 (Windows NT 10.0; Win64; x64) AppleWebKit/537.36 (KHTML, like Gecko) Chrome/79.0.3945.130 Safari/537.36",17,"[0.9, 0.5, 0.1]","[0.8, 0.4, 0.2]","[u'blue', u'red', u'black']","[u'left', u'middle', u'right']","[0.9, 0.5, 0.1]","[u'medium', u'high', u'low']","blue",49,"left","medium","False","False",385,500,NA
"A39C210BKD7YNN","Tue Jan 28 2020 14:42:30 GMT-0500 (Eastern Standard Time)","Tue Jan 28 2020 14:49:26 GMT-0500 (Eastern Standard Time)","Mozilla/5.0 (Windows NT 10.0; Win64; x64) AppleWebKit/537.36 (KHTML, like Gecko) Chrome/79.0.3945.130 Safari/537.36",18,"[0.9, 0.5, 0.1]","[0.8, 0.4, 0.2]","[u'blue', u'red', u'black']","[u'left', u'middle', u'right']","[0.9, 0.5, 0.1]","[u'medium', u'high', u'low']","red",50,"middle","high","True","False",290,600,NA
"A39C210BKD7YNN","Tue Jan 28 2020 14:42:30 GMT-0500 (Eastern Standard Time)","Tue Jan 28 2020 14:49:26 GMT-0500 (Eastern Standard Time)","Mozilla/5.0 (Windows NT 10.0; Win64; x64) AppleWebKit/537.36 (KHTML, like Gecko) Chrome/79.0.3945.130 Safari/537.36",19,"[0.9, 0.5, 0.1]","[0.8, 0.4, 0.2]","[u'blue', u'red', u'black']","[u'left', u'middle', u'right']","[0.9, 0.5, 0.1]","[u'medium', u'high', u'low']","red",50,"middle","high","True","False",362,700,NA
"A39C210BKD7YNN","Tue Jan 28 2020 14:42:30 GMT-0500 (Eastern Standard Time)","Tue Jan 28 2020 14:49:26 GMT-0500 (Eastern Standard Time)","Mozilla/5.0 (Windows NT 10.0; Win64; x64) AppleWebKit/537.36 (KHTML, like Gecko) Chrome/79.0.3945.130 Safari/537.36",20,"[0.9, 0.5, 0.1]","[0.8, 0.4, 0.2]","[u'blue', u'red', u'black']","[u'left', u'middle', u'right']","[0.9, 0.5, 0.1]","[u'medium', u'high', u'low']","red",50,"middle","high","True","False",357,800,NA
"A39C210BKD7YNN","Tue Jan 28 2020 14:42:30 GMT-0500 (Eastern Standard Time)","Tue Jan 28 2020 14:49:26 GMT-0500 (Eastern Standard Time)","Mozilla/5.0 (Windows NT 10.0; Win64; x64) AppleWebKit/537.36 (KHTML, like Gecko) Chrome/79.0.3945.130 Safari/537.36",21,"[0.9, 0.5, 0.1]","[0.8, 0.4, 0.2]","[u'blue', u'red', u'black']","[u'left', u'middle', u'right']","[0.9, 0.5, 0.1]","[u'medium', u'high', u'low']","red",50,"middle","high","True","False",366,900,NA
"A39C210BKD7YNN","Tue Jan 28 2020 14:42:30 GMT-0500 (Eastern Standard Time)","Tue Jan 28 2020 14:49:26 GMT-0500 (Eastern Standard Time)","Mozilla/5.0 (Windows NT 10.0; Win64; x64) AppleWebKit/537.36 (KHTML, like Gecko) Chrome/79.0.3945.130 Safari/537.36",22,"[0.9, 0.5, 0.1]","[0.8, 0.4, 0.2]","[u'blue', u'red', u'black']","[u'left', u'middle', u'right']","[0.9, 0.5, 0.1]","[u'medium', u'high', u'low']","red",50,"middle","high","True","False",355,1000,NA
"A39C210BKD7YNN","Tue Jan 28 2020 14:42:30 GMT-0500 (Eastern Standard Time)","Tue Jan 28 2020 14:49:26 GMT-0500 (Eastern Standard Time)","Mozilla/5.0 (Windows NT 10.0; Win64; x64) AppleWebKit/537.36 (KHTML, like Gecko) Chrome/79.0.3945.130 Safari/537.36",23,"[0.9, 0.5, 0.1]","[0.8, 0.4, 0.2]","[u'blue', u'red', u'black']","[u'left', u'middle', u'right']","[0.9, 0.5, 0.1]","[u'medium', u'high', u'low']","red",50,"middle","high","True","False",369,1100,NA
"A39C210BKD7YNN","Tue Jan 28 2020 14:42:30 GMT-0500 (Eastern Standard Time)","Tue Jan 28 2020 14:49:26 GMT-0500 (Eastern Standard Time)","Mozilla/5.0 (Windows NT 10.0; Win64; x64) AppleWebKit/537.36 (KHTML, like Gecko) Chrome/79.0.3945.130 Safari/537.36",24,"[0.9, 0.5, 0.1]","[0.8, 0.4, 0.2]","[u'blue', u'red', u'black']","[u'left', u'middle', u'right']","[0.9, 0.5, 0.1]","[u'medium', u'high', u'low']","red",50,"middle","high","True","False",575,1200,NA
"A39C210BKD7YNN","Tue Jan 28 2020 14:42:30 GMT-0500 (Eastern Standard Time)","Tue Jan 28 2020 14:49:26 GMT-0500 (Eastern Standard Time)","Mozilla/5.0 (Windows NT 10.0; Win64; x64) AppleWebKit/537.36 (KHTML, like Gecko) Chrome/79.0.3945.130 Safari/537.36",25,"[0.9, 0.5, 0.1]","[0.8, 0.4, 0.2]","[u'blue', u'red', u'black']","[u'left', u'middle', u'right']","[0.9, 0.5, 0.1]","[u'medium', u'high', u'low']","red",50,"middle","high","True","False",387,1300,NA
"A39C210BKD7YNN","Tue Jan 28 2020 14:42:30 GMT-0500 (Eastern Standard Time)","Tue Jan 28 2020 14:49:26 GMT-0500 (Eastern Standard Time)","Mozilla/5.0 (Windows NT 10.0; Win64; x64) AppleWebKit/537.36 (KHTML, like Gecko) Chrome/79.0.3945.130 Safari/537.36",26,"[0.9, 0.5, 0.1]","[0.8, 0.4, 0.2]","[u'blue', u'red', u'black']","[u'left', u'middle', u'right']","[0.9, 0.5, 0.1]","[u'medium', u'high', u'low']","red",50,"middle","high","True","True",350,1400,NA
"A39C210BKD7YNN","Tue Jan 28 2020 14:42:30 GMT-0500 (Eastern Standard Time)","Tue Jan 28 2020 14:49:26 GMT-0500 (Eastern Standard Time)","Mozilla/5.0 (Windows NT 10.0; Win64; x64) AppleWebKit/537.36 (KHTML, like Gecko) Chrome/79.0.3945.130 Safari/537.36",27,"[0.9, 0.5, 0.1]","[0.8, 0.4, 0.2]","[u'blue', u'red', u'black']","[u'left', u'middle', u'right']","[0.9, 0.5, 0.1]","[u'high', u'medium', u'low']","red",50,"middle","medium","False","False",384,1350,NA
"A39C210BKD7YNN","Tue Jan 28 2020 14:42:30 GMT-0500 (Eastern Standard Time)","Tue Jan 28 2020 14:49:26 GMT-0500 (Eastern Standard Time)","Mozilla/5.0 (Windows NT 10.0; Win64; x64) AppleWebKit/537.36 (KHTML, like Gecko) Chrome/79.0.3945.130 Safari/537.36",28,"[0.9, 0.5, 0.1]","[0.8, 0.4, 0.2]","[u'blue', u'red', u'black']","[u'left', u'middle', u'right']","[0.9, 0.5, 0.1]","[u'high', u'medium', u'low']","black",51,"right","low","False","False",311,1300,NA
"A39C210BKD7YNN","Tue Jan 28 2020 14:42:30 GMT-0500 (Eastern Standard Time)","Tue Jan 28 2020 14:49:26 GMT-0500 (Eastern Standard Time)","Mozilla/5.0 (Windows NT 10.0; Win64; x64) AppleWebKit/537.36 (KHTML, like Gecko) Chrome/79.0.3945.130 Safari/537.36",29,"[0.9, 0.5, 0.1]","[0.8, 0.4, 0.2]","[u'blue', u'red', u'black']","[u'left', u'middle', u'right']","[0.9, 0.5, 0.1]","[u'high', u'medium', u'low']","red",50,"middle","medium","True","False",258,1400,NA
"A39C210BKD7YNN","Tue Jan 28 2020 14:42:30 GMT-0500 (Eastern Standard Time)","Tue Jan 28 2020 14:49:26 GMT-0500 (Eastern Standard Time)","Mozilla/5.0 (Windows NT 10.0; Win64; x64) AppleWebKit/537.36 (KHTML, like Gecko) Chrome/79.0.3945.130 Safari/537.36",30,"[0.9, 0.5, 0.1]","[0.8, 0.4, 0.2]","[u'blue', u'red', u'black']","[u'left', u'middle', u'right']","[0.9, 0.5, 0.1]","[u'high', u'medium', u'low']","red",50,"middle","medium","False","False",259,1350,NA
"A39C210BKD7YNN","Tue Jan 28 2020 14:42:30 GMT-0500 (Eastern Standard Time)","Tue Jan 28 2020 14:49:26 GMT-0500 (Eastern Standard Time)","Mozilla/5.0 (Windows NT 10.0; Win64; x64) AppleWebKit/537.36 (KHTML, like Gecko) Chrome/79.0.3945.130 Safari/537.36",31,"[0.9, 0.5, 0.1]","[0.8, 0.4, 0.2]","[u'blue', u'red', u'black']","[u'left', u'middle', u'right']","[0.9, 0.5, 0.1]","[u'high', u'medium', u'low']","blue",49,"left","high","True","False",223,1450,NA
"A39C210BKD7YNN","Tue Jan 28 2020 14:42:30 GMT-0500 (Eastern Standard Time)","Tue Jan 28 2020 14:49:26 GMT-0500 (Eastern Standard Time)","Mozilla/5.0 (Windows NT 10.0; Win64; x64) AppleWebKit/537.36 (KHTML, like Gecko) Chrome/79.0.3945.130 Safari/537.36",32,"[0.9, 0.5, 0.1]","[0.8, 0.4, 0.2]","[u'blue', u'red', u'black']","[u'left', u'middle', u'right']","[0.9, 0.5, 0.1]","[u'high', u'medium', u'low']","blue",49,"left","high","True","False",179,1550,NA
"A39C210BKD7YNN","Tue Jan 28 2020 14:42:30 GMT-0500 (Eastern Standard Time)","Tue Jan 28 2020 14:49:26 GMT-0500 (Eastern Standard Time)","Mozilla/5.0 (Windows NT 10.0; Win64; x64) AppleWebKit/537.36 (KHTML, like Gecko) Chrome/79.0.3945.130 Safari/537.36",33,"[0.9, 0.5, 0.1]","[0.8, 0.4, 0.2]","[u'blue', u'red', u'black']","[u'left', u'middle', u'right']","[0.9, 0.5, 0.1]","[u'high', u'medium', u'low']","blue",49,"left","high","True","False",277,1650,NA
"A39C210BKD7YNN","Tue Jan 28 2020 14:42:30 GMT-0500 (Eastern Standard Time)","Tue Jan 28 2020 14:49:26 GMT-0500 (Eastern Standard Time)","Mozilla/5.0 (Windows NT 10.0; Win64; x64) AppleWebKit/537.36 (KHTML, like Gecko) Chrome/79.0.3945.130 Safari/537.36",34,"[0.9, 0.5, 0.1]","[0.8, 0.4, 0.2]","[u'blue', u'red', u'black']","[u'left', u'middle', u'right']","[0.9, 0.5, 0.1]","[u'high', u'medium', u'low']","blue",49,"left","high","True","False",311,1750,NA
"A39C210BKD7YNN","Tue Jan 28 2020 14:42:30 GMT-0500 (Eastern Standard Time)","Tue Jan 28 2020 14:49:26 GMT-0500 (Eastern Standard Time)","Mozilla/5.0 (Windows NT 10.0; Win64; x64) AppleWebKit/537.36 (KHTML, like Gecko) Chrome/79.0.3945.130 Safari/537.36",35,"[0.9, 0.5, 0.1]","[0.8, 0.4, 0.2]","[u'blue', u'red', u'black']","[u'left', u'middle', u'right']","[0.9, 0.5, 0.1]","[u'high', u'medium', u'low']","blue",49,"left","high","True","False",356,1850,NA
"A39C210BKD7YNN","Tue Jan 28 2020 14:42:30 GMT-0500 (Eastern Standard Time)","Tue Jan 28 2020 14:49:26 GMT-0500 (Eastern Standard Time)","Mozilla/5.0 (Windows NT 10.0; Win64; x64) AppleWebKit/537.36 (KHTML, like Gecko) Chrome/79.0.3945.130 Safari/537.36",36,"[0.9, 0.5, 0.1]","[0.8, 0.4, 0.2]","[u'blue', u'red', u'black']","[u'left', u'middle', u'right']","[0.9, 0.5, 0.1]","[u'high', u'medium', u'low']","blue",49,"left","high","True","False",331,1950,NA
"A39C210BKD7YNN","Tue Jan 28 2020 14:42:30 GMT-0500 (Eastern Standard Time)","Tue Jan 28 2020 14:49:26 GMT-0500 (Eastern Standard Time)","Mozilla/5.0 (Windows NT 10.0; Win64; x64) AppleWebKit/537.36 (KHTML, like Gecko) Chrome/79.0.3945.130 Safari/537.36",37,"[0.9, 0.5, 0.1]","[0.8, 0.4, 0.2]","[u'blue', u'red', u'black']","[u'left', u'middle', u'right']","[0.9, 0.5, 0.1]","[u'high', u'medium', u'low']","blue",49,"left","high","True","False",342,2050,NA
"A39C210BKD7YNN","Tue Jan 28 2020 14:42:30 GMT-0500 (Eastern Standard Time)","Tue Jan 28 2020 14:49:26 GMT-0500 (Eastern Standard Time)","Mozilla/5.0 (Windows NT 10.0; Win64; x64) AppleWebKit/537.36 (KHTML, like Gecko) Chrome/79.0.3945.130 Safari/537.36",38,"[0.9, 0.5, 0.1]","[0.8, 0.4, 0.2]","[u'blue', u'red', u'black']","[u'left', u'middle', u'right']","[0.9, 0.5, 0.1]","[u'high', u'medium', u'low']","blue",49,"left","high","True","False",331,2150,NA
"A39C210BKD7YNN","Tue Jan 28 2020 14:42:30 GMT-0500 (Eastern Standard Time)","Tue Jan 28 2020 14:49:26 GMT-0500 (Eastern Standard Time)","Mozilla/5.0 (Windows NT 10.0; Win64; x64) AppleWebKit/537.36 (KHTML, like Gecko) Chrome/79.0.3945.130 Safari/537.36",39,"[0.9, 0.5, 0.1]","[0.8, 0.4, 0.2]","[u'blue', u'red', u'black']","[u'left', u'middle', u'right']","[0.9, 0.5, 0.1]","[u'high', u'medium', u'low']","blue",49,"left","high","True","True",403,2250,NA
"A39C210BKD7YNN","Tue Jan 28 2020 14:42:30 GMT-0500 (Eastern Standard Time)","Tue Jan 28 2020 14:49:26 GMT-0500 (Eastern Standard Time)","Mozilla/5.0 (Windows NT 10.0; Win64; x64) AppleWebKit/537.36 (KHTML, like Gecko) Chrome/79.0.3945.130 Safari/537.36",40,"[0.9, 0.5, 0.1]","[0.8, 0.4, 0.2]","[u'blue', u'red', u'black']","[u'left', u'middle', u'right']","[0.9, 0.5, 0.1]","[u'low', u'medium', u'high']","blue",49,"left","low","False","False",356,2200,NA
"A39C210BKD7YNN","Tue Jan 28 2020 14:42:30 GMT-0500 (Eastern Standard Time)","Tue Jan 28 2020 14:49:26 GMT-0500 (Eastern Standard Time)","Mozilla/5.0 (Windows NT 10.0; Win64; x64) AppleWebKit/537.36 (KHTML, like Gecko) Chrome/79.0.3945.130 Safari/537.36",41,"[0.9, 0.5, 0.1]","[0.8, 0.4, 0.2]","[u'blue', u'red', u'black']","[u'left', u'middle', u'right']","[0.9, 0.5, 0.1]","[u'high', u'low', u'medium']","blue",49,"left","high","True","False",945,2300,NA
"A39C210BKD7YNN","Tue Jan 28 2020 14:42:30 GMT-0500 (Eastern Standard Time)","Tue Jan 28 2020 14:49:26 GMT-0500 (Eastern Standard Time)","Mozilla/5.0 (Windows NT 10.0; Win64; x64) AppleWebKit/537.36 (KHTML, like Gecko) Chrome/79.0.3945.130 Safari/537.36",42,"[0.9, 0.5, 0.1]","[0.8, 0.4, 0.2]","[u'blue', u'red', u'black']","[u'left', u'middle', u'right']","[0.9, 0.5, 0.1]","[u'high', u'low', u'medium']","blue",49,"left","high","True","False",389,2400,NA
"A39C210BKD7YNN","Tue Jan 28 2020 14:42:30 GMT-0500 (Eastern Standard Time)","Tue Jan 28 2020 14:49:26 GMT-0500 (Eastern Standard Time)","Mozilla/5.0 (Windows NT 10.0; Win64; x64) AppleWebKit/537.36 (KHTML, like Gecko) Chrome/79.0.3945.130 Safari/537.36",43,"[0.9, 0.5, 0.1]","[0.8, 0.4, 0.2]","[u'blue', u'red', u'black']","[u'left', u'middle', u'right']","[0.9, 0.5, 0.1]","[u'high', u'low', u'medium']","blue",49,"left","high","True","False",330,2500,NA
"A39C210BKD7YNN","Tue Jan 28 2020 14:42:30 GMT-0500 (Eastern Standard Time)","Tue Jan 28 2020 14:49:26 GMT-0500 (Eastern Standard Time)","Mozilla/5.0 (Windows NT 10.0; Win64; x64) AppleWebKit/537.36 (KHTML, like Gecko) Chrome/79.0.3945.130 Safari/537.36",44,"[0.9, 0.5, 0.1]","[0.8, 0.4, 0.2]","[u'blue', u'red', u'black']","[u'left', u'middle', u'right']","[0.9, 0.5, 0.1]","[u'high', u'low', u'medium']","blue",49,"left","high","True","False",359,2600,NA
"A39C210BKD7YNN","Tue Jan 28 2020 14:42:30 GMT-0500 (Eastern Standard Time)","Tue Jan 28 2020 14:49:26 GMT-0500 (Eastern Standard Time)","Mozilla/5.0 (Windows NT 10.0; Win64; x64) AppleWebKit/537.36 (KHTML, like Gecko) Chrome/79.0.3945.130 Safari/537.36",45,"[0.9, 0.5, 0.1]","[0.8, 0.4, 0.2]","[u'blue', u'red', u'black']","[u'left', u'middle', u'right']","[0.9, 0.5, 0.1]","[u'high', u'low', u'medium']","blue",49,"left","high","True","False",343,2700,NA
"A39C210BKD7YNN","Tue Jan 28 2020 14:42:30 GMT-0500 (Eastern Standard Time)","Tue Jan 28 2020 14:49:26 GMT-0500 (Eastern Standard Time)","Mozilla/5.0 (Windows NT 10.0; Win64; x64) AppleWebKit/537.36 (KHTML, like Gecko) Chrome/79.0.3945.130 Safari/537.36",46,"[0.9, 0.5, 0.1]","[0.8, 0.4, 0.2]","[u'blue', u'red', u'black']","[u'left', u'middle', u'right']","[0.9, 0.5, 0.1]","[u'high', u'low', u'medium']","blue",49,"left","high","True","False",366,2800,NA
"A39C210BKD7YNN","Tue Jan 28 2020 14:42:30 GMT-0500 (Eastern Standard Time)","Tue Jan 28 2020 14:49:26 GMT-0500 (Eastern Standard Time)","Mozilla/5.0 (Windows NT 10.0; Win64; x64) AppleWebKit/537.36 (KHTML, like Gecko) Chrome/79.0.3945.130 Safari/537.36",47,"[0.9, 0.5, 0.1]","[0.8, 0.4, 0.2]","[u'blue', u'red', u'black']","[u'left', u'middle', u'right']","[0.9, 0.5, 0.1]","[u'high', u'low', u'medium']","blue",49,"left","high","True","False",387,2900,NA
"A39C210BKD7YNN","Tue Jan 28 2020 14:42:30 GMT-0500 (Eastern Standard Time)","Tue Jan 28 2020 14:49:26 GMT-0500 (Eastern Standard Time)","Mozilla/5.0 (Windows NT 10.0; Win64; x64) AppleWebKit/537.36 (KHTML, like Gecko) Chrome/79.0.3945.130 Safari/537.36",48,"[0.9, 0.5, 0.1]","[0.8, 0.4, 0.2]","[u'blue', u'red', u'black']","[u'left', u'middle', u'right']","[0.9, 0.5, 0.1]","[u'high', u'low', u'medium']","blue",49,"left","high","True","False",372,3000,NA
"A39C210BKD7YNN","Tue Jan 28 2020 14:42:30 GMT-0500 (Eastern Standard Time)","Tue Jan 28 2020 14:49:26 GMT-0500 (Eastern Standard Time)","Mozilla/5.0 (Windows NT 10.0; Win64; x64) AppleWebKit/537.36 (KHTML, like Gecko) Chrome/79.0.3945.130 Safari/537.36",49,"[0.9, 0.5, 0.1]","[0.8, 0.4, 0.2]","[u'blue', u'red', u'black']","[u'left', u'middle', u'right']","[0.9, 0.5, 0.1]","[u'high', u'low', u'medium']","blue",49,"left","high","True","True",328,3100,NA
"A39C210BKD7YNN","Tue Jan 28 2020 14:42:30 GMT-0500 (Eastern Standard Time)","Tue Jan 28 2020 14:49:26 GMT-0500 (Eastern Standard Time)","Mozilla/5.0 (Windows NT 10.0; Win64; x64) AppleWebKit/537.36 (KHTML, like Gecko) Chrome/79.0.3945.130 Safari/537.36",50,"[0.9, 0.5, 0.1]","[0.8, 0.4, 0.2]","[u'blue', u'red', u'black']","[u'left', u'middle', u'right']","[0.9, 0.5, 0.1]","[u'low', u'medium', u'high']","blue",49,"left","low","False","False",349,3050,NA
"A39C210BKD7YNN","Tue Jan 28 2020 14:42:30 GMT-0500 (Eastern Standard Time)","Tue Jan 28 2020 14:49:26 GMT-0500 (Eastern Standard Time)","Mozilla/5.0 (Windows NT 10.0; Win64; x64) AppleWebKit/537.36 (KHTML, like Gecko) Chrome/79.0.3945.130 Safari/537.36",51,"[0.9, 0.5, 0.1]","[0.8, 0.4, 0.2]","[u'blue', u'red', u'black']","[u'left', u'middle', u'right']","[0.9, 0.5, 0.1]","[u'low', u'medium', u'high']","red",50,"middle","medium","False","False",507,3000,NA
"A39C210BKD7YNN","Tue Jan 28 2020 14:42:30 GMT-0500 (Eastern Standard Time)","Tue Jan 28 2020 14:49:26 GMT-0500 (Eastern Standard Time)","Mozilla/5.0 (Windows NT 10.0; Win64; x64) AppleWebKit/537.36 (KHTML, like Gecko) Chrome/79.0.3945.130 Safari/537.36",52,"[0.9, 0.5, 0.1]","[0.8, 0.4, 0.2]","[u'blue', u'red', u'black']","[u'left', u'middle', u'right']","[0.9, 0.5, 0.1]","[u'low', u'medium', u'high']","black",51,"right","high","True","False",327,3100,NA
"A39C210BKD7YNN","Tue Jan 28 2020 14:42:30 GMT-0500 (Eastern Standard Time)","Tue Jan 28 2020 14:49:26 GMT-0500 (Eastern Standard Time)","Mozilla/5.0 (Windows NT 10.0; Win64; x64) AppleWebKit/537.36 (KHTML, like Gecko) Chrome/79.0.3945.130 Safari/537.36",53,"[0.9, 0.5, 0.1]","[0.8, 0.4, 0.2]","[u'blue', u'red', u'black']","[u'left', u'middle', u'right']","[0.9, 0.5, 0.1]","[u'low', u'medium', u'high']","black",51,"right","high","True","False",314,3200,NA
"A39C210BKD7YNN","Tue Jan 28 2020 14:42:30 GMT-0500 (Eastern Standard Time)","Tue Jan 28 2020 14:49:26 GMT-0500 (Eastern Standard Time)","Mozilla/5.0 (Windows NT 10.0; Win64; x64) AppleWebKit/537.36 (KHTML, like Gecko) Chrome/79.0.3945.130 Safari/537.36",54,"[0.9, 0.5, 0.1]","[0.8, 0.4, 0.2]","[u'blue', u'red', u'black']","[u'left', u'middle', u'right']","[0.9, 0.5, 0.1]","[u'low', u'medium', u'high']","black",51,"right","high","True","False",339,3300,NA
"A39C210BKD7YNN","Tue Jan 28 2020 14:42:30 GMT-0500 (Eastern Standard Time)","Tue Jan 28 2020 14:49:26 GMT-0500 (Eastern Standard Time)","Mozilla/5.0 (Windows NT 10.0; Win64; x64) AppleWebKit/537.36 (KHTML, like Gecko) Chrome/79.0.3945.130 Safari/537.36",55,"[0.9, 0.5, 0.1]","[0.8, 0.4, 0.2]","[u'blue', u'red', u'black']","[u'left', u'middle', u'right']","[0.9, 0.5, 0.1]","[u'low', u'medium', u'high']","black",51,"right","high","True","False",413,3400,NA
"A39C210BKD7YNN","Tue Jan 28 2020 14:42:30 GMT-0500 (Eastern Standard Time)","Tue Jan 28 2020 14:49:26 GMT-0500 (Eastern Standard Time)","Mozilla/5.0 (Windows NT 10.0; Win64; x64) AppleWebKit/537.36 (KHTML, like Gecko) Chrome/79.0.3945.130 Safari/537.36",56,"[0.9, 0.5, 0.1]","[0.8, 0.4, 0.2]","[u'blue', u'red', u'black']","[u'left', u'middle', u'right']","[0.9, 0.5, 0.1]","[u'low', u'medium', u'high']","black",51,"right","high","True","False",323,3500,NA
"A39C210BKD7YNN","Tue Jan 28 2020 14:42:30 GMT-0500 (Eastern Standard Time)","Tue Jan 28 2020 14:49:26 GMT-0500 (Eastern Standard Time)","Mozilla/5.0 (Windows NT 10.0; Win64; x64) AppleWebKit/537.36 (KHTML, like Gecko) Chrome/79.0.3945.130 Safari/537.36",57,"[0.9, 0.5, 0.1]","[0.8, 0.4, 0.2]","[u'blue', u'red', u'black']","[u'left', u'middle', u'right']","[0.9, 0.5, 0.1]","[u'low', u'medium', u'high']","black",51,"right","high","True","False",394,3600,NA
"A39C210BKD7YNN","Tue Jan 28 2020 14:42:30 GMT-0500 (Eastern Standard Time)","Tue Jan 28 2020 14:49:26 GMT-0500 (Eastern Standard Time)","Mozilla/5.0 (Windows NT 10.0; Win64; x64) AppleWebKit/537.36 (KHTML, like Gecko) Chrome/79.0.3945.130 Safari/537.36",58,"[0.9, 0.5, 0.1]","[0.8, 0.4, 0.2]","[u'blue', u'red', u'black']","[u'left', u'middle', u'right']","[0.9, 0.5, 0.1]","[u'low', u'medium', u'high']","black",51,"right","high","True","False",335,3700,NA
"A39C210BKD7YNN","Tue Jan 28 2020 14:42:30 GMT-0500 (Eastern Standard Time)","Tue Jan 28 2020 14:49:26 GMT-0500 (Eastern Standard Time)","Mozilla/5.0 (Windows NT 10.0; Win64; x64) AppleWebKit/537.36 (KHTML, like Gecko) Chrome/79.0.3945.130 Safari/537.36",59,"[0.9, 0.5, 0.1]","[0.8, 0.4, 0.2]","[u'blue', u'red', u'black']","[u'left', u'middle', u'right']","[0.9, 0.5, 0.1]","[u'low', u'medium', u'high']","black",51,"right","high","True","False",338,3800,NA
"A39C210BKD7YNN","Tue Jan 28 2020 14:42:30 GMT-0500 (Eastern Standard Time)","Tue Jan 28 2020 14:49:26 GMT-0500 (Eastern Standard Time)","Mozilla/5.0 (Windows NT 10.0; Win64; x64) AppleWebKit/537.36 (KHTML, like Gecko) Chrome/79.0.3945.130 Safari/537.36",60,"[0.9, 0.5, 0.1]","[0.8, 0.4, 0.2]","[u'blue', u'red', u'black']","[u'left', u'middle', u'right']","[0.9, 0.5, 0.1]","[u'low', u'medium', u'high']","black",51,"right","high","True","True",351,3900,NA
"A39C210BKD7YNN","Tue Jan 28 2020 14:42:30 GMT-0500 (Eastern Standard Time)","Tue Jan 28 2020 14:49:26 GMT-0500 (Eastern Standard Time)","Mozilla/5.0 (Windows NT 10.0; Win64; x64) AppleWebKit/537.36 (KHTML, like Gecko) Chrome/79.0.3945.130 Safari/537.36",61,"[0.9, 0.5, 0.1]","[0.8, 0.4, 0.2]","[u'blue', u'red', u'black']","[u'left', u'middle', u'right']","[0.9, 0.5, 0.1]","[u'medium', u'high', u'low']","black",51,"right","low","False","False",356,3850,NA
"A39C210BKD7YNN","Tue Jan 28 2020 14:42:30 GMT-0500 (Eastern Standard Time)","Tue Jan 28 2020 14:49:26 GMT-0500 (Eastern Standard Time)","Mozilla/5.0 (Windows NT 10.0; Win64; x64) AppleWebKit/537.36 (KHTML, like Gecko) Chrome/79.0.3945.130 Safari/537.36",62,"[0.9, 0.5, 0.1]","[0.8, 0.4, 0.2]","[u'blue', u'red', u'black']","[u'left', u'middle', u'right']","[0.9, 0.5, 0.1]","[u'medium', u'high', u'low']","red",50,"middle","high","True","False",290,3950,NA
"A39C210BKD7YNN","Tue Jan 28 2020 14:42:30 GMT-0500 (Eastern Standard Time)","Tue Jan 28 2020 14:49:26 GMT-0500 (Eastern Standard Time)","Mozilla/5.0 (Windows NT 10.0; Win64; x64) AppleWebKit/537.36 (KHTML, like Gecko) Chrome/79.0.3945.130 Safari/537.36",63,"[0.9, 0.5, 0.1]","[0.8, 0.4, 0.2]","[u'blue', u'red', u'black']","[u'left', u'middle', u'right']","[0.9, 0.5, 0.1]","[u'medium', u'high', u'low']","red",50,"middle","high","True","False",303,4050,NA
"A39C210BKD7YNN","Tue Jan 28 2020 14:42:30 GMT-0500 (Eastern Standard Time)","Tue Jan 28 2020 14:49:26 GMT-0500 (Eastern Standard Time)","Mozilla/5.0 (Windows NT 10.0; Win64; x64) AppleWebKit/537.36 (KHTML, like Gecko) Chrome/79.0.3945.130 Safari/537.36",64,"[0.9, 0.5, 0.1]","[0.8, 0.4, 0.2]","[u'blue', u'red', u'black']","[u'left', u'middle', u'right']","[0.9, 0.5, 0.1]","[u'medium', u'high', u'low']","red",50,"middle","high","True","False",359,4150,NA
"A39C210BKD7YNN","Tue Jan 28 2020 14:42:30 GMT-0500 (Eastern Standard Time)","Tue Jan 28 2020 14:49:26 GMT-0500 (Eastern Standard Time)","Mozilla/5.0 (Windows NT 10.0; Win64; x64) AppleWebKit/537.36 (KHTML, like Gecko) Chrome/79.0.3945.130 Safari/537.36",65,"[0.9, 0.5, 0.1]","[0.8, 0.4, 0.2]","[u'blue', u'red', u'black']","[u'left', u'middle', u'right']","[0.9, 0.5, 0.1]","[u'medium', u'high', u'low']","red",50,"middle","high","True","False",367,4250,NA
"A39C210BKD7YNN","Tue Jan 28 2020 14:42:30 GMT-0500 (Eastern Standard Time)","Tue Jan 28 2020 14:49:26 GMT-0500 (Eastern Standard Time)","Mozilla/5.0 (Windows NT 10.0; Win64; x64) AppleWebKit/537.36 (KHTML, like Gecko) Chrome/79.0.3945.130 Safari/537.36",66,"[0.9, 0.5, 0.1]","[0.8, 0.4, 0.2]","[u'blue', u'red', u'black']","[u'left', u'middle', u'right']","[0.9, 0.5, 0.1]","[u'medium', u'high', u'low']","red",50,"middle","high","True","False",313,4350,NA
"A39C210BKD7YNN","Tue Jan 28 2020 14:42:30 GMT-0500 (Eastern Standard Time)","Tue Jan 28 2020 14:49:26 GMT-0500 (Eastern Standard Time)","Mozilla/5.0 (Windows NT 10.0; Win64; x64) AppleWebKit/537.36 (KHTML, like Gecko) Chrome/79.0.3945.130 Safari/537.36",67,"[0.9, 0.5, 0.1]","[0.8, 0.4, 0.2]","[u'blue', u'red', u'black']","[u'left', u'middle', u'right']","[0.9, 0.5, 0.1]","[u'medium', u'high', u'low']","red",50,"middle","high","True","False",339,4450,NA
"A39C210BKD7YNN","Tue Jan 28 2020 14:42:30 GMT-0500 (Eastern Standard Time)","Tue Jan 28 2020 14:49:26 GMT-0500 (Eastern Standard Time)","Mozilla/5.0 (Windows NT 10.0; Win64; x64) AppleWebKit/537.36 (KHTML, like Gecko) Chrome/79.0.3945.130 Safari/537.36",68,"[0.9, 0.5, 0.1]","[0.8, 0.4, 0.2]","[u'blue', u'red', u'black']","[u'left', u'middle', u'right']","[0.9, 0.5, 0.1]","[u'medium', u'high', u'low']","red",50,"middle","high","True","False",318,4550,NA
"A39C210BKD7YNN","Tue Jan 28 2020 14:42:30 GMT-0500 (Eastern Standard Time)","Tue Jan 28 2020 14:49:26 GMT-0500 (Eastern Standard Time)","Mozilla/5.0 (Windows NT 10.0; Win64; x64) AppleWebKit/537.36 (KHTML, like Gecko) Chrome/79.0.3945.130 Safari/537.36",69,"[0.9, 0.5, 0.1]","[0.8, 0.4, 0.2]","[u'blue', u'red', u'black']","[u'left', u'middle', u'right']","[0.9, 0.5, 0.1]","[u'medium', u'high', u'low']","red",50,"middle","high","False","False",348,4500,NA
"A39C210BKD7YNN","Tue Jan 28 2020 14:42:30 GMT-0500 (Eastern Standard Time)","Tue Jan 28 2020 14:49:26 GMT-0500 (Eastern Standard Time)","Mozilla/5.0 (Windows NT 10.0; Win64; x64) AppleWebKit/537.36 (KHTML, like Gecko) Chrome/79.0.3945.130 Safari/537.36",70,"[0.9, 0.5, 0.1]","[0.8, 0.4, 0.2]","[u'blue', u'red', u'black']","[u'left', u'middle', u'right']","[0.9, 0.5, 0.1]","[u'medium', u'high', u'low']","black",51,"right","low","False","False",256,4450,NA
"A39C210BKD7YNN","Tue Jan 28 2020 14:42:30 GMT-0500 (Eastern Standard Time)","Tue Jan 28 2020 14:49:26 GMT-0500 (Eastern Standard Time)","Mozilla/5.0 (Windows NT 10.0; Win64; x64) AppleWebKit/537.36 (KHTML, like Gecko) Chrome/79.0.3945.130 Safari/537.36",71,"[0.9, 0.5, 0.1]","[0.8, 0.4, 0.2]","[u'blue', u'red', u'black']","[u'left', u'middle', u'right']","[0.9, 0.5, 0.1]","[u'medium', u'high', u'low']","blue",49,"left","medium","False","False",90,4400,NA
"A39C210BKD7YNN","Tue Jan 28 2020 14:42:30 GMT-0500 (Eastern Standard Time)","Tue Jan 28 2020 14:49:26 GMT-0500 (Eastern Standard Time)","Mozilla/5.0 (Windows NT 10.0; Win64; x64) AppleWebKit/537.36 (KHTML, like Gecko) Chrome/79.0.3945.130 Safari/537.36",72,"[0.9, 0.5, 0.1]","[0.8, 0.4, 0.2]","[u'blue', u'red', u'black']","[u'left', u'middle', u'right']","[0.9, 0.5, 0.1]","[u'medium', u'high', u'low']","red",50,"middle","high","False","False",254,4350,NA
"A39C210BKD7YNN","Tue Jan 28 2020 14:42:30 GMT-0500 (Eastern Standard Time)","Tue Jan 28 2020 14:49:26 GMT-0500 (Eastern Standard Time)","Mozilla/5.0 (Windows NT 10.0; Win64; x64) AppleWebKit/537.36 (KHTML, like Gecko) Chrome/79.0.3945.130 Safari/537.36",73,"[0.9, 0.5, 0.1]","[0.8, 0.4, 0.2]","[u'blue', u'red', u'black']","[u'left', u'middle', u'right']","[0.9, 0.5, 0.1]","[u'medium', u'high', u'low']","blue",49,"left","medium","False","False",243,4300,NA
"A39C210BKD7YNN","Tue Jan 28 2020 14:42:30 GMT-0500 (Eastern Standard Time)","Tue Jan 28 2020 14:49:26 GMT-0500 (Eastern Standard Time)","Mozilla/5.0 (Windows NT 10.0; Win64; x64) AppleWebKit/537.36 (KHTML, like Gecko) Chrome/79.0.3945.130 Safari/537.36",74,"[0.9, 0.5, 0.1]","[0.8, 0.4, 0.2]","[u'blue', u'red', u'black']","[u'left', u'middle', u'right']","[0.9, 0.5, 0.1]","[u'medium', u'high', u'low']","black",51,"right","low","False","False",349,4250,NA
"A39C210BKD7YNN","Tue Jan 28 2020 14:42:30 GMT-0500 (Eastern Standard Time)","Tue Jan 28 2020 14:49:26 GMT-0500 (Eastern Standard Time)","Mozilla/5.0 (Windows NT 10.0; Win64; x64) AppleWebKit/537.36 (KHTML, like Gecko) Chrome/79.0.3945.130 Safari/537.36",75,"[0.9, 0.5, 0.1]","[0.8, 0.4, 0.2]","[u'blue', u'red', u'black']","[u'left', u'middle', u'right']","[0.9, 0.5, 0.1]","[u'medium', u'high', u'low']","red",50,"middle","high","True","False",313,4350,NA
"A39C210BKD7YNN","Tue Jan 28 2020 14:42:30 GMT-0500 (Eastern Standard Time)","Tue Jan 28 2020 14:49:26 GMT-0500 (Eastern Standard Time)","Mozilla/5.0 (Windows NT 10.0; Win64; x64) AppleWebKit/537.36 (KHTML, like Gecko) Chrome/79.0.3945.130 Safari/537.36",76,"[0.9, 0.5, 0.1]","[0.8, 0.4, 0.2]","[u'blue', u'red', u'black']","[u'left', u'middle', u'right']","[0.9, 0.5, 0.1]","[u'medium', u'high', u'low']","red",50,"middle","high","True","False",443,4450,NA
"A39C210BKD7YNN","Tue Jan 28 2020 14:42:30 GMT-0500 (Eastern Standard Time)","Tue Jan 28 2020 14:49:26 GMT-0500 (Eastern Standard Time)","Mozilla/5.0 (Windows NT 10.0; Win64; x64) AppleWebKit/537.36 (KHTML, like Gecko) Chrome/79.0.3945.130 Safari/537.36",77,"[0.9, 0.5, 0.1]","[0.8, 0.4, 0.2]","[u'blue', u'red', u'black']","[u'left', u'middle', u'right']","[0.9, 0.5, 0.1]","[u'medium', u'high', u'low']","red",50,"middle","high","True","False",553,4550,NA
"A39C210BKD7YNN","Tue Jan 28 2020 14:42:30 GMT-0500 (Eastern Standard Time)","Tue Jan 28 2020 14:49:26 GMT-0500 (Eastern Standard Time)","Mozilla/5.0 (Windows NT 10.0; Win64; x64) AppleWebKit/537.36 (KHTML, like Gecko) Chrome/79.0.3945.130 Safari/537.36",78,"[0.9, 0.5, 0.1]","[0.8, 0.4, 0.2]","[u'blue', u'red', u'black']","[u'left', u'middle', u'right']","[0.9, 0.5, 0.1]","[u'medium', u'high', u'low']","red",50,"middle","high","True","False",510,4650,NA
"A39C210BKD7YNN","Tue Jan 28 2020 14:42:30 GMT-0500 (Eastern Standard Time)","Tue Jan 28 2020 14:49:26 GMT-0500 (Eastern Standard Time)","Mozilla/5.0 (Windows NT 10.0; Win64; x64) AppleWebKit/537.36 (KHTML, like Gecko) Chrome/79.0.3945.130 Safari/537.36",79,"[0.9, 0.5, 0.1]","[0.8, 0.4, 0.2]","[u'blue', u'red', u'black']","[u'left', u'middle', u'right']","[0.9, 0.5, 0.1]","[u'medium', u'high', u'low']","red",50,"middle","high","True","False",477,4750,NA
"A39C210BKD7YNN","Tue Jan 28 2020 14:42:30 GMT-0500 (Eastern Standard Time)","Tue Jan 28 2020 14:49:26 GMT-0500 (Eastern Standard Time)","Mozilla/5.0 (Windows NT 10.0; Win64; x64) AppleWebKit/537.36 (KHTML, like Gecko) Chrome/79.0.3945.130 Safari/537.36",80,"[0.9, 0.5, 0.1]","[0.8, 0.4, 0.2]","[u'blue', u'red', u'black']","[u'left', u'middle', u'right']","[0.9, 0.5, 0.1]","[u'medium', u'high', u'low']","red",50,"middle","high","True","False",468,4850,NA
"A39C210BKD7YNN","Tue Jan 28 2020 14:42:30 GMT-0500 (Eastern Standard Time)","Tue Jan 28 2020 14:49:26 GMT-0500 (Eastern Standard Time)","Mozilla/5.0 (Windows NT 10.0; Win64; x64) AppleWebKit/537.36 (KHTML, like Gecko) Chrome/79.0.3945.130 Safari/537.36",81,"[0.9, 0.5, 0.1]","[0.8, 0.4, 0.2]","[u'blue', u'red', u'black']","[u'left', u'middle', u'right']","[0.8, 0.4, 0.2]","[u'high', u'low', u'medium']","blue",49,"left","high","True","False",862,4950,NA
"A39C210BKD7YNN","Tue Jan 28 2020 14:42:30 GMT-0500 (Eastern Standard Time)","Tue Jan 28 2020 14:49:26 GMT-0500 (Eastern Standard Time)","Mozilla/5.0 (Windows NT 10.0; Win64; x64) AppleWebKit/537.36 (KHTML, like Gecko) Chrome/79.0.3945.130 Safari/537.36",82,"[0.9, 0.5, 0.1]","[0.8, 0.4, 0.2]","[u'blue', u'red', u'black']","[u'left', u'middle', u'right']","[0.8, 0.4, 0.2]","[u'high', u'low', u'medium']","blue",49,"left","high","True","False",369,5050,NA
"A39C210BKD7YNN","Tue Jan 28 2020 14:42:30 GMT-0500 (Eastern Standard Time)","Tue Jan 28 2020 14:49:26 GMT-0500 (Eastern Standard Time)","Mozilla/5.0 (Windows NT 10.0; Win64; x64) AppleWebKit/537.36 (KHTML, like Gecko) Chrome/79.0.3945.130 Safari/537.36",83,"[0.9, 0.5, 0.1]","[0.8, 0.4, 0.2]","[u'blue', u'red', u'black']","[u'left', u'middle', u'right']","[0.8, 0.4, 0.2]","[u'high', u'low', u'medium']","blue",49,"left","high","True","False",461,5150,NA
"A39C210BKD7YNN","Tue Jan 28 2020 14:42:30 GMT-0500 (Eastern Standard Time)","Tue Jan 28 2020 14:49:26 GMT-0500 (Eastern Standard Time)","Mozilla/5.0 (Windows NT 10.0; Win64; x64) AppleWebKit/537.36 (KHTML, like Gecko) Chrome/79.0.3945.130 Safari/537.36",84,"[0.9, 0.5, 0.1]","[0.8, 0.4, 0.2]","[u'blue', u'red', u'black']","[u'left', u'middle', u'right']","[0.8, 0.4, 0.2]","[u'high', u'low', u'medium']","blue",49,"left","high","True","False",424,5250,NA
"A39C210BKD7YNN","Tue Jan 28 2020 14:42:30 GMT-0500 (Eastern Standard Time)","Tue Jan 28 2020 14:49:26 GMT-0500 (Eastern Standard Time)","Mozilla/5.0 (Windows NT 10.0; Win64; x64) AppleWebKit/537.36 (KHTML, like Gecko) Chrome/79.0.3945.130 Safari/537.36",85,"[0.9, 0.5, 0.1]","[0.8, 0.4, 0.2]","[u'blue', u'red', u'black']","[u'left', u'middle', u'right']","[0.8, 0.4, 0.2]","[u'high', u'low', u'medium']","blue",49,"left","high","True","False",515,5350,NA
"A39C210BKD7YNN","Tue Jan 28 2020 14:42:30 GMT-0500 (Eastern Standard Time)","Tue Jan 28 2020 14:49:26 GMT-0500 (Eastern Standard Time)","Mozilla/5.0 (Windows NT 10.0; Win64; x64) AppleWebKit/537.36 (KHTML, like Gecko) Chrome/79.0.3945.130 Safari/537.36",86,"[0.9, 0.5, 0.1]","[0.8, 0.4, 0.2]","[u'blue', u'red', u'black']","[u'left', u'middle', u'right']","[0.8, 0.4, 0.2]","[u'high', u'low', u'medium']","blue",49,"left","high","True","False",413,5450,NA
"A39C210BKD7YNN","Tue Jan 28 2020 14:42:30 GMT-0500 (Eastern Standard Time)","Tue Jan 28 2020 14:49:26 GMT-0500 (Eastern Standard Time)","Mozilla/5.0 (Windows NT 10.0; Win64; x64) AppleWebKit/537.36 (KHTML, like Gecko) Chrome/79.0.3945.130 Safari/537.36",87,"[0.9, 0.5, 0.1]","[0.8, 0.4, 0.2]","[u'blue', u'red', u'black']","[u'left', u'middle', u'right']","[0.8, 0.4, 0.2]","[u'high', u'low', u'medium']","blue",49,"left","high","True","False",483,5550,NA
"A39C210BKD7YNN","Tue Jan 28 2020 14:42:30 GMT-0500 (Eastern Standard Time)","Tue Jan 28 2020 14:49:26 GMT-0500 (Eastern Standard Time)","Mozilla/5.0 (Windows NT 10.0; Win64; x64) AppleWebKit/537.36 (KHTML, like Gecko) Chrome/79.0.3945.130 Safari/537.36",88,"[0.9, 0.5, 0.1]","[0.8, 0.4, 0.2]","[u'blue', u'red', u'black']","[u'left', u'middle', u'right']","[0.8, 0.4, 0.2]","[u'high', u'low', u'medium']","blue",49,"left","high","True","False",407,5650,NA
"A39C210BKD7YNN","Tue Jan 28 2020 14:42:30 GMT-0500 (Eastern Standard Time)","Tue Jan 28 2020 14:49:26 GMT-0500 (Eastern Standard Time)","Mozilla/5.0 (Windows NT 10.0; Win64; x64) AppleWebKit/537.36 (KHTML, like Gecko) Chrome/79.0.3945.130 Safari/537.36",89,"[0.9, 0.5, 0.1]","[0.8, 0.4, 0.2]","[u'blue', u'red', u'black']","[u'left', u'middle', u'right']","[0.8, 0.4, 0.2]","[u'high', u'low', u'medium']","blue",49,"left","high","True","True",457,5750,NA
"A39C210BKD7YNN","Tue Jan 28 2020 14:42:30 GMT-0500 (Eastern Standard Time)","Tue Jan 28 2020 14:49:26 GMT-0500 (Eastern Standard Time)","Mozilla/5.0 (Windows NT 10.0; Win64; x64) AppleWebKit/537.36 (KHTML, like Gecko) Chrome/79.0.3945.130 Safari/537.36",90,"[0.9, 0.5, 0.1]","[0.8, 0.4, 0.2]","[u'blue', u'red', u'black']","[u'left', u'middle', u'right']","[0.8, 0.4, 0.2]","[u'medium', u'high', u'low']","blue",49,"left","medium","True","False",419,5850,NA
"A39C210BKD7YNN","Tue Jan 28 2020 14:42:30 GMT-0500 (Eastern Standard Time)","Tue Jan 28 2020 14:49:26 GMT-0500 (Eastern Standard Time)","Mozilla/5.0 (Windows NT 10.0; Win64; x64) AppleWebKit/537.36 (KHTML, like Gecko) Chrome/79.0.3945.130 Safari/537.36",91,"[0.9, 0.5, 0.1]","[0.8, 0.4, 0.2]","[u'blue', u'red', u'black']","[u'left', u'middle', u'right']","[0.8, 0.4, 0.2]","[u'medium', u'high', u'low']","blue",49,"left","medium","False","False",413,5800,NA
"A39C210BKD7YNN","Tue Jan 28 2020 14:42:30 GMT-0500 (Eastern Standard Time)","Tue Jan 28 2020 14:49:26 GMT-0500 (Eastern Standard Time)","Mozilla/5.0 (Windows NT 10.0; Win64; x64) AppleWebKit/537.36 (KHTML, like Gecko) Chrome/79.0.3945.130 Safari/537.36",92,"[0.9, 0.5, 0.1]","[0.8, 0.4, 0.2]","[u'blue', u'red', u'black']","[u'left', u'middle', u'right']","[0.8, 0.4, 0.2]","[u'medium', u'high', u'low']","black",51,"right","low","False","False",207,5750,NA
"A39C210BKD7YNN","Tue Jan 28 2020 14:42:30 GMT-0500 (Eastern Standard Time)","Tue Jan 28 2020 14:49:26 GMT-0500 (Eastern Standard Time)","Mozilla/5.0 (Windows NT 10.0; Win64; x64) AppleWebKit/537.36 (KHTML, like Gecko) Chrome/79.0.3945.130 Safari/537.36",93,"[0.9, 0.5, 0.1]","[0.8, 0.4, 0.2]","[u'blue', u'red', u'black']","[u'left', u'middle', u'right']","[0.8, 0.4, 0.2]","[u'medium', u'high', u'low']","red",50,"middle","high","True","False",80,5850,NA
"A39C210BKD7YNN","Tue Jan 28 2020 14:42:30 GMT-0500 (Eastern Standard Time)","Tue Jan 28 2020 14:49:26 GMT-0500 (Eastern Standard Time)","Mozilla/5.0 (Windows NT 10.0; Win64; x64) AppleWebKit/537.36 (KHTML, like Gecko) Chrome/79.0.3945.130 Safari/537.36",94,"[0.9, 0.5, 0.1]","[0.8, 0.4, 0.2]","[u'blue', u'red', u'black']","[u'left', u'middle', u'right']","[0.8, 0.4, 0.2]","[u'medium', u'high', u'low']","blue",49,"left","medium","False","False",395,5800,NA
"A39C210BKD7YNN","Tue Jan 28 2020 14:42:30 GMT-0500 (Eastern Standard Time)","Tue Jan 28 2020 14:49:26 GMT-0500 (Eastern Standard Time)","Mozilla/5.0 (Windows NT 10.0; Win64; x64) AppleWebKit/537.36 (KHTML, like Gecko) Chrome/79.0.3945.130 Safari/537.36",95,"[0.9, 0.5, 0.1]","[0.8, 0.4, 0.2]","[u'blue', u'red', u'black']","[u'left', u'middle', u'right']","[0.8, 0.4, 0.2]","[u'medium', u'high', u'low']","red",50,"middle","high","True","False",285,5900,NA
"A39C210BKD7YNN","Tue Jan 28 2020 14:42:30 GMT-0500 (Eastern Standard Time)","Tue Jan 28 2020 14:49:26 GMT-0500 (Eastern Standard Time)","Mozilla/5.0 (Windows NT 10.0; Win64; x64) AppleWebKit/537.36 (KHTML, like Gecko) Chrome/79.0.3945.130 Safari/537.36",96,"[0.9, 0.5, 0.1]","[0.8, 0.4, 0.2]","[u'blue', u'red', u'black']","[u'left', u'middle', u'right']","[0.8, 0.4, 0.2]","[u'medium', u'high', u'low']","red",50,"middle","high","True","False",320,6000,NA
"A39C210BKD7YNN","Tue Jan 28 2020 14:42:30 GMT-0500 (Eastern Standard Time)","Tue Jan 28 2020 14:49:26 GMT-0500 (Eastern Standard Time)","Mozilla/5.0 (Windows NT 10.0; Win64; x64) AppleWebKit/537.36 (KHTML, like Gecko) Chrome/79.0.3945.130 Safari/537.36",97,"[0.9, 0.5, 0.1]","[0.8, 0.4, 0.2]","[u'blue', u'red', u'black']","[u'left', u'middle', u'right']","[0.8, 0.4, 0.2]","[u'medium', u'high', u'low']","red",50,"middle","high","True","False",292,6100,NA
"A39C210BKD7YNN","Tue Jan 28 2020 14:42:30 GMT-0500 (Eastern Standard Time)","Tue Jan 28 2020 14:49:26 GMT-0500 (Eastern Standard Time)","Mozilla/5.0 (Windows NT 10.0; Win64; x64) AppleWebKit/537.36 (KHTML, like Gecko) Chrome/79.0.3945.130 Safari/537.36",98,"[0.9, 0.5, 0.1]","[0.8, 0.4, 0.2]","[u'blue', u'red', u'black']","[u'left', u'middle', u'right']","[0.8, 0.4, 0.2]","[u'medium', u'high', u'low']","red",50,"middle","high","True","False",362,6200,NA
"A39C210BKD7YNN","Tue Jan 28 2020 14:42:30 GMT-0500 (Eastern Standard Time)","Tue Jan 28 2020 14:49:26 GMT-0500 (Eastern Standard Time)","Mozilla/5.0 (Windows NT 10.0; Win64; x64) AppleWebKit/537.36 (KHTML, like Gecko) Chrome/79.0.3945.130 Safari/537.36",99,"[0.9, 0.5, 0.1]","[0.8, 0.4, 0.2]","[u'blue', u'red', u'black']","[u'left', u'middle', u'right']","[0.8, 0.4, 0.2]","[u'medium', u'high', u'low']","red",50,"middle","high","True","False",318,6300,NA
"A39C210BKD7YNN","Tue Jan 28 2020 14:42:30 GMT-0500 (Eastern Standard Time)","Tue Jan 28 2020 14:49:26 GMT-0500 (Eastern Standard Time)","Mozilla/5.0 (Windows NT 10.0; Win64; x64) AppleWebKit/537.36 (KHTML, like Gecko) Chrome/79.0.3945.130 Safari/537.36",100,"[0.9, 0.5, 0.1]","[0.8, 0.4, 0.2]","[u'blue', u'red', u'black']","[u'left', u'middle', u'right']","[0.8, 0.4, 0.2]","[u'medium', u'high', u'low']","red",50,"middle","high","True","False",376,6400,NA
"A39C210BKD7YNN","Tue Jan 28 2020 14:42:30 GMT-0500 (Eastern Standard Time)","Tue Jan 28 2020 14:49:26 GMT-0500 (Eastern Standard Time)","Mozilla/5.0 (Windows NT 10.0; Win64; x64) AppleWebKit/537.36 (KHTML, like Gecko) Chrome/79.0.3945.130 Safari/537.36",101,"[0.9, 0.5, 0.1]","[0.8, 0.4, 0.2]","[u'blue', u'red', u'black']","[u'left', u'middle', u'right']","[0.8, 0.4, 0.2]","[u'medium', u'high', u'low']","red",50,"middle","high","True","False",360,6500,NA
"A39C210BKD7YNN","Tue Jan 28 2020 14:42:30 GMT-0500 (Eastern Standard Time)","Tue Jan 28 2020 14:49:26 GMT-0500 (Eastern Standard Time)","Mozilla/5.0 (Windows NT 10.0; Win64; x64) AppleWebKit/537.36 (KHTML, like Gecko) Chrome/79.0.3945.130 Safari/537.36",102,"[0.9, 0.5, 0.1]","[0.8, 0.4, 0.2]","[u'blue', u'red', u'black']","[u'left', u'middle', u'right']","[0.8, 0.4, 0.2]","[u'medium', u'high', u'low']","red",50,"middle","high","True","True",360,6600,NA
"A39C210BKD7YNN","Tue Jan 28 2020 14:42:30 GMT-0500 (Eastern Standard Time)","Tue Jan 28 2020 14:49:26 GMT-0500 (Eastern Standard Time)","Mozilla/5.0 (Windows NT 10.0; Win64; x64) AppleWebKit/537.36 (KHTML, like Gecko) Chrome/79.0.3945.130 Safari/537.36",103,"[0.9, 0.5, 0.1]","[0.8, 0.4, 0.2]","[u'blue', u'red', u'black']","[u'left', u'middle', u'right']","[0.8, 0.4, 0.2]","[u'high', u'low', u'medium']","red",50,"middle","low","False","False",430,6550,NA
"A39C210BKD7YNN","Tue Jan 28 2020 14:42:30 GMT-0500 (Eastern Standard Time)","Tue Jan 28 2020 14:49:26 GMT-0500 (Eastern Standard Time)","Mozilla/5.0 (Windows NT 10.0; Win64; x64) AppleWebKit/537.36 (KHTML, like Gecko) Chrome/79.0.3945.130 Safari/537.36",104,"[0.9, 0.5, 0.1]","[0.8, 0.4, 0.2]","[u'blue', u'red', u'black']","[u'left', u'middle', u'right']","[0.8, 0.4, 0.2]","[u'high', u'low', u'medium']","black",51,"right","medium","False","False",364,6500,NA
"A39C210BKD7YNN","Tue Jan 28 2020 14:42:30 GMT-0500 (Eastern Standard Time)","Tue Jan 28 2020 14:49:26 GMT-0500 (Eastern Standard Time)","Mozilla/5.0 (Windows NT 10.0; Win64; x64) AppleWebKit/537.36 (KHTML, like Gecko) Chrome/79.0.3945.130 Safari/537.36",105,"[0.9, 0.5, 0.1]","[0.8, 0.4, 0.2]","[u'blue', u'red', u'black']","[u'left', u'middle', u'right']","[0.8, 0.4, 0.2]","[u'high', u'low', u'medium']","blue",49,"left","high","True","False",230,6600,NA
"A39C210BKD7YNN","Tue Jan 28 2020 14:42:30 GMT-0500 (Eastern Standard Time)","Tue Jan 28 2020 14:49:26 GMT-0500 (Eastern Standard Time)","Mozilla/5.0 (Windows NT 10.0; Win64; x64) AppleWebKit/537.36 (KHTML, like Gecko) Chrome/79.0.3945.130 Safari/537.36",106,"[0.9, 0.5, 0.1]","[0.8, 0.4, 0.2]","[u'blue', u'red', u'black']","[u'left', u'middle', u'right']","[0.8, 0.4, 0.2]","[u'high', u'low', u'medium']","blue",49,"left","high","True","False",336,6700,NA
"A39C210BKD7YNN","Tue Jan 28 2020 14:42:30 GMT-0500 (Eastern Standard Time)","Tue Jan 28 2020 14:49:26 GMT-0500 (Eastern Standard Time)","Mozilla/5.0 (Windows NT 10.0; Win64; x64) AppleWebKit/537.36 (KHTML, like Gecko) Chrome/79.0.3945.130 Safari/537.36",107,"[0.9, 0.5, 0.1]","[0.8, 0.4, 0.2]","[u'blue', u'red', u'black']","[u'left', u'middle', u'right']","[0.8, 0.4, 0.2]","[u'high', u'low', u'medium']","blue",49,"left","high","True","False",385,6800,NA
"A39C210BKD7YNN","Tue Jan 28 2020 14:42:30 GMT-0500 (Eastern Standard Time)","Tue Jan 28 2020 14:49:26 GMT-0500 (Eastern Standard Time)","Mozilla/5.0 (Windows NT 10.0; Win64; x64) AppleWebKit/537.36 (KHTML, like Gecko) Chrome/79.0.3945.130 Safari/537.36",108,"[0.9, 0.5, 0.1]","[0.8, 0.4, 0.2]","[u'blue', u'red', u'black']","[u'left', u'middle', u'right']","[0.8, 0.4, 0.2]","[u'high', u'low', u'medium']","blue",49,"left","high","True","False",386,6900,NA
"A39C210BKD7YNN","Tue Jan 28 2020 14:42:30 GMT-0500 (Eastern Standard Time)","Tue Jan 28 2020 14:49:26 GMT-0500 (Eastern Standard Time)","Mozilla/5.0 (Windows NT 10.0; Win64; x64) AppleWebKit/537.36 (KHTML, like Gecko) Chrome/79.0.3945.130 Safari/537.36",109,"[0.9, 0.5, 0.1]","[0.8, 0.4, 0.2]","[u'blue', u'red', u'black']","[u'left', u'middle', u'right']","[0.8, 0.4, 0.2]","[u'high', u'low', u'medium']","blue",49,"left","high","True","False",364,7000,NA
"A39C210BKD7YNN","Tue Jan 28 2020 14:42:30 GMT-0500 (Eastern Standard Time)","Tue Jan 28 2020 14:49:26 GMT-0500 (Eastern Standard Time)","Mozilla/5.0 (Windows NT 10.0; Win64; x64) AppleWebKit/537.36 (KHTML, like Gecko) Chrome/79.0.3945.130 Safari/537.36",110,"[0.9, 0.5, 0.1]","[0.8, 0.4, 0.2]","[u'blue', u'red', u'black']","[u'left', u'middle', u'right']","[0.8, 0.4, 0.2]","[u'high', u'low', u'medium']","blue",49,"left","high","True","False",436,7100,NA
"A39C210BKD7YNN","Tue Jan 28 2020 14:42:30 GMT-0500 (Eastern Standard Time)","Tue Jan 28 2020 14:49:26 GMT-0500 (Eastern Standard Time)","Mozilla/5.0 (Windows NT 10.0; Win64; x64) AppleWebKit/537.36 (KHTML, like Gecko) Chrome/79.0.3945.130 Safari/537.36",111,"[0.9, 0.5, 0.1]","[0.8, 0.4, 0.2]","[u'blue', u'red', u'black']","[u'left', u'middle', u'right']","[0.8, 0.4, 0.2]","[u'high', u'low', u'medium']","blue",49,"left","high","True","False",467,7200,NA
"A39C210BKD7YNN","Tue Jan 28 2020 14:42:30 GMT-0500 (Eastern Standard Time)","Tue Jan 28 2020 14:49:26 GMT-0500 (Eastern Standard Time)","Mozilla/5.0 (Windows NT 10.0; Win64; x64) AppleWebKit/537.36 (KHTML, like Gecko) Chrome/79.0.3945.130 Safari/537.36",112,"[0.9, 0.5, 0.1]","[0.8, 0.4, 0.2]","[u'blue', u'red', u'black']","[u'left', u'middle', u'right']","[0.8, 0.4, 0.2]","[u'high', u'low', u'medium']","blue",49,"left","high","True","False",379,7300,NA
"A39C210BKD7YNN","Tue Jan 28 2020 14:42:30 GMT-0500 (Eastern Standard Time)","Tue Jan 28 2020 14:49:26 GMT-0500 (Eastern Standard Time)","Mozilla/5.0 (Windows NT 10.0; Win64; x64) AppleWebKit/537.36 (KHTML, like Gecko) Chrome/79.0.3945.130 Safari/537.36",113,"[0.9, 0.5, 0.1]","[0.8, 0.4, 0.2]","[u'blue', u'red', u'black']","[u'left', u'middle', u'right']","[0.8, 0.4, 0.2]","[u'high', u'low', u'medium']","blue",49,"left","high","True","True",371,7400,NA
"A39C210BKD7YNN","Tue Jan 28 2020 14:42:30 GMT-0500 (Eastern Standard Time)","Tue Jan 28 2020 14:49:26 GMT-0500 (Eastern Standard Time)","Mozilla/5.0 (Windows NT 10.0; Win64; x64) AppleWebKit/537.36 (KHTML, like Gecko) Chrome/79.0.3945.130 Safari/537.36",114,"[0.9, 0.5, 0.1]","[0.8, 0.4, 0.2]","[u'blue', u'red', u'black']","[u'left', u'middle', u'right']","[0.8, 0.4, 0.2]","[u'medium', u'low', u'high']","blue",49,"left","medium","False","False",418,7350,NA
"A39C210BKD7YNN","Tue Jan 28 2020 14:42:30 GMT-0500 (Eastern Standard Time)","Tue Jan 28 2020 14:49:26 GMT-0500 (Eastern Standard Time)","Mozilla/5.0 (Windows NT 10.0; Win64; x64) AppleWebKit/537.36 (KHTML, like Gecko) Chrome/79.0.3945.130 Safari/537.36",115,"[0.9, 0.5, 0.1]","[0.8, 0.4, 0.2]","[u'blue', u'red', u'black']","[u'left', u'middle', u'right']","[0.8, 0.4, 0.2]","[u'medium', u'low', u'high']","red",50,"middle","low","False","False",323,7300,NA
"A39C210BKD7YNN","Tue Jan 28 2020 14:42:30 GMT-0500 (Eastern Standard Time)","Tue Jan 28 2020 14:49:26 GMT-0500 (Eastern Standard Time)","Mozilla/5.0 (Windows NT 10.0; Win64; x64) AppleWebKit/537.36 (KHTML, like Gecko) Chrome/79.0.3945.130 Safari/537.36",116,"[0.9, 0.5, 0.1]","[0.8, 0.4, 0.2]","[u'blue', u'red', u'black']","[u'left', u'middle', u'right']","[0.8, 0.4, 0.2]","[u'medium', u'low', u'high']","black",51,"right","high","True","False",319,7400,NA
"A39C210BKD7YNN","Tue Jan 28 2020 14:42:30 GMT-0500 (Eastern Standard Time)","Tue Jan 28 2020 14:49:26 GMT-0500 (Eastern Standard Time)","Mozilla/5.0 (Windows NT 10.0; Win64; x64) AppleWebKit/537.36 (KHTML, like Gecko) Chrome/79.0.3945.130 Safari/537.36",117,"[0.9, 0.5, 0.1]","[0.8, 0.4, 0.2]","[u'blue', u'red', u'black']","[u'left', u'middle', u'right']","[0.8, 0.4, 0.2]","[u'medium', u'low', u'high']","black",51,"right","high","False","False",424,7350,NA
"A39C210BKD7YNN","Tue Jan 28 2020 14:42:30 GMT-0500 (Eastern Standard Time)","Tue Jan 28 2020 14:49:26 GMT-0500 (Eastern Standard Time)","Mozilla/5.0 (Windows NT 10.0; Win64; x64) AppleWebKit/537.36 (KHTML, like Gecko) Chrome/79.0.3945.130 Safari/537.36",118,"[0.9, 0.5, 0.1]","[0.8, 0.4, 0.2]","[u'blue', u'red', u'black']","[u'left', u'middle', u'right']","[0.8, 0.4, 0.2]","[u'medium', u'low', u'high']","red",50,"middle","low","False","False",366,7300,NA
"A39C210BKD7YNN","Tue Jan 28 2020 14:42:30 GMT-0500 (Eastern Standard Time)","Tue Jan 28 2020 14:49:26 GMT-0500 (Eastern Standard Time)","Mozilla/5.0 (Windows NT 10.0; Win64; x64) AppleWebKit/537.36 (KHTML, like Gecko) Chrome/79.0.3945.130 Safari/537.36",119,"[0.9, 0.5, 0.1]","[0.8, 0.4, 0.2]","[u'blue', u'red', u'black']","[u'left', u'middle', u'right']","[0.8, 0.4, 0.2]","[u'medium', u'low', u'high']","blue",49,"left","medium","False","False",304,7250,NA
"A39C210BKD7YNN","Tue Jan 28 2020 14:42:30 GMT-0500 (Eastern Standard Time)","Tue Jan 28 2020 14:49:26 GMT-0500 (Eastern Standard Time)","Mozilla/5.0 (Windows NT 10.0; Win64; x64) AppleWebKit/537.36 (KHTML, like Gecko) Chrome/79.0.3945.130 Safari/537.36",120,"[0.9, 0.5, 0.1]","[0.8, 0.4, 0.2]","[u'blue', u'red', u'black']","[u'left', u'middle', u'right']","[0.8, 0.4, 0.2]","[u'medium', u'low', u'high']","red",50,"middle","low","False","False",59,7200,NA
"A39C210BKD7YNN","Tue Jan 28 2020 14:42:30 GMT-0500 (Eastern Standard Time)","Tue Jan 28 2020 14:49:26 GMT-0500 (Eastern Standard Time)","Mozilla/5.0 (Windows NT 10.0; Win64; x64) AppleWebKit/537.36 (KHTML, like Gecko) Chrome/79.0.3945.130 Safari/537.36",121,"[0.9, 0.5, 0.1]","[0.8, 0.4, 0.2]","[u'blue', u'red', u'black']","[u'left', u'middle', u'right']","[0.8, 0.4, 0.2]","[u'low', u'high', u'medium']","blue",49,"left","low","False","False",586,7150,NA
"A39C210BKD7YNN","Tue Jan 28 2020 14:42:30 GMT-0500 (Eastern Standard Time)","Tue Jan 28 2020 14:49:26 GMT-0500 (Eastern Standard Time)","Mozilla/5.0 (Windows NT 10.0; Win64; x64) AppleWebKit/537.36 (KHTML, like Gecko) Chrome/79.0.3945.130 Safari/537.36",122,"[0.9, 0.5, 0.1]","[0.8, 0.4, 0.2]","[u'blue', u'red', u'black']","[u'left', u'middle', u'right']","[0.8, 0.4, 0.2]","[u'low', u'high', u'medium']","red",50,"middle","high","True","False",291,7250,NA
"A39C210BKD7YNN","Tue Jan 28 2020 14:42:30 GMT-0500 (Eastern Standard Time)","Tue Jan 28 2020 14:49:26 GMT-0500 (Eastern Standard Time)","Mozilla/5.0 (Windows NT 10.0; Win64; x64) AppleWebKit/537.36 (KHTML, like Gecko) Chrome/79.0.3945.130 Safari/537.36",123,"[0.9, 0.5, 0.1]","[0.8, 0.4, 0.2]","[u'blue', u'red', u'black']","[u'left', u'middle', u'right']","[0.8, 0.4, 0.2]","[u'low', u'high', u'medium']","red",50,"middle","high","True","False",331,7350,NA
"A39C210BKD7YNN","Tue Jan 28 2020 14:42:30 GMT-0500 (Eastern Standard Time)","Tue Jan 28 2020 14:49:26 GMT-0500 (Eastern Standard Time)","Mozilla/5.0 (Windows NT 10.0; Win64; x64) AppleWebKit/537.36 (KHTML, like Gecko) Chrome/79.0.3945.130 Safari/537.36",124,"[0.9, 0.5, 0.1]","[0.8, 0.4, 0.2]","[u'blue', u'red', u'black']","[u'left', u'middle', u'right']","[0.8, 0.4, 0.2]","[u'low', u'high', u'medium']","black",51,"right","medium","False","False",507,7300,NA
"A39C210BKD7YNN","Tue Jan 28 2020 14:42:30 GMT-0500 (Eastern Standard Time)","Tue Jan 28 2020 14:49:26 GMT-0500 (Eastern Standard Time)","Mozilla/5.0 (Windows NT 10.0; Win64; x64) AppleWebKit/537.36 (KHTML, like Gecko) Chrome/79.0.3945.130 Safari/537.36",125,"[0.9, 0.5, 0.1]","[0.8, 0.4, 0.2]","[u'blue', u'red', u'black']","[u'left', u'middle', u'right']","[0.8, 0.4, 0.2]","[u'low', u'high', u'medium']","red",50,"middle","high","False","False",323,7250,NA
"A39C210BKD7YNN","Tue Jan 28 2020 14:42:30 GMT-0500 (Eastern Standard Time)","Tue Jan 28 2020 14:49:26 GMT-0500 (Eastern Standard Time)","Mozilla/5.0 (Windows NT 10.0; Win64; x64) AppleWebKit/537.36 (KHTML, like Gecko) Chrome/79.0.3945.130 Safari/537.36",126,"[0.9, 0.5, 0.1]","[0.8, 0.4, 0.2]","[u'blue', u'red', u'black']","[u'left', u'middle', u'right']","[0.8, 0.4, 0.2]","[u'low', u'high', u'medium']","blue",49,"left","low","False","False",271,7200,NA
"A39C210BKD7YNN","Tue Jan 28 2020 14:42:30 GMT-0500 (Eastern Standard Time)","Tue Jan 28 2020 14:49:26 GMT-0500 (Eastern Standard Time)","Mozilla/5.0 (Windows NT 10.0; Win64; x64) AppleWebKit/537.36 (KHTML, like Gecko) Chrome/79.0.3945.130 Safari/537.36",127,"[0.9, 0.5, 0.1]","[0.8, 0.4, 0.2]","[u'blue', u'red', u'black']","[u'left', u'middle', u'right']","[0.8, 0.4, 0.2]","[u'low', u'high', u'medium']","red",50,"middle","high","True","False",315,7300,NA
"A39C210BKD7YNN","Tue Jan 28 2020 14:42:30 GMT-0500 (Eastern Standard Time)","Tue Jan 28 2020 14:49:26 GMT-0500 (Eastern Standard Time)","Mozilla/5.0 (Windows NT 10.0; Win64; x64) AppleWebKit/537.36 (KHTML, like Gecko) Chrome/79.0.3945.130 Safari/537.36",128,"[0.9, 0.5, 0.1]","[0.8, 0.4, 0.2]","[u'blue', u'red', u'black']","[u'left', u'middle', u'right']","[0.8, 0.4, 0.2]","[u'low', u'high', u'medium']","red",50,"middle","high","True","False",395,7400,NA
"A39C210BKD7YNN","Tue Jan 28 2020 14:42:30 GMT-0500 (Eastern Standard Time)","Tue Jan 28 2020 14:49:26 GMT-0500 (Eastern Standard Time)","Mozilla/5.0 (Windows NT 10.0; Win64; x64) AppleWebKit/537.36 (KHTML, like Gecko) Chrome/79.0.3945.130 Safari/537.36",129,"[0.9, 0.5, 0.1]","[0.8, 0.4, 0.2]","[u'blue', u'red', u'black']","[u'left', u'middle', u'right']","[0.8, 0.4, 0.2]","[u'low', u'high', u'medium']","red",50,"middle","high","True","False",452,7500,NA
"A39C210BKD7YNN","Tue Jan 28 2020 14:42:30 GMT-0500 (Eastern Standard Time)","Tue Jan 28 2020 14:49:26 GMT-0500 (Eastern Standard Time)","Mozilla/5.0 (Windows NT 10.0; Win64; x64) AppleWebKit/537.36 (KHTML, like Gecko) Chrome/79.0.3945.130 Safari/537.36",130,"[0.9, 0.5, 0.1]","[0.8, 0.4, 0.2]","[u'blue', u'red', u'black']","[u'left', u'middle', u'right']","[0.8, 0.4, 0.2]","[u'low', u'high', u'medium']","red",50,"middle","high","False","False",396,7450,NA
"A39C210BKD7YNN","Tue Jan 28 2020 14:42:30 GMT-0500 (Eastern Standard Time)","Tue Jan 28 2020 14:49:26 GMT-0500 (Eastern Standard Time)","Mozilla/5.0 (Windows NT 10.0; Win64; x64) AppleWebKit/537.36 (KHTML, like Gecko) Chrome/79.0.3945.130 Safari/537.36",131,"[0.9, 0.5, 0.1]","[0.8, 0.4, 0.2]","[u'blue', u'red', u'black']","[u'left', u'middle', u'right']","[0.8, 0.4, 0.2]","[u'low', u'high', u'medium']","black",51,"right","medium","False","False",487,7400,NA
"A39C210BKD7YNN","Tue Jan 28 2020 14:42:30 GMT-0500 (Eastern Standard Time)","Tue Jan 28 2020 14:49:26 GMT-0500 (Eastern Standard Time)","Mozilla/5.0 (Windows NT 10.0; Win64; x64) AppleWebKit/537.36 (KHTML, like Gecko) Chrome/79.0.3945.130 Safari/537.36",132,"[0.9, 0.5, 0.1]","[0.8, 0.4, 0.2]","[u'blue', u'red', u'black']","[u'left', u'middle', u'right']","[0.8, 0.4, 0.2]","[u'low', u'high', u'medium']","blue",49,"left","low","False","False",361,7350,NA
"A39C210BKD7YNN","Tue Jan 28 2020 14:42:30 GMT-0500 (Eastern Standard Time)","Tue Jan 28 2020 14:49:26 GMT-0500 (Eastern Standard Time)","Mozilla/5.0 (Windows NT 10.0; Win64; x64) AppleWebKit/537.36 (KHTML, like Gecko) Chrome/79.0.3945.130 Safari/537.36",133,"[0.9, 0.5, 0.1]","[0.8, 0.4, 0.2]","[u'blue', u'red', u'black']","[u'left', u'middle', u'right']","[0.8, 0.4, 0.2]","[u'low', u'high', u'medium']","red",50,"middle","high","True","False",323,7450,NA
"A39C210BKD7YNN","Tue Jan 28 2020 14:42:30 GMT-0500 (Eastern Standard Time)","Tue Jan 28 2020 14:49:26 GMT-0500 (Eastern Standard Time)","Mozilla/5.0 (Windows NT 10.0; Win64; x64) AppleWebKit/537.36 (KHTML, like Gecko) Chrome/79.0.3945.130 Safari/537.36",134,"[0.9, 0.5, 0.1]","[0.8, 0.4, 0.2]","[u'blue', u'red', u'black']","[u'left', u'middle', u'right']","[0.8, 0.4, 0.2]","[u'low', u'high', u'medium']","red",50,"middle","high","True","False",299,7550,NA
"A39C210BKD7YNN","Tue Jan 28 2020 14:42:30 GMT-0500 (Eastern Standard Time)","Tue Jan 28 2020 14:49:26 GMT-0500 (Eastern Standard Time)","Mozilla/5.0 (Windows NT 10.0; Win64; x64) AppleWebKit/537.36 (KHTML, like Gecko) Chrome/79.0.3945.130 Safari/537.36",135,"[0.9, 0.5, 0.1]","[0.8, 0.4, 0.2]","[u'blue', u'red', u'black']","[u'left', u'middle', u'right']","[0.8, 0.4, 0.2]","[u'low', u'high', u'medium']","red",50,"middle","high","True","False",387,7650,NA
"A39C210BKD7YNN","Tue Jan 28 2020 14:42:30 GMT-0500 (Eastern Standard Time)","Tue Jan 28 2020 14:49:26 GMT-0500 (Eastern Standard Time)","Mozilla/5.0 (Windows NT 10.0; Win64; x64) AppleWebKit/537.36 (KHTML, like Gecko) Chrome/79.0.3945.130 Safari/537.36",136,"[0.9, 0.5, 0.1]","[0.8, 0.4, 0.2]","[u'blue', u'red', u'black']","[u'left', u'middle', u'right']","[0.8, 0.4, 0.2]","[u'low', u'high', u'medium']","red",50,"middle","high","True","False",510,7750,NA
"A39C210BKD7YNN","Tue Jan 28 2020 14:42:30 GMT-0500 (Eastern Standard Time)","Tue Jan 28 2020 14:49:26 GMT-0500 (Eastern Standard Time)","Mozilla/5.0 (Windows NT 10.0; Win64; x64) AppleWebKit/537.36 (KHTML, like Gecko) Chrome/79.0.3945.130 Safari/537.36",137,"[0.9, 0.5, 0.1]","[0.8, 0.4, 0.2]","[u'blue', u'red', u'black']","[u'left', u'middle', u'right']","[0.8, 0.4, 0.2]","[u'low', u'high', u'medium']","red",50,"middle","high","True","False",460,7850,NA
"A39C210BKD7YNN","Tue Jan 28 2020 14:42:30 GMT-0500 (Eastern Standard Time)","Tue Jan 28 2020 14:49:26 GMT-0500 (Eastern Standard Time)","Mozilla/5.0 (Windows NT 10.0; Win64; x64) AppleWebKit/537.36 (KHTML, like Gecko) Chrome/79.0.3945.130 Safari/537.36",138,"[0.9, 0.5, 0.1]","[0.8, 0.4, 0.2]","[u'blue', u'red', u'black']","[u'left', u'middle', u'right']","[0.8, 0.4, 0.2]","[u'low', u'high', u'medium']","red",50,"middle","high","False","False",348,7800,NA
"A39C210BKD7YNN","Tue Jan 28 2020 14:42:30 GMT-0500 (Eastern Standard Time)","Tue Jan 28 2020 14:49:26 GMT-0500 (Eastern Standard Time)","Mozilla/5.0 (Windows NT 10.0; Win64; x64) AppleWebKit/537.36 (KHTML, like Gecko) Chrome/79.0.3945.130 Safari/537.36",139,"[0.9, 0.5, 0.1]","[0.8, 0.4, 0.2]","[u'blue', u'red', u'black']","[u'left', u'middle', u'right']","[0.8, 0.4, 0.2]","[u'low', u'high', u'medium']","blue",49,"left","low","False","False",250,7750,NA
"A39C210BKD7YNN","Tue Jan 28 2020 14:42:30 GMT-0500 (Eastern Standard Time)","Tue Jan 28 2020 14:49:26 GMT-0500 (Eastern Standard Time)","Mozilla/5.0 (Windows NT 10.0; Win64; x64) AppleWebKit/537.36 (KHTML, like Gecko) Chrome/79.0.3945.130 Safari/537.36",140,"[0.9, 0.5, 0.1]","[0.8, 0.4, 0.2]","[u'blue', u'red', u'black']","[u'left', u'middle', u'right']","[0.8, 0.4, 0.2]","[u'low', u'high', u'medium']","black",51,"right","medium","True","False",140,7850,NA
"A39C210BKD7YNN","Tue Jan 28 2020 14:42:30 GMT-0500 (Eastern Standard Time)","Tue Jan 28 2020 14:49:26 GMT-0500 (Eastern Standard Time)","Mozilla/5.0 (Windows NT 10.0; Win64; x64) AppleWebKit/537.36 (KHTML, like Gecko) Chrome/79.0.3945.130 Safari/537.36",141,"[0.9, 0.5, 0.1]","[0.8, 0.4, 0.2]","[u'blue', u'red', u'black']","[u'left', u'middle', u'right']","[0.8, 0.4, 0.2]","[u'low', u'high', u'medium']","black",51,"right","medium","False","False",343,7800,NA
"A39C210BKD7YNN","Tue Jan 28 2020 14:42:30 GMT-0500 (Eastern Standard Time)","Tue Jan 28 2020 14:49:26 GMT-0500 (Eastern Standard Time)","Mozilla/5.0 (Windows NT 10.0; Win64; x64) AppleWebKit/537.36 (KHTML, like Gecko) Chrome/79.0.3945.130 Safari/537.36",142,"[0.9, 0.5, 0.1]","[0.8, 0.4, 0.2]","[u'blue', u'red', u'black']","[u'left', u'middle', u'right']","[0.8, 0.4, 0.2]","[u'low', u'high', u'medium']","red",50,"middle","high","False","False",331,7750,NA
"A39C210BKD7YNN","Tue Jan 28 2020 14:42:30 GMT-0500 (Eastern Standard Time)","Tue Jan 28 2020 14:49:26 GMT-0500 (Eastern Standard Time)","Mozilla/5.0 (Windows NT 10.0; Win64; x64) AppleWebKit/537.36 (KHTML, like Gecko) Chrome/79.0.3945.130 Safari/537.36",143,"[0.9, 0.5, 0.1]","[0.8, 0.4, 0.2]","[u'blue', u'red', u'black']","[u'left', u'middle', u'right']","[0.8, 0.4, 0.2]","[u'low', u'high', u'medium']","blue",49,"left","low","True","False",331,7850,NA
"A39C210BKD7YNN","Tue Jan 28 2020 14:42:30 GMT-0500 (Eastern Standard Time)","Tue Jan 28 2020 14:49:26 GMT-0500 (Eastern Standard Time)","Mozilla/5.0 (Windows NT 10.0; Win64; x64) AppleWebKit/537.36 (KHTML, like Gecko) Chrome/79.0.3945.130 Safari/537.36",144,"[0.9, 0.5, 0.1]","[0.8, 0.4, 0.2]","[u'blue', u'red', u'black']","[u'left', u'middle', u'right']","[0.8, 0.4, 0.2]","[u'low', u'high', u'medium']","blue",49,"left","low","False","False",452,7800,NA
"A39C210BKD7YNN","Tue Jan 28 2020 14:42:30 GMT-0500 (Eastern Standard Time)","Tue Jan 28 2020 14:49:26 GMT-0500 (Eastern Standard Time)","Mozilla/5.0 (Windows NT 10.0; Win64; x64) AppleWebKit/537.36 (KHTML, like Gecko) Chrome/79.0.3945.130 Safari/537.36",145,"[0.9, 0.5, 0.1]","[0.8, 0.4, 0.2]","[u'blue', u'red', u'black']","[u'left', u'middle', u'right']","[0.8, 0.4, 0.2]","[u'low', u'high', u'medium']","red",50,"middle","high","True","False",274,7900,NA
"A39C210BKD7YNN","Tue Jan 28 2020 14:42:30 GMT-0500 (Eastern Standard Time)","Tue Jan 28 2020 14:49:26 GMT-0500 (Eastern Standard Time)","Mozilla/5.0 (Windows NT 10.0; Win64; x64) AppleWebKit/537.36 (KHTML, like Gecko) Chrome/79.0.3945.130 Safari/537.36",146,"[0.9, 0.5, 0.1]","[0.8, 0.4, 0.2]","[u'blue', u'red', u'black']","[u'left', u'middle', u'right']","[0.8, 0.4, 0.2]","[u'low', u'high', u'medium']","red",50,"middle","high","True","False",523,8000,NA
"A39C210BKD7YNN","Tue Jan 28 2020 14:42:30 GMT-0500 (Eastern Standard Time)","Tue Jan 28 2020 14:49:26 GMT-0500 (Eastern Standard Time)","Mozilla/5.0 (Windows NT 10.0; Win64; x64) AppleWebKit/537.36 (KHTML, like Gecko) Chrome/79.0.3945.130 Safari/537.36",147,"[0.9, 0.5, 0.1]","[0.8, 0.4, 0.2]","[u'blue', u'red', u'black']","[u'left', u'middle', u'right']","[0.8, 0.4, 0.2]","[u'low', u'high', u'medium']","black",51,"right","medium","True","False",875,8100,NA
"A39C210BKD7YNN","Tue Jan 28 2020 14:42:30 GMT-0500 (Eastern Standard Time)","Tue Jan 28 2020 14:49:26 GMT-0500 (Eastern Standard Time)","Mozilla/5.0 (Windows NT 10.0; Win64; x64) AppleWebKit/537.36 (KHTML, like Gecko) Chrome/79.0.3945.130 Safari/537.36",148,"[0.9, 0.5, 0.1]","[0.8, 0.4, 0.2]","[u'blue', u'red', u'black']","[u'left', u'middle', u'right']","[0.8, 0.4, 0.2]","[u'low', u'high', u'medium']","black",51,"right","medium","False","False",425,8050,NA
"A39C210BKD7YNN","Tue Jan 28 2020 14:42:30 GMT-0500 (Eastern Standard Time)","Tue Jan 28 2020 14:49:26 GMT-0500 (Eastern Standard Time)","Mozilla/5.0 (Windows NT 10.0; Win64; x64) AppleWebKit/537.36 (KHTML, like Gecko) Chrome/79.0.3945.130 Safari/537.36",149,"[0.9, 0.5, 0.1]","[0.8, 0.4, 0.2]","[u'blue', u'red', u'black']","[u'left', u'middle', u'right']","[0.8, 0.4, 0.2]","[u'low', u'high', u'medium']","red",50,"middle","high","True","False",307,8150,NA
"A39C210BKD7YNN","Tue Jan 28 2020 14:42:30 GMT-0500 (Eastern Standard Time)","Tue Jan 28 2020 14:49:26 GMT-0500 (Eastern Standard Time)","Mozilla/5.0 (Windows NT 10.0; Win64; x64) AppleWebKit/537.36 (KHTML, like Gecko) Chrome/79.0.3945.130 Safari/537.36",150,"[0.9, 0.5, 0.1]","[0.8, 0.4, 0.2]","[u'blue', u'red', u'black']","[u'left', u'middle', u'right']","[0.8, 0.4, 0.2]","[u'low', u'high', u'medium']","red",50,"middle","high","False","False",933,8100,NA
"A39C210BKD7YNN","Tue Jan 28 2020 14:42:30 GMT-0500 (Eastern Standard Time)","Tue Jan 28 2020 14:49:26 GMT-0500 (Eastern Standard Time)","Mozilla/5.0 (Windows NT 10.0; Win64; x64) AppleWebKit/537.36 (KHTML, like Gecko) Chrome/79.0.3945.130 Safari/537.36",151,"[0.9, 0.5, 0.1]","[0.8, 0.4, 0.2]","[u'blue', u'red', u'black']","[u'left', u'middle', u'right']","[0.8, 0.4, 0.2]","[u'low', u'high', u'medium']","blue",49,"left","low","False","False",418,8050,NA
"A39C210BKD7YNN","Tue Jan 28 2020 14:42:30 GMT-0500 (Eastern Standard Time)","Tue Jan 28 2020 14:49:26 GMT-0500 (Eastern Standard Time)","Mozilla/5.0 (Windows NT 10.0; Win64; x64) AppleWebKit/537.36 (KHTML, like Gecko) Chrome/79.0.3945.130 Safari/537.36",152,"[0.9, 0.5, 0.1]","[0.8, 0.4, 0.2]","[u'blue', u'red', u'black']","[u'left', u'middle', u'right']","[0.8, 0.4, 0.2]","[u'low', u'high', u'medium']","black",51,"right","medium","False","False",376,8000,NA
"A39C210BKD7YNN","Tue Jan 28 2020 14:42:30 GMT-0500 (Eastern Standard Time)","Tue Jan 28 2020 14:49:26 GMT-0500 (Eastern Standard Time)","Mozilla/5.0 (Windows NT 10.0; Win64; x64) AppleWebKit/537.36 (KHTML, like Gecko) Chrome/79.0.3945.130 Safari/537.36",153,"[0.9, 0.5, 0.1]","[0.8, 0.4, 0.2]","[u'blue', u'red', u'black']","[u'left', u'middle', u'right']","[0.8, 0.4, 0.2]","[u'low', u'high', u'medium']","red",50,"middle","high","False","False",221,7950,NA
"A39C210BKD7YNN","Tue Jan 28 2020 14:42:30 GMT-0500 (Eastern Standard Time)","Tue Jan 28 2020 14:49:26 GMT-0500 (Eastern Standard Time)","Mozilla/5.0 (Windows NT 10.0; Win64; x64) AppleWebKit/537.36 (KHTML, like Gecko) Chrome/79.0.3945.130 Safari/537.36",154,"[0.9, 0.5, 0.1]","[0.8, 0.4, 0.2]","[u'blue', u'red', u'black']","[u'left', u'middle', u'right']","[0.8, 0.4, 0.2]","[u'low', u'high', u'medium']","blue",49,"left","low","True","False",160,8050,NA
"A39C210BKD7YNN","Tue Jan 28 2020 14:42:30 GMT-0500 (Eastern Standard Time)","Tue Jan 28 2020 14:49:26 GMT-0500 (Eastern Standard Time)","Mozilla/5.0 (Windows NT 10.0; Win64; x64) AppleWebKit/537.36 (KHTML, like Gecko) Chrome/79.0.3945.130 Safari/537.36",155,"[0.9, 0.5, 0.1]","[0.8, 0.4, 0.2]","[u'blue', u'red', u'black']","[u'left', u'middle', u'right']","[0.8, 0.4, 0.2]","[u'low', u'high', u'medium']","blue",49,"left","low","False","False",382,8000,NA
"A39C210BKD7YNN","Tue Jan 28 2020 14:42:30 GMT-0500 (Eastern Standard Time)","Tue Jan 28 2020 14:49:26 GMT-0500 (Eastern Standard Time)","Mozilla/5.0 (Windows NT 10.0; Win64; x64) AppleWebKit/537.36 (KHTML, like Gecko) Chrome/79.0.3945.130 Safari/537.36",156,"[0.9, 0.5, 0.1]","[0.8, 0.4, 0.2]","[u'blue', u'red', u'black']","[u'left', u'middle', u'right']","[0.8, 0.4, 0.2]","[u'low', u'high', u'medium']","red",50,"middle","high","True","False",328,8100,NA
"A39C210BKD7YNN","Tue Jan 28 2020 14:42:30 GMT-0500 (Eastern Standard Time)","Tue Jan 28 2020 14:49:26 GMT-0500 (Eastern Standard Time)","Mozilla/5.0 (Windows NT 10.0; Win64; x64) AppleWebKit/537.36 (KHTML, like Gecko) Chrome/79.0.3945.130 Safari/537.36",157,"[0.9, 0.5, 0.1]","[0.8, 0.4, 0.2]","[u'blue', u'red', u'black']","[u'left', u'middle', u'right']","[0.8, 0.4, 0.2]","[u'low', u'high', u'medium']","red",50,"middle","high","True","False",375,8200,NA
"A39C210BKD7YNN","Tue Jan 28 2020 14:42:30 GMT-0500 (Eastern Standard Time)","Tue Jan 28 2020 14:49:26 GMT-0500 (Eastern Standard Time)","Mozilla/5.0 (Windows NT 10.0; Win64; x64) AppleWebKit/537.36 (KHTML, like Gecko) Chrome/79.0.3945.130 Safari/537.36",158,"[0.9, 0.5, 0.1]","[0.8, 0.4, 0.2]","[u'blue', u'red', u'black']","[u'left', u'middle', u'right']","[0.8, 0.4, 0.2]","[u'low', u'high', u'medium']","red",50,"middle","high","True","False",448,8300,NA
"A39C210BKD7YNN","Tue Jan 28 2020 14:42:30 GMT-0500 (Eastern Standard Time)","Tue Jan 28 2020 14:49:26 GMT-0500 (Eastern Standard Time)","Mozilla/5.0 (Windows NT 10.0; Win64; x64) AppleWebKit/537.36 (KHTML, like Gecko) Chrome/79.0.3945.130 Safari/537.36",159,"[0.9, 0.5, 0.1]","[0.8, 0.4, 0.2]","[u'blue', u'red', u'black']","[u'left', u'middle', u'right']","[0.8, 0.4, 0.2]","[u'low', u'high', u'medium']","red",50,"middle","high","True","False",369,8400,NA
"A39C210BKD7YNN","Tue Jan 28 2020 14:42:30 GMT-0500 (Eastern Standard Time)","Tue Jan 28 2020 14:49:26 GMT-0500 (Eastern Standard Time)","Mozilla/5.0 (Windows NT 10.0; Win64; x64) AppleWebKit/537.36 (KHTML, like Gecko) Chrome/79.0.3945.130 Safari/537.36",160,"[0.9, 0.5, 0.1]","[0.8, 0.4, 0.2]","[u'blue', u'red', u'black']","[u'left', u'middle', u'right']","[0.8, 0.4, 0.2]","[u'low', u'high', u'medium']","red",50,"middle","high","True","False",370,8500,NA
