"src_subject_id","start_time","end_time","browser","index","first_half_probabilities","second_half_probabilities","deck_color","deck_position","deck_probabilities","deck_contingencies","response_color","key_press","response_position","response_probability","reward_type","trial_type","rt","reward_tally","exclusion_reason"
"A1B7GQTH9YG04X","Wed Jan 29 2020 07:17:52 GMT-0600 (Central Standard Time)","Wed Jan 29 2020 07:25:01 GMT-0600 (Central Standard Time)","Mozilla/5.0 (X11; CrOS aarch64 12607.82.0) AppleWebKit/537.36 (KHTML, like Gecko) Chrome/79.0.3945.123 Safari/537.36",1,"[0.9, 0.5, 0.1]","[0.8, 0.4, 0.2]","[u'blue', u'red', u'black']","[u'left', u'middle', u'right']","[0.9, 0.5, 0.1]","[u'high', u'low', u'medium']","blue",49,"left","high","True","False",764,100,NA
"A1B7GQTH9YG04X","Wed Jan 29 2020 07:17:52 GMT-0600 (Central Standard Time)","Wed Jan 29 2020 07:25:01 GMT-0600 (Central Standard Time)","Mozilla/5.0 (X11; CrOS aarch64 12607.82.0) AppleWebKit/537.36 (KHTML, like Gecko) Chrome/79.0.3945.123 Safari/537.36",2,"[0.9, 0.5, 0.1]","[0.8, 0.4, 0.2]","[u'blue', u'red', u'black']","[u'left', u'middle', u'right']","[0.9, 0.5, 0.1]","[u'high', u'low', u'medium']","black",51,"right","medium","True","False",762,200,NA
"A1B7GQTH9YG04X","Wed Jan 29 2020 07:17:52 GMT-0600 (Central Standard Time)","Wed Jan 29 2020 07:25:01 GMT-0600 (Central Standard Time)","Mozilla/5.0 (X11; CrOS aarch64 12607.82.0) AppleWebKit/537.36 (KHTML, like Gecko) Chrome/79.0.3945.123 Safari/537.36",3,"[0.9, 0.5, 0.1]","[0.8, 0.4, 0.2]","[u'blue', u'red', u'black']","[u'left', u'middle', u'right']","[0.9, 0.5, 0.1]","[u'high', u'low', u'medium']","red",50,"middle","low","False","False",1108,150,NA
"A1B7GQTH9YG04X","Wed Jan 29 2020 07:17:52 GMT-0600 (Central Standard Time)","Wed Jan 29 2020 07:25:01 GMT-0600 (Central Standard Time)","Mozilla/5.0 (X11; CrOS aarch64 12607.82.0) AppleWebKit/537.36 (KHTML, like Gecko) Chrome/79.0.3945.123 Safari/537.36",4,"[0.9, 0.5, 0.1]","[0.8, 0.4, 0.2]","[u'blue', u'red', u'black']","[u'left', u'middle', u'right']","[0.9, 0.5, 0.1]","[u'high', u'low', u'medium']","black",51,"right","medium","False","False",750,100,NA
"A1B7GQTH9YG04X","Wed Jan 29 2020 07:17:52 GMT-0600 (Central Standard Time)","Wed Jan 29 2020 07:25:01 GMT-0600 (Central Standard Time)","Mozilla/5.0 (X11; CrOS aarch64 12607.82.0) AppleWebKit/537.36 (KHTML, like Gecko) Chrome/79.0.3945.123 Safari/537.36",5,"[0.9, 0.5, 0.1]","[0.8, 0.4, 0.2]","[u'blue', u'red', u'black']","[u'left', u'middle', u'right']","[0.9, 0.5, 0.1]","[u'high', u'low', u'medium']","black",51,"right","medium","False","False",776,50,NA
"A1B7GQTH9YG04X","Wed Jan 29 2020 07:17:52 GMT-0600 (Central Standard Time)","Wed Jan 29 2020 07:25:01 GMT-0600 (Central Standard Time)","Mozilla/5.0 (X11; CrOS aarch64 12607.82.0) AppleWebKit/537.36 (KHTML, like Gecko) Chrome/79.0.3945.123 Safari/537.36",6,"[0.9, 0.5, 0.1]","[0.8, 0.4, 0.2]","[u'blue', u'red', u'black']","[u'left', u'middle', u'right']","[0.9, 0.5, 0.1]","[u'high', u'low', u'medium']","blue",49,"left","high","False","False",295,0,NA
"A1B7GQTH9YG04X","Wed Jan 29 2020 07:17:52 GMT-0600 (Central Standard Time)","Wed Jan 29 2020 07:25:01 GMT-0600 (Central Standard Time)","Mozilla/5.0 (X11; CrOS aarch64 12607.82.0) AppleWebKit/537.36 (KHTML, like Gecko) Chrome/79.0.3945.123 Safari/537.36",7,"[0.9, 0.5, 0.1]","[0.8, 0.4, 0.2]","[u'blue', u'red', u'black']","[u'left', u'middle', u'right']","[0.9, 0.5, 0.1]","[u'high', u'low', u'medium']","red",50,"middle","low","False","False",262,-50,NA
"A1B7GQTH9YG04X","Wed Jan 29 2020 07:17:52 GMT-0600 (Central Standard Time)","Wed Jan 29 2020 07:25:01 GMT-0600 (Central Standard Time)","Mozilla/5.0 (X11; CrOS aarch64 12607.82.0) AppleWebKit/537.36 (KHTML, like Gecko) Chrome/79.0.3945.123 Safari/537.36",8,"[0.9, 0.5, 0.1]","[0.8, 0.4, 0.2]","[u'blue', u'red', u'black']","[u'left', u'middle', u'right']","[0.9, 0.5, 0.1]","[u'high', u'low', u'medium']","blue",49,"left","high","True","False",284,50,NA
"A1B7GQTH9YG04X","Wed Jan 29 2020 07:17:52 GMT-0600 (Central Standard Time)","Wed Jan 29 2020 07:25:01 GMT-0600 (Central Standard Time)","Mozilla/5.0 (X11; CrOS aarch64 12607.82.0) AppleWebKit/537.36 (KHTML, like Gecko) Chrome/79.0.3945.123 Safari/537.36",9,"[0.9, 0.5, 0.1]","[0.8, 0.4, 0.2]","[u'blue', u'red', u'black']","[u'left', u'middle', u'right']","[0.9, 0.5, 0.1]","[u'high', u'low', u'medium']","black",51,"right","medium","True","False",305,150,NA
"A1B7GQTH9YG04X","Wed Jan 29 2020 07:17:52 GMT-0600 (Central Standard Time)","Wed Jan 29 2020 07:25:01 GMT-0600 (Central Standard Time)","Mozilla/5.0 (X11; CrOS aarch64 12607.82.0) AppleWebKit/537.36 (KHTML, like Gecko) Chrome/79.0.3945.123 Safari/537.36",10,"[0.9, 0.5, 0.1]","[0.8, 0.4, 0.2]","[u'blue', u'red', u'black']","[u'left', u'middle', u'right']","[0.9, 0.5, 0.1]","[u'high', u'low', u'medium']","blue",49,"left","high","True","False",505,250,NA
"A1B7GQTH9YG04X","Wed Jan 29 2020 07:17:52 GMT-0600 (Central Standard Time)","Wed Jan 29 2020 07:25:01 GMT-0600 (Central Standard Time)","Mozilla/5.0 (X11; CrOS aarch64 12607.82.0) AppleWebKit/537.36 (KHTML, like Gecko) Chrome/79.0.3945.123 Safari/537.36",11,"[0.9, 0.5, 0.1]","[0.8, 0.4, 0.2]","[u'blue', u'red', u'black']","[u'left', u'middle', u'right']","[0.9, 0.5, 0.1]","[u'high', u'low', u'medium']","black",51,"right","medium","False","False",337,200,NA
"A1B7GQTH9YG04X","Wed Jan 29 2020 07:17:52 GMT-0600 (Central Standard Time)","Wed Jan 29 2020 07:25:01 GMT-0600 (Central Standard Time)","Mozilla/5.0 (X11; CrOS aarch64 12607.82.0) AppleWebKit/537.36 (KHTML, like Gecko) Chrome/79.0.3945.123 Safari/537.36",12,"[0.9, 0.5, 0.1]","[0.8, 0.4, 0.2]","[u'blue', u'red', u'black']","[u'left', u'middle', u'right']","[0.9, 0.5, 0.1]","[u'high', u'low', u'medium']","black",51,"right","medium","False","False",264,150,NA
"A1B7GQTH9YG04X","Wed Jan 29 2020 07:17:52 GMT-0600 (Central Standard Time)","Wed Jan 29 2020 07:25:01 GMT-0600 (Central Standard Time)","Mozilla/5.0 (X11; CrOS aarch64 12607.82.0) AppleWebKit/537.36 (KHTML, like Gecko) Chrome/79.0.3945.123 Safari/537.36",13,"[0.9, 0.5, 0.1]","[0.8, 0.4, 0.2]","[u'blue', u'red', u'black']","[u'left', u'middle', u'right']","[0.9, 0.5, 0.1]","[u'high', u'low', u'medium']","blue",49,"left","high","True","False",274,250,NA
"A1B7GQTH9YG04X","Wed Jan 29 2020 07:17:52 GMT-0600 (Central Standard Time)","Wed Jan 29 2020 07:25:01 GMT-0600 (Central Standard Time)","Mozilla/5.0 (X11; CrOS aarch64 12607.82.0) AppleWebKit/537.36 (KHTML, like Gecko) Chrome/79.0.3945.123 Safari/537.36",14,"[0.9, 0.5, 0.1]","[0.8, 0.4, 0.2]","[u'blue', u'red', u'black']","[u'left', u'middle', u'right']","[0.9, 0.5, 0.1]","[u'high', u'low', u'medium']","blue",49,"left","high","True","False",352,350,NA
"A1B7GQTH9YG04X","Wed Jan 29 2020 07:17:52 GMT-0600 (Central Standard Time)","Wed Jan 29 2020 07:25:01 GMT-0600 (Central Standard Time)","Mozilla/5.0 (X11; CrOS aarch64 12607.82.0) AppleWebKit/537.36 (KHTML, like Gecko) Chrome/79.0.3945.123 Safari/537.36",15,"[0.9, 0.5, 0.1]","[0.8, 0.4, 0.2]","[u'blue', u'red', u'black']","[u'left', u'middle', u'right']","[0.9, 0.5, 0.1]","[u'high', u'low', u'medium']","blue",49,"left","high","True","False",369,450,NA
"A1B7GQTH9YG04X","Wed Jan 29 2020 07:17:52 GMT-0600 (Central Standard Time)","Wed Jan 29 2020 07:25:01 GMT-0600 (Central Standard Time)","Mozilla/5.0 (X11; CrOS aarch64 12607.82.0) AppleWebKit/537.36 (KHTML, like Gecko) Chrome/79.0.3945.123 Safari/537.36",16,"[0.9, 0.5, 0.1]","[0.8, 0.4, 0.2]","[u'blue', u'red', u'black']","[u'left', u'middle', u'right']","[0.9, 0.5, 0.1]","[u'high', u'low', u'medium']","blue",49,"left","high","True","False",391,550,NA
"A1B7GQTH9YG04X","Wed Jan 29 2020 07:17:52 GMT-0600 (Central Standard Time)","Wed Jan 29 2020 07:25:01 GMT-0600 (Central Standard Time)","Mozilla/5.0 (X11; CrOS aarch64 12607.82.0) AppleWebKit/537.36 (KHTML, like Gecko) Chrome/79.0.3945.123 Safari/537.36",17,"[0.9, 0.5, 0.1]","[0.8, 0.4, 0.2]","[u'blue', u'red', u'black']","[u'left', u'middle', u'right']","[0.9, 0.5, 0.1]","[u'high', u'low', u'medium']","blue",49,"left","high","True","False",510,650,NA
"A1B7GQTH9YG04X","Wed Jan 29 2020 07:17:52 GMT-0600 (Central Standard Time)","Wed Jan 29 2020 07:25:01 GMT-0600 (Central Standard Time)","Mozilla/5.0 (X11; CrOS aarch64 12607.82.0) AppleWebKit/537.36 (KHTML, like Gecko) Chrome/79.0.3945.123 Safari/537.36",18,"[0.9, 0.5, 0.1]","[0.8, 0.4, 0.2]","[u'blue', u'red', u'black']","[u'left', u'middle', u'right']","[0.9, 0.5, 0.1]","[u'high', u'low', u'medium']","blue",49,"left","high","True","False",227,750,NA
"A1B7GQTH9YG04X","Wed Jan 29 2020 07:17:52 GMT-0600 (Central Standard Time)","Wed Jan 29 2020 07:25:01 GMT-0600 (Central Standard Time)","Mozilla/5.0 (X11; CrOS aarch64 12607.82.0) AppleWebKit/537.36 (KHTML, like Gecko) Chrome/79.0.3945.123 Safari/537.36",19,"[0.9, 0.5, 0.1]","[0.8, 0.4, 0.2]","[u'blue', u'red', u'black']","[u'left', u'middle', u'right']","[0.9, 0.5, 0.1]","[u'high', u'low', u'medium']","blue",49,"left","high","True","False",270,850,NA
"A1B7GQTH9YG04X","Wed Jan 29 2020 07:17:52 GMT-0600 (Central Standard Time)","Wed Jan 29 2020 07:25:01 GMT-0600 (Central Standard Time)","Mozilla/5.0 (X11; CrOS aarch64 12607.82.0) AppleWebKit/537.36 (KHTML, like Gecko) Chrome/79.0.3945.123 Safari/537.36",20,"[0.9, 0.5, 0.1]","[0.8, 0.4, 0.2]","[u'blue', u'red', u'black']","[u'left', u'middle', u'right']","[0.9, 0.5, 0.1]","[u'high', u'low', u'medium']","blue",49,"left","high","True","False",190,950,NA
"A1B7GQTH9YG04X","Wed Jan 29 2020 07:17:52 GMT-0600 (Central Standard Time)","Wed Jan 29 2020 07:25:01 GMT-0600 (Central Standard Time)","Mozilla/5.0 (X11; CrOS aarch64 12607.82.0) AppleWebKit/537.36 (KHTML, like Gecko) Chrome/79.0.3945.123 Safari/537.36",21,"[0.9, 0.5, 0.1]","[0.8, 0.4, 0.2]","[u'blue', u'red', u'black']","[u'left', u'middle', u'right']","[0.9, 0.5, 0.1]","[u'high', u'low', u'medium']","blue",49,"left","high","True","True",170,1050,NA
"A1B7GQTH9YG04X","Wed Jan 29 2020 07:17:52 GMT-0600 (Central Standard Time)","Wed Jan 29 2020 07:25:01 GMT-0600 (Central Standard Time)","Mozilla/5.0 (X11; CrOS aarch64 12607.82.0) AppleWebKit/537.36 (KHTML, like Gecko) Chrome/79.0.3945.123 Safari/537.36",22,"[0.9, 0.5, 0.1]","[0.8, 0.4, 0.2]","[u'blue', u'red', u'black']","[u'left', u'middle', u'right']","[0.9, 0.5, 0.1]","[u'low', u'medium', u'high']","blue",49,"left","low","True","False",155,1150,NA
"A1B7GQTH9YG04X","Wed Jan 29 2020 07:17:52 GMT-0600 (Central Standard Time)","Wed Jan 29 2020 07:25:01 GMT-0600 (Central Standard Time)","Mozilla/5.0 (X11; CrOS aarch64 12607.82.0) AppleWebKit/537.36 (KHTML, like Gecko) Chrome/79.0.3945.123 Safari/537.36",23,"[0.9, 0.5, 0.1]","[0.8, 0.4, 0.2]","[u'blue', u'red', u'black']","[u'left', u'middle', u'right']","[0.9, 0.5, 0.1]","[u'low', u'medium', u'high']","blue",49,"left","low","False","False",209,1100,NA
"A1B7GQTH9YG04X","Wed Jan 29 2020 07:17:52 GMT-0600 (Central Standard Time)","Wed Jan 29 2020 07:25:01 GMT-0600 (Central Standard Time)","Mozilla/5.0 (X11; CrOS aarch64 12607.82.0) AppleWebKit/537.36 (KHTML, like Gecko) Chrome/79.0.3945.123 Safari/537.36",24,"[0.9, 0.5, 0.1]","[0.8, 0.4, 0.2]","[u'blue', u'red', u'black']","[u'left', u'middle', u'right']","[0.9, 0.5, 0.1]","[u'low', u'medium', u'high']","blue",49,"left","low","False","False",233,1050,NA
"A1B7GQTH9YG04X","Wed Jan 29 2020 07:17:52 GMT-0600 (Central Standard Time)","Wed Jan 29 2020 07:25:01 GMT-0600 (Central Standard Time)","Mozilla/5.0 (X11; CrOS aarch64 12607.82.0) AppleWebKit/537.36 (KHTML, like Gecko) Chrome/79.0.3945.123 Safari/537.36",25,"[0.9, 0.5, 0.1]","[0.8, 0.4, 0.2]","[u'blue', u'red', u'black']","[u'left', u'middle', u'right']","[0.9, 0.5, 0.1]","[u'low', u'medium', u'high']","blue",49,"left","low","False","False",282,1000,NA
"A1B7GQTH9YG04X","Wed Jan 29 2020 07:17:52 GMT-0600 (Central Standard Time)","Wed Jan 29 2020 07:25:01 GMT-0600 (Central Standard Time)","Mozilla/5.0 (X11; CrOS aarch64 12607.82.0) AppleWebKit/537.36 (KHTML, like Gecko) Chrome/79.0.3945.123 Safari/537.36",26,"[0.9, 0.5, 0.1]","[0.8, 0.4, 0.2]","[u'blue', u'red', u'black']","[u'left', u'middle', u'right']","[0.9, 0.5, 0.1]","[u'low', u'medium', u'high']","red",50,"middle","medium","False","False",224,950,NA
"A1B7GQTH9YG04X","Wed Jan 29 2020 07:17:52 GMT-0600 (Central Standard Time)","Wed Jan 29 2020 07:25:01 GMT-0600 (Central Standard Time)","Mozilla/5.0 (X11; CrOS aarch64 12607.82.0) AppleWebKit/537.36 (KHTML, like Gecko) Chrome/79.0.3945.123 Safari/537.36",27,"[0.9, 0.5, 0.1]","[0.8, 0.4, 0.2]","[u'blue', u'red', u'black']","[u'left', u'middle', u'right']","[0.9, 0.5, 0.1]","[u'low', u'medium', u'high']","black",51,"right","high","True","False",200,1050,NA
"A1B7GQTH9YG04X","Wed Jan 29 2020 07:17:52 GMT-0600 (Central Standard Time)","Wed Jan 29 2020 07:25:01 GMT-0600 (Central Standard Time)","Mozilla/5.0 (X11; CrOS aarch64 12607.82.0) AppleWebKit/537.36 (KHTML, like Gecko) Chrome/79.0.3945.123 Safari/537.36",28,"[0.9, 0.5, 0.1]","[0.8, 0.4, 0.2]","[u'blue', u'red', u'black']","[u'left', u'middle', u'right']","[0.9, 0.5, 0.1]","[u'low', u'medium', u'high']","blue",49,"left","low","False","False",172,1000,NA
"A1B7GQTH9YG04X","Wed Jan 29 2020 07:17:52 GMT-0600 (Central Standard Time)","Wed Jan 29 2020 07:25:01 GMT-0600 (Central Standard Time)","Mozilla/5.0 (X11; CrOS aarch64 12607.82.0) AppleWebKit/537.36 (KHTML, like Gecko) Chrome/79.0.3945.123 Safari/537.36",29,"[0.9, 0.5, 0.1]","[0.8, 0.4, 0.2]","[u'blue', u'red', u'black']","[u'left', u'middle', u'right']","[0.9, 0.5, 0.1]","[u'low', u'medium', u'high']","black",51,"right","high","True","False",188,1100,NA
"A1B7GQTH9YG04X","Wed Jan 29 2020 07:17:52 GMT-0600 (Central Standard Time)","Wed Jan 29 2020 07:25:01 GMT-0600 (Central Standard Time)","Mozilla/5.0 (X11; CrOS aarch64 12607.82.0) AppleWebKit/537.36 (KHTML, like Gecko) Chrome/79.0.3945.123 Safari/537.36",30,"[0.9, 0.5, 0.1]","[0.8, 0.4, 0.2]","[u'blue', u'red', u'black']","[u'left', u'middle', u'right']","[0.9, 0.5, 0.1]","[u'low', u'medium', u'high']","black",51,"right","high","True","False",119,1200,NA
"A1B7GQTH9YG04X","Wed Jan 29 2020 07:17:52 GMT-0600 (Central Standard Time)","Wed Jan 29 2020 07:25:01 GMT-0600 (Central Standard Time)","Mozilla/5.0 (X11; CrOS aarch64 12607.82.0) AppleWebKit/537.36 (KHTML, like Gecko) Chrome/79.0.3945.123 Safari/537.36",31,"[0.9, 0.5, 0.1]","[0.8, 0.4, 0.2]","[u'blue', u'red', u'black']","[u'left', u'middle', u'right']","[0.9, 0.5, 0.1]","[u'low', u'medium', u'high']","black",51,"right","high","True","False",146,1300,NA
"A1B7GQTH9YG04X","Wed Jan 29 2020 07:17:52 GMT-0600 (Central Standard Time)","Wed Jan 29 2020 07:25:01 GMT-0600 (Central Standard Time)","Mozilla/5.0 (X11; CrOS aarch64 12607.82.0) AppleWebKit/537.36 (KHTML, like Gecko) Chrome/79.0.3945.123 Safari/537.36",32,"[0.9, 0.5, 0.1]","[0.8, 0.4, 0.2]","[u'blue', u'red', u'black']","[u'left', u'middle', u'right']","[0.9, 0.5, 0.1]","[u'low', u'medium', u'high']","black",51,"right","high","True","False",184,1400,NA
"A1B7GQTH9YG04X","Wed Jan 29 2020 07:17:52 GMT-0600 (Central Standard Time)","Wed Jan 29 2020 07:25:01 GMT-0600 (Central Standard Time)","Mozilla/5.0 (X11; CrOS aarch64 12607.82.0) AppleWebKit/537.36 (KHTML, like Gecko) Chrome/79.0.3945.123 Safari/537.36",33,"[0.9, 0.5, 0.1]","[0.8, 0.4, 0.2]","[u'blue', u'red', u'black']","[u'left', u'middle', u'right']","[0.9, 0.5, 0.1]","[u'low', u'medium', u'high']","black",51,"right","high","True","False",136,1500,NA
"A1B7GQTH9YG04X","Wed Jan 29 2020 07:17:52 GMT-0600 (Central Standard Time)","Wed Jan 29 2020 07:25:01 GMT-0600 (Central Standard Time)","Mozilla/5.0 (X11; CrOS aarch64 12607.82.0) AppleWebKit/537.36 (KHTML, like Gecko) Chrome/79.0.3945.123 Safari/537.36",34,"[0.9, 0.5, 0.1]","[0.8, 0.4, 0.2]","[u'blue', u'red', u'black']","[u'left', u'middle', u'right']","[0.9, 0.5, 0.1]","[u'low', u'medium', u'high']","black",51,"right","high","True","False",149,1600,NA
"A1B7GQTH9YG04X","Wed Jan 29 2020 07:17:52 GMT-0600 (Central Standard Time)","Wed Jan 29 2020 07:25:01 GMT-0600 (Central Standard Time)","Mozilla/5.0 (X11; CrOS aarch64 12607.82.0) AppleWebKit/537.36 (KHTML, like Gecko) Chrome/79.0.3945.123 Safari/537.36",35,"[0.9, 0.5, 0.1]","[0.8, 0.4, 0.2]","[u'blue', u'red', u'black']","[u'left', u'middle', u'right']","[0.9, 0.5, 0.1]","[u'low', u'medium', u'high']","black",51,"right","high","True","False",310,1700,NA
"A1B7GQTH9YG04X","Wed Jan 29 2020 07:17:52 GMT-0600 (Central Standard Time)","Wed Jan 29 2020 07:25:01 GMT-0600 (Central Standard Time)","Mozilla/5.0 (X11; CrOS aarch64 12607.82.0) AppleWebKit/537.36 (KHTML, like Gecko) Chrome/79.0.3945.123 Safari/537.36",36,"[0.9, 0.5, 0.1]","[0.8, 0.4, 0.2]","[u'blue', u'red', u'black']","[u'left', u'middle', u'right']","[0.9, 0.5, 0.1]","[u'low', u'medium', u'high']","black",51,"right","high","True","True",273,1800,NA
"A1B7GQTH9YG04X","Wed Jan 29 2020 07:17:52 GMT-0600 (Central Standard Time)","Wed Jan 29 2020 07:25:01 GMT-0600 (Central Standard Time)","Mozilla/5.0 (X11; CrOS aarch64 12607.82.0) AppleWebKit/537.36 (KHTML, like Gecko) Chrome/79.0.3945.123 Safari/537.36",37,"[0.9, 0.5, 0.1]","[0.8, 0.4, 0.2]","[u'blue', u'red', u'black']","[u'left', u'middle', u'right']","[0.9, 0.5, 0.1]","[u'medium', u'high', u'low']","black",51,"right","low","False","False",307,1750,NA
"A1B7GQTH9YG04X","Wed Jan 29 2020 07:17:52 GMT-0600 (Central Standard Time)","Wed Jan 29 2020 07:25:01 GMT-0600 (Central Standard Time)","Mozilla/5.0 (X11; CrOS aarch64 12607.82.0) AppleWebKit/537.36 (KHTML, like Gecko) Chrome/79.0.3945.123 Safari/537.36",38,"[0.9, 0.5, 0.1]","[0.8, 0.4, 0.2]","[u'blue', u'red', u'black']","[u'left', u'middle', u'right']","[0.9, 0.5, 0.1]","[u'medium', u'high', u'low']","blue",49,"left","medium","False","False",321,1700,NA
"A1B7GQTH9YG04X","Wed Jan 29 2020 07:17:52 GMT-0600 (Central Standard Time)","Wed Jan 29 2020 07:25:01 GMT-0600 (Central Standard Time)","Mozilla/5.0 (X11; CrOS aarch64 12607.82.0) AppleWebKit/537.36 (KHTML, like Gecko) Chrome/79.0.3945.123 Safari/537.36",39,"[0.9, 0.5, 0.1]","[0.8, 0.4, 0.2]","[u'blue', u'red', u'black']","[u'left', u'middle', u'right']","[0.9, 0.5, 0.1]","[u'medium', u'high', u'low']","red",50,"middle","high","False","False",248,1650,NA
"A1B7GQTH9YG04X","Wed Jan 29 2020 07:17:52 GMT-0600 (Central Standard Time)","Wed Jan 29 2020 07:25:01 GMT-0600 (Central Standard Time)","Mozilla/5.0 (X11; CrOS aarch64 12607.82.0) AppleWebKit/537.36 (KHTML, like Gecko) Chrome/79.0.3945.123 Safari/537.36",40,"[0.9, 0.5, 0.1]","[0.8, 0.4, 0.2]","[u'blue', u'red', u'black']","[u'left', u'middle', u'right']","[0.9, 0.5, 0.1]","[u'medium', u'high', u'low']","black",51,"right","low","False","False",161,1600,NA
"A1B7GQTH9YG04X","Wed Jan 29 2020 07:17:52 GMT-0600 (Central Standard Time)","Wed Jan 29 2020 07:25:01 GMT-0600 (Central Standard Time)","Mozilla/5.0 (X11; CrOS aarch64 12607.82.0) AppleWebKit/537.36 (KHTML, like Gecko) Chrome/79.0.3945.123 Safari/537.36",41,"[0.9, 0.5, 0.1]","[0.8, 0.4, 0.2]","[u'blue', u'red', u'black']","[u'left', u'middle', u'right']","[0.9, 0.5, 0.1]","[u'high', u'medium', u'low']","blue",49,"left","high","True","False",698,1700,NA
"A1B7GQTH9YG04X","Wed Jan 29 2020 07:17:52 GMT-0600 (Central Standard Time)","Wed Jan 29 2020 07:25:01 GMT-0600 (Central Standard Time)","Mozilla/5.0 (X11; CrOS aarch64 12607.82.0) AppleWebKit/537.36 (KHTML, like Gecko) Chrome/79.0.3945.123 Safari/537.36",42,"[0.9, 0.5, 0.1]","[0.8, 0.4, 0.2]","[u'blue', u'red', u'black']","[u'left', u'middle', u'right']","[0.9, 0.5, 0.1]","[u'high', u'medium', u'low']","blue",49,"left","high","True","False",175,1800,NA
"A1B7GQTH9YG04X","Wed Jan 29 2020 07:17:52 GMT-0600 (Central Standard Time)","Wed Jan 29 2020 07:25:01 GMT-0600 (Central Standard Time)","Mozilla/5.0 (X11; CrOS aarch64 12607.82.0) AppleWebKit/537.36 (KHTML, like Gecko) Chrome/79.0.3945.123 Safari/537.36",43,"[0.9, 0.5, 0.1]","[0.8, 0.4, 0.2]","[u'blue', u'red', u'black']","[u'left', u'middle', u'right']","[0.9, 0.5, 0.1]","[u'high', u'medium', u'low']","blue",49,"left","high","True","False",182,1900,NA
"A1B7GQTH9YG04X","Wed Jan 29 2020 07:17:52 GMT-0600 (Central Standard Time)","Wed Jan 29 2020 07:25:01 GMT-0600 (Central Standard Time)","Mozilla/5.0 (X11; CrOS aarch64 12607.82.0) AppleWebKit/537.36 (KHTML, like Gecko) Chrome/79.0.3945.123 Safari/537.36",44,"[0.9, 0.5, 0.1]","[0.8, 0.4, 0.2]","[u'blue', u'red', u'black']","[u'left', u'middle', u'right']","[0.9, 0.5, 0.1]","[u'high', u'medium', u'low']","blue",49,"left","high","True","False",182,2000,NA
"A1B7GQTH9YG04X","Wed Jan 29 2020 07:17:52 GMT-0600 (Central Standard Time)","Wed Jan 29 2020 07:25:01 GMT-0600 (Central Standard Time)","Mozilla/5.0 (X11; CrOS aarch64 12607.82.0) AppleWebKit/537.36 (KHTML, like Gecko) Chrome/79.0.3945.123 Safari/537.36",45,"[0.9, 0.5, 0.1]","[0.8, 0.4, 0.2]","[u'blue', u'red', u'black']","[u'left', u'middle', u'right']","[0.9, 0.5, 0.1]","[u'high', u'medium', u'low']","blue",49,"left","high","True","False",135,2100,NA
"A1B7GQTH9YG04X","Wed Jan 29 2020 07:17:52 GMT-0600 (Central Standard Time)","Wed Jan 29 2020 07:25:01 GMT-0600 (Central Standard Time)","Mozilla/5.0 (X11; CrOS aarch64 12607.82.0) AppleWebKit/537.36 (KHTML, like Gecko) Chrome/79.0.3945.123 Safari/537.36",46,"[0.9, 0.5, 0.1]","[0.8, 0.4, 0.2]","[u'blue', u'red', u'black']","[u'left', u'middle', u'right']","[0.9, 0.5, 0.1]","[u'high', u'medium', u'low']","blue",49,"left","high","True","False",45,2200,NA
"A1B7GQTH9YG04X","Wed Jan 29 2020 07:17:52 GMT-0600 (Central Standard Time)","Wed Jan 29 2020 07:25:01 GMT-0600 (Central Standard Time)","Mozilla/5.0 (X11; CrOS aarch64 12607.82.0) AppleWebKit/537.36 (KHTML, like Gecko) Chrome/79.0.3945.123 Safari/537.36",47,"[0.9, 0.5, 0.1]","[0.8, 0.4, 0.2]","[u'blue', u'red', u'black']","[u'left', u'middle', u'right']","[0.9, 0.5, 0.1]","[u'high', u'medium', u'low']","blue",49,"left","high","False","False",95,2150,NA
"A1B7GQTH9YG04X","Wed Jan 29 2020 07:17:52 GMT-0600 (Central Standard Time)","Wed Jan 29 2020 07:25:01 GMT-0600 (Central Standard Time)","Mozilla/5.0 (X11; CrOS aarch64 12607.82.0) AppleWebKit/537.36 (KHTML, like Gecko) Chrome/79.0.3945.123 Safari/537.36",48,"[0.9, 0.5, 0.1]","[0.8, 0.4, 0.2]","[u'blue', u'red', u'black']","[u'left', u'middle', u'right']","[0.9, 0.5, 0.1]","[u'high', u'medium', u'low']","blue",49,"left","high","True","False",282,2250,NA
"A1B7GQTH9YG04X","Wed Jan 29 2020 07:17:52 GMT-0600 (Central Standard Time)","Wed Jan 29 2020 07:25:01 GMT-0600 (Central Standard Time)","Mozilla/5.0 (X11; CrOS aarch64 12607.82.0) AppleWebKit/537.36 (KHTML, like Gecko) Chrome/79.0.3945.123 Safari/537.36",49,"[0.9, 0.5, 0.1]","[0.8, 0.4, 0.2]","[u'blue', u'red', u'black']","[u'left', u'middle', u'right']","[0.9, 0.5, 0.1]","[u'high', u'medium', u'low']","blue",49,"left","high","True","True",166,2350,NA
"A1B7GQTH9YG04X","Wed Jan 29 2020 07:17:52 GMT-0600 (Central Standard Time)","Wed Jan 29 2020 07:25:01 GMT-0600 (Central Standard Time)","Mozilla/5.0 (X11; CrOS aarch64 12607.82.0) AppleWebKit/537.36 (KHTML, like Gecko) Chrome/79.0.3945.123 Safari/537.36",50,"[0.9, 0.5, 0.1]","[0.8, 0.4, 0.2]","[u'blue', u'red', u'black']","[u'left', u'middle', u'right']","[0.9, 0.5, 0.1]","[u'low', u'high', u'medium']","blue",49,"left","low","False","False",97,2300,NA
"A1B7GQTH9YG04X","Wed Jan 29 2020 07:17:52 GMT-0600 (Central Standard Time)","Wed Jan 29 2020 07:25:01 GMT-0600 (Central Standard Time)","Mozilla/5.0 (X11; CrOS aarch64 12607.82.0) AppleWebKit/537.36 (KHTML, like Gecko) Chrome/79.0.3945.123 Safari/537.36",51,"[0.9, 0.5, 0.1]","[0.8, 0.4, 0.2]","[u'blue', u'red', u'black']","[u'left', u'middle', u'right']","[0.9, 0.5, 0.1]","[u'low', u'high', u'medium']","blue",49,"left","low","False","False",288,2250,NA
"A1B7GQTH9YG04X","Wed Jan 29 2020 07:17:52 GMT-0600 (Central Standard Time)","Wed Jan 29 2020 07:25:01 GMT-0600 (Central Standard Time)","Mozilla/5.0 (X11; CrOS aarch64 12607.82.0) AppleWebKit/537.36 (KHTML, like Gecko) Chrome/79.0.3945.123 Safari/537.36",52,"[0.9, 0.5, 0.1]","[0.8, 0.4, 0.2]","[u'blue', u'red', u'black']","[u'left', u'middle', u'right']","[0.9, 0.5, 0.1]","[u'low', u'high', u'medium']","black",51,"right","medium","False","False",193,2200,NA
"A1B7GQTH9YG04X","Wed Jan 29 2020 07:17:52 GMT-0600 (Central Standard Time)","Wed Jan 29 2020 07:25:01 GMT-0600 (Central Standard Time)","Mozilla/5.0 (X11; CrOS aarch64 12607.82.0) AppleWebKit/537.36 (KHTML, like Gecko) Chrome/79.0.3945.123 Safari/537.36",53,"[0.9, 0.5, 0.1]","[0.8, 0.4, 0.2]","[u'blue', u'red', u'black']","[u'left', u'middle', u'right']","[0.9, 0.5, 0.1]","[u'low', u'high', u'medium']","red",50,"middle","high","False","False",165,2150,NA
"A1B7GQTH9YG04X","Wed Jan 29 2020 07:17:52 GMT-0600 (Central Standard Time)","Wed Jan 29 2020 07:25:01 GMT-0600 (Central Standard Time)","Mozilla/5.0 (X11; CrOS aarch64 12607.82.0) AppleWebKit/537.36 (KHTML, like Gecko) Chrome/79.0.3945.123 Safari/537.36",54,"[0.9, 0.5, 0.1]","[0.8, 0.4, 0.2]","[u'blue', u'red', u'black']","[u'left', u'middle', u'right']","[0.9, 0.5, 0.1]","[u'low', u'high', u'medium']","blue",49,"left","low","False","False",240,2100,NA
"A1B7GQTH9YG04X","Wed Jan 29 2020 07:17:52 GMT-0600 (Central Standard Time)","Wed Jan 29 2020 07:25:01 GMT-0600 (Central Standard Time)","Mozilla/5.0 (X11; CrOS aarch64 12607.82.0) AppleWebKit/537.36 (KHTML, like Gecko) Chrome/79.0.3945.123 Safari/537.36",55,"[0.9, 0.5, 0.1]","[0.8, 0.4, 0.2]","[u'blue', u'red', u'black']","[u'left', u'middle', u'right']","[0.9, 0.5, 0.1]","[u'low', u'high', u'medium']","black",51,"right","medium","False","False",124,2050,NA
"A1B7GQTH9YG04X","Wed Jan 29 2020 07:17:52 GMT-0600 (Central Standard Time)","Wed Jan 29 2020 07:25:01 GMT-0600 (Central Standard Time)","Mozilla/5.0 (X11; CrOS aarch64 12607.82.0) AppleWebKit/537.36 (KHTML, like Gecko) Chrome/79.0.3945.123 Safari/537.36",56,"[0.9, 0.5, 0.1]","[0.8, 0.4, 0.2]","[u'blue', u'red', u'black']","[u'left', u'middle', u'right']","[0.9, 0.5, 0.1]","[u'low', u'high', u'medium']","blue",49,"left","low","False","False",76,2000,NA
"A1B7GQTH9YG04X","Wed Jan 29 2020 07:17:52 GMT-0600 (Central Standard Time)","Wed Jan 29 2020 07:25:01 GMT-0600 (Central Standard Time)","Mozilla/5.0 (X11; CrOS aarch64 12607.82.0) AppleWebKit/537.36 (KHTML, like Gecko) Chrome/79.0.3945.123 Safari/537.36",57,"[0.9, 0.5, 0.1]","[0.8, 0.4, 0.2]","[u'blue', u'red', u'black']","[u'left', u'middle', u'right']","[0.9, 0.5, 0.1]","[u'low', u'high', u'medium']","red",50,"middle","high","True","False",183,2100,NA
"A1B7GQTH9YG04X","Wed Jan 29 2020 07:17:52 GMT-0600 (Central Standard Time)","Wed Jan 29 2020 07:25:01 GMT-0600 (Central Standard Time)","Mozilla/5.0 (X11; CrOS aarch64 12607.82.0) AppleWebKit/537.36 (KHTML, like Gecko) Chrome/79.0.3945.123 Safari/537.36",58,"[0.9, 0.5, 0.1]","[0.8, 0.4, 0.2]","[u'blue', u'red', u'black']","[u'left', u'middle', u'right']","[0.9, 0.5, 0.1]","[u'low', u'high', u'medium']","red",50,"middle","high","True","False",139,2200,NA
"A1B7GQTH9YG04X","Wed Jan 29 2020 07:17:52 GMT-0600 (Central Standard Time)","Wed Jan 29 2020 07:25:01 GMT-0600 (Central Standard Time)","Mozilla/5.0 (X11; CrOS aarch64 12607.82.0) AppleWebKit/537.36 (KHTML, like Gecko) Chrome/79.0.3945.123 Safari/537.36",59,"[0.9, 0.5, 0.1]","[0.8, 0.4, 0.2]","[u'blue', u'red', u'black']","[u'left', u'middle', u'right']","[0.9, 0.5, 0.1]","[u'low', u'high', u'medium']","red",50,"middle","high","True","False",201,2300,NA
"A1B7GQTH9YG04X","Wed Jan 29 2020 07:17:52 GMT-0600 (Central Standard Time)","Wed Jan 29 2020 07:25:01 GMT-0600 (Central Standard Time)","Mozilla/5.0 (X11; CrOS aarch64 12607.82.0) AppleWebKit/537.36 (KHTML, like Gecko) Chrome/79.0.3945.123 Safari/537.36",60,"[0.9, 0.5, 0.1]","[0.8, 0.4, 0.2]","[u'blue', u'red', u'black']","[u'left', u'middle', u'right']","[0.9, 0.5, 0.1]","[u'low', u'high', u'medium']","red",50,"middle","high","True","False",200,2400,NA
"A1B7GQTH9YG04X","Wed Jan 29 2020 07:17:52 GMT-0600 (Central Standard Time)","Wed Jan 29 2020 07:25:01 GMT-0600 (Central Standard Time)","Mozilla/5.0 (X11; CrOS aarch64 12607.82.0) AppleWebKit/537.36 (KHTML, like Gecko) Chrome/79.0.3945.123 Safari/537.36",61,"[0.9, 0.5, 0.1]","[0.8, 0.4, 0.2]","[u'blue', u'red', u'black']","[u'left', u'middle', u'right']","[0.9, 0.5, 0.1]","[u'low', u'high', u'medium']","red",50,"middle","high","True","False",144,2500,NA
"A1B7GQTH9YG04X","Wed Jan 29 2020 07:17:52 GMT-0600 (Central Standard Time)","Wed Jan 29 2020 07:25:01 GMT-0600 (Central Standard Time)","Mozilla/5.0 (X11; CrOS aarch64 12607.82.0) AppleWebKit/537.36 (KHTML, like Gecko) Chrome/79.0.3945.123 Safari/537.36",62,"[0.9, 0.5, 0.1]","[0.8, 0.4, 0.2]","[u'blue', u'red', u'black']","[u'left', u'middle', u'right']","[0.9, 0.5, 0.1]","[u'low', u'high', u'medium']","red",50,"middle","high","False","False",164,2450,NA
"A1B7GQTH9YG04X","Wed Jan 29 2020 07:17:52 GMT-0600 (Central Standard Time)","Wed Jan 29 2020 07:25:01 GMT-0600 (Central Standard Time)","Mozilla/5.0 (X11; CrOS aarch64 12607.82.0) AppleWebKit/537.36 (KHTML, like Gecko) Chrome/79.0.3945.123 Safari/537.36",63,"[0.9, 0.5, 0.1]","[0.8, 0.4, 0.2]","[u'blue', u'red', u'black']","[u'left', u'middle', u'right']","[0.9, 0.5, 0.1]","[u'low', u'high', u'medium']","red",50,"middle","high","True","False",166,2550,NA
"A1B7GQTH9YG04X","Wed Jan 29 2020 07:17:52 GMT-0600 (Central Standard Time)","Wed Jan 29 2020 07:25:01 GMT-0600 (Central Standard Time)","Mozilla/5.0 (X11; CrOS aarch64 12607.82.0) AppleWebKit/537.36 (KHTML, like Gecko) Chrome/79.0.3945.123 Safari/537.36",64,"[0.9, 0.5, 0.1]","[0.8, 0.4, 0.2]","[u'blue', u'red', u'black']","[u'left', u'middle', u'right']","[0.9, 0.5, 0.1]","[u'low', u'high', u'medium']","red",50,"middle","high","True","False",190,2650,NA
"A1B7GQTH9YG04X","Wed Jan 29 2020 07:17:52 GMT-0600 (Central Standard Time)","Wed Jan 29 2020 07:25:01 GMT-0600 (Central Standard Time)","Mozilla/5.0 (X11; CrOS aarch64 12607.82.0) AppleWebKit/537.36 (KHTML, like Gecko) Chrome/79.0.3945.123 Safari/537.36",65,"[0.9, 0.5, 0.1]","[0.8, 0.4, 0.2]","[u'blue', u'red', u'black']","[u'left', u'middle', u'right']","[0.9, 0.5, 0.1]","[u'low', u'high', u'medium']","red",50,"middle","high","True","True",96,2750,NA
"A1B7GQTH9YG04X","Wed Jan 29 2020 07:17:52 GMT-0600 (Central Standard Time)","Wed Jan 29 2020 07:25:01 GMT-0600 (Central Standard Time)","Mozilla/5.0 (X11; CrOS aarch64 12607.82.0) AppleWebKit/537.36 (KHTML, like Gecko) Chrome/79.0.3945.123 Safari/537.36",66,"[0.9, 0.5, 0.1]","[0.8, 0.4, 0.2]","[u'blue', u'red', u'black']","[u'left', u'middle', u'right']","[0.9, 0.5, 0.1]","[u'high', u'low', u'medium']","red",50,"middle","low","False","False",202,2700,NA
"A1B7GQTH9YG04X","Wed Jan 29 2020 07:17:52 GMT-0600 (Central Standard Time)","Wed Jan 29 2020 07:25:01 GMT-0600 (Central Standard Time)","Mozilla/5.0 (X11; CrOS aarch64 12607.82.0) AppleWebKit/537.36 (KHTML, like Gecko) Chrome/79.0.3945.123 Safari/537.36",67,"[0.9, 0.5, 0.1]","[0.8, 0.4, 0.2]","[u'blue', u'red', u'black']","[u'left', u'middle', u'right']","[0.9, 0.5, 0.1]","[u'high', u'low', u'medium']","blue",49,"left","high","False","False",98,2650,NA
"A1B7GQTH9YG04X","Wed Jan 29 2020 07:17:52 GMT-0600 (Central Standard Time)","Wed Jan 29 2020 07:25:01 GMT-0600 (Central Standard Time)","Mozilla/5.0 (X11; CrOS aarch64 12607.82.0) AppleWebKit/537.36 (KHTML, like Gecko) Chrome/79.0.3945.123 Safari/537.36",68,"[0.9, 0.5, 0.1]","[0.8, 0.4, 0.2]","[u'blue', u'red', u'black']","[u'left', u'middle', u'right']","[0.9, 0.5, 0.1]","[u'high', u'low', u'medium']","black",51,"right","medium","False","False",174,2600,NA
"A1B7GQTH9YG04X","Wed Jan 29 2020 07:17:52 GMT-0600 (Central Standard Time)","Wed Jan 29 2020 07:25:01 GMT-0600 (Central Standard Time)","Mozilla/5.0 (X11; CrOS aarch64 12607.82.0) AppleWebKit/537.36 (KHTML, like Gecko) Chrome/79.0.3945.123 Safari/537.36",69,"[0.9, 0.5, 0.1]","[0.8, 0.4, 0.2]","[u'blue', u'red', u'black']","[u'left', u'middle', u'right']","[0.9, 0.5, 0.1]","[u'high', u'low', u'medium']","blue",49,"left","high","True","False",148,2700,NA
"A1B7GQTH9YG04X","Wed Jan 29 2020 07:17:52 GMT-0600 (Central Standard Time)","Wed Jan 29 2020 07:25:01 GMT-0600 (Central Standard Time)","Mozilla/5.0 (X11; CrOS aarch64 12607.82.0) AppleWebKit/537.36 (KHTML, like Gecko) Chrome/79.0.3945.123 Safari/537.36",70,"[0.9, 0.5, 0.1]","[0.8, 0.4, 0.2]","[u'blue', u'red', u'black']","[u'left', u'middle', u'right']","[0.9, 0.5, 0.1]","[u'high', u'low', u'medium']","blue",49,"left","high","True","False",141,2800,NA
"A1B7GQTH9YG04X","Wed Jan 29 2020 07:17:52 GMT-0600 (Central Standard Time)","Wed Jan 29 2020 07:25:01 GMT-0600 (Central Standard Time)","Mozilla/5.0 (X11; CrOS aarch64 12607.82.0) AppleWebKit/537.36 (KHTML, like Gecko) Chrome/79.0.3945.123 Safari/537.36",71,"[0.9, 0.5, 0.1]","[0.8, 0.4, 0.2]","[u'blue', u'red', u'black']","[u'left', u'middle', u'right']","[0.9, 0.5, 0.1]","[u'high', u'low', u'medium']","blue",49,"left","high","True","False",197,2900,NA
"A1B7GQTH9YG04X","Wed Jan 29 2020 07:17:52 GMT-0600 (Central Standard Time)","Wed Jan 29 2020 07:25:01 GMT-0600 (Central Standard Time)","Mozilla/5.0 (X11; CrOS aarch64 12607.82.0) AppleWebKit/537.36 (KHTML, like Gecko) Chrome/79.0.3945.123 Safari/537.36",72,"[0.9, 0.5, 0.1]","[0.8, 0.4, 0.2]","[u'blue', u'red', u'black']","[u'left', u'middle', u'right']","[0.9, 0.5, 0.1]","[u'high', u'low', u'medium']","blue",49,"left","high","True","False",107,3000,NA
"A1B7GQTH9YG04X","Wed Jan 29 2020 07:17:52 GMT-0600 (Central Standard Time)","Wed Jan 29 2020 07:25:01 GMT-0600 (Central Standard Time)","Mozilla/5.0 (X11; CrOS aarch64 12607.82.0) AppleWebKit/537.36 (KHTML, like Gecko) Chrome/79.0.3945.123 Safari/537.36",73,"[0.9, 0.5, 0.1]","[0.8, 0.4, 0.2]","[u'blue', u'red', u'black']","[u'left', u'middle', u'right']","[0.9, 0.5, 0.1]","[u'high', u'low', u'medium']","blue",49,"left","high","True","False",103,3100,NA
"A1B7GQTH9YG04X","Wed Jan 29 2020 07:17:52 GMT-0600 (Central Standard Time)","Wed Jan 29 2020 07:25:01 GMT-0600 (Central Standard Time)","Mozilla/5.0 (X11; CrOS aarch64 12607.82.0) AppleWebKit/537.36 (KHTML, like Gecko) Chrome/79.0.3945.123 Safari/537.36",74,"[0.9, 0.5, 0.1]","[0.8, 0.4, 0.2]","[u'blue', u'red', u'black']","[u'left', u'middle', u'right']","[0.9, 0.5, 0.1]","[u'high', u'low', u'medium']","blue",49,"left","high","True","False",139,3200,NA
"A1B7GQTH9YG04X","Wed Jan 29 2020 07:17:52 GMT-0600 (Central Standard Time)","Wed Jan 29 2020 07:25:01 GMT-0600 (Central Standard Time)","Mozilla/5.0 (X11; CrOS aarch64 12607.82.0) AppleWebKit/537.36 (KHTML, like Gecko) Chrome/79.0.3945.123 Safari/537.36",75,"[0.9, 0.5, 0.1]","[0.8, 0.4, 0.2]","[u'blue', u'red', u'black']","[u'left', u'middle', u'right']","[0.9, 0.5, 0.1]","[u'high', u'low', u'medium']","blue",49,"left","high","True","False",203,3300,NA
"A1B7GQTH9YG04X","Wed Jan 29 2020 07:17:52 GMT-0600 (Central Standard Time)","Wed Jan 29 2020 07:25:01 GMT-0600 (Central Standard Time)","Mozilla/5.0 (X11; CrOS aarch64 12607.82.0) AppleWebKit/537.36 (KHTML, like Gecko) Chrome/79.0.3945.123 Safari/537.36",76,"[0.9, 0.5, 0.1]","[0.8, 0.4, 0.2]","[u'blue', u'red', u'black']","[u'left', u'middle', u'right']","[0.9, 0.5, 0.1]","[u'high', u'low', u'medium']","blue",49,"left","high","True","True",156,3400,NA
"A1B7GQTH9YG04X","Wed Jan 29 2020 07:17:52 GMT-0600 (Central Standard Time)","Wed Jan 29 2020 07:25:01 GMT-0600 (Central Standard Time)","Mozilla/5.0 (X11; CrOS aarch64 12607.82.0) AppleWebKit/537.36 (KHTML, like Gecko) Chrome/79.0.3945.123 Safari/537.36",77,"[0.9, 0.5, 0.1]","[0.8, 0.4, 0.2]","[u'blue', u'red', u'black']","[u'left', u'middle', u'right']","[0.9, 0.5, 0.1]","[u'medium', u'high', u'low']","blue",49,"left","medium","False","False",227,3350,NA
"A1B7GQTH9YG04X","Wed Jan 29 2020 07:17:52 GMT-0600 (Central Standard Time)","Wed Jan 29 2020 07:25:01 GMT-0600 (Central Standard Time)","Mozilla/5.0 (X11; CrOS aarch64 12607.82.0) AppleWebKit/537.36 (KHTML, like Gecko) Chrome/79.0.3945.123 Safari/537.36",78,"[0.9, 0.5, 0.1]","[0.8, 0.4, 0.2]","[u'blue', u'red', u'black']","[u'left', u'middle', u'right']","[0.9, 0.5, 0.1]","[u'medium', u'high', u'low']","black",51,"right","low","False","False",170,3300,NA
"A1B7GQTH9YG04X","Wed Jan 29 2020 07:17:52 GMT-0600 (Central Standard Time)","Wed Jan 29 2020 07:25:01 GMT-0600 (Central Standard Time)","Mozilla/5.0 (X11; CrOS aarch64 12607.82.0) AppleWebKit/537.36 (KHTML, like Gecko) Chrome/79.0.3945.123 Safari/537.36",79,"[0.9, 0.5, 0.1]","[0.8, 0.4, 0.2]","[u'blue', u'red', u'black']","[u'left', u'middle', u'right']","[0.9, 0.5, 0.1]","[u'medium', u'high', u'low']","black",51,"right","low","False","False",195,3250,NA
"A1B7GQTH9YG04X","Wed Jan 29 2020 07:17:52 GMT-0600 (Central Standard Time)","Wed Jan 29 2020 07:25:01 GMT-0600 (Central Standard Time)","Mozilla/5.0 (X11; CrOS aarch64 12607.82.0) AppleWebKit/537.36 (KHTML, like Gecko) Chrome/79.0.3945.123 Safari/537.36",80,"[0.9, 0.5, 0.1]","[0.8, 0.4, 0.2]","[u'blue', u'red', u'black']","[u'left', u'middle', u'right']","[0.9, 0.5, 0.1]","[u'medium', u'high', u'low']","red",50,"middle","high","False","False",210,3200,NA
"A1B7GQTH9YG04X","Wed Jan 29 2020 07:17:52 GMT-0600 (Central Standard Time)","Wed Jan 29 2020 07:25:01 GMT-0600 (Central Standard Time)","Mozilla/5.0 (X11; CrOS aarch64 12607.82.0) AppleWebKit/537.36 (KHTML, like Gecko) Chrome/79.0.3945.123 Safari/537.36",81,"[0.9, 0.5, 0.1]","[0.8, 0.4, 0.2]","[u'blue', u'red', u'black']","[u'left', u'middle', u'right']","[0.8, 0.4, 0.2]","[u'medium', u'low', u'high']","blue",49,"left","medium","True","False",262,3300,NA
"A1B7GQTH9YG04X","Wed Jan 29 2020 07:17:52 GMT-0600 (Central Standard Time)","Wed Jan 29 2020 07:25:01 GMT-0600 (Central Standard Time)","Mozilla/5.0 (X11; CrOS aarch64 12607.82.0) AppleWebKit/537.36 (KHTML, like Gecko) Chrome/79.0.3945.123 Safari/537.36",82,"[0.9, 0.5, 0.1]","[0.8, 0.4, 0.2]","[u'blue', u'red', u'black']","[u'left', u'middle', u'right']","[0.8, 0.4, 0.2]","[u'medium', u'low', u'high']","blue",49,"left","medium","True","False",92,3400,NA
"A1B7GQTH9YG04X","Wed Jan 29 2020 07:17:52 GMT-0600 (Central Standard Time)","Wed Jan 29 2020 07:25:01 GMT-0600 (Central Standard Time)","Mozilla/5.0 (X11; CrOS aarch64 12607.82.0) AppleWebKit/537.36 (KHTML, like Gecko) Chrome/79.0.3945.123 Safari/537.36",83,"[0.9, 0.5, 0.1]","[0.8, 0.4, 0.2]","[u'blue', u'red', u'black']","[u'left', u'middle', u'right']","[0.8, 0.4, 0.2]","[u'medium', u'low', u'high']","blue",49,"left","medium","False","False",31,3350,NA
"A1B7GQTH9YG04X","Wed Jan 29 2020 07:17:52 GMT-0600 (Central Standard Time)","Wed Jan 29 2020 07:25:01 GMT-0600 (Central Standard Time)","Mozilla/5.0 (X11; CrOS aarch64 12607.82.0) AppleWebKit/537.36 (KHTML, like Gecko) Chrome/79.0.3945.123 Safari/537.36",84,"[0.9, 0.5, 0.1]","[0.8, 0.4, 0.2]","[u'blue', u'red', u'black']","[u'left', u'middle', u'right']","[0.8, 0.4, 0.2]","[u'medium', u'low', u'high']","blue",49,"left","medium","True","False",151,3450,NA
"A1B7GQTH9YG04X","Wed Jan 29 2020 07:17:52 GMT-0600 (Central Standard Time)","Wed Jan 29 2020 07:25:01 GMT-0600 (Central Standard Time)","Mozilla/5.0 (X11; CrOS aarch64 12607.82.0) AppleWebKit/537.36 (KHTML, like Gecko) Chrome/79.0.3945.123 Safari/537.36",85,"[0.9, 0.5, 0.1]","[0.8, 0.4, 0.2]","[u'blue', u'red', u'black']","[u'left', u'middle', u'right']","[0.8, 0.4, 0.2]","[u'medium', u'low', u'high']","blue",49,"left","medium","False","False",62,3400,NA
"A1B7GQTH9YG04X","Wed Jan 29 2020 07:17:52 GMT-0600 (Central Standard Time)","Wed Jan 29 2020 07:25:01 GMT-0600 (Central Standard Time)","Mozilla/5.0 (X11; CrOS aarch64 12607.82.0) AppleWebKit/537.36 (KHTML, like Gecko) Chrome/79.0.3945.123 Safari/537.36",86,"[0.9, 0.5, 0.1]","[0.8, 0.4, 0.2]","[u'blue', u'red', u'black']","[u'left', u'middle', u'right']","[0.8, 0.4, 0.2]","[u'medium', u'low', u'high']","blue",49,"left","medium","False","False",238,3350,NA
"A1B7GQTH9YG04X","Wed Jan 29 2020 07:17:52 GMT-0600 (Central Standard Time)","Wed Jan 29 2020 07:25:01 GMT-0600 (Central Standard Time)","Mozilla/5.0 (X11; CrOS aarch64 12607.82.0) AppleWebKit/537.36 (KHTML, like Gecko) Chrome/79.0.3945.123 Safari/537.36",87,"[0.9, 0.5, 0.1]","[0.8, 0.4, 0.2]","[u'blue', u'red', u'black']","[u'left', u'middle', u'right']","[0.8, 0.4, 0.2]","[u'medium', u'low', u'high']","red",50,"middle","low","True","False",195,3450,NA
"A1B7GQTH9YG04X","Wed Jan 29 2020 07:17:52 GMT-0600 (Central Standard Time)","Wed Jan 29 2020 07:25:01 GMT-0600 (Central Standard Time)","Mozilla/5.0 (X11; CrOS aarch64 12607.82.0) AppleWebKit/537.36 (KHTML, like Gecko) Chrome/79.0.3945.123 Safari/537.36",88,"[0.9, 0.5, 0.1]","[0.8, 0.4, 0.2]","[u'blue', u'red', u'black']","[u'left', u'middle', u'right']","[0.8, 0.4, 0.2]","[u'medium', u'low', u'high']","red",50,"middle","low","False","False",75,3400,NA
"A1B7GQTH9YG04X","Wed Jan 29 2020 07:17:52 GMT-0600 (Central Standard Time)","Wed Jan 29 2020 07:25:01 GMT-0600 (Central Standard Time)","Mozilla/5.0 (X11; CrOS aarch64 12607.82.0) AppleWebKit/537.36 (KHTML, like Gecko) Chrome/79.0.3945.123 Safari/537.36",89,"[0.9, 0.5, 0.1]","[0.8, 0.4, 0.2]","[u'blue', u'red', u'black']","[u'left', u'middle', u'right']","[0.8, 0.4, 0.2]","[u'medium', u'low', u'high']","red",50,"middle","low","False","False",3068,3350,NA
"A1B7GQTH9YG04X","Wed Jan 29 2020 07:17:52 GMT-0600 (Central Standard Time)","Wed Jan 29 2020 07:25:01 GMT-0600 (Central Standard Time)","Mozilla/5.0 (X11; CrOS aarch64 12607.82.0) AppleWebKit/537.36 (KHTML, like Gecko) Chrome/79.0.3945.123 Safari/537.36",90,"[0.9, 0.5, 0.1]","[0.8, 0.4, 0.2]","[u'blue', u'red', u'black']","[u'left', u'middle', u'right']","[0.8, 0.4, 0.2]","[u'medium', u'low', u'high']","black",51,"right","high","True","False",363,3450,NA
"A1B7GQTH9YG04X","Wed Jan 29 2020 07:17:52 GMT-0600 (Central Standard Time)","Wed Jan 29 2020 07:25:01 GMT-0600 (Central Standard Time)","Mozilla/5.0 (X11; CrOS aarch64 12607.82.0) AppleWebKit/537.36 (KHTML, like Gecko) Chrome/79.0.3945.123 Safari/537.36",91,"[0.9, 0.5, 0.1]","[0.8, 0.4, 0.2]","[u'blue', u'red', u'black']","[u'left', u'middle', u'right']","[0.8, 0.4, 0.2]","[u'medium', u'low', u'high']","black",51,"right","high","True","False",163,3550,NA
"A1B7GQTH9YG04X","Wed Jan 29 2020 07:17:52 GMT-0600 (Central Standard Time)","Wed Jan 29 2020 07:25:01 GMT-0600 (Central Standard Time)","Mozilla/5.0 (X11; CrOS aarch64 12607.82.0) AppleWebKit/537.36 (KHTML, like Gecko) Chrome/79.0.3945.123 Safari/537.36",92,"[0.9, 0.5, 0.1]","[0.8, 0.4, 0.2]","[u'blue', u'red', u'black']","[u'left', u'middle', u'right']","[0.8, 0.4, 0.2]","[u'medium', u'low', u'high']","black",51,"right","high","False","False",188,3500,NA
"A1B7GQTH9YG04X","Wed Jan 29 2020 07:17:52 GMT-0600 (Central Standard Time)","Wed Jan 29 2020 07:25:01 GMT-0600 (Central Standard Time)","Mozilla/5.0 (X11; CrOS aarch64 12607.82.0) AppleWebKit/537.36 (KHTML, like Gecko) Chrome/79.0.3945.123 Safari/537.36",93,"[0.9, 0.5, 0.1]","[0.8, 0.4, 0.2]","[u'blue', u'red', u'black']","[u'left', u'middle', u'right']","[0.8, 0.4, 0.2]","[u'medium', u'low', u'high']","blue",49,"left","medium","False","False",148,3450,NA
"A1B7GQTH9YG04X","Wed Jan 29 2020 07:17:52 GMT-0600 (Central Standard Time)","Wed Jan 29 2020 07:25:01 GMT-0600 (Central Standard Time)","Mozilla/5.0 (X11; CrOS aarch64 12607.82.0) AppleWebKit/537.36 (KHTML, like Gecko) Chrome/79.0.3945.123 Safari/537.36",94,"[0.9, 0.5, 0.1]","[0.8, 0.4, 0.2]","[u'blue', u'red', u'black']","[u'left', u'middle', u'right']","[0.8, 0.4, 0.2]","[u'medium', u'low', u'high']","blue",49,"left","medium","False","False",180,3400,NA
"A1B7GQTH9YG04X","Wed Jan 29 2020 07:17:52 GMT-0600 (Central Standard Time)","Wed Jan 29 2020 07:25:01 GMT-0600 (Central Standard Time)","Mozilla/5.0 (X11; CrOS aarch64 12607.82.0) AppleWebKit/537.36 (KHTML, like Gecko) Chrome/79.0.3945.123 Safari/537.36",95,"[0.9, 0.5, 0.1]","[0.8, 0.4, 0.2]","[u'blue', u'red', u'black']","[u'left', u'middle', u'right']","[0.8, 0.4, 0.2]","[u'medium', u'low', u'high']","black",51,"right","high","True","False",156,3500,NA
"A1B7GQTH9YG04X","Wed Jan 29 2020 07:17:52 GMT-0600 (Central Standard Time)","Wed Jan 29 2020 07:25:01 GMT-0600 (Central Standard Time)","Mozilla/5.0 (X11; CrOS aarch64 12607.82.0) AppleWebKit/537.36 (KHTML, like Gecko) Chrome/79.0.3945.123 Safari/537.36",96,"[0.9, 0.5, 0.1]","[0.8, 0.4, 0.2]","[u'blue', u'red', u'black']","[u'left', u'middle', u'right']","[0.8, 0.4, 0.2]","[u'medium', u'low', u'high']","black",51,"right","high","False","False",153,3450,NA
"A1B7GQTH9YG04X","Wed Jan 29 2020 07:17:52 GMT-0600 (Central Standard Time)","Wed Jan 29 2020 07:25:01 GMT-0600 (Central Standard Time)","Mozilla/5.0 (X11; CrOS aarch64 12607.82.0) AppleWebKit/537.36 (KHTML, like Gecko) Chrome/79.0.3945.123 Safari/537.36",97,"[0.9, 0.5, 0.1]","[0.8, 0.4, 0.2]","[u'blue', u'red', u'black']","[u'left', u'middle', u'right']","[0.8, 0.4, 0.2]","[u'medium', u'low', u'high']","red",50,"middle","low","False","False",273,3400,NA
"A1B7GQTH9YG04X","Wed Jan 29 2020 07:17:52 GMT-0600 (Central Standard Time)","Wed Jan 29 2020 07:25:01 GMT-0600 (Central Standard Time)","Mozilla/5.0 (X11; CrOS aarch64 12607.82.0) AppleWebKit/537.36 (KHTML, like Gecko) Chrome/79.0.3945.123 Safari/537.36",98,"[0.9, 0.5, 0.1]","[0.8, 0.4, 0.2]","[u'blue', u'red', u'black']","[u'left', u'middle', u'right']","[0.8, 0.4, 0.2]","[u'medium', u'low', u'high']","blue",49,"left","medium","True","False",203,3500,NA
"A1B7GQTH9YG04X","Wed Jan 29 2020 07:17:52 GMT-0600 (Central Standard Time)","Wed Jan 29 2020 07:25:01 GMT-0600 (Central Standard Time)","Mozilla/5.0 (X11; CrOS aarch64 12607.82.0) AppleWebKit/537.36 (KHTML, like Gecko) Chrome/79.0.3945.123 Safari/537.36",99,"[0.9, 0.5, 0.1]","[0.8, 0.4, 0.2]","[u'blue', u'red', u'black']","[u'left', u'middle', u'right']","[0.8, 0.4, 0.2]","[u'medium', u'low', u'high']","blue",49,"left","medium","True","False",419,3600,NA
"A1B7GQTH9YG04X","Wed Jan 29 2020 07:17:52 GMT-0600 (Central Standard Time)","Wed Jan 29 2020 07:25:01 GMT-0600 (Central Standard Time)","Mozilla/5.0 (X11; CrOS aarch64 12607.82.0) AppleWebKit/537.36 (KHTML, like Gecko) Chrome/79.0.3945.123 Safari/537.36",100,"[0.9, 0.5, 0.1]","[0.8, 0.4, 0.2]","[u'blue', u'red', u'black']","[u'left', u'middle', u'right']","[0.8, 0.4, 0.2]","[u'medium', u'low', u'high']","blue",49,"left","medium","True","False",100,3700,NA
"A1B7GQTH9YG04X","Wed Jan 29 2020 07:17:52 GMT-0600 (Central Standard Time)","Wed Jan 29 2020 07:25:01 GMT-0600 (Central Standard Time)","Mozilla/5.0 (X11; CrOS aarch64 12607.82.0) AppleWebKit/537.36 (KHTML, like Gecko) Chrome/79.0.3945.123 Safari/537.36",101,"[0.9, 0.5, 0.1]","[0.8, 0.4, 0.2]","[u'blue', u'red', u'black']","[u'left', u'middle', u'right']","[0.8, 0.4, 0.2]","[u'medium', u'low', u'high']","blue",49,"left","medium","False","False",153,3650,NA
"A1B7GQTH9YG04X","Wed Jan 29 2020 07:17:52 GMT-0600 (Central Standard Time)","Wed Jan 29 2020 07:25:01 GMT-0600 (Central Standard Time)","Mozilla/5.0 (X11; CrOS aarch64 12607.82.0) AppleWebKit/537.36 (KHTML, like Gecko) Chrome/79.0.3945.123 Safari/537.36",102,"[0.9, 0.5, 0.1]","[0.8, 0.4, 0.2]","[u'blue', u'red', u'black']","[u'left', u'middle', u'right']","[0.8, 0.4, 0.2]","[u'medium', u'low', u'high']","blue",49,"left","medium","True","False",160,3750,NA
"A1B7GQTH9YG04X","Wed Jan 29 2020 07:17:52 GMT-0600 (Central Standard Time)","Wed Jan 29 2020 07:25:01 GMT-0600 (Central Standard Time)","Mozilla/5.0 (X11; CrOS aarch64 12607.82.0) AppleWebKit/537.36 (KHTML, like Gecko) Chrome/79.0.3945.123 Safari/537.36",103,"[0.9, 0.5, 0.1]","[0.8, 0.4, 0.2]","[u'blue', u'red', u'black']","[u'left', u'middle', u'right']","[0.8, 0.4, 0.2]","[u'medium', u'low', u'high']","blue",49,"left","medium","False","False",112,3700,NA
"A1B7GQTH9YG04X","Wed Jan 29 2020 07:17:52 GMT-0600 (Central Standard Time)","Wed Jan 29 2020 07:25:01 GMT-0600 (Central Standard Time)","Mozilla/5.0 (X11; CrOS aarch64 12607.82.0) AppleWebKit/537.36 (KHTML, like Gecko) Chrome/79.0.3945.123 Safari/537.36",104,"[0.9, 0.5, 0.1]","[0.8, 0.4, 0.2]","[u'blue', u'red', u'black']","[u'left', u'middle', u'right']","[0.8, 0.4, 0.2]","[u'medium', u'low', u'high']","black",51,"right","high","True","False",172,3800,NA
"A1B7GQTH9YG04X","Wed Jan 29 2020 07:17:52 GMT-0600 (Central Standard Time)","Wed Jan 29 2020 07:25:01 GMT-0600 (Central Standard Time)","Mozilla/5.0 (X11; CrOS aarch64 12607.82.0) AppleWebKit/537.36 (KHTML, like Gecko) Chrome/79.0.3945.123 Safari/537.36",105,"[0.9, 0.5, 0.1]","[0.8, 0.4, 0.2]","[u'blue', u'red', u'black']","[u'left', u'middle', u'right']","[0.8, 0.4, 0.2]","[u'medium', u'low', u'high']","black",51,"right","high","False","False",121,3750,NA
"A1B7GQTH9YG04X","Wed Jan 29 2020 07:17:52 GMT-0600 (Central Standard Time)","Wed Jan 29 2020 07:25:01 GMT-0600 (Central Standard Time)","Mozilla/5.0 (X11; CrOS aarch64 12607.82.0) AppleWebKit/537.36 (KHTML, like Gecko) Chrome/79.0.3945.123 Safari/537.36",106,"[0.9, 0.5, 0.1]","[0.8, 0.4, 0.2]","[u'blue', u'red', u'black']","[u'left', u'middle', u'right']","[0.8, 0.4, 0.2]","[u'medium', u'low', u'high']","black",51,"right","high","True","False",163,3850,NA
"A1B7GQTH9YG04X","Wed Jan 29 2020 07:17:52 GMT-0600 (Central Standard Time)","Wed Jan 29 2020 07:25:01 GMT-0600 (Central Standard Time)","Mozilla/5.0 (X11; CrOS aarch64 12607.82.0) AppleWebKit/537.36 (KHTML, like Gecko) Chrome/79.0.3945.123 Safari/537.36",107,"[0.9, 0.5, 0.1]","[0.8, 0.4, 0.2]","[u'blue', u'red', u'black']","[u'left', u'middle', u'right']","[0.8, 0.4, 0.2]","[u'medium', u'low', u'high']","black",51,"right","high","True","False",75,3950,NA
"A1B7GQTH9YG04X","Wed Jan 29 2020 07:17:52 GMT-0600 (Central Standard Time)","Wed Jan 29 2020 07:25:01 GMT-0600 (Central Standard Time)","Mozilla/5.0 (X11; CrOS aarch64 12607.82.0) AppleWebKit/537.36 (KHTML, like Gecko) Chrome/79.0.3945.123 Safari/537.36",108,"[0.9, 0.5, 0.1]","[0.8, 0.4, 0.2]","[u'blue', u'red', u'black']","[u'left', u'middle', u'right']","[0.8, 0.4, 0.2]","[u'medium', u'low', u'high']","black",51,"right","high","True","False",197,4050,NA
"A1B7GQTH9YG04X","Wed Jan 29 2020 07:17:52 GMT-0600 (Central Standard Time)","Wed Jan 29 2020 07:25:01 GMT-0600 (Central Standard Time)","Mozilla/5.0 (X11; CrOS aarch64 12607.82.0) AppleWebKit/537.36 (KHTML, like Gecko) Chrome/79.0.3945.123 Safari/537.36",109,"[0.9, 0.5, 0.1]","[0.8, 0.4, 0.2]","[u'blue', u'red', u'black']","[u'left', u'middle', u'right']","[0.8, 0.4, 0.2]","[u'medium', u'low', u'high']","black",51,"right","high","True","False",243,4150,NA
"A1B7GQTH9YG04X","Wed Jan 29 2020 07:17:52 GMT-0600 (Central Standard Time)","Wed Jan 29 2020 07:25:01 GMT-0600 (Central Standard Time)","Mozilla/5.0 (X11; CrOS aarch64 12607.82.0) AppleWebKit/537.36 (KHTML, like Gecko) Chrome/79.0.3945.123 Safari/537.36",110,"[0.9, 0.5, 0.1]","[0.8, 0.4, 0.2]","[u'blue', u'red', u'black']","[u'left', u'middle', u'right']","[0.8, 0.4, 0.2]","[u'medium', u'low', u'high']","black",51,"right","high","False","False",263,4100,NA
"A1B7GQTH9YG04X","Wed Jan 29 2020 07:17:52 GMT-0600 (Central Standard Time)","Wed Jan 29 2020 07:25:01 GMT-0600 (Central Standard Time)","Mozilla/5.0 (X11; CrOS aarch64 12607.82.0) AppleWebKit/537.36 (KHTML, like Gecko) Chrome/79.0.3945.123 Safari/537.36",111,"[0.9, 0.5, 0.1]","[0.8, 0.4, 0.2]","[u'blue', u'red', u'black']","[u'left', u'middle', u'right']","[0.8, 0.4, 0.2]","[u'medium', u'low', u'high']","blue",49,"left","medium","False","False",226,4050,NA
"A1B7GQTH9YG04X","Wed Jan 29 2020 07:17:52 GMT-0600 (Central Standard Time)","Wed Jan 29 2020 07:25:01 GMT-0600 (Central Standard Time)","Mozilla/5.0 (X11; CrOS aarch64 12607.82.0) AppleWebKit/537.36 (KHTML, like Gecko) Chrome/79.0.3945.123 Safari/537.36",112,"[0.9, 0.5, 0.1]","[0.8, 0.4, 0.2]","[u'blue', u'red', u'black']","[u'left', u'middle', u'right']","[0.8, 0.4, 0.2]","[u'medium', u'low', u'high']","red",50,"middle","low","False","False",147,4000,NA
"A1B7GQTH9YG04X","Wed Jan 29 2020 07:17:52 GMT-0600 (Central Standard Time)","Wed Jan 29 2020 07:25:01 GMT-0600 (Central Standard Time)","Mozilla/5.0 (X11; CrOS aarch64 12607.82.0) AppleWebKit/537.36 (KHTML, like Gecko) Chrome/79.0.3945.123 Safari/537.36",113,"[0.9, 0.5, 0.1]","[0.8, 0.4, 0.2]","[u'blue', u'red', u'black']","[u'left', u'middle', u'right']","[0.8, 0.4, 0.2]","[u'medium', u'low', u'high']","black",51,"right","high","False","False",211,3950,NA
"A1B7GQTH9YG04X","Wed Jan 29 2020 07:17:52 GMT-0600 (Central Standard Time)","Wed Jan 29 2020 07:25:01 GMT-0600 (Central Standard Time)","Mozilla/5.0 (X11; CrOS aarch64 12607.82.0) AppleWebKit/537.36 (KHTML, like Gecko) Chrome/79.0.3945.123 Safari/537.36",114,"[0.9, 0.5, 0.1]","[0.8, 0.4, 0.2]","[u'blue', u'red', u'black']","[u'left', u'middle', u'right']","[0.8, 0.4, 0.2]","[u'medium', u'low', u'high']","blue",49,"left","medium","True","False",173,4050,NA
"A1B7GQTH9YG04X","Wed Jan 29 2020 07:17:52 GMT-0600 (Central Standard Time)","Wed Jan 29 2020 07:25:01 GMT-0600 (Central Standard Time)","Mozilla/5.0 (X11; CrOS aarch64 12607.82.0) AppleWebKit/537.36 (KHTML, like Gecko) Chrome/79.0.3945.123 Safari/537.36",115,"[0.9, 0.5, 0.1]","[0.8, 0.4, 0.2]","[u'blue', u'red', u'black']","[u'left', u'middle', u'right']","[0.8, 0.4, 0.2]","[u'medium', u'low', u'high']","blue",49,"left","medium","False","False",112,4000,NA
"A1B7GQTH9YG04X","Wed Jan 29 2020 07:17:52 GMT-0600 (Central Standard Time)","Wed Jan 29 2020 07:25:01 GMT-0600 (Central Standard Time)","Mozilla/5.0 (X11; CrOS aarch64 12607.82.0) AppleWebKit/537.36 (KHTML, like Gecko) Chrome/79.0.3945.123 Safari/537.36",116,"[0.9, 0.5, 0.1]","[0.8, 0.4, 0.2]","[u'blue', u'red', u'black']","[u'left', u'middle', u'right']","[0.8, 0.4, 0.2]","[u'medium', u'low', u'high']","blue",49,"left","medium","False","False",249,3950,NA
"A1B7GQTH9YG04X","Wed Jan 29 2020 07:17:52 GMT-0600 (Central Standard Time)","Wed Jan 29 2020 07:25:01 GMT-0600 (Central Standard Time)","Mozilla/5.0 (X11; CrOS aarch64 12607.82.0) AppleWebKit/537.36 (KHTML, like Gecko) Chrome/79.0.3945.123 Safari/537.36",117,"[0.9, 0.5, 0.1]","[0.8, 0.4, 0.2]","[u'blue', u'red', u'black']","[u'left', u'middle', u'right']","[0.8, 0.4, 0.2]","[u'medium', u'low', u'high']","red",50,"middle","low","False","False",226,3900,NA
"A1B7GQTH9YG04X","Wed Jan 29 2020 07:17:52 GMT-0600 (Central Standard Time)","Wed Jan 29 2020 07:25:01 GMT-0600 (Central Standard Time)","Mozilla/5.0 (X11; CrOS aarch64 12607.82.0) AppleWebKit/537.36 (KHTML, like Gecko) Chrome/79.0.3945.123 Safari/537.36",118,"[0.9, 0.5, 0.1]","[0.8, 0.4, 0.2]","[u'blue', u'red', u'black']","[u'left', u'middle', u'right']","[0.8, 0.4, 0.2]","[u'medium', u'low', u'high']","black",51,"right","high","False","False",166,3850,NA
"A1B7GQTH9YG04X","Wed Jan 29 2020 07:17:52 GMT-0600 (Central Standard Time)","Wed Jan 29 2020 07:25:01 GMT-0600 (Central Standard Time)","Mozilla/5.0 (X11; CrOS aarch64 12607.82.0) AppleWebKit/537.36 (KHTML, like Gecko) Chrome/79.0.3945.123 Safari/537.36",119,"[0.9, 0.5, 0.1]","[0.8, 0.4, 0.2]","[u'blue', u'red', u'black']","[u'left', u'middle', u'right']","[0.8, 0.4, 0.2]","[u'medium', u'low', u'high']","blue",49,"left","medium","False","False",142,3800,NA
"A1B7GQTH9YG04X","Wed Jan 29 2020 07:17:52 GMT-0600 (Central Standard Time)","Wed Jan 29 2020 07:25:01 GMT-0600 (Central Standard Time)","Mozilla/5.0 (X11; CrOS aarch64 12607.82.0) AppleWebKit/537.36 (KHTML, like Gecko) Chrome/79.0.3945.123 Safari/537.36",120,"[0.9, 0.5, 0.1]","[0.8, 0.4, 0.2]","[u'blue', u'red', u'black']","[u'left', u'middle', u'right']","[0.8, 0.4, 0.2]","[u'medium', u'low', u'high']","black",51,"right","high","True","False",25,3900,NA
"A1B7GQTH9YG04X","Wed Jan 29 2020 07:17:52 GMT-0600 (Central Standard Time)","Wed Jan 29 2020 07:25:01 GMT-0600 (Central Standard Time)","Mozilla/5.0 (X11; CrOS aarch64 12607.82.0) AppleWebKit/537.36 (KHTML, like Gecko) Chrome/79.0.3945.123 Safari/537.36",121,"[0.9, 0.5, 0.1]","[0.8, 0.4, 0.2]","[u'blue', u'red', u'black']","[u'left', u'middle', u'right']","[0.8, 0.4, 0.2]","[u'high', u'low', u'medium']","black",51,"right","medium","False","False",606,3850,NA
"A1B7GQTH9YG04X","Wed Jan 29 2020 07:17:52 GMT-0600 (Central Standard Time)","Wed Jan 29 2020 07:25:01 GMT-0600 (Central Standard Time)","Mozilla/5.0 (X11; CrOS aarch64 12607.82.0) AppleWebKit/537.36 (KHTML, like Gecko) Chrome/79.0.3945.123 Safari/537.36",122,"[0.9, 0.5, 0.1]","[0.8, 0.4, 0.2]","[u'blue', u'red', u'black']","[u'left', u'middle', u'right']","[0.8, 0.4, 0.2]","[u'high', u'low', u'medium']","blue",49,"left","high","True","False",255,3950,NA
"A1B7GQTH9YG04X","Wed Jan 29 2020 07:17:52 GMT-0600 (Central Standard Time)","Wed Jan 29 2020 07:25:01 GMT-0600 (Central Standard Time)","Mozilla/5.0 (X11; CrOS aarch64 12607.82.0) AppleWebKit/537.36 (KHTML, like Gecko) Chrome/79.0.3945.123 Safari/537.36",123,"[0.9, 0.5, 0.1]","[0.8, 0.4, 0.2]","[u'blue', u'red', u'black']","[u'left', u'middle', u'right']","[0.8, 0.4, 0.2]","[u'high', u'low', u'medium']","blue",49,"left","high","True","False",161,4050,NA
"A1B7GQTH9YG04X","Wed Jan 29 2020 07:17:52 GMT-0600 (Central Standard Time)","Wed Jan 29 2020 07:25:01 GMT-0600 (Central Standard Time)","Mozilla/5.0 (X11; CrOS aarch64 12607.82.0) AppleWebKit/537.36 (KHTML, like Gecko) Chrome/79.0.3945.123 Safari/537.36",124,"[0.9, 0.5, 0.1]","[0.8, 0.4, 0.2]","[u'blue', u'red', u'black']","[u'left', u'middle', u'right']","[0.8, 0.4, 0.2]","[u'high', u'low', u'medium']","blue",49,"left","high","False","False",178,4000,NA
"A1B7GQTH9YG04X","Wed Jan 29 2020 07:17:52 GMT-0600 (Central Standard Time)","Wed Jan 29 2020 07:25:01 GMT-0600 (Central Standard Time)","Mozilla/5.0 (X11; CrOS aarch64 12607.82.0) AppleWebKit/537.36 (KHTML, like Gecko) Chrome/79.0.3945.123 Safari/537.36",125,"[0.9, 0.5, 0.1]","[0.8, 0.4, 0.2]","[u'blue', u'red', u'black']","[u'left', u'middle', u'right']","[0.8, 0.4, 0.2]","[u'high', u'low', u'medium']","blue",49,"left","high","False","False",226,3950,NA
"A1B7GQTH9YG04X","Wed Jan 29 2020 07:17:52 GMT-0600 (Central Standard Time)","Wed Jan 29 2020 07:25:01 GMT-0600 (Central Standard Time)","Mozilla/5.0 (X11; CrOS aarch64 12607.82.0) AppleWebKit/537.36 (KHTML, like Gecko) Chrome/79.0.3945.123 Safari/537.36",126,"[0.9, 0.5, 0.1]","[0.8, 0.4, 0.2]","[u'blue', u'red', u'black']","[u'left', u'middle', u'right']","[0.8, 0.4, 0.2]","[u'high', u'low', u'medium']","blue",49,"left","high","False","False",178,3900,NA
"A1B7GQTH9YG04X","Wed Jan 29 2020 07:17:52 GMT-0600 (Central Standard Time)","Wed Jan 29 2020 07:25:01 GMT-0600 (Central Standard Time)","Mozilla/5.0 (X11; CrOS aarch64 12607.82.0) AppleWebKit/537.36 (KHTML, like Gecko) Chrome/79.0.3945.123 Safari/537.36",127,"[0.9, 0.5, 0.1]","[0.8, 0.4, 0.2]","[u'blue', u'red', u'black']","[u'left', u'middle', u'right']","[0.8, 0.4, 0.2]","[u'high', u'low', u'medium']","black",51,"right","medium","False","False",234,3850,NA
"A1B7GQTH9YG04X","Wed Jan 29 2020 07:17:52 GMT-0600 (Central Standard Time)","Wed Jan 29 2020 07:25:01 GMT-0600 (Central Standard Time)","Mozilla/5.0 (X11; CrOS aarch64 12607.82.0) AppleWebKit/537.36 (KHTML, like Gecko) Chrome/79.0.3945.123 Safari/537.36",128,"[0.9, 0.5, 0.1]","[0.8, 0.4, 0.2]","[u'blue', u'red', u'black']","[u'left', u'middle', u'right']","[0.8, 0.4, 0.2]","[u'high', u'low', u'medium']","blue",49,"left","high","True","False",143,3950,NA
"A1B7GQTH9YG04X","Wed Jan 29 2020 07:17:52 GMT-0600 (Central Standard Time)","Wed Jan 29 2020 07:25:01 GMT-0600 (Central Standard Time)","Mozilla/5.0 (X11; CrOS aarch64 12607.82.0) AppleWebKit/537.36 (KHTML, like Gecko) Chrome/79.0.3945.123 Safari/537.36",129,"[0.9, 0.5, 0.1]","[0.8, 0.4, 0.2]","[u'blue', u'red', u'black']","[u'left', u'middle', u'right']","[0.8, 0.4, 0.2]","[u'high', u'low', u'medium']","blue",49,"left","high","True","False",205,4050,NA
"A1B7GQTH9YG04X","Wed Jan 29 2020 07:17:52 GMT-0600 (Central Standard Time)","Wed Jan 29 2020 07:25:01 GMT-0600 (Central Standard Time)","Mozilla/5.0 (X11; CrOS aarch64 12607.82.0) AppleWebKit/537.36 (KHTML, like Gecko) Chrome/79.0.3945.123 Safari/537.36",130,"[0.9, 0.5, 0.1]","[0.8, 0.4, 0.2]","[u'blue', u'red', u'black']","[u'left', u'middle', u'right']","[0.8, 0.4, 0.2]","[u'high', u'low', u'medium']","blue",49,"left","high","True","False",132,4150,NA
"A1B7GQTH9YG04X","Wed Jan 29 2020 07:17:52 GMT-0600 (Central Standard Time)","Wed Jan 29 2020 07:25:01 GMT-0600 (Central Standard Time)","Mozilla/5.0 (X11; CrOS aarch64 12607.82.0) AppleWebKit/537.36 (KHTML, like Gecko) Chrome/79.0.3945.123 Safari/537.36",131,"[0.9, 0.5, 0.1]","[0.8, 0.4, 0.2]","[u'blue', u'red', u'black']","[u'left', u'middle', u'right']","[0.8, 0.4, 0.2]","[u'high', u'low', u'medium']","blue",49,"left","high","True","True",54,4250,NA
"A1B7GQTH9YG04X","Wed Jan 29 2020 07:17:52 GMT-0600 (Central Standard Time)","Wed Jan 29 2020 07:25:01 GMT-0600 (Central Standard Time)","Mozilla/5.0 (X11; CrOS aarch64 12607.82.0) AppleWebKit/537.36 (KHTML, like Gecko) Chrome/79.0.3945.123 Safari/537.36",132,"[0.9, 0.5, 0.1]","[0.8, 0.4, 0.2]","[u'blue', u'red', u'black']","[u'left', u'middle', u'right']","[0.8, 0.4, 0.2]","[u'low', u'medium', u'high']","blue",49,"left","low","False","False",158,4200,NA
"A1B7GQTH9YG04X","Wed Jan 29 2020 07:17:52 GMT-0600 (Central Standard Time)","Wed Jan 29 2020 07:25:01 GMT-0600 (Central Standard Time)","Mozilla/5.0 (X11; CrOS aarch64 12607.82.0) AppleWebKit/537.36 (KHTML, like Gecko) Chrome/79.0.3945.123 Safari/537.36",133,"[0.9, 0.5, 0.1]","[0.8, 0.4, 0.2]","[u'blue', u'red', u'black']","[u'left', u'middle', u'right']","[0.8, 0.4, 0.2]","[u'low', u'medium', u'high']","blue",49,"left","low","False","False",211,4150,NA
"A1B7GQTH9YG04X","Wed Jan 29 2020 07:17:52 GMT-0600 (Central Standard Time)","Wed Jan 29 2020 07:25:01 GMT-0600 (Central Standard Time)","Mozilla/5.0 (X11; CrOS aarch64 12607.82.0) AppleWebKit/537.36 (KHTML, like Gecko) Chrome/79.0.3945.123 Safari/537.36",134,"[0.9, 0.5, 0.1]","[0.8, 0.4, 0.2]","[u'blue', u'red', u'black']","[u'left', u'middle', u'right']","[0.8, 0.4, 0.2]","[u'low', u'medium', u'high']","red",50,"middle","medium","True","False",49,4250,NA
"A1B7GQTH9YG04X","Wed Jan 29 2020 07:17:52 GMT-0600 (Central Standard Time)","Wed Jan 29 2020 07:25:01 GMT-0600 (Central Standard Time)","Mozilla/5.0 (X11; CrOS aarch64 12607.82.0) AppleWebKit/537.36 (KHTML, like Gecko) Chrome/79.0.3945.123 Safari/537.36",135,"[0.9, 0.5, 0.1]","[0.8, 0.4, 0.2]","[u'blue', u'red', u'black']","[u'left', u'middle', u'right']","[0.8, 0.4, 0.2]","[u'low', u'medium', u'high']","red",50,"middle","medium","False","False",113,4200,NA
"A1B7GQTH9YG04X","Wed Jan 29 2020 07:17:52 GMT-0600 (Central Standard Time)","Wed Jan 29 2020 07:25:01 GMT-0600 (Central Standard Time)","Mozilla/5.0 (X11; CrOS aarch64 12607.82.0) AppleWebKit/537.36 (KHTML, like Gecko) Chrome/79.0.3945.123 Safari/537.36",136,"[0.9, 0.5, 0.1]","[0.8, 0.4, 0.2]","[u'blue', u'red', u'black']","[u'left', u'middle', u'right']","[0.8, 0.4, 0.2]","[u'low', u'medium', u'high']","blue",49,"left","low","False","False",123,4150,NA
"A1B7GQTH9YG04X","Wed Jan 29 2020 07:17:52 GMT-0600 (Central Standard Time)","Wed Jan 29 2020 07:25:01 GMT-0600 (Central Standard Time)","Mozilla/5.0 (X11; CrOS aarch64 12607.82.0) AppleWebKit/537.36 (KHTML, like Gecko) Chrome/79.0.3945.123 Safari/537.36",137,"[0.9, 0.5, 0.1]","[0.8, 0.4, 0.2]","[u'blue', u'red', u'black']","[u'left', u'middle', u'right']","[0.8, 0.4, 0.2]","[u'low', u'medium', u'high']","black",51,"right","high","True","False",83,4250,NA
"A1B7GQTH9YG04X","Wed Jan 29 2020 07:17:52 GMT-0600 (Central Standard Time)","Wed Jan 29 2020 07:25:01 GMT-0600 (Central Standard Time)","Mozilla/5.0 (X11; CrOS aarch64 12607.82.0) AppleWebKit/537.36 (KHTML, like Gecko) Chrome/79.0.3945.123 Safari/537.36",138,"[0.9, 0.5, 0.1]","[0.8, 0.4, 0.2]","[u'blue', u'red', u'black']","[u'left', u'middle', u'right']","[0.8, 0.4, 0.2]","[u'low', u'medium', u'high']","black",51,"right","high","True","False",2835,4350,NA
"A1B7GQTH9YG04X","Wed Jan 29 2020 07:17:52 GMT-0600 (Central Standard Time)","Wed Jan 29 2020 07:25:01 GMT-0600 (Central Standard Time)","Mozilla/5.0 (X11; CrOS aarch64 12607.82.0) AppleWebKit/537.36 (KHTML, like Gecko) Chrome/79.0.3945.123 Safari/537.36",139,"[0.9, 0.5, 0.1]","[0.8, 0.4, 0.2]","[u'blue', u'red', u'black']","[u'left', u'middle', u'right']","[0.8, 0.4, 0.2]","[u'low', u'medium', u'high']","black",51,"right","high","True","False",145,4450,NA
"A1B7GQTH9YG04X","Wed Jan 29 2020 07:17:52 GMT-0600 (Central Standard Time)","Wed Jan 29 2020 07:25:01 GMT-0600 (Central Standard Time)","Mozilla/5.0 (X11; CrOS aarch64 12607.82.0) AppleWebKit/537.36 (KHTML, like Gecko) Chrome/79.0.3945.123 Safari/537.36",140,"[0.9, 0.5, 0.1]","[0.8, 0.4, 0.2]","[u'blue', u'red', u'black']","[u'left', u'middle', u'right']","[0.8, 0.4, 0.2]","[u'low', u'medium', u'high']","black",51,"right","high","True","False",218,4550,NA
"A1B7GQTH9YG04X","Wed Jan 29 2020 07:17:52 GMT-0600 (Central Standard Time)","Wed Jan 29 2020 07:25:01 GMT-0600 (Central Standard Time)","Mozilla/5.0 (X11; CrOS aarch64 12607.82.0) AppleWebKit/537.36 (KHTML, like Gecko) Chrome/79.0.3945.123 Safari/537.36",141,"[0.9, 0.5, 0.1]","[0.8, 0.4, 0.2]","[u'blue', u'red', u'black']","[u'left', u'middle', u'right']","[0.8, 0.4, 0.2]","[u'low', u'medium', u'high']","black",51,"right","high","True","False",154,4650,NA
"A1B7GQTH9YG04X","Wed Jan 29 2020 07:17:52 GMT-0600 (Central Standard Time)","Wed Jan 29 2020 07:25:01 GMT-0600 (Central Standard Time)","Mozilla/5.0 (X11; CrOS aarch64 12607.82.0) AppleWebKit/537.36 (KHTML, like Gecko) Chrome/79.0.3945.123 Safari/537.36",142,"[0.9, 0.5, 0.1]","[0.8, 0.4, 0.2]","[u'blue', u'red', u'black']","[u'left', u'middle', u'right']","[0.8, 0.4, 0.2]","[u'low', u'medium', u'high']","blue",49,"left","low","True","False",139,4750,NA
"A1B7GQTH9YG04X","Wed Jan 29 2020 07:17:52 GMT-0600 (Central Standard Time)","Wed Jan 29 2020 07:25:01 GMT-0600 (Central Standard Time)","Mozilla/5.0 (X11; CrOS aarch64 12607.82.0) AppleWebKit/537.36 (KHTML, like Gecko) Chrome/79.0.3945.123 Safari/537.36",143,"[0.9, 0.5, 0.1]","[0.8, 0.4, 0.2]","[u'blue', u'red', u'black']","[u'left', u'middle', u'right']","[0.8, 0.4, 0.2]","[u'low', u'medium', u'high']","blue",49,"left","low","False","False",233,4700,NA
"A1B7GQTH9YG04X","Wed Jan 29 2020 07:17:52 GMT-0600 (Central Standard Time)","Wed Jan 29 2020 07:25:01 GMT-0600 (Central Standard Time)","Mozilla/5.0 (X11; CrOS aarch64 12607.82.0) AppleWebKit/537.36 (KHTML, like Gecko) Chrome/79.0.3945.123 Safari/537.36",144,"[0.9, 0.5, 0.1]","[0.8, 0.4, 0.2]","[u'blue', u'red', u'black']","[u'left', u'middle', u'right']","[0.8, 0.4, 0.2]","[u'low', u'medium', u'high']","blue",49,"left","low","False","False",186,4650,NA
"A1B7GQTH9YG04X","Wed Jan 29 2020 07:17:52 GMT-0600 (Central Standard Time)","Wed Jan 29 2020 07:25:01 GMT-0600 (Central Standard Time)","Mozilla/5.0 (X11; CrOS aarch64 12607.82.0) AppleWebKit/537.36 (KHTML, like Gecko) Chrome/79.0.3945.123 Safari/537.36",145,"[0.9, 0.5, 0.1]","[0.8, 0.4, 0.2]","[u'blue', u'red', u'black']","[u'left', u'middle', u'right']","[0.8, 0.4, 0.2]","[u'low', u'medium', u'high']","black",51,"right","high","False","False",108,4600,NA
"A1B7GQTH9YG04X","Wed Jan 29 2020 07:17:52 GMT-0600 (Central Standard Time)","Wed Jan 29 2020 07:25:01 GMT-0600 (Central Standard Time)","Mozilla/5.0 (X11; CrOS aarch64 12607.82.0) AppleWebKit/537.36 (KHTML, like Gecko) Chrome/79.0.3945.123 Safari/537.36",146,"[0.9, 0.5, 0.1]","[0.8, 0.4, 0.2]","[u'blue', u'red', u'black']","[u'left', u'middle', u'right']","[0.8, 0.4, 0.2]","[u'low', u'medium', u'high']","red",50,"middle","medium","False","False",97,4550,NA
"A1B7GQTH9YG04X","Wed Jan 29 2020 07:17:52 GMT-0600 (Central Standard Time)","Wed Jan 29 2020 07:25:01 GMT-0600 (Central Standard Time)","Mozilla/5.0 (X11; CrOS aarch64 12607.82.0) AppleWebKit/537.36 (KHTML, like Gecko) Chrome/79.0.3945.123 Safari/537.36",147,"[0.9, 0.5, 0.1]","[0.8, 0.4, 0.2]","[u'blue', u'red', u'black']","[u'left', u'middle', u'right']","[0.8, 0.4, 0.2]","[u'low', u'medium', u'high']","blue",49,"left","low","True","False",359,4650,NA
"A1B7GQTH9YG04X","Wed Jan 29 2020 07:17:52 GMT-0600 (Central Standard Time)","Wed Jan 29 2020 07:25:01 GMT-0600 (Central Standard Time)","Mozilla/5.0 (X11; CrOS aarch64 12607.82.0) AppleWebKit/537.36 (KHTML, like Gecko) Chrome/79.0.3945.123 Safari/537.36",148,"[0.9, 0.5, 0.1]","[0.8, 0.4, 0.2]","[u'blue', u'red', u'black']","[u'left', u'middle', u'right']","[0.8, 0.4, 0.2]","[u'low', u'medium', u'high']","blue",49,"left","low","False","False",224,4600,NA
"A1B7GQTH9YG04X","Wed Jan 29 2020 07:17:52 GMT-0600 (Central Standard Time)","Wed Jan 29 2020 07:25:01 GMT-0600 (Central Standard Time)","Mozilla/5.0 (X11; CrOS aarch64 12607.82.0) AppleWebKit/537.36 (KHTML, like Gecko) Chrome/79.0.3945.123 Safari/537.36",149,"[0.9, 0.5, 0.1]","[0.8, 0.4, 0.2]","[u'blue', u'red', u'black']","[u'left', u'middle', u'right']","[0.8, 0.4, 0.2]","[u'low', u'medium', u'high']","blue",49,"left","low","False","False",169,4550,NA
"A1B7GQTH9YG04X","Wed Jan 29 2020 07:17:52 GMT-0600 (Central Standard Time)","Wed Jan 29 2020 07:25:01 GMT-0600 (Central Standard Time)","Mozilla/5.0 (X11; CrOS aarch64 12607.82.0) AppleWebKit/537.36 (KHTML, like Gecko) Chrome/79.0.3945.123 Safari/537.36",150,"[0.9, 0.5, 0.1]","[0.8, 0.4, 0.2]","[u'blue', u'red', u'black']","[u'left', u'middle', u'right']","[0.8, 0.4, 0.2]","[u'low', u'medium', u'high']","red",50,"middle","medium","False","False",193,4500,NA
"A1B7GQTH9YG04X","Wed Jan 29 2020 07:17:52 GMT-0600 (Central Standard Time)","Wed Jan 29 2020 07:25:01 GMT-0600 (Central Standard Time)","Mozilla/5.0 (X11; CrOS aarch64 12607.82.0) AppleWebKit/537.36 (KHTML, like Gecko) Chrome/79.0.3945.123 Safari/537.36",151,"[0.9, 0.5, 0.1]","[0.8, 0.4, 0.2]","[u'blue', u'red', u'black']","[u'left', u'middle', u'right']","[0.8, 0.4, 0.2]","[u'low', u'medium', u'high']","blue",49,"left","low","False","False",187,4450,NA
"A1B7GQTH9YG04X","Wed Jan 29 2020 07:17:52 GMT-0600 (Central Standard Time)","Wed Jan 29 2020 07:25:01 GMT-0600 (Central Standard Time)","Mozilla/5.0 (X11; CrOS aarch64 12607.82.0) AppleWebKit/537.36 (KHTML, like Gecko) Chrome/79.0.3945.123 Safari/537.36",152,"[0.9, 0.5, 0.1]","[0.8, 0.4, 0.2]","[u'blue', u'red', u'black']","[u'left', u'middle', u'right']","[0.8, 0.4, 0.2]","[u'low', u'medium', u'high']","black",51,"right","high","True","False",193,4550,NA
"A1B7GQTH9YG04X","Wed Jan 29 2020 07:17:52 GMT-0600 (Central Standard Time)","Wed Jan 29 2020 07:25:01 GMT-0600 (Central Standard Time)","Mozilla/5.0 (X11; CrOS aarch64 12607.82.0) AppleWebKit/537.36 (KHTML, like Gecko) Chrome/79.0.3945.123 Safari/537.36",153,"[0.9, 0.5, 0.1]","[0.8, 0.4, 0.2]","[u'blue', u'red', u'black']","[u'left', u'middle', u'right']","[0.8, 0.4, 0.2]","[u'low', u'medium', u'high']","black",51,"right","high","True","False",178,4650,NA
"A1B7GQTH9YG04X","Wed Jan 29 2020 07:17:52 GMT-0600 (Central Standard Time)","Wed Jan 29 2020 07:25:01 GMT-0600 (Central Standard Time)","Mozilla/5.0 (X11; CrOS aarch64 12607.82.0) AppleWebKit/537.36 (KHTML, like Gecko) Chrome/79.0.3945.123 Safari/537.36",154,"[0.9, 0.5, 0.1]","[0.8, 0.4, 0.2]","[u'blue', u'red', u'black']","[u'left', u'middle', u'right']","[0.8, 0.4, 0.2]","[u'low', u'medium', u'high']","blue",49,"left","low","False","False",263,4600,NA
"A1B7GQTH9YG04X","Wed Jan 29 2020 07:17:52 GMT-0600 (Central Standard Time)","Wed Jan 29 2020 07:25:01 GMT-0600 (Central Standard Time)","Mozilla/5.0 (X11; CrOS aarch64 12607.82.0) AppleWebKit/537.36 (KHTML, like Gecko) Chrome/79.0.3945.123 Safari/537.36",155,"[0.9, 0.5, 0.1]","[0.8, 0.4, 0.2]","[u'blue', u'red', u'black']","[u'left', u'middle', u'right']","[0.8, 0.4, 0.2]","[u'low', u'medium', u'high']","black",51,"right","high","True","False",230,4700,NA
"A1B7GQTH9YG04X","Wed Jan 29 2020 07:17:52 GMT-0600 (Central Standard Time)","Wed Jan 29 2020 07:25:01 GMT-0600 (Central Standard Time)","Mozilla/5.0 (X11; CrOS aarch64 12607.82.0) AppleWebKit/537.36 (KHTML, like Gecko) Chrome/79.0.3945.123 Safari/537.36",156,"[0.9, 0.5, 0.1]","[0.8, 0.4, 0.2]","[u'blue', u'red', u'black']","[u'left', u'middle', u'right']","[0.8, 0.4, 0.2]","[u'low', u'medium', u'high']","black",51,"right","high","True","False",178,4800,NA
"A1B7GQTH9YG04X","Wed Jan 29 2020 07:17:52 GMT-0600 (Central Standard Time)","Wed Jan 29 2020 07:25:01 GMT-0600 (Central Standard Time)","Mozilla/5.0 (X11; CrOS aarch64 12607.82.0) AppleWebKit/537.36 (KHTML, like Gecko) Chrome/79.0.3945.123 Safari/537.36",157,"[0.9, 0.5, 0.1]","[0.8, 0.4, 0.2]","[u'blue', u'red', u'black']","[u'left', u'middle', u'right']","[0.8, 0.4, 0.2]","[u'low', u'medium', u'high']","black",51,"right","high","True","False",189,4900,NA
"A1B7GQTH9YG04X","Wed Jan 29 2020 07:17:52 GMT-0600 (Central Standard Time)","Wed Jan 29 2020 07:25:01 GMT-0600 (Central Standard Time)","Mozilla/5.0 (X11; CrOS aarch64 12607.82.0) AppleWebKit/537.36 (KHTML, like Gecko) Chrome/79.0.3945.123 Safari/537.36",158,"[0.9, 0.5, 0.1]","[0.8, 0.4, 0.2]","[u'blue', u'red', u'black']","[u'left', u'middle', u'right']","[0.8, 0.4, 0.2]","[u'low', u'medium', u'high']","black",51,"right","high","False","False",229,4850,NA
"A1B7GQTH9YG04X","Wed Jan 29 2020 07:17:52 GMT-0600 (Central Standard Time)","Wed Jan 29 2020 07:25:01 GMT-0600 (Central Standard Time)","Mozilla/5.0 (X11; CrOS aarch64 12607.82.0) AppleWebKit/537.36 (KHTML, like Gecko) Chrome/79.0.3945.123 Safari/537.36",159,"[0.9, 0.5, 0.1]","[0.8, 0.4, 0.2]","[u'blue', u'red', u'black']","[u'left', u'middle', u'right']","[0.8, 0.4, 0.2]","[u'low', u'medium', u'high']","blue",49,"left","low","False","False",174,4800,NA
"A1B7GQTH9YG04X","Wed Jan 29 2020 07:17:52 GMT-0600 (Central Standard Time)","Wed Jan 29 2020 07:25:01 GMT-0600 (Central Standard Time)","Mozilla/5.0 (X11; CrOS aarch64 12607.82.0) AppleWebKit/537.36 (KHTML, like Gecko) Chrome/79.0.3945.123 Safari/537.36",160,"[0.9, 0.5, 0.1]","[0.8, 0.4, 0.2]","[u'blue', u'red', u'black']","[u'left', u'middle', u'right']","[0.8, 0.4, 0.2]","[u'low', u'medium', u'high']","red",50,"middle","medium","False","False",108,4750,NA
