"src_subject_id","start_time","end_time","browser","index","first_half_probabilities","second_half_probabilities","deck_color","deck_position","deck_probabilities","deck_contingencies","response_color","key_press","response_position","response_probability","reward_type","trial_type","rt","reward_tally","exclusion_reason"
"AJAKX491SGILM","Tue Jan 28 2020 13:48:25 GMT-0500 (Eastern Standard Time)","Tue Jan 28 2020 13:54:56 GMT-0500 (Eastern Standard Time)","Mozilla/5.0 (Windows NT 10.0; WOW64) AppleWebKit/537.36 (KHTML, like Gecko) Chrome/79.0.3945.88 Safari/537.36",1,"[0.9, 0.5, 0.1]","[0.8, 0.4, 0.2]","[u'black', u'red', u'blue']","[u'left', u'middle', u'right']","[0.9, 0.5, 0.1]","[u'high', u'medium', u'low']","red",50,"middle","medium","False","False",1282,-50,NA
"AJAKX491SGILM","Tue Jan 28 2020 13:48:25 GMT-0500 (Eastern Standard Time)","Tue Jan 28 2020 13:54:56 GMT-0500 (Eastern Standard Time)","Mozilla/5.0 (Windows NT 10.0; WOW64) AppleWebKit/537.36 (KHTML, like Gecko) Chrome/79.0.3945.88 Safari/537.36",2,"[0.9, 0.5, 0.1]","[0.8, 0.4, 0.2]","[u'black', u'red', u'blue']","[u'left', u'middle', u'right']","[0.9, 0.5, 0.1]","[u'high', u'medium', u'low']","blue",51,"right","low","False","False",763,-100,NA
"AJAKX491SGILM","Tue Jan 28 2020 13:48:25 GMT-0500 (Eastern Standard Time)","Tue Jan 28 2020 13:54:56 GMT-0500 (Eastern Standard Time)","Mozilla/5.0 (Windows NT 10.0; WOW64) AppleWebKit/537.36 (KHTML, like Gecko) Chrome/79.0.3945.88 Safari/537.36",3,"[0.9, 0.5, 0.1]","[0.8, 0.4, 0.2]","[u'black', u'red', u'blue']","[u'left', u'middle', u'right']","[0.9, 0.5, 0.1]","[u'high', u'medium', u'low']","blue",51,"right","low","False","False",338,-150,NA
"AJAKX491SGILM","Tue Jan 28 2020 13:48:25 GMT-0500 (Eastern Standard Time)","Tue Jan 28 2020 13:54:56 GMT-0500 (Eastern Standard Time)","Mozilla/5.0 (Windows NT 10.0; WOW64) AppleWebKit/537.36 (KHTML, like Gecko) Chrome/79.0.3945.88 Safari/537.36",4,"[0.9, 0.5, 0.1]","[0.8, 0.4, 0.2]","[u'black', u'red', u'blue']","[u'left', u'middle', u'right']","[0.9, 0.5, 0.1]","[u'high', u'medium', u'low']","red",50,"middle","medium","True","False",483,-50,NA
"AJAKX491SGILM","Tue Jan 28 2020 13:48:25 GMT-0500 (Eastern Standard Time)","Tue Jan 28 2020 13:54:56 GMT-0500 (Eastern Standard Time)","Mozilla/5.0 (Windows NT 10.0; WOW64) AppleWebKit/537.36 (KHTML, like Gecko) Chrome/79.0.3945.88 Safari/537.36",5,"[0.9, 0.5, 0.1]","[0.8, 0.4, 0.2]","[u'black', u'red', u'blue']","[u'left', u'middle', u'right']","[0.9, 0.5, 0.1]","[u'high', u'medium', u'low']","red",50,"middle","medium","False","False",347,-100,NA
"AJAKX491SGILM","Tue Jan 28 2020 13:48:25 GMT-0500 (Eastern Standard Time)","Tue Jan 28 2020 13:54:56 GMT-0500 (Eastern Standard Time)","Mozilla/5.0 (Windows NT 10.0; WOW64) AppleWebKit/537.36 (KHTML, like Gecko) Chrome/79.0.3945.88 Safari/537.36",6,"[0.9, 0.5, 0.1]","[0.8, 0.4, 0.2]","[u'black', u'red', u'blue']","[u'left', u'middle', u'right']","[0.9, 0.5, 0.1]","[u'high', u'medium', u'low']","black",49,"left","high","True","False",617,0,NA
"AJAKX491SGILM","Tue Jan 28 2020 13:48:25 GMT-0500 (Eastern Standard Time)","Tue Jan 28 2020 13:54:56 GMT-0500 (Eastern Standard Time)","Mozilla/5.0 (Windows NT 10.0; WOW64) AppleWebKit/537.36 (KHTML, like Gecko) Chrome/79.0.3945.88 Safari/537.36",7,"[0.9, 0.5, 0.1]","[0.8, 0.4, 0.2]","[u'black', u'red', u'blue']","[u'left', u'middle', u'right']","[0.9, 0.5, 0.1]","[u'high', u'medium', u'low']","blue",51,"right","low","False","False",682,-50,NA
"AJAKX491SGILM","Tue Jan 28 2020 13:48:25 GMT-0500 (Eastern Standard Time)","Tue Jan 28 2020 13:54:56 GMT-0500 (Eastern Standard Time)","Mozilla/5.0 (Windows NT 10.0; WOW64) AppleWebKit/537.36 (KHTML, like Gecko) Chrome/79.0.3945.88 Safari/537.36",8,"[0.9, 0.5, 0.1]","[0.8, 0.4, 0.2]","[u'black', u'red', u'blue']","[u'left', u'middle', u'right']","[0.9, 0.5, 0.1]","[u'high', u'medium', u'low']","black",49,"left","high","True","False",257,50,NA
"AJAKX491SGILM","Tue Jan 28 2020 13:48:25 GMT-0500 (Eastern Standard Time)","Tue Jan 28 2020 13:54:56 GMT-0500 (Eastern Standard Time)","Mozilla/5.0 (Windows NT 10.0; WOW64) AppleWebKit/537.36 (KHTML, like Gecko) Chrome/79.0.3945.88 Safari/537.36",9,"[0.9, 0.5, 0.1]","[0.8, 0.4, 0.2]","[u'black', u'red', u'blue']","[u'left', u'middle', u'right']","[0.9, 0.5, 0.1]","[u'high', u'medium', u'low']","black",49,"left","high","True","False",538,150,NA
"AJAKX491SGILM","Tue Jan 28 2020 13:48:25 GMT-0500 (Eastern Standard Time)","Tue Jan 28 2020 13:54:56 GMT-0500 (Eastern Standard Time)","Mozilla/5.0 (Windows NT 10.0; WOW64) AppleWebKit/537.36 (KHTML, like Gecko) Chrome/79.0.3945.88 Safari/537.36",10,"[0.9, 0.5, 0.1]","[0.8, 0.4, 0.2]","[u'black', u'red', u'blue']","[u'left', u'middle', u'right']","[0.9, 0.5, 0.1]","[u'high', u'medium', u'low']","red",50,"middle","medium","True","False",588,250,NA
"AJAKX491SGILM","Tue Jan 28 2020 13:48:25 GMT-0500 (Eastern Standard Time)","Tue Jan 28 2020 13:54:56 GMT-0500 (Eastern Standard Time)","Mozilla/5.0 (Windows NT 10.0; WOW64) AppleWebKit/537.36 (KHTML, like Gecko) Chrome/79.0.3945.88 Safari/537.36",11,"[0.9, 0.5, 0.1]","[0.8, 0.4, 0.2]","[u'black', u'red', u'blue']","[u'left', u'middle', u'right']","[0.9, 0.5, 0.1]","[u'high', u'medium', u'low']","black",49,"left","high","True","False",577,350,NA
"AJAKX491SGILM","Tue Jan 28 2020 13:48:25 GMT-0500 (Eastern Standard Time)","Tue Jan 28 2020 13:54:56 GMT-0500 (Eastern Standard Time)","Mozilla/5.0 (Windows NT 10.0; WOW64) AppleWebKit/537.36 (KHTML, like Gecko) Chrome/79.0.3945.88 Safari/537.36",12,"[0.9, 0.5, 0.1]","[0.8, 0.4, 0.2]","[u'black', u'red', u'blue']","[u'left', u'middle', u'right']","[0.9, 0.5, 0.1]","[u'high', u'medium', u'low']","blue",51,"right","low","False","False",306,300,NA
"AJAKX491SGILM","Tue Jan 28 2020 13:48:25 GMT-0500 (Eastern Standard Time)","Tue Jan 28 2020 13:54:56 GMT-0500 (Eastern Standard Time)","Mozilla/5.0 (Windows NT 10.0; WOW64) AppleWebKit/537.36 (KHTML, like Gecko) Chrome/79.0.3945.88 Safari/537.36",13,"[0.9, 0.5, 0.1]","[0.8, 0.4, 0.2]","[u'black', u'red', u'blue']","[u'left', u'middle', u'right']","[0.9, 0.5, 0.1]","[u'high', u'medium', u'low']","black",49,"left","high","True","False",277,400,NA
"AJAKX491SGILM","Tue Jan 28 2020 13:48:25 GMT-0500 (Eastern Standard Time)","Tue Jan 28 2020 13:54:56 GMT-0500 (Eastern Standard Time)","Mozilla/5.0 (Windows NT 10.0; WOW64) AppleWebKit/537.36 (KHTML, like Gecko) Chrome/79.0.3945.88 Safari/537.36",14,"[0.9, 0.5, 0.1]","[0.8, 0.4, 0.2]","[u'black', u'red', u'blue']","[u'left', u'middle', u'right']","[0.9, 0.5, 0.1]","[u'high', u'medium', u'low']","black",49,"left","high","True","False",273,500,NA
"AJAKX491SGILM","Tue Jan 28 2020 13:48:25 GMT-0500 (Eastern Standard Time)","Tue Jan 28 2020 13:54:56 GMT-0500 (Eastern Standard Time)","Mozilla/5.0 (Windows NT 10.0; WOW64) AppleWebKit/537.36 (KHTML, like Gecko) Chrome/79.0.3945.88 Safari/537.36",15,"[0.9, 0.5, 0.1]","[0.8, 0.4, 0.2]","[u'black', u'red', u'blue']","[u'left', u'middle', u'right']","[0.9, 0.5, 0.1]","[u'high', u'medium', u'low']","black",49,"left","high","True","False",298,600,NA
"AJAKX491SGILM","Tue Jan 28 2020 13:48:25 GMT-0500 (Eastern Standard Time)","Tue Jan 28 2020 13:54:56 GMT-0500 (Eastern Standard Time)","Mozilla/5.0 (Windows NT 10.0; WOW64) AppleWebKit/537.36 (KHTML, like Gecko) Chrome/79.0.3945.88 Safari/537.36",16,"[0.9, 0.5, 0.1]","[0.8, 0.4, 0.2]","[u'black', u'red', u'blue']","[u'left', u'middle', u'right']","[0.9, 0.5, 0.1]","[u'high', u'medium', u'low']","black",49,"left","high","True","False",268,700,NA
"AJAKX491SGILM","Tue Jan 28 2020 13:48:25 GMT-0500 (Eastern Standard Time)","Tue Jan 28 2020 13:54:56 GMT-0500 (Eastern Standard Time)","Mozilla/5.0 (Windows NT 10.0; WOW64) AppleWebKit/537.36 (KHTML, like Gecko) Chrome/79.0.3945.88 Safari/537.36",17,"[0.9, 0.5, 0.1]","[0.8, 0.4, 0.2]","[u'black', u'red', u'blue']","[u'left', u'middle', u'right']","[0.9, 0.5, 0.1]","[u'high', u'medium', u'low']","black",49,"left","high","False","False",289,650,NA
"AJAKX491SGILM","Tue Jan 28 2020 13:48:25 GMT-0500 (Eastern Standard Time)","Tue Jan 28 2020 13:54:56 GMT-0500 (Eastern Standard Time)","Mozilla/5.0 (Windows NT 10.0; WOW64) AppleWebKit/537.36 (KHTML, like Gecko) Chrome/79.0.3945.88 Safari/537.36",18,"[0.9, 0.5, 0.1]","[0.8, 0.4, 0.2]","[u'black', u'red', u'blue']","[u'left', u'middle', u'right']","[0.9, 0.5, 0.1]","[u'high', u'medium', u'low']","black",49,"left","high","True","False",242,750,NA
"AJAKX491SGILM","Tue Jan 28 2020 13:48:25 GMT-0500 (Eastern Standard Time)","Tue Jan 28 2020 13:54:56 GMT-0500 (Eastern Standard Time)","Mozilla/5.0 (Windows NT 10.0; WOW64) AppleWebKit/537.36 (KHTML, like Gecko) Chrome/79.0.3945.88 Safari/537.36",19,"[0.9, 0.5, 0.1]","[0.8, 0.4, 0.2]","[u'black', u'red', u'blue']","[u'left', u'middle', u'right']","[0.9, 0.5, 0.1]","[u'high', u'medium', u'low']","black",49,"left","high","True","False",243,850,NA
"AJAKX491SGILM","Tue Jan 28 2020 13:48:25 GMT-0500 (Eastern Standard Time)","Tue Jan 28 2020 13:54:56 GMT-0500 (Eastern Standard Time)","Mozilla/5.0 (Windows NT 10.0; WOW64) AppleWebKit/537.36 (KHTML, like Gecko) Chrome/79.0.3945.88 Safari/537.36",20,"[0.9, 0.5, 0.1]","[0.8, 0.4, 0.2]","[u'black', u'red', u'blue']","[u'left', u'middle', u'right']","[0.9, 0.5, 0.1]","[u'high', u'medium', u'low']","black",49,"left","high","True","True",251,950,NA
"AJAKX491SGILM","Tue Jan 28 2020 13:48:25 GMT-0500 (Eastern Standard Time)","Tue Jan 28 2020 13:54:56 GMT-0500 (Eastern Standard Time)","Mozilla/5.0 (Windows NT 10.0; WOW64) AppleWebKit/537.36 (KHTML, like Gecko) Chrome/79.0.3945.88 Safari/537.36",21,"[0.9, 0.5, 0.1]","[0.8, 0.4, 0.2]","[u'black', u'red', u'blue']","[u'left', u'middle', u'right']","[0.9, 0.5, 0.1]","[u'medium', u'low', u'high']","black",49,"left","medium","False","False",242,900,NA
"AJAKX491SGILM","Tue Jan 28 2020 13:48:25 GMT-0500 (Eastern Standard Time)","Tue Jan 28 2020 13:54:56 GMT-0500 (Eastern Standard Time)","Mozilla/5.0 (Windows NT 10.0; WOW64) AppleWebKit/537.36 (KHTML, like Gecko) Chrome/79.0.3945.88 Safari/537.36",22,"[0.9, 0.5, 0.1]","[0.8, 0.4, 0.2]","[u'black', u'red', u'blue']","[u'left', u'middle', u'right']","[0.9, 0.5, 0.1]","[u'medium', u'low', u'high']","black",49,"left","medium","False","False",547,850,NA
"AJAKX491SGILM","Tue Jan 28 2020 13:48:25 GMT-0500 (Eastern Standard Time)","Tue Jan 28 2020 13:54:56 GMT-0500 (Eastern Standard Time)","Mozilla/5.0 (Windows NT 10.0; WOW64) AppleWebKit/537.36 (KHTML, like Gecko) Chrome/79.0.3945.88 Safari/537.36",23,"[0.9, 0.5, 0.1]","[0.8, 0.4, 0.2]","[u'black', u'red', u'blue']","[u'left', u'middle', u'right']","[0.9, 0.5, 0.1]","[u'medium', u'low', u'high']","black",49,"left","medium","True","False",283,950,NA
"AJAKX491SGILM","Tue Jan 28 2020 13:48:25 GMT-0500 (Eastern Standard Time)","Tue Jan 28 2020 13:54:56 GMT-0500 (Eastern Standard Time)","Mozilla/5.0 (Windows NT 10.0; WOW64) AppleWebKit/537.36 (KHTML, like Gecko) Chrome/79.0.3945.88 Safari/537.36",24,"[0.9, 0.5, 0.1]","[0.8, 0.4, 0.2]","[u'black', u'red', u'blue']","[u'left', u'middle', u'right']","[0.9, 0.5, 0.1]","[u'medium', u'low', u'high']","black",49,"left","medium","True","False",266,1050,NA
"AJAKX491SGILM","Tue Jan 28 2020 13:48:25 GMT-0500 (Eastern Standard Time)","Tue Jan 28 2020 13:54:56 GMT-0500 (Eastern Standard Time)","Mozilla/5.0 (Windows NT 10.0; WOW64) AppleWebKit/537.36 (KHTML, like Gecko) Chrome/79.0.3945.88 Safari/537.36",25,"[0.9, 0.5, 0.1]","[0.8, 0.4, 0.2]","[u'black', u'red', u'blue']","[u'left', u'middle', u'right']","[0.9, 0.5, 0.1]","[u'medium', u'low', u'high']","black",49,"left","medium","True","False",306,1150,NA
"AJAKX491SGILM","Tue Jan 28 2020 13:48:25 GMT-0500 (Eastern Standard Time)","Tue Jan 28 2020 13:54:56 GMT-0500 (Eastern Standard Time)","Mozilla/5.0 (Windows NT 10.0; WOW64) AppleWebKit/537.36 (KHTML, like Gecko) Chrome/79.0.3945.88 Safari/537.36",26,"[0.9, 0.5, 0.1]","[0.8, 0.4, 0.2]","[u'black', u'red', u'blue']","[u'left', u'middle', u'right']","[0.9, 0.5, 0.1]","[u'medium', u'low', u'high']","black",49,"left","medium","True","False",251,1250,NA
"AJAKX491SGILM","Tue Jan 28 2020 13:48:25 GMT-0500 (Eastern Standard Time)","Tue Jan 28 2020 13:54:56 GMT-0500 (Eastern Standard Time)","Mozilla/5.0 (Windows NT 10.0; WOW64) AppleWebKit/537.36 (KHTML, like Gecko) Chrome/79.0.3945.88 Safari/537.36",27,"[0.9, 0.5, 0.1]","[0.8, 0.4, 0.2]","[u'black', u'red', u'blue']","[u'left', u'middle', u'right']","[0.9, 0.5, 0.1]","[u'medium', u'low', u'high']","black",49,"left","medium","False","False",283,1200,NA
"AJAKX491SGILM","Tue Jan 28 2020 13:48:25 GMT-0500 (Eastern Standard Time)","Tue Jan 28 2020 13:54:56 GMT-0500 (Eastern Standard Time)","Mozilla/5.0 (Windows NT 10.0; WOW64) AppleWebKit/537.36 (KHTML, like Gecko) Chrome/79.0.3945.88 Safari/537.36",28,"[0.9, 0.5, 0.1]","[0.8, 0.4, 0.2]","[u'black', u'red', u'blue']","[u'left', u'middle', u'right']","[0.9, 0.5, 0.1]","[u'medium', u'low', u'high']","black",49,"left","medium","False","False",179,1150,NA
"AJAKX491SGILM","Tue Jan 28 2020 13:48:25 GMT-0500 (Eastern Standard Time)","Tue Jan 28 2020 13:54:56 GMT-0500 (Eastern Standard Time)","Mozilla/5.0 (Windows NT 10.0; WOW64) AppleWebKit/537.36 (KHTML, like Gecko) Chrome/79.0.3945.88 Safari/537.36",29,"[0.9, 0.5, 0.1]","[0.8, 0.4, 0.2]","[u'black', u'red', u'blue']","[u'left', u'middle', u'right']","[0.9, 0.5, 0.1]","[u'medium', u'low', u'high']","black",49,"left","medium","True","False",441,1250,NA
"AJAKX491SGILM","Tue Jan 28 2020 13:48:25 GMT-0500 (Eastern Standard Time)","Tue Jan 28 2020 13:54:56 GMT-0500 (Eastern Standard Time)","Mozilla/5.0 (Windows NT 10.0; WOW64) AppleWebKit/537.36 (KHTML, like Gecko) Chrome/79.0.3945.88 Safari/537.36",30,"[0.9, 0.5, 0.1]","[0.8, 0.4, 0.2]","[u'black', u'red', u'blue']","[u'left', u'middle', u'right']","[0.9, 0.5, 0.1]","[u'medium', u'low', u'high']","black",49,"left","medium","True","False",299,1350,NA
"AJAKX491SGILM","Tue Jan 28 2020 13:48:25 GMT-0500 (Eastern Standard Time)","Tue Jan 28 2020 13:54:56 GMT-0500 (Eastern Standard Time)","Mozilla/5.0 (Windows NT 10.0; WOW64) AppleWebKit/537.36 (KHTML, like Gecko) Chrome/79.0.3945.88 Safari/537.36",31,"[0.9, 0.5, 0.1]","[0.8, 0.4, 0.2]","[u'black', u'red', u'blue']","[u'left', u'middle', u'right']","[0.9, 0.5, 0.1]","[u'medium', u'low', u'high']","black",49,"left","medium","True","False",258,1450,NA
"AJAKX491SGILM","Tue Jan 28 2020 13:48:25 GMT-0500 (Eastern Standard Time)","Tue Jan 28 2020 13:54:56 GMT-0500 (Eastern Standard Time)","Mozilla/5.0 (Windows NT 10.0; WOW64) AppleWebKit/537.36 (KHTML, like Gecko) Chrome/79.0.3945.88 Safari/537.36",32,"[0.9, 0.5, 0.1]","[0.8, 0.4, 0.2]","[u'black', u'red', u'blue']","[u'left', u'middle', u'right']","[0.9, 0.5, 0.1]","[u'medium', u'low', u'high']","black",49,"left","medium","False","False",419,1400,NA
"AJAKX491SGILM","Tue Jan 28 2020 13:48:25 GMT-0500 (Eastern Standard Time)","Tue Jan 28 2020 13:54:56 GMT-0500 (Eastern Standard Time)","Mozilla/5.0 (Windows NT 10.0; WOW64) AppleWebKit/537.36 (KHTML, like Gecko) Chrome/79.0.3945.88 Safari/537.36",33,"[0.9, 0.5, 0.1]","[0.8, 0.4, 0.2]","[u'black', u'red', u'blue']","[u'left', u'middle', u'right']","[0.9, 0.5, 0.1]","[u'medium', u'low', u'high']","red",50,"middle","low","False","False",226,1350,NA
"AJAKX491SGILM","Tue Jan 28 2020 13:48:25 GMT-0500 (Eastern Standard Time)","Tue Jan 28 2020 13:54:56 GMT-0500 (Eastern Standard Time)","Mozilla/5.0 (Windows NT 10.0; WOW64) AppleWebKit/537.36 (KHTML, like Gecko) Chrome/79.0.3945.88 Safari/537.36",34,"[0.9, 0.5, 0.1]","[0.8, 0.4, 0.2]","[u'black', u'red', u'blue']","[u'left', u'middle', u'right']","[0.9, 0.5, 0.1]","[u'medium', u'low', u'high']","black",49,"left","medium","False","False",260,1300,NA
"AJAKX491SGILM","Tue Jan 28 2020 13:48:25 GMT-0500 (Eastern Standard Time)","Tue Jan 28 2020 13:54:56 GMT-0500 (Eastern Standard Time)","Mozilla/5.0 (Windows NT 10.0; WOW64) AppleWebKit/537.36 (KHTML, like Gecko) Chrome/79.0.3945.88 Safari/537.36",35,"[0.9, 0.5, 0.1]","[0.8, 0.4, 0.2]","[u'black', u'red', u'blue']","[u'left', u'middle', u'right']","[0.9, 0.5, 0.1]","[u'medium', u'low', u'high']","black",49,"left","medium","True","False",256,1400,NA
"AJAKX491SGILM","Tue Jan 28 2020 13:48:25 GMT-0500 (Eastern Standard Time)","Tue Jan 28 2020 13:54:56 GMT-0500 (Eastern Standard Time)","Mozilla/5.0 (Windows NT 10.0; WOW64) AppleWebKit/537.36 (KHTML, like Gecko) Chrome/79.0.3945.88 Safari/537.36",36,"[0.9, 0.5, 0.1]","[0.8, 0.4, 0.2]","[u'black', u'red', u'blue']","[u'left', u'middle', u'right']","[0.9, 0.5, 0.1]","[u'medium', u'low', u'high']","black",49,"left","medium","True","False",284,1500,NA
"AJAKX491SGILM","Tue Jan 28 2020 13:48:25 GMT-0500 (Eastern Standard Time)","Tue Jan 28 2020 13:54:56 GMT-0500 (Eastern Standard Time)","Mozilla/5.0 (Windows NT 10.0; WOW64) AppleWebKit/537.36 (KHTML, like Gecko) Chrome/79.0.3945.88 Safari/537.36",37,"[0.9, 0.5, 0.1]","[0.8, 0.4, 0.2]","[u'black', u'red', u'blue']","[u'left', u'middle', u'right']","[0.9, 0.5, 0.1]","[u'medium', u'low', u'high']","black",49,"left","medium","False","False",275,1450,NA
"AJAKX491SGILM","Tue Jan 28 2020 13:48:25 GMT-0500 (Eastern Standard Time)","Tue Jan 28 2020 13:54:56 GMT-0500 (Eastern Standard Time)","Mozilla/5.0 (Windows NT 10.0; WOW64) AppleWebKit/537.36 (KHTML, like Gecko) Chrome/79.0.3945.88 Safari/537.36",38,"[0.9, 0.5, 0.1]","[0.8, 0.4, 0.2]","[u'black', u'red', u'blue']","[u'left', u'middle', u'right']","[0.9, 0.5, 0.1]","[u'medium', u'low', u'high']","black",49,"left","medium","False","False",241,1400,NA
"AJAKX491SGILM","Tue Jan 28 2020 13:48:25 GMT-0500 (Eastern Standard Time)","Tue Jan 28 2020 13:54:56 GMT-0500 (Eastern Standard Time)","Mozilla/5.0 (Windows NT 10.0; WOW64) AppleWebKit/537.36 (KHTML, like Gecko) Chrome/79.0.3945.88 Safari/537.36",39,"[0.9, 0.5, 0.1]","[0.8, 0.4, 0.2]","[u'black', u'red', u'blue']","[u'left', u'middle', u'right']","[0.9, 0.5, 0.1]","[u'medium', u'low', u'high']","black",49,"left","medium","False","False",130,1350,NA
"AJAKX491SGILM","Tue Jan 28 2020 13:48:25 GMT-0500 (Eastern Standard Time)","Tue Jan 28 2020 13:54:56 GMT-0500 (Eastern Standard Time)","Mozilla/5.0 (Windows NT 10.0; WOW64) AppleWebKit/537.36 (KHTML, like Gecko) Chrome/79.0.3945.88 Safari/537.36",40,"[0.9, 0.5, 0.1]","[0.8, 0.4, 0.2]","[u'black', u'red', u'blue']","[u'left', u'middle', u'right']","[0.9, 0.5, 0.1]","[u'medium', u'low', u'high']","black",49,"left","medium","True","False",243,1450,NA
"AJAKX491SGILM","Tue Jan 28 2020 13:48:25 GMT-0500 (Eastern Standard Time)","Tue Jan 28 2020 13:54:56 GMT-0500 (Eastern Standard Time)","Mozilla/5.0 (Windows NT 10.0; WOW64) AppleWebKit/537.36 (KHTML, like Gecko) Chrome/79.0.3945.88 Safari/537.36",41,"[0.9, 0.5, 0.1]","[0.8, 0.4, 0.2]","[u'black', u'red', u'blue']","[u'left', u'middle', u'right']","[0.9, 0.5, 0.1]","[u'high', u'medium', u'low']","blue",51,"right","low","False","False",1258,1400,NA
"AJAKX491SGILM","Tue Jan 28 2020 13:48:25 GMT-0500 (Eastern Standard Time)","Tue Jan 28 2020 13:54:56 GMT-0500 (Eastern Standard Time)","Mozilla/5.0 (Windows NT 10.0; WOW64) AppleWebKit/537.36 (KHTML, like Gecko) Chrome/79.0.3945.88 Safari/537.36",42,"[0.9, 0.5, 0.1]","[0.8, 0.4, 0.2]","[u'black', u'red', u'blue']","[u'left', u'middle', u'right']","[0.9, 0.5, 0.1]","[u'high', u'medium', u'low']","black",49,"left","high","True","False",859,1500,NA
"AJAKX491SGILM","Tue Jan 28 2020 13:48:25 GMT-0500 (Eastern Standard Time)","Tue Jan 28 2020 13:54:56 GMT-0500 (Eastern Standard Time)","Mozilla/5.0 (Windows NT 10.0; WOW64) AppleWebKit/537.36 (KHTML, like Gecko) Chrome/79.0.3945.88 Safari/537.36",43,"[0.9, 0.5, 0.1]","[0.8, 0.4, 0.2]","[u'black', u'red', u'blue']","[u'left', u'middle', u'right']","[0.9, 0.5, 0.1]","[u'high', u'medium', u'low']","black",49,"left","high","True","False",270,1600,NA
"AJAKX491SGILM","Tue Jan 28 2020 13:48:25 GMT-0500 (Eastern Standard Time)","Tue Jan 28 2020 13:54:56 GMT-0500 (Eastern Standard Time)","Mozilla/5.0 (Windows NT 10.0; WOW64) AppleWebKit/537.36 (KHTML, like Gecko) Chrome/79.0.3945.88 Safari/537.36",44,"[0.9, 0.5, 0.1]","[0.8, 0.4, 0.2]","[u'black', u'red', u'blue']","[u'left', u'middle', u'right']","[0.9, 0.5, 0.1]","[u'high', u'medium', u'low']","black",49,"left","high","True","False",239,1700,NA
"AJAKX491SGILM","Tue Jan 28 2020 13:48:25 GMT-0500 (Eastern Standard Time)","Tue Jan 28 2020 13:54:56 GMT-0500 (Eastern Standard Time)","Mozilla/5.0 (Windows NT 10.0; WOW64) AppleWebKit/537.36 (KHTML, like Gecko) Chrome/79.0.3945.88 Safari/537.36",45,"[0.9, 0.5, 0.1]","[0.8, 0.4, 0.2]","[u'black', u'red', u'blue']","[u'left', u'middle', u'right']","[0.9, 0.5, 0.1]","[u'high', u'medium', u'low']","black",49,"left","high","True","False",331,1800,NA
"AJAKX491SGILM","Tue Jan 28 2020 13:48:25 GMT-0500 (Eastern Standard Time)","Tue Jan 28 2020 13:54:56 GMT-0500 (Eastern Standard Time)","Mozilla/5.0 (Windows NT 10.0; WOW64) AppleWebKit/537.36 (KHTML, like Gecko) Chrome/79.0.3945.88 Safari/537.36",46,"[0.9, 0.5, 0.1]","[0.8, 0.4, 0.2]","[u'black', u'red', u'blue']","[u'left', u'middle', u'right']","[0.9, 0.5, 0.1]","[u'high', u'medium', u'low']","black",49,"left","high","True","False",306,1900,NA
"AJAKX491SGILM","Tue Jan 28 2020 13:48:25 GMT-0500 (Eastern Standard Time)","Tue Jan 28 2020 13:54:56 GMT-0500 (Eastern Standard Time)","Mozilla/5.0 (Windows NT 10.0; WOW64) AppleWebKit/537.36 (KHTML, like Gecko) Chrome/79.0.3945.88 Safari/537.36",47,"[0.9, 0.5, 0.1]","[0.8, 0.4, 0.2]","[u'black', u'red', u'blue']","[u'left', u'middle', u'right']","[0.9, 0.5, 0.1]","[u'high', u'medium', u'low']","black",49,"left","high","True","False",257,2000,NA
"AJAKX491SGILM","Tue Jan 28 2020 13:48:25 GMT-0500 (Eastern Standard Time)","Tue Jan 28 2020 13:54:56 GMT-0500 (Eastern Standard Time)","Mozilla/5.0 (Windows NT 10.0; WOW64) AppleWebKit/537.36 (KHTML, like Gecko) Chrome/79.0.3945.88 Safari/537.36",48,"[0.9, 0.5, 0.1]","[0.8, 0.4, 0.2]","[u'black', u'red', u'blue']","[u'left', u'middle', u'right']","[0.9, 0.5, 0.1]","[u'high', u'medium', u'low']","black",49,"left","high","True","False",283,2100,NA
"AJAKX491SGILM","Tue Jan 28 2020 13:48:25 GMT-0500 (Eastern Standard Time)","Tue Jan 28 2020 13:54:56 GMT-0500 (Eastern Standard Time)","Mozilla/5.0 (Windows NT 10.0; WOW64) AppleWebKit/537.36 (KHTML, like Gecko) Chrome/79.0.3945.88 Safari/537.36",49,"[0.9, 0.5, 0.1]","[0.8, 0.4, 0.2]","[u'black', u'red', u'blue']","[u'left', u'middle', u'right']","[0.9, 0.5, 0.1]","[u'high', u'medium', u'low']","black",49,"left","high","True","False",268,2200,NA
"AJAKX491SGILM","Tue Jan 28 2020 13:48:25 GMT-0500 (Eastern Standard Time)","Tue Jan 28 2020 13:54:56 GMT-0500 (Eastern Standard Time)","Mozilla/5.0 (Windows NT 10.0; WOW64) AppleWebKit/537.36 (KHTML, like Gecko) Chrome/79.0.3945.88 Safari/537.36",50,"[0.9, 0.5, 0.1]","[0.8, 0.4, 0.2]","[u'black', u'red', u'blue']","[u'left', u'middle', u'right']","[0.9, 0.5, 0.1]","[u'high', u'medium', u'low']","black",49,"left","high","True","True",290,2300,NA
"AJAKX491SGILM","Tue Jan 28 2020 13:48:25 GMT-0500 (Eastern Standard Time)","Tue Jan 28 2020 13:54:56 GMT-0500 (Eastern Standard Time)","Mozilla/5.0 (Windows NT 10.0; WOW64) AppleWebKit/537.36 (KHTML, like Gecko) Chrome/79.0.3945.88 Safari/537.36",51,"[0.9, 0.5, 0.1]","[0.8, 0.4, 0.2]","[u'black', u'red', u'blue']","[u'left', u'middle', u'right']","[0.9, 0.5, 0.1]","[u'low', u'medium', u'high']","black",49,"left","low","False","False",275,2250,NA
"AJAKX491SGILM","Tue Jan 28 2020 13:48:25 GMT-0500 (Eastern Standard Time)","Tue Jan 28 2020 13:54:56 GMT-0500 (Eastern Standard Time)","Mozilla/5.0 (Windows NT 10.0; WOW64) AppleWebKit/537.36 (KHTML, like Gecko) Chrome/79.0.3945.88 Safari/537.36",52,"[0.9, 0.5, 0.1]","[0.8, 0.4, 0.2]","[u'black', u'red', u'blue']","[u'left', u'middle', u'right']","[0.9, 0.5, 0.1]","[u'low', u'medium', u'high']","black",49,"left","low","False","False",283,2200,NA
"AJAKX491SGILM","Tue Jan 28 2020 13:48:25 GMT-0500 (Eastern Standard Time)","Tue Jan 28 2020 13:54:56 GMT-0500 (Eastern Standard Time)","Mozilla/5.0 (Windows NT 10.0; WOW64) AppleWebKit/537.36 (KHTML, like Gecko) Chrome/79.0.3945.88 Safari/537.36",53,"[0.9, 0.5, 0.1]","[0.8, 0.4, 0.2]","[u'black', u'red', u'blue']","[u'left', u'middle', u'right']","[0.9, 0.5, 0.1]","[u'low', u'medium', u'high']","black",49,"left","low","False","False",283,2150,NA
"AJAKX491SGILM","Tue Jan 28 2020 13:48:25 GMT-0500 (Eastern Standard Time)","Tue Jan 28 2020 13:54:56 GMT-0500 (Eastern Standard Time)","Mozilla/5.0 (Windows NT 10.0; WOW64) AppleWebKit/537.36 (KHTML, like Gecko) Chrome/79.0.3945.88 Safari/537.36",54,"[0.9, 0.5, 0.1]","[0.8, 0.4, 0.2]","[u'black', u'red', u'blue']","[u'left', u'middle', u'right']","[0.9, 0.5, 0.1]","[u'low', u'medium', u'high']","black",49,"left","low","False","False",371,2100,NA
"AJAKX491SGILM","Tue Jan 28 2020 13:48:25 GMT-0500 (Eastern Standard Time)","Tue Jan 28 2020 13:54:56 GMT-0500 (Eastern Standard Time)","Mozilla/5.0 (Windows NT 10.0; WOW64) AppleWebKit/537.36 (KHTML, like Gecko) Chrome/79.0.3945.88 Safari/537.36",55,"[0.9, 0.5, 0.1]","[0.8, 0.4, 0.2]","[u'black', u'red', u'blue']","[u'left', u'middle', u'right']","[0.9, 0.5, 0.1]","[u'low', u'medium', u'high']","blue",51,"right","high","True","False",347,2200,NA
"AJAKX491SGILM","Tue Jan 28 2020 13:48:25 GMT-0500 (Eastern Standard Time)","Tue Jan 28 2020 13:54:56 GMT-0500 (Eastern Standard Time)","Mozilla/5.0 (Windows NT 10.0; WOW64) AppleWebKit/537.36 (KHTML, like Gecko) Chrome/79.0.3945.88 Safari/537.36",56,"[0.9, 0.5, 0.1]","[0.8, 0.4, 0.2]","[u'black', u'red', u'blue']","[u'left', u'middle', u'right']","[0.9, 0.5, 0.1]","[u'low', u'medium', u'high']","blue",51,"right","high","True","False",234,2300,NA
"AJAKX491SGILM","Tue Jan 28 2020 13:48:25 GMT-0500 (Eastern Standard Time)","Tue Jan 28 2020 13:54:56 GMT-0500 (Eastern Standard Time)","Mozilla/5.0 (Windows NT 10.0; WOW64) AppleWebKit/537.36 (KHTML, like Gecko) Chrome/79.0.3945.88 Safari/537.36",57,"[0.9, 0.5, 0.1]","[0.8, 0.4, 0.2]","[u'black', u'red', u'blue']","[u'left', u'middle', u'right']","[0.9, 0.5, 0.1]","[u'low', u'medium', u'high']","blue",51,"right","high","True","False",266,2400,NA
"AJAKX491SGILM","Tue Jan 28 2020 13:48:25 GMT-0500 (Eastern Standard Time)","Tue Jan 28 2020 13:54:56 GMT-0500 (Eastern Standard Time)","Mozilla/5.0 (Windows NT 10.0; WOW64) AppleWebKit/537.36 (KHTML, like Gecko) Chrome/79.0.3945.88 Safari/537.36",58,"[0.9, 0.5, 0.1]","[0.8, 0.4, 0.2]","[u'black', u'red', u'blue']","[u'left', u'middle', u'right']","[0.9, 0.5, 0.1]","[u'low', u'medium', u'high']","blue",51,"right","high","True","False",346,2500,NA
"AJAKX491SGILM","Tue Jan 28 2020 13:48:25 GMT-0500 (Eastern Standard Time)","Tue Jan 28 2020 13:54:56 GMT-0500 (Eastern Standard Time)","Mozilla/5.0 (Windows NT 10.0; WOW64) AppleWebKit/537.36 (KHTML, like Gecko) Chrome/79.0.3945.88 Safari/537.36",59,"[0.9, 0.5, 0.1]","[0.8, 0.4, 0.2]","[u'black', u'red', u'blue']","[u'left', u'middle', u'right']","[0.9, 0.5, 0.1]","[u'low', u'medium', u'high']","blue",51,"right","high","True","False",290,2600,NA
"AJAKX491SGILM","Tue Jan 28 2020 13:48:25 GMT-0500 (Eastern Standard Time)","Tue Jan 28 2020 13:54:56 GMT-0500 (Eastern Standard Time)","Mozilla/5.0 (Windows NT 10.0; WOW64) AppleWebKit/537.36 (KHTML, like Gecko) Chrome/79.0.3945.88 Safari/537.36",60,"[0.9, 0.5, 0.1]","[0.8, 0.4, 0.2]","[u'black', u'red', u'blue']","[u'left', u'middle', u'right']","[0.9, 0.5, 0.1]","[u'low', u'medium', u'high']","blue",51,"right","high","True","False",307,2700,NA
"AJAKX491SGILM","Tue Jan 28 2020 13:48:25 GMT-0500 (Eastern Standard Time)","Tue Jan 28 2020 13:54:56 GMT-0500 (Eastern Standard Time)","Mozilla/5.0 (Windows NT 10.0; WOW64) AppleWebKit/537.36 (KHTML, like Gecko) Chrome/79.0.3945.88 Safari/537.36",61,"[0.9, 0.5, 0.1]","[0.8, 0.4, 0.2]","[u'black', u'red', u'blue']","[u'left', u'middle', u'right']","[0.9, 0.5, 0.1]","[u'low', u'medium', u'high']","blue",51,"right","high","True","False",306,2800,NA
"AJAKX491SGILM","Tue Jan 28 2020 13:48:25 GMT-0500 (Eastern Standard Time)","Tue Jan 28 2020 13:54:56 GMT-0500 (Eastern Standard Time)","Mozilla/5.0 (Windows NT 10.0; WOW64) AppleWebKit/537.36 (KHTML, like Gecko) Chrome/79.0.3945.88 Safari/537.36",62,"[0.9, 0.5, 0.1]","[0.8, 0.4, 0.2]","[u'black', u'red', u'blue']","[u'left', u'middle', u'right']","[0.9, 0.5, 0.1]","[u'low', u'medium', u'high']","blue",51,"right","high","True","False",282,2900,NA
"AJAKX491SGILM","Tue Jan 28 2020 13:48:25 GMT-0500 (Eastern Standard Time)","Tue Jan 28 2020 13:54:56 GMT-0500 (Eastern Standard Time)","Mozilla/5.0 (Windows NT 10.0; WOW64) AppleWebKit/537.36 (KHTML, like Gecko) Chrome/79.0.3945.88 Safari/537.36",63,"[0.9, 0.5, 0.1]","[0.8, 0.4, 0.2]","[u'black', u'red', u'blue']","[u'left', u'middle', u'right']","[0.9, 0.5, 0.1]","[u'low', u'medium', u'high']","blue",51,"right","high","True","True",282,3000,NA
"AJAKX491SGILM","Tue Jan 28 2020 13:48:25 GMT-0500 (Eastern Standard Time)","Tue Jan 28 2020 13:54:56 GMT-0500 (Eastern Standard Time)","Mozilla/5.0 (Windows NT 10.0; WOW64) AppleWebKit/537.36 (KHTML, like Gecko) Chrome/79.0.3945.88 Safari/537.36",64,"[0.9, 0.5, 0.1]","[0.8, 0.4, 0.2]","[u'black', u'red', u'blue']","[u'left', u'middle', u'right']","[0.9, 0.5, 0.1]","[u'high', u'medium', u'low']","blue",51,"right","low","False","False",266,2950,NA
"AJAKX491SGILM","Tue Jan 28 2020 13:48:25 GMT-0500 (Eastern Standard Time)","Tue Jan 28 2020 13:54:56 GMT-0500 (Eastern Standard Time)","Mozilla/5.0 (Windows NT 10.0; WOW64) AppleWebKit/537.36 (KHTML, like Gecko) Chrome/79.0.3945.88 Safari/537.36",65,"[0.9, 0.5, 0.1]","[0.8, 0.4, 0.2]","[u'black', u'red', u'blue']","[u'left', u'middle', u'right']","[0.9, 0.5, 0.1]","[u'high', u'medium', u'low']","blue",51,"right","low","False","False",507,2900,NA
"AJAKX491SGILM","Tue Jan 28 2020 13:48:25 GMT-0500 (Eastern Standard Time)","Tue Jan 28 2020 13:54:56 GMT-0500 (Eastern Standard Time)","Mozilla/5.0 (Windows NT 10.0; WOW64) AppleWebKit/537.36 (KHTML, like Gecko) Chrome/79.0.3945.88 Safari/537.36",66,"[0.9, 0.5, 0.1]","[0.8, 0.4, 0.2]","[u'black', u'red', u'blue']","[u'left', u'middle', u'right']","[0.9, 0.5, 0.1]","[u'high', u'medium', u'low']","black",49,"left","high","True","False",242,3000,NA
"AJAKX491SGILM","Tue Jan 28 2020 13:48:25 GMT-0500 (Eastern Standard Time)","Tue Jan 28 2020 13:54:56 GMT-0500 (Eastern Standard Time)","Mozilla/5.0 (Windows NT 10.0; WOW64) AppleWebKit/537.36 (KHTML, like Gecko) Chrome/79.0.3945.88 Safari/537.36",67,"[0.9, 0.5, 0.1]","[0.8, 0.4, 0.2]","[u'black', u'red', u'blue']","[u'left', u'middle', u'right']","[0.9, 0.5, 0.1]","[u'high', u'medium', u'low']","black",49,"left","high","True","False",219,3100,NA
"AJAKX491SGILM","Tue Jan 28 2020 13:48:25 GMT-0500 (Eastern Standard Time)","Tue Jan 28 2020 13:54:56 GMT-0500 (Eastern Standard Time)","Mozilla/5.0 (Windows NT 10.0; WOW64) AppleWebKit/537.36 (KHTML, like Gecko) Chrome/79.0.3945.88 Safari/537.36",68,"[0.9, 0.5, 0.1]","[0.8, 0.4, 0.2]","[u'black', u'red', u'blue']","[u'left', u'middle', u'right']","[0.9, 0.5, 0.1]","[u'high', u'medium', u'low']","black",49,"left","high","True","False",250,3200,NA
"AJAKX491SGILM","Tue Jan 28 2020 13:48:25 GMT-0500 (Eastern Standard Time)","Tue Jan 28 2020 13:54:56 GMT-0500 (Eastern Standard Time)","Mozilla/5.0 (Windows NT 10.0; WOW64) AppleWebKit/537.36 (KHTML, like Gecko) Chrome/79.0.3945.88 Safari/537.36",69,"[0.9, 0.5, 0.1]","[0.8, 0.4, 0.2]","[u'black', u'red', u'blue']","[u'left', u'middle', u'right']","[0.9, 0.5, 0.1]","[u'high', u'medium', u'low']","black",49,"left","high","True","False",211,3300,NA
"AJAKX491SGILM","Tue Jan 28 2020 13:48:25 GMT-0500 (Eastern Standard Time)","Tue Jan 28 2020 13:54:56 GMT-0500 (Eastern Standard Time)","Mozilla/5.0 (Windows NT 10.0; WOW64) AppleWebKit/537.36 (KHTML, like Gecko) Chrome/79.0.3945.88 Safari/537.36",70,"[0.9, 0.5, 0.1]","[0.8, 0.4, 0.2]","[u'black', u'red', u'blue']","[u'left', u'middle', u'right']","[0.9, 0.5, 0.1]","[u'high', u'medium', u'low']","black",49,"left","high","True","False",155,3400,NA
"AJAKX491SGILM","Tue Jan 28 2020 13:48:25 GMT-0500 (Eastern Standard Time)","Tue Jan 28 2020 13:54:56 GMT-0500 (Eastern Standard Time)","Mozilla/5.0 (Windows NT 10.0; WOW64) AppleWebKit/537.36 (KHTML, like Gecko) Chrome/79.0.3945.88 Safari/537.36",71,"[0.9, 0.5, 0.1]","[0.8, 0.4, 0.2]","[u'black', u'red', u'blue']","[u'left', u'middle', u'right']","[0.9, 0.5, 0.1]","[u'high', u'medium', u'low']","black",49,"left","high","True","False",186,3500,NA
"AJAKX491SGILM","Tue Jan 28 2020 13:48:25 GMT-0500 (Eastern Standard Time)","Tue Jan 28 2020 13:54:56 GMT-0500 (Eastern Standard Time)","Mozilla/5.0 (Windows NT 10.0; WOW64) AppleWebKit/537.36 (KHTML, like Gecko) Chrome/79.0.3945.88 Safari/537.36",72,"[0.9, 0.5, 0.1]","[0.8, 0.4, 0.2]","[u'black', u'red', u'blue']","[u'left', u'middle', u'right']","[0.9, 0.5, 0.1]","[u'high', u'medium', u'low']","black",49,"left","high","True","False",266,3600,NA
"AJAKX491SGILM","Tue Jan 28 2020 13:48:25 GMT-0500 (Eastern Standard Time)","Tue Jan 28 2020 13:54:56 GMT-0500 (Eastern Standard Time)","Mozilla/5.0 (Windows NT 10.0; WOW64) AppleWebKit/537.36 (KHTML, like Gecko) Chrome/79.0.3945.88 Safari/537.36",73,"[0.9, 0.5, 0.1]","[0.8, 0.4, 0.2]","[u'black', u'red', u'blue']","[u'left', u'middle', u'right']","[0.9, 0.5, 0.1]","[u'high', u'medium', u'low']","black",49,"left","high","True","False",331,3700,NA
"AJAKX491SGILM","Tue Jan 28 2020 13:48:25 GMT-0500 (Eastern Standard Time)","Tue Jan 28 2020 13:54:56 GMT-0500 (Eastern Standard Time)","Mozilla/5.0 (Windows NT 10.0; WOW64) AppleWebKit/537.36 (KHTML, like Gecko) Chrome/79.0.3945.88 Safari/537.36",74,"[0.9, 0.5, 0.1]","[0.8, 0.4, 0.2]","[u'black', u'red', u'blue']","[u'left', u'middle', u'right']","[0.9, 0.5, 0.1]","[u'high', u'medium', u'low']","black",49,"left","high","True","True",297,3800,NA
"AJAKX491SGILM","Tue Jan 28 2020 13:48:25 GMT-0500 (Eastern Standard Time)","Tue Jan 28 2020 13:54:56 GMT-0500 (Eastern Standard Time)","Mozilla/5.0 (Windows NT 10.0; WOW64) AppleWebKit/537.36 (KHTML, like Gecko) Chrome/79.0.3945.88 Safari/537.36",75,"[0.9, 0.5, 0.1]","[0.8, 0.4, 0.2]","[u'black', u'red', u'blue']","[u'left', u'middle', u'right']","[0.9, 0.5, 0.1]","[u'medium', u'low', u'high']","black",49,"left","medium","False","False",299,3750,NA
"AJAKX491SGILM","Tue Jan 28 2020 13:48:25 GMT-0500 (Eastern Standard Time)","Tue Jan 28 2020 13:54:56 GMT-0500 (Eastern Standard Time)","Mozilla/5.0 (Windows NT 10.0; WOW64) AppleWebKit/537.36 (KHTML, like Gecko) Chrome/79.0.3945.88 Safari/537.36",76,"[0.9, 0.5, 0.1]","[0.8, 0.4, 0.2]","[u'black', u'red', u'blue']","[u'left', u'middle', u'right']","[0.9, 0.5, 0.1]","[u'medium', u'low', u'high']","blue",51,"right","high","True","False",267,3850,NA
"AJAKX491SGILM","Tue Jan 28 2020 13:48:25 GMT-0500 (Eastern Standard Time)","Tue Jan 28 2020 13:54:56 GMT-0500 (Eastern Standard Time)","Mozilla/5.0 (Windows NT 10.0; WOW64) AppleWebKit/537.36 (KHTML, like Gecko) Chrome/79.0.3945.88 Safari/537.36",77,"[0.9, 0.5, 0.1]","[0.8, 0.4, 0.2]","[u'black', u'red', u'blue']","[u'left', u'middle', u'right']","[0.9, 0.5, 0.1]","[u'medium', u'low', u'high']","blue",51,"right","high","True","False",234,3950,NA
"AJAKX491SGILM","Tue Jan 28 2020 13:48:25 GMT-0500 (Eastern Standard Time)","Tue Jan 28 2020 13:54:56 GMT-0500 (Eastern Standard Time)","Mozilla/5.0 (Windows NT 10.0; WOW64) AppleWebKit/537.36 (KHTML, like Gecko) Chrome/79.0.3945.88 Safari/537.36",78,"[0.9, 0.5, 0.1]","[0.8, 0.4, 0.2]","[u'black', u'red', u'blue']","[u'left', u'middle', u'right']","[0.9, 0.5, 0.1]","[u'medium', u'low', u'high']","blue",51,"right","high","True","False",227,4050,NA
"AJAKX491SGILM","Tue Jan 28 2020 13:48:25 GMT-0500 (Eastern Standard Time)","Tue Jan 28 2020 13:54:56 GMT-0500 (Eastern Standard Time)","Mozilla/5.0 (Windows NT 10.0; WOW64) AppleWebKit/537.36 (KHTML, like Gecko) Chrome/79.0.3945.88 Safari/537.36",79,"[0.9, 0.5, 0.1]","[0.8, 0.4, 0.2]","[u'black', u'red', u'blue']","[u'left', u'middle', u'right']","[0.9, 0.5, 0.1]","[u'medium', u'low', u'high']","blue",51,"right","high","True","False",227,4150,NA
"AJAKX491SGILM","Tue Jan 28 2020 13:48:25 GMT-0500 (Eastern Standard Time)","Tue Jan 28 2020 13:54:56 GMT-0500 (Eastern Standard Time)","Mozilla/5.0 (Windows NT 10.0; WOW64) AppleWebKit/537.36 (KHTML, like Gecko) Chrome/79.0.3945.88 Safari/537.36",80,"[0.9, 0.5, 0.1]","[0.8, 0.4, 0.2]","[u'black', u'red', u'blue']","[u'left', u'middle', u'right']","[0.9, 0.5, 0.1]","[u'medium', u'low', u'high']","blue",51,"right","high","True","False",131,4250,NA
"AJAKX491SGILM","Tue Jan 28 2020 13:48:25 GMT-0500 (Eastern Standard Time)","Tue Jan 28 2020 13:54:56 GMT-0500 (Eastern Standard Time)","Mozilla/5.0 (Windows NT 10.0; WOW64) AppleWebKit/537.36 (KHTML, like Gecko) Chrome/79.0.3945.88 Safari/537.36",81,"[0.9, 0.5, 0.1]","[0.8, 0.4, 0.2]","[u'black', u'red', u'blue']","[u'left', u'middle', u'right']","[0.8, 0.4, 0.2]","[u'high', u'medium', u'low']","black",49,"left","high","True","False",307,4350,NA
"AJAKX491SGILM","Tue Jan 28 2020 13:48:25 GMT-0500 (Eastern Standard Time)","Tue Jan 28 2020 13:54:56 GMT-0500 (Eastern Standard Time)","Mozilla/5.0 (Windows NT 10.0; WOW64) AppleWebKit/537.36 (KHTML, like Gecko) Chrome/79.0.3945.88 Safari/537.36",82,"[0.9, 0.5, 0.1]","[0.8, 0.4, 0.2]","[u'black', u'red', u'blue']","[u'left', u'middle', u'right']","[0.8, 0.4, 0.2]","[u'high', u'medium', u'low']","black",49,"left","high","True","False",387,4450,NA
"AJAKX491SGILM","Tue Jan 28 2020 13:48:25 GMT-0500 (Eastern Standard Time)","Tue Jan 28 2020 13:54:56 GMT-0500 (Eastern Standard Time)","Mozilla/5.0 (Windows NT 10.0; WOW64) AppleWebKit/537.36 (KHTML, like Gecko) Chrome/79.0.3945.88 Safari/537.36",83,"[0.9, 0.5, 0.1]","[0.8, 0.4, 0.2]","[u'black', u'red', u'blue']","[u'left', u'middle', u'right']","[0.8, 0.4, 0.2]","[u'high', u'medium', u'low']","black",49,"left","high","True","False",299,4550,NA
"AJAKX491SGILM","Tue Jan 28 2020 13:48:25 GMT-0500 (Eastern Standard Time)","Tue Jan 28 2020 13:54:56 GMT-0500 (Eastern Standard Time)","Mozilla/5.0 (Windows NT 10.0; WOW64) AppleWebKit/537.36 (KHTML, like Gecko) Chrome/79.0.3945.88 Safari/537.36",84,"[0.9, 0.5, 0.1]","[0.8, 0.4, 0.2]","[u'black', u'red', u'blue']","[u'left', u'middle', u'right']","[0.8, 0.4, 0.2]","[u'high', u'medium', u'low']","black",49,"left","high","True","False",258,4650,NA
"AJAKX491SGILM","Tue Jan 28 2020 13:48:25 GMT-0500 (Eastern Standard Time)","Tue Jan 28 2020 13:54:56 GMT-0500 (Eastern Standard Time)","Mozilla/5.0 (Windows NT 10.0; WOW64) AppleWebKit/537.36 (KHTML, like Gecko) Chrome/79.0.3945.88 Safari/537.36",85,"[0.9, 0.5, 0.1]","[0.8, 0.4, 0.2]","[u'black', u'red', u'blue']","[u'left', u'middle', u'right']","[0.8, 0.4, 0.2]","[u'high', u'medium', u'low']","black",49,"left","high","False","False",267,4600,NA
"AJAKX491SGILM","Tue Jan 28 2020 13:48:25 GMT-0500 (Eastern Standard Time)","Tue Jan 28 2020 13:54:56 GMT-0500 (Eastern Standard Time)","Mozilla/5.0 (Windows NT 10.0; WOW64) AppleWebKit/537.36 (KHTML, like Gecko) Chrome/79.0.3945.88 Safari/537.36",86,"[0.9, 0.5, 0.1]","[0.8, 0.4, 0.2]","[u'black', u'red', u'blue']","[u'left', u'middle', u'right']","[0.8, 0.4, 0.2]","[u'high', u'medium', u'low']","blue",51,"right","low","False","False",235,4550,NA
"AJAKX491SGILM","Tue Jan 28 2020 13:48:25 GMT-0500 (Eastern Standard Time)","Tue Jan 28 2020 13:54:56 GMT-0500 (Eastern Standard Time)","Mozilla/5.0 (Windows NT 10.0; WOW64) AppleWebKit/537.36 (KHTML, like Gecko) Chrome/79.0.3945.88 Safari/537.36",87,"[0.9, 0.5, 0.1]","[0.8, 0.4, 0.2]","[u'black', u'red', u'blue']","[u'left', u'middle', u'right']","[0.8, 0.4, 0.2]","[u'high', u'medium', u'low']","black",49,"left","high","True","False",571,4650,NA
"AJAKX491SGILM","Tue Jan 28 2020 13:48:25 GMT-0500 (Eastern Standard Time)","Tue Jan 28 2020 13:54:56 GMT-0500 (Eastern Standard Time)","Mozilla/5.0 (Windows NT 10.0; WOW64) AppleWebKit/537.36 (KHTML, like Gecko) Chrome/79.0.3945.88 Safari/537.36",88,"[0.9, 0.5, 0.1]","[0.8, 0.4, 0.2]","[u'black', u'red', u'blue']","[u'left', u'middle', u'right']","[0.8, 0.4, 0.2]","[u'high', u'medium', u'low']","black",49,"left","high","True","False",211,4750,NA
"AJAKX491SGILM","Tue Jan 28 2020 13:48:25 GMT-0500 (Eastern Standard Time)","Tue Jan 28 2020 13:54:56 GMT-0500 (Eastern Standard Time)","Mozilla/5.0 (Windows NT 10.0; WOW64) AppleWebKit/537.36 (KHTML, like Gecko) Chrome/79.0.3945.88 Safari/537.36",89,"[0.9, 0.5, 0.1]","[0.8, 0.4, 0.2]","[u'black', u'red', u'blue']","[u'left', u'middle', u'right']","[0.8, 0.4, 0.2]","[u'high', u'medium', u'low']","black",49,"left","high","True","False",237,4850,NA
"AJAKX491SGILM","Tue Jan 28 2020 13:48:25 GMT-0500 (Eastern Standard Time)","Tue Jan 28 2020 13:54:56 GMT-0500 (Eastern Standard Time)","Mozilla/5.0 (Windows NT 10.0; WOW64) AppleWebKit/537.36 (KHTML, like Gecko) Chrome/79.0.3945.88 Safari/537.36",90,"[0.9, 0.5, 0.1]","[0.8, 0.4, 0.2]","[u'black', u'red', u'blue']","[u'left', u'middle', u'right']","[0.8, 0.4, 0.2]","[u'high', u'medium', u'low']","black",49,"left","high","False","True",258,4800,NA
"AJAKX491SGILM","Tue Jan 28 2020 13:48:25 GMT-0500 (Eastern Standard Time)","Tue Jan 28 2020 13:54:56 GMT-0500 (Eastern Standard Time)","Mozilla/5.0 (Windows NT 10.0; WOW64) AppleWebKit/537.36 (KHTML, like Gecko) Chrome/79.0.3945.88 Safari/537.36",91,"[0.9, 0.5, 0.1]","[0.8, 0.4, 0.2]","[u'black', u'red', u'blue']","[u'left', u'middle', u'right']","[0.8, 0.4, 0.2]","[u'medium', u'low', u'high']","blue",51,"right","high","True","False",251,4900,NA
"AJAKX491SGILM","Tue Jan 28 2020 13:48:25 GMT-0500 (Eastern Standard Time)","Tue Jan 28 2020 13:54:56 GMT-0500 (Eastern Standard Time)","Mozilla/5.0 (Windows NT 10.0; WOW64) AppleWebKit/537.36 (KHTML, like Gecko) Chrome/79.0.3945.88 Safari/537.36",92,"[0.9, 0.5, 0.1]","[0.8, 0.4, 0.2]","[u'black', u'red', u'blue']","[u'left', u'middle', u'right']","[0.8, 0.4, 0.2]","[u'medium', u'low', u'high']","blue",51,"right","high","True","False",180,5000,NA
"AJAKX491SGILM","Tue Jan 28 2020 13:48:25 GMT-0500 (Eastern Standard Time)","Tue Jan 28 2020 13:54:56 GMT-0500 (Eastern Standard Time)","Mozilla/5.0 (Windows NT 10.0; WOW64) AppleWebKit/537.36 (KHTML, like Gecko) Chrome/79.0.3945.88 Safari/537.36",93,"[0.9, 0.5, 0.1]","[0.8, 0.4, 0.2]","[u'black', u'red', u'blue']","[u'left', u'middle', u'right']","[0.8, 0.4, 0.2]","[u'medium', u'low', u'high']","blue",51,"right","high","True","False",273,5100,NA
"AJAKX491SGILM","Tue Jan 28 2020 13:48:25 GMT-0500 (Eastern Standard Time)","Tue Jan 28 2020 13:54:56 GMT-0500 (Eastern Standard Time)","Mozilla/5.0 (Windows NT 10.0; WOW64) AppleWebKit/537.36 (KHTML, like Gecko) Chrome/79.0.3945.88 Safari/537.36",94,"[0.9, 0.5, 0.1]","[0.8, 0.4, 0.2]","[u'black', u'red', u'blue']","[u'left', u'middle', u'right']","[0.8, 0.4, 0.2]","[u'medium', u'low', u'high']","blue",51,"right","high","True","False",307,5200,NA
"AJAKX491SGILM","Tue Jan 28 2020 13:48:25 GMT-0500 (Eastern Standard Time)","Tue Jan 28 2020 13:54:56 GMT-0500 (Eastern Standard Time)","Mozilla/5.0 (Windows NT 10.0; WOW64) AppleWebKit/537.36 (KHTML, like Gecko) Chrome/79.0.3945.88 Safari/537.36",95,"[0.9, 0.5, 0.1]","[0.8, 0.4, 0.2]","[u'black', u'red', u'blue']","[u'left', u'middle', u'right']","[0.8, 0.4, 0.2]","[u'medium', u'low', u'high']","blue",51,"right","high","True","False",275,5300,NA
"AJAKX491SGILM","Tue Jan 28 2020 13:48:25 GMT-0500 (Eastern Standard Time)","Tue Jan 28 2020 13:54:56 GMT-0500 (Eastern Standard Time)","Mozilla/5.0 (Windows NT 10.0; WOW64) AppleWebKit/537.36 (KHTML, like Gecko) Chrome/79.0.3945.88 Safari/537.36",96,"[0.9, 0.5, 0.1]","[0.8, 0.4, 0.2]","[u'black', u'red', u'blue']","[u'left', u'middle', u'right']","[0.8, 0.4, 0.2]","[u'medium', u'low', u'high']","blue",51,"right","high","True","False",307,5400,NA
"AJAKX491SGILM","Tue Jan 28 2020 13:48:25 GMT-0500 (Eastern Standard Time)","Tue Jan 28 2020 13:54:56 GMT-0500 (Eastern Standard Time)","Mozilla/5.0 (Windows NT 10.0; WOW64) AppleWebKit/537.36 (KHTML, like Gecko) Chrome/79.0.3945.88 Safari/537.36",97,"[0.9, 0.5, 0.1]","[0.8, 0.4, 0.2]","[u'black', u'red', u'blue']","[u'left', u'middle', u'right']","[0.8, 0.4, 0.2]","[u'medium', u'low', u'high']","blue",51,"right","high","True","False",266,5500,NA
"AJAKX491SGILM","Tue Jan 28 2020 13:48:25 GMT-0500 (Eastern Standard Time)","Tue Jan 28 2020 13:54:56 GMT-0500 (Eastern Standard Time)","Mozilla/5.0 (Windows NT 10.0; WOW64) AppleWebKit/537.36 (KHTML, like Gecko) Chrome/79.0.3945.88 Safari/537.36",98,"[0.9, 0.5, 0.1]","[0.8, 0.4, 0.2]","[u'black', u'red', u'blue']","[u'left', u'middle', u'right']","[0.8, 0.4, 0.2]","[u'medium', u'low', u'high']","blue",51,"right","high","True","False",292,5600,NA
"AJAKX491SGILM","Tue Jan 28 2020 13:48:25 GMT-0500 (Eastern Standard Time)","Tue Jan 28 2020 13:54:56 GMT-0500 (Eastern Standard Time)","Mozilla/5.0 (Windows NT 10.0; WOW64) AppleWebKit/537.36 (KHTML, like Gecko) Chrome/79.0.3945.88 Safari/537.36",99,"[0.9, 0.5, 0.1]","[0.8, 0.4, 0.2]","[u'black', u'red', u'blue']","[u'left', u'middle', u'right']","[0.8, 0.4, 0.2]","[u'medium', u'low', u'high']","blue",51,"right","high","True","True",243,5700,NA
"AJAKX491SGILM","Tue Jan 28 2020 13:48:25 GMT-0500 (Eastern Standard Time)","Tue Jan 28 2020 13:54:56 GMT-0500 (Eastern Standard Time)","Mozilla/5.0 (Windows NT 10.0; WOW64) AppleWebKit/537.36 (KHTML, like Gecko) Chrome/79.0.3945.88 Safari/537.36",100,"[0.9, 0.5, 0.1]","[0.8, 0.4, 0.2]","[u'black', u'red', u'blue']","[u'left', u'middle', u'right']","[0.8, 0.4, 0.2]","[u'medium', u'high', u'low']","blue",51,"right","low","True","False",251,5800,NA
"AJAKX491SGILM","Tue Jan 28 2020 13:48:25 GMT-0500 (Eastern Standard Time)","Tue Jan 28 2020 13:54:56 GMT-0500 (Eastern Standard Time)","Mozilla/5.0 (Windows NT 10.0; WOW64) AppleWebKit/537.36 (KHTML, like Gecko) Chrome/79.0.3945.88 Safari/537.36",101,"[0.9, 0.5, 0.1]","[0.8, 0.4, 0.2]","[u'black', u'red', u'blue']","[u'left', u'middle', u'right']","[0.8, 0.4, 0.2]","[u'medium', u'high', u'low']","blue",51,"right","low","False","False",316,5750,NA
"AJAKX491SGILM","Tue Jan 28 2020 13:48:25 GMT-0500 (Eastern Standard Time)","Tue Jan 28 2020 13:54:56 GMT-0500 (Eastern Standard Time)","Mozilla/5.0 (Windows NT 10.0; WOW64) AppleWebKit/537.36 (KHTML, like Gecko) Chrome/79.0.3945.88 Safari/537.36",102,"[0.9, 0.5, 0.1]","[0.8, 0.4, 0.2]","[u'black', u'red', u'blue']","[u'left', u'middle', u'right']","[0.8, 0.4, 0.2]","[u'medium', u'high', u'low']","black",49,"left","medium","False","False",227,5700,NA
"AJAKX491SGILM","Tue Jan 28 2020 13:48:25 GMT-0500 (Eastern Standard Time)","Tue Jan 28 2020 13:54:56 GMT-0500 (Eastern Standard Time)","Mozilla/5.0 (Windows NT 10.0; WOW64) AppleWebKit/537.36 (KHTML, like Gecko) Chrome/79.0.3945.88 Safari/537.36",103,"[0.9, 0.5, 0.1]","[0.8, 0.4, 0.2]","[u'black', u'red', u'blue']","[u'left', u'middle', u'right']","[0.8, 0.4, 0.2]","[u'medium', u'high', u'low']","blue",51,"right","low","False","False",163,5650,NA
"AJAKX491SGILM","Tue Jan 28 2020 13:48:25 GMT-0500 (Eastern Standard Time)","Tue Jan 28 2020 13:54:56 GMT-0500 (Eastern Standard Time)","Mozilla/5.0 (Windows NT 10.0; WOW64) AppleWebKit/537.36 (KHTML, like Gecko) Chrome/79.0.3945.88 Safari/537.36",104,"[0.9, 0.5, 0.1]","[0.8, 0.4, 0.2]","[u'black', u'red', u'blue']","[u'left', u'middle', u'right']","[0.8, 0.4, 0.2]","[u'medium', u'high', u'low']","black",49,"left","medium","True","False",322,5750,NA
"AJAKX491SGILM","Tue Jan 28 2020 13:48:25 GMT-0500 (Eastern Standard Time)","Tue Jan 28 2020 13:54:56 GMT-0500 (Eastern Standard Time)","Mozilla/5.0 (Windows NT 10.0; WOW64) AppleWebKit/537.36 (KHTML, like Gecko) Chrome/79.0.3945.88 Safari/537.36",105,"[0.9, 0.5, 0.1]","[0.8, 0.4, 0.2]","[u'black', u'red', u'blue']","[u'left', u'middle', u'right']","[0.8, 0.4, 0.2]","[u'medium', u'high', u'low']","black",49,"left","medium","False","False",274,5700,NA
"AJAKX491SGILM","Tue Jan 28 2020 13:48:25 GMT-0500 (Eastern Standard Time)","Tue Jan 28 2020 13:54:56 GMT-0500 (Eastern Standard Time)","Mozilla/5.0 (Windows NT 10.0; WOW64) AppleWebKit/537.36 (KHTML, like Gecko) Chrome/79.0.3945.88 Safari/537.36",106,"[0.9, 0.5, 0.1]","[0.8, 0.4, 0.2]","[u'black', u'red', u'blue']","[u'left', u'middle', u'right']","[0.8, 0.4, 0.2]","[u'medium', u'high', u'low']","blue",51,"right","low","False","False",235,5650,NA
"AJAKX491SGILM","Tue Jan 28 2020 13:48:25 GMT-0500 (Eastern Standard Time)","Tue Jan 28 2020 13:54:56 GMT-0500 (Eastern Standard Time)","Mozilla/5.0 (Windows NT 10.0; WOW64) AppleWebKit/537.36 (KHTML, like Gecko) Chrome/79.0.3945.88 Safari/537.36",107,"[0.9, 0.5, 0.1]","[0.8, 0.4, 0.2]","[u'black', u'red', u'blue']","[u'left', u'middle', u'right']","[0.8, 0.4, 0.2]","[u'medium', u'high', u'low']","blue",51,"right","low","False","False",323,5600,NA
"AJAKX491SGILM","Tue Jan 28 2020 13:48:25 GMT-0500 (Eastern Standard Time)","Tue Jan 28 2020 13:54:56 GMT-0500 (Eastern Standard Time)","Mozilla/5.0 (Windows NT 10.0; WOW64) AppleWebKit/537.36 (KHTML, like Gecko) Chrome/79.0.3945.88 Safari/537.36",108,"[0.9, 0.5, 0.1]","[0.8, 0.4, 0.2]","[u'black', u'red', u'blue']","[u'left', u'middle', u'right']","[0.8, 0.4, 0.2]","[u'medium', u'high', u'low']","blue",51,"right","low","False","False",298,5550,NA
"AJAKX491SGILM","Tue Jan 28 2020 13:48:25 GMT-0500 (Eastern Standard Time)","Tue Jan 28 2020 13:54:56 GMT-0500 (Eastern Standard Time)","Mozilla/5.0 (Windows NT 10.0; WOW64) AppleWebKit/537.36 (KHTML, like Gecko) Chrome/79.0.3945.88 Safari/537.36",109,"[0.9, 0.5, 0.1]","[0.8, 0.4, 0.2]","[u'black', u'red', u'blue']","[u'left', u'middle', u'right']","[0.8, 0.4, 0.2]","[u'medium', u'high', u'low']","black",49,"left","medium","False","False",183,5500,NA
"AJAKX491SGILM","Tue Jan 28 2020 13:48:25 GMT-0500 (Eastern Standard Time)","Tue Jan 28 2020 13:54:56 GMT-0500 (Eastern Standard Time)","Mozilla/5.0 (Windows NT 10.0; WOW64) AppleWebKit/537.36 (KHTML, like Gecko) Chrome/79.0.3945.88 Safari/537.36",110,"[0.9, 0.5, 0.1]","[0.8, 0.4, 0.2]","[u'black', u'red', u'blue']","[u'left', u'middle', u'right']","[0.8, 0.4, 0.2]","[u'medium', u'high', u'low']","black",49,"left","medium","True","False",42,5600,NA
"AJAKX491SGILM","Tue Jan 28 2020 13:48:25 GMT-0500 (Eastern Standard Time)","Tue Jan 28 2020 13:54:56 GMT-0500 (Eastern Standard Time)","Mozilla/5.0 (Windows NT 10.0; WOW64) AppleWebKit/537.36 (KHTML, like Gecko) Chrome/79.0.3945.88 Safari/537.36",111,"[0.9, 0.5, 0.1]","[0.8, 0.4, 0.2]","[u'black', u'red', u'blue']","[u'left', u'middle', u'right']","[0.8, 0.4, 0.2]","[u'medium', u'high', u'low']","black",49,"left","medium","False","False",242,5550,NA
"AJAKX491SGILM","Tue Jan 28 2020 13:48:25 GMT-0500 (Eastern Standard Time)","Tue Jan 28 2020 13:54:56 GMT-0500 (Eastern Standard Time)","Mozilla/5.0 (Windows NT 10.0; WOW64) AppleWebKit/537.36 (KHTML, like Gecko) Chrome/79.0.3945.88 Safari/537.36",112,"[0.9, 0.5, 0.1]","[0.8, 0.4, 0.2]","[u'black', u'red', u'blue']","[u'left', u'middle', u'right']","[0.8, 0.4, 0.2]","[u'medium', u'high', u'low']","black",49,"left","medium","False","False",323,5500,NA
"AJAKX491SGILM","Tue Jan 28 2020 13:48:25 GMT-0500 (Eastern Standard Time)","Tue Jan 28 2020 13:54:56 GMT-0500 (Eastern Standard Time)","Mozilla/5.0 (Windows NT 10.0; WOW64) AppleWebKit/537.36 (KHTML, like Gecko) Chrome/79.0.3945.88 Safari/537.36",113,"[0.9, 0.5, 0.1]","[0.8, 0.4, 0.2]","[u'black', u'red', u'blue']","[u'left', u'middle', u'right']","[0.8, 0.4, 0.2]","[u'medium', u'high', u'low']","black",49,"left","medium","True","False",267,5600,NA
"AJAKX491SGILM","Tue Jan 28 2020 13:48:25 GMT-0500 (Eastern Standard Time)","Tue Jan 28 2020 13:54:56 GMT-0500 (Eastern Standard Time)","Mozilla/5.0 (Windows NT 10.0; WOW64) AppleWebKit/537.36 (KHTML, like Gecko) Chrome/79.0.3945.88 Safari/537.36",114,"[0.9, 0.5, 0.1]","[0.8, 0.4, 0.2]","[u'black', u'red', u'blue']","[u'left', u'middle', u'right']","[0.8, 0.4, 0.2]","[u'medium', u'high', u'low']","black",49,"left","medium","False","False",202,5550,NA
"AJAKX491SGILM","Tue Jan 28 2020 13:48:25 GMT-0500 (Eastern Standard Time)","Tue Jan 28 2020 13:54:56 GMT-0500 (Eastern Standard Time)","Mozilla/5.0 (Windows NT 10.0; WOW64) AppleWebKit/537.36 (KHTML, like Gecko) Chrome/79.0.3945.88 Safari/537.36",115,"[0.9, 0.5, 0.1]","[0.8, 0.4, 0.2]","[u'black', u'red', u'blue']","[u'left', u'middle', u'right']","[0.8, 0.4, 0.2]","[u'medium', u'high', u'low']","red",50,"middle","high","True","False",235,5650,NA
"AJAKX491SGILM","Tue Jan 28 2020 13:48:25 GMT-0500 (Eastern Standard Time)","Tue Jan 28 2020 13:54:56 GMT-0500 (Eastern Standard Time)","Mozilla/5.0 (Windows NT 10.0; WOW64) AppleWebKit/537.36 (KHTML, like Gecko) Chrome/79.0.3945.88 Safari/537.36",116,"[0.9, 0.5, 0.1]","[0.8, 0.4, 0.2]","[u'black', u'red', u'blue']","[u'left', u'middle', u'right']","[0.8, 0.4, 0.2]","[u'medium', u'high', u'low']","red",50,"middle","high","True","False",138,5750,NA
"AJAKX491SGILM","Tue Jan 28 2020 13:48:25 GMT-0500 (Eastern Standard Time)","Tue Jan 28 2020 13:54:56 GMT-0500 (Eastern Standard Time)","Mozilla/5.0 (Windows NT 10.0; WOW64) AppleWebKit/537.36 (KHTML, like Gecko) Chrome/79.0.3945.88 Safari/537.36",117,"[0.9, 0.5, 0.1]","[0.8, 0.4, 0.2]","[u'black', u'red', u'blue']","[u'left', u'middle', u'right']","[0.8, 0.4, 0.2]","[u'medium', u'high', u'low']","red",50,"middle","high","True","False",260,5850,NA
"AJAKX491SGILM","Tue Jan 28 2020 13:48:25 GMT-0500 (Eastern Standard Time)","Tue Jan 28 2020 13:54:56 GMT-0500 (Eastern Standard Time)","Mozilla/5.0 (Windows NT 10.0; WOW64) AppleWebKit/537.36 (KHTML, like Gecko) Chrome/79.0.3945.88 Safari/537.36",118,"[0.9, 0.5, 0.1]","[0.8, 0.4, 0.2]","[u'black', u'red', u'blue']","[u'left', u'middle', u'right']","[0.8, 0.4, 0.2]","[u'medium', u'high', u'low']","red",50,"middle","high","False","False",307,5800,NA
"AJAKX491SGILM","Tue Jan 28 2020 13:48:25 GMT-0500 (Eastern Standard Time)","Tue Jan 28 2020 13:54:56 GMT-0500 (Eastern Standard Time)","Mozilla/5.0 (Windows NT 10.0; WOW64) AppleWebKit/537.36 (KHTML, like Gecko) Chrome/79.0.3945.88 Safari/537.36",119,"[0.9, 0.5, 0.1]","[0.8, 0.4, 0.2]","[u'black', u'red', u'blue']","[u'left', u'middle', u'right']","[0.8, 0.4, 0.2]","[u'medium', u'high', u'low']","red",50,"middle","high","False","False",257,5750,NA
"AJAKX491SGILM","Tue Jan 28 2020 13:48:25 GMT-0500 (Eastern Standard Time)","Tue Jan 28 2020 13:54:56 GMT-0500 (Eastern Standard Time)","Mozilla/5.0 (Windows NT 10.0; WOW64) AppleWebKit/537.36 (KHTML, like Gecko) Chrome/79.0.3945.88 Safari/537.36",120,"[0.9, 0.5, 0.1]","[0.8, 0.4, 0.2]","[u'black', u'red', u'blue']","[u'left', u'middle', u'right']","[0.8, 0.4, 0.2]","[u'medium', u'high', u'low']","black",49,"left","medium","True","False",266,5850,NA
"AJAKX491SGILM","Tue Jan 28 2020 13:48:25 GMT-0500 (Eastern Standard Time)","Tue Jan 28 2020 13:54:56 GMT-0500 (Eastern Standard Time)","Mozilla/5.0 (Windows NT 10.0; WOW64) AppleWebKit/537.36 (KHTML, like Gecko) Chrome/79.0.3945.88 Safari/537.36",121,"[0.9, 0.5, 0.1]","[0.8, 0.4, 0.2]","[u'black', u'red', u'blue']","[u'left', u'middle', u'right']","[0.8, 0.4, 0.2]","[u'medium', u'low', u'high']","black",49,"left","medium","True","False",251,5950,NA
"AJAKX491SGILM","Tue Jan 28 2020 13:48:25 GMT-0500 (Eastern Standard Time)","Tue Jan 28 2020 13:54:56 GMT-0500 (Eastern Standard Time)","Mozilla/5.0 (Windows NT 10.0; WOW64) AppleWebKit/537.36 (KHTML, like Gecko) Chrome/79.0.3945.88 Safari/537.36",122,"[0.9, 0.5, 0.1]","[0.8, 0.4, 0.2]","[u'black', u'red', u'blue']","[u'left', u'middle', u'right']","[0.8, 0.4, 0.2]","[u'medium', u'low', u'high']","black",49,"left","medium","False","False",267,5900,NA
"AJAKX491SGILM","Tue Jan 28 2020 13:48:25 GMT-0500 (Eastern Standard Time)","Tue Jan 28 2020 13:54:56 GMT-0500 (Eastern Standard Time)","Mozilla/5.0 (Windows NT 10.0; WOW64) AppleWebKit/537.36 (KHTML, like Gecko) Chrome/79.0.3945.88 Safari/537.36",123,"[0.9, 0.5, 0.1]","[0.8, 0.4, 0.2]","[u'black', u'red', u'blue']","[u'left', u'middle', u'right']","[0.8, 0.4, 0.2]","[u'medium', u'low', u'high']","black",49,"left","medium","False","False",194,5850,NA
"AJAKX491SGILM","Tue Jan 28 2020 13:48:25 GMT-0500 (Eastern Standard Time)","Tue Jan 28 2020 13:54:56 GMT-0500 (Eastern Standard Time)","Mozilla/5.0 (Windows NT 10.0; WOW64) AppleWebKit/537.36 (KHTML, like Gecko) Chrome/79.0.3945.88 Safari/537.36",124,"[0.9, 0.5, 0.1]","[0.8, 0.4, 0.2]","[u'black', u'red', u'blue']","[u'left', u'middle', u'right']","[0.8, 0.4, 0.2]","[u'medium', u'low', u'high']","red",50,"middle","low","False","False",260,5800,NA
"AJAKX491SGILM","Tue Jan 28 2020 13:48:25 GMT-0500 (Eastern Standard Time)","Tue Jan 28 2020 13:54:56 GMT-0500 (Eastern Standard Time)","Mozilla/5.0 (Windows NT 10.0; WOW64) AppleWebKit/537.36 (KHTML, like Gecko) Chrome/79.0.3945.88 Safari/537.36",125,"[0.9, 0.5, 0.1]","[0.8, 0.4, 0.2]","[u'black', u'red', u'blue']","[u'left', u'middle', u'right']","[0.8, 0.4, 0.2]","[u'medium', u'low', u'high']","blue",51,"right","high","True","False",42,5900,NA
"AJAKX491SGILM","Tue Jan 28 2020 13:48:25 GMT-0500 (Eastern Standard Time)","Tue Jan 28 2020 13:54:56 GMT-0500 (Eastern Standard Time)","Mozilla/5.0 (Windows NT 10.0; WOW64) AppleWebKit/537.36 (KHTML, like Gecko) Chrome/79.0.3945.88 Safari/537.36",126,"[0.9, 0.5, 0.1]","[0.8, 0.4, 0.2]","[u'black', u'red', u'blue']","[u'left', u'middle', u'right']","[0.8, 0.4, 0.2]","[u'medium', u'low', u'high']","blue",51,"right","high","False","False",218,5850,NA
"AJAKX491SGILM","Tue Jan 28 2020 13:48:25 GMT-0500 (Eastern Standard Time)","Tue Jan 28 2020 13:54:56 GMT-0500 (Eastern Standard Time)","Mozilla/5.0 (Windows NT 10.0; WOW64) AppleWebKit/537.36 (KHTML, like Gecko) Chrome/79.0.3945.88 Safari/537.36",127,"[0.9, 0.5, 0.1]","[0.8, 0.4, 0.2]","[u'black', u'red', u'blue']","[u'left', u'middle', u'right']","[0.8, 0.4, 0.2]","[u'medium', u'low', u'high']","black",49,"left","medium","False","False",195,5800,NA
"AJAKX491SGILM","Tue Jan 28 2020 13:48:25 GMT-0500 (Eastern Standard Time)","Tue Jan 28 2020 13:54:56 GMT-0500 (Eastern Standard Time)","Mozilla/5.0 (Windows NT 10.0; WOW64) AppleWebKit/537.36 (KHTML, like Gecko) Chrome/79.0.3945.88 Safari/537.36",128,"[0.9, 0.5, 0.1]","[0.8, 0.4, 0.2]","[u'black', u'red', u'blue']","[u'left', u'middle', u'right']","[0.8, 0.4, 0.2]","[u'medium', u'low', u'high']","red",50,"middle","low","False","False",267,5750,NA
"AJAKX491SGILM","Tue Jan 28 2020 13:48:25 GMT-0500 (Eastern Standard Time)","Tue Jan 28 2020 13:54:56 GMT-0500 (Eastern Standard Time)","Mozilla/5.0 (Windows NT 10.0; WOW64) AppleWebKit/537.36 (KHTML, like Gecko) Chrome/79.0.3945.88 Safari/537.36",129,"[0.9, 0.5, 0.1]","[0.8, 0.4, 0.2]","[u'black', u'red', u'blue']","[u'left', u'middle', u'right']","[0.8, 0.4, 0.2]","[u'medium', u'low', u'high']","blue",51,"right","high","True","False",939,5850,NA
"AJAKX491SGILM","Tue Jan 28 2020 13:48:25 GMT-0500 (Eastern Standard Time)","Tue Jan 28 2020 13:54:56 GMT-0500 (Eastern Standard Time)","Mozilla/5.0 (Windows NT 10.0; WOW64) AppleWebKit/537.36 (KHTML, like Gecko) Chrome/79.0.3945.88 Safari/537.36",130,"[0.9, 0.5, 0.1]","[0.8, 0.4, 0.2]","[u'black', u'red', u'blue']","[u'left', u'middle', u'right']","[0.8, 0.4, 0.2]","[u'medium', u'low', u'high']","blue",51,"right","high","True","False",252,5950,NA
"AJAKX491SGILM","Tue Jan 28 2020 13:48:25 GMT-0500 (Eastern Standard Time)","Tue Jan 28 2020 13:54:56 GMT-0500 (Eastern Standard Time)","Mozilla/5.0 (Windows NT 10.0; WOW64) AppleWebKit/537.36 (KHTML, like Gecko) Chrome/79.0.3945.88 Safari/537.36",131,"[0.9, 0.5, 0.1]","[0.8, 0.4, 0.2]","[u'black', u'red', u'blue']","[u'left', u'middle', u'right']","[0.8, 0.4, 0.2]","[u'medium', u'low', u'high']","blue",51,"right","high","True","False",266,6050,NA
"AJAKX491SGILM","Tue Jan 28 2020 13:48:25 GMT-0500 (Eastern Standard Time)","Tue Jan 28 2020 13:54:56 GMT-0500 (Eastern Standard Time)","Mozilla/5.0 (Windows NT 10.0; WOW64) AppleWebKit/537.36 (KHTML, like Gecko) Chrome/79.0.3945.88 Safari/537.36",132,"[0.9, 0.5, 0.1]","[0.8, 0.4, 0.2]","[u'black', u'red', u'blue']","[u'left', u'middle', u'right']","[0.8, 0.4, 0.2]","[u'medium', u'low', u'high']","blue",51,"right","high","True","False",225,6150,NA
"AJAKX491SGILM","Tue Jan 28 2020 13:48:25 GMT-0500 (Eastern Standard Time)","Tue Jan 28 2020 13:54:56 GMT-0500 (Eastern Standard Time)","Mozilla/5.0 (Windows NT 10.0; WOW64) AppleWebKit/537.36 (KHTML, like Gecko) Chrome/79.0.3945.88 Safari/537.36",133,"[0.9, 0.5, 0.1]","[0.8, 0.4, 0.2]","[u'black', u'red', u'blue']","[u'left', u'middle', u'right']","[0.8, 0.4, 0.2]","[u'medium', u'low', u'high']","blue",51,"right","high","True","False",226,6250,NA
"AJAKX491SGILM","Tue Jan 28 2020 13:48:25 GMT-0500 (Eastern Standard Time)","Tue Jan 28 2020 13:54:56 GMT-0500 (Eastern Standard Time)","Mozilla/5.0 (Windows NT 10.0; WOW64) AppleWebKit/537.36 (KHTML, like Gecko) Chrome/79.0.3945.88 Safari/537.36",134,"[0.9, 0.5, 0.1]","[0.8, 0.4, 0.2]","[u'black', u'red', u'blue']","[u'left', u'middle', u'right']","[0.8, 0.4, 0.2]","[u'medium', u'low', u'high']","blue",51,"right","high","True","False",243,6350,NA
"AJAKX491SGILM","Tue Jan 28 2020 13:48:25 GMT-0500 (Eastern Standard Time)","Tue Jan 28 2020 13:54:56 GMT-0500 (Eastern Standard Time)","Mozilla/5.0 (Windows NT 10.0; WOW64) AppleWebKit/537.36 (KHTML, like Gecko) Chrome/79.0.3945.88 Safari/537.36",135,"[0.9, 0.5, 0.1]","[0.8, 0.4, 0.2]","[u'black', u'red', u'blue']","[u'left', u'middle', u'right']","[0.8, 0.4, 0.2]","[u'medium', u'low', u'high']","blue",51,"right","high","True","False",237,6450,NA
"AJAKX491SGILM","Tue Jan 28 2020 13:48:25 GMT-0500 (Eastern Standard Time)","Tue Jan 28 2020 13:54:56 GMT-0500 (Eastern Standard Time)","Mozilla/5.0 (Windows NT 10.0; WOW64) AppleWebKit/537.36 (KHTML, like Gecko) Chrome/79.0.3945.88 Safari/537.36",136,"[0.9, 0.5, 0.1]","[0.8, 0.4, 0.2]","[u'black', u'red', u'blue']","[u'left', u'middle', u'right']","[0.8, 0.4, 0.2]","[u'medium', u'low', u'high']","blue",51,"right","high","True","False",178,6550,NA
"AJAKX491SGILM","Tue Jan 28 2020 13:48:25 GMT-0500 (Eastern Standard Time)","Tue Jan 28 2020 13:54:56 GMT-0500 (Eastern Standard Time)","Mozilla/5.0 (Windows NT 10.0; WOW64) AppleWebKit/537.36 (KHTML, like Gecko) Chrome/79.0.3945.88 Safari/537.36",137,"[0.9, 0.5, 0.1]","[0.8, 0.4, 0.2]","[u'black', u'red', u'blue']","[u'left', u'middle', u'right']","[0.8, 0.4, 0.2]","[u'medium', u'low', u'high']","blue",51,"right","high","True","True",234,6650,NA
"AJAKX491SGILM","Tue Jan 28 2020 13:48:25 GMT-0500 (Eastern Standard Time)","Tue Jan 28 2020 13:54:56 GMT-0500 (Eastern Standard Time)","Mozilla/5.0 (Windows NT 10.0; WOW64) AppleWebKit/537.36 (KHTML, like Gecko) Chrome/79.0.3945.88 Safari/537.36",138,"[0.9, 0.5, 0.1]","[0.8, 0.4, 0.2]","[u'black', u'red', u'blue']","[u'left', u'middle', u'right']","[0.8, 0.4, 0.2]","[u'medium', u'high', u'low']","blue",51,"right","low","False","False",291,6600,NA
"AJAKX491SGILM","Tue Jan 28 2020 13:48:25 GMT-0500 (Eastern Standard Time)","Tue Jan 28 2020 13:54:56 GMT-0500 (Eastern Standard Time)","Mozilla/5.0 (Windows NT 10.0; WOW64) AppleWebKit/537.36 (KHTML, like Gecko) Chrome/79.0.3945.88 Safari/537.36",139,"[0.9, 0.5, 0.1]","[0.8, 0.4, 0.2]","[u'black', u'red', u'blue']","[u'left', u'middle', u'right']","[0.8, 0.4, 0.2]","[u'medium', u'high', u'low']","blue",51,"right","low","True","False",228,6700,NA
"AJAKX491SGILM","Tue Jan 28 2020 13:48:25 GMT-0500 (Eastern Standard Time)","Tue Jan 28 2020 13:54:56 GMT-0500 (Eastern Standard Time)","Mozilla/5.0 (Windows NT 10.0; WOW64) AppleWebKit/537.36 (KHTML, like Gecko) Chrome/79.0.3945.88 Safari/537.36",140,"[0.9, 0.5, 0.1]","[0.8, 0.4, 0.2]","[u'black', u'red', u'blue']","[u'left', u'middle', u'right']","[0.8, 0.4, 0.2]","[u'medium', u'high', u'low']","blue",51,"right","low","False","False",155,6650,NA
"AJAKX491SGILM","Tue Jan 28 2020 13:48:25 GMT-0500 (Eastern Standard Time)","Tue Jan 28 2020 13:54:56 GMT-0500 (Eastern Standard Time)","Mozilla/5.0 (Windows NT 10.0; WOW64) AppleWebKit/537.36 (KHTML, like Gecko) Chrome/79.0.3945.88 Safari/537.36",141,"[0.9, 0.5, 0.1]","[0.8, 0.4, 0.2]","[u'black', u'red', u'blue']","[u'left', u'middle', u'right']","[0.8, 0.4, 0.2]","[u'medium', u'high', u'low']","blue",51,"right","low","False","False",235,6600,NA
"AJAKX491SGILM","Tue Jan 28 2020 13:48:25 GMT-0500 (Eastern Standard Time)","Tue Jan 28 2020 13:54:56 GMT-0500 (Eastern Standard Time)","Mozilla/5.0 (Windows NT 10.0; WOW64) AppleWebKit/537.36 (KHTML, like Gecko) Chrome/79.0.3945.88 Safari/537.36",142,"[0.9, 0.5, 0.1]","[0.8, 0.4, 0.2]","[u'black', u'red', u'blue']","[u'left', u'middle', u'right']","[0.8, 0.4, 0.2]","[u'medium', u'high', u'low']","blue",51,"right","low","False","False",368,6550,NA
"AJAKX491SGILM","Tue Jan 28 2020 13:48:25 GMT-0500 (Eastern Standard Time)","Tue Jan 28 2020 13:54:56 GMT-0500 (Eastern Standard Time)","Mozilla/5.0 (Windows NT 10.0; WOW64) AppleWebKit/537.36 (KHTML, like Gecko) Chrome/79.0.3945.88 Safari/537.36",143,"[0.9, 0.5, 0.1]","[0.8, 0.4, 0.2]","[u'black', u'red', u'blue']","[u'left', u'middle', u'right']","[0.8, 0.4, 0.2]","[u'medium', u'high', u'low']","black",49,"left","medium","False","False",239,6500,NA
"AJAKX491SGILM","Tue Jan 28 2020 13:48:25 GMT-0500 (Eastern Standard Time)","Tue Jan 28 2020 13:54:56 GMT-0500 (Eastern Standard Time)","Mozilla/5.0 (Windows NT 10.0; WOW64) AppleWebKit/537.36 (KHTML, like Gecko) Chrome/79.0.3945.88 Safari/537.36",144,"[0.9, 0.5, 0.1]","[0.8, 0.4, 0.2]","[u'black', u'red', u'blue']","[u'left', u'middle', u'right']","[0.8, 0.4, 0.2]","[u'medium', u'high', u'low']","red",50,"middle","high","True","False",267,6600,NA
"AJAKX491SGILM","Tue Jan 28 2020 13:48:25 GMT-0500 (Eastern Standard Time)","Tue Jan 28 2020 13:54:56 GMT-0500 (Eastern Standard Time)","Mozilla/5.0 (Windows NT 10.0; WOW64) AppleWebKit/537.36 (KHTML, like Gecko) Chrome/79.0.3945.88 Safari/537.36",145,"[0.9, 0.5, 0.1]","[0.8, 0.4, 0.2]","[u'black', u'red', u'blue']","[u'left', u'middle', u'right']","[0.8, 0.4, 0.2]","[u'medium', u'high', u'low']","red",50,"middle","high","True","False",218,6700,NA
"AJAKX491SGILM","Tue Jan 28 2020 13:48:25 GMT-0500 (Eastern Standard Time)","Tue Jan 28 2020 13:54:56 GMT-0500 (Eastern Standard Time)","Mozilla/5.0 (Windows NT 10.0; WOW64) AppleWebKit/537.36 (KHTML, like Gecko) Chrome/79.0.3945.88 Safari/537.36",146,"[0.9, 0.5, 0.1]","[0.8, 0.4, 0.2]","[u'black', u'red', u'blue']","[u'left', u'middle', u'right']","[0.8, 0.4, 0.2]","[u'medium', u'high', u'low']","red",50,"middle","high","True","False",275,6800,NA
"AJAKX491SGILM","Tue Jan 28 2020 13:48:25 GMT-0500 (Eastern Standard Time)","Tue Jan 28 2020 13:54:56 GMT-0500 (Eastern Standard Time)","Mozilla/5.0 (Windows NT 10.0; WOW64) AppleWebKit/537.36 (KHTML, like Gecko) Chrome/79.0.3945.88 Safari/537.36",147,"[0.9, 0.5, 0.1]","[0.8, 0.4, 0.2]","[u'black', u'red', u'blue']","[u'left', u'middle', u'right']","[0.8, 0.4, 0.2]","[u'medium', u'high', u'low']","red",50,"middle","high","True","False",219,6900,NA
"AJAKX491SGILM","Tue Jan 28 2020 13:48:25 GMT-0500 (Eastern Standard Time)","Tue Jan 28 2020 13:54:56 GMT-0500 (Eastern Standard Time)","Mozilla/5.0 (Windows NT 10.0; WOW64) AppleWebKit/537.36 (KHTML, like Gecko) Chrome/79.0.3945.88 Safari/537.36",148,"[0.9, 0.5, 0.1]","[0.8, 0.4, 0.2]","[u'black', u'red', u'blue']","[u'left', u'middle', u'right']","[0.8, 0.4, 0.2]","[u'medium', u'high', u'low']","red",50,"middle","high","True","False",164,7000,NA
"AJAKX491SGILM","Tue Jan 28 2020 13:48:25 GMT-0500 (Eastern Standard Time)","Tue Jan 28 2020 13:54:56 GMT-0500 (Eastern Standard Time)","Mozilla/5.0 (Windows NT 10.0; WOW64) AppleWebKit/537.36 (KHTML, like Gecko) Chrome/79.0.3945.88 Safari/537.36",149,"[0.9, 0.5, 0.1]","[0.8, 0.4, 0.2]","[u'black', u'red', u'blue']","[u'left', u'middle', u'right']","[0.8, 0.4, 0.2]","[u'medium', u'high', u'low']","red",50,"middle","high","True","False",276,7100,NA
"AJAKX491SGILM","Tue Jan 28 2020 13:48:25 GMT-0500 (Eastern Standard Time)","Tue Jan 28 2020 13:54:56 GMT-0500 (Eastern Standard Time)","Mozilla/5.0 (Windows NT 10.0; WOW64) AppleWebKit/537.36 (KHTML, like Gecko) Chrome/79.0.3945.88 Safari/537.36",150,"[0.9, 0.5, 0.1]","[0.8, 0.4, 0.2]","[u'black', u'red', u'blue']","[u'left', u'middle', u'right']","[0.8, 0.4, 0.2]","[u'medium', u'high', u'low']","red",50,"middle","high","True","False",303,7200,NA
"AJAKX491SGILM","Tue Jan 28 2020 13:48:25 GMT-0500 (Eastern Standard Time)","Tue Jan 28 2020 13:54:56 GMT-0500 (Eastern Standard Time)","Mozilla/5.0 (Windows NT 10.0; WOW64) AppleWebKit/537.36 (KHTML, like Gecko) Chrome/79.0.3945.88 Safari/537.36",151,"[0.9, 0.5, 0.1]","[0.8, 0.4, 0.2]","[u'black', u'red', u'blue']","[u'left', u'middle', u'right']","[0.8, 0.4, 0.2]","[u'medium', u'high', u'low']","red",50,"middle","high","True","False",338,7300,NA
"AJAKX491SGILM","Tue Jan 28 2020 13:48:25 GMT-0500 (Eastern Standard Time)","Tue Jan 28 2020 13:54:56 GMT-0500 (Eastern Standard Time)","Mozilla/5.0 (Windows NT 10.0; WOW64) AppleWebKit/537.36 (KHTML, like Gecko) Chrome/79.0.3945.88 Safari/537.36",152,"[0.9, 0.5, 0.1]","[0.8, 0.4, 0.2]","[u'black', u'red', u'blue']","[u'left', u'middle', u'right']","[0.8, 0.4, 0.2]","[u'medium', u'high', u'low']","red",50,"middle","high","True","True",27,7400,NA
"AJAKX491SGILM","Tue Jan 28 2020 13:48:25 GMT-0500 (Eastern Standard Time)","Tue Jan 28 2020 13:54:56 GMT-0500 (Eastern Standard Time)","Mozilla/5.0 (Windows NT 10.0; WOW64) AppleWebKit/537.36 (KHTML, like Gecko) Chrome/79.0.3945.88 Safari/537.36",153,"[0.9, 0.5, 0.1]","[0.8, 0.4, 0.2]","[u'black', u'red', u'blue']","[u'left', u'middle', u'right']","[0.8, 0.4, 0.2]","[u'high', u'low', u'medium']","red",50,"middle","low","False","False",163,7350,NA
"AJAKX491SGILM","Tue Jan 28 2020 13:48:25 GMT-0500 (Eastern Standard Time)","Tue Jan 28 2020 13:54:56 GMT-0500 (Eastern Standard Time)","Mozilla/5.0 (Windows NT 10.0; WOW64) AppleWebKit/537.36 (KHTML, like Gecko) Chrome/79.0.3945.88 Safari/537.36",154,"[0.9, 0.5, 0.1]","[0.8, 0.4, 0.2]","[u'black', u'red', u'blue']","[u'left', u'middle', u'right']","[0.8, 0.4, 0.2]","[u'high', u'low', u'medium']","blue",51,"right","medium","False","False",68,7300,NA
"AJAKX491SGILM","Tue Jan 28 2020 13:48:25 GMT-0500 (Eastern Standard Time)","Tue Jan 28 2020 13:54:56 GMT-0500 (Eastern Standard Time)","Mozilla/5.0 (Windows NT 10.0; WOW64) AppleWebKit/537.36 (KHTML, like Gecko) Chrome/79.0.3945.88 Safari/537.36",155,"[0.9, 0.5, 0.1]","[0.8, 0.4, 0.2]","[u'black', u'red', u'blue']","[u'left', u'middle', u'right']","[0.8, 0.4, 0.2]","[u'high', u'low', u'medium']","red",50,"middle","low","False","False",18,7250,NA
"AJAKX491SGILM","Tue Jan 28 2020 13:48:25 GMT-0500 (Eastern Standard Time)","Tue Jan 28 2020 13:54:56 GMT-0500 (Eastern Standard Time)","Mozilla/5.0 (Windows NT 10.0; WOW64) AppleWebKit/537.36 (KHTML, like Gecko) Chrome/79.0.3945.88 Safari/537.36",156,"[0.9, 0.5, 0.1]","[0.8, 0.4, 0.2]","[u'black', u'red', u'blue']","[u'left', u'middle', u'right']","[0.8, 0.4, 0.2]","[u'high', u'low', u'medium']","black",49,"left","high","False","False",563,7200,NA
"AJAKX491SGILM","Tue Jan 28 2020 13:48:25 GMT-0500 (Eastern Standard Time)","Tue Jan 28 2020 13:54:56 GMT-0500 (Eastern Standard Time)","Mozilla/5.0 (Windows NT 10.0; WOW64) AppleWebKit/537.36 (KHTML, like Gecko) Chrome/79.0.3945.88 Safari/537.36",157,"[0.9, 0.5, 0.1]","[0.8, 0.4, 0.2]","[u'black', u'red', u'blue']","[u'left', u'middle', u'right']","[0.8, 0.4, 0.2]","[u'high', u'low', u'medium']","blue",51,"right","medium","False","False",282,7150,NA
"AJAKX491SGILM","Tue Jan 28 2020 13:48:25 GMT-0500 (Eastern Standard Time)","Tue Jan 28 2020 13:54:56 GMT-0500 (Eastern Standard Time)","Mozilla/5.0 (Windows NT 10.0; WOW64) AppleWebKit/537.36 (KHTML, like Gecko) Chrome/79.0.3945.88 Safari/537.36",158,"[0.9, 0.5, 0.1]","[0.8, 0.4, 0.2]","[u'black', u'red', u'blue']","[u'left', u'middle', u'right']","[0.8, 0.4, 0.2]","[u'high', u'low', u'medium']","blue",51,"right","medium","True","False",284,7250,NA
"AJAKX491SGILM","Tue Jan 28 2020 13:48:25 GMT-0500 (Eastern Standard Time)","Tue Jan 28 2020 13:54:56 GMT-0500 (Eastern Standard Time)","Mozilla/5.0 (Windows NT 10.0; WOW64) AppleWebKit/537.36 (KHTML, like Gecko) Chrome/79.0.3945.88 Safari/537.36",159,"[0.9, 0.5, 0.1]","[0.8, 0.4, 0.2]","[u'black', u'red', u'blue']","[u'left', u'middle', u'right']","[0.8, 0.4, 0.2]","[u'high', u'low', u'medium']","blue",51,"right","medium","True","False",266,7350,NA
"AJAKX491SGILM","Tue Jan 28 2020 13:48:25 GMT-0500 (Eastern Standard Time)","Tue Jan 28 2020 13:54:56 GMT-0500 (Eastern Standard Time)","Mozilla/5.0 (Windows NT 10.0; WOW64) AppleWebKit/537.36 (KHTML, like Gecko) Chrome/79.0.3945.88 Safari/537.36",160,"[0.9, 0.5, 0.1]","[0.8, 0.4, 0.2]","[u'black', u'red', u'blue']","[u'left', u'middle', u'right']","[0.8, 0.4, 0.2]","[u'high', u'low', u'medium']","blue",51,"right","medium","True","False",277,7450,NA
