"src_subject_id","start_time","end_time","browser","index","first_half_probabilities","second_half_probabilities","deck_color","deck_position","deck_probabilities","deck_contingencies","response_color","key_press","response_position","response_probability","reward_type","trial_type","rt","reward_tally","exclusion_reason"
"AIOLG7U4ZM44P","Wed Sep 23 2020 08:03:34 GMT-0700 (Pacific Daylight Time)","Wed Sep 23 2020 08:10:52 GMT-0700 (Pacific Daylight Time)","Mozilla/5.0 (Windows NT 10.0; Win64; x64) AppleWebKit/537.36 (KHTML, like Gecko) Chrome/85.0.4183.121 Safari/537.36",1,"[0.9, 0.5, 0.1]","[0.8, 0.4, 0.2]","[u'red', u'blue', u'black']","[u'left', u'middle', u'right']","[0.9, 0.5, 0.1]","[u'high', u'medium', u'low']","red",49,"left","high","True","False",1042,100,NA
"AIOLG7U4ZM44P","Wed Sep 23 2020 08:03:34 GMT-0700 (Pacific Daylight Time)","Wed Sep 23 2020 08:10:52 GMT-0700 (Pacific Daylight Time)","Mozilla/5.0 (Windows NT 10.0; Win64; x64) AppleWebKit/537.36 (KHTML, like Gecko) Chrome/85.0.4183.121 Safari/537.36",2,"[0.9, 0.5, 0.1]","[0.8, 0.4, 0.2]","[u'red', u'blue', u'black']","[u'left', u'middle', u'right']","[0.9, 0.5, 0.1]","[u'high', u'medium', u'low']","red",49,"left","high","True","False",436,200,NA
"AIOLG7U4ZM44P","Wed Sep 23 2020 08:03:34 GMT-0700 (Pacific Daylight Time)","Wed Sep 23 2020 08:10:52 GMT-0700 (Pacific Daylight Time)","Mozilla/5.0 (Windows NT 10.0; Win64; x64) AppleWebKit/537.36 (KHTML, like Gecko) Chrome/85.0.4183.121 Safari/537.36",3,"[0.9, 0.5, 0.1]","[0.8, 0.4, 0.2]","[u'red', u'blue', u'black']","[u'left', u'middle', u'right']","[0.9, 0.5, 0.1]","[u'high', u'medium', u'low']","red",49,"left","high","True","False",291,300,NA
"AIOLG7U4ZM44P","Wed Sep 23 2020 08:03:34 GMT-0700 (Pacific Daylight Time)","Wed Sep 23 2020 08:10:52 GMT-0700 (Pacific Daylight Time)","Mozilla/5.0 (Windows NT 10.0; Win64; x64) AppleWebKit/537.36 (KHTML, like Gecko) Chrome/85.0.4183.121 Safari/537.36",4,"[0.9, 0.5, 0.1]","[0.8, 0.4, 0.2]","[u'red', u'blue', u'black']","[u'left', u'middle', u'right']","[0.9, 0.5, 0.1]","[u'high', u'medium', u'low']","red",49,"left","high","True","False",339,400,NA
"AIOLG7U4ZM44P","Wed Sep 23 2020 08:03:34 GMT-0700 (Pacific Daylight Time)","Wed Sep 23 2020 08:10:52 GMT-0700 (Pacific Daylight Time)","Mozilla/5.0 (Windows NT 10.0; Win64; x64) AppleWebKit/537.36 (KHTML, like Gecko) Chrome/85.0.4183.121 Safari/537.36",5,"[0.9, 0.5, 0.1]","[0.8, 0.4, 0.2]","[u'red', u'blue', u'black']","[u'left', u'middle', u'right']","[0.9, 0.5, 0.1]","[u'high', u'medium', u'low']","red",49,"left","high","True","False",323,500,NA
"AIOLG7U4ZM44P","Wed Sep 23 2020 08:03:34 GMT-0700 (Pacific Daylight Time)","Wed Sep 23 2020 08:10:52 GMT-0700 (Pacific Daylight Time)","Mozilla/5.0 (Windows NT 10.0; Win64; x64) AppleWebKit/537.36 (KHTML, like Gecko) Chrome/85.0.4183.121 Safari/537.36",6,"[0.9, 0.5, 0.1]","[0.8, 0.4, 0.2]","[u'red', u'blue', u'black']","[u'left', u'middle', u'right']","[0.9, 0.5, 0.1]","[u'high', u'medium', u'low']","red",49,"left","high","True","False",508,600,NA
"AIOLG7U4ZM44P","Wed Sep 23 2020 08:03:34 GMT-0700 (Pacific Daylight Time)","Wed Sep 23 2020 08:10:52 GMT-0700 (Pacific Daylight Time)","Mozilla/5.0 (Windows NT 10.0; Win64; x64) AppleWebKit/537.36 (KHTML, like Gecko) Chrome/85.0.4183.121 Safari/537.36",7,"[0.9, 0.5, 0.1]","[0.8, 0.4, 0.2]","[u'red', u'blue', u'black']","[u'left', u'middle', u'right']","[0.9, 0.5, 0.1]","[u'high', u'medium', u'low']","red",49,"left","high","True","False",265,700,NA
"AIOLG7U4ZM44P","Wed Sep 23 2020 08:03:34 GMT-0700 (Pacific Daylight Time)","Wed Sep 23 2020 08:10:52 GMT-0700 (Pacific Daylight Time)","Mozilla/5.0 (Windows NT 10.0; Win64; x64) AppleWebKit/537.36 (KHTML, like Gecko) Chrome/85.0.4183.121 Safari/537.36",8,"[0.9, 0.5, 0.1]","[0.8, 0.4, 0.2]","[u'red', u'blue', u'black']","[u'left', u'middle', u'right']","[0.9, 0.5, 0.1]","[u'high', u'medium', u'low']","red",49,"left","high","False","False",371,650,NA
"AIOLG7U4ZM44P","Wed Sep 23 2020 08:03:34 GMT-0700 (Pacific Daylight Time)","Wed Sep 23 2020 08:10:52 GMT-0700 (Pacific Daylight Time)","Mozilla/5.0 (Windows NT 10.0; Win64; x64) AppleWebKit/537.36 (KHTML, like Gecko) Chrome/85.0.4183.121 Safari/537.36",9,"[0.9, 0.5, 0.1]","[0.8, 0.4, 0.2]","[u'red', u'blue', u'black']","[u'left', u'middle', u'right']","[0.9, 0.5, 0.1]","[u'high', u'medium', u'low']","blue",50,"middle","medium","True","False",299,750,NA
"AIOLG7U4ZM44P","Wed Sep 23 2020 08:03:34 GMT-0700 (Pacific Daylight Time)","Wed Sep 23 2020 08:10:52 GMT-0700 (Pacific Daylight Time)","Mozilla/5.0 (Windows NT 10.0; Win64; x64) AppleWebKit/537.36 (KHTML, like Gecko) Chrome/85.0.4183.121 Safari/537.36",10,"[0.9, 0.5, 0.1]","[0.8, 0.4, 0.2]","[u'red', u'blue', u'black']","[u'left', u'middle', u'right']","[0.9, 0.5, 0.1]","[u'high', u'medium', u'low']","blue",50,"middle","medium","True","False",259,850,NA
"AIOLG7U4ZM44P","Wed Sep 23 2020 08:03:34 GMT-0700 (Pacific Daylight Time)","Wed Sep 23 2020 08:10:52 GMT-0700 (Pacific Daylight Time)","Mozilla/5.0 (Windows NT 10.0; Win64; x64) AppleWebKit/537.36 (KHTML, like Gecko) Chrome/85.0.4183.121 Safari/537.36",11,"[0.9, 0.5, 0.1]","[0.8, 0.4, 0.2]","[u'red', u'blue', u'black']","[u'left', u'middle', u'right']","[0.9, 0.5, 0.1]","[u'high', u'medium', u'low']","blue",50,"middle","medium","True","False",267,950,NA
"AIOLG7U4ZM44P","Wed Sep 23 2020 08:03:34 GMT-0700 (Pacific Daylight Time)","Wed Sep 23 2020 08:10:52 GMT-0700 (Pacific Daylight Time)","Mozilla/5.0 (Windows NT 10.0; Win64; x64) AppleWebKit/537.36 (KHTML, like Gecko) Chrome/85.0.4183.121 Safari/537.36",12,"[0.9, 0.5, 0.1]","[0.8, 0.4, 0.2]","[u'red', u'blue', u'black']","[u'left', u'middle', u'right']","[0.9, 0.5, 0.1]","[u'high', u'medium', u'low']","blue",50,"middle","medium","False","False",155,900,NA
"AIOLG7U4ZM44P","Wed Sep 23 2020 08:03:34 GMT-0700 (Pacific Daylight Time)","Wed Sep 23 2020 08:10:52 GMT-0700 (Pacific Daylight Time)","Mozilla/5.0 (Windows NT 10.0; Win64; x64) AppleWebKit/537.36 (KHTML, like Gecko) Chrome/85.0.4183.121 Safari/537.36",13,"[0.9, 0.5, 0.1]","[0.8, 0.4, 0.2]","[u'red', u'blue', u'black']","[u'left', u'middle', u'right']","[0.9, 0.5, 0.1]","[u'high', u'medium', u'low']","black",51,"right","low","False","False",490,850,NA
"AIOLG7U4ZM44P","Wed Sep 23 2020 08:03:34 GMT-0700 (Pacific Daylight Time)","Wed Sep 23 2020 08:10:52 GMT-0700 (Pacific Daylight Time)","Mozilla/5.0 (Windows NT 10.0; Win64; x64) AppleWebKit/537.36 (KHTML, like Gecko) Chrome/85.0.4183.121 Safari/537.36",14,"[0.9, 0.5, 0.1]","[0.8, 0.4, 0.2]","[u'red', u'blue', u'black']","[u'left', u'middle', u'right']","[0.9, 0.5, 0.1]","[u'high', u'medium', u'low']","red",49,"left","high","False","False",548,800,NA
"AIOLG7U4ZM44P","Wed Sep 23 2020 08:03:34 GMT-0700 (Pacific Daylight Time)","Wed Sep 23 2020 08:10:52 GMT-0700 (Pacific Daylight Time)","Mozilla/5.0 (Windows NT 10.0; Win64; x64) AppleWebKit/537.36 (KHTML, like Gecko) Chrome/85.0.4183.121 Safari/537.36",15,"[0.9, 0.5, 0.1]","[0.8, 0.4, 0.2]","[u'red', u'blue', u'black']","[u'left', u'middle', u'right']","[0.9, 0.5, 0.1]","[u'high', u'medium', u'low']","blue",50,"middle","medium","False","False",380,750,NA
"AIOLG7U4ZM44P","Wed Sep 23 2020 08:03:34 GMT-0700 (Pacific Daylight Time)","Wed Sep 23 2020 08:10:52 GMT-0700 (Pacific Daylight Time)","Mozilla/5.0 (Windows NT 10.0; Win64; x64) AppleWebKit/537.36 (KHTML, like Gecko) Chrome/85.0.4183.121 Safari/537.36",16,"[0.9, 0.5, 0.1]","[0.8, 0.4, 0.2]","[u'red', u'blue', u'black']","[u'left', u'middle', u'right']","[0.9, 0.5, 0.1]","[u'high', u'medium', u'low']","black",51,"right","low","False","False",1067,700,NA
"AIOLG7U4ZM44P","Wed Sep 23 2020 08:03:34 GMT-0700 (Pacific Daylight Time)","Wed Sep 23 2020 08:10:52 GMT-0700 (Pacific Daylight Time)","Mozilla/5.0 (Windows NT 10.0; Win64; x64) AppleWebKit/537.36 (KHTML, like Gecko) Chrome/85.0.4183.121 Safari/537.36",17,"[0.9, 0.5, 0.1]","[0.8, 0.4, 0.2]","[u'red', u'blue', u'black']","[u'left', u'middle', u'right']","[0.9, 0.5, 0.1]","[u'high', u'medium', u'low']","blue",50,"middle","medium","False","False",387,650,NA
"AIOLG7U4ZM44P","Wed Sep 23 2020 08:03:34 GMT-0700 (Pacific Daylight Time)","Wed Sep 23 2020 08:10:52 GMT-0700 (Pacific Daylight Time)","Mozilla/5.0 (Windows NT 10.0; Win64; x64) AppleWebKit/537.36 (KHTML, like Gecko) Chrome/85.0.4183.121 Safari/537.36",18,"[0.9, 0.5, 0.1]","[0.8, 0.4, 0.2]","[u'red', u'blue', u'black']","[u'left', u'middle', u'right']","[0.9, 0.5, 0.1]","[u'high', u'medium', u'low']","red",49,"left","high","True","False",259,750,NA
"AIOLG7U4ZM44P","Wed Sep 23 2020 08:03:34 GMT-0700 (Pacific Daylight Time)","Wed Sep 23 2020 08:10:52 GMT-0700 (Pacific Daylight Time)","Mozilla/5.0 (Windows NT 10.0; Win64; x64) AppleWebKit/537.36 (KHTML, like Gecko) Chrome/85.0.4183.121 Safari/537.36",19,"[0.9, 0.5, 0.1]","[0.8, 0.4, 0.2]","[u'red', u'blue', u'black']","[u'left', u'middle', u'right']","[0.9, 0.5, 0.1]","[u'high', u'medium', u'low']","red",49,"left","high","False","False",331,700,NA
"AIOLG7U4ZM44P","Wed Sep 23 2020 08:03:34 GMT-0700 (Pacific Daylight Time)","Wed Sep 23 2020 08:10:52 GMT-0700 (Pacific Daylight Time)","Mozilla/5.0 (Windows NT 10.0; Win64; x64) AppleWebKit/537.36 (KHTML, like Gecko) Chrome/85.0.4183.121 Safari/537.36",20,"[0.9, 0.5, 0.1]","[0.8, 0.4, 0.2]","[u'red', u'blue', u'black']","[u'left', u'middle', u'right']","[0.9, 0.5, 0.1]","[u'high', u'medium', u'low']","red",49,"left","high","True","False",242,800,NA
"AIOLG7U4ZM44P","Wed Sep 23 2020 08:03:34 GMT-0700 (Pacific Daylight Time)","Wed Sep 23 2020 08:10:52 GMT-0700 (Pacific Daylight Time)","Mozilla/5.0 (Windows NT 10.0; Win64; x64) AppleWebKit/537.36 (KHTML, like Gecko) Chrome/85.0.4183.121 Safari/537.36",21,"[0.9, 0.5, 0.1]","[0.8, 0.4, 0.2]","[u'red', u'blue', u'black']","[u'left', u'middle', u'right']","[0.9, 0.5, 0.1]","[u'high', u'medium', u'low']","red",49,"left","high","True","False",123,900,NA
"AIOLG7U4ZM44P","Wed Sep 23 2020 08:03:34 GMT-0700 (Pacific Daylight Time)","Wed Sep 23 2020 08:10:52 GMT-0700 (Pacific Daylight Time)","Mozilla/5.0 (Windows NT 10.0; Win64; x64) AppleWebKit/537.36 (KHTML, like Gecko) Chrome/85.0.4183.121 Safari/537.36",22,"[0.9, 0.5, 0.1]","[0.8, 0.4, 0.2]","[u'red', u'blue', u'black']","[u'left', u'middle', u'right']","[0.9, 0.5, 0.1]","[u'high', u'medium', u'low']","red",49,"left","high","True","False",51,1000,NA
"AIOLG7U4ZM44P","Wed Sep 23 2020 08:03:34 GMT-0700 (Pacific Daylight Time)","Wed Sep 23 2020 08:10:52 GMT-0700 (Pacific Daylight Time)","Mozilla/5.0 (Windows NT 10.0; Win64; x64) AppleWebKit/537.36 (KHTML, like Gecko) Chrome/85.0.4183.121 Safari/537.36",23,"[0.9, 0.5, 0.1]","[0.8, 0.4, 0.2]","[u'red', u'blue', u'black']","[u'left', u'middle', u'right']","[0.9, 0.5, 0.1]","[u'high', u'medium', u'low']","red",49,"left","high","True","False",283,1100,NA
"AIOLG7U4ZM44P","Wed Sep 23 2020 08:03:34 GMT-0700 (Pacific Daylight Time)","Wed Sep 23 2020 08:10:52 GMT-0700 (Pacific Daylight Time)","Mozilla/5.0 (Windows NT 10.0; Win64; x64) AppleWebKit/537.36 (KHTML, like Gecko) Chrome/85.0.4183.121 Safari/537.36",24,"[0.9, 0.5, 0.1]","[0.8, 0.4, 0.2]","[u'red', u'blue', u'black']","[u'left', u'middle', u'right']","[0.9, 0.5, 0.1]","[u'high', u'medium', u'low']","red",49,"left","high","True","False",586,1200,NA
"AIOLG7U4ZM44P","Wed Sep 23 2020 08:03:34 GMT-0700 (Pacific Daylight Time)","Wed Sep 23 2020 08:10:52 GMT-0700 (Pacific Daylight Time)","Mozilla/5.0 (Windows NT 10.0; Win64; x64) AppleWebKit/537.36 (KHTML, like Gecko) Chrome/85.0.4183.121 Safari/537.36",25,"[0.9, 0.5, 0.1]","[0.8, 0.4, 0.2]","[u'red', u'blue', u'black']","[u'left', u'middle', u'right']","[0.9, 0.5, 0.1]","[u'high', u'medium', u'low']","red",49,"left","high","True","False",266,1300,NA
"AIOLG7U4ZM44P","Wed Sep 23 2020 08:03:34 GMT-0700 (Pacific Daylight Time)","Wed Sep 23 2020 08:10:52 GMT-0700 (Pacific Daylight Time)","Mozilla/5.0 (Windows NT 10.0; Win64; x64) AppleWebKit/537.36 (KHTML, like Gecko) Chrome/85.0.4183.121 Safari/537.36",26,"[0.9, 0.5, 0.1]","[0.8, 0.4, 0.2]","[u'red', u'blue', u'black']","[u'left', u'middle', u'right']","[0.9, 0.5, 0.1]","[u'high', u'medium', u'low']","red",49,"left","high","True","True",340,1400,NA
"AIOLG7U4ZM44P","Wed Sep 23 2020 08:03:34 GMT-0700 (Pacific Daylight Time)","Wed Sep 23 2020 08:10:52 GMT-0700 (Pacific Daylight Time)","Mozilla/5.0 (Windows NT 10.0; Win64; x64) AppleWebKit/537.36 (KHTML, like Gecko) Chrome/85.0.4183.121 Safari/537.36",27,"[0.9, 0.5, 0.1]","[0.8, 0.4, 0.2]","[u'red', u'blue', u'black']","[u'left', u'middle', u'right']","[0.9, 0.5, 0.1]","[u'medium', u'low', u'high']","red",49,"left","medium","False","False",227,1350,NA
"AIOLG7U4ZM44P","Wed Sep 23 2020 08:03:34 GMT-0700 (Pacific Daylight Time)","Wed Sep 23 2020 08:10:52 GMT-0700 (Pacific Daylight Time)","Mozilla/5.0 (Windows NT 10.0; Win64; x64) AppleWebKit/537.36 (KHTML, like Gecko) Chrome/85.0.4183.121 Safari/537.36",28,"[0.9, 0.5, 0.1]","[0.8, 0.4, 0.2]","[u'red', u'blue', u'black']","[u'left', u'middle', u'right']","[0.9, 0.5, 0.1]","[u'medium', u'low', u'high']","red",49,"left","medium","True","False",739,1450,NA
"AIOLG7U4ZM44P","Wed Sep 23 2020 08:03:34 GMT-0700 (Pacific Daylight Time)","Wed Sep 23 2020 08:10:52 GMT-0700 (Pacific Daylight Time)","Mozilla/5.0 (Windows NT 10.0; Win64; x64) AppleWebKit/537.36 (KHTML, like Gecko) Chrome/85.0.4183.121 Safari/537.36",29,"[0.9, 0.5, 0.1]","[0.8, 0.4, 0.2]","[u'red', u'blue', u'black']","[u'left', u'middle', u'right']","[0.9, 0.5, 0.1]","[u'medium', u'low', u'high']","red",49,"left","medium","True","False",164,1550,NA
"AIOLG7U4ZM44P","Wed Sep 23 2020 08:03:34 GMT-0700 (Pacific Daylight Time)","Wed Sep 23 2020 08:10:52 GMT-0700 (Pacific Daylight Time)","Mozilla/5.0 (Windows NT 10.0; Win64; x64) AppleWebKit/537.36 (KHTML, like Gecko) Chrome/85.0.4183.121 Safari/537.36",30,"[0.9, 0.5, 0.1]","[0.8, 0.4, 0.2]","[u'red', u'blue', u'black']","[u'left', u'middle', u'right']","[0.9, 0.5, 0.1]","[u'medium', u'low', u'high']","red",49,"left","medium","True","False",50,1650,NA
"AIOLG7U4ZM44P","Wed Sep 23 2020 08:03:34 GMT-0700 (Pacific Daylight Time)","Wed Sep 23 2020 08:10:52 GMT-0700 (Pacific Daylight Time)","Mozilla/5.0 (Windows NT 10.0; Win64; x64) AppleWebKit/537.36 (KHTML, like Gecko) Chrome/85.0.4183.121 Safari/537.36",31,"[0.9, 0.5, 0.1]","[0.8, 0.4, 0.2]","[u'red', u'blue', u'black']","[u'left', u'middle', u'right']","[0.9, 0.5, 0.1]","[u'medium', u'low', u'high']","red",49,"left","medium","False","False",276,1600,NA
"AIOLG7U4ZM44P","Wed Sep 23 2020 08:03:34 GMT-0700 (Pacific Daylight Time)","Wed Sep 23 2020 08:10:52 GMT-0700 (Pacific Daylight Time)","Mozilla/5.0 (Windows NT 10.0; Win64; x64) AppleWebKit/537.36 (KHTML, like Gecko) Chrome/85.0.4183.121 Safari/537.36",32,"[0.9, 0.5, 0.1]","[0.8, 0.4, 0.2]","[u'red', u'blue', u'black']","[u'left', u'middle', u'right']","[0.9, 0.5, 0.1]","[u'medium', u'low', u'high']","blue",50,"middle","low","False","False",227,1550,NA
"AIOLG7U4ZM44P","Wed Sep 23 2020 08:03:34 GMT-0700 (Pacific Daylight Time)","Wed Sep 23 2020 08:10:52 GMT-0700 (Pacific Daylight Time)","Mozilla/5.0 (Windows NT 10.0; Win64; x64) AppleWebKit/537.36 (KHTML, like Gecko) Chrome/85.0.4183.121 Safari/537.36",33,"[0.9, 0.5, 0.1]","[0.8, 0.4, 0.2]","[u'red', u'blue', u'black']","[u'left', u'middle', u'right']","[0.9, 0.5, 0.1]","[u'medium', u'low', u'high']","black",51,"right","high","True","False",251,1650,NA
"AIOLG7U4ZM44P","Wed Sep 23 2020 08:03:34 GMT-0700 (Pacific Daylight Time)","Wed Sep 23 2020 08:10:52 GMT-0700 (Pacific Daylight Time)","Mozilla/5.0 (Windows NT 10.0; Win64; x64) AppleWebKit/537.36 (KHTML, like Gecko) Chrome/85.0.4183.121 Safari/537.36",34,"[0.9, 0.5, 0.1]","[0.8, 0.4, 0.2]","[u'red', u'blue', u'black']","[u'left', u'middle', u'right']","[0.9, 0.5, 0.1]","[u'medium', u'low', u'high']","black",51,"right","high","True","False",211,1750,NA
"AIOLG7U4ZM44P","Wed Sep 23 2020 08:03:34 GMT-0700 (Pacific Daylight Time)","Wed Sep 23 2020 08:10:52 GMT-0700 (Pacific Daylight Time)","Mozilla/5.0 (Windows NT 10.0; Win64; x64) AppleWebKit/537.36 (KHTML, like Gecko) Chrome/85.0.4183.121 Safari/537.36",35,"[0.9, 0.5, 0.1]","[0.8, 0.4, 0.2]","[u'red', u'blue', u'black']","[u'left', u'middle', u'right']","[0.9, 0.5, 0.1]","[u'medium', u'low', u'high']","black",51,"right","high","True","False",163,1850,NA
"AIOLG7U4ZM44P","Wed Sep 23 2020 08:03:34 GMT-0700 (Pacific Daylight Time)","Wed Sep 23 2020 08:10:52 GMT-0700 (Pacific Daylight Time)","Mozilla/5.0 (Windows NT 10.0; Win64; x64) AppleWebKit/537.36 (KHTML, like Gecko) Chrome/85.0.4183.121 Safari/537.36",36,"[0.9, 0.5, 0.1]","[0.8, 0.4, 0.2]","[u'red', u'blue', u'black']","[u'left', u'middle', u'right']","[0.9, 0.5, 0.1]","[u'medium', u'low', u'high']","black",51,"right","high","True","False",130,1950,NA
"AIOLG7U4ZM44P","Wed Sep 23 2020 08:03:34 GMT-0700 (Pacific Daylight Time)","Wed Sep 23 2020 08:10:52 GMT-0700 (Pacific Daylight Time)","Mozilla/5.0 (Windows NT 10.0; Win64; x64) AppleWebKit/537.36 (KHTML, like Gecko) Chrome/85.0.4183.121 Safari/537.36",37,"[0.9, 0.5, 0.1]","[0.8, 0.4, 0.2]","[u'red', u'blue', u'black']","[u'left', u'middle', u'right']","[0.9, 0.5, 0.1]","[u'medium', u'low', u'high']","black",51,"right","high","False","False",123,1900,NA
"AIOLG7U4ZM44P","Wed Sep 23 2020 08:03:34 GMT-0700 (Pacific Daylight Time)","Wed Sep 23 2020 08:10:52 GMT-0700 (Pacific Daylight Time)","Mozilla/5.0 (Windows NT 10.0; Win64; x64) AppleWebKit/537.36 (KHTML, like Gecko) Chrome/85.0.4183.121 Safari/537.36",38,"[0.9, 0.5, 0.1]","[0.8, 0.4, 0.2]","[u'red', u'blue', u'black']","[u'left', u'middle', u'right']","[0.9, 0.5, 0.1]","[u'medium', u'low', u'high']","black",51,"right","high","True","False",67,2000,NA
"AIOLG7U4ZM44P","Wed Sep 23 2020 08:03:34 GMT-0700 (Pacific Daylight Time)","Wed Sep 23 2020 08:10:52 GMT-0700 (Pacific Daylight Time)","Mozilla/5.0 (Windows NT 10.0; Win64; x64) AppleWebKit/537.36 (KHTML, like Gecko) Chrome/85.0.4183.121 Safari/537.36",39,"[0.9, 0.5, 0.1]","[0.8, 0.4, 0.2]","[u'red', u'blue', u'black']","[u'left', u'middle', u'right']","[0.9, 0.5, 0.1]","[u'medium', u'low', u'high']","black",51,"right","high","True","False",82,2100,NA
"AIOLG7U4ZM44P","Wed Sep 23 2020 08:03:34 GMT-0700 (Pacific Daylight Time)","Wed Sep 23 2020 08:10:52 GMT-0700 (Pacific Daylight Time)","Mozilla/5.0 (Windows NT 10.0; Win64; x64) AppleWebKit/537.36 (KHTML, like Gecko) Chrome/85.0.4183.121 Safari/537.36",40,"[0.9, 0.5, 0.1]","[0.8, 0.4, 0.2]","[u'red', u'blue', u'black']","[u'left', u'middle', u'right']","[0.9, 0.5, 0.1]","[u'medium', u'low', u'high']","black",51,"right","high","True","False",147,2200,NA
"AIOLG7U4ZM44P","Wed Sep 23 2020 08:03:34 GMT-0700 (Pacific Daylight Time)","Wed Sep 23 2020 08:10:52 GMT-0700 (Pacific Daylight Time)","Mozilla/5.0 (Windows NT 10.0; Win64; x64) AppleWebKit/537.36 (KHTML, like Gecko) Chrome/85.0.4183.121 Safari/537.36",41,"[0.9, 0.5, 0.1]","[0.8, 0.4, 0.2]","[u'red', u'blue', u'black']","[u'left', u'middle', u'right']","[0.9, 0.5, 0.1]","[u'medium', u'high', u'low']","black",51,"right","low","False","False",1155,2150,NA
"AIOLG7U4ZM44P","Wed Sep 23 2020 08:03:34 GMT-0700 (Pacific Daylight Time)","Wed Sep 23 2020 08:10:52 GMT-0700 (Pacific Daylight Time)","Mozilla/5.0 (Windows NT 10.0; Win64; x64) AppleWebKit/537.36 (KHTML, like Gecko) Chrome/85.0.4183.121 Safari/537.36",42,"[0.9, 0.5, 0.1]","[0.8, 0.4, 0.2]","[u'red', u'blue', u'black']","[u'left', u'middle', u'right']","[0.9, 0.5, 0.1]","[u'medium', u'high', u'low']","blue",50,"middle","high","True","False",258,2250,NA
"AIOLG7U4ZM44P","Wed Sep 23 2020 08:03:34 GMT-0700 (Pacific Daylight Time)","Wed Sep 23 2020 08:10:52 GMT-0700 (Pacific Daylight Time)","Mozilla/5.0 (Windows NT 10.0; Win64; x64) AppleWebKit/537.36 (KHTML, like Gecko) Chrome/85.0.4183.121 Safari/537.36",43,"[0.9, 0.5, 0.1]","[0.8, 0.4, 0.2]","[u'red', u'blue', u'black']","[u'left', u'middle', u'right']","[0.9, 0.5, 0.1]","[u'medium', u'high', u'low']","blue",50,"middle","high","True","False",75,2350,NA
"AIOLG7U4ZM44P","Wed Sep 23 2020 08:03:34 GMT-0700 (Pacific Daylight Time)","Wed Sep 23 2020 08:10:52 GMT-0700 (Pacific Daylight Time)","Mozilla/5.0 (Windows NT 10.0; Win64; x64) AppleWebKit/537.36 (KHTML, like Gecko) Chrome/85.0.4183.121 Safari/537.36",44,"[0.9, 0.5, 0.1]","[0.8, 0.4, 0.2]","[u'red', u'blue', u'black']","[u'left', u'middle', u'right']","[0.9, 0.5, 0.1]","[u'medium', u'high', u'low']","blue",50,"middle","high","False","False",139,2300,NA
"AIOLG7U4ZM44P","Wed Sep 23 2020 08:03:34 GMT-0700 (Pacific Daylight Time)","Wed Sep 23 2020 08:10:52 GMT-0700 (Pacific Daylight Time)","Mozilla/5.0 (Windows NT 10.0; Win64; x64) AppleWebKit/537.36 (KHTML, like Gecko) Chrome/85.0.4183.121 Safari/537.36",45,"[0.9, 0.5, 0.1]","[0.8, 0.4, 0.2]","[u'red', u'blue', u'black']","[u'left', u'middle', u'right']","[0.9, 0.5, 0.1]","[u'medium', u'high', u'low']","blue",50,"middle","high","True","False",50,2400,NA
"AIOLG7U4ZM44P","Wed Sep 23 2020 08:03:34 GMT-0700 (Pacific Daylight Time)","Wed Sep 23 2020 08:10:52 GMT-0700 (Pacific Daylight Time)","Mozilla/5.0 (Windows NT 10.0; Win64; x64) AppleWebKit/537.36 (KHTML, like Gecko) Chrome/85.0.4183.121 Safari/537.36",46,"[0.9, 0.5, 0.1]","[0.8, 0.4, 0.2]","[u'red', u'blue', u'black']","[u'left', u'middle', u'right']","[0.9, 0.5, 0.1]","[u'medium', u'high', u'low']","blue",50,"middle","high","True","False",411,2500,NA
"AIOLG7U4ZM44P","Wed Sep 23 2020 08:03:34 GMT-0700 (Pacific Daylight Time)","Wed Sep 23 2020 08:10:52 GMT-0700 (Pacific Daylight Time)","Mozilla/5.0 (Windows NT 10.0; Win64; x64) AppleWebKit/537.36 (KHTML, like Gecko) Chrome/85.0.4183.121 Safari/537.36",47,"[0.9, 0.5, 0.1]","[0.8, 0.4, 0.2]","[u'red', u'blue', u'black']","[u'left', u'middle', u'right']","[0.9, 0.5, 0.1]","[u'medium', u'high', u'low']","blue",50,"middle","high","False","False",179,2450,NA
"AIOLG7U4ZM44P","Wed Sep 23 2020 08:03:34 GMT-0700 (Pacific Daylight Time)","Wed Sep 23 2020 08:10:52 GMT-0700 (Pacific Daylight Time)","Mozilla/5.0 (Windows NT 10.0; Win64; x64) AppleWebKit/537.36 (KHTML, like Gecko) Chrome/85.0.4183.121 Safari/537.36",48,"[0.9, 0.5, 0.1]","[0.8, 0.4, 0.2]","[u'red', u'blue', u'black']","[u'left', u'middle', u'right']","[0.9, 0.5, 0.1]","[u'medium', u'high', u'low']","blue",50,"middle","high","True","False",404,2550,NA
"AIOLG7U4ZM44P","Wed Sep 23 2020 08:03:34 GMT-0700 (Pacific Daylight Time)","Wed Sep 23 2020 08:10:52 GMT-0700 (Pacific Daylight Time)","Mozilla/5.0 (Windows NT 10.0; Win64; x64) AppleWebKit/537.36 (KHTML, like Gecko) Chrome/85.0.4183.121 Safari/537.36",49,"[0.9, 0.5, 0.1]","[0.8, 0.4, 0.2]","[u'red', u'blue', u'black']","[u'left', u'middle', u'right']","[0.9, 0.5, 0.1]","[u'medium', u'high', u'low']","blue",50,"middle","high","False","False",179,2500,NA
"AIOLG7U4ZM44P","Wed Sep 23 2020 08:03:34 GMT-0700 (Pacific Daylight Time)","Wed Sep 23 2020 08:10:52 GMT-0700 (Pacific Daylight Time)","Mozilla/5.0 (Windows NT 10.0; Win64; x64) AppleWebKit/537.36 (KHTML, like Gecko) Chrome/85.0.4183.121 Safari/537.36",50,"[0.9, 0.5, 0.1]","[0.8, 0.4, 0.2]","[u'red', u'blue', u'black']","[u'left', u'middle', u'right']","[0.9, 0.5, 0.1]","[u'medium', u'high', u'low']","red",49,"left","medium","True","False",138,2600,NA
"AIOLG7U4ZM44P","Wed Sep 23 2020 08:03:34 GMT-0700 (Pacific Daylight Time)","Wed Sep 23 2020 08:10:52 GMT-0700 (Pacific Daylight Time)","Mozilla/5.0 (Windows NT 10.0; Win64; x64) AppleWebKit/537.36 (KHTML, like Gecko) Chrome/85.0.4183.121 Safari/537.36",51,"[0.9, 0.5, 0.1]","[0.8, 0.4, 0.2]","[u'red', u'blue', u'black']","[u'left', u'middle', u'right']","[0.9, 0.5, 0.1]","[u'medium', u'high', u'low']","red",49,"left","medium","False","False",484,2550,NA
"AIOLG7U4ZM44P","Wed Sep 23 2020 08:03:34 GMT-0700 (Pacific Daylight Time)","Wed Sep 23 2020 08:10:52 GMT-0700 (Pacific Daylight Time)","Mozilla/5.0 (Windows NT 10.0; Win64; x64) AppleWebKit/537.36 (KHTML, like Gecko) Chrome/85.0.4183.121 Safari/537.36",52,"[0.9, 0.5, 0.1]","[0.8, 0.4, 0.2]","[u'red', u'blue', u'black']","[u'left', u'middle', u'right']","[0.9, 0.5, 0.1]","[u'medium', u'high', u'low']","red",49,"left","medium","False","False",251,2500,NA
"AIOLG7U4ZM44P","Wed Sep 23 2020 08:03:34 GMT-0700 (Pacific Daylight Time)","Wed Sep 23 2020 08:10:52 GMT-0700 (Pacific Daylight Time)","Mozilla/5.0 (Windows NT 10.0; Win64; x64) AppleWebKit/537.36 (KHTML, like Gecko) Chrome/85.0.4183.121 Safari/537.36",53,"[0.9, 0.5, 0.1]","[0.8, 0.4, 0.2]","[u'red', u'blue', u'black']","[u'left', u'middle', u'right']","[0.9, 0.5, 0.1]","[u'medium', u'high', u'low']","blue",50,"middle","high","True","False",202,2600,NA
"AIOLG7U4ZM44P","Wed Sep 23 2020 08:03:34 GMT-0700 (Pacific Daylight Time)","Wed Sep 23 2020 08:10:52 GMT-0700 (Pacific Daylight Time)","Mozilla/5.0 (Windows NT 10.0; Win64; x64) AppleWebKit/537.36 (KHTML, like Gecko) Chrome/85.0.4183.121 Safari/537.36",54,"[0.9, 0.5, 0.1]","[0.8, 0.4, 0.2]","[u'red', u'blue', u'black']","[u'left', u'middle', u'right']","[0.9, 0.5, 0.1]","[u'medium', u'high', u'low']","blue",50,"middle","high","False","False",163,2550,NA
"AIOLG7U4ZM44P","Wed Sep 23 2020 08:03:34 GMT-0700 (Pacific Daylight Time)","Wed Sep 23 2020 08:10:52 GMT-0700 (Pacific Daylight Time)","Mozilla/5.0 (Windows NT 10.0; Win64; x64) AppleWebKit/537.36 (KHTML, like Gecko) Chrome/85.0.4183.121 Safari/537.36",55,"[0.9, 0.5, 0.1]","[0.8, 0.4, 0.2]","[u'red', u'blue', u'black']","[u'left', u'middle', u'right']","[0.9, 0.5, 0.1]","[u'medium', u'high', u'low']","black",51,"right","low","False","False",170,2500,NA
"AIOLG7U4ZM44P","Wed Sep 23 2020 08:03:34 GMT-0700 (Pacific Daylight Time)","Wed Sep 23 2020 08:10:52 GMT-0700 (Pacific Daylight Time)","Mozilla/5.0 (Windows NT 10.0; Win64; x64) AppleWebKit/537.36 (KHTML, like Gecko) Chrome/85.0.4183.121 Safari/537.36",56,"[0.9, 0.5, 0.1]","[0.8, 0.4, 0.2]","[u'red', u'blue', u'black']","[u'left', u'middle', u'right']","[0.9, 0.5, 0.1]","[u'medium', u'high', u'low']","black",51,"right","low","False","False",12,2450,NA
"AIOLG7U4ZM44P","Wed Sep 23 2020 08:03:34 GMT-0700 (Pacific Daylight Time)","Wed Sep 23 2020 08:10:52 GMT-0700 (Pacific Daylight Time)","Mozilla/5.0 (Windows NT 10.0; Win64; x64) AppleWebKit/537.36 (KHTML, like Gecko) Chrome/85.0.4183.121 Safari/537.36",57,"[0.9, 0.5, 0.1]","[0.8, 0.4, 0.2]","[u'red', u'blue', u'black']","[u'left', u'middle', u'right']","[0.9, 0.5, 0.1]","[u'medium', u'high', u'low']","blue",50,"middle","high","True","False",59,2550,NA
"AIOLG7U4ZM44P","Wed Sep 23 2020 08:03:34 GMT-0700 (Pacific Daylight Time)","Wed Sep 23 2020 08:10:52 GMT-0700 (Pacific Daylight Time)","Mozilla/5.0 (Windows NT 10.0; Win64; x64) AppleWebKit/537.36 (KHTML, like Gecko) Chrome/85.0.4183.121 Safari/537.36",58,"[0.9, 0.5, 0.1]","[0.8, 0.4, 0.2]","[u'red', u'blue', u'black']","[u'left', u'middle', u'right']","[0.9, 0.5, 0.1]","[u'medium', u'high', u'low']","blue",50,"middle","high","True","False",218,2650,NA
"AIOLG7U4ZM44P","Wed Sep 23 2020 08:03:34 GMT-0700 (Pacific Daylight Time)","Wed Sep 23 2020 08:10:52 GMT-0700 (Pacific Daylight Time)","Mozilla/5.0 (Windows NT 10.0; Win64; x64) AppleWebKit/537.36 (KHTML, like Gecko) Chrome/85.0.4183.121 Safari/537.36",59,"[0.9, 0.5, 0.1]","[0.8, 0.4, 0.2]","[u'red', u'blue', u'black']","[u'left', u'middle', u'right']","[0.9, 0.5, 0.1]","[u'medium', u'high', u'low']","blue",50,"middle","high","False","False",37,2600,NA
"AIOLG7U4ZM44P","Wed Sep 23 2020 08:03:34 GMT-0700 (Pacific Daylight Time)","Wed Sep 23 2020 08:10:52 GMT-0700 (Pacific Daylight Time)","Mozilla/5.0 (Windows NT 10.0; Win64; x64) AppleWebKit/537.36 (KHTML, like Gecko) Chrome/85.0.4183.121 Safari/537.36",60,"[0.9, 0.5, 0.1]","[0.8, 0.4, 0.2]","[u'red', u'blue', u'black']","[u'left', u'middle', u'right']","[0.9, 0.5, 0.1]","[u'medium', u'high', u'low']","blue",50,"middle","high","True","False",114,2700,NA
"AIOLG7U4ZM44P","Wed Sep 23 2020 08:03:34 GMT-0700 (Pacific Daylight Time)","Wed Sep 23 2020 08:10:52 GMT-0700 (Pacific Daylight Time)","Mozilla/5.0 (Windows NT 10.0; Win64; x64) AppleWebKit/537.36 (KHTML, like Gecko) Chrome/85.0.4183.121 Safari/537.36",61,"[0.9, 0.5, 0.1]","[0.8, 0.4, 0.2]","[u'red', u'blue', u'black']","[u'left', u'middle', u'right']","[0.9, 0.5, 0.1]","[u'medium', u'high', u'low']","blue",50,"middle","high","True","False",172,2800,NA
"AIOLG7U4ZM44P","Wed Sep 23 2020 08:03:34 GMT-0700 (Pacific Daylight Time)","Wed Sep 23 2020 08:10:52 GMT-0700 (Pacific Daylight Time)","Mozilla/5.0 (Windows NT 10.0; Win64; x64) AppleWebKit/537.36 (KHTML, like Gecko) Chrome/85.0.4183.121 Safari/537.36",62,"[0.9, 0.5, 0.1]","[0.8, 0.4, 0.2]","[u'red', u'blue', u'black']","[u'left', u'middle', u'right']","[0.9, 0.5, 0.1]","[u'medium', u'high', u'low']","blue",50,"middle","high","True","False",187,2900,NA
"AIOLG7U4ZM44P","Wed Sep 23 2020 08:03:34 GMT-0700 (Pacific Daylight Time)","Wed Sep 23 2020 08:10:52 GMT-0700 (Pacific Daylight Time)","Mozilla/5.0 (Windows NT 10.0; Win64; x64) AppleWebKit/537.36 (KHTML, like Gecko) Chrome/85.0.4183.121 Safari/537.36",63,"[0.9, 0.5, 0.1]","[0.8, 0.4, 0.2]","[u'red', u'blue', u'black']","[u'left', u'middle', u'right']","[0.9, 0.5, 0.1]","[u'medium', u'high', u'low']","blue",50,"middle","high","True","False",18,3000,NA
"AIOLG7U4ZM44P","Wed Sep 23 2020 08:03:34 GMT-0700 (Pacific Daylight Time)","Wed Sep 23 2020 08:10:52 GMT-0700 (Pacific Daylight Time)","Mozilla/5.0 (Windows NT 10.0; Win64; x64) AppleWebKit/537.36 (KHTML, like Gecko) Chrome/85.0.4183.121 Safari/537.36",64,"[0.9, 0.5, 0.1]","[0.8, 0.4, 0.2]","[u'red', u'blue', u'black']","[u'left', u'middle', u'right']","[0.9, 0.5, 0.1]","[u'medium', u'high', u'low']","blue",50,"middle","high","True","False",171,3100,NA
"AIOLG7U4ZM44P","Wed Sep 23 2020 08:03:34 GMT-0700 (Pacific Daylight Time)","Wed Sep 23 2020 08:10:52 GMT-0700 (Pacific Daylight Time)","Mozilla/5.0 (Windows NT 10.0; Win64; x64) AppleWebKit/537.36 (KHTML, like Gecko) Chrome/85.0.4183.121 Safari/537.36",65,"[0.9, 0.5, 0.1]","[0.8, 0.4, 0.2]","[u'red', u'blue', u'black']","[u'left', u'middle', u'right']","[0.9, 0.5, 0.1]","[u'medium', u'high', u'low']","blue",50,"middle","high","True","True",99,3200,NA
"AIOLG7U4ZM44P","Wed Sep 23 2020 08:03:34 GMT-0700 (Pacific Daylight Time)","Wed Sep 23 2020 08:10:52 GMT-0700 (Pacific Daylight Time)","Mozilla/5.0 (Windows NT 10.0; Win64; x64) AppleWebKit/537.36 (KHTML, like Gecko) Chrome/85.0.4183.121 Safari/537.36",66,"[0.9, 0.5, 0.1]","[0.8, 0.4, 0.2]","[u'red', u'blue', u'black']","[u'left', u'middle', u'right']","[0.9, 0.5, 0.1]","[u'low', u'medium', u'high']","blue",50,"middle","medium","False","False",131,3150,NA
"AIOLG7U4ZM44P","Wed Sep 23 2020 08:03:34 GMT-0700 (Pacific Daylight Time)","Wed Sep 23 2020 08:10:52 GMT-0700 (Pacific Daylight Time)","Mozilla/5.0 (Windows NT 10.0; Win64; x64) AppleWebKit/537.36 (KHTML, like Gecko) Chrome/85.0.4183.121 Safari/537.36",67,"[0.9, 0.5, 0.1]","[0.8, 0.4, 0.2]","[u'red', u'blue', u'black']","[u'left', u'middle', u'right']","[0.9, 0.5, 0.1]","[u'low', u'medium', u'high']","blue",50,"middle","medium","False","False",299,3100,NA
"AIOLG7U4ZM44P","Wed Sep 23 2020 08:03:34 GMT-0700 (Pacific Daylight Time)","Wed Sep 23 2020 08:10:52 GMT-0700 (Pacific Daylight Time)","Mozilla/5.0 (Windows NT 10.0; Win64; x64) AppleWebKit/537.36 (KHTML, like Gecko) Chrome/85.0.4183.121 Safari/537.36",68,"[0.9, 0.5, 0.1]","[0.8, 0.4, 0.2]","[u'red', u'blue', u'black']","[u'left', u'middle', u'right']","[0.9, 0.5, 0.1]","[u'low', u'medium', u'high']","black",51,"right","high","True","False",611,3200,NA
"AIOLG7U4ZM44P","Wed Sep 23 2020 08:03:34 GMT-0700 (Pacific Daylight Time)","Wed Sep 23 2020 08:10:52 GMT-0700 (Pacific Daylight Time)","Mozilla/5.0 (Windows NT 10.0; Win64; x64) AppleWebKit/537.36 (KHTML, like Gecko) Chrome/85.0.4183.121 Safari/537.36",69,"[0.9, 0.5, 0.1]","[0.8, 0.4, 0.2]","[u'red', u'blue', u'black']","[u'left', u'middle', u'right']","[0.9, 0.5, 0.1]","[u'low', u'medium', u'high']","black",51,"right","high","False","False",195,3150,NA
"AIOLG7U4ZM44P","Wed Sep 23 2020 08:03:34 GMT-0700 (Pacific Daylight Time)","Wed Sep 23 2020 08:10:52 GMT-0700 (Pacific Daylight Time)","Mozilla/5.0 (Windows NT 10.0; Win64; x64) AppleWebKit/537.36 (KHTML, like Gecko) Chrome/85.0.4183.121 Safari/537.36",70,"[0.9, 0.5, 0.1]","[0.8, 0.4, 0.2]","[u'red', u'blue', u'black']","[u'left', u'middle', u'right']","[0.9, 0.5, 0.1]","[u'low', u'medium', u'high']","black",51,"right","high","True","False",235,3250,NA
"AIOLG7U4ZM44P","Wed Sep 23 2020 08:03:34 GMT-0700 (Pacific Daylight Time)","Wed Sep 23 2020 08:10:52 GMT-0700 (Pacific Daylight Time)","Mozilla/5.0 (Windows NT 10.0; Win64; x64) AppleWebKit/537.36 (KHTML, like Gecko) Chrome/85.0.4183.121 Safari/537.36",71,"[0.9, 0.5, 0.1]","[0.8, 0.4, 0.2]","[u'red', u'blue', u'black']","[u'left', u'middle', u'right']","[0.9, 0.5, 0.1]","[u'low', u'medium', u'high']","black",51,"right","high","True","False",51,3350,NA
"AIOLG7U4ZM44P","Wed Sep 23 2020 08:03:34 GMT-0700 (Pacific Daylight Time)","Wed Sep 23 2020 08:10:52 GMT-0700 (Pacific Daylight Time)","Mozilla/5.0 (Windows NT 10.0; Win64; x64) AppleWebKit/537.36 (KHTML, like Gecko) Chrome/85.0.4183.121 Safari/537.36",72,"[0.9, 0.5, 0.1]","[0.8, 0.4, 0.2]","[u'red', u'blue', u'black']","[u'left', u'middle', u'right']","[0.9, 0.5, 0.1]","[u'low', u'medium', u'high']","black",51,"right","high","True","False",84,3450,NA
"AIOLG7U4ZM44P","Wed Sep 23 2020 08:03:34 GMT-0700 (Pacific Daylight Time)","Wed Sep 23 2020 08:10:52 GMT-0700 (Pacific Daylight Time)","Mozilla/5.0 (Windows NT 10.0; Win64; x64) AppleWebKit/537.36 (KHTML, like Gecko) Chrome/85.0.4183.121 Safari/537.36",73,"[0.9, 0.5, 0.1]","[0.8, 0.4, 0.2]","[u'red', u'blue', u'black']","[u'left', u'middle', u'right']","[0.9, 0.5, 0.1]","[u'low', u'medium', u'high']","black",51,"right","high","True","False",160,3550,NA
"AIOLG7U4ZM44P","Wed Sep 23 2020 08:03:34 GMT-0700 (Pacific Daylight Time)","Wed Sep 23 2020 08:10:52 GMT-0700 (Pacific Daylight Time)","Mozilla/5.0 (Windows NT 10.0; Win64; x64) AppleWebKit/537.36 (KHTML, like Gecko) Chrome/85.0.4183.121 Safari/537.36",74,"[0.9, 0.5, 0.1]","[0.8, 0.4, 0.2]","[u'red', u'blue', u'black']","[u'left', u'middle', u'right']","[0.9, 0.5, 0.1]","[u'low', u'medium', u'high']","black",51,"right","high","True","False",203,3650,NA
"AIOLG7U4ZM44P","Wed Sep 23 2020 08:03:34 GMT-0700 (Pacific Daylight Time)","Wed Sep 23 2020 08:10:52 GMT-0700 (Pacific Daylight Time)","Mozilla/5.0 (Windows NT 10.0; Win64; x64) AppleWebKit/537.36 (KHTML, like Gecko) Chrome/85.0.4183.121 Safari/537.36",75,"[0.9, 0.5, 0.1]","[0.8, 0.4, 0.2]","[u'red', u'blue', u'black']","[u'left', u'middle', u'right']","[0.9, 0.5, 0.1]","[u'low', u'medium', u'high']","black",51,"right","high","True","False",291,3750,NA
"AIOLG7U4ZM44P","Wed Sep 23 2020 08:03:34 GMT-0700 (Pacific Daylight Time)","Wed Sep 23 2020 08:10:52 GMT-0700 (Pacific Daylight Time)","Mozilla/5.0 (Windows NT 10.0; Win64; x64) AppleWebKit/537.36 (KHTML, like Gecko) Chrome/85.0.4183.121 Safari/537.36",76,"[0.9, 0.5, 0.1]","[0.8, 0.4, 0.2]","[u'red', u'blue', u'black']","[u'left', u'middle', u'right']","[0.9, 0.5, 0.1]","[u'low', u'medium', u'high']","black",51,"right","high","True","True",275,3850,NA
"AIOLG7U4ZM44P","Wed Sep 23 2020 08:03:34 GMT-0700 (Pacific Daylight Time)","Wed Sep 23 2020 08:10:52 GMT-0700 (Pacific Daylight Time)","Mozilla/5.0 (Windows NT 10.0; Win64; x64) AppleWebKit/537.36 (KHTML, like Gecko) Chrome/85.0.4183.121 Safari/537.36",77,"[0.9, 0.5, 0.1]","[0.8, 0.4, 0.2]","[u'red', u'blue', u'black']","[u'left', u'middle', u'right']","[0.9, 0.5, 0.1]","[u'high', u'low', u'medium']","black",51,"right","medium","False","False",459,3800,NA
"AIOLG7U4ZM44P","Wed Sep 23 2020 08:03:34 GMT-0700 (Pacific Daylight Time)","Wed Sep 23 2020 08:10:52 GMT-0700 (Pacific Daylight Time)","Mozilla/5.0 (Windows NT 10.0; Win64; x64) AppleWebKit/537.36 (KHTML, like Gecko) Chrome/85.0.4183.121 Safari/537.36",78,"[0.9, 0.5, 0.1]","[0.8, 0.4, 0.2]","[u'red', u'blue', u'black']","[u'left', u'middle', u'right']","[0.9, 0.5, 0.1]","[u'high', u'low', u'medium']","black",51,"right","medium","True","False",92,3900,NA
"AIOLG7U4ZM44P","Wed Sep 23 2020 08:03:34 GMT-0700 (Pacific Daylight Time)","Wed Sep 23 2020 08:10:52 GMT-0700 (Pacific Daylight Time)","Mozilla/5.0 (Windows NT 10.0; Win64; x64) AppleWebKit/537.36 (KHTML, like Gecko) Chrome/85.0.4183.121 Safari/537.36",79,"[0.9, 0.5, 0.1]","[0.8, 0.4, 0.2]","[u'red', u'blue', u'black']","[u'left', u'middle', u'right']","[0.9, 0.5, 0.1]","[u'high', u'low', u'medium']","black",51,"right","medium","True","False",42,4000,NA
"AIOLG7U4ZM44P","Wed Sep 23 2020 08:03:34 GMT-0700 (Pacific Daylight Time)","Wed Sep 23 2020 08:10:52 GMT-0700 (Pacific Daylight Time)","Mozilla/5.0 (Windows NT 10.0; Win64; x64) AppleWebKit/537.36 (KHTML, like Gecko) Chrome/85.0.4183.121 Safari/537.36",80,"[0.9, 0.5, 0.1]","[0.8, 0.4, 0.2]","[u'red', u'blue', u'black']","[u'left', u'middle', u'right']","[0.9, 0.5, 0.1]","[u'high', u'low', u'medium']","black",51,"right","medium","True","False",52,4100,NA
"AIOLG7U4ZM44P","Wed Sep 23 2020 08:03:34 GMT-0700 (Pacific Daylight Time)","Wed Sep 23 2020 08:10:52 GMT-0700 (Pacific Daylight Time)","Mozilla/5.0 (Windows NT 10.0; Win64; x64) AppleWebKit/537.36 (KHTML, like Gecko) Chrome/85.0.4183.121 Safari/537.36",81,"[0.9, 0.5, 0.1]","[0.8, 0.4, 0.2]","[u'red', u'blue', u'black']","[u'left', u'middle', u'right']","[0.8, 0.4, 0.2]","[u'low', u'medium', u'high']","blue",50,"middle","medium","False","False",819,4050,NA
"AIOLG7U4ZM44P","Wed Sep 23 2020 08:03:34 GMT-0700 (Pacific Daylight Time)","Wed Sep 23 2020 08:10:52 GMT-0700 (Pacific Daylight Time)","Mozilla/5.0 (Windows NT 10.0; Win64; x64) AppleWebKit/537.36 (KHTML, like Gecko) Chrome/85.0.4183.121 Safari/537.36",82,"[0.9, 0.5, 0.1]","[0.8, 0.4, 0.2]","[u'red', u'blue', u'black']","[u'left', u'middle', u'right']","[0.8, 0.4, 0.2]","[u'low', u'medium', u'high']","blue",50,"middle","medium","False","False",266,4000,NA
"AIOLG7U4ZM44P","Wed Sep 23 2020 08:03:34 GMT-0700 (Pacific Daylight Time)","Wed Sep 23 2020 08:10:52 GMT-0700 (Pacific Daylight Time)","Mozilla/5.0 (Windows NT 10.0; Win64; x64) AppleWebKit/537.36 (KHTML, like Gecko) Chrome/85.0.4183.121 Safari/537.36",83,"[0.9, 0.5, 0.1]","[0.8, 0.4, 0.2]","[u'red', u'blue', u'black']","[u'left', u'middle', u'right']","[0.8, 0.4, 0.2]","[u'low', u'medium', u'high']","black",51,"right","high","True","False",244,4100,NA
"AIOLG7U4ZM44P","Wed Sep 23 2020 08:03:34 GMT-0700 (Pacific Daylight Time)","Wed Sep 23 2020 08:10:52 GMT-0700 (Pacific Daylight Time)","Mozilla/5.0 (Windows NT 10.0; Win64; x64) AppleWebKit/537.36 (KHTML, like Gecko) Chrome/85.0.4183.121 Safari/537.36",84,"[0.9, 0.5, 0.1]","[0.8, 0.4, 0.2]","[u'red', u'blue', u'black']","[u'left', u'middle', u'right']","[0.8, 0.4, 0.2]","[u'low', u'medium', u'high']","black",51,"right","high","True","False",82,4200,NA
"AIOLG7U4ZM44P","Wed Sep 23 2020 08:03:34 GMT-0700 (Pacific Daylight Time)","Wed Sep 23 2020 08:10:52 GMT-0700 (Pacific Daylight Time)","Mozilla/5.0 (Windows NT 10.0; Win64; x64) AppleWebKit/537.36 (KHTML, like Gecko) Chrome/85.0.4183.121 Safari/537.36",85,"[0.9, 0.5, 0.1]","[0.8, 0.4, 0.2]","[u'red', u'blue', u'black']","[u'left', u'middle', u'right']","[0.8, 0.4, 0.2]","[u'low', u'medium', u'high']","black",51,"right","high","True","False",202,4300,NA
"AIOLG7U4ZM44P","Wed Sep 23 2020 08:03:34 GMT-0700 (Pacific Daylight Time)","Wed Sep 23 2020 08:10:52 GMT-0700 (Pacific Daylight Time)","Mozilla/5.0 (Windows NT 10.0; Win64; x64) AppleWebKit/537.36 (KHTML, like Gecko) Chrome/85.0.4183.121 Safari/537.36",86,"[0.9, 0.5, 0.1]","[0.8, 0.4, 0.2]","[u'red', u'blue', u'black']","[u'left', u'middle', u'right']","[0.8, 0.4, 0.2]","[u'low', u'medium', u'high']","black",51,"right","high","True","False",188,4400,NA
"AIOLG7U4ZM44P","Wed Sep 23 2020 08:03:34 GMT-0700 (Pacific Daylight Time)","Wed Sep 23 2020 08:10:52 GMT-0700 (Pacific Daylight Time)","Mozilla/5.0 (Windows NT 10.0; Win64; x64) AppleWebKit/537.36 (KHTML, like Gecko) Chrome/85.0.4183.121 Safari/537.36",87,"[0.9, 0.5, 0.1]","[0.8, 0.4, 0.2]","[u'red', u'blue', u'black']","[u'left', u'middle', u'right']","[0.8, 0.4, 0.2]","[u'low', u'medium', u'high']","black",51,"right","high","True","False",114,4500,NA
"AIOLG7U4ZM44P","Wed Sep 23 2020 08:03:34 GMT-0700 (Pacific Daylight Time)","Wed Sep 23 2020 08:10:52 GMT-0700 (Pacific Daylight Time)","Mozilla/5.0 (Windows NT 10.0; Win64; x64) AppleWebKit/537.36 (KHTML, like Gecko) Chrome/85.0.4183.121 Safari/537.36",88,"[0.9, 0.5, 0.1]","[0.8, 0.4, 0.2]","[u'red', u'blue', u'black']","[u'left', u'middle', u'right']","[0.8, 0.4, 0.2]","[u'low', u'medium', u'high']","black",51,"right","high","True","False",132,4600,NA
"AIOLG7U4ZM44P","Wed Sep 23 2020 08:03:34 GMT-0700 (Pacific Daylight Time)","Wed Sep 23 2020 08:10:52 GMT-0700 (Pacific Daylight Time)","Mozilla/5.0 (Windows NT 10.0; Win64; x64) AppleWebKit/537.36 (KHTML, like Gecko) Chrome/85.0.4183.121 Safari/537.36",89,"[0.9, 0.5, 0.1]","[0.8, 0.4, 0.2]","[u'red', u'blue', u'black']","[u'left', u'middle', u'right']","[0.8, 0.4, 0.2]","[u'low', u'medium', u'high']","black",51,"right","high","False","False",515,4550,NA
"AIOLG7U4ZM44P","Wed Sep 23 2020 08:03:34 GMT-0700 (Pacific Daylight Time)","Wed Sep 23 2020 08:10:52 GMT-0700 (Pacific Daylight Time)","Mozilla/5.0 (Windows NT 10.0; Win64; x64) AppleWebKit/537.36 (KHTML, like Gecko) Chrome/85.0.4183.121 Safari/537.36",90,"[0.9, 0.5, 0.1]","[0.8, 0.4, 0.2]","[u'red', u'blue', u'black']","[u'left', u'middle', u'right']","[0.8, 0.4, 0.2]","[u'low', u'medium', u'high']","black",51,"right","high","True","False",234,4650,NA
"AIOLG7U4ZM44P","Wed Sep 23 2020 08:03:34 GMT-0700 (Pacific Daylight Time)","Wed Sep 23 2020 08:10:52 GMT-0700 (Pacific Daylight Time)","Mozilla/5.0 (Windows NT 10.0; Win64; x64) AppleWebKit/537.36 (KHTML, like Gecko) Chrome/85.0.4183.121 Safari/537.36",91,"[0.9, 0.5, 0.1]","[0.8, 0.4, 0.2]","[u'red', u'blue', u'black']","[u'left', u'middle', u'right']","[0.8, 0.4, 0.2]","[u'low', u'medium', u'high']","black",51,"right","high","True","True",187,4750,NA
"AIOLG7U4ZM44P","Wed Sep 23 2020 08:03:34 GMT-0700 (Pacific Daylight Time)","Wed Sep 23 2020 08:10:52 GMT-0700 (Pacific Daylight Time)","Mozilla/5.0 (Windows NT 10.0; Win64; x64) AppleWebKit/537.36 (KHTML, like Gecko) Chrome/85.0.4183.121 Safari/537.36",92,"[0.9, 0.5, 0.1]","[0.8, 0.4, 0.2]","[u'red', u'blue', u'black']","[u'left', u'middle', u'right']","[0.8, 0.4, 0.2]","[u'high', u'medium', u'low']","black",51,"right","low","True","False",179,4850,NA
"AIOLG7U4ZM44P","Wed Sep 23 2020 08:03:34 GMT-0700 (Pacific Daylight Time)","Wed Sep 23 2020 08:10:52 GMT-0700 (Pacific Daylight Time)","Mozilla/5.0 (Windows NT 10.0; Win64; x64) AppleWebKit/537.36 (KHTML, like Gecko) Chrome/85.0.4183.121 Safari/537.36",93,"[0.9, 0.5, 0.1]","[0.8, 0.4, 0.2]","[u'red', u'blue', u'black']","[u'left', u'middle', u'right']","[0.8, 0.4, 0.2]","[u'high', u'medium', u'low']","black",51,"right","low","False","False",195,4800,NA
"AIOLG7U4ZM44P","Wed Sep 23 2020 08:03:34 GMT-0700 (Pacific Daylight Time)","Wed Sep 23 2020 08:10:52 GMT-0700 (Pacific Daylight Time)","Mozilla/5.0 (Windows NT 10.0; Win64; x64) AppleWebKit/537.36 (KHTML, like Gecko) Chrome/85.0.4183.121 Safari/537.36",94,"[0.9, 0.5, 0.1]","[0.8, 0.4, 0.2]","[u'red', u'blue', u'black']","[u'left', u'middle', u'right']","[0.8, 0.4, 0.2]","[u'high', u'medium', u'low']","black",51,"right","low","True","False",674,4900,NA
"AIOLG7U4ZM44P","Wed Sep 23 2020 08:03:34 GMT-0700 (Pacific Daylight Time)","Wed Sep 23 2020 08:10:52 GMT-0700 (Pacific Daylight Time)","Mozilla/5.0 (Windows NT 10.0; Win64; x64) AppleWebKit/537.36 (KHTML, like Gecko) Chrome/85.0.4183.121 Safari/537.36",95,"[0.9, 0.5, 0.1]","[0.8, 0.4, 0.2]","[u'red', u'blue', u'black']","[u'left', u'middle', u'right']","[0.8, 0.4, 0.2]","[u'high', u'medium', u'low']","black",51,"right","low","False","False",251,4850,NA
"AIOLG7U4ZM44P","Wed Sep 23 2020 08:03:34 GMT-0700 (Pacific Daylight Time)","Wed Sep 23 2020 08:10:52 GMT-0700 (Pacific Daylight Time)","Mozilla/5.0 (Windows NT 10.0; Win64; x64) AppleWebKit/537.36 (KHTML, like Gecko) Chrome/85.0.4183.121 Safari/537.36",96,"[0.9, 0.5, 0.1]","[0.8, 0.4, 0.2]","[u'red', u'blue', u'black']","[u'left', u'middle', u'right']","[0.8, 0.4, 0.2]","[u'high', u'medium', u'low']","red",49,"left","high","True","False",650,4950,NA
"AIOLG7U4ZM44P","Wed Sep 23 2020 08:03:34 GMT-0700 (Pacific Daylight Time)","Wed Sep 23 2020 08:10:52 GMT-0700 (Pacific Daylight Time)","Mozilla/5.0 (Windows NT 10.0; Win64; x64) AppleWebKit/537.36 (KHTML, like Gecko) Chrome/85.0.4183.121 Safari/537.36",97,"[0.9, 0.5, 0.1]","[0.8, 0.4, 0.2]","[u'red', u'blue', u'black']","[u'left', u'middle', u'right']","[0.8, 0.4, 0.2]","[u'high', u'medium', u'low']","red",49,"left","high","False","False",179,4900,NA
"AIOLG7U4ZM44P","Wed Sep 23 2020 08:03:34 GMT-0700 (Pacific Daylight Time)","Wed Sep 23 2020 08:10:52 GMT-0700 (Pacific Daylight Time)","Mozilla/5.0 (Windows NT 10.0; Win64; x64) AppleWebKit/537.36 (KHTML, like Gecko) Chrome/85.0.4183.121 Safari/537.36",98,"[0.9, 0.5, 0.1]","[0.8, 0.4, 0.2]","[u'red', u'blue', u'black']","[u'left', u'middle', u'right']","[0.8, 0.4, 0.2]","[u'high', u'medium', u'low']","red",49,"left","high","True","False",83,5000,NA
"AIOLG7U4ZM44P","Wed Sep 23 2020 08:03:34 GMT-0700 (Pacific Daylight Time)","Wed Sep 23 2020 08:10:52 GMT-0700 (Pacific Daylight Time)","Mozilla/5.0 (Windows NT 10.0; Win64; x64) AppleWebKit/537.36 (KHTML, like Gecko) Chrome/85.0.4183.121 Safari/537.36",99,"[0.9, 0.5, 0.1]","[0.8, 0.4, 0.2]","[u'red', u'blue', u'black']","[u'left', u'middle', u'right']","[0.8, 0.4, 0.2]","[u'high', u'medium', u'low']","red",49,"left","high","True","False",75,5100,NA
"AIOLG7U4ZM44P","Wed Sep 23 2020 08:03:34 GMT-0700 (Pacific Daylight Time)","Wed Sep 23 2020 08:10:52 GMT-0700 (Pacific Daylight Time)","Mozilla/5.0 (Windows NT 10.0; Win64; x64) AppleWebKit/537.36 (KHTML, like Gecko) Chrome/85.0.4183.121 Safari/537.36",100,"[0.9, 0.5, 0.1]","[0.8, 0.4, 0.2]","[u'red', u'blue', u'black']","[u'left', u'middle', u'right']","[0.8, 0.4, 0.2]","[u'high', u'medium', u'low']","red",49,"left","high","True","False",138,5200,NA
"AIOLG7U4ZM44P","Wed Sep 23 2020 08:03:34 GMT-0700 (Pacific Daylight Time)","Wed Sep 23 2020 08:10:52 GMT-0700 (Pacific Daylight Time)","Mozilla/5.0 (Windows NT 10.0; Win64; x64) AppleWebKit/537.36 (KHTML, like Gecko) Chrome/85.0.4183.121 Safari/537.36",101,"[0.9, 0.5, 0.1]","[0.8, 0.4, 0.2]","[u'red', u'blue', u'black']","[u'left', u'middle', u'right']","[0.8, 0.4, 0.2]","[u'high', u'medium', u'low']","red",49,"left","high","True","False",20,5300,NA
"AIOLG7U4ZM44P","Wed Sep 23 2020 08:03:34 GMT-0700 (Pacific Daylight Time)","Wed Sep 23 2020 08:10:52 GMT-0700 (Pacific Daylight Time)","Mozilla/5.0 (Windows NT 10.0; Win64; x64) AppleWebKit/537.36 (KHTML, like Gecko) Chrome/85.0.4183.121 Safari/537.36",102,"[0.9, 0.5, 0.1]","[0.8, 0.4, 0.2]","[u'red', u'blue', u'black']","[u'left', u'middle', u'right']","[0.8, 0.4, 0.2]","[u'high', u'medium', u'low']","red",49,"left","high","True","False",178,5400,NA
"AIOLG7U4ZM44P","Wed Sep 23 2020 08:03:34 GMT-0700 (Pacific Daylight Time)","Wed Sep 23 2020 08:10:52 GMT-0700 (Pacific Daylight Time)","Mozilla/5.0 (Windows NT 10.0; Win64; x64) AppleWebKit/537.36 (KHTML, like Gecko) Chrome/85.0.4183.121 Safari/537.36",103,"[0.9, 0.5, 0.1]","[0.8, 0.4, 0.2]","[u'red', u'blue', u'black']","[u'left', u'middle', u'right']","[0.8, 0.4, 0.2]","[u'high', u'medium', u'low']","red",49,"left","high","False","False",131,5350,NA
"AIOLG7U4ZM44P","Wed Sep 23 2020 08:03:34 GMT-0700 (Pacific Daylight Time)","Wed Sep 23 2020 08:10:52 GMT-0700 (Pacific Daylight Time)","Mozilla/5.0 (Windows NT 10.0; Win64; x64) AppleWebKit/537.36 (KHTML, like Gecko) Chrome/85.0.4183.121 Safari/537.36",104,"[0.9, 0.5, 0.1]","[0.8, 0.4, 0.2]","[u'red', u'blue', u'black']","[u'left', u'middle', u'right']","[0.8, 0.4, 0.2]","[u'high', u'medium', u'low']","red",49,"left","high","False","True",411,5300,NA
"AIOLG7U4ZM44P","Wed Sep 23 2020 08:03:34 GMT-0700 (Pacific Daylight Time)","Wed Sep 23 2020 08:10:52 GMT-0700 (Pacific Daylight Time)","Mozilla/5.0 (Windows NT 10.0; Win64; x64) AppleWebKit/537.36 (KHTML, like Gecko) Chrome/85.0.4183.121 Safari/537.36",105,"[0.9, 0.5, 0.1]","[0.8, 0.4, 0.2]","[u'red', u'blue', u'black']","[u'left', u'middle', u'right']","[0.8, 0.4, 0.2]","[u'medium', u'high', u'low']","blue",50,"middle","high","True","False",139,5400,NA
"AIOLG7U4ZM44P","Wed Sep 23 2020 08:03:34 GMT-0700 (Pacific Daylight Time)","Wed Sep 23 2020 08:10:52 GMT-0700 (Pacific Daylight Time)","Mozilla/5.0 (Windows NT 10.0; Win64; x64) AppleWebKit/537.36 (KHTML, like Gecko) Chrome/85.0.4183.121 Safari/537.36",106,"[0.9, 0.5, 0.1]","[0.8, 0.4, 0.2]","[u'red', u'blue', u'black']","[u'left', u'middle', u'right']","[0.8, 0.4, 0.2]","[u'medium', u'high', u'low']","blue",50,"middle","high","False","False",51,5350,NA
"AIOLG7U4ZM44P","Wed Sep 23 2020 08:03:34 GMT-0700 (Pacific Daylight Time)","Wed Sep 23 2020 08:10:52 GMT-0700 (Pacific Daylight Time)","Mozilla/5.0 (Windows NT 10.0; Win64; x64) AppleWebKit/537.36 (KHTML, like Gecko) Chrome/85.0.4183.121 Safari/537.36",107,"[0.9, 0.5, 0.1]","[0.8, 0.4, 0.2]","[u'red', u'blue', u'black']","[u'left', u'middle', u'right']","[0.8, 0.4, 0.2]","[u'medium', u'high', u'low']","blue",50,"middle","high","True","False",172,5450,NA
"AIOLG7U4ZM44P","Wed Sep 23 2020 08:03:34 GMT-0700 (Pacific Daylight Time)","Wed Sep 23 2020 08:10:52 GMT-0700 (Pacific Daylight Time)","Mozilla/5.0 (Windows NT 10.0; Win64; x64) AppleWebKit/537.36 (KHTML, like Gecko) Chrome/85.0.4183.121 Safari/537.36",108,"[0.9, 0.5, 0.1]","[0.8, 0.4, 0.2]","[u'red', u'blue', u'black']","[u'left', u'middle', u'right']","[0.8, 0.4, 0.2]","[u'medium', u'high', u'low']","blue",50,"middle","high","True","False",202,5550,NA
"AIOLG7U4ZM44P","Wed Sep 23 2020 08:03:34 GMT-0700 (Pacific Daylight Time)","Wed Sep 23 2020 08:10:52 GMT-0700 (Pacific Daylight Time)","Mozilla/5.0 (Windows NT 10.0; Win64; x64) AppleWebKit/537.36 (KHTML, like Gecko) Chrome/85.0.4183.121 Safari/537.36",109,"[0.9, 0.5, 0.1]","[0.8, 0.4, 0.2]","[u'red', u'blue', u'black']","[u'left', u'middle', u'right']","[0.8, 0.4, 0.2]","[u'medium', u'high', u'low']","blue",50,"middle","high","True","False",163,5650,NA
"AIOLG7U4ZM44P","Wed Sep 23 2020 08:03:34 GMT-0700 (Pacific Daylight Time)","Wed Sep 23 2020 08:10:52 GMT-0700 (Pacific Daylight Time)","Mozilla/5.0 (Windows NT 10.0; Win64; x64) AppleWebKit/537.36 (KHTML, like Gecko) Chrome/85.0.4183.121 Safari/537.36",110,"[0.9, 0.5, 0.1]","[0.8, 0.4, 0.2]","[u'red', u'blue', u'black']","[u'left', u'middle', u'right']","[0.8, 0.4, 0.2]","[u'medium', u'high', u'low']","blue",50,"middle","high","True","False",500,5750,NA
"AIOLG7U4ZM44P","Wed Sep 23 2020 08:03:34 GMT-0700 (Pacific Daylight Time)","Wed Sep 23 2020 08:10:52 GMT-0700 (Pacific Daylight Time)","Mozilla/5.0 (Windows NT 10.0; Win64; x64) AppleWebKit/537.36 (KHTML, like Gecko) Chrome/85.0.4183.121 Safari/537.36",111,"[0.9, 0.5, 0.1]","[0.8, 0.4, 0.2]","[u'red', u'blue', u'black']","[u'left', u'middle', u'right']","[0.8, 0.4, 0.2]","[u'medium', u'high', u'low']","blue",50,"middle","high","True","False",163,5850,NA
"AIOLG7U4ZM44P","Wed Sep 23 2020 08:03:34 GMT-0700 (Pacific Daylight Time)","Wed Sep 23 2020 08:10:52 GMT-0700 (Pacific Daylight Time)","Mozilla/5.0 (Windows NT 10.0; Win64; x64) AppleWebKit/537.36 (KHTML, like Gecko) Chrome/85.0.4183.121 Safari/537.36",112,"[0.9, 0.5, 0.1]","[0.8, 0.4, 0.2]","[u'red', u'blue', u'black']","[u'left', u'middle', u'right']","[0.8, 0.4, 0.2]","[u'medium', u'high', u'low']","blue",50,"middle","high","True","False",131,5950,NA
"AIOLG7U4ZM44P","Wed Sep 23 2020 08:03:34 GMT-0700 (Pacific Daylight Time)","Wed Sep 23 2020 08:10:52 GMT-0700 (Pacific Daylight Time)","Mozilla/5.0 (Windows NT 10.0; Win64; x64) AppleWebKit/537.36 (KHTML, like Gecko) Chrome/85.0.4183.121 Safari/537.36",113,"[0.9, 0.5, 0.1]","[0.8, 0.4, 0.2]","[u'red', u'blue', u'black']","[u'left', u'middle', u'right']","[0.8, 0.4, 0.2]","[u'medium', u'high', u'low']","blue",50,"middle","high","False","True",299,5900,NA
"AIOLG7U4ZM44P","Wed Sep 23 2020 08:03:34 GMT-0700 (Pacific Daylight Time)","Wed Sep 23 2020 08:10:52 GMT-0700 (Pacific Daylight Time)","Mozilla/5.0 (Windows NT 10.0; Win64; x64) AppleWebKit/537.36 (KHTML, like Gecko) Chrome/85.0.4183.121 Safari/537.36",114,"[0.9, 0.5, 0.1]","[0.8, 0.4, 0.2]","[u'red', u'blue', u'black']","[u'left', u'middle', u'right']","[0.8, 0.4, 0.2]","[u'high', u'medium', u'low']","blue",50,"middle","medium","True","False",514,6000,NA
"AIOLG7U4ZM44P","Wed Sep 23 2020 08:03:34 GMT-0700 (Pacific Daylight Time)","Wed Sep 23 2020 08:10:52 GMT-0700 (Pacific Daylight Time)","Mozilla/5.0 (Windows NT 10.0; Win64; x64) AppleWebKit/537.36 (KHTML, like Gecko) Chrome/85.0.4183.121 Safari/537.36",115,"[0.9, 0.5, 0.1]","[0.8, 0.4, 0.2]","[u'red', u'blue', u'black']","[u'left', u'middle', u'right']","[0.8, 0.4, 0.2]","[u'high', u'medium', u'low']","blue",50,"middle","medium","False","False",284,5950,NA
"AIOLG7U4ZM44P","Wed Sep 23 2020 08:03:34 GMT-0700 (Pacific Daylight Time)","Wed Sep 23 2020 08:10:52 GMT-0700 (Pacific Daylight Time)","Mozilla/5.0 (Windows NT 10.0; Win64; x64) AppleWebKit/537.36 (KHTML, like Gecko) Chrome/85.0.4183.121 Safari/537.36",116,"[0.9, 0.5, 0.1]","[0.8, 0.4, 0.2]","[u'red', u'blue', u'black']","[u'left', u'middle', u'right']","[0.8, 0.4, 0.2]","[u'high', u'medium', u'low']","black",51,"right","low","False","False",443,5900,NA
"AIOLG7U4ZM44P","Wed Sep 23 2020 08:03:34 GMT-0700 (Pacific Daylight Time)","Wed Sep 23 2020 08:10:52 GMT-0700 (Pacific Daylight Time)","Mozilla/5.0 (Windows NT 10.0; Win64; x64) AppleWebKit/537.36 (KHTML, like Gecko) Chrome/85.0.4183.121 Safari/537.36",117,"[0.9, 0.5, 0.1]","[0.8, 0.4, 0.2]","[u'red', u'blue', u'black']","[u'left', u'middle', u'right']","[0.8, 0.4, 0.2]","[u'high', u'medium', u'low']","red",49,"left","high","True","False",706,6000,NA
"AIOLG7U4ZM44P","Wed Sep 23 2020 08:03:34 GMT-0700 (Pacific Daylight Time)","Wed Sep 23 2020 08:10:52 GMT-0700 (Pacific Daylight Time)","Mozilla/5.0 (Windows NT 10.0; Win64; x64) AppleWebKit/537.36 (KHTML, like Gecko) Chrome/85.0.4183.121 Safari/537.36",118,"[0.9, 0.5, 0.1]","[0.8, 0.4, 0.2]","[u'red', u'blue', u'black']","[u'left', u'middle', u'right']","[0.8, 0.4, 0.2]","[u'high', u'medium', u'low']","red",49,"left","high","True","False",202,6100,NA
"AIOLG7U4ZM44P","Wed Sep 23 2020 08:03:34 GMT-0700 (Pacific Daylight Time)","Wed Sep 23 2020 08:10:52 GMT-0700 (Pacific Daylight Time)","Mozilla/5.0 (Windows NT 10.0; Win64; x64) AppleWebKit/537.36 (KHTML, like Gecko) Chrome/85.0.4183.121 Safari/537.36",119,"[0.9, 0.5, 0.1]","[0.8, 0.4, 0.2]","[u'red', u'blue', u'black']","[u'left', u'middle', u'right']","[0.8, 0.4, 0.2]","[u'high', u'medium', u'low']","red",49,"left","high","False","False",59,6050,NA
"AIOLG7U4ZM44P","Wed Sep 23 2020 08:03:34 GMT-0700 (Pacific Daylight Time)","Wed Sep 23 2020 08:10:52 GMT-0700 (Pacific Daylight Time)","Mozilla/5.0 (Windows NT 10.0; Win64; x64) AppleWebKit/537.36 (KHTML, like Gecko) Chrome/85.0.4183.121 Safari/537.36",120,"[0.9, 0.5, 0.1]","[0.8, 0.4, 0.2]","[u'red', u'blue', u'black']","[u'left', u'middle', u'right']","[0.8, 0.4, 0.2]","[u'high', u'medium', u'low']","red",49,"left","high","False","False",66,6000,NA
"AIOLG7U4ZM44P","Wed Sep 23 2020 08:03:34 GMT-0700 (Pacific Daylight Time)","Wed Sep 23 2020 08:10:52 GMT-0700 (Pacific Daylight Time)","Mozilla/5.0 (Windows NT 10.0; Win64; x64) AppleWebKit/537.36 (KHTML, like Gecko) Chrome/85.0.4183.121 Safari/537.36",121,"[0.9, 0.5, 0.1]","[0.8, 0.4, 0.2]","[u'red', u'blue', u'black']","[u'left', u'middle', u'right']","[0.8, 0.4, 0.2]","[u'medium', u'high', u'low']","black",51,"right","low","True","False",483,6100,NA
"AIOLG7U4ZM44P","Wed Sep 23 2020 08:03:34 GMT-0700 (Pacific Daylight Time)","Wed Sep 23 2020 08:10:52 GMT-0700 (Pacific Daylight Time)","Mozilla/5.0 (Windows NT 10.0; Win64; x64) AppleWebKit/537.36 (KHTML, like Gecko) Chrome/85.0.4183.121 Safari/537.36",122,"[0.9, 0.5, 0.1]","[0.8, 0.4, 0.2]","[u'red', u'blue', u'black']","[u'left', u'middle', u'right']","[0.8, 0.4, 0.2]","[u'medium', u'high', u'low']","black",51,"right","low","False","False",283,6050,NA
"AIOLG7U4ZM44P","Wed Sep 23 2020 08:03:34 GMT-0700 (Pacific Daylight Time)","Wed Sep 23 2020 08:10:52 GMT-0700 (Pacific Daylight Time)","Mozilla/5.0 (Windows NT 10.0; Win64; x64) AppleWebKit/537.36 (KHTML, like Gecko) Chrome/85.0.4183.121 Safari/537.36",123,"[0.9, 0.5, 0.1]","[0.8, 0.4, 0.2]","[u'red', u'blue', u'black']","[u'left', u'middle', u'right']","[0.8, 0.4, 0.2]","[u'medium', u'high', u'low']","black",51,"right","low","False","False",139,6000,NA
"AIOLG7U4ZM44P","Wed Sep 23 2020 08:03:34 GMT-0700 (Pacific Daylight Time)","Wed Sep 23 2020 08:10:52 GMT-0700 (Pacific Daylight Time)","Mozilla/5.0 (Windows NT 10.0; Win64; x64) AppleWebKit/537.36 (KHTML, like Gecko) Chrome/85.0.4183.121 Safari/537.36",124,"[0.9, 0.5, 0.1]","[0.8, 0.4, 0.2]","[u'red', u'blue', u'black']","[u'left', u'middle', u'right']","[0.8, 0.4, 0.2]","[u'medium', u'high', u'low']","blue",50,"middle","high","True","False",220,6100,NA
"AIOLG7U4ZM44P","Wed Sep 23 2020 08:03:34 GMT-0700 (Pacific Daylight Time)","Wed Sep 23 2020 08:10:52 GMT-0700 (Pacific Daylight Time)","Mozilla/5.0 (Windows NT 10.0; Win64; x64) AppleWebKit/537.36 (KHTML, like Gecko) Chrome/85.0.4183.121 Safari/537.36",125,"[0.9, 0.5, 0.1]","[0.8, 0.4, 0.2]","[u'red', u'blue', u'black']","[u'left', u'middle', u'right']","[0.8, 0.4, 0.2]","[u'medium', u'high', u'low']","blue",50,"middle","high","True","False",154,6200,NA
"AIOLG7U4ZM44P","Wed Sep 23 2020 08:03:34 GMT-0700 (Pacific Daylight Time)","Wed Sep 23 2020 08:10:52 GMT-0700 (Pacific Daylight Time)","Mozilla/5.0 (Windows NT 10.0; Win64; x64) AppleWebKit/537.36 (KHTML, like Gecko) Chrome/85.0.4183.121 Safari/537.36",126,"[0.9, 0.5, 0.1]","[0.8, 0.4, 0.2]","[u'red', u'blue', u'black']","[u'left', u'middle', u'right']","[0.8, 0.4, 0.2]","[u'medium', u'high', u'low']","blue",50,"middle","high","True","False",244,6300,NA
"AIOLG7U4ZM44P","Wed Sep 23 2020 08:03:34 GMT-0700 (Pacific Daylight Time)","Wed Sep 23 2020 08:10:52 GMT-0700 (Pacific Daylight Time)","Mozilla/5.0 (Windows NT 10.0; Win64; x64) AppleWebKit/537.36 (KHTML, like Gecko) Chrome/85.0.4183.121 Safari/537.36",127,"[0.9, 0.5, 0.1]","[0.8, 0.4, 0.2]","[u'red', u'blue', u'black']","[u'left', u'middle', u'right']","[0.8, 0.4, 0.2]","[u'medium', u'high', u'low']","blue",50,"middle","high","True","False",267,6400,NA
"AIOLG7U4ZM44P","Wed Sep 23 2020 08:03:34 GMT-0700 (Pacific Daylight Time)","Wed Sep 23 2020 08:10:52 GMT-0700 (Pacific Daylight Time)","Mozilla/5.0 (Windows NT 10.0; Win64; x64) AppleWebKit/537.36 (KHTML, like Gecko) Chrome/85.0.4183.121 Safari/537.36",128,"[0.9, 0.5, 0.1]","[0.8, 0.4, 0.2]","[u'red', u'blue', u'black']","[u'left', u'middle', u'right']","[0.8, 0.4, 0.2]","[u'medium', u'high', u'low']","blue",50,"middle","high","True","False",211,6500,NA
"AIOLG7U4ZM44P","Wed Sep 23 2020 08:03:34 GMT-0700 (Pacific Daylight Time)","Wed Sep 23 2020 08:10:52 GMT-0700 (Pacific Daylight Time)","Mozilla/5.0 (Windows NT 10.0; Win64; x64) AppleWebKit/537.36 (KHTML, like Gecko) Chrome/85.0.4183.121 Safari/537.36",129,"[0.9, 0.5, 0.1]","[0.8, 0.4, 0.2]","[u'red', u'blue', u'black']","[u'left', u'middle', u'right']","[0.8, 0.4, 0.2]","[u'medium', u'high', u'low']","blue",50,"middle","high","True","False",243,6600,NA
"AIOLG7U4ZM44P","Wed Sep 23 2020 08:03:34 GMT-0700 (Pacific Daylight Time)","Wed Sep 23 2020 08:10:52 GMT-0700 (Pacific Daylight Time)","Mozilla/5.0 (Windows NT 10.0; Win64; x64) AppleWebKit/537.36 (KHTML, like Gecko) Chrome/85.0.4183.121 Safari/537.36",130,"[0.9, 0.5, 0.1]","[0.8, 0.4, 0.2]","[u'red', u'blue', u'black']","[u'left', u'middle', u'right']","[0.8, 0.4, 0.2]","[u'medium', u'high', u'low']","blue",50,"middle","high","True","False",204,6700,NA
"AIOLG7U4ZM44P","Wed Sep 23 2020 08:03:34 GMT-0700 (Pacific Daylight Time)","Wed Sep 23 2020 08:10:52 GMT-0700 (Pacific Daylight Time)","Mozilla/5.0 (Windows NT 10.0; Win64; x64) AppleWebKit/537.36 (KHTML, like Gecko) Chrome/85.0.4183.121 Safari/537.36",131,"[0.9, 0.5, 0.1]","[0.8, 0.4, 0.2]","[u'red', u'blue', u'black']","[u'left', u'middle', u'right']","[0.8, 0.4, 0.2]","[u'medium', u'high', u'low']","blue",50,"middle","high","False","False",187,6650,NA
"AIOLG7U4ZM44P","Wed Sep 23 2020 08:03:34 GMT-0700 (Pacific Daylight Time)","Wed Sep 23 2020 08:10:52 GMT-0700 (Pacific Daylight Time)","Mozilla/5.0 (Windows NT 10.0; Win64; x64) AppleWebKit/537.36 (KHTML, like Gecko) Chrome/85.0.4183.121 Safari/537.36",132,"[0.9, 0.5, 0.1]","[0.8, 0.4, 0.2]","[u'red', u'blue', u'black']","[u'left', u'middle', u'right']","[0.8, 0.4, 0.2]","[u'medium', u'high', u'low']","blue",50,"middle","high","False","True",19,6600,NA
"AIOLG7U4ZM44P","Wed Sep 23 2020 08:03:34 GMT-0700 (Pacific Daylight Time)","Wed Sep 23 2020 08:10:52 GMT-0700 (Pacific Daylight Time)","Mozilla/5.0 (Windows NT 10.0; Win64; x64) AppleWebKit/537.36 (KHTML, like Gecko) Chrome/85.0.4183.121 Safari/537.36",133,"[0.9, 0.5, 0.1]","[0.8, 0.4, 0.2]","[u'red', u'blue', u'black']","[u'left', u'middle', u'right']","[0.8, 0.4, 0.2]","[u'low', u'medium', u'high']","red",49,"left","low","False","False",35,6550,NA
"AIOLG7U4ZM44P","Wed Sep 23 2020 08:03:34 GMT-0700 (Pacific Daylight Time)","Wed Sep 23 2020 08:10:52 GMT-0700 (Pacific Daylight Time)","Mozilla/5.0 (Windows NT 10.0; Win64; x64) AppleWebKit/537.36 (KHTML, like Gecko) Chrome/85.0.4183.121 Safari/537.36",134,"[0.9, 0.5, 0.1]","[0.8, 0.4, 0.2]","[u'red', u'blue', u'black']","[u'left', u'middle', u'right']","[0.8, 0.4, 0.2]","[u'low', u'medium', u'high']","red",49,"left","low","True","False",114,6650,NA
"AIOLG7U4ZM44P","Wed Sep 23 2020 08:03:34 GMT-0700 (Pacific Daylight Time)","Wed Sep 23 2020 08:10:52 GMT-0700 (Pacific Daylight Time)","Mozilla/5.0 (Windows NT 10.0; Win64; x64) AppleWebKit/537.36 (KHTML, like Gecko) Chrome/85.0.4183.121 Safari/537.36",135,"[0.9, 0.5, 0.1]","[0.8, 0.4, 0.2]","[u'red', u'blue', u'black']","[u'left', u'middle', u'right']","[0.8, 0.4, 0.2]","[u'low', u'medium', u'high']","red",49,"left","low","False","False",195,6600,NA
"AIOLG7U4ZM44P","Wed Sep 23 2020 08:03:34 GMT-0700 (Pacific Daylight Time)","Wed Sep 23 2020 08:10:52 GMT-0700 (Pacific Daylight Time)","Mozilla/5.0 (Windows NT 10.0; Win64; x64) AppleWebKit/537.36 (KHTML, like Gecko) Chrome/85.0.4183.121 Safari/537.36",136,"[0.9, 0.5, 0.1]","[0.8, 0.4, 0.2]","[u'red', u'blue', u'black']","[u'left', u'middle', u'right']","[0.8, 0.4, 0.2]","[u'low', u'medium', u'high']","black",51,"right","high","True","False",314,6700,NA
"AIOLG7U4ZM44P","Wed Sep 23 2020 08:03:34 GMT-0700 (Pacific Daylight Time)","Wed Sep 23 2020 08:10:52 GMT-0700 (Pacific Daylight Time)","Mozilla/5.0 (Windows NT 10.0; Win64; x64) AppleWebKit/537.36 (KHTML, like Gecko) Chrome/85.0.4183.121 Safari/537.36",137,"[0.9, 0.5, 0.1]","[0.8, 0.4, 0.2]","[u'red', u'blue', u'black']","[u'left', u'middle', u'right']","[0.8, 0.4, 0.2]","[u'low', u'medium', u'high']","black",51,"right","high","True","False",117,6800,NA
"AIOLG7U4ZM44P","Wed Sep 23 2020 08:03:34 GMT-0700 (Pacific Daylight Time)","Wed Sep 23 2020 08:10:52 GMT-0700 (Pacific Daylight Time)","Mozilla/5.0 (Windows NT 10.0; Win64; x64) AppleWebKit/537.36 (KHTML, like Gecko) Chrome/85.0.4183.121 Safari/537.36",138,"[0.9, 0.5, 0.1]","[0.8, 0.4, 0.2]","[u'red', u'blue', u'black']","[u'left', u'middle', u'right']","[0.8, 0.4, 0.2]","[u'low', u'medium', u'high']","black",51,"right","high","True","False",74,6900,NA
"AIOLG7U4ZM44P","Wed Sep 23 2020 08:03:34 GMT-0700 (Pacific Daylight Time)","Wed Sep 23 2020 08:10:52 GMT-0700 (Pacific Daylight Time)","Mozilla/5.0 (Windows NT 10.0; Win64; x64) AppleWebKit/537.36 (KHTML, like Gecko) Chrome/85.0.4183.121 Safari/537.36",139,"[0.9, 0.5, 0.1]","[0.8, 0.4, 0.2]","[u'red', u'blue', u'black']","[u'left', u'middle', u'right']","[0.8, 0.4, 0.2]","[u'low', u'medium', u'high']","black",51,"right","high","True","False",203,7000,NA
"AIOLG7U4ZM44P","Wed Sep 23 2020 08:03:34 GMT-0700 (Pacific Daylight Time)","Wed Sep 23 2020 08:10:52 GMT-0700 (Pacific Daylight Time)","Mozilla/5.0 (Windows NT 10.0; Win64; x64) AppleWebKit/537.36 (KHTML, like Gecko) Chrome/85.0.4183.121 Safari/537.36",140,"[0.9, 0.5, 0.1]","[0.8, 0.4, 0.2]","[u'red', u'blue', u'black']","[u'left', u'middle', u'right']","[0.8, 0.4, 0.2]","[u'low', u'medium', u'high']","black",51,"right","high","True","False",274,7100,NA
"AIOLG7U4ZM44P","Wed Sep 23 2020 08:03:34 GMT-0700 (Pacific Daylight Time)","Wed Sep 23 2020 08:10:52 GMT-0700 (Pacific Daylight Time)","Mozilla/5.0 (Windows NT 10.0; Win64; x64) AppleWebKit/537.36 (KHTML, like Gecko) Chrome/85.0.4183.121 Safari/537.36",141,"[0.9, 0.5, 0.1]","[0.8, 0.4, 0.2]","[u'red', u'blue', u'black']","[u'left', u'middle', u'right']","[0.8, 0.4, 0.2]","[u'low', u'medium', u'high']","black",51,"right","high","True","False",219,7200,NA
"AIOLG7U4ZM44P","Wed Sep 23 2020 08:03:34 GMT-0700 (Pacific Daylight Time)","Wed Sep 23 2020 08:10:52 GMT-0700 (Pacific Daylight Time)","Mozilla/5.0 (Windows NT 10.0; Win64; x64) AppleWebKit/537.36 (KHTML, like Gecko) Chrome/85.0.4183.121 Safari/537.36",142,"[0.9, 0.5, 0.1]","[0.8, 0.4, 0.2]","[u'red', u'blue', u'black']","[u'left', u'middle', u'right']","[0.8, 0.4, 0.2]","[u'low', u'medium', u'high']","black",51,"right","high","False","False",235,7150,NA
"AIOLG7U4ZM44P","Wed Sep 23 2020 08:03:34 GMT-0700 (Pacific Daylight Time)","Wed Sep 23 2020 08:10:52 GMT-0700 (Pacific Daylight Time)","Mozilla/5.0 (Windows NT 10.0; Win64; x64) AppleWebKit/537.36 (KHTML, like Gecko) Chrome/85.0.4183.121 Safari/537.36",143,"[0.9, 0.5, 0.1]","[0.8, 0.4, 0.2]","[u'red', u'blue', u'black']","[u'left', u'middle', u'right']","[0.8, 0.4, 0.2]","[u'low', u'medium', u'high']","black",51,"right","high","True","False",147,7250,NA
"AIOLG7U4ZM44P","Wed Sep 23 2020 08:03:34 GMT-0700 (Pacific Daylight Time)","Wed Sep 23 2020 08:10:52 GMT-0700 (Pacific Daylight Time)","Mozilla/5.0 (Windows NT 10.0; Win64; x64) AppleWebKit/537.36 (KHTML, like Gecko) Chrome/85.0.4183.121 Safari/537.36",144,"[0.9, 0.5, 0.1]","[0.8, 0.4, 0.2]","[u'red', u'blue', u'black']","[u'left', u'middle', u'right']","[0.8, 0.4, 0.2]","[u'low', u'medium', u'high']","black",51,"right","high","False","True",98,7200,NA
"AIOLG7U4ZM44P","Wed Sep 23 2020 08:03:34 GMT-0700 (Pacific Daylight Time)","Wed Sep 23 2020 08:10:52 GMT-0700 (Pacific Daylight Time)","Mozilla/5.0 (Windows NT 10.0; Win64; x64) AppleWebKit/537.36 (KHTML, like Gecko) Chrome/85.0.4183.121 Safari/537.36",145,"[0.9, 0.5, 0.1]","[0.8, 0.4, 0.2]","[u'red', u'blue', u'black']","[u'left', u'middle', u'right']","[0.8, 0.4, 0.2]","[u'medium', u'high', u'low']","red",49,"left","medium","False","False",443,7150,NA
"AIOLG7U4ZM44P","Wed Sep 23 2020 08:03:34 GMT-0700 (Pacific Daylight Time)","Wed Sep 23 2020 08:10:52 GMT-0700 (Pacific Daylight Time)","Mozilla/5.0 (Windows NT 10.0; Win64; x64) AppleWebKit/537.36 (KHTML, like Gecko) Chrome/85.0.4183.121 Safari/537.36",146,"[0.9, 0.5, 0.1]","[0.8, 0.4, 0.2]","[u'red', u'blue', u'black']","[u'left', u'middle', u'right']","[0.8, 0.4, 0.2]","[u'medium', u'high', u'low']","blue",50,"middle","high","True","False",195,7250,NA
"AIOLG7U4ZM44P","Wed Sep 23 2020 08:03:34 GMT-0700 (Pacific Daylight Time)","Wed Sep 23 2020 08:10:52 GMT-0700 (Pacific Daylight Time)","Mozilla/5.0 (Windows NT 10.0; Win64; x64) AppleWebKit/537.36 (KHTML, like Gecko) Chrome/85.0.4183.121 Safari/537.36",147,"[0.9, 0.5, 0.1]","[0.8, 0.4, 0.2]","[u'red', u'blue', u'black']","[u'left', u'middle', u'right']","[0.8, 0.4, 0.2]","[u'medium', u'high', u'low']","blue",50,"middle","high","True","False",250,7350,NA
"AIOLG7U4ZM44P","Wed Sep 23 2020 08:03:34 GMT-0700 (Pacific Daylight Time)","Wed Sep 23 2020 08:10:52 GMT-0700 (Pacific Daylight Time)","Mozilla/5.0 (Windows NT 10.0; Win64; x64) AppleWebKit/537.36 (KHTML, like Gecko) Chrome/85.0.4183.121 Safari/537.36",148,"[0.9, 0.5, 0.1]","[0.8, 0.4, 0.2]","[u'red', u'blue', u'black']","[u'left', u'middle', u'right']","[0.8, 0.4, 0.2]","[u'medium', u'high', u'low']","blue",50,"middle","high","True","False",251,7450,NA
"AIOLG7U4ZM44P","Wed Sep 23 2020 08:03:34 GMT-0700 (Pacific Daylight Time)","Wed Sep 23 2020 08:10:52 GMT-0700 (Pacific Daylight Time)","Mozilla/5.0 (Windows NT 10.0; Win64; x64) AppleWebKit/537.36 (KHTML, like Gecko) Chrome/85.0.4183.121 Safari/537.36",149,"[0.9, 0.5, 0.1]","[0.8, 0.4, 0.2]","[u'red', u'blue', u'black']","[u'left', u'middle', u'right']","[0.8, 0.4, 0.2]","[u'medium', u'high', u'low']","blue",50,"middle","high","False","False",116,7400,NA
"AIOLG7U4ZM44P","Wed Sep 23 2020 08:03:34 GMT-0700 (Pacific Daylight Time)","Wed Sep 23 2020 08:10:52 GMT-0700 (Pacific Daylight Time)","Mozilla/5.0 (Windows NT 10.0; Win64; x64) AppleWebKit/537.36 (KHTML, like Gecko) Chrome/85.0.4183.121 Safari/537.36",150,"[0.9, 0.5, 0.1]","[0.8, 0.4, 0.2]","[u'red', u'blue', u'black']","[u'left', u'middle', u'right']","[0.8, 0.4, 0.2]","[u'medium', u'high', u'low']","blue",50,"middle","high","True","False",162,7500,NA
"AIOLG7U4ZM44P","Wed Sep 23 2020 08:03:34 GMT-0700 (Pacific Daylight Time)","Wed Sep 23 2020 08:10:52 GMT-0700 (Pacific Daylight Time)","Mozilla/5.0 (Windows NT 10.0; Win64; x64) AppleWebKit/537.36 (KHTML, like Gecko) Chrome/85.0.4183.121 Safari/537.36",151,"[0.9, 0.5, 0.1]","[0.8, 0.4, 0.2]","[u'red', u'blue', u'black']","[u'left', u'middle', u'right']","[0.8, 0.4, 0.2]","[u'medium', u'high', u'low']","blue",50,"middle","high","False","False",83,7450,NA
"AIOLG7U4ZM44P","Wed Sep 23 2020 08:03:34 GMT-0700 (Pacific Daylight Time)","Wed Sep 23 2020 08:10:52 GMT-0700 (Pacific Daylight Time)","Mozilla/5.0 (Windows NT 10.0; Win64; x64) AppleWebKit/537.36 (KHTML, like Gecko) Chrome/85.0.4183.121 Safari/537.36",152,"[0.9, 0.5, 0.1]","[0.8, 0.4, 0.2]","[u'red', u'blue', u'black']","[u'left', u'middle', u'right']","[0.8, 0.4, 0.2]","[u'medium', u'high', u'low']","red",49,"left","medium","True","False",219,7550,NA
"AIOLG7U4ZM44P","Wed Sep 23 2020 08:03:34 GMT-0700 (Pacific Daylight Time)","Wed Sep 23 2020 08:10:52 GMT-0700 (Pacific Daylight Time)","Mozilla/5.0 (Windows NT 10.0; Win64; x64) AppleWebKit/537.36 (KHTML, like Gecko) Chrome/85.0.4183.121 Safari/537.36",153,"[0.9, 0.5, 0.1]","[0.8, 0.4, 0.2]","[u'red', u'blue', u'black']","[u'left', u'middle', u'right']","[0.8, 0.4, 0.2]","[u'medium', u'high', u'low']","red",49,"left","medium","False","False",115,7500,NA
"AIOLG7U4ZM44P","Wed Sep 23 2020 08:03:34 GMT-0700 (Pacific Daylight Time)","Wed Sep 23 2020 08:10:52 GMT-0700 (Pacific Daylight Time)","Mozilla/5.0 (Windows NT 10.0; Win64; x64) AppleWebKit/537.36 (KHTML, like Gecko) Chrome/85.0.4183.121 Safari/537.36",154,"[0.9, 0.5, 0.1]","[0.8, 0.4, 0.2]","[u'red', u'blue', u'black']","[u'left', u'middle', u'right']","[0.8, 0.4, 0.2]","[u'medium', u'high', u'low']","red",49,"left","medium","False","False",203,7450,NA
"AIOLG7U4ZM44P","Wed Sep 23 2020 08:03:34 GMT-0700 (Pacific Daylight Time)","Wed Sep 23 2020 08:10:52 GMT-0700 (Pacific Daylight Time)","Mozilla/5.0 (Windows NT 10.0; Win64; x64) AppleWebKit/537.36 (KHTML, like Gecko) Chrome/85.0.4183.121 Safari/537.36",155,"[0.9, 0.5, 0.1]","[0.8, 0.4, 0.2]","[u'red', u'blue', u'black']","[u'left', u'middle', u'right']","[0.8, 0.4, 0.2]","[u'medium', u'high', u'low']","blue",50,"middle","high","False","False",573,7400,NA
"AIOLG7U4ZM44P","Wed Sep 23 2020 08:03:34 GMT-0700 (Pacific Daylight Time)","Wed Sep 23 2020 08:10:52 GMT-0700 (Pacific Daylight Time)","Mozilla/5.0 (Windows NT 10.0; Win64; x64) AppleWebKit/537.36 (KHTML, like Gecko) Chrome/85.0.4183.121 Safari/537.36",156,"[0.9, 0.5, 0.1]","[0.8, 0.4, 0.2]","[u'red', u'blue', u'black']","[u'left', u'middle', u'right']","[0.8, 0.4, 0.2]","[u'medium', u'high', u'low']","black",51,"right","low","False","False",162,7350,NA
"AIOLG7U4ZM44P","Wed Sep 23 2020 08:03:34 GMT-0700 (Pacific Daylight Time)","Wed Sep 23 2020 08:10:52 GMT-0700 (Pacific Daylight Time)","Mozilla/5.0 (Windows NT 10.0; Win64; x64) AppleWebKit/537.36 (KHTML, like Gecko) Chrome/85.0.4183.121 Safari/537.36",157,"[0.9, 0.5, 0.1]","[0.8, 0.4, 0.2]","[u'red', u'blue', u'black']","[u'left', u'middle', u'right']","[0.8, 0.4, 0.2]","[u'medium', u'high', u'low']","black",51,"right","low","False","False",227,7300,NA
"AIOLG7U4ZM44P","Wed Sep 23 2020 08:03:34 GMT-0700 (Pacific Daylight Time)","Wed Sep 23 2020 08:10:52 GMT-0700 (Pacific Daylight Time)","Mozilla/5.0 (Windows NT 10.0; Win64; x64) AppleWebKit/537.36 (KHTML, like Gecko) Chrome/85.0.4183.121 Safari/537.36",158,"[0.9, 0.5, 0.1]","[0.8, 0.4, 0.2]","[u'red', u'blue', u'black']","[u'left', u'middle', u'right']","[0.8, 0.4, 0.2]","[u'medium', u'high', u'low']","blue",50,"middle","high","True","False",298,7400,NA
"AIOLG7U4ZM44P","Wed Sep 23 2020 08:03:34 GMT-0700 (Pacific Daylight Time)","Wed Sep 23 2020 08:10:52 GMT-0700 (Pacific Daylight Time)","Mozilla/5.0 (Windows NT 10.0; Win64; x64) AppleWebKit/537.36 (KHTML, like Gecko) Chrome/85.0.4183.121 Safari/537.36",159,"[0.9, 0.5, 0.1]","[0.8, 0.4, 0.2]","[u'red', u'blue', u'black']","[u'left', u'middle', u'right']","[0.8, 0.4, 0.2]","[u'medium', u'high', u'low']","blue",50,"middle","high","True","False",131,7500,NA
"AIOLG7U4ZM44P","Wed Sep 23 2020 08:03:34 GMT-0700 (Pacific Daylight Time)","Wed Sep 23 2020 08:10:52 GMT-0700 (Pacific Daylight Time)","Mozilla/5.0 (Windows NT 10.0; Win64; x64) AppleWebKit/537.36 (KHTML, like Gecko) Chrome/85.0.4183.121 Safari/537.36",160,"[0.9, 0.5, 0.1]","[0.8, 0.4, 0.2]","[u'red', u'blue', u'black']","[u'left', u'middle', u'right']","[0.8, 0.4, 0.2]","[u'medium', u'high', u'low']","blue",50,"middle","high","True","False",123,7600,NA
