"src_subject_id","start_time","end_time","browser","index","first_half_probabilities","second_half_probabilities","deck_color","deck_position","deck_probabilities","deck_contingencies","response_color","key_press","response_position","response_probability","reward_type","trial_type","rt","reward_tally","exclusion_reason"
"A1KOBLL83SICGQ","Mon Sep 21 2020 13:12:24 GMT-0300 (Atlantic Daylight Time)","Mon Sep 21 2020 13:26:07 GMT-0300 (Atlantic Daylight Time)","Mozilla/5.0 (Windows NT 10.0; Win64; x64) AppleWebKit/537.36 (KHTML, like Gecko) Chrome/85.0.4183.102 Safari/537.36",1,"[0.9, 0.5, 0.1]","[0.8, 0.4, 0.2]","[u'black', u'red', u'blue']","[u'left', u'middle', u'right']","[0.9, 0.5, 0.1]","[u'medium', u'low', u'high']","red",50,"middle","low","False","False",2241,-50,NA
"A1KOBLL83SICGQ","Mon Sep 21 2020 13:12:24 GMT-0300 (Atlantic Daylight Time)","Mon Sep 21 2020 13:26:07 GMT-0300 (Atlantic Daylight Time)","Mozilla/5.0 (Windows NT 10.0; Win64; x64) AppleWebKit/537.36 (KHTML, like Gecko) Chrome/85.0.4183.102 Safari/537.36",2,"[0.9, 0.5, 0.1]","[0.8, 0.4, 0.2]","[u'black', u'red', u'blue']","[u'left', u'middle', u'right']","[0.9, 0.5, 0.1]","[u'medium', u'low', u'high']","blue",51,"right","high","True","False",212,50,NA
"A1KOBLL83SICGQ","Mon Sep 21 2020 13:12:24 GMT-0300 (Atlantic Daylight Time)","Mon Sep 21 2020 13:26:07 GMT-0300 (Atlantic Daylight Time)","Mozilla/5.0 (Windows NT 10.0; Win64; x64) AppleWebKit/537.36 (KHTML, like Gecko) Chrome/85.0.4183.102 Safari/537.36",3,"[0.9, 0.5, 0.1]","[0.8, 0.4, 0.2]","[u'black', u'red', u'blue']","[u'left', u'middle', u'right']","[0.9, 0.5, 0.1]","[u'medium', u'low', u'high']","blue",51,"right","high","True","False",801,150,NA
"A1KOBLL83SICGQ","Mon Sep 21 2020 13:12:24 GMT-0300 (Atlantic Daylight Time)","Mon Sep 21 2020 13:26:07 GMT-0300 (Atlantic Daylight Time)","Mozilla/5.0 (Windows NT 10.0; Win64; x64) AppleWebKit/537.36 (KHTML, like Gecko) Chrome/85.0.4183.102 Safari/537.36",4,"[0.9, 0.5, 0.1]","[0.8, 0.4, 0.2]","[u'black', u'red', u'blue']","[u'left', u'middle', u'right']","[0.9, 0.5, 0.1]","[u'medium', u'low', u'high']","blue",51,"right","high","True","False",374,250,NA
"A1KOBLL83SICGQ","Mon Sep 21 2020 13:12:24 GMT-0300 (Atlantic Daylight Time)","Mon Sep 21 2020 13:26:07 GMT-0300 (Atlantic Daylight Time)","Mozilla/5.0 (Windows NT 10.0; Win64; x64) AppleWebKit/537.36 (KHTML, like Gecko) Chrome/85.0.4183.102 Safari/537.36",5,"[0.9, 0.5, 0.1]","[0.8, 0.4, 0.2]","[u'black', u'red', u'blue']","[u'left', u'middle', u'right']","[0.9, 0.5, 0.1]","[u'medium', u'low', u'high']","blue",51,"right","high","True","False",436,350,NA
"A1KOBLL83SICGQ","Mon Sep 21 2020 13:12:24 GMT-0300 (Atlantic Daylight Time)","Mon Sep 21 2020 13:26:07 GMT-0300 (Atlantic Daylight Time)","Mozilla/5.0 (Windows NT 10.0; Win64; x64) AppleWebKit/537.36 (KHTML, like Gecko) Chrome/85.0.4183.102 Safari/537.36",6,"[0.9, 0.5, 0.1]","[0.8, 0.4, 0.2]","[u'black', u'red', u'blue']","[u'left', u'middle', u'right']","[0.9, 0.5, 0.1]","[u'medium', u'low', u'high']","black",49,"left","medium","True","False",610,450,NA
"A1KOBLL83SICGQ","Mon Sep 21 2020 13:12:24 GMT-0300 (Atlantic Daylight Time)","Mon Sep 21 2020 13:26:07 GMT-0300 (Atlantic Daylight Time)","Mozilla/5.0 (Windows NT 10.0; Win64; x64) AppleWebKit/537.36 (KHTML, like Gecko) Chrome/85.0.4183.102 Safari/537.36",7,"[0.9, 0.5, 0.1]","[0.8, 0.4, 0.2]","[u'black', u'red', u'blue']","[u'left', u'middle', u'right']","[0.9, 0.5, 0.1]","[u'medium', u'low', u'high']","blue",51,"right","high","True","False",403,550,NA
"A1KOBLL83SICGQ","Mon Sep 21 2020 13:12:24 GMT-0300 (Atlantic Daylight Time)","Mon Sep 21 2020 13:26:07 GMT-0300 (Atlantic Daylight Time)","Mozilla/5.0 (Windows NT 10.0; Win64; x64) AppleWebKit/537.36 (KHTML, like Gecko) Chrome/85.0.4183.102 Safari/537.36",8,"[0.9, 0.5, 0.1]","[0.8, 0.4, 0.2]","[u'black', u'red', u'blue']","[u'left', u'middle', u'right']","[0.9, 0.5, 0.1]","[u'medium', u'low', u'high']","blue",51,"right","high","True","False",372,650,NA
"A1KOBLL83SICGQ","Mon Sep 21 2020 13:12:24 GMT-0300 (Atlantic Daylight Time)","Mon Sep 21 2020 13:26:07 GMT-0300 (Atlantic Daylight Time)","Mozilla/5.0 (Windows NT 10.0; Win64; x64) AppleWebKit/537.36 (KHTML, like Gecko) Chrome/85.0.4183.102 Safari/537.36",9,"[0.9, 0.5, 0.1]","[0.8, 0.4, 0.2]","[u'black', u'red', u'blue']","[u'left', u'middle', u'right']","[0.9, 0.5, 0.1]","[u'medium', u'low', u'high']","black",49,"left","medium","True","False",308,750,NA
"A1KOBLL83SICGQ","Mon Sep 21 2020 13:12:24 GMT-0300 (Atlantic Daylight Time)","Mon Sep 21 2020 13:26:07 GMT-0300 (Atlantic Daylight Time)","Mozilla/5.0 (Windows NT 10.0; Win64; x64) AppleWebKit/537.36 (KHTML, like Gecko) Chrome/85.0.4183.102 Safari/537.36",10,"[0.9, 0.5, 0.1]","[0.8, 0.4, 0.2]","[u'black', u'red', u'blue']","[u'left', u'middle', u'right']","[0.9, 0.5, 0.1]","[u'medium', u'low', u'high']","blue",51,"right","high","True","False",310,850,NA
"A1KOBLL83SICGQ","Mon Sep 21 2020 13:12:24 GMT-0300 (Atlantic Daylight Time)","Mon Sep 21 2020 13:26:07 GMT-0300 (Atlantic Daylight Time)","Mozilla/5.0 (Windows NT 10.0; Win64; x64) AppleWebKit/537.36 (KHTML, like Gecko) Chrome/85.0.4183.102 Safari/537.36",11,"[0.9, 0.5, 0.1]","[0.8, 0.4, 0.2]","[u'black', u'red', u'blue']","[u'left', u'middle', u'right']","[0.9, 0.5, 0.1]","[u'medium', u'low', u'high']","black",49,"left","medium","False","False",373,800,NA
"A1KOBLL83SICGQ","Mon Sep 21 2020 13:12:24 GMT-0300 (Atlantic Daylight Time)","Mon Sep 21 2020 13:26:07 GMT-0300 (Atlantic Daylight Time)","Mozilla/5.0 (Windows NT 10.0; Win64; x64) AppleWebKit/537.36 (KHTML, like Gecko) Chrome/85.0.4183.102 Safari/537.36",12,"[0.9, 0.5, 0.1]","[0.8, 0.4, 0.2]","[u'black', u'red', u'blue']","[u'left', u'middle', u'right']","[0.9, 0.5, 0.1]","[u'medium', u'low', u'high']","blue",51,"right","high","True","False",300,900,NA
"A1KOBLL83SICGQ","Mon Sep 21 2020 13:12:24 GMT-0300 (Atlantic Daylight Time)","Mon Sep 21 2020 13:26:07 GMT-0300 (Atlantic Daylight Time)","Mozilla/5.0 (Windows NT 10.0; Win64; x64) AppleWebKit/537.36 (KHTML, like Gecko) Chrome/85.0.4183.102 Safari/537.36",13,"[0.9, 0.5, 0.1]","[0.8, 0.4, 0.2]","[u'black', u'red', u'blue']","[u'left', u'middle', u'right']","[0.9, 0.5, 0.1]","[u'medium', u'low', u'high']","blue",51,"right","high","True","False",412,1000,NA
"A1KOBLL83SICGQ","Mon Sep 21 2020 13:12:24 GMT-0300 (Atlantic Daylight Time)","Mon Sep 21 2020 13:26:07 GMT-0300 (Atlantic Daylight Time)","Mozilla/5.0 (Windows NT 10.0; Win64; x64) AppleWebKit/537.36 (KHTML, like Gecko) Chrome/85.0.4183.102 Safari/537.36",14,"[0.9, 0.5, 0.1]","[0.8, 0.4, 0.2]","[u'black', u'red', u'blue']","[u'left', u'middle', u'right']","[0.9, 0.5, 0.1]","[u'medium', u'low', u'high']","blue",51,"right","high","True","False",278,1100,NA
"A1KOBLL83SICGQ","Mon Sep 21 2020 13:12:24 GMT-0300 (Atlantic Daylight Time)","Mon Sep 21 2020 13:26:07 GMT-0300 (Atlantic Daylight Time)","Mozilla/5.0 (Windows NT 10.0; Win64; x64) AppleWebKit/537.36 (KHTML, like Gecko) Chrome/85.0.4183.102 Safari/537.36",15,"[0.9, 0.5, 0.1]","[0.8, 0.4, 0.2]","[u'black', u'red', u'blue']","[u'left', u'middle', u'right']","[0.9, 0.5, 0.1]","[u'medium', u'low', u'high']","blue",51,"right","high","True","False",334,1200,NA
"A1KOBLL83SICGQ","Mon Sep 21 2020 13:12:24 GMT-0300 (Atlantic Daylight Time)","Mon Sep 21 2020 13:26:07 GMT-0300 (Atlantic Daylight Time)","Mozilla/5.0 (Windows NT 10.0; Win64; x64) AppleWebKit/537.36 (KHTML, like Gecko) Chrome/85.0.4183.102 Safari/537.36",16,"[0.9, 0.5, 0.1]","[0.8, 0.4, 0.2]","[u'black', u'red', u'blue']","[u'left', u'middle', u'right']","[0.9, 0.5, 0.1]","[u'medium', u'low', u'high']","blue",51,"right","high","True","False",299,1300,NA
"A1KOBLL83SICGQ","Mon Sep 21 2020 13:12:24 GMT-0300 (Atlantic Daylight Time)","Mon Sep 21 2020 13:26:07 GMT-0300 (Atlantic Daylight Time)","Mozilla/5.0 (Windows NT 10.0; Win64; x64) AppleWebKit/537.36 (KHTML, like Gecko) Chrome/85.0.4183.102 Safari/537.36",17,"[0.9, 0.5, 0.1]","[0.8, 0.4, 0.2]","[u'black', u'red', u'blue']","[u'left', u'middle', u'right']","[0.9, 0.5, 0.1]","[u'medium', u'low', u'high']","blue",51,"right","high","True","False",370,1400,NA
"A1KOBLL83SICGQ","Mon Sep 21 2020 13:12:24 GMT-0300 (Atlantic Daylight Time)","Mon Sep 21 2020 13:26:07 GMT-0300 (Atlantic Daylight Time)","Mozilla/5.0 (Windows NT 10.0; Win64; x64) AppleWebKit/537.36 (KHTML, like Gecko) Chrome/85.0.4183.102 Safari/537.36",18,"[0.9, 0.5, 0.1]","[0.8, 0.4, 0.2]","[u'black', u'red', u'blue']","[u'left', u'middle', u'right']","[0.9, 0.5, 0.1]","[u'medium', u'low', u'high']","blue",51,"right","high","False","False",272,1350,NA
"A1KOBLL83SICGQ","Mon Sep 21 2020 13:12:24 GMT-0300 (Atlantic Daylight Time)","Mon Sep 21 2020 13:26:07 GMT-0300 (Atlantic Daylight Time)","Mozilla/5.0 (Windows NT 10.0; Win64; x64) AppleWebKit/537.36 (KHTML, like Gecko) Chrome/85.0.4183.102 Safari/537.36",19,"[0.9, 0.5, 0.1]","[0.8, 0.4, 0.2]","[u'black', u'red', u'blue']","[u'left', u'middle', u'right']","[0.9, 0.5, 0.1]","[u'medium', u'low', u'high']","blue",51,"right","high","True","True",280,1450,NA
"A1KOBLL83SICGQ","Mon Sep 21 2020 13:12:24 GMT-0300 (Atlantic Daylight Time)","Mon Sep 21 2020 13:26:07 GMT-0300 (Atlantic Daylight Time)","Mozilla/5.0 (Windows NT 10.0; Win64; x64) AppleWebKit/537.36 (KHTML, like Gecko) Chrome/85.0.4183.102 Safari/537.36",20,"[0.9, 0.5, 0.1]","[0.8, 0.4, 0.2]","[u'black', u'red', u'blue']","[u'left', u'middle', u'right']","[0.9, 0.5, 0.1]","[u'high', u'low', u'medium']","blue",51,"right","medium","True","False",259,1550,NA
"A1KOBLL83SICGQ","Mon Sep 21 2020 13:12:24 GMT-0300 (Atlantic Daylight Time)","Mon Sep 21 2020 13:26:07 GMT-0300 (Atlantic Daylight Time)","Mozilla/5.0 (Windows NT 10.0; Win64; x64) AppleWebKit/537.36 (KHTML, like Gecko) Chrome/85.0.4183.102 Safari/537.36",21,"[0.9, 0.5, 0.1]","[0.8, 0.4, 0.2]","[u'black', u'red', u'blue']","[u'left', u'middle', u'right']","[0.9, 0.5, 0.1]","[u'high', u'low', u'medium']","blue",51,"right","medium","True","False",277,1650,NA
"A1KOBLL83SICGQ","Mon Sep 21 2020 13:12:24 GMT-0300 (Atlantic Daylight Time)","Mon Sep 21 2020 13:26:07 GMT-0300 (Atlantic Daylight Time)","Mozilla/5.0 (Windows NT 10.0; Win64; x64) AppleWebKit/537.36 (KHTML, like Gecko) Chrome/85.0.4183.102 Safari/537.36",22,"[0.9, 0.5, 0.1]","[0.8, 0.4, 0.2]","[u'black', u'red', u'blue']","[u'left', u'middle', u'right']","[0.9, 0.5, 0.1]","[u'high', u'low', u'medium']","blue",51,"right","medium","True","False",303,1750,NA
"A1KOBLL83SICGQ","Mon Sep 21 2020 13:12:24 GMT-0300 (Atlantic Daylight Time)","Mon Sep 21 2020 13:26:07 GMT-0300 (Atlantic Daylight Time)","Mozilla/5.0 (Windows NT 10.0; Win64; x64) AppleWebKit/537.36 (KHTML, like Gecko) Chrome/85.0.4183.102 Safari/537.36",23,"[0.9, 0.5, 0.1]","[0.8, 0.4, 0.2]","[u'black', u'red', u'blue']","[u'left', u'middle', u'right']","[0.9, 0.5, 0.1]","[u'high', u'low', u'medium']","blue",51,"right","medium","True","False",283,1850,NA
"A1KOBLL83SICGQ","Mon Sep 21 2020 13:12:24 GMT-0300 (Atlantic Daylight Time)","Mon Sep 21 2020 13:26:07 GMT-0300 (Atlantic Daylight Time)","Mozilla/5.0 (Windows NT 10.0; Win64; x64) AppleWebKit/537.36 (KHTML, like Gecko) Chrome/85.0.4183.102 Safari/537.36",24,"[0.9, 0.5, 0.1]","[0.8, 0.4, 0.2]","[u'black', u'red', u'blue']","[u'left', u'middle', u'right']","[0.9, 0.5, 0.1]","[u'high', u'low', u'medium']","black",49,"left","high","True","False",260,1950,NA
"A1KOBLL83SICGQ","Mon Sep 21 2020 13:12:24 GMT-0300 (Atlantic Daylight Time)","Mon Sep 21 2020 13:26:07 GMT-0300 (Atlantic Daylight Time)","Mozilla/5.0 (Windows NT 10.0; Win64; x64) AppleWebKit/537.36 (KHTML, like Gecko) Chrome/85.0.4183.102 Safari/537.36",25,"[0.9, 0.5, 0.1]","[0.8, 0.4, 0.2]","[u'black', u'red', u'blue']","[u'left', u'middle', u'right']","[0.9, 0.5, 0.1]","[u'high', u'low', u'medium']","blue",51,"right","medium","True","False",245,2050,NA
"A1KOBLL83SICGQ","Mon Sep 21 2020 13:12:24 GMT-0300 (Atlantic Daylight Time)","Mon Sep 21 2020 13:26:07 GMT-0300 (Atlantic Daylight Time)","Mozilla/5.0 (Windows NT 10.0; Win64; x64) AppleWebKit/537.36 (KHTML, like Gecko) Chrome/85.0.4183.102 Safari/537.36",26,"[0.9, 0.5, 0.1]","[0.8, 0.4, 0.2]","[u'black', u'red', u'blue']","[u'left', u'middle', u'right']","[0.9, 0.5, 0.1]","[u'high', u'low', u'medium']","blue",51,"right","medium","True","False",169,2150,NA
"A1KOBLL83SICGQ","Mon Sep 21 2020 13:12:24 GMT-0300 (Atlantic Daylight Time)","Mon Sep 21 2020 13:26:07 GMT-0300 (Atlantic Daylight Time)","Mozilla/5.0 (Windows NT 10.0; Win64; x64) AppleWebKit/537.36 (KHTML, like Gecko) Chrome/85.0.4183.102 Safari/537.36",27,"[0.9, 0.5, 0.1]","[0.8, 0.4, 0.2]","[u'black', u'red', u'blue']","[u'left', u'middle', u'right']","[0.9, 0.5, 0.1]","[u'high', u'low', u'medium']","black",49,"left","high","True","False",171,2250,NA
"A1KOBLL83SICGQ","Mon Sep 21 2020 13:12:24 GMT-0300 (Atlantic Daylight Time)","Mon Sep 21 2020 13:26:07 GMT-0300 (Atlantic Daylight Time)","Mozilla/5.0 (Windows NT 10.0; Win64; x64) AppleWebKit/537.36 (KHTML, like Gecko) Chrome/85.0.4183.102 Safari/537.36",28,"[0.9, 0.5, 0.1]","[0.8, 0.4, 0.2]","[u'black', u'red', u'blue']","[u'left', u'middle', u'right']","[0.9, 0.5, 0.1]","[u'high', u'low', u'medium']","blue",51,"right","medium","True","False",135,2350,NA
"A1KOBLL83SICGQ","Mon Sep 21 2020 13:12:24 GMT-0300 (Atlantic Daylight Time)","Mon Sep 21 2020 13:26:07 GMT-0300 (Atlantic Daylight Time)","Mozilla/5.0 (Windows NT 10.0; Win64; x64) AppleWebKit/537.36 (KHTML, like Gecko) Chrome/85.0.4183.102 Safari/537.36",29,"[0.9, 0.5, 0.1]","[0.8, 0.4, 0.2]","[u'black', u'red', u'blue']","[u'left', u'middle', u'right']","[0.9, 0.5, 0.1]","[u'high', u'low', u'medium']","blue",51,"right","medium","False","False",249,2300,NA
"A1KOBLL83SICGQ","Mon Sep 21 2020 13:12:24 GMT-0300 (Atlantic Daylight Time)","Mon Sep 21 2020 13:26:07 GMT-0300 (Atlantic Daylight Time)","Mozilla/5.0 (Windows NT 10.0; Win64; x64) AppleWebKit/537.36 (KHTML, like Gecko) Chrome/85.0.4183.102 Safari/537.36",30,"[0.9, 0.5, 0.1]","[0.8, 0.4, 0.2]","[u'black', u'red', u'blue']","[u'left', u'middle', u'right']","[0.9, 0.5, 0.1]","[u'high', u'low', u'medium']","blue",51,"right","medium","True","False",126,2400,NA
"A1KOBLL83SICGQ","Mon Sep 21 2020 13:12:24 GMT-0300 (Atlantic Daylight Time)","Mon Sep 21 2020 13:26:07 GMT-0300 (Atlantic Daylight Time)","Mozilla/5.0 (Windows NT 10.0; Win64; x64) AppleWebKit/537.36 (KHTML, like Gecko) Chrome/85.0.4183.102 Safari/537.36",31,"[0.9, 0.5, 0.1]","[0.8, 0.4, 0.2]","[u'black', u'red', u'blue']","[u'left', u'middle', u'right']","[0.9, 0.5, 0.1]","[u'high', u'low', u'medium']","black",49,"left","high","True","False",35,2500,NA
"A1KOBLL83SICGQ","Mon Sep 21 2020 13:12:24 GMT-0300 (Atlantic Daylight Time)","Mon Sep 21 2020 13:26:07 GMT-0300 (Atlantic Daylight Time)","Mozilla/5.0 (Windows NT 10.0; Win64; x64) AppleWebKit/537.36 (KHTML, like Gecko) Chrome/85.0.4183.102 Safari/537.36",32,"[0.9, 0.5, 0.1]","[0.8, 0.4, 0.2]","[u'black', u'red', u'blue']","[u'left', u'middle', u'right']","[0.9, 0.5, 0.1]","[u'high', u'low', u'medium']","black",49,"left","high","True","False",140,2600,NA
"A1KOBLL83SICGQ","Mon Sep 21 2020 13:12:24 GMT-0300 (Atlantic Daylight Time)","Mon Sep 21 2020 13:26:07 GMT-0300 (Atlantic Daylight Time)","Mozilla/5.0 (Windows NT 10.0; Win64; x64) AppleWebKit/537.36 (KHTML, like Gecko) Chrome/85.0.4183.102 Safari/537.36",33,"[0.9, 0.5, 0.1]","[0.8, 0.4, 0.2]","[u'black', u'red', u'blue']","[u'left', u'middle', u'right']","[0.9, 0.5, 0.1]","[u'high', u'low', u'medium']","black",49,"left","high","True","False",130,2700,NA
"A1KOBLL83SICGQ","Mon Sep 21 2020 13:12:24 GMT-0300 (Atlantic Daylight Time)","Mon Sep 21 2020 13:26:07 GMT-0300 (Atlantic Daylight Time)","Mozilla/5.0 (Windows NT 10.0; Win64; x64) AppleWebKit/537.36 (KHTML, like Gecko) Chrome/85.0.4183.102 Safari/537.36",34,"[0.9, 0.5, 0.1]","[0.8, 0.4, 0.2]","[u'black', u'red', u'blue']","[u'left', u'middle', u'right']","[0.9, 0.5, 0.1]","[u'high', u'low', u'medium']","blue",51,"right","medium","False","False",427,2650,NA
"A1KOBLL83SICGQ","Mon Sep 21 2020 13:12:24 GMT-0300 (Atlantic Daylight Time)","Mon Sep 21 2020 13:26:07 GMT-0300 (Atlantic Daylight Time)","Mozilla/5.0 (Windows NT 10.0; Win64; x64) AppleWebKit/537.36 (KHTML, like Gecko) Chrome/85.0.4183.102 Safari/537.36",35,"[0.9, 0.5, 0.1]","[0.8, 0.4, 0.2]","[u'black', u'red', u'blue']","[u'left', u'middle', u'right']","[0.9, 0.5, 0.1]","[u'high', u'low', u'medium']","black",49,"left","high","True","False",257,2750,NA
"A1KOBLL83SICGQ","Mon Sep 21 2020 13:12:24 GMT-0300 (Atlantic Daylight Time)","Mon Sep 21 2020 13:26:07 GMT-0300 (Atlantic Daylight Time)","Mozilla/5.0 (Windows NT 10.0; Win64; x64) AppleWebKit/537.36 (KHTML, like Gecko) Chrome/85.0.4183.102 Safari/537.36",36,"[0.9, 0.5, 0.1]","[0.8, 0.4, 0.2]","[u'black', u'red', u'blue']","[u'left', u'middle', u'right']","[0.9, 0.5, 0.1]","[u'high', u'low', u'medium']","black",49,"left","high","True","False",292,2850,NA
"A1KOBLL83SICGQ","Mon Sep 21 2020 13:12:24 GMT-0300 (Atlantic Daylight Time)","Mon Sep 21 2020 13:26:07 GMT-0300 (Atlantic Daylight Time)","Mozilla/5.0 (Windows NT 10.0; Win64; x64) AppleWebKit/537.36 (KHTML, like Gecko) Chrome/85.0.4183.102 Safari/537.36",37,"[0.9, 0.5, 0.1]","[0.8, 0.4, 0.2]","[u'black', u'red', u'blue']","[u'left', u'middle', u'right']","[0.9, 0.5, 0.1]","[u'high', u'low', u'medium']","black",49,"left","high","True","False",261,2950,NA
"A1KOBLL83SICGQ","Mon Sep 21 2020 13:12:24 GMT-0300 (Atlantic Daylight Time)","Mon Sep 21 2020 13:26:07 GMT-0300 (Atlantic Daylight Time)","Mozilla/5.0 (Windows NT 10.0; Win64; x64) AppleWebKit/537.36 (KHTML, like Gecko) Chrome/85.0.4183.102 Safari/537.36",38,"[0.9, 0.5, 0.1]","[0.8, 0.4, 0.2]","[u'black', u'red', u'blue']","[u'left', u'middle', u'right']","[0.9, 0.5, 0.1]","[u'high', u'low', u'medium']","blue",51,"right","medium","False","False",162,2900,NA
"A1KOBLL83SICGQ","Mon Sep 21 2020 13:12:24 GMT-0300 (Atlantic Daylight Time)","Mon Sep 21 2020 13:26:07 GMT-0300 (Atlantic Daylight Time)","Mozilla/5.0 (Windows NT 10.0; Win64; x64) AppleWebKit/537.36 (KHTML, like Gecko) Chrome/85.0.4183.102 Safari/537.36",39,"[0.9, 0.5, 0.1]","[0.8, 0.4, 0.2]","[u'black', u'red', u'blue']","[u'left', u'middle', u'right']","[0.9, 0.5, 0.1]","[u'high', u'low', u'medium']","black",49,"left","high","True","False",160,3000,NA
"A1KOBLL83SICGQ","Mon Sep 21 2020 13:12:24 GMT-0300 (Atlantic Daylight Time)","Mon Sep 21 2020 13:26:07 GMT-0300 (Atlantic Daylight Time)","Mozilla/5.0 (Windows NT 10.0; Win64; x64) AppleWebKit/537.36 (KHTML, like Gecko) Chrome/85.0.4183.102 Safari/537.36",40,"[0.9, 0.5, 0.1]","[0.8, 0.4, 0.2]","[u'black', u'red', u'blue']","[u'left', u'middle', u'right']","[0.9, 0.5, 0.1]","[u'high', u'low', u'medium']","black",49,"left","high","True","False",173,3100,NA
"A1KOBLL83SICGQ","Mon Sep 21 2020 13:12:24 GMT-0300 (Atlantic Daylight Time)","Mon Sep 21 2020 13:26:07 GMT-0300 (Atlantic Daylight Time)","Mozilla/5.0 (Windows NT 10.0; Win64; x64) AppleWebKit/537.36 (KHTML, like Gecko) Chrome/85.0.4183.102 Safari/537.36",41,"[0.9, 0.5, 0.1]","[0.8, 0.4, 0.2]","[u'black', u'red', u'blue']","[u'left', u'middle', u'right']","[0.9, 0.5, 0.1]","[u'low', u'high', u'medium']","black",49,"left","low","False","False",1287,3050,NA
"A1KOBLL83SICGQ","Mon Sep 21 2020 13:12:24 GMT-0300 (Atlantic Daylight Time)","Mon Sep 21 2020 13:26:07 GMT-0300 (Atlantic Daylight Time)","Mozilla/5.0 (Windows NT 10.0; Win64; x64) AppleWebKit/537.36 (KHTML, like Gecko) Chrome/85.0.4183.102 Safari/537.36",42,"[0.9, 0.5, 0.1]","[0.8, 0.4, 0.2]","[u'black', u'red', u'blue']","[u'left', u'middle', u'right']","[0.9, 0.5, 0.1]","[u'low', u'high', u'medium']","red",50,"middle","high","True","False",296,3150,NA
"A1KOBLL83SICGQ","Mon Sep 21 2020 13:12:24 GMT-0300 (Atlantic Daylight Time)","Mon Sep 21 2020 13:26:07 GMT-0300 (Atlantic Daylight Time)","Mozilla/5.0 (Windows NT 10.0; Win64; x64) AppleWebKit/537.36 (KHTML, like Gecko) Chrome/85.0.4183.102 Safari/537.36",43,"[0.9, 0.5, 0.1]","[0.8, 0.4, 0.2]","[u'black', u'red', u'blue']","[u'left', u'middle', u'right']","[0.9, 0.5, 0.1]","[u'low', u'high', u'medium']","red",50,"middle","high","True","False",155,3250,NA
"A1KOBLL83SICGQ","Mon Sep 21 2020 13:12:24 GMT-0300 (Atlantic Daylight Time)","Mon Sep 21 2020 13:26:07 GMT-0300 (Atlantic Daylight Time)","Mozilla/5.0 (Windows NT 10.0; Win64; x64) AppleWebKit/537.36 (KHTML, like Gecko) Chrome/85.0.4183.102 Safari/537.36",44,"[0.9, 0.5, 0.1]","[0.8, 0.4, 0.2]","[u'black', u'red', u'blue']","[u'left', u'middle', u'right']","[0.9, 0.5, 0.1]","[u'low', u'high', u'medium']","red",50,"middle","high","True","False",224,3350,NA
"A1KOBLL83SICGQ","Mon Sep 21 2020 13:12:24 GMT-0300 (Atlantic Daylight Time)","Mon Sep 21 2020 13:26:07 GMT-0300 (Atlantic Daylight Time)","Mozilla/5.0 (Windows NT 10.0; Win64; x64) AppleWebKit/537.36 (KHTML, like Gecko) Chrome/85.0.4183.102 Safari/537.36",45,"[0.9, 0.5, 0.1]","[0.8, 0.4, 0.2]","[u'black', u'red', u'blue']","[u'left', u'middle', u'right']","[0.9, 0.5, 0.1]","[u'low', u'high', u'medium']","red",50,"middle","high","True","False",206,3450,NA
"A1KOBLL83SICGQ","Mon Sep 21 2020 13:12:24 GMT-0300 (Atlantic Daylight Time)","Mon Sep 21 2020 13:26:07 GMT-0300 (Atlantic Daylight Time)","Mozilla/5.0 (Windows NT 10.0; Win64; x64) AppleWebKit/537.36 (KHTML, like Gecko) Chrome/85.0.4183.102 Safari/537.36",46,"[0.9, 0.5, 0.1]","[0.8, 0.4, 0.2]","[u'black', u'red', u'blue']","[u'left', u'middle', u'right']","[0.9, 0.5, 0.1]","[u'low', u'high', u'medium']","red",50,"middle","high","True","False",197,3550,NA
"A1KOBLL83SICGQ","Mon Sep 21 2020 13:12:24 GMT-0300 (Atlantic Daylight Time)","Mon Sep 21 2020 13:26:07 GMT-0300 (Atlantic Daylight Time)","Mozilla/5.0 (Windows NT 10.0; Win64; x64) AppleWebKit/537.36 (KHTML, like Gecko) Chrome/85.0.4183.102 Safari/537.36",47,"[0.9, 0.5, 0.1]","[0.8, 0.4, 0.2]","[u'black', u'red', u'blue']","[u'left', u'middle', u'right']","[0.9, 0.5, 0.1]","[u'low', u'high', u'medium']","red",50,"middle","high","True","False",175,3650,NA
"A1KOBLL83SICGQ","Mon Sep 21 2020 13:12:24 GMT-0300 (Atlantic Daylight Time)","Mon Sep 21 2020 13:26:07 GMT-0300 (Atlantic Daylight Time)","Mozilla/5.0 (Windows NT 10.0; Win64; x64) AppleWebKit/537.36 (KHTML, like Gecko) Chrome/85.0.4183.102 Safari/537.36",48,"[0.9, 0.5, 0.1]","[0.8, 0.4, 0.2]","[u'black', u'red', u'blue']","[u'left', u'middle', u'right']","[0.9, 0.5, 0.1]","[u'low', u'high', u'medium']","red",50,"middle","high","True","False",194,3750,NA
"A1KOBLL83SICGQ","Mon Sep 21 2020 13:12:24 GMT-0300 (Atlantic Daylight Time)","Mon Sep 21 2020 13:26:07 GMT-0300 (Atlantic Daylight Time)","Mozilla/5.0 (Windows NT 10.0; Win64; x64) AppleWebKit/537.36 (KHTML, like Gecko) Chrome/85.0.4183.102 Safari/537.36",49,"[0.9, 0.5, 0.1]","[0.8, 0.4, 0.2]","[u'black', u'red', u'blue']","[u'left', u'middle', u'right']","[0.9, 0.5, 0.1]","[u'low', u'high', u'medium']","red",50,"middle","high","False","False",180,3700,NA
"A1KOBLL83SICGQ","Mon Sep 21 2020 13:12:24 GMT-0300 (Atlantic Daylight Time)","Mon Sep 21 2020 13:26:07 GMT-0300 (Atlantic Daylight Time)","Mozilla/5.0 (Windows NT 10.0; Win64; x64) AppleWebKit/537.36 (KHTML, like Gecko) Chrome/85.0.4183.102 Safari/537.36",50,"[0.9, 0.5, 0.1]","[0.8, 0.4, 0.2]","[u'black', u'red', u'blue']","[u'left', u'middle', u'right']","[0.9, 0.5, 0.1]","[u'low', u'high', u'medium']","blue",51,"right","medium","True","False",218,3800,NA
"A1KOBLL83SICGQ","Mon Sep 21 2020 13:12:24 GMT-0300 (Atlantic Daylight Time)","Mon Sep 21 2020 13:26:07 GMT-0300 (Atlantic Daylight Time)","Mozilla/5.0 (Windows NT 10.0; Win64; x64) AppleWebKit/537.36 (KHTML, like Gecko) Chrome/85.0.4183.102 Safari/537.36",51,"[0.9, 0.5, 0.1]","[0.8, 0.4, 0.2]","[u'black', u'red', u'blue']","[u'left', u'middle', u'right']","[0.9, 0.5, 0.1]","[u'low', u'high', u'medium']","blue",51,"right","medium","False","False",119,3750,NA
"A1KOBLL83SICGQ","Mon Sep 21 2020 13:12:24 GMT-0300 (Atlantic Daylight Time)","Mon Sep 21 2020 13:26:07 GMT-0300 (Atlantic Daylight Time)","Mozilla/5.0 (Windows NT 10.0; Win64; x64) AppleWebKit/537.36 (KHTML, like Gecko) Chrome/85.0.4183.102 Safari/537.36",52,"[0.9, 0.5, 0.1]","[0.8, 0.4, 0.2]","[u'black', u'red', u'blue']","[u'left', u'middle', u'right']","[0.9, 0.5, 0.1]","[u'low', u'high', u'medium']","blue",51,"right","medium","False","False",177,3700,NA
"A1KOBLL83SICGQ","Mon Sep 21 2020 13:12:24 GMT-0300 (Atlantic Daylight Time)","Mon Sep 21 2020 13:26:07 GMT-0300 (Atlantic Daylight Time)","Mozilla/5.0 (Windows NT 10.0; Win64; x64) AppleWebKit/537.36 (KHTML, like Gecko) Chrome/85.0.4183.102 Safari/537.36",53,"[0.9, 0.5, 0.1]","[0.8, 0.4, 0.2]","[u'black', u'red', u'blue']","[u'left', u'middle', u'right']","[0.9, 0.5, 0.1]","[u'low', u'high', u'medium']","black",49,"left","low","False","False",704,3650,NA
"A1KOBLL83SICGQ","Mon Sep 21 2020 13:12:24 GMT-0300 (Atlantic Daylight Time)","Mon Sep 21 2020 13:26:07 GMT-0300 (Atlantic Daylight Time)","Mozilla/5.0 (Windows NT 10.0; Win64; x64) AppleWebKit/537.36 (KHTML, like Gecko) Chrome/85.0.4183.102 Safari/537.36",54,"[0.9, 0.5, 0.1]","[0.8, 0.4, 0.2]","[u'black', u'red', u'blue']","[u'left', u'middle', u'right']","[0.9, 0.5, 0.1]","[u'low', u'high', u'medium']","red",50,"middle","high","False","False",360,3600,NA
"A1KOBLL83SICGQ","Mon Sep 21 2020 13:12:24 GMT-0300 (Atlantic Daylight Time)","Mon Sep 21 2020 13:26:07 GMT-0300 (Atlantic Daylight Time)","Mozilla/5.0 (Windows NT 10.0; Win64; x64) AppleWebKit/537.36 (KHTML, like Gecko) Chrome/85.0.4183.102 Safari/537.36",55,"[0.9, 0.5, 0.1]","[0.8, 0.4, 0.2]","[u'black', u'red', u'blue']","[u'left', u'middle', u'right']","[0.9, 0.5, 0.1]","[u'low', u'high', u'medium']","blue",51,"right","medium","True","False",241,3700,NA
"A1KOBLL83SICGQ","Mon Sep 21 2020 13:12:24 GMT-0300 (Atlantic Daylight Time)","Mon Sep 21 2020 13:26:07 GMT-0300 (Atlantic Daylight Time)","Mozilla/5.0 (Windows NT 10.0; Win64; x64) AppleWebKit/537.36 (KHTML, like Gecko) Chrome/85.0.4183.102 Safari/537.36",56,"[0.9, 0.5, 0.1]","[0.8, 0.4, 0.2]","[u'black', u'red', u'blue']","[u'left', u'middle', u'right']","[0.9, 0.5, 0.1]","[u'low', u'high', u'medium']","blue",51,"right","medium","False","False",285,3650,NA
"A1KOBLL83SICGQ","Mon Sep 21 2020 13:12:24 GMT-0300 (Atlantic Daylight Time)","Mon Sep 21 2020 13:26:07 GMT-0300 (Atlantic Daylight Time)","Mozilla/5.0 (Windows NT 10.0; Win64; x64) AppleWebKit/537.36 (KHTML, like Gecko) Chrome/85.0.4183.102 Safari/537.36",57,"[0.9, 0.5, 0.1]","[0.8, 0.4, 0.2]","[u'black', u'red', u'blue']","[u'left', u'middle', u'right']","[0.9, 0.5, 0.1]","[u'low', u'high', u'medium']","black",49,"left","low","True","False",590,3750,NA
"A1KOBLL83SICGQ","Mon Sep 21 2020 13:12:24 GMT-0300 (Atlantic Daylight Time)","Mon Sep 21 2020 13:26:07 GMT-0300 (Atlantic Daylight Time)","Mozilla/5.0 (Windows NT 10.0; Win64; x64) AppleWebKit/537.36 (KHTML, like Gecko) Chrome/85.0.4183.102 Safari/537.36",58,"[0.9, 0.5, 0.1]","[0.8, 0.4, 0.2]","[u'black', u'red', u'blue']","[u'left', u'middle', u'right']","[0.9, 0.5, 0.1]","[u'low', u'high', u'medium']","black",49,"left","low","False","False",300,3700,NA
"A1KOBLL83SICGQ","Mon Sep 21 2020 13:12:24 GMT-0300 (Atlantic Daylight Time)","Mon Sep 21 2020 13:26:07 GMT-0300 (Atlantic Daylight Time)","Mozilla/5.0 (Windows NT 10.0; Win64; x64) AppleWebKit/537.36 (KHTML, like Gecko) Chrome/85.0.4183.102 Safari/537.36",59,"[0.9, 0.5, 0.1]","[0.8, 0.4, 0.2]","[u'black', u'red', u'blue']","[u'left', u'middle', u'right']","[0.9, 0.5, 0.1]","[u'low', u'high', u'medium']","red",50,"middle","high","True","False",29,3800,NA
"A1KOBLL83SICGQ","Mon Sep 21 2020 13:12:24 GMT-0300 (Atlantic Daylight Time)","Mon Sep 21 2020 13:26:07 GMT-0300 (Atlantic Daylight Time)","Mozilla/5.0 (Windows NT 10.0; Win64; x64) AppleWebKit/537.36 (KHTML, like Gecko) Chrome/85.0.4183.102 Safari/537.36",60,"[0.9, 0.5, 0.1]","[0.8, 0.4, 0.2]","[u'black', u'red', u'blue']","[u'left', u'middle', u'right']","[0.9, 0.5, 0.1]","[u'low', u'high', u'medium']","red",50,"middle","high","True","False",763,3900,NA
"A1KOBLL83SICGQ","Mon Sep 21 2020 13:12:24 GMT-0300 (Atlantic Daylight Time)","Mon Sep 21 2020 13:26:07 GMT-0300 (Atlantic Daylight Time)","Mozilla/5.0 (Windows NT 10.0; Win64; x64) AppleWebKit/537.36 (KHTML, like Gecko) Chrome/85.0.4183.102 Safari/537.36",61,"[0.9, 0.5, 0.1]","[0.8, 0.4, 0.2]","[u'black', u'red', u'blue']","[u'left', u'middle', u'right']","[0.9, 0.5, 0.1]","[u'low', u'high', u'medium']","red",50,"middle","high","True","False",271,4000,NA
"A1KOBLL83SICGQ","Mon Sep 21 2020 13:12:24 GMT-0300 (Atlantic Daylight Time)","Mon Sep 21 2020 13:26:07 GMT-0300 (Atlantic Daylight Time)","Mozilla/5.0 (Windows NT 10.0; Win64; x64) AppleWebKit/537.36 (KHTML, like Gecko) Chrome/85.0.4183.102 Safari/537.36",62,"[0.9, 0.5, 0.1]","[0.8, 0.4, 0.2]","[u'black', u'red', u'blue']","[u'left', u'middle', u'right']","[0.9, 0.5, 0.1]","[u'low', u'high', u'medium']","red",50,"middle","high","True","False",539,4100,NA
"A1KOBLL83SICGQ","Mon Sep 21 2020 13:12:24 GMT-0300 (Atlantic Daylight Time)","Mon Sep 21 2020 13:26:07 GMT-0300 (Atlantic Daylight Time)","Mozilla/5.0 (Windows NT 10.0; Win64; x64) AppleWebKit/537.36 (KHTML, like Gecko) Chrome/85.0.4183.102 Safari/537.36",63,"[0.9, 0.5, 0.1]","[0.8, 0.4, 0.2]","[u'black', u'red', u'blue']","[u'left', u'middle', u'right']","[0.9, 0.5, 0.1]","[u'low', u'high', u'medium']","red",50,"middle","high","True","False",195,4200,NA
"A1KOBLL83SICGQ","Mon Sep 21 2020 13:12:24 GMT-0300 (Atlantic Daylight Time)","Mon Sep 21 2020 13:26:07 GMT-0300 (Atlantic Daylight Time)","Mozilla/5.0 (Windows NT 10.0; Win64; x64) AppleWebKit/537.36 (KHTML, like Gecko) Chrome/85.0.4183.102 Safari/537.36",64,"[0.9, 0.5, 0.1]","[0.8, 0.4, 0.2]","[u'black', u'red', u'blue']","[u'left', u'middle', u'right']","[0.9, 0.5, 0.1]","[u'low', u'high', u'medium']","red",50,"middle","high","True","False",118,4300,NA
"A1KOBLL83SICGQ","Mon Sep 21 2020 13:12:24 GMT-0300 (Atlantic Daylight Time)","Mon Sep 21 2020 13:26:07 GMT-0300 (Atlantic Daylight Time)","Mozilla/5.0 (Windows NT 10.0; Win64; x64) AppleWebKit/537.36 (KHTML, like Gecko) Chrome/85.0.4183.102 Safari/537.36",65,"[0.9, 0.5, 0.1]","[0.8, 0.4, 0.2]","[u'black', u'red', u'blue']","[u'left', u'middle', u'right']","[0.9, 0.5, 0.1]","[u'low', u'high', u'medium']","red",50,"middle","high","True","False",451,4400,NA
"A1KOBLL83SICGQ","Mon Sep 21 2020 13:12:24 GMT-0300 (Atlantic Daylight Time)","Mon Sep 21 2020 13:26:07 GMT-0300 (Atlantic Daylight Time)","Mozilla/5.0 (Windows NT 10.0; Win64; x64) AppleWebKit/537.36 (KHTML, like Gecko) Chrome/85.0.4183.102 Safari/537.36",66,"[0.9, 0.5, 0.1]","[0.8, 0.4, 0.2]","[u'black', u'red', u'blue']","[u'left', u'middle', u'right']","[0.9, 0.5, 0.1]","[u'low', u'high', u'medium']","red",50,"middle","high","True","False",227,4500,NA
"A1KOBLL83SICGQ","Mon Sep 21 2020 13:12:24 GMT-0300 (Atlantic Daylight Time)","Mon Sep 21 2020 13:26:07 GMT-0300 (Atlantic Daylight Time)","Mozilla/5.0 (Windows NT 10.0; Win64; x64) AppleWebKit/537.36 (KHTML, like Gecko) Chrome/85.0.4183.102 Safari/537.36",67,"[0.9, 0.5, 0.1]","[0.8, 0.4, 0.2]","[u'black', u'red', u'blue']","[u'left', u'middle', u'right']","[0.9, 0.5, 0.1]","[u'low', u'high', u'medium']","red",50,"middle","high","True","True",234,4600,NA
"A1KOBLL83SICGQ","Mon Sep 21 2020 13:12:24 GMT-0300 (Atlantic Daylight Time)","Mon Sep 21 2020 13:26:07 GMT-0300 (Atlantic Daylight Time)","Mozilla/5.0 (Windows NT 10.0; Win64; x64) AppleWebKit/537.36 (KHTML, like Gecko) Chrome/85.0.4183.102 Safari/537.36",68,"[0.9, 0.5, 0.1]","[0.8, 0.4, 0.2]","[u'black', u'red', u'blue']","[u'left', u'middle', u'right']","[0.9, 0.5, 0.1]","[u'high', u'medium', u'low']","red",50,"middle","medium","False","False",345,4550,NA
"A1KOBLL83SICGQ","Mon Sep 21 2020 13:12:24 GMT-0300 (Atlantic Daylight Time)","Mon Sep 21 2020 13:26:07 GMT-0300 (Atlantic Daylight Time)","Mozilla/5.0 (Windows NT 10.0; Win64; x64) AppleWebKit/537.36 (KHTML, like Gecko) Chrome/85.0.4183.102 Safari/537.36",69,"[0.9, 0.5, 0.1]","[0.8, 0.4, 0.2]","[u'black', u'red', u'blue']","[u'left', u'middle', u'right']","[0.9, 0.5, 0.1]","[u'high', u'medium', u'low']","red",50,"middle","medium","True","False",284,4650,NA
"A1KOBLL83SICGQ","Mon Sep 21 2020 13:12:24 GMT-0300 (Atlantic Daylight Time)","Mon Sep 21 2020 13:26:07 GMT-0300 (Atlantic Daylight Time)","Mozilla/5.0 (Windows NT 10.0; Win64; x64) AppleWebKit/537.36 (KHTML, like Gecko) Chrome/85.0.4183.102 Safari/537.36",70,"[0.9, 0.5, 0.1]","[0.8, 0.4, 0.2]","[u'black', u'red', u'blue']","[u'left', u'middle', u'right']","[0.9, 0.5, 0.1]","[u'high', u'medium', u'low']","red",50,"middle","medium","True","False",269,4750,NA
"A1KOBLL83SICGQ","Mon Sep 21 2020 13:12:24 GMT-0300 (Atlantic Daylight Time)","Mon Sep 21 2020 13:26:07 GMT-0300 (Atlantic Daylight Time)","Mozilla/5.0 (Windows NT 10.0; Win64; x64) AppleWebKit/537.36 (KHTML, like Gecko) Chrome/85.0.4183.102 Safari/537.36",71,"[0.9, 0.5, 0.1]","[0.8, 0.4, 0.2]","[u'black', u'red', u'blue']","[u'left', u'middle', u'right']","[0.9, 0.5, 0.1]","[u'high', u'medium', u'low']","red",50,"middle","medium","True","False",261,4850,NA
"A1KOBLL83SICGQ","Mon Sep 21 2020 13:12:24 GMT-0300 (Atlantic Daylight Time)","Mon Sep 21 2020 13:26:07 GMT-0300 (Atlantic Daylight Time)","Mozilla/5.0 (Windows NT 10.0; Win64; x64) AppleWebKit/537.36 (KHTML, like Gecko) Chrome/85.0.4183.102 Safari/537.36",72,"[0.9, 0.5, 0.1]","[0.8, 0.4, 0.2]","[u'black', u'red', u'blue']","[u'left', u'middle', u'right']","[0.9, 0.5, 0.1]","[u'high', u'medium', u'low']","red",50,"middle","medium","False","False",166,4800,NA
"A1KOBLL83SICGQ","Mon Sep 21 2020 13:12:24 GMT-0300 (Atlantic Daylight Time)","Mon Sep 21 2020 13:26:07 GMT-0300 (Atlantic Daylight Time)","Mozilla/5.0 (Windows NT 10.0; Win64; x64) AppleWebKit/537.36 (KHTML, like Gecko) Chrome/85.0.4183.102 Safari/537.36",73,"[0.9, 0.5, 0.1]","[0.8, 0.4, 0.2]","[u'black', u'red', u'blue']","[u'left', u'middle', u'right']","[0.9, 0.5, 0.1]","[u'high', u'medium', u'low']","blue",51,"right","low","False","False",242,4750,NA
"A1KOBLL83SICGQ","Mon Sep 21 2020 13:12:24 GMT-0300 (Atlantic Daylight Time)","Mon Sep 21 2020 13:26:07 GMT-0300 (Atlantic Daylight Time)","Mozilla/5.0 (Windows NT 10.0; Win64; x64) AppleWebKit/537.36 (KHTML, like Gecko) Chrome/85.0.4183.102 Safari/537.36",74,"[0.9, 0.5, 0.1]","[0.8, 0.4, 0.2]","[u'black', u'red', u'blue']","[u'left', u'middle', u'right']","[0.9, 0.5, 0.1]","[u'high', u'medium', u'low']","red",50,"middle","medium","True","False",393,4850,NA
"A1KOBLL83SICGQ","Mon Sep 21 2020 13:12:24 GMT-0300 (Atlantic Daylight Time)","Mon Sep 21 2020 13:26:07 GMT-0300 (Atlantic Daylight Time)","Mozilla/5.0 (Windows NT 10.0; Win64; x64) AppleWebKit/537.36 (KHTML, like Gecko) Chrome/85.0.4183.102 Safari/537.36",75,"[0.9, 0.5, 0.1]","[0.8, 0.4, 0.2]","[u'black', u'red', u'blue']","[u'left', u'middle', u'right']","[0.9, 0.5, 0.1]","[u'high', u'medium', u'low']","blue",51,"right","low","True","False",422,4950,NA
"A1KOBLL83SICGQ","Mon Sep 21 2020 13:12:24 GMT-0300 (Atlantic Daylight Time)","Mon Sep 21 2020 13:26:07 GMT-0300 (Atlantic Daylight Time)","Mozilla/5.0 (Windows NT 10.0; Win64; x64) AppleWebKit/537.36 (KHTML, like Gecko) Chrome/85.0.4183.102 Safari/537.36",76,"[0.9, 0.5, 0.1]","[0.8, 0.4, 0.2]","[u'black', u'red', u'blue']","[u'left', u'middle', u'right']","[0.9, 0.5, 0.1]","[u'high', u'medium', u'low']","black",49,"left","high","True","False",1211,5050,NA
"A1KOBLL83SICGQ","Mon Sep 21 2020 13:12:24 GMT-0300 (Atlantic Daylight Time)","Mon Sep 21 2020 13:26:07 GMT-0300 (Atlantic Daylight Time)","Mozilla/5.0 (Windows NT 10.0; Win64; x64) AppleWebKit/537.36 (KHTML, like Gecko) Chrome/85.0.4183.102 Safari/537.36",77,"[0.9, 0.5, 0.1]","[0.8, 0.4, 0.2]","[u'black', u'red', u'blue']","[u'left', u'middle', u'right']","[0.9, 0.5, 0.1]","[u'high', u'medium', u'low']","black",49,"left","high","True","False",298,5150,NA
"A1KOBLL83SICGQ","Mon Sep 21 2020 13:12:24 GMT-0300 (Atlantic Daylight Time)","Mon Sep 21 2020 13:26:07 GMT-0300 (Atlantic Daylight Time)","Mozilla/5.0 (Windows NT 10.0; Win64; x64) AppleWebKit/537.36 (KHTML, like Gecko) Chrome/85.0.4183.102 Safari/537.36",78,"[0.9, 0.5, 0.1]","[0.8, 0.4, 0.2]","[u'black', u'red', u'blue']","[u'left', u'middle', u'right']","[0.9, 0.5, 0.1]","[u'high', u'medium', u'low']","black",49,"left","high","True","False",8088,5250,NA
"A1KOBLL83SICGQ","Mon Sep 21 2020 13:12:24 GMT-0300 (Atlantic Daylight Time)","Mon Sep 21 2020 13:26:07 GMT-0300 (Atlantic Daylight Time)","Mozilla/5.0 (Windows NT 10.0; Win64; x64) AppleWebKit/537.36 (KHTML, like Gecko) Chrome/85.0.4183.102 Safari/537.36",79,"[0.9, 0.5, 0.1]","[0.8, 0.4, 0.2]","[u'black', u'red', u'blue']","[u'left', u'middle', u'right']","[0.9, 0.5, 0.1]","[u'high', u'medium', u'low']","blue",51,"right","low","False","False",827,5200,NA
"A1KOBLL83SICGQ","Mon Sep 21 2020 13:12:24 GMT-0300 (Atlantic Daylight Time)","Mon Sep 21 2020 13:26:07 GMT-0300 (Atlantic Daylight Time)","Mozilla/5.0 (Windows NT 10.0; Win64; x64) AppleWebKit/537.36 (KHTML, like Gecko) Chrome/85.0.4183.102 Safari/537.36",80,"[0.9, 0.5, 0.1]","[0.8, 0.4, 0.2]","[u'black', u'red', u'blue']","[u'left', u'middle', u'right']","[0.9, 0.5, 0.1]","[u'high', u'medium', u'low']","red",50,"middle","medium","True","False",217,5300,NA
"A1KOBLL83SICGQ","Mon Sep 21 2020 13:12:24 GMT-0300 (Atlantic Daylight Time)","Mon Sep 21 2020 13:26:07 GMT-0300 (Atlantic Daylight Time)","Mozilla/5.0 (Windows NT 10.0; Win64; x64) AppleWebKit/537.36 (KHTML, like Gecko) Chrome/85.0.4183.102 Safari/537.36",81,"[0.9, 0.5, 0.1]","[0.8, 0.4, 0.2]","[u'black', u'red', u'blue']","[u'left', u'middle', u'right']","[0.8, 0.4, 0.2]","[u'low', u'high', u'medium']","red",50,"middle","high","True","False",2245,5400,NA
"A1KOBLL83SICGQ","Mon Sep 21 2020 13:12:24 GMT-0300 (Atlantic Daylight Time)","Mon Sep 21 2020 13:26:07 GMT-0300 (Atlantic Daylight Time)","Mozilla/5.0 (Windows NT 10.0; Win64; x64) AppleWebKit/537.36 (KHTML, like Gecko) Chrome/85.0.4183.102 Safari/537.36",82,"[0.9, 0.5, 0.1]","[0.8, 0.4, 0.2]","[u'black', u'red', u'blue']","[u'left', u'middle', u'right']","[0.8, 0.4, 0.2]","[u'low', u'high', u'medium']","red",50,"middle","high","True","False",88,5500,NA
"A1KOBLL83SICGQ","Mon Sep 21 2020 13:12:24 GMT-0300 (Atlantic Daylight Time)","Mon Sep 21 2020 13:26:07 GMT-0300 (Atlantic Daylight Time)","Mozilla/5.0 (Windows NT 10.0; Win64; x64) AppleWebKit/537.36 (KHTML, like Gecko) Chrome/85.0.4183.102 Safari/537.36",83,"[0.9, 0.5, 0.1]","[0.8, 0.4, 0.2]","[u'black', u'red', u'blue']","[u'left', u'middle', u'right']","[0.8, 0.4, 0.2]","[u'low', u'high', u'medium']","red",50,"middle","high","True","False",253,5600,NA
"A1KOBLL83SICGQ","Mon Sep 21 2020 13:12:24 GMT-0300 (Atlantic Daylight Time)","Mon Sep 21 2020 13:26:07 GMT-0300 (Atlantic Daylight Time)","Mozilla/5.0 (Windows NT 10.0; Win64; x64) AppleWebKit/537.36 (KHTML, like Gecko) Chrome/85.0.4183.102 Safari/537.36",84,"[0.9, 0.5, 0.1]","[0.8, 0.4, 0.2]","[u'black', u'red', u'blue']","[u'left', u'middle', u'right']","[0.8, 0.4, 0.2]","[u'low', u'high', u'medium']","red",50,"middle","high","False","False",297,5550,NA
"A1KOBLL83SICGQ","Mon Sep 21 2020 13:12:24 GMT-0300 (Atlantic Daylight Time)","Mon Sep 21 2020 13:26:07 GMT-0300 (Atlantic Daylight Time)","Mozilla/5.0 (Windows NT 10.0; Win64; x64) AppleWebKit/537.36 (KHTML, like Gecko) Chrome/85.0.4183.102 Safari/537.36",85,"[0.9, 0.5, 0.1]","[0.8, 0.4, 0.2]","[u'black', u'red', u'blue']","[u'left', u'middle', u'right']","[0.8, 0.4, 0.2]","[u'low', u'high', u'medium']","black",49,"left","low","True","False",471,5650,NA
"A1KOBLL83SICGQ","Mon Sep 21 2020 13:12:24 GMT-0300 (Atlantic Daylight Time)","Mon Sep 21 2020 13:26:07 GMT-0300 (Atlantic Daylight Time)","Mozilla/5.0 (Windows NT 10.0; Win64; x64) AppleWebKit/537.36 (KHTML, like Gecko) Chrome/85.0.4183.102 Safari/537.36",86,"[0.9, 0.5, 0.1]","[0.8, 0.4, 0.2]","[u'black', u'red', u'blue']","[u'left', u'middle', u'right']","[0.8, 0.4, 0.2]","[u'low', u'high', u'medium']","black",49,"left","low","False","False",257,5600,NA
"A1KOBLL83SICGQ","Mon Sep 21 2020 13:12:24 GMT-0300 (Atlantic Daylight Time)","Mon Sep 21 2020 13:26:07 GMT-0300 (Atlantic Daylight Time)","Mozilla/5.0 (Windows NT 10.0; Win64; x64) AppleWebKit/537.36 (KHTML, like Gecko) Chrome/85.0.4183.102 Safari/537.36",87,"[0.9, 0.5, 0.1]","[0.8, 0.4, 0.2]","[u'black', u'red', u'blue']","[u'left', u'middle', u'right']","[0.8, 0.4, 0.2]","[u'low', u'high', u'medium']","blue",51,"right","medium","True","False",228,5700,NA
"A1KOBLL83SICGQ","Mon Sep 21 2020 13:12:24 GMT-0300 (Atlantic Daylight Time)","Mon Sep 21 2020 13:26:07 GMT-0300 (Atlantic Daylight Time)","Mozilla/5.0 (Windows NT 10.0; Win64; x64) AppleWebKit/537.36 (KHTML, like Gecko) Chrome/85.0.4183.102 Safari/537.36",88,"[0.9, 0.5, 0.1]","[0.8, 0.4, 0.2]","[u'black', u'red', u'blue']","[u'left', u'middle', u'right']","[0.8, 0.4, 0.2]","[u'low', u'high', u'medium']","blue",51,"right","medium","True","False",580,5800,NA
"A1KOBLL83SICGQ","Mon Sep 21 2020 13:12:24 GMT-0300 (Atlantic Daylight Time)","Mon Sep 21 2020 13:26:07 GMT-0300 (Atlantic Daylight Time)","Mozilla/5.0 (Windows NT 10.0; Win64; x64) AppleWebKit/537.36 (KHTML, like Gecko) Chrome/85.0.4183.102 Safari/537.36",89,"[0.9, 0.5, 0.1]","[0.8, 0.4, 0.2]","[u'black', u'red', u'blue']","[u'left', u'middle', u'right']","[0.8, 0.4, 0.2]","[u'low', u'high', u'medium']","blue",51,"right","medium","False","False",158,5750,NA
"A1KOBLL83SICGQ","Mon Sep 21 2020 13:12:24 GMT-0300 (Atlantic Daylight Time)","Mon Sep 21 2020 13:26:07 GMT-0300 (Atlantic Daylight Time)","Mozilla/5.0 (Windows NT 10.0; Win64; x64) AppleWebKit/537.36 (KHTML, like Gecko) Chrome/85.0.4183.102 Safari/537.36",90,"[0.9, 0.5, 0.1]","[0.8, 0.4, 0.2]","[u'black', u'red', u'blue']","[u'left', u'middle', u'right']","[0.8, 0.4, 0.2]","[u'low', u'high', u'medium']","red",50,"middle","high","True","False",240,5850,NA
"A1KOBLL83SICGQ","Mon Sep 21 2020 13:12:24 GMT-0300 (Atlantic Daylight Time)","Mon Sep 21 2020 13:26:07 GMT-0300 (Atlantic Daylight Time)","Mozilla/5.0 (Windows NT 10.0; Win64; x64) AppleWebKit/537.36 (KHTML, like Gecko) Chrome/85.0.4183.102 Safari/537.36",91,"[0.9, 0.5, 0.1]","[0.8, 0.4, 0.2]","[u'black', u'red', u'blue']","[u'left', u'middle', u'right']","[0.8, 0.4, 0.2]","[u'low', u'high', u'medium']","red",50,"middle","high","True","False",374,5950,NA
"A1KOBLL83SICGQ","Mon Sep 21 2020 13:12:24 GMT-0300 (Atlantic Daylight Time)","Mon Sep 21 2020 13:26:07 GMT-0300 (Atlantic Daylight Time)","Mozilla/5.0 (Windows NT 10.0; Win64; x64) AppleWebKit/537.36 (KHTML, like Gecko) Chrome/85.0.4183.102 Safari/537.36",92,"[0.9, 0.5, 0.1]","[0.8, 0.4, 0.2]","[u'black', u'red', u'blue']","[u'left', u'middle', u'right']","[0.8, 0.4, 0.2]","[u'low', u'high', u'medium']","red",50,"middle","high","True","False",283,6050,NA
"A1KOBLL83SICGQ","Mon Sep 21 2020 13:12:24 GMT-0300 (Atlantic Daylight Time)","Mon Sep 21 2020 13:26:07 GMT-0300 (Atlantic Daylight Time)","Mozilla/5.0 (Windows NT 10.0; Win64; x64) AppleWebKit/537.36 (KHTML, like Gecko) Chrome/85.0.4183.102 Safari/537.36",93,"[0.9, 0.5, 0.1]","[0.8, 0.4, 0.2]","[u'black', u'red', u'blue']","[u'left', u'middle', u'right']","[0.8, 0.4, 0.2]","[u'low', u'high', u'medium']","red",50,"middle","high","True","False",113,6150,NA
"A1KOBLL83SICGQ","Mon Sep 21 2020 13:12:24 GMT-0300 (Atlantic Daylight Time)","Mon Sep 21 2020 13:26:07 GMT-0300 (Atlantic Daylight Time)","Mozilla/5.0 (Windows NT 10.0; Win64; x64) AppleWebKit/537.36 (KHTML, like Gecko) Chrome/85.0.4183.102 Safari/537.36",94,"[0.9, 0.5, 0.1]","[0.8, 0.4, 0.2]","[u'black', u'red', u'blue']","[u'left', u'middle', u'right']","[0.8, 0.4, 0.2]","[u'low', u'high', u'medium']","red",50,"middle","high","True","False",245,6250,NA
"A1KOBLL83SICGQ","Mon Sep 21 2020 13:12:24 GMT-0300 (Atlantic Daylight Time)","Mon Sep 21 2020 13:26:07 GMT-0300 (Atlantic Daylight Time)","Mozilla/5.0 (Windows NT 10.0; Win64; x64) AppleWebKit/537.36 (KHTML, like Gecko) Chrome/85.0.4183.102 Safari/537.36",95,"[0.9, 0.5, 0.1]","[0.8, 0.4, 0.2]","[u'black', u'red', u'blue']","[u'left', u'middle', u'right']","[0.8, 0.4, 0.2]","[u'low', u'high', u'medium']","red",50,"middle","high","True","False",76,6350,NA
"A1KOBLL83SICGQ","Mon Sep 21 2020 13:12:24 GMT-0300 (Atlantic Daylight Time)","Mon Sep 21 2020 13:26:07 GMT-0300 (Atlantic Daylight Time)","Mozilla/5.0 (Windows NT 10.0; Win64; x64) AppleWebKit/537.36 (KHTML, like Gecko) Chrome/85.0.4183.102 Safari/537.36",96,"[0.9, 0.5, 0.1]","[0.8, 0.4, 0.2]","[u'black', u'red', u'blue']","[u'left', u'middle', u'right']","[0.8, 0.4, 0.2]","[u'low', u'high', u'medium']","red",50,"middle","high","True","False",319,6450,NA
"A1KOBLL83SICGQ","Mon Sep 21 2020 13:12:24 GMT-0300 (Atlantic Daylight Time)","Mon Sep 21 2020 13:26:07 GMT-0300 (Atlantic Daylight Time)","Mozilla/5.0 (Windows NT 10.0; Win64; x64) AppleWebKit/537.36 (KHTML, like Gecko) Chrome/85.0.4183.102 Safari/537.36",97,"[0.9, 0.5, 0.1]","[0.8, 0.4, 0.2]","[u'black', u'red', u'blue']","[u'left', u'middle', u'right']","[0.8, 0.4, 0.2]","[u'low', u'high', u'medium']","red",50,"middle","high","True","False",287,6550,NA
"A1KOBLL83SICGQ","Mon Sep 21 2020 13:12:24 GMT-0300 (Atlantic Daylight Time)","Mon Sep 21 2020 13:26:07 GMT-0300 (Atlantic Daylight Time)","Mozilla/5.0 (Windows NT 10.0; Win64; x64) AppleWebKit/537.36 (KHTML, like Gecko) Chrome/85.0.4183.102 Safari/537.36",98,"[0.9, 0.5, 0.1]","[0.8, 0.4, 0.2]","[u'black', u'red', u'blue']","[u'left', u'middle', u'right']","[0.8, 0.4, 0.2]","[u'low', u'high', u'medium']","red",50,"middle","high","False","True",266,6500,NA
"A1KOBLL83SICGQ","Mon Sep 21 2020 13:12:24 GMT-0300 (Atlantic Daylight Time)","Mon Sep 21 2020 13:26:07 GMT-0300 (Atlantic Daylight Time)","Mozilla/5.0 (Windows NT 10.0; Win64; x64) AppleWebKit/537.36 (KHTML, like Gecko) Chrome/85.0.4183.102 Safari/537.36",99,"[0.9, 0.5, 0.1]","[0.8, 0.4, 0.2]","[u'black', u'red', u'blue']","[u'left', u'middle', u'right']","[0.8, 0.4, 0.2]","[u'high', u'medium', u'low']","black",49,"left","high","True","False",249,6600,NA
"A1KOBLL83SICGQ","Mon Sep 21 2020 13:12:24 GMT-0300 (Atlantic Daylight Time)","Mon Sep 21 2020 13:26:07 GMT-0300 (Atlantic Daylight Time)","Mozilla/5.0 (Windows NT 10.0; Win64; x64) AppleWebKit/537.36 (KHTML, like Gecko) Chrome/85.0.4183.102 Safari/537.36",100,"[0.9, 0.5, 0.1]","[0.8, 0.4, 0.2]","[u'black', u'red', u'blue']","[u'left', u'middle', u'right']","[0.8, 0.4, 0.2]","[u'high', u'medium', u'low']","black",49,"left","high","True","False",299,6700,NA
"A1KOBLL83SICGQ","Mon Sep 21 2020 13:12:24 GMT-0300 (Atlantic Daylight Time)","Mon Sep 21 2020 13:26:07 GMT-0300 (Atlantic Daylight Time)","Mozilla/5.0 (Windows NT 10.0; Win64; x64) AppleWebKit/537.36 (KHTML, like Gecko) Chrome/85.0.4183.102 Safari/537.36",101,"[0.9, 0.5, 0.1]","[0.8, 0.4, 0.2]","[u'black', u'red', u'blue']","[u'left', u'middle', u'right']","[0.8, 0.4, 0.2]","[u'high', u'medium', u'low']","black",49,"left","high","True","False",42,6800,NA
"A1KOBLL83SICGQ","Mon Sep 21 2020 13:12:24 GMT-0300 (Atlantic Daylight Time)","Mon Sep 21 2020 13:26:07 GMT-0300 (Atlantic Daylight Time)","Mozilla/5.0 (Windows NT 10.0; Win64; x64) AppleWebKit/537.36 (KHTML, like Gecko) Chrome/85.0.4183.102 Safari/537.36",102,"[0.9, 0.5, 0.1]","[0.8, 0.4, 0.2]","[u'black', u'red', u'blue']","[u'left', u'middle', u'right']","[0.8, 0.4, 0.2]","[u'high', u'medium', u'low']","black",49,"left","high","True","False",188,6900,NA
"A1KOBLL83SICGQ","Mon Sep 21 2020 13:12:24 GMT-0300 (Atlantic Daylight Time)","Mon Sep 21 2020 13:26:07 GMT-0300 (Atlantic Daylight Time)","Mozilla/5.0 (Windows NT 10.0; Win64; x64) AppleWebKit/537.36 (KHTML, like Gecko) Chrome/85.0.4183.102 Safari/537.36",103,"[0.9, 0.5, 0.1]","[0.8, 0.4, 0.2]","[u'black', u'red', u'blue']","[u'left', u'middle', u'right']","[0.8, 0.4, 0.2]","[u'high', u'medium', u'low']","black",49,"left","high","True","False",508,7000,NA
"A1KOBLL83SICGQ","Mon Sep 21 2020 13:12:24 GMT-0300 (Atlantic Daylight Time)","Mon Sep 21 2020 13:26:07 GMT-0300 (Atlantic Daylight Time)","Mozilla/5.0 (Windows NT 10.0; Win64; x64) AppleWebKit/537.36 (KHTML, like Gecko) Chrome/85.0.4183.102 Safari/537.36",104,"[0.9, 0.5, 0.1]","[0.8, 0.4, 0.2]","[u'black', u'red', u'blue']","[u'left', u'middle', u'right']","[0.8, 0.4, 0.2]","[u'high', u'medium', u'low']","black",49,"left","high","False","False",360,6950,NA
"A1KOBLL83SICGQ","Mon Sep 21 2020 13:12:24 GMT-0300 (Atlantic Daylight Time)","Mon Sep 21 2020 13:26:07 GMT-0300 (Atlantic Daylight Time)","Mozilla/5.0 (Windows NT 10.0; Win64; x64) AppleWebKit/537.36 (KHTML, like Gecko) Chrome/85.0.4183.102 Safari/537.36",105,"[0.9, 0.5, 0.1]","[0.8, 0.4, 0.2]","[u'black', u'red', u'blue']","[u'left', u'middle', u'right']","[0.8, 0.4, 0.2]","[u'high', u'medium', u'low']","blue",51,"right","low","False","False",200,6900,NA
"A1KOBLL83SICGQ","Mon Sep 21 2020 13:12:24 GMT-0300 (Atlantic Daylight Time)","Mon Sep 21 2020 13:26:07 GMT-0300 (Atlantic Daylight Time)","Mozilla/5.0 (Windows NT 10.0; Win64; x64) AppleWebKit/537.36 (KHTML, like Gecko) Chrome/85.0.4183.102 Safari/537.36",106,"[0.9, 0.5, 0.1]","[0.8, 0.4, 0.2]","[u'black', u'red', u'blue']","[u'left', u'middle', u'right']","[0.8, 0.4, 0.2]","[u'high', u'medium', u'low']","blue",51,"right","low","False","False",341,6850,NA
"A1KOBLL83SICGQ","Mon Sep 21 2020 13:12:24 GMT-0300 (Atlantic Daylight Time)","Mon Sep 21 2020 13:26:07 GMT-0300 (Atlantic Daylight Time)","Mozilla/5.0 (Windows NT 10.0; Win64; x64) AppleWebKit/537.36 (KHTML, like Gecko) Chrome/85.0.4183.102 Safari/537.36",107,"[0.9, 0.5, 0.1]","[0.8, 0.4, 0.2]","[u'black', u'red', u'blue']","[u'left', u'middle', u'right']","[0.8, 0.4, 0.2]","[u'high', u'medium', u'low']","blue",51,"right","low","True","False",237,6950,NA
"A1KOBLL83SICGQ","Mon Sep 21 2020 13:12:24 GMT-0300 (Atlantic Daylight Time)","Mon Sep 21 2020 13:26:07 GMT-0300 (Atlantic Daylight Time)","Mozilla/5.0 (Windows NT 10.0; Win64; x64) AppleWebKit/537.36 (KHTML, like Gecko) Chrome/85.0.4183.102 Safari/537.36",108,"[0.9, 0.5, 0.1]","[0.8, 0.4, 0.2]","[u'black', u'red', u'blue']","[u'left', u'middle', u'right']","[0.8, 0.4, 0.2]","[u'high', u'medium', u'low']","blue",51,"right","low","True","False",307,7050,NA
"A1KOBLL83SICGQ","Mon Sep 21 2020 13:12:24 GMT-0300 (Atlantic Daylight Time)","Mon Sep 21 2020 13:26:07 GMT-0300 (Atlantic Daylight Time)","Mozilla/5.0 (Windows NT 10.0; Win64; x64) AppleWebKit/537.36 (KHTML, like Gecko) Chrome/85.0.4183.102 Safari/537.36",109,"[0.9, 0.5, 0.1]","[0.8, 0.4, 0.2]","[u'black', u'red', u'blue']","[u'left', u'middle', u'right']","[0.8, 0.4, 0.2]","[u'high', u'medium', u'low']","blue",51,"right","low","False","False",299,7000,NA
"A1KOBLL83SICGQ","Mon Sep 21 2020 13:12:24 GMT-0300 (Atlantic Daylight Time)","Mon Sep 21 2020 13:26:07 GMT-0300 (Atlantic Daylight Time)","Mozilla/5.0 (Windows NT 10.0; Win64; x64) AppleWebKit/537.36 (KHTML, like Gecko) Chrome/85.0.4183.102 Safari/537.36",110,"[0.9, 0.5, 0.1]","[0.8, 0.4, 0.2]","[u'black', u'red', u'blue']","[u'left', u'middle', u'right']","[0.8, 0.4, 0.2]","[u'high', u'medium', u'low']","blue",51,"right","low","True","False",305,7100,NA
"A1KOBLL83SICGQ","Mon Sep 21 2020 13:12:24 GMT-0300 (Atlantic Daylight Time)","Mon Sep 21 2020 13:26:07 GMT-0300 (Atlantic Daylight Time)","Mozilla/5.0 (Windows NT 10.0; Win64; x64) AppleWebKit/537.36 (KHTML, like Gecko) Chrome/85.0.4183.102 Safari/537.36",111,"[0.9, 0.5, 0.1]","[0.8, 0.4, 0.2]","[u'black', u'red', u'blue']","[u'left', u'middle', u'right']","[0.8, 0.4, 0.2]","[u'high', u'medium', u'low']","blue",51,"right","low","False","False",313,7050,NA
"A1KOBLL83SICGQ","Mon Sep 21 2020 13:12:24 GMT-0300 (Atlantic Daylight Time)","Mon Sep 21 2020 13:26:07 GMT-0300 (Atlantic Daylight Time)","Mozilla/5.0 (Windows NT 10.0; Win64; x64) AppleWebKit/537.36 (KHTML, like Gecko) Chrome/85.0.4183.102 Safari/537.36",112,"[0.9, 0.5, 0.1]","[0.8, 0.4, 0.2]","[u'black', u'red', u'blue']","[u'left', u'middle', u'right']","[0.8, 0.4, 0.2]","[u'high', u'medium', u'low']","black",49,"left","high","True","False",197,7150,NA
"A1KOBLL83SICGQ","Mon Sep 21 2020 13:12:24 GMT-0300 (Atlantic Daylight Time)","Mon Sep 21 2020 13:26:07 GMT-0300 (Atlantic Daylight Time)","Mozilla/5.0 (Windows NT 10.0; Win64; x64) AppleWebKit/537.36 (KHTML, like Gecko) Chrome/85.0.4183.102 Safari/537.36",113,"[0.9, 0.5, 0.1]","[0.8, 0.4, 0.2]","[u'black', u'red', u'blue']","[u'left', u'middle', u'right']","[0.8, 0.4, 0.2]","[u'high', u'medium', u'low']","black",49,"left","high","False","False",292,7100,NA
"A1KOBLL83SICGQ","Mon Sep 21 2020 13:12:24 GMT-0300 (Atlantic Daylight Time)","Mon Sep 21 2020 13:26:07 GMT-0300 (Atlantic Daylight Time)","Mozilla/5.0 (Windows NT 10.0; Win64; x64) AppleWebKit/537.36 (KHTML, like Gecko) Chrome/85.0.4183.102 Safari/537.36",114,"[0.9, 0.5, 0.1]","[0.8, 0.4, 0.2]","[u'black', u'red', u'blue']","[u'left', u'middle', u'right']","[0.8, 0.4, 0.2]","[u'high', u'medium', u'low']","red",50,"middle","medium","True","False",110,7200,NA
"A1KOBLL83SICGQ","Mon Sep 21 2020 13:12:24 GMT-0300 (Atlantic Daylight Time)","Mon Sep 21 2020 13:26:07 GMT-0300 (Atlantic Daylight Time)","Mozilla/5.0 (Windows NT 10.0; Win64; x64) AppleWebKit/537.36 (KHTML, like Gecko) Chrome/85.0.4183.102 Safari/537.36",115,"[0.9, 0.5, 0.1]","[0.8, 0.4, 0.2]","[u'black', u'red', u'blue']","[u'left', u'middle', u'right']","[0.8, 0.4, 0.2]","[u'high', u'medium', u'low']","black",49,"left","high","True","False",171,7300,NA
"A1KOBLL83SICGQ","Mon Sep 21 2020 13:12:24 GMT-0300 (Atlantic Daylight Time)","Mon Sep 21 2020 13:26:07 GMT-0300 (Atlantic Daylight Time)","Mozilla/5.0 (Windows NT 10.0; Win64; x64) AppleWebKit/537.36 (KHTML, like Gecko) Chrome/85.0.4183.102 Safari/537.36",116,"[0.9, 0.5, 0.1]","[0.8, 0.4, 0.2]","[u'black', u'red', u'blue']","[u'left', u'middle', u'right']","[0.8, 0.4, 0.2]","[u'high', u'medium', u'low']","red",50,"middle","medium","False","False",216,7250,NA
"A1KOBLL83SICGQ","Mon Sep 21 2020 13:12:24 GMT-0300 (Atlantic Daylight Time)","Mon Sep 21 2020 13:26:07 GMT-0300 (Atlantic Daylight Time)","Mozilla/5.0 (Windows NT 10.0; Win64; x64) AppleWebKit/537.36 (KHTML, like Gecko) Chrome/85.0.4183.102 Safari/537.36",117,"[0.9, 0.5, 0.1]","[0.8, 0.4, 0.2]","[u'black', u'red', u'blue']","[u'left', u'middle', u'right']","[0.8, 0.4, 0.2]","[u'high', u'medium', u'low']","red",50,"middle","medium","False","False",199,7200,NA
"A1KOBLL83SICGQ","Mon Sep 21 2020 13:12:24 GMT-0300 (Atlantic Daylight Time)","Mon Sep 21 2020 13:26:07 GMT-0300 (Atlantic Daylight Time)","Mozilla/5.0 (Windows NT 10.0; Win64; x64) AppleWebKit/537.36 (KHTML, like Gecko) Chrome/85.0.4183.102 Safari/537.36",118,"[0.9, 0.5, 0.1]","[0.8, 0.4, 0.2]","[u'black', u'red', u'blue']","[u'left', u'middle', u'right']","[0.8, 0.4, 0.2]","[u'high', u'medium', u'low']","black",49,"left","high","False","False",31,7150,NA
"A1KOBLL83SICGQ","Mon Sep 21 2020 13:12:24 GMT-0300 (Atlantic Daylight Time)","Mon Sep 21 2020 13:26:07 GMT-0300 (Atlantic Daylight Time)","Mozilla/5.0 (Windows NT 10.0; Win64; x64) AppleWebKit/537.36 (KHTML, like Gecko) Chrome/85.0.4183.102 Safari/537.36",119,"[0.9, 0.5, 0.1]","[0.8, 0.4, 0.2]","[u'black', u'red', u'blue']","[u'left', u'middle', u'right']","[0.8, 0.4, 0.2]","[u'high', u'medium', u'low']","blue",51,"right","low","False","False",197,7100,NA
"A1KOBLL83SICGQ","Mon Sep 21 2020 13:12:24 GMT-0300 (Atlantic Daylight Time)","Mon Sep 21 2020 13:26:07 GMT-0300 (Atlantic Daylight Time)","Mozilla/5.0 (Windows NT 10.0; Win64; x64) AppleWebKit/537.36 (KHTML, like Gecko) Chrome/85.0.4183.102 Safari/537.36",120,"[0.9, 0.5, 0.1]","[0.8, 0.4, 0.2]","[u'black', u'red', u'blue']","[u'left', u'middle', u'right']","[0.8, 0.4, 0.2]","[u'high', u'medium', u'low']","red",50,"middle","medium","False","False",125,7050,NA
"A1KOBLL83SICGQ","Mon Sep 21 2020 13:12:24 GMT-0300 (Atlantic Daylight Time)","Mon Sep 21 2020 13:26:07 GMT-0300 (Atlantic Daylight Time)","Mozilla/5.0 (Windows NT 10.0; Win64; x64) AppleWebKit/537.36 (KHTML, like Gecko) Chrome/85.0.4183.102 Safari/537.36",121,"[0.9, 0.5, 0.1]","[0.8, 0.4, 0.2]","[u'black', u'red', u'blue']","[u'left', u'middle', u'right']","[0.8, 0.4, 0.2]","[u'medium', u'high', u'low']","black",49,"left","medium","False","False",649,7000,NA
"A1KOBLL83SICGQ","Mon Sep 21 2020 13:12:24 GMT-0300 (Atlantic Daylight Time)","Mon Sep 21 2020 13:26:07 GMT-0300 (Atlantic Daylight Time)","Mozilla/5.0 (Windows NT 10.0; Win64; x64) AppleWebKit/537.36 (KHTML, like Gecko) Chrome/85.0.4183.102 Safari/537.36",122,"[0.9, 0.5, 0.1]","[0.8, 0.4, 0.2]","[u'black', u'red', u'blue']","[u'left', u'middle', u'right']","[0.8, 0.4, 0.2]","[u'medium', u'high', u'low']","black",49,"left","medium","False","False",278,6950,NA
"A1KOBLL83SICGQ","Mon Sep 21 2020 13:12:24 GMT-0300 (Atlantic Daylight Time)","Mon Sep 21 2020 13:26:07 GMT-0300 (Atlantic Daylight Time)","Mozilla/5.0 (Windows NT 10.0; Win64; x64) AppleWebKit/537.36 (KHTML, like Gecko) Chrome/85.0.4183.102 Safari/537.36",123,"[0.9, 0.5, 0.1]","[0.8, 0.4, 0.2]","[u'black', u'red', u'blue']","[u'left', u'middle', u'right']","[0.8, 0.4, 0.2]","[u'medium', u'high', u'low']","black",49,"left","medium","False","False",266,6900,NA
"A1KOBLL83SICGQ","Mon Sep 21 2020 13:12:24 GMT-0300 (Atlantic Daylight Time)","Mon Sep 21 2020 13:26:07 GMT-0300 (Atlantic Daylight Time)","Mozilla/5.0 (Windows NT 10.0; Win64; x64) AppleWebKit/537.36 (KHTML, like Gecko) Chrome/85.0.4183.102 Safari/537.36",124,"[0.9, 0.5, 0.1]","[0.8, 0.4, 0.2]","[u'black', u'red', u'blue']","[u'left', u'middle', u'right']","[0.8, 0.4, 0.2]","[u'medium', u'high', u'low']","red",50,"middle","high","True","False",492,7000,NA
"A1KOBLL83SICGQ","Mon Sep 21 2020 13:12:24 GMT-0300 (Atlantic Daylight Time)","Mon Sep 21 2020 13:26:07 GMT-0300 (Atlantic Daylight Time)","Mozilla/5.0 (Windows NT 10.0; Win64; x64) AppleWebKit/537.36 (KHTML, like Gecko) Chrome/85.0.4183.102 Safari/537.36",125,"[0.9, 0.5, 0.1]","[0.8, 0.4, 0.2]","[u'black', u'red', u'blue']","[u'left', u'middle', u'right']","[0.8, 0.4, 0.2]","[u'medium', u'high', u'low']","red",50,"middle","high","True","False",255,7100,NA
"A1KOBLL83SICGQ","Mon Sep 21 2020 13:12:24 GMT-0300 (Atlantic Daylight Time)","Mon Sep 21 2020 13:26:07 GMT-0300 (Atlantic Daylight Time)","Mozilla/5.0 (Windows NT 10.0; Win64; x64) AppleWebKit/537.36 (KHTML, like Gecko) Chrome/85.0.4183.102 Safari/537.36",126,"[0.9, 0.5, 0.1]","[0.8, 0.4, 0.2]","[u'black', u'red', u'blue']","[u'left', u'middle', u'right']","[0.8, 0.4, 0.2]","[u'medium', u'high', u'low']","red",50,"middle","high","True","False",252,7200,NA
"A1KOBLL83SICGQ","Mon Sep 21 2020 13:12:24 GMT-0300 (Atlantic Daylight Time)","Mon Sep 21 2020 13:26:07 GMT-0300 (Atlantic Daylight Time)","Mozilla/5.0 (Windows NT 10.0; Win64; x64) AppleWebKit/537.36 (KHTML, like Gecko) Chrome/85.0.4183.102 Safari/537.36",127,"[0.9, 0.5, 0.1]","[0.8, 0.4, 0.2]","[u'black', u'red', u'blue']","[u'left', u'middle', u'right']","[0.8, 0.4, 0.2]","[u'medium', u'high', u'low']","red",50,"middle","high","False","False",195,7150,NA
"A1KOBLL83SICGQ","Mon Sep 21 2020 13:12:24 GMT-0300 (Atlantic Daylight Time)","Mon Sep 21 2020 13:26:07 GMT-0300 (Atlantic Daylight Time)","Mozilla/5.0 (Windows NT 10.0; Win64; x64) AppleWebKit/537.36 (KHTML, like Gecko) Chrome/85.0.4183.102 Safari/537.36",128,"[0.9, 0.5, 0.1]","[0.8, 0.4, 0.2]","[u'black', u'red', u'blue']","[u'left', u'middle', u'right']","[0.8, 0.4, 0.2]","[u'medium', u'high', u'low']","blue",51,"right","low","False","False",392,7100,NA
"A1KOBLL83SICGQ","Mon Sep 21 2020 13:12:24 GMT-0300 (Atlantic Daylight Time)","Mon Sep 21 2020 13:26:07 GMT-0300 (Atlantic Daylight Time)","Mozilla/5.0 (Windows NT 10.0; Win64; x64) AppleWebKit/537.36 (KHTML, like Gecko) Chrome/85.0.4183.102 Safari/537.36",129,"[0.9, 0.5, 0.1]","[0.8, 0.4, 0.2]","[u'black', u'red', u'blue']","[u'left', u'middle', u'right']","[0.8, 0.4, 0.2]","[u'medium', u'high', u'low']","red",50,"middle","high","True","False",223,7200,NA
"A1KOBLL83SICGQ","Mon Sep 21 2020 13:12:24 GMT-0300 (Atlantic Daylight Time)","Mon Sep 21 2020 13:26:07 GMT-0300 (Atlantic Daylight Time)","Mozilla/5.0 (Windows NT 10.0; Win64; x64) AppleWebKit/537.36 (KHTML, like Gecko) Chrome/85.0.4183.102 Safari/537.36",130,"[0.9, 0.5, 0.1]","[0.8, 0.4, 0.2]","[u'black', u'red', u'blue']","[u'left', u'middle', u'right']","[0.8, 0.4, 0.2]","[u'medium', u'high', u'low']","red",50,"middle","high","True","False",249,7300,NA
"A1KOBLL83SICGQ","Mon Sep 21 2020 13:12:24 GMT-0300 (Atlantic Daylight Time)","Mon Sep 21 2020 13:26:07 GMT-0300 (Atlantic Daylight Time)","Mozilla/5.0 (Windows NT 10.0; Win64; x64) AppleWebKit/537.36 (KHTML, like Gecko) Chrome/85.0.4183.102 Safari/537.36",131,"[0.9, 0.5, 0.1]","[0.8, 0.4, 0.2]","[u'black', u'red', u'blue']","[u'left', u'middle', u'right']","[0.8, 0.4, 0.2]","[u'medium', u'high', u'low']","red",50,"middle","high","True","False",225,7400,NA
"A1KOBLL83SICGQ","Mon Sep 21 2020 13:12:24 GMT-0300 (Atlantic Daylight Time)","Mon Sep 21 2020 13:26:07 GMT-0300 (Atlantic Daylight Time)","Mozilla/5.0 (Windows NT 10.0; Win64; x64) AppleWebKit/537.36 (KHTML, like Gecko) Chrome/85.0.4183.102 Safari/537.36",132,"[0.9, 0.5, 0.1]","[0.8, 0.4, 0.2]","[u'black', u'red', u'blue']","[u'left', u'middle', u'right']","[0.8, 0.4, 0.2]","[u'medium', u'high', u'low']","red",50,"middle","high","True","False",161,7500,NA
"A1KOBLL83SICGQ","Mon Sep 21 2020 13:12:24 GMT-0300 (Atlantic Daylight Time)","Mon Sep 21 2020 13:26:07 GMT-0300 (Atlantic Daylight Time)","Mozilla/5.0 (Windows NT 10.0; Win64; x64) AppleWebKit/537.36 (KHTML, like Gecko) Chrome/85.0.4183.102 Safari/537.36",133,"[0.9, 0.5, 0.1]","[0.8, 0.4, 0.2]","[u'black', u'red', u'blue']","[u'left', u'middle', u'right']","[0.8, 0.4, 0.2]","[u'medium', u'high', u'low']","red",50,"middle","high","True","True",228,7600,NA
"A1KOBLL83SICGQ","Mon Sep 21 2020 13:12:24 GMT-0300 (Atlantic Daylight Time)","Mon Sep 21 2020 13:26:07 GMT-0300 (Atlantic Daylight Time)","Mozilla/5.0 (Windows NT 10.0; Win64; x64) AppleWebKit/537.36 (KHTML, like Gecko) Chrome/85.0.4183.102 Safari/537.36",134,"[0.9, 0.5, 0.1]","[0.8, 0.4, 0.2]","[u'black', u'red', u'blue']","[u'left', u'middle', u'right']","[0.8, 0.4, 0.2]","[u'low', u'medium', u'high']","red",50,"middle","medium","False","False",296,7550,NA
"A1KOBLL83SICGQ","Mon Sep 21 2020 13:12:24 GMT-0300 (Atlantic Daylight Time)","Mon Sep 21 2020 13:26:07 GMT-0300 (Atlantic Daylight Time)","Mozilla/5.0 (Windows NT 10.0; Win64; x64) AppleWebKit/537.36 (KHTML, like Gecko) Chrome/85.0.4183.102 Safari/537.36",135,"[0.9, 0.5, 0.1]","[0.8, 0.4, 0.2]","[u'black', u'red', u'blue']","[u'left', u'middle', u'right']","[0.8, 0.4, 0.2]","[u'low', u'medium', u'high']","red",50,"middle","medium","False","False",193,7500,NA
"A1KOBLL83SICGQ","Mon Sep 21 2020 13:12:24 GMT-0300 (Atlantic Daylight Time)","Mon Sep 21 2020 13:26:07 GMT-0300 (Atlantic Daylight Time)","Mozilla/5.0 (Windows NT 10.0; Win64; x64) AppleWebKit/537.36 (KHTML, like Gecko) Chrome/85.0.4183.102 Safari/537.36",136,"[0.9, 0.5, 0.1]","[0.8, 0.4, 0.2]","[u'black', u'red', u'blue']","[u'left', u'middle', u'right']","[0.8, 0.4, 0.2]","[u'low', u'medium', u'high']","black",49,"left","low","False","False",412,7450,NA
"A1KOBLL83SICGQ","Mon Sep 21 2020 13:12:24 GMT-0300 (Atlantic Daylight Time)","Mon Sep 21 2020 13:26:07 GMT-0300 (Atlantic Daylight Time)","Mozilla/5.0 (Windows NT 10.0; Win64; x64) AppleWebKit/537.36 (KHTML, like Gecko) Chrome/85.0.4183.102 Safari/537.36",137,"[0.9, 0.5, 0.1]","[0.8, 0.4, 0.2]","[u'black', u'red', u'blue']","[u'left', u'middle', u'right']","[0.8, 0.4, 0.2]","[u'low', u'medium', u'high']","red",50,"middle","medium","False","False",202,7400,NA
"A1KOBLL83SICGQ","Mon Sep 21 2020 13:12:24 GMT-0300 (Atlantic Daylight Time)","Mon Sep 21 2020 13:26:07 GMT-0300 (Atlantic Daylight Time)","Mozilla/5.0 (Windows NT 10.0; Win64; x64) AppleWebKit/537.36 (KHTML, like Gecko) Chrome/85.0.4183.102 Safari/537.36",138,"[0.9, 0.5, 0.1]","[0.8, 0.4, 0.2]","[u'black', u'red', u'blue']","[u'left', u'middle', u'right']","[0.8, 0.4, 0.2]","[u'low', u'medium', u'high']","black",49,"left","low","False","False",194,7350,NA
"A1KOBLL83SICGQ","Mon Sep 21 2020 13:12:24 GMT-0300 (Atlantic Daylight Time)","Mon Sep 21 2020 13:26:07 GMT-0300 (Atlantic Daylight Time)","Mozilla/5.0 (Windows NT 10.0; Win64; x64) AppleWebKit/537.36 (KHTML, like Gecko) Chrome/85.0.4183.102 Safari/537.36",139,"[0.9, 0.5, 0.1]","[0.8, 0.4, 0.2]","[u'black', u'red', u'blue']","[u'left', u'middle', u'right']","[0.8, 0.4, 0.2]","[u'low', u'medium', u'high']","black",49,"left","low","False","False",196,7300,NA
"A1KOBLL83SICGQ","Mon Sep 21 2020 13:12:24 GMT-0300 (Atlantic Daylight Time)","Mon Sep 21 2020 13:26:07 GMT-0300 (Atlantic Daylight Time)","Mozilla/5.0 (Windows NT 10.0; Win64; x64) AppleWebKit/537.36 (KHTML, like Gecko) Chrome/85.0.4183.102 Safari/537.36",140,"[0.9, 0.5, 0.1]","[0.8, 0.4, 0.2]","[u'black', u'red', u'blue']","[u'left', u'middle', u'right']","[0.8, 0.4, 0.2]","[u'low', u'medium', u'high']","black",49,"left","low","False","False",265,7250,NA
"A1KOBLL83SICGQ","Mon Sep 21 2020 13:12:24 GMT-0300 (Atlantic Daylight Time)","Mon Sep 21 2020 13:26:07 GMT-0300 (Atlantic Daylight Time)","Mozilla/5.0 (Windows NT 10.0; Win64; x64) AppleWebKit/537.36 (KHTML, like Gecko) Chrome/85.0.4183.102 Safari/537.36",141,"[0.9, 0.5, 0.1]","[0.8, 0.4, 0.2]","[u'black', u'red', u'blue']","[u'left', u'middle', u'right']","[0.8, 0.4, 0.2]","[u'low', u'medium', u'high']","blue",51,"right","high","True","False",236,7350,NA
"A1KOBLL83SICGQ","Mon Sep 21 2020 13:12:24 GMT-0300 (Atlantic Daylight Time)","Mon Sep 21 2020 13:26:07 GMT-0300 (Atlantic Daylight Time)","Mozilla/5.0 (Windows NT 10.0; Win64; x64) AppleWebKit/537.36 (KHTML, like Gecko) Chrome/85.0.4183.102 Safari/537.36",142,"[0.9, 0.5, 0.1]","[0.8, 0.4, 0.2]","[u'black', u'red', u'blue']","[u'left', u'middle', u'right']","[0.8, 0.4, 0.2]","[u'low', u'medium', u'high']","blue",51,"right","high","True","False",180,7450,NA
"A1KOBLL83SICGQ","Mon Sep 21 2020 13:12:24 GMT-0300 (Atlantic Daylight Time)","Mon Sep 21 2020 13:26:07 GMT-0300 (Atlantic Daylight Time)","Mozilla/5.0 (Windows NT 10.0; Win64; x64) AppleWebKit/537.36 (KHTML, like Gecko) Chrome/85.0.4183.102 Safari/537.36",143,"[0.9, 0.5, 0.1]","[0.8, 0.4, 0.2]","[u'black', u'red', u'blue']","[u'left', u'middle', u'right']","[0.8, 0.4, 0.2]","[u'low', u'medium', u'high']","blue",51,"right","high","True","False",229,7550,NA
"A1KOBLL83SICGQ","Mon Sep 21 2020 13:12:24 GMT-0300 (Atlantic Daylight Time)","Mon Sep 21 2020 13:26:07 GMT-0300 (Atlantic Daylight Time)","Mozilla/5.0 (Windows NT 10.0; Win64; x64) AppleWebKit/537.36 (KHTML, like Gecko) Chrome/85.0.4183.102 Safari/537.36",144,"[0.9, 0.5, 0.1]","[0.8, 0.4, 0.2]","[u'black', u'red', u'blue']","[u'left', u'middle', u'right']","[0.8, 0.4, 0.2]","[u'low', u'medium', u'high']","blue",51,"right","high","True","False",267,7650,NA
"A1KOBLL83SICGQ","Mon Sep 21 2020 13:12:24 GMT-0300 (Atlantic Daylight Time)","Mon Sep 21 2020 13:26:07 GMT-0300 (Atlantic Daylight Time)","Mozilla/5.0 (Windows NT 10.0; Win64; x64) AppleWebKit/537.36 (KHTML, like Gecko) Chrome/85.0.4183.102 Safari/537.36",145,"[0.9, 0.5, 0.1]","[0.8, 0.4, 0.2]","[u'black', u'red', u'blue']","[u'left', u'middle', u'right']","[0.8, 0.4, 0.2]","[u'low', u'medium', u'high']","blue",51,"right","high","True","False",232,7750,NA
"A1KOBLL83SICGQ","Mon Sep 21 2020 13:12:24 GMT-0300 (Atlantic Daylight Time)","Mon Sep 21 2020 13:26:07 GMT-0300 (Atlantic Daylight Time)","Mozilla/5.0 (Windows NT 10.0; Win64; x64) AppleWebKit/537.36 (KHTML, like Gecko) Chrome/85.0.4183.102 Safari/537.36",146,"[0.9, 0.5, 0.1]","[0.8, 0.4, 0.2]","[u'black', u'red', u'blue']","[u'left', u'middle', u'right']","[0.8, 0.4, 0.2]","[u'low', u'medium', u'high']","blue",51,"right","high","True","False",265,7850,NA
"A1KOBLL83SICGQ","Mon Sep 21 2020 13:12:24 GMT-0300 (Atlantic Daylight Time)","Mon Sep 21 2020 13:26:07 GMT-0300 (Atlantic Daylight Time)","Mozilla/5.0 (Windows NT 10.0; Win64; x64) AppleWebKit/537.36 (KHTML, like Gecko) Chrome/85.0.4183.102 Safari/537.36",147,"[0.9, 0.5, 0.1]","[0.8, 0.4, 0.2]","[u'black', u'red', u'blue']","[u'left', u'middle', u'right']","[0.8, 0.4, 0.2]","[u'low', u'medium', u'high']","blue",51,"right","high","True","False",274,7950,NA
"A1KOBLL83SICGQ","Mon Sep 21 2020 13:12:24 GMT-0300 (Atlantic Daylight Time)","Mon Sep 21 2020 13:26:07 GMT-0300 (Atlantic Daylight Time)","Mozilla/5.0 (Windows NT 10.0; Win64; x64) AppleWebKit/537.36 (KHTML, like Gecko) Chrome/85.0.4183.102 Safari/537.36",148,"[0.9, 0.5, 0.1]","[0.8, 0.4, 0.2]","[u'black', u'red', u'blue']","[u'left', u'middle', u'right']","[0.8, 0.4, 0.2]","[u'low', u'medium', u'high']","blue",51,"right","high","True","False",237,8050,NA
"A1KOBLL83SICGQ","Mon Sep 21 2020 13:12:24 GMT-0300 (Atlantic Daylight Time)","Mon Sep 21 2020 13:26:07 GMT-0300 (Atlantic Daylight Time)","Mozilla/5.0 (Windows NT 10.0; Win64; x64) AppleWebKit/537.36 (KHTML, like Gecko) Chrome/85.0.4183.102 Safari/537.36",149,"[0.9, 0.5, 0.1]","[0.8, 0.4, 0.2]","[u'black', u'red', u'blue']","[u'left', u'middle', u'right']","[0.8, 0.4, 0.2]","[u'low', u'medium', u'high']","blue",51,"right","high","True","True",242,8150,NA
"A1KOBLL83SICGQ","Mon Sep 21 2020 13:12:24 GMT-0300 (Atlantic Daylight Time)","Mon Sep 21 2020 13:26:07 GMT-0300 (Atlantic Daylight Time)","Mozilla/5.0 (Windows NT 10.0; Win64; x64) AppleWebKit/537.36 (KHTML, like Gecko) Chrome/85.0.4183.102 Safari/537.36",150,"[0.9, 0.5, 0.1]","[0.8, 0.4, 0.2]","[u'black', u'red', u'blue']","[u'left', u'middle', u'right']","[0.8, 0.4, 0.2]","[u'low', u'high', u'medium']","blue",51,"right","medium","False","False",288,8100,NA
"A1KOBLL83SICGQ","Mon Sep 21 2020 13:12:24 GMT-0300 (Atlantic Daylight Time)","Mon Sep 21 2020 13:26:07 GMT-0300 (Atlantic Daylight Time)","Mozilla/5.0 (Windows NT 10.0; Win64; x64) AppleWebKit/537.36 (KHTML, like Gecko) Chrome/85.0.4183.102 Safari/537.36",151,"[0.9, 0.5, 0.1]","[0.8, 0.4, 0.2]","[u'black', u'red', u'blue']","[u'left', u'middle', u'right']","[0.8, 0.4, 0.2]","[u'low', u'high', u'medium']","blue",51,"right","medium","False","False",204,8050,NA
"A1KOBLL83SICGQ","Mon Sep 21 2020 13:12:24 GMT-0300 (Atlantic Daylight Time)","Mon Sep 21 2020 13:26:07 GMT-0300 (Atlantic Daylight Time)","Mozilla/5.0 (Windows NT 10.0; Win64; x64) AppleWebKit/537.36 (KHTML, like Gecko) Chrome/85.0.4183.102 Safari/537.36",152,"[0.9, 0.5, 0.1]","[0.8, 0.4, 0.2]","[u'black', u'red', u'blue']","[u'left', u'middle', u'right']","[0.8, 0.4, 0.2]","[u'low', u'high', u'medium']","red",50,"middle","high","False","False",189,8000,NA
"A1KOBLL83SICGQ","Mon Sep 21 2020 13:12:24 GMT-0300 (Atlantic Daylight Time)","Mon Sep 21 2020 13:26:07 GMT-0300 (Atlantic Daylight Time)","Mozilla/5.0 (Windows NT 10.0; Win64; x64) AppleWebKit/537.36 (KHTML, like Gecko) Chrome/85.0.4183.102 Safari/537.36",153,"[0.9, 0.5, 0.1]","[0.8, 0.4, 0.2]","[u'black', u'red', u'blue']","[u'left', u'middle', u'right']","[0.8, 0.4, 0.2]","[u'low', u'high', u'medium']","blue",51,"right","medium","False","False",148,7950,NA
"A1KOBLL83SICGQ","Mon Sep 21 2020 13:12:24 GMT-0300 (Atlantic Daylight Time)","Mon Sep 21 2020 13:26:07 GMT-0300 (Atlantic Daylight Time)","Mozilla/5.0 (Windows NT 10.0; Win64; x64) AppleWebKit/537.36 (KHTML, like Gecko) Chrome/85.0.4183.102 Safari/537.36",154,"[0.9, 0.5, 0.1]","[0.8, 0.4, 0.2]","[u'black', u'red', u'blue']","[u'left', u'middle', u'right']","[0.8, 0.4, 0.2]","[u'low', u'high', u'medium']","red",50,"middle","high","True","False",232,8050,NA
"A1KOBLL83SICGQ","Mon Sep 21 2020 13:12:24 GMT-0300 (Atlantic Daylight Time)","Mon Sep 21 2020 13:26:07 GMT-0300 (Atlantic Daylight Time)","Mozilla/5.0 (Windows NT 10.0; Win64; x64) AppleWebKit/537.36 (KHTML, like Gecko) Chrome/85.0.4183.102 Safari/537.36",155,"[0.9, 0.5, 0.1]","[0.8, 0.4, 0.2]","[u'black', u'red', u'blue']","[u'left', u'middle', u'right']","[0.8, 0.4, 0.2]","[u'low', u'high', u'medium']","red",50,"middle","high","True","False",241,8150,NA
"A1KOBLL83SICGQ","Mon Sep 21 2020 13:12:24 GMT-0300 (Atlantic Daylight Time)","Mon Sep 21 2020 13:26:07 GMT-0300 (Atlantic Daylight Time)","Mozilla/5.0 (Windows NT 10.0; Win64; x64) AppleWebKit/537.36 (KHTML, like Gecko) Chrome/85.0.4183.102 Safari/537.36",156,"[0.9, 0.5, 0.1]","[0.8, 0.4, 0.2]","[u'black', u'red', u'blue']","[u'left', u'middle', u'right']","[0.8, 0.4, 0.2]","[u'low', u'high', u'medium']","red",50,"middle","high","True","False",161,8250,NA
"A1KOBLL83SICGQ","Mon Sep 21 2020 13:12:24 GMT-0300 (Atlantic Daylight Time)","Mon Sep 21 2020 13:26:07 GMT-0300 (Atlantic Daylight Time)","Mozilla/5.0 (Windows NT 10.0; Win64; x64) AppleWebKit/537.36 (KHTML, like Gecko) Chrome/85.0.4183.102 Safari/537.36",157,"[0.9, 0.5, 0.1]","[0.8, 0.4, 0.2]","[u'black', u'red', u'blue']","[u'left', u'middle', u'right']","[0.8, 0.4, 0.2]","[u'low', u'high', u'medium']","red",50,"middle","high","True","False",240,8350,NA
"A1KOBLL83SICGQ","Mon Sep 21 2020 13:12:24 GMT-0300 (Atlantic Daylight Time)","Mon Sep 21 2020 13:26:07 GMT-0300 (Atlantic Daylight Time)","Mozilla/5.0 (Windows NT 10.0; Win64; x64) AppleWebKit/537.36 (KHTML, like Gecko) Chrome/85.0.4183.102 Safari/537.36",158,"[0.9, 0.5, 0.1]","[0.8, 0.4, 0.2]","[u'black', u'red', u'blue']","[u'left', u'middle', u'right']","[0.8, 0.4, 0.2]","[u'low', u'high', u'medium']","red",50,"middle","high","True","False",279,8450,NA
"A1KOBLL83SICGQ","Mon Sep 21 2020 13:12:24 GMT-0300 (Atlantic Daylight Time)","Mon Sep 21 2020 13:26:07 GMT-0300 (Atlantic Daylight Time)","Mozilla/5.0 (Windows NT 10.0; Win64; x64) AppleWebKit/537.36 (KHTML, like Gecko) Chrome/85.0.4183.102 Safari/537.36",159,"[0.9, 0.5, 0.1]","[0.8, 0.4, 0.2]","[u'black', u'red', u'blue']","[u'left', u'middle', u'right']","[0.8, 0.4, 0.2]","[u'low', u'high', u'medium']","red",50,"middle","high","True","False",300,8550,NA
"A1KOBLL83SICGQ","Mon Sep 21 2020 13:12:24 GMT-0300 (Atlantic Daylight Time)","Mon Sep 21 2020 13:26:07 GMT-0300 (Atlantic Daylight Time)","Mozilla/5.0 (Windows NT 10.0; Win64; x64) AppleWebKit/537.36 (KHTML, like Gecko) Chrome/85.0.4183.102 Safari/537.36",160,"[0.9, 0.5, 0.1]","[0.8, 0.4, 0.2]","[u'black', u'red', u'blue']","[u'left', u'middle', u'right']","[0.8, 0.4, 0.2]","[u'low', u'high', u'medium']","red",50,"middle","high","True","False",250,8650,NA
