"src_subject_id","start_time","end_time","browser","index","first_half_probabilities","second_half_probabilities","deck_color","deck_position","deck_probabilities","deck_contingencies","response_color","key_press","response_position","response_probability","reward_type","trial_type","rt","reward_tally","exclusion_reason"
"A150GMV1YQWWB3","Wed Jan 29 2020 08:25:40 GMT-0500 (Eastern Standard Time)","Wed Jan 29 2020 08:34:16 GMT-0500 (Eastern Standard Time)","Mozilla/5.0 (Macintosh; Intel Mac OS X 10_13_6) AppleWebKit/537.36 (KHTML, like Gecko) Chrome/79.0.3945.130 Safari/537.36",1,"[0.9, 0.5, 0.1]","[0.8, 0.4, 0.2]","[u'black', u'red', u'blue']","[u'left', u'middle', u'right']","[0.9, 0.5, 0.1]","[u'medium', u'high', u'low']","blue",51,"right","low","False","False",2565,-50,NA
"A150GMV1YQWWB3","Wed Jan 29 2020 08:25:40 GMT-0500 (Eastern Standard Time)","Wed Jan 29 2020 08:34:16 GMT-0500 (Eastern Standard Time)","Mozilla/5.0 (Macintosh; Intel Mac OS X 10_13_6) AppleWebKit/537.36 (KHTML, like Gecko) Chrome/79.0.3945.130 Safari/537.36",2,"[0.9, 0.5, 0.1]","[0.8, 0.4, 0.2]","[u'black', u'red', u'blue']","[u'left', u'middle', u'right']","[0.9, 0.5, 0.1]","[u'medium', u'high', u'low']","black",49,"left","medium","False","False",410,-100,NA
"A150GMV1YQWWB3","Wed Jan 29 2020 08:25:40 GMT-0500 (Eastern Standard Time)","Wed Jan 29 2020 08:34:16 GMT-0500 (Eastern Standard Time)","Mozilla/5.0 (Macintosh; Intel Mac OS X 10_13_6) AppleWebKit/537.36 (KHTML, like Gecko) Chrome/79.0.3945.130 Safari/537.36",3,"[0.9, 0.5, 0.1]","[0.8, 0.4, 0.2]","[u'black', u'red', u'blue']","[u'left', u'middle', u'right']","[0.9, 0.5, 0.1]","[u'medium', u'high', u'low']","red",50,"middle","high","True","False",534,0,NA
"A150GMV1YQWWB3","Wed Jan 29 2020 08:25:40 GMT-0500 (Eastern Standard Time)","Wed Jan 29 2020 08:34:16 GMT-0500 (Eastern Standard Time)","Mozilla/5.0 (Macintosh; Intel Mac OS X 10_13_6) AppleWebKit/537.36 (KHTML, like Gecko) Chrome/79.0.3945.130 Safari/537.36",4,"[0.9, 0.5, 0.1]","[0.8, 0.4, 0.2]","[u'black', u'red', u'blue']","[u'left', u'middle', u'right']","[0.9, 0.5, 0.1]","[u'medium', u'high', u'low']","red",50,"middle","high","True","False",313,100,NA
"A150GMV1YQWWB3","Wed Jan 29 2020 08:25:40 GMT-0500 (Eastern Standard Time)","Wed Jan 29 2020 08:34:16 GMT-0500 (Eastern Standard Time)","Mozilla/5.0 (Macintosh; Intel Mac OS X 10_13_6) AppleWebKit/537.36 (KHTML, like Gecko) Chrome/79.0.3945.130 Safari/537.36",5,"[0.9, 0.5, 0.1]","[0.8, 0.4, 0.2]","[u'black', u'red', u'blue']","[u'left', u'middle', u'right']","[0.9, 0.5, 0.1]","[u'medium', u'high', u'low']","red",50,"middle","high","True","False",313,200,NA
"A150GMV1YQWWB3","Wed Jan 29 2020 08:25:40 GMT-0500 (Eastern Standard Time)","Wed Jan 29 2020 08:34:16 GMT-0500 (Eastern Standard Time)","Mozilla/5.0 (Macintosh; Intel Mac OS X 10_13_6) AppleWebKit/537.36 (KHTML, like Gecko) Chrome/79.0.3945.130 Safari/537.36",6,"[0.9, 0.5, 0.1]","[0.8, 0.4, 0.2]","[u'black', u'red', u'blue']","[u'left', u'middle', u'right']","[0.9, 0.5, 0.1]","[u'medium', u'high', u'low']","red",50,"middle","high","False","False",314,150,NA
"A150GMV1YQWWB3","Wed Jan 29 2020 08:25:40 GMT-0500 (Eastern Standard Time)","Wed Jan 29 2020 08:34:16 GMT-0500 (Eastern Standard Time)","Mozilla/5.0 (Macintosh; Intel Mac OS X 10_13_6) AppleWebKit/537.36 (KHTML, like Gecko) Chrome/79.0.3945.130 Safari/537.36",7,"[0.9, 0.5, 0.1]","[0.8, 0.4, 0.2]","[u'black', u'red', u'blue']","[u'left', u'middle', u'right']","[0.9, 0.5, 0.1]","[u'medium', u'high', u'low']","blue",51,"right","low","True","False",9,250,NA
"A150GMV1YQWWB3","Wed Jan 29 2020 08:25:40 GMT-0500 (Eastern Standard Time)","Wed Jan 29 2020 08:34:16 GMT-0500 (Eastern Standard Time)","Mozilla/5.0 (Macintosh; Intel Mac OS X 10_13_6) AppleWebKit/537.36 (KHTML, like Gecko) Chrome/79.0.3945.130 Safari/537.36",8,"[0.9, 0.5, 0.1]","[0.8, 0.4, 0.2]","[u'black', u'red', u'blue']","[u'left', u'middle', u'right']","[0.9, 0.5, 0.1]","[u'medium', u'high', u'low']","blue",51,"right","low","False","False",304,200,NA
"A150GMV1YQWWB3","Wed Jan 29 2020 08:25:40 GMT-0500 (Eastern Standard Time)","Wed Jan 29 2020 08:34:16 GMT-0500 (Eastern Standard Time)","Mozilla/5.0 (Macintosh; Intel Mac OS X 10_13_6) AppleWebKit/537.36 (KHTML, like Gecko) Chrome/79.0.3945.130 Safari/537.36",9,"[0.9, 0.5, 0.1]","[0.8, 0.4, 0.2]","[u'black', u'red', u'blue']","[u'left', u'middle', u'right']","[0.9, 0.5, 0.1]","[u'medium', u'high', u'low']","black",49,"left","medium","False","False",314,150,NA
"A150GMV1YQWWB3","Wed Jan 29 2020 08:25:40 GMT-0500 (Eastern Standard Time)","Wed Jan 29 2020 08:34:16 GMT-0500 (Eastern Standard Time)","Mozilla/5.0 (Macintosh; Intel Mac OS X 10_13_6) AppleWebKit/537.36 (KHTML, like Gecko) Chrome/79.0.3945.130 Safari/537.36",10,"[0.9, 0.5, 0.1]","[0.8, 0.4, 0.2]","[u'black', u'red', u'blue']","[u'left', u'middle', u'right']","[0.9, 0.5, 0.1]","[u'medium', u'high', u'low']","red",50,"middle","high","True","False",245,250,NA
"A150GMV1YQWWB3","Wed Jan 29 2020 08:25:40 GMT-0500 (Eastern Standard Time)","Wed Jan 29 2020 08:34:16 GMT-0500 (Eastern Standard Time)","Mozilla/5.0 (Macintosh; Intel Mac OS X 10_13_6) AppleWebKit/537.36 (KHTML, like Gecko) Chrome/79.0.3945.130 Safari/537.36",11,"[0.9, 0.5, 0.1]","[0.8, 0.4, 0.2]","[u'black', u'red', u'blue']","[u'left', u'middle', u'right']","[0.9, 0.5, 0.1]","[u'medium', u'high', u'low']","red",50,"middle","high","True","False",211,350,NA
"A150GMV1YQWWB3","Wed Jan 29 2020 08:25:40 GMT-0500 (Eastern Standard Time)","Wed Jan 29 2020 08:34:16 GMT-0500 (Eastern Standard Time)","Mozilla/5.0 (Macintosh; Intel Mac OS X 10_13_6) AppleWebKit/537.36 (KHTML, like Gecko) Chrome/79.0.3945.130 Safari/537.36",12,"[0.9, 0.5, 0.1]","[0.8, 0.4, 0.2]","[u'black', u'red', u'blue']","[u'left', u'middle', u'right']","[0.9, 0.5, 0.1]","[u'medium', u'high', u'low']","red",50,"middle","high","True","False",4,450,NA
"A150GMV1YQWWB3","Wed Jan 29 2020 08:25:40 GMT-0500 (Eastern Standard Time)","Wed Jan 29 2020 08:34:16 GMT-0500 (Eastern Standard Time)","Mozilla/5.0 (Macintosh; Intel Mac OS X 10_13_6) AppleWebKit/537.36 (KHTML, like Gecko) Chrome/79.0.3945.130 Safari/537.36",13,"[0.9, 0.5, 0.1]","[0.8, 0.4, 0.2]","[u'black', u'red', u'blue']","[u'left', u'middle', u'right']","[0.9, 0.5, 0.1]","[u'medium', u'high', u'low']","red",50,"middle","high","False","False",81,400,NA
"A150GMV1YQWWB3","Wed Jan 29 2020 08:25:40 GMT-0500 (Eastern Standard Time)","Wed Jan 29 2020 08:34:16 GMT-0500 (Eastern Standard Time)","Mozilla/5.0 (Macintosh; Intel Mac OS X 10_13_6) AppleWebKit/537.36 (KHTML, like Gecko) Chrome/79.0.3945.130 Safari/537.36",14,"[0.9, 0.5, 0.1]","[0.8, 0.4, 0.2]","[u'black', u'red', u'blue']","[u'left', u'middle', u'right']","[0.9, 0.5, 0.1]","[u'medium', u'high', u'low']","red",50,"middle","high","False","False",416,350,NA
"A150GMV1YQWWB3","Wed Jan 29 2020 08:25:40 GMT-0500 (Eastern Standard Time)","Wed Jan 29 2020 08:34:16 GMT-0500 (Eastern Standard Time)","Mozilla/5.0 (Macintosh; Intel Mac OS X 10_13_6) AppleWebKit/537.36 (KHTML, like Gecko) Chrome/79.0.3945.130 Safari/537.36",15,"[0.9, 0.5, 0.1]","[0.8, 0.4, 0.2]","[u'black', u'red', u'blue']","[u'left', u'middle', u'right']","[0.9, 0.5, 0.1]","[u'medium', u'high', u'low']","red",50,"middle","high","True","False",138,450,NA
"A150GMV1YQWWB3","Wed Jan 29 2020 08:25:40 GMT-0500 (Eastern Standard Time)","Wed Jan 29 2020 08:34:16 GMT-0500 (Eastern Standard Time)","Mozilla/5.0 (Macintosh; Intel Mac OS X 10_13_6) AppleWebKit/537.36 (KHTML, like Gecko) Chrome/79.0.3945.130 Safari/537.36",16,"[0.9, 0.5, 0.1]","[0.8, 0.4, 0.2]","[u'black', u'red', u'blue']","[u'left', u'middle', u'right']","[0.9, 0.5, 0.1]","[u'medium', u'high', u'low']","red",50,"middle","high","True","False",609,550,NA
"A150GMV1YQWWB3","Wed Jan 29 2020 08:25:40 GMT-0500 (Eastern Standard Time)","Wed Jan 29 2020 08:34:16 GMT-0500 (Eastern Standard Time)","Mozilla/5.0 (Macintosh; Intel Mac OS X 10_13_6) AppleWebKit/537.36 (KHTML, like Gecko) Chrome/79.0.3945.130 Safari/537.36",17,"[0.9, 0.5, 0.1]","[0.8, 0.4, 0.2]","[u'black', u'red', u'blue']","[u'left', u'middle', u'right']","[0.9, 0.5, 0.1]","[u'medium', u'high', u'low']","red",50,"middle","high","True","False",373,650,NA
"A150GMV1YQWWB3","Wed Jan 29 2020 08:25:40 GMT-0500 (Eastern Standard Time)","Wed Jan 29 2020 08:34:16 GMT-0500 (Eastern Standard Time)","Mozilla/5.0 (Macintosh; Intel Mac OS X 10_13_6) AppleWebKit/537.36 (KHTML, like Gecko) Chrome/79.0.3945.130 Safari/537.36",18,"[0.9, 0.5, 0.1]","[0.8, 0.4, 0.2]","[u'black', u'red', u'blue']","[u'left', u'middle', u'right']","[0.9, 0.5, 0.1]","[u'medium', u'high', u'low']","blue",51,"right","low","False","False",438,600,NA
"A150GMV1YQWWB3","Wed Jan 29 2020 08:25:40 GMT-0500 (Eastern Standard Time)","Wed Jan 29 2020 08:34:16 GMT-0500 (Eastern Standard Time)","Mozilla/5.0 (Macintosh; Intel Mac OS X 10_13_6) AppleWebKit/537.36 (KHTML, like Gecko) Chrome/79.0.3945.130 Safari/537.36",19,"[0.9, 0.5, 0.1]","[0.8, 0.4, 0.2]","[u'black', u'red', u'blue']","[u'left', u'middle', u'right']","[0.9, 0.5, 0.1]","[u'medium', u'high', u'low']","blue",51,"right","low","False","False",90,550,NA
"A150GMV1YQWWB3","Wed Jan 29 2020 08:25:40 GMT-0500 (Eastern Standard Time)","Wed Jan 29 2020 08:34:16 GMT-0500 (Eastern Standard Time)","Mozilla/5.0 (Macintosh; Intel Mac OS X 10_13_6) AppleWebKit/537.36 (KHTML, like Gecko) Chrome/79.0.3945.130 Safari/537.36",20,"[0.9, 0.5, 0.1]","[0.8, 0.4, 0.2]","[u'black', u'red', u'blue']","[u'left', u'middle', u'right']","[0.9, 0.5, 0.1]","[u'medium', u'high', u'low']","red",50,"middle","high","True","False",263,650,NA
"A150GMV1YQWWB3","Wed Jan 29 2020 08:25:40 GMT-0500 (Eastern Standard Time)","Wed Jan 29 2020 08:34:16 GMT-0500 (Eastern Standard Time)","Mozilla/5.0 (Macintosh; Intel Mac OS X 10_13_6) AppleWebKit/537.36 (KHTML, like Gecko) Chrome/79.0.3945.130 Safari/537.36",21,"[0.9, 0.5, 0.1]","[0.8, 0.4, 0.2]","[u'black', u'red', u'blue']","[u'left', u'middle', u'right']","[0.9, 0.5, 0.1]","[u'medium', u'high', u'low']","red",50,"middle","high","True","False",126,750,NA
"A150GMV1YQWWB3","Wed Jan 29 2020 08:25:40 GMT-0500 (Eastern Standard Time)","Wed Jan 29 2020 08:34:16 GMT-0500 (Eastern Standard Time)","Mozilla/5.0 (Macintosh; Intel Mac OS X 10_13_6) AppleWebKit/537.36 (KHTML, like Gecko) Chrome/79.0.3945.130 Safari/537.36",22,"[0.9, 0.5, 0.1]","[0.8, 0.4, 0.2]","[u'black', u'red', u'blue']","[u'left', u'middle', u'right']","[0.9, 0.5, 0.1]","[u'medium', u'high', u'low']","red",50,"middle","high","False","False",208,700,NA
"A150GMV1YQWWB3","Wed Jan 29 2020 08:25:40 GMT-0500 (Eastern Standard Time)","Wed Jan 29 2020 08:34:16 GMT-0500 (Eastern Standard Time)","Mozilla/5.0 (Macintosh; Intel Mac OS X 10_13_6) AppleWebKit/537.36 (KHTML, like Gecko) Chrome/79.0.3945.130 Safari/537.36",23,"[0.9, 0.5, 0.1]","[0.8, 0.4, 0.2]","[u'black', u'red', u'blue']","[u'left', u'middle', u'right']","[0.9, 0.5, 0.1]","[u'medium', u'high', u'low']","blue",51,"right","low","True","False",231,800,NA
"A150GMV1YQWWB3","Wed Jan 29 2020 08:25:40 GMT-0500 (Eastern Standard Time)","Wed Jan 29 2020 08:34:16 GMT-0500 (Eastern Standard Time)","Mozilla/5.0 (Macintosh; Intel Mac OS X 10_13_6) AppleWebKit/537.36 (KHTML, like Gecko) Chrome/79.0.3945.130 Safari/537.36",24,"[0.9, 0.5, 0.1]","[0.8, 0.4, 0.2]","[u'black', u'red', u'blue']","[u'left', u'middle', u'right']","[0.9, 0.5, 0.1]","[u'medium', u'high', u'low']","red",50,"middle","high","True","False",199,900,NA
"A150GMV1YQWWB3","Wed Jan 29 2020 08:25:40 GMT-0500 (Eastern Standard Time)","Wed Jan 29 2020 08:34:16 GMT-0500 (Eastern Standard Time)","Mozilla/5.0 (Macintosh; Intel Mac OS X 10_13_6) AppleWebKit/537.36 (KHTML, like Gecko) Chrome/79.0.3945.130 Safari/537.36",25,"[0.9, 0.5, 0.1]","[0.8, 0.4, 0.2]","[u'black', u'red', u'blue']","[u'left', u'middle', u'right']","[0.9, 0.5, 0.1]","[u'medium', u'high', u'low']","red",50,"middle","high","True","False",105,1000,NA
"A150GMV1YQWWB3","Wed Jan 29 2020 08:25:40 GMT-0500 (Eastern Standard Time)","Wed Jan 29 2020 08:34:16 GMT-0500 (Eastern Standard Time)","Mozilla/5.0 (Macintosh; Intel Mac OS X 10_13_6) AppleWebKit/537.36 (KHTML, like Gecko) Chrome/79.0.3945.130 Safari/537.36",26,"[0.9, 0.5, 0.1]","[0.8, 0.4, 0.2]","[u'black', u'red', u'blue']","[u'left', u'middle', u'right']","[0.9, 0.5, 0.1]","[u'medium', u'high', u'low']","red",50,"middle","high","True","False",266,1100,NA
"A150GMV1YQWWB3","Wed Jan 29 2020 08:25:40 GMT-0500 (Eastern Standard Time)","Wed Jan 29 2020 08:34:16 GMT-0500 (Eastern Standard Time)","Mozilla/5.0 (Macintosh; Intel Mac OS X 10_13_6) AppleWebKit/537.36 (KHTML, like Gecko) Chrome/79.0.3945.130 Safari/537.36",27,"[0.9, 0.5, 0.1]","[0.8, 0.4, 0.2]","[u'black', u'red', u'blue']","[u'left', u'middle', u'right']","[0.9, 0.5, 0.1]","[u'medium', u'high', u'low']","red",50,"middle","high","True","False",682,1200,NA
"A150GMV1YQWWB3","Wed Jan 29 2020 08:25:40 GMT-0500 (Eastern Standard Time)","Wed Jan 29 2020 08:34:16 GMT-0500 (Eastern Standard Time)","Mozilla/5.0 (Macintosh; Intel Mac OS X 10_13_6) AppleWebKit/537.36 (KHTML, like Gecko) Chrome/79.0.3945.130 Safari/537.36",28,"[0.9, 0.5, 0.1]","[0.8, 0.4, 0.2]","[u'black', u'red', u'blue']","[u'left', u'middle', u'right']","[0.9, 0.5, 0.1]","[u'medium', u'high', u'low']","red",50,"middle","high","True","False",123,1300,NA
"A150GMV1YQWWB3","Wed Jan 29 2020 08:25:40 GMT-0500 (Eastern Standard Time)","Wed Jan 29 2020 08:34:16 GMT-0500 (Eastern Standard Time)","Mozilla/5.0 (Macintosh; Intel Mac OS X 10_13_6) AppleWebKit/537.36 (KHTML, like Gecko) Chrome/79.0.3945.130 Safari/537.36",29,"[0.9, 0.5, 0.1]","[0.8, 0.4, 0.2]","[u'black', u'red', u'blue']","[u'left', u'middle', u'right']","[0.9, 0.5, 0.1]","[u'medium', u'high', u'low']","red",50,"middle","high","True","True",161,1400,NA
"A150GMV1YQWWB3","Wed Jan 29 2020 08:25:40 GMT-0500 (Eastern Standard Time)","Wed Jan 29 2020 08:34:16 GMT-0500 (Eastern Standard Time)","Mozilla/5.0 (Macintosh; Intel Mac OS X 10_13_6) AppleWebKit/537.36 (KHTML, like Gecko) Chrome/79.0.3945.130 Safari/537.36",30,"[0.9, 0.5, 0.1]","[0.8, 0.4, 0.2]","[u'black', u'red', u'blue']","[u'left', u'middle', u'right']","[0.9, 0.5, 0.1]","[u'high', u'low', u'medium']","red",50,"middle","low","False","False",317,1350,NA
"A150GMV1YQWWB3","Wed Jan 29 2020 08:25:40 GMT-0500 (Eastern Standard Time)","Wed Jan 29 2020 08:34:16 GMT-0500 (Eastern Standard Time)","Mozilla/5.0 (Macintosh; Intel Mac OS X 10_13_6) AppleWebKit/537.36 (KHTML, like Gecko) Chrome/79.0.3945.130 Safari/537.36",31,"[0.9, 0.5, 0.1]","[0.8, 0.4, 0.2]","[u'black', u'red', u'blue']","[u'left', u'middle', u'right']","[0.9, 0.5, 0.1]","[u'high', u'low', u'medium']","blue",51,"right","medium","True","False",270,1450,NA
"A150GMV1YQWWB3","Wed Jan 29 2020 08:25:40 GMT-0500 (Eastern Standard Time)","Wed Jan 29 2020 08:34:16 GMT-0500 (Eastern Standard Time)","Mozilla/5.0 (Macintosh; Intel Mac OS X 10_13_6) AppleWebKit/537.36 (KHTML, like Gecko) Chrome/79.0.3945.130 Safari/537.36",32,"[0.9, 0.5, 0.1]","[0.8, 0.4, 0.2]","[u'black', u'red', u'blue']","[u'left', u'middle', u'right']","[0.9, 0.5, 0.1]","[u'high', u'low', u'medium']","red",50,"middle","low","False","False",275,1400,NA
"A150GMV1YQWWB3","Wed Jan 29 2020 08:25:40 GMT-0500 (Eastern Standard Time)","Wed Jan 29 2020 08:34:16 GMT-0500 (Eastern Standard Time)","Mozilla/5.0 (Macintosh; Intel Mac OS X 10_13_6) AppleWebKit/537.36 (KHTML, like Gecko) Chrome/79.0.3945.130 Safari/537.36",33,"[0.9, 0.5, 0.1]","[0.8, 0.4, 0.2]","[u'black', u'red', u'blue']","[u'left', u'middle', u'right']","[0.9, 0.5, 0.1]","[u'high', u'low', u'medium']","red",50,"middle","low","False","False",214,1350,NA
"A150GMV1YQWWB3","Wed Jan 29 2020 08:25:40 GMT-0500 (Eastern Standard Time)","Wed Jan 29 2020 08:34:16 GMT-0500 (Eastern Standard Time)","Mozilla/5.0 (Macintosh; Intel Mac OS X 10_13_6) AppleWebKit/537.36 (KHTML, like Gecko) Chrome/79.0.3945.130 Safari/537.36",34,"[0.9, 0.5, 0.1]","[0.8, 0.4, 0.2]","[u'black', u'red', u'blue']","[u'left', u'middle', u'right']","[0.9, 0.5, 0.1]","[u'high', u'low', u'medium']","blue",51,"right","medium","True","False",81,1450,NA
"A150GMV1YQWWB3","Wed Jan 29 2020 08:25:40 GMT-0500 (Eastern Standard Time)","Wed Jan 29 2020 08:34:16 GMT-0500 (Eastern Standard Time)","Mozilla/5.0 (Macintosh; Intel Mac OS X 10_13_6) AppleWebKit/537.36 (KHTML, like Gecko) Chrome/79.0.3945.130 Safari/537.36",35,"[0.9, 0.5, 0.1]","[0.8, 0.4, 0.2]","[u'black', u'red', u'blue']","[u'left', u'middle', u'right']","[0.9, 0.5, 0.1]","[u'high', u'low', u'medium']","blue",51,"right","medium","True","False",463,1550,NA
"A150GMV1YQWWB3","Wed Jan 29 2020 08:25:40 GMT-0500 (Eastern Standard Time)","Wed Jan 29 2020 08:34:16 GMT-0500 (Eastern Standard Time)","Mozilla/5.0 (Macintosh; Intel Mac OS X 10_13_6) AppleWebKit/537.36 (KHTML, like Gecko) Chrome/79.0.3945.130 Safari/537.36",36,"[0.9, 0.5, 0.1]","[0.8, 0.4, 0.2]","[u'black', u'red', u'blue']","[u'left', u'middle', u'right']","[0.9, 0.5, 0.1]","[u'high', u'low', u'medium']","blue",51,"right","medium","True","False",304,1650,NA
"A150GMV1YQWWB3","Wed Jan 29 2020 08:25:40 GMT-0500 (Eastern Standard Time)","Wed Jan 29 2020 08:34:16 GMT-0500 (Eastern Standard Time)","Mozilla/5.0 (Macintosh; Intel Mac OS X 10_13_6) AppleWebKit/537.36 (KHTML, like Gecko) Chrome/79.0.3945.130 Safari/537.36",37,"[0.9, 0.5, 0.1]","[0.8, 0.4, 0.2]","[u'black', u'red', u'blue']","[u'left', u'middle', u'right']","[0.9, 0.5, 0.1]","[u'high', u'low', u'medium']","blue",51,"right","medium","True","False",111,1750,NA
"A150GMV1YQWWB3","Wed Jan 29 2020 08:25:40 GMT-0500 (Eastern Standard Time)","Wed Jan 29 2020 08:34:16 GMT-0500 (Eastern Standard Time)","Mozilla/5.0 (Macintosh; Intel Mac OS X 10_13_6) AppleWebKit/537.36 (KHTML, like Gecko) Chrome/79.0.3945.130 Safari/537.36",38,"[0.9, 0.5, 0.1]","[0.8, 0.4, 0.2]","[u'black', u'red', u'blue']","[u'left', u'middle', u'right']","[0.9, 0.5, 0.1]","[u'high', u'low', u'medium']","blue",51,"right","medium","True","False",208,1850,NA
"A150GMV1YQWWB3","Wed Jan 29 2020 08:25:40 GMT-0500 (Eastern Standard Time)","Wed Jan 29 2020 08:34:16 GMT-0500 (Eastern Standard Time)","Mozilla/5.0 (Macintosh; Intel Mac OS X 10_13_6) AppleWebKit/537.36 (KHTML, like Gecko) Chrome/79.0.3945.130 Safari/537.36",39,"[0.9, 0.5, 0.1]","[0.8, 0.4, 0.2]","[u'black', u'red', u'blue']","[u'left', u'middle', u'right']","[0.9, 0.5, 0.1]","[u'high', u'low', u'medium']","blue",51,"right","medium","False","False",233,1800,NA
"A150GMV1YQWWB3","Wed Jan 29 2020 08:25:40 GMT-0500 (Eastern Standard Time)","Wed Jan 29 2020 08:34:16 GMT-0500 (Eastern Standard Time)","Mozilla/5.0 (Macintosh; Intel Mac OS X 10_13_6) AppleWebKit/537.36 (KHTML, like Gecko) Chrome/79.0.3945.130 Safari/537.36",40,"[0.9, 0.5, 0.1]","[0.8, 0.4, 0.2]","[u'black', u'red', u'blue']","[u'left', u'middle', u'right']","[0.9, 0.5, 0.1]","[u'high', u'low', u'medium']","black",49,"left","high","True","False",266,1900,NA
"A150GMV1YQWWB3","Wed Jan 29 2020 08:25:40 GMT-0500 (Eastern Standard Time)","Wed Jan 29 2020 08:34:16 GMT-0500 (Eastern Standard Time)","Mozilla/5.0 (Macintosh; Intel Mac OS X 10_13_6) AppleWebKit/537.36 (KHTML, like Gecko) Chrome/79.0.3945.130 Safari/537.36",41,"[0.9, 0.5, 0.1]","[0.8, 0.4, 0.2]","[u'black', u'red', u'blue']","[u'left', u'middle', u'right']","[0.9, 0.5, 0.1]","[u'medium', u'high', u'low']","black",49,"left","medium","True","False",431,2000,NA
"A150GMV1YQWWB3","Wed Jan 29 2020 08:25:40 GMT-0500 (Eastern Standard Time)","Wed Jan 29 2020 08:34:16 GMT-0500 (Eastern Standard Time)","Mozilla/5.0 (Macintosh; Intel Mac OS X 10_13_6) AppleWebKit/537.36 (KHTML, like Gecko) Chrome/79.0.3945.130 Safari/537.36",42,"[0.9, 0.5, 0.1]","[0.8, 0.4, 0.2]","[u'black', u'red', u'blue']","[u'left', u'middle', u'right']","[0.9, 0.5, 0.1]","[u'medium', u'high', u'low']","black",49,"left","medium","False","False",73,1950,NA
"A150GMV1YQWWB3","Wed Jan 29 2020 08:25:40 GMT-0500 (Eastern Standard Time)","Wed Jan 29 2020 08:34:16 GMT-0500 (Eastern Standard Time)","Mozilla/5.0 (Macintosh; Intel Mac OS X 10_13_6) AppleWebKit/537.36 (KHTML, like Gecko) Chrome/79.0.3945.130 Safari/537.36",43,"[0.9, 0.5, 0.1]","[0.8, 0.4, 0.2]","[u'black', u'red', u'blue']","[u'left', u'middle', u'right']","[0.9, 0.5, 0.1]","[u'medium', u'high', u'low']","red",50,"middle","high","True","False",652,2050,NA
"A150GMV1YQWWB3","Wed Jan 29 2020 08:25:40 GMT-0500 (Eastern Standard Time)","Wed Jan 29 2020 08:34:16 GMT-0500 (Eastern Standard Time)","Mozilla/5.0 (Macintosh; Intel Mac OS X 10_13_6) AppleWebKit/537.36 (KHTML, like Gecko) Chrome/79.0.3945.130 Safari/537.36",44,"[0.9, 0.5, 0.1]","[0.8, 0.4, 0.2]","[u'black', u'red', u'blue']","[u'left', u'middle', u'right']","[0.9, 0.5, 0.1]","[u'medium', u'high', u'low']","red",50,"middle","high","True","False",20,2150,NA
"A150GMV1YQWWB3","Wed Jan 29 2020 08:25:40 GMT-0500 (Eastern Standard Time)","Wed Jan 29 2020 08:34:16 GMT-0500 (Eastern Standard Time)","Mozilla/5.0 (Macintosh; Intel Mac OS X 10_13_6) AppleWebKit/537.36 (KHTML, like Gecko) Chrome/79.0.3945.130 Safari/537.36",45,"[0.9, 0.5, 0.1]","[0.8, 0.4, 0.2]","[u'black', u'red', u'blue']","[u'left', u'middle', u'right']","[0.9, 0.5, 0.1]","[u'medium', u'high', u'low']","red",50,"middle","high","True","False",298,2250,NA
"A150GMV1YQWWB3","Wed Jan 29 2020 08:25:40 GMT-0500 (Eastern Standard Time)","Wed Jan 29 2020 08:34:16 GMT-0500 (Eastern Standard Time)","Mozilla/5.0 (Macintosh; Intel Mac OS X 10_13_6) AppleWebKit/537.36 (KHTML, like Gecko) Chrome/79.0.3945.130 Safari/537.36",46,"[0.9, 0.5, 0.1]","[0.8, 0.4, 0.2]","[u'black', u'red', u'blue']","[u'left', u'middle', u'right']","[0.9, 0.5, 0.1]","[u'medium', u'high', u'low']","red",50,"middle","high","True","False",448,2350,NA
"A150GMV1YQWWB3","Wed Jan 29 2020 08:25:40 GMT-0500 (Eastern Standard Time)","Wed Jan 29 2020 08:34:16 GMT-0500 (Eastern Standard Time)","Mozilla/5.0 (Macintosh; Intel Mac OS X 10_13_6) AppleWebKit/537.36 (KHTML, like Gecko) Chrome/79.0.3945.130 Safari/537.36",47,"[0.9, 0.5, 0.1]","[0.8, 0.4, 0.2]","[u'black', u'red', u'blue']","[u'left', u'middle', u'right']","[0.9, 0.5, 0.1]","[u'medium', u'high', u'low']","red",50,"middle","high","True","False",436,2450,NA
"A150GMV1YQWWB3","Wed Jan 29 2020 08:25:40 GMT-0500 (Eastern Standard Time)","Wed Jan 29 2020 08:34:16 GMT-0500 (Eastern Standard Time)","Mozilla/5.0 (Macintosh; Intel Mac OS X 10_13_6) AppleWebKit/537.36 (KHTML, like Gecko) Chrome/79.0.3945.130 Safari/537.36",48,"[0.9, 0.5, 0.1]","[0.8, 0.4, 0.2]","[u'black', u'red', u'blue']","[u'left', u'middle', u'right']","[0.9, 0.5, 0.1]","[u'medium', u'high', u'low']","red",50,"middle","high","False","False",238,2400,NA
"A150GMV1YQWWB3","Wed Jan 29 2020 08:25:40 GMT-0500 (Eastern Standard Time)","Wed Jan 29 2020 08:34:16 GMT-0500 (Eastern Standard Time)","Mozilla/5.0 (Macintosh; Intel Mac OS X 10_13_6) AppleWebKit/537.36 (KHTML, like Gecko) Chrome/79.0.3945.130 Safari/537.36",49,"[0.9, 0.5, 0.1]","[0.8, 0.4, 0.2]","[u'black', u'red', u'blue']","[u'left', u'middle', u'right']","[0.9, 0.5, 0.1]","[u'medium', u'high', u'low']","blue",51,"right","low","False","False",377,2350,NA
"A150GMV1YQWWB3","Wed Jan 29 2020 08:25:40 GMT-0500 (Eastern Standard Time)","Wed Jan 29 2020 08:34:16 GMT-0500 (Eastern Standard Time)","Mozilla/5.0 (Macintosh; Intel Mac OS X 10_13_6) AppleWebKit/537.36 (KHTML, like Gecko) Chrome/79.0.3945.130 Safari/537.36",50,"[0.9, 0.5, 0.1]","[0.8, 0.4, 0.2]","[u'black', u'red', u'blue']","[u'left', u'middle', u'right']","[0.9, 0.5, 0.1]","[u'medium', u'high', u'low']","black",49,"left","medium","False","False",203,2300,NA
"A150GMV1YQWWB3","Wed Jan 29 2020 08:25:40 GMT-0500 (Eastern Standard Time)","Wed Jan 29 2020 08:34:16 GMT-0500 (Eastern Standard Time)","Mozilla/5.0 (Macintosh; Intel Mac OS X 10_13_6) AppleWebKit/537.36 (KHTML, like Gecko) Chrome/79.0.3945.130 Safari/537.36",51,"[0.9, 0.5, 0.1]","[0.8, 0.4, 0.2]","[u'black', u'red', u'blue']","[u'left', u'middle', u'right']","[0.9, 0.5, 0.1]","[u'medium', u'high', u'low']","red",50,"middle","high","True","False",319,2400,NA
"A150GMV1YQWWB3","Wed Jan 29 2020 08:25:40 GMT-0500 (Eastern Standard Time)","Wed Jan 29 2020 08:34:16 GMT-0500 (Eastern Standard Time)","Mozilla/5.0 (Macintosh; Intel Mac OS X 10_13_6) AppleWebKit/537.36 (KHTML, like Gecko) Chrome/79.0.3945.130 Safari/537.36",52,"[0.9, 0.5, 0.1]","[0.8, 0.4, 0.2]","[u'black', u'red', u'blue']","[u'left', u'middle', u'right']","[0.9, 0.5, 0.1]","[u'medium', u'high', u'low']","red",50,"middle","high","True","False",197,2500,NA
"A150GMV1YQWWB3","Wed Jan 29 2020 08:25:40 GMT-0500 (Eastern Standard Time)","Wed Jan 29 2020 08:34:16 GMT-0500 (Eastern Standard Time)","Mozilla/5.0 (Macintosh; Intel Mac OS X 10_13_6) AppleWebKit/537.36 (KHTML, like Gecko) Chrome/79.0.3945.130 Safari/537.36",53,"[0.9, 0.5, 0.1]","[0.8, 0.4, 0.2]","[u'black', u'red', u'blue']","[u'left', u'middle', u'right']","[0.9, 0.5, 0.1]","[u'medium', u'high', u'low']","red",50,"middle","high","True","False",270,2600,NA
"A150GMV1YQWWB3","Wed Jan 29 2020 08:25:40 GMT-0500 (Eastern Standard Time)","Wed Jan 29 2020 08:34:16 GMT-0500 (Eastern Standard Time)","Mozilla/5.0 (Macintosh; Intel Mac OS X 10_13_6) AppleWebKit/537.36 (KHTML, like Gecko) Chrome/79.0.3945.130 Safari/537.36",54,"[0.9, 0.5, 0.1]","[0.8, 0.4, 0.2]","[u'black', u'red', u'blue']","[u'left', u'middle', u'right']","[0.9, 0.5, 0.1]","[u'medium', u'high', u'low']","red",50,"middle","high","True","False",385,2700,NA
"A150GMV1YQWWB3","Wed Jan 29 2020 08:25:40 GMT-0500 (Eastern Standard Time)","Wed Jan 29 2020 08:34:16 GMT-0500 (Eastern Standard Time)","Mozilla/5.0 (Macintosh; Intel Mac OS X 10_13_6) AppleWebKit/537.36 (KHTML, like Gecko) Chrome/79.0.3945.130 Safari/537.36",55,"[0.9, 0.5, 0.1]","[0.8, 0.4, 0.2]","[u'black', u'red', u'blue']","[u'left', u'middle', u'right']","[0.9, 0.5, 0.1]","[u'medium', u'high', u'low']","red",50,"middle","high","True","False",291,2800,NA
"A150GMV1YQWWB3","Wed Jan 29 2020 08:25:40 GMT-0500 (Eastern Standard Time)","Wed Jan 29 2020 08:34:16 GMT-0500 (Eastern Standard Time)","Mozilla/5.0 (Macintosh; Intel Mac OS X 10_13_6) AppleWebKit/537.36 (KHTML, like Gecko) Chrome/79.0.3945.130 Safari/537.36",56,"[0.9, 0.5, 0.1]","[0.8, 0.4, 0.2]","[u'black', u'red', u'blue']","[u'left', u'middle', u'right']","[0.9, 0.5, 0.1]","[u'medium', u'high', u'low']","red",50,"middle","high","True","False",345,2900,NA
"A150GMV1YQWWB3","Wed Jan 29 2020 08:25:40 GMT-0500 (Eastern Standard Time)","Wed Jan 29 2020 08:34:16 GMT-0500 (Eastern Standard Time)","Mozilla/5.0 (Macintosh; Intel Mac OS X 10_13_6) AppleWebKit/537.36 (KHTML, like Gecko) Chrome/79.0.3945.130 Safari/537.36",57,"[0.9, 0.5, 0.1]","[0.8, 0.4, 0.2]","[u'black', u'red', u'blue']","[u'left', u'middle', u'right']","[0.9, 0.5, 0.1]","[u'medium', u'high', u'low']","red",50,"middle","high","False","False",129,2850,NA
"A150GMV1YQWWB3","Wed Jan 29 2020 08:25:40 GMT-0500 (Eastern Standard Time)","Wed Jan 29 2020 08:34:16 GMT-0500 (Eastern Standard Time)","Mozilla/5.0 (Macintosh; Intel Mac OS X 10_13_6) AppleWebKit/537.36 (KHTML, like Gecko) Chrome/79.0.3945.130 Safari/537.36",58,"[0.9, 0.5, 0.1]","[0.8, 0.4, 0.2]","[u'black', u'red', u'blue']","[u'left', u'middle', u'right']","[0.9, 0.5, 0.1]","[u'medium', u'high', u'low']","red",50,"middle","high","True","False",132,2950,NA
"A150GMV1YQWWB3","Wed Jan 29 2020 08:25:40 GMT-0500 (Eastern Standard Time)","Wed Jan 29 2020 08:34:16 GMT-0500 (Eastern Standard Time)","Mozilla/5.0 (Macintosh; Intel Mac OS X 10_13_6) AppleWebKit/537.36 (KHTML, like Gecko) Chrome/79.0.3945.130 Safari/537.36",59,"[0.9, 0.5, 0.1]","[0.8, 0.4, 0.2]","[u'black', u'red', u'blue']","[u'left', u'middle', u'right']","[0.9, 0.5, 0.1]","[u'medium', u'high', u'low']","red",50,"middle","high","True","True",434,3050,NA
"A150GMV1YQWWB3","Wed Jan 29 2020 08:25:40 GMT-0500 (Eastern Standard Time)","Wed Jan 29 2020 08:34:16 GMT-0500 (Eastern Standard Time)","Mozilla/5.0 (Macintosh; Intel Mac OS X 10_13_6) AppleWebKit/537.36 (KHTML, like Gecko) Chrome/79.0.3945.130 Safari/537.36",60,"[0.9, 0.5, 0.1]","[0.8, 0.4, 0.2]","[u'black', u'red', u'blue']","[u'left', u'middle', u'right']","[0.9, 0.5, 0.1]","[u'high', u'low', u'medium']","red",50,"middle","low","False","False",361,3000,NA
"A150GMV1YQWWB3","Wed Jan 29 2020 08:25:40 GMT-0500 (Eastern Standard Time)","Wed Jan 29 2020 08:34:16 GMT-0500 (Eastern Standard Time)","Mozilla/5.0 (Macintosh; Intel Mac OS X 10_13_6) AppleWebKit/537.36 (KHTML, like Gecko) Chrome/79.0.3945.130 Safari/537.36",61,"[0.9, 0.5, 0.1]","[0.8, 0.4, 0.2]","[u'black', u'red', u'blue']","[u'left', u'middle', u'right']","[0.9, 0.5, 0.1]","[u'high', u'low', u'medium']","red",50,"middle","low","True","False",841,3100,NA
"A150GMV1YQWWB3","Wed Jan 29 2020 08:25:40 GMT-0500 (Eastern Standard Time)","Wed Jan 29 2020 08:34:16 GMT-0500 (Eastern Standard Time)","Mozilla/5.0 (Macintosh; Intel Mac OS X 10_13_6) AppleWebKit/537.36 (KHTML, like Gecko) Chrome/79.0.3945.130 Safari/537.36",62,"[0.9, 0.5, 0.1]","[0.8, 0.4, 0.2]","[u'black', u'red', u'blue']","[u'left', u'middle', u'right']","[0.9, 0.5, 0.1]","[u'high', u'low', u'medium']","red",50,"middle","low","False","False",487,3050,NA
"A150GMV1YQWWB3","Wed Jan 29 2020 08:25:40 GMT-0500 (Eastern Standard Time)","Wed Jan 29 2020 08:34:16 GMT-0500 (Eastern Standard Time)","Mozilla/5.0 (Macintosh; Intel Mac OS X 10_13_6) AppleWebKit/537.36 (KHTML, like Gecko) Chrome/79.0.3945.130 Safari/537.36",63,"[0.9, 0.5, 0.1]","[0.8, 0.4, 0.2]","[u'black', u'red', u'blue']","[u'left', u'middle', u'right']","[0.9, 0.5, 0.1]","[u'high', u'low', u'medium']","blue",51,"right","medium","False","False",946,3000,NA
"A150GMV1YQWWB3","Wed Jan 29 2020 08:25:40 GMT-0500 (Eastern Standard Time)","Wed Jan 29 2020 08:34:16 GMT-0500 (Eastern Standard Time)","Mozilla/5.0 (Macintosh; Intel Mac OS X 10_13_6) AppleWebKit/537.36 (KHTML, like Gecko) Chrome/79.0.3945.130 Safari/537.36",64,"[0.9, 0.5, 0.1]","[0.8, 0.4, 0.2]","[u'black', u'red', u'blue']","[u'left', u'middle', u'right']","[0.9, 0.5, 0.1]","[u'high', u'low', u'medium']","red",50,"middle","low","False","False",200,2950,NA
"A150GMV1YQWWB3","Wed Jan 29 2020 08:25:40 GMT-0500 (Eastern Standard Time)","Wed Jan 29 2020 08:34:16 GMT-0500 (Eastern Standard Time)","Mozilla/5.0 (Macintosh; Intel Mac OS X 10_13_6) AppleWebKit/537.36 (KHTML, like Gecko) Chrome/79.0.3945.130 Safari/537.36",65,"[0.9, 0.5, 0.1]","[0.8, 0.4, 0.2]","[u'black', u'red', u'blue']","[u'left', u'middle', u'right']","[0.9, 0.5, 0.1]","[u'high', u'low', u'medium']","black",49,"left","high","True","False",338,3050,NA
"A150GMV1YQWWB3","Wed Jan 29 2020 08:25:40 GMT-0500 (Eastern Standard Time)","Wed Jan 29 2020 08:34:16 GMT-0500 (Eastern Standard Time)","Mozilla/5.0 (Macintosh; Intel Mac OS X 10_13_6) AppleWebKit/537.36 (KHTML, like Gecko) Chrome/79.0.3945.130 Safari/537.36",66,"[0.9, 0.5, 0.1]","[0.8, 0.4, 0.2]","[u'black', u'red', u'blue']","[u'left', u'middle', u'right']","[0.9, 0.5, 0.1]","[u'high', u'low', u'medium']","black",49,"left","high","True","False",491,3150,NA
"A150GMV1YQWWB3","Wed Jan 29 2020 08:25:40 GMT-0500 (Eastern Standard Time)","Wed Jan 29 2020 08:34:16 GMT-0500 (Eastern Standard Time)","Mozilla/5.0 (Macintosh; Intel Mac OS X 10_13_6) AppleWebKit/537.36 (KHTML, like Gecko) Chrome/79.0.3945.130 Safari/537.36",67,"[0.9, 0.5, 0.1]","[0.8, 0.4, 0.2]","[u'black', u'red', u'blue']","[u'left', u'middle', u'right']","[0.9, 0.5, 0.1]","[u'high', u'low', u'medium']","black",49,"left","high","True","False",737,3250,NA
"A150GMV1YQWWB3","Wed Jan 29 2020 08:25:40 GMT-0500 (Eastern Standard Time)","Wed Jan 29 2020 08:34:16 GMT-0500 (Eastern Standard Time)","Mozilla/5.0 (Macintosh; Intel Mac OS X 10_13_6) AppleWebKit/537.36 (KHTML, like Gecko) Chrome/79.0.3945.130 Safari/537.36",68,"[0.9, 0.5, 0.1]","[0.8, 0.4, 0.2]","[u'black', u'red', u'blue']","[u'left', u'middle', u'right']","[0.9, 0.5, 0.1]","[u'high', u'low', u'medium']","black",49,"left","high","True","False",681,3350,NA
"A150GMV1YQWWB3","Wed Jan 29 2020 08:25:40 GMT-0500 (Eastern Standard Time)","Wed Jan 29 2020 08:34:16 GMT-0500 (Eastern Standard Time)","Mozilla/5.0 (Macintosh; Intel Mac OS X 10_13_6) AppleWebKit/537.36 (KHTML, like Gecko) Chrome/79.0.3945.130 Safari/537.36",69,"[0.9, 0.5, 0.1]","[0.8, 0.4, 0.2]","[u'black', u'red', u'blue']","[u'left', u'middle', u'right']","[0.9, 0.5, 0.1]","[u'high', u'low', u'medium']","black",49,"left","high","True","False",566,3450,NA
"A150GMV1YQWWB3","Wed Jan 29 2020 08:25:40 GMT-0500 (Eastern Standard Time)","Wed Jan 29 2020 08:34:16 GMT-0500 (Eastern Standard Time)","Mozilla/5.0 (Macintosh; Intel Mac OS X 10_13_6) AppleWebKit/537.36 (KHTML, like Gecko) Chrome/79.0.3945.130 Safari/537.36",70,"[0.9, 0.5, 0.1]","[0.8, 0.4, 0.2]","[u'black', u'red', u'blue']","[u'left', u'middle', u'right']","[0.9, 0.5, 0.1]","[u'high', u'low', u'medium']","black",49,"left","high","True","False",392,3550,NA
"A150GMV1YQWWB3","Wed Jan 29 2020 08:25:40 GMT-0500 (Eastern Standard Time)","Wed Jan 29 2020 08:34:16 GMT-0500 (Eastern Standard Time)","Mozilla/5.0 (Macintosh; Intel Mac OS X 10_13_6) AppleWebKit/537.36 (KHTML, like Gecko) Chrome/79.0.3945.130 Safari/537.36",71,"[0.9, 0.5, 0.1]","[0.8, 0.4, 0.2]","[u'black', u'red', u'blue']","[u'left', u'middle', u'right']","[0.9, 0.5, 0.1]","[u'high', u'low', u'medium']","black",49,"left","high","True","False",533,3650,NA
"A150GMV1YQWWB3","Wed Jan 29 2020 08:25:40 GMT-0500 (Eastern Standard Time)","Wed Jan 29 2020 08:34:16 GMT-0500 (Eastern Standard Time)","Mozilla/5.0 (Macintosh; Intel Mac OS X 10_13_6) AppleWebKit/537.36 (KHTML, like Gecko) Chrome/79.0.3945.130 Safari/537.36",72,"[0.9, 0.5, 0.1]","[0.8, 0.4, 0.2]","[u'black', u'red', u'blue']","[u'left', u'middle', u'right']","[0.9, 0.5, 0.1]","[u'high', u'low', u'medium']","black",49,"left","high","True","False",529,3750,NA
"A150GMV1YQWWB3","Wed Jan 29 2020 08:25:40 GMT-0500 (Eastern Standard Time)","Wed Jan 29 2020 08:34:16 GMT-0500 (Eastern Standard Time)","Mozilla/5.0 (Macintosh; Intel Mac OS X 10_13_6) AppleWebKit/537.36 (KHTML, like Gecko) Chrome/79.0.3945.130 Safari/537.36",73,"[0.9, 0.5, 0.1]","[0.8, 0.4, 0.2]","[u'black', u'red', u'blue']","[u'left', u'middle', u'right']","[0.9, 0.5, 0.1]","[u'high', u'low', u'medium']","black",49,"left","high","True","True",518,3850,NA
"A150GMV1YQWWB3","Wed Jan 29 2020 08:25:40 GMT-0500 (Eastern Standard Time)","Wed Jan 29 2020 08:34:16 GMT-0500 (Eastern Standard Time)","Mozilla/5.0 (Macintosh; Intel Mac OS X 10_13_6) AppleWebKit/537.36 (KHTML, like Gecko) Chrome/79.0.3945.130 Safari/537.36",74,"[0.9, 0.5, 0.1]","[0.8, 0.4, 0.2]","[u'black', u'red', u'blue']","[u'left', u'middle', u'right']","[0.9, 0.5, 0.1]","[u'medium', u'high', u'low']","black",49,"left","medium","True","False",377,3950,NA
"A150GMV1YQWWB3","Wed Jan 29 2020 08:25:40 GMT-0500 (Eastern Standard Time)","Wed Jan 29 2020 08:34:16 GMT-0500 (Eastern Standard Time)","Mozilla/5.0 (Macintosh; Intel Mac OS X 10_13_6) AppleWebKit/537.36 (KHTML, like Gecko) Chrome/79.0.3945.130 Safari/537.36",75,"[0.9, 0.5, 0.1]","[0.8, 0.4, 0.2]","[u'black', u'red', u'blue']","[u'left', u'middle', u'right']","[0.9, 0.5, 0.1]","[u'medium', u'high', u'low']","black",49,"left","medium","False","False",305,3900,NA
"A150GMV1YQWWB3","Wed Jan 29 2020 08:25:40 GMT-0500 (Eastern Standard Time)","Wed Jan 29 2020 08:34:16 GMT-0500 (Eastern Standard Time)","Mozilla/5.0 (Macintosh; Intel Mac OS X 10_13_6) AppleWebKit/537.36 (KHTML, like Gecko) Chrome/79.0.3945.130 Safari/537.36",76,"[0.9, 0.5, 0.1]","[0.8, 0.4, 0.2]","[u'black', u'red', u'blue']","[u'left', u'middle', u'right']","[0.9, 0.5, 0.1]","[u'medium', u'high', u'low']","red",50,"middle","high","True","False",493,4000,NA
"A150GMV1YQWWB3","Wed Jan 29 2020 08:25:40 GMT-0500 (Eastern Standard Time)","Wed Jan 29 2020 08:34:16 GMT-0500 (Eastern Standard Time)","Mozilla/5.0 (Macintosh; Intel Mac OS X 10_13_6) AppleWebKit/537.36 (KHTML, like Gecko) Chrome/79.0.3945.130 Safari/537.36",77,"[0.9, 0.5, 0.1]","[0.8, 0.4, 0.2]","[u'black', u'red', u'blue']","[u'left', u'middle', u'right']","[0.9, 0.5, 0.1]","[u'medium', u'high', u'low']","red",50,"middle","high","True","False",515,4100,NA
"A150GMV1YQWWB3","Wed Jan 29 2020 08:25:40 GMT-0500 (Eastern Standard Time)","Wed Jan 29 2020 08:34:16 GMT-0500 (Eastern Standard Time)","Mozilla/5.0 (Macintosh; Intel Mac OS X 10_13_6) AppleWebKit/537.36 (KHTML, like Gecko) Chrome/79.0.3945.130 Safari/537.36",78,"[0.9, 0.5, 0.1]","[0.8, 0.4, 0.2]","[u'black', u'red', u'blue']","[u'left', u'middle', u'right']","[0.9, 0.5, 0.1]","[u'medium', u'high', u'low']","red",50,"middle","high","True","False",851,4200,NA
"A150GMV1YQWWB3","Wed Jan 29 2020 08:25:40 GMT-0500 (Eastern Standard Time)","Wed Jan 29 2020 08:34:16 GMT-0500 (Eastern Standard Time)","Mozilla/5.0 (Macintosh; Intel Mac OS X 10_13_6) AppleWebKit/537.36 (KHTML, like Gecko) Chrome/79.0.3945.130 Safari/537.36",79,"[0.9, 0.5, 0.1]","[0.8, 0.4, 0.2]","[u'black', u'red', u'blue']","[u'left', u'middle', u'right']","[0.9, 0.5, 0.1]","[u'medium', u'high', u'low']","red",50,"middle","high","True","False",795,4300,NA
"A150GMV1YQWWB3","Wed Jan 29 2020 08:25:40 GMT-0500 (Eastern Standard Time)","Wed Jan 29 2020 08:34:16 GMT-0500 (Eastern Standard Time)","Mozilla/5.0 (Macintosh; Intel Mac OS X 10_13_6) AppleWebKit/537.36 (KHTML, like Gecko) Chrome/79.0.3945.130 Safari/537.36",80,"[0.9, 0.5, 0.1]","[0.8, 0.4, 0.2]","[u'black', u'red', u'blue']","[u'left', u'middle', u'right']","[0.9, 0.5, 0.1]","[u'medium', u'high', u'low']","red",50,"middle","high","True","False",338,4400,NA
"A150GMV1YQWWB3","Wed Jan 29 2020 08:25:40 GMT-0500 (Eastern Standard Time)","Wed Jan 29 2020 08:34:16 GMT-0500 (Eastern Standard Time)","Mozilla/5.0 (Macintosh; Intel Mac OS X 10_13_6) AppleWebKit/537.36 (KHTML, like Gecko) Chrome/79.0.3945.130 Safari/537.36",81,"[0.9, 0.5, 0.1]","[0.8, 0.4, 0.2]","[u'black', u'red', u'blue']","[u'left', u'middle', u'right']","[0.8, 0.4, 0.2]","[u'low', u'medium', u'high']","red",50,"middle","medium","False","False",383,4350,NA
"A150GMV1YQWWB3","Wed Jan 29 2020 08:25:40 GMT-0500 (Eastern Standard Time)","Wed Jan 29 2020 08:34:16 GMT-0500 (Eastern Standard Time)","Mozilla/5.0 (Macintosh; Intel Mac OS X 10_13_6) AppleWebKit/537.36 (KHTML, like Gecko) Chrome/79.0.3945.130 Safari/537.36",82,"[0.9, 0.5, 0.1]","[0.8, 0.4, 0.2]","[u'black', u'red', u'blue']","[u'left', u'middle', u'right']","[0.8, 0.4, 0.2]","[u'low', u'medium', u'high']","red",50,"middle","medium","True","False",223,4450,NA
"A150GMV1YQWWB3","Wed Jan 29 2020 08:25:40 GMT-0500 (Eastern Standard Time)","Wed Jan 29 2020 08:34:16 GMT-0500 (Eastern Standard Time)","Mozilla/5.0 (Macintosh; Intel Mac OS X 10_13_6) AppleWebKit/537.36 (KHTML, like Gecko) Chrome/79.0.3945.130 Safari/537.36",83,"[0.9, 0.5, 0.1]","[0.8, 0.4, 0.2]","[u'black', u'red', u'blue']","[u'left', u'middle', u'right']","[0.8, 0.4, 0.2]","[u'low', u'medium', u'high']","red",50,"middle","medium","False","False",228,4400,NA
"A150GMV1YQWWB3","Wed Jan 29 2020 08:25:40 GMT-0500 (Eastern Standard Time)","Wed Jan 29 2020 08:34:16 GMT-0500 (Eastern Standard Time)","Mozilla/5.0 (Macintosh; Intel Mac OS X 10_13_6) AppleWebKit/537.36 (KHTML, like Gecko) Chrome/79.0.3945.130 Safari/537.36",84,"[0.9, 0.5, 0.1]","[0.8, 0.4, 0.2]","[u'black', u'red', u'blue']","[u'left', u'middle', u'right']","[0.8, 0.4, 0.2]","[u'low', u'medium', u'high']","blue",51,"right","high","False","False",376,4350,NA
"A150GMV1YQWWB3","Wed Jan 29 2020 08:25:40 GMT-0500 (Eastern Standard Time)","Wed Jan 29 2020 08:34:16 GMT-0500 (Eastern Standard Time)","Mozilla/5.0 (Macintosh; Intel Mac OS X 10_13_6) AppleWebKit/537.36 (KHTML, like Gecko) Chrome/79.0.3945.130 Safari/537.36",85,"[0.9, 0.5, 0.1]","[0.8, 0.4, 0.2]","[u'black', u'red', u'blue']","[u'left', u'middle', u'right']","[0.8, 0.4, 0.2]","[u'low', u'medium', u'high']","black",49,"left","low","False","False",273,4300,NA
"A150GMV1YQWWB3","Wed Jan 29 2020 08:25:40 GMT-0500 (Eastern Standard Time)","Wed Jan 29 2020 08:34:16 GMT-0500 (Eastern Standard Time)","Mozilla/5.0 (Macintosh; Intel Mac OS X 10_13_6) AppleWebKit/537.36 (KHTML, like Gecko) Chrome/79.0.3945.130 Safari/537.36",86,"[0.9, 0.5, 0.1]","[0.8, 0.4, 0.2]","[u'black', u'red', u'blue']","[u'left', u'middle', u'right']","[0.8, 0.4, 0.2]","[u'low', u'medium', u'high']","red",50,"middle","medium","False","False",253,4250,NA
"A150GMV1YQWWB3","Wed Jan 29 2020 08:25:40 GMT-0500 (Eastern Standard Time)","Wed Jan 29 2020 08:34:16 GMT-0500 (Eastern Standard Time)","Mozilla/5.0 (Macintosh; Intel Mac OS X 10_13_6) AppleWebKit/537.36 (KHTML, like Gecko) Chrome/79.0.3945.130 Safari/537.36",87,"[0.9, 0.5, 0.1]","[0.8, 0.4, 0.2]","[u'black', u'red', u'blue']","[u'left', u'middle', u'right']","[0.8, 0.4, 0.2]","[u'low', u'medium', u'high']","red",50,"middle","medium","True","False",580,4350,NA
"A150GMV1YQWWB3","Wed Jan 29 2020 08:25:40 GMT-0500 (Eastern Standard Time)","Wed Jan 29 2020 08:34:16 GMT-0500 (Eastern Standard Time)","Mozilla/5.0 (Macintosh; Intel Mac OS X 10_13_6) AppleWebKit/537.36 (KHTML, like Gecko) Chrome/79.0.3945.130 Safari/537.36",88,"[0.9, 0.5, 0.1]","[0.8, 0.4, 0.2]","[u'black', u'red', u'blue']","[u'left', u'middle', u'right']","[0.8, 0.4, 0.2]","[u'low', u'medium', u'high']","red",50,"middle","medium","True","False",224,4450,NA
"A150GMV1YQWWB3","Wed Jan 29 2020 08:25:40 GMT-0500 (Eastern Standard Time)","Wed Jan 29 2020 08:34:16 GMT-0500 (Eastern Standard Time)","Mozilla/5.0 (Macintosh; Intel Mac OS X 10_13_6) AppleWebKit/537.36 (KHTML, like Gecko) Chrome/79.0.3945.130 Safari/537.36",89,"[0.9, 0.5, 0.1]","[0.8, 0.4, 0.2]","[u'black', u'red', u'blue']","[u'left', u'middle', u'right']","[0.8, 0.4, 0.2]","[u'low', u'medium', u'high']","red",50,"middle","medium","False","False",353,4400,NA
"A150GMV1YQWWB3","Wed Jan 29 2020 08:25:40 GMT-0500 (Eastern Standard Time)","Wed Jan 29 2020 08:34:16 GMT-0500 (Eastern Standard Time)","Mozilla/5.0 (Macintosh; Intel Mac OS X 10_13_6) AppleWebKit/537.36 (KHTML, like Gecko) Chrome/79.0.3945.130 Safari/537.36",90,"[0.9, 0.5, 0.1]","[0.8, 0.4, 0.2]","[u'black', u'red', u'blue']","[u'left', u'middle', u'right']","[0.8, 0.4, 0.2]","[u'low', u'medium', u'high']","red",50,"middle","medium","False","False",387,4350,NA
"A150GMV1YQWWB3","Wed Jan 29 2020 08:25:40 GMT-0500 (Eastern Standard Time)","Wed Jan 29 2020 08:34:16 GMT-0500 (Eastern Standard Time)","Mozilla/5.0 (Macintosh; Intel Mac OS X 10_13_6) AppleWebKit/537.36 (KHTML, like Gecko) Chrome/79.0.3945.130 Safari/537.36",91,"[0.9, 0.5, 0.1]","[0.8, 0.4, 0.2]","[u'black', u'red', u'blue']","[u'left', u'middle', u'right']","[0.8, 0.4, 0.2]","[u'low', u'medium', u'high']","blue",51,"right","high","True","False",251,4450,NA
"A150GMV1YQWWB3","Wed Jan 29 2020 08:25:40 GMT-0500 (Eastern Standard Time)","Wed Jan 29 2020 08:34:16 GMT-0500 (Eastern Standard Time)","Mozilla/5.0 (Macintosh; Intel Mac OS X 10_13_6) AppleWebKit/537.36 (KHTML, like Gecko) Chrome/79.0.3945.130 Safari/537.36",92,"[0.9, 0.5, 0.1]","[0.8, 0.4, 0.2]","[u'black', u'red', u'blue']","[u'left', u'middle', u'right']","[0.8, 0.4, 0.2]","[u'low', u'medium', u'high']","blue",51,"right","high","True","False",219,4550,NA
"A150GMV1YQWWB3","Wed Jan 29 2020 08:25:40 GMT-0500 (Eastern Standard Time)","Wed Jan 29 2020 08:34:16 GMT-0500 (Eastern Standard Time)","Mozilla/5.0 (Macintosh; Intel Mac OS X 10_13_6) AppleWebKit/537.36 (KHTML, like Gecko) Chrome/79.0.3945.130 Safari/537.36",93,"[0.9, 0.5, 0.1]","[0.8, 0.4, 0.2]","[u'black', u'red', u'blue']","[u'left', u'middle', u'right']","[0.8, 0.4, 0.2]","[u'low', u'medium', u'high']","blue",51,"right","high","True","False",178,4650,NA
"A150GMV1YQWWB3","Wed Jan 29 2020 08:25:40 GMT-0500 (Eastern Standard Time)","Wed Jan 29 2020 08:34:16 GMT-0500 (Eastern Standard Time)","Mozilla/5.0 (Macintosh; Intel Mac OS X 10_13_6) AppleWebKit/537.36 (KHTML, like Gecko) Chrome/79.0.3945.130 Safari/537.36",94,"[0.9, 0.5, 0.1]","[0.8, 0.4, 0.2]","[u'black', u'red', u'blue']","[u'left', u'middle', u'right']","[0.8, 0.4, 0.2]","[u'low', u'medium', u'high']","blue",51,"right","high","True","False",206,4750,NA
"A150GMV1YQWWB3","Wed Jan 29 2020 08:25:40 GMT-0500 (Eastern Standard Time)","Wed Jan 29 2020 08:34:16 GMT-0500 (Eastern Standard Time)","Mozilla/5.0 (Macintosh; Intel Mac OS X 10_13_6) AppleWebKit/537.36 (KHTML, like Gecko) Chrome/79.0.3945.130 Safari/537.36",95,"[0.9, 0.5, 0.1]","[0.8, 0.4, 0.2]","[u'black', u'red', u'blue']","[u'left', u'middle', u'right']","[0.8, 0.4, 0.2]","[u'low', u'medium', u'high']","blue",51,"right","high","False","False",374,4700,NA
"A150GMV1YQWWB3","Wed Jan 29 2020 08:25:40 GMT-0500 (Eastern Standard Time)","Wed Jan 29 2020 08:34:16 GMT-0500 (Eastern Standard Time)","Mozilla/5.0 (Macintosh; Intel Mac OS X 10_13_6) AppleWebKit/537.36 (KHTML, like Gecko) Chrome/79.0.3945.130 Safari/537.36",96,"[0.9, 0.5, 0.1]","[0.8, 0.4, 0.2]","[u'black', u'red', u'blue']","[u'left', u'middle', u'right']","[0.8, 0.4, 0.2]","[u'low', u'medium', u'high']","black",49,"left","low","False","False",274,4650,NA
"A150GMV1YQWWB3","Wed Jan 29 2020 08:25:40 GMT-0500 (Eastern Standard Time)","Wed Jan 29 2020 08:34:16 GMT-0500 (Eastern Standard Time)","Mozilla/5.0 (Macintosh; Intel Mac OS X 10_13_6) AppleWebKit/537.36 (KHTML, like Gecko) Chrome/79.0.3945.130 Safari/537.36",97,"[0.9, 0.5, 0.1]","[0.8, 0.4, 0.2]","[u'black', u'red', u'blue']","[u'left', u'middle', u'right']","[0.8, 0.4, 0.2]","[u'low', u'medium', u'high']","red",50,"middle","medium","False","False",374,4600,NA
"A150GMV1YQWWB3","Wed Jan 29 2020 08:25:40 GMT-0500 (Eastern Standard Time)","Wed Jan 29 2020 08:34:16 GMT-0500 (Eastern Standard Time)","Mozilla/5.0 (Macintosh; Intel Mac OS X 10_13_6) AppleWebKit/537.36 (KHTML, like Gecko) Chrome/79.0.3945.130 Safari/537.36",98,"[0.9, 0.5, 0.1]","[0.8, 0.4, 0.2]","[u'black', u'red', u'blue']","[u'left', u'middle', u'right']","[0.8, 0.4, 0.2]","[u'low', u'medium', u'high']","blue",51,"right","high","True","False",217,4700,NA
"A150GMV1YQWWB3","Wed Jan 29 2020 08:25:40 GMT-0500 (Eastern Standard Time)","Wed Jan 29 2020 08:34:16 GMT-0500 (Eastern Standard Time)","Mozilla/5.0 (Macintosh; Intel Mac OS X 10_13_6) AppleWebKit/537.36 (KHTML, like Gecko) Chrome/79.0.3945.130 Safari/537.36",99,"[0.9, 0.5, 0.1]","[0.8, 0.4, 0.2]","[u'black', u'red', u'blue']","[u'left', u'middle', u'right']","[0.8, 0.4, 0.2]","[u'low', u'medium', u'high']","blue",51,"right","high","True","False",76,4800,NA
"A150GMV1YQWWB3","Wed Jan 29 2020 08:25:40 GMT-0500 (Eastern Standard Time)","Wed Jan 29 2020 08:34:16 GMT-0500 (Eastern Standard Time)","Mozilla/5.0 (Macintosh; Intel Mac OS X 10_13_6) AppleWebKit/537.36 (KHTML, like Gecko) Chrome/79.0.3945.130 Safari/537.36",100,"[0.9, 0.5, 0.1]","[0.8, 0.4, 0.2]","[u'black', u'red', u'blue']","[u'left', u'middle', u'right']","[0.8, 0.4, 0.2]","[u'low', u'medium', u'high']","blue",51,"right","high","False","False",191,4750,NA
"A150GMV1YQWWB3","Wed Jan 29 2020 08:25:40 GMT-0500 (Eastern Standard Time)","Wed Jan 29 2020 08:34:16 GMT-0500 (Eastern Standard Time)","Mozilla/5.0 (Macintosh; Intel Mac OS X 10_13_6) AppleWebKit/537.36 (KHTML, like Gecko) Chrome/79.0.3945.130 Safari/537.36",101,"[0.9, 0.5, 0.1]","[0.8, 0.4, 0.2]","[u'black', u'red', u'blue']","[u'left', u'middle', u'right']","[0.8, 0.4, 0.2]","[u'low', u'medium', u'high']","blue",51,"right","high","False","False",104,4700,NA
"A150GMV1YQWWB3","Wed Jan 29 2020 08:25:40 GMT-0500 (Eastern Standard Time)","Wed Jan 29 2020 08:34:16 GMT-0500 (Eastern Standard Time)","Mozilla/5.0 (Macintosh; Intel Mac OS X 10_13_6) AppleWebKit/537.36 (KHTML, like Gecko) Chrome/79.0.3945.130 Safari/537.36",102,"[0.9, 0.5, 0.1]","[0.8, 0.4, 0.2]","[u'black', u'red', u'blue']","[u'left', u'middle', u'right']","[0.8, 0.4, 0.2]","[u'low', u'medium', u'high']","blue",51,"right","high","True","False",257,4800,NA
"A150GMV1YQWWB3","Wed Jan 29 2020 08:25:40 GMT-0500 (Eastern Standard Time)","Wed Jan 29 2020 08:34:16 GMT-0500 (Eastern Standard Time)","Mozilla/5.0 (Macintosh; Intel Mac OS X 10_13_6) AppleWebKit/537.36 (KHTML, like Gecko) Chrome/79.0.3945.130 Safari/537.36",103,"[0.9, 0.5, 0.1]","[0.8, 0.4, 0.2]","[u'black', u'red', u'blue']","[u'left', u'middle', u'right']","[0.8, 0.4, 0.2]","[u'low', u'medium', u'high']","blue",51,"right","high","True","False",145,4900,NA
"A150GMV1YQWWB3","Wed Jan 29 2020 08:25:40 GMT-0500 (Eastern Standard Time)","Wed Jan 29 2020 08:34:16 GMT-0500 (Eastern Standard Time)","Mozilla/5.0 (Macintosh; Intel Mac OS X 10_13_6) AppleWebKit/537.36 (KHTML, like Gecko) Chrome/79.0.3945.130 Safari/537.36",104,"[0.9, 0.5, 0.1]","[0.8, 0.4, 0.2]","[u'black', u'red', u'blue']","[u'left', u'middle', u'right']","[0.8, 0.4, 0.2]","[u'low', u'medium', u'high']","blue",51,"right","high","True","False",357,5000,NA
"A150GMV1YQWWB3","Wed Jan 29 2020 08:25:40 GMT-0500 (Eastern Standard Time)","Wed Jan 29 2020 08:34:16 GMT-0500 (Eastern Standard Time)","Mozilla/5.0 (Macintosh; Intel Mac OS X 10_13_6) AppleWebKit/537.36 (KHTML, like Gecko) Chrome/79.0.3945.130 Safari/537.36",105,"[0.9, 0.5, 0.1]","[0.8, 0.4, 0.2]","[u'black', u'red', u'blue']","[u'left', u'middle', u'right']","[0.8, 0.4, 0.2]","[u'low', u'medium', u'high']","blue",51,"right","high","True","False",303,5100,NA
"A150GMV1YQWWB3","Wed Jan 29 2020 08:25:40 GMT-0500 (Eastern Standard Time)","Wed Jan 29 2020 08:34:16 GMT-0500 (Eastern Standard Time)","Mozilla/5.0 (Macintosh; Intel Mac OS X 10_13_6) AppleWebKit/537.36 (KHTML, like Gecko) Chrome/79.0.3945.130 Safari/537.36",106,"[0.9, 0.5, 0.1]","[0.8, 0.4, 0.2]","[u'black', u'red', u'blue']","[u'left', u'middle', u'right']","[0.8, 0.4, 0.2]","[u'low', u'medium', u'high']","blue",51,"right","high","True","True",355,5200,NA
"A150GMV1YQWWB3","Wed Jan 29 2020 08:25:40 GMT-0500 (Eastern Standard Time)","Wed Jan 29 2020 08:34:16 GMT-0500 (Eastern Standard Time)","Mozilla/5.0 (Macintosh; Intel Mac OS X 10_13_6) AppleWebKit/537.36 (KHTML, like Gecko) Chrome/79.0.3945.130 Safari/537.36",107,"[0.9, 0.5, 0.1]","[0.8, 0.4, 0.2]","[u'black', u'red', u'blue']","[u'left', u'middle', u'right']","[0.8, 0.4, 0.2]","[u'low', u'high', u'medium']","blue",51,"right","medium","True","False",376,5300,NA
"A150GMV1YQWWB3","Wed Jan 29 2020 08:25:40 GMT-0500 (Eastern Standard Time)","Wed Jan 29 2020 08:34:16 GMT-0500 (Eastern Standard Time)","Mozilla/5.0 (Macintosh; Intel Mac OS X 10_13_6) AppleWebKit/537.36 (KHTML, like Gecko) Chrome/79.0.3945.130 Safari/537.36",108,"[0.9, 0.5, 0.1]","[0.8, 0.4, 0.2]","[u'black', u'red', u'blue']","[u'left', u'middle', u'right']","[0.8, 0.4, 0.2]","[u'low', u'high', u'medium']","blue",51,"right","medium","True","False",353,5400,NA
"A150GMV1YQWWB3","Wed Jan 29 2020 08:25:40 GMT-0500 (Eastern Standard Time)","Wed Jan 29 2020 08:34:16 GMT-0500 (Eastern Standard Time)","Mozilla/5.0 (Macintosh; Intel Mac OS X 10_13_6) AppleWebKit/537.36 (KHTML, like Gecko) Chrome/79.0.3945.130 Safari/537.36",109,"[0.9, 0.5, 0.1]","[0.8, 0.4, 0.2]","[u'black', u'red', u'blue']","[u'left', u'middle', u'right']","[0.8, 0.4, 0.2]","[u'low', u'high', u'medium']","blue",51,"right","medium","True","False",322,5500,NA
"A150GMV1YQWWB3","Wed Jan 29 2020 08:25:40 GMT-0500 (Eastern Standard Time)","Wed Jan 29 2020 08:34:16 GMT-0500 (Eastern Standard Time)","Mozilla/5.0 (Macintosh; Intel Mac OS X 10_13_6) AppleWebKit/537.36 (KHTML, like Gecko) Chrome/79.0.3945.130 Safari/537.36",110,"[0.9, 0.5, 0.1]","[0.8, 0.4, 0.2]","[u'black', u'red', u'blue']","[u'left', u'middle', u'right']","[0.8, 0.4, 0.2]","[u'low', u'high', u'medium']","blue",51,"right","medium","True","False",293,5600,NA
"A150GMV1YQWWB3","Wed Jan 29 2020 08:25:40 GMT-0500 (Eastern Standard Time)","Wed Jan 29 2020 08:34:16 GMT-0500 (Eastern Standard Time)","Mozilla/5.0 (Macintosh; Intel Mac OS X 10_13_6) AppleWebKit/537.36 (KHTML, like Gecko) Chrome/79.0.3945.130 Safari/537.36",111,"[0.9, 0.5, 0.1]","[0.8, 0.4, 0.2]","[u'black', u'red', u'blue']","[u'left', u'middle', u'right']","[0.8, 0.4, 0.2]","[u'low', u'high', u'medium']","blue",51,"right","medium","False","False",334,5550,NA
"A150GMV1YQWWB3","Wed Jan 29 2020 08:25:40 GMT-0500 (Eastern Standard Time)","Wed Jan 29 2020 08:34:16 GMT-0500 (Eastern Standard Time)","Mozilla/5.0 (Macintosh; Intel Mac OS X 10_13_6) AppleWebKit/537.36 (KHTML, like Gecko) Chrome/79.0.3945.130 Safari/537.36",112,"[0.9, 0.5, 0.1]","[0.8, 0.4, 0.2]","[u'black', u'red', u'blue']","[u'left', u'middle', u'right']","[0.8, 0.4, 0.2]","[u'low', u'high', u'medium']","red",50,"middle","high","True","False",310,5650,NA
"A150GMV1YQWWB3","Wed Jan 29 2020 08:25:40 GMT-0500 (Eastern Standard Time)","Wed Jan 29 2020 08:34:16 GMT-0500 (Eastern Standard Time)","Mozilla/5.0 (Macintosh; Intel Mac OS X 10_13_6) AppleWebKit/537.36 (KHTML, like Gecko) Chrome/79.0.3945.130 Safari/537.36",113,"[0.9, 0.5, 0.1]","[0.8, 0.4, 0.2]","[u'black', u'red', u'blue']","[u'left', u'middle', u'right']","[0.8, 0.4, 0.2]","[u'low', u'high', u'medium']","red",50,"middle","high","True","False",315,5750,NA
"A150GMV1YQWWB3","Wed Jan 29 2020 08:25:40 GMT-0500 (Eastern Standard Time)","Wed Jan 29 2020 08:34:16 GMT-0500 (Eastern Standard Time)","Mozilla/5.0 (Macintosh; Intel Mac OS X 10_13_6) AppleWebKit/537.36 (KHTML, like Gecko) Chrome/79.0.3945.130 Safari/537.36",114,"[0.9, 0.5, 0.1]","[0.8, 0.4, 0.2]","[u'black', u'red', u'blue']","[u'left', u'middle', u'right']","[0.8, 0.4, 0.2]","[u'low', u'high', u'medium']","red",50,"middle","high","True","False",394,5850,NA
"A150GMV1YQWWB3","Wed Jan 29 2020 08:25:40 GMT-0500 (Eastern Standard Time)","Wed Jan 29 2020 08:34:16 GMT-0500 (Eastern Standard Time)","Mozilla/5.0 (Macintosh; Intel Mac OS X 10_13_6) AppleWebKit/537.36 (KHTML, like Gecko) Chrome/79.0.3945.130 Safari/537.36",115,"[0.9, 0.5, 0.1]","[0.8, 0.4, 0.2]","[u'black', u'red', u'blue']","[u'left', u'middle', u'right']","[0.8, 0.4, 0.2]","[u'low', u'high', u'medium']","red",50,"middle","high","False","False",308,5800,NA
"A150GMV1YQWWB3","Wed Jan 29 2020 08:25:40 GMT-0500 (Eastern Standard Time)","Wed Jan 29 2020 08:34:16 GMT-0500 (Eastern Standard Time)","Mozilla/5.0 (Macintosh; Intel Mac OS X 10_13_6) AppleWebKit/537.36 (KHTML, like Gecko) Chrome/79.0.3945.130 Safari/537.36",116,"[0.9, 0.5, 0.1]","[0.8, 0.4, 0.2]","[u'black', u'red', u'blue']","[u'left', u'middle', u'right']","[0.8, 0.4, 0.2]","[u'low', u'high', u'medium']","red",50,"middle","high","True","False",271,5900,NA
"A150GMV1YQWWB3","Wed Jan 29 2020 08:25:40 GMT-0500 (Eastern Standard Time)","Wed Jan 29 2020 08:34:16 GMT-0500 (Eastern Standard Time)","Mozilla/5.0 (Macintosh; Intel Mac OS X 10_13_6) AppleWebKit/537.36 (KHTML, like Gecko) Chrome/79.0.3945.130 Safari/537.36",117,"[0.9, 0.5, 0.1]","[0.8, 0.4, 0.2]","[u'black', u'red', u'blue']","[u'left', u'middle', u'right']","[0.8, 0.4, 0.2]","[u'low', u'high', u'medium']","red",50,"middle","high","True","False",345,6000,NA
"A150GMV1YQWWB3","Wed Jan 29 2020 08:25:40 GMT-0500 (Eastern Standard Time)","Wed Jan 29 2020 08:34:16 GMT-0500 (Eastern Standard Time)","Mozilla/5.0 (Macintosh; Intel Mac OS X 10_13_6) AppleWebKit/537.36 (KHTML, like Gecko) Chrome/79.0.3945.130 Safari/537.36",118,"[0.9, 0.5, 0.1]","[0.8, 0.4, 0.2]","[u'black', u'red', u'blue']","[u'left', u'middle', u'right']","[0.8, 0.4, 0.2]","[u'low', u'high', u'medium']","red",50,"middle","high","True","False",131,6100,NA
"A150GMV1YQWWB3","Wed Jan 29 2020 08:25:40 GMT-0500 (Eastern Standard Time)","Wed Jan 29 2020 08:34:16 GMT-0500 (Eastern Standard Time)","Mozilla/5.0 (Macintosh; Intel Mac OS X 10_13_6) AppleWebKit/537.36 (KHTML, like Gecko) Chrome/79.0.3945.130 Safari/537.36",119,"[0.9, 0.5, 0.1]","[0.8, 0.4, 0.2]","[u'black', u'red', u'blue']","[u'left', u'middle', u'right']","[0.8, 0.4, 0.2]","[u'low', u'high', u'medium']","red",50,"middle","high","False","False",337,6050,NA
"A150GMV1YQWWB3","Wed Jan 29 2020 08:25:40 GMT-0500 (Eastern Standard Time)","Wed Jan 29 2020 08:34:16 GMT-0500 (Eastern Standard Time)","Mozilla/5.0 (Macintosh; Intel Mac OS X 10_13_6) AppleWebKit/537.36 (KHTML, like Gecko) Chrome/79.0.3945.130 Safari/537.36",120,"[0.9, 0.5, 0.1]","[0.8, 0.4, 0.2]","[u'black', u'red', u'blue']","[u'left', u'middle', u'right']","[0.8, 0.4, 0.2]","[u'low', u'high', u'medium']","blue",51,"right","medium","True","False",170,6150,NA
"A150GMV1YQWWB3","Wed Jan 29 2020 08:25:40 GMT-0500 (Eastern Standard Time)","Wed Jan 29 2020 08:34:16 GMT-0500 (Eastern Standard Time)","Mozilla/5.0 (Macintosh; Intel Mac OS X 10_13_6) AppleWebKit/537.36 (KHTML, like Gecko) Chrome/79.0.3945.130 Safari/537.36",121,"[0.9, 0.5, 0.1]","[0.8, 0.4, 0.2]","[u'black', u'red', u'blue']","[u'left', u'middle', u'right']","[0.8, 0.4, 0.2]","[u'high', u'low', u'medium']","red",50,"middle","low","False","False",348,6100,NA
"A150GMV1YQWWB3","Wed Jan 29 2020 08:25:40 GMT-0500 (Eastern Standard Time)","Wed Jan 29 2020 08:34:16 GMT-0500 (Eastern Standard Time)","Mozilla/5.0 (Macintosh; Intel Mac OS X 10_13_6) AppleWebKit/537.36 (KHTML, like Gecko) Chrome/79.0.3945.130 Safari/537.36",122,"[0.9, 0.5, 0.1]","[0.8, 0.4, 0.2]","[u'black', u'red', u'blue']","[u'left', u'middle', u'right']","[0.8, 0.4, 0.2]","[u'high', u'low', u'medium']","red",50,"middle","low","False","False",339,6050,NA
"A150GMV1YQWWB3","Wed Jan 29 2020 08:25:40 GMT-0500 (Eastern Standard Time)","Wed Jan 29 2020 08:34:16 GMT-0500 (Eastern Standard Time)","Mozilla/5.0 (Macintosh; Intel Mac OS X 10_13_6) AppleWebKit/537.36 (KHTML, like Gecko) Chrome/79.0.3945.130 Safari/537.36",123,"[0.9, 0.5, 0.1]","[0.8, 0.4, 0.2]","[u'black', u'red', u'blue']","[u'left', u'middle', u'right']","[0.8, 0.4, 0.2]","[u'high', u'low', u'medium']","blue",51,"right","medium","True","False",305,6150,NA
"A150GMV1YQWWB3","Wed Jan 29 2020 08:25:40 GMT-0500 (Eastern Standard Time)","Wed Jan 29 2020 08:34:16 GMT-0500 (Eastern Standard Time)","Mozilla/5.0 (Macintosh; Intel Mac OS X 10_13_6) AppleWebKit/537.36 (KHTML, like Gecko) Chrome/79.0.3945.130 Safari/537.36",124,"[0.9, 0.5, 0.1]","[0.8, 0.4, 0.2]","[u'black', u'red', u'blue']","[u'left', u'middle', u'right']","[0.8, 0.4, 0.2]","[u'high', u'low', u'medium']","blue",51,"right","medium","True","False",285,6250,NA
"A150GMV1YQWWB3","Wed Jan 29 2020 08:25:40 GMT-0500 (Eastern Standard Time)","Wed Jan 29 2020 08:34:16 GMT-0500 (Eastern Standard Time)","Mozilla/5.0 (Macintosh; Intel Mac OS X 10_13_6) AppleWebKit/537.36 (KHTML, like Gecko) Chrome/79.0.3945.130 Safari/537.36",125,"[0.9, 0.5, 0.1]","[0.8, 0.4, 0.2]","[u'black', u'red', u'blue']","[u'left', u'middle', u'right']","[0.8, 0.4, 0.2]","[u'high', u'low', u'medium']","blue",51,"right","medium","False","False",1112,6200,NA
"A150GMV1YQWWB3","Wed Jan 29 2020 08:25:40 GMT-0500 (Eastern Standard Time)","Wed Jan 29 2020 08:34:16 GMT-0500 (Eastern Standard Time)","Mozilla/5.0 (Macintosh; Intel Mac OS X 10_13_6) AppleWebKit/537.36 (KHTML, like Gecko) Chrome/79.0.3945.130 Safari/537.36",126,"[0.9, 0.5, 0.1]","[0.8, 0.4, 0.2]","[u'black', u'red', u'blue']","[u'left', u'middle', u'right']","[0.8, 0.4, 0.2]","[u'high', u'low', u'medium']","red",50,"middle","low","False","False",343,6150,NA
"A150GMV1YQWWB3","Wed Jan 29 2020 08:25:40 GMT-0500 (Eastern Standard Time)","Wed Jan 29 2020 08:34:16 GMT-0500 (Eastern Standard Time)","Mozilla/5.0 (Macintosh; Intel Mac OS X 10_13_6) AppleWebKit/537.36 (KHTML, like Gecko) Chrome/79.0.3945.130 Safari/537.36",127,"[0.9, 0.5, 0.1]","[0.8, 0.4, 0.2]","[u'black', u'red', u'blue']","[u'left', u'middle', u'right']","[0.8, 0.4, 0.2]","[u'high', u'low', u'medium']","black",49,"left","high","True","False",13,6250,NA
"A150GMV1YQWWB3","Wed Jan 29 2020 08:25:40 GMT-0500 (Eastern Standard Time)","Wed Jan 29 2020 08:34:16 GMT-0500 (Eastern Standard Time)","Mozilla/5.0 (Macintosh; Intel Mac OS X 10_13_6) AppleWebKit/537.36 (KHTML, like Gecko) Chrome/79.0.3945.130 Safari/537.36",128,"[0.9, 0.5, 0.1]","[0.8, 0.4, 0.2]","[u'black', u'red', u'blue']","[u'left', u'middle', u'right']","[0.8, 0.4, 0.2]","[u'high', u'low', u'medium']","black",49,"left","high","True","False",97,6350,NA
"A150GMV1YQWWB3","Wed Jan 29 2020 08:25:40 GMT-0500 (Eastern Standard Time)","Wed Jan 29 2020 08:34:16 GMT-0500 (Eastern Standard Time)","Mozilla/5.0 (Macintosh; Intel Mac OS X 10_13_6) AppleWebKit/537.36 (KHTML, like Gecko) Chrome/79.0.3945.130 Safari/537.36",129,"[0.9, 0.5, 0.1]","[0.8, 0.4, 0.2]","[u'black', u'red', u'blue']","[u'left', u'middle', u'right']","[0.8, 0.4, 0.2]","[u'high', u'low', u'medium']","black",49,"left","high","True","False",170,6450,NA
"A150GMV1YQWWB3","Wed Jan 29 2020 08:25:40 GMT-0500 (Eastern Standard Time)","Wed Jan 29 2020 08:34:16 GMT-0500 (Eastern Standard Time)","Mozilla/5.0 (Macintosh; Intel Mac OS X 10_13_6) AppleWebKit/537.36 (KHTML, like Gecko) Chrome/79.0.3945.130 Safari/537.36",130,"[0.9, 0.5, 0.1]","[0.8, 0.4, 0.2]","[u'black', u'red', u'blue']","[u'left', u'middle', u'right']","[0.8, 0.4, 0.2]","[u'high', u'low', u'medium']","black",49,"left","high","True","False",242,6550,NA
"A150GMV1YQWWB3","Wed Jan 29 2020 08:25:40 GMT-0500 (Eastern Standard Time)","Wed Jan 29 2020 08:34:16 GMT-0500 (Eastern Standard Time)","Mozilla/5.0 (Macintosh; Intel Mac OS X 10_13_6) AppleWebKit/537.36 (KHTML, like Gecko) Chrome/79.0.3945.130 Safari/537.36",131,"[0.9, 0.5, 0.1]","[0.8, 0.4, 0.2]","[u'black', u'red', u'blue']","[u'left', u'middle', u'right']","[0.8, 0.4, 0.2]","[u'high', u'low', u'medium']","black",49,"left","high","True","False",291,6650,NA
"A150GMV1YQWWB3","Wed Jan 29 2020 08:25:40 GMT-0500 (Eastern Standard Time)","Wed Jan 29 2020 08:34:16 GMT-0500 (Eastern Standard Time)","Mozilla/5.0 (Macintosh; Intel Mac OS X 10_13_6) AppleWebKit/537.36 (KHTML, like Gecko) Chrome/79.0.3945.130 Safari/537.36",132,"[0.9, 0.5, 0.1]","[0.8, 0.4, 0.2]","[u'black', u'red', u'blue']","[u'left', u'middle', u'right']","[0.8, 0.4, 0.2]","[u'high', u'low', u'medium']","black",49,"left","high","False","False",312,6600,NA
"A150GMV1YQWWB3","Wed Jan 29 2020 08:25:40 GMT-0500 (Eastern Standard Time)","Wed Jan 29 2020 08:34:16 GMT-0500 (Eastern Standard Time)","Mozilla/5.0 (Macintosh; Intel Mac OS X 10_13_6) AppleWebKit/537.36 (KHTML, like Gecko) Chrome/79.0.3945.130 Safari/537.36",133,"[0.9, 0.5, 0.1]","[0.8, 0.4, 0.2]","[u'black', u'red', u'blue']","[u'left', u'middle', u'right']","[0.8, 0.4, 0.2]","[u'high', u'low', u'medium']","red",50,"middle","low","False","False",261,6550,NA
"A150GMV1YQWWB3","Wed Jan 29 2020 08:25:40 GMT-0500 (Eastern Standard Time)","Wed Jan 29 2020 08:34:16 GMT-0500 (Eastern Standard Time)","Mozilla/5.0 (Macintosh; Intel Mac OS X 10_13_6) AppleWebKit/537.36 (KHTML, like Gecko) Chrome/79.0.3945.130 Safari/537.36",134,"[0.9, 0.5, 0.1]","[0.8, 0.4, 0.2]","[u'black', u'red', u'blue']","[u'left', u'middle', u'right']","[0.8, 0.4, 0.2]","[u'high', u'low', u'medium']","black",49,"left","high","True","False",297,6650,NA
"A150GMV1YQWWB3","Wed Jan 29 2020 08:25:40 GMT-0500 (Eastern Standard Time)","Wed Jan 29 2020 08:34:16 GMT-0500 (Eastern Standard Time)","Mozilla/5.0 (Macintosh; Intel Mac OS X 10_13_6) AppleWebKit/537.36 (KHTML, like Gecko) Chrome/79.0.3945.130 Safari/537.36",135,"[0.9, 0.5, 0.1]","[0.8, 0.4, 0.2]","[u'black', u'red', u'blue']","[u'left', u'middle', u'right']","[0.8, 0.4, 0.2]","[u'high', u'low', u'medium']","black",49,"left","high","False","False",208,6600,NA
"A150GMV1YQWWB3","Wed Jan 29 2020 08:25:40 GMT-0500 (Eastern Standard Time)","Wed Jan 29 2020 08:34:16 GMT-0500 (Eastern Standard Time)","Mozilla/5.0 (Macintosh; Intel Mac OS X 10_13_6) AppleWebKit/537.36 (KHTML, like Gecko) Chrome/79.0.3945.130 Safari/537.36",136,"[0.9, 0.5, 0.1]","[0.8, 0.4, 0.2]","[u'black', u'red', u'blue']","[u'left', u'middle', u'right']","[0.8, 0.4, 0.2]","[u'high', u'low', u'medium']","red",50,"middle","low","False","False",120,6550,NA
"A150GMV1YQWWB3","Wed Jan 29 2020 08:25:40 GMT-0500 (Eastern Standard Time)","Wed Jan 29 2020 08:34:16 GMT-0500 (Eastern Standard Time)","Mozilla/5.0 (Macintosh; Intel Mac OS X 10_13_6) AppleWebKit/537.36 (KHTML, like Gecko) Chrome/79.0.3945.130 Safari/537.36",137,"[0.9, 0.5, 0.1]","[0.8, 0.4, 0.2]","[u'black', u'red', u'blue']","[u'left', u'middle', u'right']","[0.8, 0.4, 0.2]","[u'high', u'low', u'medium']","blue",51,"right","medium","False","False",199,6500,NA
"A150GMV1YQWWB3","Wed Jan 29 2020 08:25:40 GMT-0500 (Eastern Standard Time)","Wed Jan 29 2020 08:34:16 GMT-0500 (Eastern Standard Time)","Mozilla/5.0 (Macintosh; Intel Mac OS X 10_13_6) AppleWebKit/537.36 (KHTML, like Gecko) Chrome/79.0.3945.130 Safari/537.36",138,"[0.9, 0.5, 0.1]","[0.8, 0.4, 0.2]","[u'black', u'red', u'blue']","[u'left', u'middle', u'right']","[0.8, 0.4, 0.2]","[u'high', u'low', u'medium']","blue",51,"right","medium","False","False",92,6450,NA
"A150GMV1YQWWB3","Wed Jan 29 2020 08:25:40 GMT-0500 (Eastern Standard Time)","Wed Jan 29 2020 08:34:16 GMT-0500 (Eastern Standard Time)","Mozilla/5.0 (Macintosh; Intel Mac OS X 10_13_6) AppleWebKit/537.36 (KHTML, like Gecko) Chrome/79.0.3945.130 Safari/537.36",139,"[0.9, 0.5, 0.1]","[0.8, 0.4, 0.2]","[u'black', u'red', u'blue']","[u'left', u'middle', u'right']","[0.8, 0.4, 0.2]","[u'high', u'low', u'medium']","red",50,"middle","low","False","False",241,6400,NA
"A150GMV1YQWWB3","Wed Jan 29 2020 08:25:40 GMT-0500 (Eastern Standard Time)","Wed Jan 29 2020 08:34:16 GMT-0500 (Eastern Standard Time)","Mozilla/5.0 (Macintosh; Intel Mac OS X 10_13_6) AppleWebKit/537.36 (KHTML, like Gecko) Chrome/79.0.3945.130 Safari/537.36",140,"[0.9, 0.5, 0.1]","[0.8, 0.4, 0.2]","[u'black', u'red', u'blue']","[u'left', u'middle', u'right']","[0.8, 0.4, 0.2]","[u'high', u'low', u'medium']","black",49,"left","high","True","False",105,6500,NA
"A150GMV1YQWWB3","Wed Jan 29 2020 08:25:40 GMT-0500 (Eastern Standard Time)","Wed Jan 29 2020 08:34:16 GMT-0500 (Eastern Standard Time)","Mozilla/5.0 (Macintosh; Intel Mac OS X 10_13_6) AppleWebKit/537.36 (KHTML, like Gecko) Chrome/79.0.3945.130 Safari/537.36",141,"[0.9, 0.5, 0.1]","[0.8, 0.4, 0.2]","[u'black', u'red', u'blue']","[u'left', u'middle', u'right']","[0.8, 0.4, 0.2]","[u'high', u'low', u'medium']","black",49,"left","high","True","False",213,6600,NA
"A150GMV1YQWWB3","Wed Jan 29 2020 08:25:40 GMT-0500 (Eastern Standard Time)","Wed Jan 29 2020 08:34:16 GMT-0500 (Eastern Standard Time)","Mozilla/5.0 (Macintosh; Intel Mac OS X 10_13_6) AppleWebKit/537.36 (KHTML, like Gecko) Chrome/79.0.3945.130 Safari/537.36",142,"[0.9, 0.5, 0.1]","[0.8, 0.4, 0.2]","[u'black', u'red', u'blue']","[u'left', u'middle', u'right']","[0.8, 0.4, 0.2]","[u'high', u'low', u'medium']","black",49,"left","high","False","False",206,6550,NA
"A150GMV1YQWWB3","Wed Jan 29 2020 08:25:40 GMT-0500 (Eastern Standard Time)","Wed Jan 29 2020 08:34:16 GMT-0500 (Eastern Standard Time)","Mozilla/5.0 (Macintosh; Intel Mac OS X 10_13_6) AppleWebKit/537.36 (KHTML, like Gecko) Chrome/79.0.3945.130 Safari/537.36",143,"[0.9, 0.5, 0.1]","[0.8, 0.4, 0.2]","[u'black', u'red', u'blue']","[u'left', u'middle', u'right']","[0.8, 0.4, 0.2]","[u'high', u'low', u'medium']","black",49,"left","high","True","False",374,6650,NA
"A150GMV1YQWWB3","Wed Jan 29 2020 08:25:40 GMT-0500 (Eastern Standard Time)","Wed Jan 29 2020 08:34:16 GMT-0500 (Eastern Standard Time)","Mozilla/5.0 (Macintosh; Intel Mac OS X 10_13_6) AppleWebKit/537.36 (KHTML, like Gecko) Chrome/79.0.3945.130 Safari/537.36",144,"[0.9, 0.5, 0.1]","[0.8, 0.4, 0.2]","[u'black', u'red', u'blue']","[u'left', u'middle', u'right']","[0.8, 0.4, 0.2]","[u'high', u'low', u'medium']","black",49,"left","high","True","False",160,6750,NA
"A150GMV1YQWWB3","Wed Jan 29 2020 08:25:40 GMT-0500 (Eastern Standard Time)","Wed Jan 29 2020 08:34:16 GMT-0500 (Eastern Standard Time)","Mozilla/5.0 (Macintosh; Intel Mac OS X 10_13_6) AppleWebKit/537.36 (KHTML, like Gecko) Chrome/79.0.3945.130 Safari/537.36",145,"[0.9, 0.5, 0.1]","[0.8, 0.4, 0.2]","[u'black', u'red', u'blue']","[u'left', u'middle', u'right']","[0.8, 0.4, 0.2]","[u'high', u'low', u'medium']","black",49,"left","high","False","False",322,6700,NA
"A150GMV1YQWWB3","Wed Jan 29 2020 08:25:40 GMT-0500 (Eastern Standard Time)","Wed Jan 29 2020 08:34:16 GMT-0500 (Eastern Standard Time)","Mozilla/5.0 (Macintosh; Intel Mac OS X 10_13_6) AppleWebKit/537.36 (KHTML, like Gecko) Chrome/79.0.3945.130 Safari/537.36",146,"[0.9, 0.5, 0.1]","[0.8, 0.4, 0.2]","[u'black', u'red', u'blue']","[u'left', u'middle', u'right']","[0.8, 0.4, 0.2]","[u'high', u'low', u'medium']","black",49,"left","high","True","False",495,6800,NA
"A150GMV1YQWWB3","Wed Jan 29 2020 08:25:40 GMT-0500 (Eastern Standard Time)","Wed Jan 29 2020 08:34:16 GMT-0500 (Eastern Standard Time)","Mozilla/5.0 (Macintosh; Intel Mac OS X 10_13_6) AppleWebKit/537.36 (KHTML, like Gecko) Chrome/79.0.3945.130 Safari/537.36",147,"[0.9, 0.5, 0.1]","[0.8, 0.4, 0.2]","[u'black', u'red', u'blue']","[u'left', u'middle', u'right']","[0.8, 0.4, 0.2]","[u'high', u'low', u'medium']","black",49,"left","high","True","False",322,6900,NA
"A150GMV1YQWWB3","Wed Jan 29 2020 08:25:40 GMT-0500 (Eastern Standard Time)","Wed Jan 29 2020 08:34:16 GMT-0500 (Eastern Standard Time)","Mozilla/5.0 (Macintosh; Intel Mac OS X 10_13_6) AppleWebKit/537.36 (KHTML, like Gecko) Chrome/79.0.3945.130 Safari/537.36",148,"[0.9, 0.5, 0.1]","[0.8, 0.4, 0.2]","[u'black', u'red', u'blue']","[u'left', u'middle', u'right']","[0.8, 0.4, 0.2]","[u'high', u'low', u'medium']","black",49,"left","high","True","True",128,7000,NA
"A150GMV1YQWWB3","Wed Jan 29 2020 08:25:40 GMT-0500 (Eastern Standard Time)","Wed Jan 29 2020 08:34:16 GMT-0500 (Eastern Standard Time)","Mozilla/5.0 (Macintosh; Intel Mac OS X 10_13_6) AppleWebKit/537.36 (KHTML, like Gecko) Chrome/79.0.3945.130 Safari/537.36",149,"[0.9, 0.5, 0.1]","[0.8, 0.4, 0.2]","[u'black', u'red', u'blue']","[u'left', u'middle', u'right']","[0.8, 0.4, 0.2]","[u'low', u'medium', u'high']","red",50,"middle","medium","False","False",323,6950,NA
"A150GMV1YQWWB3","Wed Jan 29 2020 08:25:40 GMT-0500 (Eastern Standard Time)","Wed Jan 29 2020 08:34:16 GMT-0500 (Eastern Standard Time)","Mozilla/5.0 (Macintosh; Intel Mac OS X 10_13_6) AppleWebKit/537.36 (KHTML, like Gecko) Chrome/79.0.3945.130 Safari/537.36",150,"[0.9, 0.5, 0.1]","[0.8, 0.4, 0.2]","[u'black', u'red', u'blue']","[u'left', u'middle', u'right']","[0.8, 0.4, 0.2]","[u'low', u'medium', u'high']","black",49,"left","low","True","False",286,7050,NA
"A150GMV1YQWWB3","Wed Jan 29 2020 08:25:40 GMT-0500 (Eastern Standard Time)","Wed Jan 29 2020 08:34:16 GMT-0500 (Eastern Standard Time)","Mozilla/5.0 (Macintosh; Intel Mac OS X 10_13_6) AppleWebKit/537.36 (KHTML, like Gecko) Chrome/79.0.3945.130 Safari/537.36",151,"[0.9, 0.5, 0.1]","[0.8, 0.4, 0.2]","[u'black', u'red', u'blue']","[u'left', u'middle', u'right']","[0.8, 0.4, 0.2]","[u'low', u'medium', u'high']","black",49,"left","low","False","False",886,7000,NA
"A150GMV1YQWWB3","Wed Jan 29 2020 08:25:40 GMT-0500 (Eastern Standard Time)","Wed Jan 29 2020 08:34:16 GMT-0500 (Eastern Standard Time)","Mozilla/5.0 (Macintosh; Intel Mac OS X 10_13_6) AppleWebKit/537.36 (KHTML, like Gecko) Chrome/79.0.3945.130 Safari/537.36",152,"[0.9, 0.5, 0.1]","[0.8, 0.4, 0.2]","[u'black', u'red', u'blue']","[u'left', u'middle', u'right']","[0.8, 0.4, 0.2]","[u'low', u'medium', u'high']","red",50,"middle","medium","False","False",149,6950,NA
"A150GMV1YQWWB3","Wed Jan 29 2020 08:25:40 GMT-0500 (Eastern Standard Time)","Wed Jan 29 2020 08:34:16 GMT-0500 (Eastern Standard Time)","Mozilla/5.0 (Macintosh; Intel Mac OS X 10_13_6) AppleWebKit/537.36 (KHTML, like Gecko) Chrome/79.0.3945.130 Safari/537.36",153,"[0.9, 0.5, 0.1]","[0.8, 0.4, 0.2]","[u'black', u'red', u'blue']","[u'left', u'middle', u'right']","[0.8, 0.4, 0.2]","[u'low', u'medium', u'high']","blue",51,"right","high","True","False",19,7050,NA
"A150GMV1YQWWB3","Wed Jan 29 2020 08:25:40 GMT-0500 (Eastern Standard Time)","Wed Jan 29 2020 08:34:16 GMT-0500 (Eastern Standard Time)","Mozilla/5.0 (Macintosh; Intel Mac OS X 10_13_6) AppleWebKit/537.36 (KHTML, like Gecko) Chrome/79.0.3945.130 Safari/537.36",154,"[0.9, 0.5, 0.1]","[0.8, 0.4, 0.2]","[u'black', u'red', u'blue']","[u'left', u'middle', u'right']","[0.8, 0.4, 0.2]","[u'low', u'medium', u'high']","blue",51,"right","high","False","False",153,7000,NA
"A150GMV1YQWWB3","Wed Jan 29 2020 08:25:40 GMT-0500 (Eastern Standard Time)","Wed Jan 29 2020 08:34:16 GMT-0500 (Eastern Standard Time)","Mozilla/5.0 (Macintosh; Intel Mac OS X 10_13_6) AppleWebKit/537.36 (KHTML, like Gecko) Chrome/79.0.3945.130 Safari/537.36",155,"[0.9, 0.5, 0.1]","[0.8, 0.4, 0.2]","[u'black', u'red', u'blue']","[u'left', u'middle', u'right']","[0.8, 0.4, 0.2]","[u'low', u'medium', u'high']","blue",51,"right","high","True","False",337,7100,NA
"A150GMV1YQWWB3","Wed Jan 29 2020 08:25:40 GMT-0500 (Eastern Standard Time)","Wed Jan 29 2020 08:34:16 GMT-0500 (Eastern Standard Time)","Mozilla/5.0 (Macintosh; Intel Mac OS X 10_13_6) AppleWebKit/537.36 (KHTML, like Gecko) Chrome/79.0.3945.130 Safari/537.36",156,"[0.9, 0.5, 0.1]","[0.8, 0.4, 0.2]","[u'black', u'red', u'blue']","[u'left', u'middle', u'right']","[0.8, 0.4, 0.2]","[u'low', u'medium', u'high']","blue",51,"right","high","False","False",360,7050,NA
"A150GMV1YQWWB3","Wed Jan 29 2020 08:25:40 GMT-0500 (Eastern Standard Time)","Wed Jan 29 2020 08:34:16 GMT-0500 (Eastern Standard Time)","Mozilla/5.0 (Macintosh; Intel Mac OS X 10_13_6) AppleWebKit/537.36 (KHTML, like Gecko) Chrome/79.0.3945.130 Safari/537.36",157,"[0.9, 0.5, 0.1]","[0.8, 0.4, 0.2]","[u'black', u'red', u'blue']","[u'left', u'middle', u'right']","[0.8, 0.4, 0.2]","[u'low', u'medium', u'high']","red",50,"middle","medium","False","False",425,7000,NA
"A150GMV1YQWWB3","Wed Jan 29 2020 08:25:40 GMT-0500 (Eastern Standard Time)","Wed Jan 29 2020 08:34:16 GMT-0500 (Eastern Standard Time)","Mozilla/5.0 (Macintosh; Intel Mac OS X 10_13_6) AppleWebKit/537.36 (KHTML, like Gecko) Chrome/79.0.3945.130 Safari/537.36",158,"[0.9, 0.5, 0.1]","[0.8, 0.4, 0.2]","[u'black', u'red', u'blue']","[u'left', u'middle', u'right']","[0.8, 0.4, 0.2]","[u'low', u'medium', u'high']","blue",51,"right","high","True","False",520,7100,NA
"A150GMV1YQWWB3","Wed Jan 29 2020 08:25:40 GMT-0500 (Eastern Standard Time)","Wed Jan 29 2020 08:34:16 GMT-0500 (Eastern Standard Time)","Mozilla/5.0 (Macintosh; Intel Mac OS X 10_13_6) AppleWebKit/537.36 (KHTML, like Gecko) Chrome/79.0.3945.130 Safari/537.36",159,"[0.9, 0.5, 0.1]","[0.8, 0.4, 0.2]","[u'black', u'red', u'blue']","[u'left', u'middle', u'right']","[0.8, 0.4, 0.2]","[u'low', u'medium', u'high']","blue",51,"right","high","True","False",461,7200,NA
"A150GMV1YQWWB3","Wed Jan 29 2020 08:25:40 GMT-0500 (Eastern Standard Time)","Wed Jan 29 2020 08:34:16 GMT-0500 (Eastern Standard Time)","Mozilla/5.0 (Macintosh; Intel Mac OS X 10_13_6) AppleWebKit/537.36 (KHTML, like Gecko) Chrome/79.0.3945.130 Safari/537.36",160,"[0.9, 0.5, 0.1]","[0.8, 0.4, 0.2]","[u'black', u'red', u'blue']","[u'left', u'middle', u'right']","[0.8, 0.4, 0.2]","[u'low', u'medium', u'high']","blue",51,"right","high","True","False",665,7300,NA
