"src_subject_id","start_time","end_time","browser","index","first_half_probabilities","second_half_probabilities","deck_color","deck_position","deck_probabilities","deck_contingencies","response_color","key_press","response_position","response_probability","reward_type","trial_type","rt","reward_tally","exclusion_reason"
"AMELYCC59JKB0","Wed Jan 29 2020 08:25:42 GMT-0500 (Eastern Standard Time)","Wed Jan 29 2020 08:33:42 GMT-0500 (Eastern Standard Time)","Mozilla/5.0 (Windows NT 6.3; Win64; x64) AppleWebKit/537.36 (KHTML, like Gecko) Chrome/79.0.3945.130 Safari/537.36",1,"[0.9, 0.5, 0.1]","[0.8, 0.4, 0.2]","[u'black', u'red', u'blue']","[u'left', u'middle', u'right']","[0.9, 0.5, 0.1]","[u'low', u'high', u'medium']","black",49,"left","low","False","False",660,-50,NA
"AMELYCC59JKB0","Wed Jan 29 2020 08:25:42 GMT-0500 (Eastern Standard Time)","Wed Jan 29 2020 08:33:42 GMT-0500 (Eastern Standard Time)","Mozilla/5.0 (Windows NT 6.3; Win64; x64) AppleWebKit/537.36 (KHTML, like Gecko) Chrome/79.0.3945.130 Safari/537.36",2,"[0.9, 0.5, 0.1]","[0.8, 0.4, 0.2]","[u'black', u'red', u'blue']","[u'left', u'middle', u'right']","[0.9, 0.5, 0.1]","[u'low', u'high', u'medium']","blue",51,"right","medium","True","False",499,50,NA
"AMELYCC59JKB0","Wed Jan 29 2020 08:25:42 GMT-0500 (Eastern Standard Time)","Wed Jan 29 2020 08:33:42 GMT-0500 (Eastern Standard Time)","Mozilla/5.0 (Windows NT 6.3; Win64; x64) AppleWebKit/537.36 (KHTML, like Gecko) Chrome/79.0.3945.130 Safari/537.36",3,"[0.9, 0.5, 0.1]","[0.8, 0.4, 0.2]","[u'black', u'red', u'blue']","[u'left', u'middle', u'right']","[0.9, 0.5, 0.1]","[u'low', u'high', u'medium']","blue",51,"right","medium","True","False",455,150,NA
"AMELYCC59JKB0","Wed Jan 29 2020 08:25:42 GMT-0500 (Eastern Standard Time)","Wed Jan 29 2020 08:33:42 GMT-0500 (Eastern Standard Time)","Mozilla/5.0 (Windows NT 6.3; Win64; x64) AppleWebKit/537.36 (KHTML, like Gecko) Chrome/79.0.3945.130 Safari/537.36",4,"[0.9, 0.5, 0.1]","[0.8, 0.4, 0.2]","[u'black', u'red', u'blue']","[u'left', u'middle', u'right']","[0.9, 0.5, 0.1]","[u'low', u'high', u'medium']","blue",51,"right","medium","False","False",397,100,NA
"AMELYCC59JKB0","Wed Jan 29 2020 08:25:42 GMT-0500 (Eastern Standard Time)","Wed Jan 29 2020 08:33:42 GMT-0500 (Eastern Standard Time)","Mozilla/5.0 (Windows NT 6.3; Win64; x64) AppleWebKit/537.36 (KHTML, like Gecko) Chrome/79.0.3945.130 Safari/537.36",5,"[0.9, 0.5, 0.1]","[0.8, 0.4, 0.2]","[u'black', u'red', u'blue']","[u'left', u'middle', u'right']","[0.9, 0.5, 0.1]","[u'low', u'high', u'medium']","red",50,"middle","high","True","False",416,200,NA
"AMELYCC59JKB0","Wed Jan 29 2020 08:25:42 GMT-0500 (Eastern Standard Time)","Wed Jan 29 2020 08:33:42 GMT-0500 (Eastern Standard Time)","Mozilla/5.0 (Windows NT 6.3; Win64; x64) AppleWebKit/537.36 (KHTML, like Gecko) Chrome/79.0.3945.130 Safari/537.36",6,"[0.9, 0.5, 0.1]","[0.8, 0.4, 0.2]","[u'black', u'red', u'blue']","[u'left', u'middle', u'right']","[0.9, 0.5, 0.1]","[u'low', u'high', u'medium']","red",50,"middle","high","False","False",373,150,NA
"AMELYCC59JKB0","Wed Jan 29 2020 08:25:42 GMT-0500 (Eastern Standard Time)","Wed Jan 29 2020 08:33:42 GMT-0500 (Eastern Standard Time)","Mozilla/5.0 (Windows NT 6.3; Win64; x64) AppleWebKit/537.36 (KHTML, like Gecko) Chrome/79.0.3945.130 Safari/537.36",7,"[0.9, 0.5, 0.1]","[0.8, 0.4, 0.2]","[u'black', u'red', u'blue']","[u'left', u'middle', u'right']","[0.9, 0.5, 0.1]","[u'low', u'high', u'medium']","blue",51,"right","medium","True","False",625,250,NA
"AMELYCC59JKB0","Wed Jan 29 2020 08:25:42 GMT-0500 (Eastern Standard Time)","Wed Jan 29 2020 08:33:42 GMT-0500 (Eastern Standard Time)","Mozilla/5.0 (Windows NT 6.3; Win64; x64) AppleWebKit/537.36 (KHTML, like Gecko) Chrome/79.0.3945.130 Safari/537.36",8,"[0.9, 0.5, 0.1]","[0.8, 0.4, 0.2]","[u'black', u'red', u'blue']","[u'left', u'middle', u'right']","[0.9, 0.5, 0.1]","[u'low', u'high', u'medium']","red",50,"middle","high","True","False",278,350,NA
"AMELYCC59JKB0","Wed Jan 29 2020 08:25:42 GMT-0500 (Eastern Standard Time)","Wed Jan 29 2020 08:33:42 GMT-0500 (Eastern Standard Time)","Mozilla/5.0 (Windows NT 6.3; Win64; x64) AppleWebKit/537.36 (KHTML, like Gecko) Chrome/79.0.3945.130 Safari/537.36",9,"[0.9, 0.5, 0.1]","[0.8, 0.4, 0.2]","[u'black', u'red', u'blue']","[u'left', u'middle', u'right']","[0.9, 0.5, 0.1]","[u'low', u'high', u'medium']","black",49,"left","low","False","False",341,300,NA
"AMELYCC59JKB0","Wed Jan 29 2020 08:25:42 GMT-0500 (Eastern Standard Time)","Wed Jan 29 2020 08:33:42 GMT-0500 (Eastern Standard Time)","Mozilla/5.0 (Windows NT 6.3; Win64; x64) AppleWebKit/537.36 (KHTML, like Gecko) Chrome/79.0.3945.130 Safari/537.36",10,"[0.9, 0.5, 0.1]","[0.8, 0.4, 0.2]","[u'black', u'red', u'blue']","[u'left', u'middle', u'right']","[0.9, 0.5, 0.1]","[u'low', u'high', u'medium']","blue",51,"right","medium","True","False",429,400,NA
"AMELYCC59JKB0","Wed Jan 29 2020 08:25:42 GMT-0500 (Eastern Standard Time)","Wed Jan 29 2020 08:33:42 GMT-0500 (Eastern Standard Time)","Mozilla/5.0 (Windows NT 6.3; Win64; x64) AppleWebKit/537.36 (KHTML, like Gecko) Chrome/79.0.3945.130 Safari/537.36",11,"[0.9, 0.5, 0.1]","[0.8, 0.4, 0.2]","[u'black', u'red', u'blue']","[u'left', u'middle', u'right']","[0.9, 0.5, 0.1]","[u'low', u'high', u'medium']","red",50,"middle","high","True","False",308,500,NA
"AMELYCC59JKB0","Wed Jan 29 2020 08:25:42 GMT-0500 (Eastern Standard Time)","Wed Jan 29 2020 08:33:42 GMT-0500 (Eastern Standard Time)","Mozilla/5.0 (Windows NT 6.3; Win64; x64) AppleWebKit/537.36 (KHTML, like Gecko) Chrome/79.0.3945.130 Safari/537.36",12,"[0.9, 0.5, 0.1]","[0.8, 0.4, 0.2]","[u'black', u'red', u'blue']","[u'left', u'middle', u'right']","[0.9, 0.5, 0.1]","[u'low', u'high', u'medium']","blue",51,"right","medium","True","False",329,600,NA
"AMELYCC59JKB0","Wed Jan 29 2020 08:25:42 GMT-0500 (Eastern Standard Time)","Wed Jan 29 2020 08:33:42 GMT-0500 (Eastern Standard Time)","Mozilla/5.0 (Windows NT 6.3; Win64; x64) AppleWebKit/537.36 (KHTML, like Gecko) Chrome/79.0.3945.130 Safari/537.36",13,"[0.9, 0.5, 0.1]","[0.8, 0.4, 0.2]","[u'black', u'red', u'blue']","[u'left', u'middle', u'right']","[0.9, 0.5, 0.1]","[u'low', u'high', u'medium']","red",50,"middle","high","False","False",288,550,NA
"AMELYCC59JKB0","Wed Jan 29 2020 08:25:42 GMT-0500 (Eastern Standard Time)","Wed Jan 29 2020 08:33:42 GMT-0500 (Eastern Standard Time)","Mozilla/5.0 (Windows NT 6.3; Win64; x64) AppleWebKit/537.36 (KHTML, like Gecko) Chrome/79.0.3945.130 Safari/537.36",14,"[0.9, 0.5, 0.1]","[0.8, 0.4, 0.2]","[u'black', u'red', u'blue']","[u'left', u'middle', u'right']","[0.9, 0.5, 0.1]","[u'low', u'high', u'medium']","blue",51,"right","medium","True","False",219,650,NA
"AMELYCC59JKB0","Wed Jan 29 2020 08:25:42 GMT-0500 (Eastern Standard Time)","Wed Jan 29 2020 08:33:42 GMT-0500 (Eastern Standard Time)","Mozilla/5.0 (Windows NT 6.3; Win64; x64) AppleWebKit/537.36 (KHTML, like Gecko) Chrome/79.0.3945.130 Safari/537.36",15,"[0.9, 0.5, 0.1]","[0.8, 0.4, 0.2]","[u'black', u'red', u'blue']","[u'left', u'middle', u'right']","[0.9, 0.5, 0.1]","[u'low', u'high', u'medium']","blue",51,"right","medium","False","False",358,600,NA
"AMELYCC59JKB0","Wed Jan 29 2020 08:25:42 GMT-0500 (Eastern Standard Time)","Wed Jan 29 2020 08:33:42 GMT-0500 (Eastern Standard Time)","Mozilla/5.0 (Windows NT 6.3; Win64; x64) AppleWebKit/537.36 (KHTML, like Gecko) Chrome/79.0.3945.130 Safari/537.36",16,"[0.9, 0.5, 0.1]","[0.8, 0.4, 0.2]","[u'black', u'red', u'blue']","[u'left', u'middle', u'right']","[0.9, 0.5, 0.1]","[u'low', u'high', u'medium']","red",50,"middle","high","False","False",230,550,NA
"AMELYCC59JKB0","Wed Jan 29 2020 08:25:42 GMT-0500 (Eastern Standard Time)","Wed Jan 29 2020 08:33:42 GMT-0500 (Eastern Standard Time)","Mozilla/5.0 (Windows NT 6.3; Win64; x64) AppleWebKit/537.36 (KHTML, like Gecko) Chrome/79.0.3945.130 Safari/537.36",17,"[0.9, 0.5, 0.1]","[0.8, 0.4, 0.2]","[u'black', u'red', u'blue']","[u'left', u'middle', u'right']","[0.9, 0.5, 0.1]","[u'low', u'high', u'medium']","blue",51,"right","medium","True","False",277,650,NA
"AMELYCC59JKB0","Wed Jan 29 2020 08:25:42 GMT-0500 (Eastern Standard Time)","Wed Jan 29 2020 08:33:42 GMT-0500 (Eastern Standard Time)","Mozilla/5.0 (Windows NT 6.3; Win64; x64) AppleWebKit/537.36 (KHTML, like Gecko) Chrome/79.0.3945.130 Safari/537.36",18,"[0.9, 0.5, 0.1]","[0.8, 0.4, 0.2]","[u'black', u'red', u'blue']","[u'left', u'middle', u'right']","[0.9, 0.5, 0.1]","[u'low', u'high', u'medium']","black",49,"left","low","False","False",232,600,NA
"AMELYCC59JKB0","Wed Jan 29 2020 08:25:42 GMT-0500 (Eastern Standard Time)","Wed Jan 29 2020 08:33:42 GMT-0500 (Eastern Standard Time)","Mozilla/5.0 (Windows NT 6.3; Win64; x64) AppleWebKit/537.36 (KHTML, like Gecko) Chrome/79.0.3945.130 Safari/537.36",19,"[0.9, 0.5, 0.1]","[0.8, 0.4, 0.2]","[u'black', u'red', u'blue']","[u'left', u'middle', u'right']","[0.9, 0.5, 0.1]","[u'low', u'high', u'medium']","blue",51,"right","medium","True","False",307,700,NA
"AMELYCC59JKB0","Wed Jan 29 2020 08:25:42 GMT-0500 (Eastern Standard Time)","Wed Jan 29 2020 08:33:42 GMT-0500 (Eastern Standard Time)","Mozilla/5.0 (Windows NT 6.3; Win64; x64) AppleWebKit/537.36 (KHTML, like Gecko) Chrome/79.0.3945.130 Safari/537.36",20,"[0.9, 0.5, 0.1]","[0.8, 0.4, 0.2]","[u'black', u'red', u'blue']","[u'left', u'middle', u'right']","[0.9, 0.5, 0.1]","[u'low', u'high', u'medium']","blue",51,"right","medium","False","False",2537,650,NA
"AMELYCC59JKB0","Wed Jan 29 2020 08:25:42 GMT-0500 (Eastern Standard Time)","Wed Jan 29 2020 08:33:42 GMT-0500 (Eastern Standard Time)","Mozilla/5.0 (Windows NT 6.3; Win64; x64) AppleWebKit/537.36 (KHTML, like Gecko) Chrome/79.0.3945.130 Safari/537.36",21,"[0.9, 0.5, 0.1]","[0.8, 0.4, 0.2]","[u'black', u'red', u'blue']","[u'left', u'middle', u'right']","[0.9, 0.5, 0.1]","[u'low', u'high', u'medium']","red",50,"middle","high","False","False",1544,600,NA
"AMELYCC59JKB0","Wed Jan 29 2020 08:25:42 GMT-0500 (Eastern Standard Time)","Wed Jan 29 2020 08:33:42 GMT-0500 (Eastern Standard Time)","Mozilla/5.0 (Windows NT 6.3; Win64; x64) AppleWebKit/537.36 (KHTML, like Gecko) Chrome/79.0.3945.130 Safari/537.36",22,"[0.9, 0.5, 0.1]","[0.8, 0.4, 0.2]","[u'black', u'red', u'blue']","[u'left', u'middle', u'right']","[0.9, 0.5, 0.1]","[u'low', u'high', u'medium']","blue",51,"right","medium","False","False",382,550,NA
"AMELYCC59JKB0","Wed Jan 29 2020 08:25:42 GMT-0500 (Eastern Standard Time)","Wed Jan 29 2020 08:33:42 GMT-0500 (Eastern Standard Time)","Mozilla/5.0 (Windows NT 6.3; Win64; x64) AppleWebKit/537.36 (KHTML, like Gecko) Chrome/79.0.3945.130 Safari/537.36",23,"[0.9, 0.5, 0.1]","[0.8, 0.4, 0.2]","[u'black', u'red', u'blue']","[u'left', u'middle', u'right']","[0.9, 0.5, 0.1]","[u'low', u'high', u'medium']","black",49,"left","low","False","False",306,500,NA
"AMELYCC59JKB0","Wed Jan 29 2020 08:25:42 GMT-0500 (Eastern Standard Time)","Wed Jan 29 2020 08:33:42 GMT-0500 (Eastern Standard Time)","Mozilla/5.0 (Windows NT 6.3; Win64; x64) AppleWebKit/537.36 (KHTML, like Gecko) Chrome/79.0.3945.130 Safari/537.36",24,"[0.9, 0.5, 0.1]","[0.8, 0.4, 0.2]","[u'black', u'red', u'blue']","[u'left', u'middle', u'right']","[0.9, 0.5, 0.1]","[u'low', u'high', u'medium']","red",50,"middle","high","True","False",231,600,NA
"AMELYCC59JKB0","Wed Jan 29 2020 08:25:42 GMT-0500 (Eastern Standard Time)","Wed Jan 29 2020 08:33:42 GMT-0500 (Eastern Standard Time)","Mozilla/5.0 (Windows NT 6.3; Win64; x64) AppleWebKit/537.36 (KHTML, like Gecko) Chrome/79.0.3945.130 Safari/537.36",25,"[0.9, 0.5, 0.1]","[0.8, 0.4, 0.2]","[u'black', u'red', u'blue']","[u'left', u'middle', u'right']","[0.9, 0.5, 0.1]","[u'low', u'high', u'medium']","blue",51,"right","medium","True","False",399,700,NA
"AMELYCC59JKB0","Wed Jan 29 2020 08:25:42 GMT-0500 (Eastern Standard Time)","Wed Jan 29 2020 08:33:42 GMT-0500 (Eastern Standard Time)","Mozilla/5.0 (Windows NT 6.3; Win64; x64) AppleWebKit/537.36 (KHTML, like Gecko) Chrome/79.0.3945.130 Safari/537.36",26,"[0.9, 0.5, 0.1]","[0.8, 0.4, 0.2]","[u'black', u'red', u'blue']","[u'left', u'middle', u'right']","[0.9, 0.5, 0.1]","[u'low', u'high', u'medium']","black",49,"left","low","True","False",416,800,NA
"AMELYCC59JKB0","Wed Jan 29 2020 08:25:42 GMT-0500 (Eastern Standard Time)","Wed Jan 29 2020 08:33:42 GMT-0500 (Eastern Standard Time)","Mozilla/5.0 (Windows NT 6.3; Win64; x64) AppleWebKit/537.36 (KHTML, like Gecko) Chrome/79.0.3945.130 Safari/537.36",27,"[0.9, 0.5, 0.1]","[0.8, 0.4, 0.2]","[u'black', u'red', u'blue']","[u'left', u'middle', u'right']","[0.9, 0.5, 0.1]","[u'low', u'high', u'medium']","blue",51,"right","medium","True","False",320,900,NA
"AMELYCC59JKB0","Wed Jan 29 2020 08:25:42 GMT-0500 (Eastern Standard Time)","Wed Jan 29 2020 08:33:42 GMT-0500 (Eastern Standard Time)","Mozilla/5.0 (Windows NT 6.3; Win64; x64) AppleWebKit/537.36 (KHTML, like Gecko) Chrome/79.0.3945.130 Safari/537.36",28,"[0.9, 0.5, 0.1]","[0.8, 0.4, 0.2]","[u'black', u'red', u'blue']","[u'left', u'middle', u'right']","[0.9, 0.5, 0.1]","[u'low', u'high', u'medium']","red",50,"middle","high","True","False",680,1000,NA
"AMELYCC59JKB0","Wed Jan 29 2020 08:25:42 GMT-0500 (Eastern Standard Time)","Wed Jan 29 2020 08:33:42 GMT-0500 (Eastern Standard Time)","Mozilla/5.0 (Windows NT 6.3; Win64; x64) AppleWebKit/537.36 (KHTML, like Gecko) Chrome/79.0.3945.130 Safari/537.36",29,"[0.9, 0.5, 0.1]","[0.8, 0.4, 0.2]","[u'black', u'red', u'blue']","[u'left', u'middle', u'right']","[0.9, 0.5, 0.1]","[u'low', u'high', u'medium']","black",49,"left","low","False","False",295,950,NA
"AMELYCC59JKB0","Wed Jan 29 2020 08:25:42 GMT-0500 (Eastern Standard Time)","Wed Jan 29 2020 08:33:42 GMT-0500 (Eastern Standard Time)","Mozilla/5.0 (Windows NT 6.3; Win64; x64) AppleWebKit/537.36 (KHTML, like Gecko) Chrome/79.0.3945.130 Safari/537.36",30,"[0.9, 0.5, 0.1]","[0.8, 0.4, 0.2]","[u'black', u'red', u'blue']","[u'left', u'middle', u'right']","[0.9, 0.5, 0.1]","[u'low', u'high', u'medium']","red",50,"middle","high","True","False",385,1050,NA
"AMELYCC59JKB0","Wed Jan 29 2020 08:25:42 GMT-0500 (Eastern Standard Time)","Wed Jan 29 2020 08:33:42 GMT-0500 (Eastern Standard Time)","Mozilla/5.0 (Windows NT 6.3; Win64; x64) AppleWebKit/537.36 (KHTML, like Gecko) Chrome/79.0.3945.130 Safari/537.36",31,"[0.9, 0.5, 0.1]","[0.8, 0.4, 0.2]","[u'black', u'red', u'blue']","[u'left', u'middle', u'right']","[0.9, 0.5, 0.1]","[u'low', u'high', u'medium']","blue",51,"right","medium","False","False",399,1000,NA
"AMELYCC59JKB0","Wed Jan 29 2020 08:25:42 GMT-0500 (Eastern Standard Time)","Wed Jan 29 2020 08:33:42 GMT-0500 (Eastern Standard Time)","Mozilla/5.0 (Windows NT 6.3; Win64; x64) AppleWebKit/537.36 (KHTML, like Gecko) Chrome/79.0.3945.130 Safari/537.36",32,"[0.9, 0.5, 0.1]","[0.8, 0.4, 0.2]","[u'black', u'red', u'blue']","[u'left', u'middle', u'right']","[0.9, 0.5, 0.1]","[u'low', u'high', u'medium']","black",49,"left","low","False","False",552,950,NA
"AMELYCC59JKB0","Wed Jan 29 2020 08:25:42 GMT-0500 (Eastern Standard Time)","Wed Jan 29 2020 08:33:42 GMT-0500 (Eastern Standard Time)","Mozilla/5.0 (Windows NT 6.3; Win64; x64) AppleWebKit/537.36 (KHTML, like Gecko) Chrome/79.0.3945.130 Safari/537.36",33,"[0.9, 0.5, 0.1]","[0.8, 0.4, 0.2]","[u'black', u'red', u'blue']","[u'left', u'middle', u'right']","[0.9, 0.5, 0.1]","[u'low', u'high', u'medium']","blue",51,"right","medium","True","False",42,1050,NA
"AMELYCC59JKB0","Wed Jan 29 2020 08:25:42 GMT-0500 (Eastern Standard Time)","Wed Jan 29 2020 08:33:42 GMT-0500 (Eastern Standard Time)","Mozilla/5.0 (Windows NT 6.3; Win64; x64) AppleWebKit/537.36 (KHTML, like Gecko) Chrome/79.0.3945.130 Safari/537.36",34,"[0.9, 0.5, 0.1]","[0.8, 0.4, 0.2]","[u'black', u'red', u'blue']","[u'left', u'middle', u'right']","[0.9, 0.5, 0.1]","[u'low', u'high', u'medium']","red",50,"middle","high","True","False",467,1150,NA
"AMELYCC59JKB0","Wed Jan 29 2020 08:25:42 GMT-0500 (Eastern Standard Time)","Wed Jan 29 2020 08:33:42 GMT-0500 (Eastern Standard Time)","Mozilla/5.0 (Windows NT 6.3; Win64; x64) AppleWebKit/537.36 (KHTML, like Gecko) Chrome/79.0.3945.130 Safari/537.36",35,"[0.9, 0.5, 0.1]","[0.8, 0.4, 0.2]","[u'black', u'red', u'blue']","[u'left', u'middle', u'right']","[0.9, 0.5, 0.1]","[u'low', u'high', u'medium']","blue",51,"right","medium","True","False",478,1250,NA
"AMELYCC59JKB0","Wed Jan 29 2020 08:25:42 GMT-0500 (Eastern Standard Time)","Wed Jan 29 2020 08:33:42 GMT-0500 (Eastern Standard Time)","Mozilla/5.0 (Windows NT 6.3; Win64; x64) AppleWebKit/537.36 (KHTML, like Gecko) Chrome/79.0.3945.130 Safari/537.36",36,"[0.9, 0.5, 0.1]","[0.8, 0.4, 0.2]","[u'black', u'red', u'blue']","[u'left', u'middle', u'right']","[0.9, 0.5, 0.1]","[u'low', u'high', u'medium']","red",50,"middle","high","True","False",635,1350,NA
"AMELYCC59JKB0","Wed Jan 29 2020 08:25:42 GMT-0500 (Eastern Standard Time)","Wed Jan 29 2020 08:33:42 GMT-0500 (Eastern Standard Time)","Mozilla/5.0 (Windows NT 6.3; Win64; x64) AppleWebKit/537.36 (KHTML, like Gecko) Chrome/79.0.3945.130 Safari/537.36",37,"[0.9, 0.5, 0.1]","[0.8, 0.4, 0.2]","[u'black', u'red', u'blue']","[u'left', u'middle', u'right']","[0.9, 0.5, 0.1]","[u'low', u'high', u'medium']","blue",51,"right","medium","True","False",499,1450,NA
"AMELYCC59JKB0","Wed Jan 29 2020 08:25:42 GMT-0500 (Eastern Standard Time)","Wed Jan 29 2020 08:33:42 GMT-0500 (Eastern Standard Time)","Mozilla/5.0 (Windows NT 6.3; Win64; x64) AppleWebKit/537.36 (KHTML, like Gecko) Chrome/79.0.3945.130 Safari/537.36",38,"[0.9, 0.5, 0.1]","[0.8, 0.4, 0.2]","[u'black', u'red', u'blue']","[u'left', u'middle', u'right']","[0.9, 0.5, 0.1]","[u'low', u'high', u'medium']","black",49,"left","low","False","False",269,1400,NA
"AMELYCC59JKB0","Wed Jan 29 2020 08:25:42 GMT-0500 (Eastern Standard Time)","Wed Jan 29 2020 08:33:42 GMT-0500 (Eastern Standard Time)","Mozilla/5.0 (Windows NT 6.3; Win64; x64) AppleWebKit/537.36 (KHTML, like Gecko) Chrome/79.0.3945.130 Safari/537.36",39,"[0.9, 0.5, 0.1]","[0.8, 0.4, 0.2]","[u'black', u'red', u'blue']","[u'left', u'middle', u'right']","[0.9, 0.5, 0.1]","[u'low', u'high', u'medium']","blue",51,"right","medium","False","False",262,1350,NA
"AMELYCC59JKB0","Wed Jan 29 2020 08:25:42 GMT-0500 (Eastern Standard Time)","Wed Jan 29 2020 08:33:42 GMT-0500 (Eastern Standard Time)","Mozilla/5.0 (Windows NT 6.3; Win64; x64) AppleWebKit/537.36 (KHTML, like Gecko) Chrome/79.0.3945.130 Safari/537.36",40,"[0.9, 0.5, 0.1]","[0.8, 0.4, 0.2]","[u'black', u'red', u'blue']","[u'left', u'middle', u'right']","[0.9, 0.5, 0.1]","[u'low', u'high', u'medium']","red",50,"middle","high","True","False",211,1450,NA
"AMELYCC59JKB0","Wed Jan 29 2020 08:25:42 GMT-0500 (Eastern Standard Time)","Wed Jan 29 2020 08:33:42 GMT-0500 (Eastern Standard Time)","Mozilla/5.0 (Windows NT 6.3; Win64; x64) AppleWebKit/537.36 (KHTML, like Gecko) Chrome/79.0.3945.130 Safari/537.36",41,"[0.9, 0.5, 0.1]","[0.8, 0.4, 0.2]","[u'black', u'red', u'blue']","[u'left', u'middle', u'right']","[0.9, 0.5, 0.1]","[u'medium', u'low', u'high']","blue",51,"right","high","True","False",797,1550,NA
"AMELYCC59JKB0","Wed Jan 29 2020 08:25:42 GMT-0500 (Eastern Standard Time)","Wed Jan 29 2020 08:33:42 GMT-0500 (Eastern Standard Time)","Mozilla/5.0 (Windows NT 6.3; Win64; x64) AppleWebKit/537.36 (KHTML, like Gecko) Chrome/79.0.3945.130 Safari/537.36",42,"[0.9, 0.5, 0.1]","[0.8, 0.4, 0.2]","[u'black', u'red', u'blue']","[u'left', u'middle', u'right']","[0.9, 0.5, 0.1]","[u'medium', u'low', u'high']","red",50,"middle","low","False","False",224,1500,NA
"AMELYCC59JKB0","Wed Jan 29 2020 08:25:42 GMT-0500 (Eastern Standard Time)","Wed Jan 29 2020 08:33:42 GMT-0500 (Eastern Standard Time)","Mozilla/5.0 (Windows NT 6.3; Win64; x64) AppleWebKit/537.36 (KHTML, like Gecko) Chrome/79.0.3945.130 Safari/537.36",43,"[0.9, 0.5, 0.1]","[0.8, 0.4, 0.2]","[u'black', u'red', u'blue']","[u'left', u'middle', u'right']","[0.9, 0.5, 0.1]","[u'medium', u'low', u'high']","blue",51,"right","high","True","False",266,1600,NA
"AMELYCC59JKB0","Wed Jan 29 2020 08:25:42 GMT-0500 (Eastern Standard Time)","Wed Jan 29 2020 08:33:42 GMT-0500 (Eastern Standard Time)","Mozilla/5.0 (Windows NT 6.3; Win64; x64) AppleWebKit/537.36 (KHTML, like Gecko) Chrome/79.0.3945.130 Safari/537.36",44,"[0.9, 0.5, 0.1]","[0.8, 0.4, 0.2]","[u'black', u'red', u'blue']","[u'left', u'middle', u'right']","[0.9, 0.5, 0.1]","[u'medium', u'low', u'high']","black",49,"left","medium","False","False",265,1550,NA
"AMELYCC59JKB0","Wed Jan 29 2020 08:25:42 GMT-0500 (Eastern Standard Time)","Wed Jan 29 2020 08:33:42 GMT-0500 (Eastern Standard Time)","Mozilla/5.0 (Windows NT 6.3; Win64; x64) AppleWebKit/537.36 (KHTML, like Gecko) Chrome/79.0.3945.130 Safari/537.36",45,"[0.9, 0.5, 0.1]","[0.8, 0.4, 0.2]","[u'black', u'red', u'blue']","[u'left', u'middle', u'right']","[0.9, 0.5, 0.1]","[u'medium', u'low', u'high']","blue",51,"right","high","True","False",312,1650,NA
"AMELYCC59JKB0","Wed Jan 29 2020 08:25:42 GMT-0500 (Eastern Standard Time)","Wed Jan 29 2020 08:33:42 GMT-0500 (Eastern Standard Time)","Mozilla/5.0 (Windows NT 6.3; Win64; x64) AppleWebKit/537.36 (KHTML, like Gecko) Chrome/79.0.3945.130 Safari/537.36",46,"[0.9, 0.5, 0.1]","[0.8, 0.4, 0.2]","[u'black', u'red', u'blue']","[u'left', u'middle', u'right']","[0.9, 0.5, 0.1]","[u'medium', u'low', u'high']","red",50,"middle","low","False","False",297,1600,NA
"AMELYCC59JKB0","Wed Jan 29 2020 08:25:42 GMT-0500 (Eastern Standard Time)","Wed Jan 29 2020 08:33:42 GMT-0500 (Eastern Standard Time)","Mozilla/5.0 (Windows NT 6.3; Win64; x64) AppleWebKit/537.36 (KHTML, like Gecko) Chrome/79.0.3945.130 Safari/537.36",47,"[0.9, 0.5, 0.1]","[0.8, 0.4, 0.2]","[u'black', u'red', u'blue']","[u'left', u'middle', u'right']","[0.9, 0.5, 0.1]","[u'medium', u'low', u'high']","blue",51,"right","high","True","False",254,1700,NA
"AMELYCC59JKB0","Wed Jan 29 2020 08:25:42 GMT-0500 (Eastern Standard Time)","Wed Jan 29 2020 08:33:42 GMT-0500 (Eastern Standard Time)","Mozilla/5.0 (Windows NT 6.3; Win64; x64) AppleWebKit/537.36 (KHTML, like Gecko) Chrome/79.0.3945.130 Safari/537.36",48,"[0.9, 0.5, 0.1]","[0.8, 0.4, 0.2]","[u'black', u'red', u'blue']","[u'left', u'middle', u'right']","[0.9, 0.5, 0.1]","[u'medium', u'low', u'high']","blue",51,"right","high","True","False",365,1800,NA
"AMELYCC59JKB0","Wed Jan 29 2020 08:25:42 GMT-0500 (Eastern Standard Time)","Wed Jan 29 2020 08:33:42 GMT-0500 (Eastern Standard Time)","Mozilla/5.0 (Windows NT 6.3; Win64; x64) AppleWebKit/537.36 (KHTML, like Gecko) Chrome/79.0.3945.130 Safari/537.36",49,"[0.9, 0.5, 0.1]","[0.8, 0.4, 0.2]","[u'black', u'red', u'blue']","[u'left', u'middle', u'right']","[0.9, 0.5, 0.1]","[u'medium', u'low', u'high']","blue",51,"right","high","True","False",302,1900,NA
"AMELYCC59JKB0","Wed Jan 29 2020 08:25:42 GMT-0500 (Eastern Standard Time)","Wed Jan 29 2020 08:33:42 GMT-0500 (Eastern Standard Time)","Mozilla/5.0 (Windows NT 6.3; Win64; x64) AppleWebKit/537.36 (KHTML, like Gecko) Chrome/79.0.3945.130 Safari/537.36",50,"[0.9, 0.5, 0.1]","[0.8, 0.4, 0.2]","[u'black', u'red', u'blue']","[u'left', u'middle', u'right']","[0.9, 0.5, 0.1]","[u'medium', u'low', u'high']","black",49,"left","medium","False","False",220,1850,NA
"AMELYCC59JKB0","Wed Jan 29 2020 08:25:42 GMT-0500 (Eastern Standard Time)","Wed Jan 29 2020 08:33:42 GMT-0500 (Eastern Standard Time)","Mozilla/5.0 (Windows NT 6.3; Win64; x64) AppleWebKit/537.36 (KHTML, like Gecko) Chrome/79.0.3945.130 Safari/537.36",51,"[0.9, 0.5, 0.1]","[0.8, 0.4, 0.2]","[u'black', u'red', u'blue']","[u'left', u'middle', u'right']","[0.9, 0.5, 0.1]","[u'medium', u'low', u'high']","red",50,"middle","low","False","False",444,1800,NA
"AMELYCC59JKB0","Wed Jan 29 2020 08:25:42 GMT-0500 (Eastern Standard Time)","Wed Jan 29 2020 08:33:42 GMT-0500 (Eastern Standard Time)","Mozilla/5.0 (Windows NT 6.3; Win64; x64) AppleWebKit/537.36 (KHTML, like Gecko) Chrome/79.0.3945.130 Safari/537.36",52,"[0.9, 0.5, 0.1]","[0.8, 0.4, 0.2]","[u'black', u'red', u'blue']","[u'left', u'middle', u'right']","[0.9, 0.5, 0.1]","[u'medium', u'low', u'high']","blue",51,"right","high","True","False",187,1900,NA
"AMELYCC59JKB0","Wed Jan 29 2020 08:25:42 GMT-0500 (Eastern Standard Time)","Wed Jan 29 2020 08:33:42 GMT-0500 (Eastern Standard Time)","Mozilla/5.0 (Windows NT 6.3; Win64; x64) AppleWebKit/537.36 (KHTML, like Gecko) Chrome/79.0.3945.130 Safari/537.36",53,"[0.9, 0.5, 0.1]","[0.8, 0.4, 0.2]","[u'black', u'red', u'blue']","[u'left', u'middle', u'right']","[0.9, 0.5, 0.1]","[u'medium', u'low', u'high']","blue",51,"right","high","True","False",265,2000,NA
"AMELYCC59JKB0","Wed Jan 29 2020 08:25:42 GMT-0500 (Eastern Standard Time)","Wed Jan 29 2020 08:33:42 GMT-0500 (Eastern Standard Time)","Mozilla/5.0 (Windows NT 6.3; Win64; x64) AppleWebKit/537.36 (KHTML, like Gecko) Chrome/79.0.3945.130 Safari/537.36",54,"[0.9, 0.5, 0.1]","[0.8, 0.4, 0.2]","[u'black', u'red', u'blue']","[u'left', u'middle', u'right']","[0.9, 0.5, 0.1]","[u'medium', u'low', u'high']","blue",51,"right","high","True","False",272,2100,NA
"AMELYCC59JKB0","Wed Jan 29 2020 08:25:42 GMT-0500 (Eastern Standard Time)","Wed Jan 29 2020 08:33:42 GMT-0500 (Eastern Standard Time)","Mozilla/5.0 (Windows NT 6.3; Win64; x64) AppleWebKit/537.36 (KHTML, like Gecko) Chrome/79.0.3945.130 Safari/537.36",55,"[0.9, 0.5, 0.1]","[0.8, 0.4, 0.2]","[u'black', u'red', u'blue']","[u'left', u'middle', u'right']","[0.9, 0.5, 0.1]","[u'medium', u'low', u'high']","blue",51,"right","high","True","False",244,2200,NA
"AMELYCC59JKB0","Wed Jan 29 2020 08:25:42 GMT-0500 (Eastern Standard Time)","Wed Jan 29 2020 08:33:42 GMT-0500 (Eastern Standard Time)","Mozilla/5.0 (Windows NT 6.3; Win64; x64) AppleWebKit/537.36 (KHTML, like Gecko) Chrome/79.0.3945.130 Safari/537.36",56,"[0.9, 0.5, 0.1]","[0.8, 0.4, 0.2]","[u'black', u'red', u'blue']","[u'left', u'middle', u'right']","[0.9, 0.5, 0.1]","[u'medium', u'low', u'high']","blue",51,"right","high","True","False",262,2300,NA
"AMELYCC59JKB0","Wed Jan 29 2020 08:25:42 GMT-0500 (Eastern Standard Time)","Wed Jan 29 2020 08:33:42 GMT-0500 (Eastern Standard Time)","Mozilla/5.0 (Windows NT 6.3; Win64; x64) AppleWebKit/537.36 (KHTML, like Gecko) Chrome/79.0.3945.130 Safari/537.36",57,"[0.9, 0.5, 0.1]","[0.8, 0.4, 0.2]","[u'black', u'red', u'blue']","[u'left', u'middle', u'right']","[0.9, 0.5, 0.1]","[u'medium', u'low', u'high']","blue",51,"right","high","True","False",200,2400,NA
"AMELYCC59JKB0","Wed Jan 29 2020 08:25:42 GMT-0500 (Eastern Standard Time)","Wed Jan 29 2020 08:33:42 GMT-0500 (Eastern Standard Time)","Mozilla/5.0 (Windows NT 6.3; Win64; x64) AppleWebKit/537.36 (KHTML, like Gecko) Chrome/79.0.3945.130 Safari/537.36",58,"[0.9, 0.5, 0.1]","[0.8, 0.4, 0.2]","[u'black', u'red', u'blue']","[u'left', u'middle', u'right']","[0.9, 0.5, 0.1]","[u'medium', u'low', u'high']","blue",51,"right","high","True","False",352,2500,NA
"AMELYCC59JKB0","Wed Jan 29 2020 08:25:42 GMT-0500 (Eastern Standard Time)","Wed Jan 29 2020 08:33:42 GMT-0500 (Eastern Standard Time)","Mozilla/5.0 (Windows NT 6.3; Win64; x64) AppleWebKit/537.36 (KHTML, like Gecko) Chrome/79.0.3945.130 Safari/537.36",59,"[0.9, 0.5, 0.1]","[0.8, 0.4, 0.2]","[u'black', u'red', u'blue']","[u'left', u'middle', u'right']","[0.9, 0.5, 0.1]","[u'medium', u'low', u'high']","blue",51,"right","high","True","False",348,2600,NA
"AMELYCC59JKB0","Wed Jan 29 2020 08:25:42 GMT-0500 (Eastern Standard Time)","Wed Jan 29 2020 08:33:42 GMT-0500 (Eastern Standard Time)","Mozilla/5.0 (Windows NT 6.3; Win64; x64) AppleWebKit/537.36 (KHTML, like Gecko) Chrome/79.0.3945.130 Safari/537.36",60,"[0.9, 0.5, 0.1]","[0.8, 0.4, 0.2]","[u'black', u'red', u'blue']","[u'left', u'middle', u'right']","[0.9, 0.5, 0.1]","[u'medium', u'low', u'high']","blue",51,"right","high","True","True",277,2700,NA
"AMELYCC59JKB0","Wed Jan 29 2020 08:25:42 GMT-0500 (Eastern Standard Time)","Wed Jan 29 2020 08:33:42 GMT-0500 (Eastern Standard Time)","Mozilla/5.0 (Windows NT 6.3; Win64; x64) AppleWebKit/537.36 (KHTML, like Gecko) Chrome/79.0.3945.130 Safari/537.36",61,"[0.9, 0.5, 0.1]","[0.8, 0.4, 0.2]","[u'black', u'red', u'blue']","[u'left', u'middle', u'right']","[0.9, 0.5, 0.1]","[u'low', u'high', u'medium']","blue",51,"right","medium","False","False",300,2650,NA
"AMELYCC59JKB0","Wed Jan 29 2020 08:25:42 GMT-0500 (Eastern Standard Time)","Wed Jan 29 2020 08:33:42 GMT-0500 (Eastern Standard Time)","Mozilla/5.0 (Windows NT 6.3; Win64; x64) AppleWebKit/537.36 (KHTML, like Gecko) Chrome/79.0.3945.130 Safari/537.36",62,"[0.9, 0.5, 0.1]","[0.8, 0.4, 0.2]","[u'black', u'red', u'blue']","[u'left', u'middle', u'right']","[0.9, 0.5, 0.1]","[u'low', u'high', u'medium']","red",50,"middle","high","True","False",123,2750,NA
"AMELYCC59JKB0","Wed Jan 29 2020 08:25:42 GMT-0500 (Eastern Standard Time)","Wed Jan 29 2020 08:33:42 GMT-0500 (Eastern Standard Time)","Mozilla/5.0 (Windows NT 6.3; Win64; x64) AppleWebKit/537.36 (KHTML, like Gecko) Chrome/79.0.3945.130 Safari/537.36",63,"[0.9, 0.5, 0.1]","[0.8, 0.4, 0.2]","[u'black', u'red', u'blue']","[u'left', u'middle', u'right']","[0.9, 0.5, 0.1]","[u'low', u'high', u'medium']","red",50,"middle","high","True","False",309,2850,NA
"AMELYCC59JKB0","Wed Jan 29 2020 08:25:42 GMT-0500 (Eastern Standard Time)","Wed Jan 29 2020 08:33:42 GMT-0500 (Eastern Standard Time)","Mozilla/5.0 (Windows NT 6.3; Win64; x64) AppleWebKit/537.36 (KHTML, like Gecko) Chrome/79.0.3945.130 Safari/537.36",64,"[0.9, 0.5, 0.1]","[0.8, 0.4, 0.2]","[u'black', u'red', u'blue']","[u'left', u'middle', u'right']","[0.9, 0.5, 0.1]","[u'low', u'high', u'medium']","red",50,"middle","high","True","False",453,2950,NA
"AMELYCC59JKB0","Wed Jan 29 2020 08:25:42 GMT-0500 (Eastern Standard Time)","Wed Jan 29 2020 08:33:42 GMT-0500 (Eastern Standard Time)","Mozilla/5.0 (Windows NT 6.3; Win64; x64) AppleWebKit/537.36 (KHTML, like Gecko) Chrome/79.0.3945.130 Safari/537.36",65,"[0.9, 0.5, 0.1]","[0.8, 0.4, 0.2]","[u'black', u'red', u'blue']","[u'left', u'middle', u'right']","[0.9, 0.5, 0.1]","[u'low', u'high', u'medium']","red",50,"middle","high","False","False",575,2900,NA
"AMELYCC59JKB0","Wed Jan 29 2020 08:25:42 GMT-0500 (Eastern Standard Time)","Wed Jan 29 2020 08:33:42 GMT-0500 (Eastern Standard Time)","Mozilla/5.0 (Windows NT 6.3; Win64; x64) AppleWebKit/537.36 (KHTML, like Gecko) Chrome/79.0.3945.130 Safari/537.36",66,"[0.9, 0.5, 0.1]","[0.8, 0.4, 0.2]","[u'black', u'red', u'blue']","[u'left', u'middle', u'right']","[0.9, 0.5, 0.1]","[u'low', u'high', u'medium']","black",49,"left","low","False","False",315,2850,NA
"AMELYCC59JKB0","Wed Jan 29 2020 08:25:42 GMT-0500 (Eastern Standard Time)","Wed Jan 29 2020 08:33:42 GMT-0500 (Eastern Standard Time)","Mozilla/5.0 (Windows NT 6.3; Win64; x64) AppleWebKit/537.36 (KHTML, like Gecko) Chrome/79.0.3945.130 Safari/537.36",67,"[0.9, 0.5, 0.1]","[0.8, 0.4, 0.2]","[u'black', u'red', u'blue']","[u'left', u'middle', u'right']","[0.9, 0.5, 0.1]","[u'low', u'high', u'medium']","blue",51,"right","medium","False","False",120,2800,NA
"AMELYCC59JKB0","Wed Jan 29 2020 08:25:42 GMT-0500 (Eastern Standard Time)","Wed Jan 29 2020 08:33:42 GMT-0500 (Eastern Standard Time)","Mozilla/5.0 (Windows NT 6.3; Win64; x64) AppleWebKit/537.36 (KHTML, like Gecko) Chrome/79.0.3945.130 Safari/537.36",68,"[0.9, 0.5, 0.1]","[0.8, 0.4, 0.2]","[u'black', u'red', u'blue']","[u'left', u'middle', u'right']","[0.9, 0.5, 0.1]","[u'low', u'high', u'medium']","red",50,"middle","high","True","False",286,2900,NA
"AMELYCC59JKB0","Wed Jan 29 2020 08:25:42 GMT-0500 (Eastern Standard Time)","Wed Jan 29 2020 08:33:42 GMT-0500 (Eastern Standard Time)","Mozilla/5.0 (Windows NT 6.3; Win64; x64) AppleWebKit/537.36 (KHTML, like Gecko) Chrome/79.0.3945.130 Safari/537.36",69,"[0.9, 0.5, 0.1]","[0.8, 0.4, 0.2]","[u'black', u'red', u'blue']","[u'left', u'middle', u'right']","[0.9, 0.5, 0.1]","[u'low', u'high', u'medium']","red",50,"middle","high","False","False",369,2850,NA
"AMELYCC59JKB0","Wed Jan 29 2020 08:25:42 GMT-0500 (Eastern Standard Time)","Wed Jan 29 2020 08:33:42 GMT-0500 (Eastern Standard Time)","Mozilla/5.0 (Windows NT 6.3; Win64; x64) AppleWebKit/537.36 (KHTML, like Gecko) Chrome/79.0.3945.130 Safari/537.36",70,"[0.9, 0.5, 0.1]","[0.8, 0.4, 0.2]","[u'black', u'red', u'blue']","[u'left', u'middle', u'right']","[0.9, 0.5, 0.1]","[u'low', u'high', u'medium']","blue",51,"right","medium","False","False",330,2800,NA
"AMELYCC59JKB0","Wed Jan 29 2020 08:25:42 GMT-0500 (Eastern Standard Time)","Wed Jan 29 2020 08:33:42 GMT-0500 (Eastern Standard Time)","Mozilla/5.0 (Windows NT 6.3; Win64; x64) AppleWebKit/537.36 (KHTML, like Gecko) Chrome/79.0.3945.130 Safari/537.36",71,"[0.9, 0.5, 0.1]","[0.8, 0.4, 0.2]","[u'black', u'red', u'blue']","[u'left', u'middle', u'right']","[0.9, 0.5, 0.1]","[u'low', u'high', u'medium']","red",50,"middle","high","True","False",221,2900,NA
"AMELYCC59JKB0","Wed Jan 29 2020 08:25:42 GMT-0500 (Eastern Standard Time)","Wed Jan 29 2020 08:33:42 GMT-0500 (Eastern Standard Time)","Mozilla/5.0 (Windows NT 6.3; Win64; x64) AppleWebKit/537.36 (KHTML, like Gecko) Chrome/79.0.3945.130 Safari/537.36",72,"[0.9, 0.5, 0.1]","[0.8, 0.4, 0.2]","[u'black', u'red', u'blue']","[u'left', u'middle', u'right']","[0.9, 0.5, 0.1]","[u'low', u'high', u'medium']","black",49,"left","low","False","False",682,2850,NA
"AMELYCC59JKB0","Wed Jan 29 2020 08:25:42 GMT-0500 (Eastern Standard Time)","Wed Jan 29 2020 08:33:42 GMT-0500 (Eastern Standard Time)","Mozilla/5.0 (Windows NT 6.3; Win64; x64) AppleWebKit/537.36 (KHTML, like Gecko) Chrome/79.0.3945.130 Safari/537.36",73,"[0.9, 0.5, 0.1]","[0.8, 0.4, 0.2]","[u'black', u'red', u'blue']","[u'left', u'middle', u'right']","[0.9, 0.5, 0.1]","[u'low', u'high', u'medium']","red",50,"middle","high","True","False",347,2950,NA
"AMELYCC59JKB0","Wed Jan 29 2020 08:25:42 GMT-0500 (Eastern Standard Time)","Wed Jan 29 2020 08:33:42 GMT-0500 (Eastern Standard Time)","Mozilla/5.0 (Windows NT 6.3; Win64; x64) AppleWebKit/537.36 (KHTML, like Gecko) Chrome/79.0.3945.130 Safari/537.36",74,"[0.9, 0.5, 0.1]","[0.8, 0.4, 0.2]","[u'black', u'red', u'blue']","[u'left', u'middle', u'right']","[0.9, 0.5, 0.1]","[u'low', u'high', u'medium']","blue",51,"right","medium","True","False",379,3050,NA
"AMELYCC59JKB0","Wed Jan 29 2020 08:25:42 GMT-0500 (Eastern Standard Time)","Wed Jan 29 2020 08:33:42 GMT-0500 (Eastern Standard Time)","Mozilla/5.0 (Windows NT 6.3; Win64; x64) AppleWebKit/537.36 (KHTML, like Gecko) Chrome/79.0.3945.130 Safari/537.36",75,"[0.9, 0.5, 0.1]","[0.8, 0.4, 0.2]","[u'black', u'red', u'blue']","[u'left', u'middle', u'right']","[0.9, 0.5, 0.1]","[u'low', u'high', u'medium']","red",50,"middle","high","True","False",287,3150,NA
"AMELYCC59JKB0","Wed Jan 29 2020 08:25:42 GMT-0500 (Eastern Standard Time)","Wed Jan 29 2020 08:33:42 GMT-0500 (Eastern Standard Time)","Mozilla/5.0 (Windows NT 6.3; Win64; x64) AppleWebKit/537.36 (KHTML, like Gecko) Chrome/79.0.3945.130 Safari/537.36",76,"[0.9, 0.5, 0.1]","[0.8, 0.4, 0.2]","[u'black', u'red', u'blue']","[u'left', u'middle', u'right']","[0.9, 0.5, 0.1]","[u'low', u'high', u'medium']","blue",51,"right","medium","False","False",265,3100,NA
"AMELYCC59JKB0","Wed Jan 29 2020 08:25:42 GMT-0500 (Eastern Standard Time)","Wed Jan 29 2020 08:33:42 GMT-0500 (Eastern Standard Time)","Mozilla/5.0 (Windows NT 6.3; Win64; x64) AppleWebKit/537.36 (KHTML, like Gecko) Chrome/79.0.3945.130 Safari/537.36",77,"[0.9, 0.5, 0.1]","[0.8, 0.4, 0.2]","[u'black', u'red', u'blue']","[u'left', u'middle', u'right']","[0.9, 0.5, 0.1]","[u'low', u'high', u'medium']","black",49,"left","low","True","False",169,3200,NA
"AMELYCC59JKB0","Wed Jan 29 2020 08:25:42 GMT-0500 (Eastern Standard Time)","Wed Jan 29 2020 08:33:42 GMT-0500 (Eastern Standard Time)","Mozilla/5.0 (Windows NT 6.3; Win64; x64) AppleWebKit/537.36 (KHTML, like Gecko) Chrome/79.0.3945.130 Safari/537.36",78,"[0.9, 0.5, 0.1]","[0.8, 0.4, 0.2]","[u'black', u'red', u'blue']","[u'left', u'middle', u'right']","[0.9, 0.5, 0.1]","[u'low', u'high', u'medium']","red",50,"middle","high","True","False",294,3300,NA
"AMELYCC59JKB0","Wed Jan 29 2020 08:25:42 GMT-0500 (Eastern Standard Time)","Wed Jan 29 2020 08:33:42 GMT-0500 (Eastern Standard Time)","Mozilla/5.0 (Windows NT 6.3; Win64; x64) AppleWebKit/537.36 (KHTML, like Gecko) Chrome/79.0.3945.130 Safari/537.36",79,"[0.9, 0.5, 0.1]","[0.8, 0.4, 0.2]","[u'black', u'red', u'blue']","[u'left', u'middle', u'right']","[0.9, 0.5, 0.1]","[u'low', u'high', u'medium']","black",49,"left","low","False","False",312,3250,NA
"AMELYCC59JKB0","Wed Jan 29 2020 08:25:42 GMT-0500 (Eastern Standard Time)","Wed Jan 29 2020 08:33:42 GMT-0500 (Eastern Standard Time)","Mozilla/5.0 (Windows NT 6.3; Win64; x64) AppleWebKit/537.36 (KHTML, like Gecko) Chrome/79.0.3945.130 Safari/537.36",80,"[0.9, 0.5, 0.1]","[0.8, 0.4, 0.2]","[u'black', u'red', u'blue']","[u'left', u'middle', u'right']","[0.9, 0.5, 0.1]","[u'low', u'high', u'medium']","blue",51,"right","medium","True","False",164,3350,NA
"AMELYCC59JKB0","Wed Jan 29 2020 08:25:42 GMT-0500 (Eastern Standard Time)","Wed Jan 29 2020 08:33:42 GMT-0500 (Eastern Standard Time)","Mozilla/5.0 (Windows NT 6.3; Win64; x64) AppleWebKit/537.36 (KHTML, like Gecko) Chrome/79.0.3945.130 Safari/537.36",81,"[0.9, 0.5, 0.1]","[0.8, 0.4, 0.2]","[u'black', u'red', u'blue']","[u'left', u'middle', u'right']","[0.8, 0.4, 0.2]","[u'high', u'low', u'medium']","blue",51,"right","medium","False","False",376,3300,NA
"AMELYCC59JKB0","Wed Jan 29 2020 08:25:42 GMT-0500 (Eastern Standard Time)","Wed Jan 29 2020 08:33:42 GMT-0500 (Eastern Standard Time)","Mozilla/5.0 (Windows NT 6.3; Win64; x64) AppleWebKit/537.36 (KHTML, like Gecko) Chrome/79.0.3945.130 Safari/537.36",82,"[0.9, 0.5, 0.1]","[0.8, 0.4, 0.2]","[u'black', u'red', u'blue']","[u'left', u'middle', u'right']","[0.8, 0.4, 0.2]","[u'high', u'low', u'medium']","red",50,"middle","low","False","False",143,3250,NA
"AMELYCC59JKB0","Wed Jan 29 2020 08:25:42 GMT-0500 (Eastern Standard Time)","Wed Jan 29 2020 08:33:42 GMT-0500 (Eastern Standard Time)","Mozilla/5.0 (Windows NT 6.3; Win64; x64) AppleWebKit/537.36 (KHTML, like Gecko) Chrome/79.0.3945.130 Safari/537.36",83,"[0.9, 0.5, 0.1]","[0.8, 0.4, 0.2]","[u'black', u'red', u'blue']","[u'left', u'middle', u'right']","[0.8, 0.4, 0.2]","[u'high', u'low', u'medium']","black",49,"left","high","True","False",211,3350,NA
"AMELYCC59JKB0","Wed Jan 29 2020 08:25:42 GMT-0500 (Eastern Standard Time)","Wed Jan 29 2020 08:33:42 GMT-0500 (Eastern Standard Time)","Mozilla/5.0 (Windows NT 6.3; Win64; x64) AppleWebKit/537.36 (KHTML, like Gecko) Chrome/79.0.3945.130 Safari/537.36",84,"[0.9, 0.5, 0.1]","[0.8, 0.4, 0.2]","[u'black', u'red', u'blue']","[u'left', u'middle', u'right']","[0.8, 0.4, 0.2]","[u'high', u'low', u'medium']","black",49,"left","high","True","False",344,3450,NA
"AMELYCC59JKB0","Wed Jan 29 2020 08:25:42 GMT-0500 (Eastern Standard Time)","Wed Jan 29 2020 08:33:42 GMT-0500 (Eastern Standard Time)","Mozilla/5.0 (Windows NT 6.3; Win64; x64) AppleWebKit/537.36 (KHTML, like Gecko) Chrome/79.0.3945.130 Safari/537.36",85,"[0.9, 0.5, 0.1]","[0.8, 0.4, 0.2]","[u'black', u'red', u'blue']","[u'left', u'middle', u'right']","[0.8, 0.4, 0.2]","[u'high', u'low', u'medium']","black",49,"left","high","True","False",300,3550,NA
"AMELYCC59JKB0","Wed Jan 29 2020 08:25:42 GMT-0500 (Eastern Standard Time)","Wed Jan 29 2020 08:33:42 GMT-0500 (Eastern Standard Time)","Mozilla/5.0 (Windows NT 6.3; Win64; x64) AppleWebKit/537.36 (KHTML, like Gecko) Chrome/79.0.3945.130 Safari/537.36",86,"[0.9, 0.5, 0.1]","[0.8, 0.4, 0.2]","[u'black', u'red', u'blue']","[u'left', u'middle', u'right']","[0.8, 0.4, 0.2]","[u'high', u'low', u'medium']","black",49,"left","high","True","False",242,3650,NA
"AMELYCC59JKB0","Wed Jan 29 2020 08:25:42 GMT-0500 (Eastern Standard Time)","Wed Jan 29 2020 08:33:42 GMT-0500 (Eastern Standard Time)","Mozilla/5.0 (Windows NT 6.3; Win64; x64) AppleWebKit/537.36 (KHTML, like Gecko) Chrome/79.0.3945.130 Safari/537.36",87,"[0.9, 0.5, 0.1]","[0.8, 0.4, 0.2]","[u'black', u'red', u'blue']","[u'left', u'middle', u'right']","[0.8, 0.4, 0.2]","[u'high', u'low', u'medium']","black",49,"left","high","False","False",254,3600,NA
"AMELYCC59JKB0","Wed Jan 29 2020 08:25:42 GMT-0500 (Eastern Standard Time)","Wed Jan 29 2020 08:33:42 GMT-0500 (Eastern Standard Time)","Mozilla/5.0 (Windows NT 6.3; Win64; x64) AppleWebKit/537.36 (KHTML, like Gecko) Chrome/79.0.3945.130 Safari/537.36",88,"[0.9, 0.5, 0.1]","[0.8, 0.4, 0.2]","[u'black', u'red', u'blue']","[u'left', u'middle', u'right']","[0.8, 0.4, 0.2]","[u'high', u'low', u'medium']","blue",51,"right","medium","True","False",260,3700,NA
"AMELYCC59JKB0","Wed Jan 29 2020 08:25:42 GMT-0500 (Eastern Standard Time)","Wed Jan 29 2020 08:33:42 GMT-0500 (Eastern Standard Time)","Mozilla/5.0 (Windows NT 6.3; Win64; x64) AppleWebKit/537.36 (KHTML, like Gecko) Chrome/79.0.3945.130 Safari/537.36",89,"[0.9, 0.5, 0.1]","[0.8, 0.4, 0.2]","[u'black', u'red', u'blue']","[u'left', u'middle', u'right']","[0.8, 0.4, 0.2]","[u'high', u'low', u'medium']","blue",51,"right","medium","False","False",292,3650,NA
"AMELYCC59JKB0","Wed Jan 29 2020 08:25:42 GMT-0500 (Eastern Standard Time)","Wed Jan 29 2020 08:33:42 GMT-0500 (Eastern Standard Time)","Mozilla/5.0 (Windows NT 6.3; Win64; x64) AppleWebKit/537.36 (KHTML, like Gecko) Chrome/79.0.3945.130 Safari/537.36",90,"[0.9, 0.5, 0.1]","[0.8, 0.4, 0.2]","[u'black', u'red', u'blue']","[u'left', u'middle', u'right']","[0.8, 0.4, 0.2]","[u'high', u'low', u'medium']","black",49,"left","high","True","False",124,3750,NA
"AMELYCC59JKB0","Wed Jan 29 2020 08:25:42 GMT-0500 (Eastern Standard Time)","Wed Jan 29 2020 08:33:42 GMT-0500 (Eastern Standard Time)","Mozilla/5.0 (Windows NT 6.3; Win64; x64) AppleWebKit/537.36 (KHTML, like Gecko) Chrome/79.0.3945.130 Safari/537.36",91,"[0.9, 0.5, 0.1]","[0.8, 0.4, 0.2]","[u'black', u'red', u'blue']","[u'left', u'middle', u'right']","[0.8, 0.4, 0.2]","[u'high', u'low', u'medium']","black",49,"left","high","True","False",238,3850,NA
"AMELYCC59JKB0","Wed Jan 29 2020 08:25:42 GMT-0500 (Eastern Standard Time)","Wed Jan 29 2020 08:33:42 GMT-0500 (Eastern Standard Time)","Mozilla/5.0 (Windows NT 6.3; Win64; x64) AppleWebKit/537.36 (KHTML, like Gecko) Chrome/79.0.3945.130 Safari/537.36",92,"[0.9, 0.5, 0.1]","[0.8, 0.4, 0.2]","[u'black', u'red', u'blue']","[u'left', u'middle', u'right']","[0.8, 0.4, 0.2]","[u'high', u'low', u'medium']","black",49,"left","high","True","False",284,3950,NA
"AMELYCC59JKB0","Wed Jan 29 2020 08:25:42 GMT-0500 (Eastern Standard Time)","Wed Jan 29 2020 08:33:42 GMT-0500 (Eastern Standard Time)","Mozilla/5.0 (Windows NT 6.3; Win64; x64) AppleWebKit/537.36 (KHTML, like Gecko) Chrome/79.0.3945.130 Safari/537.36",93,"[0.9, 0.5, 0.1]","[0.8, 0.4, 0.2]","[u'black', u'red', u'blue']","[u'left', u'middle', u'right']","[0.8, 0.4, 0.2]","[u'high', u'low', u'medium']","black",49,"left","high","True","False",294,4050,NA
"AMELYCC59JKB0","Wed Jan 29 2020 08:25:42 GMT-0500 (Eastern Standard Time)","Wed Jan 29 2020 08:33:42 GMT-0500 (Eastern Standard Time)","Mozilla/5.0 (Windows NT 6.3; Win64; x64) AppleWebKit/537.36 (KHTML, like Gecko) Chrome/79.0.3945.130 Safari/537.36",94,"[0.9, 0.5, 0.1]","[0.8, 0.4, 0.2]","[u'black', u'red', u'blue']","[u'left', u'middle', u'right']","[0.8, 0.4, 0.2]","[u'high', u'low', u'medium']","black",49,"left","high","True","False",253,4150,NA
"AMELYCC59JKB0","Wed Jan 29 2020 08:25:42 GMT-0500 (Eastern Standard Time)","Wed Jan 29 2020 08:33:42 GMT-0500 (Eastern Standard Time)","Mozilla/5.0 (Windows NT 6.3; Win64; x64) AppleWebKit/537.36 (KHTML, like Gecko) Chrome/79.0.3945.130 Safari/537.36",95,"[0.9, 0.5, 0.1]","[0.8, 0.4, 0.2]","[u'black', u'red', u'blue']","[u'left', u'middle', u'right']","[0.8, 0.4, 0.2]","[u'high', u'low', u'medium']","black",49,"left","high","True","False",300,4250,NA
"AMELYCC59JKB0","Wed Jan 29 2020 08:25:42 GMT-0500 (Eastern Standard Time)","Wed Jan 29 2020 08:33:42 GMT-0500 (Eastern Standard Time)","Mozilla/5.0 (Windows NT 6.3; Win64; x64) AppleWebKit/537.36 (KHTML, like Gecko) Chrome/79.0.3945.130 Safari/537.36",96,"[0.9, 0.5, 0.1]","[0.8, 0.4, 0.2]","[u'black', u'red', u'blue']","[u'left', u'middle', u'right']","[0.8, 0.4, 0.2]","[u'high', u'low', u'medium']","black",49,"left","high","False","False",506,4200,NA
"AMELYCC59JKB0","Wed Jan 29 2020 08:25:42 GMT-0500 (Eastern Standard Time)","Wed Jan 29 2020 08:33:42 GMT-0500 (Eastern Standard Time)","Mozilla/5.0 (Windows NT 6.3; Win64; x64) AppleWebKit/537.36 (KHTML, like Gecko) Chrome/79.0.3945.130 Safari/537.36",97,"[0.9, 0.5, 0.1]","[0.8, 0.4, 0.2]","[u'black', u'red', u'blue']","[u'left', u'middle', u'right']","[0.8, 0.4, 0.2]","[u'high', u'low', u'medium']","red",50,"middle","low","True","False",239,4300,NA
"AMELYCC59JKB0","Wed Jan 29 2020 08:25:42 GMT-0500 (Eastern Standard Time)","Wed Jan 29 2020 08:33:42 GMT-0500 (Eastern Standard Time)","Mozilla/5.0 (Windows NT 6.3; Win64; x64) AppleWebKit/537.36 (KHTML, like Gecko) Chrome/79.0.3945.130 Safari/537.36",98,"[0.9, 0.5, 0.1]","[0.8, 0.4, 0.2]","[u'black', u'red', u'blue']","[u'left', u'middle', u'right']","[0.8, 0.4, 0.2]","[u'high', u'low', u'medium']","red",50,"middle","low","False","False",941,4250,NA
"AMELYCC59JKB0","Wed Jan 29 2020 08:25:42 GMT-0500 (Eastern Standard Time)","Wed Jan 29 2020 08:33:42 GMT-0500 (Eastern Standard Time)","Mozilla/5.0 (Windows NT 6.3; Win64; x64) AppleWebKit/537.36 (KHTML, like Gecko) Chrome/79.0.3945.130 Safari/537.36",99,"[0.9, 0.5, 0.1]","[0.8, 0.4, 0.2]","[u'black', u'red', u'blue']","[u'left', u'middle', u'right']","[0.8, 0.4, 0.2]","[u'high', u'low', u'medium']","blue",51,"right","medium","False","False",439,4200,NA
"AMELYCC59JKB0","Wed Jan 29 2020 08:25:42 GMT-0500 (Eastern Standard Time)","Wed Jan 29 2020 08:33:42 GMT-0500 (Eastern Standard Time)","Mozilla/5.0 (Windows NT 6.3; Win64; x64) AppleWebKit/537.36 (KHTML, like Gecko) Chrome/79.0.3945.130 Safari/537.36",100,"[0.9, 0.5, 0.1]","[0.8, 0.4, 0.2]","[u'black', u'red', u'blue']","[u'left', u'middle', u'right']","[0.8, 0.4, 0.2]","[u'high', u'low', u'medium']","black",49,"left","high","True","False",324,4300,NA
"AMELYCC59JKB0","Wed Jan 29 2020 08:25:42 GMT-0500 (Eastern Standard Time)","Wed Jan 29 2020 08:33:42 GMT-0500 (Eastern Standard Time)","Mozilla/5.0 (Windows NT 6.3; Win64; x64) AppleWebKit/537.36 (KHTML, like Gecko) Chrome/79.0.3945.130 Safari/537.36",101,"[0.9, 0.5, 0.1]","[0.8, 0.4, 0.2]","[u'black', u'red', u'blue']","[u'left', u'middle', u'right']","[0.8, 0.4, 0.2]","[u'high', u'low', u'medium']","black",49,"left","high","True","False",654,4400,NA
"AMELYCC59JKB0","Wed Jan 29 2020 08:25:42 GMT-0500 (Eastern Standard Time)","Wed Jan 29 2020 08:33:42 GMT-0500 (Eastern Standard Time)","Mozilla/5.0 (Windows NT 6.3; Win64; x64) AppleWebKit/537.36 (KHTML, like Gecko) Chrome/79.0.3945.130 Safari/537.36",102,"[0.9, 0.5, 0.1]","[0.8, 0.4, 0.2]","[u'black', u'red', u'blue']","[u'left', u'middle', u'right']","[0.8, 0.4, 0.2]","[u'high', u'low', u'medium']","black",49,"left","high","True","False",3861,4500,NA
"AMELYCC59JKB0","Wed Jan 29 2020 08:25:42 GMT-0500 (Eastern Standard Time)","Wed Jan 29 2020 08:33:42 GMT-0500 (Eastern Standard Time)","Mozilla/5.0 (Windows NT 6.3; Win64; x64) AppleWebKit/537.36 (KHTML, like Gecko) Chrome/79.0.3945.130 Safari/537.36",103,"[0.9, 0.5, 0.1]","[0.8, 0.4, 0.2]","[u'black', u'red', u'blue']","[u'left', u'middle', u'right']","[0.8, 0.4, 0.2]","[u'high', u'low', u'medium']","black",49,"left","high","False","False",442,4450,NA
"AMELYCC59JKB0","Wed Jan 29 2020 08:25:42 GMT-0500 (Eastern Standard Time)","Wed Jan 29 2020 08:33:42 GMT-0500 (Eastern Standard Time)","Mozilla/5.0 (Windows NT 6.3; Win64; x64) AppleWebKit/537.36 (KHTML, like Gecko) Chrome/79.0.3945.130 Safari/537.36",104,"[0.9, 0.5, 0.1]","[0.8, 0.4, 0.2]","[u'black', u'red', u'blue']","[u'left', u'middle', u'right']","[0.8, 0.4, 0.2]","[u'high', u'low', u'medium']","red",50,"middle","low","False","False",240,4400,NA
"AMELYCC59JKB0","Wed Jan 29 2020 08:25:42 GMT-0500 (Eastern Standard Time)","Wed Jan 29 2020 08:33:42 GMT-0500 (Eastern Standard Time)","Mozilla/5.0 (Windows NT 6.3; Win64; x64) AppleWebKit/537.36 (KHTML, like Gecko) Chrome/79.0.3945.130 Safari/537.36",105,"[0.9, 0.5, 0.1]","[0.8, 0.4, 0.2]","[u'black', u'red', u'blue']","[u'left', u'middle', u'right']","[0.8, 0.4, 0.2]","[u'high', u'low', u'medium']","blue",51,"right","medium","True","False",248,4500,NA
"AMELYCC59JKB0","Wed Jan 29 2020 08:25:42 GMT-0500 (Eastern Standard Time)","Wed Jan 29 2020 08:33:42 GMT-0500 (Eastern Standard Time)","Mozilla/5.0 (Windows NT 6.3; Win64; x64) AppleWebKit/537.36 (KHTML, like Gecko) Chrome/79.0.3945.130 Safari/537.36",106,"[0.9, 0.5, 0.1]","[0.8, 0.4, 0.2]","[u'black', u'red', u'blue']","[u'left', u'middle', u'right']","[0.8, 0.4, 0.2]","[u'high', u'low', u'medium']","blue",51,"right","medium","False","False",717,4450,NA
"AMELYCC59JKB0","Wed Jan 29 2020 08:25:42 GMT-0500 (Eastern Standard Time)","Wed Jan 29 2020 08:33:42 GMT-0500 (Eastern Standard Time)","Mozilla/5.0 (Windows NT 6.3; Win64; x64) AppleWebKit/537.36 (KHTML, like Gecko) Chrome/79.0.3945.130 Safari/537.36",107,"[0.9, 0.5, 0.1]","[0.8, 0.4, 0.2]","[u'black', u'red', u'blue']","[u'left', u'middle', u'right']","[0.8, 0.4, 0.2]","[u'high', u'low', u'medium']","black",49,"left","high","True","False",143,4550,NA
"AMELYCC59JKB0","Wed Jan 29 2020 08:25:42 GMT-0500 (Eastern Standard Time)","Wed Jan 29 2020 08:33:42 GMT-0500 (Eastern Standard Time)","Mozilla/5.0 (Windows NT 6.3; Win64; x64) AppleWebKit/537.36 (KHTML, like Gecko) Chrome/79.0.3945.130 Safari/537.36",108,"[0.9, 0.5, 0.1]","[0.8, 0.4, 0.2]","[u'black', u'red', u'blue']","[u'left', u'middle', u'right']","[0.8, 0.4, 0.2]","[u'high', u'low', u'medium']","red",50,"middle","low","False","False",327,4500,NA
"AMELYCC59JKB0","Wed Jan 29 2020 08:25:42 GMT-0500 (Eastern Standard Time)","Wed Jan 29 2020 08:33:42 GMT-0500 (Eastern Standard Time)","Mozilla/5.0 (Windows NT 6.3; Win64; x64) AppleWebKit/537.36 (KHTML, like Gecko) Chrome/79.0.3945.130 Safari/537.36",109,"[0.9, 0.5, 0.1]","[0.8, 0.4, 0.2]","[u'black', u'red', u'blue']","[u'left', u'middle', u'right']","[0.8, 0.4, 0.2]","[u'high', u'low', u'medium']","black",49,"left","high","True","False",43,4600,NA
"AMELYCC59JKB0","Wed Jan 29 2020 08:25:42 GMT-0500 (Eastern Standard Time)","Wed Jan 29 2020 08:33:42 GMT-0500 (Eastern Standard Time)","Mozilla/5.0 (Windows NT 6.3; Win64; x64) AppleWebKit/537.36 (KHTML, like Gecko) Chrome/79.0.3945.130 Safari/537.36",110,"[0.9, 0.5, 0.1]","[0.8, 0.4, 0.2]","[u'black', u'red', u'blue']","[u'left', u'middle', u'right']","[0.8, 0.4, 0.2]","[u'high', u'low', u'medium']","black",49,"left","high","False","False",479,4550,NA
"AMELYCC59JKB0","Wed Jan 29 2020 08:25:42 GMT-0500 (Eastern Standard Time)","Wed Jan 29 2020 08:33:42 GMT-0500 (Eastern Standard Time)","Mozilla/5.0 (Windows NT 6.3; Win64; x64) AppleWebKit/537.36 (KHTML, like Gecko) Chrome/79.0.3945.130 Safari/537.36",111,"[0.9, 0.5, 0.1]","[0.8, 0.4, 0.2]","[u'black', u'red', u'blue']","[u'left', u'middle', u'right']","[0.8, 0.4, 0.2]","[u'high', u'low', u'medium']","blue",51,"right","medium","False","False",271,4500,NA
"AMELYCC59JKB0","Wed Jan 29 2020 08:25:42 GMT-0500 (Eastern Standard Time)","Wed Jan 29 2020 08:33:42 GMT-0500 (Eastern Standard Time)","Mozilla/5.0 (Windows NT 6.3; Win64; x64) AppleWebKit/537.36 (KHTML, like Gecko) Chrome/79.0.3945.130 Safari/537.36",112,"[0.9, 0.5, 0.1]","[0.8, 0.4, 0.2]","[u'black', u'red', u'blue']","[u'left', u'middle', u'right']","[0.8, 0.4, 0.2]","[u'high', u'low', u'medium']","red",50,"middle","low","False","False",73,4450,NA
"AMELYCC59JKB0","Wed Jan 29 2020 08:25:42 GMT-0500 (Eastern Standard Time)","Wed Jan 29 2020 08:33:42 GMT-0500 (Eastern Standard Time)","Mozilla/5.0 (Windows NT 6.3; Win64; x64) AppleWebKit/537.36 (KHTML, like Gecko) Chrome/79.0.3945.130 Safari/537.36",113,"[0.9, 0.5, 0.1]","[0.8, 0.4, 0.2]","[u'black', u'red', u'blue']","[u'left', u'middle', u'right']","[0.8, 0.4, 0.2]","[u'high', u'low', u'medium']","black",49,"left","high","True","False",38,4550,NA
"AMELYCC59JKB0","Wed Jan 29 2020 08:25:42 GMT-0500 (Eastern Standard Time)","Wed Jan 29 2020 08:33:42 GMT-0500 (Eastern Standard Time)","Mozilla/5.0 (Windows NT 6.3; Win64; x64) AppleWebKit/537.36 (KHTML, like Gecko) Chrome/79.0.3945.130 Safari/537.36",114,"[0.9, 0.5, 0.1]","[0.8, 0.4, 0.2]","[u'black', u'red', u'blue']","[u'left', u'middle', u'right']","[0.8, 0.4, 0.2]","[u'high', u'low', u'medium']","black",49,"left","high","True","False",758,4650,NA
"AMELYCC59JKB0","Wed Jan 29 2020 08:25:42 GMT-0500 (Eastern Standard Time)","Wed Jan 29 2020 08:33:42 GMT-0500 (Eastern Standard Time)","Mozilla/5.0 (Windows NT 6.3; Win64; x64) AppleWebKit/537.36 (KHTML, like Gecko) Chrome/79.0.3945.130 Safari/537.36",115,"[0.9, 0.5, 0.1]","[0.8, 0.4, 0.2]","[u'black', u'red', u'blue']","[u'left', u'middle', u'right']","[0.8, 0.4, 0.2]","[u'high', u'low', u'medium']","black",49,"left","high","True","False",239,4750,NA
"AMELYCC59JKB0","Wed Jan 29 2020 08:25:42 GMT-0500 (Eastern Standard Time)","Wed Jan 29 2020 08:33:42 GMT-0500 (Eastern Standard Time)","Mozilla/5.0 (Windows NT 6.3; Win64; x64) AppleWebKit/537.36 (KHTML, like Gecko) Chrome/79.0.3945.130 Safari/537.36",116,"[0.9, 0.5, 0.1]","[0.8, 0.4, 0.2]","[u'black', u'red', u'blue']","[u'left', u'middle', u'right']","[0.8, 0.4, 0.2]","[u'high', u'low', u'medium']","black",49,"left","high","True","False",307,4850,NA
"AMELYCC59JKB0","Wed Jan 29 2020 08:25:42 GMT-0500 (Eastern Standard Time)","Wed Jan 29 2020 08:33:42 GMT-0500 (Eastern Standard Time)","Mozilla/5.0 (Windows NT 6.3; Win64; x64) AppleWebKit/537.36 (KHTML, like Gecko) Chrome/79.0.3945.130 Safari/537.36",117,"[0.9, 0.5, 0.1]","[0.8, 0.4, 0.2]","[u'black', u'red', u'blue']","[u'left', u'middle', u'right']","[0.8, 0.4, 0.2]","[u'high', u'low', u'medium']","black",49,"left","high","True","False",297,4950,NA
"AMELYCC59JKB0","Wed Jan 29 2020 08:25:42 GMT-0500 (Eastern Standard Time)","Wed Jan 29 2020 08:33:42 GMT-0500 (Eastern Standard Time)","Mozilla/5.0 (Windows NT 6.3; Win64; x64) AppleWebKit/537.36 (KHTML, like Gecko) Chrome/79.0.3945.130 Safari/537.36",118,"[0.9, 0.5, 0.1]","[0.8, 0.4, 0.2]","[u'black', u'red', u'blue']","[u'left', u'middle', u'right']","[0.8, 0.4, 0.2]","[u'high', u'low', u'medium']","black",49,"left","high","True","False",607,5050,NA
"AMELYCC59JKB0","Wed Jan 29 2020 08:25:42 GMT-0500 (Eastern Standard Time)","Wed Jan 29 2020 08:33:42 GMT-0500 (Eastern Standard Time)","Mozilla/5.0 (Windows NT 6.3; Win64; x64) AppleWebKit/537.36 (KHTML, like Gecko) Chrome/79.0.3945.130 Safari/537.36",119,"[0.9, 0.5, 0.1]","[0.8, 0.4, 0.2]","[u'black', u'red', u'blue']","[u'left', u'middle', u'right']","[0.8, 0.4, 0.2]","[u'high', u'low', u'medium']","black",49,"left","high","True","False",339,5150,NA
"AMELYCC59JKB0","Wed Jan 29 2020 08:25:42 GMT-0500 (Eastern Standard Time)","Wed Jan 29 2020 08:33:42 GMT-0500 (Eastern Standard Time)","Mozilla/5.0 (Windows NT 6.3; Win64; x64) AppleWebKit/537.36 (KHTML, like Gecko) Chrome/79.0.3945.130 Safari/537.36",120,"[0.9, 0.5, 0.1]","[0.8, 0.4, 0.2]","[u'black', u'red', u'blue']","[u'left', u'middle', u'right']","[0.8, 0.4, 0.2]","[u'high', u'low', u'medium']","black",49,"left","high","True","False",298,5250,NA
"AMELYCC59JKB0","Wed Jan 29 2020 08:25:42 GMT-0500 (Eastern Standard Time)","Wed Jan 29 2020 08:33:42 GMT-0500 (Eastern Standard Time)","Mozilla/5.0 (Windows NT 6.3; Win64; x64) AppleWebKit/537.36 (KHTML, like Gecko) Chrome/79.0.3945.130 Safari/537.36",121,"[0.9, 0.5, 0.1]","[0.8, 0.4, 0.2]","[u'black', u'red', u'blue']","[u'left', u'middle', u'right']","[0.8, 0.4, 0.2]","[u'low', u'medium', u'high']","black",49,"left","low","False","False",540,5200,NA
"AMELYCC59JKB0","Wed Jan 29 2020 08:25:42 GMT-0500 (Eastern Standard Time)","Wed Jan 29 2020 08:33:42 GMT-0500 (Eastern Standard Time)","Mozilla/5.0 (Windows NT 6.3; Win64; x64) AppleWebKit/537.36 (KHTML, like Gecko) Chrome/79.0.3945.130 Safari/537.36",122,"[0.9, 0.5, 0.1]","[0.8, 0.4, 0.2]","[u'black', u'red', u'blue']","[u'left', u'middle', u'right']","[0.8, 0.4, 0.2]","[u'low', u'medium', u'high']","blue",51,"right","high","True","False",577,5300,NA
"AMELYCC59JKB0","Wed Jan 29 2020 08:25:42 GMT-0500 (Eastern Standard Time)","Wed Jan 29 2020 08:33:42 GMT-0500 (Eastern Standard Time)","Mozilla/5.0 (Windows NT 6.3; Win64; x64) AppleWebKit/537.36 (KHTML, like Gecko) Chrome/79.0.3945.130 Safari/537.36",123,"[0.9, 0.5, 0.1]","[0.8, 0.4, 0.2]","[u'black', u'red', u'blue']","[u'left', u'middle', u'right']","[0.8, 0.4, 0.2]","[u'low', u'medium', u'high']","blue",51,"right","high","True","False",367,5400,NA
"AMELYCC59JKB0","Wed Jan 29 2020 08:25:42 GMT-0500 (Eastern Standard Time)","Wed Jan 29 2020 08:33:42 GMT-0500 (Eastern Standard Time)","Mozilla/5.0 (Windows NT 6.3; Win64; x64) AppleWebKit/537.36 (KHTML, like Gecko) Chrome/79.0.3945.130 Safari/537.36",124,"[0.9, 0.5, 0.1]","[0.8, 0.4, 0.2]","[u'black', u'red', u'blue']","[u'left', u'middle', u'right']","[0.8, 0.4, 0.2]","[u'low', u'medium', u'high']","blue",51,"right","high","True","False",312,5500,NA
"AMELYCC59JKB0","Wed Jan 29 2020 08:25:42 GMT-0500 (Eastern Standard Time)","Wed Jan 29 2020 08:33:42 GMT-0500 (Eastern Standard Time)","Mozilla/5.0 (Windows NT 6.3; Win64; x64) AppleWebKit/537.36 (KHTML, like Gecko) Chrome/79.0.3945.130 Safari/537.36",125,"[0.9, 0.5, 0.1]","[0.8, 0.4, 0.2]","[u'black', u'red', u'blue']","[u'left', u'middle', u'right']","[0.8, 0.4, 0.2]","[u'low', u'medium', u'high']","blue",51,"right","high","True","False",288,5600,NA
"AMELYCC59JKB0","Wed Jan 29 2020 08:25:42 GMT-0500 (Eastern Standard Time)","Wed Jan 29 2020 08:33:42 GMT-0500 (Eastern Standard Time)","Mozilla/5.0 (Windows NT 6.3; Win64; x64) AppleWebKit/537.36 (KHTML, like Gecko) Chrome/79.0.3945.130 Safari/537.36",126,"[0.9, 0.5, 0.1]","[0.8, 0.4, 0.2]","[u'black', u'red', u'blue']","[u'left', u'middle', u'right']","[0.8, 0.4, 0.2]","[u'low', u'medium', u'high']","blue",51,"right","high","True","False",1330,5700,NA
"AMELYCC59JKB0","Wed Jan 29 2020 08:25:42 GMT-0500 (Eastern Standard Time)","Wed Jan 29 2020 08:33:42 GMT-0500 (Eastern Standard Time)","Mozilla/5.0 (Windows NT 6.3; Win64; x64) AppleWebKit/537.36 (KHTML, like Gecko) Chrome/79.0.3945.130 Safari/537.36",127,"[0.9, 0.5, 0.1]","[0.8, 0.4, 0.2]","[u'black', u'red', u'blue']","[u'left', u'middle', u'right']","[0.8, 0.4, 0.2]","[u'low', u'medium', u'high']","blue",51,"right","high","False","False",247,5650,NA
"AMELYCC59JKB0","Wed Jan 29 2020 08:25:42 GMT-0500 (Eastern Standard Time)","Wed Jan 29 2020 08:33:42 GMT-0500 (Eastern Standard Time)","Mozilla/5.0 (Windows NT 6.3; Win64; x64) AppleWebKit/537.36 (KHTML, like Gecko) Chrome/79.0.3945.130 Safari/537.36",128,"[0.9, 0.5, 0.1]","[0.8, 0.4, 0.2]","[u'black', u'red', u'blue']","[u'left', u'middle', u'right']","[0.8, 0.4, 0.2]","[u'low', u'medium', u'high']","red",50,"middle","medium","False","False",51,5600,NA
"AMELYCC59JKB0","Wed Jan 29 2020 08:25:42 GMT-0500 (Eastern Standard Time)","Wed Jan 29 2020 08:33:42 GMT-0500 (Eastern Standard Time)","Mozilla/5.0 (Windows NT 6.3; Win64; x64) AppleWebKit/537.36 (KHTML, like Gecko) Chrome/79.0.3945.130 Safari/537.36",129,"[0.9, 0.5, 0.1]","[0.8, 0.4, 0.2]","[u'black', u'red', u'blue']","[u'left', u'middle', u'right']","[0.8, 0.4, 0.2]","[u'low', u'medium', u'high']","blue",51,"right","high","True","False",282,5700,NA
"AMELYCC59JKB0","Wed Jan 29 2020 08:25:42 GMT-0500 (Eastern Standard Time)","Wed Jan 29 2020 08:33:42 GMT-0500 (Eastern Standard Time)","Mozilla/5.0 (Windows NT 6.3; Win64; x64) AppleWebKit/537.36 (KHTML, like Gecko) Chrome/79.0.3945.130 Safari/537.36",130,"[0.9, 0.5, 0.1]","[0.8, 0.4, 0.2]","[u'black', u'red', u'blue']","[u'left', u'middle', u'right']","[0.8, 0.4, 0.2]","[u'low', u'medium', u'high']","blue",51,"right","high","True","False",130,5800,NA
"AMELYCC59JKB0","Wed Jan 29 2020 08:25:42 GMT-0500 (Eastern Standard Time)","Wed Jan 29 2020 08:33:42 GMT-0500 (Eastern Standard Time)","Mozilla/5.0 (Windows NT 6.3; Win64; x64) AppleWebKit/537.36 (KHTML, like Gecko) Chrome/79.0.3945.130 Safari/537.36",131,"[0.9, 0.5, 0.1]","[0.8, 0.4, 0.2]","[u'black', u'red', u'blue']","[u'left', u'middle', u'right']","[0.8, 0.4, 0.2]","[u'low', u'medium', u'high']","blue",51,"right","high","False","True",188,5750,NA
"AMELYCC59JKB0","Wed Jan 29 2020 08:25:42 GMT-0500 (Eastern Standard Time)","Wed Jan 29 2020 08:33:42 GMT-0500 (Eastern Standard Time)","Mozilla/5.0 (Windows NT 6.3; Win64; x64) AppleWebKit/537.36 (KHTML, like Gecko) Chrome/79.0.3945.130 Safari/537.36",132,"[0.9, 0.5, 0.1]","[0.8, 0.4, 0.2]","[u'black', u'red', u'blue']","[u'left', u'middle', u'right']","[0.8, 0.4, 0.2]","[u'high', u'medium', u'low']","black",49,"left","high","True","False",96,5850,NA
"AMELYCC59JKB0","Wed Jan 29 2020 08:25:42 GMT-0500 (Eastern Standard Time)","Wed Jan 29 2020 08:33:42 GMT-0500 (Eastern Standard Time)","Mozilla/5.0 (Windows NT 6.3; Win64; x64) AppleWebKit/537.36 (KHTML, like Gecko) Chrome/79.0.3945.130 Safari/537.36",133,"[0.9, 0.5, 0.1]","[0.8, 0.4, 0.2]","[u'black', u'red', u'blue']","[u'left', u'middle', u'right']","[0.8, 0.4, 0.2]","[u'high', u'medium', u'low']","blue",51,"right","low","False","False",419,5800,NA
"AMELYCC59JKB0","Wed Jan 29 2020 08:25:42 GMT-0500 (Eastern Standard Time)","Wed Jan 29 2020 08:33:42 GMT-0500 (Eastern Standard Time)","Mozilla/5.0 (Windows NT 6.3; Win64; x64) AppleWebKit/537.36 (KHTML, like Gecko) Chrome/79.0.3945.130 Safari/537.36",134,"[0.9, 0.5, 0.1]","[0.8, 0.4, 0.2]","[u'black', u'red', u'blue']","[u'left', u'middle', u'right']","[0.8, 0.4, 0.2]","[u'high', u'medium', u'low']","black",49,"left","high","False","False",243,5750,NA
"AMELYCC59JKB0","Wed Jan 29 2020 08:25:42 GMT-0500 (Eastern Standard Time)","Wed Jan 29 2020 08:33:42 GMT-0500 (Eastern Standard Time)","Mozilla/5.0 (Windows NT 6.3; Win64; x64) AppleWebKit/537.36 (KHTML, like Gecko) Chrome/79.0.3945.130 Safari/537.36",135,"[0.9, 0.5, 0.1]","[0.8, 0.4, 0.2]","[u'black', u'red', u'blue']","[u'left', u'middle', u'right']","[0.8, 0.4, 0.2]","[u'high', u'medium', u'low']","red",50,"middle","medium","False","False",277,5700,NA
"AMELYCC59JKB0","Wed Jan 29 2020 08:25:42 GMT-0500 (Eastern Standard Time)","Wed Jan 29 2020 08:33:42 GMT-0500 (Eastern Standard Time)","Mozilla/5.0 (Windows NT 6.3; Win64; x64) AppleWebKit/537.36 (KHTML, like Gecko) Chrome/79.0.3945.130 Safari/537.36",136,"[0.9, 0.5, 0.1]","[0.8, 0.4, 0.2]","[u'black', u'red', u'blue']","[u'left', u'middle', u'right']","[0.8, 0.4, 0.2]","[u'high', u'medium', u'low']","blue",51,"right","low","False","False",111,5650,NA
"AMELYCC59JKB0","Wed Jan 29 2020 08:25:42 GMT-0500 (Eastern Standard Time)","Wed Jan 29 2020 08:33:42 GMT-0500 (Eastern Standard Time)","Mozilla/5.0 (Windows NT 6.3; Win64; x64) AppleWebKit/537.36 (KHTML, like Gecko) Chrome/79.0.3945.130 Safari/537.36",137,"[0.9, 0.5, 0.1]","[0.8, 0.4, 0.2]","[u'black', u'red', u'blue']","[u'left', u'middle', u'right']","[0.8, 0.4, 0.2]","[u'high', u'medium', u'low']","black",49,"left","high","True","False",104,5750,NA
"AMELYCC59JKB0","Wed Jan 29 2020 08:25:42 GMT-0500 (Eastern Standard Time)","Wed Jan 29 2020 08:33:42 GMT-0500 (Eastern Standard Time)","Mozilla/5.0 (Windows NT 6.3; Win64; x64) AppleWebKit/537.36 (KHTML, like Gecko) Chrome/79.0.3945.130 Safari/537.36",138,"[0.9, 0.5, 0.1]","[0.8, 0.4, 0.2]","[u'black', u'red', u'blue']","[u'left', u'middle', u'right']","[0.8, 0.4, 0.2]","[u'high', u'medium', u'low']","black",49,"left","high","True","False",142,5850,NA
"AMELYCC59JKB0","Wed Jan 29 2020 08:25:42 GMT-0500 (Eastern Standard Time)","Wed Jan 29 2020 08:33:42 GMT-0500 (Eastern Standard Time)","Mozilla/5.0 (Windows NT 6.3; Win64; x64) AppleWebKit/537.36 (KHTML, like Gecko) Chrome/79.0.3945.130 Safari/537.36",139,"[0.9, 0.5, 0.1]","[0.8, 0.4, 0.2]","[u'black', u'red', u'blue']","[u'left', u'middle', u'right']","[0.8, 0.4, 0.2]","[u'high', u'medium', u'low']","black",49,"left","high","True","False",181,5950,NA
"AMELYCC59JKB0","Wed Jan 29 2020 08:25:42 GMT-0500 (Eastern Standard Time)","Wed Jan 29 2020 08:33:42 GMT-0500 (Eastern Standard Time)","Mozilla/5.0 (Windows NT 6.3; Win64; x64) AppleWebKit/537.36 (KHTML, like Gecko) Chrome/79.0.3945.130 Safari/537.36",140,"[0.9, 0.5, 0.1]","[0.8, 0.4, 0.2]","[u'black', u'red', u'blue']","[u'left', u'middle', u'right']","[0.8, 0.4, 0.2]","[u'high', u'medium', u'low']","black",49,"left","high","True","False",276,6050,NA
"AMELYCC59JKB0","Wed Jan 29 2020 08:25:42 GMT-0500 (Eastern Standard Time)","Wed Jan 29 2020 08:33:42 GMT-0500 (Eastern Standard Time)","Mozilla/5.0 (Windows NT 6.3; Win64; x64) AppleWebKit/537.36 (KHTML, like Gecko) Chrome/79.0.3945.130 Safari/537.36",141,"[0.9, 0.5, 0.1]","[0.8, 0.4, 0.2]","[u'black', u'red', u'blue']","[u'left', u'middle', u'right']","[0.8, 0.4, 0.2]","[u'high', u'medium', u'low']","black",49,"left","high","False","False",283,6000,NA
"AMELYCC59JKB0","Wed Jan 29 2020 08:25:42 GMT-0500 (Eastern Standard Time)","Wed Jan 29 2020 08:33:42 GMT-0500 (Eastern Standard Time)","Mozilla/5.0 (Windows NT 6.3; Win64; x64) AppleWebKit/537.36 (KHTML, like Gecko) Chrome/79.0.3945.130 Safari/537.36",142,"[0.9, 0.5, 0.1]","[0.8, 0.4, 0.2]","[u'black', u'red', u'blue']","[u'left', u'middle', u'right']","[0.8, 0.4, 0.2]","[u'high', u'medium', u'low']","blue",51,"right","low","False","False",332,5950,NA
"AMELYCC59JKB0","Wed Jan 29 2020 08:25:42 GMT-0500 (Eastern Standard Time)","Wed Jan 29 2020 08:33:42 GMT-0500 (Eastern Standard Time)","Mozilla/5.0 (Windows NT 6.3; Win64; x64) AppleWebKit/537.36 (KHTML, like Gecko) Chrome/79.0.3945.130 Safari/537.36",143,"[0.9, 0.5, 0.1]","[0.8, 0.4, 0.2]","[u'black', u'red', u'blue']","[u'left', u'middle', u'right']","[0.8, 0.4, 0.2]","[u'high', u'medium', u'low']","red",50,"middle","medium","False","False",279,5900,NA
"AMELYCC59JKB0","Wed Jan 29 2020 08:25:42 GMT-0500 (Eastern Standard Time)","Wed Jan 29 2020 08:33:42 GMT-0500 (Eastern Standard Time)","Mozilla/5.0 (Windows NT 6.3; Win64; x64) AppleWebKit/537.36 (KHTML, like Gecko) Chrome/79.0.3945.130 Safari/537.36",144,"[0.9, 0.5, 0.1]","[0.8, 0.4, 0.2]","[u'black', u'red', u'blue']","[u'left', u'middle', u'right']","[0.8, 0.4, 0.2]","[u'high', u'medium', u'low']","black",49,"left","high","True","False",265,6000,NA
"AMELYCC59JKB0","Wed Jan 29 2020 08:25:42 GMT-0500 (Eastern Standard Time)","Wed Jan 29 2020 08:33:42 GMT-0500 (Eastern Standard Time)","Mozilla/5.0 (Windows NT 6.3; Win64; x64) AppleWebKit/537.36 (KHTML, like Gecko) Chrome/79.0.3945.130 Safari/537.36",145,"[0.9, 0.5, 0.1]","[0.8, 0.4, 0.2]","[u'black', u'red', u'blue']","[u'left', u'middle', u'right']","[0.8, 0.4, 0.2]","[u'high', u'medium', u'low']","black",49,"left","high","False","False",256,5950,NA
"AMELYCC59JKB0","Wed Jan 29 2020 08:25:42 GMT-0500 (Eastern Standard Time)","Wed Jan 29 2020 08:33:42 GMT-0500 (Eastern Standard Time)","Mozilla/5.0 (Windows NT 6.3; Win64; x64) AppleWebKit/537.36 (KHTML, like Gecko) Chrome/79.0.3945.130 Safari/537.36",146,"[0.9, 0.5, 0.1]","[0.8, 0.4, 0.2]","[u'black', u'red', u'blue']","[u'left', u'middle', u'right']","[0.8, 0.4, 0.2]","[u'high', u'medium', u'low']","blue",51,"right","low","False","False",2066,5900,NA
"AMELYCC59JKB0","Wed Jan 29 2020 08:25:42 GMT-0500 (Eastern Standard Time)","Wed Jan 29 2020 08:33:42 GMT-0500 (Eastern Standard Time)","Mozilla/5.0 (Windows NT 6.3; Win64; x64) AppleWebKit/537.36 (KHTML, like Gecko) Chrome/79.0.3945.130 Safari/537.36",147,"[0.9, 0.5, 0.1]","[0.8, 0.4, 0.2]","[u'black', u'red', u'blue']","[u'left', u'middle', u'right']","[0.8, 0.4, 0.2]","[u'high', u'medium', u'low']","red",50,"middle","medium","True","False",2880,6000,NA
"AMELYCC59JKB0","Wed Jan 29 2020 08:25:42 GMT-0500 (Eastern Standard Time)","Wed Jan 29 2020 08:33:42 GMT-0500 (Eastern Standard Time)","Mozilla/5.0 (Windows NT 6.3; Win64; x64) AppleWebKit/537.36 (KHTML, like Gecko) Chrome/79.0.3945.130 Safari/537.36",148,"[0.9, 0.5, 0.1]","[0.8, 0.4, 0.2]","[u'black', u'red', u'blue']","[u'left', u'middle', u'right']","[0.8, 0.4, 0.2]","[u'high', u'medium', u'low']","red",50,"middle","medium","False","False",191,5950,NA
"AMELYCC59JKB0","Wed Jan 29 2020 08:25:42 GMT-0500 (Eastern Standard Time)","Wed Jan 29 2020 08:33:42 GMT-0500 (Eastern Standard Time)","Mozilla/5.0 (Windows NT 6.3; Win64; x64) AppleWebKit/537.36 (KHTML, like Gecko) Chrome/79.0.3945.130 Safari/537.36",149,"[0.9, 0.5, 0.1]","[0.8, 0.4, 0.2]","[u'black', u'red', u'blue']","[u'left', u'middle', u'right']","[0.8, 0.4, 0.2]","[u'high', u'medium', u'low']","black",49,"left","high","True","False",400,6050,NA
"AMELYCC59JKB0","Wed Jan 29 2020 08:25:42 GMT-0500 (Eastern Standard Time)","Wed Jan 29 2020 08:33:42 GMT-0500 (Eastern Standard Time)","Mozilla/5.0 (Windows NT 6.3; Win64; x64) AppleWebKit/537.36 (KHTML, like Gecko) Chrome/79.0.3945.130 Safari/537.36",150,"[0.9, 0.5, 0.1]","[0.8, 0.4, 0.2]","[u'black', u'red', u'blue']","[u'left', u'middle', u'right']","[0.8, 0.4, 0.2]","[u'high', u'medium', u'low']","black",49,"left","high","True","False",214,6150,NA
"AMELYCC59JKB0","Wed Jan 29 2020 08:25:42 GMT-0500 (Eastern Standard Time)","Wed Jan 29 2020 08:33:42 GMT-0500 (Eastern Standard Time)","Mozilla/5.0 (Windows NT 6.3; Win64; x64) AppleWebKit/537.36 (KHTML, like Gecko) Chrome/79.0.3945.130 Safari/537.36",151,"[0.9, 0.5, 0.1]","[0.8, 0.4, 0.2]","[u'black', u'red', u'blue']","[u'left', u'middle', u'right']","[0.8, 0.4, 0.2]","[u'high', u'medium', u'low']","black",49,"left","high","True","False",264,6250,NA
"AMELYCC59JKB0","Wed Jan 29 2020 08:25:42 GMT-0500 (Eastern Standard Time)","Wed Jan 29 2020 08:33:42 GMT-0500 (Eastern Standard Time)","Mozilla/5.0 (Windows NT 6.3; Win64; x64) AppleWebKit/537.36 (KHTML, like Gecko) Chrome/79.0.3945.130 Safari/537.36",152,"[0.9, 0.5, 0.1]","[0.8, 0.4, 0.2]","[u'black', u'red', u'blue']","[u'left', u'middle', u'right']","[0.8, 0.4, 0.2]","[u'high', u'medium', u'low']","black",49,"left","high","False","False",374,6200,NA
"AMELYCC59JKB0","Wed Jan 29 2020 08:25:42 GMT-0500 (Eastern Standard Time)","Wed Jan 29 2020 08:33:42 GMT-0500 (Eastern Standard Time)","Mozilla/5.0 (Windows NT 6.3; Win64; x64) AppleWebKit/537.36 (KHTML, like Gecko) Chrome/79.0.3945.130 Safari/537.36",153,"[0.9, 0.5, 0.1]","[0.8, 0.4, 0.2]","[u'black', u'red', u'blue']","[u'left', u'middle', u'right']","[0.8, 0.4, 0.2]","[u'high', u'medium', u'low']","blue",51,"right","low","False","False",610,6150,NA
"AMELYCC59JKB0","Wed Jan 29 2020 08:25:42 GMT-0500 (Eastern Standard Time)","Wed Jan 29 2020 08:33:42 GMT-0500 (Eastern Standard Time)","Mozilla/5.0 (Windows NT 6.3; Win64; x64) AppleWebKit/537.36 (KHTML, like Gecko) Chrome/79.0.3945.130 Safari/537.36",154,"[0.9, 0.5, 0.1]","[0.8, 0.4, 0.2]","[u'black', u'red', u'blue']","[u'left', u'middle', u'right']","[0.8, 0.4, 0.2]","[u'high', u'medium', u'low']","red",50,"middle","medium","False","False",654,6100,NA
"AMELYCC59JKB0","Wed Jan 29 2020 08:25:42 GMT-0500 (Eastern Standard Time)","Wed Jan 29 2020 08:33:42 GMT-0500 (Eastern Standard Time)","Mozilla/5.0 (Windows NT 6.3; Win64; x64) AppleWebKit/537.36 (KHTML, like Gecko) Chrome/79.0.3945.130 Safari/537.36",155,"[0.9, 0.5, 0.1]","[0.8, 0.4, 0.2]","[u'black', u'red', u'blue']","[u'left', u'middle', u'right']","[0.8, 0.4, 0.2]","[u'high', u'medium', u'low']","black",49,"left","high","True","False",258,6200,NA
"AMELYCC59JKB0","Wed Jan 29 2020 08:25:42 GMT-0500 (Eastern Standard Time)","Wed Jan 29 2020 08:33:42 GMT-0500 (Eastern Standard Time)","Mozilla/5.0 (Windows NT 6.3; Win64; x64) AppleWebKit/537.36 (KHTML, like Gecko) Chrome/79.0.3945.130 Safari/537.36",156,"[0.9, 0.5, 0.1]","[0.8, 0.4, 0.2]","[u'black', u'red', u'blue']","[u'left', u'middle', u'right']","[0.8, 0.4, 0.2]","[u'high', u'medium', u'low']","black",49,"left","high","True","False",2004,6300,NA
"AMELYCC59JKB0","Wed Jan 29 2020 08:25:42 GMT-0500 (Eastern Standard Time)","Wed Jan 29 2020 08:33:42 GMT-0500 (Eastern Standard Time)","Mozilla/5.0 (Windows NT 6.3; Win64; x64) AppleWebKit/537.36 (KHTML, like Gecko) Chrome/79.0.3945.130 Safari/537.36",157,"[0.9, 0.5, 0.1]","[0.8, 0.4, 0.2]","[u'black', u'red', u'blue']","[u'left', u'middle', u'right']","[0.8, 0.4, 0.2]","[u'high', u'medium', u'low']","black",49,"left","high","True","False",2302,6400,NA
"AMELYCC59JKB0","Wed Jan 29 2020 08:25:42 GMT-0500 (Eastern Standard Time)","Wed Jan 29 2020 08:33:42 GMT-0500 (Eastern Standard Time)","Mozilla/5.0 (Windows NT 6.3; Win64; x64) AppleWebKit/537.36 (KHTML, like Gecko) Chrome/79.0.3945.130 Safari/537.36",158,"[0.9, 0.5, 0.1]","[0.8, 0.4, 0.2]","[u'black', u'red', u'blue']","[u'left', u'middle', u'right']","[0.8, 0.4, 0.2]","[u'high', u'medium', u'low']","black",49,"left","high","True","False",431,6500,NA
"AMELYCC59JKB0","Wed Jan 29 2020 08:25:42 GMT-0500 (Eastern Standard Time)","Wed Jan 29 2020 08:33:42 GMT-0500 (Eastern Standard Time)","Mozilla/5.0 (Windows NT 6.3; Win64; x64) AppleWebKit/537.36 (KHTML, like Gecko) Chrome/79.0.3945.130 Safari/537.36",159,"[0.9, 0.5, 0.1]","[0.8, 0.4, 0.2]","[u'black', u'red', u'blue']","[u'left', u'middle', u'right']","[0.8, 0.4, 0.2]","[u'high', u'medium', u'low']","black",49,"left","high","True","False",820,6600,NA
"AMELYCC59JKB0","Wed Jan 29 2020 08:25:42 GMT-0500 (Eastern Standard Time)","Wed Jan 29 2020 08:33:42 GMT-0500 (Eastern Standard Time)","Mozilla/5.0 (Windows NT 6.3; Win64; x64) AppleWebKit/537.36 (KHTML, like Gecko) Chrome/79.0.3945.130 Safari/537.36",160,"[0.9, 0.5, 0.1]","[0.8, 0.4, 0.2]","[u'black', u'red', u'blue']","[u'left', u'middle', u'right']","[0.8, 0.4, 0.2]","[u'high', u'medium', u'low']","black",49,"left","high","True","False",674,6700,NA
