"src_subject_id","start_time","end_time","browser","index","first_half_probabilities","second_half_probabilities","deck_color","deck_position","deck_probabilities","deck_contingencies","response_color","key_press","response_position","response_probability","reward_type","trial_type","rt","reward_tally","exclusion_reason"
"A5TMU62U5FE5K","Wed Jan 29 2020 06:17:22 GMT-0700 (Mountain Standard Time)","Wed Jan 29 2020 06:38:26 GMT-0700 (Mountain Standard Time)","Mozilla/5.0 (Windows NT 6.1; Win64; x64) AppleWebKit/537.36 (KHTML, like Gecko) Chrome/79.0.3945.130 Safari/537.36",1,"[0.9, 0.5, 0.1]","[0.8, 0.4, 0.2]","[u'black', u'red', u'blue']","[u'left', u'middle', u'right']","[0.9, 0.5, 0.1]","[u'high', u'low', u'medium']","red",50,"middle","low","False","False",3397,-50,NA
"A5TMU62U5FE5K","Wed Jan 29 2020 06:17:22 GMT-0700 (Mountain Standard Time)","Wed Jan 29 2020 06:38:26 GMT-0700 (Mountain Standard Time)","Mozilla/5.0 (Windows NT 6.1; Win64; x64) AppleWebKit/537.36 (KHTML, like Gecko) Chrome/79.0.3945.130 Safari/537.36",2,"[0.9, 0.5, 0.1]","[0.8, 0.4, 0.2]","[u'black', u'red', u'blue']","[u'left', u'middle', u'right']","[0.9, 0.5, 0.1]","[u'high', u'low', u'medium']","black",49,"left","high","True","False",2260,50,NA
"A5TMU62U5FE5K","Wed Jan 29 2020 06:17:22 GMT-0700 (Mountain Standard Time)","Wed Jan 29 2020 06:38:26 GMT-0700 (Mountain Standard Time)","Mozilla/5.0 (Windows NT 6.1; Win64; x64) AppleWebKit/537.36 (KHTML, like Gecko) Chrome/79.0.3945.130 Safari/537.36",3,"[0.9, 0.5, 0.1]","[0.8, 0.4, 0.2]","[u'black', u'red', u'blue']","[u'left', u'middle', u'right']","[0.9, 0.5, 0.1]","[u'high', u'low', u'medium']","black",49,"left","high","True","False",810,150,NA
"A5TMU62U5FE5K","Wed Jan 29 2020 06:17:22 GMT-0700 (Mountain Standard Time)","Wed Jan 29 2020 06:38:26 GMT-0700 (Mountain Standard Time)","Mozilla/5.0 (Windows NT 6.1; Win64; x64) AppleWebKit/537.36 (KHTML, like Gecko) Chrome/79.0.3945.130 Safari/537.36",4,"[0.9, 0.5, 0.1]","[0.8, 0.4, 0.2]","[u'black', u'red', u'blue']","[u'left', u'middle', u'right']","[0.9, 0.5, 0.1]","[u'high', u'low', u'medium']","black",49,"left","high","True","False",618,250,NA
"A5TMU62U5FE5K","Wed Jan 29 2020 06:17:22 GMT-0700 (Mountain Standard Time)","Wed Jan 29 2020 06:38:26 GMT-0700 (Mountain Standard Time)","Mozilla/5.0 (Windows NT 6.1; Win64; x64) AppleWebKit/537.36 (KHTML, like Gecko) Chrome/79.0.3945.130 Safari/537.36",5,"[0.9, 0.5, 0.1]","[0.8, 0.4, 0.2]","[u'black', u'red', u'blue']","[u'left', u'middle', u'right']","[0.9, 0.5, 0.1]","[u'high', u'low', u'medium']","black",49,"left","high","True","False",691,350,NA
"A5TMU62U5FE5K","Wed Jan 29 2020 06:17:22 GMT-0700 (Mountain Standard Time)","Wed Jan 29 2020 06:38:26 GMT-0700 (Mountain Standard Time)","Mozilla/5.0 (Windows NT 6.1; Win64; x64) AppleWebKit/537.36 (KHTML, like Gecko) Chrome/79.0.3945.130 Safari/537.36",6,"[0.9, 0.5, 0.1]","[0.8, 0.4, 0.2]","[u'black', u'red', u'blue']","[u'left', u'middle', u'right']","[0.9, 0.5, 0.1]","[u'high', u'low', u'medium']","black",49,"left","high","True","False",643,450,NA
"A5TMU62U5FE5K","Wed Jan 29 2020 06:17:22 GMT-0700 (Mountain Standard Time)","Wed Jan 29 2020 06:38:26 GMT-0700 (Mountain Standard Time)","Mozilla/5.0 (Windows NT 6.1; Win64; x64) AppleWebKit/537.36 (KHTML, like Gecko) Chrome/79.0.3945.130 Safari/537.36",7,"[0.9, 0.5, 0.1]","[0.8, 0.4, 0.2]","[u'black', u'red', u'blue']","[u'left', u'middle', u'right']","[0.9, 0.5, 0.1]","[u'high', u'low', u'medium']","black",49,"left","high","True","False",564,550,NA
"A5TMU62U5FE5K","Wed Jan 29 2020 06:17:22 GMT-0700 (Mountain Standard Time)","Wed Jan 29 2020 06:38:26 GMT-0700 (Mountain Standard Time)","Mozilla/5.0 (Windows NT 6.1; Win64; x64) AppleWebKit/537.36 (KHTML, like Gecko) Chrome/79.0.3945.130 Safari/537.36",8,"[0.9, 0.5, 0.1]","[0.8, 0.4, 0.2]","[u'black', u'red', u'blue']","[u'left', u'middle', u'right']","[0.9, 0.5, 0.1]","[u'high', u'low', u'medium']","black",49,"left","high","False","False",564,500,NA
"A5TMU62U5FE5K","Wed Jan 29 2020 06:17:22 GMT-0700 (Mountain Standard Time)","Wed Jan 29 2020 06:38:26 GMT-0700 (Mountain Standard Time)","Mozilla/5.0 (Windows NT 6.1; Win64; x64) AppleWebKit/537.36 (KHTML, like Gecko) Chrome/79.0.3945.130 Safari/537.36",9,"[0.9, 0.5, 0.1]","[0.8, 0.4, 0.2]","[u'black', u'red', u'blue']","[u'left', u'middle', u'right']","[0.9, 0.5, 0.1]","[u'high', u'low', u'medium']","blue",51,"right","medium","False","False",650,450,NA
"A5TMU62U5FE5K","Wed Jan 29 2020 06:17:22 GMT-0700 (Mountain Standard Time)","Wed Jan 29 2020 06:38:26 GMT-0700 (Mountain Standard Time)","Mozilla/5.0 (Windows NT 6.1; Win64; x64) AppleWebKit/537.36 (KHTML, like Gecko) Chrome/79.0.3945.130 Safari/537.36",10,"[0.9, 0.5, 0.1]","[0.8, 0.4, 0.2]","[u'black', u'red', u'blue']","[u'left', u'middle', u'right']","[0.9, 0.5, 0.1]","[u'high', u'low', u'medium']","red",50,"middle","low","False","False",524,400,NA
"A5TMU62U5FE5K","Wed Jan 29 2020 06:17:22 GMT-0700 (Mountain Standard Time)","Wed Jan 29 2020 06:38:26 GMT-0700 (Mountain Standard Time)","Mozilla/5.0 (Windows NT 6.1; Win64; x64) AppleWebKit/537.36 (KHTML, like Gecko) Chrome/79.0.3945.130 Safari/537.36",11,"[0.9, 0.5, 0.1]","[0.8, 0.4, 0.2]","[u'black', u'red', u'blue']","[u'left', u'middle', u'right']","[0.9, 0.5, 0.1]","[u'high', u'low', u'medium']","black",49,"left","high","True","False",420,500,NA
"A5TMU62U5FE5K","Wed Jan 29 2020 06:17:22 GMT-0700 (Mountain Standard Time)","Wed Jan 29 2020 06:38:26 GMT-0700 (Mountain Standard Time)","Mozilla/5.0 (Windows NT 6.1; Win64; x64) AppleWebKit/537.36 (KHTML, like Gecko) Chrome/79.0.3945.130 Safari/537.36",12,"[0.9, 0.5, 0.1]","[0.8, 0.4, 0.2]","[u'black', u'red', u'blue']","[u'left', u'middle', u'right']","[0.9, 0.5, 0.1]","[u'high', u'low', u'medium']","black",49,"left","high","True","False",770,600,NA
"A5TMU62U5FE5K","Wed Jan 29 2020 06:17:22 GMT-0700 (Mountain Standard Time)","Wed Jan 29 2020 06:38:26 GMT-0700 (Mountain Standard Time)","Mozilla/5.0 (Windows NT 6.1; Win64; x64) AppleWebKit/537.36 (KHTML, like Gecko) Chrome/79.0.3945.130 Safari/537.36",13,"[0.9, 0.5, 0.1]","[0.8, 0.4, 0.2]","[u'black', u'red', u'blue']","[u'left', u'middle', u'right']","[0.9, 0.5, 0.1]","[u'high', u'low', u'medium']","black",49,"left","high","True","False",428,700,NA
"A5TMU62U5FE5K","Wed Jan 29 2020 06:17:22 GMT-0700 (Mountain Standard Time)","Wed Jan 29 2020 06:38:26 GMT-0700 (Mountain Standard Time)","Mozilla/5.0 (Windows NT 6.1; Win64; x64) AppleWebKit/537.36 (KHTML, like Gecko) Chrome/79.0.3945.130 Safari/537.36",14,"[0.9, 0.5, 0.1]","[0.8, 0.4, 0.2]","[u'black', u'red', u'blue']","[u'left', u'middle', u'right']","[0.9, 0.5, 0.1]","[u'high', u'low', u'medium']","black",49,"left","high","True","False",515,800,NA
"A5TMU62U5FE5K","Wed Jan 29 2020 06:17:22 GMT-0700 (Mountain Standard Time)","Wed Jan 29 2020 06:38:26 GMT-0700 (Mountain Standard Time)","Mozilla/5.0 (Windows NT 6.1; Win64; x64) AppleWebKit/537.36 (KHTML, like Gecko) Chrome/79.0.3945.130 Safari/537.36",15,"[0.9, 0.5, 0.1]","[0.8, 0.4, 0.2]","[u'black', u'red', u'blue']","[u'left', u'middle', u'right']","[0.9, 0.5, 0.1]","[u'high', u'low', u'medium']","black",49,"left","high","True","False",475,900,NA
"A5TMU62U5FE5K","Wed Jan 29 2020 06:17:22 GMT-0700 (Mountain Standard Time)","Wed Jan 29 2020 06:38:26 GMT-0700 (Mountain Standard Time)","Mozilla/5.0 (Windows NT 6.1; Win64; x64) AppleWebKit/537.36 (KHTML, like Gecko) Chrome/79.0.3945.130 Safari/537.36",16,"[0.9, 0.5, 0.1]","[0.8, 0.4, 0.2]","[u'black', u'red', u'blue']","[u'left', u'middle', u'right']","[0.9, 0.5, 0.1]","[u'high', u'low', u'medium']","black",49,"left","high","False","False",364,850,NA
"A5TMU62U5FE5K","Wed Jan 29 2020 06:17:22 GMT-0700 (Mountain Standard Time)","Wed Jan 29 2020 06:38:26 GMT-0700 (Mountain Standard Time)","Mozilla/5.0 (Windows NT 6.1; Win64; x64) AppleWebKit/537.36 (KHTML, like Gecko) Chrome/79.0.3945.130 Safari/537.36",17,"[0.9, 0.5, 0.1]","[0.8, 0.4, 0.2]","[u'black', u'red', u'blue']","[u'left', u'middle', u'right']","[0.9, 0.5, 0.1]","[u'high', u'low', u'medium']","red",50,"middle","low","False","False",458,800,NA
"A5TMU62U5FE5K","Wed Jan 29 2020 06:17:22 GMT-0700 (Mountain Standard Time)","Wed Jan 29 2020 06:38:26 GMT-0700 (Mountain Standard Time)","Mozilla/5.0 (Windows NT 6.1; Win64; x64) AppleWebKit/537.36 (KHTML, like Gecko) Chrome/79.0.3945.130 Safari/537.36",18,"[0.9, 0.5, 0.1]","[0.8, 0.4, 0.2]","[u'black', u'red', u'blue']","[u'left', u'middle', u'right']","[0.9, 0.5, 0.1]","[u'high', u'low', u'medium']","blue",51,"right","medium","True","False",324,900,NA
"A5TMU62U5FE5K","Wed Jan 29 2020 06:17:22 GMT-0700 (Mountain Standard Time)","Wed Jan 29 2020 06:38:26 GMT-0700 (Mountain Standard Time)","Mozilla/5.0 (Windows NT 6.1; Win64; x64) AppleWebKit/537.36 (KHTML, like Gecko) Chrome/79.0.3945.130 Safari/537.36",19,"[0.9, 0.5, 0.1]","[0.8, 0.4, 0.2]","[u'black', u'red', u'blue']","[u'left', u'middle', u'right']","[0.9, 0.5, 0.1]","[u'high', u'low', u'medium']","blue",51,"right","medium","True","False",363,1000,NA
"A5TMU62U5FE5K","Wed Jan 29 2020 06:17:22 GMT-0700 (Mountain Standard Time)","Wed Jan 29 2020 06:38:26 GMT-0700 (Mountain Standard Time)","Mozilla/5.0 (Windows NT 6.1; Win64; x64) AppleWebKit/537.36 (KHTML, like Gecko) Chrome/79.0.3945.130 Safari/537.36",20,"[0.9, 0.5, 0.1]","[0.8, 0.4, 0.2]","[u'black', u'red', u'blue']","[u'left', u'middle', u'right']","[0.9, 0.5, 0.1]","[u'high', u'low', u'medium']","blue",51,"right","medium","True","False",362,1100,NA
"A5TMU62U5FE5K","Wed Jan 29 2020 06:17:22 GMT-0700 (Mountain Standard Time)","Wed Jan 29 2020 06:38:26 GMT-0700 (Mountain Standard Time)","Mozilla/5.0 (Windows NT 6.1; Win64; x64) AppleWebKit/537.36 (KHTML, like Gecko) Chrome/79.0.3945.130 Safari/537.36",21,"[0.9, 0.5, 0.1]","[0.8, 0.4, 0.2]","[u'black', u'red', u'blue']","[u'left', u'middle', u'right']","[0.9, 0.5, 0.1]","[u'high', u'low', u'medium']","blue",51,"right","medium","False","False",411,1050,NA
"A5TMU62U5FE5K","Wed Jan 29 2020 06:17:22 GMT-0700 (Mountain Standard Time)","Wed Jan 29 2020 06:38:26 GMT-0700 (Mountain Standard Time)","Mozilla/5.0 (Windows NT 6.1; Win64; x64) AppleWebKit/537.36 (KHTML, like Gecko) Chrome/79.0.3945.130 Safari/537.36",22,"[0.9, 0.5, 0.1]","[0.8, 0.4, 0.2]","[u'black', u'red', u'blue']","[u'left', u'middle', u'right']","[0.9, 0.5, 0.1]","[u'high', u'low', u'medium']","black",49,"left","high","True","False",523,1150,NA
"A5TMU62U5FE5K","Wed Jan 29 2020 06:17:22 GMT-0700 (Mountain Standard Time)","Wed Jan 29 2020 06:38:26 GMT-0700 (Mountain Standard Time)","Mozilla/5.0 (Windows NT 6.1; Win64; x64) AppleWebKit/537.36 (KHTML, like Gecko) Chrome/79.0.3945.130 Safari/537.36",23,"[0.9, 0.5, 0.1]","[0.8, 0.4, 0.2]","[u'black', u'red', u'blue']","[u'left', u'middle', u'right']","[0.9, 0.5, 0.1]","[u'high', u'low', u'medium']","black",49,"left","high","True","False",355,1250,NA
"A5TMU62U5FE5K","Wed Jan 29 2020 06:17:22 GMT-0700 (Mountain Standard Time)","Wed Jan 29 2020 06:38:26 GMT-0700 (Mountain Standard Time)","Mozilla/5.0 (Windows NT 6.1; Win64; x64) AppleWebKit/537.36 (KHTML, like Gecko) Chrome/79.0.3945.130 Safari/537.36",24,"[0.9, 0.5, 0.1]","[0.8, 0.4, 0.2]","[u'black', u'red', u'blue']","[u'left', u'middle', u'right']","[0.9, 0.5, 0.1]","[u'high', u'low', u'medium']","black",49,"left","high","False","False",347,1200,NA
"A5TMU62U5FE5K","Wed Jan 29 2020 06:17:22 GMT-0700 (Mountain Standard Time)","Wed Jan 29 2020 06:38:26 GMT-0700 (Mountain Standard Time)","Mozilla/5.0 (Windows NT 6.1; Win64; x64) AppleWebKit/537.36 (KHTML, like Gecko) Chrome/79.0.3945.130 Safari/537.36",25,"[0.9, 0.5, 0.1]","[0.8, 0.4, 0.2]","[u'black', u'red', u'blue']","[u'left', u'middle', u'right']","[0.9, 0.5, 0.1]","[u'high', u'low', u'medium']","red",50,"middle","low","False","False",372,1150,NA
"A5TMU62U5FE5K","Wed Jan 29 2020 06:17:22 GMT-0700 (Mountain Standard Time)","Wed Jan 29 2020 06:38:26 GMT-0700 (Mountain Standard Time)","Mozilla/5.0 (Windows NT 6.1; Win64; x64) AppleWebKit/537.36 (KHTML, like Gecko) Chrome/79.0.3945.130 Safari/537.36",26,"[0.9, 0.5, 0.1]","[0.8, 0.4, 0.2]","[u'black', u'red', u'blue']","[u'left', u'middle', u'right']","[0.9, 0.5, 0.1]","[u'high', u'low', u'medium']","blue",51,"right","medium","True","False",4686,1250,NA
"A5TMU62U5FE5K","Wed Jan 29 2020 06:17:22 GMT-0700 (Mountain Standard Time)","Wed Jan 29 2020 06:38:26 GMT-0700 (Mountain Standard Time)","Mozilla/5.0 (Windows NT 6.1; Win64; x64) AppleWebKit/537.36 (KHTML, like Gecko) Chrome/79.0.3945.130 Safari/537.36",27,"[0.9, 0.5, 0.1]","[0.8, 0.4, 0.2]","[u'black', u'red', u'blue']","[u'left', u'middle', u'right']","[0.9, 0.5, 0.1]","[u'high', u'low', u'medium']","blue",51,"right","medium","True","False",363,1350,NA
"A5TMU62U5FE5K","Wed Jan 29 2020 06:17:22 GMT-0700 (Mountain Standard Time)","Wed Jan 29 2020 06:38:26 GMT-0700 (Mountain Standard Time)","Mozilla/5.0 (Windows NT 6.1; Win64; x64) AppleWebKit/537.36 (KHTML, like Gecko) Chrome/79.0.3945.130 Safari/537.36",28,"[0.9, 0.5, 0.1]","[0.8, 0.4, 0.2]","[u'black', u'red', u'blue']","[u'left', u'middle', u'right']","[0.9, 0.5, 0.1]","[u'high', u'low', u'medium']","blue",51,"right","medium","False","False",4307,1300,NA
"A5TMU62U5FE5K","Wed Jan 29 2020 06:17:22 GMT-0700 (Mountain Standard Time)","Wed Jan 29 2020 06:38:26 GMT-0700 (Mountain Standard Time)","Mozilla/5.0 (Windows NT 6.1; Win64; x64) AppleWebKit/537.36 (KHTML, like Gecko) Chrome/79.0.3945.130 Safari/537.36",29,"[0.9, 0.5, 0.1]","[0.8, 0.4, 0.2]","[u'black', u'red', u'blue']","[u'left', u'middle', u'right']","[0.9, 0.5, 0.1]","[u'high', u'low', u'medium']","red",50,"middle","low","False","False",331,1250,NA
"A5TMU62U5FE5K","Wed Jan 29 2020 06:17:22 GMT-0700 (Mountain Standard Time)","Wed Jan 29 2020 06:38:26 GMT-0700 (Mountain Standard Time)","Mozilla/5.0 (Windows NT 6.1; Win64; x64) AppleWebKit/537.36 (KHTML, like Gecko) Chrome/79.0.3945.130 Safari/537.36",30,"[0.9, 0.5, 0.1]","[0.8, 0.4, 0.2]","[u'black', u'red', u'blue']","[u'left', u'middle', u'right']","[0.9, 0.5, 0.1]","[u'high', u'low', u'medium']","black",49,"left","high","True","False",491,1350,NA
"A5TMU62U5FE5K","Wed Jan 29 2020 06:17:22 GMT-0700 (Mountain Standard Time)","Wed Jan 29 2020 06:38:26 GMT-0700 (Mountain Standard Time)","Mozilla/5.0 (Windows NT 6.1; Win64; x64) AppleWebKit/537.36 (KHTML, like Gecko) Chrome/79.0.3945.130 Safari/537.36",31,"[0.9, 0.5, 0.1]","[0.8, 0.4, 0.2]","[u'black', u'red', u'blue']","[u'left', u'middle', u'right']","[0.9, 0.5, 0.1]","[u'high', u'low', u'medium']","black",49,"left","high","True","False",396,1450,NA
"A5TMU62U5FE5K","Wed Jan 29 2020 06:17:22 GMT-0700 (Mountain Standard Time)","Wed Jan 29 2020 06:38:26 GMT-0700 (Mountain Standard Time)","Mozilla/5.0 (Windows NT 6.1; Win64; x64) AppleWebKit/537.36 (KHTML, like Gecko) Chrome/79.0.3945.130 Safari/537.36",32,"[0.9, 0.5, 0.1]","[0.8, 0.4, 0.2]","[u'black', u'red', u'blue']","[u'left', u'middle', u'right']","[0.9, 0.5, 0.1]","[u'high', u'low', u'medium']","black",49,"left","high","False","False",467,1400,NA
"A5TMU62U5FE5K","Wed Jan 29 2020 06:17:22 GMT-0700 (Mountain Standard Time)","Wed Jan 29 2020 06:38:26 GMT-0700 (Mountain Standard Time)","Mozilla/5.0 (Windows NT 6.1; Win64; x64) AppleWebKit/537.36 (KHTML, like Gecko) Chrome/79.0.3945.130 Safari/537.36",33,"[0.9, 0.5, 0.1]","[0.8, 0.4, 0.2]","[u'black', u'red', u'blue']","[u'left', u'middle', u'right']","[0.9, 0.5, 0.1]","[u'high', u'low', u'medium']","red",50,"middle","low","False","False",1747,1350,NA
"A5TMU62U5FE5K","Wed Jan 29 2020 06:17:22 GMT-0700 (Mountain Standard Time)","Wed Jan 29 2020 06:38:26 GMT-0700 (Mountain Standard Time)","Mozilla/5.0 (Windows NT 6.1; Win64; x64) AppleWebKit/537.36 (KHTML, like Gecko) Chrome/79.0.3945.130 Safari/537.36",34,"[0.9, 0.5, 0.1]","[0.8, 0.4, 0.2]","[u'black', u'red', u'blue']","[u'left', u'middle', u'right']","[0.9, 0.5, 0.1]","[u'high', u'low', u'medium']","blue",51,"right","medium","False","False",371,1300,NA
"A5TMU62U5FE5K","Wed Jan 29 2020 06:17:22 GMT-0700 (Mountain Standard Time)","Wed Jan 29 2020 06:38:26 GMT-0700 (Mountain Standard Time)","Mozilla/5.0 (Windows NT 6.1; Win64; x64) AppleWebKit/537.36 (KHTML, like Gecko) Chrome/79.0.3945.130 Safari/537.36",35,"[0.9, 0.5, 0.1]","[0.8, 0.4, 0.2]","[u'black', u'red', u'blue']","[u'left', u'middle', u'right']","[0.9, 0.5, 0.1]","[u'high', u'low', u'medium']","black",49,"left","high","False","False",315,1250,NA
"A5TMU62U5FE5K","Wed Jan 29 2020 06:17:22 GMT-0700 (Mountain Standard Time)","Wed Jan 29 2020 06:38:26 GMT-0700 (Mountain Standard Time)","Mozilla/5.0 (Windows NT 6.1; Win64; x64) AppleWebKit/537.36 (KHTML, like Gecko) Chrome/79.0.3945.130 Safari/537.36",36,"[0.9, 0.5, 0.1]","[0.8, 0.4, 0.2]","[u'black', u'red', u'blue']","[u'left', u'middle', u'right']","[0.9, 0.5, 0.1]","[u'high', u'low', u'medium']","blue",51,"right","medium","True","False",708,1350,NA
"A5TMU62U5FE5K","Wed Jan 29 2020 06:17:22 GMT-0700 (Mountain Standard Time)","Wed Jan 29 2020 06:38:26 GMT-0700 (Mountain Standard Time)","Mozilla/5.0 (Windows NT 6.1; Win64; x64) AppleWebKit/537.36 (KHTML, like Gecko) Chrome/79.0.3945.130 Safari/537.36",37,"[0.9, 0.5, 0.1]","[0.8, 0.4, 0.2]","[u'black', u'red', u'blue']","[u'left', u'middle', u'right']","[0.9, 0.5, 0.1]","[u'high', u'low', u'medium']","blue",51,"right","medium","False","False",412,1300,NA
"A5TMU62U5FE5K","Wed Jan 29 2020 06:17:22 GMT-0700 (Mountain Standard Time)","Wed Jan 29 2020 06:38:26 GMT-0700 (Mountain Standard Time)","Mozilla/5.0 (Windows NT 6.1; Win64; x64) AppleWebKit/537.36 (KHTML, like Gecko) Chrome/79.0.3945.130 Safari/537.36",38,"[0.9, 0.5, 0.1]","[0.8, 0.4, 0.2]","[u'black', u'red', u'blue']","[u'left', u'middle', u'right']","[0.9, 0.5, 0.1]","[u'high', u'low', u'medium']","red",50,"middle","low","False","False",602,1250,NA
"A5TMU62U5FE5K","Wed Jan 29 2020 06:17:22 GMT-0700 (Mountain Standard Time)","Wed Jan 29 2020 06:38:26 GMT-0700 (Mountain Standard Time)","Mozilla/5.0 (Windows NT 6.1; Win64; x64) AppleWebKit/537.36 (KHTML, like Gecko) Chrome/79.0.3945.130 Safari/537.36",39,"[0.9, 0.5, 0.1]","[0.8, 0.4, 0.2]","[u'black', u'red', u'blue']","[u'left', u'middle', u'right']","[0.9, 0.5, 0.1]","[u'high', u'low', u'medium']","black",49,"left","high","True","False",331,1350,NA
"A5TMU62U5FE5K","Wed Jan 29 2020 06:17:22 GMT-0700 (Mountain Standard Time)","Wed Jan 29 2020 06:38:26 GMT-0700 (Mountain Standard Time)","Mozilla/5.0 (Windows NT 6.1; Win64; x64) AppleWebKit/537.36 (KHTML, like Gecko) Chrome/79.0.3945.130 Safari/537.36",40,"[0.9, 0.5, 0.1]","[0.8, 0.4, 0.2]","[u'black', u'red', u'blue']","[u'left', u'middle', u'right']","[0.9, 0.5, 0.1]","[u'high', u'low', u'medium']","black",49,"left","high","True","False",450,1450,NA
"A5TMU62U5FE5K","Wed Jan 29 2020 06:17:22 GMT-0700 (Mountain Standard Time)","Wed Jan 29 2020 06:38:26 GMT-0700 (Mountain Standard Time)","Mozilla/5.0 (Windows NT 6.1; Win64; x64) AppleWebKit/537.36 (KHTML, like Gecko) Chrome/79.0.3945.130 Safari/537.36",41,"[0.9, 0.5, 0.1]","[0.8, 0.4, 0.2]","[u'black', u'red', u'blue']","[u'left', u'middle', u'right']","[0.9, 0.5, 0.1]","[u'low', u'high', u'medium']","red",50,"middle","high","True","False",2226,1550,NA
"A5TMU62U5FE5K","Wed Jan 29 2020 06:17:22 GMT-0700 (Mountain Standard Time)","Wed Jan 29 2020 06:38:26 GMT-0700 (Mountain Standard Time)","Mozilla/5.0 (Windows NT 6.1; Win64; x64) AppleWebKit/537.36 (KHTML, like Gecko) Chrome/79.0.3945.130 Safari/537.36",42,"[0.9, 0.5, 0.1]","[0.8, 0.4, 0.2]","[u'black', u'red', u'blue']","[u'left', u'middle', u'right']","[0.9, 0.5, 0.1]","[u'low', u'high', u'medium']","red",50,"middle","high","True","False",427,1650,NA
"A5TMU62U5FE5K","Wed Jan 29 2020 06:17:22 GMT-0700 (Mountain Standard Time)","Wed Jan 29 2020 06:38:26 GMT-0700 (Mountain Standard Time)","Mozilla/5.0 (Windows NT 6.1; Win64; x64) AppleWebKit/537.36 (KHTML, like Gecko) Chrome/79.0.3945.130 Safari/537.36",43,"[0.9, 0.5, 0.1]","[0.8, 0.4, 0.2]","[u'black', u'red', u'blue']","[u'left', u'middle', u'right']","[0.9, 0.5, 0.1]","[u'low', u'high', u'medium']","red",50,"middle","high","True","False",507,1750,NA
"A5TMU62U5FE5K","Wed Jan 29 2020 06:17:22 GMT-0700 (Mountain Standard Time)","Wed Jan 29 2020 06:38:26 GMT-0700 (Mountain Standard Time)","Mozilla/5.0 (Windows NT 6.1; Win64; x64) AppleWebKit/537.36 (KHTML, like Gecko) Chrome/79.0.3945.130 Safari/537.36",44,"[0.9, 0.5, 0.1]","[0.8, 0.4, 0.2]","[u'black', u'red', u'blue']","[u'left', u'middle', u'right']","[0.9, 0.5, 0.1]","[u'low', u'high', u'medium']","red",50,"middle","high","True","False",491,1850,NA
"A5TMU62U5FE5K","Wed Jan 29 2020 06:17:22 GMT-0700 (Mountain Standard Time)","Wed Jan 29 2020 06:38:26 GMT-0700 (Mountain Standard Time)","Mozilla/5.0 (Windows NT 6.1; Win64; x64) AppleWebKit/537.36 (KHTML, like Gecko) Chrome/79.0.3945.130 Safari/537.36",45,"[0.9, 0.5, 0.1]","[0.8, 0.4, 0.2]","[u'black', u'red', u'blue']","[u'left', u'middle', u'right']","[0.9, 0.5, 0.1]","[u'low', u'high', u'medium']","red",50,"middle","high","True","False",500,1950,NA
"A5TMU62U5FE5K","Wed Jan 29 2020 06:17:22 GMT-0700 (Mountain Standard Time)","Wed Jan 29 2020 06:38:26 GMT-0700 (Mountain Standard Time)","Mozilla/5.0 (Windows NT 6.1; Win64; x64) AppleWebKit/537.36 (KHTML, like Gecko) Chrome/79.0.3945.130 Safari/537.36",46,"[0.9, 0.5, 0.1]","[0.8, 0.4, 0.2]","[u'black', u'red', u'blue']","[u'left', u'middle', u'right']","[0.9, 0.5, 0.1]","[u'low', u'high', u'medium']","red",50,"middle","high","True","False",442,2050,NA
"A5TMU62U5FE5K","Wed Jan 29 2020 06:17:22 GMT-0700 (Mountain Standard Time)","Wed Jan 29 2020 06:38:26 GMT-0700 (Mountain Standard Time)","Mozilla/5.0 (Windows NT 6.1; Win64; x64) AppleWebKit/537.36 (KHTML, like Gecko) Chrome/79.0.3945.130 Safari/537.36",47,"[0.9, 0.5, 0.1]","[0.8, 0.4, 0.2]","[u'black', u'red', u'blue']","[u'left', u'middle', u'right']","[0.9, 0.5, 0.1]","[u'low', u'high', u'medium']","red",50,"middle","high","True","False",491,2150,NA
"A5TMU62U5FE5K","Wed Jan 29 2020 06:17:22 GMT-0700 (Mountain Standard Time)","Wed Jan 29 2020 06:38:26 GMT-0700 (Mountain Standard Time)","Mozilla/5.0 (Windows NT 6.1; Win64; x64) AppleWebKit/537.36 (KHTML, like Gecko) Chrome/79.0.3945.130 Safari/537.36",48,"[0.9, 0.5, 0.1]","[0.8, 0.4, 0.2]","[u'black', u'red', u'blue']","[u'left', u'middle', u'right']","[0.9, 0.5, 0.1]","[u'low', u'high', u'medium']","red",50,"middle","high","True","False",579,2250,NA
"A5TMU62U5FE5K","Wed Jan 29 2020 06:17:22 GMT-0700 (Mountain Standard Time)","Wed Jan 29 2020 06:38:26 GMT-0700 (Mountain Standard Time)","Mozilla/5.0 (Windows NT 6.1; Win64; x64) AppleWebKit/537.36 (KHTML, like Gecko) Chrome/79.0.3945.130 Safari/537.36",49,"[0.9, 0.5, 0.1]","[0.8, 0.4, 0.2]","[u'black', u'red', u'blue']","[u'left', u'middle', u'right']","[0.9, 0.5, 0.1]","[u'low', u'high', u'medium']","red",50,"middle","high","True","True",507,2350,NA
"A5TMU62U5FE5K","Wed Jan 29 2020 06:17:22 GMT-0700 (Mountain Standard Time)","Wed Jan 29 2020 06:38:26 GMT-0700 (Mountain Standard Time)","Mozilla/5.0 (Windows NT 6.1; Win64; x64) AppleWebKit/537.36 (KHTML, like Gecko) Chrome/79.0.3945.130 Safari/537.36",50,"[0.9, 0.5, 0.1]","[0.8, 0.4, 0.2]","[u'black', u'red', u'blue']","[u'left', u'middle', u'right']","[0.9, 0.5, 0.1]","[u'low', u'medium', u'high']","red",50,"middle","medium","False","False",484,2300,NA
"A5TMU62U5FE5K","Wed Jan 29 2020 06:17:22 GMT-0700 (Mountain Standard Time)","Wed Jan 29 2020 06:38:26 GMT-0700 (Mountain Standard Time)","Mozilla/5.0 (Windows NT 6.1; Win64; x64) AppleWebKit/537.36 (KHTML, like Gecko) Chrome/79.0.3945.130 Safari/537.36",51,"[0.9, 0.5, 0.1]","[0.8, 0.4, 0.2]","[u'black', u'red', u'blue']","[u'left', u'middle', u'right']","[0.9, 0.5, 0.1]","[u'low', u'medium', u'high']","black",49,"left","low","True","False",420,2400,NA
"A5TMU62U5FE5K","Wed Jan 29 2020 06:17:22 GMT-0700 (Mountain Standard Time)","Wed Jan 29 2020 06:38:26 GMT-0700 (Mountain Standard Time)","Mozilla/5.0 (Windows NT 6.1; Win64; x64) AppleWebKit/537.36 (KHTML, like Gecko) Chrome/79.0.3945.130 Safari/537.36",52,"[0.9, 0.5, 0.1]","[0.8, 0.4, 0.2]","[u'black', u'red', u'blue']","[u'left', u'middle', u'right']","[0.9, 0.5, 0.1]","[u'low', u'medium', u'high']","black",49,"left","low","True","False",356,2500,NA
"A5TMU62U5FE5K","Wed Jan 29 2020 06:17:22 GMT-0700 (Mountain Standard Time)","Wed Jan 29 2020 06:38:26 GMT-0700 (Mountain Standard Time)","Mozilla/5.0 (Windows NT 6.1; Win64; x64) AppleWebKit/537.36 (KHTML, like Gecko) Chrome/79.0.3945.130 Safari/537.36",53,"[0.9, 0.5, 0.1]","[0.8, 0.4, 0.2]","[u'black', u'red', u'blue']","[u'left', u'middle', u'right']","[0.9, 0.5, 0.1]","[u'low', u'medium', u'high']","black",49,"left","low","False","False",355,2450,NA
"A5TMU62U5FE5K","Wed Jan 29 2020 06:17:22 GMT-0700 (Mountain Standard Time)","Wed Jan 29 2020 06:38:26 GMT-0700 (Mountain Standard Time)","Mozilla/5.0 (Windows NT 6.1; Win64; x64) AppleWebKit/537.36 (KHTML, like Gecko) Chrome/79.0.3945.130 Safari/537.36",54,"[0.9, 0.5, 0.1]","[0.8, 0.4, 0.2]","[u'black', u'red', u'blue']","[u'left', u'middle', u'right']","[0.9, 0.5, 0.1]","[u'low', u'medium', u'high']","blue",51,"right","high","True","False",266,2550,NA
"A5TMU62U5FE5K","Wed Jan 29 2020 06:17:22 GMT-0700 (Mountain Standard Time)","Wed Jan 29 2020 06:38:26 GMT-0700 (Mountain Standard Time)","Mozilla/5.0 (Windows NT 6.1; Win64; x64) AppleWebKit/537.36 (KHTML, like Gecko) Chrome/79.0.3945.130 Safari/537.36",55,"[0.9, 0.5, 0.1]","[0.8, 0.4, 0.2]","[u'black', u'red', u'blue']","[u'left', u'middle', u'right']","[0.9, 0.5, 0.1]","[u'low', u'medium', u'high']","blue",51,"right","high","True","False",563,2650,NA
"A5TMU62U5FE5K","Wed Jan 29 2020 06:17:22 GMT-0700 (Mountain Standard Time)","Wed Jan 29 2020 06:38:26 GMT-0700 (Mountain Standard Time)","Mozilla/5.0 (Windows NT 6.1; Win64; x64) AppleWebKit/537.36 (KHTML, like Gecko) Chrome/79.0.3945.130 Safari/537.36",56,"[0.9, 0.5, 0.1]","[0.8, 0.4, 0.2]","[u'black', u'red', u'blue']","[u'left', u'middle', u'right']","[0.9, 0.5, 0.1]","[u'low', u'medium', u'high']","blue",51,"right","high","True","False",506,2750,NA
"A5TMU62U5FE5K","Wed Jan 29 2020 06:17:22 GMT-0700 (Mountain Standard Time)","Wed Jan 29 2020 06:38:26 GMT-0700 (Mountain Standard Time)","Mozilla/5.0 (Windows NT 6.1; Win64; x64) AppleWebKit/537.36 (KHTML, like Gecko) Chrome/79.0.3945.130 Safari/537.36",57,"[0.9, 0.5, 0.1]","[0.8, 0.4, 0.2]","[u'black', u'red', u'blue']","[u'left', u'middle', u'right']","[0.9, 0.5, 0.1]","[u'low', u'medium', u'high']","blue",51,"right","high","True","False",539,2850,NA
"A5TMU62U5FE5K","Wed Jan 29 2020 06:17:22 GMT-0700 (Mountain Standard Time)","Wed Jan 29 2020 06:38:26 GMT-0700 (Mountain Standard Time)","Mozilla/5.0 (Windows NT 6.1; Win64; x64) AppleWebKit/537.36 (KHTML, like Gecko) Chrome/79.0.3945.130 Safari/537.36",58,"[0.9, 0.5, 0.1]","[0.8, 0.4, 0.2]","[u'black', u'red', u'blue']","[u'left', u'middle', u'right']","[0.9, 0.5, 0.1]","[u'low', u'medium', u'high']","blue",51,"right","high","True","False",370,2950,NA
"A5TMU62U5FE5K","Wed Jan 29 2020 06:17:22 GMT-0700 (Mountain Standard Time)","Wed Jan 29 2020 06:38:26 GMT-0700 (Mountain Standard Time)","Mozilla/5.0 (Windows NT 6.1; Win64; x64) AppleWebKit/537.36 (KHTML, like Gecko) Chrome/79.0.3945.130 Safari/537.36",59,"[0.9, 0.5, 0.1]","[0.8, 0.4, 0.2]","[u'black', u'red', u'blue']","[u'left', u'middle', u'right']","[0.9, 0.5, 0.1]","[u'low', u'medium', u'high']","blue",51,"right","high","True","False",371,3050,NA
"A5TMU62U5FE5K","Wed Jan 29 2020 06:17:22 GMT-0700 (Mountain Standard Time)","Wed Jan 29 2020 06:38:26 GMT-0700 (Mountain Standard Time)","Mozilla/5.0 (Windows NT 6.1; Win64; x64) AppleWebKit/537.36 (KHTML, like Gecko) Chrome/79.0.3945.130 Safari/537.36",60,"[0.9, 0.5, 0.1]","[0.8, 0.4, 0.2]","[u'black', u'red', u'blue']","[u'left', u'middle', u'right']","[0.9, 0.5, 0.1]","[u'low', u'medium', u'high']","blue",51,"right","high","True","False",355,3150,NA
"A5TMU62U5FE5K","Wed Jan 29 2020 06:17:22 GMT-0700 (Mountain Standard Time)","Wed Jan 29 2020 06:38:26 GMT-0700 (Mountain Standard Time)","Mozilla/5.0 (Windows NT 6.1; Win64; x64) AppleWebKit/537.36 (KHTML, like Gecko) Chrome/79.0.3945.130 Safari/537.36",61,"[0.9, 0.5, 0.1]","[0.8, 0.4, 0.2]","[u'black', u'red', u'blue']","[u'left', u'middle', u'right']","[0.9, 0.5, 0.1]","[u'low', u'medium', u'high']","blue",51,"right","high","True","False",395,3250,NA
"A5TMU62U5FE5K","Wed Jan 29 2020 06:17:22 GMT-0700 (Mountain Standard Time)","Wed Jan 29 2020 06:38:26 GMT-0700 (Mountain Standard Time)","Mozilla/5.0 (Windows NT 6.1; Win64; x64) AppleWebKit/537.36 (KHTML, like Gecko) Chrome/79.0.3945.130 Safari/537.36",62,"[0.9, 0.5, 0.1]","[0.8, 0.4, 0.2]","[u'black', u'red', u'blue']","[u'left', u'middle', u'right']","[0.9, 0.5, 0.1]","[u'low', u'medium', u'high']","blue",51,"right","high","True","True",355,3350,NA
"A5TMU62U5FE5K","Wed Jan 29 2020 06:17:22 GMT-0700 (Mountain Standard Time)","Wed Jan 29 2020 06:38:26 GMT-0700 (Mountain Standard Time)","Mozilla/5.0 (Windows NT 6.1; Win64; x64) AppleWebKit/537.36 (KHTML, like Gecko) Chrome/79.0.3945.130 Safari/537.36",63,"[0.9, 0.5, 0.1]","[0.8, 0.4, 0.2]","[u'black', u'red', u'blue']","[u'left', u'middle', u'right']","[0.9, 0.5, 0.1]","[u'low', u'high', u'medium']","blue",51,"right","medium","True","False",323,3450,NA
"A5TMU62U5FE5K","Wed Jan 29 2020 06:17:22 GMT-0700 (Mountain Standard Time)","Wed Jan 29 2020 06:38:26 GMT-0700 (Mountain Standard Time)","Mozilla/5.0 (Windows NT 6.1; Win64; x64) AppleWebKit/537.36 (KHTML, like Gecko) Chrome/79.0.3945.130 Safari/537.36",64,"[0.9, 0.5, 0.1]","[0.8, 0.4, 0.2]","[u'black', u'red', u'blue']","[u'left', u'middle', u'right']","[0.9, 0.5, 0.1]","[u'low', u'high', u'medium']","blue",51,"right","medium","False","False",380,3400,NA
"A5TMU62U5FE5K","Wed Jan 29 2020 06:17:22 GMT-0700 (Mountain Standard Time)","Wed Jan 29 2020 06:38:26 GMT-0700 (Mountain Standard Time)","Mozilla/5.0 (Windows NT 6.1; Win64; x64) AppleWebKit/537.36 (KHTML, like Gecko) Chrome/79.0.3945.130 Safari/537.36",65,"[0.9, 0.5, 0.1]","[0.8, 0.4, 0.2]","[u'black', u'red', u'blue']","[u'left', u'middle', u'right']","[0.9, 0.5, 0.1]","[u'low', u'high', u'medium']","red",50,"middle","high","True","False",116,3500,NA
"A5TMU62U5FE5K","Wed Jan 29 2020 06:17:22 GMT-0700 (Mountain Standard Time)","Wed Jan 29 2020 06:38:26 GMT-0700 (Mountain Standard Time)","Mozilla/5.0 (Windows NT 6.1; Win64; x64) AppleWebKit/537.36 (KHTML, like Gecko) Chrome/79.0.3945.130 Safari/537.36",66,"[0.9, 0.5, 0.1]","[0.8, 0.4, 0.2]","[u'black', u'red', u'blue']","[u'left', u'middle', u'right']","[0.9, 0.5, 0.1]","[u'low', u'high', u'medium']","red",50,"middle","high","False","False",387,3450,NA
"A5TMU62U5FE5K","Wed Jan 29 2020 06:17:22 GMT-0700 (Mountain Standard Time)","Wed Jan 29 2020 06:38:26 GMT-0700 (Mountain Standard Time)","Mozilla/5.0 (Windows NT 6.1; Win64; x64) AppleWebKit/537.36 (KHTML, like Gecko) Chrome/79.0.3945.130 Safari/537.36",67,"[0.9, 0.5, 0.1]","[0.8, 0.4, 0.2]","[u'black', u'red', u'blue']","[u'left', u'middle', u'right']","[0.9, 0.5, 0.1]","[u'low', u'high', u'medium']","black",49,"left","low","False","False",699,3400,NA
"A5TMU62U5FE5K","Wed Jan 29 2020 06:17:22 GMT-0700 (Mountain Standard Time)","Wed Jan 29 2020 06:38:26 GMT-0700 (Mountain Standard Time)","Mozilla/5.0 (Windows NT 6.1; Win64; x64) AppleWebKit/537.36 (KHTML, like Gecko) Chrome/79.0.3945.130 Safari/537.36",68,"[0.9, 0.5, 0.1]","[0.8, 0.4, 0.2]","[u'black', u'red', u'blue']","[u'left', u'middle', u'right']","[0.9, 0.5, 0.1]","[u'low', u'high', u'medium']","blue",51,"right","medium","True","False",411,3500,NA
"A5TMU62U5FE5K","Wed Jan 29 2020 06:17:22 GMT-0700 (Mountain Standard Time)","Wed Jan 29 2020 06:38:26 GMT-0700 (Mountain Standard Time)","Mozilla/5.0 (Windows NT 6.1; Win64; x64) AppleWebKit/537.36 (KHTML, like Gecko) Chrome/79.0.3945.130 Safari/537.36",69,"[0.9, 0.5, 0.1]","[0.8, 0.4, 0.2]","[u'black', u'red', u'blue']","[u'left', u'middle', u'right']","[0.9, 0.5, 0.1]","[u'low', u'high', u'medium']","blue",51,"right","medium","True","False",347,3600,NA
"A5TMU62U5FE5K","Wed Jan 29 2020 06:17:22 GMT-0700 (Mountain Standard Time)","Wed Jan 29 2020 06:38:26 GMT-0700 (Mountain Standard Time)","Mozilla/5.0 (Windows NT 6.1; Win64; x64) AppleWebKit/537.36 (KHTML, like Gecko) Chrome/79.0.3945.130 Safari/537.36",70,"[0.9, 0.5, 0.1]","[0.8, 0.4, 0.2]","[u'black', u'red', u'blue']","[u'left', u'middle', u'right']","[0.9, 0.5, 0.1]","[u'low', u'high', u'medium']","blue",51,"right","medium","False","False",403,3550,NA
"A5TMU62U5FE5K","Wed Jan 29 2020 06:17:22 GMT-0700 (Mountain Standard Time)","Wed Jan 29 2020 06:38:26 GMT-0700 (Mountain Standard Time)","Mozilla/5.0 (Windows NT 6.1; Win64; x64) AppleWebKit/537.36 (KHTML, like Gecko) Chrome/79.0.3945.130 Safari/537.36",71,"[0.9, 0.5, 0.1]","[0.8, 0.4, 0.2]","[u'black', u'red', u'blue']","[u'left', u'middle', u'right']","[0.9, 0.5, 0.1]","[u'low', u'high', u'medium']","red",50,"middle","high","True","False",611,3650,NA
"A5TMU62U5FE5K","Wed Jan 29 2020 06:17:22 GMT-0700 (Mountain Standard Time)","Wed Jan 29 2020 06:38:26 GMT-0700 (Mountain Standard Time)","Mozilla/5.0 (Windows NT 6.1; Win64; x64) AppleWebKit/537.36 (KHTML, like Gecko) Chrome/79.0.3945.130 Safari/537.36",72,"[0.9, 0.5, 0.1]","[0.8, 0.4, 0.2]","[u'black', u'red', u'blue']","[u'left', u'middle', u'right']","[0.9, 0.5, 0.1]","[u'low', u'high', u'medium']","red",50,"middle","high","True","False",348,3750,NA
"A5TMU62U5FE5K","Wed Jan 29 2020 06:17:22 GMT-0700 (Mountain Standard Time)","Wed Jan 29 2020 06:38:26 GMT-0700 (Mountain Standard Time)","Mozilla/5.0 (Windows NT 6.1; Win64; x64) AppleWebKit/537.36 (KHTML, like Gecko) Chrome/79.0.3945.130 Safari/537.36",73,"[0.9, 0.5, 0.1]","[0.8, 0.4, 0.2]","[u'black', u'red', u'blue']","[u'left', u'middle', u'right']","[0.9, 0.5, 0.1]","[u'low', u'high', u'medium']","red",50,"middle","high","True","False",339,3850,NA
"A5TMU62U5FE5K","Wed Jan 29 2020 06:17:22 GMT-0700 (Mountain Standard Time)","Wed Jan 29 2020 06:38:26 GMT-0700 (Mountain Standard Time)","Mozilla/5.0 (Windows NT 6.1; Win64; x64) AppleWebKit/537.36 (KHTML, like Gecko) Chrome/79.0.3945.130 Safari/537.36",74,"[0.9, 0.5, 0.1]","[0.8, 0.4, 0.2]","[u'black', u'red', u'blue']","[u'left', u'middle', u'right']","[0.9, 0.5, 0.1]","[u'low', u'high', u'medium']","red",50,"middle","high","True","False",378,3950,NA
"A5TMU62U5FE5K","Wed Jan 29 2020 06:17:22 GMT-0700 (Mountain Standard Time)","Wed Jan 29 2020 06:38:26 GMT-0700 (Mountain Standard Time)","Mozilla/5.0 (Windows NT 6.1; Win64; x64) AppleWebKit/537.36 (KHTML, like Gecko) Chrome/79.0.3945.130 Safari/537.36",75,"[0.9, 0.5, 0.1]","[0.8, 0.4, 0.2]","[u'black', u'red', u'blue']","[u'left', u'middle', u'right']","[0.9, 0.5, 0.1]","[u'low', u'high', u'medium']","red",50,"middle","high","True","False",316,4050,NA
"A5TMU62U5FE5K","Wed Jan 29 2020 06:17:22 GMT-0700 (Mountain Standard Time)","Wed Jan 29 2020 06:38:26 GMT-0700 (Mountain Standard Time)","Mozilla/5.0 (Windows NT 6.1; Win64; x64) AppleWebKit/537.36 (KHTML, like Gecko) Chrome/79.0.3945.130 Safari/537.36",76,"[0.9, 0.5, 0.1]","[0.8, 0.4, 0.2]","[u'black', u'red', u'blue']","[u'left', u'middle', u'right']","[0.9, 0.5, 0.1]","[u'low', u'high', u'medium']","red",50,"middle","high","False","False",314,4000,NA
"A5TMU62U5FE5K","Wed Jan 29 2020 06:17:22 GMT-0700 (Mountain Standard Time)","Wed Jan 29 2020 06:38:26 GMT-0700 (Mountain Standard Time)","Mozilla/5.0 (Windows NT 6.1; Win64; x64) AppleWebKit/537.36 (KHTML, like Gecko) Chrome/79.0.3945.130 Safari/537.36",77,"[0.9, 0.5, 0.1]","[0.8, 0.4, 0.2]","[u'black', u'red', u'blue']","[u'left', u'middle', u'right']","[0.9, 0.5, 0.1]","[u'low', u'high', u'medium']","blue",51,"right","medium","False","False",538,3950,NA
"A5TMU62U5FE5K","Wed Jan 29 2020 06:17:22 GMT-0700 (Mountain Standard Time)","Wed Jan 29 2020 06:38:26 GMT-0700 (Mountain Standard Time)","Mozilla/5.0 (Windows NT 6.1; Win64; x64) AppleWebKit/537.36 (KHTML, like Gecko) Chrome/79.0.3945.130 Safari/537.36",78,"[0.9, 0.5, 0.1]","[0.8, 0.4, 0.2]","[u'black', u'red', u'blue']","[u'left', u'middle', u'right']","[0.9, 0.5, 0.1]","[u'low', u'high', u'medium']","black",49,"left","low","False","False",363,3900,NA
"A5TMU62U5FE5K","Wed Jan 29 2020 06:17:22 GMT-0700 (Mountain Standard Time)","Wed Jan 29 2020 06:38:26 GMT-0700 (Mountain Standard Time)","Mozilla/5.0 (Windows NT 6.1; Win64; x64) AppleWebKit/537.36 (KHTML, like Gecko) Chrome/79.0.3945.130 Safari/537.36",79,"[0.9, 0.5, 0.1]","[0.8, 0.4, 0.2]","[u'black', u'red', u'blue']","[u'left', u'middle', u'right']","[0.9, 0.5, 0.1]","[u'low', u'high', u'medium']","red",50,"middle","high","True","False",331,4000,NA
"A5TMU62U5FE5K","Wed Jan 29 2020 06:17:22 GMT-0700 (Mountain Standard Time)","Wed Jan 29 2020 06:38:26 GMT-0700 (Mountain Standard Time)","Mozilla/5.0 (Windows NT 6.1; Win64; x64) AppleWebKit/537.36 (KHTML, like Gecko) Chrome/79.0.3945.130 Safari/537.36",80,"[0.9, 0.5, 0.1]","[0.8, 0.4, 0.2]","[u'black', u'red', u'blue']","[u'left', u'middle', u'right']","[0.9, 0.5, 0.1]","[u'low', u'high', u'medium']","red",50,"middle","high","True","False",363,4100,NA
"A5TMU62U5FE5K","Wed Jan 29 2020 06:17:22 GMT-0700 (Mountain Standard Time)","Wed Jan 29 2020 06:38:26 GMT-0700 (Mountain Standard Time)","Mozilla/5.0 (Windows NT 6.1; Win64; x64) AppleWebKit/537.36 (KHTML, like Gecko) Chrome/79.0.3945.130 Safari/537.36",81,"[0.9, 0.5, 0.1]","[0.8, 0.4, 0.2]","[u'black', u'red', u'blue']","[u'left', u'middle', u'right']","[0.8, 0.4, 0.2]","[u'low', u'medium', u'high']","blue",51,"right","high","True","False",4634,4200,NA
"A5TMU62U5FE5K","Wed Jan 29 2020 06:17:22 GMT-0700 (Mountain Standard Time)","Wed Jan 29 2020 06:38:26 GMT-0700 (Mountain Standard Time)","Mozilla/5.0 (Windows NT 6.1; Win64; x64) AppleWebKit/537.36 (KHTML, like Gecko) Chrome/79.0.3945.130 Safari/537.36",82,"[0.9, 0.5, 0.1]","[0.8, 0.4, 0.2]","[u'black', u'red', u'blue']","[u'left', u'middle', u'right']","[0.8, 0.4, 0.2]","[u'low', u'medium', u'high']","blue",51,"right","high","True","False",331,4300,NA
"A5TMU62U5FE5K","Wed Jan 29 2020 06:17:22 GMT-0700 (Mountain Standard Time)","Wed Jan 29 2020 06:38:26 GMT-0700 (Mountain Standard Time)","Mozilla/5.0 (Windows NT 6.1; Win64; x64) AppleWebKit/537.36 (KHTML, like Gecko) Chrome/79.0.3945.130 Safari/537.36",83,"[0.9, 0.5, 0.1]","[0.8, 0.4, 0.2]","[u'black', u'red', u'blue']","[u'left', u'middle', u'right']","[0.8, 0.4, 0.2]","[u'low', u'medium', u'high']","blue",51,"right","high","True","False",339,4400,NA
"A5TMU62U5FE5K","Wed Jan 29 2020 06:17:22 GMT-0700 (Mountain Standard Time)","Wed Jan 29 2020 06:38:26 GMT-0700 (Mountain Standard Time)","Mozilla/5.0 (Windows NT 6.1; Win64; x64) AppleWebKit/537.36 (KHTML, like Gecko) Chrome/79.0.3945.130 Safari/537.36",84,"[0.9, 0.5, 0.1]","[0.8, 0.4, 0.2]","[u'black', u'red', u'blue']","[u'left', u'middle', u'right']","[0.8, 0.4, 0.2]","[u'low', u'medium', u'high']","blue",51,"right","high","True","False",332,4500,NA
"A5TMU62U5FE5K","Wed Jan 29 2020 06:17:22 GMT-0700 (Mountain Standard Time)","Wed Jan 29 2020 06:38:26 GMT-0700 (Mountain Standard Time)","Mozilla/5.0 (Windows NT 6.1; Win64; x64) AppleWebKit/537.36 (KHTML, like Gecko) Chrome/79.0.3945.130 Safari/537.36",85,"[0.9, 0.5, 0.1]","[0.8, 0.4, 0.2]","[u'black', u'red', u'blue']","[u'left', u'middle', u'right']","[0.8, 0.4, 0.2]","[u'low', u'medium', u'high']","blue",51,"right","high","True","False",371,4600,NA
"A5TMU62U5FE5K","Wed Jan 29 2020 06:17:22 GMT-0700 (Mountain Standard Time)","Wed Jan 29 2020 06:38:26 GMT-0700 (Mountain Standard Time)","Mozilla/5.0 (Windows NT 6.1; Win64; x64) AppleWebKit/537.36 (KHTML, like Gecko) Chrome/79.0.3945.130 Safari/537.36",86,"[0.9, 0.5, 0.1]","[0.8, 0.4, 0.2]","[u'black', u'red', u'blue']","[u'left', u'middle', u'right']","[0.8, 0.4, 0.2]","[u'low', u'medium', u'high']","blue",51,"right","high","True","False",403,4700,NA
"A5TMU62U5FE5K","Wed Jan 29 2020 06:17:22 GMT-0700 (Mountain Standard Time)","Wed Jan 29 2020 06:38:26 GMT-0700 (Mountain Standard Time)","Mozilla/5.0 (Windows NT 6.1; Win64; x64) AppleWebKit/537.36 (KHTML, like Gecko) Chrome/79.0.3945.130 Safari/537.36",87,"[0.9, 0.5, 0.1]","[0.8, 0.4, 0.2]","[u'black', u'red', u'blue']","[u'left', u'middle', u'right']","[0.8, 0.4, 0.2]","[u'low', u'medium', u'high']","blue",51,"right","high","True","False",8915,4800,NA
"A5TMU62U5FE5K","Wed Jan 29 2020 06:17:22 GMT-0700 (Mountain Standard Time)","Wed Jan 29 2020 06:38:26 GMT-0700 (Mountain Standard Time)","Mozilla/5.0 (Windows NT 6.1; Win64; x64) AppleWebKit/537.36 (KHTML, like Gecko) Chrome/79.0.3945.130 Safari/537.36",88,"[0.9, 0.5, 0.1]","[0.8, 0.4, 0.2]","[u'black', u'red', u'blue']","[u'left', u'middle', u'right']","[0.8, 0.4, 0.2]","[u'low', u'medium', u'high']","blue",51,"right","high","True","False",403,4900,NA
"A5TMU62U5FE5K","Wed Jan 29 2020 06:17:22 GMT-0700 (Mountain Standard Time)","Wed Jan 29 2020 06:38:26 GMT-0700 (Mountain Standard Time)","Mozilla/5.0 (Windows NT 6.1; Win64; x64) AppleWebKit/537.36 (KHTML, like Gecko) Chrome/79.0.3945.130 Safari/537.36",89,"[0.9, 0.5, 0.1]","[0.8, 0.4, 0.2]","[u'black', u'red', u'blue']","[u'left', u'middle', u'right']","[0.8, 0.4, 0.2]","[u'low', u'medium', u'high']","blue",51,"right","high","True","True",339,5000,NA
"A5TMU62U5FE5K","Wed Jan 29 2020 06:17:22 GMT-0700 (Mountain Standard Time)","Wed Jan 29 2020 06:38:26 GMT-0700 (Mountain Standard Time)","Mozilla/5.0 (Windows NT 6.1; Win64; x64) AppleWebKit/537.36 (KHTML, like Gecko) Chrome/79.0.3945.130 Safari/537.36",90,"[0.9, 0.5, 0.1]","[0.8, 0.4, 0.2]","[u'black', u'red', u'blue']","[u'left', u'middle', u'right']","[0.8, 0.4, 0.2]","[u'low', u'high', u'medium']","blue",51,"right","medium","True","False",323,5100,NA
"A5TMU62U5FE5K","Wed Jan 29 2020 06:17:22 GMT-0700 (Mountain Standard Time)","Wed Jan 29 2020 06:38:26 GMT-0700 (Mountain Standard Time)","Mozilla/5.0 (Windows NT 6.1; Win64; x64) AppleWebKit/537.36 (KHTML, like Gecko) Chrome/79.0.3945.130 Safari/537.36",91,"[0.9, 0.5, 0.1]","[0.8, 0.4, 0.2]","[u'black', u'red', u'blue']","[u'left', u'middle', u'right']","[0.8, 0.4, 0.2]","[u'low', u'high', u'medium']","blue",51,"right","medium","False","False",300,5050,NA
"A5TMU62U5FE5K","Wed Jan 29 2020 06:17:22 GMT-0700 (Mountain Standard Time)","Wed Jan 29 2020 06:38:26 GMT-0700 (Mountain Standard Time)","Mozilla/5.0 (Windows NT 6.1; Win64; x64) AppleWebKit/537.36 (KHTML, like Gecko) Chrome/79.0.3945.130 Safari/537.36",92,"[0.9, 0.5, 0.1]","[0.8, 0.4, 0.2]","[u'black', u'red', u'blue']","[u'left', u'middle', u'right']","[0.8, 0.4, 0.2]","[u'low', u'high', u'medium']","black",49,"left","low","False","False",348,5000,NA
"A5TMU62U5FE5K","Wed Jan 29 2020 06:17:22 GMT-0700 (Mountain Standard Time)","Wed Jan 29 2020 06:38:26 GMT-0700 (Mountain Standard Time)","Mozilla/5.0 (Windows NT 6.1; Win64; x64) AppleWebKit/537.36 (KHTML, like Gecko) Chrome/79.0.3945.130 Safari/537.36",93,"[0.9, 0.5, 0.1]","[0.8, 0.4, 0.2]","[u'black', u'red', u'blue']","[u'left', u'middle', u'right']","[0.8, 0.4, 0.2]","[u'low', u'high', u'medium']","red",50,"middle","high","True","False",354,5100,NA
"A5TMU62U5FE5K","Wed Jan 29 2020 06:17:22 GMT-0700 (Mountain Standard Time)","Wed Jan 29 2020 06:38:26 GMT-0700 (Mountain Standard Time)","Mozilla/5.0 (Windows NT 6.1; Win64; x64) AppleWebKit/537.36 (KHTML, like Gecko) Chrome/79.0.3945.130 Safari/537.36",94,"[0.9, 0.5, 0.1]","[0.8, 0.4, 0.2]","[u'black', u'red', u'blue']","[u'left', u'middle', u'right']","[0.8, 0.4, 0.2]","[u'low', u'high', u'medium']","red",50,"middle","high","True","False",364,5200,NA
"A5TMU62U5FE5K","Wed Jan 29 2020 06:17:22 GMT-0700 (Mountain Standard Time)","Wed Jan 29 2020 06:38:26 GMT-0700 (Mountain Standard Time)","Mozilla/5.0 (Windows NT 6.1; Win64; x64) AppleWebKit/537.36 (KHTML, like Gecko) Chrome/79.0.3945.130 Safari/537.36",95,"[0.9, 0.5, 0.1]","[0.8, 0.4, 0.2]","[u'black', u'red', u'blue']","[u'left', u'middle', u'right']","[0.8, 0.4, 0.2]","[u'low', u'high', u'medium']","red",50,"middle","high","True","False",411,5300,NA
"A5TMU62U5FE5K","Wed Jan 29 2020 06:17:22 GMT-0700 (Mountain Standard Time)","Wed Jan 29 2020 06:38:26 GMT-0700 (Mountain Standard Time)","Mozilla/5.0 (Windows NT 6.1; Win64; x64) AppleWebKit/537.36 (KHTML, like Gecko) Chrome/79.0.3945.130 Safari/537.36",96,"[0.9, 0.5, 0.1]","[0.8, 0.4, 0.2]","[u'black', u'red', u'blue']","[u'left', u'middle', u'right']","[0.8, 0.4, 0.2]","[u'low', u'high', u'medium']","red",50,"middle","high","True","False",307,5400,NA
"A5TMU62U5FE5K","Wed Jan 29 2020 06:17:22 GMT-0700 (Mountain Standard Time)","Wed Jan 29 2020 06:38:26 GMT-0700 (Mountain Standard Time)","Mozilla/5.0 (Windows NT 6.1; Win64; x64) AppleWebKit/537.36 (KHTML, like Gecko) Chrome/79.0.3945.130 Safari/537.36",97,"[0.9, 0.5, 0.1]","[0.8, 0.4, 0.2]","[u'black', u'red', u'blue']","[u'left', u'middle', u'right']","[0.8, 0.4, 0.2]","[u'low', u'high', u'medium']","red",50,"middle","high","True","False",316,5500,NA
"A5TMU62U5FE5K","Wed Jan 29 2020 06:17:22 GMT-0700 (Mountain Standard Time)","Wed Jan 29 2020 06:38:26 GMT-0700 (Mountain Standard Time)","Mozilla/5.0 (Windows NT 6.1; Win64; x64) AppleWebKit/537.36 (KHTML, like Gecko) Chrome/79.0.3945.130 Safari/537.36",98,"[0.9, 0.5, 0.1]","[0.8, 0.4, 0.2]","[u'black', u'red', u'blue']","[u'left', u'middle', u'right']","[0.8, 0.4, 0.2]","[u'low', u'high', u'medium']","red",50,"middle","high","True","False",339,5600,NA
"A5TMU62U5FE5K","Wed Jan 29 2020 06:17:22 GMT-0700 (Mountain Standard Time)","Wed Jan 29 2020 06:38:26 GMT-0700 (Mountain Standard Time)","Mozilla/5.0 (Windows NT 6.1; Win64; x64) AppleWebKit/537.36 (KHTML, like Gecko) Chrome/79.0.3945.130 Safari/537.36",99,"[0.9, 0.5, 0.1]","[0.8, 0.4, 0.2]","[u'black', u'red', u'blue']","[u'left', u'middle', u'right']","[0.8, 0.4, 0.2]","[u'low', u'high', u'medium']","red",50,"middle","high","True","False",307,5700,NA
"A5TMU62U5FE5K","Wed Jan 29 2020 06:17:22 GMT-0700 (Mountain Standard Time)","Wed Jan 29 2020 06:38:26 GMT-0700 (Mountain Standard Time)","Mozilla/5.0 (Windows NT 6.1; Win64; x64) AppleWebKit/537.36 (KHTML, like Gecko) Chrome/79.0.3945.130 Safari/537.36",100,"[0.9, 0.5, 0.1]","[0.8, 0.4, 0.2]","[u'black', u'red', u'blue']","[u'left', u'middle', u'right']","[0.8, 0.4, 0.2]","[u'low', u'high', u'medium']","red",50,"middle","high","True","False",275,5800,NA
"A5TMU62U5FE5K","Wed Jan 29 2020 06:17:22 GMT-0700 (Mountain Standard Time)","Wed Jan 29 2020 06:38:26 GMT-0700 (Mountain Standard Time)","Mozilla/5.0 (Windows NT 6.1; Win64; x64) AppleWebKit/537.36 (KHTML, like Gecko) Chrome/79.0.3945.130 Safari/537.36",101,"[0.9, 0.5, 0.1]","[0.8, 0.4, 0.2]","[u'black', u'red', u'blue']","[u'left', u'middle', u'right']","[0.8, 0.4, 0.2]","[u'low', u'high', u'medium']","red",50,"middle","high","True","True",307,5900,NA
"A5TMU62U5FE5K","Wed Jan 29 2020 06:17:22 GMT-0700 (Mountain Standard Time)","Wed Jan 29 2020 06:38:26 GMT-0700 (Mountain Standard Time)","Mozilla/5.0 (Windows NT 6.1; Win64; x64) AppleWebKit/537.36 (KHTML, like Gecko) Chrome/79.0.3945.130 Safari/537.36",102,"[0.9, 0.5, 0.1]","[0.8, 0.4, 0.2]","[u'black', u'red', u'blue']","[u'left', u'middle', u'right']","[0.8, 0.4, 0.2]","[u'medium', u'low', u'high']","red",50,"middle","low","False","False",371,5850,NA
"A5TMU62U5FE5K","Wed Jan 29 2020 06:17:22 GMT-0700 (Mountain Standard Time)","Wed Jan 29 2020 06:38:26 GMT-0700 (Mountain Standard Time)","Mozilla/5.0 (Windows NT 6.1; Win64; x64) AppleWebKit/537.36 (KHTML, like Gecko) Chrome/79.0.3945.130 Safari/537.36",103,"[0.9, 0.5, 0.1]","[0.8, 0.4, 0.2]","[u'black', u'red', u'blue']","[u'left', u'middle', u'right']","[0.8, 0.4, 0.2]","[u'medium', u'low', u'high']","black",49,"left","medium","False","False",178,5800,NA
"A5TMU62U5FE5K","Wed Jan 29 2020 06:17:22 GMT-0700 (Mountain Standard Time)","Wed Jan 29 2020 06:38:26 GMT-0700 (Mountain Standard Time)","Mozilla/5.0 (Windows NT 6.1; Win64; x64) AppleWebKit/537.36 (KHTML, like Gecko) Chrome/79.0.3945.130 Safari/537.36",104,"[0.9, 0.5, 0.1]","[0.8, 0.4, 0.2]","[u'black', u'red', u'blue']","[u'left', u'middle', u'right']","[0.8, 0.4, 0.2]","[u'medium', u'low', u'high']","blue",51,"right","high","True","False",204,5900,NA
"A5TMU62U5FE5K","Wed Jan 29 2020 06:17:22 GMT-0700 (Mountain Standard Time)","Wed Jan 29 2020 06:38:26 GMT-0700 (Mountain Standard Time)","Mozilla/5.0 (Windows NT 6.1; Win64; x64) AppleWebKit/537.36 (KHTML, like Gecko) Chrome/79.0.3945.130 Safari/537.36",105,"[0.9, 0.5, 0.1]","[0.8, 0.4, 0.2]","[u'black', u'red', u'blue']","[u'left', u'middle', u'right']","[0.8, 0.4, 0.2]","[u'medium', u'low', u'high']","blue",51,"right","high","True","False",323,6000,NA
"A5TMU62U5FE5K","Wed Jan 29 2020 06:17:22 GMT-0700 (Mountain Standard Time)","Wed Jan 29 2020 06:38:26 GMT-0700 (Mountain Standard Time)","Mozilla/5.0 (Windows NT 6.1; Win64; x64) AppleWebKit/537.36 (KHTML, like Gecko) Chrome/79.0.3945.130 Safari/537.36",106,"[0.9, 0.5, 0.1]","[0.8, 0.4, 0.2]","[u'black', u'red', u'blue']","[u'left', u'middle', u'right']","[0.8, 0.4, 0.2]","[u'medium', u'low', u'high']","blue",51,"right","high","True","False",290,6100,NA
"A5TMU62U5FE5K","Wed Jan 29 2020 06:17:22 GMT-0700 (Mountain Standard Time)","Wed Jan 29 2020 06:38:26 GMT-0700 (Mountain Standard Time)","Mozilla/5.0 (Windows NT 6.1; Win64; x64) AppleWebKit/537.36 (KHTML, like Gecko) Chrome/79.0.3945.130 Safari/537.36",107,"[0.9, 0.5, 0.1]","[0.8, 0.4, 0.2]","[u'black', u'red', u'blue']","[u'left', u'middle', u'right']","[0.8, 0.4, 0.2]","[u'medium', u'low', u'high']","blue",51,"right","high","True","False",555,6200,NA
"A5TMU62U5FE5K","Wed Jan 29 2020 06:17:22 GMT-0700 (Mountain Standard Time)","Wed Jan 29 2020 06:38:26 GMT-0700 (Mountain Standard Time)","Mozilla/5.0 (Windows NT 6.1; Win64; x64) AppleWebKit/537.36 (KHTML, like Gecko) Chrome/79.0.3945.130 Safari/537.36",108,"[0.9, 0.5, 0.1]","[0.8, 0.4, 0.2]","[u'black', u'red', u'blue']","[u'left', u'middle', u'right']","[0.8, 0.4, 0.2]","[u'medium', u'low', u'high']","blue",51,"right","high","False","False",347,6150,NA
"A5TMU62U5FE5K","Wed Jan 29 2020 06:17:22 GMT-0700 (Mountain Standard Time)","Wed Jan 29 2020 06:38:26 GMT-0700 (Mountain Standard Time)","Mozilla/5.0 (Windows NT 6.1; Win64; x64) AppleWebKit/537.36 (KHTML, like Gecko) Chrome/79.0.3945.130 Safari/537.36",109,"[0.9, 0.5, 0.1]","[0.8, 0.4, 0.2]","[u'black', u'red', u'blue']","[u'left', u'middle', u'right']","[0.8, 0.4, 0.2]","[u'medium', u'low', u'high']","red",50,"middle","low","False","False",396,6100,NA
"A5TMU62U5FE5K","Wed Jan 29 2020 06:17:22 GMT-0700 (Mountain Standard Time)","Wed Jan 29 2020 06:38:26 GMT-0700 (Mountain Standard Time)","Mozilla/5.0 (Windows NT 6.1; Win64; x64) AppleWebKit/537.36 (KHTML, like Gecko) Chrome/79.0.3945.130 Safari/537.36",110,"[0.9, 0.5, 0.1]","[0.8, 0.4, 0.2]","[u'black', u'red', u'blue']","[u'left', u'middle', u'right']","[0.8, 0.4, 0.2]","[u'medium', u'low', u'high']","black",49,"left","medium","False","False",402,6050,NA
"A5TMU62U5FE5K","Wed Jan 29 2020 06:17:22 GMT-0700 (Mountain Standard Time)","Wed Jan 29 2020 06:38:26 GMT-0700 (Mountain Standard Time)","Mozilla/5.0 (Windows NT 6.1; Win64; x64) AppleWebKit/537.36 (KHTML, like Gecko) Chrome/79.0.3945.130 Safari/537.36",111,"[0.9, 0.5, 0.1]","[0.8, 0.4, 0.2]","[u'black', u'red', u'blue']","[u'left', u'middle', u'right']","[0.8, 0.4, 0.2]","[u'medium', u'low', u'high']","red",50,"middle","low","False","False",187,6000,NA
"A5TMU62U5FE5K","Wed Jan 29 2020 06:17:22 GMT-0700 (Mountain Standard Time)","Wed Jan 29 2020 06:38:26 GMT-0700 (Mountain Standard Time)","Mozilla/5.0 (Windows NT 6.1; Win64; x64) AppleWebKit/537.36 (KHTML, like Gecko) Chrome/79.0.3945.130 Safari/537.36",112,"[0.9, 0.5, 0.1]","[0.8, 0.4, 0.2]","[u'black', u'red', u'blue']","[u'left', u'middle', u'right']","[0.8, 0.4, 0.2]","[u'medium', u'low', u'high']","blue",51,"right","high","True","False",339,6100,NA
"A5TMU62U5FE5K","Wed Jan 29 2020 06:17:22 GMT-0700 (Mountain Standard Time)","Wed Jan 29 2020 06:38:26 GMT-0700 (Mountain Standard Time)","Mozilla/5.0 (Windows NT 6.1; Win64; x64) AppleWebKit/537.36 (KHTML, like Gecko) Chrome/79.0.3945.130 Safari/537.36",113,"[0.9, 0.5, 0.1]","[0.8, 0.4, 0.2]","[u'black', u'red', u'blue']","[u'left', u'middle', u'right']","[0.8, 0.4, 0.2]","[u'medium', u'low', u'high']","blue",51,"right","high","True","False",260,6200,NA
"A5TMU62U5FE5K","Wed Jan 29 2020 06:17:22 GMT-0700 (Mountain Standard Time)","Wed Jan 29 2020 06:38:26 GMT-0700 (Mountain Standard Time)","Mozilla/5.0 (Windows NT 6.1; Win64; x64) AppleWebKit/537.36 (KHTML, like Gecko) Chrome/79.0.3945.130 Safari/537.36",114,"[0.9, 0.5, 0.1]","[0.8, 0.4, 0.2]","[u'black', u'red', u'blue']","[u'left', u'middle', u'right']","[0.8, 0.4, 0.2]","[u'medium', u'low', u'high']","blue",51,"right","high","False","False",348,6150,NA
"A5TMU62U5FE5K","Wed Jan 29 2020 06:17:22 GMT-0700 (Mountain Standard Time)","Wed Jan 29 2020 06:38:26 GMT-0700 (Mountain Standard Time)","Mozilla/5.0 (Windows NT 6.1; Win64; x64) AppleWebKit/537.36 (KHTML, like Gecko) Chrome/79.0.3945.130 Safari/537.36",115,"[0.9, 0.5, 0.1]","[0.8, 0.4, 0.2]","[u'black', u'red', u'blue']","[u'left', u'middle', u'right']","[0.8, 0.4, 0.2]","[u'medium', u'low', u'high']","red",50,"middle","low","True","False",548,6250,NA
"A5TMU62U5FE5K","Wed Jan 29 2020 06:17:22 GMT-0700 (Mountain Standard Time)","Wed Jan 29 2020 06:38:26 GMT-0700 (Mountain Standard Time)","Mozilla/5.0 (Windows NT 6.1; Win64; x64) AppleWebKit/537.36 (KHTML, like Gecko) Chrome/79.0.3945.130 Safari/537.36",116,"[0.9, 0.5, 0.1]","[0.8, 0.4, 0.2]","[u'black', u'red', u'blue']","[u'left', u'middle', u'right']","[0.8, 0.4, 0.2]","[u'medium', u'low', u'high']","red",50,"middle","low","True","False",315,6350,NA
"A5TMU62U5FE5K","Wed Jan 29 2020 06:17:22 GMT-0700 (Mountain Standard Time)","Wed Jan 29 2020 06:38:26 GMT-0700 (Mountain Standard Time)","Mozilla/5.0 (Windows NT 6.1; Win64; x64) AppleWebKit/537.36 (KHTML, like Gecko) Chrome/79.0.3945.130 Safari/537.36",117,"[0.9, 0.5, 0.1]","[0.8, 0.4, 0.2]","[u'black', u'red', u'blue']","[u'left', u'middle', u'right']","[0.8, 0.4, 0.2]","[u'medium', u'low', u'high']","red",50,"middle","low","False","False",340,6300,NA
"A5TMU62U5FE5K","Wed Jan 29 2020 06:17:22 GMT-0700 (Mountain Standard Time)","Wed Jan 29 2020 06:38:26 GMT-0700 (Mountain Standard Time)","Mozilla/5.0 (Windows NT 6.1; Win64; x64) AppleWebKit/537.36 (KHTML, like Gecko) Chrome/79.0.3945.130 Safari/537.36",118,"[0.9, 0.5, 0.1]","[0.8, 0.4, 0.2]","[u'black', u'red', u'blue']","[u'left', u'middle', u'right']","[0.8, 0.4, 0.2]","[u'medium', u'low', u'high']","blue",51,"right","high","True","False",355,6400,NA
"A5TMU62U5FE5K","Wed Jan 29 2020 06:17:22 GMT-0700 (Mountain Standard Time)","Wed Jan 29 2020 06:38:26 GMT-0700 (Mountain Standard Time)","Mozilla/5.0 (Windows NT 6.1; Win64; x64) AppleWebKit/537.36 (KHTML, like Gecko) Chrome/79.0.3945.130 Safari/537.36",119,"[0.9, 0.5, 0.1]","[0.8, 0.4, 0.2]","[u'black', u'red', u'blue']","[u'left', u'middle', u'right']","[0.8, 0.4, 0.2]","[u'medium', u'low', u'high']","blue",51,"right","high","True","False",395,6500,NA
"A5TMU62U5FE5K","Wed Jan 29 2020 06:17:22 GMT-0700 (Mountain Standard Time)","Wed Jan 29 2020 06:38:26 GMT-0700 (Mountain Standard Time)","Mozilla/5.0 (Windows NT 6.1; Win64; x64) AppleWebKit/537.36 (KHTML, like Gecko) Chrome/79.0.3945.130 Safari/537.36",120,"[0.9, 0.5, 0.1]","[0.8, 0.4, 0.2]","[u'black', u'red', u'blue']","[u'left', u'middle', u'right']","[0.8, 0.4, 0.2]","[u'medium', u'low', u'high']","blue",51,"right","high","True","False",338,6600,NA
"A5TMU62U5FE5K","Wed Jan 29 2020 06:17:22 GMT-0700 (Mountain Standard Time)","Wed Jan 29 2020 06:38:26 GMT-0700 (Mountain Standard Time)","Mozilla/5.0 (Windows NT 6.1; Win64; x64) AppleWebKit/537.36 (KHTML, like Gecko) Chrome/79.0.3945.130 Safari/537.36",121,"[0.9, 0.5, 0.1]","[0.8, 0.4, 0.2]","[u'black', u'red', u'blue']","[u'left', u'middle', u'right']","[0.8, 0.4, 0.2]","[u'medium', u'high', u'low']","black",49,"left","medium","True","False",2562,6700,NA
"A5TMU62U5FE5K","Wed Jan 29 2020 06:17:22 GMT-0700 (Mountain Standard Time)","Wed Jan 29 2020 06:38:26 GMT-0700 (Mountain Standard Time)","Mozilla/5.0 (Windows NT 6.1; Win64; x64) AppleWebKit/537.36 (KHTML, like Gecko) Chrome/79.0.3945.130 Safari/537.36",122,"[0.9, 0.5, 0.1]","[0.8, 0.4, 0.2]","[u'black', u'red', u'blue']","[u'left', u'middle', u'right']","[0.8, 0.4, 0.2]","[u'medium', u'high', u'low']","black",49,"left","medium","False","False",443,6650,NA
"A5TMU62U5FE5K","Wed Jan 29 2020 06:17:22 GMT-0700 (Mountain Standard Time)","Wed Jan 29 2020 06:38:26 GMT-0700 (Mountain Standard Time)","Mozilla/5.0 (Windows NT 6.1; Win64; x64) AppleWebKit/537.36 (KHTML, like Gecko) Chrome/79.0.3945.130 Safari/537.36",123,"[0.9, 0.5, 0.1]","[0.8, 0.4, 0.2]","[u'black', u'red', u'blue']","[u'left', u'middle', u'right']","[0.8, 0.4, 0.2]","[u'medium', u'high', u'low']","blue",51,"right","low","False","False",884,6600,NA
"A5TMU62U5FE5K","Wed Jan 29 2020 06:17:22 GMT-0700 (Mountain Standard Time)","Wed Jan 29 2020 06:38:26 GMT-0700 (Mountain Standard Time)","Mozilla/5.0 (Windows NT 6.1; Win64; x64) AppleWebKit/537.36 (KHTML, like Gecko) Chrome/79.0.3945.130 Safari/537.36",124,"[0.9, 0.5, 0.1]","[0.8, 0.4, 0.2]","[u'black', u'red', u'blue']","[u'left', u'middle', u'right']","[0.8, 0.4, 0.2]","[u'medium', u'high', u'low']","red",50,"middle","high","True","False",378,6700,NA
"A5TMU62U5FE5K","Wed Jan 29 2020 06:17:22 GMT-0700 (Mountain Standard Time)","Wed Jan 29 2020 06:38:26 GMT-0700 (Mountain Standard Time)","Mozilla/5.0 (Windows NT 6.1; Win64; x64) AppleWebKit/537.36 (KHTML, like Gecko) Chrome/79.0.3945.130 Safari/537.36",125,"[0.9, 0.5, 0.1]","[0.8, 0.4, 0.2]","[u'black', u'red', u'blue']","[u'left', u'middle', u'right']","[0.8, 0.4, 0.2]","[u'medium', u'high', u'low']","red",50,"middle","high","True","False",331,6800,NA
"A5TMU62U5FE5K","Wed Jan 29 2020 06:17:22 GMT-0700 (Mountain Standard Time)","Wed Jan 29 2020 06:38:26 GMT-0700 (Mountain Standard Time)","Mozilla/5.0 (Windows NT 6.1; Win64; x64) AppleWebKit/537.36 (KHTML, like Gecko) Chrome/79.0.3945.130 Safari/537.36",126,"[0.9, 0.5, 0.1]","[0.8, 0.4, 0.2]","[u'black', u'red', u'blue']","[u'left', u'middle', u'right']","[0.8, 0.4, 0.2]","[u'medium', u'high', u'low']","red",50,"middle","high","True","False",364,6900,NA
"A5TMU62U5FE5K","Wed Jan 29 2020 06:17:22 GMT-0700 (Mountain Standard Time)","Wed Jan 29 2020 06:38:26 GMT-0700 (Mountain Standard Time)","Mozilla/5.0 (Windows NT 6.1; Win64; x64) AppleWebKit/537.36 (KHTML, like Gecko) Chrome/79.0.3945.130 Safari/537.36",127,"[0.9, 0.5, 0.1]","[0.8, 0.4, 0.2]","[u'black', u'red', u'blue']","[u'left', u'middle', u'right']","[0.8, 0.4, 0.2]","[u'medium', u'high', u'low']","red",50,"middle","high","True","False",564,7000,NA
"A5TMU62U5FE5K","Wed Jan 29 2020 06:17:22 GMT-0700 (Mountain Standard Time)","Wed Jan 29 2020 06:38:26 GMT-0700 (Mountain Standard Time)","Mozilla/5.0 (Windows NT 6.1; Win64; x64) AppleWebKit/537.36 (KHTML, like Gecko) Chrome/79.0.3945.130 Safari/537.36",128,"[0.9, 0.5, 0.1]","[0.8, 0.4, 0.2]","[u'black', u'red', u'blue']","[u'left', u'middle', u'right']","[0.8, 0.4, 0.2]","[u'medium', u'high', u'low']","red",50,"middle","high","True","False",347,7100,NA
"A5TMU62U5FE5K","Wed Jan 29 2020 06:17:22 GMT-0700 (Mountain Standard Time)","Wed Jan 29 2020 06:38:26 GMT-0700 (Mountain Standard Time)","Mozilla/5.0 (Windows NT 6.1; Win64; x64) AppleWebKit/537.36 (KHTML, like Gecko) Chrome/79.0.3945.130 Safari/537.36",129,"[0.9, 0.5, 0.1]","[0.8, 0.4, 0.2]","[u'black', u'red', u'blue']","[u'left', u'middle', u'right']","[0.8, 0.4, 0.2]","[u'medium', u'high', u'low']","red",50,"middle","high","True","False",317,7200,NA
"A5TMU62U5FE5K","Wed Jan 29 2020 06:17:22 GMT-0700 (Mountain Standard Time)","Wed Jan 29 2020 06:38:26 GMT-0700 (Mountain Standard Time)","Mozilla/5.0 (Windows NT 6.1; Win64; x64) AppleWebKit/537.36 (KHTML, like Gecko) Chrome/79.0.3945.130 Safari/537.36",130,"[0.9, 0.5, 0.1]","[0.8, 0.4, 0.2]","[u'black', u'red', u'blue']","[u'left', u'middle', u'right']","[0.8, 0.4, 0.2]","[u'medium', u'high', u'low']","red",50,"middle","high","False","False",298,7150,NA
"A5TMU62U5FE5K","Wed Jan 29 2020 06:17:22 GMT-0700 (Mountain Standard Time)","Wed Jan 29 2020 06:38:26 GMT-0700 (Mountain Standard Time)","Mozilla/5.0 (Windows NT 6.1; Win64; x64) AppleWebKit/537.36 (KHTML, like Gecko) Chrome/79.0.3945.130 Safari/537.36",131,"[0.9, 0.5, 0.1]","[0.8, 0.4, 0.2]","[u'black', u'red', u'blue']","[u'left', u'middle', u'right']","[0.8, 0.4, 0.2]","[u'medium', u'high', u'low']","black",49,"left","medium","True","False",362,7250,NA
"A5TMU62U5FE5K","Wed Jan 29 2020 06:17:22 GMT-0700 (Mountain Standard Time)","Wed Jan 29 2020 06:38:26 GMT-0700 (Mountain Standard Time)","Mozilla/5.0 (Windows NT 6.1; Win64; x64) AppleWebKit/537.36 (KHTML, like Gecko) Chrome/79.0.3945.130 Safari/537.36",132,"[0.9, 0.5, 0.1]","[0.8, 0.4, 0.2]","[u'black', u'red', u'blue']","[u'left', u'middle', u'right']","[0.8, 0.4, 0.2]","[u'medium', u'high', u'low']","black",49,"left","medium","True","False",338,7350,NA
"A5TMU62U5FE5K","Wed Jan 29 2020 06:17:22 GMT-0700 (Mountain Standard Time)","Wed Jan 29 2020 06:38:26 GMT-0700 (Mountain Standard Time)","Mozilla/5.0 (Windows NT 6.1; Win64; x64) AppleWebKit/537.36 (KHTML, like Gecko) Chrome/79.0.3945.130 Safari/537.36",133,"[0.9, 0.5, 0.1]","[0.8, 0.4, 0.2]","[u'black', u'red', u'blue']","[u'left', u'middle', u'right']","[0.8, 0.4, 0.2]","[u'medium', u'high', u'low']","black",49,"left","medium","True","False",363,7450,NA
"A5TMU62U5FE5K","Wed Jan 29 2020 06:17:22 GMT-0700 (Mountain Standard Time)","Wed Jan 29 2020 06:38:26 GMT-0700 (Mountain Standard Time)","Mozilla/5.0 (Windows NT 6.1; Win64; x64) AppleWebKit/537.36 (KHTML, like Gecko) Chrome/79.0.3945.130 Safari/537.36",134,"[0.9, 0.5, 0.1]","[0.8, 0.4, 0.2]","[u'black', u'red', u'blue']","[u'left', u'middle', u'right']","[0.8, 0.4, 0.2]","[u'medium', u'high', u'low']","black",49,"left","medium","False","False",347,7400,NA
"A5TMU62U5FE5K","Wed Jan 29 2020 06:17:22 GMT-0700 (Mountain Standard Time)","Wed Jan 29 2020 06:38:26 GMT-0700 (Mountain Standard Time)","Mozilla/5.0 (Windows NT 6.1; Win64; x64) AppleWebKit/537.36 (KHTML, like Gecko) Chrome/79.0.3945.130 Safari/537.36",135,"[0.9, 0.5, 0.1]","[0.8, 0.4, 0.2]","[u'black', u'red', u'blue']","[u'left', u'middle', u'right']","[0.8, 0.4, 0.2]","[u'medium', u'high', u'low']","red",50,"middle","high","False","False",427,7350,NA
"A5TMU62U5FE5K","Wed Jan 29 2020 06:17:22 GMT-0700 (Mountain Standard Time)","Wed Jan 29 2020 06:38:26 GMT-0700 (Mountain Standard Time)","Mozilla/5.0 (Windows NT 6.1; Win64; x64) AppleWebKit/537.36 (KHTML, like Gecko) Chrome/79.0.3945.130 Safari/537.36",136,"[0.9, 0.5, 0.1]","[0.8, 0.4, 0.2]","[u'black', u'red', u'blue']","[u'left', u'middle', u'right']","[0.8, 0.4, 0.2]","[u'medium', u'high', u'low']","blue",51,"right","low","False","False",324,7300,NA
"A5TMU62U5FE5K","Wed Jan 29 2020 06:17:22 GMT-0700 (Mountain Standard Time)","Wed Jan 29 2020 06:38:26 GMT-0700 (Mountain Standard Time)","Mozilla/5.0 (Windows NT 6.1; Win64; x64) AppleWebKit/537.36 (KHTML, like Gecko) Chrome/79.0.3945.130 Safari/537.36",137,"[0.9, 0.5, 0.1]","[0.8, 0.4, 0.2]","[u'black', u'red', u'blue']","[u'left', u'middle', u'right']","[0.8, 0.4, 0.2]","[u'medium', u'high', u'low']","black",49,"left","medium","True","False",330,7400,NA
"A5TMU62U5FE5K","Wed Jan 29 2020 06:17:22 GMT-0700 (Mountain Standard Time)","Wed Jan 29 2020 06:38:26 GMT-0700 (Mountain Standard Time)","Mozilla/5.0 (Windows NT 6.1; Win64; x64) AppleWebKit/537.36 (KHTML, like Gecko) Chrome/79.0.3945.130 Safari/537.36",138,"[0.9, 0.5, 0.1]","[0.8, 0.4, 0.2]","[u'black', u'red', u'blue']","[u'left', u'middle', u'right']","[0.8, 0.4, 0.2]","[u'medium', u'high', u'low']","black",49,"left","medium","True","False",443,7500,NA
"A5TMU62U5FE5K","Wed Jan 29 2020 06:17:22 GMT-0700 (Mountain Standard Time)","Wed Jan 29 2020 06:38:26 GMT-0700 (Mountain Standard Time)","Mozilla/5.0 (Windows NT 6.1; Win64; x64) AppleWebKit/537.36 (KHTML, like Gecko) Chrome/79.0.3945.130 Safari/537.36",139,"[0.9, 0.5, 0.1]","[0.8, 0.4, 0.2]","[u'black', u'red', u'blue']","[u'left', u'middle', u'right']","[0.8, 0.4, 0.2]","[u'medium', u'high', u'low']","black",49,"left","medium","False","False",428,7450,NA
"A5TMU62U5FE5K","Wed Jan 29 2020 06:17:22 GMT-0700 (Mountain Standard Time)","Wed Jan 29 2020 06:38:26 GMT-0700 (Mountain Standard Time)","Mozilla/5.0 (Windows NT 6.1; Win64; x64) AppleWebKit/537.36 (KHTML, like Gecko) Chrome/79.0.3945.130 Safari/537.36",140,"[0.9, 0.5, 0.1]","[0.8, 0.4, 0.2]","[u'black', u'red', u'blue']","[u'left', u'middle', u'right']","[0.8, 0.4, 0.2]","[u'medium', u'high', u'low']","red",50,"middle","high","True","False",347,7550,NA
"A5TMU62U5FE5K","Wed Jan 29 2020 06:17:22 GMT-0700 (Mountain Standard Time)","Wed Jan 29 2020 06:38:26 GMT-0700 (Mountain Standard Time)","Mozilla/5.0 (Windows NT 6.1; Win64; x64) AppleWebKit/537.36 (KHTML, like Gecko) Chrome/79.0.3945.130 Safari/537.36",141,"[0.9, 0.5, 0.1]","[0.8, 0.4, 0.2]","[u'black', u'red', u'blue']","[u'left', u'middle', u'right']","[0.8, 0.4, 0.2]","[u'medium', u'high', u'low']","red",50,"middle","high","True","False",387,7650,NA
"A5TMU62U5FE5K","Wed Jan 29 2020 06:17:22 GMT-0700 (Mountain Standard Time)","Wed Jan 29 2020 06:38:26 GMT-0700 (Mountain Standard Time)","Mozilla/5.0 (Windows NT 6.1; Win64; x64) AppleWebKit/537.36 (KHTML, like Gecko) Chrome/79.0.3945.130 Safari/537.36",142,"[0.9, 0.5, 0.1]","[0.8, 0.4, 0.2]","[u'black', u'red', u'blue']","[u'left', u'middle', u'right']","[0.8, 0.4, 0.2]","[u'medium', u'high', u'low']","red",50,"middle","high","True","False",331,7750,NA
"A5TMU62U5FE5K","Wed Jan 29 2020 06:17:22 GMT-0700 (Mountain Standard Time)","Wed Jan 29 2020 06:38:26 GMT-0700 (Mountain Standard Time)","Mozilla/5.0 (Windows NT 6.1; Win64; x64) AppleWebKit/537.36 (KHTML, like Gecko) Chrome/79.0.3945.130 Safari/537.36",143,"[0.9, 0.5, 0.1]","[0.8, 0.4, 0.2]","[u'black', u'red', u'blue']","[u'left', u'middle', u'right']","[0.8, 0.4, 0.2]","[u'medium', u'high', u'low']","red",50,"middle","high","True","False",339,7850,NA
"A5TMU62U5FE5K","Wed Jan 29 2020 06:17:22 GMT-0700 (Mountain Standard Time)","Wed Jan 29 2020 06:38:26 GMT-0700 (Mountain Standard Time)","Mozilla/5.0 (Windows NT 6.1; Win64; x64) AppleWebKit/537.36 (KHTML, like Gecko) Chrome/79.0.3945.130 Safari/537.36",144,"[0.9, 0.5, 0.1]","[0.8, 0.4, 0.2]","[u'black', u'red', u'blue']","[u'left', u'middle', u'right']","[0.8, 0.4, 0.2]","[u'medium', u'high', u'low']","red",50,"middle","high","True","False",291,7950,NA
"A5TMU62U5FE5K","Wed Jan 29 2020 06:17:22 GMT-0700 (Mountain Standard Time)","Wed Jan 29 2020 06:38:26 GMT-0700 (Mountain Standard Time)","Mozilla/5.0 (Windows NT 6.1; Win64; x64) AppleWebKit/537.36 (KHTML, like Gecko) Chrome/79.0.3945.130 Safari/537.36",145,"[0.9, 0.5, 0.1]","[0.8, 0.4, 0.2]","[u'black', u'red', u'blue']","[u'left', u'middle', u'right']","[0.8, 0.4, 0.2]","[u'medium', u'high', u'low']","red",50,"middle","high","True","False",436,8050,NA
"A5TMU62U5FE5K","Wed Jan 29 2020 06:17:22 GMT-0700 (Mountain Standard Time)","Wed Jan 29 2020 06:38:26 GMT-0700 (Mountain Standard Time)","Mozilla/5.0 (Windows NT 6.1; Win64; x64) AppleWebKit/537.36 (KHTML, like Gecko) Chrome/79.0.3945.130 Safari/537.36",146,"[0.9, 0.5, 0.1]","[0.8, 0.4, 0.2]","[u'black', u'red', u'blue']","[u'left', u'middle', u'right']","[0.8, 0.4, 0.2]","[u'medium', u'high', u'low']","red",50,"middle","high","True","False",340,8150,NA
"A5TMU62U5FE5K","Wed Jan 29 2020 06:17:22 GMT-0700 (Mountain Standard Time)","Wed Jan 29 2020 06:38:26 GMT-0700 (Mountain Standard Time)","Mozilla/5.0 (Windows NT 6.1; Win64; x64) AppleWebKit/537.36 (KHTML, like Gecko) Chrome/79.0.3945.130 Safari/537.36",147,"[0.9, 0.5, 0.1]","[0.8, 0.4, 0.2]","[u'black', u'red', u'blue']","[u'left', u'middle', u'right']","[0.8, 0.4, 0.2]","[u'medium', u'high', u'low']","red",50,"middle","high","True","False",395,8250,NA
"A5TMU62U5FE5K","Wed Jan 29 2020 06:17:22 GMT-0700 (Mountain Standard Time)","Wed Jan 29 2020 06:38:26 GMT-0700 (Mountain Standard Time)","Mozilla/5.0 (Windows NT 6.1; Win64; x64) AppleWebKit/537.36 (KHTML, like Gecko) Chrome/79.0.3945.130 Safari/537.36",148,"[0.9, 0.5, 0.1]","[0.8, 0.4, 0.2]","[u'black', u'red', u'blue']","[u'left', u'middle', u'right']","[0.8, 0.4, 0.2]","[u'medium', u'high', u'low']","red",50,"middle","high","True","True",379,8350,NA
"A5TMU62U5FE5K","Wed Jan 29 2020 06:17:22 GMT-0700 (Mountain Standard Time)","Wed Jan 29 2020 06:38:26 GMT-0700 (Mountain Standard Time)","Mozilla/5.0 (Windows NT 6.1; Win64; x64) AppleWebKit/537.36 (KHTML, like Gecko) Chrome/79.0.3945.130 Safari/537.36",149,"[0.9, 0.5, 0.1]","[0.8, 0.4, 0.2]","[u'black', u'red', u'blue']","[u'left', u'middle', u'right']","[0.8, 0.4, 0.2]","[u'medium', u'low', u'high']","red",50,"middle","low","False","False",467,8300,NA
"A5TMU62U5FE5K","Wed Jan 29 2020 06:17:22 GMT-0700 (Mountain Standard Time)","Wed Jan 29 2020 06:38:26 GMT-0700 (Mountain Standard Time)","Mozilla/5.0 (Windows NT 6.1; Win64; x64) AppleWebKit/537.36 (KHTML, like Gecko) Chrome/79.0.3945.130 Safari/537.36",150,"[0.9, 0.5, 0.1]","[0.8, 0.4, 0.2]","[u'black', u'red', u'blue']","[u'left', u'middle', u'right']","[0.8, 0.4, 0.2]","[u'medium', u'low', u'high']","black",49,"left","medium","True","False",314,8400,NA
"A5TMU62U5FE5K","Wed Jan 29 2020 06:17:22 GMT-0700 (Mountain Standard Time)","Wed Jan 29 2020 06:38:26 GMT-0700 (Mountain Standard Time)","Mozilla/5.0 (Windows NT 6.1; Win64; x64) AppleWebKit/537.36 (KHTML, like Gecko) Chrome/79.0.3945.130 Safari/537.36",151,"[0.9, 0.5, 0.1]","[0.8, 0.4, 0.2]","[u'black', u'red', u'blue']","[u'left', u'middle', u'right']","[0.8, 0.4, 0.2]","[u'medium', u'low', u'high']","black",49,"left","medium","False","False",338,8350,NA
"A5TMU62U5FE5K","Wed Jan 29 2020 06:17:22 GMT-0700 (Mountain Standard Time)","Wed Jan 29 2020 06:38:26 GMT-0700 (Mountain Standard Time)","Mozilla/5.0 (Windows NT 6.1; Win64; x64) AppleWebKit/537.36 (KHTML, like Gecko) Chrome/79.0.3945.130 Safari/537.36",152,"[0.9, 0.5, 0.1]","[0.8, 0.4, 0.2]","[u'black', u'red', u'blue']","[u'left', u'middle', u'right']","[0.8, 0.4, 0.2]","[u'medium', u'low', u'high']","blue",51,"right","high","True","False",883,8450,NA
"A5TMU62U5FE5K","Wed Jan 29 2020 06:17:22 GMT-0700 (Mountain Standard Time)","Wed Jan 29 2020 06:38:26 GMT-0700 (Mountain Standard Time)","Mozilla/5.0 (Windows NT 6.1; Win64; x64) AppleWebKit/537.36 (KHTML, like Gecko) Chrome/79.0.3945.130 Safari/537.36",153,"[0.9, 0.5, 0.1]","[0.8, 0.4, 0.2]","[u'black', u'red', u'blue']","[u'left', u'middle', u'right']","[0.8, 0.4, 0.2]","[u'medium', u'low', u'high']","blue",51,"right","high","True","False",435,8550,NA
"A5TMU62U5FE5K","Wed Jan 29 2020 06:17:22 GMT-0700 (Mountain Standard Time)","Wed Jan 29 2020 06:38:26 GMT-0700 (Mountain Standard Time)","Mozilla/5.0 (Windows NT 6.1; Win64; x64) AppleWebKit/537.36 (KHTML, like Gecko) Chrome/79.0.3945.130 Safari/537.36",154,"[0.9, 0.5, 0.1]","[0.8, 0.4, 0.2]","[u'black', u'red', u'blue']","[u'left', u'middle', u'right']","[0.8, 0.4, 0.2]","[u'medium', u'low', u'high']","blue",51,"right","high","True","False",396,8650,NA
"A5TMU62U5FE5K","Wed Jan 29 2020 06:17:22 GMT-0700 (Mountain Standard Time)","Wed Jan 29 2020 06:38:26 GMT-0700 (Mountain Standard Time)","Mozilla/5.0 (Windows NT 6.1; Win64; x64) AppleWebKit/537.36 (KHTML, like Gecko) Chrome/79.0.3945.130 Safari/537.36",155,"[0.9, 0.5, 0.1]","[0.8, 0.4, 0.2]","[u'black', u'red', u'blue']","[u'left', u'middle', u'right']","[0.8, 0.4, 0.2]","[u'medium', u'low', u'high']","blue",51,"right","high","True","False",570,8750,NA
"A5TMU62U5FE5K","Wed Jan 29 2020 06:17:22 GMT-0700 (Mountain Standard Time)","Wed Jan 29 2020 06:38:26 GMT-0700 (Mountain Standard Time)","Mozilla/5.0 (Windows NT 6.1; Win64; x64) AppleWebKit/537.36 (KHTML, like Gecko) Chrome/79.0.3945.130 Safari/537.36",156,"[0.9, 0.5, 0.1]","[0.8, 0.4, 0.2]","[u'black', u'red', u'blue']","[u'left', u'middle', u'right']","[0.8, 0.4, 0.2]","[u'medium', u'low', u'high']","black",49,"left","medium","True","False",13099,8850,NA
"A5TMU62U5FE5K","Wed Jan 29 2020 06:17:22 GMT-0700 (Mountain Standard Time)","Wed Jan 29 2020 06:38:26 GMT-0700 (Mountain Standard Time)","Mozilla/5.0 (Windows NT 6.1; Win64; x64) AppleWebKit/537.36 (KHTML, like Gecko) Chrome/79.0.3945.130 Safari/537.36",157,"[0.9, 0.5, 0.1]","[0.8, 0.4, 0.2]","[u'black', u'red', u'blue']","[u'left', u'middle', u'right']","[0.8, 0.4, 0.2]","[u'medium', u'low', u'high']","black",49,"left","medium","True","False",1699,8950,NA
"A5TMU62U5FE5K","Wed Jan 29 2020 06:17:22 GMT-0700 (Mountain Standard Time)","Wed Jan 29 2020 06:38:26 GMT-0700 (Mountain Standard Time)","Mozilla/5.0 (Windows NT 6.1; Win64; x64) AppleWebKit/537.36 (KHTML, like Gecko) Chrome/79.0.3945.130 Safari/537.36",158,"[0.9, 0.5, 0.1]","[0.8, 0.4, 0.2]","[u'black', u'red', u'blue']","[u'left', u'middle', u'right']","[0.8, 0.4, 0.2]","[u'medium', u'low', u'high']","black",49,"left","medium","True","False",331,9050,NA
"A5TMU62U5FE5K","Wed Jan 29 2020 06:17:22 GMT-0700 (Mountain Standard Time)","Wed Jan 29 2020 06:38:26 GMT-0700 (Mountain Standard Time)","Mozilla/5.0 (Windows NT 6.1; Win64; x64) AppleWebKit/537.36 (KHTML, like Gecko) Chrome/79.0.3945.130 Safari/537.36",159,"[0.9, 0.5, 0.1]","[0.8, 0.4, 0.2]","[u'black', u'red', u'blue']","[u'left', u'middle', u'right']","[0.8, 0.4, 0.2]","[u'medium', u'low', u'high']","black",49,"left","medium","True","False",435,9150,NA
"A5TMU62U5FE5K","Wed Jan 29 2020 06:17:22 GMT-0700 (Mountain Standard Time)","Wed Jan 29 2020 06:38:26 GMT-0700 (Mountain Standard Time)","Mozilla/5.0 (Windows NT 6.1; Win64; x64) AppleWebKit/537.36 (KHTML, like Gecko) Chrome/79.0.3945.130 Safari/537.36",160,"[0.9, 0.5, 0.1]","[0.8, 0.4, 0.2]","[u'black', u'red', u'blue']","[u'left', u'middle', u'right']","[0.8, 0.4, 0.2]","[u'medium', u'low', u'high']","black",49,"left","medium","False","False",438,9100,NA
