"src_subject_id","start_time","end_time","browser","index","first_half_probabilities","second_half_probabilities","deck_color","deck_position","deck_probabilities","deck_contingencies","response_color","key_press","response_position","response_probability","reward_type","trial_type","rt","reward_tally","exclusion_reason"
"AKX9W0NF71OI7","Mon Sep 21 2020 16:43:25 GMT-1000 (Hawaii-Aleutian Standard Time)","Mon Sep 21 2020 16:55:05 GMT-1000 (Hawaii-Aleutian Standard Time)","Mozilla/5.0 (Windows NT 10.0; Win64; x64) AppleWebKit/537.36 (KHTML, like Gecko) Chrome/85.0.4183.102 Safari/537.36",1,"[0.9, 0.5, 0.1]","[0.8, 0.4, 0.2]","[u'black', u'blue', u'red']","[u'left', u'middle', u'right']","[0.9, 0.5, 0.1]","[u'low', u'high', u'medium']","blue",50,"middle","high","True","False",1101,100,NA
"AKX9W0NF71OI7","Mon Sep 21 2020 16:43:25 GMT-1000 (Hawaii-Aleutian Standard Time)","Mon Sep 21 2020 16:55:05 GMT-1000 (Hawaii-Aleutian Standard Time)","Mozilla/5.0 (Windows NT 10.0; Win64; x64) AppleWebKit/537.36 (KHTML, like Gecko) Chrome/85.0.4183.102 Safari/537.36",2,"[0.9, 0.5, 0.1]","[0.8, 0.4, 0.2]","[u'black', u'blue', u'red']","[u'left', u'middle', u'right']","[0.9, 0.5, 0.1]","[u'low', u'high', u'medium']","blue",50,"middle","high","True","False",427,200,NA
"AKX9W0NF71OI7","Mon Sep 21 2020 16:43:25 GMT-1000 (Hawaii-Aleutian Standard Time)","Mon Sep 21 2020 16:55:05 GMT-1000 (Hawaii-Aleutian Standard Time)","Mozilla/5.0 (Windows NT 10.0; Win64; x64) AppleWebKit/537.36 (KHTML, like Gecko) Chrome/85.0.4183.102 Safari/537.36",3,"[0.9, 0.5, 0.1]","[0.8, 0.4, 0.2]","[u'black', u'blue', u'red']","[u'left', u'middle', u'right']","[0.9, 0.5, 0.1]","[u'low', u'high', u'medium']","blue",50,"middle","high","True","False",322,300,NA
"AKX9W0NF71OI7","Mon Sep 21 2020 16:43:25 GMT-1000 (Hawaii-Aleutian Standard Time)","Mon Sep 21 2020 16:55:05 GMT-1000 (Hawaii-Aleutian Standard Time)","Mozilla/5.0 (Windows NT 10.0; Win64; x64) AppleWebKit/537.36 (KHTML, like Gecko) Chrome/85.0.4183.102 Safari/537.36",4,"[0.9, 0.5, 0.1]","[0.8, 0.4, 0.2]","[u'black', u'blue', u'red']","[u'left', u'middle', u'right']","[0.9, 0.5, 0.1]","[u'low', u'high', u'medium']","blue",50,"middle","high","True","False",413,400,NA
"AKX9W0NF71OI7","Mon Sep 21 2020 16:43:25 GMT-1000 (Hawaii-Aleutian Standard Time)","Mon Sep 21 2020 16:55:05 GMT-1000 (Hawaii-Aleutian Standard Time)","Mozilla/5.0 (Windows NT 10.0; Win64; x64) AppleWebKit/537.36 (KHTML, like Gecko) Chrome/85.0.4183.102 Safari/537.36",5,"[0.9, 0.5, 0.1]","[0.8, 0.4, 0.2]","[u'black', u'blue', u'red']","[u'left', u'middle', u'right']","[0.9, 0.5, 0.1]","[u'low', u'high', u'medium']","blue",50,"middle","high","True","False",344,500,NA
"AKX9W0NF71OI7","Mon Sep 21 2020 16:43:25 GMT-1000 (Hawaii-Aleutian Standard Time)","Mon Sep 21 2020 16:55:05 GMT-1000 (Hawaii-Aleutian Standard Time)","Mozilla/5.0 (Windows NT 10.0; Win64; x64) AppleWebKit/537.36 (KHTML, like Gecko) Chrome/85.0.4183.102 Safari/537.36",6,"[0.9, 0.5, 0.1]","[0.8, 0.4, 0.2]","[u'black', u'blue', u'red']","[u'left', u'middle', u'right']","[0.9, 0.5, 0.1]","[u'low', u'high', u'medium']","blue",50,"middle","high","True","False",302,600,NA
"AKX9W0NF71OI7","Mon Sep 21 2020 16:43:25 GMT-1000 (Hawaii-Aleutian Standard Time)","Mon Sep 21 2020 16:55:05 GMT-1000 (Hawaii-Aleutian Standard Time)","Mozilla/5.0 (Windows NT 10.0; Win64; x64) AppleWebKit/537.36 (KHTML, like Gecko) Chrome/85.0.4183.102 Safari/537.36",7,"[0.9, 0.5, 0.1]","[0.8, 0.4, 0.2]","[u'black', u'blue', u'red']","[u'left', u'middle', u'right']","[0.9, 0.5, 0.1]","[u'low', u'high', u'medium']","blue",50,"middle","high","True","False",401,700,NA
"AKX9W0NF71OI7","Mon Sep 21 2020 16:43:25 GMT-1000 (Hawaii-Aleutian Standard Time)","Mon Sep 21 2020 16:55:05 GMT-1000 (Hawaii-Aleutian Standard Time)","Mozilla/5.0 (Windows NT 10.0; Win64; x64) AppleWebKit/537.36 (KHTML, like Gecko) Chrome/85.0.4183.102 Safari/537.36",8,"[0.9, 0.5, 0.1]","[0.8, 0.4, 0.2]","[u'black', u'blue', u'red']","[u'left', u'middle', u'right']","[0.9, 0.5, 0.1]","[u'low', u'high', u'medium']","blue",50,"middle","high","True","False",346,800,NA
"AKX9W0NF71OI7","Mon Sep 21 2020 16:43:25 GMT-1000 (Hawaii-Aleutian Standard Time)","Mon Sep 21 2020 16:55:05 GMT-1000 (Hawaii-Aleutian Standard Time)","Mozilla/5.0 (Windows NT 10.0; Win64; x64) AppleWebKit/537.36 (KHTML, like Gecko) Chrome/85.0.4183.102 Safari/537.36",9,"[0.9, 0.5, 0.1]","[0.8, 0.4, 0.2]","[u'black', u'blue', u'red']","[u'left', u'middle', u'right']","[0.9, 0.5, 0.1]","[u'low', u'high', u'medium']","blue",50,"middle","high","True","True",268,900,NA
"AKX9W0NF71OI7","Mon Sep 21 2020 16:43:25 GMT-1000 (Hawaii-Aleutian Standard Time)","Mon Sep 21 2020 16:55:05 GMT-1000 (Hawaii-Aleutian Standard Time)","Mozilla/5.0 (Windows NT 10.0; Win64; x64) AppleWebKit/537.36 (KHTML, like Gecko) Chrome/85.0.4183.102 Safari/537.36",10,"[0.9, 0.5, 0.1]","[0.8, 0.4, 0.2]","[u'black', u'blue', u'red']","[u'left', u'middle', u'right']","[0.9, 0.5, 0.1]","[u'high', u'low', u'medium']","blue",50,"middle","low","False","False",570,850,NA
"AKX9W0NF71OI7","Mon Sep 21 2020 16:43:25 GMT-1000 (Hawaii-Aleutian Standard Time)","Mon Sep 21 2020 16:55:05 GMT-1000 (Hawaii-Aleutian Standard Time)","Mozilla/5.0 (Windows NT 10.0; Win64; x64) AppleWebKit/537.36 (KHTML, like Gecko) Chrome/85.0.4183.102 Safari/537.36",11,"[0.9, 0.5, 0.1]","[0.8, 0.4, 0.2]","[u'black', u'blue', u'red']","[u'left', u'middle', u'right']","[0.9, 0.5, 0.1]","[u'high', u'low', u'medium']","blue",50,"middle","low","False","False",801,800,NA
"AKX9W0NF71OI7","Mon Sep 21 2020 16:43:25 GMT-1000 (Hawaii-Aleutian Standard Time)","Mon Sep 21 2020 16:55:05 GMT-1000 (Hawaii-Aleutian Standard Time)","Mozilla/5.0 (Windows NT 10.0; Win64; x64) AppleWebKit/537.36 (KHTML, like Gecko) Chrome/85.0.4183.102 Safari/537.36",12,"[0.9, 0.5, 0.1]","[0.8, 0.4, 0.2]","[u'black', u'blue', u'red']","[u'left', u'middle', u'right']","[0.9, 0.5, 0.1]","[u'high', u'low', u'medium']","red",51,"right","medium","True","False",356,900,NA
"AKX9W0NF71OI7","Mon Sep 21 2020 16:43:25 GMT-1000 (Hawaii-Aleutian Standard Time)","Mon Sep 21 2020 16:55:05 GMT-1000 (Hawaii-Aleutian Standard Time)","Mozilla/5.0 (Windows NT 10.0; Win64; x64) AppleWebKit/537.36 (KHTML, like Gecko) Chrome/85.0.4183.102 Safari/537.36",13,"[0.9, 0.5, 0.1]","[0.8, 0.4, 0.2]","[u'black', u'blue', u'red']","[u'left', u'middle', u'right']","[0.9, 0.5, 0.1]","[u'high', u'low', u'medium']","red",51,"right","medium","True","False",313,1000,NA
"AKX9W0NF71OI7","Mon Sep 21 2020 16:43:25 GMT-1000 (Hawaii-Aleutian Standard Time)","Mon Sep 21 2020 16:55:05 GMT-1000 (Hawaii-Aleutian Standard Time)","Mozilla/5.0 (Windows NT 10.0; Win64; x64) AppleWebKit/537.36 (KHTML, like Gecko) Chrome/85.0.4183.102 Safari/537.36",14,"[0.9, 0.5, 0.1]","[0.8, 0.4, 0.2]","[u'black', u'blue', u'red']","[u'left', u'middle', u'right']","[0.9, 0.5, 0.1]","[u'high', u'low', u'medium']","red",51,"right","medium","False","False",442,950,NA
"AKX9W0NF71OI7","Mon Sep 21 2020 16:43:25 GMT-1000 (Hawaii-Aleutian Standard Time)","Mon Sep 21 2020 16:55:05 GMT-1000 (Hawaii-Aleutian Standard Time)","Mozilla/5.0 (Windows NT 10.0; Win64; x64) AppleWebKit/537.36 (KHTML, like Gecko) Chrome/85.0.4183.102 Safari/537.36",15,"[0.9, 0.5, 0.1]","[0.8, 0.4, 0.2]","[u'black', u'blue', u'red']","[u'left', u'middle', u'right']","[0.9, 0.5, 0.1]","[u'high', u'low', u'medium']","blue",50,"middle","low","True","False",592,1050,NA
"AKX9W0NF71OI7","Mon Sep 21 2020 16:43:25 GMT-1000 (Hawaii-Aleutian Standard Time)","Mon Sep 21 2020 16:55:05 GMT-1000 (Hawaii-Aleutian Standard Time)","Mozilla/5.0 (Windows NT 10.0; Win64; x64) AppleWebKit/537.36 (KHTML, like Gecko) Chrome/85.0.4183.102 Safari/537.36",16,"[0.9, 0.5, 0.1]","[0.8, 0.4, 0.2]","[u'black', u'blue', u'red']","[u'left', u'middle', u'right']","[0.9, 0.5, 0.1]","[u'high', u'low', u'medium']","blue",50,"middle","low","False","False",303,1000,NA
"AKX9W0NF71OI7","Mon Sep 21 2020 16:43:25 GMT-1000 (Hawaii-Aleutian Standard Time)","Mon Sep 21 2020 16:55:05 GMT-1000 (Hawaii-Aleutian Standard Time)","Mozilla/5.0 (Windows NT 10.0; Win64; x64) AppleWebKit/537.36 (KHTML, like Gecko) Chrome/85.0.4183.102 Safari/537.36",17,"[0.9, 0.5, 0.1]","[0.8, 0.4, 0.2]","[u'black', u'blue', u'red']","[u'left', u'middle', u'right']","[0.9, 0.5, 0.1]","[u'high', u'low', u'medium']","red",51,"right","medium","True","False",290,1100,NA
"AKX9W0NF71OI7","Mon Sep 21 2020 16:43:25 GMT-1000 (Hawaii-Aleutian Standard Time)","Mon Sep 21 2020 16:55:05 GMT-1000 (Hawaii-Aleutian Standard Time)","Mozilla/5.0 (Windows NT 10.0; Win64; x64) AppleWebKit/537.36 (KHTML, like Gecko) Chrome/85.0.4183.102 Safari/537.36",18,"[0.9, 0.5, 0.1]","[0.8, 0.4, 0.2]","[u'black', u'blue', u'red']","[u'left', u'middle', u'right']","[0.9, 0.5, 0.1]","[u'high', u'low', u'medium']","red",51,"right","medium","False","False",338,1050,NA
"AKX9W0NF71OI7","Mon Sep 21 2020 16:43:25 GMT-1000 (Hawaii-Aleutian Standard Time)","Mon Sep 21 2020 16:55:05 GMT-1000 (Hawaii-Aleutian Standard Time)","Mozilla/5.0 (Windows NT 10.0; Win64; x64) AppleWebKit/537.36 (KHTML, like Gecko) Chrome/85.0.4183.102 Safari/537.36",19,"[0.9, 0.5, 0.1]","[0.8, 0.4, 0.2]","[u'black', u'blue', u'red']","[u'left', u'middle', u'right']","[0.9, 0.5, 0.1]","[u'high', u'low', u'medium']","blue",50,"middle","low","True","False",175,1150,NA
"AKX9W0NF71OI7","Mon Sep 21 2020 16:43:25 GMT-1000 (Hawaii-Aleutian Standard Time)","Mon Sep 21 2020 16:55:05 GMT-1000 (Hawaii-Aleutian Standard Time)","Mozilla/5.0 (Windows NT 10.0; Win64; x64) AppleWebKit/537.36 (KHTML, like Gecko) Chrome/85.0.4183.102 Safari/537.36",20,"[0.9, 0.5, 0.1]","[0.8, 0.4, 0.2]","[u'black', u'blue', u'red']","[u'left', u'middle', u'right']","[0.9, 0.5, 0.1]","[u'high', u'low', u'medium']","red",51,"right","medium","False","False",340,1100,NA
"AKX9W0NF71OI7","Mon Sep 21 2020 16:43:25 GMT-1000 (Hawaii-Aleutian Standard Time)","Mon Sep 21 2020 16:55:05 GMT-1000 (Hawaii-Aleutian Standard Time)","Mozilla/5.0 (Windows NT 10.0; Win64; x64) AppleWebKit/537.36 (KHTML, like Gecko) Chrome/85.0.4183.102 Safari/537.36",21,"[0.9, 0.5, 0.1]","[0.8, 0.4, 0.2]","[u'black', u'blue', u'red']","[u'left', u'middle', u'right']","[0.9, 0.5, 0.1]","[u'high', u'low', u'medium']","blue",50,"middle","low","False","False",467,1050,NA
"AKX9W0NF71OI7","Mon Sep 21 2020 16:43:25 GMT-1000 (Hawaii-Aleutian Standard Time)","Mon Sep 21 2020 16:55:05 GMT-1000 (Hawaii-Aleutian Standard Time)","Mozilla/5.0 (Windows NT 10.0; Win64; x64) AppleWebKit/537.36 (KHTML, like Gecko) Chrome/85.0.4183.102 Safari/537.36",22,"[0.9, 0.5, 0.1]","[0.8, 0.4, 0.2]","[u'black', u'blue', u'red']","[u'left', u'middle', u'right']","[0.9, 0.5, 0.1]","[u'high', u'low', u'medium']","black",49,"left","high","True","False",338,1150,NA
"AKX9W0NF71OI7","Mon Sep 21 2020 16:43:25 GMT-1000 (Hawaii-Aleutian Standard Time)","Mon Sep 21 2020 16:55:05 GMT-1000 (Hawaii-Aleutian Standard Time)","Mozilla/5.0 (Windows NT 10.0; Win64; x64) AppleWebKit/537.36 (KHTML, like Gecko) Chrome/85.0.4183.102 Safari/537.36",23,"[0.9, 0.5, 0.1]","[0.8, 0.4, 0.2]","[u'black', u'blue', u'red']","[u'left', u'middle', u'right']","[0.9, 0.5, 0.1]","[u'high', u'low', u'medium']","black",49,"left","high","True","False",388,1250,NA
"AKX9W0NF71OI7","Mon Sep 21 2020 16:43:25 GMT-1000 (Hawaii-Aleutian Standard Time)","Mon Sep 21 2020 16:55:05 GMT-1000 (Hawaii-Aleutian Standard Time)","Mozilla/5.0 (Windows NT 10.0; Win64; x64) AppleWebKit/537.36 (KHTML, like Gecko) Chrome/85.0.4183.102 Safari/537.36",24,"[0.9, 0.5, 0.1]","[0.8, 0.4, 0.2]","[u'black', u'blue', u'red']","[u'left', u'middle', u'right']","[0.9, 0.5, 0.1]","[u'high', u'low', u'medium']","black",49,"left","high","True","False",456,1350,NA
"AKX9W0NF71OI7","Mon Sep 21 2020 16:43:25 GMT-1000 (Hawaii-Aleutian Standard Time)","Mon Sep 21 2020 16:55:05 GMT-1000 (Hawaii-Aleutian Standard Time)","Mozilla/5.0 (Windows NT 10.0; Win64; x64) AppleWebKit/537.36 (KHTML, like Gecko) Chrome/85.0.4183.102 Safari/537.36",25,"[0.9, 0.5, 0.1]","[0.8, 0.4, 0.2]","[u'black', u'blue', u'red']","[u'left', u'middle', u'right']","[0.9, 0.5, 0.1]","[u'high', u'low', u'medium']","black",49,"left","high","True","False",336,1450,NA
"AKX9W0NF71OI7","Mon Sep 21 2020 16:43:25 GMT-1000 (Hawaii-Aleutian Standard Time)","Mon Sep 21 2020 16:55:05 GMT-1000 (Hawaii-Aleutian Standard Time)","Mozilla/5.0 (Windows NT 10.0; Win64; x64) AppleWebKit/537.36 (KHTML, like Gecko) Chrome/85.0.4183.102 Safari/537.36",26,"[0.9, 0.5, 0.1]","[0.8, 0.4, 0.2]","[u'black', u'blue', u'red']","[u'left', u'middle', u'right']","[0.9, 0.5, 0.1]","[u'high', u'low', u'medium']","black",49,"left","high","True","False",244,1550,NA
"AKX9W0NF71OI7","Mon Sep 21 2020 16:43:25 GMT-1000 (Hawaii-Aleutian Standard Time)","Mon Sep 21 2020 16:55:05 GMT-1000 (Hawaii-Aleutian Standard Time)","Mozilla/5.0 (Windows NT 10.0; Win64; x64) AppleWebKit/537.36 (KHTML, like Gecko) Chrome/85.0.4183.102 Safari/537.36",27,"[0.9, 0.5, 0.1]","[0.8, 0.4, 0.2]","[u'black', u'blue', u'red']","[u'left', u'middle', u'right']","[0.9, 0.5, 0.1]","[u'high', u'low', u'medium']","black",49,"left","high","True","False",435,1650,NA
"AKX9W0NF71OI7","Mon Sep 21 2020 16:43:25 GMT-1000 (Hawaii-Aleutian Standard Time)","Mon Sep 21 2020 16:55:05 GMT-1000 (Hawaii-Aleutian Standard Time)","Mozilla/5.0 (Windows NT 10.0; Win64; x64) AppleWebKit/537.36 (KHTML, like Gecko) Chrome/85.0.4183.102 Safari/537.36",28,"[0.9, 0.5, 0.1]","[0.8, 0.4, 0.2]","[u'black', u'blue', u'red']","[u'left', u'middle', u'right']","[0.9, 0.5, 0.1]","[u'high', u'low', u'medium']","black",49,"left","high","True","False",412,1750,NA
"AKX9W0NF71OI7","Mon Sep 21 2020 16:43:25 GMT-1000 (Hawaii-Aleutian Standard Time)","Mon Sep 21 2020 16:55:05 GMT-1000 (Hawaii-Aleutian Standard Time)","Mozilla/5.0 (Windows NT 10.0; Win64; x64) AppleWebKit/537.36 (KHTML, like Gecko) Chrome/85.0.4183.102 Safari/537.36",29,"[0.9, 0.5, 0.1]","[0.8, 0.4, 0.2]","[u'black', u'blue', u'red']","[u'left', u'middle', u'right']","[0.9, 0.5, 0.1]","[u'high', u'low', u'medium']","black",49,"left","high","True","False",600,1850,NA
"AKX9W0NF71OI7","Mon Sep 21 2020 16:43:25 GMT-1000 (Hawaii-Aleutian Standard Time)","Mon Sep 21 2020 16:55:05 GMT-1000 (Hawaii-Aleutian Standard Time)","Mozilla/5.0 (Windows NT 10.0; Win64; x64) AppleWebKit/537.36 (KHTML, like Gecko) Chrome/85.0.4183.102 Safari/537.36",30,"[0.9, 0.5, 0.1]","[0.8, 0.4, 0.2]","[u'black', u'blue', u'red']","[u'left', u'middle', u'right']","[0.9, 0.5, 0.1]","[u'high', u'low', u'medium']","black",49,"left","high","True","True",357,1950,NA
"AKX9W0NF71OI7","Mon Sep 21 2020 16:43:25 GMT-1000 (Hawaii-Aleutian Standard Time)","Mon Sep 21 2020 16:55:05 GMT-1000 (Hawaii-Aleutian Standard Time)","Mozilla/5.0 (Windows NT 10.0; Win64; x64) AppleWebKit/537.36 (KHTML, like Gecko) Chrome/85.0.4183.102 Safari/537.36",31,"[0.9, 0.5, 0.1]","[0.8, 0.4, 0.2]","[u'black', u'blue', u'red']","[u'left', u'middle', u'right']","[0.9, 0.5, 0.1]","[u'medium', u'high', u'low']","black",49,"left","medium","True","False",377,2050,NA
"AKX9W0NF71OI7","Mon Sep 21 2020 16:43:25 GMT-1000 (Hawaii-Aleutian Standard Time)","Mon Sep 21 2020 16:55:05 GMT-1000 (Hawaii-Aleutian Standard Time)","Mozilla/5.0 (Windows NT 10.0; Win64; x64) AppleWebKit/537.36 (KHTML, like Gecko) Chrome/85.0.4183.102 Safari/537.36",32,"[0.9, 0.5, 0.1]","[0.8, 0.4, 0.2]","[u'black', u'blue', u'red']","[u'left', u'middle', u'right']","[0.9, 0.5, 0.1]","[u'medium', u'high', u'low']","black",49,"left","medium","False","False",359,2000,NA
"AKX9W0NF71OI7","Mon Sep 21 2020 16:43:25 GMT-1000 (Hawaii-Aleutian Standard Time)","Mon Sep 21 2020 16:55:05 GMT-1000 (Hawaii-Aleutian Standard Time)","Mozilla/5.0 (Windows NT 10.0; Win64; x64) AppleWebKit/537.36 (KHTML, like Gecko) Chrome/85.0.4183.102 Safari/537.36",33,"[0.9, 0.5, 0.1]","[0.8, 0.4, 0.2]","[u'black', u'blue', u'red']","[u'left', u'middle', u'right']","[0.9, 0.5, 0.1]","[u'medium', u'high', u'low']","blue",50,"middle","high","False","False",357,1950,NA
"AKX9W0NF71OI7","Mon Sep 21 2020 16:43:25 GMT-1000 (Hawaii-Aleutian Standard Time)","Mon Sep 21 2020 16:55:05 GMT-1000 (Hawaii-Aleutian Standard Time)","Mozilla/5.0 (Windows NT 10.0; Win64; x64) AppleWebKit/537.36 (KHTML, like Gecko) Chrome/85.0.4183.102 Safari/537.36",34,"[0.9, 0.5, 0.1]","[0.8, 0.4, 0.2]","[u'black', u'blue', u'red']","[u'left', u'middle', u'right']","[0.9, 0.5, 0.1]","[u'medium', u'high', u'low']","red",51,"right","low","False","False",282,1900,NA
"AKX9W0NF71OI7","Mon Sep 21 2020 16:43:25 GMT-1000 (Hawaii-Aleutian Standard Time)","Mon Sep 21 2020 16:55:05 GMT-1000 (Hawaii-Aleutian Standard Time)","Mozilla/5.0 (Windows NT 10.0; Win64; x64) AppleWebKit/537.36 (KHTML, like Gecko) Chrome/85.0.4183.102 Safari/537.36",35,"[0.9, 0.5, 0.1]","[0.8, 0.4, 0.2]","[u'black', u'blue', u'red']","[u'left', u'middle', u'right']","[0.9, 0.5, 0.1]","[u'medium', u'high', u'low']","black",49,"left","medium","True","False",316,2000,NA
"AKX9W0NF71OI7","Mon Sep 21 2020 16:43:25 GMT-1000 (Hawaii-Aleutian Standard Time)","Mon Sep 21 2020 16:55:05 GMT-1000 (Hawaii-Aleutian Standard Time)","Mozilla/5.0 (Windows NT 10.0; Win64; x64) AppleWebKit/537.36 (KHTML, like Gecko) Chrome/85.0.4183.102 Safari/537.36",36,"[0.9, 0.5, 0.1]","[0.8, 0.4, 0.2]","[u'black', u'blue', u'red']","[u'left', u'middle', u'right']","[0.9, 0.5, 0.1]","[u'medium', u'high', u'low']","black",49,"left","medium","False","False",326,1950,NA
"AKX9W0NF71OI7","Mon Sep 21 2020 16:43:25 GMT-1000 (Hawaii-Aleutian Standard Time)","Mon Sep 21 2020 16:55:05 GMT-1000 (Hawaii-Aleutian Standard Time)","Mozilla/5.0 (Windows NT 10.0; Win64; x64) AppleWebKit/537.36 (KHTML, like Gecko) Chrome/85.0.4183.102 Safari/537.36",37,"[0.9, 0.5, 0.1]","[0.8, 0.4, 0.2]","[u'black', u'blue', u'red']","[u'left', u'middle', u'right']","[0.9, 0.5, 0.1]","[u'medium', u'high', u'low']","blue",50,"middle","high","True","False",306,2050,NA
"AKX9W0NF71OI7","Mon Sep 21 2020 16:43:25 GMT-1000 (Hawaii-Aleutian Standard Time)","Mon Sep 21 2020 16:55:05 GMT-1000 (Hawaii-Aleutian Standard Time)","Mozilla/5.0 (Windows NT 10.0; Win64; x64) AppleWebKit/537.36 (KHTML, like Gecko) Chrome/85.0.4183.102 Safari/537.36",38,"[0.9, 0.5, 0.1]","[0.8, 0.4, 0.2]","[u'black', u'blue', u'red']","[u'left', u'middle', u'right']","[0.9, 0.5, 0.1]","[u'medium', u'high', u'low']","blue",50,"middle","high","True","False",315,2150,NA
"AKX9W0NF71OI7","Mon Sep 21 2020 16:43:25 GMT-1000 (Hawaii-Aleutian Standard Time)","Mon Sep 21 2020 16:55:05 GMT-1000 (Hawaii-Aleutian Standard Time)","Mozilla/5.0 (Windows NT 10.0; Win64; x64) AppleWebKit/537.36 (KHTML, like Gecko) Chrome/85.0.4183.102 Safari/537.36",39,"[0.9, 0.5, 0.1]","[0.8, 0.4, 0.2]","[u'black', u'blue', u'red']","[u'left', u'middle', u'right']","[0.9, 0.5, 0.1]","[u'medium', u'high', u'low']","blue",50,"middle","high","True","False",373,2250,NA
"AKX9W0NF71OI7","Mon Sep 21 2020 16:43:25 GMT-1000 (Hawaii-Aleutian Standard Time)","Mon Sep 21 2020 16:55:05 GMT-1000 (Hawaii-Aleutian Standard Time)","Mozilla/5.0 (Windows NT 10.0; Win64; x64) AppleWebKit/537.36 (KHTML, like Gecko) Chrome/85.0.4183.102 Safari/537.36",40,"[0.9, 0.5, 0.1]","[0.8, 0.4, 0.2]","[u'black', u'blue', u'red']","[u'left', u'middle', u'right']","[0.9, 0.5, 0.1]","[u'medium', u'high', u'low']","blue",50,"middle","high","True","False",294,2350,NA
"AKX9W0NF71OI7","Mon Sep 21 2020 16:43:25 GMT-1000 (Hawaii-Aleutian Standard Time)","Mon Sep 21 2020 16:55:05 GMT-1000 (Hawaii-Aleutian Standard Time)","Mozilla/5.0 (Windows NT 10.0; Win64; x64) AppleWebKit/537.36 (KHTML, like Gecko) Chrome/85.0.4183.102 Safari/537.36",41,"[0.9, 0.5, 0.1]","[0.8, 0.4, 0.2]","[u'black', u'blue', u'red']","[u'left', u'middle', u'right']","[0.9, 0.5, 0.1]","[u'high', u'low', u'medium']","black",49,"left","high","True","False",1239,2450,NA
"AKX9W0NF71OI7","Mon Sep 21 2020 16:43:25 GMT-1000 (Hawaii-Aleutian Standard Time)","Mon Sep 21 2020 16:55:05 GMT-1000 (Hawaii-Aleutian Standard Time)","Mozilla/5.0 (Windows NT 10.0; Win64; x64) AppleWebKit/537.36 (KHTML, like Gecko) Chrome/85.0.4183.102 Safari/537.36",42,"[0.9, 0.5, 0.1]","[0.8, 0.4, 0.2]","[u'black', u'blue', u'red']","[u'left', u'middle', u'right']","[0.9, 0.5, 0.1]","[u'high', u'low', u'medium']","black",49,"left","high","True","False",361,2550,NA
"AKX9W0NF71OI7","Mon Sep 21 2020 16:43:25 GMT-1000 (Hawaii-Aleutian Standard Time)","Mon Sep 21 2020 16:55:05 GMT-1000 (Hawaii-Aleutian Standard Time)","Mozilla/5.0 (Windows NT 10.0; Win64; x64) AppleWebKit/537.36 (KHTML, like Gecko) Chrome/85.0.4183.102 Safari/537.36",43,"[0.9, 0.5, 0.1]","[0.8, 0.4, 0.2]","[u'black', u'blue', u'red']","[u'left', u'middle', u'right']","[0.9, 0.5, 0.1]","[u'high', u'low', u'medium']","black",49,"left","high","True","False",323,2650,NA
"AKX9W0NF71OI7","Mon Sep 21 2020 16:43:25 GMT-1000 (Hawaii-Aleutian Standard Time)","Mon Sep 21 2020 16:55:05 GMT-1000 (Hawaii-Aleutian Standard Time)","Mozilla/5.0 (Windows NT 10.0; Win64; x64) AppleWebKit/537.36 (KHTML, like Gecko) Chrome/85.0.4183.102 Safari/537.36",44,"[0.9, 0.5, 0.1]","[0.8, 0.4, 0.2]","[u'black', u'blue', u'red']","[u'left', u'middle', u'right']","[0.9, 0.5, 0.1]","[u'high', u'low', u'medium']","black",49,"left","high","True","False",315,2750,NA
"AKX9W0NF71OI7","Mon Sep 21 2020 16:43:25 GMT-1000 (Hawaii-Aleutian Standard Time)","Mon Sep 21 2020 16:55:05 GMT-1000 (Hawaii-Aleutian Standard Time)","Mozilla/5.0 (Windows NT 10.0; Win64; x64) AppleWebKit/537.36 (KHTML, like Gecko) Chrome/85.0.4183.102 Safari/537.36",45,"[0.9, 0.5, 0.1]","[0.8, 0.4, 0.2]","[u'black', u'blue', u'red']","[u'left', u'middle', u'right']","[0.9, 0.5, 0.1]","[u'high', u'low', u'medium']","black",49,"left","high","True","False",297,2850,NA
"AKX9W0NF71OI7","Mon Sep 21 2020 16:43:25 GMT-1000 (Hawaii-Aleutian Standard Time)","Mon Sep 21 2020 16:55:05 GMT-1000 (Hawaii-Aleutian Standard Time)","Mozilla/5.0 (Windows NT 10.0; Win64; x64) AppleWebKit/537.36 (KHTML, like Gecko) Chrome/85.0.4183.102 Safari/537.36",46,"[0.9, 0.5, 0.1]","[0.8, 0.4, 0.2]","[u'black', u'blue', u'red']","[u'left', u'middle', u'right']","[0.9, 0.5, 0.1]","[u'high', u'low', u'medium']","black",49,"left","high","True","False",147,2950,NA
"AKX9W0NF71OI7","Mon Sep 21 2020 16:43:25 GMT-1000 (Hawaii-Aleutian Standard Time)","Mon Sep 21 2020 16:55:05 GMT-1000 (Hawaii-Aleutian Standard Time)","Mozilla/5.0 (Windows NT 10.0; Win64; x64) AppleWebKit/537.36 (KHTML, like Gecko) Chrome/85.0.4183.102 Safari/537.36",47,"[0.9, 0.5, 0.1]","[0.8, 0.4, 0.2]","[u'black', u'blue', u'red']","[u'left', u'middle', u'right']","[0.9, 0.5, 0.1]","[u'high', u'low', u'medium']","black",49,"left","high","True","False",341,3050,NA
"AKX9W0NF71OI7","Mon Sep 21 2020 16:43:25 GMT-1000 (Hawaii-Aleutian Standard Time)","Mon Sep 21 2020 16:55:05 GMT-1000 (Hawaii-Aleutian Standard Time)","Mozilla/5.0 (Windows NT 10.0; Win64; x64) AppleWebKit/537.36 (KHTML, like Gecko) Chrome/85.0.4183.102 Safari/537.36",48,"[0.9, 0.5, 0.1]","[0.8, 0.4, 0.2]","[u'black', u'blue', u'red']","[u'left', u'middle', u'right']","[0.9, 0.5, 0.1]","[u'high', u'low', u'medium']","black",49,"left","high","True","False",344,3150,NA
"AKX9W0NF71OI7","Mon Sep 21 2020 16:43:25 GMT-1000 (Hawaii-Aleutian Standard Time)","Mon Sep 21 2020 16:55:05 GMT-1000 (Hawaii-Aleutian Standard Time)","Mozilla/5.0 (Windows NT 10.0; Win64; x64) AppleWebKit/537.36 (KHTML, like Gecko) Chrome/85.0.4183.102 Safari/537.36",49,"[0.9, 0.5, 0.1]","[0.8, 0.4, 0.2]","[u'black', u'blue', u'red']","[u'left', u'middle', u'right']","[0.9, 0.5, 0.1]","[u'high', u'low', u'medium']","black",49,"left","high","False","True",312,3100,NA
"AKX9W0NF71OI7","Mon Sep 21 2020 16:43:25 GMT-1000 (Hawaii-Aleutian Standard Time)","Mon Sep 21 2020 16:55:05 GMT-1000 (Hawaii-Aleutian Standard Time)","Mozilla/5.0 (Windows NT 10.0; Win64; x64) AppleWebKit/537.36 (KHTML, like Gecko) Chrome/85.0.4183.102 Safari/537.36",50,"[0.9, 0.5, 0.1]","[0.8, 0.4, 0.2]","[u'black', u'blue', u'red']","[u'left', u'middle', u'right']","[0.9, 0.5, 0.1]","[u'medium', u'high', u'low']","blue",50,"middle","high","True","False",104,3200,NA
"AKX9W0NF71OI7","Mon Sep 21 2020 16:43:25 GMT-1000 (Hawaii-Aleutian Standard Time)","Mon Sep 21 2020 16:55:05 GMT-1000 (Hawaii-Aleutian Standard Time)","Mozilla/5.0 (Windows NT 10.0; Win64; x64) AppleWebKit/537.36 (KHTML, like Gecko) Chrome/85.0.4183.102 Safari/537.36",51,"[0.9, 0.5, 0.1]","[0.8, 0.4, 0.2]","[u'black', u'blue', u'red']","[u'left', u'middle', u'right']","[0.9, 0.5, 0.1]","[u'medium', u'high', u'low']","blue",50,"middle","high","False","False",277,3150,NA
"AKX9W0NF71OI7","Mon Sep 21 2020 16:43:25 GMT-1000 (Hawaii-Aleutian Standard Time)","Mon Sep 21 2020 16:55:05 GMT-1000 (Hawaii-Aleutian Standard Time)","Mozilla/5.0 (Windows NT 10.0; Win64; x64) AppleWebKit/537.36 (KHTML, like Gecko) Chrome/85.0.4183.102 Safari/537.36",52,"[0.9, 0.5, 0.1]","[0.8, 0.4, 0.2]","[u'black', u'blue', u'red']","[u'left', u'middle', u'right']","[0.9, 0.5, 0.1]","[u'medium', u'high', u'low']","red",51,"right","low","False","False",95,3100,NA
"AKX9W0NF71OI7","Mon Sep 21 2020 16:43:25 GMT-1000 (Hawaii-Aleutian Standard Time)","Mon Sep 21 2020 16:55:05 GMT-1000 (Hawaii-Aleutian Standard Time)","Mozilla/5.0 (Windows NT 10.0; Win64; x64) AppleWebKit/537.36 (KHTML, like Gecko) Chrome/85.0.4183.102 Safari/537.36",53,"[0.9, 0.5, 0.1]","[0.8, 0.4, 0.2]","[u'black', u'blue', u'red']","[u'left', u'middle', u'right']","[0.9, 0.5, 0.1]","[u'medium', u'high', u'low']","black",49,"left","medium","True","False",251,3200,NA
"AKX9W0NF71OI7","Mon Sep 21 2020 16:43:25 GMT-1000 (Hawaii-Aleutian Standard Time)","Mon Sep 21 2020 16:55:05 GMT-1000 (Hawaii-Aleutian Standard Time)","Mozilla/5.0 (Windows NT 10.0; Win64; x64) AppleWebKit/537.36 (KHTML, like Gecko) Chrome/85.0.4183.102 Safari/537.36",54,"[0.9, 0.5, 0.1]","[0.8, 0.4, 0.2]","[u'black', u'blue', u'red']","[u'left', u'middle', u'right']","[0.9, 0.5, 0.1]","[u'medium', u'high', u'low']","black",49,"left","medium","False","False",589,3150,NA
"AKX9W0NF71OI7","Mon Sep 21 2020 16:43:25 GMT-1000 (Hawaii-Aleutian Standard Time)","Mon Sep 21 2020 16:55:05 GMT-1000 (Hawaii-Aleutian Standard Time)","Mozilla/5.0 (Windows NT 10.0; Win64; x64) AppleWebKit/537.36 (KHTML, like Gecko) Chrome/85.0.4183.102 Safari/537.36",55,"[0.9, 0.5, 0.1]","[0.8, 0.4, 0.2]","[u'black', u'blue', u'red']","[u'left', u'middle', u'right']","[0.9, 0.5, 0.1]","[u'medium', u'high', u'low']","black",49,"left","medium","True","False",326,3250,NA
"AKX9W0NF71OI7","Mon Sep 21 2020 16:43:25 GMT-1000 (Hawaii-Aleutian Standard Time)","Mon Sep 21 2020 16:55:05 GMT-1000 (Hawaii-Aleutian Standard Time)","Mozilla/5.0 (Windows NT 10.0; Win64; x64) AppleWebKit/537.36 (KHTML, like Gecko) Chrome/85.0.4183.102 Safari/537.36",56,"[0.9, 0.5, 0.1]","[0.8, 0.4, 0.2]","[u'black', u'blue', u'red']","[u'left', u'middle', u'right']","[0.9, 0.5, 0.1]","[u'medium', u'high', u'low']","black",49,"left","medium","True","False",375,3350,NA
"AKX9W0NF71OI7","Mon Sep 21 2020 16:43:25 GMT-1000 (Hawaii-Aleutian Standard Time)","Mon Sep 21 2020 16:55:05 GMT-1000 (Hawaii-Aleutian Standard Time)","Mozilla/5.0 (Windows NT 10.0; Win64; x64) AppleWebKit/537.36 (KHTML, like Gecko) Chrome/85.0.4183.102 Safari/537.36",57,"[0.9, 0.5, 0.1]","[0.8, 0.4, 0.2]","[u'black', u'blue', u'red']","[u'left', u'middle', u'right']","[0.9, 0.5, 0.1]","[u'medium', u'high', u'low']","black",49,"left","medium","False","False",324,3300,NA
"AKX9W0NF71OI7","Mon Sep 21 2020 16:43:25 GMT-1000 (Hawaii-Aleutian Standard Time)","Mon Sep 21 2020 16:55:05 GMT-1000 (Hawaii-Aleutian Standard Time)","Mozilla/5.0 (Windows NT 10.0; Win64; x64) AppleWebKit/537.36 (KHTML, like Gecko) Chrome/85.0.4183.102 Safari/537.36",58,"[0.9, 0.5, 0.1]","[0.8, 0.4, 0.2]","[u'black', u'blue', u'red']","[u'left', u'middle', u'right']","[0.9, 0.5, 0.1]","[u'medium', u'high', u'low']","black",49,"left","medium","True","False",345,3400,NA
"AKX9W0NF71OI7","Mon Sep 21 2020 16:43:25 GMT-1000 (Hawaii-Aleutian Standard Time)","Mon Sep 21 2020 16:55:05 GMT-1000 (Hawaii-Aleutian Standard Time)","Mozilla/5.0 (Windows NT 10.0; Win64; x64) AppleWebKit/537.36 (KHTML, like Gecko) Chrome/85.0.4183.102 Safari/537.36",59,"[0.9, 0.5, 0.1]","[0.8, 0.4, 0.2]","[u'black', u'blue', u'red']","[u'left', u'middle', u'right']","[0.9, 0.5, 0.1]","[u'medium', u'high', u'low']","black",49,"left","medium","True","False",388,3500,NA
"AKX9W0NF71OI7","Mon Sep 21 2020 16:43:25 GMT-1000 (Hawaii-Aleutian Standard Time)","Mon Sep 21 2020 16:55:05 GMT-1000 (Hawaii-Aleutian Standard Time)","Mozilla/5.0 (Windows NT 10.0; Win64; x64) AppleWebKit/537.36 (KHTML, like Gecko) Chrome/85.0.4183.102 Safari/537.36",60,"[0.9, 0.5, 0.1]","[0.8, 0.4, 0.2]","[u'black', u'blue', u'red']","[u'left', u'middle', u'right']","[0.9, 0.5, 0.1]","[u'medium', u'high', u'low']","black",49,"left","medium","False","False",325,3450,NA
"AKX9W0NF71OI7","Mon Sep 21 2020 16:43:25 GMT-1000 (Hawaii-Aleutian Standard Time)","Mon Sep 21 2020 16:55:05 GMT-1000 (Hawaii-Aleutian Standard Time)","Mozilla/5.0 (Windows NT 10.0; Win64; x64) AppleWebKit/537.36 (KHTML, like Gecko) Chrome/85.0.4183.102 Safari/537.36",61,"[0.9, 0.5, 0.1]","[0.8, 0.4, 0.2]","[u'black', u'blue', u'red']","[u'left', u'middle', u'right']","[0.9, 0.5, 0.1]","[u'medium', u'high', u'low']","blue",50,"middle","high","True","False",355,3550,NA
"AKX9W0NF71OI7","Mon Sep 21 2020 16:43:25 GMT-1000 (Hawaii-Aleutian Standard Time)","Mon Sep 21 2020 16:55:05 GMT-1000 (Hawaii-Aleutian Standard Time)","Mozilla/5.0 (Windows NT 10.0; Win64; x64) AppleWebKit/537.36 (KHTML, like Gecko) Chrome/85.0.4183.102 Safari/537.36",62,"[0.9, 0.5, 0.1]","[0.8, 0.4, 0.2]","[u'black', u'blue', u'red']","[u'left', u'middle', u'right']","[0.9, 0.5, 0.1]","[u'medium', u'high', u'low']","black",49,"left","medium","False","False",449,3500,NA
"AKX9W0NF71OI7","Mon Sep 21 2020 16:43:25 GMT-1000 (Hawaii-Aleutian Standard Time)","Mon Sep 21 2020 16:55:05 GMT-1000 (Hawaii-Aleutian Standard Time)","Mozilla/5.0 (Windows NT 10.0; Win64; x64) AppleWebKit/537.36 (KHTML, like Gecko) Chrome/85.0.4183.102 Safari/537.36",63,"[0.9, 0.5, 0.1]","[0.8, 0.4, 0.2]","[u'black', u'blue', u'red']","[u'left', u'middle', u'right']","[0.9, 0.5, 0.1]","[u'medium', u'high', u'low']","blue",50,"middle","high","True","False",414,3600,NA
"AKX9W0NF71OI7","Mon Sep 21 2020 16:43:25 GMT-1000 (Hawaii-Aleutian Standard Time)","Mon Sep 21 2020 16:55:05 GMT-1000 (Hawaii-Aleutian Standard Time)","Mozilla/5.0 (Windows NT 10.0; Win64; x64) AppleWebKit/537.36 (KHTML, like Gecko) Chrome/85.0.4183.102 Safari/537.36",64,"[0.9, 0.5, 0.1]","[0.8, 0.4, 0.2]","[u'black', u'blue', u'red']","[u'left', u'middle', u'right']","[0.9, 0.5, 0.1]","[u'medium', u'high', u'low']","blue",50,"middle","high","True","False",284,3700,NA
"AKX9W0NF71OI7","Mon Sep 21 2020 16:43:25 GMT-1000 (Hawaii-Aleutian Standard Time)","Mon Sep 21 2020 16:55:05 GMT-1000 (Hawaii-Aleutian Standard Time)","Mozilla/5.0 (Windows NT 10.0; Win64; x64) AppleWebKit/537.36 (KHTML, like Gecko) Chrome/85.0.4183.102 Safari/537.36",65,"[0.9, 0.5, 0.1]","[0.8, 0.4, 0.2]","[u'black', u'blue', u'red']","[u'left', u'middle', u'right']","[0.9, 0.5, 0.1]","[u'medium', u'high', u'low']","blue",50,"middle","high","True","False",323,3800,NA
"AKX9W0NF71OI7","Mon Sep 21 2020 16:43:25 GMT-1000 (Hawaii-Aleutian Standard Time)","Mon Sep 21 2020 16:55:05 GMT-1000 (Hawaii-Aleutian Standard Time)","Mozilla/5.0 (Windows NT 10.0; Win64; x64) AppleWebKit/537.36 (KHTML, like Gecko) Chrome/85.0.4183.102 Safari/537.36",66,"[0.9, 0.5, 0.1]","[0.8, 0.4, 0.2]","[u'black', u'blue', u'red']","[u'left', u'middle', u'right']","[0.9, 0.5, 0.1]","[u'medium', u'high', u'low']","blue",50,"middle","high","True","False",327,3900,NA
"AKX9W0NF71OI7","Mon Sep 21 2020 16:43:25 GMT-1000 (Hawaii-Aleutian Standard Time)","Mon Sep 21 2020 16:55:05 GMT-1000 (Hawaii-Aleutian Standard Time)","Mozilla/5.0 (Windows NT 10.0; Win64; x64) AppleWebKit/537.36 (KHTML, like Gecko) Chrome/85.0.4183.102 Safari/537.36",67,"[0.9, 0.5, 0.1]","[0.8, 0.4, 0.2]","[u'black', u'blue', u'red']","[u'left', u'middle', u'right']","[0.9, 0.5, 0.1]","[u'medium', u'high', u'low']","blue",50,"middle","high","True","False",374,4000,NA
"AKX9W0NF71OI7","Mon Sep 21 2020 16:43:25 GMT-1000 (Hawaii-Aleutian Standard Time)","Mon Sep 21 2020 16:55:05 GMT-1000 (Hawaii-Aleutian Standard Time)","Mozilla/5.0 (Windows NT 10.0; Win64; x64) AppleWebKit/537.36 (KHTML, like Gecko) Chrome/85.0.4183.102 Safari/537.36",68,"[0.9, 0.5, 0.1]","[0.8, 0.4, 0.2]","[u'black', u'blue', u'red']","[u'left', u'middle', u'right']","[0.9, 0.5, 0.1]","[u'medium', u'high', u'low']","blue",50,"middle","high","True","False",643,4100,NA
"AKX9W0NF71OI7","Mon Sep 21 2020 16:43:25 GMT-1000 (Hawaii-Aleutian Standard Time)","Mon Sep 21 2020 16:55:05 GMT-1000 (Hawaii-Aleutian Standard Time)","Mozilla/5.0 (Windows NT 10.0; Win64; x64) AppleWebKit/537.36 (KHTML, like Gecko) Chrome/85.0.4183.102 Safari/537.36",69,"[0.9, 0.5, 0.1]","[0.8, 0.4, 0.2]","[u'black', u'blue', u'red']","[u'left', u'middle', u'right']","[0.9, 0.5, 0.1]","[u'medium', u'high', u'low']","blue",50,"middle","high","True","False",1079,4200,NA
"AKX9W0NF71OI7","Mon Sep 21 2020 16:43:25 GMT-1000 (Hawaii-Aleutian Standard Time)","Mon Sep 21 2020 16:55:05 GMT-1000 (Hawaii-Aleutian Standard Time)","Mozilla/5.0 (Windows NT 10.0; Win64; x64) AppleWebKit/537.36 (KHTML, like Gecko) Chrome/85.0.4183.102 Safari/537.36",70,"[0.9, 0.5, 0.1]","[0.8, 0.4, 0.2]","[u'black', u'blue', u'red']","[u'left', u'middle', u'right']","[0.9, 0.5, 0.1]","[u'medium', u'high', u'low']","blue",50,"middle","high","True","True",275,4300,NA
"AKX9W0NF71OI7","Mon Sep 21 2020 16:43:25 GMT-1000 (Hawaii-Aleutian Standard Time)","Mon Sep 21 2020 16:55:05 GMT-1000 (Hawaii-Aleutian Standard Time)","Mozilla/5.0 (Windows NT 10.0; Win64; x64) AppleWebKit/537.36 (KHTML, like Gecko) Chrome/85.0.4183.102 Safari/537.36",71,"[0.9, 0.5, 0.1]","[0.8, 0.4, 0.2]","[u'black', u'blue', u'red']","[u'left', u'middle', u'right']","[0.9, 0.5, 0.1]","[u'high', u'medium', u'low']","blue",50,"middle","medium","True","False",408,4400,NA
"AKX9W0NF71OI7","Mon Sep 21 2020 16:43:25 GMT-1000 (Hawaii-Aleutian Standard Time)","Mon Sep 21 2020 16:55:05 GMT-1000 (Hawaii-Aleutian Standard Time)","Mozilla/5.0 (Windows NT 10.0; Win64; x64) AppleWebKit/537.36 (KHTML, like Gecko) Chrome/85.0.4183.102 Safari/537.36",72,"[0.9, 0.5, 0.1]","[0.8, 0.4, 0.2]","[u'black', u'blue', u'red']","[u'left', u'middle', u'right']","[0.9, 0.5, 0.1]","[u'high', u'medium', u'low']","blue",50,"middle","medium","True","False",60,4500,NA
"AKX9W0NF71OI7","Mon Sep 21 2020 16:43:25 GMT-1000 (Hawaii-Aleutian Standard Time)","Mon Sep 21 2020 16:55:05 GMT-1000 (Hawaii-Aleutian Standard Time)","Mozilla/5.0 (Windows NT 10.0; Win64; x64) AppleWebKit/537.36 (KHTML, like Gecko) Chrome/85.0.4183.102 Safari/537.36",73,"[0.9, 0.5, 0.1]","[0.8, 0.4, 0.2]","[u'black', u'blue', u'red']","[u'left', u'middle', u'right']","[0.9, 0.5, 0.1]","[u'high', u'medium', u'low']","blue",50,"middle","medium","True","False",329,4600,NA
"AKX9W0NF71OI7","Mon Sep 21 2020 16:43:25 GMT-1000 (Hawaii-Aleutian Standard Time)","Mon Sep 21 2020 16:55:05 GMT-1000 (Hawaii-Aleutian Standard Time)","Mozilla/5.0 (Windows NT 10.0; Win64; x64) AppleWebKit/537.36 (KHTML, like Gecko) Chrome/85.0.4183.102 Safari/537.36",74,"[0.9, 0.5, 0.1]","[0.8, 0.4, 0.2]","[u'black', u'blue', u'red']","[u'left', u'middle', u'right']","[0.9, 0.5, 0.1]","[u'high', u'medium', u'low']","blue",50,"middle","medium","False","False",238,4550,NA
"AKX9W0NF71OI7","Mon Sep 21 2020 16:43:25 GMT-1000 (Hawaii-Aleutian Standard Time)","Mon Sep 21 2020 16:55:05 GMT-1000 (Hawaii-Aleutian Standard Time)","Mozilla/5.0 (Windows NT 10.0; Win64; x64) AppleWebKit/537.36 (KHTML, like Gecko) Chrome/85.0.4183.102 Safari/537.36",75,"[0.9, 0.5, 0.1]","[0.8, 0.4, 0.2]","[u'black', u'blue', u'red']","[u'left', u'middle', u'right']","[0.9, 0.5, 0.1]","[u'high', u'medium', u'low']","black",49,"left","high","False","False",639,4500,NA
"AKX9W0NF71OI7","Mon Sep 21 2020 16:43:25 GMT-1000 (Hawaii-Aleutian Standard Time)","Mon Sep 21 2020 16:55:05 GMT-1000 (Hawaii-Aleutian Standard Time)","Mozilla/5.0 (Windows NT 10.0; Win64; x64) AppleWebKit/537.36 (KHTML, like Gecko) Chrome/85.0.4183.102 Safari/537.36",76,"[0.9, 0.5, 0.1]","[0.8, 0.4, 0.2]","[u'black', u'blue', u'red']","[u'left', u'middle', u'right']","[0.9, 0.5, 0.1]","[u'high', u'medium', u'low']","red",51,"right","low","False","False",337,4450,NA
"AKX9W0NF71OI7","Mon Sep 21 2020 16:43:25 GMT-1000 (Hawaii-Aleutian Standard Time)","Mon Sep 21 2020 16:55:05 GMT-1000 (Hawaii-Aleutian Standard Time)","Mozilla/5.0 (Windows NT 10.0; Win64; x64) AppleWebKit/537.36 (KHTML, like Gecko) Chrome/85.0.4183.102 Safari/537.36",77,"[0.9, 0.5, 0.1]","[0.8, 0.4, 0.2]","[u'black', u'blue', u'red']","[u'left', u'middle', u'right']","[0.9, 0.5, 0.1]","[u'high', u'medium', u'low']","blue",50,"middle","medium","False","False",550,4400,NA
"AKX9W0NF71OI7","Mon Sep 21 2020 16:43:25 GMT-1000 (Hawaii-Aleutian Standard Time)","Mon Sep 21 2020 16:55:05 GMT-1000 (Hawaii-Aleutian Standard Time)","Mozilla/5.0 (Windows NT 10.0; Win64; x64) AppleWebKit/537.36 (KHTML, like Gecko) Chrome/85.0.4183.102 Safari/537.36",78,"[0.9, 0.5, 0.1]","[0.8, 0.4, 0.2]","[u'black', u'blue', u'red']","[u'left', u'middle', u'right']","[0.9, 0.5, 0.1]","[u'high', u'medium', u'low']","black",49,"left","high","True","False",97,4500,NA
"AKX9W0NF71OI7","Mon Sep 21 2020 16:43:25 GMT-1000 (Hawaii-Aleutian Standard Time)","Mon Sep 21 2020 16:55:05 GMT-1000 (Hawaii-Aleutian Standard Time)","Mozilla/5.0 (Windows NT 10.0; Win64; x64) AppleWebKit/537.36 (KHTML, like Gecko) Chrome/85.0.4183.102 Safari/537.36",79,"[0.9, 0.5, 0.1]","[0.8, 0.4, 0.2]","[u'black', u'blue', u'red']","[u'left', u'middle', u'right']","[0.9, 0.5, 0.1]","[u'high', u'medium', u'low']","black",49,"left","high","True","False",433,4600,NA
"AKX9W0NF71OI7","Mon Sep 21 2020 16:43:25 GMT-1000 (Hawaii-Aleutian Standard Time)","Mon Sep 21 2020 16:55:05 GMT-1000 (Hawaii-Aleutian Standard Time)","Mozilla/5.0 (Windows NT 10.0; Win64; x64) AppleWebKit/537.36 (KHTML, like Gecko) Chrome/85.0.4183.102 Safari/537.36",80,"[0.9, 0.5, 0.1]","[0.8, 0.4, 0.2]","[u'black', u'blue', u'red']","[u'left', u'middle', u'right']","[0.9, 0.5, 0.1]","[u'high', u'medium', u'low']","black",49,"left","high","True","False",284,4700,NA
"AKX9W0NF71OI7","Mon Sep 21 2020 16:43:25 GMT-1000 (Hawaii-Aleutian Standard Time)","Mon Sep 21 2020 16:55:05 GMT-1000 (Hawaii-Aleutian Standard Time)","Mozilla/5.0 (Windows NT 10.0; Win64; x64) AppleWebKit/537.36 (KHTML, like Gecko) Chrome/85.0.4183.102 Safari/537.36",81,"[0.9, 0.5, 0.1]","[0.8, 0.4, 0.2]","[u'black', u'blue', u'red']","[u'left', u'middle', u'right']","[0.8, 0.4, 0.2]","[u'low', u'medium', u'high']","black",49,"left","low","False","False",969,4650,NA
"AKX9W0NF71OI7","Mon Sep 21 2020 16:43:25 GMT-1000 (Hawaii-Aleutian Standard Time)","Mon Sep 21 2020 16:55:05 GMT-1000 (Hawaii-Aleutian Standard Time)","Mozilla/5.0 (Windows NT 10.0; Win64; x64) AppleWebKit/537.36 (KHTML, like Gecko) Chrome/85.0.4183.102 Safari/537.36",82,"[0.9, 0.5, 0.1]","[0.8, 0.4, 0.2]","[u'black', u'blue', u'red']","[u'left', u'middle', u'right']","[0.8, 0.4, 0.2]","[u'low', u'medium', u'high']","blue",50,"middle","medium","True","False",624,4750,NA
"AKX9W0NF71OI7","Mon Sep 21 2020 16:43:25 GMT-1000 (Hawaii-Aleutian Standard Time)","Mon Sep 21 2020 16:55:05 GMT-1000 (Hawaii-Aleutian Standard Time)","Mozilla/5.0 (Windows NT 10.0; Win64; x64) AppleWebKit/537.36 (KHTML, like Gecko) Chrome/85.0.4183.102 Safari/537.36",83,"[0.9, 0.5, 0.1]","[0.8, 0.4, 0.2]","[u'black', u'blue', u'red']","[u'left', u'middle', u'right']","[0.8, 0.4, 0.2]","[u'low', u'medium', u'high']","blue",50,"middle","medium","False","False",609,4700,NA
"AKX9W0NF71OI7","Mon Sep 21 2020 16:43:25 GMT-1000 (Hawaii-Aleutian Standard Time)","Mon Sep 21 2020 16:55:05 GMT-1000 (Hawaii-Aleutian Standard Time)","Mozilla/5.0 (Windows NT 10.0; Win64; x64) AppleWebKit/537.36 (KHTML, like Gecko) Chrome/85.0.4183.102 Safari/537.36",84,"[0.9, 0.5, 0.1]","[0.8, 0.4, 0.2]","[u'black', u'blue', u'red']","[u'left', u'middle', u'right']","[0.8, 0.4, 0.2]","[u'low', u'medium', u'high']","red",51,"right","high","True","False",347,4800,NA
"AKX9W0NF71OI7","Mon Sep 21 2020 16:43:25 GMT-1000 (Hawaii-Aleutian Standard Time)","Mon Sep 21 2020 16:55:05 GMT-1000 (Hawaii-Aleutian Standard Time)","Mozilla/5.0 (Windows NT 10.0; Win64; x64) AppleWebKit/537.36 (KHTML, like Gecko) Chrome/85.0.4183.102 Safari/537.36",85,"[0.9, 0.5, 0.1]","[0.8, 0.4, 0.2]","[u'black', u'blue', u'red']","[u'left', u'middle', u'right']","[0.8, 0.4, 0.2]","[u'low', u'medium', u'high']","red",51,"right","high","True","False",361,4900,NA
"AKX9W0NF71OI7","Mon Sep 21 2020 16:43:25 GMT-1000 (Hawaii-Aleutian Standard Time)","Mon Sep 21 2020 16:55:05 GMT-1000 (Hawaii-Aleutian Standard Time)","Mozilla/5.0 (Windows NT 10.0; Win64; x64) AppleWebKit/537.36 (KHTML, like Gecko) Chrome/85.0.4183.102 Safari/537.36",86,"[0.9, 0.5, 0.1]","[0.8, 0.4, 0.2]","[u'black', u'blue', u'red']","[u'left', u'middle', u'right']","[0.8, 0.4, 0.2]","[u'low', u'medium', u'high']","red",51,"right","high","True","False",299,5000,NA
"AKX9W0NF71OI7","Mon Sep 21 2020 16:43:25 GMT-1000 (Hawaii-Aleutian Standard Time)","Mon Sep 21 2020 16:55:05 GMT-1000 (Hawaii-Aleutian Standard Time)","Mozilla/5.0 (Windows NT 10.0; Win64; x64) AppleWebKit/537.36 (KHTML, like Gecko) Chrome/85.0.4183.102 Safari/537.36",87,"[0.9, 0.5, 0.1]","[0.8, 0.4, 0.2]","[u'black', u'blue', u'red']","[u'left', u'middle', u'right']","[0.8, 0.4, 0.2]","[u'low', u'medium', u'high']","red",51,"right","high","True","False",478,5100,NA
"AKX9W0NF71OI7","Mon Sep 21 2020 16:43:25 GMT-1000 (Hawaii-Aleutian Standard Time)","Mon Sep 21 2020 16:55:05 GMT-1000 (Hawaii-Aleutian Standard Time)","Mozilla/5.0 (Windows NT 10.0; Win64; x64) AppleWebKit/537.36 (KHTML, like Gecko) Chrome/85.0.4183.102 Safari/537.36",88,"[0.9, 0.5, 0.1]","[0.8, 0.4, 0.2]","[u'black', u'blue', u'red']","[u'left', u'middle', u'right']","[0.8, 0.4, 0.2]","[u'low', u'medium', u'high']","red",51,"right","high","True","False",388,5200,NA
"AKX9W0NF71OI7","Mon Sep 21 2020 16:43:25 GMT-1000 (Hawaii-Aleutian Standard Time)","Mon Sep 21 2020 16:55:05 GMT-1000 (Hawaii-Aleutian Standard Time)","Mozilla/5.0 (Windows NT 10.0; Win64; x64) AppleWebKit/537.36 (KHTML, like Gecko) Chrome/85.0.4183.102 Safari/537.36",89,"[0.9, 0.5, 0.1]","[0.8, 0.4, 0.2]","[u'black', u'blue', u'red']","[u'left', u'middle', u'right']","[0.8, 0.4, 0.2]","[u'low', u'medium', u'high']","red",51,"right","high","True","False",403,5300,NA
"AKX9W0NF71OI7","Mon Sep 21 2020 16:43:25 GMT-1000 (Hawaii-Aleutian Standard Time)","Mon Sep 21 2020 16:55:05 GMT-1000 (Hawaii-Aleutian Standard Time)","Mozilla/5.0 (Windows NT 10.0; Win64; x64) AppleWebKit/537.36 (KHTML, like Gecko) Chrome/85.0.4183.102 Safari/537.36",90,"[0.9, 0.5, 0.1]","[0.8, 0.4, 0.2]","[u'black', u'blue', u'red']","[u'left', u'middle', u'right']","[0.8, 0.4, 0.2]","[u'low', u'medium', u'high']","red",51,"right","high","True","False",370,5400,NA
"AKX9W0NF71OI7","Mon Sep 21 2020 16:43:25 GMT-1000 (Hawaii-Aleutian Standard Time)","Mon Sep 21 2020 16:55:05 GMT-1000 (Hawaii-Aleutian Standard Time)","Mozilla/5.0 (Windows NT 10.0; Win64; x64) AppleWebKit/537.36 (KHTML, like Gecko) Chrome/85.0.4183.102 Safari/537.36",91,"[0.9, 0.5, 0.1]","[0.8, 0.4, 0.2]","[u'black', u'blue', u'red']","[u'left', u'middle', u'right']","[0.8, 0.4, 0.2]","[u'low', u'medium', u'high']","red",51,"right","high","True","False",313,5500,NA
"AKX9W0NF71OI7","Mon Sep 21 2020 16:43:25 GMT-1000 (Hawaii-Aleutian Standard Time)","Mon Sep 21 2020 16:55:05 GMT-1000 (Hawaii-Aleutian Standard Time)","Mozilla/5.0 (Windows NT 10.0; Win64; x64) AppleWebKit/537.36 (KHTML, like Gecko) Chrome/85.0.4183.102 Safari/537.36",92,"[0.9, 0.5, 0.1]","[0.8, 0.4, 0.2]","[u'black', u'blue', u'red']","[u'left', u'middle', u'right']","[0.8, 0.4, 0.2]","[u'low', u'medium', u'high']","red",51,"right","high","True","True",500,5600,NA
"AKX9W0NF71OI7","Mon Sep 21 2020 16:43:25 GMT-1000 (Hawaii-Aleutian Standard Time)","Mon Sep 21 2020 16:55:05 GMT-1000 (Hawaii-Aleutian Standard Time)","Mozilla/5.0 (Windows NT 10.0; Win64; x64) AppleWebKit/537.36 (KHTML, like Gecko) Chrome/85.0.4183.102 Safari/537.36",93,"[0.9, 0.5, 0.1]","[0.8, 0.4, 0.2]","[u'black', u'blue', u'red']","[u'left', u'middle', u'right']","[0.8, 0.4, 0.2]","[u'high', u'low', u'medium']","red",51,"right","medium","True","False",351,5700,NA
"AKX9W0NF71OI7","Mon Sep 21 2020 16:43:25 GMT-1000 (Hawaii-Aleutian Standard Time)","Mon Sep 21 2020 16:55:05 GMT-1000 (Hawaii-Aleutian Standard Time)","Mozilla/5.0 (Windows NT 10.0; Win64; x64) AppleWebKit/537.36 (KHTML, like Gecko) Chrome/85.0.4183.102 Safari/537.36",94,"[0.9, 0.5, 0.1]","[0.8, 0.4, 0.2]","[u'black', u'blue', u'red']","[u'left', u'middle', u'right']","[0.8, 0.4, 0.2]","[u'high', u'low', u'medium']","red",51,"right","medium","False","False",318,5650,NA
"AKX9W0NF71OI7","Mon Sep 21 2020 16:43:25 GMT-1000 (Hawaii-Aleutian Standard Time)","Mon Sep 21 2020 16:55:05 GMT-1000 (Hawaii-Aleutian Standard Time)","Mozilla/5.0 (Windows NT 10.0; Win64; x64) AppleWebKit/537.36 (KHTML, like Gecko) Chrome/85.0.4183.102 Safari/537.36",95,"[0.9, 0.5, 0.1]","[0.8, 0.4, 0.2]","[u'black', u'blue', u'red']","[u'left', u'middle', u'right']","[0.8, 0.4, 0.2]","[u'high', u'low', u'medium']","red",51,"right","medium","False","False",332,5600,NA
"AKX9W0NF71OI7","Mon Sep 21 2020 16:43:25 GMT-1000 (Hawaii-Aleutian Standard Time)","Mon Sep 21 2020 16:55:05 GMT-1000 (Hawaii-Aleutian Standard Time)","Mozilla/5.0 (Windows NT 10.0; Win64; x64) AppleWebKit/537.36 (KHTML, like Gecko) Chrome/85.0.4183.102 Safari/537.36",96,"[0.9, 0.5, 0.1]","[0.8, 0.4, 0.2]","[u'black', u'blue', u'red']","[u'left', u'middle', u'right']","[0.8, 0.4, 0.2]","[u'high', u'low', u'medium']","blue",50,"middle","low","False","False",466,5550,NA
"AKX9W0NF71OI7","Mon Sep 21 2020 16:43:25 GMT-1000 (Hawaii-Aleutian Standard Time)","Mon Sep 21 2020 16:55:05 GMT-1000 (Hawaii-Aleutian Standard Time)","Mozilla/5.0 (Windows NT 10.0; Win64; x64) AppleWebKit/537.36 (KHTML, like Gecko) Chrome/85.0.4183.102 Safari/537.36",97,"[0.9, 0.5, 0.1]","[0.8, 0.4, 0.2]","[u'black', u'blue', u'red']","[u'left', u'middle', u'right']","[0.8, 0.4, 0.2]","[u'high', u'low', u'medium']","black",49,"left","high","True","False",275,5650,NA
"AKX9W0NF71OI7","Mon Sep 21 2020 16:43:25 GMT-1000 (Hawaii-Aleutian Standard Time)","Mon Sep 21 2020 16:55:05 GMT-1000 (Hawaii-Aleutian Standard Time)","Mozilla/5.0 (Windows NT 10.0; Win64; x64) AppleWebKit/537.36 (KHTML, like Gecko) Chrome/85.0.4183.102 Safari/537.36",98,"[0.9, 0.5, 0.1]","[0.8, 0.4, 0.2]","[u'black', u'blue', u'red']","[u'left', u'middle', u'right']","[0.8, 0.4, 0.2]","[u'high', u'low', u'medium']","black",49,"left","high","True","False",447,5750,NA
"AKX9W0NF71OI7","Mon Sep 21 2020 16:43:25 GMT-1000 (Hawaii-Aleutian Standard Time)","Mon Sep 21 2020 16:55:05 GMT-1000 (Hawaii-Aleutian Standard Time)","Mozilla/5.0 (Windows NT 10.0; Win64; x64) AppleWebKit/537.36 (KHTML, like Gecko) Chrome/85.0.4183.102 Safari/537.36",99,"[0.9, 0.5, 0.1]","[0.8, 0.4, 0.2]","[u'black', u'blue', u'red']","[u'left', u'middle', u'right']","[0.8, 0.4, 0.2]","[u'high', u'low', u'medium']","black",49,"left","high","True","False",346,5850,NA
"AKX9W0NF71OI7","Mon Sep 21 2020 16:43:25 GMT-1000 (Hawaii-Aleutian Standard Time)","Mon Sep 21 2020 16:55:05 GMT-1000 (Hawaii-Aleutian Standard Time)","Mozilla/5.0 (Windows NT 10.0; Win64; x64) AppleWebKit/537.36 (KHTML, like Gecko) Chrome/85.0.4183.102 Safari/537.36",100,"[0.9, 0.5, 0.1]","[0.8, 0.4, 0.2]","[u'black', u'blue', u'red']","[u'left', u'middle', u'right']","[0.8, 0.4, 0.2]","[u'high', u'low', u'medium']","black",49,"left","high","True","False",434,5950,NA
"AKX9W0NF71OI7","Mon Sep 21 2020 16:43:25 GMT-1000 (Hawaii-Aleutian Standard Time)","Mon Sep 21 2020 16:55:05 GMT-1000 (Hawaii-Aleutian Standard Time)","Mozilla/5.0 (Windows NT 10.0; Win64; x64) AppleWebKit/537.36 (KHTML, like Gecko) Chrome/85.0.4183.102 Safari/537.36",101,"[0.9, 0.5, 0.1]","[0.8, 0.4, 0.2]","[u'black', u'blue', u'red']","[u'left', u'middle', u'right']","[0.8, 0.4, 0.2]","[u'high', u'low', u'medium']","black",49,"left","high","False","False",1729,5900,NA
"AKX9W0NF71OI7","Mon Sep 21 2020 16:43:25 GMT-1000 (Hawaii-Aleutian Standard Time)","Mon Sep 21 2020 16:55:05 GMT-1000 (Hawaii-Aleutian Standard Time)","Mozilla/5.0 (Windows NT 10.0; Win64; x64) AppleWebKit/537.36 (KHTML, like Gecko) Chrome/85.0.4183.102 Safari/537.36",102,"[0.9, 0.5, 0.1]","[0.8, 0.4, 0.2]","[u'black', u'blue', u'red']","[u'left', u'middle', u'right']","[0.8, 0.4, 0.2]","[u'high', u'low', u'medium']","blue",50,"middle","low","False","False",356,5850,NA
"AKX9W0NF71OI7","Mon Sep 21 2020 16:43:25 GMT-1000 (Hawaii-Aleutian Standard Time)","Mon Sep 21 2020 16:55:05 GMT-1000 (Hawaii-Aleutian Standard Time)","Mozilla/5.0 (Windows NT 10.0; Win64; x64) AppleWebKit/537.36 (KHTML, like Gecko) Chrome/85.0.4183.102 Safari/537.36",103,"[0.9, 0.5, 0.1]","[0.8, 0.4, 0.2]","[u'black', u'blue', u'red']","[u'left', u'middle', u'right']","[0.8, 0.4, 0.2]","[u'high', u'low', u'medium']","red",51,"right","medium","False","False",360,5800,NA
"AKX9W0NF71OI7","Mon Sep 21 2020 16:43:25 GMT-1000 (Hawaii-Aleutian Standard Time)","Mon Sep 21 2020 16:55:05 GMT-1000 (Hawaii-Aleutian Standard Time)","Mozilla/5.0 (Windows NT 10.0; Win64; x64) AppleWebKit/537.36 (KHTML, like Gecko) Chrome/85.0.4183.102 Safari/537.36",104,"[0.9, 0.5, 0.1]","[0.8, 0.4, 0.2]","[u'black', u'blue', u'red']","[u'left', u'middle', u'right']","[0.8, 0.4, 0.2]","[u'high', u'low', u'medium']","black",49,"left","high","True","False",419,5900,NA
"AKX9W0NF71OI7","Mon Sep 21 2020 16:43:25 GMT-1000 (Hawaii-Aleutian Standard Time)","Mon Sep 21 2020 16:55:05 GMT-1000 (Hawaii-Aleutian Standard Time)","Mozilla/5.0 (Windows NT 10.0; Win64; x64) AppleWebKit/537.36 (KHTML, like Gecko) Chrome/85.0.4183.102 Safari/537.36",105,"[0.9, 0.5, 0.1]","[0.8, 0.4, 0.2]","[u'black', u'blue', u'red']","[u'left', u'middle', u'right']","[0.8, 0.4, 0.2]","[u'high', u'low', u'medium']","black",49,"left","high","True","False",804,6000,NA
"AKX9W0NF71OI7","Mon Sep 21 2020 16:43:25 GMT-1000 (Hawaii-Aleutian Standard Time)","Mon Sep 21 2020 16:55:05 GMT-1000 (Hawaii-Aleutian Standard Time)","Mozilla/5.0 (Windows NT 10.0; Win64; x64) AppleWebKit/537.36 (KHTML, like Gecko) Chrome/85.0.4183.102 Safari/537.36",106,"[0.9, 0.5, 0.1]","[0.8, 0.4, 0.2]","[u'black', u'blue', u'red']","[u'left', u'middle', u'right']","[0.8, 0.4, 0.2]","[u'high', u'low', u'medium']","black",49,"left","high","True","False",382,6100,NA
"AKX9W0NF71OI7","Mon Sep 21 2020 16:43:25 GMT-1000 (Hawaii-Aleutian Standard Time)","Mon Sep 21 2020 16:55:05 GMT-1000 (Hawaii-Aleutian Standard Time)","Mozilla/5.0 (Windows NT 10.0; Win64; x64) AppleWebKit/537.36 (KHTML, like Gecko) Chrome/85.0.4183.102 Safari/537.36",107,"[0.9, 0.5, 0.1]","[0.8, 0.4, 0.2]","[u'black', u'blue', u'red']","[u'left', u'middle', u'right']","[0.8, 0.4, 0.2]","[u'high', u'low', u'medium']","black",49,"left","high","False","False",1106,6050,NA
"AKX9W0NF71OI7","Mon Sep 21 2020 16:43:25 GMT-1000 (Hawaii-Aleutian Standard Time)","Mon Sep 21 2020 16:55:05 GMT-1000 (Hawaii-Aleutian Standard Time)","Mozilla/5.0 (Windows NT 10.0; Win64; x64) AppleWebKit/537.36 (KHTML, like Gecko) Chrome/85.0.4183.102 Safari/537.36",108,"[0.9, 0.5, 0.1]","[0.8, 0.4, 0.2]","[u'black', u'blue', u'red']","[u'left', u'middle', u'right']","[0.8, 0.4, 0.2]","[u'high', u'low', u'medium']","blue",50,"middle","low","False","False",350,6000,NA
"AKX9W0NF71OI7","Mon Sep 21 2020 16:43:25 GMT-1000 (Hawaii-Aleutian Standard Time)","Mon Sep 21 2020 16:55:05 GMT-1000 (Hawaii-Aleutian Standard Time)","Mozilla/5.0 (Windows NT 10.0; Win64; x64) AppleWebKit/537.36 (KHTML, like Gecko) Chrome/85.0.4183.102 Safari/537.36",109,"[0.9, 0.5, 0.1]","[0.8, 0.4, 0.2]","[u'black', u'blue', u'red']","[u'left', u'middle', u'right']","[0.8, 0.4, 0.2]","[u'high', u'low', u'medium']","red",51,"right","medium","False","False",1482,5950,NA
"AKX9W0NF71OI7","Mon Sep 21 2020 16:43:25 GMT-1000 (Hawaii-Aleutian Standard Time)","Mon Sep 21 2020 16:55:05 GMT-1000 (Hawaii-Aleutian Standard Time)","Mozilla/5.0 (Windows NT 10.0; Win64; x64) AppleWebKit/537.36 (KHTML, like Gecko) Chrome/85.0.4183.102 Safari/537.36",110,"[0.9, 0.5, 0.1]","[0.8, 0.4, 0.2]","[u'black', u'blue', u'red']","[u'left', u'middle', u'right']","[0.8, 0.4, 0.2]","[u'high', u'low', u'medium']","black",49,"left","high","False","False",527,5900,NA
"AKX9W0NF71OI7","Mon Sep 21 2020 16:43:25 GMT-1000 (Hawaii-Aleutian Standard Time)","Mon Sep 21 2020 16:55:05 GMT-1000 (Hawaii-Aleutian Standard Time)","Mozilla/5.0 (Windows NT 10.0; Win64; x64) AppleWebKit/537.36 (KHTML, like Gecko) Chrome/85.0.4183.102 Safari/537.36",111,"[0.9, 0.5, 0.1]","[0.8, 0.4, 0.2]","[u'black', u'blue', u'red']","[u'left', u'middle', u'right']","[0.8, 0.4, 0.2]","[u'high', u'low', u'medium']","blue",50,"middle","low","False","False",379,5850,NA
"AKX9W0NF71OI7","Mon Sep 21 2020 16:43:25 GMT-1000 (Hawaii-Aleutian Standard Time)","Mon Sep 21 2020 16:55:05 GMT-1000 (Hawaii-Aleutian Standard Time)","Mozilla/5.0 (Windows NT 10.0; Win64; x64) AppleWebKit/537.36 (KHTML, like Gecko) Chrome/85.0.4183.102 Safari/537.36",112,"[0.9, 0.5, 0.1]","[0.8, 0.4, 0.2]","[u'black', u'blue', u'red']","[u'left', u'middle', u'right']","[0.8, 0.4, 0.2]","[u'high', u'low', u'medium']","red",51,"right","medium","True","False",576,5950,NA
"AKX9W0NF71OI7","Mon Sep 21 2020 16:43:25 GMT-1000 (Hawaii-Aleutian Standard Time)","Mon Sep 21 2020 16:55:05 GMT-1000 (Hawaii-Aleutian Standard Time)","Mozilla/5.0 (Windows NT 10.0; Win64; x64) AppleWebKit/537.36 (KHTML, like Gecko) Chrome/85.0.4183.102 Safari/537.36",113,"[0.9, 0.5, 0.1]","[0.8, 0.4, 0.2]","[u'black', u'blue', u'red']","[u'left', u'middle', u'right']","[0.8, 0.4, 0.2]","[u'high', u'low', u'medium']","red",51,"right","medium","False","False",896,5900,NA
"AKX9W0NF71OI7","Mon Sep 21 2020 16:43:25 GMT-1000 (Hawaii-Aleutian Standard Time)","Mon Sep 21 2020 16:55:05 GMT-1000 (Hawaii-Aleutian Standard Time)","Mozilla/5.0 (Windows NT 10.0; Win64; x64) AppleWebKit/537.36 (KHTML, like Gecko) Chrome/85.0.4183.102 Safari/537.36",114,"[0.9, 0.5, 0.1]","[0.8, 0.4, 0.2]","[u'black', u'blue', u'red']","[u'left', u'middle', u'right']","[0.8, 0.4, 0.2]","[u'high', u'low', u'medium']","red",51,"right","medium","False","False",382,5850,NA
"AKX9W0NF71OI7","Mon Sep 21 2020 16:43:25 GMT-1000 (Hawaii-Aleutian Standard Time)","Mon Sep 21 2020 16:55:05 GMT-1000 (Hawaii-Aleutian Standard Time)","Mozilla/5.0 (Windows NT 10.0; Win64; x64) AppleWebKit/537.36 (KHTML, like Gecko) Chrome/85.0.4183.102 Safari/537.36",115,"[0.9, 0.5, 0.1]","[0.8, 0.4, 0.2]","[u'black', u'blue', u'red']","[u'left', u'middle', u'right']","[0.8, 0.4, 0.2]","[u'high', u'low', u'medium']","black",49,"left","high","False","False",381,5800,NA
"AKX9W0NF71OI7","Mon Sep 21 2020 16:43:25 GMT-1000 (Hawaii-Aleutian Standard Time)","Mon Sep 21 2020 16:55:05 GMT-1000 (Hawaii-Aleutian Standard Time)","Mozilla/5.0 (Windows NT 10.0; Win64; x64) AppleWebKit/537.36 (KHTML, like Gecko) Chrome/85.0.4183.102 Safari/537.36",116,"[0.9, 0.5, 0.1]","[0.8, 0.4, 0.2]","[u'black', u'blue', u'red']","[u'left', u'middle', u'right']","[0.8, 0.4, 0.2]","[u'high', u'low', u'medium']","blue",50,"middle","low","True","False",426,5900,NA
"AKX9W0NF71OI7","Mon Sep 21 2020 16:43:25 GMT-1000 (Hawaii-Aleutian Standard Time)","Mon Sep 21 2020 16:55:05 GMT-1000 (Hawaii-Aleutian Standard Time)","Mozilla/5.0 (Windows NT 10.0; Win64; x64) AppleWebKit/537.36 (KHTML, like Gecko) Chrome/85.0.4183.102 Safari/537.36",117,"[0.9, 0.5, 0.1]","[0.8, 0.4, 0.2]","[u'black', u'blue', u'red']","[u'left', u'middle', u'right']","[0.8, 0.4, 0.2]","[u'high', u'low', u'medium']","blue",50,"middle","low","False","False",956,5850,NA
"AKX9W0NF71OI7","Mon Sep 21 2020 16:43:25 GMT-1000 (Hawaii-Aleutian Standard Time)","Mon Sep 21 2020 16:55:05 GMT-1000 (Hawaii-Aleutian Standard Time)","Mozilla/5.0 (Windows NT 10.0; Win64; x64) AppleWebKit/537.36 (KHTML, like Gecko) Chrome/85.0.4183.102 Safari/537.36",118,"[0.9, 0.5, 0.1]","[0.8, 0.4, 0.2]","[u'black', u'blue', u'red']","[u'left', u'middle', u'right']","[0.8, 0.4, 0.2]","[u'high', u'low', u'medium']","blue",50,"middle","low","False","False",1840,5800,NA
"AKX9W0NF71OI7","Mon Sep 21 2020 16:43:25 GMT-1000 (Hawaii-Aleutian Standard Time)","Mon Sep 21 2020 16:55:05 GMT-1000 (Hawaii-Aleutian Standard Time)","Mozilla/5.0 (Windows NT 10.0; Win64; x64) AppleWebKit/537.36 (KHTML, like Gecko) Chrome/85.0.4183.102 Safari/537.36",119,"[0.9, 0.5, 0.1]","[0.8, 0.4, 0.2]","[u'black', u'blue', u'red']","[u'left', u'middle', u'right']","[0.8, 0.4, 0.2]","[u'high', u'low', u'medium']","red",51,"right","medium","False","False",1844,5750,NA
"AKX9W0NF71OI7","Mon Sep 21 2020 16:43:25 GMT-1000 (Hawaii-Aleutian Standard Time)","Mon Sep 21 2020 16:55:05 GMT-1000 (Hawaii-Aleutian Standard Time)","Mozilla/5.0 (Windows NT 10.0; Win64; x64) AppleWebKit/537.36 (KHTML, like Gecko) Chrome/85.0.4183.102 Safari/537.36",120,"[0.9, 0.5, 0.1]","[0.8, 0.4, 0.2]","[u'black', u'blue', u'red']","[u'left', u'middle', u'right']","[0.8, 0.4, 0.2]","[u'high', u'low', u'medium']","black",49,"left","high","False","False",392,5700,NA
"AKX9W0NF71OI7","Mon Sep 21 2020 16:43:25 GMT-1000 (Hawaii-Aleutian Standard Time)","Mon Sep 21 2020 16:55:05 GMT-1000 (Hawaii-Aleutian Standard Time)","Mozilla/5.0 (Windows NT 10.0; Win64; x64) AppleWebKit/537.36 (KHTML, like Gecko) Chrome/85.0.4183.102 Safari/537.36",121,"[0.9, 0.5, 0.1]","[0.8, 0.4, 0.2]","[u'black', u'blue', u'red']","[u'left', u'middle', u'right']","[0.8, 0.4, 0.2]","[u'low', u'high', u'medium']","black",49,"left","low","False","False",689,5650,NA
"AKX9W0NF71OI7","Mon Sep 21 2020 16:43:25 GMT-1000 (Hawaii-Aleutian Standard Time)","Mon Sep 21 2020 16:55:05 GMT-1000 (Hawaii-Aleutian Standard Time)","Mozilla/5.0 (Windows NT 10.0; Win64; x64) AppleWebKit/537.36 (KHTML, like Gecko) Chrome/85.0.4183.102 Safari/537.36",122,"[0.9, 0.5, 0.1]","[0.8, 0.4, 0.2]","[u'black', u'blue', u'red']","[u'left', u'middle', u'right']","[0.8, 0.4, 0.2]","[u'low', u'high', u'medium']","blue",50,"middle","high","True","False",454,5750,NA
"AKX9W0NF71OI7","Mon Sep 21 2020 16:43:25 GMT-1000 (Hawaii-Aleutian Standard Time)","Mon Sep 21 2020 16:55:05 GMT-1000 (Hawaii-Aleutian Standard Time)","Mozilla/5.0 (Windows NT 10.0; Win64; x64) AppleWebKit/537.36 (KHTML, like Gecko) Chrome/85.0.4183.102 Safari/537.36",123,"[0.9, 0.5, 0.1]","[0.8, 0.4, 0.2]","[u'black', u'blue', u'red']","[u'left', u'middle', u'right']","[0.8, 0.4, 0.2]","[u'low', u'high', u'medium']","blue",50,"middle","high","True","False",970,5850,NA
"AKX9W0NF71OI7","Mon Sep 21 2020 16:43:25 GMT-1000 (Hawaii-Aleutian Standard Time)","Mon Sep 21 2020 16:55:05 GMT-1000 (Hawaii-Aleutian Standard Time)","Mozilla/5.0 (Windows NT 10.0; Win64; x64) AppleWebKit/537.36 (KHTML, like Gecko) Chrome/85.0.4183.102 Safari/537.36",124,"[0.9, 0.5, 0.1]","[0.8, 0.4, 0.2]","[u'black', u'blue', u'red']","[u'left', u'middle', u'right']","[0.8, 0.4, 0.2]","[u'low', u'high', u'medium']","blue",50,"middle","high","True","False",709,5950,NA
"AKX9W0NF71OI7","Mon Sep 21 2020 16:43:25 GMT-1000 (Hawaii-Aleutian Standard Time)","Mon Sep 21 2020 16:55:05 GMT-1000 (Hawaii-Aleutian Standard Time)","Mozilla/5.0 (Windows NT 10.0; Win64; x64) AppleWebKit/537.36 (KHTML, like Gecko) Chrome/85.0.4183.102 Safari/537.36",125,"[0.9, 0.5, 0.1]","[0.8, 0.4, 0.2]","[u'black', u'blue', u'red']","[u'left', u'middle', u'right']","[0.8, 0.4, 0.2]","[u'low', u'high', u'medium']","blue",50,"middle","high","True","False",2497,6050,NA
"AKX9W0NF71OI7","Mon Sep 21 2020 16:43:25 GMT-1000 (Hawaii-Aleutian Standard Time)","Mon Sep 21 2020 16:55:05 GMT-1000 (Hawaii-Aleutian Standard Time)","Mozilla/5.0 (Windows NT 10.0; Win64; x64) AppleWebKit/537.36 (KHTML, like Gecko) Chrome/85.0.4183.102 Safari/537.36",126,"[0.9, 0.5, 0.1]","[0.8, 0.4, 0.2]","[u'black', u'blue', u'red']","[u'left', u'middle', u'right']","[0.8, 0.4, 0.2]","[u'low', u'high', u'medium']","blue",50,"middle","high","True","False",603,6150,NA
"AKX9W0NF71OI7","Mon Sep 21 2020 16:43:25 GMT-1000 (Hawaii-Aleutian Standard Time)","Mon Sep 21 2020 16:55:05 GMT-1000 (Hawaii-Aleutian Standard Time)","Mozilla/5.0 (Windows NT 10.0; Win64; x64) AppleWebKit/537.36 (KHTML, like Gecko) Chrome/85.0.4183.102 Safari/537.36",127,"[0.9, 0.5, 0.1]","[0.8, 0.4, 0.2]","[u'black', u'blue', u'red']","[u'left', u'middle', u'right']","[0.8, 0.4, 0.2]","[u'low', u'high', u'medium']","blue",50,"middle","high","True","False",2596,6250,NA
"AKX9W0NF71OI7","Mon Sep 21 2020 16:43:25 GMT-1000 (Hawaii-Aleutian Standard Time)","Mon Sep 21 2020 16:55:05 GMT-1000 (Hawaii-Aleutian Standard Time)","Mozilla/5.0 (Windows NT 10.0; Win64; x64) AppleWebKit/537.36 (KHTML, like Gecko) Chrome/85.0.4183.102 Safari/537.36",128,"[0.9, 0.5, 0.1]","[0.8, 0.4, 0.2]","[u'black', u'blue', u'red']","[u'left', u'middle', u'right']","[0.8, 0.4, 0.2]","[u'low', u'high', u'medium']","blue",50,"middle","high","True","False",973,6350,NA
"AKX9W0NF71OI7","Mon Sep 21 2020 16:43:25 GMT-1000 (Hawaii-Aleutian Standard Time)","Mon Sep 21 2020 16:55:05 GMT-1000 (Hawaii-Aleutian Standard Time)","Mozilla/5.0 (Windows NT 10.0; Win64; x64) AppleWebKit/537.36 (KHTML, like Gecko) Chrome/85.0.4183.102 Safari/537.36",129,"[0.9, 0.5, 0.1]","[0.8, 0.4, 0.2]","[u'black', u'blue', u'red']","[u'left', u'middle', u'right']","[0.8, 0.4, 0.2]","[u'low', u'high', u'medium']","blue",50,"middle","high","True","False",2585,6450,NA
"AKX9W0NF71OI7","Mon Sep 21 2020 16:43:25 GMT-1000 (Hawaii-Aleutian Standard Time)","Mon Sep 21 2020 16:55:05 GMT-1000 (Hawaii-Aleutian Standard Time)","Mozilla/5.0 (Windows NT 10.0; Win64; x64) AppleWebKit/537.36 (KHTML, like Gecko) Chrome/85.0.4183.102 Safari/537.36",130,"[0.9, 0.5, 0.1]","[0.8, 0.4, 0.2]","[u'black', u'blue', u'red']","[u'left', u'middle', u'right']","[0.8, 0.4, 0.2]","[u'low', u'high', u'medium']","blue",50,"middle","high","True","True",443,6550,NA
"AKX9W0NF71OI7","Mon Sep 21 2020 16:43:25 GMT-1000 (Hawaii-Aleutian Standard Time)","Mon Sep 21 2020 16:55:05 GMT-1000 (Hawaii-Aleutian Standard Time)","Mozilla/5.0 (Windows NT 10.0; Win64; x64) AppleWebKit/537.36 (KHTML, like Gecko) Chrome/85.0.4183.102 Safari/537.36",131,"[0.9, 0.5, 0.1]","[0.8, 0.4, 0.2]","[u'black', u'blue', u'red']","[u'left', u'middle', u'right']","[0.8, 0.4, 0.2]","[u'low', u'medium', u'high']","blue",50,"middle","medium","False","False",1739,6500,NA
"AKX9W0NF71OI7","Mon Sep 21 2020 16:43:25 GMT-1000 (Hawaii-Aleutian Standard Time)","Mon Sep 21 2020 16:55:05 GMT-1000 (Hawaii-Aleutian Standard Time)","Mozilla/5.0 (Windows NT 10.0; Win64; x64) AppleWebKit/537.36 (KHTML, like Gecko) Chrome/85.0.4183.102 Safari/537.36",132,"[0.9, 0.5, 0.1]","[0.8, 0.4, 0.2]","[u'black', u'blue', u'red']","[u'left', u'middle', u'right']","[0.8, 0.4, 0.2]","[u'low', u'medium', u'high']","red",51,"right","high","True","False",139,6600,NA
"AKX9W0NF71OI7","Mon Sep 21 2020 16:43:25 GMT-1000 (Hawaii-Aleutian Standard Time)","Mon Sep 21 2020 16:55:05 GMT-1000 (Hawaii-Aleutian Standard Time)","Mozilla/5.0 (Windows NT 10.0; Win64; x64) AppleWebKit/537.36 (KHTML, like Gecko) Chrome/85.0.4183.102 Safari/537.36",133,"[0.9, 0.5, 0.1]","[0.8, 0.4, 0.2]","[u'black', u'blue', u'red']","[u'left', u'middle', u'right']","[0.8, 0.4, 0.2]","[u'low', u'medium', u'high']","red",51,"right","high","True","False",451,6700,NA
"AKX9W0NF71OI7","Mon Sep 21 2020 16:43:25 GMT-1000 (Hawaii-Aleutian Standard Time)","Mon Sep 21 2020 16:55:05 GMT-1000 (Hawaii-Aleutian Standard Time)","Mozilla/5.0 (Windows NT 10.0; Win64; x64) AppleWebKit/537.36 (KHTML, like Gecko) Chrome/85.0.4183.102 Safari/537.36",134,"[0.9, 0.5, 0.1]","[0.8, 0.4, 0.2]","[u'black', u'blue', u'red']","[u'left', u'middle', u'right']","[0.8, 0.4, 0.2]","[u'low', u'medium', u'high']","red",51,"right","high","True","False",286,6800,NA
"AKX9W0NF71OI7","Mon Sep 21 2020 16:43:25 GMT-1000 (Hawaii-Aleutian Standard Time)","Mon Sep 21 2020 16:55:05 GMT-1000 (Hawaii-Aleutian Standard Time)","Mozilla/5.0 (Windows NT 10.0; Win64; x64) AppleWebKit/537.36 (KHTML, like Gecko) Chrome/85.0.4183.102 Safari/537.36",135,"[0.9, 0.5, 0.1]","[0.8, 0.4, 0.2]","[u'black', u'blue', u'red']","[u'left', u'middle', u'right']","[0.8, 0.4, 0.2]","[u'low', u'medium', u'high']","red",51,"right","high","False","False",377,6750,NA
"AKX9W0NF71OI7","Mon Sep 21 2020 16:43:25 GMT-1000 (Hawaii-Aleutian Standard Time)","Mon Sep 21 2020 16:55:05 GMT-1000 (Hawaii-Aleutian Standard Time)","Mozilla/5.0 (Windows NT 10.0; Win64; x64) AppleWebKit/537.36 (KHTML, like Gecko) Chrome/85.0.4183.102 Safari/537.36",136,"[0.9, 0.5, 0.1]","[0.8, 0.4, 0.2]","[u'black', u'blue', u'red']","[u'left', u'middle', u'right']","[0.8, 0.4, 0.2]","[u'low', u'medium', u'high']","black",49,"left","low","False","False",239,6700,NA
"AKX9W0NF71OI7","Mon Sep 21 2020 16:43:25 GMT-1000 (Hawaii-Aleutian Standard Time)","Mon Sep 21 2020 16:55:05 GMT-1000 (Hawaii-Aleutian Standard Time)","Mozilla/5.0 (Windows NT 10.0; Win64; x64) AppleWebKit/537.36 (KHTML, like Gecko) Chrome/85.0.4183.102 Safari/537.36",137,"[0.9, 0.5, 0.1]","[0.8, 0.4, 0.2]","[u'black', u'blue', u'red']","[u'left', u'middle', u'right']","[0.8, 0.4, 0.2]","[u'low', u'medium', u'high']","blue",50,"middle","medium","False","False",313,6650,NA
"AKX9W0NF71OI7","Mon Sep 21 2020 16:43:25 GMT-1000 (Hawaii-Aleutian Standard Time)","Mon Sep 21 2020 16:55:05 GMT-1000 (Hawaii-Aleutian Standard Time)","Mozilla/5.0 (Windows NT 10.0; Win64; x64) AppleWebKit/537.36 (KHTML, like Gecko) Chrome/85.0.4183.102 Safari/537.36",138,"[0.9, 0.5, 0.1]","[0.8, 0.4, 0.2]","[u'black', u'blue', u'red']","[u'left', u'middle', u'right']","[0.8, 0.4, 0.2]","[u'low', u'medium', u'high']","red",51,"right","high","True","False",373,6750,NA
"AKX9W0NF71OI7","Mon Sep 21 2020 16:43:25 GMT-1000 (Hawaii-Aleutian Standard Time)","Mon Sep 21 2020 16:55:05 GMT-1000 (Hawaii-Aleutian Standard Time)","Mozilla/5.0 (Windows NT 10.0; Win64; x64) AppleWebKit/537.36 (KHTML, like Gecko) Chrome/85.0.4183.102 Safari/537.36",139,"[0.9, 0.5, 0.1]","[0.8, 0.4, 0.2]","[u'black', u'blue', u'red']","[u'left', u'middle', u'right']","[0.8, 0.4, 0.2]","[u'low', u'medium', u'high']","red",51,"right","high","True","False",872,6850,NA
"AKX9W0NF71OI7","Mon Sep 21 2020 16:43:25 GMT-1000 (Hawaii-Aleutian Standard Time)","Mon Sep 21 2020 16:55:05 GMT-1000 (Hawaii-Aleutian Standard Time)","Mozilla/5.0 (Windows NT 10.0; Win64; x64) AppleWebKit/537.36 (KHTML, like Gecko) Chrome/85.0.4183.102 Safari/537.36",140,"[0.9, 0.5, 0.1]","[0.8, 0.4, 0.2]","[u'black', u'blue', u'red']","[u'left', u'middle', u'right']","[0.8, 0.4, 0.2]","[u'low', u'medium', u'high']","red",51,"right","high","True","False",516,6950,NA
"AKX9W0NF71OI7","Mon Sep 21 2020 16:43:25 GMT-1000 (Hawaii-Aleutian Standard Time)","Mon Sep 21 2020 16:55:05 GMT-1000 (Hawaii-Aleutian Standard Time)","Mozilla/5.0 (Windows NT 10.0; Win64; x64) AppleWebKit/537.36 (KHTML, like Gecko) Chrome/85.0.4183.102 Safari/537.36",141,"[0.9, 0.5, 0.1]","[0.8, 0.4, 0.2]","[u'black', u'blue', u'red']","[u'left', u'middle', u'right']","[0.8, 0.4, 0.2]","[u'low', u'medium', u'high']","red",51,"right","high","False","False",532,6900,NA
"AKX9W0NF71OI7","Mon Sep 21 2020 16:43:25 GMT-1000 (Hawaii-Aleutian Standard Time)","Mon Sep 21 2020 16:55:05 GMT-1000 (Hawaii-Aleutian Standard Time)","Mozilla/5.0 (Windows NT 10.0; Win64; x64) AppleWebKit/537.36 (KHTML, like Gecko) Chrome/85.0.4183.102 Safari/537.36",142,"[0.9, 0.5, 0.1]","[0.8, 0.4, 0.2]","[u'black', u'blue', u'red']","[u'left', u'middle', u'right']","[0.8, 0.4, 0.2]","[u'low', u'medium', u'high']","black",49,"left","low","False","False",1047,6850,NA
"AKX9W0NF71OI7","Mon Sep 21 2020 16:43:25 GMT-1000 (Hawaii-Aleutian Standard Time)","Mon Sep 21 2020 16:55:05 GMT-1000 (Hawaii-Aleutian Standard Time)","Mozilla/5.0 (Windows NT 10.0; Win64; x64) AppleWebKit/537.36 (KHTML, like Gecko) Chrome/85.0.4183.102 Safari/537.36",143,"[0.9, 0.5, 0.1]","[0.8, 0.4, 0.2]","[u'black', u'blue', u'red']","[u'left', u'middle', u'right']","[0.8, 0.4, 0.2]","[u'low', u'medium', u'high']","blue",50,"middle","medium","False","False",537,6800,NA
"AKX9W0NF71OI7","Mon Sep 21 2020 16:43:25 GMT-1000 (Hawaii-Aleutian Standard Time)","Mon Sep 21 2020 16:55:05 GMT-1000 (Hawaii-Aleutian Standard Time)","Mozilla/5.0 (Windows NT 10.0; Win64; x64) AppleWebKit/537.36 (KHTML, like Gecko) Chrome/85.0.4183.102 Safari/537.36",144,"[0.9, 0.5, 0.1]","[0.8, 0.4, 0.2]","[u'black', u'blue', u'red']","[u'left', u'middle', u'right']","[0.8, 0.4, 0.2]","[u'low', u'medium', u'high']","red",51,"right","high","True","False",771,6900,NA
"AKX9W0NF71OI7","Mon Sep 21 2020 16:43:25 GMT-1000 (Hawaii-Aleutian Standard Time)","Mon Sep 21 2020 16:55:05 GMT-1000 (Hawaii-Aleutian Standard Time)","Mozilla/5.0 (Windows NT 10.0; Win64; x64) AppleWebKit/537.36 (KHTML, like Gecko) Chrome/85.0.4183.102 Safari/537.36",145,"[0.9, 0.5, 0.1]","[0.8, 0.4, 0.2]","[u'black', u'blue', u'red']","[u'left', u'middle', u'right']","[0.8, 0.4, 0.2]","[u'low', u'medium', u'high']","red",51,"right","high","True","False",522,7000,NA
"AKX9W0NF71OI7","Mon Sep 21 2020 16:43:25 GMT-1000 (Hawaii-Aleutian Standard Time)","Mon Sep 21 2020 16:55:05 GMT-1000 (Hawaii-Aleutian Standard Time)","Mozilla/5.0 (Windows NT 10.0; Win64; x64) AppleWebKit/537.36 (KHTML, like Gecko) Chrome/85.0.4183.102 Safari/537.36",146,"[0.9, 0.5, 0.1]","[0.8, 0.4, 0.2]","[u'black', u'blue', u'red']","[u'left', u'middle', u'right']","[0.8, 0.4, 0.2]","[u'low', u'medium', u'high']","red",51,"right","high","True","False",440,7100,NA
"AKX9W0NF71OI7","Mon Sep 21 2020 16:43:25 GMT-1000 (Hawaii-Aleutian Standard Time)","Mon Sep 21 2020 16:55:05 GMT-1000 (Hawaii-Aleutian Standard Time)","Mozilla/5.0 (Windows NT 10.0; Win64; x64) AppleWebKit/537.36 (KHTML, like Gecko) Chrome/85.0.4183.102 Safari/537.36",147,"[0.9, 0.5, 0.1]","[0.8, 0.4, 0.2]","[u'black', u'blue', u'red']","[u'left', u'middle', u'right']","[0.8, 0.4, 0.2]","[u'low', u'medium', u'high']","red",51,"right","high","True","False",1953,7200,NA
"AKX9W0NF71OI7","Mon Sep 21 2020 16:43:25 GMT-1000 (Hawaii-Aleutian Standard Time)","Mon Sep 21 2020 16:55:05 GMT-1000 (Hawaii-Aleutian Standard Time)","Mozilla/5.0 (Windows NT 10.0; Win64; x64) AppleWebKit/537.36 (KHTML, like Gecko) Chrome/85.0.4183.102 Safari/537.36",148,"[0.9, 0.5, 0.1]","[0.8, 0.4, 0.2]","[u'black', u'blue', u'red']","[u'left', u'middle', u'right']","[0.8, 0.4, 0.2]","[u'low', u'medium', u'high']","red",51,"right","high","True","False",564,7300,NA
"AKX9W0NF71OI7","Mon Sep 21 2020 16:43:25 GMT-1000 (Hawaii-Aleutian Standard Time)","Mon Sep 21 2020 16:55:05 GMT-1000 (Hawaii-Aleutian Standard Time)","Mozilla/5.0 (Windows NT 10.0; Win64; x64) AppleWebKit/537.36 (KHTML, like Gecko) Chrome/85.0.4183.102 Safari/537.36",149,"[0.9, 0.5, 0.1]","[0.8, 0.4, 0.2]","[u'black', u'blue', u'red']","[u'left', u'middle', u'right']","[0.8, 0.4, 0.2]","[u'low', u'medium', u'high']","red",51,"right","high","True","False",4,7400,NA
"AKX9W0NF71OI7","Mon Sep 21 2020 16:43:25 GMT-1000 (Hawaii-Aleutian Standard Time)","Mon Sep 21 2020 16:55:05 GMT-1000 (Hawaii-Aleutian Standard Time)","Mozilla/5.0 (Windows NT 10.0; Win64; x64) AppleWebKit/537.36 (KHTML, like Gecko) Chrome/85.0.4183.102 Safari/537.36",150,"[0.9, 0.5, 0.1]","[0.8, 0.4, 0.2]","[u'black', u'blue', u'red']","[u'left', u'middle', u'right']","[0.8, 0.4, 0.2]","[u'low', u'medium', u'high']","red",51,"right","high","False","False",2428,7350,NA
"AKX9W0NF71OI7","Mon Sep 21 2020 16:43:25 GMT-1000 (Hawaii-Aleutian Standard Time)","Mon Sep 21 2020 16:55:05 GMT-1000 (Hawaii-Aleutian Standard Time)","Mozilla/5.0 (Windows NT 10.0; Win64; x64) AppleWebKit/537.36 (KHTML, like Gecko) Chrome/85.0.4183.102 Safari/537.36",151,"[0.9, 0.5, 0.1]","[0.8, 0.4, 0.2]","[u'black', u'blue', u'red']","[u'left', u'middle', u'right']","[0.8, 0.4, 0.2]","[u'low', u'medium', u'high']","black",49,"left","low","False","False",401,7300,NA
"AKX9W0NF71OI7","Mon Sep 21 2020 16:43:25 GMT-1000 (Hawaii-Aleutian Standard Time)","Mon Sep 21 2020 16:55:05 GMT-1000 (Hawaii-Aleutian Standard Time)","Mozilla/5.0 (Windows NT 10.0; Win64; x64) AppleWebKit/537.36 (KHTML, like Gecko) Chrome/85.0.4183.102 Safari/537.36",152,"[0.9, 0.5, 0.1]","[0.8, 0.4, 0.2]","[u'black', u'blue', u'red']","[u'left', u'middle', u'right']","[0.8, 0.4, 0.2]","[u'low', u'medium', u'high']","blue",50,"middle","medium","True","False",408,7400,NA
"AKX9W0NF71OI7","Mon Sep 21 2020 16:43:25 GMT-1000 (Hawaii-Aleutian Standard Time)","Mon Sep 21 2020 16:55:05 GMT-1000 (Hawaii-Aleutian Standard Time)","Mozilla/5.0 (Windows NT 10.0; Win64; x64) AppleWebKit/537.36 (KHTML, like Gecko) Chrome/85.0.4183.102 Safari/537.36",153,"[0.9, 0.5, 0.1]","[0.8, 0.4, 0.2]","[u'black', u'blue', u'red']","[u'left', u'middle', u'right']","[0.8, 0.4, 0.2]","[u'low', u'medium', u'high']","blue",50,"middle","medium","False","False",486,7350,NA
"AKX9W0NF71OI7","Mon Sep 21 2020 16:43:25 GMT-1000 (Hawaii-Aleutian Standard Time)","Mon Sep 21 2020 16:55:05 GMT-1000 (Hawaii-Aleutian Standard Time)","Mozilla/5.0 (Windows NT 10.0; Win64; x64) AppleWebKit/537.36 (KHTML, like Gecko) Chrome/85.0.4183.102 Safari/537.36",154,"[0.9, 0.5, 0.1]","[0.8, 0.4, 0.2]","[u'black', u'blue', u'red']","[u'left', u'middle', u'right']","[0.8, 0.4, 0.2]","[u'low', u'medium', u'high']","red",51,"right","high","True","False",1017,7450,NA
"AKX9W0NF71OI7","Mon Sep 21 2020 16:43:25 GMT-1000 (Hawaii-Aleutian Standard Time)","Mon Sep 21 2020 16:55:05 GMT-1000 (Hawaii-Aleutian Standard Time)","Mozilla/5.0 (Windows NT 10.0; Win64; x64) AppleWebKit/537.36 (KHTML, like Gecko) Chrome/85.0.4183.102 Safari/537.36",155,"[0.9, 0.5, 0.1]","[0.8, 0.4, 0.2]","[u'black', u'blue', u'red']","[u'left', u'middle', u'right']","[0.8, 0.4, 0.2]","[u'low', u'medium', u'high']","red",51,"right","high","True","False",2135,7550,NA
"AKX9W0NF71OI7","Mon Sep 21 2020 16:43:25 GMT-1000 (Hawaii-Aleutian Standard Time)","Mon Sep 21 2020 16:55:05 GMT-1000 (Hawaii-Aleutian Standard Time)","Mozilla/5.0 (Windows NT 10.0; Win64; x64) AppleWebKit/537.36 (KHTML, like Gecko) Chrome/85.0.4183.102 Safari/537.36",156,"[0.9, 0.5, 0.1]","[0.8, 0.4, 0.2]","[u'black', u'blue', u'red']","[u'left', u'middle', u'right']","[0.8, 0.4, 0.2]","[u'low', u'medium', u'high']","red",51,"right","high","True","False",482,7650,NA
"AKX9W0NF71OI7","Mon Sep 21 2020 16:43:25 GMT-1000 (Hawaii-Aleutian Standard Time)","Mon Sep 21 2020 16:55:05 GMT-1000 (Hawaii-Aleutian Standard Time)","Mozilla/5.0 (Windows NT 10.0; Win64; x64) AppleWebKit/537.36 (KHTML, like Gecko) Chrome/85.0.4183.102 Safari/537.36",157,"[0.9, 0.5, 0.1]","[0.8, 0.4, 0.2]","[u'black', u'blue', u'red']","[u'left', u'middle', u'right']","[0.8, 0.4, 0.2]","[u'low', u'medium', u'high']","red",51,"right","high","True","False",332,7750,NA
"AKX9W0NF71OI7","Mon Sep 21 2020 16:43:25 GMT-1000 (Hawaii-Aleutian Standard Time)","Mon Sep 21 2020 16:55:05 GMT-1000 (Hawaii-Aleutian Standard Time)","Mozilla/5.0 (Windows NT 10.0; Win64; x64) AppleWebKit/537.36 (KHTML, like Gecko) Chrome/85.0.4183.102 Safari/537.36",158,"[0.9, 0.5, 0.1]","[0.8, 0.4, 0.2]","[u'black', u'blue', u'red']","[u'left', u'middle', u'right']","[0.8, 0.4, 0.2]","[u'low', u'medium', u'high']","red",51,"right","high","True","False",343,7850,NA
"AKX9W0NF71OI7","Mon Sep 21 2020 16:43:25 GMT-1000 (Hawaii-Aleutian Standard Time)","Mon Sep 21 2020 16:55:05 GMT-1000 (Hawaii-Aleutian Standard Time)","Mozilla/5.0 (Windows NT 10.0; Win64; x64) AppleWebKit/537.36 (KHTML, like Gecko) Chrome/85.0.4183.102 Safari/537.36",159,"[0.9, 0.5, 0.1]","[0.8, 0.4, 0.2]","[u'black', u'blue', u'red']","[u'left', u'middle', u'right']","[0.8, 0.4, 0.2]","[u'low', u'medium', u'high']","red",51,"right","high","True","False",329,7950,NA
"AKX9W0NF71OI7","Mon Sep 21 2020 16:43:25 GMT-1000 (Hawaii-Aleutian Standard Time)","Mon Sep 21 2020 16:55:05 GMT-1000 (Hawaii-Aleutian Standard Time)","Mozilla/5.0 (Windows NT 10.0; Win64; x64) AppleWebKit/537.36 (KHTML, like Gecko) Chrome/85.0.4183.102 Safari/537.36",160,"[0.9, 0.5, 0.1]","[0.8, 0.4, 0.2]","[u'black', u'blue', u'red']","[u'left', u'middle', u'right']","[0.8, 0.4, 0.2]","[u'low', u'medium', u'high']","red",51,"right","high","True","False",308,8050,NA
