"src_subject_id","start_time","end_time","browser","index","first_half_probabilities","second_half_probabilities","deck_color","deck_position","deck_probabilities","deck_contingencies","response_color","key_press","response_position","response_probability","reward_type","trial_type","rt","reward_tally","exclusion_reason"
"AYGGBBDSQP21G","Wed Sep 23 2020 08:05:35 GMT-0700 (Pacific Daylight Time)","Wed Sep 23 2020 08:17:53 GMT-0700 (Pacific Daylight Time)","Mozilla/5.0 (Windows NT 6.1; Win64; x64) AppleWebKit/537.36 (KHTML, like Gecko) Chrome/80.0.3987.100 Safari/537.36",1,"[0.9, 0.5, 0.1]","[0.8, 0.4, 0.2]","[u'red', u'black', u'blue']","[u'left', u'middle', u'right']","[0.9, 0.5, 0.1]","[u'low', u'high', u'medium']","blue",51,"right","medium","True","False",779,100,NA
"AYGGBBDSQP21G","Wed Sep 23 2020 08:05:35 GMT-0700 (Pacific Daylight Time)","Wed Sep 23 2020 08:17:53 GMT-0700 (Pacific Daylight Time)","Mozilla/5.0 (Windows NT 6.1; Win64; x64) AppleWebKit/537.36 (KHTML, like Gecko) Chrome/80.0.3987.100 Safari/537.36",2,"[0.9, 0.5, 0.1]","[0.8, 0.4, 0.2]","[u'red', u'black', u'blue']","[u'left', u'middle', u'right']","[0.9, 0.5, 0.1]","[u'low', u'high', u'medium']","black",50,"middle","high","False","False",291,50,NA
"AYGGBBDSQP21G","Wed Sep 23 2020 08:05:35 GMT-0700 (Pacific Daylight Time)","Wed Sep 23 2020 08:17:53 GMT-0700 (Pacific Daylight Time)","Mozilla/5.0 (Windows NT 6.1; Win64; x64) AppleWebKit/537.36 (KHTML, like Gecko) Chrome/80.0.3987.100 Safari/537.36",3,"[0.9, 0.5, 0.1]","[0.8, 0.4, 0.2]","[u'red', u'black', u'blue']","[u'left', u'middle', u'right']","[0.9, 0.5, 0.1]","[u'low', u'high', u'medium']","red",49,"left","low","False","False",515,0,NA
"AYGGBBDSQP21G","Wed Sep 23 2020 08:05:35 GMT-0700 (Pacific Daylight Time)","Wed Sep 23 2020 08:17:53 GMT-0700 (Pacific Daylight Time)","Mozilla/5.0 (Windows NT 6.1; Win64; x64) AppleWebKit/537.36 (KHTML, like Gecko) Chrome/80.0.3987.100 Safari/537.36",4,"[0.9, 0.5, 0.1]","[0.8, 0.4, 0.2]","[u'red', u'black', u'blue']","[u'left', u'middle', u'right']","[0.9, 0.5, 0.1]","[u'low', u'high', u'medium']","blue",51,"right","medium","True","False",275,100,NA
"AYGGBBDSQP21G","Wed Sep 23 2020 08:05:35 GMT-0700 (Pacific Daylight Time)","Wed Sep 23 2020 08:17:53 GMT-0700 (Pacific Daylight Time)","Mozilla/5.0 (Windows NT 6.1; Win64; x64) AppleWebKit/537.36 (KHTML, like Gecko) Chrome/80.0.3987.100 Safari/537.36",5,"[0.9, 0.5, 0.1]","[0.8, 0.4, 0.2]","[u'red', u'black', u'blue']","[u'left', u'middle', u'right']","[0.9, 0.5, 0.1]","[u'low', u'high', u'medium']","blue",51,"right","medium","True","False",35,200,NA
"AYGGBBDSQP21G","Wed Sep 23 2020 08:05:35 GMT-0700 (Pacific Daylight Time)","Wed Sep 23 2020 08:17:53 GMT-0700 (Pacific Daylight Time)","Mozilla/5.0 (Windows NT 6.1; Win64; x64) AppleWebKit/537.36 (KHTML, like Gecko) Chrome/80.0.3987.100 Safari/537.36",6,"[0.9, 0.5, 0.1]","[0.8, 0.4, 0.2]","[u'red', u'black', u'blue']","[u'left', u'middle', u'right']","[0.9, 0.5, 0.1]","[u'low', u'high', u'medium']","blue",51,"right","medium","False","False",468,150,NA
"AYGGBBDSQP21G","Wed Sep 23 2020 08:05:35 GMT-0700 (Pacific Daylight Time)","Wed Sep 23 2020 08:17:53 GMT-0700 (Pacific Daylight Time)","Mozilla/5.0 (Windows NT 6.1; Win64; x64) AppleWebKit/537.36 (KHTML, like Gecko) Chrome/80.0.3987.100 Safari/537.36",7,"[0.9, 0.5, 0.1]","[0.8, 0.4, 0.2]","[u'red', u'black', u'blue']","[u'left', u'middle', u'right']","[0.9, 0.5, 0.1]","[u'low', u'high', u'medium']","black",50,"middle","high","True","False",274,250,NA
"AYGGBBDSQP21G","Wed Sep 23 2020 08:05:35 GMT-0700 (Pacific Daylight Time)","Wed Sep 23 2020 08:17:53 GMT-0700 (Pacific Daylight Time)","Mozilla/5.0 (Windows NT 6.1; Win64; x64) AppleWebKit/537.36 (KHTML, like Gecko) Chrome/80.0.3987.100 Safari/537.36",8,"[0.9, 0.5, 0.1]","[0.8, 0.4, 0.2]","[u'red', u'black', u'blue']","[u'left', u'middle', u'right']","[0.9, 0.5, 0.1]","[u'low', u'high', u'medium']","blue",51,"right","medium","False","False",818,200,NA
"AYGGBBDSQP21G","Wed Sep 23 2020 08:05:35 GMT-0700 (Pacific Daylight Time)","Wed Sep 23 2020 08:17:53 GMT-0700 (Pacific Daylight Time)","Mozilla/5.0 (Windows NT 6.1; Win64; x64) AppleWebKit/537.36 (KHTML, like Gecko) Chrome/80.0.3987.100 Safari/537.36",9,"[0.9, 0.5, 0.1]","[0.8, 0.4, 0.2]","[u'red', u'black', u'blue']","[u'left', u'middle', u'right']","[0.9, 0.5, 0.1]","[u'low', u'high', u'medium']","red",49,"left","low","False","False",675,150,NA
"AYGGBBDSQP21G","Wed Sep 23 2020 08:05:35 GMT-0700 (Pacific Daylight Time)","Wed Sep 23 2020 08:17:53 GMT-0700 (Pacific Daylight Time)","Mozilla/5.0 (Windows NT 6.1; Win64; x64) AppleWebKit/537.36 (KHTML, like Gecko) Chrome/80.0.3987.100 Safari/537.36",10,"[0.9, 0.5, 0.1]","[0.8, 0.4, 0.2]","[u'red', u'black', u'blue']","[u'left', u'middle', u'right']","[0.9, 0.5, 0.1]","[u'low', u'high', u'medium']","black",50,"middle","high","True","False",851,250,NA
"AYGGBBDSQP21G","Wed Sep 23 2020 08:05:35 GMT-0700 (Pacific Daylight Time)","Wed Sep 23 2020 08:17:53 GMT-0700 (Pacific Daylight Time)","Mozilla/5.0 (Windows NT 6.1; Win64; x64) AppleWebKit/537.36 (KHTML, like Gecko) Chrome/80.0.3987.100 Safari/537.36",11,"[0.9, 0.5, 0.1]","[0.8, 0.4, 0.2]","[u'red', u'black', u'blue']","[u'left', u'middle', u'right']","[0.9, 0.5, 0.1]","[u'low', u'high', u'medium']","blue",51,"right","medium","False","False",851,200,NA
"AYGGBBDSQP21G","Wed Sep 23 2020 08:05:35 GMT-0700 (Pacific Daylight Time)","Wed Sep 23 2020 08:17:53 GMT-0700 (Pacific Daylight Time)","Mozilla/5.0 (Windows NT 6.1; Win64; x64) AppleWebKit/537.36 (KHTML, like Gecko) Chrome/80.0.3987.100 Safari/537.36",12,"[0.9, 0.5, 0.1]","[0.8, 0.4, 0.2]","[u'red', u'black', u'blue']","[u'left', u'middle', u'right']","[0.9, 0.5, 0.1]","[u'low', u'high', u'medium']","black",50,"middle","high","True","False",465,300,NA
"AYGGBBDSQP21G","Wed Sep 23 2020 08:05:35 GMT-0700 (Pacific Daylight Time)","Wed Sep 23 2020 08:17:53 GMT-0700 (Pacific Daylight Time)","Mozilla/5.0 (Windows NT 6.1; Win64; x64) AppleWebKit/537.36 (KHTML, like Gecko) Chrome/80.0.3987.100 Safari/537.36",13,"[0.9, 0.5, 0.1]","[0.8, 0.4, 0.2]","[u'red', u'black', u'blue']","[u'left', u'middle', u'right']","[0.9, 0.5, 0.1]","[u'low', u'high', u'medium']","black",50,"middle","high","True","False",594,400,NA
"AYGGBBDSQP21G","Wed Sep 23 2020 08:05:35 GMT-0700 (Pacific Daylight Time)","Wed Sep 23 2020 08:17:53 GMT-0700 (Pacific Daylight Time)","Mozilla/5.0 (Windows NT 6.1; Win64; x64) AppleWebKit/537.36 (KHTML, like Gecko) Chrome/80.0.3987.100 Safari/537.36",14,"[0.9, 0.5, 0.1]","[0.8, 0.4, 0.2]","[u'red', u'black', u'blue']","[u'left', u'middle', u'right']","[0.9, 0.5, 0.1]","[u'low', u'high', u'medium']","blue",51,"right","medium","False","False",370,350,NA
"AYGGBBDSQP21G","Wed Sep 23 2020 08:05:35 GMT-0700 (Pacific Daylight Time)","Wed Sep 23 2020 08:17:53 GMT-0700 (Pacific Daylight Time)","Mozilla/5.0 (Windows NT 6.1; Win64; x64) AppleWebKit/537.36 (KHTML, like Gecko) Chrome/80.0.3987.100 Safari/537.36",15,"[0.9, 0.5, 0.1]","[0.8, 0.4, 0.2]","[u'red', u'black', u'blue']","[u'left', u'middle', u'right']","[0.9, 0.5, 0.1]","[u'low', u'high', u'medium']","black",50,"middle","high","True","False",258,450,NA
"AYGGBBDSQP21G","Wed Sep 23 2020 08:05:35 GMT-0700 (Pacific Daylight Time)","Wed Sep 23 2020 08:17:53 GMT-0700 (Pacific Daylight Time)","Mozilla/5.0 (Windows NT 6.1; Win64; x64) AppleWebKit/537.36 (KHTML, like Gecko) Chrome/80.0.3987.100 Safari/537.36",16,"[0.9, 0.5, 0.1]","[0.8, 0.4, 0.2]","[u'red', u'black', u'blue']","[u'left', u'middle', u'right']","[0.9, 0.5, 0.1]","[u'low', u'high', u'medium']","red",49,"left","low","False","False",371,400,NA
"AYGGBBDSQP21G","Wed Sep 23 2020 08:05:35 GMT-0700 (Pacific Daylight Time)","Wed Sep 23 2020 08:17:53 GMT-0700 (Pacific Daylight Time)","Mozilla/5.0 (Windows NT 6.1; Win64; x64) AppleWebKit/537.36 (KHTML, like Gecko) Chrome/80.0.3987.100 Safari/537.36",17,"[0.9, 0.5, 0.1]","[0.8, 0.4, 0.2]","[u'red', u'black', u'blue']","[u'left', u'middle', u'right']","[0.9, 0.5, 0.1]","[u'low', u'high', u'medium']","black",50,"middle","high","True","False",260,500,NA
"AYGGBBDSQP21G","Wed Sep 23 2020 08:05:35 GMT-0700 (Pacific Daylight Time)","Wed Sep 23 2020 08:17:53 GMT-0700 (Pacific Daylight Time)","Mozilla/5.0 (Windows NT 6.1; Win64; x64) AppleWebKit/537.36 (KHTML, like Gecko) Chrome/80.0.3987.100 Safari/537.36",18,"[0.9, 0.5, 0.1]","[0.8, 0.4, 0.2]","[u'red', u'black', u'blue']","[u'left', u'middle', u'right']","[0.9, 0.5, 0.1]","[u'low', u'high', u'medium']","blue",51,"right","medium","True","False",402,600,NA
"AYGGBBDSQP21G","Wed Sep 23 2020 08:05:35 GMT-0700 (Pacific Daylight Time)","Wed Sep 23 2020 08:17:53 GMT-0700 (Pacific Daylight Time)","Mozilla/5.0 (Windows NT 6.1; Win64; x64) AppleWebKit/537.36 (KHTML, like Gecko) Chrome/80.0.3987.100 Safari/537.36",19,"[0.9, 0.5, 0.1]","[0.8, 0.4, 0.2]","[u'red', u'black', u'blue']","[u'left', u'middle', u'right']","[0.9, 0.5, 0.1]","[u'low', u'high', u'medium']","black",50,"middle","high","True","False",307,700,NA
"AYGGBBDSQP21G","Wed Sep 23 2020 08:05:35 GMT-0700 (Pacific Daylight Time)","Wed Sep 23 2020 08:17:53 GMT-0700 (Pacific Daylight Time)","Mozilla/5.0 (Windows NT 6.1; Win64; x64) AppleWebKit/537.36 (KHTML, like Gecko) Chrome/80.0.3987.100 Safari/537.36",20,"[0.9, 0.5, 0.1]","[0.8, 0.4, 0.2]","[u'red', u'black', u'blue']","[u'left', u'middle', u'right']","[0.9, 0.5, 0.1]","[u'low', u'high', u'medium']","blue",51,"right","medium","True","False",355,800,NA
"AYGGBBDSQP21G","Wed Sep 23 2020 08:05:35 GMT-0700 (Pacific Daylight Time)","Wed Sep 23 2020 08:17:53 GMT-0700 (Pacific Daylight Time)","Mozilla/5.0 (Windows NT 6.1; Win64; x64) AppleWebKit/537.36 (KHTML, like Gecko) Chrome/80.0.3987.100 Safari/537.36",21,"[0.9, 0.5, 0.1]","[0.8, 0.4, 0.2]","[u'red', u'black', u'blue']","[u'left', u'middle', u'right']","[0.9, 0.5, 0.1]","[u'low', u'high', u'medium']","black",50,"middle","high","False","False",338,750,NA
"AYGGBBDSQP21G","Wed Sep 23 2020 08:05:35 GMT-0700 (Pacific Daylight Time)","Wed Sep 23 2020 08:17:53 GMT-0700 (Pacific Daylight Time)","Mozilla/5.0 (Windows NT 6.1; Win64; x64) AppleWebKit/537.36 (KHTML, like Gecko) Chrome/80.0.3987.100 Safari/537.36",22,"[0.9, 0.5, 0.1]","[0.8, 0.4, 0.2]","[u'red', u'black', u'blue']","[u'left', u'middle', u'right']","[0.9, 0.5, 0.1]","[u'low', u'high', u'medium']","blue",51,"right","medium","False","False",626,700,NA
"AYGGBBDSQP21G","Wed Sep 23 2020 08:05:35 GMT-0700 (Pacific Daylight Time)","Wed Sep 23 2020 08:17:53 GMT-0700 (Pacific Daylight Time)","Mozilla/5.0 (Windows NT 6.1; Win64; x64) AppleWebKit/537.36 (KHTML, like Gecko) Chrome/80.0.3987.100 Safari/537.36",23,"[0.9, 0.5, 0.1]","[0.8, 0.4, 0.2]","[u'red', u'black', u'blue']","[u'left', u'middle', u'right']","[0.9, 0.5, 0.1]","[u'low', u'high', u'medium']","black",50,"middle","high","False","False",276,650,NA
"AYGGBBDSQP21G","Wed Sep 23 2020 08:05:35 GMT-0700 (Pacific Daylight Time)","Wed Sep 23 2020 08:17:53 GMT-0700 (Pacific Daylight Time)","Mozilla/5.0 (Windows NT 6.1; Win64; x64) AppleWebKit/537.36 (KHTML, like Gecko) Chrome/80.0.3987.100 Safari/537.36",24,"[0.9, 0.5, 0.1]","[0.8, 0.4, 0.2]","[u'red', u'black', u'blue']","[u'left', u'middle', u'right']","[0.9, 0.5, 0.1]","[u'low', u'high', u'medium']","red",49,"left","low","False","False",336,600,NA
"AYGGBBDSQP21G","Wed Sep 23 2020 08:05:35 GMT-0700 (Pacific Daylight Time)","Wed Sep 23 2020 08:17:53 GMT-0700 (Pacific Daylight Time)","Mozilla/5.0 (Windows NT 6.1; Win64; x64) AppleWebKit/537.36 (KHTML, like Gecko) Chrome/80.0.3987.100 Safari/537.36",25,"[0.9, 0.5, 0.1]","[0.8, 0.4, 0.2]","[u'red', u'black', u'blue']","[u'left', u'middle', u'right']","[0.9, 0.5, 0.1]","[u'low', u'high', u'medium']","black",50,"middle","high","True","False",275,700,NA
"AYGGBBDSQP21G","Wed Sep 23 2020 08:05:35 GMT-0700 (Pacific Daylight Time)","Wed Sep 23 2020 08:17:53 GMT-0700 (Pacific Daylight Time)","Mozilla/5.0 (Windows NT 6.1; Win64; x64) AppleWebKit/537.36 (KHTML, like Gecko) Chrome/80.0.3987.100 Safari/537.36",26,"[0.9, 0.5, 0.1]","[0.8, 0.4, 0.2]","[u'red', u'black', u'blue']","[u'left', u'middle', u'right']","[0.9, 0.5, 0.1]","[u'low', u'high', u'medium']","blue",51,"right","medium","True","False",483,800,NA
"AYGGBBDSQP21G","Wed Sep 23 2020 08:05:35 GMT-0700 (Pacific Daylight Time)","Wed Sep 23 2020 08:17:53 GMT-0700 (Pacific Daylight Time)","Mozilla/5.0 (Windows NT 6.1; Win64; x64) AppleWebKit/537.36 (KHTML, like Gecko) Chrome/80.0.3987.100 Safari/537.36",27,"[0.9, 0.5, 0.1]","[0.8, 0.4, 0.2]","[u'red', u'black', u'blue']","[u'left', u'middle', u'right']","[0.9, 0.5, 0.1]","[u'low', u'high', u'medium']","black",50,"middle","high","True","False",419,900,NA
"AYGGBBDSQP21G","Wed Sep 23 2020 08:05:35 GMT-0700 (Pacific Daylight Time)","Wed Sep 23 2020 08:17:53 GMT-0700 (Pacific Daylight Time)","Mozilla/5.0 (Windows NT 6.1; Win64; x64) AppleWebKit/537.36 (KHTML, like Gecko) Chrome/80.0.3987.100 Safari/537.36",28,"[0.9, 0.5, 0.1]","[0.8, 0.4, 0.2]","[u'red', u'black', u'blue']","[u'left', u'middle', u'right']","[0.9, 0.5, 0.1]","[u'low', u'high', u'medium']","blue",51,"right","medium","True","False",451,1000,NA
"AYGGBBDSQP21G","Wed Sep 23 2020 08:05:35 GMT-0700 (Pacific Daylight Time)","Wed Sep 23 2020 08:17:53 GMT-0700 (Pacific Daylight Time)","Mozilla/5.0 (Windows NT 6.1; Win64; x64) AppleWebKit/537.36 (KHTML, like Gecko) Chrome/80.0.3987.100 Safari/537.36",29,"[0.9, 0.5, 0.1]","[0.8, 0.4, 0.2]","[u'red', u'black', u'blue']","[u'left', u'middle', u'right']","[0.9, 0.5, 0.1]","[u'low', u'high', u'medium']","black",50,"middle","high","True","False",883,1100,NA
"AYGGBBDSQP21G","Wed Sep 23 2020 08:05:35 GMT-0700 (Pacific Daylight Time)","Wed Sep 23 2020 08:17:53 GMT-0700 (Pacific Daylight Time)","Mozilla/5.0 (Windows NT 6.1; Win64; x64) AppleWebKit/537.36 (KHTML, like Gecko) Chrome/80.0.3987.100 Safari/537.36",30,"[0.9, 0.5, 0.1]","[0.8, 0.4, 0.2]","[u'red', u'black', u'blue']","[u'left', u'middle', u'right']","[0.9, 0.5, 0.1]","[u'low', u'high', u'medium']","blue",51,"right","medium","True","False",307,1200,NA
"AYGGBBDSQP21G","Wed Sep 23 2020 08:05:35 GMT-0700 (Pacific Daylight Time)","Wed Sep 23 2020 08:17:53 GMT-0700 (Pacific Daylight Time)","Mozilla/5.0 (Windows NT 6.1; Win64; x64) AppleWebKit/537.36 (KHTML, like Gecko) Chrome/80.0.3987.100 Safari/537.36",31,"[0.9, 0.5, 0.1]","[0.8, 0.4, 0.2]","[u'red', u'black', u'blue']","[u'left', u'middle', u'right']","[0.9, 0.5, 0.1]","[u'low', u'high', u'medium']","black",50,"middle","high","True","False",258,1300,NA
"AYGGBBDSQP21G","Wed Sep 23 2020 08:05:35 GMT-0700 (Pacific Daylight Time)","Wed Sep 23 2020 08:17:53 GMT-0700 (Pacific Daylight Time)","Mozilla/5.0 (Windows NT 6.1; Win64; x64) AppleWebKit/537.36 (KHTML, like Gecko) Chrome/80.0.3987.100 Safari/537.36",32,"[0.9, 0.5, 0.1]","[0.8, 0.4, 0.2]","[u'red', u'black', u'blue']","[u'left', u'middle', u'right']","[0.9, 0.5, 0.1]","[u'low', u'high', u'medium']","blue",51,"right","medium","True","False",371,1400,NA
"AYGGBBDSQP21G","Wed Sep 23 2020 08:05:35 GMT-0700 (Pacific Daylight Time)","Wed Sep 23 2020 08:17:53 GMT-0700 (Pacific Daylight Time)","Mozilla/5.0 (Windows NT 6.1; Win64; x64) AppleWebKit/537.36 (KHTML, like Gecko) Chrome/80.0.3987.100 Safari/537.36",33,"[0.9, 0.5, 0.1]","[0.8, 0.4, 0.2]","[u'red', u'black', u'blue']","[u'left', u'middle', u'right']","[0.9, 0.5, 0.1]","[u'low', u'high', u'medium']","blue",51,"right","medium","False","False",915,1350,NA
"AYGGBBDSQP21G","Wed Sep 23 2020 08:05:35 GMT-0700 (Pacific Daylight Time)","Wed Sep 23 2020 08:17:53 GMT-0700 (Pacific Daylight Time)","Mozilla/5.0 (Windows NT 6.1; Win64; x64) AppleWebKit/537.36 (KHTML, like Gecko) Chrome/80.0.3987.100 Safari/537.36",34,"[0.9, 0.5, 0.1]","[0.8, 0.4, 0.2]","[u'red', u'black', u'blue']","[u'left', u'middle', u'right']","[0.9, 0.5, 0.1]","[u'low', u'high', u'medium']","black",50,"middle","high","True","False",275,1450,NA
"AYGGBBDSQP21G","Wed Sep 23 2020 08:05:35 GMT-0700 (Pacific Daylight Time)","Wed Sep 23 2020 08:17:53 GMT-0700 (Pacific Daylight Time)","Mozilla/5.0 (Windows NT 6.1; Win64; x64) AppleWebKit/537.36 (KHTML, like Gecko) Chrome/80.0.3987.100 Safari/537.36",35,"[0.9, 0.5, 0.1]","[0.8, 0.4, 0.2]","[u'red', u'black', u'blue']","[u'left', u'middle', u'right']","[0.9, 0.5, 0.1]","[u'low', u'high', u'medium']","black",50,"middle","high","True","False",707,1550,NA
"AYGGBBDSQP21G","Wed Sep 23 2020 08:05:35 GMT-0700 (Pacific Daylight Time)","Wed Sep 23 2020 08:17:53 GMT-0700 (Pacific Daylight Time)","Mozilla/5.0 (Windows NT 6.1; Win64; x64) AppleWebKit/537.36 (KHTML, like Gecko) Chrome/80.0.3987.100 Safari/537.36",36,"[0.9, 0.5, 0.1]","[0.8, 0.4, 0.2]","[u'red', u'black', u'blue']","[u'left', u'middle', u'right']","[0.9, 0.5, 0.1]","[u'low', u'high', u'medium']","black",50,"middle","high","False","False",98,1500,NA
"AYGGBBDSQP21G","Wed Sep 23 2020 08:05:35 GMT-0700 (Pacific Daylight Time)","Wed Sep 23 2020 08:17:53 GMT-0700 (Pacific Daylight Time)","Mozilla/5.0 (Windows NT 6.1; Win64; x64) AppleWebKit/537.36 (KHTML, like Gecko) Chrome/80.0.3987.100 Safari/537.36",37,"[0.9, 0.5, 0.1]","[0.8, 0.4, 0.2]","[u'red', u'black', u'blue']","[u'left', u'middle', u'right']","[0.9, 0.5, 0.1]","[u'low', u'high', u'medium']","blue",51,"right","medium","True","False",450,1600,NA
"AYGGBBDSQP21G","Wed Sep 23 2020 08:05:35 GMT-0700 (Pacific Daylight Time)","Wed Sep 23 2020 08:17:53 GMT-0700 (Pacific Daylight Time)","Mozilla/5.0 (Windows NT 6.1; Win64; x64) AppleWebKit/537.36 (KHTML, like Gecko) Chrome/80.0.3987.100 Safari/537.36",38,"[0.9, 0.5, 0.1]","[0.8, 0.4, 0.2]","[u'red', u'black', u'blue']","[u'left', u'middle', u'right']","[0.9, 0.5, 0.1]","[u'low', u'high', u'medium']","blue",51,"right","medium","True","False",978,1700,NA
"AYGGBBDSQP21G","Wed Sep 23 2020 08:05:35 GMT-0700 (Pacific Daylight Time)","Wed Sep 23 2020 08:17:53 GMT-0700 (Pacific Daylight Time)","Mozilla/5.0 (Windows NT 6.1; Win64; x64) AppleWebKit/537.36 (KHTML, like Gecko) Chrome/80.0.3987.100 Safari/537.36",39,"[0.9, 0.5, 0.1]","[0.8, 0.4, 0.2]","[u'red', u'black', u'blue']","[u'left', u'middle', u'right']","[0.9, 0.5, 0.1]","[u'low', u'high', u'medium']","blue",51,"right","medium","True","False",355,1800,NA
"AYGGBBDSQP21G","Wed Sep 23 2020 08:05:35 GMT-0700 (Pacific Daylight Time)","Wed Sep 23 2020 08:17:53 GMT-0700 (Pacific Daylight Time)","Mozilla/5.0 (Windows NT 6.1; Win64; x64) AppleWebKit/537.36 (KHTML, like Gecko) Chrome/80.0.3987.100 Safari/537.36",40,"[0.9, 0.5, 0.1]","[0.8, 0.4, 0.2]","[u'red', u'black', u'blue']","[u'left', u'middle', u'right']","[0.9, 0.5, 0.1]","[u'low', u'high', u'medium']","blue",51,"right","medium","False","False",419,1750,NA
"AYGGBBDSQP21G","Wed Sep 23 2020 08:05:35 GMT-0700 (Pacific Daylight Time)","Wed Sep 23 2020 08:17:53 GMT-0700 (Pacific Daylight Time)","Mozilla/5.0 (Windows NT 6.1; Win64; x64) AppleWebKit/537.36 (KHTML, like Gecko) Chrome/80.0.3987.100 Safari/537.36",41,"[0.9, 0.5, 0.1]","[0.8, 0.4, 0.2]","[u'red', u'black', u'blue']","[u'left', u'middle', u'right']","[0.9, 0.5, 0.1]","[u'low', u'medium', u'high']","black",50,"middle","medium","True","False",553,1850,NA
"AYGGBBDSQP21G","Wed Sep 23 2020 08:05:35 GMT-0700 (Pacific Daylight Time)","Wed Sep 23 2020 08:17:53 GMT-0700 (Pacific Daylight Time)","Mozilla/5.0 (Windows NT 6.1; Win64; x64) AppleWebKit/537.36 (KHTML, like Gecko) Chrome/80.0.3987.100 Safari/537.36",42,"[0.9, 0.5, 0.1]","[0.8, 0.4, 0.2]","[u'red', u'black', u'blue']","[u'left', u'middle', u'right']","[0.9, 0.5, 0.1]","[u'low', u'medium', u'high']","blue",51,"right","high","True","False",355,1950,NA
"AYGGBBDSQP21G","Wed Sep 23 2020 08:05:35 GMT-0700 (Pacific Daylight Time)","Wed Sep 23 2020 08:17:53 GMT-0700 (Pacific Daylight Time)","Mozilla/5.0 (Windows NT 6.1; Win64; x64) AppleWebKit/537.36 (KHTML, like Gecko) Chrome/80.0.3987.100 Safari/537.36",43,"[0.9, 0.5, 0.1]","[0.8, 0.4, 0.2]","[u'red', u'black', u'blue']","[u'left', u'middle', u'right']","[0.9, 0.5, 0.1]","[u'low', u'medium', u'high']","black",50,"middle","medium","True","False",307,2050,NA
"AYGGBBDSQP21G","Wed Sep 23 2020 08:05:35 GMT-0700 (Pacific Daylight Time)","Wed Sep 23 2020 08:17:53 GMT-0700 (Pacific Daylight Time)","Mozilla/5.0 (Windows NT 6.1; Win64; x64) AppleWebKit/537.36 (KHTML, like Gecko) Chrome/80.0.3987.100 Safari/537.36",44,"[0.9, 0.5, 0.1]","[0.8, 0.4, 0.2]","[u'red', u'black', u'blue']","[u'left', u'middle', u'right']","[0.9, 0.5, 0.1]","[u'low', u'medium', u'high']","blue",51,"right","high","True","False",371,2150,NA
"AYGGBBDSQP21G","Wed Sep 23 2020 08:05:35 GMT-0700 (Pacific Daylight Time)","Wed Sep 23 2020 08:17:53 GMT-0700 (Pacific Daylight Time)","Mozilla/5.0 (Windows NT 6.1; Win64; x64) AppleWebKit/537.36 (KHTML, like Gecko) Chrome/80.0.3987.100 Safari/537.36",45,"[0.9, 0.5, 0.1]","[0.8, 0.4, 0.2]","[u'red', u'black', u'blue']","[u'left', u'middle', u'right']","[0.9, 0.5, 0.1]","[u'low', u'medium', u'high']","black",50,"middle","medium","True","False",290,2250,NA
"AYGGBBDSQP21G","Wed Sep 23 2020 08:05:35 GMT-0700 (Pacific Daylight Time)","Wed Sep 23 2020 08:17:53 GMT-0700 (Pacific Daylight Time)","Mozilla/5.0 (Windows NT 6.1; Win64; x64) AppleWebKit/537.36 (KHTML, like Gecko) Chrome/80.0.3987.100 Safari/537.36",46,"[0.9, 0.5, 0.1]","[0.8, 0.4, 0.2]","[u'red', u'black', u'blue']","[u'left', u'middle', u'right']","[0.9, 0.5, 0.1]","[u'low', u'medium', u'high']","blue",51,"right","high","True","False",276,2350,NA
"AYGGBBDSQP21G","Wed Sep 23 2020 08:05:35 GMT-0700 (Pacific Daylight Time)","Wed Sep 23 2020 08:17:53 GMT-0700 (Pacific Daylight Time)","Mozilla/5.0 (Windows NT 6.1; Win64; x64) AppleWebKit/537.36 (KHTML, like Gecko) Chrome/80.0.3987.100 Safari/537.36",47,"[0.9, 0.5, 0.1]","[0.8, 0.4, 0.2]","[u'red', u'black', u'blue']","[u'left', u'middle', u'right']","[0.9, 0.5, 0.1]","[u'low', u'medium', u'high']","black",50,"middle","medium","True","False",498,2450,NA
"AYGGBBDSQP21G","Wed Sep 23 2020 08:05:35 GMT-0700 (Pacific Daylight Time)","Wed Sep 23 2020 08:17:53 GMT-0700 (Pacific Daylight Time)","Mozilla/5.0 (Windows NT 6.1; Win64; x64) AppleWebKit/537.36 (KHTML, like Gecko) Chrome/80.0.3987.100 Safari/537.36",48,"[0.9, 0.5, 0.1]","[0.8, 0.4, 0.2]","[u'red', u'black', u'blue']","[u'left', u'middle', u'right']","[0.9, 0.5, 0.1]","[u'low', u'medium', u'high']","blue",51,"right","high","True","False",291,2550,NA
"AYGGBBDSQP21G","Wed Sep 23 2020 08:05:35 GMT-0700 (Pacific Daylight Time)","Wed Sep 23 2020 08:17:53 GMT-0700 (Pacific Daylight Time)","Mozilla/5.0 (Windows NT 6.1; Win64; x64) AppleWebKit/537.36 (KHTML, like Gecko) Chrome/80.0.3987.100 Safari/537.36",49,"[0.9, 0.5, 0.1]","[0.8, 0.4, 0.2]","[u'red', u'black', u'blue']","[u'left', u'middle', u'right']","[0.9, 0.5, 0.1]","[u'low', u'medium', u'high']","black",50,"middle","medium","False","False",243,2500,NA
"AYGGBBDSQP21G","Wed Sep 23 2020 08:05:35 GMT-0700 (Pacific Daylight Time)","Wed Sep 23 2020 08:17:53 GMT-0700 (Pacific Daylight Time)","Mozilla/5.0 (Windows NT 6.1; Win64; x64) AppleWebKit/537.36 (KHTML, like Gecko) Chrome/80.0.3987.100 Safari/537.36",50,"[0.9, 0.5, 0.1]","[0.8, 0.4, 0.2]","[u'red', u'black', u'blue']","[u'left', u'middle', u'right']","[0.9, 0.5, 0.1]","[u'low', u'medium', u'high']","red",49,"left","low","False","False",259,2450,NA
"AYGGBBDSQP21G","Wed Sep 23 2020 08:05:35 GMT-0700 (Pacific Daylight Time)","Wed Sep 23 2020 08:17:53 GMT-0700 (Pacific Daylight Time)","Mozilla/5.0 (Windows NT 6.1; Win64; x64) AppleWebKit/537.36 (KHTML, like Gecko) Chrome/80.0.3987.100 Safari/537.36",51,"[0.9, 0.5, 0.1]","[0.8, 0.4, 0.2]","[u'red', u'black', u'blue']","[u'left', u'middle', u'right']","[0.9, 0.5, 0.1]","[u'low', u'medium', u'high']","blue",51,"right","high","True","False",283,2550,NA
"AYGGBBDSQP21G","Wed Sep 23 2020 08:05:35 GMT-0700 (Pacific Daylight Time)","Wed Sep 23 2020 08:17:53 GMT-0700 (Pacific Daylight Time)","Mozilla/5.0 (Windows NT 6.1; Win64; x64) AppleWebKit/537.36 (KHTML, like Gecko) Chrome/80.0.3987.100 Safari/537.36",52,"[0.9, 0.5, 0.1]","[0.8, 0.4, 0.2]","[u'red', u'black', u'blue']","[u'left', u'middle', u'right']","[0.9, 0.5, 0.1]","[u'low', u'medium', u'high']","black",50,"middle","medium","True","False",299,2650,NA
"AYGGBBDSQP21G","Wed Sep 23 2020 08:05:35 GMT-0700 (Pacific Daylight Time)","Wed Sep 23 2020 08:17:53 GMT-0700 (Pacific Daylight Time)","Mozilla/5.0 (Windows NT 6.1; Win64; x64) AppleWebKit/537.36 (KHTML, like Gecko) Chrome/80.0.3987.100 Safari/537.36",53,"[0.9, 0.5, 0.1]","[0.8, 0.4, 0.2]","[u'red', u'black', u'blue']","[u'left', u'middle', u'right']","[0.9, 0.5, 0.1]","[u'low', u'medium', u'high']","blue",51,"right","high","True","False",291,2750,NA
"AYGGBBDSQP21G","Wed Sep 23 2020 08:05:35 GMT-0700 (Pacific Daylight Time)","Wed Sep 23 2020 08:17:53 GMT-0700 (Pacific Daylight Time)","Mozilla/5.0 (Windows NT 6.1; Win64; x64) AppleWebKit/537.36 (KHTML, like Gecko) Chrome/80.0.3987.100 Safari/537.36",54,"[0.9, 0.5, 0.1]","[0.8, 0.4, 0.2]","[u'red', u'black', u'blue']","[u'left', u'middle', u'right']","[0.9, 0.5, 0.1]","[u'low', u'medium', u'high']","black",50,"middle","medium","False","False",307,2700,NA
"AYGGBBDSQP21G","Wed Sep 23 2020 08:05:35 GMT-0700 (Pacific Daylight Time)","Wed Sep 23 2020 08:17:53 GMT-0700 (Pacific Daylight Time)","Mozilla/5.0 (Windows NT 6.1; Win64; x64) AppleWebKit/537.36 (KHTML, like Gecko) Chrome/80.0.3987.100 Safari/537.36",55,"[0.9, 0.5, 0.1]","[0.8, 0.4, 0.2]","[u'red', u'black', u'blue']","[u'left', u'middle', u'right']","[0.9, 0.5, 0.1]","[u'low', u'medium', u'high']","blue",51,"right","high","True","False",291,2800,NA
"AYGGBBDSQP21G","Wed Sep 23 2020 08:05:35 GMT-0700 (Pacific Daylight Time)","Wed Sep 23 2020 08:17:53 GMT-0700 (Pacific Daylight Time)","Mozilla/5.0 (Windows NT 6.1; Win64; x64) AppleWebKit/537.36 (KHTML, like Gecko) Chrome/80.0.3987.100 Safari/537.36",56,"[0.9, 0.5, 0.1]","[0.8, 0.4, 0.2]","[u'red', u'black', u'blue']","[u'left', u'middle', u'right']","[0.9, 0.5, 0.1]","[u'low', u'medium', u'high']","blue",51,"right","high","True","False",532,2900,NA
"AYGGBBDSQP21G","Wed Sep 23 2020 08:05:35 GMT-0700 (Pacific Daylight Time)","Wed Sep 23 2020 08:17:53 GMT-0700 (Pacific Daylight Time)","Mozilla/5.0 (Windows NT 6.1; Win64; x64) AppleWebKit/537.36 (KHTML, like Gecko) Chrome/80.0.3987.100 Safari/537.36",57,"[0.9, 0.5, 0.1]","[0.8, 0.4, 0.2]","[u'red', u'black', u'blue']","[u'left', u'middle', u'right']","[0.9, 0.5, 0.1]","[u'low', u'medium', u'high']","black",50,"middle","medium","True","False",514,3000,NA
"AYGGBBDSQP21G","Wed Sep 23 2020 08:05:35 GMT-0700 (Pacific Daylight Time)","Wed Sep 23 2020 08:17:53 GMT-0700 (Pacific Daylight Time)","Mozilla/5.0 (Windows NT 6.1; Win64; x64) AppleWebKit/537.36 (KHTML, like Gecko) Chrome/80.0.3987.100 Safari/537.36",58,"[0.9, 0.5, 0.1]","[0.8, 0.4, 0.2]","[u'red', u'black', u'blue']","[u'left', u'middle', u'right']","[0.9, 0.5, 0.1]","[u'low', u'medium', u'high']","blue",51,"right","high","False","False",835,2950,NA
"AYGGBBDSQP21G","Wed Sep 23 2020 08:05:35 GMT-0700 (Pacific Daylight Time)","Wed Sep 23 2020 08:17:53 GMT-0700 (Pacific Daylight Time)","Mozilla/5.0 (Windows NT 6.1; Win64; x64) AppleWebKit/537.36 (KHTML, like Gecko) Chrome/80.0.3987.100 Safari/537.36",59,"[0.9, 0.5, 0.1]","[0.8, 0.4, 0.2]","[u'red', u'black', u'blue']","[u'left', u'middle', u'right']","[0.9, 0.5, 0.1]","[u'low', u'medium', u'high']","black",50,"middle","medium","False","False",273,2900,NA
"AYGGBBDSQP21G","Wed Sep 23 2020 08:05:35 GMT-0700 (Pacific Daylight Time)","Wed Sep 23 2020 08:17:53 GMT-0700 (Pacific Daylight Time)","Mozilla/5.0 (Windows NT 6.1; Win64; x64) AppleWebKit/537.36 (KHTML, like Gecko) Chrome/80.0.3987.100 Safari/537.36",60,"[0.9, 0.5, 0.1]","[0.8, 0.4, 0.2]","[u'red', u'black', u'blue']","[u'left', u'middle', u'right']","[0.9, 0.5, 0.1]","[u'low', u'medium', u'high']","blue",51,"right","high","True","False",242,3000,NA
"AYGGBBDSQP21G","Wed Sep 23 2020 08:05:35 GMT-0700 (Pacific Daylight Time)","Wed Sep 23 2020 08:17:53 GMT-0700 (Pacific Daylight Time)","Mozilla/5.0 (Windows NT 6.1; Win64; x64) AppleWebKit/537.36 (KHTML, like Gecko) Chrome/80.0.3987.100 Safari/537.36",61,"[0.9, 0.5, 0.1]","[0.8, 0.4, 0.2]","[u'red', u'black', u'blue']","[u'left', u'middle', u'right']","[0.9, 0.5, 0.1]","[u'low', u'medium', u'high']","red",49,"left","low","True","False",290,3100,NA
"AYGGBBDSQP21G","Wed Sep 23 2020 08:05:35 GMT-0700 (Pacific Daylight Time)","Wed Sep 23 2020 08:17:53 GMT-0700 (Pacific Daylight Time)","Mozilla/5.0 (Windows NT 6.1; Win64; x64) AppleWebKit/537.36 (KHTML, like Gecko) Chrome/80.0.3987.100 Safari/537.36",62,"[0.9, 0.5, 0.1]","[0.8, 0.4, 0.2]","[u'red', u'black', u'blue']","[u'left', u'middle', u'right']","[0.9, 0.5, 0.1]","[u'low', u'medium', u'high']","blue",51,"right","high","True","False",1298,3200,NA
"AYGGBBDSQP21G","Wed Sep 23 2020 08:05:35 GMT-0700 (Pacific Daylight Time)","Wed Sep 23 2020 08:17:53 GMT-0700 (Pacific Daylight Time)","Mozilla/5.0 (Windows NT 6.1; Win64; x64) AppleWebKit/537.36 (KHTML, like Gecko) Chrome/80.0.3987.100 Safari/537.36",63,"[0.9, 0.5, 0.1]","[0.8, 0.4, 0.2]","[u'red', u'black', u'blue']","[u'left', u'middle', u'right']","[0.9, 0.5, 0.1]","[u'low', u'medium', u'high']","blue",51,"right","high","True","False",371,3300,NA
"AYGGBBDSQP21G","Wed Sep 23 2020 08:05:35 GMT-0700 (Pacific Daylight Time)","Wed Sep 23 2020 08:17:53 GMT-0700 (Pacific Daylight Time)","Mozilla/5.0 (Windows NT 6.1; Win64; x64) AppleWebKit/537.36 (KHTML, like Gecko) Chrome/80.0.3987.100 Safari/537.36",64,"[0.9, 0.5, 0.1]","[0.8, 0.4, 0.2]","[u'red', u'black', u'blue']","[u'left', u'middle', u'right']","[0.9, 0.5, 0.1]","[u'low', u'medium', u'high']","black",50,"middle","medium","True","False",595,3400,NA
"AYGGBBDSQP21G","Wed Sep 23 2020 08:05:35 GMT-0700 (Pacific Daylight Time)","Wed Sep 23 2020 08:17:53 GMT-0700 (Pacific Daylight Time)","Mozilla/5.0 (Windows NT 6.1; Win64; x64) AppleWebKit/537.36 (KHTML, like Gecko) Chrome/80.0.3987.100 Safari/537.36",65,"[0.9, 0.5, 0.1]","[0.8, 0.4, 0.2]","[u'red', u'black', u'blue']","[u'left', u'middle', u'right']","[0.9, 0.5, 0.1]","[u'low', u'medium', u'high']","blue",51,"right","high","True","False",498,3500,NA
"AYGGBBDSQP21G","Wed Sep 23 2020 08:05:35 GMT-0700 (Pacific Daylight Time)","Wed Sep 23 2020 08:17:53 GMT-0700 (Pacific Daylight Time)","Mozilla/5.0 (Windows NT 6.1; Win64; x64) AppleWebKit/537.36 (KHTML, like Gecko) Chrome/80.0.3987.100 Safari/537.36",66,"[0.9, 0.5, 0.1]","[0.8, 0.4, 0.2]","[u'red', u'black', u'blue']","[u'left', u'middle', u'right']","[0.9, 0.5, 0.1]","[u'low', u'medium', u'high']","black",50,"middle","medium","True","False",483,3600,NA
"AYGGBBDSQP21G","Wed Sep 23 2020 08:05:35 GMT-0700 (Pacific Daylight Time)","Wed Sep 23 2020 08:17:53 GMT-0700 (Pacific Daylight Time)","Mozilla/5.0 (Windows NT 6.1; Win64; x64) AppleWebKit/537.36 (KHTML, like Gecko) Chrome/80.0.3987.100 Safari/537.36",67,"[0.9, 0.5, 0.1]","[0.8, 0.4, 0.2]","[u'red', u'black', u'blue']","[u'left', u'middle', u'right']","[0.9, 0.5, 0.1]","[u'low', u'medium', u'high']","blue",51,"right","high","True","False",291,3700,NA
"AYGGBBDSQP21G","Wed Sep 23 2020 08:05:35 GMT-0700 (Pacific Daylight Time)","Wed Sep 23 2020 08:17:53 GMT-0700 (Pacific Daylight Time)","Mozilla/5.0 (Windows NT 6.1; Win64; x64) AppleWebKit/537.36 (KHTML, like Gecko) Chrome/80.0.3987.100 Safari/537.36",68,"[0.9, 0.5, 0.1]","[0.8, 0.4, 0.2]","[u'red', u'black', u'blue']","[u'left', u'middle', u'right']","[0.9, 0.5, 0.1]","[u'low', u'medium', u'high']","black",50,"middle","medium","True","False",243,3800,NA
"AYGGBBDSQP21G","Wed Sep 23 2020 08:05:35 GMT-0700 (Pacific Daylight Time)","Wed Sep 23 2020 08:17:53 GMT-0700 (Pacific Daylight Time)","Mozilla/5.0 (Windows NT 6.1; Win64; x64) AppleWebKit/537.36 (KHTML, like Gecko) Chrome/80.0.3987.100 Safari/537.36",69,"[0.9, 0.5, 0.1]","[0.8, 0.4, 0.2]","[u'red', u'black', u'blue']","[u'left', u'middle', u'right']","[0.9, 0.5, 0.1]","[u'low', u'medium', u'high']","blue",51,"right","high","True","False",243,3900,NA
"AYGGBBDSQP21G","Wed Sep 23 2020 08:05:35 GMT-0700 (Pacific Daylight Time)","Wed Sep 23 2020 08:17:53 GMT-0700 (Pacific Daylight Time)","Mozilla/5.0 (Windows NT 6.1; Win64; x64) AppleWebKit/537.36 (KHTML, like Gecko) Chrome/80.0.3987.100 Safari/537.36",70,"[0.9, 0.5, 0.1]","[0.8, 0.4, 0.2]","[u'red', u'black', u'blue']","[u'left', u'middle', u'right']","[0.9, 0.5, 0.1]","[u'low', u'medium', u'high']","black",50,"middle","medium","False","False",51,3850,NA
"AYGGBBDSQP21G","Wed Sep 23 2020 08:05:35 GMT-0700 (Pacific Daylight Time)","Wed Sep 23 2020 08:17:53 GMT-0700 (Pacific Daylight Time)","Mozilla/5.0 (Windows NT 6.1; Win64; x64) AppleWebKit/537.36 (KHTML, like Gecko) Chrome/80.0.3987.100 Safari/537.36",71,"[0.9, 0.5, 0.1]","[0.8, 0.4, 0.2]","[u'red', u'black', u'blue']","[u'left', u'middle', u'right']","[0.9, 0.5, 0.1]","[u'low', u'medium', u'high']","blue",51,"right","high","True","False",34,3950,NA
"AYGGBBDSQP21G","Wed Sep 23 2020 08:05:35 GMT-0700 (Pacific Daylight Time)","Wed Sep 23 2020 08:17:53 GMT-0700 (Pacific Daylight Time)","Mozilla/5.0 (Windows NT 6.1; Win64; x64) AppleWebKit/537.36 (KHTML, like Gecko) Chrome/80.0.3987.100 Safari/537.36",72,"[0.9, 0.5, 0.1]","[0.8, 0.4, 0.2]","[u'red', u'black', u'blue']","[u'left', u'middle', u'right']","[0.9, 0.5, 0.1]","[u'low', u'medium', u'high']","black",50,"middle","medium","True","False",467,4050,NA
"AYGGBBDSQP21G","Wed Sep 23 2020 08:05:35 GMT-0700 (Pacific Daylight Time)","Wed Sep 23 2020 08:17:53 GMT-0700 (Pacific Daylight Time)","Mozilla/5.0 (Windows NT 6.1; Win64; x64) AppleWebKit/537.36 (KHTML, like Gecko) Chrome/80.0.3987.100 Safari/537.36",73,"[0.9, 0.5, 0.1]","[0.8, 0.4, 0.2]","[u'red', u'black', u'blue']","[u'left', u'middle', u'right']","[0.9, 0.5, 0.1]","[u'low', u'medium', u'high']","blue",51,"right","high","True","False",259,4150,NA
"AYGGBBDSQP21G","Wed Sep 23 2020 08:05:35 GMT-0700 (Pacific Daylight Time)","Wed Sep 23 2020 08:17:53 GMT-0700 (Pacific Daylight Time)","Mozilla/5.0 (Windows NT 6.1; Win64; x64) AppleWebKit/537.36 (KHTML, like Gecko) Chrome/80.0.3987.100 Safari/537.36",74,"[0.9, 0.5, 0.1]","[0.8, 0.4, 0.2]","[u'red', u'black', u'blue']","[u'left', u'middle', u'right']","[0.9, 0.5, 0.1]","[u'low', u'medium', u'high']","black",50,"middle","medium","False","False",323,4100,NA
"AYGGBBDSQP21G","Wed Sep 23 2020 08:05:35 GMT-0700 (Pacific Daylight Time)","Wed Sep 23 2020 08:17:53 GMT-0700 (Pacific Daylight Time)","Mozilla/5.0 (Windows NT 6.1; Win64; x64) AppleWebKit/537.36 (KHTML, like Gecko) Chrome/80.0.3987.100 Safari/537.36",75,"[0.9, 0.5, 0.1]","[0.8, 0.4, 0.2]","[u'red', u'black', u'blue']","[u'left', u'middle', u'right']","[0.9, 0.5, 0.1]","[u'low', u'medium', u'high']","blue",51,"right","high","True","False",370,4200,NA
"AYGGBBDSQP21G","Wed Sep 23 2020 08:05:35 GMT-0700 (Pacific Daylight Time)","Wed Sep 23 2020 08:17:53 GMT-0700 (Pacific Daylight Time)","Mozilla/5.0 (Windows NT 6.1; Win64; x64) AppleWebKit/537.36 (KHTML, like Gecko) Chrome/80.0.3987.100 Safari/537.36",76,"[0.9, 0.5, 0.1]","[0.8, 0.4, 0.2]","[u'red', u'black', u'blue']","[u'left', u'middle', u'right']","[0.9, 0.5, 0.1]","[u'low', u'medium', u'high']","red",49,"left","low","False","False",371,4150,NA
"AYGGBBDSQP21G","Wed Sep 23 2020 08:05:35 GMT-0700 (Pacific Daylight Time)","Wed Sep 23 2020 08:17:53 GMT-0700 (Pacific Daylight Time)","Mozilla/5.0 (Windows NT 6.1; Win64; x64) AppleWebKit/537.36 (KHTML, like Gecko) Chrome/80.0.3987.100 Safari/537.36",77,"[0.9, 0.5, 0.1]","[0.8, 0.4, 0.2]","[u'red', u'black', u'blue']","[u'left', u'middle', u'right']","[0.9, 0.5, 0.1]","[u'low', u'medium', u'high']","black",50,"middle","medium","False","False",354,4100,NA
"AYGGBBDSQP21G","Wed Sep 23 2020 08:05:35 GMT-0700 (Pacific Daylight Time)","Wed Sep 23 2020 08:17:53 GMT-0700 (Pacific Daylight Time)","Mozilla/5.0 (Windows NT 6.1; Win64; x64) AppleWebKit/537.36 (KHTML, like Gecko) Chrome/80.0.3987.100 Safari/537.36",78,"[0.9, 0.5, 0.1]","[0.8, 0.4, 0.2]","[u'red', u'black', u'blue']","[u'left', u'middle', u'right']","[0.9, 0.5, 0.1]","[u'low', u'medium', u'high']","blue",51,"right","high","True","False",243,4200,NA
"AYGGBBDSQP21G","Wed Sep 23 2020 08:05:35 GMT-0700 (Pacific Daylight Time)","Wed Sep 23 2020 08:17:53 GMT-0700 (Pacific Daylight Time)","Mozilla/5.0 (Windows NT 6.1; Win64; x64) AppleWebKit/537.36 (KHTML, like Gecko) Chrome/80.0.3987.100 Safari/537.36",79,"[0.9, 0.5, 0.1]","[0.8, 0.4, 0.2]","[u'red', u'black', u'blue']","[u'left', u'middle', u'right']","[0.9, 0.5, 0.1]","[u'low', u'medium', u'high']","blue",51,"right","high","True","False",338,4300,NA
"AYGGBBDSQP21G","Wed Sep 23 2020 08:05:35 GMT-0700 (Pacific Daylight Time)","Wed Sep 23 2020 08:17:53 GMT-0700 (Pacific Daylight Time)","Mozilla/5.0 (Windows NT 6.1; Win64; x64) AppleWebKit/537.36 (KHTML, like Gecko) Chrome/80.0.3987.100 Safari/537.36",80,"[0.9, 0.5, 0.1]","[0.8, 0.4, 0.2]","[u'red', u'black', u'blue']","[u'left', u'middle', u'right']","[0.9, 0.5, 0.1]","[u'low', u'medium', u'high']","red",49,"left","low","True","False",275,4400,NA
"AYGGBBDSQP21G","Wed Sep 23 2020 08:05:35 GMT-0700 (Pacific Daylight Time)","Wed Sep 23 2020 08:17:53 GMT-0700 (Pacific Daylight Time)","Mozilla/5.0 (Windows NT 6.1; Win64; x64) AppleWebKit/537.36 (KHTML, like Gecko) Chrome/80.0.3987.100 Safari/537.36",81,"[0.9, 0.5, 0.1]","[0.8, 0.4, 0.2]","[u'red', u'black', u'blue']","[u'left', u'middle', u'right']","[0.8, 0.4, 0.2]","[u'medium', u'high', u'low']","black",50,"middle","high","True","False",361,4500,NA
"AYGGBBDSQP21G","Wed Sep 23 2020 08:05:35 GMT-0700 (Pacific Daylight Time)","Wed Sep 23 2020 08:17:53 GMT-0700 (Pacific Daylight Time)","Mozilla/5.0 (Windows NT 6.1; Win64; x64) AppleWebKit/537.36 (KHTML, like Gecko) Chrome/80.0.3987.100 Safari/537.36",82,"[0.9, 0.5, 0.1]","[0.8, 0.4, 0.2]","[u'red', u'black', u'blue']","[u'left', u'middle', u'right']","[0.8, 0.4, 0.2]","[u'medium', u'high', u'low']","blue",51,"right","low","True","False",370,4600,NA
"AYGGBBDSQP21G","Wed Sep 23 2020 08:05:35 GMT-0700 (Pacific Daylight Time)","Wed Sep 23 2020 08:17:53 GMT-0700 (Pacific Daylight Time)","Mozilla/5.0 (Windows NT 6.1; Win64; x64) AppleWebKit/537.36 (KHTML, like Gecko) Chrome/80.0.3987.100 Safari/537.36",83,"[0.9, 0.5, 0.1]","[0.8, 0.4, 0.2]","[u'red', u'black', u'blue']","[u'left', u'middle', u'right']","[0.8, 0.4, 0.2]","[u'medium', u'high', u'low']","black",50,"middle","high","True","False",354,4700,NA
"AYGGBBDSQP21G","Wed Sep 23 2020 08:05:35 GMT-0700 (Pacific Daylight Time)","Wed Sep 23 2020 08:17:53 GMT-0700 (Pacific Daylight Time)","Mozilla/5.0 (Windows NT 6.1; Win64; x64) AppleWebKit/537.36 (KHTML, like Gecko) Chrome/80.0.3987.100 Safari/537.36",84,"[0.9, 0.5, 0.1]","[0.8, 0.4, 0.2]","[u'red', u'black', u'blue']","[u'left', u'middle', u'right']","[0.8, 0.4, 0.2]","[u'medium', u'high', u'low']","blue",51,"right","low","False","False",674,4650,NA
"AYGGBBDSQP21G","Wed Sep 23 2020 08:05:35 GMT-0700 (Pacific Daylight Time)","Wed Sep 23 2020 08:17:53 GMT-0700 (Pacific Daylight Time)","Mozilla/5.0 (Windows NT 6.1; Win64; x64) AppleWebKit/537.36 (KHTML, like Gecko) Chrome/80.0.3987.100 Safari/537.36",85,"[0.9, 0.5, 0.1]","[0.8, 0.4, 0.2]","[u'red', u'black', u'blue']","[u'left', u'middle', u'right']","[0.8, 0.4, 0.2]","[u'medium', u'high', u'low']","black",50,"middle","high","True","False",274,4750,NA
"AYGGBBDSQP21G","Wed Sep 23 2020 08:05:35 GMT-0700 (Pacific Daylight Time)","Wed Sep 23 2020 08:17:53 GMT-0700 (Pacific Daylight Time)","Mozilla/5.0 (Windows NT 6.1; Win64; x64) AppleWebKit/537.36 (KHTML, like Gecko) Chrome/80.0.3987.100 Safari/537.36",86,"[0.9, 0.5, 0.1]","[0.8, 0.4, 0.2]","[u'red', u'black', u'blue']","[u'left', u'middle', u'right']","[0.8, 0.4, 0.2]","[u'medium', u'high', u'low']","red",49,"left","medium","False","False",259,4700,NA
"AYGGBBDSQP21G","Wed Sep 23 2020 08:05:35 GMT-0700 (Pacific Daylight Time)","Wed Sep 23 2020 08:17:53 GMT-0700 (Pacific Daylight Time)","Mozilla/5.0 (Windows NT 6.1; Win64; x64) AppleWebKit/537.36 (KHTML, like Gecko) Chrome/80.0.3987.100 Safari/537.36",87,"[0.9, 0.5, 0.1]","[0.8, 0.4, 0.2]","[u'red', u'black', u'blue']","[u'left', u'middle', u'right']","[0.8, 0.4, 0.2]","[u'medium', u'high', u'low']","black",50,"middle","high","True","False",242,4800,NA
"AYGGBBDSQP21G","Wed Sep 23 2020 08:05:35 GMT-0700 (Pacific Daylight Time)","Wed Sep 23 2020 08:17:53 GMT-0700 (Pacific Daylight Time)","Mozilla/5.0 (Windows NT 6.1; Win64; x64) AppleWebKit/537.36 (KHTML, like Gecko) Chrome/80.0.3987.100 Safari/537.36",88,"[0.9, 0.5, 0.1]","[0.8, 0.4, 0.2]","[u'red', u'black', u'blue']","[u'left', u'middle', u'right']","[0.8, 0.4, 0.2]","[u'medium', u'high', u'low']","blue",51,"right","low","True","False",323,4900,NA
"AYGGBBDSQP21G","Wed Sep 23 2020 08:05:35 GMT-0700 (Pacific Daylight Time)","Wed Sep 23 2020 08:17:53 GMT-0700 (Pacific Daylight Time)","Mozilla/5.0 (Windows NT 6.1; Win64; x64) AppleWebKit/537.36 (KHTML, like Gecko) Chrome/80.0.3987.100 Safari/537.36",89,"[0.9, 0.5, 0.1]","[0.8, 0.4, 0.2]","[u'red', u'black', u'blue']","[u'left', u'middle', u'right']","[0.8, 0.4, 0.2]","[u'medium', u'high', u'low']","black",50,"middle","high","True","False",292,5000,NA
"AYGGBBDSQP21G","Wed Sep 23 2020 08:05:35 GMT-0700 (Pacific Daylight Time)","Wed Sep 23 2020 08:17:53 GMT-0700 (Pacific Daylight Time)","Mozilla/5.0 (Windows NT 6.1; Win64; x64) AppleWebKit/537.36 (KHTML, like Gecko) Chrome/80.0.3987.100 Safari/537.36",90,"[0.9, 0.5, 0.1]","[0.8, 0.4, 0.2]","[u'red', u'black', u'blue']","[u'left', u'middle', u'right']","[0.8, 0.4, 0.2]","[u'medium', u'high', u'low']","blue",51,"right","low","False","False",258,4950,NA
"AYGGBBDSQP21G","Wed Sep 23 2020 08:05:35 GMT-0700 (Pacific Daylight Time)","Wed Sep 23 2020 08:17:53 GMT-0700 (Pacific Daylight Time)","Mozilla/5.0 (Windows NT 6.1; Win64; x64) AppleWebKit/537.36 (KHTML, like Gecko) Chrome/80.0.3987.100 Safari/537.36",91,"[0.9, 0.5, 0.1]","[0.8, 0.4, 0.2]","[u'red', u'black', u'blue']","[u'left', u'middle', u'right']","[0.8, 0.4, 0.2]","[u'medium', u'high', u'low']","red",49,"left","medium","False","False",339,4900,NA
"AYGGBBDSQP21G","Wed Sep 23 2020 08:05:35 GMT-0700 (Pacific Daylight Time)","Wed Sep 23 2020 08:17:53 GMT-0700 (Pacific Daylight Time)","Mozilla/5.0 (Windows NT 6.1; Win64; x64) AppleWebKit/537.36 (KHTML, like Gecko) Chrome/80.0.3987.100 Safari/537.36",92,"[0.9, 0.5, 0.1]","[0.8, 0.4, 0.2]","[u'red', u'black', u'blue']","[u'left', u'middle', u'right']","[0.8, 0.4, 0.2]","[u'medium', u'high', u'low']","black",50,"middle","high","False","False",260,4850,NA
"AYGGBBDSQP21G","Wed Sep 23 2020 08:05:35 GMT-0700 (Pacific Daylight Time)","Wed Sep 23 2020 08:17:53 GMT-0700 (Pacific Daylight Time)","Mozilla/5.0 (Windows NT 6.1; Win64; x64) AppleWebKit/537.36 (KHTML, like Gecko) Chrome/80.0.3987.100 Safari/537.36",93,"[0.9, 0.5, 0.1]","[0.8, 0.4, 0.2]","[u'red', u'black', u'blue']","[u'left', u'middle', u'right']","[0.8, 0.4, 0.2]","[u'medium', u'high', u'low']","blue",51,"right","low","False","False",306,4800,NA
"AYGGBBDSQP21G","Wed Sep 23 2020 08:05:35 GMT-0700 (Pacific Daylight Time)","Wed Sep 23 2020 08:17:53 GMT-0700 (Pacific Daylight Time)","Mozilla/5.0 (Windows NT 6.1; Win64; x64) AppleWebKit/537.36 (KHTML, like Gecko) Chrome/80.0.3987.100 Safari/537.36",94,"[0.9, 0.5, 0.1]","[0.8, 0.4, 0.2]","[u'red', u'black', u'blue']","[u'left', u'middle', u'right']","[0.8, 0.4, 0.2]","[u'medium', u'high', u'low']","black",50,"middle","high","True","False",322,4900,NA
"AYGGBBDSQP21G","Wed Sep 23 2020 08:05:35 GMT-0700 (Pacific Daylight Time)","Wed Sep 23 2020 08:17:53 GMT-0700 (Pacific Daylight Time)","Mozilla/5.0 (Windows NT 6.1; Win64; x64) AppleWebKit/537.36 (KHTML, like Gecko) Chrome/80.0.3987.100 Safari/537.36",95,"[0.9, 0.5, 0.1]","[0.8, 0.4, 0.2]","[u'red', u'black', u'blue']","[u'left', u'middle', u'right']","[0.8, 0.4, 0.2]","[u'medium', u'high', u'low']","blue",51,"right","low","False","False",322,4850,NA
"AYGGBBDSQP21G","Wed Sep 23 2020 08:05:35 GMT-0700 (Pacific Daylight Time)","Wed Sep 23 2020 08:17:53 GMT-0700 (Pacific Daylight Time)","Mozilla/5.0 (Windows NT 6.1; Win64; x64) AppleWebKit/537.36 (KHTML, like Gecko) Chrome/80.0.3987.100 Safari/537.36",96,"[0.9, 0.5, 0.1]","[0.8, 0.4, 0.2]","[u'red', u'black', u'blue']","[u'left', u'middle', u'right']","[0.8, 0.4, 0.2]","[u'medium', u'high', u'low']","black",50,"middle","high","True","False",306,4950,NA
"AYGGBBDSQP21G","Wed Sep 23 2020 08:05:35 GMT-0700 (Pacific Daylight Time)","Wed Sep 23 2020 08:17:53 GMT-0700 (Pacific Daylight Time)","Mozilla/5.0 (Windows NT 6.1; Win64; x64) AppleWebKit/537.36 (KHTML, like Gecko) Chrome/80.0.3987.100 Safari/537.36",97,"[0.9, 0.5, 0.1]","[0.8, 0.4, 0.2]","[u'red', u'black', u'blue']","[u'left', u'middle', u'right']","[0.8, 0.4, 0.2]","[u'medium', u'high', u'low']","red",49,"left","medium","False","False",307,4900,NA
"AYGGBBDSQP21G","Wed Sep 23 2020 08:05:35 GMT-0700 (Pacific Daylight Time)","Wed Sep 23 2020 08:17:53 GMT-0700 (Pacific Daylight Time)","Mozilla/5.0 (Windows NT 6.1; Win64; x64) AppleWebKit/537.36 (KHTML, like Gecko) Chrome/80.0.3987.100 Safari/537.36",98,"[0.9, 0.5, 0.1]","[0.8, 0.4, 0.2]","[u'red', u'black', u'blue']","[u'left', u'middle', u'right']","[0.8, 0.4, 0.2]","[u'medium', u'high', u'low']","black",50,"middle","high","False","False",339,4850,NA
"AYGGBBDSQP21G","Wed Sep 23 2020 08:05:35 GMT-0700 (Pacific Daylight Time)","Wed Sep 23 2020 08:17:53 GMT-0700 (Pacific Daylight Time)","Mozilla/5.0 (Windows NT 6.1; Win64; x64) AppleWebKit/537.36 (KHTML, like Gecko) Chrome/80.0.3987.100 Safari/537.36",99,"[0.9, 0.5, 0.1]","[0.8, 0.4, 0.2]","[u'red', u'black', u'blue']","[u'left', u'middle', u'right']","[0.8, 0.4, 0.2]","[u'medium', u'high', u'low']","blue",51,"right","low","True","False",997,4950,NA
"AYGGBBDSQP21G","Wed Sep 23 2020 08:05:35 GMT-0700 (Pacific Daylight Time)","Wed Sep 23 2020 08:17:53 GMT-0700 (Pacific Daylight Time)","Mozilla/5.0 (Windows NT 6.1; Win64; x64) AppleWebKit/537.36 (KHTML, like Gecko) Chrome/80.0.3987.100 Safari/537.36",100,"[0.9, 0.5, 0.1]","[0.8, 0.4, 0.2]","[u'red', u'black', u'blue']","[u'left', u'middle', u'right']","[0.8, 0.4, 0.2]","[u'medium', u'high', u'low']","blue",51,"right","low","False","False",931,4900,NA
"AYGGBBDSQP21G","Wed Sep 23 2020 08:05:35 GMT-0700 (Pacific Daylight Time)","Wed Sep 23 2020 08:17:53 GMT-0700 (Pacific Daylight Time)","Mozilla/5.0 (Windows NT 6.1; Win64; x64) AppleWebKit/537.36 (KHTML, like Gecko) Chrome/80.0.3987.100 Safari/537.36",101,"[0.9, 0.5, 0.1]","[0.8, 0.4, 0.2]","[u'red', u'black', u'blue']","[u'left', u'middle', u'right']","[0.8, 0.4, 0.2]","[u'medium', u'high', u'low']","black",50,"middle","high","True","False",323,5000,NA
"AYGGBBDSQP21G","Wed Sep 23 2020 08:05:35 GMT-0700 (Pacific Daylight Time)","Wed Sep 23 2020 08:17:53 GMT-0700 (Pacific Daylight Time)","Mozilla/5.0 (Windows NT 6.1; Win64; x64) AppleWebKit/537.36 (KHTML, like Gecko) Chrome/80.0.3987.100 Safari/537.36",102,"[0.9, 0.5, 0.1]","[0.8, 0.4, 0.2]","[u'red', u'black', u'blue']","[u'left', u'middle', u'right']","[0.8, 0.4, 0.2]","[u'medium', u'high', u'low']","blue",51,"right","low","True","False",323,5100,NA
"AYGGBBDSQP21G","Wed Sep 23 2020 08:05:35 GMT-0700 (Pacific Daylight Time)","Wed Sep 23 2020 08:17:53 GMT-0700 (Pacific Daylight Time)","Mozilla/5.0 (Windows NT 6.1; Win64; x64) AppleWebKit/537.36 (KHTML, like Gecko) Chrome/80.0.3987.100 Safari/537.36",103,"[0.9, 0.5, 0.1]","[0.8, 0.4, 0.2]","[u'red', u'black', u'blue']","[u'left', u'middle', u'right']","[0.8, 0.4, 0.2]","[u'medium', u'high', u'low']","black",50,"middle","high","True","False",1315,5200,NA
"AYGGBBDSQP21G","Wed Sep 23 2020 08:05:35 GMT-0700 (Pacific Daylight Time)","Wed Sep 23 2020 08:17:53 GMT-0700 (Pacific Daylight Time)","Mozilla/5.0 (Windows NT 6.1; Win64; x64) AppleWebKit/537.36 (KHTML, like Gecko) Chrome/80.0.3987.100 Safari/537.36",104,"[0.9, 0.5, 0.1]","[0.8, 0.4, 0.2]","[u'red', u'black', u'blue']","[u'left', u'middle', u'right']","[0.8, 0.4, 0.2]","[u'medium', u'high', u'low']","black",50,"middle","high","True","False",1218,5300,NA
"AYGGBBDSQP21G","Wed Sep 23 2020 08:05:35 GMT-0700 (Pacific Daylight Time)","Wed Sep 23 2020 08:17:53 GMT-0700 (Pacific Daylight Time)","Mozilla/5.0 (Windows NT 6.1; Win64; x64) AppleWebKit/537.36 (KHTML, like Gecko) Chrome/80.0.3987.100 Safari/537.36",105,"[0.9, 0.5, 0.1]","[0.8, 0.4, 0.2]","[u'red', u'black', u'blue']","[u'left', u'middle', u'right']","[0.8, 0.4, 0.2]","[u'medium', u'high', u'low']","black",50,"middle","high","True","False",579,5400,NA
"AYGGBBDSQP21G","Wed Sep 23 2020 08:05:35 GMT-0700 (Pacific Daylight Time)","Wed Sep 23 2020 08:17:53 GMT-0700 (Pacific Daylight Time)","Mozilla/5.0 (Windows NT 6.1; Win64; x64) AppleWebKit/537.36 (KHTML, like Gecko) Chrome/80.0.3987.100 Safari/537.36",106,"[0.9, 0.5, 0.1]","[0.8, 0.4, 0.2]","[u'red', u'black', u'blue']","[u'left', u'middle', u'right']","[0.8, 0.4, 0.2]","[u'medium', u'high', u'low']","blue",51,"right","low","False","False",324,5350,NA
"AYGGBBDSQP21G","Wed Sep 23 2020 08:05:35 GMT-0700 (Pacific Daylight Time)","Wed Sep 23 2020 08:17:53 GMT-0700 (Pacific Daylight Time)","Mozilla/5.0 (Windows NT 6.1; Win64; x64) AppleWebKit/537.36 (KHTML, like Gecko) Chrome/80.0.3987.100 Safari/537.36",107,"[0.9, 0.5, 0.1]","[0.8, 0.4, 0.2]","[u'red', u'black', u'blue']","[u'left', u'middle', u'right']","[0.8, 0.4, 0.2]","[u'medium', u'high', u'low']","red",49,"left","medium","True","False",272,5450,NA
"AYGGBBDSQP21G","Wed Sep 23 2020 08:05:35 GMT-0700 (Pacific Daylight Time)","Wed Sep 23 2020 08:17:53 GMT-0700 (Pacific Daylight Time)","Mozilla/5.0 (Windows NT 6.1; Win64; x64) AppleWebKit/537.36 (KHTML, like Gecko) Chrome/80.0.3987.100 Safari/537.36",108,"[0.9, 0.5, 0.1]","[0.8, 0.4, 0.2]","[u'red', u'black', u'blue']","[u'left', u'middle', u'right']","[0.8, 0.4, 0.2]","[u'medium', u'high', u'low']","black",50,"middle","high","True","False",387,5550,NA
"AYGGBBDSQP21G","Wed Sep 23 2020 08:05:35 GMT-0700 (Pacific Daylight Time)","Wed Sep 23 2020 08:17:53 GMT-0700 (Pacific Daylight Time)","Mozilla/5.0 (Windows NT 6.1; Win64; x64) AppleWebKit/537.36 (KHTML, like Gecko) Chrome/80.0.3987.100 Safari/537.36",109,"[0.9, 0.5, 0.1]","[0.8, 0.4, 0.2]","[u'red', u'black', u'blue']","[u'left', u'middle', u'right']","[0.8, 0.4, 0.2]","[u'medium', u'high', u'low']","black",50,"middle","high","True","False",450,5650,NA
"AYGGBBDSQP21G","Wed Sep 23 2020 08:05:35 GMT-0700 (Pacific Daylight Time)","Wed Sep 23 2020 08:17:53 GMT-0700 (Pacific Daylight Time)","Mozilla/5.0 (Windows NT 6.1; Win64; x64) AppleWebKit/537.36 (KHTML, like Gecko) Chrome/80.0.3987.100 Safari/537.36",110,"[0.9, 0.5, 0.1]","[0.8, 0.4, 0.2]","[u'red', u'black', u'blue']","[u'left', u'middle', u'right']","[0.8, 0.4, 0.2]","[u'medium', u'high', u'low']","blue",51,"right","low","False","False",306,5600,NA
"AYGGBBDSQP21G","Wed Sep 23 2020 08:05:35 GMT-0700 (Pacific Daylight Time)","Wed Sep 23 2020 08:17:53 GMT-0700 (Pacific Daylight Time)","Mozilla/5.0 (Windows NT 6.1; Win64; x64) AppleWebKit/537.36 (KHTML, like Gecko) Chrome/80.0.3987.100 Safari/537.36",111,"[0.9, 0.5, 0.1]","[0.8, 0.4, 0.2]","[u'red', u'black', u'blue']","[u'left', u'middle', u'right']","[0.8, 0.4, 0.2]","[u'medium', u'high', u'low']","black",50,"middle","high","True","False",259,5700,NA
"AYGGBBDSQP21G","Wed Sep 23 2020 08:05:35 GMT-0700 (Pacific Daylight Time)","Wed Sep 23 2020 08:17:53 GMT-0700 (Pacific Daylight Time)","Mozilla/5.0 (Windows NT 6.1; Win64; x64) AppleWebKit/537.36 (KHTML, like Gecko) Chrome/80.0.3987.100 Safari/537.36",112,"[0.9, 0.5, 0.1]","[0.8, 0.4, 0.2]","[u'red', u'black', u'blue']","[u'left', u'middle', u'right']","[0.8, 0.4, 0.2]","[u'medium', u'high', u'low']","red",49,"left","medium","False","False",306,5650,NA
"AYGGBBDSQP21G","Wed Sep 23 2020 08:05:35 GMT-0700 (Pacific Daylight Time)","Wed Sep 23 2020 08:17:53 GMT-0700 (Pacific Daylight Time)","Mozilla/5.0 (Windows NT 6.1; Win64; x64) AppleWebKit/537.36 (KHTML, like Gecko) Chrome/80.0.3987.100 Safari/537.36",113,"[0.9, 0.5, 0.1]","[0.8, 0.4, 0.2]","[u'red', u'black', u'blue']","[u'left', u'middle', u'right']","[0.8, 0.4, 0.2]","[u'medium', u'high', u'low']","black",50,"middle","high","True","False",179,5750,NA
"AYGGBBDSQP21G","Wed Sep 23 2020 08:05:35 GMT-0700 (Pacific Daylight Time)","Wed Sep 23 2020 08:17:53 GMT-0700 (Pacific Daylight Time)","Mozilla/5.0 (Windows NT 6.1; Win64; x64) AppleWebKit/537.36 (KHTML, like Gecko) Chrome/80.0.3987.100 Safari/537.36",114,"[0.9, 0.5, 0.1]","[0.8, 0.4, 0.2]","[u'red', u'black', u'blue']","[u'left', u'middle', u'right']","[0.8, 0.4, 0.2]","[u'medium', u'high', u'low']","blue",51,"right","low","False","False",228,5700,NA
"AYGGBBDSQP21G","Wed Sep 23 2020 08:05:35 GMT-0700 (Pacific Daylight Time)","Wed Sep 23 2020 08:17:53 GMT-0700 (Pacific Daylight Time)","Mozilla/5.0 (Windows NT 6.1; Win64; x64) AppleWebKit/537.36 (KHTML, like Gecko) Chrome/80.0.3987.100 Safari/537.36",115,"[0.9, 0.5, 0.1]","[0.8, 0.4, 0.2]","[u'red', u'black', u'blue']","[u'left', u'middle', u'right']","[0.8, 0.4, 0.2]","[u'medium', u'high', u'low']","black",50,"middle","high","True","False",177,5800,NA
"AYGGBBDSQP21G","Wed Sep 23 2020 08:05:35 GMT-0700 (Pacific Daylight Time)","Wed Sep 23 2020 08:17:53 GMT-0700 (Pacific Daylight Time)","Mozilla/5.0 (Windows NT 6.1; Win64; x64) AppleWebKit/537.36 (KHTML, like Gecko) Chrome/80.0.3987.100 Safari/537.36",116,"[0.9, 0.5, 0.1]","[0.8, 0.4, 0.2]","[u'red', u'black', u'blue']","[u'left', u'middle', u'right']","[0.8, 0.4, 0.2]","[u'medium', u'high', u'low']","black",50,"middle","high","True","False",322,5900,NA
"AYGGBBDSQP21G","Wed Sep 23 2020 08:05:35 GMT-0700 (Pacific Daylight Time)","Wed Sep 23 2020 08:17:53 GMT-0700 (Pacific Daylight Time)","Mozilla/5.0 (Windows NT 6.1; Win64; x64) AppleWebKit/537.36 (KHTML, like Gecko) Chrome/80.0.3987.100 Safari/537.36",117,"[0.9, 0.5, 0.1]","[0.8, 0.4, 0.2]","[u'red', u'black', u'blue']","[u'left', u'middle', u'right']","[0.8, 0.4, 0.2]","[u'medium', u'high', u'low']","black",50,"middle","high","True","False",338,6000,NA
"AYGGBBDSQP21G","Wed Sep 23 2020 08:05:35 GMT-0700 (Pacific Daylight Time)","Wed Sep 23 2020 08:17:53 GMT-0700 (Pacific Daylight Time)","Mozilla/5.0 (Windows NT 6.1; Win64; x64) AppleWebKit/537.36 (KHTML, like Gecko) Chrome/80.0.3987.100 Safari/537.36",118,"[0.9, 0.5, 0.1]","[0.8, 0.4, 0.2]","[u'red', u'black', u'blue']","[u'left', u'middle', u'right']","[0.8, 0.4, 0.2]","[u'medium', u'high', u'low']","blue",51,"right","low","False","False",306,5950,NA
"AYGGBBDSQP21G","Wed Sep 23 2020 08:05:35 GMT-0700 (Pacific Daylight Time)","Wed Sep 23 2020 08:17:53 GMT-0700 (Pacific Daylight Time)","Mozilla/5.0 (Windows NT 6.1; Win64; x64) AppleWebKit/537.36 (KHTML, like Gecko) Chrome/80.0.3987.100 Safari/537.36",119,"[0.9, 0.5, 0.1]","[0.8, 0.4, 0.2]","[u'red', u'black', u'blue']","[u'left', u'middle', u'right']","[0.8, 0.4, 0.2]","[u'medium', u'high', u'low']","black",50,"middle","high","True","False",210,6050,NA
"AYGGBBDSQP21G","Wed Sep 23 2020 08:05:35 GMT-0700 (Pacific Daylight Time)","Wed Sep 23 2020 08:17:53 GMT-0700 (Pacific Daylight Time)","Mozilla/5.0 (Windows NT 6.1; Win64; x64) AppleWebKit/537.36 (KHTML, like Gecko) Chrome/80.0.3987.100 Safari/537.36",120,"[0.9, 0.5, 0.1]","[0.8, 0.4, 0.2]","[u'red', u'black', u'blue']","[u'left', u'middle', u'right']","[0.8, 0.4, 0.2]","[u'medium', u'high', u'low']","blue",51,"right","low","False","False",339,6000,NA
"AYGGBBDSQP21G","Wed Sep 23 2020 08:05:35 GMT-0700 (Pacific Daylight Time)","Wed Sep 23 2020 08:17:53 GMT-0700 (Pacific Daylight Time)","Mozilla/5.0 (Windows NT 6.1; Win64; x64) AppleWebKit/537.36 (KHTML, like Gecko) Chrome/80.0.3987.100 Safari/537.36",121,"[0.9, 0.5, 0.1]","[0.8, 0.4, 0.2]","[u'red', u'black', u'blue']","[u'left', u'middle', u'right']","[0.8, 0.4, 0.2]","[u'medium', u'low', u'high']","black",50,"middle","low","False","False",459,5950,NA
"AYGGBBDSQP21G","Wed Sep 23 2020 08:05:35 GMT-0700 (Pacific Daylight Time)","Wed Sep 23 2020 08:17:53 GMT-0700 (Pacific Daylight Time)","Mozilla/5.0 (Windows NT 6.1; Win64; x64) AppleWebKit/537.36 (KHTML, like Gecko) Chrome/80.0.3987.100 Safari/537.36",122,"[0.9, 0.5, 0.1]","[0.8, 0.4, 0.2]","[u'red', u'black', u'blue']","[u'left', u'middle', u'right']","[0.8, 0.4, 0.2]","[u'medium', u'low', u'high']","red",49,"left","medium","False","False",259,5900,NA
"AYGGBBDSQP21G","Wed Sep 23 2020 08:05:35 GMT-0700 (Pacific Daylight Time)","Wed Sep 23 2020 08:17:53 GMT-0700 (Pacific Daylight Time)","Mozilla/5.0 (Windows NT 6.1; Win64; x64) AppleWebKit/537.36 (KHTML, like Gecko) Chrome/80.0.3987.100 Safari/537.36",123,"[0.9, 0.5, 0.1]","[0.8, 0.4, 0.2]","[u'red', u'black', u'blue']","[u'left', u'middle', u'right']","[0.8, 0.4, 0.2]","[u'medium', u'low', u'high']","blue",51,"right","high","True","False",243,6000,NA
"AYGGBBDSQP21G","Wed Sep 23 2020 08:05:35 GMT-0700 (Pacific Daylight Time)","Wed Sep 23 2020 08:17:53 GMT-0700 (Pacific Daylight Time)","Mozilla/5.0 (Windows NT 6.1; Win64; x64) AppleWebKit/537.36 (KHTML, like Gecko) Chrome/80.0.3987.100 Safari/537.36",124,"[0.9, 0.5, 0.1]","[0.8, 0.4, 0.2]","[u'red', u'black', u'blue']","[u'left', u'middle', u'right']","[0.8, 0.4, 0.2]","[u'medium', u'low', u'high']","black",50,"middle","low","True","False",308,6100,NA
"AYGGBBDSQP21G","Wed Sep 23 2020 08:05:35 GMT-0700 (Pacific Daylight Time)","Wed Sep 23 2020 08:17:53 GMT-0700 (Pacific Daylight Time)","Mozilla/5.0 (Windows NT 6.1; Win64; x64) AppleWebKit/537.36 (KHTML, like Gecko) Chrome/80.0.3987.100 Safari/537.36",125,"[0.9, 0.5, 0.1]","[0.8, 0.4, 0.2]","[u'red', u'black', u'blue']","[u'left', u'middle', u'right']","[0.8, 0.4, 0.2]","[u'medium', u'low', u'high']","blue",51,"right","high","True","False",258,6200,NA
"AYGGBBDSQP21G","Wed Sep 23 2020 08:05:35 GMT-0700 (Pacific Daylight Time)","Wed Sep 23 2020 08:17:53 GMT-0700 (Pacific Daylight Time)","Mozilla/5.0 (Windows NT 6.1; Win64; x64) AppleWebKit/537.36 (KHTML, like Gecko) Chrome/80.0.3987.100 Safari/537.36",126,"[0.9, 0.5, 0.1]","[0.8, 0.4, 0.2]","[u'red', u'black', u'blue']","[u'left', u'middle', u'right']","[0.8, 0.4, 0.2]","[u'medium', u'low', u'high']","black",50,"middle","low","True","False",147,6300,NA
"AYGGBBDSQP21G","Wed Sep 23 2020 08:05:35 GMT-0700 (Pacific Daylight Time)","Wed Sep 23 2020 08:17:53 GMT-0700 (Pacific Daylight Time)","Mozilla/5.0 (Windows NT 6.1; Win64; x64) AppleWebKit/537.36 (KHTML, like Gecko) Chrome/80.0.3987.100 Safari/537.36",127,"[0.9, 0.5, 0.1]","[0.8, 0.4, 0.2]","[u'red', u'black', u'blue']","[u'left', u'middle', u'right']","[0.8, 0.4, 0.2]","[u'medium', u'low', u'high']","blue",51,"right","high","True","False",259,6400,NA
"AYGGBBDSQP21G","Wed Sep 23 2020 08:05:35 GMT-0700 (Pacific Daylight Time)","Wed Sep 23 2020 08:17:53 GMT-0700 (Pacific Daylight Time)","Mozilla/5.0 (Windows NT 6.1; Win64; x64) AppleWebKit/537.36 (KHTML, like Gecko) Chrome/80.0.3987.100 Safari/537.36",128,"[0.9, 0.5, 0.1]","[0.8, 0.4, 0.2]","[u'red', u'black', u'blue']","[u'left', u'middle', u'right']","[0.8, 0.4, 0.2]","[u'medium', u'low', u'high']","black",50,"middle","low","False","False",306,6350,NA
"AYGGBBDSQP21G","Wed Sep 23 2020 08:05:35 GMT-0700 (Pacific Daylight Time)","Wed Sep 23 2020 08:17:53 GMT-0700 (Pacific Daylight Time)","Mozilla/5.0 (Windows NT 6.1; Win64; x64) AppleWebKit/537.36 (KHTML, like Gecko) Chrome/80.0.3987.100 Safari/537.36",129,"[0.9, 0.5, 0.1]","[0.8, 0.4, 0.2]","[u'red', u'black', u'blue']","[u'left', u'middle', u'right']","[0.8, 0.4, 0.2]","[u'medium', u'low', u'high']","red",49,"left","medium","False","False",259,6300,NA
"AYGGBBDSQP21G","Wed Sep 23 2020 08:05:35 GMT-0700 (Pacific Daylight Time)","Wed Sep 23 2020 08:17:53 GMT-0700 (Pacific Daylight Time)","Mozilla/5.0 (Windows NT 6.1; Win64; x64) AppleWebKit/537.36 (KHTML, like Gecko) Chrome/80.0.3987.100 Safari/537.36",130,"[0.9, 0.5, 0.1]","[0.8, 0.4, 0.2]","[u'red', u'black', u'blue']","[u'left', u'middle', u'right']","[0.8, 0.4, 0.2]","[u'medium', u'low', u'high']","blue",51,"right","high","True","False",323,6400,NA
"AYGGBBDSQP21G","Wed Sep 23 2020 08:05:35 GMT-0700 (Pacific Daylight Time)","Wed Sep 23 2020 08:17:53 GMT-0700 (Pacific Daylight Time)","Mozilla/5.0 (Windows NT 6.1; Win64; x64) AppleWebKit/537.36 (KHTML, like Gecko) Chrome/80.0.3987.100 Safari/537.36",131,"[0.9, 0.5, 0.1]","[0.8, 0.4, 0.2]","[u'red', u'black', u'blue']","[u'left', u'middle', u'right']","[0.8, 0.4, 0.2]","[u'medium', u'low', u'high']","black",50,"middle","low","True","False",259,6500,NA
"AYGGBBDSQP21G","Wed Sep 23 2020 08:05:35 GMT-0700 (Pacific Daylight Time)","Wed Sep 23 2020 08:17:53 GMT-0700 (Pacific Daylight Time)","Mozilla/5.0 (Windows NT 6.1; Win64; x64) AppleWebKit/537.36 (KHTML, like Gecko) Chrome/80.0.3987.100 Safari/537.36",132,"[0.9, 0.5, 0.1]","[0.8, 0.4, 0.2]","[u'red', u'black', u'blue']","[u'left', u'middle', u'right']","[0.8, 0.4, 0.2]","[u'medium', u'low', u'high']","blue",51,"right","high","False","False",224,6450,NA
"AYGGBBDSQP21G","Wed Sep 23 2020 08:05:35 GMT-0700 (Pacific Daylight Time)","Wed Sep 23 2020 08:17:53 GMT-0700 (Pacific Daylight Time)","Mozilla/5.0 (Windows NT 6.1; Win64; x64) AppleWebKit/537.36 (KHTML, like Gecko) Chrome/80.0.3987.100 Safari/537.36",133,"[0.9, 0.5, 0.1]","[0.8, 0.4, 0.2]","[u'red', u'black', u'blue']","[u'left', u'middle', u'right']","[0.8, 0.4, 0.2]","[u'medium', u'low', u'high']","black",50,"middle","low","False","False",227,6400,NA
"AYGGBBDSQP21G","Wed Sep 23 2020 08:05:35 GMT-0700 (Pacific Daylight Time)","Wed Sep 23 2020 08:17:53 GMT-0700 (Pacific Daylight Time)","Mozilla/5.0 (Windows NT 6.1; Win64; x64) AppleWebKit/537.36 (KHTML, like Gecko) Chrome/80.0.3987.100 Safari/537.36",134,"[0.9, 0.5, 0.1]","[0.8, 0.4, 0.2]","[u'red', u'black', u'blue']","[u'left', u'middle', u'right']","[0.8, 0.4, 0.2]","[u'medium', u'low', u'high']","red",49,"left","medium","False","False",226,6350,NA
"AYGGBBDSQP21G","Wed Sep 23 2020 08:05:35 GMT-0700 (Pacific Daylight Time)","Wed Sep 23 2020 08:17:53 GMT-0700 (Pacific Daylight Time)","Mozilla/5.0 (Windows NT 6.1; Win64; x64) AppleWebKit/537.36 (KHTML, like Gecko) Chrome/80.0.3987.100 Safari/537.36",135,"[0.9, 0.5, 0.1]","[0.8, 0.4, 0.2]","[u'red', u'black', u'blue']","[u'left', u'middle', u'right']","[0.8, 0.4, 0.2]","[u'medium', u'low', u'high']","blue",51,"right","high","True","False",242,6450,NA
"AYGGBBDSQP21G","Wed Sep 23 2020 08:05:35 GMT-0700 (Pacific Daylight Time)","Wed Sep 23 2020 08:17:53 GMT-0700 (Pacific Daylight Time)","Mozilla/5.0 (Windows NT 6.1; Win64; x64) AppleWebKit/537.36 (KHTML, like Gecko) Chrome/80.0.3987.100 Safari/537.36",136,"[0.9, 0.5, 0.1]","[0.8, 0.4, 0.2]","[u'red', u'black', u'blue']","[u'left', u'middle', u'right']","[0.8, 0.4, 0.2]","[u'medium', u'low', u'high']","black",50,"middle","low","False","False",256,6400,NA
"AYGGBBDSQP21G","Wed Sep 23 2020 08:05:35 GMT-0700 (Pacific Daylight Time)","Wed Sep 23 2020 08:17:53 GMT-0700 (Pacific Daylight Time)","Mozilla/5.0 (Windows NT 6.1; Win64; x64) AppleWebKit/537.36 (KHTML, like Gecko) Chrome/80.0.3987.100 Safari/537.36",137,"[0.9, 0.5, 0.1]","[0.8, 0.4, 0.2]","[u'red', u'black', u'blue']","[u'left', u'middle', u'right']","[0.8, 0.4, 0.2]","[u'medium', u'low', u'high']","blue",51,"right","high","True","False",258,6500,NA
"AYGGBBDSQP21G","Wed Sep 23 2020 08:05:35 GMT-0700 (Pacific Daylight Time)","Wed Sep 23 2020 08:17:53 GMT-0700 (Pacific Daylight Time)","Mozilla/5.0 (Windows NT 6.1; Win64; x64) AppleWebKit/537.36 (KHTML, like Gecko) Chrome/80.0.3987.100 Safari/537.36",138,"[0.9, 0.5, 0.1]","[0.8, 0.4, 0.2]","[u'red', u'black', u'blue']","[u'left', u'middle', u'right']","[0.8, 0.4, 0.2]","[u'medium', u'low', u'high']","black",50,"middle","low","False","False",340,6450,NA
"AYGGBBDSQP21G","Wed Sep 23 2020 08:05:35 GMT-0700 (Pacific Daylight Time)","Wed Sep 23 2020 08:17:53 GMT-0700 (Pacific Daylight Time)","Mozilla/5.0 (Windows NT 6.1; Win64; x64) AppleWebKit/537.36 (KHTML, like Gecko) Chrome/80.0.3987.100 Safari/537.36",139,"[0.9, 0.5, 0.1]","[0.8, 0.4, 0.2]","[u'red', u'black', u'blue']","[u'left', u'middle', u'right']","[0.8, 0.4, 0.2]","[u'medium', u'low', u'high']","red",49,"left","medium","True","False",274,6550,NA
"AYGGBBDSQP21G","Wed Sep 23 2020 08:05:35 GMT-0700 (Pacific Daylight Time)","Wed Sep 23 2020 08:17:53 GMT-0700 (Pacific Daylight Time)","Mozilla/5.0 (Windows NT 6.1; Win64; x64) AppleWebKit/537.36 (KHTML, like Gecko) Chrome/80.0.3987.100 Safari/537.36",140,"[0.9, 0.5, 0.1]","[0.8, 0.4, 0.2]","[u'red', u'black', u'blue']","[u'left', u'middle', u'right']","[0.8, 0.4, 0.2]","[u'medium', u'low', u'high']","red",49,"left","medium","False","False",387,6500,NA
"AYGGBBDSQP21G","Wed Sep 23 2020 08:05:35 GMT-0700 (Pacific Daylight Time)","Wed Sep 23 2020 08:17:53 GMT-0700 (Pacific Daylight Time)","Mozilla/5.0 (Windows NT 6.1; Win64; x64) AppleWebKit/537.36 (KHTML, like Gecko) Chrome/80.0.3987.100 Safari/537.36",141,"[0.9, 0.5, 0.1]","[0.8, 0.4, 0.2]","[u'red', u'black', u'blue']","[u'left', u'middle', u'right']","[0.8, 0.4, 0.2]","[u'medium', u'low', u'high']","blue",51,"right","high","False","False",292,6450,NA
"AYGGBBDSQP21G","Wed Sep 23 2020 08:05:35 GMT-0700 (Pacific Daylight Time)","Wed Sep 23 2020 08:17:53 GMT-0700 (Pacific Daylight Time)","Mozilla/5.0 (Windows NT 6.1; Win64; x64) AppleWebKit/537.36 (KHTML, like Gecko) Chrome/80.0.3987.100 Safari/537.36",142,"[0.9, 0.5, 0.1]","[0.8, 0.4, 0.2]","[u'red', u'black', u'blue']","[u'left', u'middle', u'right']","[0.8, 0.4, 0.2]","[u'medium', u'low', u'high']","black",50,"middle","low","True","False",546,6550,NA
"AYGGBBDSQP21G","Wed Sep 23 2020 08:05:35 GMT-0700 (Pacific Daylight Time)","Wed Sep 23 2020 08:17:53 GMT-0700 (Pacific Daylight Time)","Mozilla/5.0 (Windows NT 6.1; Win64; x64) AppleWebKit/537.36 (KHTML, like Gecko) Chrome/80.0.3987.100 Safari/537.36",143,"[0.9, 0.5, 0.1]","[0.8, 0.4, 0.2]","[u'red', u'black', u'blue']","[u'left', u'middle', u'right']","[0.8, 0.4, 0.2]","[u'medium', u'low', u'high']","blue",51,"right","high","True","False",291,6650,NA
"AYGGBBDSQP21G","Wed Sep 23 2020 08:05:35 GMT-0700 (Pacific Daylight Time)","Wed Sep 23 2020 08:17:53 GMT-0700 (Pacific Daylight Time)","Mozilla/5.0 (Windows NT 6.1; Win64; x64) AppleWebKit/537.36 (KHTML, like Gecko) Chrome/80.0.3987.100 Safari/537.36",144,"[0.9, 0.5, 0.1]","[0.8, 0.4, 0.2]","[u'red', u'black', u'blue']","[u'left', u'middle', u'right']","[0.8, 0.4, 0.2]","[u'medium', u'low', u'high']","blue",51,"right","high","True","False",226,6750,NA
"AYGGBBDSQP21G","Wed Sep 23 2020 08:05:35 GMT-0700 (Pacific Daylight Time)","Wed Sep 23 2020 08:17:53 GMT-0700 (Pacific Daylight Time)","Mozilla/5.0 (Windows NT 6.1; Win64; x64) AppleWebKit/537.36 (KHTML, like Gecko) Chrome/80.0.3987.100 Safari/537.36",145,"[0.9, 0.5, 0.1]","[0.8, 0.4, 0.2]","[u'red', u'black', u'blue']","[u'left', u'middle', u'right']","[0.8, 0.4, 0.2]","[u'medium', u'low', u'high']","blue",51,"right","high","True","False",179,6850,NA
"AYGGBBDSQP21G","Wed Sep 23 2020 08:05:35 GMT-0700 (Pacific Daylight Time)","Wed Sep 23 2020 08:17:53 GMT-0700 (Pacific Daylight Time)","Mozilla/5.0 (Windows NT 6.1; Win64; x64) AppleWebKit/537.36 (KHTML, like Gecko) Chrome/80.0.3987.100 Safari/537.36",146,"[0.9, 0.5, 0.1]","[0.8, 0.4, 0.2]","[u'red', u'black', u'blue']","[u'left', u'middle', u'right']","[0.8, 0.4, 0.2]","[u'medium', u'low', u'high']","blue",51,"right","high","True","False",243,6950,NA
"AYGGBBDSQP21G","Wed Sep 23 2020 08:05:35 GMT-0700 (Pacific Daylight Time)","Wed Sep 23 2020 08:17:53 GMT-0700 (Pacific Daylight Time)","Mozilla/5.0 (Windows NT 6.1; Win64; x64) AppleWebKit/537.36 (KHTML, like Gecko) Chrome/80.0.3987.100 Safari/537.36",147,"[0.9, 0.5, 0.1]","[0.8, 0.4, 0.2]","[u'red', u'black', u'blue']","[u'left', u'middle', u'right']","[0.8, 0.4, 0.2]","[u'medium', u'low', u'high']","black",50,"middle","low","False","False",99,6900,NA
"AYGGBBDSQP21G","Wed Sep 23 2020 08:05:35 GMT-0700 (Pacific Daylight Time)","Wed Sep 23 2020 08:17:53 GMT-0700 (Pacific Daylight Time)","Mozilla/5.0 (Windows NT 6.1; Win64; x64) AppleWebKit/537.36 (KHTML, like Gecko) Chrome/80.0.3987.100 Safari/537.36",148,"[0.9, 0.5, 0.1]","[0.8, 0.4, 0.2]","[u'red', u'black', u'blue']","[u'left', u'middle', u'right']","[0.8, 0.4, 0.2]","[u'medium', u'low', u'high']","blue",51,"right","high","True","False",163,7000,NA
"AYGGBBDSQP21G","Wed Sep 23 2020 08:05:35 GMT-0700 (Pacific Daylight Time)","Wed Sep 23 2020 08:17:53 GMT-0700 (Pacific Daylight Time)","Mozilla/5.0 (Windows NT 6.1; Win64; x64) AppleWebKit/537.36 (KHTML, like Gecko) Chrome/80.0.3987.100 Safari/537.36",149,"[0.9, 0.5, 0.1]","[0.8, 0.4, 0.2]","[u'red', u'black', u'blue']","[u'left', u'middle', u'right']","[0.8, 0.4, 0.2]","[u'medium', u'low', u'high']","blue",51,"right","high","True","False",226,7100,NA
"AYGGBBDSQP21G","Wed Sep 23 2020 08:05:35 GMT-0700 (Pacific Daylight Time)","Wed Sep 23 2020 08:17:53 GMT-0700 (Pacific Daylight Time)","Mozilla/5.0 (Windows NT 6.1; Win64; x64) AppleWebKit/537.36 (KHTML, like Gecko) Chrome/80.0.3987.100 Safari/537.36",150,"[0.9, 0.5, 0.1]","[0.8, 0.4, 0.2]","[u'red', u'black', u'blue']","[u'left', u'middle', u'right']","[0.8, 0.4, 0.2]","[u'medium', u'low', u'high']","blue",51,"right","high","True","False",179,7200,NA
"AYGGBBDSQP21G","Wed Sep 23 2020 08:05:35 GMT-0700 (Pacific Daylight Time)","Wed Sep 23 2020 08:17:53 GMT-0700 (Pacific Daylight Time)","Mozilla/5.0 (Windows NT 6.1; Win64; x64) AppleWebKit/537.36 (KHTML, like Gecko) Chrome/80.0.3987.100 Safari/537.36",151,"[0.9, 0.5, 0.1]","[0.8, 0.4, 0.2]","[u'red', u'black', u'blue']","[u'left', u'middle', u'right']","[0.8, 0.4, 0.2]","[u'medium', u'low', u'high']","blue",51,"right","high","True","False",18,7300,NA
"AYGGBBDSQP21G","Wed Sep 23 2020 08:05:35 GMT-0700 (Pacific Daylight Time)","Wed Sep 23 2020 08:17:53 GMT-0700 (Pacific Daylight Time)","Mozilla/5.0 (Windows NT 6.1; Win64; x64) AppleWebKit/537.36 (KHTML, like Gecko) Chrome/80.0.3987.100 Safari/537.36",152,"[0.9, 0.5, 0.1]","[0.8, 0.4, 0.2]","[u'red', u'black', u'blue']","[u'left', u'middle', u'right']","[0.8, 0.4, 0.2]","[u'medium', u'low', u'high']","blue",51,"right","high","True","False",67,7400,NA
"AYGGBBDSQP21G","Wed Sep 23 2020 08:05:35 GMT-0700 (Pacific Daylight Time)","Wed Sep 23 2020 08:17:53 GMT-0700 (Pacific Daylight Time)","Mozilla/5.0 (Windows NT 6.1; Win64; x64) AppleWebKit/537.36 (KHTML, like Gecko) Chrome/80.0.3987.100 Safari/537.36",153,"[0.9, 0.5, 0.1]","[0.8, 0.4, 0.2]","[u'red', u'black', u'blue']","[u'left', u'middle', u'right']","[0.8, 0.4, 0.2]","[u'medium', u'low', u'high']","red",49,"left","medium","False","False",883,7350,NA
"AYGGBBDSQP21G","Wed Sep 23 2020 08:05:35 GMT-0700 (Pacific Daylight Time)","Wed Sep 23 2020 08:17:53 GMT-0700 (Pacific Daylight Time)","Mozilla/5.0 (Windows NT 6.1; Win64; x64) AppleWebKit/537.36 (KHTML, like Gecko) Chrome/80.0.3987.100 Safari/537.36",154,"[0.9, 0.5, 0.1]","[0.8, 0.4, 0.2]","[u'red', u'black', u'blue']","[u'left', u'middle', u'right']","[0.8, 0.4, 0.2]","[u'medium', u'low', u'high']","blue",51,"right","high","True","False",307,7450,NA
"AYGGBBDSQP21G","Wed Sep 23 2020 08:05:35 GMT-0700 (Pacific Daylight Time)","Wed Sep 23 2020 08:17:53 GMT-0700 (Pacific Daylight Time)","Mozilla/5.0 (Windows NT 6.1; Win64; x64) AppleWebKit/537.36 (KHTML, like Gecko) Chrome/80.0.3987.100 Safari/537.36",155,"[0.9, 0.5, 0.1]","[0.8, 0.4, 0.2]","[u'red', u'black', u'blue']","[u'left', u'middle', u'right']","[0.8, 0.4, 0.2]","[u'medium', u'low', u'high']","black",50,"middle","low","True","False",291,7550,NA
"AYGGBBDSQP21G","Wed Sep 23 2020 08:05:35 GMT-0700 (Pacific Daylight Time)","Wed Sep 23 2020 08:17:53 GMT-0700 (Pacific Daylight Time)","Mozilla/5.0 (Windows NT 6.1; Win64; x64) AppleWebKit/537.36 (KHTML, like Gecko) Chrome/80.0.3987.100 Safari/537.36",156,"[0.9, 0.5, 0.1]","[0.8, 0.4, 0.2]","[u'red', u'black', u'blue']","[u'left', u'middle', u'right']","[0.8, 0.4, 0.2]","[u'medium', u'low', u'high']","blue",51,"right","high","True","False",82,7650,NA
"AYGGBBDSQP21G","Wed Sep 23 2020 08:05:35 GMT-0700 (Pacific Daylight Time)","Wed Sep 23 2020 08:17:53 GMT-0700 (Pacific Daylight Time)","Mozilla/5.0 (Windows NT 6.1; Win64; x64) AppleWebKit/537.36 (KHTML, like Gecko) Chrome/80.0.3987.100 Safari/537.36",157,"[0.9, 0.5, 0.1]","[0.8, 0.4, 0.2]","[u'red', u'black', u'blue']","[u'left', u'middle', u'right']","[0.8, 0.4, 0.2]","[u'medium', u'low', u'high']","blue",51,"right","high","True","False",195,7750,NA
"AYGGBBDSQP21G","Wed Sep 23 2020 08:05:35 GMT-0700 (Pacific Daylight Time)","Wed Sep 23 2020 08:17:53 GMT-0700 (Pacific Daylight Time)","Mozilla/5.0 (Windows NT 6.1; Win64; x64) AppleWebKit/537.36 (KHTML, like Gecko) Chrome/80.0.3987.100 Safari/537.36",158,"[0.9, 0.5, 0.1]","[0.8, 0.4, 0.2]","[u'red', u'black', u'blue']","[u'left', u'middle', u'right']","[0.8, 0.4, 0.2]","[u'medium', u'low', u'high']","blue",51,"right","high","True","False",146,7850,NA
"AYGGBBDSQP21G","Wed Sep 23 2020 08:05:35 GMT-0700 (Pacific Daylight Time)","Wed Sep 23 2020 08:17:53 GMT-0700 (Pacific Daylight Time)","Mozilla/5.0 (Windows NT 6.1; Win64; x64) AppleWebKit/537.36 (KHTML, like Gecko) Chrome/80.0.3987.100 Safari/537.36",159,"[0.9, 0.5, 0.1]","[0.8, 0.4, 0.2]","[u'red', u'black', u'blue']","[u'left', u'middle', u'right']","[0.8, 0.4, 0.2]","[u'medium', u'low', u'high']","blue",51,"right","high","False","False",117,7800,NA
"AYGGBBDSQP21G","Wed Sep 23 2020 08:05:35 GMT-0700 (Pacific Daylight Time)","Wed Sep 23 2020 08:17:53 GMT-0700 (Pacific Daylight Time)","Mozilla/5.0 (Windows NT 6.1; Win64; x64) AppleWebKit/537.36 (KHTML, like Gecko) Chrome/80.0.3987.100 Safari/537.36",160,"[0.9, 0.5, 0.1]","[0.8, 0.4, 0.2]","[u'red', u'black', u'blue']","[u'left', u'middle', u'right']","[0.8, 0.4, 0.2]","[u'medium', u'low', u'high']","black",50,"middle","low","False","False",256,7750,NA
