"src_subject_id","start_time","end_time","browser","index","first_half_probabilities","second_half_probabilities","deck_color","deck_position","deck_probabilities","deck_contingencies","response_color","key_press","response_position","response_probability","reward_type","trial_type","rt","reward_tally","exclusion_reason"
"A39C1BN9ZSQ0R2","Wed Sep 23 2020 11:03:50 GMT-0400 (Eastern Daylight Time)","Wed Sep 23 2020 11:10:23 GMT-0400 (Eastern Daylight Time)","Mozilla/5.0 (Windows NT 6.3; Win64; x64) AppleWebKit/537.36 (KHTML, like Gecko) Chrome/85.0.4183.121 Safari/537.36",1,"[0.9, 0.5, 0.1]","[0.8, 0.4, 0.2]","[u'black', u'red', u'blue']","[u'left', u'middle', u'right']","[0.9, 0.5, 0.1]","[u'medium', u'low', u'high']","black",49,"left","medium","False","False",1323,-50,NA
"A39C1BN9ZSQ0R2","Wed Sep 23 2020 11:03:50 GMT-0400 (Eastern Daylight Time)","Wed Sep 23 2020 11:10:23 GMT-0400 (Eastern Daylight Time)","Mozilla/5.0 (Windows NT 6.3; Win64; x64) AppleWebKit/537.36 (KHTML, like Gecko) Chrome/85.0.4183.121 Safari/537.36",2,"[0.9, 0.5, 0.1]","[0.8, 0.4, 0.2]","[u'black', u'red', u'blue']","[u'left', u'middle', u'right']","[0.9, 0.5, 0.1]","[u'medium', u'low', u'high']","red",50,"middle","low","False","False",466,-100,NA
"A39C1BN9ZSQ0R2","Wed Sep 23 2020 11:03:50 GMT-0400 (Eastern Daylight Time)","Wed Sep 23 2020 11:10:23 GMT-0400 (Eastern Daylight Time)","Mozilla/5.0 (Windows NT 6.3; Win64; x64) AppleWebKit/537.36 (KHTML, like Gecko) Chrome/85.0.4183.121 Safari/537.36",3,"[0.9, 0.5, 0.1]","[0.8, 0.4, 0.2]","[u'black', u'red', u'blue']","[u'left', u'middle', u'right']","[0.9, 0.5, 0.1]","[u'medium', u'low', u'high']","blue",51,"right","high","True","False",265,0,NA
"A39C1BN9ZSQ0R2","Wed Sep 23 2020 11:03:50 GMT-0400 (Eastern Daylight Time)","Wed Sep 23 2020 11:10:23 GMT-0400 (Eastern Daylight Time)","Mozilla/5.0 (Windows NT 6.3; Win64; x64) AppleWebKit/537.36 (KHTML, like Gecko) Chrome/85.0.4183.121 Safari/537.36",4,"[0.9, 0.5, 0.1]","[0.8, 0.4, 0.2]","[u'black', u'red', u'blue']","[u'left', u'middle', u'right']","[0.9, 0.5, 0.1]","[u'medium', u'low', u'high']","blue",51,"right","high","True","False",301,100,NA
"A39C1BN9ZSQ0R2","Wed Sep 23 2020 11:03:50 GMT-0400 (Eastern Daylight Time)","Wed Sep 23 2020 11:10:23 GMT-0400 (Eastern Daylight Time)","Mozilla/5.0 (Windows NT 6.3; Win64; x64) AppleWebKit/537.36 (KHTML, like Gecko) Chrome/85.0.4183.121 Safari/537.36",5,"[0.9, 0.5, 0.1]","[0.8, 0.4, 0.2]","[u'black', u'red', u'blue']","[u'left', u'middle', u'right']","[0.9, 0.5, 0.1]","[u'medium', u'low', u'high']","blue",51,"right","high","True","False",277,200,NA
"A39C1BN9ZSQ0R2","Wed Sep 23 2020 11:03:50 GMT-0400 (Eastern Daylight Time)","Wed Sep 23 2020 11:10:23 GMT-0400 (Eastern Daylight Time)","Mozilla/5.0 (Windows NT 6.3; Win64; x64) AppleWebKit/537.36 (KHTML, like Gecko) Chrome/85.0.4183.121 Safari/537.36",6,"[0.9, 0.5, 0.1]","[0.8, 0.4, 0.2]","[u'black', u'red', u'blue']","[u'left', u'middle', u'right']","[0.9, 0.5, 0.1]","[u'medium', u'low', u'high']","blue",51,"right","high","True","False",344,300,NA
"A39C1BN9ZSQ0R2","Wed Sep 23 2020 11:03:50 GMT-0400 (Eastern Daylight Time)","Wed Sep 23 2020 11:10:23 GMT-0400 (Eastern Daylight Time)","Mozilla/5.0 (Windows NT 6.3; Win64; x64) AppleWebKit/537.36 (KHTML, like Gecko) Chrome/85.0.4183.121 Safari/537.36",7,"[0.9, 0.5, 0.1]","[0.8, 0.4, 0.2]","[u'black', u'red', u'blue']","[u'left', u'middle', u'right']","[0.9, 0.5, 0.1]","[u'medium', u'low', u'high']","blue",51,"right","high","True","False",264,400,NA
"A39C1BN9ZSQ0R2","Wed Sep 23 2020 11:03:50 GMT-0400 (Eastern Daylight Time)","Wed Sep 23 2020 11:10:23 GMT-0400 (Eastern Daylight Time)","Mozilla/5.0 (Windows NT 6.3; Win64; x64) AppleWebKit/537.36 (KHTML, like Gecko) Chrome/85.0.4183.121 Safari/537.36",8,"[0.9, 0.5, 0.1]","[0.8, 0.4, 0.2]","[u'black', u'red', u'blue']","[u'left', u'middle', u'right']","[0.9, 0.5, 0.1]","[u'medium', u'low', u'high']","blue",51,"right","high","True","False",303,500,NA
"A39C1BN9ZSQ0R2","Wed Sep 23 2020 11:03:50 GMT-0400 (Eastern Daylight Time)","Wed Sep 23 2020 11:10:23 GMT-0400 (Eastern Daylight Time)","Mozilla/5.0 (Windows NT 6.3; Win64; x64) AppleWebKit/537.36 (KHTML, like Gecko) Chrome/85.0.4183.121 Safari/537.36",9,"[0.9, 0.5, 0.1]","[0.8, 0.4, 0.2]","[u'black', u'red', u'blue']","[u'left', u'middle', u'right']","[0.9, 0.5, 0.1]","[u'medium', u'low', u'high']","blue",51,"right","high","True","False",252,600,NA
"A39C1BN9ZSQ0R2","Wed Sep 23 2020 11:03:50 GMT-0400 (Eastern Daylight Time)","Wed Sep 23 2020 11:10:23 GMT-0400 (Eastern Daylight Time)","Mozilla/5.0 (Windows NT 6.3; Win64; x64) AppleWebKit/537.36 (KHTML, like Gecko) Chrome/85.0.4183.121 Safari/537.36",10,"[0.9, 0.5, 0.1]","[0.8, 0.4, 0.2]","[u'black', u'red', u'blue']","[u'left', u'middle', u'right']","[0.9, 0.5, 0.1]","[u'medium', u'low', u'high']","blue",51,"right","high","True","False",282,700,NA
"A39C1BN9ZSQ0R2","Wed Sep 23 2020 11:03:50 GMT-0400 (Eastern Daylight Time)","Wed Sep 23 2020 11:10:23 GMT-0400 (Eastern Daylight Time)","Mozilla/5.0 (Windows NT 6.3; Win64; x64) AppleWebKit/537.36 (KHTML, like Gecko) Chrome/85.0.4183.121 Safari/537.36",11,"[0.9, 0.5, 0.1]","[0.8, 0.4, 0.2]","[u'black', u'red', u'blue']","[u'left', u'middle', u'right']","[0.9, 0.5, 0.1]","[u'medium', u'low', u'high']","blue",51,"right","high","True","True",292,800,NA
"A39C1BN9ZSQ0R2","Wed Sep 23 2020 11:03:50 GMT-0400 (Eastern Daylight Time)","Wed Sep 23 2020 11:10:23 GMT-0400 (Eastern Daylight Time)","Mozilla/5.0 (Windows NT 6.3; Win64; x64) AppleWebKit/537.36 (KHTML, like Gecko) Chrome/85.0.4183.121 Safari/537.36",12,"[0.9, 0.5, 0.1]","[0.8, 0.4, 0.2]","[u'black', u'red', u'blue']","[u'left', u'middle', u'right']","[0.9, 0.5, 0.1]","[u'low', u'high', u'medium']","blue",51,"right","medium","False","False",294,750,NA
"A39C1BN9ZSQ0R2","Wed Sep 23 2020 11:03:50 GMT-0400 (Eastern Daylight Time)","Wed Sep 23 2020 11:10:23 GMT-0400 (Eastern Daylight Time)","Mozilla/5.0 (Windows NT 6.3; Win64; x64) AppleWebKit/537.36 (KHTML, like Gecko) Chrome/85.0.4183.121 Safari/537.36",13,"[0.9, 0.5, 0.1]","[0.8, 0.4, 0.2]","[u'black', u'red', u'blue']","[u'left', u'middle', u'right']","[0.9, 0.5, 0.1]","[u'low', u'high', u'medium']","blue",51,"right","medium","True","False",268,850,NA
"A39C1BN9ZSQ0R2","Wed Sep 23 2020 11:03:50 GMT-0400 (Eastern Daylight Time)","Wed Sep 23 2020 11:10:23 GMT-0400 (Eastern Daylight Time)","Mozilla/5.0 (Windows NT 6.3; Win64; x64) AppleWebKit/537.36 (KHTML, like Gecko) Chrome/85.0.4183.121 Safari/537.36",14,"[0.9, 0.5, 0.1]","[0.8, 0.4, 0.2]","[u'black', u'red', u'blue']","[u'left', u'middle', u'right']","[0.9, 0.5, 0.1]","[u'low', u'high', u'medium']","blue",51,"right","medium","False","False",292,800,NA
"A39C1BN9ZSQ0R2","Wed Sep 23 2020 11:03:50 GMT-0400 (Eastern Daylight Time)","Wed Sep 23 2020 11:10:23 GMT-0400 (Eastern Daylight Time)","Mozilla/5.0 (Windows NT 6.3; Win64; x64) AppleWebKit/537.36 (KHTML, like Gecko) Chrome/85.0.4183.121 Safari/537.36",15,"[0.9, 0.5, 0.1]","[0.8, 0.4, 0.2]","[u'black', u'red', u'blue']","[u'left', u'middle', u'right']","[0.9, 0.5, 0.1]","[u'low', u'high', u'medium']","blue",51,"right","medium","False","False",245,750,NA
"A39C1BN9ZSQ0R2","Wed Sep 23 2020 11:03:50 GMT-0400 (Eastern Daylight Time)","Wed Sep 23 2020 11:10:23 GMT-0400 (Eastern Daylight Time)","Mozilla/5.0 (Windows NT 6.3; Win64; x64) AppleWebKit/537.36 (KHTML, like Gecko) Chrome/85.0.4183.121 Safari/537.36",16,"[0.9, 0.5, 0.1]","[0.8, 0.4, 0.2]","[u'black', u'red', u'blue']","[u'left', u'middle', u'right']","[0.9, 0.5, 0.1]","[u'low', u'high', u'medium']","black",49,"left","low","False","False",222,700,NA
"A39C1BN9ZSQ0R2","Wed Sep 23 2020 11:03:50 GMT-0400 (Eastern Daylight Time)","Wed Sep 23 2020 11:10:23 GMT-0400 (Eastern Daylight Time)","Mozilla/5.0 (Windows NT 6.3; Win64; x64) AppleWebKit/537.36 (KHTML, like Gecko) Chrome/85.0.4183.121 Safari/537.36",17,"[0.9, 0.5, 0.1]","[0.8, 0.4, 0.2]","[u'black', u'red', u'blue']","[u'left', u'middle', u'right']","[0.9, 0.5, 0.1]","[u'low', u'high', u'medium']","red",50,"middle","high","True","False",264,800,NA
"A39C1BN9ZSQ0R2","Wed Sep 23 2020 11:03:50 GMT-0400 (Eastern Daylight Time)","Wed Sep 23 2020 11:10:23 GMT-0400 (Eastern Daylight Time)","Mozilla/5.0 (Windows NT 6.3; Win64; x64) AppleWebKit/537.36 (KHTML, like Gecko) Chrome/85.0.4183.121 Safari/537.36",18,"[0.9, 0.5, 0.1]","[0.8, 0.4, 0.2]","[u'black', u'red', u'blue']","[u'left', u'middle', u'right']","[0.9, 0.5, 0.1]","[u'low', u'high', u'medium']","red",50,"middle","high","True","False",217,900,NA
"A39C1BN9ZSQ0R2","Wed Sep 23 2020 11:03:50 GMT-0400 (Eastern Daylight Time)","Wed Sep 23 2020 11:10:23 GMT-0400 (Eastern Daylight Time)","Mozilla/5.0 (Windows NT 6.3; Win64; x64) AppleWebKit/537.36 (KHTML, like Gecko) Chrome/85.0.4183.121 Safari/537.36",19,"[0.9, 0.5, 0.1]","[0.8, 0.4, 0.2]","[u'black', u'red', u'blue']","[u'left', u'middle', u'right']","[0.9, 0.5, 0.1]","[u'low', u'high', u'medium']","red",50,"middle","high","True","False",206,1000,NA
"A39C1BN9ZSQ0R2","Wed Sep 23 2020 11:03:50 GMT-0400 (Eastern Daylight Time)","Wed Sep 23 2020 11:10:23 GMT-0400 (Eastern Daylight Time)","Mozilla/5.0 (Windows NT 6.3; Win64; x64) AppleWebKit/537.36 (KHTML, like Gecko) Chrome/85.0.4183.121 Safari/537.36",20,"[0.9, 0.5, 0.1]","[0.8, 0.4, 0.2]","[u'black', u'red', u'blue']","[u'left', u'middle', u'right']","[0.9, 0.5, 0.1]","[u'low', u'high', u'medium']","red",50,"middle","high","True","False",253,1100,NA
"A39C1BN9ZSQ0R2","Wed Sep 23 2020 11:03:50 GMT-0400 (Eastern Daylight Time)","Wed Sep 23 2020 11:10:23 GMT-0400 (Eastern Daylight Time)","Mozilla/5.0 (Windows NT 6.3; Win64; x64) AppleWebKit/537.36 (KHTML, like Gecko) Chrome/85.0.4183.121 Safari/537.36",21,"[0.9, 0.5, 0.1]","[0.8, 0.4, 0.2]","[u'black', u'red', u'blue']","[u'left', u'middle', u'right']","[0.9, 0.5, 0.1]","[u'low', u'high', u'medium']","red",50,"middle","high","True","False",137,1200,NA
"A39C1BN9ZSQ0R2","Wed Sep 23 2020 11:03:50 GMT-0400 (Eastern Daylight Time)","Wed Sep 23 2020 11:10:23 GMT-0400 (Eastern Daylight Time)","Mozilla/5.0 (Windows NT 6.3; Win64; x64) AppleWebKit/537.36 (KHTML, like Gecko) Chrome/85.0.4183.121 Safari/537.36",22,"[0.9, 0.5, 0.1]","[0.8, 0.4, 0.2]","[u'black', u'red', u'blue']","[u'left', u'middle', u'right']","[0.9, 0.5, 0.1]","[u'low', u'high', u'medium']","red",50,"middle","high","True","False",222,1300,NA
"A39C1BN9ZSQ0R2","Wed Sep 23 2020 11:03:50 GMT-0400 (Eastern Daylight Time)","Wed Sep 23 2020 11:10:23 GMT-0400 (Eastern Daylight Time)","Mozilla/5.0 (Windows NT 6.3; Win64; x64) AppleWebKit/537.36 (KHTML, like Gecko) Chrome/85.0.4183.121 Safari/537.36",23,"[0.9, 0.5, 0.1]","[0.8, 0.4, 0.2]","[u'black', u'red', u'blue']","[u'left', u'middle', u'right']","[0.9, 0.5, 0.1]","[u'low', u'high', u'medium']","red",50,"middle","high","True","False",263,1400,NA
"A39C1BN9ZSQ0R2","Wed Sep 23 2020 11:03:50 GMT-0400 (Eastern Daylight Time)","Wed Sep 23 2020 11:10:23 GMT-0400 (Eastern Daylight Time)","Mozilla/5.0 (Windows NT 6.3; Win64; x64) AppleWebKit/537.36 (KHTML, like Gecko) Chrome/85.0.4183.121 Safari/537.36",24,"[0.9, 0.5, 0.1]","[0.8, 0.4, 0.2]","[u'black', u'red', u'blue']","[u'left', u'middle', u'right']","[0.9, 0.5, 0.1]","[u'low', u'high', u'medium']","red",50,"middle","high","False","False",121,1350,NA
"A39C1BN9ZSQ0R2","Wed Sep 23 2020 11:03:50 GMT-0400 (Eastern Daylight Time)","Wed Sep 23 2020 11:10:23 GMT-0400 (Eastern Daylight Time)","Mozilla/5.0 (Windows NT 6.3; Win64; x64) AppleWebKit/537.36 (KHTML, like Gecko) Chrome/85.0.4183.121 Safari/537.36",25,"[0.9, 0.5, 0.1]","[0.8, 0.4, 0.2]","[u'black', u'red', u'blue']","[u'left', u'middle', u'right']","[0.9, 0.5, 0.1]","[u'low', u'high', u'medium']","red",50,"middle","high","True","True",193,1450,NA
"A39C1BN9ZSQ0R2","Wed Sep 23 2020 11:03:50 GMT-0400 (Eastern Daylight Time)","Wed Sep 23 2020 11:10:23 GMT-0400 (Eastern Daylight Time)","Mozilla/5.0 (Windows NT 6.3; Win64; x64) AppleWebKit/537.36 (KHTML, like Gecko) Chrome/85.0.4183.121 Safari/537.36",26,"[0.9, 0.5, 0.1]","[0.8, 0.4, 0.2]","[u'black', u'red', u'blue']","[u'left', u'middle', u'right']","[0.9, 0.5, 0.1]","[u'low', u'medium', u'high']","red",50,"middle","medium","False","False",228,1400,NA
"A39C1BN9ZSQ0R2","Wed Sep 23 2020 11:03:50 GMT-0400 (Eastern Daylight Time)","Wed Sep 23 2020 11:10:23 GMT-0400 (Eastern Daylight Time)","Mozilla/5.0 (Windows NT 6.3; Win64; x64) AppleWebKit/537.36 (KHTML, like Gecko) Chrome/85.0.4183.121 Safari/537.36",27,"[0.9, 0.5, 0.1]","[0.8, 0.4, 0.2]","[u'black', u'red', u'blue']","[u'left', u'middle', u'right']","[0.9, 0.5, 0.1]","[u'low', u'medium', u'high']","black",49,"left","low","False","False",124,1350,NA
"A39C1BN9ZSQ0R2","Wed Sep 23 2020 11:03:50 GMT-0400 (Eastern Daylight Time)","Wed Sep 23 2020 11:10:23 GMT-0400 (Eastern Daylight Time)","Mozilla/5.0 (Windows NT 6.3; Win64; x64) AppleWebKit/537.36 (KHTML, like Gecko) Chrome/85.0.4183.121 Safari/537.36",28,"[0.9, 0.5, 0.1]","[0.8, 0.4, 0.2]","[u'black', u'red', u'blue']","[u'left', u'middle', u'right']","[0.9, 0.5, 0.1]","[u'low', u'medium', u'high']","blue",51,"right","high","True","False",185,1450,NA
"A39C1BN9ZSQ0R2","Wed Sep 23 2020 11:03:50 GMT-0400 (Eastern Daylight Time)","Wed Sep 23 2020 11:10:23 GMT-0400 (Eastern Daylight Time)","Mozilla/5.0 (Windows NT 6.3; Win64; x64) AppleWebKit/537.36 (KHTML, like Gecko) Chrome/85.0.4183.121 Safari/537.36",29,"[0.9, 0.5, 0.1]","[0.8, 0.4, 0.2]","[u'black', u'red', u'blue']","[u'left', u'middle', u'right']","[0.9, 0.5, 0.1]","[u'low', u'medium', u'high']","blue",51,"right","high","True","False",218,1550,NA
"A39C1BN9ZSQ0R2","Wed Sep 23 2020 11:03:50 GMT-0400 (Eastern Daylight Time)","Wed Sep 23 2020 11:10:23 GMT-0400 (Eastern Daylight Time)","Mozilla/5.0 (Windows NT 6.3; Win64; x64) AppleWebKit/537.36 (KHTML, like Gecko) Chrome/85.0.4183.121 Safari/537.36",30,"[0.9, 0.5, 0.1]","[0.8, 0.4, 0.2]","[u'black', u'red', u'blue']","[u'left', u'middle', u'right']","[0.9, 0.5, 0.1]","[u'low', u'medium', u'high']","blue",51,"right","high","True","False",270,1650,NA
"A39C1BN9ZSQ0R2","Wed Sep 23 2020 11:03:50 GMT-0400 (Eastern Daylight Time)","Wed Sep 23 2020 11:10:23 GMT-0400 (Eastern Daylight Time)","Mozilla/5.0 (Windows NT 6.3; Win64; x64) AppleWebKit/537.36 (KHTML, like Gecko) Chrome/85.0.4183.121 Safari/537.36",31,"[0.9, 0.5, 0.1]","[0.8, 0.4, 0.2]","[u'black', u'red', u'blue']","[u'left', u'middle', u'right']","[0.9, 0.5, 0.1]","[u'low', u'medium', u'high']","blue",51,"right","high","False","False",251,1600,NA
"A39C1BN9ZSQ0R2","Wed Sep 23 2020 11:03:50 GMT-0400 (Eastern Daylight Time)","Wed Sep 23 2020 11:10:23 GMT-0400 (Eastern Daylight Time)","Mozilla/5.0 (Windows NT 6.3; Win64; x64) AppleWebKit/537.36 (KHTML, like Gecko) Chrome/85.0.4183.121 Safari/537.36",32,"[0.9, 0.5, 0.1]","[0.8, 0.4, 0.2]","[u'black', u'red', u'blue']","[u'left', u'middle', u'right']","[0.9, 0.5, 0.1]","[u'low', u'medium', u'high']","blue",51,"right","high","True","False",261,1700,NA
"A39C1BN9ZSQ0R2","Wed Sep 23 2020 11:03:50 GMT-0400 (Eastern Daylight Time)","Wed Sep 23 2020 11:10:23 GMT-0400 (Eastern Daylight Time)","Mozilla/5.0 (Windows NT 6.3; Win64; x64) AppleWebKit/537.36 (KHTML, like Gecko) Chrome/85.0.4183.121 Safari/537.36",33,"[0.9, 0.5, 0.1]","[0.8, 0.4, 0.2]","[u'black', u'red', u'blue']","[u'left', u'middle', u'right']","[0.9, 0.5, 0.1]","[u'low', u'medium', u'high']","blue",51,"right","high","True","False",173,1800,NA
"A39C1BN9ZSQ0R2","Wed Sep 23 2020 11:03:50 GMT-0400 (Eastern Daylight Time)","Wed Sep 23 2020 11:10:23 GMT-0400 (Eastern Daylight Time)","Mozilla/5.0 (Windows NT 6.3; Win64; x64) AppleWebKit/537.36 (KHTML, like Gecko) Chrome/85.0.4183.121 Safari/537.36",34,"[0.9, 0.5, 0.1]","[0.8, 0.4, 0.2]","[u'black', u'red', u'blue']","[u'left', u'middle', u'right']","[0.9, 0.5, 0.1]","[u'low', u'medium', u'high']","blue",51,"right","high","True","False",270,1900,NA
"A39C1BN9ZSQ0R2","Wed Sep 23 2020 11:03:50 GMT-0400 (Eastern Daylight Time)","Wed Sep 23 2020 11:10:23 GMT-0400 (Eastern Daylight Time)","Mozilla/5.0 (Windows NT 6.3; Win64; x64) AppleWebKit/537.36 (KHTML, like Gecko) Chrome/85.0.4183.121 Safari/537.36",35,"[0.9, 0.5, 0.1]","[0.8, 0.4, 0.2]","[u'black', u'red', u'blue']","[u'left', u'middle', u'right']","[0.9, 0.5, 0.1]","[u'low', u'medium', u'high']","blue",51,"right","high","True","False",274,2000,NA
"A39C1BN9ZSQ0R2","Wed Sep 23 2020 11:03:50 GMT-0400 (Eastern Daylight Time)","Wed Sep 23 2020 11:10:23 GMT-0400 (Eastern Daylight Time)","Mozilla/5.0 (Windows NT 6.3; Win64; x64) AppleWebKit/537.36 (KHTML, like Gecko) Chrome/85.0.4183.121 Safari/537.36",36,"[0.9, 0.5, 0.1]","[0.8, 0.4, 0.2]","[u'black', u'red', u'blue']","[u'left', u'middle', u'right']","[0.9, 0.5, 0.1]","[u'low', u'medium', u'high']","blue",51,"right","high","True","True",247,2100,NA
"A39C1BN9ZSQ0R2","Wed Sep 23 2020 11:03:50 GMT-0400 (Eastern Daylight Time)","Wed Sep 23 2020 11:10:23 GMT-0400 (Eastern Daylight Time)","Mozilla/5.0 (Windows NT 6.3; Win64; x64) AppleWebKit/537.36 (KHTML, like Gecko) Chrome/85.0.4183.121 Safari/537.36",37,"[0.9, 0.5, 0.1]","[0.8, 0.4, 0.2]","[u'black', u'red', u'blue']","[u'left', u'middle', u'right']","[0.9, 0.5, 0.1]","[u'medium', u'high', u'low']","blue",51,"right","low","False","False",186,2050,NA
"A39C1BN9ZSQ0R2","Wed Sep 23 2020 11:03:50 GMT-0400 (Eastern Daylight Time)","Wed Sep 23 2020 11:10:23 GMT-0400 (Eastern Daylight Time)","Mozilla/5.0 (Windows NT 6.3; Win64; x64) AppleWebKit/537.36 (KHTML, like Gecko) Chrome/85.0.4183.121 Safari/537.36",38,"[0.9, 0.5, 0.1]","[0.8, 0.4, 0.2]","[u'black', u'red', u'blue']","[u'left', u'middle', u'right']","[0.9, 0.5, 0.1]","[u'medium', u'high', u'low']","blue",51,"right","low","False","False",630,2000,NA
"A39C1BN9ZSQ0R2","Wed Sep 23 2020 11:03:50 GMT-0400 (Eastern Daylight Time)","Wed Sep 23 2020 11:10:23 GMT-0400 (Eastern Daylight Time)","Mozilla/5.0 (Windows NT 6.3; Win64; x64) AppleWebKit/537.36 (KHTML, like Gecko) Chrome/85.0.4183.121 Safari/537.36",39,"[0.9, 0.5, 0.1]","[0.8, 0.4, 0.2]","[u'black', u'red', u'blue']","[u'left', u'middle', u'right']","[0.9, 0.5, 0.1]","[u'medium', u'high', u'low']","black",49,"left","medium","False","False",221,1950,NA
"A39C1BN9ZSQ0R2","Wed Sep 23 2020 11:03:50 GMT-0400 (Eastern Daylight Time)","Wed Sep 23 2020 11:10:23 GMT-0400 (Eastern Daylight Time)","Mozilla/5.0 (Windows NT 6.3; Win64; x64) AppleWebKit/537.36 (KHTML, like Gecko) Chrome/85.0.4183.121 Safari/537.36",40,"[0.9, 0.5, 0.1]","[0.8, 0.4, 0.2]","[u'black', u'red', u'blue']","[u'left', u'middle', u'right']","[0.9, 0.5, 0.1]","[u'medium', u'high', u'low']","red",50,"middle","high","True","False",146,2050,NA
"A39C1BN9ZSQ0R2","Wed Sep 23 2020 11:03:50 GMT-0400 (Eastern Daylight Time)","Wed Sep 23 2020 11:10:23 GMT-0400 (Eastern Daylight Time)","Mozilla/5.0 (Windows NT 6.3; Win64; x64) AppleWebKit/537.36 (KHTML, like Gecko) Chrome/85.0.4183.121 Safari/537.36",41,"[0.9, 0.5, 0.1]","[0.8, 0.4, 0.2]","[u'black', u'red', u'blue']","[u'left', u'middle', u'right']","[0.9, 0.5, 0.1]","[u'medium', u'low', u'high']","red",50,"middle","low","False","False",427,2000,NA
"A39C1BN9ZSQ0R2","Wed Sep 23 2020 11:03:50 GMT-0400 (Eastern Daylight Time)","Wed Sep 23 2020 11:10:23 GMT-0400 (Eastern Daylight Time)","Mozilla/5.0 (Windows NT 6.3; Win64; x64) AppleWebKit/537.36 (KHTML, like Gecko) Chrome/85.0.4183.121 Safari/537.36",42,"[0.9, 0.5, 0.1]","[0.8, 0.4, 0.2]","[u'black', u'red', u'blue']","[u'left', u'middle', u'right']","[0.9, 0.5, 0.1]","[u'medium', u'low', u'high']","black",49,"left","medium","False","False",223,1950,NA
"A39C1BN9ZSQ0R2","Wed Sep 23 2020 11:03:50 GMT-0400 (Eastern Daylight Time)","Wed Sep 23 2020 11:10:23 GMT-0400 (Eastern Daylight Time)","Mozilla/5.0 (Windows NT 6.3; Win64; x64) AppleWebKit/537.36 (KHTML, like Gecko) Chrome/85.0.4183.121 Safari/537.36",43,"[0.9, 0.5, 0.1]","[0.8, 0.4, 0.2]","[u'black', u'red', u'blue']","[u'left', u'middle', u'right']","[0.9, 0.5, 0.1]","[u'medium', u'low', u'high']","blue",51,"right","high","True","False",135,2050,NA
"A39C1BN9ZSQ0R2","Wed Sep 23 2020 11:03:50 GMT-0400 (Eastern Daylight Time)","Wed Sep 23 2020 11:10:23 GMT-0400 (Eastern Daylight Time)","Mozilla/5.0 (Windows NT 6.3; Win64; x64) AppleWebKit/537.36 (KHTML, like Gecko) Chrome/85.0.4183.121 Safari/537.36",44,"[0.9, 0.5, 0.1]","[0.8, 0.4, 0.2]","[u'black', u'red', u'blue']","[u'left', u'middle', u'right']","[0.9, 0.5, 0.1]","[u'medium', u'low', u'high']","blue",51,"right","high","True","False",241,2150,NA
"A39C1BN9ZSQ0R2","Wed Sep 23 2020 11:03:50 GMT-0400 (Eastern Daylight Time)","Wed Sep 23 2020 11:10:23 GMT-0400 (Eastern Daylight Time)","Mozilla/5.0 (Windows NT 6.3; Win64; x64) AppleWebKit/537.36 (KHTML, like Gecko) Chrome/85.0.4183.121 Safari/537.36",45,"[0.9, 0.5, 0.1]","[0.8, 0.4, 0.2]","[u'black', u'red', u'blue']","[u'left', u'middle', u'right']","[0.9, 0.5, 0.1]","[u'medium', u'low', u'high']","blue",51,"right","high","False","False",252,2100,NA
"A39C1BN9ZSQ0R2","Wed Sep 23 2020 11:03:50 GMT-0400 (Eastern Daylight Time)","Wed Sep 23 2020 11:10:23 GMT-0400 (Eastern Daylight Time)","Mozilla/5.0 (Windows NT 6.3; Win64; x64) AppleWebKit/537.36 (KHTML, like Gecko) Chrome/85.0.4183.121 Safari/537.36",46,"[0.9, 0.5, 0.1]","[0.8, 0.4, 0.2]","[u'black', u'red', u'blue']","[u'left', u'middle', u'right']","[0.9, 0.5, 0.1]","[u'medium', u'low', u'high']","blue",51,"right","high","True","False",349,2200,NA
"A39C1BN9ZSQ0R2","Wed Sep 23 2020 11:03:50 GMT-0400 (Eastern Daylight Time)","Wed Sep 23 2020 11:10:23 GMT-0400 (Eastern Daylight Time)","Mozilla/5.0 (Windows NT 6.3; Win64; x64) AppleWebKit/537.36 (KHTML, like Gecko) Chrome/85.0.4183.121 Safari/537.36",47,"[0.9, 0.5, 0.1]","[0.8, 0.4, 0.2]","[u'black', u'red', u'blue']","[u'left', u'middle', u'right']","[0.9, 0.5, 0.1]","[u'medium', u'low', u'high']","blue",51,"right","high","True","False",295,2300,NA
"A39C1BN9ZSQ0R2","Wed Sep 23 2020 11:03:50 GMT-0400 (Eastern Daylight Time)","Wed Sep 23 2020 11:10:23 GMT-0400 (Eastern Daylight Time)","Mozilla/5.0 (Windows NT 6.3; Win64; x64) AppleWebKit/537.36 (KHTML, like Gecko) Chrome/85.0.4183.121 Safari/537.36",48,"[0.9, 0.5, 0.1]","[0.8, 0.4, 0.2]","[u'black', u'red', u'blue']","[u'left', u'middle', u'right']","[0.9, 0.5, 0.1]","[u'medium', u'low', u'high']","blue",51,"right","high","True","False",226,2400,NA
"A39C1BN9ZSQ0R2","Wed Sep 23 2020 11:03:50 GMT-0400 (Eastern Daylight Time)","Wed Sep 23 2020 11:10:23 GMT-0400 (Eastern Daylight Time)","Mozilla/5.0 (Windows NT 6.3; Win64; x64) AppleWebKit/537.36 (KHTML, like Gecko) Chrome/85.0.4183.121 Safari/537.36",49,"[0.9, 0.5, 0.1]","[0.8, 0.4, 0.2]","[u'black', u'red', u'blue']","[u'left', u'middle', u'right']","[0.9, 0.5, 0.1]","[u'medium', u'low', u'high']","blue",51,"right","high","True","False",273,2500,NA
"A39C1BN9ZSQ0R2","Wed Sep 23 2020 11:03:50 GMT-0400 (Eastern Daylight Time)","Wed Sep 23 2020 11:10:23 GMT-0400 (Eastern Daylight Time)","Mozilla/5.0 (Windows NT 6.3; Win64; x64) AppleWebKit/537.36 (KHTML, like Gecko) Chrome/85.0.4183.121 Safari/537.36",50,"[0.9, 0.5, 0.1]","[0.8, 0.4, 0.2]","[u'black', u'red', u'blue']","[u'left', u'middle', u'right']","[0.9, 0.5, 0.1]","[u'medium', u'low', u'high']","blue",51,"right","high","True","False",229,2600,NA
"A39C1BN9ZSQ0R2","Wed Sep 23 2020 11:03:50 GMT-0400 (Eastern Daylight Time)","Wed Sep 23 2020 11:10:23 GMT-0400 (Eastern Daylight Time)","Mozilla/5.0 (Windows NT 6.3; Win64; x64) AppleWebKit/537.36 (KHTML, like Gecko) Chrome/85.0.4183.121 Safari/537.36",51,"[0.9, 0.5, 0.1]","[0.8, 0.4, 0.2]","[u'black', u'red', u'blue']","[u'left', u'middle', u'right']","[0.9, 0.5, 0.1]","[u'medium', u'low', u'high']","blue",51,"right","high","True","True",299,2700,NA
"A39C1BN9ZSQ0R2","Wed Sep 23 2020 11:03:50 GMT-0400 (Eastern Daylight Time)","Wed Sep 23 2020 11:10:23 GMT-0400 (Eastern Daylight Time)","Mozilla/5.0 (Windows NT 6.3; Win64; x64) AppleWebKit/537.36 (KHTML, like Gecko) Chrome/85.0.4183.121 Safari/537.36",52,"[0.9, 0.5, 0.1]","[0.8, 0.4, 0.2]","[u'black', u'red', u'blue']","[u'left', u'middle', u'right']","[0.9, 0.5, 0.1]","[u'medium', u'high', u'low']","blue",51,"right","low","False","False",253,2650,NA
"A39C1BN9ZSQ0R2","Wed Sep 23 2020 11:03:50 GMT-0400 (Eastern Daylight Time)","Wed Sep 23 2020 11:10:23 GMT-0400 (Eastern Daylight Time)","Mozilla/5.0 (Windows NT 6.3; Win64; x64) AppleWebKit/537.36 (KHTML, like Gecko) Chrome/85.0.4183.121 Safari/537.36",53,"[0.9, 0.5, 0.1]","[0.8, 0.4, 0.2]","[u'black', u'red', u'blue']","[u'left', u'middle', u'right']","[0.9, 0.5, 0.1]","[u'medium', u'high', u'low']","blue",51,"right","low","False","False",122,2600,NA
"A39C1BN9ZSQ0R2","Wed Sep 23 2020 11:03:50 GMT-0400 (Eastern Daylight Time)","Wed Sep 23 2020 11:10:23 GMT-0400 (Eastern Daylight Time)","Mozilla/5.0 (Windows NT 6.3; Win64; x64) AppleWebKit/537.36 (KHTML, like Gecko) Chrome/85.0.4183.121 Safari/537.36",54,"[0.9, 0.5, 0.1]","[0.8, 0.4, 0.2]","[u'black', u'red', u'blue']","[u'left', u'middle', u'right']","[0.9, 0.5, 0.1]","[u'medium', u'high', u'low']","black",49,"left","medium","False","False",215,2550,NA
"A39C1BN9ZSQ0R2","Wed Sep 23 2020 11:03:50 GMT-0400 (Eastern Daylight Time)","Wed Sep 23 2020 11:10:23 GMT-0400 (Eastern Daylight Time)","Mozilla/5.0 (Windows NT 6.3; Win64; x64) AppleWebKit/537.36 (KHTML, like Gecko) Chrome/85.0.4183.121 Safari/537.36",55,"[0.9, 0.5, 0.1]","[0.8, 0.4, 0.2]","[u'black', u'red', u'blue']","[u'left', u'middle', u'right']","[0.9, 0.5, 0.1]","[u'medium', u'high', u'low']","red",50,"middle","high","True","False",176,2650,NA
"A39C1BN9ZSQ0R2","Wed Sep 23 2020 11:03:50 GMT-0400 (Eastern Daylight Time)","Wed Sep 23 2020 11:10:23 GMT-0400 (Eastern Daylight Time)","Mozilla/5.0 (Windows NT 6.3; Win64; x64) AppleWebKit/537.36 (KHTML, like Gecko) Chrome/85.0.4183.121 Safari/537.36",56,"[0.9, 0.5, 0.1]","[0.8, 0.4, 0.2]","[u'black', u'red', u'blue']","[u'left', u'middle', u'right']","[0.9, 0.5, 0.1]","[u'medium', u'high', u'low']","red",50,"middle","high","True","False",194,2750,NA
"A39C1BN9ZSQ0R2","Wed Sep 23 2020 11:03:50 GMT-0400 (Eastern Daylight Time)","Wed Sep 23 2020 11:10:23 GMT-0400 (Eastern Daylight Time)","Mozilla/5.0 (Windows NT 6.3; Win64; x64) AppleWebKit/537.36 (KHTML, like Gecko) Chrome/85.0.4183.121 Safari/537.36",57,"[0.9, 0.5, 0.1]","[0.8, 0.4, 0.2]","[u'black', u'red', u'blue']","[u'left', u'middle', u'right']","[0.9, 0.5, 0.1]","[u'medium', u'high', u'low']","red",50,"middle","high","True","False",268,2850,NA
"A39C1BN9ZSQ0R2","Wed Sep 23 2020 11:03:50 GMT-0400 (Eastern Daylight Time)","Wed Sep 23 2020 11:10:23 GMT-0400 (Eastern Daylight Time)","Mozilla/5.0 (Windows NT 6.3; Win64; x64) AppleWebKit/537.36 (KHTML, like Gecko) Chrome/85.0.4183.121 Safari/537.36",58,"[0.9, 0.5, 0.1]","[0.8, 0.4, 0.2]","[u'black', u'red', u'blue']","[u'left', u'middle', u'right']","[0.9, 0.5, 0.1]","[u'medium', u'high', u'low']","red",50,"middle","high","True","False",192,2950,NA
"A39C1BN9ZSQ0R2","Wed Sep 23 2020 11:03:50 GMT-0400 (Eastern Daylight Time)","Wed Sep 23 2020 11:10:23 GMT-0400 (Eastern Daylight Time)","Mozilla/5.0 (Windows NT 6.3; Win64; x64) AppleWebKit/537.36 (KHTML, like Gecko) Chrome/85.0.4183.121 Safari/537.36",59,"[0.9, 0.5, 0.1]","[0.8, 0.4, 0.2]","[u'black', u'red', u'blue']","[u'left', u'middle', u'right']","[0.9, 0.5, 0.1]","[u'medium', u'high', u'low']","red",50,"middle","high","True","False",153,3050,NA
"A39C1BN9ZSQ0R2","Wed Sep 23 2020 11:03:50 GMT-0400 (Eastern Daylight Time)","Wed Sep 23 2020 11:10:23 GMT-0400 (Eastern Daylight Time)","Mozilla/5.0 (Windows NT 6.3; Win64; x64) AppleWebKit/537.36 (KHTML, like Gecko) Chrome/85.0.4183.121 Safari/537.36",60,"[0.9, 0.5, 0.1]","[0.8, 0.4, 0.2]","[u'black', u'red', u'blue']","[u'left', u'middle', u'right']","[0.9, 0.5, 0.1]","[u'medium', u'high', u'low']","red",50,"middle","high","True","False",160,3150,NA
"A39C1BN9ZSQ0R2","Wed Sep 23 2020 11:03:50 GMT-0400 (Eastern Daylight Time)","Wed Sep 23 2020 11:10:23 GMT-0400 (Eastern Daylight Time)","Mozilla/5.0 (Windows NT 6.3; Win64; x64) AppleWebKit/537.36 (KHTML, like Gecko) Chrome/85.0.4183.121 Safari/537.36",61,"[0.9, 0.5, 0.1]","[0.8, 0.4, 0.2]","[u'black', u'red', u'blue']","[u'left', u'middle', u'right']","[0.9, 0.5, 0.1]","[u'medium', u'high', u'low']","red",50,"middle","high","True","False",147,3250,NA
"A39C1BN9ZSQ0R2","Wed Sep 23 2020 11:03:50 GMT-0400 (Eastern Daylight Time)","Wed Sep 23 2020 11:10:23 GMT-0400 (Eastern Daylight Time)","Mozilla/5.0 (Windows NT 6.3; Win64; x64) AppleWebKit/537.36 (KHTML, like Gecko) Chrome/85.0.4183.121 Safari/537.36",62,"[0.9, 0.5, 0.1]","[0.8, 0.4, 0.2]","[u'black', u'red', u'blue']","[u'left', u'middle', u'right']","[0.9, 0.5, 0.1]","[u'medium', u'high', u'low']","red",50,"middle","high","True","False",311,3350,NA
"A39C1BN9ZSQ0R2","Wed Sep 23 2020 11:03:50 GMT-0400 (Eastern Daylight Time)","Wed Sep 23 2020 11:10:23 GMT-0400 (Eastern Daylight Time)","Mozilla/5.0 (Windows NT 6.3; Win64; x64) AppleWebKit/537.36 (KHTML, like Gecko) Chrome/85.0.4183.121 Safari/537.36",63,"[0.9, 0.5, 0.1]","[0.8, 0.4, 0.2]","[u'black', u'red', u'blue']","[u'left', u'middle', u'right']","[0.9, 0.5, 0.1]","[u'medium', u'high', u'low']","red",50,"middle","high","True","True",239,3450,NA
"A39C1BN9ZSQ0R2","Wed Sep 23 2020 11:03:50 GMT-0400 (Eastern Daylight Time)","Wed Sep 23 2020 11:10:23 GMT-0400 (Eastern Daylight Time)","Mozilla/5.0 (Windows NT 6.3; Win64; x64) AppleWebKit/537.36 (KHTML, like Gecko) Chrome/85.0.4183.121 Safari/537.36",64,"[0.9, 0.5, 0.1]","[0.8, 0.4, 0.2]","[u'black', u'red', u'blue']","[u'left', u'middle', u'right']","[0.9, 0.5, 0.1]","[u'high', u'medium', u'low']","red",50,"middle","medium","True","False",214,3550,NA
"A39C1BN9ZSQ0R2","Wed Sep 23 2020 11:03:50 GMT-0400 (Eastern Daylight Time)","Wed Sep 23 2020 11:10:23 GMT-0400 (Eastern Daylight Time)","Mozilla/5.0 (Windows NT 6.3; Win64; x64) AppleWebKit/537.36 (KHTML, like Gecko) Chrome/85.0.4183.121 Safari/537.36",65,"[0.9, 0.5, 0.1]","[0.8, 0.4, 0.2]","[u'black', u'red', u'blue']","[u'left', u'middle', u'right']","[0.9, 0.5, 0.1]","[u'high', u'medium', u'low']","red",50,"middle","medium","False","False",236,3500,NA
"A39C1BN9ZSQ0R2","Wed Sep 23 2020 11:03:50 GMT-0400 (Eastern Daylight Time)","Wed Sep 23 2020 11:10:23 GMT-0400 (Eastern Daylight Time)","Mozilla/5.0 (Windows NT 6.3; Win64; x64) AppleWebKit/537.36 (KHTML, like Gecko) Chrome/85.0.4183.121 Safari/537.36",66,"[0.9, 0.5, 0.1]","[0.8, 0.4, 0.2]","[u'black', u'red', u'blue']","[u'left', u'middle', u'right']","[0.9, 0.5, 0.1]","[u'high', u'medium', u'low']","red",50,"middle","medium","True","False",141,3600,NA
"A39C1BN9ZSQ0R2","Wed Sep 23 2020 11:03:50 GMT-0400 (Eastern Daylight Time)","Wed Sep 23 2020 11:10:23 GMT-0400 (Eastern Daylight Time)","Mozilla/5.0 (Windows NT 6.3; Win64; x64) AppleWebKit/537.36 (KHTML, like Gecko) Chrome/85.0.4183.121 Safari/537.36",67,"[0.9, 0.5, 0.1]","[0.8, 0.4, 0.2]","[u'black', u'red', u'blue']","[u'left', u'middle', u'right']","[0.9, 0.5, 0.1]","[u'high', u'medium', u'low']","red",50,"middle","medium","False","False",248,3550,NA
"A39C1BN9ZSQ0R2","Wed Sep 23 2020 11:03:50 GMT-0400 (Eastern Daylight Time)","Wed Sep 23 2020 11:10:23 GMT-0400 (Eastern Daylight Time)","Mozilla/5.0 (Windows NT 6.3; Win64; x64) AppleWebKit/537.36 (KHTML, like Gecko) Chrome/85.0.4183.121 Safari/537.36",68,"[0.9, 0.5, 0.1]","[0.8, 0.4, 0.2]","[u'black', u'red', u'blue']","[u'left', u'middle', u'right']","[0.9, 0.5, 0.1]","[u'high', u'medium', u'low']","black",49,"left","high","True","False",225,3650,NA
"A39C1BN9ZSQ0R2","Wed Sep 23 2020 11:03:50 GMT-0400 (Eastern Daylight Time)","Wed Sep 23 2020 11:10:23 GMT-0400 (Eastern Daylight Time)","Mozilla/5.0 (Windows NT 6.3; Win64; x64) AppleWebKit/537.36 (KHTML, like Gecko) Chrome/85.0.4183.121 Safari/537.36",69,"[0.9, 0.5, 0.1]","[0.8, 0.4, 0.2]","[u'black', u'red', u'blue']","[u'left', u'middle', u'right']","[0.9, 0.5, 0.1]","[u'high', u'medium', u'low']","black",49,"left","high","True","False",243,3750,NA
"A39C1BN9ZSQ0R2","Wed Sep 23 2020 11:03:50 GMT-0400 (Eastern Daylight Time)","Wed Sep 23 2020 11:10:23 GMT-0400 (Eastern Daylight Time)","Mozilla/5.0 (Windows NT 6.3; Win64; x64) AppleWebKit/537.36 (KHTML, like Gecko) Chrome/85.0.4183.121 Safari/537.36",70,"[0.9, 0.5, 0.1]","[0.8, 0.4, 0.2]","[u'black', u'red', u'blue']","[u'left', u'middle', u'right']","[0.9, 0.5, 0.1]","[u'high', u'medium', u'low']","black",49,"left","high","True","False",177,3850,NA
"A39C1BN9ZSQ0R2","Wed Sep 23 2020 11:03:50 GMT-0400 (Eastern Daylight Time)","Wed Sep 23 2020 11:10:23 GMT-0400 (Eastern Daylight Time)","Mozilla/5.0 (Windows NT 6.3; Win64; x64) AppleWebKit/537.36 (KHTML, like Gecko) Chrome/85.0.4183.121 Safari/537.36",71,"[0.9, 0.5, 0.1]","[0.8, 0.4, 0.2]","[u'black', u'red', u'blue']","[u'left', u'middle', u'right']","[0.9, 0.5, 0.1]","[u'high', u'medium', u'low']","black",49,"left","high","True","False",158,3950,NA
"A39C1BN9ZSQ0R2","Wed Sep 23 2020 11:03:50 GMT-0400 (Eastern Daylight Time)","Wed Sep 23 2020 11:10:23 GMT-0400 (Eastern Daylight Time)","Mozilla/5.0 (Windows NT 6.3; Win64; x64) AppleWebKit/537.36 (KHTML, like Gecko) Chrome/85.0.4183.121 Safari/537.36",72,"[0.9, 0.5, 0.1]","[0.8, 0.4, 0.2]","[u'black', u'red', u'blue']","[u'left', u'middle', u'right']","[0.9, 0.5, 0.1]","[u'high', u'medium', u'low']","black",49,"left","high","True","False",119,4050,NA
"A39C1BN9ZSQ0R2","Wed Sep 23 2020 11:03:50 GMT-0400 (Eastern Daylight Time)","Wed Sep 23 2020 11:10:23 GMT-0400 (Eastern Daylight Time)","Mozilla/5.0 (Windows NT 6.3; Win64; x64) AppleWebKit/537.36 (KHTML, like Gecko) Chrome/85.0.4183.121 Safari/537.36",73,"[0.9, 0.5, 0.1]","[0.8, 0.4, 0.2]","[u'black', u'red', u'blue']","[u'left', u'middle', u'right']","[0.9, 0.5, 0.1]","[u'high', u'medium', u'low']","black",49,"left","high","True","False",173,4150,NA
"A39C1BN9ZSQ0R2","Wed Sep 23 2020 11:03:50 GMT-0400 (Eastern Daylight Time)","Wed Sep 23 2020 11:10:23 GMT-0400 (Eastern Daylight Time)","Mozilla/5.0 (Windows NT 6.3; Win64; x64) AppleWebKit/537.36 (KHTML, like Gecko) Chrome/85.0.4183.121 Safari/537.36",74,"[0.9, 0.5, 0.1]","[0.8, 0.4, 0.2]","[u'black', u'red', u'blue']","[u'left', u'middle', u'right']","[0.9, 0.5, 0.1]","[u'high', u'medium', u'low']","black",49,"left","high","True","False",169,4250,NA
"A39C1BN9ZSQ0R2","Wed Sep 23 2020 11:03:50 GMT-0400 (Eastern Daylight Time)","Wed Sep 23 2020 11:10:23 GMT-0400 (Eastern Daylight Time)","Mozilla/5.0 (Windows NT 6.3; Win64; x64) AppleWebKit/537.36 (KHTML, like Gecko) Chrome/85.0.4183.121 Safari/537.36",75,"[0.9, 0.5, 0.1]","[0.8, 0.4, 0.2]","[u'black', u'red', u'blue']","[u'left', u'middle', u'right']","[0.9, 0.5, 0.1]","[u'high', u'medium', u'low']","black",49,"left","high","True","False",261,4350,NA
"A39C1BN9ZSQ0R2","Wed Sep 23 2020 11:03:50 GMT-0400 (Eastern Daylight Time)","Wed Sep 23 2020 11:10:23 GMT-0400 (Eastern Daylight Time)","Mozilla/5.0 (Windows NT 6.3; Win64; x64) AppleWebKit/537.36 (KHTML, like Gecko) Chrome/85.0.4183.121 Safari/537.36",76,"[0.9, 0.5, 0.1]","[0.8, 0.4, 0.2]","[u'black', u'red', u'blue']","[u'left', u'middle', u'right']","[0.9, 0.5, 0.1]","[u'high', u'medium', u'low']","black",49,"left","high","True","True",265,4450,NA
"A39C1BN9ZSQ0R2","Wed Sep 23 2020 11:03:50 GMT-0400 (Eastern Daylight Time)","Wed Sep 23 2020 11:10:23 GMT-0400 (Eastern Daylight Time)","Mozilla/5.0 (Windows NT 6.3; Win64; x64) AppleWebKit/537.36 (KHTML, like Gecko) Chrome/85.0.4183.121 Safari/537.36",77,"[0.9, 0.5, 0.1]","[0.8, 0.4, 0.2]","[u'black', u'red', u'blue']","[u'left', u'middle', u'right']","[0.9, 0.5, 0.1]","[u'low', u'high', u'medium']","black",49,"left","low","False","False",223,4400,NA
"A39C1BN9ZSQ0R2","Wed Sep 23 2020 11:03:50 GMT-0400 (Eastern Daylight Time)","Wed Sep 23 2020 11:10:23 GMT-0400 (Eastern Daylight Time)","Mozilla/5.0 (Windows NT 6.3; Win64; x64) AppleWebKit/537.36 (KHTML, like Gecko) Chrome/85.0.4183.121 Safari/537.36",78,"[0.9, 0.5, 0.1]","[0.8, 0.4, 0.2]","[u'black', u'red', u'blue']","[u'left', u'middle', u'right']","[0.9, 0.5, 0.1]","[u'low', u'high', u'medium']","black",49,"left","low","False","False",130,4350,NA
"A39C1BN9ZSQ0R2","Wed Sep 23 2020 11:03:50 GMT-0400 (Eastern Daylight Time)","Wed Sep 23 2020 11:10:23 GMT-0400 (Eastern Daylight Time)","Mozilla/5.0 (Windows NT 6.3; Win64; x64) AppleWebKit/537.36 (KHTML, like Gecko) Chrome/85.0.4183.121 Safari/537.36",79,"[0.9, 0.5, 0.1]","[0.8, 0.4, 0.2]","[u'black', u'red', u'blue']","[u'left', u'middle', u'right']","[0.9, 0.5, 0.1]","[u'low', u'high', u'medium']","blue",51,"right","medium","True","False",131,4450,NA
"A39C1BN9ZSQ0R2","Wed Sep 23 2020 11:03:50 GMT-0400 (Eastern Daylight Time)","Wed Sep 23 2020 11:10:23 GMT-0400 (Eastern Daylight Time)","Mozilla/5.0 (Windows NT 6.3; Win64; x64) AppleWebKit/537.36 (KHTML, like Gecko) Chrome/85.0.4183.121 Safari/537.36",80,"[0.9, 0.5, 0.1]","[0.8, 0.4, 0.2]","[u'black', u'red', u'blue']","[u'left', u'middle', u'right']","[0.9, 0.5, 0.1]","[u'low', u'high', u'medium']","blue",51,"right","medium","True","False",216,4550,NA
"A39C1BN9ZSQ0R2","Wed Sep 23 2020 11:03:50 GMT-0400 (Eastern Daylight Time)","Wed Sep 23 2020 11:10:23 GMT-0400 (Eastern Daylight Time)","Mozilla/5.0 (Windows NT 6.3; Win64; x64) AppleWebKit/537.36 (KHTML, like Gecko) Chrome/85.0.4183.121 Safari/537.36",81,"[0.9, 0.5, 0.1]","[0.8, 0.4, 0.2]","[u'black', u'red', u'blue']","[u'left', u'middle', u'right']","[0.8, 0.4, 0.2]","[u'high', u'low', u'medium']","blue",51,"right","medium","False","False",256,4500,NA
"A39C1BN9ZSQ0R2","Wed Sep 23 2020 11:03:50 GMT-0400 (Eastern Daylight Time)","Wed Sep 23 2020 11:10:23 GMT-0400 (Eastern Daylight Time)","Mozilla/5.0 (Windows NT 6.3; Win64; x64) AppleWebKit/537.36 (KHTML, like Gecko) Chrome/85.0.4183.121 Safari/537.36",82,"[0.9, 0.5, 0.1]","[0.8, 0.4, 0.2]","[u'black', u'red', u'blue']","[u'left', u'middle', u'right']","[0.8, 0.4, 0.2]","[u'high', u'low', u'medium']","black",49,"left","high","True","False",759,4600,NA
"A39C1BN9ZSQ0R2","Wed Sep 23 2020 11:03:50 GMT-0400 (Eastern Daylight Time)","Wed Sep 23 2020 11:10:23 GMT-0400 (Eastern Daylight Time)","Mozilla/5.0 (Windows NT 6.3; Win64; x64) AppleWebKit/537.36 (KHTML, like Gecko) Chrome/85.0.4183.121 Safari/537.36",83,"[0.9, 0.5, 0.1]","[0.8, 0.4, 0.2]","[u'black', u'red', u'blue']","[u'left', u'middle', u'right']","[0.8, 0.4, 0.2]","[u'high', u'low', u'medium']","black",49,"left","high","True","False",160,4700,NA
"A39C1BN9ZSQ0R2","Wed Sep 23 2020 11:03:50 GMT-0400 (Eastern Daylight Time)","Wed Sep 23 2020 11:10:23 GMT-0400 (Eastern Daylight Time)","Mozilla/5.0 (Windows NT 6.3; Win64; x64) AppleWebKit/537.36 (KHTML, like Gecko) Chrome/85.0.4183.121 Safari/537.36",84,"[0.9, 0.5, 0.1]","[0.8, 0.4, 0.2]","[u'black', u'red', u'blue']","[u'left', u'middle', u'right']","[0.8, 0.4, 0.2]","[u'high', u'low', u'medium']","black",49,"left","high","True","False",85,4800,NA
"A39C1BN9ZSQ0R2","Wed Sep 23 2020 11:03:50 GMT-0400 (Eastern Daylight Time)","Wed Sep 23 2020 11:10:23 GMT-0400 (Eastern Daylight Time)","Mozilla/5.0 (Windows NT 6.3; Win64; x64) AppleWebKit/537.36 (KHTML, like Gecko) Chrome/85.0.4183.121 Safari/537.36",85,"[0.9, 0.5, 0.1]","[0.8, 0.4, 0.2]","[u'black', u'red', u'blue']","[u'left', u'middle', u'right']","[0.8, 0.4, 0.2]","[u'high', u'low', u'medium']","black",49,"left","high","True","False",160,4900,NA
"A39C1BN9ZSQ0R2","Wed Sep 23 2020 11:03:50 GMT-0400 (Eastern Daylight Time)","Wed Sep 23 2020 11:10:23 GMT-0400 (Eastern Daylight Time)","Mozilla/5.0 (Windows NT 6.3; Win64; x64) AppleWebKit/537.36 (KHTML, like Gecko) Chrome/85.0.4183.121 Safari/537.36",86,"[0.9, 0.5, 0.1]","[0.8, 0.4, 0.2]","[u'black', u'red', u'blue']","[u'left', u'middle', u'right']","[0.8, 0.4, 0.2]","[u'high', u'low', u'medium']","black",49,"left","high","True","False",225,5000,NA
"A39C1BN9ZSQ0R2","Wed Sep 23 2020 11:03:50 GMT-0400 (Eastern Daylight Time)","Wed Sep 23 2020 11:10:23 GMT-0400 (Eastern Daylight Time)","Mozilla/5.0 (Windows NT 6.3; Win64; x64) AppleWebKit/537.36 (KHTML, like Gecko) Chrome/85.0.4183.121 Safari/537.36",87,"[0.9, 0.5, 0.1]","[0.8, 0.4, 0.2]","[u'black', u'red', u'blue']","[u'left', u'middle', u'right']","[0.8, 0.4, 0.2]","[u'high', u'low', u'medium']","black",49,"left","high","False","False",147,4950,NA
"A39C1BN9ZSQ0R2","Wed Sep 23 2020 11:03:50 GMT-0400 (Eastern Daylight Time)","Wed Sep 23 2020 11:10:23 GMT-0400 (Eastern Daylight Time)","Mozilla/5.0 (Windows NT 6.3; Win64; x64) AppleWebKit/537.36 (KHTML, like Gecko) Chrome/85.0.4183.121 Safari/537.36",88,"[0.9, 0.5, 0.1]","[0.8, 0.4, 0.2]","[u'black', u'red', u'blue']","[u'left', u'middle', u'right']","[0.8, 0.4, 0.2]","[u'high', u'low', u'medium']","black",49,"left","high","True","False",130,5050,NA
"A39C1BN9ZSQ0R2","Wed Sep 23 2020 11:03:50 GMT-0400 (Eastern Daylight Time)","Wed Sep 23 2020 11:10:23 GMT-0400 (Eastern Daylight Time)","Mozilla/5.0 (Windows NT 6.3; Win64; x64) AppleWebKit/537.36 (KHTML, like Gecko) Chrome/85.0.4183.121 Safari/537.36",89,"[0.9, 0.5, 0.1]","[0.8, 0.4, 0.2]","[u'black', u'red', u'blue']","[u'left', u'middle', u'right']","[0.8, 0.4, 0.2]","[u'high', u'low', u'medium']","black",49,"left","high","True","False",180,5150,NA
"A39C1BN9ZSQ0R2","Wed Sep 23 2020 11:03:50 GMT-0400 (Eastern Daylight Time)","Wed Sep 23 2020 11:10:23 GMT-0400 (Eastern Daylight Time)","Mozilla/5.0 (Windows NT 6.3; Win64; x64) AppleWebKit/537.36 (KHTML, like Gecko) Chrome/85.0.4183.121 Safari/537.36",90,"[0.9, 0.5, 0.1]","[0.8, 0.4, 0.2]","[u'black', u'red', u'blue']","[u'left', u'middle', u'right']","[0.8, 0.4, 0.2]","[u'high', u'low', u'medium']","black",49,"left","high","True","True",242,5250,NA
"A39C1BN9ZSQ0R2","Wed Sep 23 2020 11:03:50 GMT-0400 (Eastern Daylight Time)","Wed Sep 23 2020 11:10:23 GMT-0400 (Eastern Daylight Time)","Mozilla/5.0 (Windows NT 6.3; Win64; x64) AppleWebKit/537.36 (KHTML, like Gecko) Chrome/85.0.4183.121 Safari/537.36",91,"[0.9, 0.5, 0.1]","[0.8, 0.4, 0.2]","[u'black', u'red', u'blue']","[u'left', u'middle', u'right']","[0.8, 0.4, 0.2]","[u'low', u'high', u'medium']","black",49,"left","low","False","False",135,5200,NA
"A39C1BN9ZSQ0R2","Wed Sep 23 2020 11:03:50 GMT-0400 (Eastern Daylight Time)","Wed Sep 23 2020 11:10:23 GMT-0400 (Eastern Daylight Time)","Mozilla/5.0 (Windows NT 6.3; Win64; x64) AppleWebKit/537.36 (KHTML, like Gecko) Chrome/85.0.4183.121 Safari/537.36",92,"[0.9, 0.5, 0.1]","[0.8, 0.4, 0.2]","[u'black', u'red', u'blue']","[u'left', u'middle', u'right']","[0.8, 0.4, 0.2]","[u'low', u'high', u'medium']","blue",51,"right","medium","False","False",84,5150,NA
"A39C1BN9ZSQ0R2","Wed Sep 23 2020 11:03:50 GMT-0400 (Eastern Daylight Time)","Wed Sep 23 2020 11:10:23 GMT-0400 (Eastern Daylight Time)","Mozilla/5.0 (Windows NT 6.3; Win64; x64) AppleWebKit/537.36 (KHTML, like Gecko) Chrome/85.0.4183.121 Safari/537.36",93,"[0.9, 0.5, 0.1]","[0.8, 0.4, 0.2]","[u'black', u'red', u'blue']","[u'left', u'middle', u'right']","[0.8, 0.4, 0.2]","[u'low', u'high', u'medium']","red",50,"middle","high","True","False",102,5250,NA
"A39C1BN9ZSQ0R2","Wed Sep 23 2020 11:03:50 GMT-0400 (Eastern Daylight Time)","Wed Sep 23 2020 11:10:23 GMT-0400 (Eastern Daylight Time)","Mozilla/5.0 (Windows NT 6.3; Win64; x64) AppleWebKit/537.36 (KHTML, like Gecko) Chrome/85.0.4183.121 Safari/537.36",94,"[0.9, 0.5, 0.1]","[0.8, 0.4, 0.2]","[u'black', u'red', u'blue']","[u'left', u'middle', u'right']","[0.8, 0.4, 0.2]","[u'low', u'high', u'medium']","red",50,"middle","high","False","False",145,5200,NA
"A39C1BN9ZSQ0R2","Wed Sep 23 2020 11:03:50 GMT-0400 (Eastern Daylight Time)","Wed Sep 23 2020 11:10:23 GMT-0400 (Eastern Daylight Time)","Mozilla/5.0 (Windows NT 6.3; Win64; x64) AppleWebKit/537.36 (KHTML, like Gecko) Chrome/85.0.4183.121 Safari/537.36",95,"[0.9, 0.5, 0.1]","[0.8, 0.4, 0.2]","[u'black', u'red', u'blue']","[u'left', u'middle', u'right']","[0.8, 0.4, 0.2]","[u'low', u'high', u'medium']","red",50,"middle","high","True","False",52,5300,NA
"A39C1BN9ZSQ0R2","Wed Sep 23 2020 11:03:50 GMT-0400 (Eastern Daylight Time)","Wed Sep 23 2020 11:10:23 GMT-0400 (Eastern Daylight Time)","Mozilla/5.0 (Windows NT 6.3; Win64; x64) AppleWebKit/537.36 (KHTML, like Gecko) Chrome/85.0.4183.121 Safari/537.36",96,"[0.9, 0.5, 0.1]","[0.8, 0.4, 0.2]","[u'black', u'red', u'blue']","[u'left', u'middle', u'right']","[0.8, 0.4, 0.2]","[u'low', u'high', u'medium']","red",50,"middle","high","True","False",230,5400,NA
"A39C1BN9ZSQ0R2","Wed Sep 23 2020 11:03:50 GMT-0400 (Eastern Daylight Time)","Wed Sep 23 2020 11:10:23 GMT-0400 (Eastern Daylight Time)","Mozilla/5.0 (Windows NT 6.3; Win64; x64) AppleWebKit/537.36 (KHTML, like Gecko) Chrome/85.0.4183.121 Safari/537.36",97,"[0.9, 0.5, 0.1]","[0.8, 0.4, 0.2]","[u'black', u'red', u'blue']","[u'left', u'middle', u'right']","[0.8, 0.4, 0.2]","[u'low', u'high', u'medium']","red",50,"middle","high","True","False",196,5500,NA
"A39C1BN9ZSQ0R2","Wed Sep 23 2020 11:03:50 GMT-0400 (Eastern Daylight Time)","Wed Sep 23 2020 11:10:23 GMT-0400 (Eastern Daylight Time)","Mozilla/5.0 (Windows NT 6.3; Win64; x64) AppleWebKit/537.36 (KHTML, like Gecko) Chrome/85.0.4183.121 Safari/537.36",98,"[0.9, 0.5, 0.1]","[0.8, 0.4, 0.2]","[u'black', u'red', u'blue']","[u'left', u'middle', u'right']","[0.8, 0.4, 0.2]","[u'low', u'high', u'medium']","red",50,"middle","high","True","False",206,5600,NA
"A39C1BN9ZSQ0R2","Wed Sep 23 2020 11:03:50 GMT-0400 (Eastern Daylight Time)","Wed Sep 23 2020 11:10:23 GMT-0400 (Eastern Daylight Time)","Mozilla/5.0 (Windows NT 6.3; Win64; x64) AppleWebKit/537.36 (KHTML, like Gecko) Chrome/85.0.4183.121 Safari/537.36",99,"[0.9, 0.5, 0.1]","[0.8, 0.4, 0.2]","[u'black', u'red', u'blue']","[u'left', u'middle', u'right']","[0.8, 0.4, 0.2]","[u'low', u'high', u'medium']","red",50,"middle","high","True","False",181,5700,NA
"A39C1BN9ZSQ0R2","Wed Sep 23 2020 11:03:50 GMT-0400 (Eastern Daylight Time)","Wed Sep 23 2020 11:10:23 GMT-0400 (Eastern Daylight Time)","Mozilla/5.0 (Windows NT 6.3; Win64; x64) AppleWebKit/537.36 (KHTML, like Gecko) Chrome/85.0.4183.121 Safari/537.36",100,"[0.9, 0.5, 0.1]","[0.8, 0.4, 0.2]","[u'black', u'red', u'blue']","[u'left', u'middle', u'right']","[0.8, 0.4, 0.2]","[u'low', u'high', u'medium']","red",50,"middle","high","True","False",121,5800,NA
"A39C1BN9ZSQ0R2","Wed Sep 23 2020 11:03:50 GMT-0400 (Eastern Daylight Time)","Wed Sep 23 2020 11:10:23 GMT-0400 (Eastern Daylight Time)","Mozilla/5.0 (Windows NT 6.3; Win64; x64) AppleWebKit/537.36 (KHTML, like Gecko) Chrome/85.0.4183.121 Safari/537.36",101,"[0.9, 0.5, 0.1]","[0.8, 0.4, 0.2]","[u'black', u'red', u'blue']","[u'left', u'middle', u'right']","[0.8, 0.4, 0.2]","[u'low', u'high', u'medium']","red",50,"middle","high","True","True",65,5900,NA
"A39C1BN9ZSQ0R2","Wed Sep 23 2020 11:03:50 GMT-0400 (Eastern Daylight Time)","Wed Sep 23 2020 11:10:23 GMT-0400 (Eastern Daylight Time)","Mozilla/5.0 (Windows NT 6.3; Win64; x64) AppleWebKit/537.36 (KHTML, like Gecko) Chrome/85.0.4183.121 Safari/537.36",102,"[0.9, 0.5, 0.1]","[0.8, 0.4, 0.2]","[u'black', u'red', u'blue']","[u'left', u'middle', u'right']","[0.8, 0.4, 0.2]","[u'high', u'low', u'medium']","red",50,"middle","low","False","False",115,5850,NA
"A39C1BN9ZSQ0R2","Wed Sep 23 2020 11:03:50 GMT-0400 (Eastern Daylight Time)","Wed Sep 23 2020 11:10:23 GMT-0400 (Eastern Daylight Time)","Mozilla/5.0 (Windows NT 6.3; Win64; x64) AppleWebKit/537.36 (KHTML, like Gecko) Chrome/85.0.4183.121 Safari/537.36",103,"[0.9, 0.5, 0.1]","[0.8, 0.4, 0.2]","[u'black', u'red', u'blue']","[u'left', u'middle', u'right']","[0.8, 0.4, 0.2]","[u'high', u'low', u'medium']","red",50,"middle","low","False","False",947,5800,NA
"A39C1BN9ZSQ0R2","Wed Sep 23 2020 11:03:50 GMT-0400 (Eastern Daylight Time)","Wed Sep 23 2020 11:10:23 GMT-0400 (Eastern Daylight Time)","Mozilla/5.0 (Windows NT 6.3; Win64; x64) AppleWebKit/537.36 (KHTML, like Gecko) Chrome/85.0.4183.121 Safari/537.36",104,"[0.9, 0.5, 0.1]","[0.8, 0.4, 0.2]","[u'black', u'red', u'blue']","[u'left', u'middle', u'right']","[0.8, 0.4, 0.2]","[u'high', u'low', u'medium']","black",49,"left","high","True","False",73,5900,NA
"A39C1BN9ZSQ0R2","Wed Sep 23 2020 11:03:50 GMT-0400 (Eastern Daylight Time)","Wed Sep 23 2020 11:10:23 GMT-0400 (Eastern Daylight Time)","Mozilla/5.0 (Windows NT 6.3; Win64; x64) AppleWebKit/537.36 (KHTML, like Gecko) Chrome/85.0.4183.121 Safari/537.36",105,"[0.9, 0.5, 0.1]","[0.8, 0.4, 0.2]","[u'black', u'red', u'blue']","[u'left', u'middle', u'right']","[0.8, 0.4, 0.2]","[u'high', u'low', u'medium']","black",49,"left","high","False","False",178,5850,NA
"A39C1BN9ZSQ0R2","Wed Sep 23 2020 11:03:50 GMT-0400 (Eastern Daylight Time)","Wed Sep 23 2020 11:10:23 GMT-0400 (Eastern Daylight Time)","Mozilla/5.0 (Windows NT 6.3; Win64; x64) AppleWebKit/537.36 (KHTML, like Gecko) Chrome/85.0.4183.121 Safari/537.36",106,"[0.9, 0.5, 0.1]","[0.8, 0.4, 0.2]","[u'black', u'red', u'blue']","[u'left', u'middle', u'right']","[0.8, 0.4, 0.2]","[u'high', u'low', u'medium']","black",49,"left","high","True","False",91,5950,NA
"A39C1BN9ZSQ0R2","Wed Sep 23 2020 11:03:50 GMT-0400 (Eastern Daylight Time)","Wed Sep 23 2020 11:10:23 GMT-0400 (Eastern Daylight Time)","Mozilla/5.0 (Windows NT 6.3; Win64; x64) AppleWebKit/537.36 (KHTML, like Gecko) Chrome/85.0.4183.121 Safari/537.36",107,"[0.9, 0.5, 0.1]","[0.8, 0.4, 0.2]","[u'black', u'red', u'blue']","[u'left', u'middle', u'right']","[0.8, 0.4, 0.2]","[u'high', u'low', u'medium']","black",49,"left","high","True","False",163,6050,NA
"A39C1BN9ZSQ0R2","Wed Sep 23 2020 11:03:50 GMT-0400 (Eastern Daylight Time)","Wed Sep 23 2020 11:10:23 GMT-0400 (Eastern Daylight Time)","Mozilla/5.0 (Windows NT 6.3; Win64; x64) AppleWebKit/537.36 (KHTML, like Gecko) Chrome/85.0.4183.121 Safari/537.36",108,"[0.9, 0.5, 0.1]","[0.8, 0.4, 0.2]","[u'black', u'red', u'blue']","[u'left', u'middle', u'right']","[0.8, 0.4, 0.2]","[u'high', u'low', u'medium']","black",49,"left","high","True","False",161,6150,NA
"A39C1BN9ZSQ0R2","Wed Sep 23 2020 11:03:50 GMT-0400 (Eastern Daylight Time)","Wed Sep 23 2020 11:10:23 GMT-0400 (Eastern Daylight Time)","Mozilla/5.0 (Windows NT 6.3; Win64; x64) AppleWebKit/537.36 (KHTML, like Gecko) Chrome/85.0.4183.121 Safari/537.36",109,"[0.9, 0.5, 0.1]","[0.8, 0.4, 0.2]","[u'black', u'red', u'blue']","[u'left', u'middle', u'right']","[0.8, 0.4, 0.2]","[u'high', u'low', u'medium']","black",49,"left","high","True","False",199,6250,NA
"A39C1BN9ZSQ0R2","Wed Sep 23 2020 11:03:50 GMT-0400 (Eastern Daylight Time)","Wed Sep 23 2020 11:10:23 GMT-0400 (Eastern Daylight Time)","Mozilla/5.0 (Windows NT 6.3; Win64; x64) AppleWebKit/537.36 (KHTML, like Gecko) Chrome/85.0.4183.121 Safari/537.36",110,"[0.9, 0.5, 0.1]","[0.8, 0.4, 0.2]","[u'black', u'red', u'blue']","[u'left', u'middle', u'right']","[0.8, 0.4, 0.2]","[u'high', u'low', u'medium']","black",49,"left","high","True","False",116,6350,NA
"A39C1BN9ZSQ0R2","Wed Sep 23 2020 11:03:50 GMT-0400 (Eastern Daylight Time)","Wed Sep 23 2020 11:10:23 GMT-0400 (Eastern Daylight Time)","Mozilla/5.0 (Windows NT 6.3; Win64; x64) AppleWebKit/537.36 (KHTML, like Gecko) Chrome/85.0.4183.121 Safari/537.36",111,"[0.9, 0.5, 0.1]","[0.8, 0.4, 0.2]","[u'black', u'red', u'blue']","[u'left', u'middle', u'right']","[0.8, 0.4, 0.2]","[u'high', u'low', u'medium']","black",49,"left","high","False","False",84,6300,NA
"A39C1BN9ZSQ0R2","Wed Sep 23 2020 11:03:50 GMT-0400 (Eastern Daylight Time)","Wed Sep 23 2020 11:10:23 GMT-0400 (Eastern Daylight Time)","Mozilla/5.0 (Windows NT 6.3; Win64; x64) AppleWebKit/537.36 (KHTML, like Gecko) Chrome/85.0.4183.121 Safari/537.36",112,"[0.9, 0.5, 0.1]","[0.8, 0.4, 0.2]","[u'black', u'red', u'blue']","[u'left', u'middle', u'right']","[0.8, 0.4, 0.2]","[u'high', u'low', u'medium']","black",49,"left","high","True","True",416,6400,NA
"A39C1BN9ZSQ0R2","Wed Sep 23 2020 11:03:50 GMT-0400 (Eastern Daylight Time)","Wed Sep 23 2020 11:10:23 GMT-0400 (Eastern Daylight Time)","Mozilla/5.0 (Windows NT 6.3; Win64; x64) AppleWebKit/537.36 (KHTML, like Gecko) Chrome/85.0.4183.121 Safari/537.36",113,"[0.9, 0.5, 0.1]","[0.8, 0.4, 0.2]","[u'black', u'red', u'blue']","[u'left', u'middle', u'right']","[0.8, 0.4, 0.2]","[u'low', u'medium', u'high']","black",49,"left","low","False","False",198,6350,NA
"A39C1BN9ZSQ0R2","Wed Sep 23 2020 11:03:50 GMT-0400 (Eastern Daylight Time)","Wed Sep 23 2020 11:10:23 GMT-0400 (Eastern Daylight Time)","Mozilla/5.0 (Windows NT 6.3; Win64; x64) AppleWebKit/537.36 (KHTML, like Gecko) Chrome/85.0.4183.121 Safari/537.36",114,"[0.9, 0.5, 0.1]","[0.8, 0.4, 0.2]","[u'black', u'red', u'blue']","[u'left', u'middle', u'right']","[0.8, 0.4, 0.2]","[u'low', u'medium', u'high']","black",49,"left","low","False","False",592,6300,NA
"A39C1BN9ZSQ0R2","Wed Sep 23 2020 11:03:50 GMT-0400 (Eastern Daylight Time)","Wed Sep 23 2020 11:10:23 GMT-0400 (Eastern Daylight Time)","Mozilla/5.0 (Windows NT 6.3; Win64; x64) AppleWebKit/537.36 (KHTML, like Gecko) Chrome/85.0.4183.121 Safari/537.36",115,"[0.9, 0.5, 0.1]","[0.8, 0.4, 0.2]","[u'black', u'red', u'blue']","[u'left', u'middle', u'right']","[0.8, 0.4, 0.2]","[u'low', u'medium', u'high']","red",50,"middle","medium","False","False",106,6250,NA
"A39C1BN9ZSQ0R2","Wed Sep 23 2020 11:03:50 GMT-0400 (Eastern Daylight Time)","Wed Sep 23 2020 11:10:23 GMT-0400 (Eastern Daylight Time)","Mozilla/5.0 (Windows NT 6.3; Win64; x64) AppleWebKit/537.36 (KHTML, like Gecko) Chrome/85.0.4183.121 Safari/537.36",116,"[0.9, 0.5, 0.1]","[0.8, 0.4, 0.2]","[u'black', u'red', u'blue']","[u'left', u'middle', u'right']","[0.8, 0.4, 0.2]","[u'low', u'medium', u'high']","blue",51,"right","high","True","False",234,6350,NA
"A39C1BN9ZSQ0R2","Wed Sep 23 2020 11:03:50 GMT-0400 (Eastern Daylight Time)","Wed Sep 23 2020 11:10:23 GMT-0400 (Eastern Daylight Time)","Mozilla/5.0 (Windows NT 6.3; Win64; x64) AppleWebKit/537.36 (KHTML, like Gecko) Chrome/85.0.4183.121 Safari/537.36",117,"[0.9, 0.5, 0.1]","[0.8, 0.4, 0.2]","[u'black', u'red', u'blue']","[u'left', u'middle', u'right']","[0.8, 0.4, 0.2]","[u'low', u'medium', u'high']","blue",51,"right","high","True","False",194,6450,NA
"A39C1BN9ZSQ0R2","Wed Sep 23 2020 11:03:50 GMT-0400 (Eastern Daylight Time)","Wed Sep 23 2020 11:10:23 GMT-0400 (Eastern Daylight Time)","Mozilla/5.0 (Windows NT 6.3; Win64; x64) AppleWebKit/537.36 (KHTML, like Gecko) Chrome/85.0.4183.121 Safari/537.36",118,"[0.9, 0.5, 0.1]","[0.8, 0.4, 0.2]","[u'black', u'red', u'blue']","[u'left', u'middle', u'right']","[0.8, 0.4, 0.2]","[u'low', u'medium', u'high']","blue",51,"right","high","False","False",253,6400,NA
"A39C1BN9ZSQ0R2","Wed Sep 23 2020 11:03:50 GMT-0400 (Eastern Daylight Time)","Wed Sep 23 2020 11:10:23 GMT-0400 (Eastern Daylight Time)","Mozilla/5.0 (Windows NT 6.3; Win64; x64) AppleWebKit/537.36 (KHTML, like Gecko) Chrome/85.0.4183.121 Safari/537.36",119,"[0.9, 0.5, 0.1]","[0.8, 0.4, 0.2]","[u'black', u'red', u'blue']","[u'left', u'middle', u'right']","[0.8, 0.4, 0.2]","[u'low', u'medium', u'high']","blue",51,"right","high","True","False",22,6500,NA
"A39C1BN9ZSQ0R2","Wed Sep 23 2020 11:03:50 GMT-0400 (Eastern Daylight Time)","Wed Sep 23 2020 11:10:23 GMT-0400 (Eastern Daylight Time)","Mozilla/5.0 (Windows NT 6.3; Win64; x64) AppleWebKit/537.36 (KHTML, like Gecko) Chrome/85.0.4183.121 Safari/537.36",120,"[0.9, 0.5, 0.1]","[0.8, 0.4, 0.2]","[u'black', u'red', u'blue']","[u'left', u'middle', u'right']","[0.8, 0.4, 0.2]","[u'low', u'medium', u'high']","blue",51,"right","high","False","False",245,6450,NA
"A39C1BN9ZSQ0R2","Wed Sep 23 2020 11:03:50 GMT-0400 (Eastern Daylight Time)","Wed Sep 23 2020 11:10:23 GMT-0400 (Eastern Daylight Time)","Mozilla/5.0 (Windows NT 6.3; Win64; x64) AppleWebKit/537.36 (KHTML, like Gecko) Chrome/85.0.4183.121 Safari/537.36",121,"[0.9, 0.5, 0.1]","[0.8, 0.4, 0.2]","[u'black', u'red', u'blue']","[u'left', u'middle', u'right']","[0.8, 0.4, 0.2]","[u'low', u'high', u'medium']","red",50,"middle","high","True","False",227,6550,NA
"A39C1BN9ZSQ0R2","Wed Sep 23 2020 11:03:50 GMT-0400 (Eastern Daylight Time)","Wed Sep 23 2020 11:10:23 GMT-0400 (Eastern Daylight Time)","Mozilla/5.0 (Windows NT 6.3; Win64; x64) AppleWebKit/537.36 (KHTML, like Gecko) Chrome/85.0.4183.121 Safari/537.36",122,"[0.9, 0.5, 0.1]","[0.8, 0.4, 0.2]","[u'black', u'red', u'blue']","[u'left', u'middle', u'right']","[0.8, 0.4, 0.2]","[u'low', u'high', u'medium']","red",50,"middle","high","False","False",212,6500,NA
"A39C1BN9ZSQ0R2","Wed Sep 23 2020 11:03:50 GMT-0400 (Eastern Daylight Time)","Wed Sep 23 2020 11:10:23 GMT-0400 (Eastern Daylight Time)","Mozilla/5.0 (Windows NT 6.3; Win64; x64) AppleWebKit/537.36 (KHTML, like Gecko) Chrome/85.0.4183.121 Safari/537.36",123,"[0.9, 0.5, 0.1]","[0.8, 0.4, 0.2]","[u'black', u'red', u'blue']","[u'left', u'middle', u'right']","[0.8, 0.4, 0.2]","[u'low', u'high', u'medium']","red",50,"middle","high","True","False",160,6600,NA
"A39C1BN9ZSQ0R2","Wed Sep 23 2020 11:03:50 GMT-0400 (Eastern Daylight Time)","Wed Sep 23 2020 11:10:23 GMT-0400 (Eastern Daylight Time)","Mozilla/5.0 (Windows NT 6.3; Win64; x64) AppleWebKit/537.36 (KHTML, like Gecko) Chrome/85.0.4183.121 Safari/537.36",124,"[0.9, 0.5, 0.1]","[0.8, 0.4, 0.2]","[u'black', u'red', u'blue']","[u'left', u'middle', u'right']","[0.8, 0.4, 0.2]","[u'low', u'high', u'medium']","red",50,"middle","high","True","False",160,6700,NA
"A39C1BN9ZSQ0R2","Wed Sep 23 2020 11:03:50 GMT-0400 (Eastern Daylight Time)","Wed Sep 23 2020 11:10:23 GMT-0400 (Eastern Daylight Time)","Mozilla/5.0 (Windows NT 6.3; Win64; x64) AppleWebKit/537.36 (KHTML, like Gecko) Chrome/85.0.4183.121 Safari/537.36",125,"[0.9, 0.5, 0.1]","[0.8, 0.4, 0.2]","[u'black', u'red', u'blue']","[u'left', u'middle', u'right']","[0.8, 0.4, 0.2]","[u'low', u'high', u'medium']","red",50,"middle","high","False","False",183,6650,NA
"A39C1BN9ZSQ0R2","Wed Sep 23 2020 11:03:50 GMT-0400 (Eastern Daylight Time)","Wed Sep 23 2020 11:10:23 GMT-0400 (Eastern Daylight Time)","Mozilla/5.0 (Windows NT 6.3; Win64; x64) AppleWebKit/537.36 (KHTML, like Gecko) Chrome/85.0.4183.121 Safari/537.36",126,"[0.9, 0.5, 0.1]","[0.8, 0.4, 0.2]","[u'black', u'red', u'blue']","[u'left', u'middle', u'right']","[0.8, 0.4, 0.2]","[u'low', u'high', u'medium']","red",50,"middle","high","False","False",94,6600,NA
"A39C1BN9ZSQ0R2","Wed Sep 23 2020 11:03:50 GMT-0400 (Eastern Daylight Time)","Wed Sep 23 2020 11:10:23 GMT-0400 (Eastern Daylight Time)","Mozilla/5.0 (Windows NT 6.3; Win64; x64) AppleWebKit/537.36 (KHTML, like Gecko) Chrome/85.0.4183.121 Safari/537.36",127,"[0.9, 0.5, 0.1]","[0.8, 0.4, 0.2]","[u'black', u'red', u'blue']","[u'left', u'middle', u'right']","[0.8, 0.4, 0.2]","[u'low', u'high', u'medium']","blue",51,"right","medium","False","False",151,6550,NA
"A39C1BN9ZSQ0R2","Wed Sep 23 2020 11:03:50 GMT-0400 (Eastern Daylight Time)","Wed Sep 23 2020 11:10:23 GMT-0400 (Eastern Daylight Time)","Mozilla/5.0 (Windows NT 6.3; Win64; x64) AppleWebKit/537.36 (KHTML, like Gecko) Chrome/85.0.4183.121 Safari/537.36",128,"[0.9, 0.5, 0.1]","[0.8, 0.4, 0.2]","[u'black', u'red', u'blue']","[u'left', u'middle', u'right']","[0.8, 0.4, 0.2]","[u'low', u'high', u'medium']","black",49,"left","low","False","False",103,6500,NA
"A39C1BN9ZSQ0R2","Wed Sep 23 2020 11:03:50 GMT-0400 (Eastern Daylight Time)","Wed Sep 23 2020 11:10:23 GMT-0400 (Eastern Daylight Time)","Mozilla/5.0 (Windows NT 6.3; Win64; x64) AppleWebKit/537.36 (KHTML, like Gecko) Chrome/85.0.4183.121 Safari/537.36",129,"[0.9, 0.5, 0.1]","[0.8, 0.4, 0.2]","[u'black', u'red', u'blue']","[u'left', u'middle', u'right']","[0.8, 0.4, 0.2]","[u'low', u'high', u'medium']","blue",51,"right","medium","False","False",349,6450,NA
"A39C1BN9ZSQ0R2","Wed Sep 23 2020 11:03:50 GMT-0400 (Eastern Daylight Time)","Wed Sep 23 2020 11:10:23 GMT-0400 (Eastern Daylight Time)","Mozilla/5.0 (Windows NT 6.3; Win64; x64) AppleWebKit/537.36 (KHTML, like Gecko) Chrome/85.0.4183.121 Safari/537.36",130,"[0.9, 0.5, 0.1]","[0.8, 0.4, 0.2]","[u'black', u'red', u'blue']","[u'left', u'middle', u'right']","[0.8, 0.4, 0.2]","[u'low', u'high', u'medium']","red",50,"middle","high","True","False",273,6550,NA
"A39C1BN9ZSQ0R2","Wed Sep 23 2020 11:03:50 GMT-0400 (Eastern Daylight Time)","Wed Sep 23 2020 11:10:23 GMT-0400 (Eastern Daylight Time)","Mozilla/5.0 (Windows NT 6.3; Win64; x64) AppleWebKit/537.36 (KHTML, like Gecko) Chrome/85.0.4183.121 Safari/537.36",131,"[0.9, 0.5, 0.1]","[0.8, 0.4, 0.2]","[u'black', u'red', u'blue']","[u'left', u'middle', u'right']","[0.8, 0.4, 0.2]","[u'low', u'high', u'medium']","red",50,"middle","high","True","False",192,6650,NA
"A39C1BN9ZSQ0R2","Wed Sep 23 2020 11:03:50 GMT-0400 (Eastern Daylight Time)","Wed Sep 23 2020 11:10:23 GMT-0400 (Eastern Daylight Time)","Mozilla/5.0 (Windows NT 6.3; Win64; x64) AppleWebKit/537.36 (KHTML, like Gecko) Chrome/85.0.4183.121 Safari/537.36",132,"[0.9, 0.5, 0.1]","[0.8, 0.4, 0.2]","[u'black', u'red', u'blue']","[u'left', u'middle', u'right']","[0.8, 0.4, 0.2]","[u'low', u'high', u'medium']","red",50,"middle","high","True","False",128,6750,NA
"A39C1BN9ZSQ0R2","Wed Sep 23 2020 11:03:50 GMT-0400 (Eastern Daylight Time)","Wed Sep 23 2020 11:10:23 GMT-0400 (Eastern Daylight Time)","Mozilla/5.0 (Windows NT 6.3; Win64; x64) AppleWebKit/537.36 (KHTML, like Gecko) Chrome/85.0.4183.121 Safari/537.36",133,"[0.9, 0.5, 0.1]","[0.8, 0.4, 0.2]","[u'black', u'red', u'blue']","[u'left', u'middle', u'right']","[0.8, 0.4, 0.2]","[u'low', u'high', u'medium']","red",50,"middle","high","False","False",112,6700,NA
"A39C1BN9ZSQ0R2","Wed Sep 23 2020 11:03:50 GMT-0400 (Eastern Daylight Time)","Wed Sep 23 2020 11:10:23 GMT-0400 (Eastern Daylight Time)","Mozilla/5.0 (Windows NT 6.3; Win64; x64) AppleWebKit/537.36 (KHTML, like Gecko) Chrome/85.0.4183.121 Safari/537.36",134,"[0.9, 0.5, 0.1]","[0.8, 0.4, 0.2]","[u'black', u'red', u'blue']","[u'left', u'middle', u'right']","[0.8, 0.4, 0.2]","[u'low', u'high', u'medium']","red",50,"middle","high","False","False",222,6650,NA
"A39C1BN9ZSQ0R2","Wed Sep 23 2020 11:03:50 GMT-0400 (Eastern Daylight Time)","Wed Sep 23 2020 11:10:23 GMT-0400 (Eastern Daylight Time)","Mozilla/5.0 (Windows NT 6.3; Win64; x64) AppleWebKit/537.36 (KHTML, like Gecko) Chrome/85.0.4183.121 Safari/537.36",135,"[0.9, 0.5, 0.1]","[0.8, 0.4, 0.2]","[u'black', u'red', u'blue']","[u'left', u'middle', u'right']","[0.8, 0.4, 0.2]","[u'low', u'high', u'medium']","black",49,"left","low","False","False",47,6600,NA
"A39C1BN9ZSQ0R2","Wed Sep 23 2020 11:03:50 GMT-0400 (Eastern Daylight Time)","Wed Sep 23 2020 11:10:23 GMT-0400 (Eastern Daylight Time)","Mozilla/5.0 (Windows NT 6.3; Win64; x64) AppleWebKit/537.36 (KHTML, like Gecko) Chrome/85.0.4183.121 Safari/537.36",136,"[0.9, 0.5, 0.1]","[0.8, 0.4, 0.2]","[u'black', u'red', u'blue']","[u'left', u'middle', u'right']","[0.8, 0.4, 0.2]","[u'low', u'high', u'medium']","blue",51,"right","medium","False","False",167,6550,NA
"A39C1BN9ZSQ0R2","Wed Sep 23 2020 11:03:50 GMT-0400 (Eastern Daylight Time)","Wed Sep 23 2020 11:10:23 GMT-0400 (Eastern Daylight Time)","Mozilla/5.0 (Windows NT 6.3; Win64; x64) AppleWebKit/537.36 (KHTML, like Gecko) Chrome/85.0.4183.121 Safari/537.36",137,"[0.9, 0.5, 0.1]","[0.8, 0.4, 0.2]","[u'black', u'red', u'blue']","[u'left', u'middle', u'right']","[0.8, 0.4, 0.2]","[u'low', u'high', u'medium']","red",50,"middle","high","True","False",554,6650,NA
"A39C1BN9ZSQ0R2","Wed Sep 23 2020 11:03:50 GMT-0400 (Eastern Daylight Time)","Wed Sep 23 2020 11:10:23 GMT-0400 (Eastern Daylight Time)","Mozilla/5.0 (Windows NT 6.3; Win64; x64) AppleWebKit/537.36 (KHTML, like Gecko) Chrome/85.0.4183.121 Safari/537.36",138,"[0.9, 0.5, 0.1]","[0.8, 0.4, 0.2]","[u'black', u'red', u'blue']","[u'left', u'middle', u'right']","[0.8, 0.4, 0.2]","[u'low', u'high', u'medium']","red",50,"middle","high","True","False",188,6750,NA
"A39C1BN9ZSQ0R2","Wed Sep 23 2020 11:03:50 GMT-0400 (Eastern Daylight Time)","Wed Sep 23 2020 11:10:23 GMT-0400 (Eastern Daylight Time)","Mozilla/5.0 (Windows NT 6.3; Win64; x64) AppleWebKit/537.36 (KHTML, like Gecko) Chrome/85.0.4183.121 Safari/537.36",139,"[0.9, 0.5, 0.1]","[0.8, 0.4, 0.2]","[u'black', u'red', u'blue']","[u'left', u'middle', u'right']","[0.8, 0.4, 0.2]","[u'low', u'high', u'medium']","red",50,"middle","high","True","False",208,6850,NA
"A39C1BN9ZSQ0R2","Wed Sep 23 2020 11:03:50 GMT-0400 (Eastern Daylight Time)","Wed Sep 23 2020 11:10:23 GMT-0400 (Eastern Daylight Time)","Mozilla/5.0 (Windows NT 6.3; Win64; x64) AppleWebKit/537.36 (KHTML, like Gecko) Chrome/85.0.4183.121 Safari/537.36",140,"[0.9, 0.5, 0.1]","[0.8, 0.4, 0.2]","[u'black', u'red', u'blue']","[u'left', u'middle', u'right']","[0.8, 0.4, 0.2]","[u'low', u'high', u'medium']","red",50,"middle","high","False","False",212,6800,NA
"A39C1BN9ZSQ0R2","Wed Sep 23 2020 11:03:50 GMT-0400 (Eastern Daylight Time)","Wed Sep 23 2020 11:10:23 GMT-0400 (Eastern Daylight Time)","Mozilla/5.0 (Windows NT 6.3; Win64; x64) AppleWebKit/537.36 (KHTML, like Gecko) Chrome/85.0.4183.121 Safari/537.36",141,"[0.9, 0.5, 0.1]","[0.8, 0.4, 0.2]","[u'black', u'red', u'blue']","[u'left', u'middle', u'right']","[0.8, 0.4, 0.2]","[u'low', u'high', u'medium']","red",50,"middle","high","False","False",150,6750,NA
"A39C1BN9ZSQ0R2","Wed Sep 23 2020 11:03:50 GMT-0400 (Eastern Daylight Time)","Wed Sep 23 2020 11:10:23 GMT-0400 (Eastern Daylight Time)","Mozilla/5.0 (Windows NT 6.3; Win64; x64) AppleWebKit/537.36 (KHTML, like Gecko) Chrome/85.0.4183.121 Safari/537.36",142,"[0.9, 0.5, 0.1]","[0.8, 0.4, 0.2]","[u'black', u'red', u'blue']","[u'left', u'middle', u'right']","[0.8, 0.4, 0.2]","[u'low', u'high', u'medium']","black",49,"left","low","True","False",134,6850,NA
"A39C1BN9ZSQ0R2","Wed Sep 23 2020 11:03:50 GMT-0400 (Eastern Daylight Time)","Wed Sep 23 2020 11:10:23 GMT-0400 (Eastern Daylight Time)","Mozilla/5.0 (Windows NT 6.3; Win64; x64) AppleWebKit/537.36 (KHTML, like Gecko) Chrome/85.0.4183.121 Safari/537.36",143,"[0.9, 0.5, 0.1]","[0.8, 0.4, 0.2]","[u'black', u'red', u'blue']","[u'left', u'middle', u'right']","[0.8, 0.4, 0.2]","[u'low', u'high', u'medium']","black",49,"left","low","False","False",165,6800,NA
"A39C1BN9ZSQ0R2","Wed Sep 23 2020 11:03:50 GMT-0400 (Eastern Daylight Time)","Wed Sep 23 2020 11:10:23 GMT-0400 (Eastern Daylight Time)","Mozilla/5.0 (Windows NT 6.3; Win64; x64) AppleWebKit/537.36 (KHTML, like Gecko) Chrome/85.0.4183.121 Safari/537.36",144,"[0.9, 0.5, 0.1]","[0.8, 0.4, 0.2]","[u'black', u'red', u'blue']","[u'left', u'middle', u'right']","[0.8, 0.4, 0.2]","[u'low', u'high', u'medium']","black",49,"left","low","False","False",188,6750,NA
"A39C1BN9ZSQ0R2","Wed Sep 23 2020 11:03:50 GMT-0400 (Eastern Daylight Time)","Wed Sep 23 2020 11:10:23 GMT-0400 (Eastern Daylight Time)","Mozilla/5.0 (Windows NT 6.3; Win64; x64) AppleWebKit/537.36 (KHTML, like Gecko) Chrome/85.0.4183.121 Safari/537.36",145,"[0.9, 0.5, 0.1]","[0.8, 0.4, 0.2]","[u'black', u'red', u'blue']","[u'left', u'middle', u'right']","[0.8, 0.4, 0.2]","[u'low', u'high', u'medium']","blue",51,"right","medium","False","False",109,6700,NA
"A39C1BN9ZSQ0R2","Wed Sep 23 2020 11:03:50 GMT-0400 (Eastern Daylight Time)","Wed Sep 23 2020 11:10:23 GMT-0400 (Eastern Daylight Time)","Mozilla/5.0 (Windows NT 6.3; Win64; x64) AppleWebKit/537.36 (KHTML, like Gecko) Chrome/85.0.4183.121 Safari/537.36",146,"[0.9, 0.5, 0.1]","[0.8, 0.4, 0.2]","[u'black', u'red', u'blue']","[u'left', u'middle', u'right']","[0.8, 0.4, 0.2]","[u'low', u'high', u'medium']","red",50,"middle","high","True","False",129,6800,NA
"A39C1BN9ZSQ0R2","Wed Sep 23 2020 11:03:50 GMT-0400 (Eastern Daylight Time)","Wed Sep 23 2020 11:10:23 GMT-0400 (Eastern Daylight Time)","Mozilla/5.0 (Windows NT 6.3; Win64; x64) AppleWebKit/537.36 (KHTML, like Gecko) Chrome/85.0.4183.121 Safari/537.36",147,"[0.9, 0.5, 0.1]","[0.8, 0.4, 0.2]","[u'black', u'red', u'blue']","[u'left', u'middle', u'right']","[0.8, 0.4, 0.2]","[u'low', u'high', u'medium']","red",50,"middle","high","True","False",216,6900,NA
"A39C1BN9ZSQ0R2","Wed Sep 23 2020 11:03:50 GMT-0400 (Eastern Daylight Time)","Wed Sep 23 2020 11:10:23 GMT-0400 (Eastern Daylight Time)","Mozilla/5.0 (Windows NT 6.3; Win64; x64) AppleWebKit/537.36 (KHTML, like Gecko) Chrome/85.0.4183.121 Safari/537.36",148,"[0.9, 0.5, 0.1]","[0.8, 0.4, 0.2]","[u'black', u'red', u'blue']","[u'left', u'middle', u'right']","[0.8, 0.4, 0.2]","[u'low', u'high', u'medium']","red",50,"middle","high","True","False",145,7000,NA
"A39C1BN9ZSQ0R2","Wed Sep 23 2020 11:03:50 GMT-0400 (Eastern Daylight Time)","Wed Sep 23 2020 11:10:23 GMT-0400 (Eastern Daylight Time)","Mozilla/5.0 (Windows NT 6.3; Win64; x64) AppleWebKit/537.36 (KHTML, like Gecko) Chrome/85.0.4183.121 Safari/537.36",149,"[0.9, 0.5, 0.1]","[0.8, 0.4, 0.2]","[u'black', u'red', u'blue']","[u'left', u'middle', u'right']","[0.8, 0.4, 0.2]","[u'low', u'high', u'medium']","red",50,"middle","high","True","False",139,7100,NA
"A39C1BN9ZSQ0R2","Wed Sep 23 2020 11:03:50 GMT-0400 (Eastern Daylight Time)","Wed Sep 23 2020 11:10:23 GMT-0400 (Eastern Daylight Time)","Mozilla/5.0 (Windows NT 6.3; Win64; x64) AppleWebKit/537.36 (KHTML, like Gecko) Chrome/85.0.4183.121 Safari/537.36",150,"[0.9, 0.5, 0.1]","[0.8, 0.4, 0.2]","[u'black', u'red', u'blue']","[u'left', u'middle', u'right']","[0.8, 0.4, 0.2]","[u'low', u'high', u'medium']","red",50,"middle","high","True","False",153,7200,NA
"A39C1BN9ZSQ0R2","Wed Sep 23 2020 11:03:50 GMT-0400 (Eastern Daylight Time)","Wed Sep 23 2020 11:10:23 GMT-0400 (Eastern Daylight Time)","Mozilla/5.0 (Windows NT 6.3; Win64; x64) AppleWebKit/537.36 (KHTML, like Gecko) Chrome/85.0.4183.121 Safari/537.36",151,"[0.9, 0.5, 0.1]","[0.8, 0.4, 0.2]","[u'black', u'red', u'blue']","[u'left', u'middle', u'right']","[0.8, 0.4, 0.2]","[u'low', u'high', u'medium']","red",50,"middle","high","True","False",91,7300,NA
"A39C1BN9ZSQ0R2","Wed Sep 23 2020 11:03:50 GMT-0400 (Eastern Daylight Time)","Wed Sep 23 2020 11:10:23 GMT-0400 (Eastern Daylight Time)","Mozilla/5.0 (Windows NT 6.3; Win64; x64) AppleWebKit/537.36 (KHTML, like Gecko) Chrome/85.0.4183.121 Safari/537.36",152,"[0.9, 0.5, 0.1]","[0.8, 0.4, 0.2]","[u'black', u'red', u'blue']","[u'left', u'middle', u'right']","[0.8, 0.4, 0.2]","[u'low', u'high', u'medium']","red",50,"middle","high","False","False",164,7250,NA
"A39C1BN9ZSQ0R2","Wed Sep 23 2020 11:03:50 GMT-0400 (Eastern Daylight Time)","Wed Sep 23 2020 11:10:23 GMT-0400 (Eastern Daylight Time)","Mozilla/5.0 (Windows NT 6.3; Win64; x64) AppleWebKit/537.36 (KHTML, like Gecko) Chrome/85.0.4183.121 Safari/537.36",153,"[0.9, 0.5, 0.1]","[0.8, 0.4, 0.2]","[u'black', u'red', u'blue']","[u'left', u'middle', u'right']","[0.8, 0.4, 0.2]","[u'low', u'high', u'medium']","red",50,"middle","high","True","False",106,7350,NA
"A39C1BN9ZSQ0R2","Wed Sep 23 2020 11:03:50 GMT-0400 (Eastern Daylight Time)","Wed Sep 23 2020 11:10:23 GMT-0400 (Eastern Daylight Time)","Mozilla/5.0 (Windows NT 6.3; Win64; x64) AppleWebKit/537.36 (KHTML, like Gecko) Chrome/85.0.4183.121 Safari/537.36",154,"[0.9, 0.5, 0.1]","[0.8, 0.4, 0.2]","[u'black', u'red', u'blue']","[u'left', u'middle', u'right']","[0.8, 0.4, 0.2]","[u'low', u'high', u'medium']","red",50,"middle","high","True","True",158,7450,NA
"A39C1BN9ZSQ0R2","Wed Sep 23 2020 11:03:50 GMT-0400 (Eastern Daylight Time)","Wed Sep 23 2020 11:10:23 GMT-0400 (Eastern Daylight Time)","Mozilla/5.0 (Windows NT 6.3; Win64; x64) AppleWebKit/537.36 (KHTML, like Gecko) Chrome/85.0.4183.121 Safari/537.36",155,"[0.9, 0.5, 0.1]","[0.8, 0.4, 0.2]","[u'black', u'red', u'blue']","[u'left', u'middle', u'right']","[0.8, 0.4, 0.2]","[u'high', u'medium', u'low']","red",50,"middle","medium","False","False",116,7400,NA
"A39C1BN9ZSQ0R2","Wed Sep 23 2020 11:03:50 GMT-0400 (Eastern Daylight Time)","Wed Sep 23 2020 11:10:23 GMT-0400 (Eastern Daylight Time)","Mozilla/5.0 (Windows NT 6.3; Win64; x64) AppleWebKit/537.36 (KHTML, like Gecko) Chrome/85.0.4183.121 Safari/537.36",156,"[0.9, 0.5, 0.1]","[0.8, 0.4, 0.2]","[u'black', u'red', u'blue']","[u'left', u'middle', u'right']","[0.8, 0.4, 0.2]","[u'high', u'medium', u'low']","red",50,"middle","medium","True","False",127,7500,NA
"A39C1BN9ZSQ0R2","Wed Sep 23 2020 11:03:50 GMT-0400 (Eastern Daylight Time)","Wed Sep 23 2020 11:10:23 GMT-0400 (Eastern Daylight Time)","Mozilla/5.0 (Windows NT 6.3; Win64; x64) AppleWebKit/537.36 (KHTML, like Gecko) Chrome/85.0.4183.121 Safari/537.36",157,"[0.9, 0.5, 0.1]","[0.8, 0.4, 0.2]","[u'black', u'red', u'blue']","[u'left', u'middle', u'right']","[0.8, 0.4, 0.2]","[u'high', u'medium', u'low']","red",50,"middle","medium","False","False",105,7450,NA
"A39C1BN9ZSQ0R2","Wed Sep 23 2020 11:03:50 GMT-0400 (Eastern Daylight Time)","Wed Sep 23 2020 11:10:23 GMT-0400 (Eastern Daylight Time)","Mozilla/5.0 (Windows NT 6.3; Win64; x64) AppleWebKit/537.36 (KHTML, like Gecko) Chrome/85.0.4183.121 Safari/537.36",158,"[0.9, 0.5, 0.1]","[0.8, 0.4, 0.2]","[u'black', u'red', u'blue']","[u'left', u'middle', u'right']","[0.8, 0.4, 0.2]","[u'high', u'medium', u'low']","red",50,"middle","medium","True","False",89,7550,NA
"A39C1BN9ZSQ0R2","Wed Sep 23 2020 11:03:50 GMT-0400 (Eastern Daylight Time)","Wed Sep 23 2020 11:10:23 GMT-0400 (Eastern Daylight Time)","Mozilla/5.0 (Windows NT 6.3; Win64; x64) AppleWebKit/537.36 (KHTML, like Gecko) Chrome/85.0.4183.121 Safari/537.36",159,"[0.9, 0.5, 0.1]","[0.8, 0.4, 0.2]","[u'black', u'red', u'blue']","[u'left', u'middle', u'right']","[0.8, 0.4, 0.2]","[u'high', u'medium', u'low']","red",50,"middle","medium","False","False",146,7500,NA
"A39C1BN9ZSQ0R2","Wed Sep 23 2020 11:03:50 GMT-0400 (Eastern Daylight Time)","Wed Sep 23 2020 11:10:23 GMT-0400 (Eastern Daylight Time)","Mozilla/5.0 (Windows NT 6.3; Win64; x64) AppleWebKit/537.36 (KHTML, like Gecko) Chrome/85.0.4183.121 Safari/537.36",160,"[0.9, 0.5, 0.1]","[0.8, 0.4, 0.2]","[u'black', u'red', u'blue']","[u'left', u'middle', u'right']","[0.8, 0.4, 0.2]","[u'high', u'medium', u'low']","red",50,"middle","medium","False","False",147,7450,NA
