"src_subject_id","start_time","end_time","browser","index","first_half_probabilities","second_half_probabilities","deck_color","deck_position","deck_probabilities","deck_contingencies","response_color","key_press","response_position","response_probability","reward_type","trial_type","rt","reward_tally","exclusion_reason"
"A340UNNVUZMEZF","Wed Jan 29 2020 07:53:28 GMT-0600 (Central Standard Time)","Wed Jan 29 2020 08:02:25 GMT-0600 (Central Standard Time)","Mozilla/5.0 (Windows NT 6.1; Win64; x64) AppleWebKit/537.36 (KHTML, like Gecko) Chrome/79.0.3945.130 Safari/537.36",1,"[0.9, 0.5, 0.1]","[0.8, 0.4, 0.2]","[u'blue', u'black', u'red']","[u'left', u'middle', u'right']","[0.9, 0.5, 0.1]","[u'low', u'medium', u'high']","black",50,"middle","medium","False","False",905,-50,NA
"A340UNNVUZMEZF","Wed Jan 29 2020 07:53:28 GMT-0600 (Central Standard Time)","Wed Jan 29 2020 08:02:25 GMT-0600 (Central Standard Time)","Mozilla/5.0 (Windows NT 6.1; Win64; x64) AppleWebKit/537.36 (KHTML, like Gecko) Chrome/79.0.3945.130 Safari/537.36",2,"[0.9, 0.5, 0.1]","[0.8, 0.4, 0.2]","[u'blue', u'black', u'red']","[u'left', u'middle', u'right']","[0.9, 0.5, 0.1]","[u'low', u'medium', u'high']","blue",49,"left","low","False","False",585,-100,NA
"A340UNNVUZMEZF","Wed Jan 29 2020 07:53:28 GMT-0600 (Central Standard Time)","Wed Jan 29 2020 08:02:25 GMT-0600 (Central Standard Time)","Mozilla/5.0 (Windows NT 6.1; Win64; x64) AppleWebKit/537.36 (KHTML, like Gecko) Chrome/79.0.3945.130 Safari/537.36",3,"[0.9, 0.5, 0.1]","[0.8, 0.4, 0.2]","[u'blue', u'black', u'red']","[u'left', u'middle', u'right']","[0.9, 0.5, 0.1]","[u'low', u'medium', u'high']","red",51,"right","high","False","False",348,-150,NA
"A340UNNVUZMEZF","Wed Jan 29 2020 07:53:28 GMT-0600 (Central Standard Time)","Wed Jan 29 2020 08:02:25 GMT-0600 (Central Standard Time)","Mozilla/5.0 (Windows NT 6.1; Win64; x64) AppleWebKit/537.36 (KHTML, like Gecko) Chrome/79.0.3945.130 Safari/537.36",4,"[0.9, 0.5, 0.1]","[0.8, 0.4, 0.2]","[u'blue', u'black', u'red']","[u'left', u'middle', u'right']","[0.9, 0.5, 0.1]","[u'low', u'medium', u'high']","black",50,"middle","medium","False","False",317,-200,NA
"A340UNNVUZMEZF","Wed Jan 29 2020 07:53:28 GMT-0600 (Central Standard Time)","Wed Jan 29 2020 08:02:25 GMT-0600 (Central Standard Time)","Mozilla/5.0 (Windows NT 6.1; Win64; x64) AppleWebKit/537.36 (KHTML, like Gecko) Chrome/79.0.3945.130 Safari/537.36",5,"[0.9, 0.5, 0.1]","[0.8, 0.4, 0.2]","[u'blue', u'black', u'red']","[u'left', u'middle', u'right']","[0.9, 0.5, 0.1]","[u'low', u'medium', u'high']","blue",49,"left","low","False","False",284,-250,NA
"A340UNNVUZMEZF","Wed Jan 29 2020 07:53:28 GMT-0600 (Central Standard Time)","Wed Jan 29 2020 08:02:25 GMT-0600 (Central Standard Time)","Mozilla/5.0 (Windows NT 6.1; Win64; x64) AppleWebKit/537.36 (KHTML, like Gecko) Chrome/79.0.3945.130 Safari/537.36",6,"[0.9, 0.5, 0.1]","[0.8, 0.4, 0.2]","[u'blue', u'black', u'red']","[u'left', u'middle', u'right']","[0.9, 0.5, 0.1]","[u'low', u'medium', u'high']","blue",49,"left","low","True","False",228,-150,NA
"A340UNNVUZMEZF","Wed Jan 29 2020 07:53:28 GMT-0600 (Central Standard Time)","Wed Jan 29 2020 08:02:25 GMT-0600 (Central Standard Time)","Mozilla/5.0 (Windows NT 6.1; Win64; x64) AppleWebKit/537.36 (KHTML, like Gecko) Chrome/79.0.3945.130 Safari/537.36",7,"[0.9, 0.5, 0.1]","[0.8, 0.4, 0.2]","[u'blue', u'black', u'red']","[u'left', u'middle', u'right']","[0.9, 0.5, 0.1]","[u'low', u'medium', u'high']","blue",49,"left","low","False","False",257,-200,NA
"A340UNNVUZMEZF","Wed Jan 29 2020 07:53:28 GMT-0600 (Central Standard Time)","Wed Jan 29 2020 08:02:25 GMT-0600 (Central Standard Time)","Mozilla/5.0 (Windows NT 6.1; Win64; x64) AppleWebKit/537.36 (KHTML, like Gecko) Chrome/79.0.3945.130 Safari/537.36",8,"[0.9, 0.5, 0.1]","[0.8, 0.4, 0.2]","[u'blue', u'black', u'red']","[u'left', u'middle', u'right']","[0.9, 0.5, 0.1]","[u'low', u'medium', u'high']","blue",49,"left","low","False","False",51,-250,NA
"A340UNNVUZMEZF","Wed Jan 29 2020 07:53:28 GMT-0600 (Central Standard Time)","Wed Jan 29 2020 08:02:25 GMT-0600 (Central Standard Time)","Mozilla/5.0 (Windows NT 6.1; Win64; x64) AppleWebKit/537.36 (KHTML, like Gecko) Chrome/79.0.3945.130 Safari/537.36",9,"[0.9, 0.5, 0.1]","[0.8, 0.4, 0.2]","[u'blue', u'black', u'red']","[u'left', u'middle', u'right']","[0.9, 0.5, 0.1]","[u'low', u'medium', u'high']","black",50,"middle","medium","True","False",580,-150,NA
"A340UNNVUZMEZF","Wed Jan 29 2020 07:53:28 GMT-0600 (Central Standard Time)","Wed Jan 29 2020 08:02:25 GMT-0600 (Central Standard Time)","Mozilla/5.0 (Windows NT 6.1; Win64; x64) AppleWebKit/537.36 (KHTML, like Gecko) Chrome/79.0.3945.130 Safari/537.36",10,"[0.9, 0.5, 0.1]","[0.8, 0.4, 0.2]","[u'blue', u'black', u'red']","[u'left', u'middle', u'right']","[0.9, 0.5, 0.1]","[u'low', u'medium', u'high']","red",51,"right","high","True","False",348,-50,NA
"A340UNNVUZMEZF","Wed Jan 29 2020 07:53:28 GMT-0600 (Central Standard Time)","Wed Jan 29 2020 08:02:25 GMT-0600 (Central Standard Time)","Mozilla/5.0 (Windows NT 6.1; Win64; x64) AppleWebKit/537.36 (KHTML, like Gecko) Chrome/79.0.3945.130 Safari/537.36",11,"[0.9, 0.5, 0.1]","[0.8, 0.4, 0.2]","[u'blue', u'black', u'red']","[u'left', u'middle', u'right']","[0.9, 0.5, 0.1]","[u'low', u'medium', u'high']","black",50,"middle","medium","True","False",330,50,NA
"A340UNNVUZMEZF","Wed Jan 29 2020 07:53:28 GMT-0600 (Central Standard Time)","Wed Jan 29 2020 08:02:25 GMT-0600 (Central Standard Time)","Mozilla/5.0 (Windows NT 6.1; Win64; x64) AppleWebKit/537.36 (KHTML, like Gecko) Chrome/79.0.3945.130 Safari/537.36",12,"[0.9, 0.5, 0.1]","[0.8, 0.4, 0.2]","[u'blue', u'black', u'red']","[u'left', u'middle', u'right']","[0.9, 0.5, 0.1]","[u'low', u'medium', u'high']","black",50,"middle","medium","False","False",254,0,NA
"A340UNNVUZMEZF","Wed Jan 29 2020 07:53:28 GMT-0600 (Central Standard Time)","Wed Jan 29 2020 08:02:25 GMT-0600 (Central Standard Time)","Mozilla/5.0 (Windows NT 6.1; Win64; x64) AppleWebKit/537.36 (KHTML, like Gecko) Chrome/79.0.3945.130 Safari/537.36",13,"[0.9, 0.5, 0.1]","[0.8, 0.4, 0.2]","[u'blue', u'black', u'red']","[u'left', u'middle', u'right']","[0.9, 0.5, 0.1]","[u'low', u'medium', u'high']","blue",49,"left","low","False","False",214,-50,NA
"A340UNNVUZMEZF","Wed Jan 29 2020 07:53:28 GMT-0600 (Central Standard Time)","Wed Jan 29 2020 08:02:25 GMT-0600 (Central Standard Time)","Mozilla/5.0 (Windows NT 6.1; Win64; x64) AppleWebKit/537.36 (KHTML, like Gecko) Chrome/79.0.3945.130 Safari/537.36",14,"[0.9, 0.5, 0.1]","[0.8, 0.4, 0.2]","[u'blue', u'black', u'red']","[u'left', u'middle', u'right']","[0.9, 0.5, 0.1]","[u'low', u'medium', u'high']","black",50,"middle","medium","False","False",261,-100,NA
"A340UNNVUZMEZF","Wed Jan 29 2020 07:53:28 GMT-0600 (Central Standard Time)","Wed Jan 29 2020 08:02:25 GMT-0600 (Central Standard Time)","Mozilla/5.0 (Windows NT 6.1; Win64; x64) AppleWebKit/537.36 (KHTML, like Gecko) Chrome/79.0.3945.130 Safari/537.36",15,"[0.9, 0.5, 0.1]","[0.8, 0.4, 0.2]","[u'blue', u'black', u'red']","[u'left', u'middle', u'right']","[0.9, 0.5, 0.1]","[u'low', u'medium', u'high']","red",51,"right","high","True","False",266,0,NA
"A340UNNVUZMEZF","Wed Jan 29 2020 07:53:28 GMT-0600 (Central Standard Time)","Wed Jan 29 2020 08:02:25 GMT-0600 (Central Standard Time)","Mozilla/5.0 (Windows NT 6.1; Win64; x64) AppleWebKit/537.36 (KHTML, like Gecko) Chrome/79.0.3945.130 Safari/537.36",16,"[0.9, 0.5, 0.1]","[0.8, 0.4, 0.2]","[u'blue', u'black', u'red']","[u'left', u'middle', u'right']","[0.9, 0.5, 0.1]","[u'low', u'medium', u'high']","black",50,"middle","medium","False","False",321,-50,NA
"A340UNNVUZMEZF","Wed Jan 29 2020 07:53:28 GMT-0600 (Central Standard Time)","Wed Jan 29 2020 08:02:25 GMT-0600 (Central Standard Time)","Mozilla/5.0 (Windows NT 6.1; Win64; x64) AppleWebKit/537.36 (KHTML, like Gecko) Chrome/79.0.3945.130 Safari/537.36",17,"[0.9, 0.5, 0.1]","[0.8, 0.4, 0.2]","[u'blue', u'black', u'red']","[u'left', u'middle', u'right']","[0.9, 0.5, 0.1]","[u'low', u'medium', u'high']","blue",49,"left","low","True","False",305,50,NA
"A340UNNVUZMEZF","Wed Jan 29 2020 07:53:28 GMT-0600 (Central Standard Time)","Wed Jan 29 2020 08:02:25 GMT-0600 (Central Standard Time)","Mozilla/5.0 (Windows NT 6.1; Win64; x64) AppleWebKit/537.36 (KHTML, like Gecko) Chrome/79.0.3945.130 Safari/537.36",18,"[0.9, 0.5, 0.1]","[0.8, 0.4, 0.2]","[u'blue', u'black', u'red']","[u'left', u'middle', u'right']","[0.9, 0.5, 0.1]","[u'low', u'medium', u'high']","black",50,"middle","medium","True","False",299,150,NA
"A340UNNVUZMEZF","Wed Jan 29 2020 07:53:28 GMT-0600 (Central Standard Time)","Wed Jan 29 2020 08:02:25 GMT-0600 (Central Standard Time)","Mozilla/5.0 (Windows NT 6.1; Win64; x64) AppleWebKit/537.36 (KHTML, like Gecko) Chrome/79.0.3945.130 Safari/537.36",19,"[0.9, 0.5, 0.1]","[0.8, 0.4, 0.2]","[u'blue', u'black', u'red']","[u'left', u'middle', u'right']","[0.9, 0.5, 0.1]","[u'low', u'medium', u'high']","red",51,"right","high","True","False",348,250,NA
"A340UNNVUZMEZF","Wed Jan 29 2020 07:53:28 GMT-0600 (Central Standard Time)","Wed Jan 29 2020 08:02:25 GMT-0600 (Central Standard Time)","Mozilla/5.0 (Windows NT 6.1; Win64; x64) AppleWebKit/537.36 (KHTML, like Gecko) Chrome/79.0.3945.130 Safari/537.36",20,"[0.9, 0.5, 0.1]","[0.8, 0.4, 0.2]","[u'blue', u'black', u'red']","[u'left', u'middle', u'right']","[0.9, 0.5, 0.1]","[u'low', u'medium', u'high']","blue",49,"left","low","False","False",284,200,NA
"A340UNNVUZMEZF","Wed Jan 29 2020 07:53:28 GMT-0600 (Central Standard Time)","Wed Jan 29 2020 08:02:25 GMT-0600 (Central Standard Time)","Mozilla/5.0 (Windows NT 6.1; Win64; x64) AppleWebKit/537.36 (KHTML, like Gecko) Chrome/79.0.3945.130 Safari/537.36",21,"[0.9, 0.5, 0.1]","[0.8, 0.4, 0.2]","[u'blue', u'black', u'red']","[u'left', u'middle', u'right']","[0.9, 0.5, 0.1]","[u'low', u'medium', u'high']","red",51,"right","high","True","False",203,300,NA
"A340UNNVUZMEZF","Wed Jan 29 2020 07:53:28 GMT-0600 (Central Standard Time)","Wed Jan 29 2020 08:02:25 GMT-0600 (Central Standard Time)","Mozilla/5.0 (Windows NT 6.1; Win64; x64) AppleWebKit/537.36 (KHTML, like Gecko) Chrome/79.0.3945.130 Safari/537.36",22,"[0.9, 0.5, 0.1]","[0.8, 0.4, 0.2]","[u'blue', u'black', u'red']","[u'left', u'middle', u'right']","[0.9, 0.5, 0.1]","[u'low', u'medium', u'high']","blue",49,"left","low","False","False",12726,250,NA
"A340UNNVUZMEZF","Wed Jan 29 2020 07:53:28 GMT-0600 (Central Standard Time)","Wed Jan 29 2020 08:02:25 GMT-0600 (Central Standard Time)","Mozilla/5.0 (Windows NT 6.1; Win64; x64) AppleWebKit/537.36 (KHTML, like Gecko) Chrome/79.0.3945.130 Safari/537.36",23,"[0.9, 0.5, 0.1]","[0.8, 0.4, 0.2]","[u'blue', u'black', u'red']","[u'left', u'middle', u'right']","[0.9, 0.5, 0.1]","[u'low', u'medium', u'high']","black",50,"middle","medium","True","False",480,350,NA
"A340UNNVUZMEZF","Wed Jan 29 2020 07:53:28 GMT-0600 (Central Standard Time)","Wed Jan 29 2020 08:02:25 GMT-0600 (Central Standard Time)","Mozilla/5.0 (Windows NT 6.1; Win64; x64) AppleWebKit/537.36 (KHTML, like Gecko) Chrome/79.0.3945.130 Safari/537.36",24,"[0.9, 0.5, 0.1]","[0.8, 0.4, 0.2]","[u'blue', u'black', u'red']","[u'left', u'middle', u'right']","[0.9, 0.5, 0.1]","[u'low', u'medium', u'high']","red",51,"right","high","True","False",294,450,NA
"A340UNNVUZMEZF","Wed Jan 29 2020 07:53:28 GMT-0600 (Central Standard Time)","Wed Jan 29 2020 08:02:25 GMT-0600 (Central Standard Time)","Mozilla/5.0 (Windows NT 6.1; Win64; x64) AppleWebKit/537.36 (KHTML, like Gecko) Chrome/79.0.3945.130 Safari/537.36",25,"[0.9, 0.5, 0.1]","[0.8, 0.4, 0.2]","[u'blue', u'black', u'red']","[u'left', u'middle', u'right']","[0.9, 0.5, 0.1]","[u'low', u'medium', u'high']","black",50,"middle","medium","True","False",327,550,NA
"A340UNNVUZMEZF","Wed Jan 29 2020 07:53:28 GMT-0600 (Central Standard Time)","Wed Jan 29 2020 08:02:25 GMT-0600 (Central Standard Time)","Mozilla/5.0 (Windows NT 6.1; Win64; x64) AppleWebKit/537.36 (KHTML, like Gecko) Chrome/79.0.3945.130 Safari/537.36",26,"[0.9, 0.5, 0.1]","[0.8, 0.4, 0.2]","[u'blue', u'black', u'red']","[u'left', u'middle', u'right']","[0.9, 0.5, 0.1]","[u'low', u'medium', u'high']","blue",49,"left","low","False","False",1985,500,NA
"A340UNNVUZMEZF","Wed Jan 29 2020 07:53:28 GMT-0600 (Central Standard Time)","Wed Jan 29 2020 08:02:25 GMT-0600 (Central Standard Time)","Mozilla/5.0 (Windows NT 6.1; Win64; x64) AppleWebKit/537.36 (KHTML, like Gecko) Chrome/79.0.3945.130 Safari/537.36",27,"[0.9, 0.5, 0.1]","[0.8, 0.4, 0.2]","[u'blue', u'black', u'red']","[u'left', u'middle', u'right']","[0.9, 0.5, 0.1]","[u'low', u'medium', u'high']","black",50,"middle","medium","False","False",309,450,NA
"A340UNNVUZMEZF","Wed Jan 29 2020 07:53:28 GMT-0600 (Central Standard Time)","Wed Jan 29 2020 08:02:25 GMT-0600 (Central Standard Time)","Mozilla/5.0 (Windows NT 6.1; Win64; x64) AppleWebKit/537.36 (KHTML, like Gecko) Chrome/79.0.3945.130 Safari/537.36",28,"[0.9, 0.5, 0.1]","[0.8, 0.4, 0.2]","[u'blue', u'black', u'red']","[u'left', u'middle', u'right']","[0.9, 0.5, 0.1]","[u'low', u'medium', u'high']","red",51,"right","high","True","False",326,550,NA
"A340UNNVUZMEZF","Wed Jan 29 2020 07:53:28 GMT-0600 (Central Standard Time)","Wed Jan 29 2020 08:02:25 GMT-0600 (Central Standard Time)","Mozilla/5.0 (Windows NT 6.1; Win64; x64) AppleWebKit/537.36 (KHTML, like Gecko) Chrome/79.0.3945.130 Safari/537.36",29,"[0.9, 0.5, 0.1]","[0.8, 0.4, 0.2]","[u'blue', u'black', u'red']","[u'left', u'middle', u'right']","[0.9, 0.5, 0.1]","[u'low', u'medium', u'high']","black",50,"middle","medium","False","False",370,500,NA
"A340UNNVUZMEZF","Wed Jan 29 2020 07:53:28 GMT-0600 (Central Standard Time)","Wed Jan 29 2020 08:02:25 GMT-0600 (Central Standard Time)","Mozilla/5.0 (Windows NT 6.1; Win64; x64) AppleWebKit/537.36 (KHTML, like Gecko) Chrome/79.0.3945.130 Safari/537.36",30,"[0.9, 0.5, 0.1]","[0.8, 0.4, 0.2]","[u'blue', u'black', u'red']","[u'left', u'middle', u'right']","[0.9, 0.5, 0.1]","[u'low', u'medium', u'high']","blue",49,"left","low","False","False",616,450,NA
"A340UNNVUZMEZF","Wed Jan 29 2020 07:53:28 GMT-0600 (Central Standard Time)","Wed Jan 29 2020 08:02:25 GMT-0600 (Central Standard Time)","Mozilla/5.0 (Windows NT 6.1; Win64; x64) AppleWebKit/537.36 (KHTML, like Gecko) Chrome/79.0.3945.130 Safari/537.36",31,"[0.9, 0.5, 0.1]","[0.8, 0.4, 0.2]","[u'blue', u'black', u'red']","[u'left', u'middle', u'right']","[0.9, 0.5, 0.1]","[u'low', u'medium', u'high']","black",50,"middle","medium","False","False",271,400,NA
"A340UNNVUZMEZF","Wed Jan 29 2020 07:53:28 GMT-0600 (Central Standard Time)","Wed Jan 29 2020 08:02:25 GMT-0600 (Central Standard Time)","Mozilla/5.0 (Windows NT 6.1; Win64; x64) AppleWebKit/537.36 (KHTML, like Gecko) Chrome/79.0.3945.130 Safari/537.36",32,"[0.9, 0.5, 0.1]","[0.8, 0.4, 0.2]","[u'blue', u'black', u'red']","[u'left', u'middle', u'right']","[0.9, 0.5, 0.1]","[u'low', u'medium', u'high']","blue",49,"left","low","False","False",242,350,NA
"A340UNNVUZMEZF","Wed Jan 29 2020 07:53:28 GMT-0600 (Central Standard Time)","Wed Jan 29 2020 08:02:25 GMT-0600 (Central Standard Time)","Mozilla/5.0 (Windows NT 6.1; Win64; x64) AppleWebKit/537.36 (KHTML, like Gecko) Chrome/79.0.3945.130 Safari/537.36",33,"[0.9, 0.5, 0.1]","[0.8, 0.4, 0.2]","[u'blue', u'black', u'red']","[u'left', u'middle', u'right']","[0.9, 0.5, 0.1]","[u'low', u'medium', u'high']","black",50,"middle","medium","True","False",317,450,NA
"A340UNNVUZMEZF","Wed Jan 29 2020 07:53:28 GMT-0600 (Central Standard Time)","Wed Jan 29 2020 08:02:25 GMT-0600 (Central Standard Time)","Mozilla/5.0 (Windows NT 6.1; Win64; x64) AppleWebKit/537.36 (KHTML, like Gecko) Chrome/79.0.3945.130 Safari/537.36",34,"[0.9, 0.5, 0.1]","[0.8, 0.4, 0.2]","[u'blue', u'black', u'red']","[u'left', u'middle', u'right']","[0.9, 0.5, 0.1]","[u'low', u'medium', u'high']","red",51,"right","high","True","False",235,550,NA
"A340UNNVUZMEZF","Wed Jan 29 2020 07:53:28 GMT-0600 (Central Standard Time)","Wed Jan 29 2020 08:02:25 GMT-0600 (Central Standard Time)","Mozilla/5.0 (Windows NT 6.1; Win64; x64) AppleWebKit/537.36 (KHTML, like Gecko) Chrome/79.0.3945.130 Safari/537.36",35,"[0.9, 0.5, 0.1]","[0.8, 0.4, 0.2]","[u'blue', u'black', u'red']","[u'left', u'middle', u'right']","[0.9, 0.5, 0.1]","[u'low', u'medium', u'high']","black",50,"middle","medium","True","False",242,650,NA
"A340UNNVUZMEZF","Wed Jan 29 2020 07:53:28 GMT-0600 (Central Standard Time)","Wed Jan 29 2020 08:02:25 GMT-0600 (Central Standard Time)","Mozilla/5.0 (Windows NT 6.1; Win64; x64) AppleWebKit/537.36 (KHTML, like Gecko) Chrome/79.0.3945.130 Safari/537.36",36,"[0.9, 0.5, 0.1]","[0.8, 0.4, 0.2]","[u'blue', u'black', u'red']","[u'left', u'middle', u'right']","[0.9, 0.5, 0.1]","[u'low', u'medium', u'high']","red",51,"right","high","True","False",220,750,NA
"A340UNNVUZMEZF","Wed Jan 29 2020 07:53:28 GMT-0600 (Central Standard Time)","Wed Jan 29 2020 08:02:25 GMT-0600 (Central Standard Time)","Mozilla/5.0 (Windows NT 6.1; Win64; x64) AppleWebKit/537.36 (KHTML, like Gecko) Chrome/79.0.3945.130 Safari/537.36",37,"[0.9, 0.5, 0.1]","[0.8, 0.4, 0.2]","[u'blue', u'black', u'red']","[u'left', u'middle', u'right']","[0.9, 0.5, 0.1]","[u'low', u'medium', u'high']","black",50,"middle","medium","False","False",221,700,NA
"A340UNNVUZMEZF","Wed Jan 29 2020 07:53:28 GMT-0600 (Central Standard Time)","Wed Jan 29 2020 08:02:25 GMT-0600 (Central Standard Time)","Mozilla/5.0 (Windows NT 6.1; Win64; x64) AppleWebKit/537.36 (KHTML, like Gecko) Chrome/79.0.3945.130 Safari/537.36",38,"[0.9, 0.5, 0.1]","[0.8, 0.4, 0.2]","[u'blue', u'black', u'red']","[u'left', u'middle', u'right']","[0.9, 0.5, 0.1]","[u'low', u'medium', u'high']","blue",49,"left","low","False","False",287,650,NA
"A340UNNVUZMEZF","Wed Jan 29 2020 07:53:28 GMT-0600 (Central Standard Time)","Wed Jan 29 2020 08:02:25 GMT-0600 (Central Standard Time)","Mozilla/5.0 (Windows NT 6.1; Win64; x64) AppleWebKit/537.36 (KHTML, like Gecko) Chrome/79.0.3945.130 Safari/537.36",39,"[0.9, 0.5, 0.1]","[0.8, 0.4, 0.2]","[u'blue', u'black', u'red']","[u'left', u'middle', u'right']","[0.9, 0.5, 0.1]","[u'low', u'medium', u'high']","red",51,"right","high","True","False",174,750,NA
"A340UNNVUZMEZF","Wed Jan 29 2020 07:53:28 GMT-0600 (Central Standard Time)","Wed Jan 29 2020 08:02:25 GMT-0600 (Central Standard Time)","Mozilla/5.0 (Windows NT 6.1; Win64; x64) AppleWebKit/537.36 (KHTML, like Gecko) Chrome/79.0.3945.130 Safari/537.36",40,"[0.9, 0.5, 0.1]","[0.8, 0.4, 0.2]","[u'blue', u'black', u'red']","[u'left', u'middle', u'right']","[0.9, 0.5, 0.1]","[u'low', u'medium', u'high']","black",50,"middle","medium","True","False",259,850,NA
"A340UNNVUZMEZF","Wed Jan 29 2020 07:53:28 GMT-0600 (Central Standard Time)","Wed Jan 29 2020 08:02:25 GMT-0600 (Central Standard Time)","Mozilla/5.0 (Windows NT 6.1; Win64; x64) AppleWebKit/537.36 (KHTML, like Gecko) Chrome/79.0.3945.130 Safari/537.36",41,"[0.9, 0.5, 0.1]","[0.8, 0.4, 0.2]","[u'blue', u'black', u'red']","[u'left', u'middle', u'right']","[0.9, 0.5, 0.1]","[u'medium', u'high', u'low']","black",50,"middle","high","False","False",1781,800,NA
"A340UNNVUZMEZF","Wed Jan 29 2020 07:53:28 GMT-0600 (Central Standard Time)","Wed Jan 29 2020 08:02:25 GMT-0600 (Central Standard Time)","Mozilla/5.0 (Windows NT 6.1; Win64; x64) AppleWebKit/537.36 (KHTML, like Gecko) Chrome/79.0.3945.130 Safari/537.36",42,"[0.9, 0.5, 0.1]","[0.8, 0.4, 0.2]","[u'blue', u'black', u'red']","[u'left', u'middle', u'right']","[0.9, 0.5, 0.1]","[u'medium', u'high', u'low']","blue",49,"left","medium","True","False",200,900,NA
"A340UNNVUZMEZF","Wed Jan 29 2020 07:53:28 GMT-0600 (Central Standard Time)","Wed Jan 29 2020 08:02:25 GMT-0600 (Central Standard Time)","Mozilla/5.0 (Windows NT 6.1; Win64; x64) AppleWebKit/537.36 (KHTML, like Gecko) Chrome/79.0.3945.130 Safari/537.36",43,"[0.9, 0.5, 0.1]","[0.8, 0.4, 0.2]","[u'blue', u'black', u'red']","[u'left', u'middle', u'right']","[0.9, 0.5, 0.1]","[u'medium', u'high', u'low']","red",51,"right","low","False","False",244,850,NA
"A340UNNVUZMEZF","Wed Jan 29 2020 07:53:28 GMT-0600 (Central Standard Time)","Wed Jan 29 2020 08:02:25 GMT-0600 (Central Standard Time)","Mozilla/5.0 (Windows NT 6.1; Win64; x64) AppleWebKit/537.36 (KHTML, like Gecko) Chrome/79.0.3945.130 Safari/537.36",44,"[0.9, 0.5, 0.1]","[0.8, 0.4, 0.2]","[u'blue', u'black', u'red']","[u'left', u'middle', u'right']","[0.9, 0.5, 0.1]","[u'medium', u'high', u'low']","blue",49,"left","medium","True","False",250,950,NA
"A340UNNVUZMEZF","Wed Jan 29 2020 07:53:28 GMT-0600 (Central Standard Time)","Wed Jan 29 2020 08:02:25 GMT-0600 (Central Standard Time)","Mozilla/5.0 (Windows NT 6.1; Win64; x64) AppleWebKit/537.36 (KHTML, like Gecko) Chrome/79.0.3945.130 Safari/537.36",45,"[0.9, 0.5, 0.1]","[0.8, 0.4, 0.2]","[u'blue', u'black', u'red']","[u'left', u'middle', u'right']","[0.9, 0.5, 0.1]","[u'medium', u'high', u'low']","black",50,"middle","high","True","False",291,1050,NA
"A340UNNVUZMEZF","Wed Jan 29 2020 07:53:28 GMT-0600 (Central Standard Time)","Wed Jan 29 2020 08:02:25 GMT-0600 (Central Standard Time)","Mozilla/5.0 (Windows NT 6.1; Win64; x64) AppleWebKit/537.36 (KHTML, like Gecko) Chrome/79.0.3945.130 Safari/537.36",46,"[0.9, 0.5, 0.1]","[0.8, 0.4, 0.2]","[u'blue', u'black', u'red']","[u'left', u'middle', u'right']","[0.9, 0.5, 0.1]","[u'medium', u'high', u'low']","blue",49,"left","medium","False","False",259,1000,NA
"A340UNNVUZMEZF","Wed Jan 29 2020 07:53:28 GMT-0600 (Central Standard Time)","Wed Jan 29 2020 08:02:25 GMT-0600 (Central Standard Time)","Mozilla/5.0 (Windows NT 6.1; Win64; x64) AppleWebKit/537.36 (KHTML, like Gecko) Chrome/79.0.3945.130 Safari/537.36",47,"[0.9, 0.5, 0.1]","[0.8, 0.4, 0.2]","[u'blue', u'black', u'red']","[u'left', u'middle', u'right']","[0.9, 0.5, 0.1]","[u'medium', u'high', u'low']","black",50,"middle","high","True","False",31,1100,NA
"A340UNNVUZMEZF","Wed Jan 29 2020 07:53:28 GMT-0600 (Central Standard Time)","Wed Jan 29 2020 08:02:25 GMT-0600 (Central Standard Time)","Mozilla/5.0 (Windows NT 6.1; Win64; x64) AppleWebKit/537.36 (KHTML, like Gecko) Chrome/79.0.3945.130 Safari/537.36",48,"[0.9, 0.5, 0.1]","[0.8, 0.4, 0.2]","[u'blue', u'black', u'red']","[u'left', u'middle', u'right']","[0.9, 0.5, 0.1]","[u'medium', u'high', u'low']","blue",49,"left","medium","False","False",284,1050,NA
"A340UNNVUZMEZF","Wed Jan 29 2020 07:53:28 GMT-0600 (Central Standard Time)","Wed Jan 29 2020 08:02:25 GMT-0600 (Central Standard Time)","Mozilla/5.0 (Windows NT 6.1; Win64; x64) AppleWebKit/537.36 (KHTML, like Gecko) Chrome/79.0.3945.130 Safari/537.36",49,"[0.9, 0.5, 0.1]","[0.8, 0.4, 0.2]","[u'blue', u'black', u'red']","[u'left', u'middle', u'right']","[0.9, 0.5, 0.1]","[u'medium', u'high', u'low']","black",50,"middle","high","True","False",184,1150,NA
"A340UNNVUZMEZF","Wed Jan 29 2020 07:53:28 GMT-0600 (Central Standard Time)","Wed Jan 29 2020 08:02:25 GMT-0600 (Central Standard Time)","Mozilla/5.0 (Windows NT 6.1; Win64; x64) AppleWebKit/537.36 (KHTML, like Gecko) Chrome/79.0.3945.130 Safari/537.36",50,"[0.9, 0.5, 0.1]","[0.8, 0.4, 0.2]","[u'blue', u'black', u'red']","[u'left', u'middle', u'right']","[0.9, 0.5, 0.1]","[u'medium', u'high', u'low']","red",51,"right","low","False","False",202,1100,NA
"A340UNNVUZMEZF","Wed Jan 29 2020 07:53:28 GMT-0600 (Central Standard Time)","Wed Jan 29 2020 08:02:25 GMT-0600 (Central Standard Time)","Mozilla/5.0 (Windows NT 6.1; Win64; x64) AppleWebKit/537.36 (KHTML, like Gecko) Chrome/79.0.3945.130 Safari/537.36",51,"[0.9, 0.5, 0.1]","[0.8, 0.4, 0.2]","[u'blue', u'black', u'red']","[u'left', u'middle', u'right']","[0.9, 0.5, 0.1]","[u'medium', u'high', u'low']","black",50,"middle","high","True","False",188,1200,NA
"A340UNNVUZMEZF","Wed Jan 29 2020 07:53:28 GMT-0600 (Central Standard Time)","Wed Jan 29 2020 08:02:25 GMT-0600 (Central Standard Time)","Mozilla/5.0 (Windows NT 6.1; Win64; x64) AppleWebKit/537.36 (KHTML, like Gecko) Chrome/79.0.3945.130 Safari/537.36",52,"[0.9, 0.5, 0.1]","[0.8, 0.4, 0.2]","[u'blue', u'black', u'red']","[u'left', u'middle', u'right']","[0.9, 0.5, 0.1]","[u'medium', u'high', u'low']","blue",49,"left","medium","True","False",244,1300,NA
"A340UNNVUZMEZF","Wed Jan 29 2020 07:53:28 GMT-0600 (Central Standard Time)","Wed Jan 29 2020 08:02:25 GMT-0600 (Central Standard Time)","Mozilla/5.0 (Windows NT 6.1; Win64; x64) AppleWebKit/537.36 (KHTML, like Gecko) Chrome/79.0.3945.130 Safari/537.36",53,"[0.9, 0.5, 0.1]","[0.8, 0.4, 0.2]","[u'blue', u'black', u'red']","[u'left', u'middle', u'right']","[0.9, 0.5, 0.1]","[u'medium', u'high', u'low']","black",50,"middle","high","True","False",250,1400,NA
"A340UNNVUZMEZF","Wed Jan 29 2020 07:53:28 GMT-0600 (Central Standard Time)","Wed Jan 29 2020 08:02:25 GMT-0600 (Central Standard Time)","Mozilla/5.0 (Windows NT 6.1; Win64; x64) AppleWebKit/537.36 (KHTML, like Gecko) Chrome/79.0.3945.130 Safari/537.36",54,"[0.9, 0.5, 0.1]","[0.8, 0.4, 0.2]","[u'blue', u'black', u'red']","[u'left', u'middle', u'right']","[0.9, 0.5, 0.1]","[u'medium', u'high', u'low']","blue",49,"left","medium","False","False",283,1350,NA
"A340UNNVUZMEZF","Wed Jan 29 2020 07:53:28 GMT-0600 (Central Standard Time)","Wed Jan 29 2020 08:02:25 GMT-0600 (Central Standard Time)","Mozilla/5.0 (Windows NT 6.1; Win64; x64) AppleWebKit/537.36 (KHTML, like Gecko) Chrome/79.0.3945.130 Safari/537.36",55,"[0.9, 0.5, 0.1]","[0.8, 0.4, 0.2]","[u'blue', u'black', u'red']","[u'left', u'middle', u'right']","[0.9, 0.5, 0.1]","[u'medium', u'high', u'low']","black",50,"middle","high","True","False",71,1450,NA
"A340UNNVUZMEZF","Wed Jan 29 2020 07:53:28 GMT-0600 (Central Standard Time)","Wed Jan 29 2020 08:02:25 GMT-0600 (Central Standard Time)","Mozilla/5.0 (Windows NT 6.1; Win64; x64) AppleWebKit/537.36 (KHTML, like Gecko) Chrome/79.0.3945.130 Safari/537.36",56,"[0.9, 0.5, 0.1]","[0.8, 0.4, 0.2]","[u'blue', u'black', u'red']","[u'left', u'middle', u'right']","[0.9, 0.5, 0.1]","[u'medium', u'high', u'low']","red",51,"right","low","False","False",195,1400,NA
"A340UNNVUZMEZF","Wed Jan 29 2020 07:53:28 GMT-0600 (Central Standard Time)","Wed Jan 29 2020 08:02:25 GMT-0600 (Central Standard Time)","Mozilla/5.0 (Windows NT 6.1; Win64; x64) AppleWebKit/537.36 (KHTML, like Gecko) Chrome/79.0.3945.130 Safari/537.36",57,"[0.9, 0.5, 0.1]","[0.8, 0.4, 0.2]","[u'blue', u'black', u'red']","[u'left', u'middle', u'right']","[0.9, 0.5, 0.1]","[u'medium', u'high', u'low']","black",50,"middle","high","True","False",216,1500,NA
"A340UNNVUZMEZF","Wed Jan 29 2020 07:53:28 GMT-0600 (Central Standard Time)","Wed Jan 29 2020 08:02:25 GMT-0600 (Central Standard Time)","Mozilla/5.0 (Windows NT 6.1; Win64; x64) AppleWebKit/537.36 (KHTML, like Gecko) Chrome/79.0.3945.130 Safari/537.36",58,"[0.9, 0.5, 0.1]","[0.8, 0.4, 0.2]","[u'blue', u'black', u'red']","[u'left', u'middle', u'right']","[0.9, 0.5, 0.1]","[u'medium', u'high', u'low']","blue",49,"left","medium","False","False",234,1450,NA
"A340UNNVUZMEZF","Wed Jan 29 2020 07:53:28 GMT-0600 (Central Standard Time)","Wed Jan 29 2020 08:02:25 GMT-0600 (Central Standard Time)","Mozilla/5.0 (Windows NT 6.1; Win64; x64) AppleWebKit/537.36 (KHTML, like Gecko) Chrome/79.0.3945.130 Safari/537.36",59,"[0.9, 0.5, 0.1]","[0.8, 0.4, 0.2]","[u'blue', u'black', u'red']","[u'left', u'middle', u'right']","[0.9, 0.5, 0.1]","[u'medium', u'high', u'low']","black",50,"middle","high","True","False",674,1550,NA
"A340UNNVUZMEZF","Wed Jan 29 2020 07:53:28 GMT-0600 (Central Standard Time)","Wed Jan 29 2020 08:02:25 GMT-0600 (Central Standard Time)","Mozilla/5.0 (Windows NT 6.1; Win64; x64) AppleWebKit/537.36 (KHTML, like Gecko) Chrome/79.0.3945.130 Safari/537.36",60,"[0.9, 0.5, 0.1]","[0.8, 0.4, 0.2]","[u'blue', u'black', u'red']","[u'left', u'middle', u'right']","[0.9, 0.5, 0.1]","[u'medium', u'high', u'low']","black",50,"middle","high","True","False",292,1650,NA
"A340UNNVUZMEZF","Wed Jan 29 2020 07:53:28 GMT-0600 (Central Standard Time)","Wed Jan 29 2020 08:02:25 GMT-0600 (Central Standard Time)","Mozilla/5.0 (Windows NT 6.1; Win64; x64) AppleWebKit/537.36 (KHTML, like Gecko) Chrome/79.0.3945.130 Safari/537.36",61,"[0.9, 0.5, 0.1]","[0.8, 0.4, 0.2]","[u'blue', u'black', u'red']","[u'left', u'middle', u'right']","[0.9, 0.5, 0.1]","[u'medium', u'high', u'low']","black",50,"middle","high","True","False",269,1750,NA
"A340UNNVUZMEZF","Wed Jan 29 2020 07:53:28 GMT-0600 (Central Standard Time)","Wed Jan 29 2020 08:02:25 GMT-0600 (Central Standard Time)","Mozilla/5.0 (Windows NT 6.1; Win64; x64) AppleWebKit/537.36 (KHTML, like Gecko) Chrome/79.0.3945.130 Safari/537.36",62,"[0.9, 0.5, 0.1]","[0.8, 0.4, 0.2]","[u'blue', u'black', u'red']","[u'left', u'middle', u'right']","[0.9, 0.5, 0.1]","[u'medium', u'high', u'low']","black",50,"middle","high","True","False",283,1850,NA
"A340UNNVUZMEZF","Wed Jan 29 2020 07:53:28 GMT-0600 (Central Standard Time)","Wed Jan 29 2020 08:02:25 GMT-0600 (Central Standard Time)","Mozilla/5.0 (Windows NT 6.1; Win64; x64) AppleWebKit/537.36 (KHTML, like Gecko) Chrome/79.0.3945.130 Safari/537.36",63,"[0.9, 0.5, 0.1]","[0.8, 0.4, 0.2]","[u'blue', u'black', u'red']","[u'left', u'middle', u'right']","[0.9, 0.5, 0.1]","[u'medium', u'high', u'low']","black",50,"middle","high","True","False",439,1950,NA
"A340UNNVUZMEZF","Wed Jan 29 2020 07:53:28 GMT-0600 (Central Standard Time)","Wed Jan 29 2020 08:02:25 GMT-0600 (Central Standard Time)","Mozilla/5.0 (Windows NT 6.1; Win64; x64) AppleWebKit/537.36 (KHTML, like Gecko) Chrome/79.0.3945.130 Safari/537.36",64,"[0.9, 0.5, 0.1]","[0.8, 0.4, 0.2]","[u'blue', u'black', u'red']","[u'left', u'middle', u'right']","[0.9, 0.5, 0.1]","[u'medium', u'high', u'low']","black",50,"middle","high","True","False",268,2050,NA
"A340UNNVUZMEZF","Wed Jan 29 2020 07:53:28 GMT-0600 (Central Standard Time)","Wed Jan 29 2020 08:02:25 GMT-0600 (Central Standard Time)","Mozilla/5.0 (Windows NT 6.1; Win64; x64) AppleWebKit/537.36 (KHTML, like Gecko) Chrome/79.0.3945.130 Safari/537.36",65,"[0.9, 0.5, 0.1]","[0.8, 0.4, 0.2]","[u'blue', u'black', u'red']","[u'left', u'middle', u'right']","[0.9, 0.5, 0.1]","[u'medium', u'high', u'low']","black",50,"middle","high","True","False",29,2150,NA
"A340UNNVUZMEZF","Wed Jan 29 2020 07:53:28 GMT-0600 (Central Standard Time)","Wed Jan 29 2020 08:02:25 GMT-0600 (Central Standard Time)","Mozilla/5.0 (Windows NT 6.1; Win64; x64) AppleWebKit/537.36 (KHTML, like Gecko) Chrome/79.0.3945.130 Safari/537.36",66,"[0.9, 0.5, 0.1]","[0.8, 0.4, 0.2]","[u'blue', u'black', u'red']","[u'left', u'middle', u'right']","[0.9, 0.5, 0.1]","[u'medium', u'high', u'low']","black",50,"middle","high","True","True",292,2250,NA
"A340UNNVUZMEZF","Wed Jan 29 2020 07:53:28 GMT-0600 (Central Standard Time)","Wed Jan 29 2020 08:02:25 GMT-0600 (Central Standard Time)","Mozilla/5.0 (Windows NT 6.1; Win64; x64) AppleWebKit/537.36 (KHTML, like Gecko) Chrome/79.0.3945.130 Safari/537.36",67,"[0.9, 0.5, 0.1]","[0.8, 0.4, 0.2]","[u'blue', u'black', u'red']","[u'left', u'middle', u'right']","[0.9, 0.5, 0.1]","[u'high', u'low', u'medium']","black",50,"middle","low","False","False",313,2200,NA
"A340UNNVUZMEZF","Wed Jan 29 2020 07:53:28 GMT-0600 (Central Standard Time)","Wed Jan 29 2020 08:02:25 GMT-0600 (Central Standard Time)","Mozilla/5.0 (Windows NT 6.1; Win64; x64) AppleWebKit/537.36 (KHTML, like Gecko) Chrome/79.0.3945.130 Safari/537.36",68,"[0.9, 0.5, 0.1]","[0.8, 0.4, 0.2]","[u'blue', u'black', u'red']","[u'left', u'middle', u'right']","[0.9, 0.5, 0.1]","[u'high', u'low', u'medium']","blue",49,"left","high","True","False",546,2300,NA
"A340UNNVUZMEZF","Wed Jan 29 2020 07:53:28 GMT-0600 (Central Standard Time)","Wed Jan 29 2020 08:02:25 GMT-0600 (Central Standard Time)","Mozilla/5.0 (Windows NT 6.1; Win64; x64) AppleWebKit/537.36 (KHTML, like Gecko) Chrome/79.0.3945.130 Safari/537.36",69,"[0.9, 0.5, 0.1]","[0.8, 0.4, 0.2]","[u'blue', u'black', u'red']","[u'left', u'middle', u'right']","[0.9, 0.5, 0.1]","[u'high', u'low', u'medium']","blue",49,"left","high","True","False",299,2400,NA
"A340UNNVUZMEZF","Wed Jan 29 2020 07:53:28 GMT-0600 (Central Standard Time)","Wed Jan 29 2020 08:02:25 GMT-0600 (Central Standard Time)","Mozilla/5.0 (Windows NT 6.1; Win64; x64) AppleWebKit/537.36 (KHTML, like Gecko) Chrome/79.0.3945.130 Safari/537.36",70,"[0.9, 0.5, 0.1]","[0.8, 0.4, 0.2]","[u'blue', u'black', u'red']","[u'left', u'middle', u'right']","[0.9, 0.5, 0.1]","[u'high', u'low', u'medium']","blue",49,"left","high","True","False",298,2500,NA
"A340UNNVUZMEZF","Wed Jan 29 2020 07:53:28 GMT-0600 (Central Standard Time)","Wed Jan 29 2020 08:02:25 GMT-0600 (Central Standard Time)","Mozilla/5.0 (Windows NT 6.1; Win64; x64) AppleWebKit/537.36 (KHTML, like Gecko) Chrome/79.0.3945.130 Safari/537.36",71,"[0.9, 0.5, 0.1]","[0.8, 0.4, 0.2]","[u'blue', u'black', u'red']","[u'left', u'middle', u'right']","[0.9, 0.5, 0.1]","[u'high', u'low', u'medium']","blue",49,"left","high","True","False",298,2600,NA
"A340UNNVUZMEZF","Wed Jan 29 2020 07:53:28 GMT-0600 (Central Standard Time)","Wed Jan 29 2020 08:02:25 GMT-0600 (Central Standard Time)","Mozilla/5.0 (Windows NT 6.1; Win64; x64) AppleWebKit/537.36 (KHTML, like Gecko) Chrome/79.0.3945.130 Safari/537.36",72,"[0.9, 0.5, 0.1]","[0.8, 0.4, 0.2]","[u'blue', u'black', u'red']","[u'left', u'middle', u'right']","[0.9, 0.5, 0.1]","[u'high', u'low', u'medium']","blue",49,"left","high","True","False",277,2700,NA
"A340UNNVUZMEZF","Wed Jan 29 2020 07:53:28 GMT-0600 (Central Standard Time)","Wed Jan 29 2020 08:02:25 GMT-0600 (Central Standard Time)","Mozilla/5.0 (Windows NT 6.1; Win64; x64) AppleWebKit/537.36 (KHTML, like Gecko) Chrome/79.0.3945.130 Safari/537.36",73,"[0.9, 0.5, 0.1]","[0.8, 0.4, 0.2]","[u'blue', u'black', u'red']","[u'left', u'middle', u'right']","[0.9, 0.5, 0.1]","[u'high', u'low', u'medium']","blue",49,"left","high","True","False",268,2800,NA
"A340UNNVUZMEZF","Wed Jan 29 2020 07:53:28 GMT-0600 (Central Standard Time)","Wed Jan 29 2020 08:02:25 GMT-0600 (Central Standard Time)","Mozilla/5.0 (Windows NT 6.1; Win64; x64) AppleWebKit/537.36 (KHTML, like Gecko) Chrome/79.0.3945.130 Safari/537.36",74,"[0.9, 0.5, 0.1]","[0.8, 0.4, 0.2]","[u'blue', u'black', u'red']","[u'left', u'middle', u'right']","[0.9, 0.5, 0.1]","[u'high', u'low', u'medium']","blue",49,"left","high","True","False",220,2900,NA
"A340UNNVUZMEZF","Wed Jan 29 2020 07:53:28 GMT-0600 (Central Standard Time)","Wed Jan 29 2020 08:02:25 GMT-0600 (Central Standard Time)","Mozilla/5.0 (Windows NT 6.1; Win64; x64) AppleWebKit/537.36 (KHTML, like Gecko) Chrome/79.0.3945.130 Safari/537.36",75,"[0.9, 0.5, 0.1]","[0.8, 0.4, 0.2]","[u'blue', u'black', u'red']","[u'left', u'middle', u'right']","[0.9, 0.5, 0.1]","[u'high', u'low', u'medium']","blue",49,"left","high","True","False",275,3000,NA
"A340UNNVUZMEZF","Wed Jan 29 2020 07:53:28 GMT-0600 (Central Standard Time)","Wed Jan 29 2020 08:02:25 GMT-0600 (Central Standard Time)","Mozilla/5.0 (Windows NT 6.1; Win64; x64) AppleWebKit/537.36 (KHTML, like Gecko) Chrome/79.0.3945.130 Safari/537.36",76,"[0.9, 0.5, 0.1]","[0.8, 0.4, 0.2]","[u'blue', u'black', u'red']","[u'left', u'middle', u'right']","[0.9, 0.5, 0.1]","[u'high', u'low', u'medium']","blue",49,"left","high","True","True",300,3100,NA
"A340UNNVUZMEZF","Wed Jan 29 2020 07:53:28 GMT-0600 (Central Standard Time)","Wed Jan 29 2020 08:02:25 GMT-0600 (Central Standard Time)","Mozilla/5.0 (Windows NT 6.1; Win64; x64) AppleWebKit/537.36 (KHTML, like Gecko) Chrome/79.0.3945.130 Safari/537.36",77,"[0.9, 0.5, 0.1]","[0.8, 0.4, 0.2]","[u'blue', u'black', u'red']","[u'left', u'middle', u'right']","[0.9, 0.5, 0.1]","[u'medium', u'low', u'high']","blue",49,"left","medium","False","False",300,3050,NA
"A340UNNVUZMEZF","Wed Jan 29 2020 07:53:28 GMT-0600 (Central Standard Time)","Wed Jan 29 2020 08:02:25 GMT-0600 (Central Standard Time)","Mozilla/5.0 (Windows NT 6.1; Win64; x64) AppleWebKit/537.36 (KHTML, like Gecko) Chrome/79.0.3945.130 Safari/537.36",78,"[0.9, 0.5, 0.1]","[0.8, 0.4, 0.2]","[u'blue', u'black', u'red']","[u'left', u'middle', u'right']","[0.9, 0.5, 0.1]","[u'medium', u'low', u'high']","red",51,"right","high","True","False",266,3150,NA
"A340UNNVUZMEZF","Wed Jan 29 2020 07:53:28 GMT-0600 (Central Standard Time)","Wed Jan 29 2020 08:02:25 GMT-0600 (Central Standard Time)","Mozilla/5.0 (Windows NT 6.1; Win64; x64) AppleWebKit/537.36 (KHTML, like Gecko) Chrome/79.0.3945.130 Safari/537.36",79,"[0.9, 0.5, 0.1]","[0.8, 0.4, 0.2]","[u'blue', u'black', u'red']","[u'left', u'middle', u'right']","[0.9, 0.5, 0.1]","[u'medium', u'low', u'high']","red",51,"right","high","True","False",476,3250,NA
"A340UNNVUZMEZF","Wed Jan 29 2020 07:53:28 GMT-0600 (Central Standard Time)","Wed Jan 29 2020 08:02:25 GMT-0600 (Central Standard Time)","Mozilla/5.0 (Windows NT 6.1; Win64; x64) AppleWebKit/537.36 (KHTML, like Gecko) Chrome/79.0.3945.130 Safari/537.36",80,"[0.9, 0.5, 0.1]","[0.8, 0.4, 0.2]","[u'blue', u'black', u'red']","[u'left', u'middle', u'right']","[0.9, 0.5, 0.1]","[u'medium', u'low', u'high']","red",51,"right","high","True","False",298,3350,NA
"A340UNNVUZMEZF","Wed Jan 29 2020 07:53:28 GMT-0600 (Central Standard Time)","Wed Jan 29 2020 08:02:25 GMT-0600 (Central Standard Time)","Mozilla/5.0 (Windows NT 6.1; Win64; x64) AppleWebKit/537.36 (KHTML, like Gecko) Chrome/79.0.3945.130 Safari/537.36",81,"[0.9, 0.5, 0.1]","[0.8, 0.4, 0.2]","[u'blue', u'black', u'red']","[u'left', u'middle', u'right']","[0.8, 0.4, 0.2]","[u'medium', u'high', u'low']","black",50,"middle","high","True","False",1079,3450,NA
"A340UNNVUZMEZF","Wed Jan 29 2020 07:53:28 GMT-0600 (Central Standard Time)","Wed Jan 29 2020 08:02:25 GMT-0600 (Central Standard Time)","Mozilla/5.0 (Windows NT 6.1; Win64; x64) AppleWebKit/537.36 (KHTML, like Gecko) Chrome/79.0.3945.130 Safari/537.36",82,"[0.9, 0.5, 0.1]","[0.8, 0.4, 0.2]","[u'blue', u'black', u'red']","[u'left', u'middle', u'right']","[0.8, 0.4, 0.2]","[u'medium', u'high', u'low']","black",50,"middle","high","True","False",278,3550,NA
"A340UNNVUZMEZF","Wed Jan 29 2020 07:53:28 GMT-0600 (Central Standard Time)","Wed Jan 29 2020 08:02:25 GMT-0600 (Central Standard Time)","Mozilla/5.0 (Windows NT 6.1; Win64; x64) AppleWebKit/537.36 (KHTML, like Gecko) Chrome/79.0.3945.130 Safari/537.36",83,"[0.9, 0.5, 0.1]","[0.8, 0.4, 0.2]","[u'blue', u'black', u'red']","[u'left', u'middle', u'right']","[0.8, 0.4, 0.2]","[u'medium', u'high', u'low']","black",50,"middle","high","True","False",316,3650,NA
"A340UNNVUZMEZF","Wed Jan 29 2020 07:53:28 GMT-0600 (Central Standard Time)","Wed Jan 29 2020 08:02:25 GMT-0600 (Central Standard Time)","Mozilla/5.0 (Windows NT 6.1; Win64; x64) AppleWebKit/537.36 (KHTML, like Gecko) Chrome/79.0.3945.130 Safari/537.36",84,"[0.9, 0.5, 0.1]","[0.8, 0.4, 0.2]","[u'blue', u'black', u'red']","[u'left', u'middle', u'right']","[0.8, 0.4, 0.2]","[u'medium', u'high', u'low']","black",50,"middle","high","True","False",403,3750,NA
"A340UNNVUZMEZF","Wed Jan 29 2020 07:53:28 GMT-0600 (Central Standard Time)","Wed Jan 29 2020 08:02:25 GMT-0600 (Central Standard Time)","Mozilla/5.0 (Windows NT 6.1; Win64; x64) AppleWebKit/537.36 (KHTML, like Gecko) Chrome/79.0.3945.130 Safari/537.36",85,"[0.9, 0.5, 0.1]","[0.8, 0.4, 0.2]","[u'blue', u'black', u'red']","[u'left', u'middle', u'right']","[0.8, 0.4, 0.2]","[u'medium', u'high', u'low']","black",50,"middle","high","True","False",305,3850,NA
"A340UNNVUZMEZF","Wed Jan 29 2020 07:53:28 GMT-0600 (Central Standard Time)","Wed Jan 29 2020 08:02:25 GMT-0600 (Central Standard Time)","Mozilla/5.0 (Windows NT 6.1; Win64; x64) AppleWebKit/537.36 (KHTML, like Gecko) Chrome/79.0.3945.130 Safari/537.36",86,"[0.9, 0.5, 0.1]","[0.8, 0.4, 0.2]","[u'blue', u'black', u'red']","[u'left', u'middle', u'right']","[0.8, 0.4, 0.2]","[u'medium', u'high', u'low']","black",50,"middle","high","True","False",245,3950,NA
"A340UNNVUZMEZF","Wed Jan 29 2020 07:53:28 GMT-0600 (Central Standard Time)","Wed Jan 29 2020 08:02:25 GMT-0600 (Central Standard Time)","Mozilla/5.0 (Windows NT 6.1; Win64; x64) AppleWebKit/537.36 (KHTML, like Gecko) Chrome/79.0.3945.130 Safari/537.36",87,"[0.9, 0.5, 0.1]","[0.8, 0.4, 0.2]","[u'blue', u'black', u'red']","[u'left', u'middle', u'right']","[0.8, 0.4, 0.2]","[u'medium', u'high', u'low']","black",50,"middle","high","True","False",253,4050,NA
"A340UNNVUZMEZF","Wed Jan 29 2020 07:53:28 GMT-0600 (Central Standard Time)","Wed Jan 29 2020 08:02:25 GMT-0600 (Central Standard Time)","Mozilla/5.0 (Windows NT 6.1; Win64; x64) AppleWebKit/537.36 (KHTML, like Gecko) Chrome/79.0.3945.130 Safari/537.36",88,"[0.9, 0.5, 0.1]","[0.8, 0.4, 0.2]","[u'blue', u'black', u'red']","[u'left', u'middle', u'right']","[0.8, 0.4, 0.2]","[u'medium', u'high', u'low']","black",50,"middle","high","True","False",302,4150,NA
"A340UNNVUZMEZF","Wed Jan 29 2020 07:53:28 GMT-0600 (Central Standard Time)","Wed Jan 29 2020 08:02:25 GMT-0600 (Central Standard Time)","Mozilla/5.0 (Windows NT 6.1; Win64; x64) AppleWebKit/537.36 (KHTML, like Gecko) Chrome/79.0.3945.130 Safari/537.36",89,"[0.9, 0.5, 0.1]","[0.8, 0.4, 0.2]","[u'blue', u'black', u'red']","[u'left', u'middle', u'right']","[0.8, 0.4, 0.2]","[u'medium', u'high', u'low']","black",50,"middle","high","True","True",168,4250,NA
"A340UNNVUZMEZF","Wed Jan 29 2020 07:53:28 GMT-0600 (Central Standard Time)","Wed Jan 29 2020 08:02:25 GMT-0600 (Central Standard Time)","Mozilla/5.0 (Windows NT 6.1; Win64; x64) AppleWebKit/537.36 (KHTML, like Gecko) Chrome/79.0.3945.130 Safari/537.36",90,"[0.9, 0.5, 0.1]","[0.8, 0.4, 0.2]","[u'blue', u'black', u'red']","[u'left', u'middle', u'right']","[0.8, 0.4, 0.2]","[u'medium', u'low', u'high']","black",50,"middle","low","False","False",242,4200,NA
"A340UNNVUZMEZF","Wed Jan 29 2020 07:53:28 GMT-0600 (Central Standard Time)","Wed Jan 29 2020 08:02:25 GMT-0600 (Central Standard Time)","Mozilla/5.0 (Windows NT 6.1; Win64; x64) AppleWebKit/537.36 (KHTML, like Gecko) Chrome/79.0.3945.130 Safari/537.36",91,"[0.9, 0.5, 0.1]","[0.8, 0.4, 0.2]","[u'blue', u'black', u'red']","[u'left', u'middle', u'right']","[0.8, 0.4, 0.2]","[u'medium', u'low', u'high']","red",51,"right","high","True","False",290,4300,NA
"A340UNNVUZMEZF","Wed Jan 29 2020 07:53:28 GMT-0600 (Central Standard Time)","Wed Jan 29 2020 08:02:25 GMT-0600 (Central Standard Time)","Mozilla/5.0 (Windows NT 6.1; Win64; x64) AppleWebKit/537.36 (KHTML, like Gecko) Chrome/79.0.3945.130 Safari/537.36",92,"[0.9, 0.5, 0.1]","[0.8, 0.4, 0.2]","[u'blue', u'black', u'red']","[u'left', u'middle', u'right']","[0.8, 0.4, 0.2]","[u'medium', u'low', u'high']","blue",49,"left","medium","True","False",284,4400,NA
"A340UNNVUZMEZF","Wed Jan 29 2020 07:53:28 GMT-0600 (Central Standard Time)","Wed Jan 29 2020 08:02:25 GMT-0600 (Central Standard Time)","Mozilla/5.0 (Windows NT 6.1; Win64; x64) AppleWebKit/537.36 (KHTML, like Gecko) Chrome/79.0.3945.130 Safari/537.36",93,"[0.9, 0.5, 0.1]","[0.8, 0.4, 0.2]","[u'blue', u'black', u'red']","[u'left', u'middle', u'right']","[0.8, 0.4, 0.2]","[u'medium', u'low', u'high']","red",51,"right","high","False","False",292,4350,NA
"A340UNNVUZMEZF","Wed Jan 29 2020 07:53:28 GMT-0600 (Central Standard Time)","Wed Jan 29 2020 08:02:25 GMT-0600 (Central Standard Time)","Mozilla/5.0 (Windows NT 6.1; Win64; x64) AppleWebKit/537.36 (KHTML, like Gecko) Chrome/79.0.3945.130 Safari/537.36",94,"[0.9, 0.5, 0.1]","[0.8, 0.4, 0.2]","[u'blue', u'black', u'red']","[u'left', u'middle', u'right']","[0.8, 0.4, 0.2]","[u'medium', u'low', u'high']","blue",49,"left","medium","False","False",289,4300,NA
"A340UNNVUZMEZF","Wed Jan 29 2020 07:53:28 GMT-0600 (Central Standard Time)","Wed Jan 29 2020 08:02:25 GMT-0600 (Central Standard Time)","Mozilla/5.0 (Windows NT 6.1; Win64; x64) AppleWebKit/537.36 (KHTML, like Gecko) Chrome/79.0.3945.130 Safari/537.36",95,"[0.9, 0.5, 0.1]","[0.8, 0.4, 0.2]","[u'blue', u'black', u'red']","[u'left', u'middle', u'right']","[0.8, 0.4, 0.2]","[u'medium', u'low', u'high']","black",50,"middle","low","False","False",291,4250,NA
"A340UNNVUZMEZF","Wed Jan 29 2020 07:53:28 GMT-0600 (Central Standard Time)","Wed Jan 29 2020 08:02:25 GMT-0600 (Central Standard Time)","Mozilla/5.0 (Windows NT 6.1; Win64; x64) AppleWebKit/537.36 (KHTML, like Gecko) Chrome/79.0.3945.130 Safari/537.36",96,"[0.9, 0.5, 0.1]","[0.8, 0.4, 0.2]","[u'blue', u'black', u'red']","[u'left', u'middle', u'right']","[0.8, 0.4, 0.2]","[u'medium', u'low', u'high']","blue",49,"left","medium","False","False",246,4200,NA
"A340UNNVUZMEZF","Wed Jan 29 2020 07:53:28 GMT-0600 (Central Standard Time)","Wed Jan 29 2020 08:02:25 GMT-0600 (Central Standard Time)","Mozilla/5.0 (Windows NT 6.1; Win64; x64) AppleWebKit/537.36 (KHTML, like Gecko) Chrome/79.0.3945.130 Safari/537.36",97,"[0.9, 0.5, 0.1]","[0.8, 0.4, 0.2]","[u'blue', u'black', u'red']","[u'left', u'middle', u'right']","[0.8, 0.4, 0.2]","[u'medium', u'low', u'high']","black",50,"middle","low","False","False",152,4150,NA
"A340UNNVUZMEZF","Wed Jan 29 2020 07:53:28 GMT-0600 (Central Standard Time)","Wed Jan 29 2020 08:02:25 GMT-0600 (Central Standard Time)","Mozilla/5.0 (Windows NT 6.1; Win64; x64) AppleWebKit/537.36 (KHTML, like Gecko) Chrome/79.0.3945.130 Safari/537.36",98,"[0.9, 0.5, 0.1]","[0.8, 0.4, 0.2]","[u'blue', u'black', u'red']","[u'left', u'middle', u'right']","[0.8, 0.4, 0.2]","[u'medium', u'low', u'high']","red",51,"right","high","True","False",204,4250,NA
"A340UNNVUZMEZF","Wed Jan 29 2020 07:53:28 GMT-0600 (Central Standard Time)","Wed Jan 29 2020 08:02:25 GMT-0600 (Central Standard Time)","Mozilla/5.0 (Windows NT 6.1; Win64; x64) AppleWebKit/537.36 (KHTML, like Gecko) Chrome/79.0.3945.130 Safari/537.36",99,"[0.9, 0.5, 0.1]","[0.8, 0.4, 0.2]","[u'blue', u'black', u'red']","[u'left', u'middle', u'right']","[0.8, 0.4, 0.2]","[u'medium', u'low', u'high']","red",51,"right","high","True","False",238,4350,NA
"A340UNNVUZMEZF","Wed Jan 29 2020 07:53:28 GMT-0600 (Central Standard Time)","Wed Jan 29 2020 08:02:25 GMT-0600 (Central Standard Time)","Mozilla/5.0 (Windows NT 6.1; Win64; x64) AppleWebKit/537.36 (KHTML, like Gecko) Chrome/79.0.3945.130 Safari/537.36",100,"[0.9, 0.5, 0.1]","[0.8, 0.4, 0.2]","[u'blue', u'black', u'red']","[u'left', u'middle', u'right']","[0.8, 0.4, 0.2]","[u'medium', u'low', u'high']","red",51,"right","high","True","False",557,4450,NA
"A340UNNVUZMEZF","Wed Jan 29 2020 07:53:28 GMT-0600 (Central Standard Time)","Wed Jan 29 2020 08:02:25 GMT-0600 (Central Standard Time)","Mozilla/5.0 (Windows NT 6.1; Win64; x64) AppleWebKit/537.36 (KHTML, like Gecko) Chrome/79.0.3945.130 Safari/537.36",101,"[0.9, 0.5, 0.1]","[0.8, 0.4, 0.2]","[u'blue', u'black', u'red']","[u'left', u'middle', u'right']","[0.8, 0.4, 0.2]","[u'medium', u'low', u'high']","red",51,"right","high","True","False",266,4550,NA
"A340UNNVUZMEZF","Wed Jan 29 2020 07:53:28 GMT-0600 (Central Standard Time)","Wed Jan 29 2020 08:02:25 GMT-0600 (Central Standard Time)","Mozilla/5.0 (Windows NT 6.1; Win64; x64) AppleWebKit/537.36 (KHTML, like Gecko) Chrome/79.0.3945.130 Safari/537.36",102,"[0.9, 0.5, 0.1]","[0.8, 0.4, 0.2]","[u'blue', u'black', u'red']","[u'left', u'middle', u'right']","[0.8, 0.4, 0.2]","[u'medium', u'low', u'high']","red",51,"right","high","True","False",432,4650,NA
"A340UNNVUZMEZF","Wed Jan 29 2020 07:53:28 GMT-0600 (Central Standard Time)","Wed Jan 29 2020 08:02:25 GMT-0600 (Central Standard Time)","Mozilla/5.0 (Windows NT 6.1; Win64; x64) AppleWebKit/537.36 (KHTML, like Gecko) Chrome/79.0.3945.130 Safari/537.36",103,"[0.9, 0.5, 0.1]","[0.8, 0.4, 0.2]","[u'blue', u'black', u'red']","[u'left', u'middle', u'right']","[0.8, 0.4, 0.2]","[u'medium', u'low', u'high']","red",51,"right","high","True","False",362,4750,NA
"A340UNNVUZMEZF","Wed Jan 29 2020 07:53:28 GMT-0600 (Central Standard Time)","Wed Jan 29 2020 08:02:25 GMT-0600 (Central Standard Time)","Mozilla/5.0 (Windows NT 6.1; Win64; x64) AppleWebKit/537.36 (KHTML, like Gecko) Chrome/79.0.3945.130 Safari/537.36",104,"[0.9, 0.5, 0.1]","[0.8, 0.4, 0.2]","[u'blue', u'black', u'red']","[u'left', u'middle', u'right']","[0.8, 0.4, 0.2]","[u'medium', u'low', u'high']","red",51,"right","high","True","False",321,4850,NA
"A340UNNVUZMEZF","Wed Jan 29 2020 07:53:28 GMT-0600 (Central Standard Time)","Wed Jan 29 2020 08:02:25 GMT-0600 (Central Standard Time)","Mozilla/5.0 (Windows NT 6.1; Win64; x64) AppleWebKit/537.36 (KHTML, like Gecko) Chrome/79.0.3945.130 Safari/537.36",105,"[0.9, 0.5, 0.1]","[0.8, 0.4, 0.2]","[u'blue', u'black', u'red']","[u'left', u'middle', u'right']","[0.8, 0.4, 0.2]","[u'medium', u'low', u'high']","red",51,"right","high","True","False",297,4950,NA
"A340UNNVUZMEZF","Wed Jan 29 2020 07:53:28 GMT-0600 (Central Standard Time)","Wed Jan 29 2020 08:02:25 GMT-0600 (Central Standard Time)","Mozilla/5.0 (Windows NT 6.1; Win64; x64) AppleWebKit/537.36 (KHTML, like Gecko) Chrome/79.0.3945.130 Safari/537.36",106,"[0.9, 0.5, 0.1]","[0.8, 0.4, 0.2]","[u'blue', u'black', u'red']","[u'left', u'middle', u'right']","[0.8, 0.4, 0.2]","[u'medium', u'low', u'high']","red",51,"right","high","True","True",277,5050,NA
"A340UNNVUZMEZF","Wed Jan 29 2020 07:53:28 GMT-0600 (Central Standard Time)","Wed Jan 29 2020 08:02:25 GMT-0600 (Central Standard Time)","Mozilla/5.0 (Windows NT 6.1; Win64; x64) AppleWebKit/537.36 (KHTML, like Gecko) Chrome/79.0.3945.130 Safari/537.36",107,"[0.9, 0.5, 0.1]","[0.8, 0.4, 0.2]","[u'blue', u'black', u'red']","[u'left', u'middle', u'right']","[0.8, 0.4, 0.2]","[u'low', u'high', u'medium']","red",51,"right","medium","True","False",287,5150,NA
"A340UNNVUZMEZF","Wed Jan 29 2020 07:53:28 GMT-0600 (Central Standard Time)","Wed Jan 29 2020 08:02:25 GMT-0600 (Central Standard Time)","Mozilla/5.0 (Windows NT 6.1; Win64; x64) AppleWebKit/537.36 (KHTML, like Gecko) Chrome/79.0.3945.130 Safari/537.36",108,"[0.9, 0.5, 0.1]","[0.8, 0.4, 0.2]","[u'blue', u'black', u'red']","[u'left', u'middle', u'right']","[0.8, 0.4, 0.2]","[u'low', u'high', u'medium']","red",51,"right","medium","False","False",330,5100,NA
"A340UNNVUZMEZF","Wed Jan 29 2020 07:53:28 GMT-0600 (Central Standard Time)","Wed Jan 29 2020 08:02:25 GMT-0600 (Central Standard Time)","Mozilla/5.0 (Windows NT 6.1; Win64; x64) AppleWebKit/537.36 (KHTML, like Gecko) Chrome/79.0.3945.130 Safari/537.36",109,"[0.9, 0.5, 0.1]","[0.8, 0.4, 0.2]","[u'blue', u'black', u'red']","[u'left', u'middle', u'right']","[0.8, 0.4, 0.2]","[u'low', u'high', u'medium']","black",50,"middle","high","False","False",371,5050,NA
"A340UNNVUZMEZF","Wed Jan 29 2020 07:53:28 GMT-0600 (Central Standard Time)","Wed Jan 29 2020 08:02:25 GMT-0600 (Central Standard Time)","Mozilla/5.0 (Windows NT 6.1; Win64; x64) AppleWebKit/537.36 (KHTML, like Gecko) Chrome/79.0.3945.130 Safari/537.36",110,"[0.9, 0.5, 0.1]","[0.8, 0.4, 0.2]","[u'blue', u'black', u'red']","[u'left', u'middle', u'right']","[0.8, 0.4, 0.2]","[u'low', u'high', u'medium']","red",51,"right","medium","False","False",269,5000,NA
"A340UNNVUZMEZF","Wed Jan 29 2020 07:53:28 GMT-0600 (Central Standard Time)","Wed Jan 29 2020 08:02:25 GMT-0600 (Central Standard Time)","Mozilla/5.0 (Windows NT 6.1; Win64; x64) AppleWebKit/537.36 (KHTML, like Gecko) Chrome/79.0.3945.130 Safari/537.36",111,"[0.9, 0.5, 0.1]","[0.8, 0.4, 0.2]","[u'blue', u'black', u'red']","[u'left', u'middle', u'right']","[0.8, 0.4, 0.2]","[u'low', u'high', u'medium']","blue",49,"left","low","False","False",243,4950,NA
"A340UNNVUZMEZF","Wed Jan 29 2020 07:53:28 GMT-0600 (Central Standard Time)","Wed Jan 29 2020 08:02:25 GMT-0600 (Central Standard Time)","Mozilla/5.0 (Windows NT 6.1; Win64; x64) AppleWebKit/537.36 (KHTML, like Gecko) Chrome/79.0.3945.130 Safari/537.36",112,"[0.9, 0.5, 0.1]","[0.8, 0.4, 0.2]","[u'blue', u'black', u'red']","[u'left', u'middle', u'right']","[0.8, 0.4, 0.2]","[u'low', u'high', u'medium']","blue",49,"left","low","False","False",219,4900,NA
"A340UNNVUZMEZF","Wed Jan 29 2020 07:53:28 GMT-0600 (Central Standard Time)","Wed Jan 29 2020 08:02:25 GMT-0600 (Central Standard Time)","Mozilla/5.0 (Windows NT 6.1; Win64; x64) AppleWebKit/537.36 (KHTML, like Gecko) Chrome/79.0.3945.130 Safari/537.36",113,"[0.9, 0.5, 0.1]","[0.8, 0.4, 0.2]","[u'blue', u'black', u'red']","[u'left', u'middle', u'right']","[0.8, 0.4, 0.2]","[u'low', u'high', u'medium']","black",50,"middle","high","True","False",221,5000,NA
"A340UNNVUZMEZF","Wed Jan 29 2020 07:53:28 GMT-0600 (Central Standard Time)","Wed Jan 29 2020 08:02:25 GMT-0600 (Central Standard Time)","Mozilla/5.0 (Windows NT 6.1; Win64; x64) AppleWebKit/537.36 (KHTML, like Gecko) Chrome/79.0.3945.130 Safari/537.36",114,"[0.9, 0.5, 0.1]","[0.8, 0.4, 0.2]","[u'blue', u'black', u'red']","[u'left', u'middle', u'right']","[0.8, 0.4, 0.2]","[u'low', u'high', u'medium']","black",50,"middle","high","True","False",208,5100,NA
"A340UNNVUZMEZF","Wed Jan 29 2020 07:53:28 GMT-0600 (Central Standard Time)","Wed Jan 29 2020 08:02:25 GMT-0600 (Central Standard Time)","Mozilla/5.0 (Windows NT 6.1; Win64; x64) AppleWebKit/537.36 (KHTML, like Gecko) Chrome/79.0.3945.130 Safari/537.36",115,"[0.9, 0.5, 0.1]","[0.8, 0.4, 0.2]","[u'blue', u'black', u'red']","[u'left', u'middle', u'right']","[0.8, 0.4, 0.2]","[u'low', u'high', u'medium']","black",50,"middle","high","True","False",234,5200,NA
"A340UNNVUZMEZF","Wed Jan 29 2020 07:53:28 GMT-0600 (Central Standard Time)","Wed Jan 29 2020 08:02:25 GMT-0600 (Central Standard Time)","Mozilla/5.0 (Windows NT 6.1; Win64; x64) AppleWebKit/537.36 (KHTML, like Gecko) Chrome/79.0.3945.130 Safari/537.36",116,"[0.9, 0.5, 0.1]","[0.8, 0.4, 0.2]","[u'blue', u'black', u'red']","[u'left', u'middle', u'right']","[0.8, 0.4, 0.2]","[u'low', u'high', u'medium']","black",50,"middle","high","True","False",464,5300,NA
"A340UNNVUZMEZF","Wed Jan 29 2020 07:53:28 GMT-0600 (Central Standard Time)","Wed Jan 29 2020 08:02:25 GMT-0600 (Central Standard Time)","Mozilla/5.0 (Windows NT 6.1; Win64; x64) AppleWebKit/537.36 (KHTML, like Gecko) Chrome/79.0.3945.130 Safari/537.36",117,"[0.9, 0.5, 0.1]","[0.8, 0.4, 0.2]","[u'blue', u'black', u'red']","[u'left', u'middle', u'right']","[0.8, 0.4, 0.2]","[u'low', u'high', u'medium']","black",50,"middle","high","True","False",254,5400,NA
"A340UNNVUZMEZF","Wed Jan 29 2020 07:53:28 GMT-0600 (Central Standard Time)","Wed Jan 29 2020 08:02:25 GMT-0600 (Central Standard Time)","Mozilla/5.0 (Windows NT 6.1; Win64; x64) AppleWebKit/537.36 (KHTML, like Gecko) Chrome/79.0.3945.130 Safari/537.36",118,"[0.9, 0.5, 0.1]","[0.8, 0.4, 0.2]","[u'blue', u'black', u'red']","[u'left', u'middle', u'right']","[0.8, 0.4, 0.2]","[u'low', u'high', u'medium']","black",50,"middle","high","True","False",228,5500,NA
"A340UNNVUZMEZF","Wed Jan 29 2020 07:53:28 GMT-0600 (Central Standard Time)","Wed Jan 29 2020 08:02:25 GMT-0600 (Central Standard Time)","Mozilla/5.0 (Windows NT 6.1; Win64; x64) AppleWebKit/537.36 (KHTML, like Gecko) Chrome/79.0.3945.130 Safari/537.36",119,"[0.9, 0.5, 0.1]","[0.8, 0.4, 0.2]","[u'blue', u'black', u'red']","[u'left', u'middle', u'right']","[0.8, 0.4, 0.2]","[u'low', u'high', u'medium']","black",50,"middle","high","False","False",282,5450,NA
"A340UNNVUZMEZF","Wed Jan 29 2020 07:53:28 GMT-0600 (Central Standard Time)","Wed Jan 29 2020 08:02:25 GMT-0600 (Central Standard Time)","Mozilla/5.0 (Windows NT 6.1; Win64; x64) AppleWebKit/537.36 (KHTML, like Gecko) Chrome/79.0.3945.130 Safari/537.36",120,"[0.9, 0.5, 0.1]","[0.8, 0.4, 0.2]","[u'blue', u'black', u'red']","[u'left', u'middle', u'right']","[0.8, 0.4, 0.2]","[u'low', u'high', u'medium']","red",51,"right","medium","True","False",250,5550,NA
"A340UNNVUZMEZF","Wed Jan 29 2020 07:53:28 GMT-0600 (Central Standard Time)","Wed Jan 29 2020 08:02:25 GMT-0600 (Central Standard Time)","Mozilla/5.0 (Windows NT 6.1; Win64; x64) AppleWebKit/537.36 (KHTML, like Gecko) Chrome/79.0.3945.130 Safari/537.36",121,"[0.9, 0.5, 0.1]","[0.8, 0.4, 0.2]","[u'blue', u'black', u'red']","[u'left', u'middle', u'right']","[0.8, 0.4, 0.2]","[u'high', u'low', u'medium']","blue",49,"left","high","True","False",627,5650,NA
"A340UNNVUZMEZF","Wed Jan 29 2020 07:53:28 GMT-0600 (Central Standard Time)","Wed Jan 29 2020 08:02:25 GMT-0600 (Central Standard Time)","Mozilla/5.0 (Windows NT 6.1; Win64; x64) AppleWebKit/537.36 (KHTML, like Gecko) Chrome/79.0.3945.130 Safari/537.36",122,"[0.9, 0.5, 0.1]","[0.8, 0.4, 0.2]","[u'blue', u'black', u'red']","[u'left', u'middle', u'right']","[0.8, 0.4, 0.2]","[u'high', u'low', u'medium']","blue",49,"left","high","True","False",298,5750,NA
"A340UNNVUZMEZF","Wed Jan 29 2020 07:53:28 GMT-0600 (Central Standard Time)","Wed Jan 29 2020 08:02:25 GMT-0600 (Central Standard Time)","Mozilla/5.0 (Windows NT 6.1; Win64; x64) AppleWebKit/537.36 (KHTML, like Gecko) Chrome/79.0.3945.130 Safari/537.36",123,"[0.9, 0.5, 0.1]","[0.8, 0.4, 0.2]","[u'blue', u'black', u'red']","[u'left', u'middle', u'right']","[0.8, 0.4, 0.2]","[u'high', u'low', u'medium']","blue",49,"left","high","True","False",579,5850,NA
"A340UNNVUZMEZF","Wed Jan 29 2020 07:53:28 GMT-0600 (Central Standard Time)","Wed Jan 29 2020 08:02:25 GMT-0600 (Central Standard Time)","Mozilla/5.0 (Windows NT 6.1; Win64; x64) AppleWebKit/537.36 (KHTML, like Gecko) Chrome/79.0.3945.130 Safari/537.36",124,"[0.9, 0.5, 0.1]","[0.8, 0.4, 0.2]","[u'blue', u'black', u'red']","[u'left', u'middle', u'right']","[0.8, 0.4, 0.2]","[u'high', u'low', u'medium']","blue",49,"left","high","True","False",923,5950,NA
"A340UNNVUZMEZF","Wed Jan 29 2020 07:53:28 GMT-0600 (Central Standard Time)","Wed Jan 29 2020 08:02:25 GMT-0600 (Central Standard Time)","Mozilla/5.0 (Windows NT 6.1; Win64; x64) AppleWebKit/537.36 (KHTML, like Gecko) Chrome/79.0.3945.130 Safari/537.36",125,"[0.9, 0.5, 0.1]","[0.8, 0.4, 0.2]","[u'blue', u'black', u'red']","[u'left', u'middle', u'right']","[0.8, 0.4, 0.2]","[u'high', u'low', u'medium']","blue",49,"left","high","True","False",541,6050,NA
"A340UNNVUZMEZF","Wed Jan 29 2020 07:53:28 GMT-0600 (Central Standard Time)","Wed Jan 29 2020 08:02:25 GMT-0600 (Central Standard Time)","Mozilla/5.0 (Windows NT 6.1; Win64; x64) AppleWebKit/537.36 (KHTML, like Gecko) Chrome/79.0.3945.130 Safari/537.36",126,"[0.9, 0.5, 0.1]","[0.8, 0.4, 0.2]","[u'blue', u'black', u'red']","[u'left', u'middle', u'right']","[0.8, 0.4, 0.2]","[u'high', u'low', u'medium']","blue",49,"left","high","True","False",1832,6150,NA
"A340UNNVUZMEZF","Wed Jan 29 2020 07:53:28 GMT-0600 (Central Standard Time)","Wed Jan 29 2020 08:02:25 GMT-0600 (Central Standard Time)","Mozilla/5.0 (Windows NT 6.1; Win64; x64) AppleWebKit/537.36 (KHTML, like Gecko) Chrome/79.0.3945.130 Safari/537.36",127,"[0.9, 0.5, 0.1]","[0.8, 0.4, 0.2]","[u'blue', u'black', u'red']","[u'left', u'middle', u'right']","[0.8, 0.4, 0.2]","[u'high', u'low', u'medium']","blue",49,"left","high","True","False",953,6250,NA
"A340UNNVUZMEZF","Wed Jan 29 2020 07:53:28 GMT-0600 (Central Standard Time)","Wed Jan 29 2020 08:02:25 GMT-0600 (Central Standard Time)","Mozilla/5.0 (Windows NT 6.1; Win64; x64) AppleWebKit/537.36 (KHTML, like Gecko) Chrome/79.0.3945.130 Safari/537.36",128,"[0.9, 0.5, 0.1]","[0.8, 0.4, 0.2]","[u'blue', u'black', u'red']","[u'left', u'middle', u'right']","[0.8, 0.4, 0.2]","[u'high', u'low', u'medium']","blue",49,"left","high","True","False",656,6350,NA
"A340UNNVUZMEZF","Wed Jan 29 2020 07:53:28 GMT-0600 (Central Standard Time)","Wed Jan 29 2020 08:02:25 GMT-0600 (Central Standard Time)","Mozilla/5.0 (Windows NT 6.1; Win64; x64) AppleWebKit/537.36 (KHTML, like Gecko) Chrome/79.0.3945.130 Safari/537.36",129,"[0.9, 0.5, 0.1]","[0.8, 0.4, 0.2]","[u'blue', u'black', u'red']","[u'left', u'middle', u'right']","[0.8, 0.4, 0.2]","[u'high', u'low', u'medium']","blue",49,"left","high","True","True",1392,6450,NA
"A340UNNVUZMEZF","Wed Jan 29 2020 07:53:28 GMT-0600 (Central Standard Time)","Wed Jan 29 2020 08:02:25 GMT-0600 (Central Standard Time)","Mozilla/5.0 (Windows NT 6.1; Win64; x64) AppleWebKit/537.36 (KHTML, like Gecko) Chrome/79.0.3945.130 Safari/537.36",130,"[0.9, 0.5, 0.1]","[0.8, 0.4, 0.2]","[u'blue', u'black', u'red']","[u'left', u'middle', u'right']","[0.8, 0.4, 0.2]","[u'medium', u'high', u'low']","blue",49,"left","medium","False","False",689,6400,NA
"A340UNNVUZMEZF","Wed Jan 29 2020 07:53:28 GMT-0600 (Central Standard Time)","Wed Jan 29 2020 08:02:25 GMT-0600 (Central Standard Time)","Mozilla/5.0 (Windows NT 6.1; Win64; x64) AppleWebKit/537.36 (KHTML, like Gecko) Chrome/79.0.3945.130 Safari/537.36",131,"[0.9, 0.5, 0.1]","[0.8, 0.4, 0.2]","[u'blue', u'black', u'red']","[u'left', u'middle', u'right']","[0.8, 0.4, 0.2]","[u'medium', u'high', u'low']","blue",49,"left","medium","False","False",4884,6350,NA
"A340UNNVUZMEZF","Wed Jan 29 2020 07:53:28 GMT-0600 (Central Standard Time)","Wed Jan 29 2020 08:02:25 GMT-0600 (Central Standard Time)","Mozilla/5.0 (Windows NT 6.1; Win64; x64) AppleWebKit/537.36 (KHTML, like Gecko) Chrome/79.0.3945.130 Safari/537.36",132,"[0.9, 0.5, 0.1]","[0.8, 0.4, 0.2]","[u'blue', u'black', u'red']","[u'left', u'middle', u'right']","[0.8, 0.4, 0.2]","[u'medium', u'high', u'low']","black",50,"middle","high","True","False",307,6450,NA
"A340UNNVUZMEZF","Wed Jan 29 2020 07:53:28 GMT-0600 (Central Standard Time)","Wed Jan 29 2020 08:02:25 GMT-0600 (Central Standard Time)","Mozilla/5.0 (Windows NT 6.1; Win64; x64) AppleWebKit/537.36 (KHTML, like Gecko) Chrome/79.0.3945.130 Safari/537.36",133,"[0.9, 0.5, 0.1]","[0.8, 0.4, 0.2]","[u'blue', u'black', u'red']","[u'left', u'middle', u'right']","[0.8, 0.4, 0.2]","[u'medium', u'high', u'low']","black",50,"middle","high","True","False",2131,6550,NA
"A340UNNVUZMEZF","Wed Jan 29 2020 07:53:28 GMT-0600 (Central Standard Time)","Wed Jan 29 2020 08:02:25 GMT-0600 (Central Standard Time)","Mozilla/5.0 (Windows NT 6.1; Win64; x64) AppleWebKit/537.36 (KHTML, like Gecko) Chrome/79.0.3945.130 Safari/537.36",134,"[0.9, 0.5, 0.1]","[0.8, 0.4, 0.2]","[u'blue', u'black', u'red']","[u'left', u'middle', u'right']","[0.8, 0.4, 0.2]","[u'medium', u'high', u'low']","black",50,"middle","high","True","False",3047,6650,NA
"A340UNNVUZMEZF","Wed Jan 29 2020 07:53:28 GMT-0600 (Central Standard Time)","Wed Jan 29 2020 08:02:25 GMT-0600 (Central Standard Time)","Mozilla/5.0 (Windows NT 6.1; Win64; x64) AppleWebKit/537.36 (KHTML, like Gecko) Chrome/79.0.3945.130 Safari/537.36",135,"[0.9, 0.5, 0.1]","[0.8, 0.4, 0.2]","[u'blue', u'black', u'red']","[u'left', u'middle', u'right']","[0.8, 0.4, 0.2]","[u'medium', u'high', u'low']","black",50,"middle","high","False","False",1355,6600,NA
"A340UNNVUZMEZF","Wed Jan 29 2020 07:53:28 GMT-0600 (Central Standard Time)","Wed Jan 29 2020 08:02:25 GMT-0600 (Central Standard Time)","Mozilla/5.0 (Windows NT 6.1; Win64; x64) AppleWebKit/537.36 (KHTML, like Gecko) Chrome/79.0.3945.130 Safari/537.36",136,"[0.9, 0.5, 0.1]","[0.8, 0.4, 0.2]","[u'blue', u'black', u'red']","[u'left', u'middle', u'right']","[0.8, 0.4, 0.2]","[u'medium', u'high', u'low']","red",51,"right","low","False","False",331,6550,NA
"A340UNNVUZMEZF","Wed Jan 29 2020 07:53:28 GMT-0600 (Central Standard Time)","Wed Jan 29 2020 08:02:25 GMT-0600 (Central Standard Time)","Mozilla/5.0 (Windows NT 6.1; Win64; x64) AppleWebKit/537.36 (KHTML, like Gecko) Chrome/79.0.3945.130 Safari/537.36",137,"[0.9, 0.5, 0.1]","[0.8, 0.4, 0.2]","[u'blue', u'black', u'red']","[u'left', u'middle', u'right']","[0.8, 0.4, 0.2]","[u'medium', u'high', u'low']","blue",49,"left","medium","True","False",539,6650,NA
"A340UNNVUZMEZF","Wed Jan 29 2020 07:53:28 GMT-0600 (Central Standard Time)","Wed Jan 29 2020 08:02:25 GMT-0600 (Central Standard Time)","Mozilla/5.0 (Windows NT 6.1; Win64; x64) AppleWebKit/537.36 (KHTML, like Gecko) Chrome/79.0.3945.130 Safari/537.36",138,"[0.9, 0.5, 0.1]","[0.8, 0.4, 0.2]","[u'blue', u'black', u'red']","[u'left', u'middle', u'right']","[0.8, 0.4, 0.2]","[u'medium', u'high', u'low']","black",50,"middle","high","True","False",1354,6750,NA
"A340UNNVUZMEZF","Wed Jan 29 2020 07:53:28 GMT-0600 (Central Standard Time)","Wed Jan 29 2020 08:02:25 GMT-0600 (Central Standard Time)","Mozilla/5.0 (Windows NT 6.1; Win64; x64) AppleWebKit/537.36 (KHTML, like Gecko) Chrome/79.0.3945.130 Safari/537.36",139,"[0.9, 0.5, 0.1]","[0.8, 0.4, 0.2]","[u'blue', u'black', u'red']","[u'left', u'middle', u'right']","[0.8, 0.4, 0.2]","[u'medium', u'high', u'low']","blue",49,"left","medium","True","False",1163,6850,NA
"A340UNNVUZMEZF","Wed Jan 29 2020 07:53:28 GMT-0600 (Central Standard Time)","Wed Jan 29 2020 08:02:25 GMT-0600 (Central Standard Time)","Mozilla/5.0 (Windows NT 6.1; Win64; x64) AppleWebKit/537.36 (KHTML, like Gecko) Chrome/79.0.3945.130 Safari/537.36",140,"[0.9, 0.5, 0.1]","[0.8, 0.4, 0.2]","[u'blue', u'black', u'red']","[u'left', u'middle', u'right']","[0.8, 0.4, 0.2]","[u'medium', u'high', u'low']","blue",49,"left","medium","False","False",458,6800,NA
"A340UNNVUZMEZF","Wed Jan 29 2020 07:53:28 GMT-0600 (Central Standard Time)","Wed Jan 29 2020 08:02:25 GMT-0600 (Central Standard Time)","Mozilla/5.0 (Windows NT 6.1; Win64; x64) AppleWebKit/537.36 (KHTML, like Gecko) Chrome/79.0.3945.130 Safari/537.36",141,"[0.9, 0.5, 0.1]","[0.8, 0.4, 0.2]","[u'blue', u'black', u'red']","[u'left', u'middle', u'right']","[0.8, 0.4, 0.2]","[u'medium', u'high', u'low']","black",50,"middle","high","True","False",282,6900,NA
"A340UNNVUZMEZF","Wed Jan 29 2020 07:53:28 GMT-0600 (Central Standard Time)","Wed Jan 29 2020 08:02:25 GMT-0600 (Central Standard Time)","Mozilla/5.0 (Windows NT 6.1; Win64; x64) AppleWebKit/537.36 (KHTML, like Gecko) Chrome/79.0.3945.130 Safari/537.36",142,"[0.9, 0.5, 0.1]","[0.8, 0.4, 0.2]","[u'blue', u'black', u'red']","[u'left', u'middle', u'right']","[0.8, 0.4, 0.2]","[u'medium', u'high', u'low']","black",50,"middle","high","False","False",1394,6850,NA
"A340UNNVUZMEZF","Wed Jan 29 2020 07:53:28 GMT-0600 (Central Standard Time)","Wed Jan 29 2020 08:02:25 GMT-0600 (Central Standard Time)","Mozilla/5.0 (Windows NT 6.1; Win64; x64) AppleWebKit/537.36 (KHTML, like Gecko) Chrome/79.0.3945.130 Safari/537.36",143,"[0.9, 0.5, 0.1]","[0.8, 0.4, 0.2]","[u'blue', u'black', u'red']","[u'left', u'middle', u'right']","[0.8, 0.4, 0.2]","[u'medium', u'high', u'low']","red",51,"right","low","False","False",139,6800,NA
"A340UNNVUZMEZF","Wed Jan 29 2020 07:53:28 GMT-0600 (Central Standard Time)","Wed Jan 29 2020 08:02:25 GMT-0600 (Central Standard Time)","Mozilla/5.0 (Windows NT 6.1; Win64; x64) AppleWebKit/537.36 (KHTML, like Gecko) Chrome/79.0.3945.130 Safari/537.36",144,"[0.9, 0.5, 0.1]","[0.8, 0.4, 0.2]","[u'blue', u'black', u'red']","[u'left', u'middle', u'right']","[0.8, 0.4, 0.2]","[u'medium', u'high', u'low']","red",51,"right","low","False","False",2221,6750,NA
"A340UNNVUZMEZF","Wed Jan 29 2020 07:53:28 GMT-0600 (Central Standard Time)","Wed Jan 29 2020 08:02:25 GMT-0600 (Central Standard Time)","Mozilla/5.0 (Windows NT 6.1; Win64; x64) AppleWebKit/537.36 (KHTML, like Gecko) Chrome/79.0.3945.130 Safari/537.36",145,"[0.9, 0.5, 0.1]","[0.8, 0.4, 0.2]","[u'blue', u'black', u'red']","[u'left', u'middle', u'right']","[0.8, 0.4, 0.2]","[u'medium', u'high', u'low']","blue",49,"left","medium","True","False",362,6850,NA
"A340UNNVUZMEZF","Wed Jan 29 2020 07:53:28 GMT-0600 (Central Standard Time)","Wed Jan 29 2020 08:02:25 GMT-0600 (Central Standard Time)","Mozilla/5.0 (Windows NT 6.1; Win64; x64) AppleWebKit/537.36 (KHTML, like Gecko) Chrome/79.0.3945.130 Safari/537.36",146,"[0.9, 0.5, 0.1]","[0.8, 0.4, 0.2]","[u'blue', u'black', u'red']","[u'left', u'middle', u'right']","[0.8, 0.4, 0.2]","[u'medium', u'high', u'low']","blue",49,"left","medium","False","False",2972,6800,NA
"A340UNNVUZMEZF","Wed Jan 29 2020 07:53:28 GMT-0600 (Central Standard Time)","Wed Jan 29 2020 08:02:25 GMT-0600 (Central Standard Time)","Mozilla/5.0 (Windows NT 6.1; Win64; x64) AppleWebKit/537.36 (KHTML, like Gecko) Chrome/79.0.3945.130 Safari/537.36",147,"[0.9, 0.5, 0.1]","[0.8, 0.4, 0.2]","[u'blue', u'black', u'red']","[u'left', u'middle', u'right']","[0.8, 0.4, 0.2]","[u'medium', u'high', u'low']","black",50,"middle","high","False","False",436,6750,NA
"A340UNNVUZMEZF","Wed Jan 29 2020 07:53:28 GMT-0600 (Central Standard Time)","Wed Jan 29 2020 08:02:25 GMT-0600 (Central Standard Time)","Mozilla/5.0 (Windows NT 6.1; Win64; x64) AppleWebKit/537.36 (KHTML, like Gecko) Chrome/79.0.3945.130 Safari/537.36",148,"[0.9, 0.5, 0.1]","[0.8, 0.4, 0.2]","[u'blue', u'black', u'red']","[u'left', u'middle', u'right']","[0.8, 0.4, 0.2]","[u'medium', u'high', u'low']","black",50,"middle","high","True","False",557,6850,NA
"A340UNNVUZMEZF","Wed Jan 29 2020 07:53:28 GMT-0600 (Central Standard Time)","Wed Jan 29 2020 08:02:25 GMT-0600 (Central Standard Time)","Mozilla/5.0 (Windows NT 6.1; Win64; x64) AppleWebKit/537.36 (KHTML, like Gecko) Chrome/79.0.3945.130 Safari/537.36",149,"[0.9, 0.5, 0.1]","[0.8, 0.4, 0.2]","[u'blue', u'black', u'red']","[u'left', u'middle', u'right']","[0.8, 0.4, 0.2]","[u'medium', u'high', u'low']","black",50,"middle","high","True","False",3008,6950,NA
"A340UNNVUZMEZF","Wed Jan 29 2020 07:53:28 GMT-0600 (Central Standard Time)","Wed Jan 29 2020 08:02:25 GMT-0600 (Central Standard Time)","Mozilla/5.0 (Windows NT 6.1; Win64; x64) AppleWebKit/537.36 (KHTML, like Gecko) Chrome/79.0.3945.130 Safari/537.36",150,"[0.9, 0.5, 0.1]","[0.8, 0.4, 0.2]","[u'blue', u'black', u'red']","[u'left', u'middle', u'right']","[0.8, 0.4, 0.2]","[u'medium', u'high', u'low']","black",50,"middle","high","True","False",778,7050,NA
"A340UNNVUZMEZF","Wed Jan 29 2020 07:53:28 GMT-0600 (Central Standard Time)","Wed Jan 29 2020 08:02:25 GMT-0600 (Central Standard Time)","Mozilla/5.0 (Windows NT 6.1; Win64; x64) AppleWebKit/537.36 (KHTML, like Gecko) Chrome/79.0.3945.130 Safari/537.36",151,"[0.9, 0.5, 0.1]","[0.8, 0.4, 0.2]","[u'blue', u'black', u'red']","[u'left', u'middle', u'right']","[0.8, 0.4, 0.2]","[u'medium', u'high', u'low']","black",50,"middle","high","True","False",415,7150,NA
"A340UNNVUZMEZF","Wed Jan 29 2020 07:53:28 GMT-0600 (Central Standard Time)","Wed Jan 29 2020 08:02:25 GMT-0600 (Central Standard Time)","Mozilla/5.0 (Windows NT 6.1; Win64; x64) AppleWebKit/537.36 (KHTML, like Gecko) Chrome/79.0.3945.130 Safari/537.36",152,"[0.9, 0.5, 0.1]","[0.8, 0.4, 0.2]","[u'blue', u'black', u'red']","[u'left', u'middle', u'right']","[0.8, 0.4, 0.2]","[u'medium', u'high', u'low']","red",51,"right","low","False","False",476,7100,NA
"A340UNNVUZMEZF","Wed Jan 29 2020 07:53:28 GMT-0600 (Central Standard Time)","Wed Jan 29 2020 08:02:25 GMT-0600 (Central Standard Time)","Mozilla/5.0 (Windows NT 6.1; Win64; x64) AppleWebKit/537.36 (KHTML, like Gecko) Chrome/79.0.3945.130 Safari/537.36",153,"[0.9, 0.5, 0.1]","[0.8, 0.4, 0.2]","[u'blue', u'black', u'red']","[u'left', u'middle', u'right']","[0.8, 0.4, 0.2]","[u'medium', u'high', u'low']","black",50,"middle","high","False","False",369,7050,NA
"A340UNNVUZMEZF","Wed Jan 29 2020 07:53:28 GMT-0600 (Central Standard Time)","Wed Jan 29 2020 08:02:25 GMT-0600 (Central Standard Time)","Mozilla/5.0 (Windows NT 6.1; Win64; x64) AppleWebKit/537.36 (KHTML, like Gecko) Chrome/79.0.3945.130 Safari/537.36",154,"[0.9, 0.5, 0.1]","[0.8, 0.4, 0.2]","[u'blue', u'black', u'red']","[u'left', u'middle', u'right']","[0.8, 0.4, 0.2]","[u'medium', u'high', u'low']","blue",49,"left","medium","True","False",313,7150,NA
"A340UNNVUZMEZF","Wed Jan 29 2020 07:53:28 GMT-0600 (Central Standard Time)","Wed Jan 29 2020 08:02:25 GMT-0600 (Central Standard Time)","Mozilla/5.0 (Windows NT 6.1; Win64; x64) AppleWebKit/537.36 (KHTML, like Gecko) Chrome/79.0.3945.130 Safari/537.36",155,"[0.9, 0.5, 0.1]","[0.8, 0.4, 0.2]","[u'blue', u'black', u'red']","[u'left', u'middle', u'right']","[0.8, 0.4, 0.2]","[u'medium', u'high', u'low']","blue",49,"left","medium","False","False",539,7100,NA
"A340UNNVUZMEZF","Wed Jan 29 2020 07:53:28 GMT-0600 (Central Standard Time)","Wed Jan 29 2020 08:02:25 GMT-0600 (Central Standard Time)","Mozilla/5.0 (Windows NT 6.1; Win64; x64) AppleWebKit/537.36 (KHTML, like Gecko) Chrome/79.0.3945.130 Safari/537.36",156,"[0.9, 0.5, 0.1]","[0.8, 0.4, 0.2]","[u'blue', u'black', u'red']","[u'left', u'middle', u'right']","[0.8, 0.4, 0.2]","[u'medium', u'high', u'low']","black",50,"middle","high","False","False",538,7050,NA
"A340UNNVUZMEZF","Wed Jan 29 2020 07:53:28 GMT-0600 (Central Standard Time)","Wed Jan 29 2020 08:02:25 GMT-0600 (Central Standard Time)","Mozilla/5.0 (Windows NT 6.1; Win64; x64) AppleWebKit/537.36 (KHTML, like Gecko) Chrome/79.0.3945.130 Safari/537.36",157,"[0.9, 0.5, 0.1]","[0.8, 0.4, 0.2]","[u'blue', u'black', u'red']","[u'left', u'middle', u'right']","[0.8, 0.4, 0.2]","[u'medium', u'high', u'low']","red",51,"right","low","False","False",364,7000,NA
"A340UNNVUZMEZF","Wed Jan 29 2020 07:53:28 GMT-0600 (Central Standard Time)","Wed Jan 29 2020 08:02:25 GMT-0600 (Central Standard Time)","Mozilla/5.0 (Windows NT 6.1; Win64; x64) AppleWebKit/537.36 (KHTML, like Gecko) Chrome/79.0.3945.130 Safari/537.36",158,"[0.9, 0.5, 0.1]","[0.8, 0.4, 0.2]","[u'blue', u'black', u'red']","[u'left', u'middle', u'right']","[0.8, 0.4, 0.2]","[u'medium', u'high', u'low']","black",50,"middle","high","True","False",612,7100,NA
"A340UNNVUZMEZF","Wed Jan 29 2020 07:53:28 GMT-0600 (Central Standard Time)","Wed Jan 29 2020 08:02:25 GMT-0600 (Central Standard Time)","Mozilla/5.0 (Windows NT 6.1; Win64; x64) AppleWebKit/537.36 (KHTML, like Gecko) Chrome/79.0.3945.130 Safari/537.36",159,"[0.9, 0.5, 0.1]","[0.8, 0.4, 0.2]","[u'blue', u'black', u'red']","[u'left', u'middle', u'right']","[0.8, 0.4, 0.2]","[u'medium', u'high', u'low']","black",50,"middle","high","True","False",353,7200,NA
"A340UNNVUZMEZF","Wed Jan 29 2020 07:53:28 GMT-0600 (Central Standard Time)","Wed Jan 29 2020 08:02:25 GMT-0600 (Central Standard Time)","Mozilla/5.0 (Windows NT 6.1; Win64; x64) AppleWebKit/537.36 (KHTML, like Gecko) Chrome/79.0.3945.130 Safari/537.36",160,"[0.9, 0.5, 0.1]","[0.8, 0.4, 0.2]","[u'blue', u'black', u'red']","[u'left', u'middle', u'right']","[0.8, 0.4, 0.2]","[u'medium', u'high', u'low']","black",50,"middle","high","True","False",540,7300,NA
