"src_subject_id","start_time","end_time","browser","index","first_half_probabilities","second_half_probabilities","deck_color","deck_position","deck_probabilities","deck_contingencies","response_color","key_press","response_position","response_probability","reward_type","trial_type","rt","reward_tally","exclusion_reason"
"A21JMLYH0P47QV","Wed Sep 23 2020 09:03:10 GMT-0600 (Mountain Daylight Time)","Wed Sep 23 2020 09:12:59 GMT-0600 (Mountain Daylight Time)","Mozilla/5.0 (Windows NT 10.0; Win64; x64) AppleWebKit/537.36 (KHTML, like Gecko) Chrome/85.0.4183.102 Safari/537.36",1,"[0.9, 0.5, 0.1]","[0.8, 0.4, 0.2]","[u'blue', u'black', u'red']","[u'left', u'middle', u'right']","[0.9, 0.5, 0.1]","[u'high', u'low', u'medium']","blue",49,"left","high","True","False",1419,100,NA
"A21JMLYH0P47QV","Wed Sep 23 2020 09:03:10 GMT-0600 (Mountain Daylight Time)","Wed Sep 23 2020 09:12:59 GMT-0600 (Mountain Daylight Time)","Mozilla/5.0 (Windows NT 10.0; Win64; x64) AppleWebKit/537.36 (KHTML, like Gecko) Chrome/85.0.4183.102 Safari/537.36",2,"[0.9, 0.5, 0.1]","[0.8, 0.4, 0.2]","[u'blue', u'black', u'red']","[u'left', u'middle', u'right']","[0.9, 0.5, 0.1]","[u'high', u'low', u'medium']","blue",49,"left","high","True","False",312,200,NA
"A21JMLYH0P47QV","Wed Sep 23 2020 09:03:10 GMT-0600 (Mountain Daylight Time)","Wed Sep 23 2020 09:12:59 GMT-0600 (Mountain Daylight Time)","Mozilla/5.0 (Windows NT 10.0; Win64; x64) AppleWebKit/537.36 (KHTML, like Gecko) Chrome/85.0.4183.102 Safari/537.36",3,"[0.9, 0.5, 0.1]","[0.8, 0.4, 0.2]","[u'blue', u'black', u'red']","[u'left', u'middle', u'right']","[0.9, 0.5, 0.1]","[u'high', u'low', u'medium']","blue",49,"left","high","False","False",310,150,NA
"A21JMLYH0P47QV","Wed Sep 23 2020 09:03:10 GMT-0600 (Mountain Daylight Time)","Wed Sep 23 2020 09:12:59 GMT-0600 (Mountain Daylight Time)","Mozilla/5.0 (Windows NT 10.0; Win64; x64) AppleWebKit/537.36 (KHTML, like Gecko) Chrome/85.0.4183.102 Safari/537.36",4,"[0.9, 0.5, 0.1]","[0.8, 0.4, 0.2]","[u'blue', u'black', u'red']","[u'left', u'middle', u'right']","[0.9, 0.5, 0.1]","[u'high', u'low', u'medium']","blue",49,"left","high","True","False",305,250,NA
"A21JMLYH0P47QV","Wed Sep 23 2020 09:03:10 GMT-0600 (Mountain Daylight Time)","Wed Sep 23 2020 09:12:59 GMT-0600 (Mountain Daylight Time)","Mozilla/5.0 (Windows NT 10.0; Win64; x64) AppleWebKit/537.36 (KHTML, like Gecko) Chrome/85.0.4183.102 Safari/537.36",5,"[0.9, 0.5, 0.1]","[0.8, 0.4, 0.2]","[u'blue', u'black', u'red']","[u'left', u'middle', u'right']","[0.9, 0.5, 0.1]","[u'high', u'low', u'medium']","black",50,"middle","low","False","False",523,200,NA
"A21JMLYH0P47QV","Wed Sep 23 2020 09:03:10 GMT-0600 (Mountain Daylight Time)","Wed Sep 23 2020 09:12:59 GMT-0600 (Mountain Daylight Time)","Mozilla/5.0 (Windows NT 10.0; Win64; x64) AppleWebKit/537.36 (KHTML, like Gecko) Chrome/85.0.4183.102 Safari/537.36",6,"[0.9, 0.5, 0.1]","[0.8, 0.4, 0.2]","[u'blue', u'black', u'red']","[u'left', u'middle', u'right']","[0.9, 0.5, 0.1]","[u'high', u'low', u'medium']","blue",49,"left","high","True","False",288,300,NA
"A21JMLYH0P47QV","Wed Sep 23 2020 09:03:10 GMT-0600 (Mountain Daylight Time)","Wed Sep 23 2020 09:12:59 GMT-0600 (Mountain Daylight Time)","Mozilla/5.0 (Windows NT 10.0; Win64; x64) AppleWebKit/537.36 (KHTML, like Gecko) Chrome/85.0.4183.102 Safari/537.36",7,"[0.9, 0.5, 0.1]","[0.8, 0.4, 0.2]","[u'blue', u'black', u'red']","[u'left', u'middle', u'right']","[0.9, 0.5, 0.1]","[u'high', u'low', u'medium']","blue",49,"left","high","True","False",994,400,NA
"A21JMLYH0P47QV","Wed Sep 23 2020 09:03:10 GMT-0600 (Mountain Daylight Time)","Wed Sep 23 2020 09:12:59 GMT-0600 (Mountain Daylight Time)","Mozilla/5.0 (Windows NT 10.0; Win64; x64) AppleWebKit/537.36 (KHTML, like Gecko) Chrome/85.0.4183.102 Safari/537.36",8,"[0.9, 0.5, 0.1]","[0.8, 0.4, 0.2]","[u'blue', u'black', u'red']","[u'left', u'middle', u'right']","[0.9, 0.5, 0.1]","[u'high', u'low', u'medium']","red",51,"right","medium","False","False",274,350,NA
"A21JMLYH0P47QV","Wed Sep 23 2020 09:03:10 GMT-0600 (Mountain Daylight Time)","Wed Sep 23 2020 09:12:59 GMT-0600 (Mountain Daylight Time)","Mozilla/5.0 (Windows NT 10.0; Win64; x64) AppleWebKit/537.36 (KHTML, like Gecko) Chrome/85.0.4183.102 Safari/537.36",9,"[0.9, 0.5, 0.1]","[0.8, 0.4, 0.2]","[u'blue', u'black', u'red']","[u'left', u'middle', u'right']","[0.9, 0.5, 0.1]","[u'high', u'low', u'medium']","blue",49,"left","high","True","False",253,450,NA
"A21JMLYH0P47QV","Wed Sep 23 2020 09:03:10 GMT-0600 (Mountain Daylight Time)","Wed Sep 23 2020 09:12:59 GMT-0600 (Mountain Daylight Time)","Mozilla/5.0 (Windows NT 10.0; Win64; x64) AppleWebKit/537.36 (KHTML, like Gecko) Chrome/85.0.4183.102 Safari/537.36",10,"[0.9, 0.5, 0.1]","[0.8, 0.4, 0.2]","[u'blue', u'black', u'red']","[u'left', u'middle', u'right']","[0.9, 0.5, 0.1]","[u'high', u'low', u'medium']","blue",49,"left","high","True","False",343,550,NA
"A21JMLYH0P47QV","Wed Sep 23 2020 09:03:10 GMT-0600 (Mountain Daylight Time)","Wed Sep 23 2020 09:12:59 GMT-0600 (Mountain Daylight Time)","Mozilla/5.0 (Windows NT 10.0; Win64; x64) AppleWebKit/537.36 (KHTML, like Gecko) Chrome/85.0.4183.102 Safari/537.36",11,"[0.9, 0.5, 0.1]","[0.8, 0.4, 0.2]","[u'blue', u'black', u'red']","[u'left', u'middle', u'right']","[0.9, 0.5, 0.1]","[u'high', u'low', u'medium']","blue",49,"left","high","True","False",371,650,NA
"A21JMLYH0P47QV","Wed Sep 23 2020 09:03:10 GMT-0600 (Mountain Daylight Time)","Wed Sep 23 2020 09:12:59 GMT-0600 (Mountain Daylight Time)","Mozilla/5.0 (Windows NT 10.0; Win64; x64) AppleWebKit/537.36 (KHTML, like Gecko) Chrome/85.0.4183.102 Safari/537.36",12,"[0.9, 0.5, 0.1]","[0.8, 0.4, 0.2]","[u'blue', u'black', u'red']","[u'left', u'middle', u'right']","[0.9, 0.5, 0.1]","[u'high', u'low', u'medium']","blue",49,"left","high","True","False",411,750,NA
"A21JMLYH0P47QV","Wed Sep 23 2020 09:03:10 GMT-0600 (Mountain Daylight Time)","Wed Sep 23 2020 09:12:59 GMT-0600 (Mountain Daylight Time)","Mozilla/5.0 (Windows NT 10.0; Win64; x64) AppleWebKit/537.36 (KHTML, like Gecko) Chrome/85.0.4183.102 Safari/537.36",13,"[0.9, 0.5, 0.1]","[0.8, 0.4, 0.2]","[u'blue', u'black', u'red']","[u'left', u'middle', u'right']","[0.9, 0.5, 0.1]","[u'high', u'low', u'medium']","black",50,"middle","low","False","False",386,700,NA
"A21JMLYH0P47QV","Wed Sep 23 2020 09:03:10 GMT-0600 (Mountain Daylight Time)","Wed Sep 23 2020 09:12:59 GMT-0600 (Mountain Daylight Time)","Mozilla/5.0 (Windows NT 10.0; Win64; x64) AppleWebKit/537.36 (KHTML, like Gecko) Chrome/85.0.4183.102 Safari/537.36",14,"[0.9, 0.5, 0.1]","[0.8, 0.4, 0.2]","[u'blue', u'black', u'red']","[u'left', u'middle', u'right']","[0.9, 0.5, 0.1]","[u'high', u'low', u'medium']","blue",49,"left","high","True","False",365,800,NA
"A21JMLYH0P47QV","Wed Sep 23 2020 09:03:10 GMT-0600 (Mountain Daylight Time)","Wed Sep 23 2020 09:12:59 GMT-0600 (Mountain Daylight Time)","Mozilla/5.0 (Windows NT 10.0; Win64; x64) AppleWebKit/537.36 (KHTML, like Gecko) Chrome/85.0.4183.102 Safari/537.36",15,"[0.9, 0.5, 0.1]","[0.8, 0.4, 0.2]","[u'blue', u'black', u'red']","[u'left', u'middle', u'right']","[0.9, 0.5, 0.1]","[u'high', u'low', u'medium']","blue",49,"left","high","False","False",305,750,NA
"A21JMLYH0P47QV","Wed Sep 23 2020 09:03:10 GMT-0600 (Mountain Daylight Time)","Wed Sep 23 2020 09:12:59 GMT-0600 (Mountain Daylight Time)","Mozilla/5.0 (Windows NT 10.0; Win64; x64) AppleWebKit/537.36 (KHTML, like Gecko) Chrome/85.0.4183.102 Safari/537.36",16,"[0.9, 0.5, 0.1]","[0.8, 0.4, 0.2]","[u'blue', u'black', u'red']","[u'left', u'middle', u'right']","[0.9, 0.5, 0.1]","[u'high', u'low', u'medium']","blue",49,"left","high","True","False",240,850,NA
"A21JMLYH0P47QV","Wed Sep 23 2020 09:03:10 GMT-0600 (Mountain Daylight Time)","Wed Sep 23 2020 09:12:59 GMT-0600 (Mountain Daylight Time)","Mozilla/5.0 (Windows NT 10.0; Win64; x64) AppleWebKit/537.36 (KHTML, like Gecko) Chrome/85.0.4183.102 Safari/537.36",17,"[0.9, 0.5, 0.1]","[0.8, 0.4, 0.2]","[u'blue', u'black', u'red']","[u'left', u'middle', u'right']","[0.9, 0.5, 0.1]","[u'high', u'low', u'medium']","blue",49,"left","high","True","False",242,950,NA
"A21JMLYH0P47QV","Wed Sep 23 2020 09:03:10 GMT-0600 (Mountain Daylight Time)","Wed Sep 23 2020 09:12:59 GMT-0600 (Mountain Daylight Time)","Mozilla/5.0 (Windows NT 10.0; Win64; x64) AppleWebKit/537.36 (KHTML, like Gecko) Chrome/85.0.4183.102 Safari/537.36",18,"[0.9, 0.5, 0.1]","[0.8, 0.4, 0.2]","[u'blue', u'black', u'red']","[u'left', u'middle', u'right']","[0.9, 0.5, 0.1]","[u'high', u'low', u'medium']","blue",49,"left","high","True","True",7601,1050,NA
"A21JMLYH0P47QV","Wed Sep 23 2020 09:03:10 GMT-0600 (Mountain Daylight Time)","Wed Sep 23 2020 09:12:59 GMT-0600 (Mountain Daylight Time)","Mozilla/5.0 (Windows NT 10.0; Win64; x64) AppleWebKit/537.36 (KHTML, like Gecko) Chrome/85.0.4183.102 Safari/537.36",19,"[0.9, 0.5, 0.1]","[0.8, 0.4, 0.2]","[u'blue', u'black', u'red']","[u'left', u'middle', u'right']","[0.9, 0.5, 0.1]","[u'low', u'high', u'medium']","blue",49,"left","low","True","False",354,1150,NA
"A21JMLYH0P47QV","Wed Sep 23 2020 09:03:10 GMT-0600 (Mountain Daylight Time)","Wed Sep 23 2020 09:12:59 GMT-0600 (Mountain Daylight Time)","Mozilla/5.0 (Windows NT 10.0; Win64; x64) AppleWebKit/537.36 (KHTML, like Gecko) Chrome/85.0.4183.102 Safari/537.36",20,"[0.9, 0.5, 0.1]","[0.8, 0.4, 0.2]","[u'blue', u'black', u'red']","[u'left', u'middle', u'right']","[0.9, 0.5, 0.1]","[u'low', u'high', u'medium']","blue",49,"left","low","False","False",320,1100,NA
"A21JMLYH0P47QV","Wed Sep 23 2020 09:03:10 GMT-0600 (Mountain Daylight Time)","Wed Sep 23 2020 09:12:59 GMT-0600 (Mountain Daylight Time)","Mozilla/5.0 (Windows NT 10.0; Win64; x64) AppleWebKit/537.36 (KHTML, like Gecko) Chrome/85.0.4183.102 Safari/537.36",21,"[0.9, 0.5, 0.1]","[0.8, 0.4, 0.2]","[u'blue', u'black', u'red']","[u'left', u'middle', u'right']","[0.9, 0.5, 0.1]","[u'low', u'high', u'medium']","blue",49,"left","low","False","False",448,1050,NA
"A21JMLYH0P47QV","Wed Sep 23 2020 09:03:10 GMT-0600 (Mountain Daylight Time)","Wed Sep 23 2020 09:12:59 GMT-0600 (Mountain Daylight Time)","Mozilla/5.0 (Windows NT 10.0; Win64; x64) AppleWebKit/537.36 (KHTML, like Gecko) Chrome/85.0.4183.102 Safari/537.36",22,"[0.9, 0.5, 0.1]","[0.8, 0.4, 0.2]","[u'blue', u'black', u'red']","[u'left', u'middle', u'right']","[0.9, 0.5, 0.1]","[u'low', u'high', u'medium']","red",51,"right","medium","False","False",307,1000,NA
"A21JMLYH0P47QV","Wed Sep 23 2020 09:03:10 GMT-0600 (Mountain Daylight Time)","Wed Sep 23 2020 09:12:59 GMT-0600 (Mountain Daylight Time)","Mozilla/5.0 (Windows NT 10.0; Win64; x64) AppleWebKit/537.36 (KHTML, like Gecko) Chrome/85.0.4183.102 Safari/537.36",23,"[0.9, 0.5, 0.1]","[0.8, 0.4, 0.2]","[u'blue', u'black', u'red']","[u'left', u'middle', u'right']","[0.9, 0.5, 0.1]","[u'low', u'high', u'medium']","blue",49,"left","low","False","False",217,950,NA
"A21JMLYH0P47QV","Wed Sep 23 2020 09:03:10 GMT-0600 (Mountain Daylight Time)","Wed Sep 23 2020 09:12:59 GMT-0600 (Mountain Daylight Time)","Mozilla/5.0 (Windows NT 10.0; Win64; x64) AppleWebKit/537.36 (KHTML, like Gecko) Chrome/85.0.4183.102 Safari/537.36",24,"[0.9, 0.5, 0.1]","[0.8, 0.4, 0.2]","[u'blue', u'black', u'red']","[u'left', u'middle', u'right']","[0.9, 0.5, 0.1]","[u'low', u'high', u'medium']","black",50,"middle","high","True","False",286,1050,NA
"A21JMLYH0P47QV","Wed Sep 23 2020 09:03:10 GMT-0600 (Mountain Daylight Time)","Wed Sep 23 2020 09:12:59 GMT-0600 (Mountain Daylight Time)","Mozilla/5.0 (Windows NT 10.0; Win64; x64) AppleWebKit/537.36 (KHTML, like Gecko) Chrome/85.0.4183.102 Safari/537.36",25,"[0.9, 0.5, 0.1]","[0.8, 0.4, 0.2]","[u'blue', u'black', u'red']","[u'left', u'middle', u'right']","[0.9, 0.5, 0.1]","[u'low', u'high', u'medium']","black",50,"middle","high","True","False",259,1150,NA
"A21JMLYH0P47QV","Wed Sep 23 2020 09:03:10 GMT-0600 (Mountain Daylight Time)","Wed Sep 23 2020 09:12:59 GMT-0600 (Mountain Daylight Time)","Mozilla/5.0 (Windows NT 10.0; Win64; x64) AppleWebKit/537.36 (KHTML, like Gecko) Chrome/85.0.4183.102 Safari/537.36",26,"[0.9, 0.5, 0.1]","[0.8, 0.4, 0.2]","[u'blue', u'black', u'red']","[u'left', u'middle', u'right']","[0.9, 0.5, 0.1]","[u'low', u'high', u'medium']","black",50,"middle","high","True","False",338,1250,NA
"A21JMLYH0P47QV","Wed Sep 23 2020 09:03:10 GMT-0600 (Mountain Daylight Time)","Wed Sep 23 2020 09:12:59 GMT-0600 (Mountain Daylight Time)","Mozilla/5.0 (Windows NT 10.0; Win64; x64) AppleWebKit/537.36 (KHTML, like Gecko) Chrome/85.0.4183.102 Safari/537.36",27,"[0.9, 0.5, 0.1]","[0.8, 0.4, 0.2]","[u'blue', u'black', u'red']","[u'left', u'middle', u'right']","[0.9, 0.5, 0.1]","[u'low', u'high', u'medium']","black",50,"middle","high","True","False",345,1350,NA
"A21JMLYH0P47QV","Wed Sep 23 2020 09:03:10 GMT-0600 (Mountain Daylight Time)","Wed Sep 23 2020 09:12:59 GMT-0600 (Mountain Daylight Time)","Mozilla/5.0 (Windows NT 10.0; Win64; x64) AppleWebKit/537.36 (KHTML, like Gecko) Chrome/85.0.4183.102 Safari/537.36",28,"[0.9, 0.5, 0.1]","[0.8, 0.4, 0.2]","[u'blue', u'black', u'red']","[u'left', u'middle', u'right']","[0.9, 0.5, 0.1]","[u'low', u'high', u'medium']","black",50,"middle","high","True","False",344,1450,NA
"A21JMLYH0P47QV","Wed Sep 23 2020 09:03:10 GMT-0600 (Mountain Daylight Time)","Wed Sep 23 2020 09:12:59 GMT-0600 (Mountain Daylight Time)","Mozilla/5.0 (Windows NT 10.0; Win64; x64) AppleWebKit/537.36 (KHTML, like Gecko) Chrome/85.0.4183.102 Safari/537.36",29,"[0.9, 0.5, 0.1]","[0.8, 0.4, 0.2]","[u'blue', u'black', u'red']","[u'left', u'middle', u'right']","[0.9, 0.5, 0.1]","[u'low', u'high', u'medium']","black",50,"middle","high","True","False",342,1550,NA
"A21JMLYH0P47QV","Wed Sep 23 2020 09:03:10 GMT-0600 (Mountain Daylight Time)","Wed Sep 23 2020 09:12:59 GMT-0600 (Mountain Daylight Time)","Mozilla/5.0 (Windows NT 10.0; Win64; x64) AppleWebKit/537.36 (KHTML, like Gecko) Chrome/85.0.4183.102 Safari/537.36",30,"[0.9, 0.5, 0.1]","[0.8, 0.4, 0.2]","[u'blue', u'black', u'red']","[u'left', u'middle', u'right']","[0.9, 0.5, 0.1]","[u'low', u'high', u'medium']","black",50,"middle","high","True","False",418,1650,NA
"A21JMLYH0P47QV","Wed Sep 23 2020 09:03:10 GMT-0600 (Mountain Daylight Time)","Wed Sep 23 2020 09:12:59 GMT-0600 (Mountain Daylight Time)","Mozilla/5.0 (Windows NT 10.0; Win64; x64) AppleWebKit/537.36 (KHTML, like Gecko) Chrome/85.0.4183.102 Safari/537.36",31,"[0.9, 0.5, 0.1]","[0.8, 0.4, 0.2]","[u'blue', u'black', u'red']","[u'left', u'middle', u'right']","[0.9, 0.5, 0.1]","[u'low', u'high', u'medium']","black",50,"middle","high","True","False",442,1750,NA
"A21JMLYH0P47QV","Wed Sep 23 2020 09:03:10 GMT-0600 (Mountain Daylight Time)","Wed Sep 23 2020 09:12:59 GMT-0600 (Mountain Daylight Time)","Mozilla/5.0 (Windows NT 10.0; Win64; x64) AppleWebKit/537.36 (KHTML, like Gecko) Chrome/85.0.4183.102 Safari/537.36",32,"[0.9, 0.5, 0.1]","[0.8, 0.4, 0.2]","[u'blue', u'black', u'red']","[u'left', u'middle', u'right']","[0.9, 0.5, 0.1]","[u'low', u'high', u'medium']","black",50,"middle","high","True","True",547,1850,NA
"A21JMLYH0P47QV","Wed Sep 23 2020 09:03:10 GMT-0600 (Mountain Daylight Time)","Wed Sep 23 2020 09:12:59 GMT-0600 (Mountain Daylight Time)","Mozilla/5.0 (Windows NT 10.0; Win64; x64) AppleWebKit/537.36 (KHTML, like Gecko) Chrome/85.0.4183.102 Safari/537.36",33,"[0.9, 0.5, 0.1]","[0.8, 0.4, 0.2]","[u'blue', u'black', u'red']","[u'left', u'middle', u'right']","[0.9, 0.5, 0.1]","[u'high', u'medium', u'low']","black",50,"middle","medium","True","False",499,1950,NA
"A21JMLYH0P47QV","Wed Sep 23 2020 09:03:10 GMT-0600 (Mountain Daylight Time)","Wed Sep 23 2020 09:12:59 GMT-0600 (Mountain Daylight Time)","Mozilla/5.0 (Windows NT 10.0; Win64; x64) AppleWebKit/537.36 (KHTML, like Gecko) Chrome/85.0.4183.102 Safari/537.36",34,"[0.9, 0.5, 0.1]","[0.8, 0.4, 0.2]","[u'blue', u'black', u'red']","[u'left', u'middle', u'right']","[0.9, 0.5, 0.1]","[u'high', u'medium', u'low']","black",50,"middle","medium","True","False",261,2050,NA
"A21JMLYH0P47QV","Wed Sep 23 2020 09:03:10 GMT-0600 (Mountain Daylight Time)","Wed Sep 23 2020 09:12:59 GMT-0600 (Mountain Daylight Time)","Mozilla/5.0 (Windows NT 10.0; Win64; x64) AppleWebKit/537.36 (KHTML, like Gecko) Chrome/85.0.4183.102 Safari/537.36",35,"[0.9, 0.5, 0.1]","[0.8, 0.4, 0.2]","[u'blue', u'black', u'red']","[u'left', u'middle', u'right']","[0.9, 0.5, 0.1]","[u'high', u'medium', u'low']","black",50,"middle","medium","True","False",441,2150,NA
"A21JMLYH0P47QV","Wed Sep 23 2020 09:03:10 GMT-0600 (Mountain Daylight Time)","Wed Sep 23 2020 09:12:59 GMT-0600 (Mountain Daylight Time)","Mozilla/5.0 (Windows NT 10.0; Win64; x64) AppleWebKit/537.36 (KHTML, like Gecko) Chrome/85.0.4183.102 Safari/537.36",36,"[0.9, 0.5, 0.1]","[0.8, 0.4, 0.2]","[u'blue', u'black', u'red']","[u'left', u'middle', u'right']","[0.9, 0.5, 0.1]","[u'high', u'medium', u'low']","black",50,"middle","medium","False","False",278,2100,NA
"A21JMLYH0P47QV","Wed Sep 23 2020 09:03:10 GMT-0600 (Mountain Daylight Time)","Wed Sep 23 2020 09:12:59 GMT-0600 (Mountain Daylight Time)","Mozilla/5.0 (Windows NT 10.0; Win64; x64) AppleWebKit/537.36 (KHTML, like Gecko) Chrome/85.0.4183.102 Safari/537.36",37,"[0.9, 0.5, 0.1]","[0.8, 0.4, 0.2]","[u'blue', u'black', u'red']","[u'left', u'middle', u'right']","[0.9, 0.5, 0.1]","[u'high', u'medium', u'low']","blue",49,"left","high","True","False",468,2200,NA
"A21JMLYH0P47QV","Wed Sep 23 2020 09:03:10 GMT-0600 (Mountain Daylight Time)","Wed Sep 23 2020 09:12:59 GMT-0600 (Mountain Daylight Time)","Mozilla/5.0 (Windows NT 10.0; Win64; x64) AppleWebKit/537.36 (KHTML, like Gecko) Chrome/85.0.4183.102 Safari/537.36",38,"[0.9, 0.5, 0.1]","[0.8, 0.4, 0.2]","[u'blue', u'black', u'red']","[u'left', u'middle', u'right']","[0.9, 0.5, 0.1]","[u'high', u'medium', u'low']","blue",49,"left","high","True","False",369,2300,NA
"A21JMLYH0P47QV","Wed Sep 23 2020 09:03:10 GMT-0600 (Mountain Daylight Time)","Wed Sep 23 2020 09:12:59 GMT-0600 (Mountain Daylight Time)","Mozilla/5.0 (Windows NT 10.0; Win64; x64) AppleWebKit/537.36 (KHTML, like Gecko) Chrome/85.0.4183.102 Safari/537.36",39,"[0.9, 0.5, 0.1]","[0.8, 0.4, 0.2]","[u'blue', u'black', u'red']","[u'left', u'middle', u'right']","[0.9, 0.5, 0.1]","[u'high', u'medium', u'low']","blue",49,"left","high","False","False",2517,2250,NA
"A21JMLYH0P47QV","Wed Sep 23 2020 09:03:10 GMT-0600 (Mountain Daylight Time)","Wed Sep 23 2020 09:12:59 GMT-0600 (Mountain Daylight Time)","Mozilla/5.0 (Windows NT 10.0; Win64; x64) AppleWebKit/537.36 (KHTML, like Gecko) Chrome/85.0.4183.102 Safari/537.36",40,"[0.9, 0.5, 0.1]","[0.8, 0.4, 0.2]","[u'blue', u'black', u'red']","[u'left', u'middle', u'right']","[0.9, 0.5, 0.1]","[u'high', u'medium', u'low']","red",51,"right","low","False","False",268,2200,NA
"A21JMLYH0P47QV","Wed Sep 23 2020 09:03:10 GMT-0600 (Mountain Daylight Time)","Wed Sep 23 2020 09:12:59 GMT-0600 (Mountain Daylight Time)","Mozilla/5.0 (Windows NT 10.0; Win64; x64) AppleWebKit/537.36 (KHTML, like Gecko) Chrome/85.0.4183.102 Safari/537.36",41,"[0.9, 0.5, 0.1]","[0.8, 0.4, 0.2]","[u'blue', u'black', u'red']","[u'left', u'middle', u'right']","[0.9, 0.5, 0.1]","[u'medium', u'high', u'low']","blue",49,"left","medium","False","False",718,2150,NA
"A21JMLYH0P47QV","Wed Sep 23 2020 09:03:10 GMT-0600 (Mountain Daylight Time)","Wed Sep 23 2020 09:12:59 GMT-0600 (Mountain Daylight Time)","Mozilla/5.0 (Windows NT 10.0; Win64; x64) AppleWebKit/537.36 (KHTML, like Gecko) Chrome/85.0.4183.102 Safari/537.36",42,"[0.9, 0.5, 0.1]","[0.8, 0.4, 0.2]","[u'blue', u'black', u'red']","[u'left', u'middle', u'right']","[0.9, 0.5, 0.1]","[u'medium', u'high', u'low']","black",50,"middle","high","True","False",269,2250,NA
"A21JMLYH0P47QV","Wed Sep 23 2020 09:03:10 GMT-0600 (Mountain Daylight Time)","Wed Sep 23 2020 09:12:59 GMT-0600 (Mountain Daylight Time)","Mozilla/5.0 (Windows NT 10.0; Win64; x64) AppleWebKit/537.36 (KHTML, like Gecko) Chrome/85.0.4183.102 Safari/537.36",43,"[0.9, 0.5, 0.1]","[0.8, 0.4, 0.2]","[u'blue', u'black', u'red']","[u'left', u'middle', u'right']","[0.9, 0.5, 0.1]","[u'medium', u'high', u'low']","black",50,"middle","high","True","False",365,2350,NA
"A21JMLYH0P47QV","Wed Sep 23 2020 09:03:10 GMT-0600 (Mountain Daylight Time)","Wed Sep 23 2020 09:12:59 GMT-0600 (Mountain Daylight Time)","Mozilla/5.0 (Windows NT 10.0; Win64; x64) AppleWebKit/537.36 (KHTML, like Gecko) Chrome/85.0.4183.102 Safari/537.36",44,"[0.9, 0.5, 0.1]","[0.8, 0.4, 0.2]","[u'blue', u'black', u'red']","[u'left', u'middle', u'right']","[0.9, 0.5, 0.1]","[u'medium', u'high', u'low']","black",50,"middle","high","True","False",212,2450,NA
"A21JMLYH0P47QV","Wed Sep 23 2020 09:03:10 GMT-0600 (Mountain Daylight Time)","Wed Sep 23 2020 09:12:59 GMT-0600 (Mountain Daylight Time)","Mozilla/5.0 (Windows NT 10.0; Win64; x64) AppleWebKit/537.36 (KHTML, like Gecko) Chrome/85.0.4183.102 Safari/537.36",45,"[0.9, 0.5, 0.1]","[0.8, 0.4, 0.2]","[u'blue', u'black', u'red']","[u'left', u'middle', u'right']","[0.9, 0.5, 0.1]","[u'medium', u'high', u'low']","black",50,"middle","high","False","False",266,2400,NA
"A21JMLYH0P47QV","Wed Sep 23 2020 09:03:10 GMT-0600 (Mountain Daylight Time)","Wed Sep 23 2020 09:12:59 GMT-0600 (Mountain Daylight Time)","Mozilla/5.0 (Windows NT 10.0; Win64; x64) AppleWebKit/537.36 (KHTML, like Gecko) Chrome/85.0.4183.102 Safari/537.36",46,"[0.9, 0.5, 0.1]","[0.8, 0.4, 0.2]","[u'blue', u'black', u'red']","[u'left', u'middle', u'right']","[0.9, 0.5, 0.1]","[u'medium', u'high', u'low']","black",50,"middle","high","False","False",269,2350,NA
"A21JMLYH0P47QV","Wed Sep 23 2020 09:03:10 GMT-0600 (Mountain Daylight Time)","Wed Sep 23 2020 09:12:59 GMT-0600 (Mountain Daylight Time)","Mozilla/5.0 (Windows NT 10.0; Win64; x64) AppleWebKit/537.36 (KHTML, like Gecko) Chrome/85.0.4183.102 Safari/537.36",47,"[0.9, 0.5, 0.1]","[0.8, 0.4, 0.2]","[u'blue', u'black', u'red']","[u'left', u'middle', u'right']","[0.9, 0.5, 0.1]","[u'medium', u'high', u'low']","red",51,"right","low","False","False",299,2300,NA
"A21JMLYH0P47QV","Wed Sep 23 2020 09:03:10 GMT-0600 (Mountain Daylight Time)","Wed Sep 23 2020 09:12:59 GMT-0600 (Mountain Daylight Time)","Mozilla/5.0 (Windows NT 10.0; Win64; x64) AppleWebKit/537.36 (KHTML, like Gecko) Chrome/85.0.4183.102 Safari/537.36",48,"[0.9, 0.5, 0.1]","[0.8, 0.4, 0.2]","[u'blue', u'black', u'red']","[u'left', u'middle', u'right']","[0.9, 0.5, 0.1]","[u'medium', u'high', u'low']","blue",49,"left","medium","True","False",227,2400,NA
"A21JMLYH0P47QV","Wed Sep 23 2020 09:03:10 GMT-0600 (Mountain Daylight Time)","Wed Sep 23 2020 09:12:59 GMT-0600 (Mountain Daylight Time)","Mozilla/5.0 (Windows NT 10.0; Win64; x64) AppleWebKit/537.36 (KHTML, like Gecko) Chrome/85.0.4183.102 Safari/537.36",49,"[0.9, 0.5, 0.1]","[0.8, 0.4, 0.2]","[u'blue', u'black', u'red']","[u'left', u'middle', u'right']","[0.9, 0.5, 0.1]","[u'medium', u'high', u'low']","blue",49,"left","medium","True","False",270,2500,NA
"A21JMLYH0P47QV","Wed Sep 23 2020 09:03:10 GMT-0600 (Mountain Daylight Time)","Wed Sep 23 2020 09:12:59 GMT-0600 (Mountain Daylight Time)","Mozilla/5.0 (Windows NT 10.0; Win64; x64) AppleWebKit/537.36 (KHTML, like Gecko) Chrome/85.0.4183.102 Safari/537.36",50,"[0.9, 0.5, 0.1]","[0.8, 0.4, 0.2]","[u'blue', u'black', u'red']","[u'left', u'middle', u'right']","[0.9, 0.5, 0.1]","[u'medium', u'high', u'low']","blue",49,"left","medium","False","False",293,2450,NA
"A21JMLYH0P47QV","Wed Sep 23 2020 09:03:10 GMT-0600 (Mountain Daylight Time)","Wed Sep 23 2020 09:12:59 GMT-0600 (Mountain Daylight Time)","Mozilla/5.0 (Windows NT 10.0; Win64; x64) AppleWebKit/537.36 (KHTML, like Gecko) Chrome/85.0.4183.102 Safari/537.36",51,"[0.9, 0.5, 0.1]","[0.8, 0.4, 0.2]","[u'blue', u'black', u'red']","[u'left', u'middle', u'right']","[0.9, 0.5, 0.1]","[u'medium', u'high', u'low']","blue",49,"left","medium","True","False",353,2550,NA
"A21JMLYH0P47QV","Wed Sep 23 2020 09:03:10 GMT-0600 (Mountain Daylight Time)","Wed Sep 23 2020 09:12:59 GMT-0600 (Mountain Daylight Time)","Mozilla/5.0 (Windows NT 10.0; Win64; x64) AppleWebKit/537.36 (KHTML, like Gecko) Chrome/85.0.4183.102 Safari/537.36",52,"[0.9, 0.5, 0.1]","[0.8, 0.4, 0.2]","[u'blue', u'black', u'red']","[u'left', u'middle', u'right']","[0.9, 0.5, 0.1]","[u'medium', u'high', u'low']","blue",49,"left","medium","False","False",460,2500,NA
"A21JMLYH0P47QV","Wed Sep 23 2020 09:03:10 GMT-0600 (Mountain Daylight Time)","Wed Sep 23 2020 09:12:59 GMT-0600 (Mountain Daylight Time)","Mozilla/5.0 (Windows NT 10.0; Win64; x64) AppleWebKit/537.36 (KHTML, like Gecko) Chrome/85.0.4183.102 Safari/537.36",53,"[0.9, 0.5, 0.1]","[0.8, 0.4, 0.2]","[u'blue', u'black', u'red']","[u'left', u'middle', u'right']","[0.9, 0.5, 0.1]","[u'medium', u'high', u'low']","blue",49,"left","medium","True","False",443,2600,NA
"A21JMLYH0P47QV","Wed Sep 23 2020 09:03:10 GMT-0600 (Mountain Daylight Time)","Wed Sep 23 2020 09:12:59 GMT-0600 (Mountain Daylight Time)","Mozilla/5.0 (Windows NT 10.0; Win64; x64) AppleWebKit/537.36 (KHTML, like Gecko) Chrome/85.0.4183.102 Safari/537.36",54,"[0.9, 0.5, 0.1]","[0.8, 0.4, 0.2]","[u'blue', u'black', u'red']","[u'left', u'middle', u'right']","[0.9, 0.5, 0.1]","[u'medium', u'high', u'low']","blue",49,"left","medium","False","False",932,2550,NA
"A21JMLYH0P47QV","Wed Sep 23 2020 09:03:10 GMT-0600 (Mountain Daylight Time)","Wed Sep 23 2020 09:12:59 GMT-0600 (Mountain Daylight Time)","Mozilla/5.0 (Windows NT 10.0; Win64; x64) AppleWebKit/537.36 (KHTML, like Gecko) Chrome/85.0.4183.102 Safari/537.36",55,"[0.9, 0.5, 0.1]","[0.8, 0.4, 0.2]","[u'blue', u'black', u'red']","[u'left', u'middle', u'right']","[0.9, 0.5, 0.1]","[u'medium', u'high', u'low']","blue",49,"left","medium","True","False",263,2650,NA
"A21JMLYH0P47QV","Wed Sep 23 2020 09:03:10 GMT-0600 (Mountain Daylight Time)","Wed Sep 23 2020 09:12:59 GMT-0600 (Mountain Daylight Time)","Mozilla/5.0 (Windows NT 10.0; Win64; x64) AppleWebKit/537.36 (KHTML, like Gecko) Chrome/85.0.4183.102 Safari/537.36",56,"[0.9, 0.5, 0.1]","[0.8, 0.4, 0.2]","[u'blue', u'black', u'red']","[u'left', u'middle', u'right']","[0.9, 0.5, 0.1]","[u'medium', u'high', u'low']","blue",49,"left","medium","False","False",909,2600,NA
"A21JMLYH0P47QV","Wed Sep 23 2020 09:03:10 GMT-0600 (Mountain Daylight Time)","Wed Sep 23 2020 09:12:59 GMT-0600 (Mountain Daylight Time)","Mozilla/5.0 (Windows NT 10.0; Win64; x64) AppleWebKit/537.36 (KHTML, like Gecko) Chrome/85.0.4183.102 Safari/537.36",57,"[0.9, 0.5, 0.1]","[0.8, 0.4, 0.2]","[u'blue', u'black', u'red']","[u'left', u'middle', u'right']","[0.9, 0.5, 0.1]","[u'medium', u'high', u'low']","blue",49,"left","medium","False","False",524,2550,NA
"A21JMLYH0P47QV","Wed Sep 23 2020 09:03:10 GMT-0600 (Mountain Daylight Time)","Wed Sep 23 2020 09:12:59 GMT-0600 (Mountain Daylight Time)","Mozilla/5.0 (Windows NT 10.0; Win64; x64) AppleWebKit/537.36 (KHTML, like Gecko) Chrome/85.0.4183.102 Safari/537.36",58,"[0.9, 0.5, 0.1]","[0.8, 0.4, 0.2]","[u'blue', u'black', u'red']","[u'left', u'middle', u'right']","[0.9, 0.5, 0.1]","[u'medium', u'high', u'low']","blue",49,"left","medium","True","False",1087,2650,NA
"A21JMLYH0P47QV","Wed Sep 23 2020 09:03:10 GMT-0600 (Mountain Daylight Time)","Wed Sep 23 2020 09:12:59 GMT-0600 (Mountain Daylight Time)","Mozilla/5.0 (Windows NT 10.0; Win64; x64) AppleWebKit/537.36 (KHTML, like Gecko) Chrome/85.0.4183.102 Safari/537.36",59,"[0.9, 0.5, 0.1]","[0.8, 0.4, 0.2]","[u'blue', u'black', u'red']","[u'left', u'middle', u'right']","[0.9, 0.5, 0.1]","[u'medium', u'high', u'low']","blue",49,"left","medium","True","False",554,2750,NA
"A21JMLYH0P47QV","Wed Sep 23 2020 09:03:10 GMT-0600 (Mountain Daylight Time)","Wed Sep 23 2020 09:12:59 GMT-0600 (Mountain Daylight Time)","Mozilla/5.0 (Windows NT 10.0; Win64; x64) AppleWebKit/537.36 (KHTML, like Gecko) Chrome/85.0.4183.102 Safari/537.36",60,"[0.9, 0.5, 0.1]","[0.8, 0.4, 0.2]","[u'blue', u'black', u'red']","[u'left', u'middle', u'right']","[0.9, 0.5, 0.1]","[u'medium', u'high', u'low']","blue",49,"left","medium","False","False",3802,2700,NA
"A21JMLYH0P47QV","Wed Sep 23 2020 09:03:10 GMT-0600 (Mountain Daylight Time)","Wed Sep 23 2020 09:12:59 GMT-0600 (Mountain Daylight Time)","Mozilla/5.0 (Windows NT 10.0; Win64; x64) AppleWebKit/537.36 (KHTML, like Gecko) Chrome/85.0.4183.102 Safari/537.36",61,"[0.9, 0.5, 0.1]","[0.8, 0.4, 0.2]","[u'blue', u'black', u'red']","[u'left', u'middle', u'right']","[0.9, 0.5, 0.1]","[u'medium', u'high', u'low']","blue",49,"left","medium","True","False",2514,2800,NA
"A21JMLYH0P47QV","Wed Sep 23 2020 09:03:10 GMT-0600 (Mountain Daylight Time)","Wed Sep 23 2020 09:12:59 GMT-0600 (Mountain Daylight Time)","Mozilla/5.0 (Windows NT 10.0; Win64; x64) AppleWebKit/537.36 (KHTML, like Gecko) Chrome/85.0.4183.102 Safari/537.36",62,"[0.9, 0.5, 0.1]","[0.8, 0.4, 0.2]","[u'blue', u'black', u'red']","[u'left', u'middle', u'right']","[0.9, 0.5, 0.1]","[u'medium', u'high', u'low']","blue",49,"left","medium","True","False",7467,2900,NA
"A21JMLYH0P47QV","Wed Sep 23 2020 09:03:10 GMT-0600 (Mountain Daylight Time)","Wed Sep 23 2020 09:12:59 GMT-0600 (Mountain Daylight Time)","Mozilla/5.0 (Windows NT 10.0; Win64; x64) AppleWebKit/537.36 (KHTML, like Gecko) Chrome/85.0.4183.102 Safari/537.36",63,"[0.9, 0.5, 0.1]","[0.8, 0.4, 0.2]","[u'blue', u'black', u'red']","[u'left', u'middle', u'right']","[0.9, 0.5, 0.1]","[u'medium', u'high', u'low']","blue",49,"left","medium","True","False",741,3000,NA
"A21JMLYH0P47QV","Wed Sep 23 2020 09:03:10 GMT-0600 (Mountain Daylight Time)","Wed Sep 23 2020 09:12:59 GMT-0600 (Mountain Daylight Time)","Mozilla/5.0 (Windows NT 10.0; Win64; x64) AppleWebKit/537.36 (KHTML, like Gecko) Chrome/85.0.4183.102 Safari/537.36",64,"[0.9, 0.5, 0.1]","[0.8, 0.4, 0.2]","[u'blue', u'black', u'red']","[u'left', u'middle', u'right']","[0.9, 0.5, 0.1]","[u'medium', u'high', u'low']","blue",49,"left","medium","True","False",4870,3100,NA
"A21JMLYH0P47QV","Wed Sep 23 2020 09:03:10 GMT-0600 (Mountain Daylight Time)","Wed Sep 23 2020 09:12:59 GMT-0600 (Mountain Daylight Time)","Mozilla/5.0 (Windows NT 10.0; Win64; x64) AppleWebKit/537.36 (KHTML, like Gecko) Chrome/85.0.4183.102 Safari/537.36",65,"[0.9, 0.5, 0.1]","[0.8, 0.4, 0.2]","[u'blue', u'black', u'red']","[u'left', u'middle', u'right']","[0.9, 0.5, 0.1]","[u'medium', u'high', u'low']","blue",49,"left","medium","True","False",639,3200,NA
"A21JMLYH0P47QV","Wed Sep 23 2020 09:03:10 GMT-0600 (Mountain Daylight Time)","Wed Sep 23 2020 09:12:59 GMT-0600 (Mountain Daylight Time)","Mozilla/5.0 (Windows NT 10.0; Win64; x64) AppleWebKit/537.36 (KHTML, like Gecko) Chrome/85.0.4183.102 Safari/537.36",66,"[0.9, 0.5, 0.1]","[0.8, 0.4, 0.2]","[u'blue', u'black', u'red']","[u'left', u'middle', u'right']","[0.9, 0.5, 0.1]","[u'medium', u'high', u'low']","blue",49,"left","medium","True","False",691,3300,NA
"A21JMLYH0P47QV","Wed Sep 23 2020 09:03:10 GMT-0600 (Mountain Daylight Time)","Wed Sep 23 2020 09:12:59 GMT-0600 (Mountain Daylight Time)","Mozilla/5.0 (Windows NT 10.0; Win64; x64) AppleWebKit/537.36 (KHTML, like Gecko) Chrome/85.0.4183.102 Safari/537.36",67,"[0.9, 0.5, 0.1]","[0.8, 0.4, 0.2]","[u'blue', u'black', u'red']","[u'left', u'middle', u'right']","[0.9, 0.5, 0.1]","[u'medium', u'high', u'low']","blue",49,"left","medium","False","False",769,3250,NA
"A21JMLYH0P47QV","Wed Sep 23 2020 09:03:10 GMT-0600 (Mountain Daylight Time)","Wed Sep 23 2020 09:12:59 GMT-0600 (Mountain Daylight Time)","Mozilla/5.0 (Windows NT 10.0; Win64; x64) AppleWebKit/537.36 (KHTML, like Gecko) Chrome/85.0.4183.102 Safari/537.36",68,"[0.9, 0.5, 0.1]","[0.8, 0.4, 0.2]","[u'blue', u'black', u'red']","[u'left', u'middle', u'right']","[0.9, 0.5, 0.1]","[u'medium', u'high', u'low']","black",50,"middle","high","True","False",568,3350,NA
"A21JMLYH0P47QV","Wed Sep 23 2020 09:03:10 GMT-0600 (Mountain Daylight Time)","Wed Sep 23 2020 09:12:59 GMT-0600 (Mountain Daylight Time)","Mozilla/5.0 (Windows NT 10.0; Win64; x64) AppleWebKit/537.36 (KHTML, like Gecko) Chrome/85.0.4183.102 Safari/537.36",69,"[0.9, 0.5, 0.1]","[0.8, 0.4, 0.2]","[u'blue', u'black', u'red']","[u'left', u'middle', u'right']","[0.9, 0.5, 0.1]","[u'medium', u'high', u'low']","blue",49,"left","medium","False","False",514,3300,NA
"A21JMLYH0P47QV","Wed Sep 23 2020 09:03:10 GMT-0600 (Mountain Daylight Time)","Wed Sep 23 2020 09:12:59 GMT-0600 (Mountain Daylight Time)","Mozilla/5.0 (Windows NT 10.0; Win64; x64) AppleWebKit/537.36 (KHTML, like Gecko) Chrome/85.0.4183.102 Safari/537.36",70,"[0.9, 0.5, 0.1]","[0.8, 0.4, 0.2]","[u'blue', u'black', u'red']","[u'left', u'middle', u'right']","[0.9, 0.5, 0.1]","[u'medium', u'high', u'low']","blue",49,"left","medium","False","False",275,3250,NA
"A21JMLYH0P47QV","Wed Sep 23 2020 09:03:10 GMT-0600 (Mountain Daylight Time)","Wed Sep 23 2020 09:12:59 GMT-0600 (Mountain Daylight Time)","Mozilla/5.0 (Windows NT 10.0; Win64; x64) AppleWebKit/537.36 (KHTML, like Gecko) Chrome/85.0.4183.102 Safari/537.36",71,"[0.9, 0.5, 0.1]","[0.8, 0.4, 0.2]","[u'blue', u'black', u'red']","[u'left', u'middle', u'right']","[0.9, 0.5, 0.1]","[u'medium', u'high', u'low']","black",50,"middle","high","True","False",134,3350,NA
"A21JMLYH0P47QV","Wed Sep 23 2020 09:03:10 GMT-0600 (Mountain Daylight Time)","Wed Sep 23 2020 09:12:59 GMT-0600 (Mountain Daylight Time)","Mozilla/5.0 (Windows NT 10.0; Win64; x64) AppleWebKit/537.36 (KHTML, like Gecko) Chrome/85.0.4183.102 Safari/537.36",72,"[0.9, 0.5, 0.1]","[0.8, 0.4, 0.2]","[u'blue', u'black', u'red']","[u'left', u'middle', u'right']","[0.9, 0.5, 0.1]","[u'medium', u'high', u'low']","black",50,"middle","high","True","False",267,3450,NA
"A21JMLYH0P47QV","Wed Sep 23 2020 09:03:10 GMT-0600 (Mountain Daylight Time)","Wed Sep 23 2020 09:12:59 GMT-0600 (Mountain Daylight Time)","Mozilla/5.0 (Windows NT 10.0; Win64; x64) AppleWebKit/537.36 (KHTML, like Gecko) Chrome/85.0.4183.102 Safari/537.36",73,"[0.9, 0.5, 0.1]","[0.8, 0.4, 0.2]","[u'blue', u'black', u'red']","[u'left', u'middle', u'right']","[0.9, 0.5, 0.1]","[u'medium', u'high', u'low']","black",50,"middle","high","True","False",278,3550,NA
"A21JMLYH0P47QV","Wed Sep 23 2020 09:03:10 GMT-0600 (Mountain Daylight Time)","Wed Sep 23 2020 09:12:59 GMT-0600 (Mountain Daylight Time)","Mozilla/5.0 (Windows NT 10.0; Win64; x64) AppleWebKit/537.36 (KHTML, like Gecko) Chrome/85.0.4183.102 Safari/537.36",74,"[0.9, 0.5, 0.1]","[0.8, 0.4, 0.2]","[u'blue', u'black', u'red']","[u'left', u'middle', u'right']","[0.9, 0.5, 0.1]","[u'medium', u'high', u'low']","black",50,"middle","high","False","False",260,3500,NA
"A21JMLYH0P47QV","Wed Sep 23 2020 09:03:10 GMT-0600 (Mountain Daylight Time)","Wed Sep 23 2020 09:12:59 GMT-0600 (Mountain Daylight Time)","Mozilla/5.0 (Windows NT 10.0; Win64; x64) AppleWebKit/537.36 (KHTML, like Gecko) Chrome/85.0.4183.102 Safari/537.36",75,"[0.9, 0.5, 0.1]","[0.8, 0.4, 0.2]","[u'blue', u'black', u'red']","[u'left', u'middle', u'right']","[0.9, 0.5, 0.1]","[u'medium', u'high', u'low']","black",50,"middle","high","True","False",52,3600,NA
"A21JMLYH0P47QV","Wed Sep 23 2020 09:03:10 GMT-0600 (Mountain Daylight Time)","Wed Sep 23 2020 09:12:59 GMT-0600 (Mountain Daylight Time)","Mozilla/5.0 (Windows NT 10.0; Win64; x64) AppleWebKit/537.36 (KHTML, like Gecko) Chrome/85.0.4183.102 Safari/537.36",76,"[0.9, 0.5, 0.1]","[0.8, 0.4, 0.2]","[u'blue', u'black', u'red']","[u'left', u'middle', u'right']","[0.9, 0.5, 0.1]","[u'medium', u'high', u'low']","black",50,"middle","high","True","False",271,3700,NA
"A21JMLYH0P47QV","Wed Sep 23 2020 09:03:10 GMT-0600 (Mountain Daylight Time)","Wed Sep 23 2020 09:12:59 GMT-0600 (Mountain Daylight Time)","Mozilla/5.0 (Windows NT 10.0; Win64; x64) AppleWebKit/537.36 (KHTML, like Gecko) Chrome/85.0.4183.102 Safari/537.36",77,"[0.9, 0.5, 0.1]","[0.8, 0.4, 0.2]","[u'blue', u'black', u'red']","[u'left', u'middle', u'right']","[0.9, 0.5, 0.1]","[u'medium', u'high', u'low']","black",50,"middle","high","True","False",353,3800,NA
"A21JMLYH0P47QV","Wed Sep 23 2020 09:03:10 GMT-0600 (Mountain Daylight Time)","Wed Sep 23 2020 09:12:59 GMT-0600 (Mountain Daylight Time)","Mozilla/5.0 (Windows NT 10.0; Win64; x64) AppleWebKit/537.36 (KHTML, like Gecko) Chrome/85.0.4183.102 Safari/537.36",78,"[0.9, 0.5, 0.1]","[0.8, 0.4, 0.2]","[u'blue', u'black', u'red']","[u'left', u'middle', u'right']","[0.9, 0.5, 0.1]","[u'medium', u'high', u'low']","black",50,"middle","high","True","False",359,3900,NA
"A21JMLYH0P47QV","Wed Sep 23 2020 09:03:10 GMT-0600 (Mountain Daylight Time)","Wed Sep 23 2020 09:12:59 GMT-0600 (Mountain Daylight Time)","Mozilla/5.0 (Windows NT 10.0; Win64; x64) AppleWebKit/537.36 (KHTML, like Gecko) Chrome/85.0.4183.102 Safari/537.36",79,"[0.9, 0.5, 0.1]","[0.8, 0.4, 0.2]","[u'blue', u'black', u'red']","[u'left', u'middle', u'right']","[0.9, 0.5, 0.1]","[u'medium', u'high', u'low']","black",50,"middle","high","True","True",245,4000,NA
"A21JMLYH0P47QV","Wed Sep 23 2020 09:03:10 GMT-0600 (Mountain Daylight Time)","Wed Sep 23 2020 09:12:59 GMT-0600 (Mountain Daylight Time)","Mozilla/5.0 (Windows NT 10.0; Win64; x64) AppleWebKit/537.36 (KHTML, like Gecko) Chrome/85.0.4183.102 Safari/537.36",80,"[0.9, 0.5, 0.1]","[0.8, 0.4, 0.2]","[u'blue', u'black', u'red']","[u'left', u'middle', u'right']","[0.9, 0.5, 0.1]","[u'low', u'medium', u'high']","black",50,"middle","medium","False","False",512,3950,NA
"A21JMLYH0P47QV","Wed Sep 23 2020 09:03:10 GMT-0600 (Mountain Daylight Time)","Wed Sep 23 2020 09:12:59 GMT-0600 (Mountain Daylight Time)","Mozilla/5.0 (Windows NT 10.0; Win64; x64) AppleWebKit/537.36 (KHTML, like Gecko) Chrome/85.0.4183.102 Safari/537.36",81,"[0.9, 0.5, 0.1]","[0.8, 0.4, 0.2]","[u'blue', u'black', u'red']","[u'left', u'middle', u'right']","[0.8, 0.4, 0.2]","[u'high', u'low', u'medium']","blue",49,"left","high","True","False",1669,4050,NA
"A21JMLYH0P47QV","Wed Sep 23 2020 09:03:10 GMT-0600 (Mountain Daylight Time)","Wed Sep 23 2020 09:12:59 GMT-0600 (Mountain Daylight Time)","Mozilla/5.0 (Windows NT 10.0; Win64; x64) AppleWebKit/537.36 (KHTML, like Gecko) Chrome/85.0.4183.102 Safari/537.36",82,"[0.9, 0.5, 0.1]","[0.8, 0.4, 0.2]","[u'blue', u'black', u'red']","[u'left', u'middle', u'right']","[0.8, 0.4, 0.2]","[u'high', u'low', u'medium']","blue",49,"left","high","True","False",328,4150,NA
"A21JMLYH0P47QV","Wed Sep 23 2020 09:03:10 GMT-0600 (Mountain Daylight Time)","Wed Sep 23 2020 09:12:59 GMT-0600 (Mountain Daylight Time)","Mozilla/5.0 (Windows NT 10.0; Win64; x64) AppleWebKit/537.36 (KHTML, like Gecko) Chrome/85.0.4183.102 Safari/537.36",83,"[0.9, 0.5, 0.1]","[0.8, 0.4, 0.2]","[u'blue', u'black', u'red']","[u'left', u'middle', u'right']","[0.8, 0.4, 0.2]","[u'high', u'low', u'medium']","blue",49,"left","high","False","False",341,4100,NA
"A21JMLYH0P47QV","Wed Sep 23 2020 09:03:10 GMT-0600 (Mountain Daylight Time)","Wed Sep 23 2020 09:12:59 GMT-0600 (Mountain Daylight Time)","Mozilla/5.0 (Windows NT 10.0; Win64; x64) AppleWebKit/537.36 (KHTML, like Gecko) Chrome/85.0.4183.102 Safari/537.36",84,"[0.9, 0.5, 0.1]","[0.8, 0.4, 0.2]","[u'blue', u'black', u'red']","[u'left', u'middle', u'right']","[0.8, 0.4, 0.2]","[u'high', u'low', u'medium']","blue",49,"left","high","True","False",268,4200,NA
"A21JMLYH0P47QV","Wed Sep 23 2020 09:03:10 GMT-0600 (Mountain Daylight Time)","Wed Sep 23 2020 09:12:59 GMT-0600 (Mountain Daylight Time)","Mozilla/5.0 (Windows NT 10.0; Win64; x64) AppleWebKit/537.36 (KHTML, like Gecko) Chrome/85.0.4183.102 Safari/537.36",85,"[0.9, 0.5, 0.1]","[0.8, 0.4, 0.2]","[u'blue', u'black', u'red']","[u'left', u'middle', u'right']","[0.8, 0.4, 0.2]","[u'high', u'low', u'medium']","blue",49,"left","high","True","False",420,4300,NA
"A21JMLYH0P47QV","Wed Sep 23 2020 09:03:10 GMT-0600 (Mountain Daylight Time)","Wed Sep 23 2020 09:12:59 GMT-0600 (Mountain Daylight Time)","Mozilla/5.0 (Windows NT 10.0; Win64; x64) AppleWebKit/537.36 (KHTML, like Gecko) Chrome/85.0.4183.102 Safari/537.36",86,"[0.9, 0.5, 0.1]","[0.8, 0.4, 0.2]","[u'blue', u'black', u'red']","[u'left', u'middle', u'right']","[0.8, 0.4, 0.2]","[u'high', u'low', u'medium']","blue",49,"left","high","True","False",240,4400,NA
"A21JMLYH0P47QV","Wed Sep 23 2020 09:03:10 GMT-0600 (Mountain Daylight Time)","Wed Sep 23 2020 09:12:59 GMT-0600 (Mountain Daylight Time)","Mozilla/5.0 (Windows NT 10.0; Win64; x64) AppleWebKit/537.36 (KHTML, like Gecko) Chrome/85.0.4183.102 Safari/537.36",87,"[0.9, 0.5, 0.1]","[0.8, 0.4, 0.2]","[u'blue', u'black', u'red']","[u'left', u'middle', u'right']","[0.8, 0.4, 0.2]","[u'high', u'low', u'medium']","blue",49,"left","high","True","False",443,4500,NA
"A21JMLYH0P47QV","Wed Sep 23 2020 09:03:10 GMT-0600 (Mountain Daylight Time)","Wed Sep 23 2020 09:12:59 GMT-0600 (Mountain Daylight Time)","Mozilla/5.0 (Windows NT 10.0; Win64; x64) AppleWebKit/537.36 (KHTML, like Gecko) Chrome/85.0.4183.102 Safari/537.36",88,"[0.9, 0.5, 0.1]","[0.8, 0.4, 0.2]","[u'blue', u'black', u'red']","[u'left', u'middle', u'right']","[0.8, 0.4, 0.2]","[u'high', u'low', u'medium']","blue",49,"left","high","True","False",362,4600,NA
"A21JMLYH0P47QV","Wed Sep 23 2020 09:03:10 GMT-0600 (Mountain Daylight Time)","Wed Sep 23 2020 09:12:59 GMT-0600 (Mountain Daylight Time)","Mozilla/5.0 (Windows NT 10.0; Win64; x64) AppleWebKit/537.36 (KHTML, like Gecko) Chrome/85.0.4183.102 Safari/537.36",89,"[0.9, 0.5, 0.1]","[0.8, 0.4, 0.2]","[u'blue', u'black', u'red']","[u'left', u'middle', u'right']","[0.8, 0.4, 0.2]","[u'high', u'low', u'medium']","blue",49,"left","high","True","True",285,4700,NA
"A21JMLYH0P47QV","Wed Sep 23 2020 09:03:10 GMT-0600 (Mountain Daylight Time)","Wed Sep 23 2020 09:12:59 GMT-0600 (Mountain Daylight Time)","Mozilla/5.0 (Windows NT 10.0; Win64; x64) AppleWebKit/537.36 (KHTML, like Gecko) Chrome/85.0.4183.102 Safari/537.36",90,"[0.9, 0.5, 0.1]","[0.8, 0.4, 0.2]","[u'blue', u'black', u'red']","[u'left', u'middle', u'right']","[0.8, 0.4, 0.2]","[u'medium', u'low', u'high']","blue",49,"left","medium","True","False",301,4800,NA
"A21JMLYH0P47QV","Wed Sep 23 2020 09:03:10 GMT-0600 (Mountain Daylight Time)","Wed Sep 23 2020 09:12:59 GMT-0600 (Mountain Daylight Time)","Mozilla/5.0 (Windows NT 10.0; Win64; x64) AppleWebKit/537.36 (KHTML, like Gecko) Chrome/85.0.4183.102 Safari/537.36",91,"[0.9, 0.5, 0.1]","[0.8, 0.4, 0.2]","[u'blue', u'black', u'red']","[u'left', u'middle', u'right']","[0.8, 0.4, 0.2]","[u'medium', u'low', u'high']","blue",49,"left","medium","False","False",874,4750,NA
"A21JMLYH0P47QV","Wed Sep 23 2020 09:03:10 GMT-0600 (Mountain Daylight Time)","Wed Sep 23 2020 09:12:59 GMT-0600 (Mountain Daylight Time)","Mozilla/5.0 (Windows NT 10.0; Win64; x64) AppleWebKit/537.36 (KHTML, like Gecko) Chrome/85.0.4183.102 Safari/537.36",92,"[0.9, 0.5, 0.1]","[0.8, 0.4, 0.2]","[u'blue', u'black', u'red']","[u'left', u'middle', u'right']","[0.8, 0.4, 0.2]","[u'medium', u'low', u'high']","blue",49,"left","medium","True","False",234,4850,NA
"A21JMLYH0P47QV","Wed Sep 23 2020 09:03:10 GMT-0600 (Mountain Daylight Time)","Wed Sep 23 2020 09:12:59 GMT-0600 (Mountain Daylight Time)","Mozilla/5.0 (Windows NT 10.0; Win64; x64) AppleWebKit/537.36 (KHTML, like Gecko) Chrome/85.0.4183.102 Safari/537.36",93,"[0.9, 0.5, 0.1]","[0.8, 0.4, 0.2]","[u'blue', u'black', u'red']","[u'left', u'middle', u'right']","[0.8, 0.4, 0.2]","[u'medium', u'low', u'high']","blue",49,"left","medium","True","False",250,4950,NA
"A21JMLYH0P47QV","Wed Sep 23 2020 09:03:10 GMT-0600 (Mountain Daylight Time)","Wed Sep 23 2020 09:12:59 GMT-0600 (Mountain Daylight Time)","Mozilla/5.0 (Windows NT 10.0; Win64; x64) AppleWebKit/537.36 (KHTML, like Gecko) Chrome/85.0.4183.102 Safari/537.36",94,"[0.9, 0.5, 0.1]","[0.8, 0.4, 0.2]","[u'blue', u'black', u'red']","[u'left', u'middle', u'right']","[0.8, 0.4, 0.2]","[u'medium', u'low', u'high']","blue",49,"left","medium","False","False",381,4900,NA
"A21JMLYH0P47QV","Wed Sep 23 2020 09:03:10 GMT-0600 (Mountain Daylight Time)","Wed Sep 23 2020 09:12:59 GMT-0600 (Mountain Daylight Time)","Mozilla/5.0 (Windows NT 10.0; Win64; x64) AppleWebKit/537.36 (KHTML, like Gecko) Chrome/85.0.4183.102 Safari/537.36",95,"[0.9, 0.5, 0.1]","[0.8, 0.4, 0.2]","[u'blue', u'black', u'red']","[u'left', u'middle', u'right']","[0.8, 0.4, 0.2]","[u'medium', u'low', u'high']","blue",49,"left","medium","False","False",233,4850,NA
"A21JMLYH0P47QV","Wed Sep 23 2020 09:03:10 GMT-0600 (Mountain Daylight Time)","Wed Sep 23 2020 09:12:59 GMT-0600 (Mountain Daylight Time)","Mozilla/5.0 (Windows NT 10.0; Win64; x64) AppleWebKit/537.36 (KHTML, like Gecko) Chrome/85.0.4183.102 Safari/537.36",96,"[0.9, 0.5, 0.1]","[0.8, 0.4, 0.2]","[u'blue', u'black', u'red']","[u'left', u'middle', u'right']","[0.8, 0.4, 0.2]","[u'medium', u'low', u'high']","black",50,"middle","low","False","False",147,4800,NA
"A21JMLYH0P47QV","Wed Sep 23 2020 09:03:10 GMT-0600 (Mountain Daylight Time)","Wed Sep 23 2020 09:12:59 GMT-0600 (Mountain Daylight Time)","Mozilla/5.0 (Windows NT 10.0; Win64; x64) AppleWebKit/537.36 (KHTML, like Gecko) Chrome/85.0.4183.102 Safari/537.36",97,"[0.9, 0.5, 0.1]","[0.8, 0.4, 0.2]","[u'blue', u'black', u'red']","[u'left', u'middle', u'right']","[0.8, 0.4, 0.2]","[u'medium', u'low', u'high']","red",51,"right","high","True","False",252,4900,NA
"A21JMLYH0P47QV","Wed Sep 23 2020 09:03:10 GMT-0600 (Mountain Daylight Time)","Wed Sep 23 2020 09:12:59 GMT-0600 (Mountain Daylight Time)","Mozilla/5.0 (Windows NT 10.0; Win64; x64) AppleWebKit/537.36 (KHTML, like Gecko) Chrome/85.0.4183.102 Safari/537.36",98,"[0.9, 0.5, 0.1]","[0.8, 0.4, 0.2]","[u'blue', u'black', u'red']","[u'left', u'middle', u'right']","[0.8, 0.4, 0.2]","[u'medium', u'low', u'high']","red",51,"right","high","True","False",332,5000,NA
"A21JMLYH0P47QV","Wed Sep 23 2020 09:03:10 GMT-0600 (Mountain Daylight Time)","Wed Sep 23 2020 09:12:59 GMT-0600 (Mountain Daylight Time)","Mozilla/5.0 (Windows NT 10.0; Win64; x64) AppleWebKit/537.36 (KHTML, like Gecko) Chrome/85.0.4183.102 Safari/537.36",99,"[0.9, 0.5, 0.1]","[0.8, 0.4, 0.2]","[u'blue', u'black', u'red']","[u'left', u'middle', u'right']","[0.8, 0.4, 0.2]","[u'medium', u'low', u'high']","red",51,"right","high","False","False",359,4950,NA
"A21JMLYH0P47QV","Wed Sep 23 2020 09:03:10 GMT-0600 (Mountain Daylight Time)","Wed Sep 23 2020 09:12:59 GMT-0600 (Mountain Daylight Time)","Mozilla/5.0 (Windows NT 10.0; Win64; x64) AppleWebKit/537.36 (KHTML, like Gecko) Chrome/85.0.4183.102 Safari/537.36",100,"[0.9, 0.5, 0.1]","[0.8, 0.4, 0.2]","[u'blue', u'black', u'red']","[u'left', u'middle', u'right']","[0.8, 0.4, 0.2]","[u'medium', u'low', u'high']","blue",49,"left","medium","True","False",260,5050,NA
"A21JMLYH0P47QV","Wed Sep 23 2020 09:03:10 GMT-0600 (Mountain Daylight Time)","Wed Sep 23 2020 09:12:59 GMT-0600 (Mountain Daylight Time)","Mozilla/5.0 (Windows NT 10.0; Win64; x64) AppleWebKit/537.36 (KHTML, like Gecko) Chrome/85.0.4183.102 Safari/537.36",101,"[0.9, 0.5, 0.1]","[0.8, 0.4, 0.2]","[u'blue', u'black', u'red']","[u'left', u'middle', u'right']","[0.8, 0.4, 0.2]","[u'medium', u'low', u'high']","blue",49,"left","medium","True","False",201,5150,NA
"A21JMLYH0P47QV","Wed Sep 23 2020 09:03:10 GMT-0600 (Mountain Daylight Time)","Wed Sep 23 2020 09:12:59 GMT-0600 (Mountain Daylight Time)","Mozilla/5.0 (Windows NT 10.0; Win64; x64) AppleWebKit/537.36 (KHTML, like Gecko) Chrome/85.0.4183.102 Safari/537.36",102,"[0.9, 0.5, 0.1]","[0.8, 0.4, 0.2]","[u'blue', u'black', u'red']","[u'left', u'middle', u'right']","[0.8, 0.4, 0.2]","[u'medium', u'low', u'high']","blue",49,"left","medium","False","False",94,5100,NA
"A21JMLYH0P47QV","Wed Sep 23 2020 09:03:10 GMT-0600 (Mountain Daylight Time)","Wed Sep 23 2020 09:12:59 GMT-0600 (Mountain Daylight Time)","Mozilla/5.0 (Windows NT 10.0; Win64; x64) AppleWebKit/537.36 (KHTML, like Gecko) Chrome/85.0.4183.102 Safari/537.36",103,"[0.9, 0.5, 0.1]","[0.8, 0.4, 0.2]","[u'blue', u'black', u'red']","[u'left', u'middle', u'right']","[0.8, 0.4, 0.2]","[u'medium', u'low', u'high']","blue",49,"left","medium","False","False",253,5050,NA
"A21JMLYH0P47QV","Wed Sep 23 2020 09:03:10 GMT-0600 (Mountain Daylight Time)","Wed Sep 23 2020 09:12:59 GMT-0600 (Mountain Daylight Time)","Mozilla/5.0 (Windows NT 10.0; Win64; x64) AppleWebKit/537.36 (KHTML, like Gecko) Chrome/85.0.4183.102 Safari/537.36",104,"[0.9, 0.5, 0.1]","[0.8, 0.4, 0.2]","[u'blue', u'black', u'red']","[u'left', u'middle', u'right']","[0.8, 0.4, 0.2]","[u'medium', u'low', u'high']","blue",49,"left","medium","False","False",326,5000,NA
"A21JMLYH0P47QV","Wed Sep 23 2020 09:03:10 GMT-0600 (Mountain Daylight Time)","Wed Sep 23 2020 09:12:59 GMT-0600 (Mountain Daylight Time)","Mozilla/5.0 (Windows NT 10.0; Win64; x64) AppleWebKit/537.36 (KHTML, like Gecko) Chrome/85.0.4183.102 Safari/537.36",105,"[0.9, 0.5, 0.1]","[0.8, 0.4, 0.2]","[u'blue', u'black', u'red']","[u'left', u'middle', u'right']","[0.8, 0.4, 0.2]","[u'medium', u'low', u'high']","red",51,"right","high","True","False",146,5100,NA
"A21JMLYH0P47QV","Wed Sep 23 2020 09:03:10 GMT-0600 (Mountain Daylight Time)","Wed Sep 23 2020 09:12:59 GMT-0600 (Mountain Daylight Time)","Mozilla/5.0 (Windows NT 10.0; Win64; x64) AppleWebKit/537.36 (KHTML, like Gecko) Chrome/85.0.4183.102 Safari/537.36",106,"[0.9, 0.5, 0.1]","[0.8, 0.4, 0.2]","[u'blue', u'black', u'red']","[u'left', u'middle', u'right']","[0.8, 0.4, 0.2]","[u'medium', u'low', u'high']","red",51,"right","high","True","False",456,5200,NA
"A21JMLYH0P47QV","Wed Sep 23 2020 09:03:10 GMT-0600 (Mountain Daylight Time)","Wed Sep 23 2020 09:12:59 GMT-0600 (Mountain Daylight Time)","Mozilla/5.0 (Windows NT 10.0; Win64; x64) AppleWebKit/537.36 (KHTML, like Gecko) Chrome/85.0.4183.102 Safari/537.36",107,"[0.9, 0.5, 0.1]","[0.8, 0.4, 0.2]","[u'blue', u'black', u'red']","[u'left', u'middle', u'right']","[0.8, 0.4, 0.2]","[u'medium', u'low', u'high']","red",51,"right","high","True","False",416,5300,NA
"A21JMLYH0P47QV","Wed Sep 23 2020 09:03:10 GMT-0600 (Mountain Daylight Time)","Wed Sep 23 2020 09:12:59 GMT-0600 (Mountain Daylight Time)","Mozilla/5.0 (Windows NT 10.0; Win64; x64) AppleWebKit/537.36 (KHTML, like Gecko) Chrome/85.0.4183.102 Safari/537.36",108,"[0.9, 0.5, 0.1]","[0.8, 0.4, 0.2]","[u'blue', u'black', u'red']","[u'left', u'middle', u'right']","[0.8, 0.4, 0.2]","[u'medium', u'low', u'high']","red",51,"right","high","False","False",235,5250,NA
"A21JMLYH0P47QV","Wed Sep 23 2020 09:03:10 GMT-0600 (Mountain Daylight Time)","Wed Sep 23 2020 09:12:59 GMT-0600 (Mountain Daylight Time)","Mozilla/5.0 (Windows NT 10.0; Win64; x64) AppleWebKit/537.36 (KHTML, like Gecko) Chrome/85.0.4183.102 Safari/537.36",109,"[0.9, 0.5, 0.1]","[0.8, 0.4, 0.2]","[u'blue', u'black', u'red']","[u'left', u'middle', u'right']","[0.8, 0.4, 0.2]","[u'medium', u'low', u'high']","red",51,"right","high","True","False",67,5350,NA
"A21JMLYH0P47QV","Wed Sep 23 2020 09:03:10 GMT-0600 (Mountain Daylight Time)","Wed Sep 23 2020 09:12:59 GMT-0600 (Mountain Daylight Time)","Mozilla/5.0 (Windows NT 10.0; Win64; x64) AppleWebKit/537.36 (KHTML, like Gecko) Chrome/85.0.4183.102 Safari/537.36",110,"[0.9, 0.5, 0.1]","[0.8, 0.4, 0.2]","[u'blue', u'black', u'red']","[u'left', u'middle', u'right']","[0.8, 0.4, 0.2]","[u'medium', u'low', u'high']","red",51,"right","high","False","False",268,5300,NA
"A21JMLYH0P47QV","Wed Sep 23 2020 09:03:10 GMT-0600 (Mountain Daylight Time)","Wed Sep 23 2020 09:12:59 GMT-0600 (Mountain Daylight Time)","Mozilla/5.0 (Windows NT 10.0; Win64; x64) AppleWebKit/537.36 (KHTML, like Gecko) Chrome/85.0.4183.102 Safari/537.36",111,"[0.9, 0.5, 0.1]","[0.8, 0.4, 0.2]","[u'blue', u'black', u'red']","[u'left', u'middle', u'right']","[0.8, 0.4, 0.2]","[u'medium', u'low', u'high']","black",50,"middle","low","True","False",246,5400,NA
"A21JMLYH0P47QV","Wed Sep 23 2020 09:03:10 GMT-0600 (Mountain Daylight Time)","Wed Sep 23 2020 09:12:59 GMT-0600 (Mountain Daylight Time)","Mozilla/5.0 (Windows NT 10.0; Win64; x64) AppleWebKit/537.36 (KHTML, like Gecko) Chrome/85.0.4183.102 Safari/537.36",112,"[0.9, 0.5, 0.1]","[0.8, 0.4, 0.2]","[u'blue', u'black', u'red']","[u'left', u'middle', u'right']","[0.8, 0.4, 0.2]","[u'medium', u'low', u'high']","black",50,"middle","low","False","False",446,5350,NA
"A21JMLYH0P47QV","Wed Sep 23 2020 09:03:10 GMT-0600 (Mountain Daylight Time)","Wed Sep 23 2020 09:12:59 GMT-0600 (Mountain Daylight Time)","Mozilla/5.0 (Windows NT 10.0; Win64; x64) AppleWebKit/537.36 (KHTML, like Gecko) Chrome/85.0.4183.102 Safari/537.36",113,"[0.9, 0.5, 0.1]","[0.8, 0.4, 0.2]","[u'blue', u'black', u'red']","[u'left', u'middle', u'right']","[0.8, 0.4, 0.2]","[u'medium', u'low', u'high']","blue",49,"left","medium","False","False",221,5300,NA
"A21JMLYH0P47QV","Wed Sep 23 2020 09:03:10 GMT-0600 (Mountain Daylight Time)","Wed Sep 23 2020 09:12:59 GMT-0600 (Mountain Daylight Time)","Mozilla/5.0 (Windows NT 10.0; Win64; x64) AppleWebKit/537.36 (KHTML, like Gecko) Chrome/85.0.4183.102 Safari/537.36",114,"[0.9, 0.5, 0.1]","[0.8, 0.4, 0.2]","[u'blue', u'black', u'red']","[u'left', u'middle', u'right']","[0.8, 0.4, 0.2]","[u'medium', u'low', u'high']","red",51,"right","high","False","False",401,5250,NA
"A21JMLYH0P47QV","Wed Sep 23 2020 09:03:10 GMT-0600 (Mountain Daylight Time)","Wed Sep 23 2020 09:12:59 GMT-0600 (Mountain Daylight Time)","Mozilla/5.0 (Windows NT 10.0; Win64; x64) AppleWebKit/537.36 (KHTML, like Gecko) Chrome/85.0.4183.102 Safari/537.36",115,"[0.9, 0.5, 0.1]","[0.8, 0.4, 0.2]","[u'blue', u'black', u'red']","[u'left', u'middle', u'right']","[0.8, 0.4, 0.2]","[u'medium', u'low', u'high']","black",50,"middle","low","False","False",257,5200,NA
"A21JMLYH0P47QV","Wed Sep 23 2020 09:03:10 GMT-0600 (Mountain Daylight Time)","Wed Sep 23 2020 09:12:59 GMT-0600 (Mountain Daylight Time)","Mozilla/5.0 (Windows NT 10.0; Win64; x64) AppleWebKit/537.36 (KHTML, like Gecko) Chrome/85.0.4183.102 Safari/537.36",116,"[0.9, 0.5, 0.1]","[0.8, 0.4, 0.2]","[u'blue', u'black', u'red']","[u'left', u'middle', u'right']","[0.8, 0.4, 0.2]","[u'medium', u'low', u'high']","blue",49,"left","medium","False","False",114,5150,NA
"A21JMLYH0P47QV","Wed Sep 23 2020 09:03:10 GMT-0600 (Mountain Daylight Time)","Wed Sep 23 2020 09:12:59 GMT-0600 (Mountain Daylight Time)","Mozilla/5.0 (Windows NT 10.0; Win64; x64) AppleWebKit/537.36 (KHTML, like Gecko) Chrome/85.0.4183.102 Safari/537.36",117,"[0.9, 0.5, 0.1]","[0.8, 0.4, 0.2]","[u'blue', u'black', u'red']","[u'left', u'middle', u'right']","[0.8, 0.4, 0.2]","[u'medium', u'low', u'high']","red",51,"right","high","True","False",217,5250,NA
"A21JMLYH0P47QV","Wed Sep 23 2020 09:03:10 GMT-0600 (Mountain Daylight Time)","Wed Sep 23 2020 09:12:59 GMT-0600 (Mountain Daylight Time)","Mozilla/5.0 (Windows NT 10.0; Win64; x64) AppleWebKit/537.36 (KHTML, like Gecko) Chrome/85.0.4183.102 Safari/537.36",118,"[0.9, 0.5, 0.1]","[0.8, 0.4, 0.2]","[u'blue', u'black', u'red']","[u'left', u'middle', u'right']","[0.8, 0.4, 0.2]","[u'medium', u'low', u'high']","red",51,"right","high","True","False",273,5350,NA
"A21JMLYH0P47QV","Wed Sep 23 2020 09:03:10 GMT-0600 (Mountain Daylight Time)","Wed Sep 23 2020 09:12:59 GMT-0600 (Mountain Daylight Time)","Mozilla/5.0 (Windows NT 10.0; Win64; x64) AppleWebKit/537.36 (KHTML, like Gecko) Chrome/85.0.4183.102 Safari/537.36",119,"[0.9, 0.5, 0.1]","[0.8, 0.4, 0.2]","[u'blue', u'black', u'red']","[u'left', u'middle', u'right']","[0.8, 0.4, 0.2]","[u'medium', u'low', u'high']","red",51,"right","high","True","False",238,5450,NA
"A21JMLYH0P47QV","Wed Sep 23 2020 09:03:10 GMT-0600 (Mountain Daylight Time)","Wed Sep 23 2020 09:12:59 GMT-0600 (Mountain Daylight Time)","Mozilla/5.0 (Windows NT 10.0; Win64; x64) AppleWebKit/537.36 (KHTML, like Gecko) Chrome/85.0.4183.102 Safari/537.36",120,"[0.9, 0.5, 0.1]","[0.8, 0.4, 0.2]","[u'blue', u'black', u'red']","[u'left', u'middle', u'right']","[0.8, 0.4, 0.2]","[u'medium', u'low', u'high']","red",51,"right","high","True","False",316,5550,NA
"A21JMLYH0P47QV","Wed Sep 23 2020 09:03:10 GMT-0600 (Mountain Daylight Time)","Wed Sep 23 2020 09:12:59 GMT-0600 (Mountain Daylight Time)","Mozilla/5.0 (Windows NT 10.0; Win64; x64) AppleWebKit/537.36 (KHTML, like Gecko) Chrome/85.0.4183.102 Safari/537.36",121,"[0.9, 0.5, 0.1]","[0.8, 0.4, 0.2]","[u'blue', u'black', u'red']","[u'left', u'middle', u'right']","[0.8, 0.4, 0.2]","[u'low', u'high', u'medium']","red",51,"right","medium","True","False",651,5650,NA
"A21JMLYH0P47QV","Wed Sep 23 2020 09:03:10 GMT-0600 (Mountain Daylight Time)","Wed Sep 23 2020 09:12:59 GMT-0600 (Mountain Daylight Time)","Mozilla/5.0 (Windows NT 10.0; Win64; x64) AppleWebKit/537.36 (KHTML, like Gecko) Chrome/85.0.4183.102 Safari/537.36",122,"[0.9, 0.5, 0.1]","[0.8, 0.4, 0.2]","[u'blue', u'black', u'red']","[u'left', u'middle', u'right']","[0.8, 0.4, 0.2]","[u'low', u'high', u'medium']","red",51,"right","medium","False","False",251,5600,NA
"A21JMLYH0P47QV","Wed Sep 23 2020 09:03:10 GMT-0600 (Mountain Daylight Time)","Wed Sep 23 2020 09:12:59 GMT-0600 (Mountain Daylight Time)","Mozilla/5.0 (Windows NT 10.0; Win64; x64) AppleWebKit/537.36 (KHTML, like Gecko) Chrome/85.0.4183.102 Safari/537.36",123,"[0.9, 0.5, 0.1]","[0.8, 0.4, 0.2]","[u'blue', u'black', u'red']","[u'left', u'middle', u'right']","[0.8, 0.4, 0.2]","[u'low', u'high', u'medium']","blue",49,"left","low","True","False",214,5700,NA
"A21JMLYH0P47QV","Wed Sep 23 2020 09:03:10 GMT-0600 (Mountain Daylight Time)","Wed Sep 23 2020 09:12:59 GMT-0600 (Mountain Daylight Time)","Mozilla/5.0 (Windows NT 10.0; Win64; x64) AppleWebKit/537.36 (KHTML, like Gecko) Chrome/85.0.4183.102 Safari/537.36",124,"[0.9, 0.5, 0.1]","[0.8, 0.4, 0.2]","[u'blue', u'black', u'red']","[u'left', u'middle', u'right']","[0.8, 0.4, 0.2]","[u'low', u'high', u'medium']","blue",49,"left","low","True","False",231,5800,NA
"A21JMLYH0P47QV","Wed Sep 23 2020 09:03:10 GMT-0600 (Mountain Daylight Time)","Wed Sep 23 2020 09:12:59 GMT-0600 (Mountain Daylight Time)","Mozilla/5.0 (Windows NT 10.0; Win64; x64) AppleWebKit/537.36 (KHTML, like Gecko) Chrome/85.0.4183.102 Safari/537.36",125,"[0.9, 0.5, 0.1]","[0.8, 0.4, 0.2]","[u'blue', u'black', u'red']","[u'left', u'middle', u'right']","[0.8, 0.4, 0.2]","[u'low', u'high', u'medium']","blue",49,"left","low","False","False",230,5750,NA
"A21JMLYH0P47QV","Wed Sep 23 2020 09:03:10 GMT-0600 (Mountain Daylight Time)","Wed Sep 23 2020 09:12:59 GMT-0600 (Mountain Daylight Time)","Mozilla/5.0 (Windows NT 10.0; Win64; x64) AppleWebKit/537.36 (KHTML, like Gecko) Chrome/85.0.4183.102 Safari/537.36",126,"[0.9, 0.5, 0.1]","[0.8, 0.4, 0.2]","[u'blue', u'black', u'red']","[u'left', u'middle', u'right']","[0.8, 0.4, 0.2]","[u'low', u'high', u'medium']","blue",49,"left","low","False","False",282,5700,NA
"A21JMLYH0P47QV","Wed Sep 23 2020 09:03:10 GMT-0600 (Mountain Daylight Time)","Wed Sep 23 2020 09:12:59 GMT-0600 (Mountain Daylight Time)","Mozilla/5.0 (Windows NT 10.0; Win64; x64) AppleWebKit/537.36 (KHTML, like Gecko) Chrome/85.0.4183.102 Safari/537.36",127,"[0.9, 0.5, 0.1]","[0.8, 0.4, 0.2]","[u'blue', u'black', u'red']","[u'left', u'middle', u'right']","[0.8, 0.4, 0.2]","[u'low', u'high', u'medium']","black",50,"middle","high","True","False",230,5800,NA
"A21JMLYH0P47QV","Wed Sep 23 2020 09:03:10 GMT-0600 (Mountain Daylight Time)","Wed Sep 23 2020 09:12:59 GMT-0600 (Mountain Daylight Time)","Mozilla/5.0 (Windows NT 10.0; Win64; x64) AppleWebKit/537.36 (KHTML, like Gecko) Chrome/85.0.4183.102 Safari/537.36",128,"[0.9, 0.5, 0.1]","[0.8, 0.4, 0.2]","[u'blue', u'black', u'red']","[u'left', u'middle', u'right']","[0.8, 0.4, 0.2]","[u'low', u'high', u'medium']","black",50,"middle","high","True","False",217,5900,NA
"A21JMLYH0P47QV","Wed Sep 23 2020 09:03:10 GMT-0600 (Mountain Daylight Time)","Wed Sep 23 2020 09:12:59 GMT-0600 (Mountain Daylight Time)","Mozilla/5.0 (Windows NT 10.0; Win64; x64) AppleWebKit/537.36 (KHTML, like Gecko) Chrome/85.0.4183.102 Safari/537.36",129,"[0.9, 0.5, 0.1]","[0.8, 0.4, 0.2]","[u'blue', u'black', u'red']","[u'left', u'middle', u'right']","[0.8, 0.4, 0.2]","[u'low', u'high', u'medium']","black",50,"middle","high","True","False",210,6000,NA
"A21JMLYH0P47QV","Wed Sep 23 2020 09:03:10 GMT-0600 (Mountain Daylight Time)","Wed Sep 23 2020 09:12:59 GMT-0600 (Mountain Daylight Time)","Mozilla/5.0 (Windows NT 10.0; Win64; x64) AppleWebKit/537.36 (KHTML, like Gecko) Chrome/85.0.4183.102 Safari/537.36",130,"[0.9, 0.5, 0.1]","[0.8, 0.4, 0.2]","[u'blue', u'black', u'red']","[u'left', u'middle', u'right']","[0.8, 0.4, 0.2]","[u'low', u'high', u'medium']","black",50,"middle","high","False","False",527,5950,NA
"A21JMLYH0P47QV","Wed Sep 23 2020 09:03:10 GMT-0600 (Mountain Daylight Time)","Wed Sep 23 2020 09:12:59 GMT-0600 (Mountain Daylight Time)","Mozilla/5.0 (Windows NT 10.0; Win64; x64) AppleWebKit/537.36 (KHTML, like Gecko) Chrome/85.0.4183.102 Safari/537.36",131,"[0.9, 0.5, 0.1]","[0.8, 0.4, 0.2]","[u'blue', u'black', u'red']","[u'left', u'middle', u'right']","[0.8, 0.4, 0.2]","[u'low', u'high', u'medium']","blue",49,"left","low","False","False",645,5900,NA
"A21JMLYH0P47QV","Wed Sep 23 2020 09:03:10 GMT-0600 (Mountain Daylight Time)","Wed Sep 23 2020 09:12:59 GMT-0600 (Mountain Daylight Time)","Mozilla/5.0 (Windows NT 10.0; Win64; x64) AppleWebKit/537.36 (KHTML, like Gecko) Chrome/85.0.4183.102 Safari/537.36",132,"[0.9, 0.5, 0.1]","[0.8, 0.4, 0.2]","[u'blue', u'black', u'red']","[u'left', u'middle', u'right']","[0.8, 0.4, 0.2]","[u'low', u'high', u'medium']","black",50,"middle","high","False","False",244,5850,NA
"A21JMLYH0P47QV","Wed Sep 23 2020 09:03:10 GMT-0600 (Mountain Daylight Time)","Wed Sep 23 2020 09:12:59 GMT-0600 (Mountain Daylight Time)","Mozilla/5.0 (Windows NT 10.0; Win64; x64) AppleWebKit/537.36 (KHTML, like Gecko) Chrome/85.0.4183.102 Safari/537.36",133,"[0.9, 0.5, 0.1]","[0.8, 0.4, 0.2]","[u'blue', u'black', u'red']","[u'left', u'middle', u'right']","[0.8, 0.4, 0.2]","[u'low', u'high', u'medium']","red",51,"right","medium","False","False",225,5800,NA
"A21JMLYH0P47QV","Wed Sep 23 2020 09:03:10 GMT-0600 (Mountain Daylight Time)","Wed Sep 23 2020 09:12:59 GMT-0600 (Mountain Daylight Time)","Mozilla/5.0 (Windows NT 10.0; Win64; x64) AppleWebKit/537.36 (KHTML, like Gecko) Chrome/85.0.4183.102 Safari/537.36",134,"[0.9, 0.5, 0.1]","[0.8, 0.4, 0.2]","[u'blue', u'black', u'red']","[u'left', u'middle', u'right']","[0.8, 0.4, 0.2]","[u'low', u'high', u'medium']","red",51,"right","medium","False","False",175,5750,NA
"A21JMLYH0P47QV","Wed Sep 23 2020 09:03:10 GMT-0600 (Mountain Daylight Time)","Wed Sep 23 2020 09:12:59 GMT-0600 (Mountain Daylight Time)","Mozilla/5.0 (Windows NT 10.0; Win64; x64) AppleWebKit/537.36 (KHTML, like Gecko) Chrome/85.0.4183.102 Safari/537.36",135,"[0.9, 0.5, 0.1]","[0.8, 0.4, 0.2]","[u'blue', u'black', u'red']","[u'left', u'middle', u'right']","[0.8, 0.4, 0.2]","[u'low', u'high', u'medium']","blue",49,"left","low","False","False",196,5700,NA
"A21JMLYH0P47QV","Wed Sep 23 2020 09:03:10 GMT-0600 (Mountain Daylight Time)","Wed Sep 23 2020 09:12:59 GMT-0600 (Mountain Daylight Time)","Mozilla/5.0 (Windows NT 10.0; Win64; x64) AppleWebKit/537.36 (KHTML, like Gecko) Chrome/85.0.4183.102 Safari/537.36",136,"[0.9, 0.5, 0.1]","[0.8, 0.4, 0.2]","[u'blue', u'black', u'red']","[u'left', u'middle', u'right']","[0.8, 0.4, 0.2]","[u'low', u'high', u'medium']","black",50,"middle","high","True","False",222,5800,NA
"A21JMLYH0P47QV","Wed Sep 23 2020 09:03:10 GMT-0600 (Mountain Daylight Time)","Wed Sep 23 2020 09:12:59 GMT-0600 (Mountain Daylight Time)","Mozilla/5.0 (Windows NT 10.0; Win64; x64) AppleWebKit/537.36 (KHTML, like Gecko) Chrome/85.0.4183.102 Safari/537.36",137,"[0.9, 0.5, 0.1]","[0.8, 0.4, 0.2]","[u'blue', u'black', u'red']","[u'left', u'middle', u'right']","[0.8, 0.4, 0.2]","[u'low', u'high', u'medium']","black",50,"middle","high","True","False",61,5900,NA
"A21JMLYH0P47QV","Wed Sep 23 2020 09:03:10 GMT-0600 (Mountain Daylight Time)","Wed Sep 23 2020 09:12:59 GMT-0600 (Mountain Daylight Time)","Mozilla/5.0 (Windows NT 10.0; Win64; x64) AppleWebKit/537.36 (KHTML, like Gecko) Chrome/85.0.4183.102 Safari/537.36",138,"[0.9, 0.5, 0.1]","[0.8, 0.4, 0.2]","[u'blue', u'black', u'red']","[u'left', u'middle', u'right']","[0.8, 0.4, 0.2]","[u'low', u'high', u'medium']","black",50,"middle","high","True","False",384,6000,NA
"A21JMLYH0P47QV","Wed Sep 23 2020 09:03:10 GMT-0600 (Mountain Daylight Time)","Wed Sep 23 2020 09:12:59 GMT-0600 (Mountain Daylight Time)","Mozilla/5.0 (Windows NT 10.0; Win64; x64) AppleWebKit/537.36 (KHTML, like Gecko) Chrome/85.0.4183.102 Safari/537.36",139,"[0.9, 0.5, 0.1]","[0.8, 0.4, 0.2]","[u'blue', u'black', u'red']","[u'left', u'middle', u'right']","[0.8, 0.4, 0.2]","[u'low', u'high', u'medium']","black",50,"middle","high","True","False",355,6100,NA
"A21JMLYH0P47QV","Wed Sep 23 2020 09:03:10 GMT-0600 (Mountain Daylight Time)","Wed Sep 23 2020 09:12:59 GMT-0600 (Mountain Daylight Time)","Mozilla/5.0 (Windows NT 10.0; Win64; x64) AppleWebKit/537.36 (KHTML, like Gecko) Chrome/85.0.4183.102 Safari/537.36",140,"[0.9, 0.5, 0.1]","[0.8, 0.4, 0.2]","[u'blue', u'black', u'red']","[u'left', u'middle', u'right']","[0.8, 0.4, 0.2]","[u'low', u'high', u'medium']","black",50,"middle","high","True","False",318,6200,NA
"A21JMLYH0P47QV","Wed Sep 23 2020 09:03:10 GMT-0600 (Mountain Daylight Time)","Wed Sep 23 2020 09:12:59 GMT-0600 (Mountain Daylight Time)","Mozilla/5.0 (Windows NT 10.0; Win64; x64) AppleWebKit/537.36 (KHTML, like Gecko) Chrome/85.0.4183.102 Safari/537.36",141,"[0.9, 0.5, 0.1]","[0.8, 0.4, 0.2]","[u'blue', u'black', u'red']","[u'left', u'middle', u'right']","[0.8, 0.4, 0.2]","[u'low', u'high', u'medium']","black",50,"middle","high","False","False",387,6150,NA
"A21JMLYH0P47QV","Wed Sep 23 2020 09:03:10 GMT-0600 (Mountain Daylight Time)","Wed Sep 23 2020 09:12:59 GMT-0600 (Mountain Daylight Time)","Mozilla/5.0 (Windows NT 10.0; Win64; x64) AppleWebKit/537.36 (KHTML, like Gecko) Chrome/85.0.4183.102 Safari/537.36",142,"[0.9, 0.5, 0.1]","[0.8, 0.4, 0.2]","[u'blue', u'black', u'red']","[u'left', u'middle', u'right']","[0.8, 0.4, 0.2]","[u'low', u'high', u'medium']","red",51,"right","medium","False","False",182,6100,NA
"A21JMLYH0P47QV","Wed Sep 23 2020 09:03:10 GMT-0600 (Mountain Daylight Time)","Wed Sep 23 2020 09:12:59 GMT-0600 (Mountain Daylight Time)","Mozilla/5.0 (Windows NT 10.0; Win64; x64) AppleWebKit/537.36 (KHTML, like Gecko) Chrome/85.0.4183.102 Safari/537.36",143,"[0.9, 0.5, 0.1]","[0.8, 0.4, 0.2]","[u'blue', u'black', u'red']","[u'left', u'middle', u'right']","[0.8, 0.4, 0.2]","[u'low', u'high', u'medium']","blue",49,"left","low","False","False",198,6050,NA
"A21JMLYH0P47QV","Wed Sep 23 2020 09:03:10 GMT-0600 (Mountain Daylight Time)","Wed Sep 23 2020 09:12:59 GMT-0600 (Mountain Daylight Time)","Mozilla/5.0 (Windows NT 10.0; Win64; x64) AppleWebKit/537.36 (KHTML, like Gecko) Chrome/85.0.4183.102 Safari/537.36",144,"[0.9, 0.5, 0.1]","[0.8, 0.4, 0.2]","[u'blue', u'black', u'red']","[u'left', u'middle', u'right']","[0.8, 0.4, 0.2]","[u'low', u'high', u'medium']","black",50,"middle","high","True","False",239,6150,NA
"A21JMLYH0P47QV","Wed Sep 23 2020 09:03:10 GMT-0600 (Mountain Daylight Time)","Wed Sep 23 2020 09:12:59 GMT-0600 (Mountain Daylight Time)","Mozilla/5.0 (Windows NT 10.0; Win64; x64) AppleWebKit/537.36 (KHTML, like Gecko) Chrome/85.0.4183.102 Safari/537.36",145,"[0.9, 0.5, 0.1]","[0.8, 0.4, 0.2]","[u'blue', u'black', u'red']","[u'left', u'middle', u'right']","[0.8, 0.4, 0.2]","[u'low', u'high', u'medium']","black",50,"middle","high","True","False",186,6250,NA
"A21JMLYH0P47QV","Wed Sep 23 2020 09:03:10 GMT-0600 (Mountain Daylight Time)","Wed Sep 23 2020 09:12:59 GMT-0600 (Mountain Daylight Time)","Mozilla/5.0 (Windows NT 10.0; Win64; x64) AppleWebKit/537.36 (KHTML, like Gecko) Chrome/85.0.4183.102 Safari/537.36",146,"[0.9, 0.5, 0.1]","[0.8, 0.4, 0.2]","[u'blue', u'black', u'red']","[u'left', u'middle', u'right']","[0.8, 0.4, 0.2]","[u'low', u'high', u'medium']","black",50,"middle","high","True","False",628,6350,NA
"A21JMLYH0P47QV","Wed Sep 23 2020 09:03:10 GMT-0600 (Mountain Daylight Time)","Wed Sep 23 2020 09:12:59 GMT-0600 (Mountain Daylight Time)","Mozilla/5.0 (Windows NT 10.0; Win64; x64) AppleWebKit/537.36 (KHTML, like Gecko) Chrome/85.0.4183.102 Safari/537.36",147,"[0.9, 0.5, 0.1]","[0.8, 0.4, 0.2]","[u'blue', u'black', u'red']","[u'left', u'middle', u'right']","[0.8, 0.4, 0.2]","[u'low', u'high', u'medium']","black",50,"middle","high","True","False",323,6450,NA
"A21JMLYH0P47QV","Wed Sep 23 2020 09:03:10 GMT-0600 (Mountain Daylight Time)","Wed Sep 23 2020 09:12:59 GMT-0600 (Mountain Daylight Time)","Mozilla/5.0 (Windows NT 10.0; Win64; x64) AppleWebKit/537.36 (KHTML, like Gecko) Chrome/85.0.4183.102 Safari/537.36",148,"[0.9, 0.5, 0.1]","[0.8, 0.4, 0.2]","[u'blue', u'black', u'red']","[u'left', u'middle', u'right']","[0.8, 0.4, 0.2]","[u'low', u'high', u'medium']","black",50,"middle","high","True","False",261,6550,NA
"A21JMLYH0P47QV","Wed Sep 23 2020 09:03:10 GMT-0600 (Mountain Daylight Time)","Wed Sep 23 2020 09:12:59 GMT-0600 (Mountain Daylight Time)","Mozilla/5.0 (Windows NT 10.0; Win64; x64) AppleWebKit/537.36 (KHTML, like Gecko) Chrome/85.0.4183.102 Safari/537.36",149,"[0.9, 0.5, 0.1]","[0.8, 0.4, 0.2]","[u'blue', u'black', u'red']","[u'left', u'middle', u'right']","[0.8, 0.4, 0.2]","[u'low', u'high', u'medium']","black",50,"middle","high","True","False",133,6650,NA
"A21JMLYH0P47QV","Wed Sep 23 2020 09:03:10 GMT-0600 (Mountain Daylight Time)","Wed Sep 23 2020 09:12:59 GMT-0600 (Mountain Daylight Time)","Mozilla/5.0 (Windows NT 10.0; Win64; x64) AppleWebKit/537.36 (KHTML, like Gecko) Chrome/85.0.4183.102 Safari/537.36",150,"[0.9, 0.5, 0.1]","[0.8, 0.4, 0.2]","[u'blue', u'black', u'red']","[u'left', u'middle', u'right']","[0.8, 0.4, 0.2]","[u'low', u'high', u'medium']","black",50,"middle","high","True","False",236,6750,NA
"A21JMLYH0P47QV","Wed Sep 23 2020 09:03:10 GMT-0600 (Mountain Daylight Time)","Wed Sep 23 2020 09:12:59 GMT-0600 (Mountain Daylight Time)","Mozilla/5.0 (Windows NT 10.0; Win64; x64) AppleWebKit/537.36 (KHTML, like Gecko) Chrome/85.0.4183.102 Safari/537.36",151,"[0.9, 0.5, 0.1]","[0.8, 0.4, 0.2]","[u'blue', u'black', u'red']","[u'left', u'middle', u'right']","[0.8, 0.4, 0.2]","[u'low', u'high', u'medium']","black",50,"middle","high","True","False",234,6850,NA
"A21JMLYH0P47QV","Wed Sep 23 2020 09:03:10 GMT-0600 (Mountain Daylight Time)","Wed Sep 23 2020 09:12:59 GMT-0600 (Mountain Daylight Time)","Mozilla/5.0 (Windows NT 10.0; Win64; x64) AppleWebKit/537.36 (KHTML, like Gecko) Chrome/85.0.4183.102 Safari/537.36",152,"[0.9, 0.5, 0.1]","[0.8, 0.4, 0.2]","[u'blue', u'black', u'red']","[u'left', u'middle', u'right']","[0.8, 0.4, 0.2]","[u'low', u'high', u'medium']","black",50,"middle","high","True","True",301,6950,NA
"A21JMLYH0P47QV","Wed Sep 23 2020 09:03:10 GMT-0600 (Mountain Daylight Time)","Wed Sep 23 2020 09:12:59 GMT-0600 (Mountain Daylight Time)","Mozilla/5.0 (Windows NT 10.0; Win64; x64) AppleWebKit/537.36 (KHTML, like Gecko) Chrome/85.0.4183.102 Safari/537.36",153,"[0.9, 0.5, 0.1]","[0.8, 0.4, 0.2]","[u'blue', u'black', u'red']","[u'left', u'middle', u'right']","[0.8, 0.4, 0.2]","[u'high', u'low', u'medium']","black",50,"middle","low","False","False",554,6900,NA
"A21JMLYH0P47QV","Wed Sep 23 2020 09:03:10 GMT-0600 (Mountain Daylight Time)","Wed Sep 23 2020 09:12:59 GMT-0600 (Mountain Daylight Time)","Mozilla/5.0 (Windows NT 10.0; Win64; x64) AppleWebKit/537.36 (KHTML, like Gecko) Chrome/85.0.4183.102 Safari/537.36",154,"[0.9, 0.5, 0.1]","[0.8, 0.4, 0.2]","[u'blue', u'black', u'red']","[u'left', u'middle', u'right']","[0.8, 0.4, 0.2]","[u'high', u'low', u'medium']","black",50,"middle","low","True","False",217,7000,NA
"A21JMLYH0P47QV","Wed Sep 23 2020 09:03:10 GMT-0600 (Mountain Daylight Time)","Wed Sep 23 2020 09:12:59 GMT-0600 (Mountain Daylight Time)","Mozilla/5.0 (Windows NT 10.0; Win64; x64) AppleWebKit/537.36 (KHTML, like Gecko) Chrome/85.0.4183.102 Safari/537.36",155,"[0.9, 0.5, 0.1]","[0.8, 0.4, 0.2]","[u'blue', u'black', u'red']","[u'left', u'middle', u'right']","[0.8, 0.4, 0.2]","[u'high', u'low', u'medium']","black",50,"middle","low","True","False",262,7100,NA
"A21JMLYH0P47QV","Wed Sep 23 2020 09:03:10 GMT-0600 (Mountain Daylight Time)","Wed Sep 23 2020 09:12:59 GMT-0600 (Mountain Daylight Time)","Mozilla/5.0 (Windows NT 10.0; Win64; x64) AppleWebKit/537.36 (KHTML, like Gecko) Chrome/85.0.4183.102 Safari/537.36",156,"[0.9, 0.5, 0.1]","[0.8, 0.4, 0.2]","[u'blue', u'black', u'red']","[u'left', u'middle', u'right']","[0.8, 0.4, 0.2]","[u'high', u'low', u'medium']","black",50,"middle","low","False","False",212,7050,NA
"A21JMLYH0P47QV","Wed Sep 23 2020 09:03:10 GMT-0600 (Mountain Daylight Time)","Wed Sep 23 2020 09:12:59 GMT-0600 (Mountain Daylight Time)","Mozilla/5.0 (Windows NT 10.0; Win64; x64) AppleWebKit/537.36 (KHTML, like Gecko) Chrome/85.0.4183.102 Safari/537.36",157,"[0.9, 0.5, 0.1]","[0.8, 0.4, 0.2]","[u'blue', u'black', u'red']","[u'left', u'middle', u'right']","[0.8, 0.4, 0.2]","[u'high', u'low', u'medium']","black",50,"middle","low","False","False",224,7000,NA
"A21JMLYH0P47QV","Wed Sep 23 2020 09:03:10 GMT-0600 (Mountain Daylight Time)","Wed Sep 23 2020 09:12:59 GMT-0600 (Mountain Daylight Time)","Mozilla/5.0 (Windows NT 10.0; Win64; x64) AppleWebKit/537.36 (KHTML, like Gecko) Chrome/85.0.4183.102 Safari/537.36",158,"[0.9, 0.5, 0.1]","[0.8, 0.4, 0.2]","[u'blue', u'black', u'red']","[u'left', u'middle', u'right']","[0.8, 0.4, 0.2]","[u'high', u'low', u'medium']","red",51,"right","medium","False","False",262,6950,NA
"A21JMLYH0P47QV","Wed Sep 23 2020 09:03:10 GMT-0600 (Mountain Daylight Time)","Wed Sep 23 2020 09:12:59 GMT-0600 (Mountain Daylight Time)","Mozilla/5.0 (Windows NT 10.0; Win64; x64) AppleWebKit/537.36 (KHTML, like Gecko) Chrome/85.0.4183.102 Safari/537.36",159,"[0.9, 0.5, 0.1]","[0.8, 0.4, 0.2]","[u'blue', u'black', u'red']","[u'left', u'middle', u'right']","[0.8, 0.4, 0.2]","[u'high', u'low', u'medium']","blue",49,"left","high","True","False",232,7050,NA
"A21JMLYH0P47QV","Wed Sep 23 2020 09:03:10 GMT-0600 (Mountain Daylight Time)","Wed Sep 23 2020 09:12:59 GMT-0600 (Mountain Daylight Time)","Mozilla/5.0 (Windows NT 10.0; Win64; x64) AppleWebKit/537.36 (KHTML, like Gecko) Chrome/85.0.4183.102 Safari/537.36",160,"[0.9, 0.5, 0.1]","[0.8, 0.4, 0.2]","[u'blue', u'black', u'red']","[u'left', u'middle', u'right']","[0.8, 0.4, 0.2]","[u'high', u'low', u'medium']","blue",49,"left","high","True","False",260,7150,NA
