"src_subject_id","start_time","end_time","browser","index","first_half_probabilities","second_half_probabilities","deck_color","deck_position","deck_probabilities","deck_contingencies","response_color","key_press","response_position","response_probability","reward_type","trial_type","rt","reward_tally","exclusion_reason"
"A3NBLSA78ZXDNP","Wed Jan 29 2020 07:48:19 GMT-0600 (Central Standard Time)","Wed Jan 29 2020 07:55:20 GMT-0600 (Central Standard Time)","Mozilla/5.0 (X11; CrOS x86_64 12607.81.0) AppleWebKit/537.36 (KHTML, like Gecko) Chrome/79.0.3945.119 Safari/537.36",1,"[0.9, 0.5, 0.1]","[0.8, 0.4, 0.2]","[u'blue', u'red', u'black']","[u'left', u'middle', u'right']","[0.9, 0.5, 0.1]","[u'low', u'high', u'medium']","red",50,"middle","high","True","False",1476,100,NA
"A3NBLSA78ZXDNP","Wed Jan 29 2020 07:48:19 GMT-0600 (Central Standard Time)","Wed Jan 29 2020 07:55:20 GMT-0600 (Central Standard Time)","Mozilla/5.0 (X11; CrOS x86_64 12607.81.0) AppleWebKit/537.36 (KHTML, like Gecko) Chrome/79.0.3945.119 Safari/537.36",2,"[0.9, 0.5, 0.1]","[0.8, 0.4, 0.2]","[u'blue', u'red', u'black']","[u'left', u'middle', u'right']","[0.9, 0.5, 0.1]","[u'low', u'high', u'medium']","black",51,"right","medium","True","False",1220,200,NA
"A3NBLSA78ZXDNP","Wed Jan 29 2020 07:48:19 GMT-0600 (Central Standard Time)","Wed Jan 29 2020 07:55:20 GMT-0600 (Central Standard Time)","Mozilla/5.0 (X11; CrOS x86_64 12607.81.0) AppleWebKit/537.36 (KHTML, like Gecko) Chrome/79.0.3945.119 Safari/537.36",3,"[0.9, 0.5, 0.1]","[0.8, 0.4, 0.2]","[u'blue', u'red', u'black']","[u'left', u'middle', u'right']","[0.9, 0.5, 0.1]","[u'low', u'high', u'medium']","red",50,"middle","high","True","False",1174,300,NA
"A3NBLSA78ZXDNP","Wed Jan 29 2020 07:48:19 GMT-0600 (Central Standard Time)","Wed Jan 29 2020 07:55:20 GMT-0600 (Central Standard Time)","Mozilla/5.0 (X11; CrOS x86_64 12607.81.0) AppleWebKit/537.36 (KHTML, like Gecko) Chrome/79.0.3945.119 Safari/537.36",4,"[0.9, 0.5, 0.1]","[0.8, 0.4, 0.2]","[u'blue', u'red', u'black']","[u'left', u'middle', u'right']","[0.9, 0.5, 0.1]","[u'low', u'high', u'medium']","blue",49,"left","low","False","False",543,250,NA
"A3NBLSA78ZXDNP","Wed Jan 29 2020 07:48:19 GMT-0600 (Central Standard Time)","Wed Jan 29 2020 07:55:20 GMT-0600 (Central Standard Time)","Mozilla/5.0 (X11; CrOS x86_64 12607.81.0) AppleWebKit/537.36 (KHTML, like Gecko) Chrome/79.0.3945.119 Safari/537.36",5,"[0.9, 0.5, 0.1]","[0.8, 0.4, 0.2]","[u'blue', u'red', u'black']","[u'left', u'middle', u'right']","[0.9, 0.5, 0.1]","[u'low', u'high', u'medium']","black",51,"right","medium","False","False",729,200,NA
"A3NBLSA78ZXDNP","Wed Jan 29 2020 07:48:19 GMT-0600 (Central Standard Time)","Wed Jan 29 2020 07:55:20 GMT-0600 (Central Standard Time)","Mozilla/5.0 (X11; CrOS x86_64 12607.81.0) AppleWebKit/537.36 (KHTML, like Gecko) Chrome/79.0.3945.119 Safari/537.36",6,"[0.9, 0.5, 0.1]","[0.8, 0.4, 0.2]","[u'blue', u'red', u'black']","[u'left', u'middle', u'right']","[0.9, 0.5, 0.1]","[u'low', u'high', u'medium']","red",50,"middle","high","True","False",508,300,NA
"A3NBLSA78ZXDNP","Wed Jan 29 2020 07:48:19 GMT-0600 (Central Standard Time)","Wed Jan 29 2020 07:55:20 GMT-0600 (Central Standard Time)","Mozilla/5.0 (X11; CrOS x86_64 12607.81.0) AppleWebKit/537.36 (KHTML, like Gecko) Chrome/79.0.3945.119 Safari/537.36",7,"[0.9, 0.5, 0.1]","[0.8, 0.4, 0.2]","[u'blue', u'red', u'black']","[u'left', u'middle', u'right']","[0.9, 0.5, 0.1]","[u'low', u'high', u'medium']","red",50,"middle","high","True","False",446,400,NA
"A3NBLSA78ZXDNP","Wed Jan 29 2020 07:48:19 GMT-0600 (Central Standard Time)","Wed Jan 29 2020 07:55:20 GMT-0600 (Central Standard Time)","Mozilla/5.0 (X11; CrOS x86_64 12607.81.0) AppleWebKit/537.36 (KHTML, like Gecko) Chrome/79.0.3945.119 Safari/537.36",8,"[0.9, 0.5, 0.1]","[0.8, 0.4, 0.2]","[u'blue', u'red', u'black']","[u'left', u'middle', u'right']","[0.9, 0.5, 0.1]","[u'low', u'high', u'medium']","blue",49,"left","low","False","False",421,350,NA
"A3NBLSA78ZXDNP","Wed Jan 29 2020 07:48:19 GMT-0600 (Central Standard Time)","Wed Jan 29 2020 07:55:20 GMT-0600 (Central Standard Time)","Mozilla/5.0 (X11; CrOS x86_64 12607.81.0) AppleWebKit/537.36 (KHTML, like Gecko) Chrome/79.0.3945.119 Safari/537.36",9,"[0.9, 0.5, 0.1]","[0.8, 0.4, 0.2]","[u'blue', u'red', u'black']","[u'left', u'middle', u'right']","[0.9, 0.5, 0.1]","[u'low', u'high', u'medium']","black",51,"right","medium","True","False",848,450,NA
"A3NBLSA78ZXDNP","Wed Jan 29 2020 07:48:19 GMT-0600 (Central Standard Time)","Wed Jan 29 2020 07:55:20 GMT-0600 (Central Standard Time)","Mozilla/5.0 (X11; CrOS x86_64 12607.81.0) AppleWebKit/537.36 (KHTML, like Gecko) Chrome/79.0.3945.119 Safari/537.36",10,"[0.9, 0.5, 0.1]","[0.8, 0.4, 0.2]","[u'blue', u'red', u'black']","[u'left', u'middle', u'right']","[0.9, 0.5, 0.1]","[u'low', u'high', u'medium']","black",51,"right","medium","False","False",953,400,NA
"A3NBLSA78ZXDNP","Wed Jan 29 2020 07:48:19 GMT-0600 (Central Standard Time)","Wed Jan 29 2020 07:55:20 GMT-0600 (Central Standard Time)","Mozilla/5.0 (X11; CrOS x86_64 12607.81.0) AppleWebKit/537.36 (KHTML, like Gecko) Chrome/79.0.3945.119 Safari/537.36",11,"[0.9, 0.5, 0.1]","[0.8, 0.4, 0.2]","[u'blue', u'red', u'black']","[u'left', u'middle', u'right']","[0.9, 0.5, 0.1]","[u'low', u'high', u'medium']","red",50,"middle","high","True","False",396,500,NA
"A3NBLSA78ZXDNP","Wed Jan 29 2020 07:48:19 GMT-0600 (Central Standard Time)","Wed Jan 29 2020 07:55:20 GMT-0600 (Central Standard Time)","Mozilla/5.0 (X11; CrOS x86_64 12607.81.0) AppleWebKit/537.36 (KHTML, like Gecko) Chrome/79.0.3945.119 Safari/537.36",12,"[0.9, 0.5, 0.1]","[0.8, 0.4, 0.2]","[u'blue', u'red', u'black']","[u'left', u'middle', u'right']","[0.9, 0.5, 0.1]","[u'low', u'high', u'medium']","black",51,"right","medium","True","False",693,600,NA
"A3NBLSA78ZXDNP","Wed Jan 29 2020 07:48:19 GMT-0600 (Central Standard Time)","Wed Jan 29 2020 07:55:20 GMT-0600 (Central Standard Time)","Mozilla/5.0 (X11; CrOS x86_64 12607.81.0) AppleWebKit/537.36 (KHTML, like Gecko) Chrome/79.0.3945.119 Safari/537.36",13,"[0.9, 0.5, 0.1]","[0.8, 0.4, 0.2]","[u'blue', u'red', u'black']","[u'left', u'middle', u'right']","[0.9, 0.5, 0.1]","[u'low', u'high', u'medium']","blue",49,"left","low","False","False",598,550,NA
"A3NBLSA78ZXDNP","Wed Jan 29 2020 07:48:19 GMT-0600 (Central Standard Time)","Wed Jan 29 2020 07:55:20 GMT-0600 (Central Standard Time)","Mozilla/5.0 (X11; CrOS x86_64 12607.81.0) AppleWebKit/537.36 (KHTML, like Gecko) Chrome/79.0.3945.119 Safari/537.36",14,"[0.9, 0.5, 0.1]","[0.8, 0.4, 0.2]","[u'blue', u'red', u'black']","[u'left', u'middle', u'right']","[0.9, 0.5, 0.1]","[u'low', u'high', u'medium']","blue",49,"left","low","False","False",272,500,NA
"A3NBLSA78ZXDNP","Wed Jan 29 2020 07:48:19 GMT-0600 (Central Standard Time)","Wed Jan 29 2020 07:55:20 GMT-0600 (Central Standard Time)","Mozilla/5.0 (X11; CrOS x86_64 12607.81.0) AppleWebKit/537.36 (KHTML, like Gecko) Chrome/79.0.3945.119 Safari/537.36",15,"[0.9, 0.5, 0.1]","[0.8, 0.4, 0.2]","[u'blue', u'red', u'black']","[u'left', u'middle', u'right']","[0.9, 0.5, 0.1]","[u'low', u'high', u'medium']","red",50,"middle","high","True","False",337,600,NA
"A3NBLSA78ZXDNP","Wed Jan 29 2020 07:48:19 GMT-0600 (Central Standard Time)","Wed Jan 29 2020 07:55:20 GMT-0600 (Central Standard Time)","Mozilla/5.0 (X11; CrOS x86_64 12607.81.0) AppleWebKit/537.36 (KHTML, like Gecko) Chrome/79.0.3945.119 Safari/537.36",16,"[0.9, 0.5, 0.1]","[0.8, 0.4, 0.2]","[u'blue', u'red', u'black']","[u'left', u'middle', u'right']","[0.9, 0.5, 0.1]","[u'low', u'high', u'medium']","black",51,"right","medium","False","False",169,550,NA
"A3NBLSA78ZXDNP","Wed Jan 29 2020 07:48:19 GMT-0600 (Central Standard Time)","Wed Jan 29 2020 07:55:20 GMT-0600 (Central Standard Time)","Mozilla/5.0 (X11; CrOS x86_64 12607.81.0) AppleWebKit/537.36 (KHTML, like Gecko) Chrome/79.0.3945.119 Safari/537.36",17,"[0.9, 0.5, 0.1]","[0.8, 0.4, 0.2]","[u'blue', u'red', u'black']","[u'left', u'middle', u'right']","[0.9, 0.5, 0.1]","[u'low', u'high', u'medium']","blue",49,"left","low","False","False",453,500,NA
"A3NBLSA78ZXDNP","Wed Jan 29 2020 07:48:19 GMT-0600 (Central Standard Time)","Wed Jan 29 2020 07:55:20 GMT-0600 (Central Standard Time)","Mozilla/5.0 (X11; CrOS x86_64 12607.81.0) AppleWebKit/537.36 (KHTML, like Gecko) Chrome/79.0.3945.119 Safari/537.36",18,"[0.9, 0.5, 0.1]","[0.8, 0.4, 0.2]","[u'blue', u'red', u'black']","[u'left', u'middle', u'right']","[0.9, 0.5, 0.1]","[u'low', u'high', u'medium']","red",50,"middle","high","True","False",232,600,NA
"A3NBLSA78ZXDNP","Wed Jan 29 2020 07:48:19 GMT-0600 (Central Standard Time)","Wed Jan 29 2020 07:55:20 GMT-0600 (Central Standard Time)","Mozilla/5.0 (X11; CrOS x86_64 12607.81.0) AppleWebKit/537.36 (KHTML, like Gecko) Chrome/79.0.3945.119 Safari/537.36",19,"[0.9, 0.5, 0.1]","[0.8, 0.4, 0.2]","[u'blue', u'red', u'black']","[u'left', u'middle', u'right']","[0.9, 0.5, 0.1]","[u'low', u'high', u'medium']","red",50,"middle","high","True","False",193,700,NA
"A3NBLSA78ZXDNP","Wed Jan 29 2020 07:48:19 GMT-0600 (Central Standard Time)","Wed Jan 29 2020 07:55:20 GMT-0600 (Central Standard Time)","Mozilla/5.0 (X11; CrOS x86_64 12607.81.0) AppleWebKit/537.36 (KHTML, like Gecko) Chrome/79.0.3945.119 Safari/537.36",20,"[0.9, 0.5, 0.1]","[0.8, 0.4, 0.2]","[u'blue', u'red', u'black']","[u'left', u'middle', u'right']","[0.9, 0.5, 0.1]","[u'low', u'high', u'medium']","black",51,"right","medium","False","False",684,650,NA
"A3NBLSA78ZXDNP","Wed Jan 29 2020 07:48:19 GMT-0600 (Central Standard Time)","Wed Jan 29 2020 07:55:20 GMT-0600 (Central Standard Time)","Mozilla/5.0 (X11; CrOS x86_64 12607.81.0) AppleWebKit/537.36 (KHTML, like Gecko) Chrome/79.0.3945.119 Safari/537.36",21,"[0.9, 0.5, 0.1]","[0.8, 0.4, 0.2]","[u'blue', u'red', u'black']","[u'left', u'middle', u'right']","[0.9, 0.5, 0.1]","[u'low', u'high', u'medium']","red",50,"middle","high","True","False",347,750,NA
"A3NBLSA78ZXDNP","Wed Jan 29 2020 07:48:19 GMT-0600 (Central Standard Time)","Wed Jan 29 2020 07:55:20 GMT-0600 (Central Standard Time)","Mozilla/5.0 (X11; CrOS x86_64 12607.81.0) AppleWebKit/537.36 (KHTML, like Gecko) Chrome/79.0.3945.119 Safari/537.36",22,"[0.9, 0.5, 0.1]","[0.8, 0.4, 0.2]","[u'blue', u'red', u'black']","[u'left', u'middle', u'right']","[0.9, 0.5, 0.1]","[u'low', u'high', u'medium']","red",50,"middle","high","True","False",427,850,NA
"A3NBLSA78ZXDNP","Wed Jan 29 2020 07:48:19 GMT-0600 (Central Standard Time)","Wed Jan 29 2020 07:55:20 GMT-0600 (Central Standard Time)","Mozilla/5.0 (X11; CrOS x86_64 12607.81.0) AppleWebKit/537.36 (KHTML, like Gecko) Chrome/79.0.3945.119 Safari/537.36",23,"[0.9, 0.5, 0.1]","[0.8, 0.4, 0.2]","[u'blue', u'red', u'black']","[u'left', u'middle', u'right']","[0.9, 0.5, 0.1]","[u'low', u'high', u'medium']","red",50,"middle","high","True","False",384,950,NA
"A3NBLSA78ZXDNP","Wed Jan 29 2020 07:48:19 GMT-0600 (Central Standard Time)","Wed Jan 29 2020 07:55:20 GMT-0600 (Central Standard Time)","Mozilla/5.0 (X11; CrOS x86_64 12607.81.0) AppleWebKit/537.36 (KHTML, like Gecko) Chrome/79.0.3945.119 Safari/537.36",24,"[0.9, 0.5, 0.1]","[0.8, 0.4, 0.2]","[u'blue', u'red', u'black']","[u'left', u'middle', u'right']","[0.9, 0.5, 0.1]","[u'low', u'high', u'medium']","red",50,"middle","high","True","False",323,1050,NA
"A3NBLSA78ZXDNP","Wed Jan 29 2020 07:48:19 GMT-0600 (Central Standard Time)","Wed Jan 29 2020 07:55:20 GMT-0600 (Central Standard Time)","Mozilla/5.0 (X11; CrOS x86_64 12607.81.0) AppleWebKit/537.36 (KHTML, like Gecko) Chrome/79.0.3945.119 Safari/537.36",25,"[0.9, 0.5, 0.1]","[0.8, 0.4, 0.2]","[u'blue', u'red', u'black']","[u'left', u'middle', u'right']","[0.9, 0.5, 0.1]","[u'low', u'high', u'medium']","red",50,"middle","high","True","False",237,1150,NA
"A3NBLSA78ZXDNP","Wed Jan 29 2020 07:48:19 GMT-0600 (Central Standard Time)","Wed Jan 29 2020 07:55:20 GMT-0600 (Central Standard Time)","Mozilla/5.0 (X11; CrOS x86_64 12607.81.0) AppleWebKit/537.36 (KHTML, like Gecko) Chrome/79.0.3945.119 Safari/537.36",26,"[0.9, 0.5, 0.1]","[0.8, 0.4, 0.2]","[u'blue', u'red', u'black']","[u'left', u'middle', u'right']","[0.9, 0.5, 0.1]","[u'low', u'high', u'medium']","red",50,"middle","high","True","False",56,1250,NA
"A3NBLSA78ZXDNP","Wed Jan 29 2020 07:48:19 GMT-0600 (Central Standard Time)","Wed Jan 29 2020 07:55:20 GMT-0600 (Central Standard Time)","Mozilla/5.0 (X11; CrOS x86_64 12607.81.0) AppleWebKit/537.36 (KHTML, like Gecko) Chrome/79.0.3945.119 Safari/537.36",27,"[0.9, 0.5, 0.1]","[0.8, 0.4, 0.2]","[u'blue', u'red', u'black']","[u'left', u'middle', u'right']","[0.9, 0.5, 0.1]","[u'low', u'high', u'medium']","red",50,"middle","high","True","True",96,1350,NA
"A3NBLSA78ZXDNP","Wed Jan 29 2020 07:48:19 GMT-0600 (Central Standard Time)","Wed Jan 29 2020 07:55:20 GMT-0600 (Central Standard Time)","Mozilla/5.0 (X11; CrOS x86_64 12607.81.0) AppleWebKit/537.36 (KHTML, like Gecko) Chrome/79.0.3945.119 Safari/537.36",28,"[0.9, 0.5, 0.1]","[0.8, 0.4, 0.2]","[u'blue', u'red', u'black']","[u'left', u'middle', u'right']","[0.9, 0.5, 0.1]","[u'high', u'low', u'medium']","red",50,"middle","low","False","False",1167,1300,NA
"A3NBLSA78ZXDNP","Wed Jan 29 2020 07:48:19 GMT-0600 (Central Standard Time)","Wed Jan 29 2020 07:55:20 GMT-0600 (Central Standard Time)","Mozilla/5.0 (X11; CrOS x86_64 12607.81.0) AppleWebKit/537.36 (KHTML, like Gecko) Chrome/79.0.3945.119 Safari/537.36",29,"[0.9, 0.5, 0.1]","[0.8, 0.4, 0.2]","[u'blue', u'red', u'black']","[u'left', u'middle', u'right']","[0.9, 0.5, 0.1]","[u'high', u'low', u'medium']","red",50,"middle","low","True","False",794,1400,NA
"A3NBLSA78ZXDNP","Wed Jan 29 2020 07:48:19 GMT-0600 (Central Standard Time)","Wed Jan 29 2020 07:55:20 GMT-0600 (Central Standard Time)","Mozilla/5.0 (X11; CrOS x86_64 12607.81.0) AppleWebKit/537.36 (KHTML, like Gecko) Chrome/79.0.3945.119 Safari/537.36",30,"[0.9, 0.5, 0.1]","[0.8, 0.4, 0.2]","[u'blue', u'red', u'black']","[u'left', u'middle', u'right']","[0.9, 0.5, 0.1]","[u'high', u'low', u'medium']","red",50,"middle","low","False","False",346,1350,NA
"A3NBLSA78ZXDNP","Wed Jan 29 2020 07:48:19 GMT-0600 (Central Standard Time)","Wed Jan 29 2020 07:55:20 GMT-0600 (Central Standard Time)","Mozilla/5.0 (X11; CrOS x86_64 12607.81.0) AppleWebKit/537.36 (KHTML, like Gecko) Chrome/79.0.3945.119 Safari/537.36",31,"[0.9, 0.5, 0.1]","[0.8, 0.4, 0.2]","[u'blue', u'red', u'black']","[u'left', u'middle', u'right']","[0.9, 0.5, 0.1]","[u'high', u'low', u'medium']","red",50,"middle","low","False","False",174,1300,NA
"A3NBLSA78ZXDNP","Wed Jan 29 2020 07:48:19 GMT-0600 (Central Standard Time)","Wed Jan 29 2020 07:55:20 GMT-0600 (Central Standard Time)","Mozilla/5.0 (X11; CrOS x86_64 12607.81.0) AppleWebKit/537.36 (KHTML, like Gecko) Chrome/79.0.3945.119 Safari/537.36",32,"[0.9, 0.5, 0.1]","[0.8, 0.4, 0.2]","[u'blue', u'red', u'black']","[u'left', u'middle', u'right']","[0.9, 0.5, 0.1]","[u'high', u'low', u'medium']","blue",49,"left","high","True","False",890,1400,NA
"A3NBLSA78ZXDNP","Wed Jan 29 2020 07:48:19 GMT-0600 (Central Standard Time)","Wed Jan 29 2020 07:55:20 GMT-0600 (Central Standard Time)","Mozilla/5.0 (X11; CrOS x86_64 12607.81.0) AppleWebKit/537.36 (KHTML, like Gecko) Chrome/79.0.3945.119 Safari/537.36",33,"[0.9, 0.5, 0.1]","[0.8, 0.4, 0.2]","[u'blue', u'red', u'black']","[u'left', u'middle', u'right']","[0.9, 0.5, 0.1]","[u'high', u'low', u'medium']","red",50,"middle","low","False","False",366,1350,NA
"A3NBLSA78ZXDNP","Wed Jan 29 2020 07:48:19 GMT-0600 (Central Standard Time)","Wed Jan 29 2020 07:55:20 GMT-0600 (Central Standard Time)","Mozilla/5.0 (X11; CrOS x86_64 12607.81.0) AppleWebKit/537.36 (KHTML, like Gecko) Chrome/79.0.3945.119 Safari/537.36",34,"[0.9, 0.5, 0.1]","[0.8, 0.4, 0.2]","[u'blue', u'red', u'black']","[u'left', u'middle', u'right']","[0.9, 0.5, 0.1]","[u'high', u'low', u'medium']","black",51,"right","medium","False","False",312,1300,NA
"A3NBLSA78ZXDNP","Wed Jan 29 2020 07:48:19 GMT-0600 (Central Standard Time)","Wed Jan 29 2020 07:55:20 GMT-0600 (Central Standard Time)","Mozilla/5.0 (X11; CrOS x86_64 12607.81.0) AppleWebKit/537.36 (KHTML, like Gecko) Chrome/79.0.3945.119 Safari/537.36",35,"[0.9, 0.5, 0.1]","[0.8, 0.4, 0.2]","[u'blue', u'red', u'black']","[u'left', u'middle', u'right']","[0.9, 0.5, 0.1]","[u'high', u'low', u'medium']","black",51,"right","medium","False","False",194,1250,NA
"A3NBLSA78ZXDNP","Wed Jan 29 2020 07:48:19 GMT-0600 (Central Standard Time)","Wed Jan 29 2020 07:55:20 GMT-0600 (Central Standard Time)","Mozilla/5.0 (X11; CrOS x86_64 12607.81.0) AppleWebKit/537.36 (KHTML, like Gecko) Chrome/79.0.3945.119 Safari/537.36",36,"[0.9, 0.5, 0.1]","[0.8, 0.4, 0.2]","[u'blue', u'red', u'black']","[u'left', u'middle', u'right']","[0.9, 0.5, 0.1]","[u'high', u'low', u'medium']","black",51,"right","medium","False","False",298,1200,NA
"A3NBLSA78ZXDNP","Wed Jan 29 2020 07:48:19 GMT-0600 (Central Standard Time)","Wed Jan 29 2020 07:55:20 GMT-0600 (Central Standard Time)","Mozilla/5.0 (X11; CrOS x86_64 12607.81.0) AppleWebKit/537.36 (KHTML, like Gecko) Chrome/79.0.3945.119 Safari/537.36",37,"[0.9, 0.5, 0.1]","[0.8, 0.4, 0.2]","[u'blue', u'red', u'black']","[u'left', u'middle', u'right']","[0.9, 0.5, 0.1]","[u'high', u'low', u'medium']","black",51,"right","medium","True","False",185,1300,NA
"A3NBLSA78ZXDNP","Wed Jan 29 2020 07:48:19 GMT-0600 (Central Standard Time)","Wed Jan 29 2020 07:55:20 GMT-0600 (Central Standard Time)","Mozilla/5.0 (X11; CrOS x86_64 12607.81.0) AppleWebKit/537.36 (KHTML, like Gecko) Chrome/79.0.3945.119 Safari/537.36",38,"[0.9, 0.5, 0.1]","[0.8, 0.4, 0.2]","[u'blue', u'red', u'black']","[u'left', u'middle', u'right']","[0.9, 0.5, 0.1]","[u'high', u'low', u'medium']","black",51,"right","medium","True","False",397,1400,NA
"A3NBLSA78ZXDNP","Wed Jan 29 2020 07:48:19 GMT-0600 (Central Standard Time)","Wed Jan 29 2020 07:55:20 GMT-0600 (Central Standard Time)","Mozilla/5.0 (X11; CrOS x86_64 12607.81.0) AppleWebKit/537.36 (KHTML, like Gecko) Chrome/79.0.3945.119 Safari/537.36",39,"[0.9, 0.5, 0.1]","[0.8, 0.4, 0.2]","[u'blue', u'red', u'black']","[u'left', u'middle', u'right']","[0.9, 0.5, 0.1]","[u'high', u'low', u'medium']","red",50,"middle","low","False","False",349,1350,NA
"A3NBLSA78ZXDNP","Wed Jan 29 2020 07:48:19 GMT-0600 (Central Standard Time)","Wed Jan 29 2020 07:55:20 GMT-0600 (Central Standard Time)","Mozilla/5.0 (X11; CrOS x86_64 12607.81.0) AppleWebKit/537.36 (KHTML, like Gecko) Chrome/79.0.3945.119 Safari/537.36",40,"[0.9, 0.5, 0.1]","[0.8, 0.4, 0.2]","[u'blue', u'red', u'black']","[u'left', u'middle', u'right']","[0.9, 0.5, 0.1]","[u'high', u'low', u'medium']","red",50,"middle","low","False","False",251,1300,NA
"A3NBLSA78ZXDNP","Wed Jan 29 2020 07:48:19 GMT-0600 (Central Standard Time)","Wed Jan 29 2020 07:55:20 GMT-0600 (Central Standard Time)","Mozilla/5.0 (X11; CrOS x86_64 12607.81.0) AppleWebKit/537.36 (KHTML, like Gecko) Chrome/79.0.3945.119 Safari/537.36",41,"[0.9, 0.5, 0.1]","[0.8, 0.4, 0.2]","[u'blue', u'red', u'black']","[u'left', u'middle', u'right']","[0.9, 0.5, 0.1]","[u'medium', u'low', u'high']","blue",49,"left","medium","True","False",792,1400,NA
"A3NBLSA78ZXDNP","Wed Jan 29 2020 07:48:19 GMT-0600 (Central Standard Time)","Wed Jan 29 2020 07:55:20 GMT-0600 (Central Standard Time)","Mozilla/5.0 (X11; CrOS x86_64 12607.81.0) AppleWebKit/537.36 (KHTML, like Gecko) Chrome/79.0.3945.119 Safari/537.36",42,"[0.9, 0.5, 0.1]","[0.8, 0.4, 0.2]","[u'blue', u'red', u'black']","[u'left', u'middle', u'right']","[0.9, 0.5, 0.1]","[u'medium', u'low', u'high']","blue",49,"left","medium","True","False",392,1500,NA
"A3NBLSA78ZXDNP","Wed Jan 29 2020 07:48:19 GMT-0600 (Central Standard Time)","Wed Jan 29 2020 07:55:20 GMT-0600 (Central Standard Time)","Mozilla/5.0 (X11; CrOS x86_64 12607.81.0) AppleWebKit/537.36 (KHTML, like Gecko) Chrome/79.0.3945.119 Safari/537.36",43,"[0.9, 0.5, 0.1]","[0.8, 0.4, 0.2]","[u'blue', u'red', u'black']","[u'left', u'middle', u'right']","[0.9, 0.5, 0.1]","[u'medium', u'low', u'high']","red",50,"middle","low","True","False",350,1600,NA
"A3NBLSA78ZXDNP","Wed Jan 29 2020 07:48:19 GMT-0600 (Central Standard Time)","Wed Jan 29 2020 07:55:20 GMT-0600 (Central Standard Time)","Mozilla/5.0 (X11; CrOS x86_64 12607.81.0) AppleWebKit/537.36 (KHTML, like Gecko) Chrome/79.0.3945.119 Safari/537.36",44,"[0.9, 0.5, 0.1]","[0.8, 0.4, 0.2]","[u'blue', u'red', u'black']","[u'left', u'middle', u'right']","[0.9, 0.5, 0.1]","[u'medium', u'low', u'high']","red",50,"middle","low","True","False",366,1700,NA
"A3NBLSA78ZXDNP","Wed Jan 29 2020 07:48:19 GMT-0600 (Central Standard Time)","Wed Jan 29 2020 07:55:20 GMT-0600 (Central Standard Time)","Mozilla/5.0 (X11; CrOS x86_64 12607.81.0) AppleWebKit/537.36 (KHTML, like Gecko) Chrome/79.0.3945.119 Safari/537.36",45,"[0.9, 0.5, 0.1]","[0.8, 0.4, 0.2]","[u'blue', u'red', u'black']","[u'left', u'middle', u'right']","[0.9, 0.5, 0.1]","[u'medium', u'low', u'high']","red",50,"middle","low","False","False",628,1650,NA
"A3NBLSA78ZXDNP","Wed Jan 29 2020 07:48:19 GMT-0600 (Central Standard Time)","Wed Jan 29 2020 07:55:20 GMT-0600 (Central Standard Time)","Mozilla/5.0 (X11; CrOS x86_64 12607.81.0) AppleWebKit/537.36 (KHTML, like Gecko) Chrome/79.0.3945.119 Safari/537.36",46,"[0.9, 0.5, 0.1]","[0.8, 0.4, 0.2]","[u'blue', u'red', u'black']","[u'left', u'middle', u'right']","[0.9, 0.5, 0.1]","[u'medium', u'low', u'high']","black",51,"right","high","True","False",260,1750,NA
"A3NBLSA78ZXDNP","Wed Jan 29 2020 07:48:19 GMT-0600 (Central Standard Time)","Wed Jan 29 2020 07:55:20 GMT-0600 (Central Standard Time)","Mozilla/5.0 (X11; CrOS x86_64 12607.81.0) AppleWebKit/537.36 (KHTML, like Gecko) Chrome/79.0.3945.119 Safari/537.36",47,"[0.9, 0.5, 0.1]","[0.8, 0.4, 0.2]","[u'blue', u'red', u'black']","[u'left', u'middle', u'right']","[0.9, 0.5, 0.1]","[u'medium', u'low', u'high']","black",51,"right","high","True","False",404,1850,NA
"A3NBLSA78ZXDNP","Wed Jan 29 2020 07:48:19 GMT-0600 (Central Standard Time)","Wed Jan 29 2020 07:55:20 GMT-0600 (Central Standard Time)","Mozilla/5.0 (X11; CrOS x86_64 12607.81.0) AppleWebKit/537.36 (KHTML, like Gecko) Chrome/79.0.3945.119 Safari/537.36",48,"[0.9, 0.5, 0.1]","[0.8, 0.4, 0.2]","[u'blue', u'red', u'black']","[u'left', u'middle', u'right']","[0.9, 0.5, 0.1]","[u'medium', u'low', u'high']","black",51,"right","high","True","False",335,1950,NA
"A3NBLSA78ZXDNP","Wed Jan 29 2020 07:48:19 GMT-0600 (Central Standard Time)","Wed Jan 29 2020 07:55:20 GMT-0600 (Central Standard Time)","Mozilla/5.0 (X11; CrOS x86_64 12607.81.0) AppleWebKit/537.36 (KHTML, like Gecko) Chrome/79.0.3945.119 Safari/537.36",49,"[0.9, 0.5, 0.1]","[0.8, 0.4, 0.2]","[u'blue', u'red', u'black']","[u'left', u'middle', u'right']","[0.9, 0.5, 0.1]","[u'medium', u'low', u'high']","red",50,"middle","low","False","False",211,1900,NA
"A3NBLSA78ZXDNP","Wed Jan 29 2020 07:48:19 GMT-0600 (Central Standard Time)","Wed Jan 29 2020 07:55:20 GMT-0600 (Central Standard Time)","Mozilla/5.0 (X11; CrOS x86_64 12607.81.0) AppleWebKit/537.36 (KHTML, like Gecko) Chrome/79.0.3945.119 Safari/537.36",50,"[0.9, 0.5, 0.1]","[0.8, 0.4, 0.2]","[u'blue', u'red', u'black']","[u'left', u'middle', u'right']","[0.9, 0.5, 0.1]","[u'medium', u'low', u'high']","black",51,"right","high","False","False",154,1850,NA
"A3NBLSA78ZXDNP","Wed Jan 29 2020 07:48:19 GMT-0600 (Central Standard Time)","Wed Jan 29 2020 07:55:20 GMT-0600 (Central Standard Time)","Mozilla/5.0 (X11; CrOS x86_64 12607.81.0) AppleWebKit/537.36 (KHTML, like Gecko) Chrome/79.0.3945.119 Safari/537.36",51,"[0.9, 0.5, 0.1]","[0.8, 0.4, 0.2]","[u'blue', u'red', u'black']","[u'left', u'middle', u'right']","[0.9, 0.5, 0.1]","[u'medium', u'low', u'high']","black",51,"right","high","True","False",221,1950,NA
"A3NBLSA78ZXDNP","Wed Jan 29 2020 07:48:19 GMT-0600 (Central Standard Time)","Wed Jan 29 2020 07:55:20 GMT-0600 (Central Standard Time)","Mozilla/5.0 (X11; CrOS x86_64 12607.81.0) AppleWebKit/537.36 (KHTML, like Gecko) Chrome/79.0.3945.119 Safari/537.36",52,"[0.9, 0.5, 0.1]","[0.8, 0.4, 0.2]","[u'blue', u'red', u'black']","[u'left', u'middle', u'right']","[0.9, 0.5, 0.1]","[u'medium', u'low', u'high']","black",51,"right","high","False","False",301,1900,NA
"A3NBLSA78ZXDNP","Wed Jan 29 2020 07:48:19 GMT-0600 (Central Standard Time)","Wed Jan 29 2020 07:55:20 GMT-0600 (Central Standard Time)","Mozilla/5.0 (X11; CrOS x86_64 12607.81.0) AppleWebKit/537.36 (KHTML, like Gecko) Chrome/79.0.3945.119 Safari/537.36",53,"[0.9, 0.5, 0.1]","[0.8, 0.4, 0.2]","[u'blue', u'red', u'black']","[u'left', u'middle', u'right']","[0.9, 0.5, 0.1]","[u'medium', u'low', u'high']","black",51,"right","high","True","False",190,2000,NA
"A3NBLSA78ZXDNP","Wed Jan 29 2020 07:48:19 GMT-0600 (Central Standard Time)","Wed Jan 29 2020 07:55:20 GMT-0600 (Central Standard Time)","Mozilla/5.0 (X11; CrOS x86_64 12607.81.0) AppleWebKit/537.36 (KHTML, like Gecko) Chrome/79.0.3945.119 Safari/537.36",54,"[0.9, 0.5, 0.1]","[0.8, 0.4, 0.2]","[u'blue', u'red', u'black']","[u'left', u'middle', u'right']","[0.9, 0.5, 0.1]","[u'medium', u'low', u'high']","red",50,"middle","low","False","False",345,1950,NA
"A3NBLSA78ZXDNP","Wed Jan 29 2020 07:48:19 GMT-0600 (Central Standard Time)","Wed Jan 29 2020 07:55:20 GMT-0600 (Central Standard Time)","Mozilla/5.0 (X11; CrOS x86_64 12607.81.0) AppleWebKit/537.36 (KHTML, like Gecko) Chrome/79.0.3945.119 Safari/537.36",55,"[0.9, 0.5, 0.1]","[0.8, 0.4, 0.2]","[u'blue', u'red', u'black']","[u'left', u'middle', u'right']","[0.9, 0.5, 0.1]","[u'medium', u'low', u'high']","red",50,"middle","low","False","False",94,1900,NA
"A3NBLSA78ZXDNP","Wed Jan 29 2020 07:48:19 GMT-0600 (Central Standard Time)","Wed Jan 29 2020 07:55:20 GMT-0600 (Central Standard Time)","Mozilla/5.0 (X11; CrOS x86_64 12607.81.0) AppleWebKit/537.36 (KHTML, like Gecko) Chrome/79.0.3945.119 Safari/537.36",56,"[0.9, 0.5, 0.1]","[0.8, 0.4, 0.2]","[u'blue', u'red', u'black']","[u'left', u'middle', u'right']","[0.9, 0.5, 0.1]","[u'medium', u'low', u'high']","red",50,"middle","low","False","False",26,1850,NA
"A3NBLSA78ZXDNP","Wed Jan 29 2020 07:48:19 GMT-0600 (Central Standard Time)","Wed Jan 29 2020 07:55:20 GMT-0600 (Central Standard Time)","Mozilla/5.0 (X11; CrOS x86_64 12607.81.0) AppleWebKit/537.36 (KHTML, like Gecko) Chrome/79.0.3945.119 Safari/537.36",57,"[0.9, 0.5, 0.1]","[0.8, 0.4, 0.2]","[u'blue', u'red', u'black']","[u'left', u'middle', u'right']","[0.9, 0.5, 0.1]","[u'medium', u'low', u'high']","red",50,"middle","low","False","False",82,1800,NA
"A3NBLSA78ZXDNP","Wed Jan 29 2020 07:48:19 GMT-0600 (Central Standard Time)","Wed Jan 29 2020 07:55:20 GMT-0600 (Central Standard Time)","Mozilla/5.0 (X11; CrOS x86_64 12607.81.0) AppleWebKit/537.36 (KHTML, like Gecko) Chrome/79.0.3945.119 Safari/537.36",58,"[0.9, 0.5, 0.1]","[0.8, 0.4, 0.2]","[u'blue', u'red', u'black']","[u'left', u'middle', u'right']","[0.9, 0.5, 0.1]","[u'medium', u'low', u'high']","red",50,"middle","low","False","False",56,1750,NA
"A3NBLSA78ZXDNP","Wed Jan 29 2020 07:48:19 GMT-0600 (Central Standard Time)","Wed Jan 29 2020 07:55:20 GMT-0600 (Central Standard Time)","Mozilla/5.0 (X11; CrOS x86_64 12607.81.0) AppleWebKit/537.36 (KHTML, like Gecko) Chrome/79.0.3945.119 Safari/537.36",59,"[0.9, 0.5, 0.1]","[0.8, 0.4, 0.2]","[u'blue', u'red', u'black']","[u'left', u'middle', u'right']","[0.9, 0.5, 0.1]","[u'medium', u'low', u'high']","red",50,"middle","low","False","False",34,1700,NA
"A3NBLSA78ZXDNP","Wed Jan 29 2020 07:48:19 GMT-0600 (Central Standard Time)","Wed Jan 29 2020 07:55:20 GMT-0600 (Central Standard Time)","Mozilla/5.0 (X11; CrOS x86_64 12607.81.0) AppleWebKit/537.36 (KHTML, like Gecko) Chrome/79.0.3945.119 Safari/537.36",60,"[0.9, 0.5, 0.1]","[0.8, 0.4, 0.2]","[u'blue', u'red', u'black']","[u'left', u'middle', u'right']","[0.9, 0.5, 0.1]","[u'medium', u'low', u'high']","red",50,"middle","low","False","False",6,1650,NA
"A3NBLSA78ZXDNP","Wed Jan 29 2020 07:48:19 GMT-0600 (Central Standard Time)","Wed Jan 29 2020 07:55:20 GMT-0600 (Central Standard Time)","Mozilla/5.0 (X11; CrOS x86_64 12607.81.0) AppleWebKit/537.36 (KHTML, like Gecko) Chrome/79.0.3945.119 Safari/537.36",61,"[0.9, 0.5, 0.1]","[0.8, 0.4, 0.2]","[u'blue', u'red', u'black']","[u'left', u'middle', u'right']","[0.9, 0.5, 0.1]","[u'medium', u'low', u'high']","red",50,"middle","low","False","False",24,1600,NA
"A3NBLSA78ZXDNP","Wed Jan 29 2020 07:48:19 GMT-0600 (Central Standard Time)","Wed Jan 29 2020 07:55:20 GMT-0600 (Central Standard Time)","Mozilla/5.0 (X11; CrOS x86_64 12607.81.0) AppleWebKit/537.36 (KHTML, like Gecko) Chrome/79.0.3945.119 Safari/537.36",62,"[0.9, 0.5, 0.1]","[0.8, 0.4, 0.2]","[u'blue', u'red', u'black']","[u'left', u'middle', u'right']","[0.9, 0.5, 0.1]","[u'medium', u'low', u'high']","red",50,"middle","low","False","False",7,1550,NA
"A3NBLSA78ZXDNP","Wed Jan 29 2020 07:48:19 GMT-0600 (Central Standard Time)","Wed Jan 29 2020 07:55:20 GMT-0600 (Central Standard Time)","Mozilla/5.0 (X11; CrOS x86_64 12607.81.0) AppleWebKit/537.36 (KHTML, like Gecko) Chrome/79.0.3945.119 Safari/537.36",63,"[0.9, 0.5, 0.1]","[0.8, 0.4, 0.2]","[u'blue', u'red', u'black']","[u'left', u'middle', u'right']","[0.9, 0.5, 0.1]","[u'medium', u'low', u'high']","red",50,"middle","low","False","False",55,1500,NA
"A3NBLSA78ZXDNP","Wed Jan 29 2020 07:48:19 GMT-0600 (Central Standard Time)","Wed Jan 29 2020 07:55:20 GMT-0600 (Central Standard Time)","Mozilla/5.0 (X11; CrOS x86_64 12607.81.0) AppleWebKit/537.36 (KHTML, like Gecko) Chrome/79.0.3945.119 Safari/537.36",64,"[0.9, 0.5, 0.1]","[0.8, 0.4, 0.2]","[u'blue', u'red', u'black']","[u'left', u'middle', u'right']","[0.9, 0.5, 0.1]","[u'medium', u'low', u'high']","red",50,"middle","low","True","False",9,1600,NA
"A3NBLSA78ZXDNP","Wed Jan 29 2020 07:48:19 GMT-0600 (Central Standard Time)","Wed Jan 29 2020 07:55:20 GMT-0600 (Central Standard Time)","Mozilla/5.0 (X11; CrOS x86_64 12607.81.0) AppleWebKit/537.36 (KHTML, like Gecko) Chrome/79.0.3945.119 Safari/537.36",65,"[0.9, 0.5, 0.1]","[0.8, 0.4, 0.2]","[u'blue', u'red', u'black']","[u'left', u'middle', u'right']","[0.9, 0.5, 0.1]","[u'medium', u'low', u'high']","red",50,"middle","low","False","False",40,1550,NA
"A3NBLSA78ZXDNP","Wed Jan 29 2020 07:48:19 GMT-0600 (Central Standard Time)","Wed Jan 29 2020 07:55:20 GMT-0600 (Central Standard Time)","Mozilla/5.0 (X11; CrOS x86_64 12607.81.0) AppleWebKit/537.36 (KHTML, like Gecko) Chrome/79.0.3945.119 Safari/537.36",66,"[0.9, 0.5, 0.1]","[0.8, 0.4, 0.2]","[u'blue', u'red', u'black']","[u'left', u'middle', u'right']","[0.9, 0.5, 0.1]","[u'medium', u'low', u'high']","black",51,"right","high","True","False",14,1650,NA
"A3NBLSA78ZXDNP","Wed Jan 29 2020 07:48:19 GMT-0600 (Central Standard Time)","Wed Jan 29 2020 07:55:20 GMT-0600 (Central Standard Time)","Mozilla/5.0 (X11; CrOS x86_64 12607.81.0) AppleWebKit/537.36 (KHTML, like Gecko) Chrome/79.0.3945.119 Safari/537.36",67,"[0.9, 0.5, 0.1]","[0.8, 0.4, 0.2]","[u'blue', u'red', u'black']","[u'left', u'middle', u'right']","[0.9, 0.5, 0.1]","[u'medium', u'low', u'high']","black",51,"right","high","False","False",251,1600,NA
"A3NBLSA78ZXDNP","Wed Jan 29 2020 07:48:19 GMT-0600 (Central Standard Time)","Wed Jan 29 2020 07:55:20 GMT-0600 (Central Standard Time)","Mozilla/5.0 (X11; CrOS x86_64 12607.81.0) AppleWebKit/537.36 (KHTML, like Gecko) Chrome/79.0.3945.119 Safari/537.36",68,"[0.9, 0.5, 0.1]","[0.8, 0.4, 0.2]","[u'blue', u'red', u'black']","[u'left', u'middle', u'right']","[0.9, 0.5, 0.1]","[u'medium', u'low', u'high']","blue",49,"left","medium","False","False",685,1550,NA
"A3NBLSA78ZXDNP","Wed Jan 29 2020 07:48:19 GMT-0600 (Central Standard Time)","Wed Jan 29 2020 07:55:20 GMT-0600 (Central Standard Time)","Mozilla/5.0 (X11; CrOS x86_64 12607.81.0) AppleWebKit/537.36 (KHTML, like Gecko) Chrome/79.0.3945.119 Safari/537.36",69,"[0.9, 0.5, 0.1]","[0.8, 0.4, 0.2]","[u'blue', u'red', u'black']","[u'left', u'middle', u'right']","[0.9, 0.5, 0.1]","[u'medium', u'low', u'high']","blue",49,"left","medium","False","False",671,1500,NA
"A3NBLSA78ZXDNP","Wed Jan 29 2020 07:48:19 GMT-0600 (Central Standard Time)","Wed Jan 29 2020 07:55:20 GMT-0600 (Central Standard Time)","Mozilla/5.0 (X11; CrOS x86_64 12607.81.0) AppleWebKit/537.36 (KHTML, like Gecko) Chrome/79.0.3945.119 Safari/537.36",70,"[0.9, 0.5, 0.1]","[0.8, 0.4, 0.2]","[u'blue', u'red', u'black']","[u'left', u'middle', u'right']","[0.9, 0.5, 0.1]","[u'medium', u'low', u'high']","blue",49,"left","medium","False","False",189,1450,NA
"A3NBLSA78ZXDNP","Wed Jan 29 2020 07:48:19 GMT-0600 (Central Standard Time)","Wed Jan 29 2020 07:55:20 GMT-0600 (Central Standard Time)","Mozilla/5.0 (X11; CrOS x86_64 12607.81.0) AppleWebKit/537.36 (KHTML, like Gecko) Chrome/79.0.3945.119 Safari/537.36",71,"[0.9, 0.5, 0.1]","[0.8, 0.4, 0.2]","[u'blue', u'red', u'black']","[u'left', u'middle', u'right']","[0.9, 0.5, 0.1]","[u'medium', u'low', u'high']","red",50,"middle","low","False","False",607,1400,NA
"A3NBLSA78ZXDNP","Wed Jan 29 2020 07:48:19 GMT-0600 (Central Standard Time)","Wed Jan 29 2020 07:55:20 GMT-0600 (Central Standard Time)","Mozilla/5.0 (X11; CrOS x86_64 12607.81.0) AppleWebKit/537.36 (KHTML, like Gecko) Chrome/79.0.3945.119 Safari/537.36",72,"[0.9, 0.5, 0.1]","[0.8, 0.4, 0.2]","[u'blue', u'red', u'black']","[u'left', u'middle', u'right']","[0.9, 0.5, 0.1]","[u'medium', u'low', u'high']","red",50,"middle","low","False","False",70,1350,NA
"A3NBLSA78ZXDNP","Wed Jan 29 2020 07:48:19 GMT-0600 (Central Standard Time)","Wed Jan 29 2020 07:55:20 GMT-0600 (Central Standard Time)","Mozilla/5.0 (X11; CrOS x86_64 12607.81.0) AppleWebKit/537.36 (KHTML, like Gecko) Chrome/79.0.3945.119 Safari/537.36",73,"[0.9, 0.5, 0.1]","[0.8, 0.4, 0.2]","[u'blue', u'red', u'black']","[u'left', u'middle', u'right']","[0.9, 0.5, 0.1]","[u'medium', u'low', u'high']","black",51,"right","high","True","False",605,1450,NA
"A3NBLSA78ZXDNP","Wed Jan 29 2020 07:48:19 GMT-0600 (Central Standard Time)","Wed Jan 29 2020 07:55:20 GMT-0600 (Central Standard Time)","Mozilla/5.0 (X11; CrOS x86_64 12607.81.0) AppleWebKit/537.36 (KHTML, like Gecko) Chrome/79.0.3945.119 Safari/537.36",74,"[0.9, 0.5, 0.1]","[0.8, 0.4, 0.2]","[u'blue', u'red', u'black']","[u'left', u'middle', u'right']","[0.9, 0.5, 0.1]","[u'medium', u'low', u'high']","black",51,"right","high","True","False",69,1550,NA
"A3NBLSA78ZXDNP","Wed Jan 29 2020 07:48:19 GMT-0600 (Central Standard Time)","Wed Jan 29 2020 07:55:20 GMT-0600 (Central Standard Time)","Mozilla/5.0 (X11; CrOS x86_64 12607.81.0) AppleWebKit/537.36 (KHTML, like Gecko) Chrome/79.0.3945.119 Safari/537.36",75,"[0.9, 0.5, 0.1]","[0.8, 0.4, 0.2]","[u'blue', u'red', u'black']","[u'left', u'middle', u'right']","[0.9, 0.5, 0.1]","[u'medium', u'low', u'high']","black",51,"right","high","True","False",209,1650,NA
"A3NBLSA78ZXDNP","Wed Jan 29 2020 07:48:19 GMT-0600 (Central Standard Time)","Wed Jan 29 2020 07:55:20 GMT-0600 (Central Standard Time)","Mozilla/5.0 (X11; CrOS x86_64 12607.81.0) AppleWebKit/537.36 (KHTML, like Gecko) Chrome/79.0.3945.119 Safari/537.36",76,"[0.9, 0.5, 0.1]","[0.8, 0.4, 0.2]","[u'blue', u'red', u'black']","[u'left', u'middle', u'right']","[0.9, 0.5, 0.1]","[u'medium', u'low', u'high']","red",50,"middle","low","False","False",42,1600,NA
"A3NBLSA78ZXDNP","Wed Jan 29 2020 07:48:19 GMT-0600 (Central Standard Time)","Wed Jan 29 2020 07:55:20 GMT-0600 (Central Standard Time)","Mozilla/5.0 (X11; CrOS x86_64 12607.81.0) AppleWebKit/537.36 (KHTML, like Gecko) Chrome/79.0.3945.119 Safari/537.36",77,"[0.9, 0.5, 0.1]","[0.8, 0.4, 0.2]","[u'blue', u'red', u'black']","[u'left', u'middle', u'right']","[0.9, 0.5, 0.1]","[u'medium', u'low', u'high']","black",51,"right","high","True","False",36,1700,NA
"A3NBLSA78ZXDNP","Wed Jan 29 2020 07:48:19 GMT-0600 (Central Standard Time)","Wed Jan 29 2020 07:55:20 GMT-0600 (Central Standard Time)","Mozilla/5.0 (X11; CrOS x86_64 12607.81.0) AppleWebKit/537.36 (KHTML, like Gecko) Chrome/79.0.3945.119 Safari/537.36",78,"[0.9, 0.5, 0.1]","[0.8, 0.4, 0.2]","[u'blue', u'red', u'black']","[u'left', u'middle', u'right']","[0.9, 0.5, 0.1]","[u'medium', u'low', u'high']","black",51,"right","high","True","False",712,1800,NA
"A3NBLSA78ZXDNP","Wed Jan 29 2020 07:48:19 GMT-0600 (Central Standard Time)","Wed Jan 29 2020 07:55:20 GMT-0600 (Central Standard Time)","Mozilla/5.0 (X11; CrOS x86_64 12607.81.0) AppleWebKit/537.36 (KHTML, like Gecko) Chrome/79.0.3945.119 Safari/537.36",79,"[0.9, 0.5, 0.1]","[0.8, 0.4, 0.2]","[u'blue', u'red', u'black']","[u'left', u'middle', u'right']","[0.9, 0.5, 0.1]","[u'medium', u'low', u'high']","black",51,"right","high","True","False",395,1900,NA
"A3NBLSA78ZXDNP","Wed Jan 29 2020 07:48:19 GMT-0600 (Central Standard Time)","Wed Jan 29 2020 07:55:20 GMT-0600 (Central Standard Time)","Mozilla/5.0 (X11; CrOS x86_64 12607.81.0) AppleWebKit/537.36 (KHTML, like Gecko) Chrome/79.0.3945.119 Safari/537.36",80,"[0.9, 0.5, 0.1]","[0.8, 0.4, 0.2]","[u'blue', u'red', u'black']","[u'left', u'middle', u'right']","[0.9, 0.5, 0.1]","[u'medium', u'low', u'high']","black",51,"right","high","True","False",107,2000,NA
"A3NBLSA78ZXDNP","Wed Jan 29 2020 07:48:19 GMT-0600 (Central Standard Time)","Wed Jan 29 2020 07:55:20 GMT-0600 (Central Standard Time)","Mozilla/5.0 (X11; CrOS x86_64 12607.81.0) AppleWebKit/537.36 (KHTML, like Gecko) Chrome/79.0.3945.119 Safari/537.36",81,"[0.9, 0.5, 0.1]","[0.8, 0.4, 0.2]","[u'blue', u'red', u'black']","[u'left', u'middle', u'right']","[0.8, 0.4, 0.2]","[u'low', u'high', u'medium']","black",51,"right","medium","False","False",489,1950,NA
"A3NBLSA78ZXDNP","Wed Jan 29 2020 07:48:19 GMT-0600 (Central Standard Time)","Wed Jan 29 2020 07:55:20 GMT-0600 (Central Standard Time)","Mozilla/5.0 (X11; CrOS x86_64 12607.81.0) AppleWebKit/537.36 (KHTML, like Gecko) Chrome/79.0.3945.119 Safari/537.36",82,"[0.9, 0.5, 0.1]","[0.8, 0.4, 0.2]","[u'blue', u'red', u'black']","[u'left', u'middle', u'right']","[0.8, 0.4, 0.2]","[u'low', u'high', u'medium']","black",51,"right","medium","False","False",228,1900,NA
"A3NBLSA78ZXDNP","Wed Jan 29 2020 07:48:19 GMT-0600 (Central Standard Time)","Wed Jan 29 2020 07:55:20 GMT-0600 (Central Standard Time)","Mozilla/5.0 (X11; CrOS x86_64 12607.81.0) AppleWebKit/537.36 (KHTML, like Gecko) Chrome/79.0.3945.119 Safari/537.36",83,"[0.9, 0.5, 0.1]","[0.8, 0.4, 0.2]","[u'blue', u'red', u'black']","[u'left', u'middle', u'right']","[0.8, 0.4, 0.2]","[u'low', u'high', u'medium']","black",51,"right","medium","False","False",48,1850,NA
"A3NBLSA78ZXDNP","Wed Jan 29 2020 07:48:19 GMT-0600 (Central Standard Time)","Wed Jan 29 2020 07:55:20 GMT-0600 (Central Standard Time)","Mozilla/5.0 (X11; CrOS x86_64 12607.81.0) AppleWebKit/537.36 (KHTML, like Gecko) Chrome/79.0.3945.119 Safari/537.36",84,"[0.9, 0.5, 0.1]","[0.8, 0.4, 0.2]","[u'blue', u'red', u'black']","[u'left', u'middle', u'right']","[0.8, 0.4, 0.2]","[u'low', u'high', u'medium']","red",50,"middle","high","True","False",412,1950,NA
"A3NBLSA78ZXDNP","Wed Jan 29 2020 07:48:19 GMT-0600 (Central Standard Time)","Wed Jan 29 2020 07:55:20 GMT-0600 (Central Standard Time)","Mozilla/5.0 (X11; CrOS x86_64 12607.81.0) AppleWebKit/537.36 (KHTML, like Gecko) Chrome/79.0.3945.119 Safari/537.36",85,"[0.9, 0.5, 0.1]","[0.8, 0.4, 0.2]","[u'blue', u'red', u'black']","[u'left', u'middle', u'right']","[0.8, 0.4, 0.2]","[u'low', u'high', u'medium']","red",50,"middle","high","True","False",397,2050,NA
"A3NBLSA78ZXDNP","Wed Jan 29 2020 07:48:19 GMT-0600 (Central Standard Time)","Wed Jan 29 2020 07:55:20 GMT-0600 (Central Standard Time)","Mozilla/5.0 (X11; CrOS x86_64 12607.81.0) AppleWebKit/537.36 (KHTML, like Gecko) Chrome/79.0.3945.119 Safari/537.36",86,"[0.9, 0.5, 0.1]","[0.8, 0.4, 0.2]","[u'blue', u'red', u'black']","[u'left', u'middle', u'right']","[0.8, 0.4, 0.2]","[u'low', u'high', u'medium']","red",50,"middle","high","True","False",720,2150,NA
"A3NBLSA78ZXDNP","Wed Jan 29 2020 07:48:19 GMT-0600 (Central Standard Time)","Wed Jan 29 2020 07:55:20 GMT-0600 (Central Standard Time)","Mozilla/5.0 (X11; CrOS x86_64 12607.81.0) AppleWebKit/537.36 (KHTML, like Gecko) Chrome/79.0.3945.119 Safari/537.36",87,"[0.9, 0.5, 0.1]","[0.8, 0.4, 0.2]","[u'blue', u'red', u'black']","[u'left', u'middle', u'right']","[0.8, 0.4, 0.2]","[u'low', u'high', u'medium']","red",50,"middle","high","True","False",606,2250,NA
"A3NBLSA78ZXDNP","Wed Jan 29 2020 07:48:19 GMT-0600 (Central Standard Time)","Wed Jan 29 2020 07:55:20 GMT-0600 (Central Standard Time)","Mozilla/5.0 (X11; CrOS x86_64 12607.81.0) AppleWebKit/537.36 (KHTML, like Gecko) Chrome/79.0.3945.119 Safari/537.36",88,"[0.9, 0.5, 0.1]","[0.8, 0.4, 0.2]","[u'blue', u'red', u'black']","[u'left', u'middle', u'right']","[0.8, 0.4, 0.2]","[u'low', u'high', u'medium']","red",50,"middle","high","True","False",825,2350,NA
"A3NBLSA78ZXDNP","Wed Jan 29 2020 07:48:19 GMT-0600 (Central Standard Time)","Wed Jan 29 2020 07:55:20 GMT-0600 (Central Standard Time)","Mozilla/5.0 (X11; CrOS x86_64 12607.81.0) AppleWebKit/537.36 (KHTML, like Gecko) Chrome/79.0.3945.119 Safari/537.36",89,"[0.9, 0.5, 0.1]","[0.8, 0.4, 0.2]","[u'blue', u'red', u'black']","[u'left', u'middle', u'right']","[0.8, 0.4, 0.2]","[u'low', u'high', u'medium']","red",50,"middle","high","True","False",450,2450,NA
"A3NBLSA78ZXDNP","Wed Jan 29 2020 07:48:19 GMT-0600 (Central Standard Time)","Wed Jan 29 2020 07:55:20 GMT-0600 (Central Standard Time)","Mozilla/5.0 (X11; CrOS x86_64 12607.81.0) AppleWebKit/537.36 (KHTML, like Gecko) Chrome/79.0.3945.119 Safari/537.36",90,"[0.9, 0.5, 0.1]","[0.8, 0.4, 0.2]","[u'blue', u'red', u'black']","[u'left', u'middle', u'right']","[0.8, 0.4, 0.2]","[u'low', u'high', u'medium']","red",50,"middle","high","True","False",285,2550,NA
"A3NBLSA78ZXDNP","Wed Jan 29 2020 07:48:19 GMT-0600 (Central Standard Time)","Wed Jan 29 2020 07:55:20 GMT-0600 (Central Standard Time)","Mozilla/5.0 (X11; CrOS x86_64 12607.81.0) AppleWebKit/537.36 (KHTML, like Gecko) Chrome/79.0.3945.119 Safari/537.36",91,"[0.9, 0.5, 0.1]","[0.8, 0.4, 0.2]","[u'blue', u'red', u'black']","[u'left', u'middle', u'right']","[0.8, 0.4, 0.2]","[u'low', u'high', u'medium']","red",50,"middle","high","True","False",630,2650,NA
"A3NBLSA78ZXDNP","Wed Jan 29 2020 07:48:19 GMT-0600 (Central Standard Time)","Wed Jan 29 2020 07:55:20 GMT-0600 (Central Standard Time)","Mozilla/5.0 (X11; CrOS x86_64 12607.81.0) AppleWebKit/537.36 (KHTML, like Gecko) Chrome/79.0.3945.119 Safari/537.36",92,"[0.9, 0.5, 0.1]","[0.8, 0.4, 0.2]","[u'blue', u'red', u'black']","[u'left', u'middle', u'right']","[0.8, 0.4, 0.2]","[u'low', u'high', u'medium']","red",50,"middle","high","True","True",518,2750,NA
"A3NBLSA78ZXDNP","Wed Jan 29 2020 07:48:19 GMT-0600 (Central Standard Time)","Wed Jan 29 2020 07:55:20 GMT-0600 (Central Standard Time)","Mozilla/5.0 (X11; CrOS x86_64 12607.81.0) AppleWebKit/537.36 (KHTML, like Gecko) Chrome/79.0.3945.119 Safari/537.36",93,"[0.9, 0.5, 0.1]","[0.8, 0.4, 0.2]","[u'blue', u'red', u'black']","[u'left', u'middle', u'right']","[0.8, 0.4, 0.2]","[u'high', u'medium', u'low']","red",50,"middle","medium","False","False",467,2700,NA
"A3NBLSA78ZXDNP","Wed Jan 29 2020 07:48:19 GMT-0600 (Central Standard Time)","Wed Jan 29 2020 07:55:20 GMT-0600 (Central Standard Time)","Mozilla/5.0 (X11; CrOS x86_64 12607.81.0) AppleWebKit/537.36 (KHTML, like Gecko) Chrome/79.0.3945.119 Safari/537.36",94,"[0.9, 0.5, 0.1]","[0.8, 0.4, 0.2]","[u'blue', u'red', u'black']","[u'left', u'middle', u'right']","[0.8, 0.4, 0.2]","[u'high', u'medium', u'low']","black",51,"right","low","False","False",654,2650,NA
"A3NBLSA78ZXDNP","Wed Jan 29 2020 07:48:19 GMT-0600 (Central Standard Time)","Wed Jan 29 2020 07:55:20 GMT-0600 (Central Standard Time)","Mozilla/5.0 (X11; CrOS x86_64 12607.81.0) AppleWebKit/537.36 (KHTML, like Gecko) Chrome/79.0.3945.119 Safari/537.36",95,"[0.9, 0.5, 0.1]","[0.8, 0.4, 0.2]","[u'blue', u'red', u'black']","[u'left', u'middle', u'right']","[0.8, 0.4, 0.2]","[u'high', u'medium', u'low']","blue",49,"left","high","True","False",458,2750,NA
"A3NBLSA78ZXDNP","Wed Jan 29 2020 07:48:19 GMT-0600 (Central Standard Time)","Wed Jan 29 2020 07:55:20 GMT-0600 (Central Standard Time)","Mozilla/5.0 (X11; CrOS x86_64 12607.81.0) AppleWebKit/537.36 (KHTML, like Gecko) Chrome/79.0.3945.119 Safari/537.36",96,"[0.9, 0.5, 0.1]","[0.8, 0.4, 0.2]","[u'blue', u'red', u'black']","[u'left', u'middle', u'right']","[0.8, 0.4, 0.2]","[u'high', u'medium', u'low']","blue",49,"left","high","True","False",352,2850,NA
"A3NBLSA78ZXDNP","Wed Jan 29 2020 07:48:19 GMT-0600 (Central Standard Time)","Wed Jan 29 2020 07:55:20 GMT-0600 (Central Standard Time)","Mozilla/5.0 (X11; CrOS x86_64 12607.81.0) AppleWebKit/537.36 (KHTML, like Gecko) Chrome/79.0.3945.119 Safari/537.36",97,"[0.9, 0.5, 0.1]","[0.8, 0.4, 0.2]","[u'blue', u'red', u'black']","[u'left', u'middle', u'right']","[0.8, 0.4, 0.2]","[u'high', u'medium', u'low']","blue",49,"left","high","True","False",337,2950,NA
"A3NBLSA78ZXDNP","Wed Jan 29 2020 07:48:19 GMT-0600 (Central Standard Time)","Wed Jan 29 2020 07:55:20 GMT-0600 (Central Standard Time)","Mozilla/5.0 (X11; CrOS x86_64 12607.81.0) AppleWebKit/537.36 (KHTML, like Gecko) Chrome/79.0.3945.119 Safari/537.36",98,"[0.9, 0.5, 0.1]","[0.8, 0.4, 0.2]","[u'blue', u'red', u'black']","[u'left', u'middle', u'right']","[0.8, 0.4, 0.2]","[u'high', u'medium', u'low']","blue",49,"left","high","True","False",342,3050,NA
"A3NBLSA78ZXDNP","Wed Jan 29 2020 07:48:19 GMT-0600 (Central Standard Time)","Wed Jan 29 2020 07:55:20 GMT-0600 (Central Standard Time)","Mozilla/5.0 (X11; CrOS x86_64 12607.81.0) AppleWebKit/537.36 (KHTML, like Gecko) Chrome/79.0.3945.119 Safari/537.36",99,"[0.9, 0.5, 0.1]","[0.8, 0.4, 0.2]","[u'blue', u'red', u'black']","[u'left', u'middle', u'right']","[0.8, 0.4, 0.2]","[u'high', u'medium', u'low']","blue",49,"left","high","True","False",341,3150,NA
"A3NBLSA78ZXDNP","Wed Jan 29 2020 07:48:19 GMT-0600 (Central Standard Time)","Wed Jan 29 2020 07:55:20 GMT-0600 (Central Standard Time)","Mozilla/5.0 (X11; CrOS x86_64 12607.81.0) AppleWebKit/537.36 (KHTML, like Gecko) Chrome/79.0.3945.119 Safari/537.36",100,"[0.9, 0.5, 0.1]","[0.8, 0.4, 0.2]","[u'blue', u'red', u'black']","[u'left', u'middle', u'right']","[0.8, 0.4, 0.2]","[u'high', u'medium', u'low']","blue",49,"left","high","True","False",388,3250,NA
"A3NBLSA78ZXDNP","Wed Jan 29 2020 07:48:19 GMT-0600 (Central Standard Time)","Wed Jan 29 2020 07:55:20 GMT-0600 (Central Standard Time)","Mozilla/5.0 (X11; CrOS x86_64 12607.81.0) AppleWebKit/537.36 (KHTML, like Gecko) Chrome/79.0.3945.119 Safari/537.36",101,"[0.9, 0.5, 0.1]","[0.8, 0.4, 0.2]","[u'blue', u'red', u'black']","[u'left', u'middle', u'right']","[0.8, 0.4, 0.2]","[u'high', u'medium', u'low']","blue",49,"left","high","True","False",23,3350,NA
"A3NBLSA78ZXDNP","Wed Jan 29 2020 07:48:19 GMT-0600 (Central Standard Time)","Wed Jan 29 2020 07:55:20 GMT-0600 (Central Standard Time)","Mozilla/5.0 (X11; CrOS x86_64 12607.81.0) AppleWebKit/537.36 (KHTML, like Gecko) Chrome/79.0.3945.119 Safari/537.36",102,"[0.9, 0.5, 0.1]","[0.8, 0.4, 0.2]","[u'blue', u'red', u'black']","[u'left', u'middle', u'right']","[0.8, 0.4, 0.2]","[u'high', u'medium', u'low']","red",50,"middle","medium","True","False",92,3450,NA
"A3NBLSA78ZXDNP","Wed Jan 29 2020 07:48:19 GMT-0600 (Central Standard Time)","Wed Jan 29 2020 07:55:20 GMT-0600 (Central Standard Time)","Mozilla/5.0 (X11; CrOS x86_64 12607.81.0) AppleWebKit/537.36 (KHTML, like Gecko) Chrome/79.0.3945.119 Safari/537.36",103,"[0.9, 0.5, 0.1]","[0.8, 0.4, 0.2]","[u'blue', u'red', u'black']","[u'left', u'middle', u'right']","[0.8, 0.4, 0.2]","[u'high', u'medium', u'low']","red",50,"middle","medium","True","False",118,3550,NA
"A3NBLSA78ZXDNP","Wed Jan 29 2020 07:48:19 GMT-0600 (Central Standard Time)","Wed Jan 29 2020 07:55:20 GMT-0600 (Central Standard Time)","Mozilla/5.0 (X11; CrOS x86_64 12607.81.0) AppleWebKit/537.36 (KHTML, like Gecko) Chrome/79.0.3945.119 Safari/537.36",104,"[0.9, 0.5, 0.1]","[0.8, 0.4, 0.2]","[u'blue', u'red', u'black']","[u'left', u'middle', u'right']","[0.8, 0.4, 0.2]","[u'high', u'medium', u'low']","red",50,"middle","medium","False","False",37,3500,NA
"A3NBLSA78ZXDNP","Wed Jan 29 2020 07:48:19 GMT-0600 (Central Standard Time)","Wed Jan 29 2020 07:55:20 GMT-0600 (Central Standard Time)","Mozilla/5.0 (X11; CrOS x86_64 12607.81.0) AppleWebKit/537.36 (KHTML, like Gecko) Chrome/79.0.3945.119 Safari/537.36",105,"[0.9, 0.5, 0.1]","[0.8, 0.4, 0.2]","[u'blue', u'red', u'black']","[u'left', u'middle', u'right']","[0.8, 0.4, 0.2]","[u'high', u'medium', u'low']","red",50,"middle","medium","True","False",109,3600,NA
"A3NBLSA78ZXDNP","Wed Jan 29 2020 07:48:19 GMT-0600 (Central Standard Time)","Wed Jan 29 2020 07:55:20 GMT-0600 (Central Standard Time)","Mozilla/5.0 (X11; CrOS x86_64 12607.81.0) AppleWebKit/537.36 (KHTML, like Gecko) Chrome/79.0.3945.119 Safari/537.36",106,"[0.9, 0.5, 0.1]","[0.8, 0.4, 0.2]","[u'blue', u'red', u'black']","[u'left', u'middle', u'right']","[0.8, 0.4, 0.2]","[u'high', u'medium', u'low']","red",50,"middle","medium","False","False",222,3550,NA
"A3NBLSA78ZXDNP","Wed Jan 29 2020 07:48:19 GMT-0600 (Central Standard Time)","Wed Jan 29 2020 07:55:20 GMT-0600 (Central Standard Time)","Mozilla/5.0 (X11; CrOS x86_64 12607.81.0) AppleWebKit/537.36 (KHTML, like Gecko) Chrome/79.0.3945.119 Safari/537.36",107,"[0.9, 0.5, 0.1]","[0.8, 0.4, 0.2]","[u'blue', u'red', u'black']","[u'left', u'middle', u'right']","[0.8, 0.4, 0.2]","[u'high', u'medium', u'low']","red",50,"middle","medium","False","False",45,3500,NA
"A3NBLSA78ZXDNP","Wed Jan 29 2020 07:48:19 GMT-0600 (Central Standard Time)","Wed Jan 29 2020 07:55:20 GMT-0600 (Central Standard Time)","Mozilla/5.0 (X11; CrOS x86_64 12607.81.0) AppleWebKit/537.36 (KHTML, like Gecko) Chrome/79.0.3945.119 Safari/537.36",108,"[0.9, 0.5, 0.1]","[0.8, 0.4, 0.2]","[u'blue', u'red', u'black']","[u'left', u'middle', u'right']","[0.8, 0.4, 0.2]","[u'high', u'medium', u'low']","blue",49,"left","high","True","False",191,3600,NA
"A3NBLSA78ZXDNP","Wed Jan 29 2020 07:48:19 GMT-0600 (Central Standard Time)","Wed Jan 29 2020 07:55:20 GMT-0600 (Central Standard Time)","Mozilla/5.0 (X11; CrOS x86_64 12607.81.0) AppleWebKit/537.36 (KHTML, like Gecko) Chrome/79.0.3945.119 Safari/537.36",109,"[0.9, 0.5, 0.1]","[0.8, 0.4, 0.2]","[u'blue', u'red', u'black']","[u'left', u'middle', u'right']","[0.8, 0.4, 0.2]","[u'high', u'medium', u'low']","blue",49,"left","high","True","False",461,3700,NA
"A3NBLSA78ZXDNP","Wed Jan 29 2020 07:48:19 GMT-0600 (Central Standard Time)","Wed Jan 29 2020 07:55:20 GMT-0600 (Central Standard Time)","Mozilla/5.0 (X11; CrOS x86_64 12607.81.0) AppleWebKit/537.36 (KHTML, like Gecko) Chrome/79.0.3945.119 Safari/537.36",110,"[0.9, 0.5, 0.1]","[0.8, 0.4, 0.2]","[u'blue', u'red', u'black']","[u'left', u'middle', u'right']","[0.8, 0.4, 0.2]","[u'high', u'medium', u'low']","blue",49,"left","high","True","False",247,3800,NA
"A3NBLSA78ZXDNP","Wed Jan 29 2020 07:48:19 GMT-0600 (Central Standard Time)","Wed Jan 29 2020 07:55:20 GMT-0600 (Central Standard Time)","Mozilla/5.0 (X11; CrOS x86_64 12607.81.0) AppleWebKit/537.36 (KHTML, like Gecko) Chrome/79.0.3945.119 Safari/537.36",111,"[0.9, 0.5, 0.1]","[0.8, 0.4, 0.2]","[u'blue', u'red', u'black']","[u'left', u'middle', u'right']","[0.8, 0.4, 0.2]","[u'high', u'medium', u'low']","blue",49,"left","high","True","False",210,3900,NA
"A3NBLSA78ZXDNP","Wed Jan 29 2020 07:48:19 GMT-0600 (Central Standard Time)","Wed Jan 29 2020 07:55:20 GMT-0600 (Central Standard Time)","Mozilla/5.0 (X11; CrOS x86_64 12607.81.0) AppleWebKit/537.36 (KHTML, like Gecko) Chrome/79.0.3945.119 Safari/537.36",112,"[0.9, 0.5, 0.1]","[0.8, 0.4, 0.2]","[u'blue', u'red', u'black']","[u'left', u'middle', u'right']","[0.8, 0.4, 0.2]","[u'high', u'medium', u'low']","red",50,"middle","medium","True","False",552,4000,NA
"A3NBLSA78ZXDNP","Wed Jan 29 2020 07:48:19 GMT-0600 (Central Standard Time)","Wed Jan 29 2020 07:55:20 GMT-0600 (Central Standard Time)","Mozilla/5.0 (X11; CrOS x86_64 12607.81.0) AppleWebKit/537.36 (KHTML, like Gecko) Chrome/79.0.3945.119 Safari/537.36",113,"[0.9, 0.5, 0.1]","[0.8, 0.4, 0.2]","[u'blue', u'red', u'black']","[u'left', u'middle', u'right']","[0.8, 0.4, 0.2]","[u'high', u'medium', u'low']","red",50,"middle","medium","False","False",488,3950,NA
"A3NBLSA78ZXDNP","Wed Jan 29 2020 07:48:19 GMT-0600 (Central Standard Time)","Wed Jan 29 2020 07:55:20 GMT-0600 (Central Standard Time)","Mozilla/5.0 (X11; CrOS x86_64 12607.81.0) AppleWebKit/537.36 (KHTML, like Gecko) Chrome/79.0.3945.119 Safari/537.36",114,"[0.9, 0.5, 0.1]","[0.8, 0.4, 0.2]","[u'blue', u'red', u'black']","[u'left', u'middle', u'right']","[0.8, 0.4, 0.2]","[u'high', u'medium', u'low']","blue",49,"left","high","False","False",430,3900,NA
"A3NBLSA78ZXDNP","Wed Jan 29 2020 07:48:19 GMT-0600 (Central Standard Time)","Wed Jan 29 2020 07:55:20 GMT-0600 (Central Standard Time)","Mozilla/5.0 (X11; CrOS x86_64 12607.81.0) AppleWebKit/537.36 (KHTML, like Gecko) Chrome/79.0.3945.119 Safari/537.36",115,"[0.9, 0.5, 0.1]","[0.8, 0.4, 0.2]","[u'blue', u'red', u'black']","[u'left', u'middle', u'right']","[0.8, 0.4, 0.2]","[u'high', u'medium', u'low']","black",51,"right","low","False","False",649,3850,NA
"A3NBLSA78ZXDNP","Wed Jan 29 2020 07:48:19 GMT-0600 (Central Standard Time)","Wed Jan 29 2020 07:55:20 GMT-0600 (Central Standard Time)","Mozilla/5.0 (X11; CrOS x86_64 12607.81.0) AppleWebKit/537.36 (KHTML, like Gecko) Chrome/79.0.3945.119 Safari/537.36",116,"[0.9, 0.5, 0.1]","[0.8, 0.4, 0.2]","[u'blue', u'red', u'black']","[u'left', u'middle', u'right']","[0.8, 0.4, 0.2]","[u'high', u'medium', u'low']","red",50,"middle","medium","False","False",682,3800,NA
"A3NBLSA78ZXDNP","Wed Jan 29 2020 07:48:19 GMT-0600 (Central Standard Time)","Wed Jan 29 2020 07:55:20 GMT-0600 (Central Standard Time)","Mozilla/5.0 (X11; CrOS x86_64 12607.81.0) AppleWebKit/537.36 (KHTML, like Gecko) Chrome/79.0.3945.119 Safari/537.36",117,"[0.9, 0.5, 0.1]","[0.8, 0.4, 0.2]","[u'blue', u'red', u'black']","[u'left', u'middle', u'right']","[0.8, 0.4, 0.2]","[u'high', u'medium', u'low']","black",51,"right","low","False","False",61,3750,NA
"A3NBLSA78ZXDNP","Wed Jan 29 2020 07:48:19 GMT-0600 (Central Standard Time)","Wed Jan 29 2020 07:55:20 GMT-0600 (Central Standard Time)","Mozilla/5.0 (X11; CrOS x86_64 12607.81.0) AppleWebKit/537.36 (KHTML, like Gecko) Chrome/79.0.3945.119 Safari/537.36",118,"[0.9, 0.5, 0.1]","[0.8, 0.4, 0.2]","[u'blue', u'red', u'black']","[u'left', u'middle', u'right']","[0.8, 0.4, 0.2]","[u'high', u'medium', u'low']","blue",49,"left","high","True","False",368,3850,NA
"A3NBLSA78ZXDNP","Wed Jan 29 2020 07:48:19 GMT-0600 (Central Standard Time)","Wed Jan 29 2020 07:55:20 GMT-0600 (Central Standard Time)","Mozilla/5.0 (X11; CrOS x86_64 12607.81.0) AppleWebKit/537.36 (KHTML, like Gecko) Chrome/79.0.3945.119 Safari/537.36",119,"[0.9, 0.5, 0.1]","[0.8, 0.4, 0.2]","[u'blue', u'red', u'black']","[u'left', u'middle', u'right']","[0.8, 0.4, 0.2]","[u'high', u'medium', u'low']","blue",49,"left","high","True","False",303,3950,NA
"A3NBLSA78ZXDNP","Wed Jan 29 2020 07:48:19 GMT-0600 (Central Standard Time)","Wed Jan 29 2020 07:55:20 GMT-0600 (Central Standard Time)","Mozilla/5.0 (X11; CrOS x86_64 12607.81.0) AppleWebKit/537.36 (KHTML, like Gecko) Chrome/79.0.3945.119 Safari/537.36",120,"[0.9, 0.5, 0.1]","[0.8, 0.4, 0.2]","[u'blue', u'red', u'black']","[u'left', u'middle', u'right']","[0.8, 0.4, 0.2]","[u'high', u'medium', u'low']","blue",49,"left","high","True","False",347,4050,NA
"A3NBLSA78ZXDNP","Wed Jan 29 2020 07:48:19 GMT-0600 (Central Standard Time)","Wed Jan 29 2020 07:55:20 GMT-0600 (Central Standard Time)","Mozilla/5.0 (X11; CrOS x86_64 12607.81.0) AppleWebKit/537.36 (KHTML, like Gecko) Chrome/79.0.3945.119 Safari/537.36",121,"[0.9, 0.5, 0.1]","[0.8, 0.4, 0.2]","[u'blue', u'red', u'black']","[u'left', u'middle', u'right']","[0.8, 0.4, 0.2]","[u'medium', u'low', u'high']","blue",49,"left","medium","False","False",581,4000,NA
"A3NBLSA78ZXDNP","Wed Jan 29 2020 07:48:19 GMT-0600 (Central Standard Time)","Wed Jan 29 2020 07:55:20 GMT-0600 (Central Standard Time)","Mozilla/5.0 (X11; CrOS x86_64 12607.81.0) AppleWebKit/537.36 (KHTML, like Gecko) Chrome/79.0.3945.119 Safari/537.36",122,"[0.9, 0.5, 0.1]","[0.8, 0.4, 0.2]","[u'blue', u'red', u'black']","[u'left', u'middle', u'right']","[0.8, 0.4, 0.2]","[u'medium', u'low', u'high']","red",50,"middle","low","False","False",231,3950,NA
"A3NBLSA78ZXDNP","Wed Jan 29 2020 07:48:19 GMT-0600 (Central Standard Time)","Wed Jan 29 2020 07:55:20 GMT-0600 (Central Standard Time)","Mozilla/5.0 (X11; CrOS x86_64 12607.81.0) AppleWebKit/537.36 (KHTML, like Gecko) Chrome/79.0.3945.119 Safari/537.36",123,"[0.9, 0.5, 0.1]","[0.8, 0.4, 0.2]","[u'blue', u'red', u'black']","[u'left', u'middle', u'right']","[0.8, 0.4, 0.2]","[u'medium', u'low', u'high']","black",51,"right","high","True","False",455,4050,NA
"A3NBLSA78ZXDNP","Wed Jan 29 2020 07:48:19 GMT-0600 (Central Standard Time)","Wed Jan 29 2020 07:55:20 GMT-0600 (Central Standard Time)","Mozilla/5.0 (X11; CrOS x86_64 12607.81.0) AppleWebKit/537.36 (KHTML, like Gecko) Chrome/79.0.3945.119 Safari/537.36",124,"[0.9, 0.5, 0.1]","[0.8, 0.4, 0.2]","[u'blue', u'red', u'black']","[u'left', u'middle', u'right']","[0.8, 0.4, 0.2]","[u'medium', u'low', u'high']","black",51,"right","high","True","False",102,4150,NA
"A3NBLSA78ZXDNP","Wed Jan 29 2020 07:48:19 GMT-0600 (Central Standard Time)","Wed Jan 29 2020 07:55:20 GMT-0600 (Central Standard Time)","Mozilla/5.0 (X11; CrOS x86_64 12607.81.0) AppleWebKit/537.36 (KHTML, like Gecko) Chrome/79.0.3945.119 Safari/537.36",125,"[0.9, 0.5, 0.1]","[0.8, 0.4, 0.2]","[u'blue', u'red', u'black']","[u'left', u'middle', u'right']","[0.8, 0.4, 0.2]","[u'medium', u'low', u'high']","black",51,"right","high","True","False",464,4250,NA
"A3NBLSA78ZXDNP","Wed Jan 29 2020 07:48:19 GMT-0600 (Central Standard Time)","Wed Jan 29 2020 07:55:20 GMT-0600 (Central Standard Time)","Mozilla/5.0 (X11; CrOS x86_64 12607.81.0) AppleWebKit/537.36 (KHTML, like Gecko) Chrome/79.0.3945.119 Safari/537.36",126,"[0.9, 0.5, 0.1]","[0.8, 0.4, 0.2]","[u'blue', u'red', u'black']","[u'left', u'middle', u'right']","[0.8, 0.4, 0.2]","[u'medium', u'low', u'high']","black",51,"right","high","True","False",296,4350,NA
"A3NBLSA78ZXDNP","Wed Jan 29 2020 07:48:19 GMT-0600 (Central Standard Time)","Wed Jan 29 2020 07:55:20 GMT-0600 (Central Standard Time)","Mozilla/5.0 (X11; CrOS x86_64 12607.81.0) AppleWebKit/537.36 (KHTML, like Gecko) Chrome/79.0.3945.119 Safari/537.36",127,"[0.9, 0.5, 0.1]","[0.8, 0.4, 0.2]","[u'blue', u'red', u'black']","[u'left', u'middle', u'right']","[0.8, 0.4, 0.2]","[u'medium', u'low', u'high']","black",51,"right","high","True","False",271,4450,NA
"A3NBLSA78ZXDNP","Wed Jan 29 2020 07:48:19 GMT-0600 (Central Standard Time)","Wed Jan 29 2020 07:55:20 GMT-0600 (Central Standard Time)","Mozilla/5.0 (X11; CrOS x86_64 12607.81.0) AppleWebKit/537.36 (KHTML, like Gecko) Chrome/79.0.3945.119 Safari/537.36",128,"[0.9, 0.5, 0.1]","[0.8, 0.4, 0.2]","[u'blue', u'red', u'black']","[u'left', u'middle', u'right']","[0.8, 0.4, 0.2]","[u'medium', u'low', u'high']","black",51,"right","high","True","False",267,4550,NA
"A3NBLSA78ZXDNP","Wed Jan 29 2020 07:48:19 GMT-0600 (Central Standard Time)","Wed Jan 29 2020 07:55:20 GMT-0600 (Central Standard Time)","Mozilla/5.0 (X11; CrOS x86_64 12607.81.0) AppleWebKit/537.36 (KHTML, like Gecko) Chrome/79.0.3945.119 Safari/537.36",129,"[0.9, 0.5, 0.1]","[0.8, 0.4, 0.2]","[u'blue', u'red', u'black']","[u'left', u'middle', u'right']","[0.8, 0.4, 0.2]","[u'medium', u'low', u'high']","black",51,"right","high","True","False",350,4650,NA
"A3NBLSA78ZXDNP","Wed Jan 29 2020 07:48:19 GMT-0600 (Central Standard Time)","Wed Jan 29 2020 07:55:20 GMT-0600 (Central Standard Time)","Mozilla/5.0 (X11; CrOS x86_64 12607.81.0) AppleWebKit/537.36 (KHTML, like Gecko) Chrome/79.0.3945.119 Safari/537.36",130,"[0.9, 0.5, 0.1]","[0.8, 0.4, 0.2]","[u'blue', u'red', u'black']","[u'left', u'middle', u'right']","[0.8, 0.4, 0.2]","[u'medium', u'low', u'high']","black",51,"right","high","True","False",385,4750,NA
"A3NBLSA78ZXDNP","Wed Jan 29 2020 07:48:19 GMT-0600 (Central Standard Time)","Wed Jan 29 2020 07:55:20 GMT-0600 (Central Standard Time)","Mozilla/5.0 (X11; CrOS x86_64 12607.81.0) AppleWebKit/537.36 (KHTML, like Gecko) Chrome/79.0.3945.119 Safari/537.36",131,"[0.9, 0.5, 0.1]","[0.8, 0.4, 0.2]","[u'blue', u'red', u'black']","[u'left', u'middle', u'right']","[0.8, 0.4, 0.2]","[u'medium', u'low', u'high']","black",51,"right","high","True","True",345,4850,NA
"A3NBLSA78ZXDNP","Wed Jan 29 2020 07:48:19 GMT-0600 (Central Standard Time)","Wed Jan 29 2020 07:55:20 GMT-0600 (Central Standard Time)","Mozilla/5.0 (X11; CrOS x86_64 12607.81.0) AppleWebKit/537.36 (KHTML, like Gecko) Chrome/79.0.3945.119 Safari/537.36",132,"[0.9, 0.5, 0.1]","[0.8, 0.4, 0.2]","[u'blue', u'red', u'black']","[u'left', u'middle', u'right']","[0.8, 0.4, 0.2]","[u'low', u'high', u'medium']","black",51,"right","medium","False","False",226,4800,NA
"A3NBLSA78ZXDNP","Wed Jan 29 2020 07:48:19 GMT-0600 (Central Standard Time)","Wed Jan 29 2020 07:55:20 GMT-0600 (Central Standard Time)","Mozilla/5.0 (X11; CrOS x86_64 12607.81.0) AppleWebKit/537.36 (KHTML, like Gecko) Chrome/79.0.3945.119 Safari/537.36",133,"[0.9, 0.5, 0.1]","[0.8, 0.4, 0.2]","[u'blue', u'red', u'black']","[u'left', u'middle', u'right']","[0.8, 0.4, 0.2]","[u'low', u'high', u'medium']","red",50,"middle","high","True","False",337,4900,NA
"A3NBLSA78ZXDNP","Wed Jan 29 2020 07:48:19 GMT-0600 (Central Standard Time)","Wed Jan 29 2020 07:55:20 GMT-0600 (Central Standard Time)","Mozilla/5.0 (X11; CrOS x86_64 12607.81.0) AppleWebKit/537.36 (KHTML, like Gecko) Chrome/79.0.3945.119 Safari/537.36",134,"[0.9, 0.5, 0.1]","[0.8, 0.4, 0.2]","[u'blue', u'red', u'black']","[u'left', u'middle', u'right']","[0.8, 0.4, 0.2]","[u'low', u'high', u'medium']","red",50,"middle","high","True","False",181,5000,NA
"A3NBLSA78ZXDNP","Wed Jan 29 2020 07:48:19 GMT-0600 (Central Standard Time)","Wed Jan 29 2020 07:55:20 GMT-0600 (Central Standard Time)","Mozilla/5.0 (X11; CrOS x86_64 12607.81.0) AppleWebKit/537.36 (KHTML, like Gecko) Chrome/79.0.3945.119 Safari/537.36",135,"[0.9, 0.5, 0.1]","[0.8, 0.4, 0.2]","[u'blue', u'red', u'black']","[u'left', u'middle', u'right']","[0.8, 0.4, 0.2]","[u'low', u'high', u'medium']","red",50,"middle","high","True","False",271,5100,NA
"A3NBLSA78ZXDNP","Wed Jan 29 2020 07:48:19 GMT-0600 (Central Standard Time)","Wed Jan 29 2020 07:55:20 GMT-0600 (Central Standard Time)","Mozilla/5.0 (X11; CrOS x86_64 12607.81.0) AppleWebKit/537.36 (KHTML, like Gecko) Chrome/79.0.3945.119 Safari/537.36",136,"[0.9, 0.5, 0.1]","[0.8, 0.4, 0.2]","[u'blue', u'red', u'black']","[u'left', u'middle', u'right']","[0.8, 0.4, 0.2]","[u'low', u'high', u'medium']","red",50,"middle","high","False","False",215,5050,NA
"A3NBLSA78ZXDNP","Wed Jan 29 2020 07:48:19 GMT-0600 (Central Standard Time)","Wed Jan 29 2020 07:55:20 GMT-0600 (Central Standard Time)","Mozilla/5.0 (X11; CrOS x86_64 12607.81.0) AppleWebKit/537.36 (KHTML, like Gecko) Chrome/79.0.3945.119 Safari/537.36",137,"[0.9, 0.5, 0.1]","[0.8, 0.4, 0.2]","[u'blue', u'red', u'black']","[u'left', u'middle', u'right']","[0.8, 0.4, 0.2]","[u'low', u'high', u'medium']","black",51,"right","medium","False","False",143,5000,NA
"A3NBLSA78ZXDNP","Wed Jan 29 2020 07:48:19 GMT-0600 (Central Standard Time)","Wed Jan 29 2020 07:55:20 GMT-0600 (Central Standard Time)","Mozilla/5.0 (X11; CrOS x86_64 12607.81.0) AppleWebKit/537.36 (KHTML, like Gecko) Chrome/79.0.3945.119 Safari/537.36",138,"[0.9, 0.5, 0.1]","[0.8, 0.4, 0.2]","[u'blue', u'red', u'black']","[u'left', u'middle', u'right']","[0.8, 0.4, 0.2]","[u'low', u'high', u'medium']","blue",49,"left","low","False","False",545,4950,NA
"A3NBLSA78ZXDNP","Wed Jan 29 2020 07:48:19 GMT-0600 (Central Standard Time)","Wed Jan 29 2020 07:55:20 GMT-0600 (Central Standard Time)","Mozilla/5.0 (X11; CrOS x86_64 12607.81.0) AppleWebKit/537.36 (KHTML, like Gecko) Chrome/79.0.3945.119 Safari/537.36",139,"[0.9, 0.5, 0.1]","[0.8, 0.4, 0.2]","[u'blue', u'red', u'black']","[u'left', u'middle', u'right']","[0.8, 0.4, 0.2]","[u'low', u'high', u'medium']","red",50,"middle","high","True","False",646,5050,NA
"A3NBLSA78ZXDNP","Wed Jan 29 2020 07:48:19 GMT-0600 (Central Standard Time)","Wed Jan 29 2020 07:55:20 GMT-0600 (Central Standard Time)","Mozilla/5.0 (X11; CrOS x86_64 12607.81.0) AppleWebKit/537.36 (KHTML, like Gecko) Chrome/79.0.3945.119 Safari/537.36",140,"[0.9, 0.5, 0.1]","[0.8, 0.4, 0.2]","[u'blue', u'red', u'black']","[u'left', u'middle', u'right']","[0.8, 0.4, 0.2]","[u'low', u'high', u'medium']","red",50,"middle","high","False","False",361,5000,NA
"A3NBLSA78ZXDNP","Wed Jan 29 2020 07:48:19 GMT-0600 (Central Standard Time)","Wed Jan 29 2020 07:55:20 GMT-0600 (Central Standard Time)","Mozilla/5.0 (X11; CrOS x86_64 12607.81.0) AppleWebKit/537.36 (KHTML, like Gecko) Chrome/79.0.3945.119 Safari/537.36",141,"[0.9, 0.5, 0.1]","[0.8, 0.4, 0.2]","[u'blue', u'red', u'black']","[u'left', u'middle', u'right']","[0.8, 0.4, 0.2]","[u'low', u'high', u'medium']","red",50,"middle","high","False","False",63,4950,NA
"A3NBLSA78ZXDNP","Wed Jan 29 2020 07:48:19 GMT-0600 (Central Standard Time)","Wed Jan 29 2020 07:55:20 GMT-0600 (Central Standard Time)","Mozilla/5.0 (X11; CrOS x86_64 12607.81.0) AppleWebKit/537.36 (KHTML, like Gecko) Chrome/79.0.3945.119 Safari/537.36",142,"[0.9, 0.5, 0.1]","[0.8, 0.4, 0.2]","[u'blue', u'red', u'black']","[u'left', u'middle', u'right']","[0.8, 0.4, 0.2]","[u'low', u'high', u'medium']","black",51,"right","medium","False","False",505,4900,NA
"A3NBLSA78ZXDNP","Wed Jan 29 2020 07:48:19 GMT-0600 (Central Standard Time)","Wed Jan 29 2020 07:55:20 GMT-0600 (Central Standard Time)","Mozilla/5.0 (X11; CrOS x86_64 12607.81.0) AppleWebKit/537.36 (KHTML, like Gecko) Chrome/79.0.3945.119 Safari/537.36",143,"[0.9, 0.5, 0.1]","[0.8, 0.4, 0.2]","[u'blue', u'red', u'black']","[u'left', u'middle', u'right']","[0.8, 0.4, 0.2]","[u'low', u'high', u'medium']","black",51,"right","medium","False","False",113,4850,NA
"A3NBLSA78ZXDNP","Wed Jan 29 2020 07:48:19 GMT-0600 (Central Standard Time)","Wed Jan 29 2020 07:55:20 GMT-0600 (Central Standard Time)","Mozilla/5.0 (X11; CrOS x86_64 12607.81.0) AppleWebKit/537.36 (KHTML, like Gecko) Chrome/79.0.3945.119 Safari/537.36",144,"[0.9, 0.5, 0.1]","[0.8, 0.4, 0.2]","[u'blue', u'red', u'black']","[u'left', u'middle', u'right']","[0.8, 0.4, 0.2]","[u'low', u'high', u'medium']","blue",49,"left","low","False","False",106,4800,NA
"A3NBLSA78ZXDNP","Wed Jan 29 2020 07:48:19 GMT-0600 (Central Standard Time)","Wed Jan 29 2020 07:55:20 GMT-0600 (Central Standard Time)","Mozilla/5.0 (X11; CrOS x86_64 12607.81.0) AppleWebKit/537.36 (KHTML, like Gecko) Chrome/79.0.3945.119 Safari/537.36",145,"[0.9, 0.5, 0.1]","[0.8, 0.4, 0.2]","[u'blue', u'red', u'black']","[u'left', u'middle', u'right']","[0.8, 0.4, 0.2]","[u'low', u'high', u'medium']","red",50,"middle","high","True","False",347,4900,NA
"A3NBLSA78ZXDNP","Wed Jan 29 2020 07:48:19 GMT-0600 (Central Standard Time)","Wed Jan 29 2020 07:55:20 GMT-0600 (Central Standard Time)","Mozilla/5.0 (X11; CrOS x86_64 12607.81.0) AppleWebKit/537.36 (KHTML, like Gecko) Chrome/79.0.3945.119 Safari/537.36",146,"[0.9, 0.5, 0.1]","[0.8, 0.4, 0.2]","[u'blue', u'red', u'black']","[u'left', u'middle', u'right']","[0.8, 0.4, 0.2]","[u'low', u'high', u'medium']","red",50,"middle","high","True","False",499,5000,NA
"A3NBLSA78ZXDNP","Wed Jan 29 2020 07:48:19 GMT-0600 (Central Standard Time)","Wed Jan 29 2020 07:55:20 GMT-0600 (Central Standard Time)","Mozilla/5.0 (X11; CrOS x86_64 12607.81.0) AppleWebKit/537.36 (KHTML, like Gecko) Chrome/79.0.3945.119 Safari/537.36",147,"[0.9, 0.5, 0.1]","[0.8, 0.4, 0.2]","[u'blue', u'red', u'black']","[u'left', u'middle', u'right']","[0.8, 0.4, 0.2]","[u'low', u'high', u'medium']","red",50,"middle","high","True","False",392,5100,NA
"A3NBLSA78ZXDNP","Wed Jan 29 2020 07:48:19 GMT-0600 (Central Standard Time)","Wed Jan 29 2020 07:55:20 GMT-0600 (Central Standard Time)","Mozilla/5.0 (X11; CrOS x86_64 12607.81.0) AppleWebKit/537.36 (KHTML, like Gecko) Chrome/79.0.3945.119 Safari/537.36",148,"[0.9, 0.5, 0.1]","[0.8, 0.4, 0.2]","[u'blue', u'red', u'black']","[u'left', u'middle', u'right']","[0.8, 0.4, 0.2]","[u'low', u'high', u'medium']","red",50,"middle","high","True","False",506,5200,NA
"A3NBLSA78ZXDNP","Wed Jan 29 2020 07:48:19 GMT-0600 (Central Standard Time)","Wed Jan 29 2020 07:55:20 GMT-0600 (Central Standard Time)","Mozilla/5.0 (X11; CrOS x86_64 12607.81.0) AppleWebKit/537.36 (KHTML, like Gecko) Chrome/79.0.3945.119 Safari/537.36",149,"[0.9, 0.5, 0.1]","[0.8, 0.4, 0.2]","[u'blue', u'red', u'black']","[u'left', u'middle', u'right']","[0.8, 0.4, 0.2]","[u'low', u'high', u'medium']","red",50,"middle","high","False","False",605,5150,NA
"A3NBLSA78ZXDNP","Wed Jan 29 2020 07:48:19 GMT-0600 (Central Standard Time)","Wed Jan 29 2020 07:55:20 GMT-0600 (Central Standard Time)","Mozilla/5.0 (X11; CrOS x86_64 12607.81.0) AppleWebKit/537.36 (KHTML, like Gecko) Chrome/79.0.3945.119 Safari/537.36",150,"[0.9, 0.5, 0.1]","[0.8, 0.4, 0.2]","[u'blue', u'red', u'black']","[u'left', u'middle', u'right']","[0.8, 0.4, 0.2]","[u'low', u'high', u'medium']","black",51,"right","medium","False","False",267,5100,NA
"A3NBLSA78ZXDNP","Wed Jan 29 2020 07:48:19 GMT-0600 (Central Standard Time)","Wed Jan 29 2020 07:55:20 GMT-0600 (Central Standard Time)","Mozilla/5.0 (X11; CrOS x86_64 12607.81.0) AppleWebKit/537.36 (KHTML, like Gecko) Chrome/79.0.3945.119 Safari/537.36",151,"[0.9, 0.5, 0.1]","[0.8, 0.4, 0.2]","[u'blue', u'red', u'black']","[u'left', u'middle', u'right']","[0.8, 0.4, 0.2]","[u'low', u'high', u'medium']","blue",49,"left","low","False","False",79,5050,NA
"A3NBLSA78ZXDNP","Wed Jan 29 2020 07:48:19 GMT-0600 (Central Standard Time)","Wed Jan 29 2020 07:55:20 GMT-0600 (Central Standard Time)","Mozilla/5.0 (X11; CrOS x86_64 12607.81.0) AppleWebKit/537.36 (KHTML, like Gecko) Chrome/79.0.3945.119 Safari/537.36",152,"[0.9, 0.5, 0.1]","[0.8, 0.4, 0.2]","[u'blue', u'red', u'black']","[u'left', u'middle', u'right']","[0.8, 0.4, 0.2]","[u'low', u'high', u'medium']","red",50,"middle","high","True","False",551,5150,NA
"A3NBLSA78ZXDNP","Wed Jan 29 2020 07:48:19 GMT-0600 (Central Standard Time)","Wed Jan 29 2020 07:55:20 GMT-0600 (Central Standard Time)","Mozilla/5.0 (X11; CrOS x86_64 12607.81.0) AppleWebKit/537.36 (KHTML, like Gecko) Chrome/79.0.3945.119 Safari/537.36",153,"[0.9, 0.5, 0.1]","[0.8, 0.4, 0.2]","[u'blue', u'red', u'black']","[u'left', u'middle', u'right']","[0.8, 0.4, 0.2]","[u'low', u'high', u'medium']","red",50,"middle","high","True","False",453,5250,NA
"A3NBLSA78ZXDNP","Wed Jan 29 2020 07:48:19 GMT-0600 (Central Standard Time)","Wed Jan 29 2020 07:55:20 GMT-0600 (Central Standard Time)","Mozilla/5.0 (X11; CrOS x86_64 12607.81.0) AppleWebKit/537.36 (KHTML, like Gecko) Chrome/79.0.3945.119 Safari/537.36",154,"[0.9, 0.5, 0.1]","[0.8, 0.4, 0.2]","[u'blue', u'red', u'black']","[u'left', u'middle', u'right']","[0.8, 0.4, 0.2]","[u'low', u'high', u'medium']","red",50,"middle","high","True","False",689,5350,NA
"A3NBLSA78ZXDNP","Wed Jan 29 2020 07:48:19 GMT-0600 (Central Standard Time)","Wed Jan 29 2020 07:55:20 GMT-0600 (Central Standard Time)","Mozilla/5.0 (X11; CrOS x86_64 12607.81.0) AppleWebKit/537.36 (KHTML, like Gecko) Chrome/79.0.3945.119 Safari/537.36",155,"[0.9, 0.5, 0.1]","[0.8, 0.4, 0.2]","[u'blue', u'red', u'black']","[u'left', u'middle', u'right']","[0.8, 0.4, 0.2]","[u'low', u'high', u'medium']","red",50,"middle","high","False","False",390,5300,NA
"A3NBLSA78ZXDNP","Wed Jan 29 2020 07:48:19 GMT-0600 (Central Standard Time)","Wed Jan 29 2020 07:55:20 GMT-0600 (Central Standard Time)","Mozilla/5.0 (X11; CrOS x86_64 12607.81.0) AppleWebKit/537.36 (KHTML, like Gecko) Chrome/79.0.3945.119 Safari/537.36",156,"[0.9, 0.5, 0.1]","[0.8, 0.4, 0.2]","[u'blue', u'red', u'black']","[u'left', u'middle', u'right']","[0.8, 0.4, 0.2]","[u'low', u'high', u'medium']","black",51,"right","medium","False","False",280,5250,NA
"A3NBLSA78ZXDNP","Wed Jan 29 2020 07:48:19 GMT-0600 (Central Standard Time)","Wed Jan 29 2020 07:55:20 GMT-0600 (Central Standard Time)","Mozilla/5.0 (X11; CrOS x86_64 12607.81.0) AppleWebKit/537.36 (KHTML, like Gecko) Chrome/79.0.3945.119 Safari/537.36",157,"[0.9, 0.5, 0.1]","[0.8, 0.4, 0.2]","[u'blue', u'red', u'black']","[u'left', u'middle', u'right']","[0.8, 0.4, 0.2]","[u'low', u'high', u'medium']","black",51,"right","medium","True","False",767,5350,NA
"A3NBLSA78ZXDNP","Wed Jan 29 2020 07:48:19 GMT-0600 (Central Standard Time)","Wed Jan 29 2020 07:55:20 GMT-0600 (Central Standard Time)","Mozilla/5.0 (X11; CrOS x86_64 12607.81.0) AppleWebKit/537.36 (KHTML, like Gecko) Chrome/79.0.3945.119 Safari/537.36",158,"[0.9, 0.5, 0.1]","[0.8, 0.4, 0.2]","[u'blue', u'red', u'black']","[u'left', u'middle', u'right']","[0.8, 0.4, 0.2]","[u'low', u'high', u'medium']","black",51,"right","medium","False","False",962,5300,NA
"A3NBLSA78ZXDNP","Wed Jan 29 2020 07:48:19 GMT-0600 (Central Standard Time)","Wed Jan 29 2020 07:55:20 GMT-0600 (Central Standard Time)","Mozilla/5.0 (X11; CrOS x86_64 12607.81.0) AppleWebKit/537.36 (KHTML, like Gecko) Chrome/79.0.3945.119 Safari/537.36",159,"[0.9, 0.5, 0.1]","[0.8, 0.4, 0.2]","[u'blue', u'red', u'black']","[u'left', u'middle', u'right']","[0.8, 0.4, 0.2]","[u'low', u'high', u'medium']","blue",49,"left","low","False","False",783,5250,NA
"A3NBLSA78ZXDNP","Wed Jan 29 2020 07:48:19 GMT-0600 (Central Standard Time)","Wed Jan 29 2020 07:55:20 GMT-0600 (Central Standard Time)","Mozilla/5.0 (X11; CrOS x86_64 12607.81.0) AppleWebKit/537.36 (KHTML, like Gecko) Chrome/79.0.3945.119 Safari/537.36",160,"[0.9, 0.5, 0.1]","[0.8, 0.4, 0.2]","[u'blue', u'red', u'black']","[u'left', u'middle', u'right']","[0.8, 0.4, 0.2]","[u'low', u'high', u'medium']","red",50,"middle","high","False","False",289,5200,NA
