"src_subject_id","start_time","end_time","browser","index","first_half_probabilities","second_half_probabilities","deck_color","deck_position","deck_probabilities","deck_contingencies","response_color","key_press","response_position","response_probability","reward_type","trial_type","rt","reward_tally","exclusion_reason"
"A1N16ZU0FNQEY6","Wed Sep 23 2020 09:33:34 GMT-0600 (Mountain Daylight Time)","Wed Sep 23 2020 09:40:00 GMT-0600 (Mountain Daylight Time)","Mozilla/5.0 (Windows NT 10.0; Win64; x64) AppleWebKit/537.36 (KHTML, like Gecko) Chrome/85.0.4183.121 Safari/537.36",1,"[0.9, 0.5, 0.1]","[0.8, 0.4, 0.2]","[u'blue', u'red', u'black']","[u'left', u'middle', u'right']","[0.9, 0.5, 0.1]","[u'low', u'medium', u'high']","blue",49,"left","low","False","False",773,-50,NA
"A1N16ZU0FNQEY6","Wed Sep 23 2020 09:33:34 GMT-0600 (Mountain Daylight Time)","Wed Sep 23 2020 09:40:00 GMT-0600 (Mountain Daylight Time)","Mozilla/5.0 (Windows NT 10.0; Win64; x64) AppleWebKit/537.36 (KHTML, like Gecko) Chrome/85.0.4183.121 Safari/537.36",2,"[0.9, 0.5, 0.1]","[0.8, 0.4, 0.2]","[u'blue', u'red', u'black']","[u'left', u'middle', u'right']","[0.9, 0.5, 0.1]","[u'low', u'medium', u'high']","red",50,"middle","medium","True","False",262,50,NA
"A1N16ZU0FNQEY6","Wed Sep 23 2020 09:33:34 GMT-0600 (Mountain Daylight Time)","Wed Sep 23 2020 09:40:00 GMT-0600 (Mountain Daylight Time)","Mozilla/5.0 (Windows NT 10.0; Win64; x64) AppleWebKit/537.36 (KHTML, like Gecko) Chrome/85.0.4183.121 Safari/537.36",3,"[0.9, 0.5, 0.1]","[0.8, 0.4, 0.2]","[u'blue', u'red', u'black']","[u'left', u'middle', u'right']","[0.9, 0.5, 0.1]","[u'low', u'medium', u'high']","red",50,"middle","medium","True","False",334,150,NA
"A1N16ZU0FNQEY6","Wed Sep 23 2020 09:33:34 GMT-0600 (Mountain Daylight Time)","Wed Sep 23 2020 09:40:00 GMT-0600 (Mountain Daylight Time)","Mozilla/5.0 (Windows NT 10.0; Win64; x64) AppleWebKit/537.36 (KHTML, like Gecko) Chrome/85.0.4183.121 Safari/537.36",4,"[0.9, 0.5, 0.1]","[0.8, 0.4, 0.2]","[u'blue', u'red', u'black']","[u'left', u'middle', u'right']","[0.9, 0.5, 0.1]","[u'low', u'medium', u'high']","red",50,"middle","medium","False","False",300,100,NA
"A1N16ZU0FNQEY6","Wed Sep 23 2020 09:33:34 GMT-0600 (Mountain Daylight Time)","Wed Sep 23 2020 09:40:00 GMT-0600 (Mountain Daylight Time)","Mozilla/5.0 (Windows NT 10.0; Win64; x64) AppleWebKit/537.36 (KHTML, like Gecko) Chrome/85.0.4183.121 Safari/537.36",5,"[0.9, 0.5, 0.1]","[0.8, 0.4, 0.2]","[u'blue', u'red', u'black']","[u'left', u'middle', u'right']","[0.9, 0.5, 0.1]","[u'low', u'medium', u'high']","red",50,"middle","medium","True","False",360,200,NA
"A1N16ZU0FNQEY6","Wed Sep 23 2020 09:33:34 GMT-0600 (Mountain Daylight Time)","Wed Sep 23 2020 09:40:00 GMT-0600 (Mountain Daylight Time)","Mozilla/5.0 (Windows NT 10.0; Win64; x64) AppleWebKit/537.36 (KHTML, like Gecko) Chrome/85.0.4183.121 Safari/537.36",6,"[0.9, 0.5, 0.1]","[0.8, 0.4, 0.2]","[u'blue', u'red', u'black']","[u'left', u'middle', u'right']","[0.9, 0.5, 0.1]","[u'low', u'medium', u'high']","red",50,"middle","medium","True","False",323,300,NA
"A1N16ZU0FNQEY6","Wed Sep 23 2020 09:33:34 GMT-0600 (Mountain Daylight Time)","Wed Sep 23 2020 09:40:00 GMT-0600 (Mountain Daylight Time)","Mozilla/5.0 (Windows NT 10.0; Win64; x64) AppleWebKit/537.36 (KHTML, like Gecko) Chrome/85.0.4183.121 Safari/537.36",7,"[0.9, 0.5, 0.1]","[0.8, 0.4, 0.2]","[u'blue', u'red', u'black']","[u'left', u'middle', u'right']","[0.9, 0.5, 0.1]","[u'low', u'medium', u'high']","red",50,"middle","medium","False","False",299,250,NA
"A1N16ZU0FNQEY6","Wed Sep 23 2020 09:33:34 GMT-0600 (Mountain Daylight Time)","Wed Sep 23 2020 09:40:00 GMT-0600 (Mountain Daylight Time)","Mozilla/5.0 (Windows NT 10.0; Win64; x64) AppleWebKit/537.36 (KHTML, like Gecko) Chrome/85.0.4183.121 Safari/537.36",8,"[0.9, 0.5, 0.1]","[0.8, 0.4, 0.2]","[u'blue', u'red', u'black']","[u'left', u'middle', u'right']","[0.9, 0.5, 0.1]","[u'low', u'medium', u'high']","red",50,"middle","medium","False","False",310,200,NA
"A1N16ZU0FNQEY6","Wed Sep 23 2020 09:33:34 GMT-0600 (Mountain Daylight Time)","Wed Sep 23 2020 09:40:00 GMT-0600 (Mountain Daylight Time)","Mozilla/5.0 (Windows NT 10.0; Win64; x64) AppleWebKit/537.36 (KHTML, like Gecko) Chrome/85.0.4183.121 Safari/537.36",9,"[0.9, 0.5, 0.1]","[0.8, 0.4, 0.2]","[u'blue', u'red', u'black']","[u'left', u'middle', u'right']","[0.9, 0.5, 0.1]","[u'low', u'medium', u'high']","black",51,"right","high","True","False",199,300,NA
"A1N16ZU0FNQEY6","Wed Sep 23 2020 09:33:34 GMT-0600 (Mountain Daylight Time)","Wed Sep 23 2020 09:40:00 GMT-0600 (Mountain Daylight Time)","Mozilla/5.0 (Windows NT 10.0; Win64; x64) AppleWebKit/537.36 (KHTML, like Gecko) Chrome/85.0.4183.121 Safari/537.36",10,"[0.9, 0.5, 0.1]","[0.8, 0.4, 0.2]","[u'blue', u'red', u'black']","[u'left', u'middle', u'right']","[0.9, 0.5, 0.1]","[u'low', u'medium', u'high']","black",51,"right","high","True","False",294,400,NA
"A1N16ZU0FNQEY6","Wed Sep 23 2020 09:33:34 GMT-0600 (Mountain Daylight Time)","Wed Sep 23 2020 09:40:00 GMT-0600 (Mountain Daylight Time)","Mozilla/5.0 (Windows NT 10.0; Win64; x64) AppleWebKit/537.36 (KHTML, like Gecko) Chrome/85.0.4183.121 Safari/537.36",11,"[0.9, 0.5, 0.1]","[0.8, 0.4, 0.2]","[u'blue', u'red', u'black']","[u'left', u'middle', u'right']","[0.9, 0.5, 0.1]","[u'low', u'medium', u'high']","black",51,"right","high","True","False",389,500,NA
"A1N16ZU0FNQEY6","Wed Sep 23 2020 09:33:34 GMT-0600 (Mountain Daylight Time)","Wed Sep 23 2020 09:40:00 GMT-0600 (Mountain Daylight Time)","Mozilla/5.0 (Windows NT 10.0; Win64; x64) AppleWebKit/537.36 (KHTML, like Gecko) Chrome/85.0.4183.121 Safari/537.36",12,"[0.9, 0.5, 0.1]","[0.8, 0.4, 0.2]","[u'blue', u'red', u'black']","[u'left', u'middle', u'right']","[0.9, 0.5, 0.1]","[u'low', u'medium', u'high']","black",51,"right","high","True","False",420,600,NA
"A1N16ZU0FNQEY6","Wed Sep 23 2020 09:33:34 GMT-0600 (Mountain Daylight Time)","Wed Sep 23 2020 09:40:00 GMT-0600 (Mountain Daylight Time)","Mozilla/5.0 (Windows NT 10.0; Win64; x64) AppleWebKit/537.36 (KHTML, like Gecko) Chrome/85.0.4183.121 Safari/537.36",13,"[0.9, 0.5, 0.1]","[0.8, 0.4, 0.2]","[u'blue', u'red', u'black']","[u'left', u'middle', u'right']","[0.9, 0.5, 0.1]","[u'low', u'medium', u'high']","black",51,"right","high","True","False",302,700,NA
"A1N16ZU0FNQEY6","Wed Sep 23 2020 09:33:34 GMT-0600 (Mountain Daylight Time)","Wed Sep 23 2020 09:40:00 GMT-0600 (Mountain Daylight Time)","Mozilla/5.0 (Windows NT 10.0; Win64; x64) AppleWebKit/537.36 (KHTML, like Gecko) Chrome/85.0.4183.121 Safari/537.36",14,"[0.9, 0.5, 0.1]","[0.8, 0.4, 0.2]","[u'blue', u'red', u'black']","[u'left', u'middle', u'right']","[0.9, 0.5, 0.1]","[u'low', u'medium', u'high']","black",51,"right","high","True","False",255,800,NA
"A1N16ZU0FNQEY6","Wed Sep 23 2020 09:33:34 GMT-0600 (Mountain Daylight Time)","Wed Sep 23 2020 09:40:00 GMT-0600 (Mountain Daylight Time)","Mozilla/5.0 (Windows NT 10.0; Win64; x64) AppleWebKit/537.36 (KHTML, like Gecko) Chrome/85.0.4183.121 Safari/537.36",15,"[0.9, 0.5, 0.1]","[0.8, 0.4, 0.2]","[u'blue', u'red', u'black']","[u'left', u'middle', u'right']","[0.9, 0.5, 0.1]","[u'low', u'medium', u'high']","black",51,"right","high","True","False",298,900,NA
"A1N16ZU0FNQEY6","Wed Sep 23 2020 09:33:34 GMT-0600 (Mountain Daylight Time)","Wed Sep 23 2020 09:40:00 GMT-0600 (Mountain Daylight Time)","Mozilla/5.0 (Windows NT 10.0; Win64; x64) AppleWebKit/537.36 (KHTML, like Gecko) Chrome/85.0.4183.121 Safari/537.36",16,"[0.9, 0.5, 0.1]","[0.8, 0.4, 0.2]","[u'blue', u'red', u'black']","[u'left', u'middle', u'right']","[0.9, 0.5, 0.1]","[u'low', u'medium', u'high']","black",51,"right","high","True","False",314,1000,NA
"A1N16ZU0FNQEY6","Wed Sep 23 2020 09:33:34 GMT-0600 (Mountain Daylight Time)","Wed Sep 23 2020 09:40:00 GMT-0600 (Mountain Daylight Time)","Mozilla/5.0 (Windows NT 10.0; Win64; x64) AppleWebKit/537.36 (KHTML, like Gecko) Chrome/85.0.4183.121 Safari/537.36",17,"[0.9, 0.5, 0.1]","[0.8, 0.4, 0.2]","[u'blue', u'red', u'black']","[u'left', u'middle', u'right']","[0.9, 0.5, 0.1]","[u'low', u'medium', u'high']","black",51,"right","high","True","True",315,1100,NA
"A1N16ZU0FNQEY6","Wed Sep 23 2020 09:33:34 GMT-0600 (Mountain Daylight Time)","Wed Sep 23 2020 09:40:00 GMT-0600 (Mountain Daylight Time)","Mozilla/5.0 (Windows NT 10.0; Win64; x64) AppleWebKit/537.36 (KHTML, like Gecko) Chrome/85.0.4183.121 Safari/537.36",18,"[0.9, 0.5, 0.1]","[0.8, 0.4, 0.2]","[u'blue', u'red', u'black']","[u'left', u'middle', u'right']","[0.9, 0.5, 0.1]","[u'high', u'low', u'medium']","black",51,"right","medium","True","False",272,1200,NA
"A1N16ZU0FNQEY6","Wed Sep 23 2020 09:33:34 GMT-0600 (Mountain Daylight Time)","Wed Sep 23 2020 09:40:00 GMT-0600 (Mountain Daylight Time)","Mozilla/5.0 (Windows NT 10.0; Win64; x64) AppleWebKit/537.36 (KHTML, like Gecko) Chrome/85.0.4183.121 Safari/537.36",19,"[0.9, 0.5, 0.1]","[0.8, 0.4, 0.2]","[u'blue', u'red', u'black']","[u'left', u'middle', u'right']","[0.9, 0.5, 0.1]","[u'high', u'low', u'medium']","black",51,"right","medium","True","False",242,1300,NA
"A1N16ZU0FNQEY6","Wed Sep 23 2020 09:33:34 GMT-0600 (Mountain Daylight Time)","Wed Sep 23 2020 09:40:00 GMT-0600 (Mountain Daylight Time)","Mozilla/5.0 (Windows NT 10.0; Win64; x64) AppleWebKit/537.36 (KHTML, like Gecko) Chrome/85.0.4183.121 Safari/537.36",20,"[0.9, 0.5, 0.1]","[0.8, 0.4, 0.2]","[u'blue', u'red', u'black']","[u'left', u'middle', u'right']","[0.9, 0.5, 0.1]","[u'high', u'low', u'medium']","black",51,"right","medium","False","False",240,1250,NA
"A1N16ZU0FNQEY6","Wed Sep 23 2020 09:33:34 GMT-0600 (Mountain Daylight Time)","Wed Sep 23 2020 09:40:00 GMT-0600 (Mountain Daylight Time)","Mozilla/5.0 (Windows NT 10.0; Win64; x64) AppleWebKit/537.36 (KHTML, like Gecko) Chrome/85.0.4183.121 Safari/537.36",21,"[0.9, 0.5, 0.1]","[0.8, 0.4, 0.2]","[u'blue', u'red', u'black']","[u'left', u'middle', u'right']","[0.9, 0.5, 0.1]","[u'high', u'low', u'medium']","black",51,"right","medium","False","False",211,1200,NA
"A1N16ZU0FNQEY6","Wed Sep 23 2020 09:33:34 GMT-0600 (Mountain Daylight Time)","Wed Sep 23 2020 09:40:00 GMT-0600 (Mountain Daylight Time)","Mozilla/5.0 (Windows NT 10.0; Win64; x64) AppleWebKit/537.36 (KHTML, like Gecko) Chrome/85.0.4183.121 Safari/537.36",22,"[0.9, 0.5, 0.1]","[0.8, 0.4, 0.2]","[u'blue', u'red', u'black']","[u'left', u'middle', u'right']","[0.9, 0.5, 0.1]","[u'high', u'low', u'medium']","red",50,"middle","low","False","False",429,1150,NA
"A1N16ZU0FNQEY6","Wed Sep 23 2020 09:33:34 GMT-0600 (Mountain Daylight Time)","Wed Sep 23 2020 09:40:00 GMT-0600 (Mountain Daylight Time)","Mozilla/5.0 (Windows NT 10.0; Win64; x64) AppleWebKit/537.36 (KHTML, like Gecko) Chrome/85.0.4183.121 Safari/537.36",23,"[0.9, 0.5, 0.1]","[0.8, 0.4, 0.2]","[u'blue', u'red', u'black']","[u'left', u'middle', u'right']","[0.9, 0.5, 0.1]","[u'high', u'low', u'medium']","blue",49,"left","high","True","False",210,1250,NA
"A1N16ZU0FNQEY6","Wed Sep 23 2020 09:33:34 GMT-0600 (Mountain Daylight Time)","Wed Sep 23 2020 09:40:00 GMT-0600 (Mountain Daylight Time)","Mozilla/5.0 (Windows NT 10.0; Win64; x64) AppleWebKit/537.36 (KHTML, like Gecko) Chrome/85.0.4183.121 Safari/537.36",24,"[0.9, 0.5, 0.1]","[0.8, 0.4, 0.2]","[u'blue', u'red', u'black']","[u'left', u'middle', u'right']","[0.9, 0.5, 0.1]","[u'high', u'low', u'medium']","blue",49,"left","high","True","False",271,1350,NA
"A1N16ZU0FNQEY6","Wed Sep 23 2020 09:33:34 GMT-0600 (Mountain Daylight Time)","Wed Sep 23 2020 09:40:00 GMT-0600 (Mountain Daylight Time)","Mozilla/5.0 (Windows NT 10.0; Win64; x64) AppleWebKit/537.36 (KHTML, like Gecko) Chrome/85.0.4183.121 Safari/537.36",25,"[0.9, 0.5, 0.1]","[0.8, 0.4, 0.2]","[u'blue', u'red', u'black']","[u'left', u'middle', u'right']","[0.9, 0.5, 0.1]","[u'high', u'low', u'medium']","blue",49,"left","high","True","False",306,1450,NA
"A1N16ZU0FNQEY6","Wed Sep 23 2020 09:33:34 GMT-0600 (Mountain Daylight Time)","Wed Sep 23 2020 09:40:00 GMT-0600 (Mountain Daylight Time)","Mozilla/5.0 (Windows NT 10.0; Win64; x64) AppleWebKit/537.36 (KHTML, like Gecko) Chrome/85.0.4183.121 Safari/537.36",26,"[0.9, 0.5, 0.1]","[0.8, 0.4, 0.2]","[u'blue', u'red', u'black']","[u'left', u'middle', u'right']","[0.9, 0.5, 0.1]","[u'high', u'low', u'medium']","blue",49,"left","high","True","False",308,1550,NA
"A1N16ZU0FNQEY6","Wed Sep 23 2020 09:33:34 GMT-0600 (Mountain Daylight Time)","Wed Sep 23 2020 09:40:00 GMT-0600 (Mountain Daylight Time)","Mozilla/5.0 (Windows NT 10.0; Win64; x64) AppleWebKit/537.36 (KHTML, like Gecko) Chrome/85.0.4183.121 Safari/537.36",27,"[0.9, 0.5, 0.1]","[0.8, 0.4, 0.2]","[u'blue', u'red', u'black']","[u'left', u'middle', u'right']","[0.9, 0.5, 0.1]","[u'high', u'low', u'medium']","blue",49,"left","high","True","False",338,1650,NA
"A1N16ZU0FNQEY6","Wed Sep 23 2020 09:33:34 GMT-0600 (Mountain Daylight Time)","Wed Sep 23 2020 09:40:00 GMT-0600 (Mountain Daylight Time)","Mozilla/5.0 (Windows NT 10.0; Win64; x64) AppleWebKit/537.36 (KHTML, like Gecko) Chrome/85.0.4183.121 Safari/537.36",28,"[0.9, 0.5, 0.1]","[0.8, 0.4, 0.2]","[u'blue', u'red', u'black']","[u'left', u'middle', u'right']","[0.9, 0.5, 0.1]","[u'high', u'low', u'medium']","blue",49,"left","high","True","False",364,1750,NA
"A1N16ZU0FNQEY6","Wed Sep 23 2020 09:33:34 GMT-0600 (Mountain Daylight Time)","Wed Sep 23 2020 09:40:00 GMT-0600 (Mountain Daylight Time)","Mozilla/5.0 (Windows NT 10.0; Win64; x64) AppleWebKit/537.36 (KHTML, like Gecko) Chrome/85.0.4183.121 Safari/537.36",29,"[0.9, 0.5, 0.1]","[0.8, 0.4, 0.2]","[u'blue', u'red', u'black']","[u'left', u'middle', u'right']","[0.9, 0.5, 0.1]","[u'high', u'low', u'medium']","blue",49,"left","high","True","False",337,1850,NA
"A1N16ZU0FNQEY6","Wed Sep 23 2020 09:33:34 GMT-0600 (Mountain Daylight Time)","Wed Sep 23 2020 09:40:00 GMT-0600 (Mountain Daylight Time)","Mozilla/5.0 (Windows NT 10.0; Win64; x64) AppleWebKit/537.36 (KHTML, like Gecko) Chrome/85.0.4183.121 Safari/537.36",30,"[0.9, 0.5, 0.1]","[0.8, 0.4, 0.2]","[u'blue', u'red', u'black']","[u'left', u'middle', u'right']","[0.9, 0.5, 0.1]","[u'high', u'low', u'medium']","blue",49,"left","high","True","False",338,1950,NA
"A1N16ZU0FNQEY6","Wed Sep 23 2020 09:33:34 GMT-0600 (Mountain Daylight Time)","Wed Sep 23 2020 09:40:00 GMT-0600 (Mountain Daylight Time)","Mozilla/5.0 (Windows NT 10.0; Win64; x64) AppleWebKit/537.36 (KHTML, like Gecko) Chrome/85.0.4183.121 Safari/537.36",31,"[0.9, 0.5, 0.1]","[0.8, 0.4, 0.2]","[u'blue', u'red', u'black']","[u'left', u'middle', u'right']","[0.9, 0.5, 0.1]","[u'high', u'low', u'medium']","blue",49,"left","high","True","True",258,2050,NA
"A1N16ZU0FNQEY6","Wed Sep 23 2020 09:33:34 GMT-0600 (Mountain Daylight Time)","Wed Sep 23 2020 09:40:00 GMT-0600 (Mountain Daylight Time)","Mozilla/5.0 (Windows NT 10.0; Win64; x64) AppleWebKit/537.36 (KHTML, like Gecko) Chrome/85.0.4183.121 Safari/537.36",32,"[0.9, 0.5, 0.1]","[0.8, 0.4, 0.2]","[u'blue', u'red', u'black']","[u'left', u'middle', u'right']","[0.9, 0.5, 0.1]","[u'low', u'high', u'medium']","blue",49,"left","low","False","False",221,2000,NA
"A1N16ZU0FNQEY6","Wed Sep 23 2020 09:33:34 GMT-0600 (Mountain Daylight Time)","Wed Sep 23 2020 09:40:00 GMT-0600 (Mountain Daylight Time)","Mozilla/5.0 (Windows NT 10.0; Win64; x64) AppleWebKit/537.36 (KHTML, like Gecko) Chrome/85.0.4183.121 Safari/537.36",33,"[0.9, 0.5, 0.1]","[0.8, 0.4, 0.2]","[u'blue', u'red', u'black']","[u'left', u'middle', u'right']","[0.9, 0.5, 0.1]","[u'low', u'high', u'medium']","black",51,"right","medium","False","False",227,1950,NA
"A1N16ZU0FNQEY6","Wed Sep 23 2020 09:33:34 GMT-0600 (Mountain Daylight Time)","Wed Sep 23 2020 09:40:00 GMT-0600 (Mountain Daylight Time)","Mozilla/5.0 (Windows NT 10.0; Win64; x64) AppleWebKit/537.36 (KHTML, like Gecko) Chrome/85.0.4183.121 Safari/537.36",34,"[0.9, 0.5, 0.1]","[0.8, 0.4, 0.2]","[u'blue', u'red', u'black']","[u'left', u'middle', u'right']","[0.9, 0.5, 0.1]","[u'low', u'high', u'medium']","red",50,"middle","high","True","False",127,2050,NA
"A1N16ZU0FNQEY6","Wed Sep 23 2020 09:33:34 GMT-0600 (Mountain Daylight Time)","Wed Sep 23 2020 09:40:00 GMT-0600 (Mountain Daylight Time)","Mozilla/5.0 (Windows NT 10.0; Win64; x64) AppleWebKit/537.36 (KHTML, like Gecko) Chrome/85.0.4183.121 Safari/537.36",35,"[0.9, 0.5, 0.1]","[0.8, 0.4, 0.2]","[u'blue', u'red', u'black']","[u'left', u'middle', u'right']","[0.9, 0.5, 0.1]","[u'low', u'high', u'medium']","red",50,"middle","high","True","False",85,2150,NA
"A1N16ZU0FNQEY6","Wed Sep 23 2020 09:33:34 GMT-0600 (Mountain Daylight Time)","Wed Sep 23 2020 09:40:00 GMT-0600 (Mountain Daylight Time)","Mozilla/5.0 (Windows NT 10.0; Win64; x64) AppleWebKit/537.36 (KHTML, like Gecko) Chrome/85.0.4183.121 Safari/537.36",36,"[0.9, 0.5, 0.1]","[0.8, 0.4, 0.2]","[u'blue', u'red', u'black']","[u'left', u'middle', u'right']","[0.9, 0.5, 0.1]","[u'low', u'high', u'medium']","red",50,"middle","high","True","False",51,2250,NA
"A1N16ZU0FNQEY6","Wed Sep 23 2020 09:33:34 GMT-0600 (Mountain Daylight Time)","Wed Sep 23 2020 09:40:00 GMT-0600 (Mountain Daylight Time)","Mozilla/5.0 (Windows NT 10.0; Win64; x64) AppleWebKit/537.36 (KHTML, like Gecko) Chrome/85.0.4183.121 Safari/537.36",37,"[0.9, 0.5, 0.1]","[0.8, 0.4, 0.2]","[u'blue', u'red', u'black']","[u'left', u'middle', u'right']","[0.9, 0.5, 0.1]","[u'low', u'high', u'medium']","red",50,"middle","high","True","False",76,2350,NA
"A1N16ZU0FNQEY6","Wed Sep 23 2020 09:33:34 GMT-0600 (Mountain Daylight Time)","Wed Sep 23 2020 09:40:00 GMT-0600 (Mountain Daylight Time)","Mozilla/5.0 (Windows NT 10.0; Win64; x64) AppleWebKit/537.36 (KHTML, like Gecko) Chrome/85.0.4183.121 Safari/537.36",38,"[0.9, 0.5, 0.1]","[0.8, 0.4, 0.2]","[u'blue', u'red', u'black']","[u'left', u'middle', u'right']","[0.9, 0.5, 0.1]","[u'low', u'high', u'medium']","red",50,"middle","high","True","False",188,2450,NA
"A1N16ZU0FNQEY6","Wed Sep 23 2020 09:33:34 GMT-0600 (Mountain Daylight Time)","Wed Sep 23 2020 09:40:00 GMT-0600 (Mountain Daylight Time)","Mozilla/5.0 (Windows NT 10.0; Win64; x64) AppleWebKit/537.36 (KHTML, like Gecko) Chrome/85.0.4183.121 Safari/537.36",39,"[0.9, 0.5, 0.1]","[0.8, 0.4, 0.2]","[u'blue', u'red', u'black']","[u'left', u'middle', u'right']","[0.9, 0.5, 0.1]","[u'low', u'high', u'medium']","red",50,"middle","high","True","False",189,2550,NA
"A1N16ZU0FNQEY6","Wed Sep 23 2020 09:33:34 GMT-0600 (Mountain Daylight Time)","Wed Sep 23 2020 09:40:00 GMT-0600 (Mountain Daylight Time)","Mozilla/5.0 (Windows NT 10.0; Win64; x64) AppleWebKit/537.36 (KHTML, like Gecko) Chrome/85.0.4183.121 Safari/537.36",40,"[0.9, 0.5, 0.1]","[0.8, 0.4, 0.2]","[u'blue', u'red', u'black']","[u'left', u'middle', u'right']","[0.9, 0.5, 0.1]","[u'low', u'high', u'medium']","red",50,"middle","high","True","False",22,2650,NA
"A1N16ZU0FNQEY6","Wed Sep 23 2020 09:33:34 GMT-0600 (Mountain Daylight Time)","Wed Sep 23 2020 09:40:00 GMT-0600 (Mountain Daylight Time)","Mozilla/5.0 (Windows NT 10.0; Win64; x64) AppleWebKit/537.36 (KHTML, like Gecko) Chrome/85.0.4183.121 Safari/537.36",41,"[0.9, 0.5, 0.1]","[0.8, 0.4, 0.2]","[u'blue', u'red', u'black']","[u'left', u'middle', u'right']","[0.9, 0.5, 0.1]","[u'low', u'medium', u'high']","red",50,"middle","medium","False","False",295,2600,NA
"A1N16ZU0FNQEY6","Wed Sep 23 2020 09:33:34 GMT-0600 (Mountain Daylight Time)","Wed Sep 23 2020 09:40:00 GMT-0600 (Mountain Daylight Time)","Mozilla/5.0 (Windows NT 10.0; Win64; x64) AppleWebKit/537.36 (KHTML, like Gecko) Chrome/85.0.4183.121 Safari/537.36",42,"[0.9, 0.5, 0.1]","[0.8, 0.4, 0.2]","[u'blue', u'red', u'black']","[u'left', u'middle', u'right']","[0.9, 0.5, 0.1]","[u'low', u'medium', u'high']","black",51,"right","high","True","False",109,2700,NA
"A1N16ZU0FNQEY6","Wed Sep 23 2020 09:33:34 GMT-0600 (Mountain Daylight Time)","Wed Sep 23 2020 09:40:00 GMT-0600 (Mountain Daylight Time)","Mozilla/5.0 (Windows NT 10.0; Win64; x64) AppleWebKit/537.36 (KHTML, like Gecko) Chrome/85.0.4183.121 Safari/537.36",43,"[0.9, 0.5, 0.1]","[0.8, 0.4, 0.2]","[u'blue', u'red', u'black']","[u'left', u'middle', u'right']","[0.9, 0.5, 0.1]","[u'low', u'medium', u'high']","black",51,"right","high","True","False",18,2800,NA
"A1N16ZU0FNQEY6","Wed Sep 23 2020 09:33:34 GMT-0600 (Mountain Daylight Time)","Wed Sep 23 2020 09:40:00 GMT-0600 (Mountain Daylight Time)","Mozilla/5.0 (Windows NT 10.0; Win64; x64) AppleWebKit/537.36 (KHTML, like Gecko) Chrome/85.0.4183.121 Safari/537.36",44,"[0.9, 0.5, 0.1]","[0.8, 0.4, 0.2]","[u'blue', u'red', u'black']","[u'left', u'middle', u'right']","[0.9, 0.5, 0.1]","[u'low', u'medium', u'high']","black",51,"right","high","True","False",179,2900,NA
"A1N16ZU0FNQEY6","Wed Sep 23 2020 09:33:34 GMT-0600 (Mountain Daylight Time)","Wed Sep 23 2020 09:40:00 GMT-0600 (Mountain Daylight Time)","Mozilla/5.0 (Windows NT 10.0; Win64; x64) AppleWebKit/537.36 (KHTML, like Gecko) Chrome/85.0.4183.121 Safari/537.36",45,"[0.9, 0.5, 0.1]","[0.8, 0.4, 0.2]","[u'blue', u'red', u'black']","[u'left', u'middle', u'right']","[0.9, 0.5, 0.1]","[u'low', u'medium', u'high']","black",51,"right","high","False","False",193,2850,NA
"A1N16ZU0FNQEY6","Wed Sep 23 2020 09:33:34 GMT-0600 (Mountain Daylight Time)","Wed Sep 23 2020 09:40:00 GMT-0600 (Mountain Daylight Time)","Mozilla/5.0 (Windows NT 10.0; Win64; x64) AppleWebKit/537.36 (KHTML, like Gecko) Chrome/85.0.4183.121 Safari/537.36",46,"[0.9, 0.5, 0.1]","[0.8, 0.4, 0.2]","[u'blue', u'red', u'black']","[u'left', u'middle', u'right']","[0.9, 0.5, 0.1]","[u'low', u'medium', u'high']","blue",49,"left","low","False","False",478,2800,NA
"A1N16ZU0FNQEY6","Wed Sep 23 2020 09:33:34 GMT-0600 (Mountain Daylight Time)","Wed Sep 23 2020 09:40:00 GMT-0600 (Mountain Daylight Time)","Mozilla/5.0 (Windows NT 10.0; Win64; x64) AppleWebKit/537.36 (KHTML, like Gecko) Chrome/85.0.4183.121 Safari/537.36",47,"[0.9, 0.5, 0.1]","[0.8, 0.4, 0.2]","[u'blue', u'red', u'black']","[u'left', u'middle', u'right']","[0.9, 0.5, 0.1]","[u'low', u'medium', u'high']","red",50,"middle","medium","False","False",146,2750,NA
"A1N16ZU0FNQEY6","Wed Sep 23 2020 09:33:34 GMT-0600 (Mountain Daylight Time)","Wed Sep 23 2020 09:40:00 GMT-0600 (Mountain Daylight Time)","Mozilla/5.0 (Windows NT 10.0; Win64; x64) AppleWebKit/537.36 (KHTML, like Gecko) Chrome/85.0.4183.121 Safari/537.36",48,"[0.9, 0.5, 0.1]","[0.8, 0.4, 0.2]","[u'blue', u'red', u'black']","[u'left', u'middle', u'right']","[0.9, 0.5, 0.1]","[u'low', u'medium', u'high']","black",51,"right","high","True","False",86,2850,NA
"A1N16ZU0FNQEY6","Wed Sep 23 2020 09:33:34 GMT-0600 (Mountain Daylight Time)","Wed Sep 23 2020 09:40:00 GMT-0600 (Mountain Daylight Time)","Mozilla/5.0 (Windows NT 10.0; Win64; x64) AppleWebKit/537.36 (KHTML, like Gecko) Chrome/85.0.4183.121 Safari/537.36",49,"[0.9, 0.5, 0.1]","[0.8, 0.4, 0.2]","[u'blue', u'red', u'black']","[u'left', u'middle', u'right']","[0.9, 0.5, 0.1]","[u'low', u'medium', u'high']","black",51,"right","high","True","False",81,2950,NA
"A1N16ZU0FNQEY6","Wed Sep 23 2020 09:33:34 GMT-0600 (Mountain Daylight Time)","Wed Sep 23 2020 09:40:00 GMT-0600 (Mountain Daylight Time)","Mozilla/5.0 (Windows NT 10.0; Win64; x64) AppleWebKit/537.36 (KHTML, like Gecko) Chrome/85.0.4183.121 Safari/537.36",50,"[0.9, 0.5, 0.1]","[0.8, 0.4, 0.2]","[u'blue', u'red', u'black']","[u'left', u'middle', u'right']","[0.9, 0.5, 0.1]","[u'low', u'medium', u'high']","black",51,"right","high","True","False",6,3050,NA
"A1N16ZU0FNQEY6","Wed Sep 23 2020 09:33:34 GMT-0600 (Mountain Daylight Time)","Wed Sep 23 2020 09:40:00 GMT-0600 (Mountain Daylight Time)","Mozilla/5.0 (Windows NT 10.0; Win64; x64) AppleWebKit/537.36 (KHTML, like Gecko) Chrome/85.0.4183.121 Safari/537.36",51,"[0.9, 0.5, 0.1]","[0.8, 0.4, 0.2]","[u'blue', u'red', u'black']","[u'left', u'middle', u'right']","[0.9, 0.5, 0.1]","[u'low', u'medium', u'high']","black",51,"right","high","True","False",43,3150,NA
"A1N16ZU0FNQEY6","Wed Sep 23 2020 09:33:34 GMT-0600 (Mountain Daylight Time)","Wed Sep 23 2020 09:40:00 GMT-0600 (Mountain Daylight Time)","Mozilla/5.0 (Windows NT 10.0; Win64; x64) AppleWebKit/537.36 (KHTML, like Gecko) Chrome/85.0.4183.121 Safari/537.36",52,"[0.9, 0.5, 0.1]","[0.8, 0.4, 0.2]","[u'blue', u'red', u'black']","[u'left', u'middle', u'right']","[0.9, 0.5, 0.1]","[u'low', u'medium', u'high']","black",51,"right","high","False","False",20,3100,NA
"A1N16ZU0FNQEY6","Wed Sep 23 2020 09:33:34 GMT-0600 (Mountain Daylight Time)","Wed Sep 23 2020 09:40:00 GMT-0600 (Mountain Daylight Time)","Mozilla/5.0 (Windows NT 10.0; Win64; x64) AppleWebKit/537.36 (KHTML, like Gecko) Chrome/85.0.4183.121 Safari/537.36",53,"[0.9, 0.5, 0.1]","[0.8, 0.4, 0.2]","[u'blue', u'red', u'black']","[u'left', u'middle', u'right']","[0.9, 0.5, 0.1]","[u'low', u'medium', u'high']","black",51,"right","high","False","False",37,3050,NA
"A1N16ZU0FNQEY6","Wed Sep 23 2020 09:33:34 GMT-0600 (Mountain Daylight Time)","Wed Sep 23 2020 09:40:00 GMT-0600 (Mountain Daylight Time)","Mozilla/5.0 (Windows NT 10.0; Win64; x64) AppleWebKit/537.36 (KHTML, like Gecko) Chrome/85.0.4183.121 Safari/537.36",54,"[0.9, 0.5, 0.1]","[0.8, 0.4, 0.2]","[u'blue', u'red', u'black']","[u'left', u'middle', u'right']","[0.9, 0.5, 0.1]","[u'low', u'medium', u'high']","blue",49,"left","low","False","False",452,3000,NA
"A1N16ZU0FNQEY6","Wed Sep 23 2020 09:33:34 GMT-0600 (Mountain Daylight Time)","Wed Sep 23 2020 09:40:00 GMT-0600 (Mountain Daylight Time)","Mozilla/5.0 (Windows NT 10.0; Win64; x64) AppleWebKit/537.36 (KHTML, like Gecko) Chrome/85.0.4183.121 Safari/537.36",55,"[0.9, 0.5, 0.1]","[0.8, 0.4, 0.2]","[u'blue', u'red', u'black']","[u'left', u'middle', u'right']","[0.9, 0.5, 0.1]","[u'low', u'medium', u'high']","red",50,"middle","medium","True","False",382,3100,NA
"A1N16ZU0FNQEY6","Wed Sep 23 2020 09:33:34 GMT-0600 (Mountain Daylight Time)","Wed Sep 23 2020 09:40:00 GMT-0600 (Mountain Daylight Time)","Mozilla/5.0 (Windows NT 10.0; Win64; x64) AppleWebKit/537.36 (KHTML, like Gecko) Chrome/85.0.4183.121 Safari/537.36",56,"[0.9, 0.5, 0.1]","[0.8, 0.4, 0.2]","[u'blue', u'red', u'black']","[u'left', u'middle', u'right']","[0.9, 0.5, 0.1]","[u'low', u'medium', u'high']","red",50,"middle","medium","True","False",12,3200,NA
"A1N16ZU0FNQEY6","Wed Sep 23 2020 09:33:34 GMT-0600 (Mountain Daylight Time)","Wed Sep 23 2020 09:40:00 GMT-0600 (Mountain Daylight Time)","Mozilla/5.0 (Windows NT 10.0; Win64; x64) AppleWebKit/537.36 (KHTML, like Gecko) Chrome/85.0.4183.121 Safari/537.36",57,"[0.9, 0.5, 0.1]","[0.8, 0.4, 0.2]","[u'blue', u'red', u'black']","[u'left', u'middle', u'right']","[0.9, 0.5, 0.1]","[u'low', u'medium', u'high']","red",50,"middle","medium","False","False",180,3150,NA
"A1N16ZU0FNQEY6","Wed Sep 23 2020 09:33:34 GMT-0600 (Mountain Daylight Time)","Wed Sep 23 2020 09:40:00 GMT-0600 (Mountain Daylight Time)","Mozilla/5.0 (Windows NT 10.0; Win64; x64) AppleWebKit/537.36 (KHTML, like Gecko) Chrome/85.0.4183.121 Safari/537.36",58,"[0.9, 0.5, 0.1]","[0.8, 0.4, 0.2]","[u'blue', u'red', u'black']","[u'left', u'middle', u'right']","[0.9, 0.5, 0.1]","[u'low', u'medium', u'high']","red",50,"middle","medium","False","False",372,3100,NA
"A1N16ZU0FNQEY6","Wed Sep 23 2020 09:33:34 GMT-0600 (Mountain Daylight Time)","Wed Sep 23 2020 09:40:00 GMT-0600 (Mountain Daylight Time)","Mozilla/5.0 (Windows NT 10.0; Win64; x64) AppleWebKit/537.36 (KHTML, like Gecko) Chrome/85.0.4183.121 Safari/537.36",59,"[0.9, 0.5, 0.1]","[0.8, 0.4, 0.2]","[u'blue', u'red', u'black']","[u'left', u'middle', u'right']","[0.9, 0.5, 0.1]","[u'low', u'medium', u'high']","blue",49,"left","low","True","False",308,3200,NA
"A1N16ZU0FNQEY6","Wed Sep 23 2020 09:33:34 GMT-0600 (Mountain Daylight Time)","Wed Sep 23 2020 09:40:00 GMT-0600 (Mountain Daylight Time)","Mozilla/5.0 (Windows NT 10.0; Win64; x64) AppleWebKit/537.36 (KHTML, like Gecko) Chrome/85.0.4183.121 Safari/537.36",60,"[0.9, 0.5, 0.1]","[0.8, 0.4, 0.2]","[u'blue', u'red', u'black']","[u'left', u'middle', u'right']","[0.9, 0.5, 0.1]","[u'low', u'medium', u'high']","blue",49,"left","low","False","False",37,3150,NA
"A1N16ZU0FNQEY6","Wed Sep 23 2020 09:33:34 GMT-0600 (Mountain Daylight Time)","Wed Sep 23 2020 09:40:00 GMT-0600 (Mountain Daylight Time)","Mozilla/5.0 (Windows NT 10.0; Win64; x64) AppleWebKit/537.36 (KHTML, like Gecko) Chrome/85.0.4183.121 Safari/537.36",61,"[0.9, 0.5, 0.1]","[0.8, 0.4, 0.2]","[u'blue', u'red', u'black']","[u'left', u'middle', u'right']","[0.9, 0.5, 0.1]","[u'low', u'medium', u'high']","blue",49,"left","low","False","False",52,3100,NA
"A1N16ZU0FNQEY6","Wed Sep 23 2020 09:33:34 GMT-0600 (Mountain Daylight Time)","Wed Sep 23 2020 09:40:00 GMT-0600 (Mountain Daylight Time)","Mozilla/5.0 (Windows NT 10.0; Win64; x64) AppleWebKit/537.36 (KHTML, like Gecko) Chrome/85.0.4183.121 Safari/537.36",62,"[0.9, 0.5, 0.1]","[0.8, 0.4, 0.2]","[u'blue', u'red', u'black']","[u'left', u'middle', u'right']","[0.9, 0.5, 0.1]","[u'low', u'medium', u'high']","black",51,"right","high","True","False",233,3200,NA
"A1N16ZU0FNQEY6","Wed Sep 23 2020 09:33:34 GMT-0600 (Mountain Daylight Time)","Wed Sep 23 2020 09:40:00 GMT-0600 (Mountain Daylight Time)","Mozilla/5.0 (Windows NT 10.0; Win64; x64) AppleWebKit/537.36 (KHTML, like Gecko) Chrome/85.0.4183.121 Safari/537.36",63,"[0.9, 0.5, 0.1]","[0.8, 0.4, 0.2]","[u'blue', u'red', u'black']","[u'left', u'middle', u'right']","[0.9, 0.5, 0.1]","[u'low', u'medium', u'high']","black",51,"right","high","True","False",131,3300,NA
"A1N16ZU0FNQEY6","Wed Sep 23 2020 09:33:34 GMT-0600 (Mountain Daylight Time)","Wed Sep 23 2020 09:40:00 GMT-0600 (Mountain Daylight Time)","Mozilla/5.0 (Windows NT 10.0; Win64; x64) AppleWebKit/537.36 (KHTML, like Gecko) Chrome/85.0.4183.121 Safari/537.36",64,"[0.9, 0.5, 0.1]","[0.8, 0.4, 0.2]","[u'blue', u'red', u'black']","[u'left', u'middle', u'right']","[0.9, 0.5, 0.1]","[u'low', u'medium', u'high']","black",51,"right","high","True","False",191,3400,NA
"A1N16ZU0FNQEY6","Wed Sep 23 2020 09:33:34 GMT-0600 (Mountain Daylight Time)","Wed Sep 23 2020 09:40:00 GMT-0600 (Mountain Daylight Time)","Mozilla/5.0 (Windows NT 10.0; Win64; x64) AppleWebKit/537.36 (KHTML, like Gecko) Chrome/85.0.4183.121 Safari/537.36",65,"[0.9, 0.5, 0.1]","[0.8, 0.4, 0.2]","[u'blue', u'red', u'black']","[u'left', u'middle', u'right']","[0.9, 0.5, 0.1]","[u'low', u'medium', u'high']","black",51,"right","high","False","False",92,3350,NA
"A1N16ZU0FNQEY6","Wed Sep 23 2020 09:33:34 GMT-0600 (Mountain Daylight Time)","Wed Sep 23 2020 09:40:00 GMT-0600 (Mountain Daylight Time)","Mozilla/5.0 (Windows NT 10.0; Win64; x64) AppleWebKit/537.36 (KHTML, like Gecko) Chrome/85.0.4183.121 Safari/537.36",66,"[0.9, 0.5, 0.1]","[0.8, 0.4, 0.2]","[u'blue', u'red', u'black']","[u'left', u'middle', u'right']","[0.9, 0.5, 0.1]","[u'low', u'medium', u'high']","black",51,"right","high","True","False",196,3450,NA
"A1N16ZU0FNQEY6","Wed Sep 23 2020 09:33:34 GMT-0600 (Mountain Daylight Time)","Wed Sep 23 2020 09:40:00 GMT-0600 (Mountain Daylight Time)","Mozilla/5.0 (Windows NT 10.0; Win64; x64) AppleWebKit/537.36 (KHTML, like Gecko) Chrome/85.0.4183.121 Safari/537.36",67,"[0.9, 0.5, 0.1]","[0.8, 0.4, 0.2]","[u'blue', u'red', u'black']","[u'left', u'middle', u'right']","[0.9, 0.5, 0.1]","[u'low', u'medium', u'high']","black",51,"right","high","True","False",73,3550,NA
"A1N16ZU0FNQEY6","Wed Sep 23 2020 09:33:34 GMT-0600 (Mountain Daylight Time)","Wed Sep 23 2020 09:40:00 GMT-0600 (Mountain Daylight Time)","Mozilla/5.0 (Windows NT 10.0; Win64; x64) AppleWebKit/537.36 (KHTML, like Gecko) Chrome/85.0.4183.121 Safari/537.36",68,"[0.9, 0.5, 0.1]","[0.8, 0.4, 0.2]","[u'blue', u'red', u'black']","[u'left', u'middle', u'right']","[0.9, 0.5, 0.1]","[u'low', u'medium', u'high']","black",51,"right","high","True","False",190,3650,NA
"A1N16ZU0FNQEY6","Wed Sep 23 2020 09:33:34 GMT-0600 (Mountain Daylight Time)","Wed Sep 23 2020 09:40:00 GMT-0600 (Mountain Daylight Time)","Mozilla/5.0 (Windows NT 10.0; Win64; x64) AppleWebKit/537.36 (KHTML, like Gecko) Chrome/85.0.4183.121 Safari/537.36",69,"[0.9, 0.5, 0.1]","[0.8, 0.4, 0.2]","[u'blue', u'red', u'black']","[u'left', u'middle', u'right']","[0.9, 0.5, 0.1]","[u'low', u'medium', u'high']","black",51,"right","high","True","False",222,3750,NA
"A1N16ZU0FNQEY6","Wed Sep 23 2020 09:33:34 GMT-0600 (Mountain Daylight Time)","Wed Sep 23 2020 09:40:00 GMT-0600 (Mountain Daylight Time)","Mozilla/5.0 (Windows NT 10.0; Win64; x64) AppleWebKit/537.36 (KHTML, like Gecko) Chrome/85.0.4183.121 Safari/537.36",70,"[0.9, 0.5, 0.1]","[0.8, 0.4, 0.2]","[u'blue', u'red', u'black']","[u'left', u'middle', u'right']","[0.9, 0.5, 0.1]","[u'low', u'medium', u'high']","black",51,"right","high","True","True",225,3850,NA
"A1N16ZU0FNQEY6","Wed Sep 23 2020 09:33:34 GMT-0600 (Mountain Daylight Time)","Wed Sep 23 2020 09:40:00 GMT-0600 (Mountain Daylight Time)","Mozilla/5.0 (Windows NT 10.0; Win64; x64) AppleWebKit/537.36 (KHTML, like Gecko) Chrome/85.0.4183.121 Safari/537.36",71,"[0.9, 0.5, 0.1]","[0.8, 0.4, 0.2]","[u'blue', u'red', u'black']","[u'left', u'middle', u'right']","[0.9, 0.5, 0.1]","[u'low', u'high', u'medium']","black",51,"right","medium","False","False",213,3800,NA
"A1N16ZU0FNQEY6","Wed Sep 23 2020 09:33:34 GMT-0600 (Mountain Daylight Time)","Wed Sep 23 2020 09:40:00 GMT-0600 (Mountain Daylight Time)","Mozilla/5.0 (Windows NT 10.0; Win64; x64) AppleWebKit/537.36 (KHTML, like Gecko) Chrome/85.0.4183.121 Safari/537.36",72,"[0.9, 0.5, 0.1]","[0.8, 0.4, 0.2]","[u'blue', u'red', u'black']","[u'left', u'middle', u'right']","[0.9, 0.5, 0.1]","[u'low', u'high', u'medium']","black",51,"right","medium","True","False",266,3900,NA
"A1N16ZU0FNQEY6","Wed Sep 23 2020 09:33:34 GMT-0600 (Mountain Daylight Time)","Wed Sep 23 2020 09:40:00 GMT-0600 (Mountain Daylight Time)","Mozilla/5.0 (Windows NT 10.0; Win64; x64) AppleWebKit/537.36 (KHTML, like Gecko) Chrome/85.0.4183.121 Safari/537.36",73,"[0.9, 0.5, 0.1]","[0.8, 0.4, 0.2]","[u'blue', u'red', u'black']","[u'left', u'middle', u'right']","[0.9, 0.5, 0.1]","[u'low', u'high', u'medium']","black",51,"right","medium","False","False",243,3850,NA
"A1N16ZU0FNQEY6","Wed Sep 23 2020 09:33:34 GMT-0600 (Mountain Daylight Time)","Wed Sep 23 2020 09:40:00 GMT-0600 (Mountain Daylight Time)","Mozilla/5.0 (Windows NT 10.0; Win64; x64) AppleWebKit/537.36 (KHTML, like Gecko) Chrome/85.0.4183.121 Safari/537.36",74,"[0.9, 0.5, 0.1]","[0.8, 0.4, 0.2]","[u'blue', u'red', u'black']","[u'left', u'middle', u'right']","[0.9, 0.5, 0.1]","[u'low', u'high', u'medium']","black",51,"right","medium","False","False",180,3800,NA
"A1N16ZU0FNQEY6","Wed Sep 23 2020 09:33:34 GMT-0600 (Mountain Daylight Time)","Wed Sep 23 2020 09:40:00 GMT-0600 (Mountain Daylight Time)","Mozilla/5.0 (Windows NT 10.0; Win64; x64) AppleWebKit/537.36 (KHTML, like Gecko) Chrome/85.0.4183.121 Safari/537.36",75,"[0.9, 0.5, 0.1]","[0.8, 0.4, 0.2]","[u'blue', u'red', u'black']","[u'left', u'middle', u'right']","[0.9, 0.5, 0.1]","[u'low', u'high', u'medium']","blue",49,"left","low","False","False",125,3750,NA
"A1N16ZU0FNQEY6","Wed Sep 23 2020 09:33:34 GMT-0600 (Mountain Daylight Time)","Wed Sep 23 2020 09:40:00 GMT-0600 (Mountain Daylight Time)","Mozilla/5.0 (Windows NT 10.0; Win64; x64) AppleWebKit/537.36 (KHTML, like Gecko) Chrome/85.0.4183.121 Safari/537.36",76,"[0.9, 0.5, 0.1]","[0.8, 0.4, 0.2]","[u'blue', u'red', u'black']","[u'left', u'middle', u'right']","[0.9, 0.5, 0.1]","[u'low', u'high', u'medium']","red",50,"middle","high","True","False",191,3850,NA
"A1N16ZU0FNQEY6","Wed Sep 23 2020 09:33:34 GMT-0600 (Mountain Daylight Time)","Wed Sep 23 2020 09:40:00 GMT-0600 (Mountain Daylight Time)","Mozilla/5.0 (Windows NT 10.0; Win64; x64) AppleWebKit/537.36 (KHTML, like Gecko) Chrome/85.0.4183.121 Safari/537.36",77,"[0.9, 0.5, 0.1]","[0.8, 0.4, 0.2]","[u'blue', u'red', u'black']","[u'left', u'middle', u'right']","[0.9, 0.5, 0.1]","[u'low', u'high', u'medium']","red",50,"middle","high","True","False",332,3950,NA
"A1N16ZU0FNQEY6","Wed Sep 23 2020 09:33:34 GMT-0600 (Mountain Daylight Time)","Wed Sep 23 2020 09:40:00 GMT-0600 (Mountain Daylight Time)","Mozilla/5.0 (Windows NT 10.0; Win64; x64) AppleWebKit/537.36 (KHTML, like Gecko) Chrome/85.0.4183.121 Safari/537.36",78,"[0.9, 0.5, 0.1]","[0.8, 0.4, 0.2]","[u'blue', u'red', u'black']","[u'left', u'middle', u'right']","[0.9, 0.5, 0.1]","[u'low', u'high', u'medium']","red",50,"middle","high","True","False",197,4050,NA
"A1N16ZU0FNQEY6","Wed Sep 23 2020 09:33:34 GMT-0600 (Mountain Daylight Time)","Wed Sep 23 2020 09:40:00 GMT-0600 (Mountain Daylight Time)","Mozilla/5.0 (Windows NT 10.0; Win64; x64) AppleWebKit/537.36 (KHTML, like Gecko) Chrome/85.0.4183.121 Safari/537.36",79,"[0.9, 0.5, 0.1]","[0.8, 0.4, 0.2]","[u'blue', u'red', u'black']","[u'left', u'middle', u'right']","[0.9, 0.5, 0.1]","[u'low', u'high', u'medium']","red",50,"middle","high","True","False",211,4150,NA
"A1N16ZU0FNQEY6","Wed Sep 23 2020 09:33:34 GMT-0600 (Mountain Daylight Time)","Wed Sep 23 2020 09:40:00 GMT-0600 (Mountain Daylight Time)","Mozilla/5.0 (Windows NT 10.0; Win64; x64) AppleWebKit/537.36 (KHTML, like Gecko) Chrome/85.0.4183.121 Safari/537.36",80,"[0.9, 0.5, 0.1]","[0.8, 0.4, 0.2]","[u'blue', u'red', u'black']","[u'left', u'middle', u'right']","[0.9, 0.5, 0.1]","[u'low', u'high', u'medium']","red",50,"middle","high","True","False",257,4250,NA
"A1N16ZU0FNQEY6","Wed Sep 23 2020 09:33:34 GMT-0600 (Mountain Daylight Time)","Wed Sep 23 2020 09:40:00 GMT-0600 (Mountain Daylight Time)","Mozilla/5.0 (Windows NT 10.0; Win64; x64) AppleWebKit/537.36 (KHTML, like Gecko) Chrome/85.0.4183.121 Safari/537.36",81,"[0.9, 0.5, 0.1]","[0.8, 0.4, 0.2]","[u'blue', u'red', u'black']","[u'left', u'middle', u'right']","[0.8, 0.4, 0.2]","[u'high', u'medium', u'low']","blue",49,"left","high","True","False",304,4350,NA
"A1N16ZU0FNQEY6","Wed Sep 23 2020 09:33:34 GMT-0600 (Mountain Daylight Time)","Wed Sep 23 2020 09:40:00 GMT-0600 (Mountain Daylight Time)","Mozilla/5.0 (Windows NT 10.0; Win64; x64) AppleWebKit/537.36 (KHTML, like Gecko) Chrome/85.0.4183.121 Safari/537.36",82,"[0.9, 0.5, 0.1]","[0.8, 0.4, 0.2]","[u'blue', u'red', u'black']","[u'left', u'middle', u'right']","[0.8, 0.4, 0.2]","[u'high', u'medium', u'low']","blue",49,"left","high","True","False",225,4450,NA
"A1N16ZU0FNQEY6","Wed Sep 23 2020 09:33:34 GMT-0600 (Mountain Daylight Time)","Wed Sep 23 2020 09:40:00 GMT-0600 (Mountain Daylight Time)","Mozilla/5.0 (Windows NT 10.0; Win64; x64) AppleWebKit/537.36 (KHTML, like Gecko) Chrome/85.0.4183.121 Safari/537.36",83,"[0.9, 0.5, 0.1]","[0.8, 0.4, 0.2]","[u'blue', u'red', u'black']","[u'left', u'middle', u'right']","[0.8, 0.4, 0.2]","[u'high', u'medium', u'low']","blue",49,"left","high","True","False",263,4550,NA
"A1N16ZU0FNQEY6","Wed Sep 23 2020 09:33:34 GMT-0600 (Mountain Daylight Time)","Wed Sep 23 2020 09:40:00 GMT-0600 (Mountain Daylight Time)","Mozilla/5.0 (Windows NT 10.0; Win64; x64) AppleWebKit/537.36 (KHTML, like Gecko) Chrome/85.0.4183.121 Safari/537.36",84,"[0.9, 0.5, 0.1]","[0.8, 0.4, 0.2]","[u'blue', u'red', u'black']","[u'left', u'middle', u'right']","[0.8, 0.4, 0.2]","[u'high', u'medium', u'low']","blue",49,"left","high","True","False",511,4650,NA
"A1N16ZU0FNQEY6","Wed Sep 23 2020 09:33:34 GMT-0600 (Mountain Daylight Time)","Wed Sep 23 2020 09:40:00 GMT-0600 (Mountain Daylight Time)","Mozilla/5.0 (Windows NT 10.0; Win64; x64) AppleWebKit/537.36 (KHTML, like Gecko) Chrome/85.0.4183.121 Safari/537.36",85,"[0.9, 0.5, 0.1]","[0.8, 0.4, 0.2]","[u'blue', u'red', u'black']","[u'left', u'middle', u'right']","[0.8, 0.4, 0.2]","[u'high', u'medium', u'low']","blue",49,"left","high","True","False",270,4750,NA
"A1N16ZU0FNQEY6","Wed Sep 23 2020 09:33:34 GMT-0600 (Mountain Daylight Time)","Wed Sep 23 2020 09:40:00 GMT-0600 (Mountain Daylight Time)","Mozilla/5.0 (Windows NT 10.0; Win64; x64) AppleWebKit/537.36 (KHTML, like Gecko) Chrome/85.0.4183.121 Safari/537.36",86,"[0.9, 0.5, 0.1]","[0.8, 0.4, 0.2]","[u'blue', u'red', u'black']","[u'left', u'middle', u'right']","[0.8, 0.4, 0.2]","[u'high', u'medium', u'low']","blue",49,"left","high","True","False",242,4850,NA
"A1N16ZU0FNQEY6","Wed Sep 23 2020 09:33:34 GMT-0600 (Mountain Daylight Time)","Wed Sep 23 2020 09:40:00 GMT-0600 (Mountain Daylight Time)","Mozilla/5.0 (Windows NT 10.0; Win64; x64) AppleWebKit/537.36 (KHTML, like Gecko) Chrome/85.0.4183.121 Safari/537.36",87,"[0.9, 0.5, 0.1]","[0.8, 0.4, 0.2]","[u'blue', u'red', u'black']","[u'left', u'middle', u'right']","[0.8, 0.4, 0.2]","[u'high', u'medium', u'low']","blue",49,"left","high","True","False",301,4950,NA
"A1N16ZU0FNQEY6","Wed Sep 23 2020 09:33:34 GMT-0600 (Mountain Daylight Time)","Wed Sep 23 2020 09:40:00 GMT-0600 (Mountain Daylight Time)","Mozilla/5.0 (Windows NT 10.0; Win64; x64) AppleWebKit/537.36 (KHTML, like Gecko) Chrome/85.0.4183.121 Safari/537.36",88,"[0.9, 0.5, 0.1]","[0.8, 0.4, 0.2]","[u'blue', u'red', u'black']","[u'left', u'middle', u'right']","[0.8, 0.4, 0.2]","[u'high', u'medium', u'low']","blue",49,"left","high","True","False",262,5050,NA
"A1N16ZU0FNQEY6","Wed Sep 23 2020 09:33:34 GMT-0600 (Mountain Daylight Time)","Wed Sep 23 2020 09:40:00 GMT-0600 (Mountain Daylight Time)","Mozilla/5.0 (Windows NT 10.0; Win64; x64) AppleWebKit/537.36 (KHTML, like Gecko) Chrome/85.0.4183.121 Safari/537.36",89,"[0.9, 0.5, 0.1]","[0.8, 0.4, 0.2]","[u'blue', u'red', u'black']","[u'left', u'middle', u'right']","[0.8, 0.4, 0.2]","[u'high', u'medium', u'low']","blue",49,"left","high","True","True",308,5150,NA
"A1N16ZU0FNQEY6","Wed Sep 23 2020 09:33:34 GMT-0600 (Mountain Daylight Time)","Wed Sep 23 2020 09:40:00 GMT-0600 (Mountain Daylight Time)","Mozilla/5.0 (Windows NT 10.0; Win64; x64) AppleWebKit/537.36 (KHTML, like Gecko) Chrome/85.0.4183.121 Safari/537.36",90,"[0.9, 0.5, 0.1]","[0.8, 0.4, 0.2]","[u'blue', u'red', u'black']","[u'left', u'middle', u'right']","[0.8, 0.4, 0.2]","[u'low', u'high', u'medium']","blue",49,"left","low","False","False",253,5100,NA
"A1N16ZU0FNQEY6","Wed Sep 23 2020 09:33:34 GMT-0600 (Mountain Daylight Time)","Wed Sep 23 2020 09:40:00 GMT-0600 (Mountain Daylight Time)","Mozilla/5.0 (Windows NT 10.0; Win64; x64) AppleWebKit/537.36 (KHTML, like Gecko) Chrome/85.0.4183.121 Safari/537.36",91,"[0.9, 0.5, 0.1]","[0.8, 0.4, 0.2]","[u'blue', u'red', u'black']","[u'left', u'middle', u'right']","[0.8, 0.4, 0.2]","[u'low', u'high', u'medium']","blue",49,"left","low","False","False",242,5050,NA
"A1N16ZU0FNQEY6","Wed Sep 23 2020 09:33:34 GMT-0600 (Mountain Daylight Time)","Wed Sep 23 2020 09:40:00 GMT-0600 (Mountain Daylight Time)","Mozilla/5.0 (Windows NT 10.0; Win64; x64) AppleWebKit/537.36 (KHTML, like Gecko) Chrome/85.0.4183.121 Safari/537.36",92,"[0.9, 0.5, 0.1]","[0.8, 0.4, 0.2]","[u'blue', u'red', u'black']","[u'left', u'middle', u'right']","[0.8, 0.4, 0.2]","[u'low', u'high', u'medium']","black",51,"right","medium","False","False",244,5000,NA
"A1N16ZU0FNQEY6","Wed Sep 23 2020 09:33:34 GMT-0600 (Mountain Daylight Time)","Wed Sep 23 2020 09:40:00 GMT-0600 (Mountain Daylight Time)","Mozilla/5.0 (Windows NT 10.0; Win64; x64) AppleWebKit/537.36 (KHTML, like Gecko) Chrome/85.0.4183.121 Safari/537.36",93,"[0.9, 0.5, 0.1]","[0.8, 0.4, 0.2]","[u'blue', u'red', u'black']","[u'left', u'middle', u'right']","[0.8, 0.4, 0.2]","[u'low', u'high', u'medium']","red",50,"middle","high","True","False",204,5100,NA
"A1N16ZU0FNQEY6","Wed Sep 23 2020 09:33:34 GMT-0600 (Mountain Daylight Time)","Wed Sep 23 2020 09:40:00 GMT-0600 (Mountain Daylight Time)","Mozilla/5.0 (Windows NT 10.0; Win64; x64) AppleWebKit/537.36 (KHTML, like Gecko) Chrome/85.0.4183.121 Safari/537.36",94,"[0.9, 0.5, 0.1]","[0.8, 0.4, 0.2]","[u'blue', u'red', u'black']","[u'left', u'middle', u'right']","[0.8, 0.4, 0.2]","[u'low', u'high', u'medium']","red",50,"middle","high","True","False",167,5200,NA
"A1N16ZU0FNQEY6","Wed Sep 23 2020 09:33:34 GMT-0600 (Mountain Daylight Time)","Wed Sep 23 2020 09:40:00 GMT-0600 (Mountain Daylight Time)","Mozilla/5.0 (Windows NT 10.0; Win64; x64) AppleWebKit/537.36 (KHTML, like Gecko) Chrome/85.0.4183.121 Safari/537.36",95,"[0.9, 0.5, 0.1]","[0.8, 0.4, 0.2]","[u'blue', u'red', u'black']","[u'left', u'middle', u'right']","[0.8, 0.4, 0.2]","[u'low', u'high', u'medium']","red",50,"middle","high","True","False",186,5300,NA
"A1N16ZU0FNQEY6","Wed Sep 23 2020 09:33:34 GMT-0600 (Mountain Daylight Time)","Wed Sep 23 2020 09:40:00 GMT-0600 (Mountain Daylight Time)","Mozilla/5.0 (Windows NT 10.0; Win64; x64) AppleWebKit/537.36 (KHTML, like Gecko) Chrome/85.0.4183.121 Safari/537.36",96,"[0.9, 0.5, 0.1]","[0.8, 0.4, 0.2]","[u'blue', u'red', u'black']","[u'left', u'middle', u'right']","[0.8, 0.4, 0.2]","[u'low', u'high', u'medium']","red",50,"middle","high","True","False",226,5400,NA
"A1N16ZU0FNQEY6","Wed Sep 23 2020 09:33:34 GMT-0600 (Mountain Daylight Time)","Wed Sep 23 2020 09:40:00 GMT-0600 (Mountain Daylight Time)","Mozilla/5.0 (Windows NT 10.0; Win64; x64) AppleWebKit/537.36 (KHTML, like Gecko) Chrome/85.0.4183.121 Safari/537.36",97,"[0.9, 0.5, 0.1]","[0.8, 0.4, 0.2]","[u'blue', u'red', u'black']","[u'left', u'middle', u'right']","[0.8, 0.4, 0.2]","[u'low', u'high', u'medium']","red",50,"middle","high","True","False",209,5500,NA
"A1N16ZU0FNQEY6","Wed Sep 23 2020 09:33:34 GMT-0600 (Mountain Daylight Time)","Wed Sep 23 2020 09:40:00 GMT-0600 (Mountain Daylight Time)","Mozilla/5.0 (Windows NT 10.0; Win64; x64) AppleWebKit/537.36 (KHTML, like Gecko) Chrome/85.0.4183.121 Safari/537.36",98,"[0.9, 0.5, 0.1]","[0.8, 0.4, 0.2]","[u'blue', u'red', u'black']","[u'left', u'middle', u'right']","[0.8, 0.4, 0.2]","[u'low', u'high', u'medium']","red",50,"middle","high","True","False",210,5600,NA
"A1N16ZU0FNQEY6","Wed Sep 23 2020 09:33:34 GMT-0600 (Mountain Daylight Time)","Wed Sep 23 2020 09:40:00 GMT-0600 (Mountain Daylight Time)","Mozilla/5.0 (Windows NT 10.0; Win64; x64) AppleWebKit/537.36 (KHTML, like Gecko) Chrome/85.0.4183.121 Safari/537.36",99,"[0.9, 0.5, 0.1]","[0.8, 0.4, 0.2]","[u'blue', u'red', u'black']","[u'left', u'middle', u'right']","[0.8, 0.4, 0.2]","[u'low', u'high', u'medium']","red",50,"middle","high","False","False",255,5550,NA
"A1N16ZU0FNQEY6","Wed Sep 23 2020 09:33:34 GMT-0600 (Mountain Daylight Time)","Wed Sep 23 2020 09:40:00 GMT-0600 (Mountain Daylight Time)","Mozilla/5.0 (Windows NT 10.0; Win64; x64) AppleWebKit/537.36 (KHTML, like Gecko) Chrome/85.0.4183.121 Safari/537.36",100,"[0.9, 0.5, 0.1]","[0.8, 0.4, 0.2]","[u'blue', u'red', u'black']","[u'left', u'middle', u'right']","[0.8, 0.4, 0.2]","[u'low', u'high', u'medium']","red",50,"middle","high","True","False",242,5650,NA
"A1N16ZU0FNQEY6","Wed Sep 23 2020 09:33:34 GMT-0600 (Mountain Daylight Time)","Wed Sep 23 2020 09:40:00 GMT-0600 (Mountain Daylight Time)","Mozilla/5.0 (Windows NT 10.0; Win64; x64) AppleWebKit/537.36 (KHTML, like Gecko) Chrome/85.0.4183.121 Safari/537.36",101,"[0.9, 0.5, 0.1]","[0.8, 0.4, 0.2]","[u'blue', u'red', u'black']","[u'left', u'middle', u'right']","[0.8, 0.4, 0.2]","[u'low', u'high', u'medium']","red",50,"middle","high","False","True",260,5600,NA
"A1N16ZU0FNQEY6","Wed Sep 23 2020 09:33:34 GMT-0600 (Mountain Daylight Time)","Wed Sep 23 2020 09:40:00 GMT-0600 (Mountain Daylight Time)","Mozilla/5.0 (Windows NT 10.0; Win64; x64) AppleWebKit/537.36 (KHTML, like Gecko) Chrome/85.0.4183.121 Safari/537.36",102,"[0.9, 0.5, 0.1]","[0.8, 0.4, 0.2]","[u'blue', u'red', u'black']","[u'left', u'middle', u'right']","[0.8, 0.4, 0.2]","[u'low', u'medium', u'high']","black",51,"right","high","True","False",211,5700,NA
"A1N16ZU0FNQEY6","Wed Sep 23 2020 09:33:34 GMT-0600 (Mountain Daylight Time)","Wed Sep 23 2020 09:40:00 GMT-0600 (Mountain Daylight Time)","Mozilla/5.0 (Windows NT 10.0; Win64; x64) AppleWebKit/537.36 (KHTML, like Gecko) Chrome/85.0.4183.121 Safari/537.36",103,"[0.9, 0.5, 0.1]","[0.8, 0.4, 0.2]","[u'blue', u'red', u'black']","[u'left', u'middle', u'right']","[0.8, 0.4, 0.2]","[u'low', u'medium', u'high']","black",51,"right","high","True","False",257,5800,NA
"A1N16ZU0FNQEY6","Wed Sep 23 2020 09:33:34 GMT-0600 (Mountain Daylight Time)","Wed Sep 23 2020 09:40:00 GMT-0600 (Mountain Daylight Time)","Mozilla/5.0 (Windows NT 10.0; Win64; x64) AppleWebKit/537.36 (KHTML, like Gecko) Chrome/85.0.4183.121 Safari/537.36",104,"[0.9, 0.5, 0.1]","[0.8, 0.4, 0.2]","[u'blue', u'red', u'black']","[u'left', u'middle', u'right']","[0.8, 0.4, 0.2]","[u'low', u'medium', u'high']","black",51,"right","high","False","False",219,5750,NA
"A1N16ZU0FNQEY6","Wed Sep 23 2020 09:33:34 GMT-0600 (Mountain Daylight Time)","Wed Sep 23 2020 09:40:00 GMT-0600 (Mountain Daylight Time)","Mozilla/5.0 (Windows NT 10.0; Win64; x64) AppleWebKit/537.36 (KHTML, like Gecko) Chrome/85.0.4183.121 Safari/537.36",105,"[0.9, 0.5, 0.1]","[0.8, 0.4, 0.2]","[u'blue', u'red', u'black']","[u'left', u'middle', u'right']","[0.8, 0.4, 0.2]","[u'low', u'medium', u'high']","black",51,"right","high","True","False",214,5850,NA
"A1N16ZU0FNQEY6","Wed Sep 23 2020 09:33:34 GMT-0600 (Mountain Daylight Time)","Wed Sep 23 2020 09:40:00 GMT-0600 (Mountain Daylight Time)","Mozilla/5.0 (Windows NT 10.0; Win64; x64) AppleWebKit/537.36 (KHTML, like Gecko) Chrome/85.0.4183.121 Safari/537.36",106,"[0.9, 0.5, 0.1]","[0.8, 0.4, 0.2]","[u'blue', u'red', u'black']","[u'left', u'middle', u'right']","[0.8, 0.4, 0.2]","[u'low', u'medium', u'high']","black",51,"right","high","True","False",154,5950,NA
"A1N16ZU0FNQEY6","Wed Sep 23 2020 09:33:34 GMT-0600 (Mountain Daylight Time)","Wed Sep 23 2020 09:40:00 GMT-0600 (Mountain Daylight Time)","Mozilla/5.0 (Windows NT 10.0; Win64; x64) AppleWebKit/537.36 (KHTML, like Gecko) Chrome/85.0.4183.121 Safari/537.36",107,"[0.9, 0.5, 0.1]","[0.8, 0.4, 0.2]","[u'blue', u'red', u'black']","[u'left', u'middle', u'right']","[0.8, 0.4, 0.2]","[u'low', u'medium', u'high']","black",51,"right","high","False","False",251,5900,NA
"A1N16ZU0FNQEY6","Wed Sep 23 2020 09:33:34 GMT-0600 (Mountain Daylight Time)","Wed Sep 23 2020 09:40:00 GMT-0600 (Mountain Daylight Time)","Mozilla/5.0 (Windows NT 10.0; Win64; x64) AppleWebKit/537.36 (KHTML, like Gecko) Chrome/85.0.4183.121 Safari/537.36",108,"[0.9, 0.5, 0.1]","[0.8, 0.4, 0.2]","[u'blue', u'red', u'black']","[u'left', u'middle', u'right']","[0.8, 0.4, 0.2]","[u'low', u'medium', u'high']","black",51,"right","high","True","False",196,6000,NA
"A1N16ZU0FNQEY6","Wed Sep 23 2020 09:33:34 GMT-0600 (Mountain Daylight Time)","Wed Sep 23 2020 09:40:00 GMT-0600 (Mountain Daylight Time)","Mozilla/5.0 (Windows NT 10.0; Win64; x64) AppleWebKit/537.36 (KHTML, like Gecko) Chrome/85.0.4183.121 Safari/537.36",109,"[0.9, 0.5, 0.1]","[0.8, 0.4, 0.2]","[u'blue', u'red', u'black']","[u'left', u'middle', u'right']","[0.8, 0.4, 0.2]","[u'low', u'medium', u'high']","black",51,"right","high","True","False",176,6100,NA
"A1N16ZU0FNQEY6","Wed Sep 23 2020 09:33:34 GMT-0600 (Mountain Daylight Time)","Wed Sep 23 2020 09:40:00 GMT-0600 (Mountain Daylight Time)","Mozilla/5.0 (Windows NT 10.0; Win64; x64) AppleWebKit/537.36 (KHTML, like Gecko) Chrome/85.0.4183.121 Safari/537.36",110,"[0.9, 0.5, 0.1]","[0.8, 0.4, 0.2]","[u'blue', u'red', u'black']","[u'left', u'middle', u'right']","[0.8, 0.4, 0.2]","[u'low', u'medium', u'high']","black",51,"right","high","True","True",277,6200,NA
"A1N16ZU0FNQEY6","Wed Sep 23 2020 09:33:34 GMT-0600 (Mountain Daylight Time)","Wed Sep 23 2020 09:40:00 GMT-0600 (Mountain Daylight Time)","Mozilla/5.0 (Windows NT 10.0; Win64; x64) AppleWebKit/537.36 (KHTML, like Gecko) Chrome/85.0.4183.121 Safari/537.36",111,"[0.9, 0.5, 0.1]","[0.8, 0.4, 0.2]","[u'blue', u'red', u'black']","[u'left', u'middle', u'right']","[0.8, 0.4, 0.2]","[u'low', u'high', u'medium']","black",51,"right","medium","False","False",210,6150,NA
"A1N16ZU0FNQEY6","Wed Sep 23 2020 09:33:34 GMT-0600 (Mountain Daylight Time)","Wed Sep 23 2020 09:40:00 GMT-0600 (Mountain Daylight Time)","Mozilla/5.0 (Windows NT 10.0; Win64; x64) AppleWebKit/537.36 (KHTML, like Gecko) Chrome/85.0.4183.121 Safari/537.36",112,"[0.9, 0.5, 0.1]","[0.8, 0.4, 0.2]","[u'blue', u'red', u'black']","[u'left', u'middle', u'right']","[0.8, 0.4, 0.2]","[u'low', u'high', u'medium']","black",51,"right","medium","True","False",192,6250,NA
"A1N16ZU0FNQEY6","Wed Sep 23 2020 09:33:34 GMT-0600 (Mountain Daylight Time)","Wed Sep 23 2020 09:40:00 GMT-0600 (Mountain Daylight Time)","Mozilla/5.0 (Windows NT 10.0; Win64; x64) AppleWebKit/537.36 (KHTML, like Gecko) Chrome/85.0.4183.121 Safari/537.36",113,"[0.9, 0.5, 0.1]","[0.8, 0.4, 0.2]","[u'blue', u'red', u'black']","[u'left', u'middle', u'right']","[0.8, 0.4, 0.2]","[u'low', u'high', u'medium']","black",51,"right","medium","False","False",221,6200,NA
"A1N16ZU0FNQEY6","Wed Sep 23 2020 09:33:34 GMT-0600 (Mountain Daylight Time)","Wed Sep 23 2020 09:40:00 GMT-0600 (Mountain Daylight Time)","Mozilla/5.0 (Windows NT 10.0; Win64; x64) AppleWebKit/537.36 (KHTML, like Gecko) Chrome/85.0.4183.121 Safari/537.36",114,"[0.9, 0.5, 0.1]","[0.8, 0.4, 0.2]","[u'blue', u'red', u'black']","[u'left', u'middle', u'right']","[0.8, 0.4, 0.2]","[u'low', u'high', u'medium']","blue",49,"left","low","False","False",218,6150,NA
"A1N16ZU0FNQEY6","Wed Sep 23 2020 09:33:34 GMT-0600 (Mountain Daylight Time)","Wed Sep 23 2020 09:40:00 GMT-0600 (Mountain Daylight Time)","Mozilla/5.0 (Windows NT 10.0; Win64; x64) AppleWebKit/537.36 (KHTML, like Gecko) Chrome/85.0.4183.121 Safari/537.36",115,"[0.9, 0.5, 0.1]","[0.8, 0.4, 0.2]","[u'blue', u'red', u'black']","[u'left', u'middle', u'right']","[0.8, 0.4, 0.2]","[u'low', u'high', u'medium']","red",50,"middle","high","True","False",224,6250,NA
"A1N16ZU0FNQEY6","Wed Sep 23 2020 09:33:34 GMT-0600 (Mountain Daylight Time)","Wed Sep 23 2020 09:40:00 GMT-0600 (Mountain Daylight Time)","Mozilla/5.0 (Windows NT 10.0; Win64; x64) AppleWebKit/537.36 (KHTML, like Gecko) Chrome/85.0.4183.121 Safari/537.36",116,"[0.9, 0.5, 0.1]","[0.8, 0.4, 0.2]","[u'blue', u'red', u'black']","[u'left', u'middle', u'right']","[0.8, 0.4, 0.2]","[u'low', u'high', u'medium']","red",50,"middle","high","True","False",221,6350,NA
"A1N16ZU0FNQEY6","Wed Sep 23 2020 09:33:34 GMT-0600 (Mountain Daylight Time)","Wed Sep 23 2020 09:40:00 GMT-0600 (Mountain Daylight Time)","Mozilla/5.0 (Windows NT 10.0; Win64; x64) AppleWebKit/537.36 (KHTML, like Gecko) Chrome/85.0.4183.121 Safari/537.36",117,"[0.9, 0.5, 0.1]","[0.8, 0.4, 0.2]","[u'blue', u'red', u'black']","[u'left', u'middle', u'right']","[0.8, 0.4, 0.2]","[u'low', u'high', u'medium']","red",50,"middle","high","True","False",275,6450,NA
"A1N16ZU0FNQEY6","Wed Sep 23 2020 09:33:34 GMT-0600 (Mountain Daylight Time)","Wed Sep 23 2020 09:40:00 GMT-0600 (Mountain Daylight Time)","Mozilla/5.0 (Windows NT 10.0; Win64; x64) AppleWebKit/537.36 (KHTML, like Gecko) Chrome/85.0.4183.121 Safari/537.36",118,"[0.9, 0.5, 0.1]","[0.8, 0.4, 0.2]","[u'blue', u'red', u'black']","[u'left', u'middle', u'right']","[0.8, 0.4, 0.2]","[u'low', u'high', u'medium']","red",50,"middle","high","True","False",304,6550,NA
"A1N16ZU0FNQEY6","Wed Sep 23 2020 09:33:34 GMT-0600 (Mountain Daylight Time)","Wed Sep 23 2020 09:40:00 GMT-0600 (Mountain Daylight Time)","Mozilla/5.0 (Windows NT 10.0; Win64; x64) AppleWebKit/537.36 (KHTML, like Gecko) Chrome/85.0.4183.121 Safari/537.36",119,"[0.9, 0.5, 0.1]","[0.8, 0.4, 0.2]","[u'blue', u'red', u'black']","[u'left', u'middle', u'right']","[0.8, 0.4, 0.2]","[u'low', u'high', u'medium']","red",50,"middle","high","True","False",257,6650,NA
"A1N16ZU0FNQEY6","Wed Sep 23 2020 09:33:34 GMT-0600 (Mountain Daylight Time)","Wed Sep 23 2020 09:40:00 GMT-0600 (Mountain Daylight Time)","Mozilla/5.0 (Windows NT 10.0; Win64; x64) AppleWebKit/537.36 (KHTML, like Gecko) Chrome/85.0.4183.121 Safari/537.36",120,"[0.9, 0.5, 0.1]","[0.8, 0.4, 0.2]","[u'blue', u'red', u'black']","[u'left', u'middle', u'right']","[0.8, 0.4, 0.2]","[u'low', u'high', u'medium']","red",50,"middle","high","True","False",227,6750,NA
"A1N16ZU0FNQEY6","Wed Sep 23 2020 09:33:34 GMT-0600 (Mountain Daylight Time)","Wed Sep 23 2020 09:40:00 GMT-0600 (Mountain Daylight Time)","Mozilla/5.0 (Windows NT 10.0; Win64; x64) AppleWebKit/537.36 (KHTML, like Gecko) Chrome/85.0.4183.121 Safari/537.36",121,"[0.9, 0.5, 0.1]","[0.8, 0.4, 0.2]","[u'blue', u'red', u'black']","[u'left', u'middle', u'right']","[0.8, 0.4, 0.2]","[u'medium', u'low', u'high']","black",51,"right","high","True","False",329,6850,NA
"A1N16ZU0FNQEY6","Wed Sep 23 2020 09:33:34 GMT-0600 (Mountain Daylight Time)","Wed Sep 23 2020 09:40:00 GMT-0600 (Mountain Daylight Time)","Mozilla/5.0 (Windows NT 10.0; Win64; x64) AppleWebKit/537.36 (KHTML, like Gecko) Chrome/85.0.4183.121 Safari/537.36",122,"[0.9, 0.5, 0.1]","[0.8, 0.4, 0.2]","[u'blue', u'red', u'black']","[u'left', u'middle', u'right']","[0.8, 0.4, 0.2]","[u'medium', u'low', u'high']","black",51,"right","high","True","False",231,6950,NA
"A1N16ZU0FNQEY6","Wed Sep 23 2020 09:33:34 GMT-0600 (Mountain Daylight Time)","Wed Sep 23 2020 09:40:00 GMT-0600 (Mountain Daylight Time)","Mozilla/5.0 (Windows NT 10.0; Win64; x64) AppleWebKit/537.36 (KHTML, like Gecko) Chrome/85.0.4183.121 Safari/537.36",123,"[0.9, 0.5, 0.1]","[0.8, 0.4, 0.2]","[u'blue', u'red', u'black']","[u'left', u'middle', u'right']","[0.8, 0.4, 0.2]","[u'medium', u'low', u'high']","black",51,"right","high","True","False",267,7050,NA
"A1N16ZU0FNQEY6","Wed Sep 23 2020 09:33:34 GMT-0600 (Mountain Daylight Time)","Wed Sep 23 2020 09:40:00 GMT-0600 (Mountain Daylight Time)","Mozilla/5.0 (Windows NT 10.0; Win64; x64) AppleWebKit/537.36 (KHTML, like Gecko) Chrome/85.0.4183.121 Safari/537.36",124,"[0.9, 0.5, 0.1]","[0.8, 0.4, 0.2]","[u'blue', u'red', u'black']","[u'left', u'middle', u'right']","[0.8, 0.4, 0.2]","[u'medium', u'low', u'high']","black",51,"right","high","True","False",258,7150,NA
"A1N16ZU0FNQEY6","Wed Sep 23 2020 09:33:34 GMT-0600 (Mountain Daylight Time)","Wed Sep 23 2020 09:40:00 GMT-0600 (Mountain Daylight Time)","Mozilla/5.0 (Windows NT 10.0; Win64; x64) AppleWebKit/537.36 (KHTML, like Gecko) Chrome/85.0.4183.121 Safari/537.36",125,"[0.9, 0.5, 0.1]","[0.8, 0.4, 0.2]","[u'blue', u'red', u'black']","[u'left', u'middle', u'right']","[0.8, 0.4, 0.2]","[u'medium', u'low', u'high']","black",51,"right","high","True","False",452,7250,NA
"A1N16ZU0FNQEY6","Wed Sep 23 2020 09:33:34 GMT-0600 (Mountain Daylight Time)","Wed Sep 23 2020 09:40:00 GMT-0600 (Mountain Daylight Time)","Mozilla/5.0 (Windows NT 10.0; Win64; x64) AppleWebKit/537.36 (KHTML, like Gecko) Chrome/85.0.4183.121 Safari/537.36",126,"[0.9, 0.5, 0.1]","[0.8, 0.4, 0.2]","[u'blue', u'red', u'black']","[u'left', u'middle', u'right']","[0.8, 0.4, 0.2]","[u'medium', u'low', u'high']","black",51,"right","high","False","False",210,7200,NA
"A1N16ZU0FNQEY6","Wed Sep 23 2020 09:33:34 GMT-0600 (Mountain Daylight Time)","Wed Sep 23 2020 09:40:00 GMT-0600 (Mountain Daylight Time)","Mozilla/5.0 (Windows NT 10.0; Win64; x64) AppleWebKit/537.36 (KHTML, like Gecko) Chrome/85.0.4183.121 Safari/537.36",127,"[0.9, 0.5, 0.1]","[0.8, 0.4, 0.2]","[u'blue', u'red', u'black']","[u'left', u'middle', u'right']","[0.8, 0.4, 0.2]","[u'medium', u'low', u'high']","black",51,"right","high","True","False",227,7300,NA
"A1N16ZU0FNQEY6","Wed Sep 23 2020 09:33:34 GMT-0600 (Mountain Daylight Time)","Wed Sep 23 2020 09:40:00 GMT-0600 (Mountain Daylight Time)","Mozilla/5.0 (Windows NT 10.0; Win64; x64) AppleWebKit/537.36 (KHTML, like Gecko) Chrome/85.0.4183.121 Safari/537.36",128,"[0.9, 0.5, 0.1]","[0.8, 0.4, 0.2]","[u'blue', u'red', u'black']","[u'left', u'middle', u'right']","[0.8, 0.4, 0.2]","[u'medium', u'low', u'high']","black",51,"right","high","True","False",269,7400,NA
"A1N16ZU0FNQEY6","Wed Sep 23 2020 09:33:34 GMT-0600 (Mountain Daylight Time)","Wed Sep 23 2020 09:40:00 GMT-0600 (Mountain Daylight Time)","Mozilla/5.0 (Windows NT 10.0; Win64; x64) AppleWebKit/537.36 (KHTML, like Gecko) Chrome/85.0.4183.121 Safari/537.36",129,"[0.9, 0.5, 0.1]","[0.8, 0.4, 0.2]","[u'blue', u'red', u'black']","[u'left', u'middle', u'right']","[0.8, 0.4, 0.2]","[u'medium', u'low', u'high']","black",51,"right","high","True","True",434,7500,NA
"A1N16ZU0FNQEY6","Wed Sep 23 2020 09:33:34 GMT-0600 (Mountain Daylight Time)","Wed Sep 23 2020 09:40:00 GMT-0600 (Mountain Daylight Time)","Mozilla/5.0 (Windows NT 10.0; Win64; x64) AppleWebKit/537.36 (KHTML, like Gecko) Chrome/85.0.4183.121 Safari/537.36",130,"[0.9, 0.5, 0.1]","[0.8, 0.4, 0.2]","[u'blue', u'red', u'black']","[u'left', u'middle', u'right']","[0.8, 0.4, 0.2]","[u'high', u'low', u'medium']","black",51,"right","medium","False","False",245,7450,NA
"A1N16ZU0FNQEY6","Wed Sep 23 2020 09:33:34 GMT-0600 (Mountain Daylight Time)","Wed Sep 23 2020 09:40:00 GMT-0600 (Mountain Daylight Time)","Mozilla/5.0 (Windows NT 10.0; Win64; x64) AppleWebKit/537.36 (KHTML, like Gecko) Chrome/85.0.4183.121 Safari/537.36",131,"[0.9, 0.5, 0.1]","[0.8, 0.4, 0.2]","[u'blue', u'red', u'black']","[u'left', u'middle', u'right']","[0.8, 0.4, 0.2]","[u'high', u'low', u'medium']","red",50,"middle","low","False","False",84,7400,NA
"A1N16ZU0FNQEY6","Wed Sep 23 2020 09:33:34 GMT-0600 (Mountain Daylight Time)","Wed Sep 23 2020 09:40:00 GMT-0600 (Mountain Daylight Time)","Mozilla/5.0 (Windows NT 10.0; Win64; x64) AppleWebKit/537.36 (KHTML, like Gecko) Chrome/85.0.4183.121 Safari/537.36",132,"[0.9, 0.5, 0.1]","[0.8, 0.4, 0.2]","[u'blue', u'red', u'black']","[u'left', u'middle', u'right']","[0.8, 0.4, 0.2]","[u'high', u'low', u'medium']","blue",49,"left","high","True","False",59,7500,NA
"A1N16ZU0FNQEY6","Wed Sep 23 2020 09:33:34 GMT-0600 (Mountain Daylight Time)","Wed Sep 23 2020 09:40:00 GMT-0600 (Mountain Daylight Time)","Mozilla/5.0 (Windows NT 10.0; Win64; x64) AppleWebKit/537.36 (KHTML, like Gecko) Chrome/85.0.4183.121 Safari/537.36",133,"[0.9, 0.5, 0.1]","[0.8, 0.4, 0.2]","[u'blue', u'red', u'black']","[u'left', u'middle', u'right']","[0.8, 0.4, 0.2]","[u'high', u'low', u'medium']","blue",49,"left","high","True","False",227,7600,NA
"A1N16ZU0FNQEY6","Wed Sep 23 2020 09:33:34 GMT-0600 (Mountain Daylight Time)","Wed Sep 23 2020 09:40:00 GMT-0600 (Mountain Daylight Time)","Mozilla/5.0 (Windows NT 10.0; Win64; x64) AppleWebKit/537.36 (KHTML, like Gecko) Chrome/85.0.4183.121 Safari/537.36",134,"[0.9, 0.5, 0.1]","[0.8, 0.4, 0.2]","[u'blue', u'red', u'black']","[u'left', u'middle', u'right']","[0.8, 0.4, 0.2]","[u'high', u'low', u'medium']","blue",49,"left","high","True","False",244,7700,NA
"A1N16ZU0FNQEY6","Wed Sep 23 2020 09:33:34 GMT-0600 (Mountain Daylight Time)","Wed Sep 23 2020 09:40:00 GMT-0600 (Mountain Daylight Time)","Mozilla/5.0 (Windows NT 10.0; Win64; x64) AppleWebKit/537.36 (KHTML, like Gecko) Chrome/85.0.4183.121 Safari/537.36",135,"[0.9, 0.5, 0.1]","[0.8, 0.4, 0.2]","[u'blue', u'red', u'black']","[u'left', u'middle', u'right']","[0.8, 0.4, 0.2]","[u'high', u'low', u'medium']","blue",49,"left","high","True","False",245,7800,NA
"A1N16ZU0FNQEY6","Wed Sep 23 2020 09:33:34 GMT-0600 (Mountain Daylight Time)","Wed Sep 23 2020 09:40:00 GMT-0600 (Mountain Daylight Time)","Mozilla/5.0 (Windows NT 10.0; Win64; x64) AppleWebKit/537.36 (KHTML, like Gecko) Chrome/85.0.4183.121 Safari/537.36",136,"[0.9, 0.5, 0.1]","[0.8, 0.4, 0.2]","[u'blue', u'red', u'black']","[u'left', u'middle', u'right']","[0.8, 0.4, 0.2]","[u'high', u'low', u'medium']","blue",49,"left","high","True","False",223,7900,NA
"A1N16ZU0FNQEY6","Wed Sep 23 2020 09:33:34 GMT-0600 (Mountain Daylight Time)","Wed Sep 23 2020 09:40:00 GMT-0600 (Mountain Daylight Time)","Mozilla/5.0 (Windows NT 10.0; Win64; x64) AppleWebKit/537.36 (KHTML, like Gecko) Chrome/85.0.4183.121 Safari/537.36",137,"[0.9, 0.5, 0.1]","[0.8, 0.4, 0.2]","[u'blue', u'red', u'black']","[u'left', u'middle', u'right']","[0.8, 0.4, 0.2]","[u'high', u'low', u'medium']","blue",49,"left","high","False","False",228,7850,NA
"A1N16ZU0FNQEY6","Wed Sep 23 2020 09:33:34 GMT-0600 (Mountain Daylight Time)","Wed Sep 23 2020 09:40:00 GMT-0600 (Mountain Daylight Time)","Mozilla/5.0 (Windows NT 10.0; Win64; x64) AppleWebKit/537.36 (KHTML, like Gecko) Chrome/85.0.4183.121 Safari/537.36",138,"[0.9, 0.5, 0.1]","[0.8, 0.4, 0.2]","[u'blue', u'red', u'black']","[u'left', u'middle', u'right']","[0.8, 0.4, 0.2]","[u'high', u'low', u'medium']","blue",49,"left","high","True","False",115,7950,NA
"A1N16ZU0FNQEY6","Wed Sep 23 2020 09:33:34 GMT-0600 (Mountain Daylight Time)","Wed Sep 23 2020 09:40:00 GMT-0600 (Mountain Daylight Time)","Mozilla/5.0 (Windows NT 10.0; Win64; x64) AppleWebKit/537.36 (KHTML, like Gecko) Chrome/85.0.4183.121 Safari/537.36",139,"[0.9, 0.5, 0.1]","[0.8, 0.4, 0.2]","[u'blue', u'red', u'black']","[u'left', u'middle', u'right']","[0.8, 0.4, 0.2]","[u'high', u'low', u'medium']","blue",49,"left","high","True","False",259,8050,NA
"A1N16ZU0FNQEY6","Wed Sep 23 2020 09:33:34 GMT-0600 (Mountain Daylight Time)","Wed Sep 23 2020 09:40:00 GMT-0600 (Mountain Daylight Time)","Mozilla/5.0 (Windows NT 10.0; Win64; x64) AppleWebKit/537.36 (KHTML, like Gecko) Chrome/85.0.4183.121 Safari/537.36",140,"[0.9, 0.5, 0.1]","[0.8, 0.4, 0.2]","[u'blue', u'red', u'black']","[u'left', u'middle', u'right']","[0.8, 0.4, 0.2]","[u'high', u'low', u'medium']","blue",49,"left","high","True","True",243,8150,NA
"A1N16ZU0FNQEY6","Wed Sep 23 2020 09:33:34 GMT-0600 (Mountain Daylight Time)","Wed Sep 23 2020 09:40:00 GMT-0600 (Mountain Daylight Time)","Mozilla/5.0 (Windows NT 10.0; Win64; x64) AppleWebKit/537.36 (KHTML, like Gecko) Chrome/85.0.4183.121 Safari/537.36",141,"[0.9, 0.5, 0.1]","[0.8, 0.4, 0.2]","[u'blue', u'red', u'black']","[u'left', u'middle', u'right']","[0.8, 0.4, 0.2]","[u'medium', u'high', u'low']","blue",49,"left","medium","True","False",240,8250,NA
"A1N16ZU0FNQEY6","Wed Sep 23 2020 09:33:34 GMT-0600 (Mountain Daylight Time)","Wed Sep 23 2020 09:40:00 GMT-0600 (Mountain Daylight Time)","Mozilla/5.0 (Windows NT 10.0; Win64; x64) AppleWebKit/537.36 (KHTML, like Gecko) Chrome/85.0.4183.121 Safari/537.36",142,"[0.9, 0.5, 0.1]","[0.8, 0.4, 0.2]","[u'blue', u'red', u'black']","[u'left', u'middle', u'right']","[0.8, 0.4, 0.2]","[u'medium', u'high', u'low']","blue",49,"left","medium","True","False",71,8350,NA
"A1N16ZU0FNQEY6","Wed Sep 23 2020 09:33:34 GMT-0600 (Mountain Daylight Time)","Wed Sep 23 2020 09:40:00 GMT-0600 (Mountain Daylight Time)","Mozilla/5.0 (Windows NT 10.0; Win64; x64) AppleWebKit/537.36 (KHTML, like Gecko) Chrome/85.0.4183.121 Safari/537.36",143,"[0.9, 0.5, 0.1]","[0.8, 0.4, 0.2]","[u'blue', u'red', u'black']","[u'left', u'middle', u'right']","[0.8, 0.4, 0.2]","[u'medium', u'high', u'low']","blue",49,"left","medium","False","False",261,8300,NA
"A1N16ZU0FNQEY6","Wed Sep 23 2020 09:33:34 GMT-0600 (Mountain Daylight Time)","Wed Sep 23 2020 09:40:00 GMT-0600 (Mountain Daylight Time)","Mozilla/5.0 (Windows NT 10.0; Win64; x64) AppleWebKit/537.36 (KHTML, like Gecko) Chrome/85.0.4183.121 Safari/537.36",144,"[0.9, 0.5, 0.1]","[0.8, 0.4, 0.2]","[u'blue', u'red', u'black']","[u'left', u'middle', u'right']","[0.8, 0.4, 0.2]","[u'medium', u'high', u'low']","red",50,"middle","high","True","False",163,8400,NA
"A1N16ZU0FNQEY6","Wed Sep 23 2020 09:33:34 GMT-0600 (Mountain Daylight Time)","Wed Sep 23 2020 09:40:00 GMT-0600 (Mountain Daylight Time)","Mozilla/5.0 (Windows NT 10.0; Win64; x64) AppleWebKit/537.36 (KHTML, like Gecko) Chrome/85.0.4183.121 Safari/537.36",145,"[0.9, 0.5, 0.1]","[0.8, 0.4, 0.2]","[u'blue', u'red', u'black']","[u'left', u'middle', u'right']","[0.8, 0.4, 0.2]","[u'medium', u'high', u'low']","red",50,"middle","high","True","False",201,8500,NA
"A1N16ZU0FNQEY6","Wed Sep 23 2020 09:33:34 GMT-0600 (Mountain Daylight Time)","Wed Sep 23 2020 09:40:00 GMT-0600 (Mountain Daylight Time)","Mozilla/5.0 (Windows NT 10.0; Win64; x64) AppleWebKit/537.36 (KHTML, like Gecko) Chrome/85.0.4183.121 Safari/537.36",146,"[0.9, 0.5, 0.1]","[0.8, 0.4, 0.2]","[u'blue', u'red', u'black']","[u'left', u'middle', u'right']","[0.8, 0.4, 0.2]","[u'medium', u'high', u'low']","red",50,"middle","high","True","False",289,8600,NA
"A1N16ZU0FNQEY6","Wed Sep 23 2020 09:33:34 GMT-0600 (Mountain Daylight Time)","Wed Sep 23 2020 09:40:00 GMT-0600 (Mountain Daylight Time)","Mozilla/5.0 (Windows NT 10.0; Win64; x64) AppleWebKit/537.36 (KHTML, like Gecko) Chrome/85.0.4183.121 Safari/537.36",147,"[0.9, 0.5, 0.1]","[0.8, 0.4, 0.2]","[u'blue', u'red', u'black']","[u'left', u'middle', u'right']","[0.8, 0.4, 0.2]","[u'medium', u'high', u'low']","red",50,"middle","high","True","False",469,8700,NA
"A1N16ZU0FNQEY6","Wed Sep 23 2020 09:33:34 GMT-0600 (Mountain Daylight Time)","Wed Sep 23 2020 09:40:00 GMT-0600 (Mountain Daylight Time)","Mozilla/5.0 (Windows NT 10.0; Win64; x64) AppleWebKit/537.36 (KHTML, like Gecko) Chrome/85.0.4183.121 Safari/537.36",148,"[0.9, 0.5, 0.1]","[0.8, 0.4, 0.2]","[u'blue', u'red', u'black']","[u'left', u'middle', u'right']","[0.8, 0.4, 0.2]","[u'medium', u'high', u'low']","red",50,"middle","high","True","False",329,8800,NA
"A1N16ZU0FNQEY6","Wed Sep 23 2020 09:33:34 GMT-0600 (Mountain Daylight Time)","Wed Sep 23 2020 09:40:00 GMT-0600 (Mountain Daylight Time)","Mozilla/5.0 (Windows NT 10.0; Win64; x64) AppleWebKit/537.36 (KHTML, like Gecko) Chrome/85.0.4183.121 Safari/537.36",149,"[0.9, 0.5, 0.1]","[0.8, 0.4, 0.2]","[u'blue', u'red', u'black']","[u'left', u'middle', u'right']","[0.8, 0.4, 0.2]","[u'medium', u'high', u'low']","red",50,"middle","high","True","False",341,8900,NA
"A1N16ZU0FNQEY6","Wed Sep 23 2020 09:33:34 GMT-0600 (Mountain Daylight Time)","Wed Sep 23 2020 09:40:00 GMT-0600 (Mountain Daylight Time)","Mozilla/5.0 (Windows NT 10.0; Win64; x64) AppleWebKit/537.36 (KHTML, like Gecko) Chrome/85.0.4183.121 Safari/537.36",150,"[0.9, 0.5, 0.1]","[0.8, 0.4, 0.2]","[u'blue', u'red', u'black']","[u'left', u'middle', u'right']","[0.8, 0.4, 0.2]","[u'medium', u'high', u'low']","red",50,"middle","high","True","False",279,9000,NA
"A1N16ZU0FNQEY6","Wed Sep 23 2020 09:33:34 GMT-0600 (Mountain Daylight Time)","Wed Sep 23 2020 09:40:00 GMT-0600 (Mountain Daylight Time)","Mozilla/5.0 (Windows NT 10.0; Win64; x64) AppleWebKit/537.36 (KHTML, like Gecko) Chrome/85.0.4183.121 Safari/537.36",151,"[0.9, 0.5, 0.1]","[0.8, 0.4, 0.2]","[u'blue', u'red', u'black']","[u'left', u'middle', u'right']","[0.8, 0.4, 0.2]","[u'medium', u'high', u'low']","red",50,"middle","high","True","False",250,9100,NA
"A1N16ZU0FNQEY6","Wed Sep 23 2020 09:33:34 GMT-0600 (Mountain Daylight Time)","Wed Sep 23 2020 09:40:00 GMT-0600 (Mountain Daylight Time)","Mozilla/5.0 (Windows NT 10.0; Win64; x64) AppleWebKit/537.36 (KHTML, like Gecko) Chrome/85.0.4183.121 Safari/537.36",152,"[0.9, 0.5, 0.1]","[0.8, 0.4, 0.2]","[u'blue', u'red', u'black']","[u'left', u'middle', u'right']","[0.8, 0.4, 0.2]","[u'medium', u'high', u'low']","red",50,"middle","high","True","True",260,9200,NA
"A1N16ZU0FNQEY6","Wed Sep 23 2020 09:33:34 GMT-0600 (Mountain Daylight Time)","Wed Sep 23 2020 09:40:00 GMT-0600 (Mountain Daylight Time)","Mozilla/5.0 (Windows NT 10.0; Win64; x64) AppleWebKit/537.36 (KHTML, like Gecko) Chrome/85.0.4183.121 Safari/537.36",153,"[0.9, 0.5, 0.1]","[0.8, 0.4, 0.2]","[u'blue', u'red', u'black']","[u'left', u'middle', u'right']","[0.8, 0.4, 0.2]","[u'high', u'low', u'medium']","red",50,"middle","low","False","False",220,9150,NA
"A1N16ZU0FNQEY6","Wed Sep 23 2020 09:33:34 GMT-0600 (Mountain Daylight Time)","Wed Sep 23 2020 09:40:00 GMT-0600 (Mountain Daylight Time)","Mozilla/5.0 (Windows NT 10.0; Win64; x64) AppleWebKit/537.36 (KHTML, like Gecko) Chrome/85.0.4183.121 Safari/537.36",154,"[0.9, 0.5, 0.1]","[0.8, 0.4, 0.2]","[u'blue', u'red', u'black']","[u'left', u'middle', u'right']","[0.8, 0.4, 0.2]","[u'high', u'low', u'medium']","red",50,"middle","low","False","False",114,9100,NA
"A1N16ZU0FNQEY6","Wed Sep 23 2020 09:33:34 GMT-0600 (Mountain Daylight Time)","Wed Sep 23 2020 09:40:00 GMT-0600 (Mountain Daylight Time)","Mozilla/5.0 (Windows NT 10.0; Win64; x64) AppleWebKit/537.36 (KHTML, like Gecko) Chrome/85.0.4183.121 Safari/537.36",155,"[0.9, 0.5, 0.1]","[0.8, 0.4, 0.2]","[u'blue', u'red', u'black']","[u'left', u'middle', u'right']","[0.8, 0.4, 0.2]","[u'high', u'low', u'medium']","black",51,"right","medium","True","False",181,9200,NA
"A1N16ZU0FNQEY6","Wed Sep 23 2020 09:33:34 GMT-0600 (Mountain Daylight Time)","Wed Sep 23 2020 09:40:00 GMT-0600 (Mountain Daylight Time)","Mozilla/5.0 (Windows NT 10.0; Win64; x64) AppleWebKit/537.36 (KHTML, like Gecko) Chrome/85.0.4183.121 Safari/537.36",156,"[0.9, 0.5, 0.1]","[0.8, 0.4, 0.2]","[u'blue', u'red', u'black']","[u'left', u'middle', u'right']","[0.8, 0.4, 0.2]","[u'high', u'low', u'medium']","black",51,"right","medium","False","False",468,9150,NA
"A1N16ZU0FNQEY6","Wed Sep 23 2020 09:33:34 GMT-0600 (Mountain Daylight Time)","Wed Sep 23 2020 09:40:00 GMT-0600 (Mountain Daylight Time)","Mozilla/5.0 (Windows NT 10.0; Win64; x64) AppleWebKit/537.36 (KHTML, like Gecko) Chrome/85.0.4183.121 Safari/537.36",157,"[0.9, 0.5, 0.1]","[0.8, 0.4, 0.2]","[u'blue', u'red', u'black']","[u'left', u'middle', u'right']","[0.8, 0.4, 0.2]","[u'high', u'low', u'medium']","black",51,"right","medium","True","False",211,9250,NA
"A1N16ZU0FNQEY6","Wed Sep 23 2020 09:33:34 GMT-0600 (Mountain Daylight Time)","Wed Sep 23 2020 09:40:00 GMT-0600 (Mountain Daylight Time)","Mozilla/5.0 (Windows NT 10.0; Win64; x64) AppleWebKit/537.36 (KHTML, like Gecko) Chrome/85.0.4183.121 Safari/537.36",158,"[0.9, 0.5, 0.1]","[0.8, 0.4, 0.2]","[u'blue', u'red', u'black']","[u'left', u'middle', u'right']","[0.8, 0.4, 0.2]","[u'high', u'low', u'medium']","black",51,"right","medium","False","False",266,9200,NA
"A1N16ZU0FNQEY6","Wed Sep 23 2020 09:33:34 GMT-0600 (Mountain Daylight Time)","Wed Sep 23 2020 09:40:00 GMT-0600 (Mountain Daylight Time)","Mozilla/5.0 (Windows NT 10.0; Win64; x64) AppleWebKit/537.36 (KHTML, like Gecko) Chrome/85.0.4183.121 Safari/537.36",159,"[0.9, 0.5, 0.1]","[0.8, 0.4, 0.2]","[u'blue', u'red', u'black']","[u'left', u'middle', u'right']","[0.8, 0.4, 0.2]","[u'high', u'low', u'medium']","black",51,"right","medium","False","False",83,9150,NA
"A1N16ZU0FNQEY6","Wed Sep 23 2020 09:33:34 GMT-0600 (Mountain Daylight Time)","Wed Sep 23 2020 09:40:00 GMT-0600 (Mountain Daylight Time)","Mozilla/5.0 (Windows NT 10.0; Win64; x64) AppleWebKit/537.36 (KHTML, like Gecko) Chrome/85.0.4183.121 Safari/537.36",160,"[0.9, 0.5, 0.1]","[0.8, 0.4, 0.2]","[u'blue', u'red', u'black']","[u'left', u'middle', u'right']","[0.8, 0.4, 0.2]","[u'high', u'low', u'medium']","blue",49,"left","high","True","False",54,9250,NA
