"src_subject_id","start_time","end_time","browser","index","first_half_probabilities","second_half_probabilities","deck_color","deck_position","deck_probabilities","deck_contingencies","response_color","key_press","response_position","response_probability","reward_type","trial_type","rt","reward_tally","exclusion_reason"
"A1F34ZP6YNI98F","Wed Jan 29 2020 12:11:29 GMT-0500 (Eastern Standard Time)","Wed Jan 29 2020 12:18:58 GMT-0500 (Eastern Standard Time)","Mozilla/5.0 (Windows NT 6.2; Win64; x64) AppleWebKit/537.36 (KHTML, like Gecko) Chrome/75.0.3770.100 Safari/537.36",1,"[0.9, 0.5, 0.1]","[0.8, 0.4, 0.2]","[u'blue', u'red', u'black']","[u'left', u'middle', u'right']","[0.9, 0.5, 0.1]","[u'high', u'medium', u'low']","blue",49,"left","high","True","False",443,100,NA
"A1F34ZP6YNI98F","Wed Jan 29 2020 12:11:29 GMT-0500 (Eastern Standard Time)","Wed Jan 29 2020 12:18:58 GMT-0500 (Eastern Standard Time)","Mozilla/5.0 (Windows NT 6.2; Win64; x64) AppleWebKit/537.36 (KHTML, like Gecko) Chrome/75.0.3770.100 Safari/537.36",2,"[0.9, 0.5, 0.1]","[0.8, 0.4, 0.2]","[u'blue', u'red', u'black']","[u'left', u'middle', u'right']","[0.9, 0.5, 0.1]","[u'high', u'medium', u'low']","blue",49,"left","high","True","False",250,200,NA
"A1F34ZP6YNI98F","Wed Jan 29 2020 12:11:29 GMT-0500 (Eastern Standard Time)","Wed Jan 29 2020 12:18:58 GMT-0500 (Eastern Standard Time)","Mozilla/5.0 (Windows NT 6.2; Win64; x64) AppleWebKit/537.36 (KHTML, like Gecko) Chrome/75.0.3770.100 Safari/537.36",3,"[0.9, 0.5, 0.1]","[0.8, 0.4, 0.2]","[u'blue', u'red', u'black']","[u'left', u'middle', u'right']","[0.9, 0.5, 0.1]","[u'high', u'medium', u'low']","blue",49,"left","high","True","False",407,300,NA
"A1F34ZP6YNI98F","Wed Jan 29 2020 12:11:29 GMT-0500 (Eastern Standard Time)","Wed Jan 29 2020 12:18:58 GMT-0500 (Eastern Standard Time)","Mozilla/5.0 (Windows NT 6.2; Win64; x64) AppleWebKit/537.36 (KHTML, like Gecko) Chrome/75.0.3770.100 Safari/537.36",4,"[0.9, 0.5, 0.1]","[0.8, 0.4, 0.2]","[u'blue', u'red', u'black']","[u'left', u'middle', u'right']","[0.9, 0.5, 0.1]","[u'high', u'medium', u'low']","blue",49,"left","high","True","False",366,400,NA
"A1F34ZP6YNI98F","Wed Jan 29 2020 12:11:29 GMT-0500 (Eastern Standard Time)","Wed Jan 29 2020 12:18:58 GMT-0500 (Eastern Standard Time)","Mozilla/5.0 (Windows NT 6.2; Win64; x64) AppleWebKit/537.36 (KHTML, like Gecko) Chrome/75.0.3770.100 Safari/537.36",5,"[0.9, 0.5, 0.1]","[0.8, 0.4, 0.2]","[u'blue', u'red', u'black']","[u'left', u'middle', u'right']","[0.9, 0.5, 0.1]","[u'high', u'medium', u'low']","blue",49,"left","high","True","False",393,500,NA
"A1F34ZP6YNI98F","Wed Jan 29 2020 12:11:29 GMT-0500 (Eastern Standard Time)","Wed Jan 29 2020 12:18:58 GMT-0500 (Eastern Standard Time)","Mozilla/5.0 (Windows NT 6.2; Win64; x64) AppleWebKit/537.36 (KHTML, like Gecko) Chrome/75.0.3770.100 Safari/537.36",6,"[0.9, 0.5, 0.1]","[0.8, 0.4, 0.2]","[u'blue', u'red', u'black']","[u'left', u'middle', u'right']","[0.9, 0.5, 0.1]","[u'high', u'medium', u'low']","blue",49,"left","high","True","False",350,600,NA
"A1F34ZP6YNI98F","Wed Jan 29 2020 12:11:29 GMT-0500 (Eastern Standard Time)","Wed Jan 29 2020 12:18:58 GMT-0500 (Eastern Standard Time)","Mozilla/5.0 (Windows NT 6.2; Win64; x64) AppleWebKit/537.36 (KHTML, like Gecko) Chrome/75.0.3770.100 Safari/537.36",7,"[0.9, 0.5, 0.1]","[0.8, 0.4, 0.2]","[u'blue', u'red', u'black']","[u'left', u'middle', u'right']","[0.9, 0.5, 0.1]","[u'high', u'medium', u'low']","blue",49,"left","high","True","False",292,700,NA
"A1F34ZP6YNI98F","Wed Jan 29 2020 12:11:29 GMT-0500 (Eastern Standard Time)","Wed Jan 29 2020 12:18:58 GMT-0500 (Eastern Standard Time)","Mozilla/5.0 (Windows NT 6.2; Win64; x64) AppleWebKit/537.36 (KHTML, like Gecko) Chrome/75.0.3770.100 Safari/537.36",8,"[0.9, 0.5, 0.1]","[0.8, 0.4, 0.2]","[u'blue', u'red', u'black']","[u'left', u'middle', u'right']","[0.9, 0.5, 0.1]","[u'high', u'medium', u'low']","blue",49,"left","high","True","False",354,800,NA
"A1F34ZP6YNI98F","Wed Jan 29 2020 12:11:29 GMT-0500 (Eastern Standard Time)","Wed Jan 29 2020 12:18:58 GMT-0500 (Eastern Standard Time)","Mozilla/5.0 (Windows NT 6.2; Win64; x64) AppleWebKit/537.36 (KHTML, like Gecko) Chrome/75.0.3770.100 Safari/537.36",9,"[0.9, 0.5, 0.1]","[0.8, 0.4, 0.2]","[u'blue', u'red', u'black']","[u'left', u'middle', u'right']","[0.9, 0.5, 0.1]","[u'high', u'medium', u'low']","blue",49,"left","high","True","True",561,900,NA
"A1F34ZP6YNI98F","Wed Jan 29 2020 12:11:29 GMT-0500 (Eastern Standard Time)","Wed Jan 29 2020 12:18:58 GMT-0500 (Eastern Standard Time)","Mozilla/5.0 (Windows NT 6.2; Win64; x64) AppleWebKit/537.36 (KHTML, like Gecko) Chrome/75.0.3770.100 Safari/537.36",10,"[0.9, 0.5, 0.1]","[0.8, 0.4, 0.2]","[u'blue', u'red', u'black']","[u'left', u'middle', u'right']","[0.9, 0.5, 0.1]","[u'medium', u'high', u'low']","blue",49,"left","medium","True","False",330,1000,NA
"A1F34ZP6YNI98F","Wed Jan 29 2020 12:11:29 GMT-0500 (Eastern Standard Time)","Wed Jan 29 2020 12:18:58 GMT-0500 (Eastern Standard Time)","Mozilla/5.0 (Windows NT 6.2; Win64; x64) AppleWebKit/537.36 (KHTML, like Gecko) Chrome/75.0.3770.100 Safari/537.36",11,"[0.9, 0.5, 0.1]","[0.8, 0.4, 0.2]","[u'blue', u'red', u'black']","[u'left', u'middle', u'right']","[0.9, 0.5, 0.1]","[u'medium', u'high', u'low']","blue",49,"left","medium","True","False",343,1100,NA
"A1F34ZP6YNI98F","Wed Jan 29 2020 12:11:29 GMT-0500 (Eastern Standard Time)","Wed Jan 29 2020 12:18:58 GMT-0500 (Eastern Standard Time)","Mozilla/5.0 (Windows NT 6.2; Win64; x64) AppleWebKit/537.36 (KHTML, like Gecko) Chrome/75.0.3770.100 Safari/537.36",12,"[0.9, 0.5, 0.1]","[0.8, 0.4, 0.2]","[u'blue', u'red', u'black']","[u'left', u'middle', u'right']","[0.9, 0.5, 0.1]","[u'medium', u'high', u'low']","blue",49,"left","medium","False","False",514,1050,NA
"A1F34ZP6YNI98F","Wed Jan 29 2020 12:11:29 GMT-0500 (Eastern Standard Time)","Wed Jan 29 2020 12:18:58 GMT-0500 (Eastern Standard Time)","Mozilla/5.0 (Windows NT 6.2; Win64; x64) AppleWebKit/537.36 (KHTML, like Gecko) Chrome/75.0.3770.100 Safari/537.36",13,"[0.9, 0.5, 0.1]","[0.8, 0.4, 0.2]","[u'blue', u'red', u'black']","[u'left', u'middle', u'right']","[0.9, 0.5, 0.1]","[u'medium', u'high', u'low']","blue",49,"left","medium","False","False",354,1000,NA
"A1F34ZP6YNI98F","Wed Jan 29 2020 12:11:29 GMT-0500 (Eastern Standard Time)","Wed Jan 29 2020 12:18:58 GMT-0500 (Eastern Standard Time)","Mozilla/5.0 (Windows NT 6.2; Win64; x64) AppleWebKit/537.36 (KHTML, like Gecko) Chrome/75.0.3770.100 Safari/537.36",14,"[0.9, 0.5, 0.1]","[0.8, 0.4, 0.2]","[u'blue', u'red', u'black']","[u'left', u'middle', u'right']","[0.9, 0.5, 0.1]","[u'medium', u'high', u'low']","red",50,"middle","high","True","False",321,1100,NA
"A1F34ZP6YNI98F","Wed Jan 29 2020 12:11:29 GMT-0500 (Eastern Standard Time)","Wed Jan 29 2020 12:18:58 GMT-0500 (Eastern Standard Time)","Mozilla/5.0 (Windows NT 6.2; Win64; x64) AppleWebKit/537.36 (KHTML, like Gecko) Chrome/75.0.3770.100 Safari/537.36",15,"[0.9, 0.5, 0.1]","[0.8, 0.4, 0.2]","[u'blue', u'red', u'black']","[u'left', u'middle', u'right']","[0.9, 0.5, 0.1]","[u'medium', u'high', u'low']","red",50,"middle","high","True","False",386,1200,NA
"A1F34ZP6YNI98F","Wed Jan 29 2020 12:11:29 GMT-0500 (Eastern Standard Time)","Wed Jan 29 2020 12:18:58 GMT-0500 (Eastern Standard Time)","Mozilla/5.0 (Windows NT 6.2; Win64; x64) AppleWebKit/537.36 (KHTML, like Gecko) Chrome/75.0.3770.100 Safari/537.36",16,"[0.9, 0.5, 0.1]","[0.8, 0.4, 0.2]","[u'blue', u'red', u'black']","[u'left', u'middle', u'right']","[0.9, 0.5, 0.1]","[u'medium', u'high', u'low']","red",50,"middle","high","True","False",284,1300,NA
"A1F34ZP6YNI98F","Wed Jan 29 2020 12:11:29 GMT-0500 (Eastern Standard Time)","Wed Jan 29 2020 12:18:58 GMT-0500 (Eastern Standard Time)","Mozilla/5.0 (Windows NT 6.2; Win64; x64) AppleWebKit/537.36 (KHTML, like Gecko) Chrome/75.0.3770.100 Safari/537.36",17,"[0.9, 0.5, 0.1]","[0.8, 0.4, 0.2]","[u'blue', u'red', u'black']","[u'left', u'middle', u'right']","[0.9, 0.5, 0.1]","[u'medium', u'high', u'low']","red",50,"middle","high","True","False",235,1400,NA
"A1F34ZP6YNI98F","Wed Jan 29 2020 12:11:29 GMT-0500 (Eastern Standard Time)","Wed Jan 29 2020 12:18:58 GMT-0500 (Eastern Standard Time)","Mozilla/5.0 (Windows NT 6.2; Win64; x64) AppleWebKit/537.36 (KHTML, like Gecko) Chrome/75.0.3770.100 Safari/537.36",18,"[0.9, 0.5, 0.1]","[0.8, 0.4, 0.2]","[u'blue', u'red', u'black']","[u'left', u'middle', u'right']","[0.9, 0.5, 0.1]","[u'medium', u'high', u'low']","red",50,"middle","high","True","False",264,1500,NA
"A1F34ZP6YNI98F","Wed Jan 29 2020 12:11:29 GMT-0500 (Eastern Standard Time)","Wed Jan 29 2020 12:18:58 GMT-0500 (Eastern Standard Time)","Mozilla/5.0 (Windows NT 6.2; Win64; x64) AppleWebKit/537.36 (KHTML, like Gecko) Chrome/75.0.3770.100 Safari/537.36",19,"[0.9, 0.5, 0.1]","[0.8, 0.4, 0.2]","[u'blue', u'red', u'black']","[u'left', u'middle', u'right']","[0.9, 0.5, 0.1]","[u'medium', u'high', u'low']","red",50,"middle","high","True","False",378,1600,NA
"A1F34ZP6YNI98F","Wed Jan 29 2020 12:11:29 GMT-0500 (Eastern Standard Time)","Wed Jan 29 2020 12:18:58 GMT-0500 (Eastern Standard Time)","Mozilla/5.0 (Windows NT 6.2; Win64; x64) AppleWebKit/537.36 (KHTML, like Gecko) Chrome/75.0.3770.100 Safari/537.36",20,"[0.9, 0.5, 0.1]","[0.8, 0.4, 0.2]","[u'blue', u'red', u'black']","[u'left', u'middle', u'right']","[0.9, 0.5, 0.1]","[u'medium', u'high', u'low']","red",50,"middle","high","True","False",324,1700,NA
"A1F34ZP6YNI98F","Wed Jan 29 2020 12:11:29 GMT-0500 (Eastern Standard Time)","Wed Jan 29 2020 12:18:58 GMT-0500 (Eastern Standard Time)","Mozilla/5.0 (Windows NT 6.2; Win64; x64) AppleWebKit/537.36 (KHTML, like Gecko) Chrome/75.0.3770.100 Safari/537.36",21,"[0.9, 0.5, 0.1]","[0.8, 0.4, 0.2]","[u'blue', u'red', u'black']","[u'left', u'middle', u'right']","[0.9, 0.5, 0.1]","[u'medium', u'high', u'low']","red",50,"middle","high","True","False",234,1800,NA
"A1F34ZP6YNI98F","Wed Jan 29 2020 12:11:29 GMT-0500 (Eastern Standard Time)","Wed Jan 29 2020 12:18:58 GMT-0500 (Eastern Standard Time)","Mozilla/5.0 (Windows NT 6.2; Win64; x64) AppleWebKit/537.36 (KHTML, like Gecko) Chrome/75.0.3770.100 Safari/537.36",22,"[0.9, 0.5, 0.1]","[0.8, 0.4, 0.2]","[u'blue', u'red', u'black']","[u'left', u'middle', u'right']","[0.9, 0.5, 0.1]","[u'medium', u'high', u'low']","red",50,"middle","high","True","True",408,1900,NA
"A1F34ZP6YNI98F","Wed Jan 29 2020 12:11:29 GMT-0500 (Eastern Standard Time)","Wed Jan 29 2020 12:18:58 GMT-0500 (Eastern Standard Time)","Mozilla/5.0 (Windows NT 6.2; Win64; x64) AppleWebKit/537.36 (KHTML, like Gecko) Chrome/75.0.3770.100 Safari/537.36",23,"[0.9, 0.5, 0.1]","[0.8, 0.4, 0.2]","[u'blue', u'red', u'black']","[u'left', u'middle', u'right']","[0.9, 0.5, 0.1]","[u'high', u'low', u'medium']","red",50,"middle","low","False","False",299,1850,NA
"A1F34ZP6YNI98F","Wed Jan 29 2020 12:11:29 GMT-0500 (Eastern Standard Time)","Wed Jan 29 2020 12:18:58 GMT-0500 (Eastern Standard Time)","Mozilla/5.0 (Windows NT 6.2; Win64; x64) AppleWebKit/537.36 (KHTML, like Gecko) Chrome/75.0.3770.100 Safari/537.36",24,"[0.9, 0.5, 0.1]","[0.8, 0.4, 0.2]","[u'blue', u'red', u'black']","[u'left', u'middle', u'right']","[0.9, 0.5, 0.1]","[u'high', u'low', u'medium']","red",50,"middle","low","False","False",213,1800,NA
"A1F34ZP6YNI98F","Wed Jan 29 2020 12:11:29 GMT-0500 (Eastern Standard Time)","Wed Jan 29 2020 12:18:58 GMT-0500 (Eastern Standard Time)","Mozilla/5.0 (Windows NT 6.2; Win64; x64) AppleWebKit/537.36 (KHTML, like Gecko) Chrome/75.0.3770.100 Safari/537.36",25,"[0.9, 0.5, 0.1]","[0.8, 0.4, 0.2]","[u'blue', u'red', u'black']","[u'left', u'middle', u'right']","[0.9, 0.5, 0.1]","[u'high', u'low', u'medium']","blue",49,"left","high","False","False",347,1750,NA
"A1F34ZP6YNI98F","Wed Jan 29 2020 12:11:29 GMT-0500 (Eastern Standard Time)","Wed Jan 29 2020 12:18:58 GMT-0500 (Eastern Standard Time)","Mozilla/5.0 (Windows NT 6.2; Win64; x64) AppleWebKit/537.36 (KHTML, like Gecko) Chrome/75.0.3770.100 Safari/537.36",26,"[0.9, 0.5, 0.1]","[0.8, 0.4, 0.2]","[u'blue', u'red', u'black']","[u'left', u'middle', u'right']","[0.9, 0.5, 0.1]","[u'high', u'low', u'medium']","black",51,"right","medium","False","False",328,1700,NA
"A1F34ZP6YNI98F","Wed Jan 29 2020 12:11:29 GMT-0500 (Eastern Standard Time)","Wed Jan 29 2020 12:18:58 GMT-0500 (Eastern Standard Time)","Mozilla/5.0 (Windows NT 6.2; Win64; x64) AppleWebKit/537.36 (KHTML, like Gecko) Chrome/75.0.3770.100 Safari/537.36",27,"[0.9, 0.5, 0.1]","[0.8, 0.4, 0.2]","[u'blue', u'red', u'black']","[u'left', u'middle', u'right']","[0.9, 0.5, 0.1]","[u'high', u'low', u'medium']","blue",49,"left","high","True","False",254,1800,NA
"A1F34ZP6YNI98F","Wed Jan 29 2020 12:11:29 GMT-0500 (Eastern Standard Time)","Wed Jan 29 2020 12:18:58 GMT-0500 (Eastern Standard Time)","Mozilla/5.0 (Windows NT 6.2; Win64; x64) AppleWebKit/537.36 (KHTML, like Gecko) Chrome/75.0.3770.100 Safari/537.36",28,"[0.9, 0.5, 0.1]","[0.8, 0.4, 0.2]","[u'blue', u'red', u'black']","[u'left', u'middle', u'right']","[0.9, 0.5, 0.1]","[u'high', u'low', u'medium']","blue",49,"left","high","True","False",337,1900,NA
"A1F34ZP6YNI98F","Wed Jan 29 2020 12:11:29 GMT-0500 (Eastern Standard Time)","Wed Jan 29 2020 12:18:58 GMT-0500 (Eastern Standard Time)","Mozilla/5.0 (Windows NT 6.2; Win64; x64) AppleWebKit/537.36 (KHTML, like Gecko) Chrome/75.0.3770.100 Safari/537.36",29,"[0.9, 0.5, 0.1]","[0.8, 0.4, 0.2]","[u'blue', u'red', u'black']","[u'left', u'middle', u'right']","[0.9, 0.5, 0.1]","[u'high', u'low', u'medium']","blue",49,"left","high","True","False",185,2000,NA
"A1F34ZP6YNI98F","Wed Jan 29 2020 12:11:29 GMT-0500 (Eastern Standard Time)","Wed Jan 29 2020 12:18:58 GMT-0500 (Eastern Standard Time)","Mozilla/5.0 (Windows NT 6.2; Win64; x64) AppleWebKit/537.36 (KHTML, like Gecko) Chrome/75.0.3770.100 Safari/537.36",30,"[0.9, 0.5, 0.1]","[0.8, 0.4, 0.2]","[u'blue', u'red', u'black']","[u'left', u'middle', u'right']","[0.9, 0.5, 0.1]","[u'high', u'low', u'medium']","blue",49,"left","high","False","False",245,1950,NA
"A1F34ZP6YNI98F","Wed Jan 29 2020 12:11:29 GMT-0500 (Eastern Standard Time)","Wed Jan 29 2020 12:18:58 GMT-0500 (Eastern Standard Time)","Mozilla/5.0 (Windows NT 6.2; Win64; x64) AppleWebKit/537.36 (KHTML, like Gecko) Chrome/75.0.3770.100 Safari/537.36",31,"[0.9, 0.5, 0.1]","[0.8, 0.4, 0.2]","[u'blue', u'red', u'black']","[u'left', u'middle', u'right']","[0.9, 0.5, 0.1]","[u'high', u'low', u'medium']","blue",49,"left","high","True","False",228,2050,NA
"A1F34ZP6YNI98F","Wed Jan 29 2020 12:11:29 GMT-0500 (Eastern Standard Time)","Wed Jan 29 2020 12:18:58 GMT-0500 (Eastern Standard Time)","Mozilla/5.0 (Windows NT 6.2; Win64; x64) AppleWebKit/537.36 (KHTML, like Gecko) Chrome/75.0.3770.100 Safari/537.36",32,"[0.9, 0.5, 0.1]","[0.8, 0.4, 0.2]","[u'blue', u'red', u'black']","[u'left', u'middle', u'right']","[0.9, 0.5, 0.1]","[u'high', u'low', u'medium']","blue",49,"left","high","True","False",241,2150,NA
"A1F34ZP6YNI98F","Wed Jan 29 2020 12:11:29 GMT-0500 (Eastern Standard Time)","Wed Jan 29 2020 12:18:58 GMT-0500 (Eastern Standard Time)","Mozilla/5.0 (Windows NT 6.2; Win64; x64) AppleWebKit/537.36 (KHTML, like Gecko) Chrome/75.0.3770.100 Safari/537.36",33,"[0.9, 0.5, 0.1]","[0.8, 0.4, 0.2]","[u'blue', u'red', u'black']","[u'left', u'middle', u'right']","[0.9, 0.5, 0.1]","[u'high', u'low', u'medium']","blue",49,"left","high","True","False",413,2250,NA
"A1F34ZP6YNI98F","Wed Jan 29 2020 12:11:29 GMT-0500 (Eastern Standard Time)","Wed Jan 29 2020 12:18:58 GMT-0500 (Eastern Standard Time)","Mozilla/5.0 (Windows NT 6.2; Win64; x64) AppleWebKit/537.36 (KHTML, like Gecko) Chrome/75.0.3770.100 Safari/537.36",34,"[0.9, 0.5, 0.1]","[0.8, 0.4, 0.2]","[u'blue', u'red', u'black']","[u'left', u'middle', u'right']","[0.9, 0.5, 0.1]","[u'high', u'low', u'medium']","blue",49,"left","high","True","True",252,2350,NA
"A1F34ZP6YNI98F","Wed Jan 29 2020 12:11:29 GMT-0500 (Eastern Standard Time)","Wed Jan 29 2020 12:18:58 GMT-0500 (Eastern Standard Time)","Mozilla/5.0 (Windows NT 6.2; Win64; x64) AppleWebKit/537.36 (KHTML, like Gecko) Chrome/75.0.3770.100 Safari/537.36",35,"[0.9, 0.5, 0.1]","[0.8, 0.4, 0.2]","[u'blue', u'red', u'black']","[u'left', u'middle', u'right']","[0.9, 0.5, 0.1]","[u'low', u'high', u'medium']","blue",49,"left","low","False","False",314,2300,NA
"A1F34ZP6YNI98F","Wed Jan 29 2020 12:11:29 GMT-0500 (Eastern Standard Time)","Wed Jan 29 2020 12:18:58 GMT-0500 (Eastern Standard Time)","Mozilla/5.0 (Windows NT 6.2; Win64; x64) AppleWebKit/537.36 (KHTML, like Gecko) Chrome/75.0.3770.100 Safari/537.36",36,"[0.9, 0.5, 0.1]","[0.8, 0.4, 0.2]","[u'blue', u'red', u'black']","[u'left', u'middle', u'right']","[0.9, 0.5, 0.1]","[u'low', u'high', u'medium']","blue",49,"left","low","False","False",326,2250,NA
"A1F34ZP6YNI98F","Wed Jan 29 2020 12:11:29 GMT-0500 (Eastern Standard Time)","Wed Jan 29 2020 12:18:58 GMT-0500 (Eastern Standard Time)","Mozilla/5.0 (Windows NT 6.2; Win64; x64) AppleWebKit/537.36 (KHTML, like Gecko) Chrome/75.0.3770.100 Safari/537.36",37,"[0.9, 0.5, 0.1]","[0.8, 0.4, 0.2]","[u'blue', u'red', u'black']","[u'left', u'middle', u'right']","[0.9, 0.5, 0.1]","[u'low', u'high', u'medium']","red",50,"middle","high","True","False",215,2350,NA
"A1F34ZP6YNI98F","Wed Jan 29 2020 12:11:29 GMT-0500 (Eastern Standard Time)","Wed Jan 29 2020 12:18:58 GMT-0500 (Eastern Standard Time)","Mozilla/5.0 (Windows NT 6.2; Win64; x64) AppleWebKit/537.36 (KHTML, like Gecko) Chrome/75.0.3770.100 Safari/537.36",38,"[0.9, 0.5, 0.1]","[0.8, 0.4, 0.2]","[u'blue', u'red', u'black']","[u'left', u'middle', u'right']","[0.9, 0.5, 0.1]","[u'low', u'high', u'medium']","red",50,"middle","high","False","False",243,2300,NA
"A1F34ZP6YNI98F","Wed Jan 29 2020 12:11:29 GMT-0500 (Eastern Standard Time)","Wed Jan 29 2020 12:18:58 GMT-0500 (Eastern Standard Time)","Mozilla/5.0 (Windows NT 6.2; Win64; x64) AppleWebKit/537.36 (KHTML, like Gecko) Chrome/75.0.3770.100 Safari/537.36",39,"[0.9, 0.5, 0.1]","[0.8, 0.4, 0.2]","[u'blue', u'red', u'black']","[u'left', u'middle', u'right']","[0.9, 0.5, 0.1]","[u'low', u'high', u'medium']","red",50,"middle","high","True","False",416,2400,NA
"A1F34ZP6YNI98F","Wed Jan 29 2020 12:11:29 GMT-0500 (Eastern Standard Time)","Wed Jan 29 2020 12:18:58 GMT-0500 (Eastern Standard Time)","Mozilla/5.0 (Windows NT 6.2; Win64; x64) AppleWebKit/537.36 (KHTML, like Gecko) Chrome/75.0.3770.100 Safari/537.36",40,"[0.9, 0.5, 0.1]","[0.8, 0.4, 0.2]","[u'blue', u'red', u'black']","[u'left', u'middle', u'right']","[0.9, 0.5, 0.1]","[u'low', u'high', u'medium']","red",50,"middle","high","True","False",366,2500,NA
"A1F34ZP6YNI98F","Wed Jan 29 2020 12:11:29 GMT-0500 (Eastern Standard Time)","Wed Jan 29 2020 12:18:58 GMT-0500 (Eastern Standard Time)","Mozilla/5.0 (Windows NT 6.2; Win64; x64) AppleWebKit/537.36 (KHTML, like Gecko) Chrome/75.0.3770.100 Safari/537.36",41,"[0.9, 0.5, 0.1]","[0.8, 0.4, 0.2]","[u'blue', u'red', u'black']","[u'left', u'middle', u'right']","[0.9, 0.5, 0.1]","[u'low', u'medium', u'high']","red",50,"middle","medium","False","False",678,2450,NA
"A1F34ZP6YNI98F","Wed Jan 29 2020 12:11:29 GMT-0500 (Eastern Standard Time)","Wed Jan 29 2020 12:18:58 GMT-0500 (Eastern Standard Time)","Mozilla/5.0 (Windows NT 6.2; Win64; x64) AppleWebKit/537.36 (KHTML, like Gecko) Chrome/75.0.3770.100 Safari/537.36",42,"[0.9, 0.5, 0.1]","[0.8, 0.4, 0.2]","[u'blue', u'red', u'black']","[u'left', u'middle', u'right']","[0.9, 0.5, 0.1]","[u'low', u'medium', u'high']","black",51,"right","high","True","False",250,2550,NA
"A1F34ZP6YNI98F","Wed Jan 29 2020 12:11:29 GMT-0500 (Eastern Standard Time)","Wed Jan 29 2020 12:18:58 GMT-0500 (Eastern Standard Time)","Mozilla/5.0 (Windows NT 6.2; Win64; x64) AppleWebKit/537.36 (KHTML, like Gecko) Chrome/75.0.3770.100 Safari/537.36",43,"[0.9, 0.5, 0.1]","[0.8, 0.4, 0.2]","[u'blue', u'red', u'black']","[u'left', u'middle', u'right']","[0.9, 0.5, 0.1]","[u'low', u'medium', u'high']","black",51,"right","high","True","False",475,2650,NA
"A1F34ZP6YNI98F","Wed Jan 29 2020 12:11:29 GMT-0500 (Eastern Standard Time)","Wed Jan 29 2020 12:18:58 GMT-0500 (Eastern Standard Time)","Mozilla/5.0 (Windows NT 6.2; Win64; x64) AppleWebKit/537.36 (KHTML, like Gecko) Chrome/75.0.3770.100 Safari/537.36",44,"[0.9, 0.5, 0.1]","[0.8, 0.4, 0.2]","[u'blue', u'red', u'black']","[u'left', u'middle', u'right']","[0.9, 0.5, 0.1]","[u'low', u'medium', u'high']","black",51,"right","high","True","False",285,2750,NA
"A1F34ZP6YNI98F","Wed Jan 29 2020 12:11:29 GMT-0500 (Eastern Standard Time)","Wed Jan 29 2020 12:18:58 GMT-0500 (Eastern Standard Time)","Mozilla/5.0 (Windows NT 6.2; Win64; x64) AppleWebKit/537.36 (KHTML, like Gecko) Chrome/75.0.3770.100 Safari/537.36",45,"[0.9, 0.5, 0.1]","[0.8, 0.4, 0.2]","[u'blue', u'red', u'black']","[u'left', u'middle', u'right']","[0.9, 0.5, 0.1]","[u'low', u'medium', u'high']","black",51,"right","high","False","False",229,2700,NA
"A1F34ZP6YNI98F","Wed Jan 29 2020 12:11:29 GMT-0500 (Eastern Standard Time)","Wed Jan 29 2020 12:18:58 GMT-0500 (Eastern Standard Time)","Mozilla/5.0 (Windows NT 6.2; Win64; x64) AppleWebKit/537.36 (KHTML, like Gecko) Chrome/75.0.3770.100 Safari/537.36",46,"[0.9, 0.5, 0.1]","[0.8, 0.4, 0.2]","[u'blue', u'red', u'black']","[u'left', u'middle', u'right']","[0.9, 0.5, 0.1]","[u'low', u'medium', u'high']","black",51,"right","high","False","False",219,2650,NA
"A1F34ZP6YNI98F","Wed Jan 29 2020 12:11:29 GMT-0500 (Eastern Standard Time)","Wed Jan 29 2020 12:18:58 GMT-0500 (Eastern Standard Time)","Mozilla/5.0 (Windows NT 6.2; Win64; x64) AppleWebKit/537.36 (KHTML, like Gecko) Chrome/75.0.3770.100 Safari/537.36",47,"[0.9, 0.5, 0.1]","[0.8, 0.4, 0.2]","[u'blue', u'red', u'black']","[u'left', u'middle', u'right']","[0.9, 0.5, 0.1]","[u'low', u'medium', u'high']","red",50,"middle","medium","False","False",214,2600,NA
"A1F34ZP6YNI98F","Wed Jan 29 2020 12:11:29 GMT-0500 (Eastern Standard Time)","Wed Jan 29 2020 12:18:58 GMT-0500 (Eastern Standard Time)","Mozilla/5.0 (Windows NT 6.2; Win64; x64) AppleWebKit/537.36 (KHTML, like Gecko) Chrome/75.0.3770.100 Safari/537.36",48,"[0.9, 0.5, 0.1]","[0.8, 0.4, 0.2]","[u'blue', u'red', u'black']","[u'left', u'middle', u'right']","[0.9, 0.5, 0.1]","[u'low', u'medium', u'high']","blue",49,"left","low","False","False",159,2550,NA
"A1F34ZP6YNI98F","Wed Jan 29 2020 12:11:29 GMT-0500 (Eastern Standard Time)","Wed Jan 29 2020 12:18:58 GMT-0500 (Eastern Standard Time)","Mozilla/5.0 (Windows NT 6.2; Win64; x64) AppleWebKit/537.36 (KHTML, like Gecko) Chrome/75.0.3770.100 Safari/537.36",49,"[0.9, 0.5, 0.1]","[0.8, 0.4, 0.2]","[u'blue', u'red', u'black']","[u'left', u'middle', u'right']","[0.9, 0.5, 0.1]","[u'low', u'medium', u'high']","red",50,"middle","medium","True","False",159,2650,NA
"A1F34ZP6YNI98F","Wed Jan 29 2020 12:11:29 GMT-0500 (Eastern Standard Time)","Wed Jan 29 2020 12:18:58 GMT-0500 (Eastern Standard Time)","Mozilla/5.0 (Windows NT 6.2; Win64; x64) AppleWebKit/537.36 (KHTML, like Gecko) Chrome/75.0.3770.100 Safari/537.36",50,"[0.9, 0.5, 0.1]","[0.8, 0.4, 0.2]","[u'blue', u'red', u'black']","[u'left', u'middle', u'right']","[0.9, 0.5, 0.1]","[u'low', u'medium', u'high']","red",50,"middle","medium","False","False",325,2600,NA
"A1F34ZP6YNI98F","Wed Jan 29 2020 12:11:29 GMT-0500 (Eastern Standard Time)","Wed Jan 29 2020 12:18:58 GMT-0500 (Eastern Standard Time)","Mozilla/5.0 (Windows NT 6.2; Win64; x64) AppleWebKit/537.36 (KHTML, like Gecko) Chrome/75.0.3770.100 Safari/537.36",51,"[0.9, 0.5, 0.1]","[0.8, 0.4, 0.2]","[u'blue', u'red', u'black']","[u'left', u'middle', u'right']","[0.9, 0.5, 0.1]","[u'low', u'medium', u'high']","red",50,"middle","medium","False","False",186,2550,NA
"A1F34ZP6YNI98F","Wed Jan 29 2020 12:11:29 GMT-0500 (Eastern Standard Time)","Wed Jan 29 2020 12:18:58 GMT-0500 (Eastern Standard Time)","Mozilla/5.0 (Windows NT 6.2; Win64; x64) AppleWebKit/537.36 (KHTML, like Gecko) Chrome/75.0.3770.100 Safari/537.36",52,"[0.9, 0.5, 0.1]","[0.8, 0.4, 0.2]","[u'blue', u'red', u'black']","[u'left', u'middle', u'right']","[0.9, 0.5, 0.1]","[u'low', u'medium', u'high']","black",51,"right","high","True","False",71,2650,NA
"A1F34ZP6YNI98F","Wed Jan 29 2020 12:11:29 GMT-0500 (Eastern Standard Time)","Wed Jan 29 2020 12:18:58 GMT-0500 (Eastern Standard Time)","Mozilla/5.0 (Windows NT 6.2; Win64; x64) AppleWebKit/537.36 (KHTML, like Gecko) Chrome/75.0.3770.100 Safari/537.36",53,"[0.9, 0.5, 0.1]","[0.8, 0.4, 0.2]","[u'blue', u'red', u'black']","[u'left', u'middle', u'right']","[0.9, 0.5, 0.1]","[u'low', u'medium', u'high']","black",51,"right","high","True","False",123,2750,NA
"A1F34ZP6YNI98F","Wed Jan 29 2020 12:11:29 GMT-0500 (Eastern Standard Time)","Wed Jan 29 2020 12:18:58 GMT-0500 (Eastern Standard Time)","Mozilla/5.0 (Windows NT 6.2; Win64; x64) AppleWebKit/537.36 (KHTML, like Gecko) Chrome/75.0.3770.100 Safari/537.36",54,"[0.9, 0.5, 0.1]","[0.8, 0.4, 0.2]","[u'blue', u'red', u'black']","[u'left', u'middle', u'right']","[0.9, 0.5, 0.1]","[u'low', u'medium', u'high']","black",51,"right","high","False","False",49,2700,NA
"A1F34ZP6YNI98F","Wed Jan 29 2020 12:11:29 GMT-0500 (Eastern Standard Time)","Wed Jan 29 2020 12:18:58 GMT-0500 (Eastern Standard Time)","Mozilla/5.0 (Windows NT 6.2; Win64; x64) AppleWebKit/537.36 (KHTML, like Gecko) Chrome/75.0.3770.100 Safari/537.36",55,"[0.9, 0.5, 0.1]","[0.8, 0.4, 0.2]","[u'blue', u'red', u'black']","[u'left', u'middle', u'right']","[0.9, 0.5, 0.1]","[u'low', u'medium', u'high']","black",51,"right","high","True","False",475,2800,NA
"A1F34ZP6YNI98F","Wed Jan 29 2020 12:11:29 GMT-0500 (Eastern Standard Time)","Wed Jan 29 2020 12:18:58 GMT-0500 (Eastern Standard Time)","Mozilla/5.0 (Windows NT 6.2; Win64; x64) AppleWebKit/537.36 (KHTML, like Gecko) Chrome/75.0.3770.100 Safari/537.36",56,"[0.9, 0.5, 0.1]","[0.8, 0.4, 0.2]","[u'blue', u'red', u'black']","[u'left', u'middle', u'right']","[0.9, 0.5, 0.1]","[u'low', u'medium', u'high']","black",51,"right","high","True","False",244,2900,NA
"A1F34ZP6YNI98F","Wed Jan 29 2020 12:11:29 GMT-0500 (Eastern Standard Time)","Wed Jan 29 2020 12:18:58 GMT-0500 (Eastern Standard Time)","Mozilla/5.0 (Windows NT 6.2; Win64; x64) AppleWebKit/537.36 (KHTML, like Gecko) Chrome/75.0.3770.100 Safari/537.36",57,"[0.9, 0.5, 0.1]","[0.8, 0.4, 0.2]","[u'blue', u'red', u'black']","[u'left', u'middle', u'right']","[0.9, 0.5, 0.1]","[u'low', u'medium', u'high']","black",51,"right","high","True","False",248,3000,NA
"A1F34ZP6YNI98F","Wed Jan 29 2020 12:11:29 GMT-0500 (Eastern Standard Time)","Wed Jan 29 2020 12:18:58 GMT-0500 (Eastern Standard Time)","Mozilla/5.0 (Windows NT 6.2; Win64; x64) AppleWebKit/537.36 (KHTML, like Gecko) Chrome/75.0.3770.100 Safari/537.36",58,"[0.9, 0.5, 0.1]","[0.8, 0.4, 0.2]","[u'blue', u'red', u'black']","[u'left', u'middle', u'right']","[0.9, 0.5, 0.1]","[u'low', u'medium', u'high']","black",51,"right","high","True","False",257,3100,NA
"A1F34ZP6YNI98F","Wed Jan 29 2020 12:11:29 GMT-0500 (Eastern Standard Time)","Wed Jan 29 2020 12:18:58 GMT-0500 (Eastern Standard Time)","Mozilla/5.0 (Windows NT 6.2; Win64; x64) AppleWebKit/537.36 (KHTML, like Gecko) Chrome/75.0.3770.100 Safari/537.36",59,"[0.9, 0.5, 0.1]","[0.8, 0.4, 0.2]","[u'blue', u'red', u'black']","[u'left', u'middle', u'right']","[0.9, 0.5, 0.1]","[u'low', u'medium', u'high']","black",51,"right","high","True","False",214,3200,NA
"A1F34ZP6YNI98F","Wed Jan 29 2020 12:11:29 GMT-0500 (Eastern Standard Time)","Wed Jan 29 2020 12:18:58 GMT-0500 (Eastern Standard Time)","Mozilla/5.0 (Windows NT 6.2; Win64; x64) AppleWebKit/537.36 (KHTML, like Gecko) Chrome/75.0.3770.100 Safari/537.36",60,"[0.9, 0.5, 0.1]","[0.8, 0.4, 0.2]","[u'blue', u'red', u'black']","[u'left', u'middle', u'right']","[0.9, 0.5, 0.1]","[u'low', u'medium', u'high']","black",51,"right","high","True","True",233,3300,NA
"A1F34ZP6YNI98F","Wed Jan 29 2020 12:11:29 GMT-0500 (Eastern Standard Time)","Wed Jan 29 2020 12:18:58 GMT-0500 (Eastern Standard Time)","Mozilla/5.0 (Windows NT 6.2; Win64; x64) AppleWebKit/537.36 (KHTML, like Gecko) Chrome/75.0.3770.100 Safari/537.36",61,"[0.9, 0.5, 0.1]","[0.8, 0.4, 0.2]","[u'blue', u'red', u'black']","[u'left', u'middle', u'right']","[0.9, 0.5, 0.1]","[u'low', u'high', u'medium']","black",51,"right","medium","True","False",285,3400,NA
"A1F34ZP6YNI98F","Wed Jan 29 2020 12:11:29 GMT-0500 (Eastern Standard Time)","Wed Jan 29 2020 12:18:58 GMT-0500 (Eastern Standard Time)","Mozilla/5.0 (Windows NT 6.2; Win64; x64) AppleWebKit/537.36 (KHTML, like Gecko) Chrome/75.0.3770.100 Safari/537.36",62,"[0.9, 0.5, 0.1]","[0.8, 0.4, 0.2]","[u'blue', u'red', u'black']","[u'left', u'middle', u'right']","[0.9, 0.5, 0.1]","[u'low', u'high', u'medium']","black",51,"right","medium","True","False",334,3500,NA
"A1F34ZP6YNI98F","Wed Jan 29 2020 12:11:29 GMT-0500 (Eastern Standard Time)","Wed Jan 29 2020 12:18:58 GMT-0500 (Eastern Standard Time)","Mozilla/5.0 (Windows NT 6.2; Win64; x64) AppleWebKit/537.36 (KHTML, like Gecko) Chrome/75.0.3770.100 Safari/537.36",63,"[0.9, 0.5, 0.1]","[0.8, 0.4, 0.2]","[u'blue', u'red', u'black']","[u'left', u'middle', u'right']","[0.9, 0.5, 0.1]","[u'low', u'high', u'medium']","black",51,"right","medium","False","False",239,3450,NA
"A1F34ZP6YNI98F","Wed Jan 29 2020 12:11:29 GMT-0500 (Eastern Standard Time)","Wed Jan 29 2020 12:18:58 GMT-0500 (Eastern Standard Time)","Mozilla/5.0 (Windows NT 6.2; Win64; x64) AppleWebKit/537.36 (KHTML, like Gecko) Chrome/75.0.3770.100 Safari/537.36",64,"[0.9, 0.5, 0.1]","[0.8, 0.4, 0.2]","[u'blue', u'red', u'black']","[u'left', u'middle', u'right']","[0.9, 0.5, 0.1]","[u'low', u'high', u'medium']","black",51,"right","medium","False","False",155,3400,NA
"A1F34ZP6YNI98F","Wed Jan 29 2020 12:11:29 GMT-0500 (Eastern Standard Time)","Wed Jan 29 2020 12:18:58 GMT-0500 (Eastern Standard Time)","Mozilla/5.0 (Windows NT 6.2; Win64; x64) AppleWebKit/537.36 (KHTML, like Gecko) Chrome/75.0.3770.100 Safari/537.36",65,"[0.9, 0.5, 0.1]","[0.8, 0.4, 0.2]","[u'blue', u'red', u'black']","[u'left', u'middle', u'right']","[0.9, 0.5, 0.1]","[u'low', u'high', u'medium']","red",50,"middle","high","True","False",144,3500,NA
"A1F34ZP6YNI98F","Wed Jan 29 2020 12:11:29 GMT-0500 (Eastern Standard Time)","Wed Jan 29 2020 12:18:58 GMT-0500 (Eastern Standard Time)","Mozilla/5.0 (Windows NT 6.2; Win64; x64) AppleWebKit/537.36 (KHTML, like Gecko) Chrome/75.0.3770.100 Safari/537.36",66,"[0.9, 0.5, 0.1]","[0.8, 0.4, 0.2]","[u'blue', u'red', u'black']","[u'left', u'middle', u'right']","[0.9, 0.5, 0.1]","[u'low', u'high', u'medium']","red",50,"middle","high","True","False",233,3600,NA
"A1F34ZP6YNI98F","Wed Jan 29 2020 12:11:29 GMT-0500 (Eastern Standard Time)","Wed Jan 29 2020 12:18:58 GMT-0500 (Eastern Standard Time)","Mozilla/5.0 (Windows NT 6.2; Win64; x64) AppleWebKit/537.36 (KHTML, like Gecko) Chrome/75.0.3770.100 Safari/537.36",67,"[0.9, 0.5, 0.1]","[0.8, 0.4, 0.2]","[u'blue', u'red', u'black']","[u'left', u'middle', u'right']","[0.9, 0.5, 0.1]","[u'low', u'high', u'medium']","red",50,"middle","high","False","False",235,3550,NA
"A1F34ZP6YNI98F","Wed Jan 29 2020 12:11:29 GMT-0500 (Eastern Standard Time)","Wed Jan 29 2020 12:18:58 GMT-0500 (Eastern Standard Time)","Mozilla/5.0 (Windows NT 6.2; Win64; x64) AppleWebKit/537.36 (KHTML, like Gecko) Chrome/75.0.3770.100 Safari/537.36",68,"[0.9, 0.5, 0.1]","[0.8, 0.4, 0.2]","[u'blue', u'red', u'black']","[u'left', u'middle', u'right']","[0.9, 0.5, 0.1]","[u'low', u'high', u'medium']","red",50,"middle","high","True","False",120,3650,NA
"A1F34ZP6YNI98F","Wed Jan 29 2020 12:11:29 GMT-0500 (Eastern Standard Time)","Wed Jan 29 2020 12:18:58 GMT-0500 (Eastern Standard Time)","Mozilla/5.0 (Windows NT 6.2; Win64; x64) AppleWebKit/537.36 (KHTML, like Gecko) Chrome/75.0.3770.100 Safari/537.36",69,"[0.9, 0.5, 0.1]","[0.8, 0.4, 0.2]","[u'blue', u'red', u'black']","[u'left', u'middle', u'right']","[0.9, 0.5, 0.1]","[u'low', u'high', u'medium']","red",50,"middle","high","True","False",153,3750,NA
"A1F34ZP6YNI98F","Wed Jan 29 2020 12:11:29 GMT-0500 (Eastern Standard Time)","Wed Jan 29 2020 12:18:58 GMT-0500 (Eastern Standard Time)","Mozilla/5.0 (Windows NT 6.2; Win64; x64) AppleWebKit/537.36 (KHTML, like Gecko) Chrome/75.0.3770.100 Safari/537.36",70,"[0.9, 0.5, 0.1]","[0.8, 0.4, 0.2]","[u'blue', u'red', u'black']","[u'left', u'middle', u'right']","[0.9, 0.5, 0.1]","[u'low', u'high', u'medium']","red",50,"middle","high","True","False",146,3850,NA
"A1F34ZP6YNI98F","Wed Jan 29 2020 12:11:29 GMT-0500 (Eastern Standard Time)","Wed Jan 29 2020 12:18:58 GMT-0500 (Eastern Standard Time)","Mozilla/5.0 (Windows NT 6.2; Win64; x64) AppleWebKit/537.36 (KHTML, like Gecko) Chrome/75.0.3770.100 Safari/537.36",71,"[0.9, 0.5, 0.1]","[0.8, 0.4, 0.2]","[u'blue', u'red', u'black']","[u'left', u'middle', u'right']","[0.9, 0.5, 0.1]","[u'low', u'high', u'medium']","red",50,"middle","high","False","False",122,3800,NA
"A1F34ZP6YNI98F","Wed Jan 29 2020 12:11:29 GMT-0500 (Eastern Standard Time)","Wed Jan 29 2020 12:18:58 GMT-0500 (Eastern Standard Time)","Mozilla/5.0 (Windows NT 6.2; Win64; x64) AppleWebKit/537.36 (KHTML, like Gecko) Chrome/75.0.3770.100 Safari/537.36",72,"[0.9, 0.5, 0.1]","[0.8, 0.4, 0.2]","[u'blue', u'red', u'black']","[u'left', u'middle', u'right']","[0.9, 0.5, 0.1]","[u'low', u'high', u'medium']","red",50,"middle","high","True","False",55,3900,NA
"A1F34ZP6YNI98F","Wed Jan 29 2020 12:11:29 GMT-0500 (Eastern Standard Time)","Wed Jan 29 2020 12:18:58 GMT-0500 (Eastern Standard Time)","Mozilla/5.0 (Windows NT 6.2; Win64; x64) AppleWebKit/537.36 (KHTML, like Gecko) Chrome/75.0.3770.100 Safari/537.36",73,"[0.9, 0.5, 0.1]","[0.8, 0.4, 0.2]","[u'blue', u'red', u'black']","[u'left', u'middle', u'right']","[0.9, 0.5, 0.1]","[u'low', u'high', u'medium']","red",50,"middle","high","True","True",177,4000,NA
"A1F34ZP6YNI98F","Wed Jan 29 2020 12:11:29 GMT-0500 (Eastern Standard Time)","Wed Jan 29 2020 12:18:58 GMT-0500 (Eastern Standard Time)","Mozilla/5.0 (Windows NT 6.2; Win64; x64) AppleWebKit/537.36 (KHTML, like Gecko) Chrome/75.0.3770.100 Safari/537.36",74,"[0.9, 0.5, 0.1]","[0.8, 0.4, 0.2]","[u'blue', u'red', u'black']","[u'left', u'middle', u'right']","[0.9, 0.5, 0.1]","[u'high', u'low', u'medium']","red",50,"middle","low","True","False",205,4100,NA
"A1F34ZP6YNI98F","Wed Jan 29 2020 12:11:29 GMT-0500 (Eastern Standard Time)","Wed Jan 29 2020 12:18:58 GMT-0500 (Eastern Standard Time)","Mozilla/5.0 (Windows NT 6.2; Win64; x64) AppleWebKit/537.36 (KHTML, like Gecko) Chrome/75.0.3770.100 Safari/537.36",75,"[0.9, 0.5, 0.1]","[0.8, 0.4, 0.2]","[u'blue', u'red', u'black']","[u'left', u'middle', u'right']","[0.9, 0.5, 0.1]","[u'high', u'low', u'medium']","red",50,"middle","low","False","False",73,4050,NA
"A1F34ZP6YNI98F","Wed Jan 29 2020 12:11:29 GMT-0500 (Eastern Standard Time)","Wed Jan 29 2020 12:18:58 GMT-0500 (Eastern Standard Time)","Mozilla/5.0 (Windows NT 6.2; Win64; x64) AppleWebKit/537.36 (KHTML, like Gecko) Chrome/75.0.3770.100 Safari/537.36",76,"[0.9, 0.5, 0.1]","[0.8, 0.4, 0.2]","[u'blue', u'red', u'black']","[u'left', u'middle', u'right']","[0.9, 0.5, 0.1]","[u'high', u'low', u'medium']","red",50,"middle","low","False","False",431,4000,NA
"A1F34ZP6YNI98F","Wed Jan 29 2020 12:11:29 GMT-0500 (Eastern Standard Time)","Wed Jan 29 2020 12:18:58 GMT-0500 (Eastern Standard Time)","Mozilla/5.0 (Windows NT 6.2; Win64; x64) AppleWebKit/537.36 (KHTML, like Gecko) Chrome/75.0.3770.100 Safari/537.36",77,"[0.9, 0.5, 0.1]","[0.8, 0.4, 0.2]","[u'blue', u'red', u'black']","[u'left', u'middle', u'right']","[0.9, 0.5, 0.1]","[u'high', u'low', u'medium']","blue",49,"left","high","True","False",114,4100,NA
"A1F34ZP6YNI98F","Wed Jan 29 2020 12:11:29 GMT-0500 (Eastern Standard Time)","Wed Jan 29 2020 12:18:58 GMT-0500 (Eastern Standard Time)","Mozilla/5.0 (Windows NT 6.2; Win64; x64) AppleWebKit/537.36 (KHTML, like Gecko) Chrome/75.0.3770.100 Safari/537.36",78,"[0.9, 0.5, 0.1]","[0.8, 0.4, 0.2]","[u'blue', u'red', u'black']","[u'left', u'middle', u'right']","[0.9, 0.5, 0.1]","[u'high', u'low', u'medium']","blue",49,"left","high","True","False",218,4200,NA
"A1F34ZP6YNI98F","Wed Jan 29 2020 12:11:29 GMT-0500 (Eastern Standard Time)","Wed Jan 29 2020 12:18:58 GMT-0500 (Eastern Standard Time)","Mozilla/5.0 (Windows NT 6.2; Win64; x64) AppleWebKit/537.36 (KHTML, like Gecko) Chrome/75.0.3770.100 Safari/537.36",79,"[0.9, 0.5, 0.1]","[0.8, 0.4, 0.2]","[u'blue', u'red', u'black']","[u'left', u'middle', u'right']","[0.9, 0.5, 0.1]","[u'high', u'low', u'medium']","blue",49,"left","high","True","False",290,4300,NA
"A1F34ZP6YNI98F","Wed Jan 29 2020 12:11:29 GMT-0500 (Eastern Standard Time)","Wed Jan 29 2020 12:18:58 GMT-0500 (Eastern Standard Time)","Mozilla/5.0 (Windows NT 6.2; Win64; x64) AppleWebKit/537.36 (KHTML, like Gecko) Chrome/75.0.3770.100 Safari/537.36",80,"[0.9, 0.5, 0.1]","[0.8, 0.4, 0.2]","[u'blue', u'red', u'black']","[u'left', u'middle', u'right']","[0.9, 0.5, 0.1]","[u'high', u'low', u'medium']","blue",49,"left","high","True","False",260,4400,NA
"A1F34ZP6YNI98F","Wed Jan 29 2020 12:11:29 GMT-0500 (Eastern Standard Time)","Wed Jan 29 2020 12:18:58 GMT-0500 (Eastern Standard Time)","Mozilla/5.0 (Windows NT 6.2; Win64; x64) AppleWebKit/537.36 (KHTML, like Gecko) Chrome/75.0.3770.100 Safari/537.36",81,"[0.9, 0.5, 0.1]","[0.8, 0.4, 0.2]","[u'blue', u'red', u'black']","[u'left', u'middle', u'right']","[0.8, 0.4, 0.2]","[u'low', u'medium', u'high']","blue",49,"left","low","False","False",545,4350,NA
"A1F34ZP6YNI98F","Wed Jan 29 2020 12:11:29 GMT-0500 (Eastern Standard Time)","Wed Jan 29 2020 12:18:58 GMT-0500 (Eastern Standard Time)","Mozilla/5.0 (Windows NT 6.2; Win64; x64) AppleWebKit/537.36 (KHTML, like Gecko) Chrome/75.0.3770.100 Safari/537.36",82,"[0.9, 0.5, 0.1]","[0.8, 0.4, 0.2]","[u'blue', u'red', u'black']","[u'left', u'middle', u'right']","[0.8, 0.4, 0.2]","[u'low', u'medium', u'high']","red",50,"middle","medium","False","False",221,4300,NA
"A1F34ZP6YNI98F","Wed Jan 29 2020 12:11:29 GMT-0500 (Eastern Standard Time)","Wed Jan 29 2020 12:18:58 GMT-0500 (Eastern Standard Time)","Mozilla/5.0 (Windows NT 6.2; Win64; x64) AppleWebKit/537.36 (KHTML, like Gecko) Chrome/75.0.3770.100 Safari/537.36",83,"[0.9, 0.5, 0.1]","[0.8, 0.4, 0.2]","[u'blue', u'red', u'black']","[u'left', u'middle', u'right']","[0.8, 0.4, 0.2]","[u'low', u'medium', u'high']","black",51,"right","high","True","False",169,4400,NA
"A1F34ZP6YNI98F","Wed Jan 29 2020 12:11:29 GMT-0500 (Eastern Standard Time)","Wed Jan 29 2020 12:18:58 GMT-0500 (Eastern Standard Time)","Mozilla/5.0 (Windows NT 6.2; Win64; x64) AppleWebKit/537.36 (KHTML, like Gecko) Chrome/75.0.3770.100 Safari/537.36",84,"[0.9, 0.5, 0.1]","[0.8, 0.4, 0.2]","[u'blue', u'red', u'black']","[u'left', u'middle', u'right']","[0.8, 0.4, 0.2]","[u'low', u'medium', u'high']","black",51,"right","high","True","False",188,4500,NA
"A1F34ZP6YNI98F","Wed Jan 29 2020 12:11:29 GMT-0500 (Eastern Standard Time)","Wed Jan 29 2020 12:18:58 GMT-0500 (Eastern Standard Time)","Mozilla/5.0 (Windows NT 6.2; Win64; x64) AppleWebKit/537.36 (KHTML, like Gecko) Chrome/75.0.3770.100 Safari/537.36",85,"[0.9, 0.5, 0.1]","[0.8, 0.4, 0.2]","[u'blue', u'red', u'black']","[u'left', u'middle', u'right']","[0.8, 0.4, 0.2]","[u'low', u'medium', u'high']","black",51,"right","high","True","False",266,4600,NA
"A1F34ZP6YNI98F","Wed Jan 29 2020 12:11:29 GMT-0500 (Eastern Standard Time)","Wed Jan 29 2020 12:18:58 GMT-0500 (Eastern Standard Time)","Mozilla/5.0 (Windows NT 6.2; Win64; x64) AppleWebKit/537.36 (KHTML, like Gecko) Chrome/75.0.3770.100 Safari/537.36",86,"[0.9, 0.5, 0.1]","[0.8, 0.4, 0.2]","[u'blue', u'red', u'black']","[u'left', u'middle', u'right']","[0.8, 0.4, 0.2]","[u'low', u'medium', u'high']","black",51,"right","high","True","False",310,4700,NA
"A1F34ZP6YNI98F","Wed Jan 29 2020 12:11:29 GMT-0500 (Eastern Standard Time)","Wed Jan 29 2020 12:18:58 GMT-0500 (Eastern Standard Time)","Mozilla/5.0 (Windows NT 6.2; Win64; x64) AppleWebKit/537.36 (KHTML, like Gecko) Chrome/75.0.3770.100 Safari/537.36",87,"[0.9, 0.5, 0.1]","[0.8, 0.4, 0.2]","[u'blue', u'red', u'black']","[u'left', u'middle', u'right']","[0.8, 0.4, 0.2]","[u'low', u'medium', u'high']","black",51,"right","high","True","False",243,4800,NA
"A1F34ZP6YNI98F","Wed Jan 29 2020 12:11:29 GMT-0500 (Eastern Standard Time)","Wed Jan 29 2020 12:18:58 GMT-0500 (Eastern Standard Time)","Mozilla/5.0 (Windows NT 6.2; Win64; x64) AppleWebKit/537.36 (KHTML, like Gecko) Chrome/75.0.3770.100 Safari/537.36",88,"[0.9, 0.5, 0.1]","[0.8, 0.4, 0.2]","[u'blue', u'red', u'black']","[u'left', u'middle', u'right']","[0.8, 0.4, 0.2]","[u'low', u'medium', u'high']","black",51,"right","high","True","False",241,4900,NA
"A1F34ZP6YNI98F","Wed Jan 29 2020 12:11:29 GMT-0500 (Eastern Standard Time)","Wed Jan 29 2020 12:18:58 GMT-0500 (Eastern Standard Time)","Mozilla/5.0 (Windows NT 6.2; Win64; x64) AppleWebKit/537.36 (KHTML, like Gecko) Chrome/75.0.3770.100 Safari/537.36",89,"[0.9, 0.5, 0.1]","[0.8, 0.4, 0.2]","[u'blue', u'red', u'black']","[u'left', u'middle', u'right']","[0.8, 0.4, 0.2]","[u'low', u'medium', u'high']","black",51,"right","high","True","False",236,5000,NA
"A1F34ZP6YNI98F","Wed Jan 29 2020 12:11:29 GMT-0500 (Eastern Standard Time)","Wed Jan 29 2020 12:18:58 GMT-0500 (Eastern Standard Time)","Mozilla/5.0 (Windows NT 6.2; Win64; x64) AppleWebKit/537.36 (KHTML, like Gecko) Chrome/75.0.3770.100 Safari/537.36",90,"[0.9, 0.5, 0.1]","[0.8, 0.4, 0.2]","[u'blue', u'red', u'black']","[u'left', u'middle', u'right']","[0.8, 0.4, 0.2]","[u'low', u'medium', u'high']","black",51,"right","high","True","False",258,5100,NA
"A1F34ZP6YNI98F","Wed Jan 29 2020 12:11:29 GMT-0500 (Eastern Standard Time)","Wed Jan 29 2020 12:18:58 GMT-0500 (Eastern Standard Time)","Mozilla/5.0 (Windows NT 6.2; Win64; x64) AppleWebKit/537.36 (KHTML, like Gecko) Chrome/75.0.3770.100 Safari/537.36",91,"[0.9, 0.5, 0.1]","[0.8, 0.4, 0.2]","[u'blue', u'red', u'black']","[u'left', u'middle', u'right']","[0.8, 0.4, 0.2]","[u'low', u'medium', u'high']","black",51,"right","high","True","True",307,5200,NA
"A1F34ZP6YNI98F","Wed Jan 29 2020 12:11:29 GMT-0500 (Eastern Standard Time)","Wed Jan 29 2020 12:18:58 GMT-0500 (Eastern Standard Time)","Mozilla/5.0 (Windows NT 6.2; Win64; x64) AppleWebKit/537.36 (KHTML, like Gecko) Chrome/75.0.3770.100 Safari/537.36",92,"[0.9, 0.5, 0.1]","[0.8, 0.4, 0.2]","[u'blue', u'red', u'black']","[u'left', u'middle', u'right']","[0.8, 0.4, 0.2]","[u'medium', u'high', u'low']","black",51,"right","low","False","False",294,5150,NA
"A1F34ZP6YNI98F","Wed Jan 29 2020 12:11:29 GMT-0500 (Eastern Standard Time)","Wed Jan 29 2020 12:18:58 GMT-0500 (Eastern Standard Time)","Mozilla/5.0 (Windows NT 6.2; Win64; x64) AppleWebKit/537.36 (KHTML, like Gecko) Chrome/75.0.3770.100 Safari/537.36",93,"[0.9, 0.5, 0.1]","[0.8, 0.4, 0.2]","[u'blue', u'red', u'black']","[u'left', u'middle', u'right']","[0.8, 0.4, 0.2]","[u'medium', u'high', u'low']","black",51,"right","low","False","False",185,5100,NA
"A1F34ZP6YNI98F","Wed Jan 29 2020 12:11:29 GMT-0500 (Eastern Standard Time)","Wed Jan 29 2020 12:18:58 GMT-0500 (Eastern Standard Time)","Mozilla/5.0 (Windows NT 6.2; Win64; x64) AppleWebKit/537.36 (KHTML, like Gecko) Chrome/75.0.3770.100 Safari/537.36",94,"[0.9, 0.5, 0.1]","[0.8, 0.4, 0.2]","[u'blue', u'red', u'black']","[u'left', u'middle', u'right']","[0.8, 0.4, 0.2]","[u'medium', u'high', u'low']","red",50,"middle","high","False","False",67,5050,NA
"A1F34ZP6YNI98F","Wed Jan 29 2020 12:11:29 GMT-0500 (Eastern Standard Time)","Wed Jan 29 2020 12:18:58 GMT-0500 (Eastern Standard Time)","Mozilla/5.0 (Windows NT 6.2; Win64; x64) AppleWebKit/537.36 (KHTML, like Gecko) Chrome/75.0.3770.100 Safari/537.36",95,"[0.9, 0.5, 0.1]","[0.8, 0.4, 0.2]","[u'blue', u'red', u'black']","[u'left', u'middle', u'right']","[0.8, 0.4, 0.2]","[u'medium', u'high', u'low']","blue",49,"left","medium","False","False",348,5000,NA
"A1F34ZP6YNI98F","Wed Jan 29 2020 12:11:29 GMT-0500 (Eastern Standard Time)","Wed Jan 29 2020 12:18:58 GMT-0500 (Eastern Standard Time)","Mozilla/5.0 (Windows NT 6.2; Win64; x64) AppleWebKit/537.36 (KHTML, like Gecko) Chrome/75.0.3770.100 Safari/537.36",96,"[0.9, 0.5, 0.1]","[0.8, 0.4, 0.2]","[u'blue', u'red', u'black']","[u'left', u'middle', u'right']","[0.8, 0.4, 0.2]","[u'medium', u'high', u'low']","red",50,"middle","high","True","False",8,5100,NA
"A1F34ZP6YNI98F","Wed Jan 29 2020 12:11:29 GMT-0500 (Eastern Standard Time)","Wed Jan 29 2020 12:18:58 GMT-0500 (Eastern Standard Time)","Mozilla/5.0 (Windows NT 6.2; Win64; x64) AppleWebKit/537.36 (KHTML, like Gecko) Chrome/75.0.3770.100 Safari/537.36",97,"[0.9, 0.5, 0.1]","[0.8, 0.4, 0.2]","[u'blue', u'red', u'black']","[u'left', u'middle', u'right']","[0.8, 0.4, 0.2]","[u'medium', u'high', u'low']","red",50,"middle","high","True","False",180,5200,NA
"A1F34ZP6YNI98F","Wed Jan 29 2020 12:11:29 GMT-0500 (Eastern Standard Time)","Wed Jan 29 2020 12:18:58 GMT-0500 (Eastern Standard Time)","Mozilla/5.0 (Windows NT 6.2; Win64; x64) AppleWebKit/537.36 (KHTML, like Gecko) Chrome/75.0.3770.100 Safari/537.36",98,"[0.9, 0.5, 0.1]","[0.8, 0.4, 0.2]","[u'blue', u'red', u'black']","[u'left', u'middle', u'right']","[0.8, 0.4, 0.2]","[u'medium', u'high', u'low']","red",50,"middle","high","True","False",394,5300,NA
"A1F34ZP6YNI98F","Wed Jan 29 2020 12:11:29 GMT-0500 (Eastern Standard Time)","Wed Jan 29 2020 12:18:58 GMT-0500 (Eastern Standard Time)","Mozilla/5.0 (Windows NT 6.2; Win64; x64) AppleWebKit/537.36 (KHTML, like Gecko) Chrome/75.0.3770.100 Safari/537.36",99,"[0.9, 0.5, 0.1]","[0.8, 0.4, 0.2]","[u'blue', u'red', u'black']","[u'left', u'middle', u'right']","[0.8, 0.4, 0.2]","[u'medium', u'high', u'low']","red",50,"middle","high","True","False",28,5400,NA
"A1F34ZP6YNI98F","Wed Jan 29 2020 12:11:29 GMT-0500 (Eastern Standard Time)","Wed Jan 29 2020 12:18:58 GMT-0500 (Eastern Standard Time)","Mozilla/5.0 (Windows NT 6.2; Win64; x64) AppleWebKit/537.36 (KHTML, like Gecko) Chrome/75.0.3770.100 Safari/537.36",100,"[0.9, 0.5, 0.1]","[0.8, 0.4, 0.2]","[u'blue', u'red', u'black']","[u'left', u'middle', u'right']","[0.8, 0.4, 0.2]","[u'medium', u'high', u'low']","red",50,"middle","high","True","False",319,5500,NA
"A1F34ZP6YNI98F","Wed Jan 29 2020 12:11:29 GMT-0500 (Eastern Standard Time)","Wed Jan 29 2020 12:18:58 GMT-0500 (Eastern Standard Time)","Mozilla/5.0 (Windows NT 6.2; Win64; x64) AppleWebKit/537.36 (KHTML, like Gecko) Chrome/75.0.3770.100 Safari/537.36",101,"[0.9, 0.5, 0.1]","[0.8, 0.4, 0.2]","[u'blue', u'red', u'black']","[u'left', u'middle', u'right']","[0.8, 0.4, 0.2]","[u'medium', u'high', u'low']","red",50,"middle","high","False","False",366,5450,NA
"A1F34ZP6YNI98F","Wed Jan 29 2020 12:11:29 GMT-0500 (Eastern Standard Time)","Wed Jan 29 2020 12:18:58 GMT-0500 (Eastern Standard Time)","Mozilla/5.0 (Windows NT 6.2; Win64; x64) AppleWebKit/537.36 (KHTML, like Gecko) Chrome/75.0.3770.100 Safari/537.36",102,"[0.9, 0.5, 0.1]","[0.8, 0.4, 0.2]","[u'blue', u'red', u'black']","[u'left', u'middle', u'right']","[0.8, 0.4, 0.2]","[u'medium', u'high', u'low']","red",50,"middle","high","True","False",306,5550,NA
"A1F34ZP6YNI98F","Wed Jan 29 2020 12:11:29 GMT-0500 (Eastern Standard Time)","Wed Jan 29 2020 12:18:58 GMT-0500 (Eastern Standard Time)","Mozilla/5.0 (Windows NT 6.2; Win64; x64) AppleWebKit/537.36 (KHTML, like Gecko) Chrome/75.0.3770.100 Safari/537.36",103,"[0.9, 0.5, 0.1]","[0.8, 0.4, 0.2]","[u'blue', u'red', u'black']","[u'left', u'middle', u'right']","[0.8, 0.4, 0.2]","[u'medium', u'high', u'low']","red",50,"middle","high","False","True",232,5500,NA
"A1F34ZP6YNI98F","Wed Jan 29 2020 12:11:29 GMT-0500 (Eastern Standard Time)","Wed Jan 29 2020 12:18:58 GMT-0500 (Eastern Standard Time)","Mozilla/5.0 (Windows NT 6.2; Win64; x64) AppleWebKit/537.36 (KHTML, like Gecko) Chrome/75.0.3770.100 Safari/537.36",104,"[0.9, 0.5, 0.1]","[0.8, 0.4, 0.2]","[u'blue', u'red', u'black']","[u'left', u'middle', u'right']","[0.8, 0.4, 0.2]","[u'high', u'low', u'medium']","red",50,"middle","low","False","False",136,5450,NA
"A1F34ZP6YNI98F","Wed Jan 29 2020 12:11:29 GMT-0500 (Eastern Standard Time)","Wed Jan 29 2020 12:18:58 GMT-0500 (Eastern Standard Time)","Mozilla/5.0 (Windows NT 6.2; Win64; x64) AppleWebKit/537.36 (KHTML, like Gecko) Chrome/75.0.3770.100 Safari/537.36",105,"[0.9, 0.5, 0.1]","[0.8, 0.4, 0.2]","[u'blue', u'red', u'black']","[u'left', u'middle', u'right']","[0.8, 0.4, 0.2]","[u'high', u'low', u'medium']","red",50,"middle","low","False","False",201,5400,NA
"A1F34ZP6YNI98F","Wed Jan 29 2020 12:11:29 GMT-0500 (Eastern Standard Time)","Wed Jan 29 2020 12:18:58 GMT-0500 (Eastern Standard Time)","Mozilla/5.0 (Windows NT 6.2; Win64; x64) AppleWebKit/537.36 (KHTML, like Gecko) Chrome/75.0.3770.100 Safari/537.36",106,"[0.9, 0.5, 0.1]","[0.8, 0.4, 0.2]","[u'blue', u'red', u'black']","[u'left', u'middle', u'right']","[0.8, 0.4, 0.2]","[u'high', u'low', u'medium']","red",50,"middle","low","False","False",16,5350,NA
"A1F34ZP6YNI98F","Wed Jan 29 2020 12:11:29 GMT-0500 (Eastern Standard Time)","Wed Jan 29 2020 12:18:58 GMT-0500 (Eastern Standard Time)","Mozilla/5.0 (Windows NT 6.2; Win64; x64) AppleWebKit/537.36 (KHTML, like Gecko) Chrome/75.0.3770.100 Safari/537.36",107,"[0.9, 0.5, 0.1]","[0.8, 0.4, 0.2]","[u'blue', u'red', u'black']","[u'left', u'middle', u'right']","[0.8, 0.4, 0.2]","[u'high', u'low', u'medium']","red",50,"middle","low","False","False",424,5300,NA
"A1F34ZP6YNI98F","Wed Jan 29 2020 12:11:29 GMT-0500 (Eastern Standard Time)","Wed Jan 29 2020 12:18:58 GMT-0500 (Eastern Standard Time)","Mozilla/5.0 (Windows NT 6.2; Win64; x64) AppleWebKit/537.36 (KHTML, like Gecko) Chrome/75.0.3770.100 Safari/537.36",108,"[0.9, 0.5, 0.1]","[0.8, 0.4, 0.2]","[u'blue', u'red', u'black']","[u'left', u'middle', u'right']","[0.8, 0.4, 0.2]","[u'high', u'low', u'medium']","red",50,"middle","low","True","False",378,5400,NA
"A1F34ZP6YNI98F","Wed Jan 29 2020 12:11:29 GMT-0500 (Eastern Standard Time)","Wed Jan 29 2020 12:18:58 GMT-0500 (Eastern Standard Time)","Mozilla/5.0 (Windows NT 6.2; Win64; x64) AppleWebKit/537.36 (KHTML, like Gecko) Chrome/75.0.3770.100 Safari/537.36",109,"[0.9, 0.5, 0.1]","[0.8, 0.4, 0.2]","[u'blue', u'red', u'black']","[u'left', u'middle', u'right']","[0.8, 0.4, 0.2]","[u'high', u'low', u'medium']","red",50,"middle","low","False","False",3020,5350,NA
"A1F34ZP6YNI98F","Wed Jan 29 2020 12:11:29 GMT-0500 (Eastern Standard Time)","Wed Jan 29 2020 12:18:58 GMT-0500 (Eastern Standard Time)","Mozilla/5.0 (Windows NT 6.2; Win64; x64) AppleWebKit/537.36 (KHTML, like Gecko) Chrome/75.0.3770.100 Safari/537.36",110,"[0.9, 0.5, 0.1]","[0.8, 0.4, 0.2]","[u'blue', u'red', u'black']","[u'left', u'middle', u'right']","[0.8, 0.4, 0.2]","[u'high', u'low', u'medium']","blue",49,"left","high","True","False",161,5450,NA
"A1F34ZP6YNI98F","Wed Jan 29 2020 12:11:29 GMT-0500 (Eastern Standard Time)","Wed Jan 29 2020 12:18:58 GMT-0500 (Eastern Standard Time)","Mozilla/5.0 (Windows NT 6.2; Win64; x64) AppleWebKit/537.36 (KHTML, like Gecko) Chrome/75.0.3770.100 Safari/537.36",111,"[0.9, 0.5, 0.1]","[0.8, 0.4, 0.2]","[u'blue', u'red', u'black']","[u'left', u'middle', u'right']","[0.8, 0.4, 0.2]","[u'high', u'low', u'medium']","red",50,"middle","low","True","False",147,5550,NA
"A1F34ZP6YNI98F","Wed Jan 29 2020 12:11:29 GMT-0500 (Eastern Standard Time)","Wed Jan 29 2020 12:18:58 GMT-0500 (Eastern Standard Time)","Mozilla/5.0 (Windows NT 6.2; Win64; x64) AppleWebKit/537.36 (KHTML, like Gecko) Chrome/75.0.3770.100 Safari/537.36",112,"[0.9, 0.5, 0.1]","[0.8, 0.4, 0.2]","[u'blue', u'red', u'black']","[u'left', u'middle', u'right']","[0.8, 0.4, 0.2]","[u'high', u'low', u'medium']","red",50,"middle","low","False","False",445,5500,NA
"A1F34ZP6YNI98F","Wed Jan 29 2020 12:11:29 GMT-0500 (Eastern Standard Time)","Wed Jan 29 2020 12:18:58 GMT-0500 (Eastern Standard Time)","Mozilla/5.0 (Windows NT 6.2; Win64; x64) AppleWebKit/537.36 (KHTML, like Gecko) Chrome/75.0.3770.100 Safari/537.36",113,"[0.9, 0.5, 0.1]","[0.8, 0.4, 0.2]","[u'blue', u'red', u'black']","[u'left', u'middle', u'right']","[0.8, 0.4, 0.2]","[u'high', u'low', u'medium']","red",50,"middle","low","False","False",254,5450,NA
"A1F34ZP6YNI98F","Wed Jan 29 2020 12:11:29 GMT-0500 (Eastern Standard Time)","Wed Jan 29 2020 12:18:58 GMT-0500 (Eastern Standard Time)","Mozilla/5.0 (Windows NT 6.2; Win64; x64) AppleWebKit/537.36 (KHTML, like Gecko) Chrome/75.0.3770.100 Safari/537.36",114,"[0.9, 0.5, 0.1]","[0.8, 0.4, 0.2]","[u'blue', u'red', u'black']","[u'left', u'middle', u'right']","[0.8, 0.4, 0.2]","[u'high', u'low', u'medium']","black",51,"right","medium","False","False",355,5400,NA
"A1F34ZP6YNI98F","Wed Jan 29 2020 12:11:29 GMT-0500 (Eastern Standard Time)","Wed Jan 29 2020 12:18:58 GMT-0500 (Eastern Standard Time)","Mozilla/5.0 (Windows NT 6.2; Win64; x64) AppleWebKit/537.36 (KHTML, like Gecko) Chrome/75.0.3770.100 Safari/537.36",115,"[0.9, 0.5, 0.1]","[0.8, 0.4, 0.2]","[u'blue', u'red', u'black']","[u'left', u'middle', u'right']","[0.8, 0.4, 0.2]","[u'high', u'low', u'medium']","black",51,"right","medium","False","False",308,5350,NA
"A1F34ZP6YNI98F","Wed Jan 29 2020 12:11:29 GMT-0500 (Eastern Standard Time)","Wed Jan 29 2020 12:18:58 GMT-0500 (Eastern Standard Time)","Mozilla/5.0 (Windows NT 6.2; Win64; x64) AppleWebKit/537.36 (KHTML, like Gecko) Chrome/75.0.3770.100 Safari/537.36",116,"[0.9, 0.5, 0.1]","[0.8, 0.4, 0.2]","[u'blue', u'red', u'black']","[u'left', u'middle', u'right']","[0.8, 0.4, 0.2]","[u'high', u'low', u'medium']","blue",49,"left","high","False","False",285,5300,NA
"A1F34ZP6YNI98F","Wed Jan 29 2020 12:11:29 GMT-0500 (Eastern Standard Time)","Wed Jan 29 2020 12:18:58 GMT-0500 (Eastern Standard Time)","Mozilla/5.0 (Windows NT 6.2; Win64; x64) AppleWebKit/537.36 (KHTML, like Gecko) Chrome/75.0.3770.100 Safari/537.36",117,"[0.9, 0.5, 0.1]","[0.8, 0.4, 0.2]","[u'blue', u'red', u'black']","[u'left', u'middle', u'right']","[0.8, 0.4, 0.2]","[u'high', u'low', u'medium']","red",50,"middle","low","False","False",242,5250,NA
"A1F34ZP6YNI98F","Wed Jan 29 2020 12:11:29 GMT-0500 (Eastern Standard Time)","Wed Jan 29 2020 12:18:58 GMT-0500 (Eastern Standard Time)","Mozilla/5.0 (Windows NT 6.2; Win64; x64) AppleWebKit/537.36 (KHTML, like Gecko) Chrome/75.0.3770.100 Safari/537.36",118,"[0.9, 0.5, 0.1]","[0.8, 0.4, 0.2]","[u'blue', u'red', u'black']","[u'left', u'middle', u'right']","[0.8, 0.4, 0.2]","[u'high', u'low', u'medium']","black",51,"right","medium","False","False",157,5200,NA
"A1F34ZP6YNI98F","Wed Jan 29 2020 12:11:29 GMT-0500 (Eastern Standard Time)","Wed Jan 29 2020 12:18:58 GMT-0500 (Eastern Standard Time)","Mozilla/5.0 (Windows NT 6.2; Win64; x64) AppleWebKit/537.36 (KHTML, like Gecko) Chrome/75.0.3770.100 Safari/537.36",119,"[0.9, 0.5, 0.1]","[0.8, 0.4, 0.2]","[u'blue', u'red', u'black']","[u'left', u'middle', u'right']","[0.8, 0.4, 0.2]","[u'high', u'low', u'medium']","blue",49,"left","high","True","False",212,5300,NA
"A1F34ZP6YNI98F","Wed Jan 29 2020 12:11:29 GMT-0500 (Eastern Standard Time)","Wed Jan 29 2020 12:18:58 GMT-0500 (Eastern Standard Time)","Mozilla/5.0 (Windows NT 6.2; Win64; x64) AppleWebKit/537.36 (KHTML, like Gecko) Chrome/75.0.3770.100 Safari/537.36",120,"[0.9, 0.5, 0.1]","[0.8, 0.4, 0.2]","[u'blue', u'red', u'black']","[u'left', u'middle', u'right']","[0.8, 0.4, 0.2]","[u'high', u'low', u'medium']","blue",49,"left","high","True","False",214,5400,NA
"A1F34ZP6YNI98F","Wed Jan 29 2020 12:11:29 GMT-0500 (Eastern Standard Time)","Wed Jan 29 2020 12:18:58 GMT-0500 (Eastern Standard Time)","Mozilla/5.0 (Windows NT 6.2; Win64; x64) AppleWebKit/537.36 (KHTML, like Gecko) Chrome/75.0.3770.100 Safari/537.36",121,"[0.9, 0.5, 0.1]","[0.8, 0.4, 0.2]","[u'blue', u'red', u'black']","[u'left', u'middle', u'right']","[0.8, 0.4, 0.2]","[u'medium', u'low', u'high']","blue",49,"left","medium","False","False",307,5350,NA
"A1F34ZP6YNI98F","Wed Jan 29 2020 12:11:29 GMT-0500 (Eastern Standard Time)","Wed Jan 29 2020 12:18:58 GMT-0500 (Eastern Standard Time)","Mozilla/5.0 (Windows NT 6.2; Win64; x64) AppleWebKit/537.36 (KHTML, like Gecko) Chrome/75.0.3770.100 Safari/537.36",122,"[0.9, 0.5, 0.1]","[0.8, 0.4, 0.2]","[u'blue', u'red', u'black']","[u'left', u'middle', u'right']","[0.8, 0.4, 0.2]","[u'medium', u'low', u'high']","red",50,"middle","low","False","False",121,5300,NA
"A1F34ZP6YNI98F","Wed Jan 29 2020 12:11:29 GMT-0500 (Eastern Standard Time)","Wed Jan 29 2020 12:18:58 GMT-0500 (Eastern Standard Time)","Mozilla/5.0 (Windows NT 6.2; Win64; x64) AppleWebKit/537.36 (KHTML, like Gecko) Chrome/75.0.3770.100 Safari/537.36",123,"[0.9, 0.5, 0.1]","[0.8, 0.4, 0.2]","[u'blue', u'red', u'black']","[u'left', u'middle', u'right']","[0.8, 0.4, 0.2]","[u'medium', u'low', u'high']","black",51,"right","high","True","False",222,5400,NA
"A1F34ZP6YNI98F","Wed Jan 29 2020 12:11:29 GMT-0500 (Eastern Standard Time)","Wed Jan 29 2020 12:18:58 GMT-0500 (Eastern Standard Time)","Mozilla/5.0 (Windows NT 6.2; Win64; x64) AppleWebKit/537.36 (KHTML, like Gecko) Chrome/75.0.3770.100 Safari/537.36",124,"[0.9, 0.5, 0.1]","[0.8, 0.4, 0.2]","[u'blue', u'red', u'black']","[u'left', u'middle', u'right']","[0.8, 0.4, 0.2]","[u'medium', u'low', u'high']","black",51,"right","high","True","False",211,5500,NA
"A1F34ZP6YNI98F","Wed Jan 29 2020 12:11:29 GMT-0500 (Eastern Standard Time)","Wed Jan 29 2020 12:18:58 GMT-0500 (Eastern Standard Time)","Mozilla/5.0 (Windows NT 6.2; Win64; x64) AppleWebKit/537.36 (KHTML, like Gecko) Chrome/75.0.3770.100 Safari/537.36",125,"[0.9, 0.5, 0.1]","[0.8, 0.4, 0.2]","[u'blue', u'red', u'black']","[u'left', u'middle', u'right']","[0.8, 0.4, 0.2]","[u'medium', u'low', u'high']","black",51,"right","high","True","False",247,5600,NA
"A1F34ZP6YNI98F","Wed Jan 29 2020 12:11:29 GMT-0500 (Eastern Standard Time)","Wed Jan 29 2020 12:18:58 GMT-0500 (Eastern Standard Time)","Mozilla/5.0 (Windows NT 6.2; Win64; x64) AppleWebKit/537.36 (KHTML, like Gecko) Chrome/75.0.3770.100 Safari/537.36",126,"[0.9, 0.5, 0.1]","[0.8, 0.4, 0.2]","[u'blue', u'red', u'black']","[u'left', u'middle', u'right']","[0.8, 0.4, 0.2]","[u'medium', u'low', u'high']","black",51,"right","high","True","False",193,5700,NA
"A1F34ZP6YNI98F","Wed Jan 29 2020 12:11:29 GMT-0500 (Eastern Standard Time)","Wed Jan 29 2020 12:18:58 GMT-0500 (Eastern Standard Time)","Mozilla/5.0 (Windows NT 6.2; Win64; x64) AppleWebKit/537.36 (KHTML, like Gecko) Chrome/75.0.3770.100 Safari/537.36",127,"[0.9, 0.5, 0.1]","[0.8, 0.4, 0.2]","[u'blue', u'red', u'black']","[u'left', u'middle', u'right']","[0.8, 0.4, 0.2]","[u'medium', u'low', u'high']","black",51,"right","high","True","False",234,5800,NA
"A1F34ZP6YNI98F","Wed Jan 29 2020 12:11:29 GMT-0500 (Eastern Standard Time)","Wed Jan 29 2020 12:18:58 GMT-0500 (Eastern Standard Time)","Mozilla/5.0 (Windows NT 6.2; Win64; x64) AppleWebKit/537.36 (KHTML, like Gecko) Chrome/75.0.3770.100 Safari/537.36",128,"[0.9, 0.5, 0.1]","[0.8, 0.4, 0.2]","[u'blue', u'red', u'black']","[u'left', u'middle', u'right']","[0.8, 0.4, 0.2]","[u'medium', u'low', u'high']","black",51,"right","high","True","False",215,5900,NA
"A1F34ZP6YNI98F","Wed Jan 29 2020 12:11:29 GMT-0500 (Eastern Standard Time)","Wed Jan 29 2020 12:18:58 GMT-0500 (Eastern Standard Time)","Mozilla/5.0 (Windows NT 6.2; Win64; x64) AppleWebKit/537.36 (KHTML, like Gecko) Chrome/75.0.3770.100 Safari/537.36",129,"[0.9, 0.5, 0.1]","[0.8, 0.4, 0.2]","[u'blue', u'red', u'black']","[u'left', u'middle', u'right']","[0.8, 0.4, 0.2]","[u'medium', u'low', u'high']","black",51,"right","high","True","False",210,6000,NA
"A1F34ZP6YNI98F","Wed Jan 29 2020 12:11:29 GMT-0500 (Eastern Standard Time)","Wed Jan 29 2020 12:18:58 GMT-0500 (Eastern Standard Time)","Mozilla/5.0 (Windows NT 6.2; Win64; x64) AppleWebKit/537.36 (KHTML, like Gecko) Chrome/75.0.3770.100 Safari/537.36",130,"[0.9, 0.5, 0.1]","[0.8, 0.4, 0.2]","[u'blue', u'red', u'black']","[u'left', u'middle', u'right']","[0.8, 0.4, 0.2]","[u'medium', u'low', u'high']","black",51,"right","high","True","False",255,6100,NA
"A1F34ZP6YNI98F","Wed Jan 29 2020 12:11:29 GMT-0500 (Eastern Standard Time)","Wed Jan 29 2020 12:18:58 GMT-0500 (Eastern Standard Time)","Mozilla/5.0 (Windows NT 6.2; Win64; x64) AppleWebKit/537.36 (KHTML, like Gecko) Chrome/75.0.3770.100 Safari/537.36",131,"[0.9, 0.5, 0.1]","[0.8, 0.4, 0.2]","[u'blue', u'red', u'black']","[u'left', u'middle', u'right']","[0.8, 0.4, 0.2]","[u'medium', u'low', u'high']","black",51,"right","high","True","True",136,6200,NA
"A1F34ZP6YNI98F","Wed Jan 29 2020 12:11:29 GMT-0500 (Eastern Standard Time)","Wed Jan 29 2020 12:18:58 GMT-0500 (Eastern Standard Time)","Mozilla/5.0 (Windows NT 6.2; Win64; x64) AppleWebKit/537.36 (KHTML, like Gecko) Chrome/75.0.3770.100 Safari/537.36",132,"[0.9, 0.5, 0.1]","[0.8, 0.4, 0.2]","[u'blue', u'red', u'black']","[u'left', u'middle', u'right']","[0.8, 0.4, 0.2]","[u'low', u'high', u'medium']","black",51,"right","medium","True","False",145,6300,NA
"A1F34ZP6YNI98F","Wed Jan 29 2020 12:11:29 GMT-0500 (Eastern Standard Time)","Wed Jan 29 2020 12:18:58 GMT-0500 (Eastern Standard Time)","Mozilla/5.0 (Windows NT 6.2; Win64; x64) AppleWebKit/537.36 (KHTML, like Gecko) Chrome/75.0.3770.100 Safari/537.36",133,"[0.9, 0.5, 0.1]","[0.8, 0.4, 0.2]","[u'blue', u'red', u'black']","[u'left', u'middle', u'right']","[0.8, 0.4, 0.2]","[u'low', u'high', u'medium']","black",51,"right","medium","False","False",90,6250,NA
"A1F34ZP6YNI98F","Wed Jan 29 2020 12:11:29 GMT-0500 (Eastern Standard Time)","Wed Jan 29 2020 12:18:58 GMT-0500 (Eastern Standard Time)","Mozilla/5.0 (Windows NT 6.2; Win64; x64) AppleWebKit/537.36 (KHTML, like Gecko) Chrome/75.0.3770.100 Safari/537.36",134,"[0.9, 0.5, 0.1]","[0.8, 0.4, 0.2]","[u'blue', u'red', u'black']","[u'left', u'middle', u'right']","[0.8, 0.4, 0.2]","[u'low', u'high', u'medium']","black",51,"right","medium","False","False",32,6200,NA
"A1F34ZP6YNI98F","Wed Jan 29 2020 12:11:29 GMT-0500 (Eastern Standard Time)","Wed Jan 29 2020 12:18:58 GMT-0500 (Eastern Standard Time)","Mozilla/5.0 (Windows NT 6.2; Win64; x64) AppleWebKit/537.36 (KHTML, like Gecko) Chrome/75.0.3770.100 Safari/537.36",135,"[0.9, 0.5, 0.1]","[0.8, 0.4, 0.2]","[u'blue', u'red', u'black']","[u'left', u'middle', u'right']","[0.8, 0.4, 0.2]","[u'low', u'high', u'medium']","red",50,"middle","high","True","False",46,6300,NA
"A1F34ZP6YNI98F","Wed Jan 29 2020 12:11:29 GMT-0500 (Eastern Standard Time)","Wed Jan 29 2020 12:18:58 GMT-0500 (Eastern Standard Time)","Mozilla/5.0 (Windows NT 6.2; Win64; x64) AppleWebKit/537.36 (KHTML, like Gecko) Chrome/75.0.3770.100 Safari/537.36",136,"[0.9, 0.5, 0.1]","[0.8, 0.4, 0.2]","[u'blue', u'red', u'black']","[u'left', u'middle', u'right']","[0.8, 0.4, 0.2]","[u'low', u'high', u'medium']","red",50,"middle","high","True","False",77,6400,NA
"A1F34ZP6YNI98F","Wed Jan 29 2020 12:11:29 GMT-0500 (Eastern Standard Time)","Wed Jan 29 2020 12:18:58 GMT-0500 (Eastern Standard Time)","Mozilla/5.0 (Windows NT 6.2; Win64; x64) AppleWebKit/537.36 (KHTML, like Gecko) Chrome/75.0.3770.100 Safari/537.36",137,"[0.9, 0.5, 0.1]","[0.8, 0.4, 0.2]","[u'blue', u'red', u'black']","[u'left', u'middle', u'right']","[0.8, 0.4, 0.2]","[u'low', u'high', u'medium']","red",50,"middle","high","False","False",172,6350,NA
"A1F34ZP6YNI98F","Wed Jan 29 2020 12:11:29 GMT-0500 (Eastern Standard Time)","Wed Jan 29 2020 12:18:58 GMT-0500 (Eastern Standard Time)","Mozilla/5.0 (Windows NT 6.2; Win64; x64) AppleWebKit/537.36 (KHTML, like Gecko) Chrome/75.0.3770.100 Safari/537.36",138,"[0.9, 0.5, 0.1]","[0.8, 0.4, 0.2]","[u'blue', u'red', u'black']","[u'left', u'middle', u'right']","[0.8, 0.4, 0.2]","[u'low', u'high', u'medium']","red",50,"middle","high","True","False",36,6450,NA
"A1F34ZP6YNI98F","Wed Jan 29 2020 12:11:29 GMT-0500 (Eastern Standard Time)","Wed Jan 29 2020 12:18:58 GMT-0500 (Eastern Standard Time)","Mozilla/5.0 (Windows NT 6.2; Win64; x64) AppleWebKit/537.36 (KHTML, like Gecko) Chrome/75.0.3770.100 Safari/537.36",139,"[0.9, 0.5, 0.1]","[0.8, 0.4, 0.2]","[u'blue', u'red', u'black']","[u'left', u'middle', u'right']","[0.8, 0.4, 0.2]","[u'low', u'high', u'medium']","red",50,"middle","high","False","False",73,6400,NA
"A1F34ZP6YNI98F","Wed Jan 29 2020 12:11:29 GMT-0500 (Eastern Standard Time)","Wed Jan 29 2020 12:18:58 GMT-0500 (Eastern Standard Time)","Mozilla/5.0 (Windows NT 6.2; Win64; x64) AppleWebKit/537.36 (KHTML, like Gecko) Chrome/75.0.3770.100 Safari/537.36",140,"[0.9, 0.5, 0.1]","[0.8, 0.4, 0.2]","[u'blue', u'red', u'black']","[u'left', u'middle', u'right']","[0.8, 0.4, 0.2]","[u'low', u'high', u'medium']","blue",49,"left","low","True","False",109,6500,NA
"A1F34ZP6YNI98F","Wed Jan 29 2020 12:11:29 GMT-0500 (Eastern Standard Time)","Wed Jan 29 2020 12:18:58 GMT-0500 (Eastern Standard Time)","Mozilla/5.0 (Windows NT 6.2; Win64; x64) AppleWebKit/537.36 (KHTML, like Gecko) Chrome/75.0.3770.100 Safari/537.36",141,"[0.9, 0.5, 0.1]","[0.8, 0.4, 0.2]","[u'blue', u'red', u'black']","[u'left', u'middle', u'right']","[0.8, 0.4, 0.2]","[u'low', u'high', u'medium']","blue",49,"left","low","False","False",165,6450,NA
"A1F34ZP6YNI98F","Wed Jan 29 2020 12:11:29 GMT-0500 (Eastern Standard Time)","Wed Jan 29 2020 12:18:58 GMT-0500 (Eastern Standard Time)","Mozilla/5.0 (Windows NT 6.2; Win64; x64) AppleWebKit/537.36 (KHTML, like Gecko) Chrome/75.0.3770.100 Safari/537.36",142,"[0.9, 0.5, 0.1]","[0.8, 0.4, 0.2]","[u'blue', u'red', u'black']","[u'left', u'middle', u'right']","[0.8, 0.4, 0.2]","[u'low', u'high', u'medium']","blue",49,"left","low","False","False",377,6400,NA
"A1F34ZP6YNI98F","Wed Jan 29 2020 12:11:29 GMT-0500 (Eastern Standard Time)","Wed Jan 29 2020 12:18:58 GMT-0500 (Eastern Standard Time)","Mozilla/5.0 (Windows NT 6.2; Win64; x64) AppleWebKit/537.36 (KHTML, like Gecko) Chrome/75.0.3770.100 Safari/537.36",143,"[0.9, 0.5, 0.1]","[0.8, 0.4, 0.2]","[u'blue', u'red', u'black']","[u'left', u'middle', u'right']","[0.8, 0.4, 0.2]","[u'low', u'high', u'medium']","red",50,"middle","high","True","False",204,6500,NA
"A1F34ZP6YNI98F","Wed Jan 29 2020 12:11:29 GMT-0500 (Eastern Standard Time)","Wed Jan 29 2020 12:18:58 GMT-0500 (Eastern Standard Time)","Mozilla/5.0 (Windows NT 6.2; Win64; x64) AppleWebKit/537.36 (KHTML, like Gecko) Chrome/75.0.3770.100 Safari/537.36",144,"[0.9, 0.5, 0.1]","[0.8, 0.4, 0.2]","[u'blue', u'red', u'black']","[u'left', u'middle', u'right']","[0.8, 0.4, 0.2]","[u'low', u'high', u'medium']","red",50,"middle","high","True","False",253,6600,NA
"A1F34ZP6YNI98F","Wed Jan 29 2020 12:11:29 GMT-0500 (Eastern Standard Time)","Wed Jan 29 2020 12:18:58 GMT-0500 (Eastern Standard Time)","Mozilla/5.0 (Windows NT 6.2; Win64; x64) AppleWebKit/537.36 (KHTML, like Gecko) Chrome/75.0.3770.100 Safari/537.36",145,"[0.9, 0.5, 0.1]","[0.8, 0.4, 0.2]","[u'blue', u'red', u'black']","[u'left', u'middle', u'right']","[0.8, 0.4, 0.2]","[u'low', u'high', u'medium']","red",50,"middle","high","True","False",205,6700,NA
"A1F34ZP6YNI98F","Wed Jan 29 2020 12:11:29 GMT-0500 (Eastern Standard Time)","Wed Jan 29 2020 12:18:58 GMT-0500 (Eastern Standard Time)","Mozilla/5.0 (Windows NT 6.2; Win64; x64) AppleWebKit/537.36 (KHTML, like Gecko) Chrome/75.0.3770.100 Safari/537.36",146,"[0.9, 0.5, 0.1]","[0.8, 0.4, 0.2]","[u'blue', u'red', u'black']","[u'left', u'middle', u'right']","[0.8, 0.4, 0.2]","[u'low', u'high', u'medium']","red",50,"middle","high","True","False",209,6800,NA
"A1F34ZP6YNI98F","Wed Jan 29 2020 12:11:29 GMT-0500 (Eastern Standard Time)","Wed Jan 29 2020 12:18:58 GMT-0500 (Eastern Standard Time)","Mozilla/5.0 (Windows NT 6.2; Win64; x64) AppleWebKit/537.36 (KHTML, like Gecko) Chrome/75.0.3770.100 Safari/537.36",147,"[0.9, 0.5, 0.1]","[0.8, 0.4, 0.2]","[u'blue', u'red', u'black']","[u'left', u'middle', u'right']","[0.8, 0.4, 0.2]","[u'low', u'high', u'medium']","red",50,"middle","high","True","False",289,6900,NA
"A1F34ZP6YNI98F","Wed Jan 29 2020 12:11:29 GMT-0500 (Eastern Standard Time)","Wed Jan 29 2020 12:18:58 GMT-0500 (Eastern Standard Time)","Mozilla/5.0 (Windows NT 6.2; Win64; x64) AppleWebKit/537.36 (KHTML, like Gecko) Chrome/75.0.3770.100 Safari/537.36",148,"[0.9, 0.5, 0.1]","[0.8, 0.4, 0.2]","[u'blue', u'red', u'black']","[u'left', u'middle', u'right']","[0.8, 0.4, 0.2]","[u'low', u'high', u'medium']","red",50,"middle","high","True","False",259,7000,NA
"A1F34ZP6YNI98F","Wed Jan 29 2020 12:11:29 GMT-0500 (Eastern Standard Time)","Wed Jan 29 2020 12:18:58 GMT-0500 (Eastern Standard Time)","Mozilla/5.0 (Windows NT 6.2; Win64; x64) AppleWebKit/537.36 (KHTML, like Gecko) Chrome/75.0.3770.100 Safari/537.36",149,"[0.9, 0.5, 0.1]","[0.8, 0.4, 0.2]","[u'blue', u'red', u'black']","[u'left', u'middle', u'right']","[0.8, 0.4, 0.2]","[u'low', u'high', u'medium']","red",50,"middle","high","True","False",243,7100,NA
"A1F34ZP6YNI98F","Wed Jan 29 2020 12:11:29 GMT-0500 (Eastern Standard Time)","Wed Jan 29 2020 12:18:58 GMT-0500 (Eastern Standard Time)","Mozilla/5.0 (Windows NT 6.2; Win64; x64) AppleWebKit/537.36 (KHTML, like Gecko) Chrome/75.0.3770.100 Safari/537.36",150,"[0.9, 0.5, 0.1]","[0.8, 0.4, 0.2]","[u'blue', u'red', u'black']","[u'left', u'middle', u'right']","[0.8, 0.4, 0.2]","[u'low', u'high', u'medium']","red",50,"middle","high","True","False",194,7200,NA
"A1F34ZP6YNI98F","Wed Jan 29 2020 12:11:29 GMT-0500 (Eastern Standard Time)","Wed Jan 29 2020 12:18:58 GMT-0500 (Eastern Standard Time)","Mozilla/5.0 (Windows NT 6.2; Win64; x64) AppleWebKit/537.36 (KHTML, like Gecko) Chrome/75.0.3770.100 Safari/537.36",151,"[0.9, 0.5, 0.1]","[0.8, 0.4, 0.2]","[u'blue', u'red', u'black']","[u'left', u'middle', u'right']","[0.8, 0.4, 0.2]","[u'low', u'high', u'medium']","red",50,"middle","high","True","True",254,7300,NA
"A1F34ZP6YNI98F","Wed Jan 29 2020 12:11:29 GMT-0500 (Eastern Standard Time)","Wed Jan 29 2020 12:18:58 GMT-0500 (Eastern Standard Time)","Mozilla/5.0 (Windows NT 6.2; Win64; x64) AppleWebKit/537.36 (KHTML, like Gecko) Chrome/75.0.3770.100 Safari/537.36",152,"[0.9, 0.5, 0.1]","[0.8, 0.4, 0.2]","[u'blue', u'red', u'black']","[u'left', u'middle', u'right']","[0.8, 0.4, 0.2]","[u'medium', u'low', u'high']","red",50,"middle","low","False","False",264,7250,NA
"A1F34ZP6YNI98F","Wed Jan 29 2020 12:11:29 GMT-0500 (Eastern Standard Time)","Wed Jan 29 2020 12:18:58 GMT-0500 (Eastern Standard Time)","Mozilla/5.0 (Windows NT 6.2; Win64; x64) AppleWebKit/537.36 (KHTML, like Gecko) Chrome/75.0.3770.100 Safari/537.36",153,"[0.9, 0.5, 0.1]","[0.8, 0.4, 0.2]","[u'blue', u'red', u'black']","[u'left', u'middle', u'right']","[0.8, 0.4, 0.2]","[u'medium', u'low', u'high']","red",50,"middle","low","False","False",266,7200,NA
"A1F34ZP6YNI98F","Wed Jan 29 2020 12:11:29 GMT-0500 (Eastern Standard Time)","Wed Jan 29 2020 12:18:58 GMT-0500 (Eastern Standard Time)","Mozilla/5.0 (Windows NT 6.2; Win64; x64) AppleWebKit/537.36 (KHTML, like Gecko) Chrome/75.0.3770.100 Safari/537.36",154,"[0.9, 0.5, 0.1]","[0.8, 0.4, 0.2]","[u'blue', u'red', u'black']","[u'left', u'middle', u'right']","[0.8, 0.4, 0.2]","[u'medium', u'low', u'high']","black",51,"right","high","True","False",367,7300,NA
"A1F34ZP6YNI98F","Wed Jan 29 2020 12:11:29 GMT-0500 (Eastern Standard Time)","Wed Jan 29 2020 12:18:58 GMT-0500 (Eastern Standard Time)","Mozilla/5.0 (Windows NT 6.2; Win64; x64) AppleWebKit/537.36 (KHTML, like Gecko) Chrome/75.0.3770.100 Safari/537.36",155,"[0.9, 0.5, 0.1]","[0.8, 0.4, 0.2]","[u'blue', u'red', u'black']","[u'left', u'middle', u'right']","[0.8, 0.4, 0.2]","[u'medium', u'low', u'high']","black",51,"right","high","True","False",289,7400,NA
"A1F34ZP6YNI98F","Wed Jan 29 2020 12:11:29 GMT-0500 (Eastern Standard Time)","Wed Jan 29 2020 12:18:58 GMT-0500 (Eastern Standard Time)","Mozilla/5.0 (Windows NT 6.2; Win64; x64) AppleWebKit/537.36 (KHTML, like Gecko) Chrome/75.0.3770.100 Safari/537.36",156,"[0.9, 0.5, 0.1]","[0.8, 0.4, 0.2]","[u'blue', u'red', u'black']","[u'left', u'middle', u'right']","[0.8, 0.4, 0.2]","[u'medium', u'low', u'high']","black",51,"right","high","True","False",232,7500,NA
"A1F34ZP6YNI98F","Wed Jan 29 2020 12:11:29 GMT-0500 (Eastern Standard Time)","Wed Jan 29 2020 12:18:58 GMT-0500 (Eastern Standard Time)","Mozilla/5.0 (Windows NT 6.2; Win64; x64) AppleWebKit/537.36 (KHTML, like Gecko) Chrome/75.0.3770.100 Safari/537.36",157,"[0.9, 0.5, 0.1]","[0.8, 0.4, 0.2]","[u'blue', u'red', u'black']","[u'left', u'middle', u'right']","[0.8, 0.4, 0.2]","[u'medium', u'low', u'high']","black",51,"right","high","True","False",187,7600,NA
"A1F34ZP6YNI98F","Wed Jan 29 2020 12:11:29 GMT-0500 (Eastern Standard Time)","Wed Jan 29 2020 12:18:58 GMT-0500 (Eastern Standard Time)","Mozilla/5.0 (Windows NT 6.2; Win64; x64) AppleWebKit/537.36 (KHTML, like Gecko) Chrome/75.0.3770.100 Safari/537.36",158,"[0.9, 0.5, 0.1]","[0.8, 0.4, 0.2]","[u'blue', u'red', u'black']","[u'left', u'middle', u'right']","[0.8, 0.4, 0.2]","[u'medium', u'low', u'high']","black",51,"right","high","True","False",166,7700,NA
"A1F34ZP6YNI98F","Wed Jan 29 2020 12:11:29 GMT-0500 (Eastern Standard Time)","Wed Jan 29 2020 12:18:58 GMT-0500 (Eastern Standard Time)","Mozilla/5.0 (Windows NT 6.2; Win64; x64) AppleWebKit/537.36 (KHTML, like Gecko) Chrome/75.0.3770.100 Safari/537.36",159,"[0.9, 0.5, 0.1]","[0.8, 0.4, 0.2]","[u'blue', u'red', u'black']","[u'left', u'middle', u'right']","[0.8, 0.4, 0.2]","[u'medium', u'low', u'high']","black",51,"right","high","True","False",242,7800,NA
"A1F34ZP6YNI98F","Wed Jan 29 2020 12:11:29 GMT-0500 (Eastern Standard Time)","Wed Jan 29 2020 12:18:58 GMT-0500 (Eastern Standard Time)","Mozilla/5.0 (Windows NT 6.2; Win64; x64) AppleWebKit/537.36 (KHTML, like Gecko) Chrome/75.0.3770.100 Safari/537.36",160,"[0.9, 0.5, 0.1]","[0.8, 0.4, 0.2]","[u'blue', u'red', u'black']","[u'left', u'middle', u'right']","[0.8, 0.4, 0.2]","[u'medium', u'low', u'high']","black",51,"right","high","True","False",247,7900,NA
