"src_subject_id","start_time","end_time","browser","index","first_half_probabilities","second_half_probabilities","deck_color","deck_position","deck_probabilities","deck_contingencies","response_color","key_press","response_position","response_probability","reward_type","trial_type","rt","reward_tally","exclusion_reason"
"A10BH9PYCYUKDJ","Wed Sep 23 2020 12:00:52 GMT-0400 (Eastern Daylight Time)","Wed Sep 23 2020 12:10:39 GMT-0400 (Eastern Daylight Time)","Mozilla/5.0 (X11; CrOS x86_64 12239.92.0) AppleWebKit/537.36 (KHTML, like Gecko) Chrome/76.0.3809.136 Safari/537.36",1,"[0.9, 0.5, 0.1]","[0.8, 0.4, 0.2]","[u'blue', u'red', u'black']","[u'left', u'middle', u'right']","[0.9, 0.5, 0.1]","[u'low', u'high', u'medium']","red",50,"middle","high","True","False",336,100,NA
"A10BH9PYCYUKDJ","Wed Sep 23 2020 12:00:52 GMT-0400 (Eastern Daylight Time)","Wed Sep 23 2020 12:10:39 GMT-0400 (Eastern Daylight Time)","Mozilla/5.0 (X11; CrOS x86_64 12239.92.0) AppleWebKit/537.36 (KHTML, like Gecko) Chrome/76.0.3809.136 Safari/537.36",2,"[0.9, 0.5, 0.1]","[0.8, 0.4, 0.2]","[u'blue', u'red', u'black']","[u'left', u'middle', u'right']","[0.9, 0.5, 0.1]","[u'low', u'high', u'medium']","red",50,"middle","high","False","False",388,50,NA
"A10BH9PYCYUKDJ","Wed Sep 23 2020 12:00:52 GMT-0400 (Eastern Daylight Time)","Wed Sep 23 2020 12:10:39 GMT-0400 (Eastern Daylight Time)","Mozilla/5.0 (X11; CrOS x86_64 12239.92.0) AppleWebKit/537.36 (KHTML, like Gecko) Chrome/76.0.3809.136 Safari/537.36",3,"[0.9, 0.5, 0.1]","[0.8, 0.4, 0.2]","[u'blue', u'red', u'black']","[u'left', u'middle', u'right']","[0.9, 0.5, 0.1]","[u'low', u'high', u'medium']","blue",49,"left","low","False","False",418,0,NA
"A10BH9PYCYUKDJ","Wed Sep 23 2020 12:00:52 GMT-0400 (Eastern Daylight Time)","Wed Sep 23 2020 12:10:39 GMT-0400 (Eastern Daylight Time)","Mozilla/5.0 (X11; CrOS x86_64 12239.92.0) AppleWebKit/537.36 (KHTML, like Gecko) Chrome/76.0.3809.136 Safari/537.36",4,"[0.9, 0.5, 0.1]","[0.8, 0.4, 0.2]","[u'blue', u'red', u'black']","[u'left', u'middle', u'right']","[0.9, 0.5, 0.1]","[u'low', u'high', u'medium']","black",51,"right","medium","False","False",330,-50,NA
"A10BH9PYCYUKDJ","Wed Sep 23 2020 12:00:52 GMT-0400 (Eastern Daylight Time)","Wed Sep 23 2020 12:10:39 GMT-0400 (Eastern Daylight Time)","Mozilla/5.0 (X11; CrOS x86_64 12239.92.0) AppleWebKit/537.36 (KHTML, like Gecko) Chrome/76.0.3809.136 Safari/537.36",5,"[0.9, 0.5, 0.1]","[0.8, 0.4, 0.2]","[u'blue', u'red', u'black']","[u'left', u'middle', u'right']","[0.9, 0.5, 0.1]","[u'low', u'high', u'medium']","red",50,"middle","high","True","False",251,50,NA
"A10BH9PYCYUKDJ","Wed Sep 23 2020 12:00:52 GMT-0400 (Eastern Daylight Time)","Wed Sep 23 2020 12:10:39 GMT-0400 (Eastern Daylight Time)","Mozilla/5.0 (X11; CrOS x86_64 12239.92.0) AppleWebKit/537.36 (KHTML, like Gecko) Chrome/76.0.3809.136 Safari/537.36",6,"[0.9, 0.5, 0.1]","[0.8, 0.4, 0.2]","[u'blue', u'red', u'black']","[u'left', u'middle', u'right']","[0.9, 0.5, 0.1]","[u'low', u'high', u'medium']","red",50,"middle","high","True","False",298,150,NA
"A10BH9PYCYUKDJ","Wed Sep 23 2020 12:00:52 GMT-0400 (Eastern Daylight Time)","Wed Sep 23 2020 12:10:39 GMT-0400 (Eastern Daylight Time)","Mozilla/5.0 (X11; CrOS x86_64 12239.92.0) AppleWebKit/537.36 (KHTML, like Gecko) Chrome/76.0.3809.136 Safari/537.36",7,"[0.9, 0.5, 0.1]","[0.8, 0.4, 0.2]","[u'blue', u'red', u'black']","[u'left', u'middle', u'right']","[0.9, 0.5, 0.1]","[u'low', u'high', u'medium']","black",51,"right","medium","True","False",336,250,NA
"A10BH9PYCYUKDJ","Wed Sep 23 2020 12:00:52 GMT-0400 (Eastern Daylight Time)","Wed Sep 23 2020 12:10:39 GMT-0400 (Eastern Daylight Time)","Mozilla/5.0 (X11; CrOS x86_64 12239.92.0) AppleWebKit/537.36 (KHTML, like Gecko) Chrome/76.0.3809.136 Safari/537.36",8,"[0.9, 0.5, 0.1]","[0.8, 0.4, 0.2]","[u'blue', u'red', u'black']","[u'left', u'middle', u'right']","[0.9, 0.5, 0.1]","[u'low', u'high', u'medium']","red",50,"middle","high","False","False",250,200,NA
"A10BH9PYCYUKDJ","Wed Sep 23 2020 12:00:52 GMT-0400 (Eastern Daylight Time)","Wed Sep 23 2020 12:10:39 GMT-0400 (Eastern Daylight Time)","Mozilla/5.0 (X11; CrOS x86_64 12239.92.0) AppleWebKit/537.36 (KHTML, like Gecko) Chrome/76.0.3809.136 Safari/537.36",9,"[0.9, 0.5, 0.1]","[0.8, 0.4, 0.2]","[u'blue', u'red', u'black']","[u'left', u'middle', u'right']","[0.9, 0.5, 0.1]","[u'low', u'high', u'medium']","blue",49,"left","low","False","False",246,150,NA
"A10BH9PYCYUKDJ","Wed Sep 23 2020 12:00:52 GMT-0400 (Eastern Daylight Time)","Wed Sep 23 2020 12:10:39 GMT-0400 (Eastern Daylight Time)","Mozilla/5.0 (X11; CrOS x86_64 12239.92.0) AppleWebKit/537.36 (KHTML, like Gecko) Chrome/76.0.3809.136 Safari/537.36",10,"[0.9, 0.5, 0.1]","[0.8, 0.4, 0.2]","[u'blue', u'red', u'black']","[u'left', u'middle', u'right']","[0.9, 0.5, 0.1]","[u'low', u'high', u'medium']","black",51,"right","medium","True","False",301,250,NA
"A10BH9PYCYUKDJ","Wed Sep 23 2020 12:00:52 GMT-0400 (Eastern Daylight Time)","Wed Sep 23 2020 12:10:39 GMT-0400 (Eastern Daylight Time)","Mozilla/5.0 (X11; CrOS x86_64 12239.92.0) AppleWebKit/537.36 (KHTML, like Gecko) Chrome/76.0.3809.136 Safari/537.36",11,"[0.9, 0.5, 0.1]","[0.8, 0.4, 0.2]","[u'blue', u'red', u'black']","[u'left', u'middle', u'right']","[0.9, 0.5, 0.1]","[u'low', u'high', u'medium']","black",51,"right","medium","True","False",305,350,NA
"A10BH9PYCYUKDJ","Wed Sep 23 2020 12:00:52 GMT-0400 (Eastern Daylight Time)","Wed Sep 23 2020 12:10:39 GMT-0400 (Eastern Daylight Time)","Mozilla/5.0 (X11; CrOS x86_64 12239.92.0) AppleWebKit/537.36 (KHTML, like Gecko) Chrome/76.0.3809.136 Safari/537.36",12,"[0.9, 0.5, 0.1]","[0.8, 0.4, 0.2]","[u'blue', u'red', u'black']","[u'left', u'middle', u'right']","[0.9, 0.5, 0.1]","[u'low', u'high', u'medium']","black",51,"right","medium","True","False",322,450,NA
"A10BH9PYCYUKDJ","Wed Sep 23 2020 12:00:52 GMT-0400 (Eastern Daylight Time)","Wed Sep 23 2020 12:10:39 GMT-0400 (Eastern Daylight Time)","Mozilla/5.0 (X11; CrOS x86_64 12239.92.0) AppleWebKit/537.36 (KHTML, like Gecko) Chrome/76.0.3809.136 Safari/537.36",13,"[0.9, 0.5, 0.1]","[0.8, 0.4, 0.2]","[u'blue', u'red', u'black']","[u'left', u'middle', u'right']","[0.9, 0.5, 0.1]","[u'low', u'high', u'medium']","black",51,"right","medium","False","False",273,400,NA
"A10BH9PYCYUKDJ","Wed Sep 23 2020 12:00:52 GMT-0400 (Eastern Daylight Time)","Wed Sep 23 2020 12:10:39 GMT-0400 (Eastern Daylight Time)","Mozilla/5.0 (X11; CrOS x86_64 12239.92.0) AppleWebKit/537.36 (KHTML, like Gecko) Chrome/76.0.3809.136 Safari/537.36",14,"[0.9, 0.5, 0.1]","[0.8, 0.4, 0.2]","[u'blue', u'red', u'black']","[u'left', u'middle', u'right']","[0.9, 0.5, 0.1]","[u'low', u'high', u'medium']","red",50,"middle","high","True","False",225,500,NA
"A10BH9PYCYUKDJ","Wed Sep 23 2020 12:00:52 GMT-0400 (Eastern Daylight Time)","Wed Sep 23 2020 12:10:39 GMT-0400 (Eastern Daylight Time)","Mozilla/5.0 (X11; CrOS x86_64 12239.92.0) AppleWebKit/537.36 (KHTML, like Gecko) Chrome/76.0.3809.136 Safari/537.36",15,"[0.9, 0.5, 0.1]","[0.8, 0.4, 0.2]","[u'blue', u'red', u'black']","[u'left', u'middle', u'right']","[0.9, 0.5, 0.1]","[u'low', u'high', u'medium']","black",51,"right","medium","False","False",241,450,NA
"A10BH9PYCYUKDJ","Wed Sep 23 2020 12:00:52 GMT-0400 (Eastern Daylight Time)","Wed Sep 23 2020 12:10:39 GMT-0400 (Eastern Daylight Time)","Mozilla/5.0 (X11; CrOS x86_64 12239.92.0) AppleWebKit/537.36 (KHTML, like Gecko) Chrome/76.0.3809.136 Safari/537.36",16,"[0.9, 0.5, 0.1]","[0.8, 0.4, 0.2]","[u'blue', u'red', u'black']","[u'left', u'middle', u'right']","[0.9, 0.5, 0.1]","[u'low', u'high', u'medium']","red",50,"middle","high","True","False",341,550,NA
"A10BH9PYCYUKDJ","Wed Sep 23 2020 12:00:52 GMT-0400 (Eastern Daylight Time)","Wed Sep 23 2020 12:10:39 GMT-0400 (Eastern Daylight Time)","Mozilla/5.0 (X11; CrOS x86_64 12239.92.0) AppleWebKit/537.36 (KHTML, like Gecko) Chrome/76.0.3809.136 Safari/537.36",17,"[0.9, 0.5, 0.1]","[0.8, 0.4, 0.2]","[u'blue', u'red', u'black']","[u'left', u'middle', u'right']","[0.9, 0.5, 0.1]","[u'low', u'high', u'medium']","red",50,"middle","high","True","False",194,650,NA
"A10BH9PYCYUKDJ","Wed Sep 23 2020 12:00:52 GMT-0400 (Eastern Daylight Time)","Wed Sep 23 2020 12:10:39 GMT-0400 (Eastern Daylight Time)","Mozilla/5.0 (X11; CrOS x86_64 12239.92.0) AppleWebKit/537.36 (KHTML, like Gecko) Chrome/76.0.3809.136 Safari/537.36",18,"[0.9, 0.5, 0.1]","[0.8, 0.4, 0.2]","[u'blue', u'red', u'black']","[u'left', u'middle', u'right']","[0.9, 0.5, 0.1]","[u'low', u'high', u'medium']","blue",49,"left","low","False","False",364,600,NA
"A10BH9PYCYUKDJ","Wed Sep 23 2020 12:00:52 GMT-0400 (Eastern Daylight Time)","Wed Sep 23 2020 12:10:39 GMT-0400 (Eastern Daylight Time)","Mozilla/5.0 (X11; CrOS x86_64 12239.92.0) AppleWebKit/537.36 (KHTML, like Gecko) Chrome/76.0.3809.136 Safari/537.36",19,"[0.9, 0.5, 0.1]","[0.8, 0.4, 0.2]","[u'blue', u'red', u'black']","[u'left', u'middle', u'right']","[0.9, 0.5, 0.1]","[u'low', u'high', u'medium']","red",50,"middle","high","False","False",208,550,NA
"A10BH9PYCYUKDJ","Wed Sep 23 2020 12:00:52 GMT-0400 (Eastern Daylight Time)","Wed Sep 23 2020 12:10:39 GMT-0400 (Eastern Daylight Time)","Mozilla/5.0 (X11; CrOS x86_64 12239.92.0) AppleWebKit/537.36 (KHTML, like Gecko) Chrome/76.0.3809.136 Safari/537.36",20,"[0.9, 0.5, 0.1]","[0.8, 0.4, 0.2]","[u'blue', u'red', u'black']","[u'left', u'middle', u'right']","[0.9, 0.5, 0.1]","[u'low', u'high', u'medium']","black",51,"right","medium","True","False",205,650,NA
"A10BH9PYCYUKDJ","Wed Sep 23 2020 12:00:52 GMT-0400 (Eastern Daylight Time)","Wed Sep 23 2020 12:10:39 GMT-0400 (Eastern Daylight Time)","Mozilla/5.0 (X11; CrOS x86_64 12239.92.0) AppleWebKit/537.36 (KHTML, like Gecko) Chrome/76.0.3809.136 Safari/537.36",21,"[0.9, 0.5, 0.1]","[0.8, 0.4, 0.2]","[u'blue', u'red', u'black']","[u'left', u'middle', u'right']","[0.9, 0.5, 0.1]","[u'low', u'high', u'medium']","black",51,"right","medium","False","False",464,600,NA
"A10BH9PYCYUKDJ","Wed Sep 23 2020 12:00:52 GMT-0400 (Eastern Daylight Time)","Wed Sep 23 2020 12:10:39 GMT-0400 (Eastern Daylight Time)","Mozilla/5.0 (X11; CrOS x86_64 12239.92.0) AppleWebKit/537.36 (KHTML, like Gecko) Chrome/76.0.3809.136 Safari/537.36",22,"[0.9, 0.5, 0.1]","[0.8, 0.4, 0.2]","[u'blue', u'red', u'black']","[u'left', u'middle', u'right']","[0.9, 0.5, 0.1]","[u'low', u'high', u'medium']","red",50,"middle","high","True","False",345,700,NA
"A10BH9PYCYUKDJ","Wed Sep 23 2020 12:00:52 GMT-0400 (Eastern Daylight Time)","Wed Sep 23 2020 12:10:39 GMT-0400 (Eastern Daylight Time)","Mozilla/5.0 (X11; CrOS x86_64 12239.92.0) AppleWebKit/537.36 (KHTML, like Gecko) Chrome/76.0.3809.136 Safari/537.36",23,"[0.9, 0.5, 0.1]","[0.8, 0.4, 0.2]","[u'blue', u'red', u'black']","[u'left', u'middle', u'right']","[0.9, 0.5, 0.1]","[u'low', u'high', u'medium']","red",50,"middle","high","True","False",228,800,NA
"A10BH9PYCYUKDJ","Wed Sep 23 2020 12:00:52 GMT-0400 (Eastern Daylight Time)","Wed Sep 23 2020 12:10:39 GMT-0400 (Eastern Daylight Time)","Mozilla/5.0 (X11; CrOS x86_64 12239.92.0) AppleWebKit/537.36 (KHTML, like Gecko) Chrome/76.0.3809.136 Safari/537.36",24,"[0.9, 0.5, 0.1]","[0.8, 0.4, 0.2]","[u'blue', u'red', u'black']","[u'left', u'middle', u'right']","[0.9, 0.5, 0.1]","[u'low', u'high', u'medium']","red",50,"middle","high","True","False",324,900,NA
"A10BH9PYCYUKDJ","Wed Sep 23 2020 12:00:52 GMT-0400 (Eastern Daylight Time)","Wed Sep 23 2020 12:10:39 GMT-0400 (Eastern Daylight Time)","Mozilla/5.0 (X11; CrOS x86_64 12239.92.0) AppleWebKit/537.36 (KHTML, like Gecko) Chrome/76.0.3809.136 Safari/537.36",25,"[0.9, 0.5, 0.1]","[0.8, 0.4, 0.2]","[u'blue', u'red', u'black']","[u'left', u'middle', u'right']","[0.9, 0.5, 0.1]","[u'low', u'high', u'medium']","red",50,"middle","high","False","False",228,850,NA
"A10BH9PYCYUKDJ","Wed Sep 23 2020 12:00:52 GMT-0400 (Eastern Daylight Time)","Wed Sep 23 2020 12:10:39 GMT-0400 (Eastern Daylight Time)","Mozilla/5.0 (X11; CrOS x86_64 12239.92.0) AppleWebKit/537.36 (KHTML, like Gecko) Chrome/76.0.3809.136 Safari/537.36",26,"[0.9, 0.5, 0.1]","[0.8, 0.4, 0.2]","[u'blue', u'red', u'black']","[u'left', u'middle', u'right']","[0.9, 0.5, 0.1]","[u'low', u'high', u'medium']","black",51,"right","medium","True","False",215,950,NA
"A10BH9PYCYUKDJ","Wed Sep 23 2020 12:00:52 GMT-0400 (Eastern Daylight Time)","Wed Sep 23 2020 12:10:39 GMT-0400 (Eastern Daylight Time)","Mozilla/5.0 (X11; CrOS x86_64 12239.92.0) AppleWebKit/537.36 (KHTML, like Gecko) Chrome/76.0.3809.136 Safari/537.36",27,"[0.9, 0.5, 0.1]","[0.8, 0.4, 0.2]","[u'blue', u'red', u'black']","[u'left', u'middle', u'right']","[0.9, 0.5, 0.1]","[u'low', u'high', u'medium']","black",51,"right","medium","True","False",201,1050,NA
"A10BH9PYCYUKDJ","Wed Sep 23 2020 12:00:52 GMT-0400 (Eastern Daylight Time)","Wed Sep 23 2020 12:10:39 GMT-0400 (Eastern Daylight Time)","Mozilla/5.0 (X11; CrOS x86_64 12239.92.0) AppleWebKit/537.36 (KHTML, like Gecko) Chrome/76.0.3809.136 Safari/537.36",28,"[0.9, 0.5, 0.1]","[0.8, 0.4, 0.2]","[u'blue', u'red', u'black']","[u'left', u'middle', u'right']","[0.9, 0.5, 0.1]","[u'low', u'high', u'medium']","black",51,"right","medium","False","False",225,1000,NA
"A10BH9PYCYUKDJ","Wed Sep 23 2020 12:00:52 GMT-0400 (Eastern Daylight Time)","Wed Sep 23 2020 12:10:39 GMT-0400 (Eastern Daylight Time)","Mozilla/5.0 (X11; CrOS x86_64 12239.92.0) AppleWebKit/537.36 (KHTML, like Gecko) Chrome/76.0.3809.136 Safari/537.36",29,"[0.9, 0.5, 0.1]","[0.8, 0.4, 0.2]","[u'blue', u'red', u'black']","[u'left', u'middle', u'right']","[0.9, 0.5, 0.1]","[u'low', u'high', u'medium']","blue",49,"left","low","False","False",215,950,NA
"A10BH9PYCYUKDJ","Wed Sep 23 2020 12:00:52 GMT-0400 (Eastern Daylight Time)","Wed Sep 23 2020 12:10:39 GMT-0400 (Eastern Daylight Time)","Mozilla/5.0 (X11; CrOS x86_64 12239.92.0) AppleWebKit/537.36 (KHTML, like Gecko) Chrome/76.0.3809.136 Safari/537.36",30,"[0.9, 0.5, 0.1]","[0.8, 0.4, 0.2]","[u'blue', u'red', u'black']","[u'left', u'middle', u'right']","[0.9, 0.5, 0.1]","[u'low', u'high', u'medium']","red",50,"middle","high","True","False",195,1050,NA
"A10BH9PYCYUKDJ","Wed Sep 23 2020 12:00:52 GMT-0400 (Eastern Daylight Time)","Wed Sep 23 2020 12:10:39 GMT-0400 (Eastern Daylight Time)","Mozilla/5.0 (X11; CrOS x86_64 12239.92.0) AppleWebKit/537.36 (KHTML, like Gecko) Chrome/76.0.3809.136 Safari/537.36",31,"[0.9, 0.5, 0.1]","[0.8, 0.4, 0.2]","[u'blue', u'red', u'black']","[u'left', u'middle', u'right']","[0.9, 0.5, 0.1]","[u'low', u'high', u'medium']","red",50,"middle","high","True","False",728,1150,NA
"A10BH9PYCYUKDJ","Wed Sep 23 2020 12:00:52 GMT-0400 (Eastern Daylight Time)","Wed Sep 23 2020 12:10:39 GMT-0400 (Eastern Daylight Time)","Mozilla/5.0 (X11; CrOS x86_64 12239.92.0) AppleWebKit/537.36 (KHTML, like Gecko) Chrome/76.0.3809.136 Safari/537.36",32,"[0.9, 0.5, 0.1]","[0.8, 0.4, 0.2]","[u'blue', u'red', u'black']","[u'left', u'middle', u'right']","[0.9, 0.5, 0.1]","[u'low', u'high', u'medium']","red",50,"middle","high","True","False",264,1250,NA
"A10BH9PYCYUKDJ","Wed Sep 23 2020 12:00:52 GMT-0400 (Eastern Daylight Time)","Wed Sep 23 2020 12:10:39 GMT-0400 (Eastern Daylight Time)","Mozilla/5.0 (X11; CrOS x86_64 12239.92.0) AppleWebKit/537.36 (KHTML, like Gecko) Chrome/76.0.3809.136 Safari/537.36",33,"[0.9, 0.5, 0.1]","[0.8, 0.4, 0.2]","[u'blue', u'red', u'black']","[u'left', u'middle', u'right']","[0.9, 0.5, 0.1]","[u'low', u'high', u'medium']","black",51,"right","medium","True","False",182,1350,NA
"A10BH9PYCYUKDJ","Wed Sep 23 2020 12:00:52 GMT-0400 (Eastern Daylight Time)","Wed Sep 23 2020 12:10:39 GMT-0400 (Eastern Daylight Time)","Mozilla/5.0 (X11; CrOS x86_64 12239.92.0) AppleWebKit/537.36 (KHTML, like Gecko) Chrome/76.0.3809.136 Safari/537.36",34,"[0.9, 0.5, 0.1]","[0.8, 0.4, 0.2]","[u'blue', u'red', u'black']","[u'left', u'middle', u'right']","[0.9, 0.5, 0.1]","[u'low', u'high', u'medium']","black",51,"right","medium","True","False",241,1450,NA
"A10BH9PYCYUKDJ","Wed Sep 23 2020 12:00:52 GMT-0400 (Eastern Daylight Time)","Wed Sep 23 2020 12:10:39 GMT-0400 (Eastern Daylight Time)","Mozilla/5.0 (X11; CrOS x86_64 12239.92.0) AppleWebKit/537.36 (KHTML, like Gecko) Chrome/76.0.3809.136 Safari/537.36",35,"[0.9, 0.5, 0.1]","[0.8, 0.4, 0.2]","[u'blue', u'red', u'black']","[u'left', u'middle', u'right']","[0.9, 0.5, 0.1]","[u'low', u'high', u'medium']","red",50,"middle","high","True","False",212,1550,NA
"A10BH9PYCYUKDJ","Wed Sep 23 2020 12:00:52 GMT-0400 (Eastern Daylight Time)","Wed Sep 23 2020 12:10:39 GMT-0400 (Eastern Daylight Time)","Mozilla/5.0 (X11; CrOS x86_64 12239.92.0) AppleWebKit/537.36 (KHTML, like Gecko) Chrome/76.0.3809.136 Safari/537.36",36,"[0.9, 0.5, 0.1]","[0.8, 0.4, 0.2]","[u'blue', u'red', u'black']","[u'left', u'middle', u'right']","[0.9, 0.5, 0.1]","[u'low', u'high', u'medium']","red",50,"middle","high","True","False",371,1650,NA
"A10BH9PYCYUKDJ","Wed Sep 23 2020 12:00:52 GMT-0400 (Eastern Daylight Time)","Wed Sep 23 2020 12:10:39 GMT-0400 (Eastern Daylight Time)","Mozilla/5.0 (X11; CrOS x86_64 12239.92.0) AppleWebKit/537.36 (KHTML, like Gecko) Chrome/76.0.3809.136 Safari/537.36",37,"[0.9, 0.5, 0.1]","[0.8, 0.4, 0.2]","[u'blue', u'red', u'black']","[u'left', u'middle', u'right']","[0.9, 0.5, 0.1]","[u'low', u'high', u'medium']","black",51,"right","medium","True","False",230,1750,NA
"A10BH9PYCYUKDJ","Wed Sep 23 2020 12:00:52 GMT-0400 (Eastern Daylight Time)","Wed Sep 23 2020 12:10:39 GMT-0400 (Eastern Daylight Time)","Mozilla/5.0 (X11; CrOS x86_64 12239.92.0) AppleWebKit/537.36 (KHTML, like Gecko) Chrome/76.0.3809.136 Safari/537.36",38,"[0.9, 0.5, 0.1]","[0.8, 0.4, 0.2]","[u'blue', u'red', u'black']","[u'left', u'middle', u'right']","[0.9, 0.5, 0.1]","[u'low', u'high', u'medium']","black",51,"right","medium","True","False",341,1850,NA
"A10BH9PYCYUKDJ","Wed Sep 23 2020 12:00:52 GMT-0400 (Eastern Daylight Time)","Wed Sep 23 2020 12:10:39 GMT-0400 (Eastern Daylight Time)","Mozilla/5.0 (X11; CrOS x86_64 12239.92.0) AppleWebKit/537.36 (KHTML, like Gecko) Chrome/76.0.3809.136 Safari/537.36",39,"[0.9, 0.5, 0.1]","[0.8, 0.4, 0.2]","[u'blue', u'red', u'black']","[u'left', u'middle', u'right']","[0.9, 0.5, 0.1]","[u'low', u'high', u'medium']","red",50,"middle","high","True","False",268,1950,NA
"A10BH9PYCYUKDJ","Wed Sep 23 2020 12:00:52 GMT-0400 (Eastern Daylight Time)","Wed Sep 23 2020 12:10:39 GMT-0400 (Eastern Daylight Time)","Mozilla/5.0 (X11; CrOS x86_64 12239.92.0) AppleWebKit/537.36 (KHTML, like Gecko) Chrome/76.0.3809.136 Safari/537.36",40,"[0.9, 0.5, 0.1]","[0.8, 0.4, 0.2]","[u'blue', u'red', u'black']","[u'left', u'middle', u'right']","[0.9, 0.5, 0.1]","[u'low', u'high', u'medium']","red",50,"middle","high","True","False",304,2050,NA
"A10BH9PYCYUKDJ","Wed Sep 23 2020 12:00:52 GMT-0400 (Eastern Daylight Time)","Wed Sep 23 2020 12:10:39 GMT-0400 (Eastern Daylight Time)","Mozilla/5.0 (X11; CrOS x86_64 12239.92.0) AppleWebKit/537.36 (KHTML, like Gecko) Chrome/76.0.3809.136 Safari/537.36",41,"[0.9, 0.5, 0.1]","[0.8, 0.4, 0.2]","[u'blue', u'red', u'black']","[u'left', u'middle', u'right']","[0.9, 0.5, 0.1]","[u'high', u'low', u'medium']","black",51,"right","medium","True","False",330,2150,NA
"A10BH9PYCYUKDJ","Wed Sep 23 2020 12:00:52 GMT-0400 (Eastern Daylight Time)","Wed Sep 23 2020 12:10:39 GMT-0400 (Eastern Daylight Time)","Mozilla/5.0 (X11; CrOS x86_64 12239.92.0) AppleWebKit/537.36 (KHTML, like Gecko) Chrome/76.0.3809.136 Safari/537.36",42,"[0.9, 0.5, 0.1]","[0.8, 0.4, 0.2]","[u'blue', u'red', u'black']","[u'left', u'middle', u'right']","[0.9, 0.5, 0.1]","[u'high', u'low', u'medium']","black",51,"right","medium","False","False",284,2100,NA
"A10BH9PYCYUKDJ","Wed Sep 23 2020 12:00:52 GMT-0400 (Eastern Daylight Time)","Wed Sep 23 2020 12:10:39 GMT-0400 (Eastern Daylight Time)","Mozilla/5.0 (X11; CrOS x86_64 12239.92.0) AppleWebKit/537.36 (KHTML, like Gecko) Chrome/76.0.3809.136 Safari/537.36",43,"[0.9, 0.5, 0.1]","[0.8, 0.4, 0.2]","[u'blue', u'red', u'black']","[u'left', u'middle', u'right']","[0.9, 0.5, 0.1]","[u'high', u'low', u'medium']","red",50,"middle","low","False","False",214,2050,NA
"A10BH9PYCYUKDJ","Wed Sep 23 2020 12:00:52 GMT-0400 (Eastern Daylight Time)","Wed Sep 23 2020 12:10:39 GMT-0400 (Eastern Daylight Time)","Mozilla/5.0 (X11; CrOS x86_64 12239.92.0) AppleWebKit/537.36 (KHTML, like Gecko) Chrome/76.0.3809.136 Safari/537.36",44,"[0.9, 0.5, 0.1]","[0.8, 0.4, 0.2]","[u'blue', u'red', u'black']","[u'left', u'middle', u'right']","[0.9, 0.5, 0.1]","[u'high', u'low', u'medium']","blue",49,"left","high","True","False",222,2150,NA
"A10BH9PYCYUKDJ","Wed Sep 23 2020 12:00:52 GMT-0400 (Eastern Daylight Time)","Wed Sep 23 2020 12:10:39 GMT-0400 (Eastern Daylight Time)","Mozilla/5.0 (X11; CrOS x86_64 12239.92.0) AppleWebKit/537.36 (KHTML, like Gecko) Chrome/76.0.3809.136 Safari/537.36",45,"[0.9, 0.5, 0.1]","[0.8, 0.4, 0.2]","[u'blue', u'red', u'black']","[u'left', u'middle', u'right']","[0.9, 0.5, 0.1]","[u'high', u'low', u'medium']","black",51,"right","medium","False","False",333,2100,NA
"A10BH9PYCYUKDJ","Wed Sep 23 2020 12:00:52 GMT-0400 (Eastern Daylight Time)","Wed Sep 23 2020 12:10:39 GMT-0400 (Eastern Daylight Time)","Mozilla/5.0 (X11; CrOS x86_64 12239.92.0) AppleWebKit/537.36 (KHTML, like Gecko) Chrome/76.0.3809.136 Safari/537.36",46,"[0.9, 0.5, 0.1]","[0.8, 0.4, 0.2]","[u'blue', u'red', u'black']","[u'left', u'middle', u'right']","[0.9, 0.5, 0.1]","[u'high', u'low', u'medium']","blue",49,"left","high","True","False",214,2200,NA
"A10BH9PYCYUKDJ","Wed Sep 23 2020 12:00:52 GMT-0400 (Eastern Daylight Time)","Wed Sep 23 2020 12:10:39 GMT-0400 (Eastern Daylight Time)","Mozilla/5.0 (X11; CrOS x86_64 12239.92.0) AppleWebKit/537.36 (KHTML, like Gecko) Chrome/76.0.3809.136 Safari/537.36",47,"[0.9, 0.5, 0.1]","[0.8, 0.4, 0.2]","[u'blue', u'red', u'black']","[u'left', u'middle', u'right']","[0.9, 0.5, 0.1]","[u'high', u'low', u'medium']","blue",49,"left","high","True","False",232,2300,NA
"A10BH9PYCYUKDJ","Wed Sep 23 2020 12:00:52 GMT-0400 (Eastern Daylight Time)","Wed Sep 23 2020 12:10:39 GMT-0400 (Eastern Daylight Time)","Mozilla/5.0 (X11; CrOS x86_64 12239.92.0) AppleWebKit/537.36 (KHTML, like Gecko) Chrome/76.0.3809.136 Safari/537.36",48,"[0.9, 0.5, 0.1]","[0.8, 0.4, 0.2]","[u'blue', u'red', u'black']","[u'left', u'middle', u'right']","[0.9, 0.5, 0.1]","[u'high', u'low', u'medium']","red",50,"middle","low","False","False",345,2250,NA
"A10BH9PYCYUKDJ","Wed Sep 23 2020 12:00:52 GMT-0400 (Eastern Daylight Time)","Wed Sep 23 2020 12:10:39 GMT-0400 (Eastern Daylight Time)","Mozilla/5.0 (X11; CrOS x86_64 12239.92.0) AppleWebKit/537.36 (KHTML, like Gecko) Chrome/76.0.3809.136 Safari/537.36",49,"[0.9, 0.5, 0.1]","[0.8, 0.4, 0.2]","[u'blue', u'red', u'black']","[u'left', u'middle', u'right']","[0.9, 0.5, 0.1]","[u'high', u'low', u'medium']","blue",49,"left","high","True","False",206,2350,NA
"A10BH9PYCYUKDJ","Wed Sep 23 2020 12:00:52 GMT-0400 (Eastern Daylight Time)","Wed Sep 23 2020 12:10:39 GMT-0400 (Eastern Daylight Time)","Mozilla/5.0 (X11; CrOS x86_64 12239.92.0) AppleWebKit/537.36 (KHTML, like Gecko) Chrome/76.0.3809.136 Safari/537.36",50,"[0.9, 0.5, 0.1]","[0.8, 0.4, 0.2]","[u'blue', u'red', u'black']","[u'left', u'middle', u'right']","[0.9, 0.5, 0.1]","[u'high', u'low', u'medium']","blue",49,"left","high","True","False",256,2450,NA
"A10BH9PYCYUKDJ","Wed Sep 23 2020 12:00:52 GMT-0400 (Eastern Daylight Time)","Wed Sep 23 2020 12:10:39 GMT-0400 (Eastern Daylight Time)","Mozilla/5.0 (X11; CrOS x86_64 12239.92.0) AppleWebKit/537.36 (KHTML, like Gecko) Chrome/76.0.3809.136 Safari/537.36",51,"[0.9, 0.5, 0.1]","[0.8, 0.4, 0.2]","[u'blue', u'red', u'black']","[u'left', u'middle', u'right']","[0.9, 0.5, 0.1]","[u'high', u'low', u'medium']","blue",49,"left","high","True","False",304,2550,NA
"A10BH9PYCYUKDJ","Wed Sep 23 2020 12:00:52 GMT-0400 (Eastern Daylight Time)","Wed Sep 23 2020 12:10:39 GMT-0400 (Eastern Daylight Time)","Mozilla/5.0 (X11; CrOS x86_64 12239.92.0) AppleWebKit/537.36 (KHTML, like Gecko) Chrome/76.0.3809.136 Safari/537.36",52,"[0.9, 0.5, 0.1]","[0.8, 0.4, 0.2]","[u'blue', u'red', u'black']","[u'left', u'middle', u'right']","[0.9, 0.5, 0.1]","[u'high', u'low', u'medium']","blue",49,"left","high","True","False",273,2650,NA
"A10BH9PYCYUKDJ","Wed Sep 23 2020 12:00:52 GMT-0400 (Eastern Daylight Time)","Wed Sep 23 2020 12:10:39 GMT-0400 (Eastern Daylight Time)","Mozilla/5.0 (X11; CrOS x86_64 12239.92.0) AppleWebKit/537.36 (KHTML, like Gecko) Chrome/76.0.3809.136 Safari/537.36",53,"[0.9, 0.5, 0.1]","[0.8, 0.4, 0.2]","[u'blue', u'red', u'black']","[u'left', u'middle', u'right']","[0.9, 0.5, 0.1]","[u'high', u'low', u'medium']","blue",49,"left","high","True","False",282,2750,NA
"A10BH9PYCYUKDJ","Wed Sep 23 2020 12:00:52 GMT-0400 (Eastern Daylight Time)","Wed Sep 23 2020 12:10:39 GMT-0400 (Eastern Daylight Time)","Mozilla/5.0 (X11; CrOS x86_64 12239.92.0) AppleWebKit/537.36 (KHTML, like Gecko) Chrome/76.0.3809.136 Safari/537.36",54,"[0.9, 0.5, 0.1]","[0.8, 0.4, 0.2]","[u'blue', u'red', u'black']","[u'left', u'middle', u'right']","[0.9, 0.5, 0.1]","[u'high', u'low', u'medium']","blue",49,"left","high","True","False",337,2850,NA
"A10BH9PYCYUKDJ","Wed Sep 23 2020 12:00:52 GMT-0400 (Eastern Daylight Time)","Wed Sep 23 2020 12:10:39 GMT-0400 (Eastern Daylight Time)","Mozilla/5.0 (X11; CrOS x86_64 12239.92.0) AppleWebKit/537.36 (KHTML, like Gecko) Chrome/76.0.3809.136 Safari/537.36",55,"[0.9, 0.5, 0.1]","[0.8, 0.4, 0.2]","[u'blue', u'red', u'black']","[u'left', u'middle', u'right']","[0.9, 0.5, 0.1]","[u'high', u'low', u'medium']","blue",49,"left","high","True","False",228,2950,NA
"A10BH9PYCYUKDJ","Wed Sep 23 2020 12:00:52 GMT-0400 (Eastern Daylight Time)","Wed Sep 23 2020 12:10:39 GMT-0400 (Eastern Daylight Time)","Mozilla/5.0 (X11; CrOS x86_64 12239.92.0) AppleWebKit/537.36 (KHTML, like Gecko) Chrome/76.0.3809.136 Safari/537.36",56,"[0.9, 0.5, 0.1]","[0.8, 0.4, 0.2]","[u'blue', u'red', u'black']","[u'left', u'middle', u'right']","[0.9, 0.5, 0.1]","[u'high', u'low', u'medium']","blue",49,"left","high","True","False",236,3050,NA
"A10BH9PYCYUKDJ","Wed Sep 23 2020 12:00:52 GMT-0400 (Eastern Daylight Time)","Wed Sep 23 2020 12:10:39 GMT-0400 (Eastern Daylight Time)","Mozilla/5.0 (X11; CrOS x86_64 12239.92.0) AppleWebKit/537.36 (KHTML, like Gecko) Chrome/76.0.3809.136 Safari/537.36",57,"[0.9, 0.5, 0.1]","[0.8, 0.4, 0.2]","[u'blue', u'red', u'black']","[u'left', u'middle', u'right']","[0.9, 0.5, 0.1]","[u'high', u'low', u'medium']","blue",49,"left","high","True","True",273,3150,NA
"A10BH9PYCYUKDJ","Wed Sep 23 2020 12:00:52 GMT-0400 (Eastern Daylight Time)","Wed Sep 23 2020 12:10:39 GMT-0400 (Eastern Daylight Time)","Mozilla/5.0 (X11; CrOS x86_64 12239.92.0) AppleWebKit/537.36 (KHTML, like Gecko) Chrome/76.0.3809.136 Safari/537.36",58,"[0.9, 0.5, 0.1]","[0.8, 0.4, 0.2]","[u'blue', u'red', u'black']","[u'left', u'middle', u'right']","[0.9, 0.5, 0.1]","[u'medium', u'low', u'high']","blue",49,"left","medium","False","False",215,3100,NA
"A10BH9PYCYUKDJ","Wed Sep 23 2020 12:00:52 GMT-0400 (Eastern Daylight Time)","Wed Sep 23 2020 12:10:39 GMT-0400 (Eastern Daylight Time)","Mozilla/5.0 (X11; CrOS x86_64 12239.92.0) AppleWebKit/537.36 (KHTML, like Gecko) Chrome/76.0.3809.136 Safari/537.36",59,"[0.9, 0.5, 0.1]","[0.8, 0.4, 0.2]","[u'blue', u'red', u'black']","[u'left', u'middle', u'right']","[0.9, 0.5, 0.1]","[u'medium', u'low', u'high']","black",51,"right","high","True","False",217,3200,NA
"A10BH9PYCYUKDJ","Wed Sep 23 2020 12:00:52 GMT-0400 (Eastern Daylight Time)","Wed Sep 23 2020 12:10:39 GMT-0400 (Eastern Daylight Time)","Mozilla/5.0 (X11; CrOS x86_64 12239.92.0) AppleWebKit/537.36 (KHTML, like Gecko) Chrome/76.0.3809.136 Safari/537.36",60,"[0.9, 0.5, 0.1]","[0.8, 0.4, 0.2]","[u'blue', u'red', u'black']","[u'left', u'middle', u'right']","[0.9, 0.5, 0.1]","[u'medium', u'low', u'high']","black",51,"right","high","True","False",208,3300,NA
"A10BH9PYCYUKDJ","Wed Sep 23 2020 12:00:52 GMT-0400 (Eastern Daylight Time)","Wed Sep 23 2020 12:10:39 GMT-0400 (Eastern Daylight Time)","Mozilla/5.0 (X11; CrOS x86_64 12239.92.0) AppleWebKit/537.36 (KHTML, like Gecko) Chrome/76.0.3809.136 Safari/537.36",61,"[0.9, 0.5, 0.1]","[0.8, 0.4, 0.2]","[u'blue', u'red', u'black']","[u'left', u'middle', u'right']","[0.9, 0.5, 0.1]","[u'medium', u'low', u'high']","black",51,"right","high","True","False",328,3400,NA
"A10BH9PYCYUKDJ","Wed Sep 23 2020 12:00:52 GMT-0400 (Eastern Daylight Time)","Wed Sep 23 2020 12:10:39 GMT-0400 (Eastern Daylight Time)","Mozilla/5.0 (X11; CrOS x86_64 12239.92.0) AppleWebKit/537.36 (KHTML, like Gecko) Chrome/76.0.3809.136 Safari/537.36",62,"[0.9, 0.5, 0.1]","[0.8, 0.4, 0.2]","[u'blue', u'red', u'black']","[u'left', u'middle', u'right']","[0.9, 0.5, 0.1]","[u'medium', u'low', u'high']","black",51,"right","high","False","False",223,3350,NA
"A10BH9PYCYUKDJ","Wed Sep 23 2020 12:00:52 GMT-0400 (Eastern Daylight Time)","Wed Sep 23 2020 12:10:39 GMT-0400 (Eastern Daylight Time)","Mozilla/5.0 (X11; CrOS x86_64 12239.92.0) AppleWebKit/537.36 (KHTML, like Gecko) Chrome/76.0.3809.136 Safari/537.36",63,"[0.9, 0.5, 0.1]","[0.8, 0.4, 0.2]","[u'blue', u'red', u'black']","[u'left', u'middle', u'right']","[0.9, 0.5, 0.1]","[u'medium', u'low', u'high']","red",50,"middle","low","False","False",198,3300,NA
"A10BH9PYCYUKDJ","Wed Sep 23 2020 12:00:52 GMT-0400 (Eastern Daylight Time)","Wed Sep 23 2020 12:10:39 GMT-0400 (Eastern Daylight Time)","Mozilla/5.0 (X11; CrOS x86_64 12239.92.0) AppleWebKit/537.36 (KHTML, like Gecko) Chrome/76.0.3809.136 Safari/537.36",64,"[0.9, 0.5, 0.1]","[0.8, 0.4, 0.2]","[u'blue', u'red', u'black']","[u'left', u'middle', u'right']","[0.9, 0.5, 0.1]","[u'medium', u'low', u'high']","blue",49,"left","medium","False","False",55,3250,NA
"A10BH9PYCYUKDJ","Wed Sep 23 2020 12:00:52 GMT-0400 (Eastern Daylight Time)","Wed Sep 23 2020 12:10:39 GMT-0400 (Eastern Daylight Time)","Mozilla/5.0 (X11; CrOS x86_64 12239.92.0) AppleWebKit/537.36 (KHTML, like Gecko) Chrome/76.0.3809.136 Safari/537.36",65,"[0.9, 0.5, 0.1]","[0.8, 0.4, 0.2]","[u'blue', u'red', u'black']","[u'left', u'middle', u'right']","[0.9, 0.5, 0.1]","[u'medium', u'low', u'high']","black",51,"right","high","False","False",405,3200,NA
"A10BH9PYCYUKDJ","Wed Sep 23 2020 12:00:52 GMT-0400 (Eastern Daylight Time)","Wed Sep 23 2020 12:10:39 GMT-0400 (Eastern Daylight Time)","Mozilla/5.0 (X11; CrOS x86_64 12239.92.0) AppleWebKit/537.36 (KHTML, like Gecko) Chrome/76.0.3809.136 Safari/537.36",66,"[0.9, 0.5, 0.1]","[0.8, 0.4, 0.2]","[u'blue', u'red', u'black']","[u'left', u'middle', u'right']","[0.9, 0.5, 0.1]","[u'medium', u'low', u'high']","red",50,"middle","low","False","False",527,3150,NA
"A10BH9PYCYUKDJ","Wed Sep 23 2020 12:00:52 GMT-0400 (Eastern Daylight Time)","Wed Sep 23 2020 12:10:39 GMT-0400 (Eastern Daylight Time)","Mozilla/5.0 (X11; CrOS x86_64 12239.92.0) AppleWebKit/537.36 (KHTML, like Gecko) Chrome/76.0.3809.136 Safari/537.36",67,"[0.9, 0.5, 0.1]","[0.8, 0.4, 0.2]","[u'blue', u'red', u'black']","[u'left', u'middle', u'right']","[0.9, 0.5, 0.1]","[u'medium', u'low', u'high']","blue",49,"left","medium","True","False",271,3250,NA
"A10BH9PYCYUKDJ","Wed Sep 23 2020 12:00:52 GMT-0400 (Eastern Daylight Time)","Wed Sep 23 2020 12:10:39 GMT-0400 (Eastern Daylight Time)","Mozilla/5.0 (X11; CrOS x86_64 12239.92.0) AppleWebKit/537.36 (KHTML, like Gecko) Chrome/76.0.3809.136 Safari/537.36",68,"[0.9, 0.5, 0.1]","[0.8, 0.4, 0.2]","[u'blue', u'red', u'black']","[u'left', u'middle', u'right']","[0.9, 0.5, 0.1]","[u'medium', u'low', u'high']","blue",49,"left","medium","True","False",270,3350,NA
"A10BH9PYCYUKDJ","Wed Sep 23 2020 12:00:52 GMT-0400 (Eastern Daylight Time)","Wed Sep 23 2020 12:10:39 GMT-0400 (Eastern Daylight Time)","Mozilla/5.0 (X11; CrOS x86_64 12239.92.0) AppleWebKit/537.36 (KHTML, like Gecko) Chrome/76.0.3809.136 Safari/537.36",69,"[0.9, 0.5, 0.1]","[0.8, 0.4, 0.2]","[u'blue', u'red', u'black']","[u'left', u'middle', u'right']","[0.9, 0.5, 0.1]","[u'medium', u'low', u'high']","blue",49,"left","medium","False","False",253,3300,NA
"A10BH9PYCYUKDJ","Wed Sep 23 2020 12:00:52 GMT-0400 (Eastern Daylight Time)","Wed Sep 23 2020 12:10:39 GMT-0400 (Eastern Daylight Time)","Mozilla/5.0 (X11; CrOS x86_64 12239.92.0) AppleWebKit/537.36 (KHTML, like Gecko) Chrome/76.0.3809.136 Safari/537.36",70,"[0.9, 0.5, 0.1]","[0.8, 0.4, 0.2]","[u'blue', u'red', u'black']","[u'left', u'middle', u'right']","[0.9, 0.5, 0.1]","[u'medium', u'low', u'high']","black",51,"right","high","True","False",225,3400,NA
"A10BH9PYCYUKDJ","Wed Sep 23 2020 12:00:52 GMT-0400 (Eastern Daylight Time)","Wed Sep 23 2020 12:10:39 GMT-0400 (Eastern Daylight Time)","Mozilla/5.0 (X11; CrOS x86_64 12239.92.0) AppleWebKit/537.36 (KHTML, like Gecko) Chrome/76.0.3809.136 Safari/537.36",71,"[0.9, 0.5, 0.1]","[0.8, 0.4, 0.2]","[u'blue', u'red', u'black']","[u'left', u'middle', u'right']","[0.9, 0.5, 0.1]","[u'medium', u'low', u'high']","black",51,"right","high","True","False",288,3500,NA
"A10BH9PYCYUKDJ","Wed Sep 23 2020 12:00:52 GMT-0400 (Eastern Daylight Time)","Wed Sep 23 2020 12:10:39 GMT-0400 (Eastern Daylight Time)","Mozilla/5.0 (X11; CrOS x86_64 12239.92.0) AppleWebKit/537.36 (KHTML, like Gecko) Chrome/76.0.3809.136 Safari/537.36",72,"[0.9, 0.5, 0.1]","[0.8, 0.4, 0.2]","[u'blue', u'red', u'black']","[u'left', u'middle', u'right']","[0.9, 0.5, 0.1]","[u'medium', u'low', u'high']","red",50,"middle","low","True","False",33,3600,NA
"A10BH9PYCYUKDJ","Wed Sep 23 2020 12:00:52 GMT-0400 (Eastern Daylight Time)","Wed Sep 23 2020 12:10:39 GMT-0400 (Eastern Daylight Time)","Mozilla/5.0 (X11; CrOS x86_64 12239.92.0) AppleWebKit/537.36 (KHTML, like Gecko) Chrome/76.0.3809.136 Safari/537.36",73,"[0.9, 0.5, 0.1]","[0.8, 0.4, 0.2]","[u'blue', u'red', u'black']","[u'left', u'middle', u'right']","[0.9, 0.5, 0.1]","[u'medium', u'low', u'high']","red",50,"middle","low","False","False",316,3550,NA
"A10BH9PYCYUKDJ","Wed Sep 23 2020 12:00:52 GMT-0400 (Eastern Daylight Time)","Wed Sep 23 2020 12:10:39 GMT-0400 (Eastern Daylight Time)","Mozilla/5.0 (X11; CrOS x86_64 12239.92.0) AppleWebKit/537.36 (KHTML, like Gecko) Chrome/76.0.3809.136 Safari/537.36",74,"[0.9, 0.5, 0.1]","[0.8, 0.4, 0.2]","[u'blue', u'red', u'black']","[u'left', u'middle', u'right']","[0.9, 0.5, 0.1]","[u'medium', u'low', u'high']","black",51,"right","high","True","False",241,3650,NA
"A10BH9PYCYUKDJ","Wed Sep 23 2020 12:00:52 GMT-0400 (Eastern Daylight Time)","Wed Sep 23 2020 12:10:39 GMT-0400 (Eastern Daylight Time)","Mozilla/5.0 (X11; CrOS x86_64 12239.92.0) AppleWebKit/537.36 (KHTML, like Gecko) Chrome/76.0.3809.136 Safari/537.36",75,"[0.9, 0.5, 0.1]","[0.8, 0.4, 0.2]","[u'blue', u'red', u'black']","[u'left', u'middle', u'right']","[0.9, 0.5, 0.1]","[u'medium', u'low', u'high']","black",51,"right","high","True","False",289,3750,NA
"A10BH9PYCYUKDJ","Wed Sep 23 2020 12:00:52 GMT-0400 (Eastern Daylight Time)","Wed Sep 23 2020 12:10:39 GMT-0400 (Eastern Daylight Time)","Mozilla/5.0 (X11; CrOS x86_64 12239.92.0) AppleWebKit/537.36 (KHTML, like Gecko) Chrome/76.0.3809.136 Safari/537.36",76,"[0.9, 0.5, 0.1]","[0.8, 0.4, 0.2]","[u'blue', u'red', u'black']","[u'left', u'middle', u'right']","[0.9, 0.5, 0.1]","[u'medium', u'low', u'high']","blue",49,"left","medium","False","False",235,3700,NA
"A10BH9PYCYUKDJ","Wed Sep 23 2020 12:00:52 GMT-0400 (Eastern Daylight Time)","Wed Sep 23 2020 12:10:39 GMT-0400 (Eastern Daylight Time)","Mozilla/5.0 (X11; CrOS x86_64 12239.92.0) AppleWebKit/537.36 (KHTML, like Gecko) Chrome/76.0.3809.136 Safari/537.36",77,"[0.9, 0.5, 0.1]","[0.8, 0.4, 0.2]","[u'blue', u'red', u'black']","[u'left', u'middle', u'right']","[0.9, 0.5, 0.1]","[u'medium', u'low', u'high']","black",51,"right","high","True","False",270,3800,NA
"A10BH9PYCYUKDJ","Wed Sep 23 2020 12:00:52 GMT-0400 (Eastern Daylight Time)","Wed Sep 23 2020 12:10:39 GMT-0400 (Eastern Daylight Time)","Mozilla/5.0 (X11; CrOS x86_64 12239.92.0) AppleWebKit/537.36 (KHTML, like Gecko) Chrome/76.0.3809.136 Safari/537.36",78,"[0.9, 0.5, 0.1]","[0.8, 0.4, 0.2]","[u'blue', u'red', u'black']","[u'left', u'middle', u'right']","[0.9, 0.5, 0.1]","[u'medium', u'low', u'high']","black",51,"right","high","True","False",269,3900,NA
"A10BH9PYCYUKDJ","Wed Sep 23 2020 12:00:52 GMT-0400 (Eastern Daylight Time)","Wed Sep 23 2020 12:10:39 GMT-0400 (Eastern Daylight Time)","Mozilla/5.0 (X11; CrOS x86_64 12239.92.0) AppleWebKit/537.36 (KHTML, like Gecko) Chrome/76.0.3809.136 Safari/537.36",79,"[0.9, 0.5, 0.1]","[0.8, 0.4, 0.2]","[u'blue', u'red', u'black']","[u'left', u'middle', u'right']","[0.9, 0.5, 0.1]","[u'medium', u'low', u'high']","black",51,"right","high","True","False",362,4000,NA
"A10BH9PYCYUKDJ","Wed Sep 23 2020 12:00:52 GMT-0400 (Eastern Daylight Time)","Wed Sep 23 2020 12:10:39 GMT-0400 (Eastern Daylight Time)","Mozilla/5.0 (X11; CrOS x86_64 12239.92.0) AppleWebKit/537.36 (KHTML, like Gecko) Chrome/76.0.3809.136 Safari/537.36",80,"[0.9, 0.5, 0.1]","[0.8, 0.4, 0.2]","[u'blue', u'red', u'black']","[u'left', u'middle', u'right']","[0.9, 0.5, 0.1]","[u'medium', u'low', u'high']","black",51,"right","high","True","False",264,4100,NA
"A10BH9PYCYUKDJ","Wed Sep 23 2020 12:00:52 GMT-0400 (Eastern Daylight Time)","Wed Sep 23 2020 12:10:39 GMT-0400 (Eastern Daylight Time)","Mozilla/5.0 (X11; CrOS x86_64 12239.92.0) AppleWebKit/537.36 (KHTML, like Gecko) Chrome/76.0.3809.136 Safari/537.36",81,"[0.9, 0.5, 0.1]","[0.8, 0.4, 0.2]","[u'blue', u'red', u'black']","[u'left', u'middle', u'right']","[0.8, 0.4, 0.2]","[u'medium', u'high', u'low']","red",50,"middle","high","True","False",266,4200,NA
"A10BH9PYCYUKDJ","Wed Sep 23 2020 12:00:52 GMT-0400 (Eastern Daylight Time)","Wed Sep 23 2020 12:10:39 GMT-0400 (Eastern Daylight Time)","Mozilla/5.0 (X11; CrOS x86_64 12239.92.0) AppleWebKit/537.36 (KHTML, like Gecko) Chrome/76.0.3809.136 Safari/537.36",82,"[0.9, 0.5, 0.1]","[0.8, 0.4, 0.2]","[u'blue', u'red', u'black']","[u'left', u'middle', u'right']","[0.8, 0.4, 0.2]","[u'medium', u'high', u'low']","red",50,"middle","high","True","False",260,4300,NA
"A10BH9PYCYUKDJ","Wed Sep 23 2020 12:00:52 GMT-0400 (Eastern Daylight Time)","Wed Sep 23 2020 12:10:39 GMT-0400 (Eastern Daylight Time)","Mozilla/5.0 (X11; CrOS x86_64 12239.92.0) AppleWebKit/537.36 (KHTML, like Gecko) Chrome/76.0.3809.136 Safari/537.36",83,"[0.9, 0.5, 0.1]","[0.8, 0.4, 0.2]","[u'blue', u'red', u'black']","[u'left', u'middle', u'right']","[0.8, 0.4, 0.2]","[u'medium', u'high', u'low']","red",50,"middle","high","False","False",251,4250,NA
"A10BH9PYCYUKDJ","Wed Sep 23 2020 12:00:52 GMT-0400 (Eastern Daylight Time)","Wed Sep 23 2020 12:10:39 GMT-0400 (Eastern Daylight Time)","Mozilla/5.0 (X11; CrOS x86_64 12239.92.0) AppleWebKit/537.36 (KHTML, like Gecko) Chrome/76.0.3809.136 Safari/537.36",84,"[0.9, 0.5, 0.1]","[0.8, 0.4, 0.2]","[u'blue', u'red', u'black']","[u'left', u'middle', u'right']","[0.8, 0.4, 0.2]","[u'medium', u'high', u'low']","black",51,"right","low","False","False",201,4200,NA
"A10BH9PYCYUKDJ","Wed Sep 23 2020 12:00:52 GMT-0400 (Eastern Daylight Time)","Wed Sep 23 2020 12:10:39 GMT-0400 (Eastern Daylight Time)","Mozilla/5.0 (X11; CrOS x86_64 12239.92.0) AppleWebKit/537.36 (KHTML, like Gecko) Chrome/76.0.3809.136 Safari/537.36",85,"[0.9, 0.5, 0.1]","[0.8, 0.4, 0.2]","[u'blue', u'red', u'black']","[u'left', u'middle', u'right']","[0.8, 0.4, 0.2]","[u'medium', u'high', u'low']","blue",49,"left","medium","False","False",222,4150,NA
"A10BH9PYCYUKDJ","Wed Sep 23 2020 12:00:52 GMT-0400 (Eastern Daylight Time)","Wed Sep 23 2020 12:10:39 GMT-0400 (Eastern Daylight Time)","Mozilla/5.0 (X11; CrOS x86_64 12239.92.0) AppleWebKit/537.36 (KHTML, like Gecko) Chrome/76.0.3809.136 Safari/537.36",86,"[0.9, 0.5, 0.1]","[0.8, 0.4, 0.2]","[u'blue', u'red', u'black']","[u'left', u'middle', u'right']","[0.8, 0.4, 0.2]","[u'medium', u'high', u'low']","red",50,"middle","high","True","False",254,4250,NA
"A10BH9PYCYUKDJ","Wed Sep 23 2020 12:00:52 GMT-0400 (Eastern Daylight Time)","Wed Sep 23 2020 12:10:39 GMT-0400 (Eastern Daylight Time)","Mozilla/5.0 (X11; CrOS x86_64 12239.92.0) AppleWebKit/537.36 (KHTML, like Gecko) Chrome/76.0.3809.136 Safari/537.36",87,"[0.9, 0.5, 0.1]","[0.8, 0.4, 0.2]","[u'blue', u'red', u'black']","[u'left', u'middle', u'right']","[0.8, 0.4, 0.2]","[u'medium', u'high', u'low']","red",50,"middle","high","True","False",227,4350,NA
"A10BH9PYCYUKDJ","Wed Sep 23 2020 12:00:52 GMT-0400 (Eastern Daylight Time)","Wed Sep 23 2020 12:10:39 GMT-0400 (Eastern Daylight Time)","Mozilla/5.0 (X11; CrOS x86_64 12239.92.0) AppleWebKit/537.36 (KHTML, like Gecko) Chrome/76.0.3809.136 Safari/537.36",88,"[0.9, 0.5, 0.1]","[0.8, 0.4, 0.2]","[u'blue', u'red', u'black']","[u'left', u'middle', u'right']","[0.8, 0.4, 0.2]","[u'medium', u'high', u'low']","red",50,"middle","high","True","False",233,4450,NA
"A10BH9PYCYUKDJ","Wed Sep 23 2020 12:00:52 GMT-0400 (Eastern Daylight Time)","Wed Sep 23 2020 12:10:39 GMT-0400 (Eastern Daylight Time)","Mozilla/5.0 (X11; CrOS x86_64 12239.92.0) AppleWebKit/537.36 (KHTML, like Gecko) Chrome/76.0.3809.136 Safari/537.36",89,"[0.9, 0.5, 0.1]","[0.8, 0.4, 0.2]","[u'blue', u'red', u'black']","[u'left', u'middle', u'right']","[0.8, 0.4, 0.2]","[u'medium', u'high', u'low']","red",50,"middle","high","False","False",214,4400,NA
"A10BH9PYCYUKDJ","Wed Sep 23 2020 12:00:52 GMT-0400 (Eastern Daylight Time)","Wed Sep 23 2020 12:10:39 GMT-0400 (Eastern Daylight Time)","Mozilla/5.0 (X11; CrOS x86_64 12239.92.0) AppleWebKit/537.36 (KHTML, like Gecko) Chrome/76.0.3809.136 Safari/537.36",90,"[0.9, 0.5, 0.1]","[0.8, 0.4, 0.2]","[u'blue', u'red', u'black']","[u'left', u'middle', u'right']","[0.8, 0.4, 0.2]","[u'medium', u'high', u'low']","red",50,"middle","high","True","False",198,4500,NA
"A10BH9PYCYUKDJ","Wed Sep 23 2020 12:00:52 GMT-0400 (Eastern Daylight Time)","Wed Sep 23 2020 12:10:39 GMT-0400 (Eastern Daylight Time)","Mozilla/5.0 (X11; CrOS x86_64 12239.92.0) AppleWebKit/537.36 (KHTML, like Gecko) Chrome/76.0.3809.136 Safari/537.36",91,"[0.9, 0.5, 0.1]","[0.8, 0.4, 0.2]","[u'blue', u'red', u'black']","[u'left', u'middle', u'right']","[0.8, 0.4, 0.2]","[u'medium', u'high', u'low']","red",50,"middle","high","False","False",263,4450,NA
"A10BH9PYCYUKDJ","Wed Sep 23 2020 12:00:52 GMT-0400 (Eastern Daylight Time)","Wed Sep 23 2020 12:10:39 GMT-0400 (Eastern Daylight Time)","Mozilla/5.0 (X11; CrOS x86_64 12239.92.0) AppleWebKit/537.36 (KHTML, like Gecko) Chrome/76.0.3809.136 Safari/537.36",92,"[0.9, 0.5, 0.1]","[0.8, 0.4, 0.2]","[u'blue', u'red', u'black']","[u'left', u'middle', u'right']","[0.8, 0.4, 0.2]","[u'medium', u'high', u'low']","black",51,"right","low","True","False",119,4550,NA
"A10BH9PYCYUKDJ","Wed Sep 23 2020 12:00:52 GMT-0400 (Eastern Daylight Time)","Wed Sep 23 2020 12:10:39 GMT-0400 (Eastern Daylight Time)","Mozilla/5.0 (X11; CrOS x86_64 12239.92.0) AppleWebKit/537.36 (KHTML, like Gecko) Chrome/76.0.3809.136 Safari/537.36",93,"[0.9, 0.5, 0.1]","[0.8, 0.4, 0.2]","[u'blue', u'red', u'black']","[u'left', u'middle', u'right']","[0.8, 0.4, 0.2]","[u'medium', u'high', u'low']","black",51,"right","low","False","False",232,4500,NA
"A10BH9PYCYUKDJ","Wed Sep 23 2020 12:00:52 GMT-0400 (Eastern Daylight Time)","Wed Sep 23 2020 12:10:39 GMT-0400 (Eastern Daylight Time)","Mozilla/5.0 (X11; CrOS x86_64 12239.92.0) AppleWebKit/537.36 (KHTML, like Gecko) Chrome/76.0.3809.136 Safari/537.36",94,"[0.9, 0.5, 0.1]","[0.8, 0.4, 0.2]","[u'blue', u'red', u'black']","[u'left', u'middle', u'right']","[0.8, 0.4, 0.2]","[u'medium', u'high', u'low']","blue",49,"left","medium","False","False",463,4450,NA
"A10BH9PYCYUKDJ","Wed Sep 23 2020 12:00:52 GMT-0400 (Eastern Daylight Time)","Wed Sep 23 2020 12:10:39 GMT-0400 (Eastern Daylight Time)","Mozilla/5.0 (X11; CrOS x86_64 12239.92.0) AppleWebKit/537.36 (KHTML, like Gecko) Chrome/76.0.3809.136 Safari/537.36",95,"[0.9, 0.5, 0.1]","[0.8, 0.4, 0.2]","[u'blue', u'red', u'black']","[u'left', u'middle', u'right']","[0.8, 0.4, 0.2]","[u'medium', u'high', u'low']","red",50,"middle","high","True","False",233,4550,NA
"A10BH9PYCYUKDJ","Wed Sep 23 2020 12:00:52 GMT-0400 (Eastern Daylight Time)","Wed Sep 23 2020 12:10:39 GMT-0400 (Eastern Daylight Time)","Mozilla/5.0 (X11; CrOS x86_64 12239.92.0) AppleWebKit/537.36 (KHTML, like Gecko) Chrome/76.0.3809.136 Safari/537.36",96,"[0.9, 0.5, 0.1]","[0.8, 0.4, 0.2]","[u'blue', u'red', u'black']","[u'left', u'middle', u'right']","[0.8, 0.4, 0.2]","[u'medium', u'high', u'low']","red",50,"middle","high","True","False",36,4650,NA
"A10BH9PYCYUKDJ","Wed Sep 23 2020 12:00:52 GMT-0400 (Eastern Daylight Time)","Wed Sep 23 2020 12:10:39 GMT-0400 (Eastern Daylight Time)","Mozilla/5.0 (X11; CrOS x86_64 12239.92.0) AppleWebKit/537.36 (KHTML, like Gecko) Chrome/76.0.3809.136 Safari/537.36",97,"[0.9, 0.5, 0.1]","[0.8, 0.4, 0.2]","[u'blue', u'red', u'black']","[u'left', u'middle', u'right']","[0.8, 0.4, 0.2]","[u'medium', u'high', u'low']","black",51,"right","low","False","False",514,4600,NA
"A10BH9PYCYUKDJ","Wed Sep 23 2020 12:00:52 GMT-0400 (Eastern Daylight Time)","Wed Sep 23 2020 12:10:39 GMT-0400 (Eastern Daylight Time)","Mozilla/5.0 (X11; CrOS x86_64 12239.92.0) AppleWebKit/537.36 (KHTML, like Gecko) Chrome/76.0.3809.136 Safari/537.36",98,"[0.9, 0.5, 0.1]","[0.8, 0.4, 0.2]","[u'blue', u'red', u'black']","[u'left', u'middle', u'right']","[0.8, 0.4, 0.2]","[u'medium', u'high', u'low']","red",50,"middle","high","True","False",310,4700,NA
"A10BH9PYCYUKDJ","Wed Sep 23 2020 12:00:52 GMT-0400 (Eastern Daylight Time)","Wed Sep 23 2020 12:10:39 GMT-0400 (Eastern Daylight Time)","Mozilla/5.0 (X11; CrOS x86_64 12239.92.0) AppleWebKit/537.36 (KHTML, like Gecko) Chrome/76.0.3809.136 Safari/537.36",99,"[0.9, 0.5, 0.1]","[0.8, 0.4, 0.2]","[u'blue', u'red', u'black']","[u'left', u'middle', u'right']","[0.8, 0.4, 0.2]","[u'medium', u'high', u'low']","red",50,"middle","high","False","False",283,4650,NA
"A10BH9PYCYUKDJ","Wed Sep 23 2020 12:00:52 GMT-0400 (Eastern Daylight Time)","Wed Sep 23 2020 12:10:39 GMT-0400 (Eastern Daylight Time)","Mozilla/5.0 (X11; CrOS x86_64 12239.92.0) AppleWebKit/537.36 (KHTML, like Gecko) Chrome/76.0.3809.136 Safari/537.36",100,"[0.9, 0.5, 0.1]","[0.8, 0.4, 0.2]","[u'blue', u'red', u'black']","[u'left', u'middle', u'right']","[0.8, 0.4, 0.2]","[u'medium', u'high', u'low']","blue",49,"left","medium","False","False",678,4600,NA
"A10BH9PYCYUKDJ","Wed Sep 23 2020 12:00:52 GMT-0400 (Eastern Daylight Time)","Wed Sep 23 2020 12:10:39 GMT-0400 (Eastern Daylight Time)","Mozilla/5.0 (X11; CrOS x86_64 12239.92.0) AppleWebKit/537.36 (KHTML, like Gecko) Chrome/76.0.3809.136 Safari/537.36",101,"[0.9, 0.5, 0.1]","[0.8, 0.4, 0.2]","[u'blue', u'red', u'black']","[u'left', u'middle', u'right']","[0.8, 0.4, 0.2]","[u'medium', u'high', u'low']","black",51,"right","low","False","False",271,4550,NA
"A10BH9PYCYUKDJ","Wed Sep 23 2020 12:00:52 GMT-0400 (Eastern Daylight Time)","Wed Sep 23 2020 12:10:39 GMT-0400 (Eastern Daylight Time)","Mozilla/5.0 (X11; CrOS x86_64 12239.92.0) AppleWebKit/537.36 (KHTML, like Gecko) Chrome/76.0.3809.136 Safari/537.36",102,"[0.9, 0.5, 0.1]","[0.8, 0.4, 0.2]","[u'blue', u'red', u'black']","[u'left', u'middle', u'right']","[0.8, 0.4, 0.2]","[u'medium', u'high', u'low']","red",50,"middle","high","True","False",161,4650,NA
"A10BH9PYCYUKDJ","Wed Sep 23 2020 12:00:52 GMT-0400 (Eastern Daylight Time)","Wed Sep 23 2020 12:10:39 GMT-0400 (Eastern Daylight Time)","Mozilla/5.0 (X11; CrOS x86_64 12239.92.0) AppleWebKit/537.36 (KHTML, like Gecko) Chrome/76.0.3809.136 Safari/537.36",103,"[0.9, 0.5, 0.1]","[0.8, 0.4, 0.2]","[u'blue', u'red', u'black']","[u'left', u'middle', u'right']","[0.8, 0.4, 0.2]","[u'medium', u'high', u'low']","red",50,"middle","high","True","False",303,4750,NA
"A10BH9PYCYUKDJ","Wed Sep 23 2020 12:00:52 GMT-0400 (Eastern Daylight Time)","Wed Sep 23 2020 12:10:39 GMT-0400 (Eastern Daylight Time)","Mozilla/5.0 (X11; CrOS x86_64 12239.92.0) AppleWebKit/537.36 (KHTML, like Gecko) Chrome/76.0.3809.136 Safari/537.36",104,"[0.9, 0.5, 0.1]","[0.8, 0.4, 0.2]","[u'blue', u'red', u'black']","[u'left', u'middle', u'right']","[0.8, 0.4, 0.2]","[u'medium', u'high', u'low']","red",50,"middle","high","True","False",304,4850,NA
"A10BH9PYCYUKDJ","Wed Sep 23 2020 12:00:52 GMT-0400 (Eastern Daylight Time)","Wed Sep 23 2020 12:10:39 GMT-0400 (Eastern Daylight Time)","Mozilla/5.0 (X11; CrOS x86_64 12239.92.0) AppleWebKit/537.36 (KHTML, like Gecko) Chrome/76.0.3809.136 Safari/537.36",105,"[0.9, 0.5, 0.1]","[0.8, 0.4, 0.2]","[u'blue', u'red', u'black']","[u'left', u'middle', u'right']","[0.8, 0.4, 0.2]","[u'medium', u'high', u'low']","red",50,"middle","high","True","False",223,4950,NA
"A10BH9PYCYUKDJ","Wed Sep 23 2020 12:00:52 GMT-0400 (Eastern Daylight Time)","Wed Sep 23 2020 12:10:39 GMT-0400 (Eastern Daylight Time)","Mozilla/5.0 (X11; CrOS x86_64 12239.92.0) AppleWebKit/537.36 (KHTML, like Gecko) Chrome/76.0.3809.136 Safari/537.36",106,"[0.9, 0.5, 0.1]","[0.8, 0.4, 0.2]","[u'blue', u'red', u'black']","[u'left', u'middle', u'right']","[0.8, 0.4, 0.2]","[u'medium', u'high', u'low']","red",50,"middle","high","True","False",103,5050,NA
"A10BH9PYCYUKDJ","Wed Sep 23 2020 12:00:52 GMT-0400 (Eastern Daylight Time)","Wed Sep 23 2020 12:10:39 GMT-0400 (Eastern Daylight Time)","Mozilla/5.0 (X11; CrOS x86_64 12239.92.0) AppleWebKit/537.36 (KHTML, like Gecko) Chrome/76.0.3809.136 Safari/537.36",107,"[0.9, 0.5, 0.1]","[0.8, 0.4, 0.2]","[u'blue', u'red', u'black']","[u'left', u'middle', u'right']","[0.8, 0.4, 0.2]","[u'medium', u'high', u'low']","red",50,"middle","high","True","False",300,5150,NA
"A10BH9PYCYUKDJ","Wed Sep 23 2020 12:00:52 GMT-0400 (Eastern Daylight Time)","Wed Sep 23 2020 12:10:39 GMT-0400 (Eastern Daylight Time)","Mozilla/5.0 (X11; CrOS x86_64 12239.92.0) AppleWebKit/537.36 (KHTML, like Gecko) Chrome/76.0.3809.136 Safari/537.36",108,"[0.9, 0.5, 0.1]","[0.8, 0.4, 0.2]","[u'blue', u'red', u'black']","[u'left', u'middle', u'right']","[0.8, 0.4, 0.2]","[u'medium', u'high', u'low']","red",50,"middle","high","True","False",335,5250,NA
"A10BH9PYCYUKDJ","Wed Sep 23 2020 12:00:52 GMT-0400 (Eastern Daylight Time)","Wed Sep 23 2020 12:10:39 GMT-0400 (Eastern Daylight Time)","Mozilla/5.0 (X11; CrOS x86_64 12239.92.0) AppleWebKit/537.36 (KHTML, like Gecko) Chrome/76.0.3809.136 Safari/537.36",109,"[0.9, 0.5, 0.1]","[0.8, 0.4, 0.2]","[u'blue', u'red', u'black']","[u'left', u'middle', u'right']","[0.8, 0.4, 0.2]","[u'medium', u'high', u'low']","red",50,"middle","high","True","False",406,5350,NA
"A10BH9PYCYUKDJ","Wed Sep 23 2020 12:00:52 GMT-0400 (Eastern Daylight Time)","Wed Sep 23 2020 12:10:39 GMT-0400 (Eastern Daylight Time)","Mozilla/5.0 (X11; CrOS x86_64 12239.92.0) AppleWebKit/537.36 (KHTML, like Gecko) Chrome/76.0.3809.136 Safari/537.36",110,"[0.9, 0.5, 0.1]","[0.8, 0.4, 0.2]","[u'blue', u'red', u'black']","[u'left', u'middle', u'right']","[0.8, 0.4, 0.2]","[u'medium', u'high', u'low']","red",50,"middle","high","False","True",317,5300,NA
"A10BH9PYCYUKDJ","Wed Sep 23 2020 12:00:52 GMT-0400 (Eastern Daylight Time)","Wed Sep 23 2020 12:10:39 GMT-0400 (Eastern Daylight Time)","Mozilla/5.0 (X11; CrOS x86_64 12239.92.0) AppleWebKit/537.36 (KHTML, like Gecko) Chrome/76.0.3809.136 Safari/537.36",111,"[0.9, 0.5, 0.1]","[0.8, 0.4, 0.2]","[u'blue', u'red', u'black']","[u'left', u'middle', u'right']","[0.8, 0.4, 0.2]","[u'low', u'medium', u'high']","red",50,"middle","medium","False","False",225,5250,NA
"A10BH9PYCYUKDJ","Wed Sep 23 2020 12:00:52 GMT-0400 (Eastern Daylight Time)","Wed Sep 23 2020 12:10:39 GMT-0400 (Eastern Daylight Time)","Mozilla/5.0 (X11; CrOS x86_64 12239.92.0) AppleWebKit/537.36 (KHTML, like Gecko) Chrome/76.0.3809.136 Safari/537.36",112,"[0.9, 0.5, 0.1]","[0.8, 0.4, 0.2]","[u'blue', u'red', u'black']","[u'left', u'middle', u'right']","[0.8, 0.4, 0.2]","[u'low', u'medium', u'high']","red",50,"middle","medium","False","False",221,5200,NA
"A10BH9PYCYUKDJ","Wed Sep 23 2020 12:00:52 GMT-0400 (Eastern Daylight Time)","Wed Sep 23 2020 12:10:39 GMT-0400 (Eastern Daylight Time)","Mozilla/5.0 (X11; CrOS x86_64 12239.92.0) AppleWebKit/537.36 (KHTML, like Gecko) Chrome/76.0.3809.136 Safari/537.36",113,"[0.9, 0.5, 0.1]","[0.8, 0.4, 0.2]","[u'blue', u'red', u'black']","[u'left', u'middle', u'right']","[0.8, 0.4, 0.2]","[u'low', u'medium', u'high']","blue",49,"left","low","True","False",265,5300,NA
"A10BH9PYCYUKDJ","Wed Sep 23 2020 12:00:52 GMT-0400 (Eastern Daylight Time)","Wed Sep 23 2020 12:10:39 GMT-0400 (Eastern Daylight Time)","Mozilla/5.0 (X11; CrOS x86_64 12239.92.0) AppleWebKit/537.36 (KHTML, like Gecko) Chrome/76.0.3809.136 Safari/537.36",114,"[0.9, 0.5, 0.1]","[0.8, 0.4, 0.2]","[u'blue', u'red', u'black']","[u'left', u'middle', u'right']","[0.8, 0.4, 0.2]","[u'low', u'medium', u'high']","blue",49,"left","low","False","False",198,5250,NA
"A10BH9PYCYUKDJ","Wed Sep 23 2020 12:00:52 GMT-0400 (Eastern Daylight Time)","Wed Sep 23 2020 12:10:39 GMT-0400 (Eastern Daylight Time)","Mozilla/5.0 (X11; CrOS x86_64 12239.92.0) AppleWebKit/537.36 (KHTML, like Gecko) Chrome/76.0.3809.136 Safari/537.36",115,"[0.9, 0.5, 0.1]","[0.8, 0.4, 0.2]","[u'blue', u'red', u'black']","[u'left', u'middle', u'right']","[0.8, 0.4, 0.2]","[u'low', u'medium', u'high']","black",51,"right","high","False","False",254,5200,NA
"A10BH9PYCYUKDJ","Wed Sep 23 2020 12:00:52 GMT-0400 (Eastern Daylight Time)","Wed Sep 23 2020 12:10:39 GMT-0400 (Eastern Daylight Time)","Mozilla/5.0 (X11; CrOS x86_64 12239.92.0) AppleWebKit/537.36 (KHTML, like Gecko) Chrome/76.0.3809.136 Safari/537.36",116,"[0.9, 0.5, 0.1]","[0.8, 0.4, 0.2]","[u'blue', u'red', u'black']","[u'left', u'middle', u'right']","[0.8, 0.4, 0.2]","[u'low', u'medium', u'high']","red",50,"middle","medium","True","False",309,5300,NA
"A10BH9PYCYUKDJ","Wed Sep 23 2020 12:00:52 GMT-0400 (Eastern Daylight Time)","Wed Sep 23 2020 12:10:39 GMT-0400 (Eastern Daylight Time)","Mozilla/5.0 (X11; CrOS x86_64 12239.92.0) AppleWebKit/537.36 (KHTML, like Gecko) Chrome/76.0.3809.136 Safari/537.36",117,"[0.9, 0.5, 0.1]","[0.8, 0.4, 0.2]","[u'blue', u'red', u'black']","[u'left', u'middle', u'right']","[0.8, 0.4, 0.2]","[u'low', u'medium', u'high']","red",50,"middle","medium","True","False",259,5400,NA
"A10BH9PYCYUKDJ","Wed Sep 23 2020 12:00:52 GMT-0400 (Eastern Daylight Time)","Wed Sep 23 2020 12:10:39 GMT-0400 (Eastern Daylight Time)","Mozilla/5.0 (X11; CrOS x86_64 12239.92.0) AppleWebKit/537.36 (KHTML, like Gecko) Chrome/76.0.3809.136 Safari/537.36",118,"[0.9, 0.5, 0.1]","[0.8, 0.4, 0.2]","[u'blue', u'red', u'black']","[u'left', u'middle', u'right']","[0.8, 0.4, 0.2]","[u'low', u'medium', u'high']","red",50,"middle","medium","True","False",242,5500,NA
"A10BH9PYCYUKDJ","Wed Sep 23 2020 12:00:52 GMT-0400 (Eastern Daylight Time)","Wed Sep 23 2020 12:10:39 GMT-0400 (Eastern Daylight Time)","Mozilla/5.0 (X11; CrOS x86_64 12239.92.0) AppleWebKit/537.36 (KHTML, like Gecko) Chrome/76.0.3809.136 Safari/537.36",119,"[0.9, 0.5, 0.1]","[0.8, 0.4, 0.2]","[u'blue', u'red', u'black']","[u'left', u'middle', u'right']","[0.8, 0.4, 0.2]","[u'low', u'medium', u'high']","red",50,"middle","medium","True","False",305,5600,NA
"A10BH9PYCYUKDJ","Wed Sep 23 2020 12:00:52 GMT-0400 (Eastern Daylight Time)","Wed Sep 23 2020 12:10:39 GMT-0400 (Eastern Daylight Time)","Mozilla/5.0 (X11; CrOS x86_64 12239.92.0) AppleWebKit/537.36 (KHTML, like Gecko) Chrome/76.0.3809.136 Safari/537.36",120,"[0.9, 0.5, 0.1]","[0.8, 0.4, 0.2]","[u'blue', u'red', u'black']","[u'left', u'middle', u'right']","[0.8, 0.4, 0.2]","[u'low', u'medium', u'high']","red",50,"middle","medium","True","False",284,5700,NA
"A10BH9PYCYUKDJ","Wed Sep 23 2020 12:00:52 GMT-0400 (Eastern Daylight Time)","Wed Sep 23 2020 12:10:39 GMT-0400 (Eastern Daylight Time)","Mozilla/5.0 (X11; CrOS x86_64 12239.92.0) AppleWebKit/537.36 (KHTML, like Gecko) Chrome/76.0.3809.136 Safari/537.36",121,"[0.9, 0.5, 0.1]","[0.8, 0.4, 0.2]","[u'blue', u'red', u'black']","[u'left', u'middle', u'right']","[0.8, 0.4, 0.2]","[u'high', u'medium', u'low']","red",50,"middle","medium","True","False",265,5800,NA
"A10BH9PYCYUKDJ","Wed Sep 23 2020 12:00:52 GMT-0400 (Eastern Daylight Time)","Wed Sep 23 2020 12:10:39 GMT-0400 (Eastern Daylight Time)","Mozilla/5.0 (X11; CrOS x86_64 12239.92.0) AppleWebKit/537.36 (KHTML, like Gecko) Chrome/76.0.3809.136 Safari/537.36",122,"[0.9, 0.5, 0.1]","[0.8, 0.4, 0.2]","[u'blue', u'red', u'black']","[u'left', u'middle', u'right']","[0.8, 0.4, 0.2]","[u'high', u'medium', u'low']","red",50,"middle","medium","True","False",386,5900,NA
"A10BH9PYCYUKDJ","Wed Sep 23 2020 12:00:52 GMT-0400 (Eastern Daylight Time)","Wed Sep 23 2020 12:10:39 GMT-0400 (Eastern Daylight Time)","Mozilla/5.0 (X11; CrOS x86_64 12239.92.0) AppleWebKit/537.36 (KHTML, like Gecko) Chrome/76.0.3809.136 Safari/537.36",123,"[0.9, 0.5, 0.1]","[0.8, 0.4, 0.2]","[u'blue', u'red', u'black']","[u'left', u'middle', u'right']","[0.8, 0.4, 0.2]","[u'high', u'medium', u'low']","red",50,"middle","medium","False","False",233,5850,NA
"A10BH9PYCYUKDJ","Wed Sep 23 2020 12:00:52 GMT-0400 (Eastern Daylight Time)","Wed Sep 23 2020 12:10:39 GMT-0400 (Eastern Daylight Time)","Mozilla/5.0 (X11; CrOS x86_64 12239.92.0) AppleWebKit/537.36 (KHTML, like Gecko) Chrome/76.0.3809.136 Safari/537.36",124,"[0.9, 0.5, 0.1]","[0.8, 0.4, 0.2]","[u'blue', u'red', u'black']","[u'left', u'middle', u'right']","[0.8, 0.4, 0.2]","[u'high', u'medium', u'low']","black",51,"right","low","False","False",542,5800,NA
"A10BH9PYCYUKDJ","Wed Sep 23 2020 12:00:52 GMT-0400 (Eastern Daylight Time)","Wed Sep 23 2020 12:10:39 GMT-0400 (Eastern Daylight Time)","Mozilla/5.0 (X11; CrOS x86_64 12239.92.0) AppleWebKit/537.36 (KHTML, like Gecko) Chrome/76.0.3809.136 Safari/537.36",125,"[0.9, 0.5, 0.1]","[0.8, 0.4, 0.2]","[u'blue', u'red', u'black']","[u'left', u'middle', u'right']","[0.8, 0.4, 0.2]","[u'high', u'medium', u'low']","red",50,"middle","medium","True","False",219,5900,NA
"A10BH9PYCYUKDJ","Wed Sep 23 2020 12:00:52 GMT-0400 (Eastern Daylight Time)","Wed Sep 23 2020 12:10:39 GMT-0400 (Eastern Daylight Time)","Mozilla/5.0 (X11; CrOS x86_64 12239.92.0) AppleWebKit/537.36 (KHTML, like Gecko) Chrome/76.0.3809.136 Safari/537.36",126,"[0.9, 0.5, 0.1]","[0.8, 0.4, 0.2]","[u'blue', u'red', u'black']","[u'left', u'middle', u'right']","[0.8, 0.4, 0.2]","[u'high', u'medium', u'low']","red",50,"middle","medium","True","False",251,6000,NA
"A10BH9PYCYUKDJ","Wed Sep 23 2020 12:00:52 GMT-0400 (Eastern Daylight Time)","Wed Sep 23 2020 12:10:39 GMT-0400 (Eastern Daylight Time)","Mozilla/5.0 (X11; CrOS x86_64 12239.92.0) AppleWebKit/537.36 (KHTML, like Gecko) Chrome/76.0.3809.136 Safari/537.36",127,"[0.9, 0.5, 0.1]","[0.8, 0.4, 0.2]","[u'blue', u'red', u'black']","[u'left', u'middle', u'right']","[0.8, 0.4, 0.2]","[u'high', u'medium', u'low']","red",50,"middle","medium","False","False",286,5950,NA
"A10BH9PYCYUKDJ","Wed Sep 23 2020 12:00:52 GMT-0400 (Eastern Daylight Time)","Wed Sep 23 2020 12:10:39 GMT-0400 (Eastern Daylight Time)","Mozilla/5.0 (X11; CrOS x86_64 12239.92.0) AppleWebKit/537.36 (KHTML, like Gecko) Chrome/76.0.3809.136 Safari/537.36",128,"[0.9, 0.5, 0.1]","[0.8, 0.4, 0.2]","[u'blue', u'red', u'black']","[u'left', u'middle', u'right']","[0.8, 0.4, 0.2]","[u'high', u'medium', u'low']","red",50,"middle","medium","False","False",236,5900,NA
"A10BH9PYCYUKDJ","Wed Sep 23 2020 12:00:52 GMT-0400 (Eastern Daylight Time)","Wed Sep 23 2020 12:10:39 GMT-0400 (Eastern Daylight Time)","Mozilla/5.0 (X11; CrOS x86_64 12239.92.0) AppleWebKit/537.36 (KHTML, like Gecko) Chrome/76.0.3809.136 Safari/537.36",129,"[0.9, 0.5, 0.1]","[0.8, 0.4, 0.2]","[u'blue', u'red', u'black']","[u'left', u'middle', u'right']","[0.8, 0.4, 0.2]","[u'high', u'medium', u'low']","blue",49,"left","high","True","False",280,6000,NA
"A10BH9PYCYUKDJ","Wed Sep 23 2020 12:00:52 GMT-0400 (Eastern Daylight Time)","Wed Sep 23 2020 12:10:39 GMT-0400 (Eastern Daylight Time)","Mozilla/5.0 (X11; CrOS x86_64 12239.92.0) AppleWebKit/537.36 (KHTML, like Gecko) Chrome/76.0.3809.136 Safari/537.36",130,"[0.9, 0.5, 0.1]","[0.8, 0.4, 0.2]","[u'blue', u'red', u'black']","[u'left', u'middle', u'right']","[0.8, 0.4, 0.2]","[u'high', u'medium', u'low']","blue",49,"left","high","False","False",228,5950,NA
"A10BH9PYCYUKDJ","Wed Sep 23 2020 12:00:52 GMT-0400 (Eastern Daylight Time)","Wed Sep 23 2020 12:10:39 GMT-0400 (Eastern Daylight Time)","Mozilla/5.0 (X11; CrOS x86_64 12239.92.0) AppleWebKit/537.36 (KHTML, like Gecko) Chrome/76.0.3809.136 Safari/537.36",131,"[0.9, 0.5, 0.1]","[0.8, 0.4, 0.2]","[u'blue', u'red', u'black']","[u'left', u'middle', u'right']","[0.8, 0.4, 0.2]","[u'high', u'medium', u'low']","red",50,"middle","medium","True","False",384,6050,NA
"A10BH9PYCYUKDJ","Wed Sep 23 2020 12:00:52 GMT-0400 (Eastern Daylight Time)","Wed Sep 23 2020 12:10:39 GMT-0400 (Eastern Daylight Time)","Mozilla/5.0 (X11; CrOS x86_64 12239.92.0) AppleWebKit/537.36 (KHTML, like Gecko) Chrome/76.0.3809.136 Safari/537.36",132,"[0.9, 0.5, 0.1]","[0.8, 0.4, 0.2]","[u'blue', u'red', u'black']","[u'left', u'middle', u'right']","[0.8, 0.4, 0.2]","[u'high', u'medium', u'low']","red",50,"middle","medium","True","False",229,6150,NA
"A10BH9PYCYUKDJ","Wed Sep 23 2020 12:00:52 GMT-0400 (Eastern Daylight Time)","Wed Sep 23 2020 12:10:39 GMT-0400 (Eastern Daylight Time)","Mozilla/5.0 (X11; CrOS x86_64 12239.92.0) AppleWebKit/537.36 (KHTML, like Gecko) Chrome/76.0.3809.136 Safari/537.36",133,"[0.9, 0.5, 0.1]","[0.8, 0.4, 0.2]","[u'blue', u'red', u'black']","[u'left', u'middle', u'right']","[0.8, 0.4, 0.2]","[u'high', u'medium', u'low']","black",51,"right","low","False","False",54,6100,NA
"A10BH9PYCYUKDJ","Wed Sep 23 2020 12:00:52 GMT-0400 (Eastern Daylight Time)","Wed Sep 23 2020 12:10:39 GMT-0400 (Eastern Daylight Time)","Mozilla/5.0 (X11; CrOS x86_64 12239.92.0) AppleWebKit/537.36 (KHTML, like Gecko) Chrome/76.0.3809.136 Safari/537.36",134,"[0.9, 0.5, 0.1]","[0.8, 0.4, 0.2]","[u'blue', u'red', u'black']","[u'left', u'middle', u'right']","[0.8, 0.4, 0.2]","[u'high', u'medium', u'low']","red",50,"middle","medium","False","False",226,6050,NA
"A10BH9PYCYUKDJ","Wed Sep 23 2020 12:00:52 GMT-0400 (Eastern Daylight Time)","Wed Sep 23 2020 12:10:39 GMT-0400 (Eastern Daylight Time)","Mozilla/5.0 (X11; CrOS x86_64 12239.92.0) AppleWebKit/537.36 (KHTML, like Gecko) Chrome/76.0.3809.136 Safari/537.36",135,"[0.9, 0.5, 0.1]","[0.8, 0.4, 0.2]","[u'blue', u'red', u'black']","[u'left', u'middle', u'right']","[0.8, 0.4, 0.2]","[u'high', u'medium', u'low']","red",50,"middle","medium","False","False",501,6000,NA
"A10BH9PYCYUKDJ","Wed Sep 23 2020 12:00:52 GMT-0400 (Eastern Daylight Time)","Wed Sep 23 2020 12:10:39 GMT-0400 (Eastern Daylight Time)","Mozilla/5.0 (X11; CrOS x86_64 12239.92.0) AppleWebKit/537.36 (KHTML, like Gecko) Chrome/76.0.3809.136 Safari/537.36",136,"[0.9, 0.5, 0.1]","[0.8, 0.4, 0.2]","[u'blue', u'red', u'black']","[u'left', u'middle', u'right']","[0.8, 0.4, 0.2]","[u'high', u'medium', u'low']","black",51,"right","low","False","False",285,5950,NA
"A10BH9PYCYUKDJ","Wed Sep 23 2020 12:00:52 GMT-0400 (Eastern Daylight Time)","Wed Sep 23 2020 12:10:39 GMT-0400 (Eastern Daylight Time)","Mozilla/5.0 (X11; CrOS x86_64 12239.92.0) AppleWebKit/537.36 (KHTML, like Gecko) Chrome/76.0.3809.136 Safari/537.36",137,"[0.9, 0.5, 0.1]","[0.8, 0.4, 0.2]","[u'blue', u'red', u'black']","[u'left', u'middle', u'right']","[0.8, 0.4, 0.2]","[u'high', u'medium', u'low']","blue",49,"left","high","True","False",293,6050,NA
"A10BH9PYCYUKDJ","Wed Sep 23 2020 12:00:52 GMT-0400 (Eastern Daylight Time)","Wed Sep 23 2020 12:10:39 GMT-0400 (Eastern Daylight Time)","Mozilla/5.0 (X11; CrOS x86_64 12239.92.0) AppleWebKit/537.36 (KHTML, like Gecko) Chrome/76.0.3809.136 Safari/537.36",138,"[0.9, 0.5, 0.1]","[0.8, 0.4, 0.2]","[u'blue', u'red', u'black']","[u'left', u'middle', u'right']","[0.8, 0.4, 0.2]","[u'high', u'medium', u'low']","blue",49,"left","high","True","False",247,6150,NA
"A10BH9PYCYUKDJ","Wed Sep 23 2020 12:00:52 GMT-0400 (Eastern Daylight Time)","Wed Sep 23 2020 12:10:39 GMT-0400 (Eastern Daylight Time)","Mozilla/5.0 (X11; CrOS x86_64 12239.92.0) AppleWebKit/537.36 (KHTML, like Gecko) Chrome/76.0.3809.136 Safari/537.36",139,"[0.9, 0.5, 0.1]","[0.8, 0.4, 0.2]","[u'blue', u'red', u'black']","[u'left', u'middle', u'right']","[0.8, 0.4, 0.2]","[u'high', u'medium', u'low']","blue",49,"left","high","True","False",343,6250,NA
"A10BH9PYCYUKDJ","Wed Sep 23 2020 12:00:52 GMT-0400 (Eastern Daylight Time)","Wed Sep 23 2020 12:10:39 GMT-0400 (Eastern Daylight Time)","Mozilla/5.0 (X11; CrOS x86_64 12239.92.0) AppleWebKit/537.36 (KHTML, like Gecko) Chrome/76.0.3809.136 Safari/537.36",140,"[0.9, 0.5, 0.1]","[0.8, 0.4, 0.2]","[u'blue', u'red', u'black']","[u'left', u'middle', u'right']","[0.8, 0.4, 0.2]","[u'high', u'medium', u'low']","blue",49,"left","high","True","False",330,6350,NA
"A10BH9PYCYUKDJ","Wed Sep 23 2020 12:00:52 GMT-0400 (Eastern Daylight Time)","Wed Sep 23 2020 12:10:39 GMT-0400 (Eastern Daylight Time)","Mozilla/5.0 (X11; CrOS x86_64 12239.92.0) AppleWebKit/537.36 (KHTML, like Gecko) Chrome/76.0.3809.136 Safari/537.36",141,"[0.9, 0.5, 0.1]","[0.8, 0.4, 0.2]","[u'blue', u'red', u'black']","[u'left', u'middle', u'right']","[0.8, 0.4, 0.2]","[u'high', u'medium', u'low']","blue",49,"left","high","True","False",329,6450,NA
"A10BH9PYCYUKDJ","Wed Sep 23 2020 12:00:52 GMT-0400 (Eastern Daylight Time)","Wed Sep 23 2020 12:10:39 GMT-0400 (Eastern Daylight Time)","Mozilla/5.0 (X11; CrOS x86_64 12239.92.0) AppleWebKit/537.36 (KHTML, like Gecko) Chrome/76.0.3809.136 Safari/537.36",142,"[0.9, 0.5, 0.1]","[0.8, 0.4, 0.2]","[u'blue', u'red', u'black']","[u'left', u'middle', u'right']","[0.8, 0.4, 0.2]","[u'high', u'medium', u'low']","blue",49,"left","high","True","False",328,6550,NA
"A10BH9PYCYUKDJ","Wed Sep 23 2020 12:00:52 GMT-0400 (Eastern Daylight Time)","Wed Sep 23 2020 12:10:39 GMT-0400 (Eastern Daylight Time)","Mozilla/5.0 (X11; CrOS x86_64 12239.92.0) AppleWebKit/537.36 (KHTML, like Gecko) Chrome/76.0.3809.136 Safari/537.36",143,"[0.9, 0.5, 0.1]","[0.8, 0.4, 0.2]","[u'blue', u'red', u'black']","[u'left', u'middle', u'right']","[0.8, 0.4, 0.2]","[u'high', u'medium', u'low']","blue",49,"left","high","True","False",279,6650,NA
"A10BH9PYCYUKDJ","Wed Sep 23 2020 12:00:52 GMT-0400 (Eastern Daylight Time)","Wed Sep 23 2020 12:10:39 GMT-0400 (Eastern Daylight Time)","Mozilla/5.0 (X11; CrOS x86_64 12239.92.0) AppleWebKit/537.36 (KHTML, like Gecko) Chrome/76.0.3809.136 Safari/537.36",144,"[0.9, 0.5, 0.1]","[0.8, 0.4, 0.2]","[u'blue', u'red', u'black']","[u'left', u'middle', u'right']","[0.8, 0.4, 0.2]","[u'high', u'medium', u'low']","blue",49,"left","high","True","False",429,6750,NA
"A10BH9PYCYUKDJ","Wed Sep 23 2020 12:00:52 GMT-0400 (Eastern Daylight Time)","Wed Sep 23 2020 12:10:39 GMT-0400 (Eastern Daylight Time)","Mozilla/5.0 (X11; CrOS x86_64 12239.92.0) AppleWebKit/537.36 (KHTML, like Gecko) Chrome/76.0.3809.136 Safari/537.36",145,"[0.9, 0.5, 0.1]","[0.8, 0.4, 0.2]","[u'blue', u'red', u'black']","[u'left', u'middle', u'right']","[0.8, 0.4, 0.2]","[u'high', u'medium', u'low']","blue",49,"left","high","True","True",214,6850,NA
"A10BH9PYCYUKDJ","Wed Sep 23 2020 12:00:52 GMT-0400 (Eastern Daylight Time)","Wed Sep 23 2020 12:10:39 GMT-0400 (Eastern Daylight Time)","Mozilla/5.0 (X11; CrOS x86_64 12239.92.0) AppleWebKit/537.36 (KHTML, like Gecko) Chrome/76.0.3809.136 Safari/537.36",146,"[0.9, 0.5, 0.1]","[0.8, 0.4, 0.2]","[u'blue', u'red', u'black']","[u'left', u'middle', u'right']","[0.8, 0.4, 0.2]","[u'medium', u'high', u'low']","blue",49,"left","medium","True","False",301,6950,NA
"A10BH9PYCYUKDJ","Wed Sep 23 2020 12:00:52 GMT-0400 (Eastern Daylight Time)","Wed Sep 23 2020 12:10:39 GMT-0400 (Eastern Daylight Time)","Mozilla/5.0 (X11; CrOS x86_64 12239.92.0) AppleWebKit/537.36 (KHTML, like Gecko) Chrome/76.0.3809.136 Safari/537.36",147,"[0.9, 0.5, 0.1]","[0.8, 0.4, 0.2]","[u'blue', u'red', u'black']","[u'left', u'middle', u'right']","[0.8, 0.4, 0.2]","[u'medium', u'high', u'low']","blue",49,"left","medium","False","False",268,6900,NA
"A10BH9PYCYUKDJ","Wed Sep 23 2020 12:00:52 GMT-0400 (Eastern Daylight Time)","Wed Sep 23 2020 12:10:39 GMT-0400 (Eastern Daylight Time)","Mozilla/5.0 (X11; CrOS x86_64 12239.92.0) AppleWebKit/537.36 (KHTML, like Gecko) Chrome/76.0.3809.136 Safari/537.36",148,"[0.9, 0.5, 0.1]","[0.8, 0.4, 0.2]","[u'blue', u'red', u'black']","[u'left', u'middle', u'right']","[0.8, 0.4, 0.2]","[u'medium', u'high', u'low']","red",50,"middle","high","True","False",180,7000,NA
"A10BH9PYCYUKDJ","Wed Sep 23 2020 12:00:52 GMT-0400 (Eastern Daylight Time)","Wed Sep 23 2020 12:10:39 GMT-0400 (Eastern Daylight Time)","Mozilla/5.0 (X11; CrOS x86_64 12239.92.0) AppleWebKit/537.36 (KHTML, like Gecko) Chrome/76.0.3809.136 Safari/537.36",149,"[0.9, 0.5, 0.1]","[0.8, 0.4, 0.2]","[u'blue', u'red', u'black']","[u'left', u'middle', u'right']","[0.8, 0.4, 0.2]","[u'medium', u'high', u'low']","red",50,"middle","high","True","False",238,7100,NA
"A10BH9PYCYUKDJ","Wed Sep 23 2020 12:00:52 GMT-0400 (Eastern Daylight Time)","Wed Sep 23 2020 12:10:39 GMT-0400 (Eastern Daylight Time)","Mozilla/5.0 (X11; CrOS x86_64 12239.92.0) AppleWebKit/537.36 (KHTML, like Gecko) Chrome/76.0.3809.136 Safari/537.36",150,"[0.9, 0.5, 0.1]","[0.8, 0.4, 0.2]","[u'blue', u'red', u'black']","[u'left', u'middle', u'right']","[0.8, 0.4, 0.2]","[u'medium', u'high', u'low']","red",50,"middle","high","False","False",377,7050,NA
"A10BH9PYCYUKDJ","Wed Sep 23 2020 12:00:52 GMT-0400 (Eastern Daylight Time)","Wed Sep 23 2020 12:10:39 GMT-0400 (Eastern Daylight Time)","Mozilla/5.0 (X11; CrOS x86_64 12239.92.0) AppleWebKit/537.36 (KHTML, like Gecko) Chrome/76.0.3809.136 Safari/537.36",151,"[0.9, 0.5, 0.1]","[0.8, 0.4, 0.2]","[u'blue', u'red', u'black']","[u'left', u'middle', u'right']","[0.8, 0.4, 0.2]","[u'medium', u'high', u'low']","black",51,"right","low","True","False",214,7150,NA
"A10BH9PYCYUKDJ","Wed Sep 23 2020 12:00:52 GMT-0400 (Eastern Daylight Time)","Wed Sep 23 2020 12:10:39 GMT-0400 (Eastern Daylight Time)","Mozilla/5.0 (X11; CrOS x86_64 12239.92.0) AppleWebKit/537.36 (KHTML, like Gecko) Chrome/76.0.3809.136 Safari/537.36",152,"[0.9, 0.5, 0.1]","[0.8, 0.4, 0.2]","[u'blue', u'red', u'black']","[u'left', u'middle', u'right']","[0.8, 0.4, 0.2]","[u'medium', u'high', u'low']","black",51,"right","low","False","False",259,7100,NA
"A10BH9PYCYUKDJ","Wed Sep 23 2020 12:00:52 GMT-0400 (Eastern Daylight Time)","Wed Sep 23 2020 12:10:39 GMT-0400 (Eastern Daylight Time)","Mozilla/5.0 (X11; CrOS x86_64 12239.92.0) AppleWebKit/537.36 (KHTML, like Gecko) Chrome/76.0.3809.136 Safari/537.36",153,"[0.9, 0.5, 0.1]","[0.8, 0.4, 0.2]","[u'blue', u'red', u'black']","[u'left', u'middle', u'right']","[0.8, 0.4, 0.2]","[u'medium', u'high', u'low']","blue",49,"left","medium","True","False",172,7200,NA
"A10BH9PYCYUKDJ","Wed Sep 23 2020 12:00:52 GMT-0400 (Eastern Daylight Time)","Wed Sep 23 2020 12:10:39 GMT-0400 (Eastern Daylight Time)","Mozilla/5.0 (X11; CrOS x86_64 12239.92.0) AppleWebKit/537.36 (KHTML, like Gecko) Chrome/76.0.3809.136 Safari/537.36",154,"[0.9, 0.5, 0.1]","[0.8, 0.4, 0.2]","[u'blue', u'red', u'black']","[u'left', u'middle', u'right']","[0.8, 0.4, 0.2]","[u'medium', u'high', u'low']","blue",49,"left","medium","False","False",252,7150,NA
"A10BH9PYCYUKDJ","Wed Sep 23 2020 12:00:52 GMT-0400 (Eastern Daylight Time)","Wed Sep 23 2020 12:10:39 GMT-0400 (Eastern Daylight Time)","Mozilla/5.0 (X11; CrOS x86_64 12239.92.0) AppleWebKit/537.36 (KHTML, like Gecko) Chrome/76.0.3809.136 Safari/537.36",155,"[0.9, 0.5, 0.1]","[0.8, 0.4, 0.2]","[u'blue', u'red', u'black']","[u'left', u'middle', u'right']","[0.8, 0.4, 0.2]","[u'medium', u'high', u'low']","red",50,"middle","high","True","False",263,7250,NA
"A10BH9PYCYUKDJ","Wed Sep 23 2020 12:00:52 GMT-0400 (Eastern Daylight Time)","Wed Sep 23 2020 12:10:39 GMT-0400 (Eastern Daylight Time)","Mozilla/5.0 (X11; CrOS x86_64 12239.92.0) AppleWebKit/537.36 (KHTML, like Gecko) Chrome/76.0.3809.136 Safari/537.36",156,"[0.9, 0.5, 0.1]","[0.8, 0.4, 0.2]","[u'blue', u'red', u'black']","[u'left', u'middle', u'right']","[0.8, 0.4, 0.2]","[u'medium', u'high', u'low']","red",50,"middle","high","True","False",228,7350,NA
"A10BH9PYCYUKDJ","Wed Sep 23 2020 12:00:52 GMT-0400 (Eastern Daylight Time)","Wed Sep 23 2020 12:10:39 GMT-0400 (Eastern Daylight Time)","Mozilla/5.0 (X11; CrOS x86_64 12239.92.0) AppleWebKit/537.36 (KHTML, like Gecko) Chrome/76.0.3809.136 Safari/537.36",157,"[0.9, 0.5, 0.1]","[0.8, 0.4, 0.2]","[u'blue', u'red', u'black']","[u'left', u'middle', u'right']","[0.8, 0.4, 0.2]","[u'medium', u'high', u'low']","red",50,"middle","high","True","False",217,7450,NA
"A10BH9PYCYUKDJ","Wed Sep 23 2020 12:00:52 GMT-0400 (Eastern Daylight Time)","Wed Sep 23 2020 12:10:39 GMT-0400 (Eastern Daylight Time)","Mozilla/5.0 (X11; CrOS x86_64 12239.92.0) AppleWebKit/537.36 (KHTML, like Gecko) Chrome/76.0.3809.136 Safari/537.36",158,"[0.9, 0.5, 0.1]","[0.8, 0.4, 0.2]","[u'blue', u'red', u'black']","[u'left', u'middle', u'right']","[0.8, 0.4, 0.2]","[u'medium', u'high', u'low']","red",50,"middle","high","True","False",267,7550,NA
"A10BH9PYCYUKDJ","Wed Sep 23 2020 12:00:52 GMT-0400 (Eastern Daylight Time)","Wed Sep 23 2020 12:10:39 GMT-0400 (Eastern Daylight Time)","Mozilla/5.0 (X11; CrOS x86_64 12239.92.0) AppleWebKit/537.36 (KHTML, like Gecko) Chrome/76.0.3809.136 Safari/537.36",159,"[0.9, 0.5, 0.1]","[0.8, 0.4, 0.2]","[u'blue', u'red', u'black']","[u'left', u'middle', u'right']","[0.8, 0.4, 0.2]","[u'medium', u'high', u'low']","red",50,"middle","high","False","False",330,7500,NA
"A10BH9PYCYUKDJ","Wed Sep 23 2020 12:00:52 GMT-0400 (Eastern Daylight Time)","Wed Sep 23 2020 12:10:39 GMT-0400 (Eastern Daylight Time)","Mozilla/5.0 (X11; CrOS x86_64 12239.92.0) AppleWebKit/537.36 (KHTML, like Gecko) Chrome/76.0.3809.136 Safari/537.36",160,"[0.9, 0.5, 0.1]","[0.8, 0.4, 0.2]","[u'blue', u'red', u'black']","[u'left', u'middle', u'right']","[0.8, 0.4, 0.2]","[u'medium', u'high', u'low']","blue",49,"left","medium","True","False",411,7600,NA
