"src_subject_id","start_time","end_time","browser","index","first_half_probabilities","second_half_probabilities","deck_color","deck_position","deck_probabilities","deck_contingencies","response_color","key_press","response_position","response_probability","reward_type","trial_type","rt","reward_tally","exclusion_reason"
"A281ASP4WWAN3E","Wed Sep 23 2020 12:14:16 GMT-0400 (Eastern Daylight Time)","Wed Sep 23 2020 12:49:48 GMT-0400 (Eastern Daylight Time)","Mozilla/5.0 (Windows NT 6.3) AppleWebKit/537.36 (KHTML, like Gecko) Chrome/85.0.4183.102 Safari/537.36",1,"[0.9, 0.5, 0.1]","[0.8, 0.4, 0.2]","[u'black', u'red', u'blue']","[u'left', u'middle', u'right']","[0.9, 0.5, 0.1]","[u'medium', u'low', u'high']","blue",51,"right","high","True","False",1340,100,NA
"A281ASP4WWAN3E","Wed Sep 23 2020 12:14:16 GMT-0400 (Eastern Daylight Time)","Wed Sep 23 2020 12:49:48 GMT-0400 (Eastern Daylight Time)","Mozilla/5.0 (Windows NT 6.3) AppleWebKit/537.36 (KHTML, like Gecko) Chrome/85.0.4183.102 Safari/537.36",2,"[0.9, 0.5, 0.1]","[0.8, 0.4, 0.2]","[u'black', u'red', u'blue']","[u'left', u'middle', u'right']","[0.9, 0.5, 0.1]","[u'medium', u'low', u'high']","red",50,"middle","low","False","False",931,50,NA
"A281ASP4WWAN3E","Wed Sep 23 2020 12:14:16 GMT-0400 (Eastern Daylight Time)","Wed Sep 23 2020 12:49:48 GMT-0400 (Eastern Daylight Time)","Mozilla/5.0 (Windows NT 6.3) AppleWebKit/537.36 (KHTML, like Gecko) Chrome/85.0.4183.102 Safari/537.36",3,"[0.9, 0.5, 0.1]","[0.8, 0.4, 0.2]","[u'black', u'red', u'blue']","[u'left', u'middle', u'right']","[0.9, 0.5, 0.1]","[u'medium', u'low', u'high']","blue",51,"right","high","True","False",251,150,NA
"A281ASP4WWAN3E","Wed Sep 23 2020 12:14:16 GMT-0400 (Eastern Daylight Time)","Wed Sep 23 2020 12:49:48 GMT-0400 (Eastern Daylight Time)","Mozilla/5.0 (Windows NT 6.3) AppleWebKit/537.36 (KHTML, like Gecko) Chrome/85.0.4183.102 Safari/537.36",4,"[0.9, 0.5, 0.1]","[0.8, 0.4, 0.2]","[u'black', u'red', u'blue']","[u'left', u'middle', u'right']","[0.9, 0.5, 0.1]","[u'medium', u'low', u'high']","blue",51,"right","high","True","False",267,250,NA
"A281ASP4WWAN3E","Wed Sep 23 2020 12:14:16 GMT-0400 (Eastern Daylight Time)","Wed Sep 23 2020 12:49:48 GMT-0400 (Eastern Daylight Time)","Mozilla/5.0 (Windows NT 6.3) AppleWebKit/537.36 (KHTML, like Gecko) Chrome/85.0.4183.102 Safari/537.36",5,"[0.9, 0.5, 0.1]","[0.8, 0.4, 0.2]","[u'black', u'red', u'blue']","[u'left', u'middle', u'right']","[0.9, 0.5, 0.1]","[u'medium', u'low', u'high']","blue",51,"right","high","True","False",250,350,NA
"A281ASP4WWAN3E","Wed Sep 23 2020 12:14:16 GMT-0400 (Eastern Daylight Time)","Wed Sep 23 2020 12:49:48 GMT-0400 (Eastern Daylight Time)","Mozilla/5.0 (Windows NT 6.3) AppleWebKit/537.36 (KHTML, like Gecko) Chrome/85.0.4183.102 Safari/537.36",6,"[0.9, 0.5, 0.1]","[0.8, 0.4, 0.2]","[u'black', u'red', u'blue']","[u'left', u'middle', u'right']","[0.9, 0.5, 0.1]","[u'medium', u'low', u'high']","blue",51,"right","high","True","False",253,450,NA
"A281ASP4WWAN3E","Wed Sep 23 2020 12:14:16 GMT-0400 (Eastern Daylight Time)","Wed Sep 23 2020 12:49:48 GMT-0400 (Eastern Daylight Time)","Mozilla/5.0 (Windows NT 6.3) AppleWebKit/537.36 (KHTML, like Gecko) Chrome/85.0.4183.102 Safari/537.36",7,"[0.9, 0.5, 0.1]","[0.8, 0.4, 0.2]","[u'black', u'red', u'blue']","[u'left', u'middle', u'right']","[0.9, 0.5, 0.1]","[u'medium', u'low', u'high']","blue",51,"right","high","True","False",290,550,NA
"A281ASP4WWAN3E","Wed Sep 23 2020 12:14:16 GMT-0400 (Eastern Daylight Time)","Wed Sep 23 2020 12:49:48 GMT-0400 (Eastern Daylight Time)","Mozilla/5.0 (Windows NT 6.3) AppleWebKit/537.36 (KHTML, like Gecko) Chrome/85.0.4183.102 Safari/537.36",8,"[0.9, 0.5, 0.1]","[0.8, 0.4, 0.2]","[u'black', u'red', u'blue']","[u'left', u'middle', u'right']","[0.9, 0.5, 0.1]","[u'medium', u'low', u'high']","blue",51,"right","high","True","False",235,650,NA
"A281ASP4WWAN3E","Wed Sep 23 2020 12:14:16 GMT-0400 (Eastern Daylight Time)","Wed Sep 23 2020 12:49:48 GMT-0400 (Eastern Daylight Time)","Mozilla/5.0 (Windows NT 6.3) AppleWebKit/537.36 (KHTML, like Gecko) Chrome/85.0.4183.102 Safari/537.36",9,"[0.9, 0.5, 0.1]","[0.8, 0.4, 0.2]","[u'black', u'red', u'blue']","[u'left', u'middle', u'right']","[0.9, 0.5, 0.1]","[u'medium', u'low', u'high']","blue",51,"right","high","True","False",275,750,NA
"A281ASP4WWAN3E","Wed Sep 23 2020 12:14:16 GMT-0400 (Eastern Daylight Time)","Wed Sep 23 2020 12:49:48 GMT-0400 (Eastern Daylight Time)","Mozilla/5.0 (Windows NT 6.3) AppleWebKit/537.36 (KHTML, like Gecko) Chrome/85.0.4183.102 Safari/537.36",10,"[0.9, 0.5, 0.1]","[0.8, 0.4, 0.2]","[u'black', u'red', u'blue']","[u'left', u'middle', u'right']","[0.9, 0.5, 0.1]","[u'medium', u'low', u'high']","blue",51,"right","high","False","True",275,700,NA
"A281ASP4WWAN3E","Wed Sep 23 2020 12:14:16 GMT-0400 (Eastern Daylight Time)","Wed Sep 23 2020 12:49:48 GMT-0400 (Eastern Daylight Time)","Mozilla/5.0 (Windows NT 6.3) AppleWebKit/537.36 (KHTML, like Gecko) Chrome/85.0.4183.102 Safari/537.36",11,"[0.9, 0.5, 0.1]","[0.8, 0.4, 0.2]","[u'black', u'red', u'blue']","[u'left', u'middle', u'right']","[0.9, 0.5, 0.1]","[u'medium', u'high', u'low']","blue",51,"right","low","False","False",243,650,NA
"A281ASP4WWAN3E","Wed Sep 23 2020 12:14:16 GMT-0400 (Eastern Daylight Time)","Wed Sep 23 2020 12:49:48 GMT-0400 (Eastern Daylight Time)","Mozilla/5.0 (Windows NT 6.3) AppleWebKit/537.36 (KHTML, like Gecko) Chrome/85.0.4183.102 Safari/537.36",12,"[0.9, 0.5, 0.1]","[0.8, 0.4, 0.2]","[u'black', u'red', u'blue']","[u'left', u'middle', u'right']","[0.9, 0.5, 0.1]","[u'medium', u'high', u'low']","red",50,"middle","high","True","False",260,750,NA
"A281ASP4WWAN3E","Wed Sep 23 2020 12:14:16 GMT-0400 (Eastern Daylight Time)","Wed Sep 23 2020 12:49:48 GMT-0400 (Eastern Daylight Time)","Mozilla/5.0 (Windows NT 6.3) AppleWebKit/537.36 (KHTML, like Gecko) Chrome/85.0.4183.102 Safari/537.36",13,"[0.9, 0.5, 0.1]","[0.8, 0.4, 0.2]","[u'black', u'red', u'blue']","[u'left', u'middle', u'right']","[0.9, 0.5, 0.1]","[u'medium', u'high', u'low']","red",50,"middle","high","False","False",241,700,NA
"A281ASP4WWAN3E","Wed Sep 23 2020 12:14:16 GMT-0400 (Eastern Daylight Time)","Wed Sep 23 2020 12:49:48 GMT-0400 (Eastern Daylight Time)","Mozilla/5.0 (Windows NT 6.3) AppleWebKit/537.36 (KHTML, like Gecko) Chrome/85.0.4183.102 Safari/537.36",14,"[0.9, 0.5, 0.1]","[0.8, 0.4, 0.2]","[u'black', u'red', u'blue']","[u'left', u'middle', u'right']","[0.9, 0.5, 0.1]","[u'medium', u'high', u'low']","black",49,"left","medium","True","False",123,800,NA
"A281ASP4WWAN3E","Wed Sep 23 2020 12:14:16 GMT-0400 (Eastern Daylight Time)","Wed Sep 23 2020 12:49:48 GMT-0400 (Eastern Daylight Time)","Mozilla/5.0 (Windows NT 6.3) AppleWebKit/537.36 (KHTML, like Gecko) Chrome/85.0.4183.102 Safari/537.36",15,"[0.9, 0.5, 0.1]","[0.8, 0.4, 0.2]","[u'black', u'red', u'blue']","[u'left', u'middle', u'right']","[0.9, 0.5, 0.1]","[u'medium', u'high', u'low']","black",49,"left","medium","True","False",307,900,NA
"A281ASP4WWAN3E","Wed Sep 23 2020 12:14:16 GMT-0400 (Eastern Daylight Time)","Wed Sep 23 2020 12:49:48 GMT-0400 (Eastern Daylight Time)","Mozilla/5.0 (Windows NT 6.3) AppleWebKit/537.36 (KHTML, like Gecko) Chrome/85.0.4183.102 Safari/537.36",16,"[0.9, 0.5, 0.1]","[0.8, 0.4, 0.2]","[u'black', u'red', u'blue']","[u'left', u'middle', u'right']","[0.9, 0.5, 0.1]","[u'medium', u'high', u'low']","black",49,"left","medium","False","False",251,850,NA
"A281ASP4WWAN3E","Wed Sep 23 2020 12:14:16 GMT-0400 (Eastern Daylight Time)","Wed Sep 23 2020 12:49:48 GMT-0400 (Eastern Daylight Time)","Mozilla/5.0 (Windows NT 6.3) AppleWebKit/537.36 (KHTML, like Gecko) Chrome/85.0.4183.102 Safari/537.36",17,"[0.9, 0.5, 0.1]","[0.8, 0.4, 0.2]","[u'black', u'red', u'blue']","[u'left', u'middle', u'right']","[0.9, 0.5, 0.1]","[u'medium', u'high', u'low']","black",49,"left","medium","False","False",284,800,NA
"A281ASP4WWAN3E","Wed Sep 23 2020 12:14:16 GMT-0400 (Eastern Daylight Time)","Wed Sep 23 2020 12:49:48 GMT-0400 (Eastern Daylight Time)","Mozilla/5.0 (Windows NT 6.3) AppleWebKit/537.36 (KHTML, like Gecko) Chrome/85.0.4183.102 Safari/537.36",18,"[0.9, 0.5, 0.1]","[0.8, 0.4, 0.2]","[u'black', u'red', u'blue']","[u'left', u'middle', u'right']","[0.9, 0.5, 0.1]","[u'medium', u'high', u'low']","blue",51,"right","low","False","False",75,750,NA
"A281ASP4WWAN3E","Wed Sep 23 2020 12:14:16 GMT-0400 (Eastern Daylight Time)","Wed Sep 23 2020 12:49:48 GMT-0400 (Eastern Daylight Time)","Mozilla/5.0 (Windows NT 6.3) AppleWebKit/537.36 (KHTML, like Gecko) Chrome/85.0.4183.102 Safari/537.36",19,"[0.9, 0.5, 0.1]","[0.8, 0.4, 0.2]","[u'black', u'red', u'blue']","[u'left', u'middle', u'right']","[0.9, 0.5, 0.1]","[u'medium', u'high', u'low']","red",50,"middle","high","True","False",266,850,NA
"A281ASP4WWAN3E","Wed Sep 23 2020 12:14:16 GMT-0400 (Eastern Daylight Time)","Wed Sep 23 2020 12:49:48 GMT-0400 (Eastern Daylight Time)","Mozilla/5.0 (Windows NT 6.3) AppleWebKit/537.36 (KHTML, like Gecko) Chrome/85.0.4183.102 Safari/537.36",20,"[0.9, 0.5, 0.1]","[0.8, 0.4, 0.2]","[u'black', u'red', u'blue']","[u'left', u'middle', u'right']","[0.9, 0.5, 0.1]","[u'medium', u'high', u'low']","red",50,"middle","high","True","False",220,950,NA
"A281ASP4WWAN3E","Wed Sep 23 2020 12:14:16 GMT-0400 (Eastern Daylight Time)","Wed Sep 23 2020 12:49:48 GMT-0400 (Eastern Daylight Time)","Mozilla/5.0 (Windows NT 6.3) AppleWebKit/537.36 (KHTML, like Gecko) Chrome/85.0.4183.102 Safari/537.36",21,"[0.9, 0.5, 0.1]","[0.8, 0.4, 0.2]","[u'black', u'red', u'blue']","[u'left', u'middle', u'right']","[0.9, 0.5, 0.1]","[u'medium', u'high', u'low']","red",50,"middle","high","True","False",244,1050,NA
"A281ASP4WWAN3E","Wed Sep 23 2020 12:14:16 GMT-0400 (Eastern Daylight Time)","Wed Sep 23 2020 12:49:48 GMT-0400 (Eastern Daylight Time)","Mozilla/5.0 (Windows NT 6.3) AppleWebKit/537.36 (KHTML, like Gecko) Chrome/85.0.4183.102 Safari/537.36",22,"[0.9, 0.5, 0.1]","[0.8, 0.4, 0.2]","[u'black', u'red', u'blue']","[u'left', u'middle', u'right']","[0.9, 0.5, 0.1]","[u'medium', u'high', u'low']","red",50,"middle","high","True","False",242,1150,NA
"A281ASP4WWAN3E","Wed Sep 23 2020 12:14:16 GMT-0400 (Eastern Daylight Time)","Wed Sep 23 2020 12:49:48 GMT-0400 (Eastern Daylight Time)","Mozilla/5.0 (Windows NT 6.3) AppleWebKit/537.36 (KHTML, like Gecko) Chrome/85.0.4183.102 Safari/537.36",23,"[0.9, 0.5, 0.1]","[0.8, 0.4, 0.2]","[u'black', u'red', u'blue']","[u'left', u'middle', u'right']","[0.9, 0.5, 0.1]","[u'medium', u'high', u'low']","red",50,"middle","high","True","False",147,1250,NA
"A281ASP4WWAN3E","Wed Sep 23 2020 12:14:16 GMT-0400 (Eastern Daylight Time)","Wed Sep 23 2020 12:49:48 GMT-0400 (Eastern Daylight Time)","Mozilla/5.0 (Windows NT 6.3) AppleWebKit/537.36 (KHTML, like Gecko) Chrome/85.0.4183.102 Safari/537.36",24,"[0.9, 0.5, 0.1]","[0.8, 0.4, 0.2]","[u'black', u'red', u'blue']","[u'left', u'middle', u'right']","[0.9, 0.5, 0.1]","[u'medium', u'high', u'low']","red",50,"middle","high","True","False",292,1350,NA
"A281ASP4WWAN3E","Wed Sep 23 2020 12:14:16 GMT-0400 (Eastern Daylight Time)","Wed Sep 23 2020 12:49:48 GMT-0400 (Eastern Daylight Time)","Mozilla/5.0 (Windows NT 6.3) AppleWebKit/537.36 (KHTML, like Gecko) Chrome/85.0.4183.102 Safari/537.36",25,"[0.9, 0.5, 0.1]","[0.8, 0.4, 0.2]","[u'black', u'red', u'blue']","[u'left', u'middle', u'right']","[0.9, 0.5, 0.1]","[u'medium', u'high', u'low']","red",50,"middle","high","True","False",250,1450,NA
"A281ASP4WWAN3E","Wed Sep 23 2020 12:14:16 GMT-0400 (Eastern Daylight Time)","Wed Sep 23 2020 12:49:48 GMT-0400 (Eastern Daylight Time)","Mozilla/5.0 (Windows NT 6.3) AppleWebKit/537.36 (KHTML, like Gecko) Chrome/85.0.4183.102 Safari/537.36",26,"[0.9, 0.5, 0.1]","[0.8, 0.4, 0.2]","[u'black', u'red', u'blue']","[u'left', u'middle', u'right']","[0.9, 0.5, 0.1]","[u'medium', u'high', u'low']","red",50,"middle","high","True","False",906,1550,NA
"A281ASP4WWAN3E","Wed Sep 23 2020 12:14:16 GMT-0400 (Eastern Daylight Time)","Wed Sep 23 2020 12:49:48 GMT-0400 (Eastern Daylight Time)","Mozilla/5.0 (Windows NT 6.3) AppleWebKit/537.36 (KHTML, like Gecko) Chrome/85.0.4183.102 Safari/537.36",27,"[0.9, 0.5, 0.1]","[0.8, 0.4, 0.2]","[u'black', u'red', u'blue']","[u'left', u'middle', u'right']","[0.9, 0.5, 0.1]","[u'medium', u'high', u'low']","red",50,"middle","high","True","True",260,1650,NA
"A281ASP4WWAN3E","Wed Sep 23 2020 12:14:16 GMT-0400 (Eastern Daylight Time)","Wed Sep 23 2020 12:49:48 GMT-0400 (Eastern Daylight Time)","Mozilla/5.0 (Windows NT 6.3) AppleWebKit/537.36 (KHTML, like Gecko) Chrome/85.0.4183.102 Safari/537.36",28,"[0.9, 0.5, 0.1]","[0.8, 0.4, 0.2]","[u'black', u'red', u'blue']","[u'left', u'middle', u'right']","[0.9, 0.5, 0.1]","[u'high', u'medium', u'low']","red",50,"middle","medium","False","False",242,1600,NA
"A281ASP4WWAN3E","Wed Sep 23 2020 12:14:16 GMT-0400 (Eastern Daylight Time)","Wed Sep 23 2020 12:49:48 GMT-0400 (Eastern Daylight Time)","Mozilla/5.0 (Windows NT 6.3) AppleWebKit/537.36 (KHTML, like Gecko) Chrome/85.0.4183.102 Safari/537.36",29,"[0.9, 0.5, 0.1]","[0.8, 0.4, 0.2]","[u'black', u'red', u'blue']","[u'left', u'middle', u'right']","[0.9, 0.5, 0.1]","[u'high', u'medium', u'low']","red",50,"middle","medium","True","False",187,1700,NA
"A281ASP4WWAN3E","Wed Sep 23 2020 12:14:16 GMT-0400 (Eastern Daylight Time)","Wed Sep 23 2020 12:49:48 GMT-0400 (Eastern Daylight Time)","Mozilla/5.0 (Windows NT 6.3) AppleWebKit/537.36 (KHTML, like Gecko) Chrome/85.0.4183.102 Safari/537.36",30,"[0.9, 0.5, 0.1]","[0.8, 0.4, 0.2]","[u'black', u'red', u'blue']","[u'left', u'middle', u'right']","[0.9, 0.5, 0.1]","[u'high', u'medium', u'low']","red",50,"middle","medium","True","False",196,1800,NA
"A281ASP4WWAN3E","Wed Sep 23 2020 12:14:16 GMT-0400 (Eastern Daylight Time)","Wed Sep 23 2020 12:49:48 GMT-0400 (Eastern Daylight Time)","Mozilla/5.0 (Windows NT 6.3) AppleWebKit/537.36 (KHTML, like Gecko) Chrome/85.0.4183.102 Safari/537.36",31,"[0.9, 0.5, 0.1]","[0.8, 0.4, 0.2]","[u'black', u'red', u'blue']","[u'left', u'middle', u'right']","[0.9, 0.5, 0.1]","[u'high', u'medium', u'low']","red",50,"middle","medium","False","False",154,1750,NA
"A281ASP4WWAN3E","Wed Sep 23 2020 12:14:16 GMT-0400 (Eastern Daylight Time)","Wed Sep 23 2020 12:49:48 GMT-0400 (Eastern Daylight Time)","Mozilla/5.0 (Windows NT 6.3) AppleWebKit/537.36 (KHTML, like Gecko) Chrome/85.0.4183.102 Safari/537.36",32,"[0.9, 0.5, 0.1]","[0.8, 0.4, 0.2]","[u'black', u'red', u'blue']","[u'left', u'middle', u'right']","[0.9, 0.5, 0.1]","[u'high', u'medium', u'low']","red",50,"middle","medium","True","False",76,1850,NA
"A281ASP4WWAN3E","Wed Sep 23 2020 12:14:16 GMT-0400 (Eastern Daylight Time)","Wed Sep 23 2020 12:49:48 GMT-0400 (Eastern Daylight Time)","Mozilla/5.0 (Windows NT 6.3) AppleWebKit/537.36 (KHTML, like Gecko) Chrome/85.0.4183.102 Safari/537.36",33,"[0.9, 0.5, 0.1]","[0.8, 0.4, 0.2]","[u'black', u'red', u'blue']","[u'left', u'middle', u'right']","[0.9, 0.5, 0.1]","[u'high', u'medium', u'low']","red",50,"middle","medium","False","False",266,1800,NA
"A281ASP4WWAN3E","Wed Sep 23 2020 12:14:16 GMT-0400 (Eastern Daylight Time)","Wed Sep 23 2020 12:49:48 GMT-0400 (Eastern Daylight Time)","Mozilla/5.0 (Windows NT 6.3) AppleWebKit/537.36 (KHTML, like Gecko) Chrome/85.0.4183.102 Safari/537.36",34,"[0.9, 0.5, 0.1]","[0.8, 0.4, 0.2]","[u'black', u'red', u'blue']","[u'left', u'middle', u'right']","[0.9, 0.5, 0.1]","[u'high', u'medium', u'low']","red",50,"middle","medium","True","False",124,1900,NA
"A281ASP4WWAN3E","Wed Sep 23 2020 12:14:16 GMT-0400 (Eastern Daylight Time)","Wed Sep 23 2020 12:49:48 GMT-0400 (Eastern Daylight Time)","Mozilla/5.0 (Windows NT 6.3) AppleWebKit/537.36 (KHTML, like Gecko) Chrome/85.0.4183.102 Safari/537.36",35,"[0.9, 0.5, 0.1]","[0.8, 0.4, 0.2]","[u'black', u'red', u'blue']","[u'left', u'middle', u'right']","[0.9, 0.5, 0.1]","[u'high', u'medium', u'low']","red",50,"middle","medium","True","False",17,2000,NA
"A281ASP4WWAN3E","Wed Sep 23 2020 12:14:16 GMT-0400 (Eastern Daylight Time)","Wed Sep 23 2020 12:49:48 GMT-0400 (Eastern Daylight Time)","Mozilla/5.0 (Windows NT 6.3) AppleWebKit/537.36 (KHTML, like Gecko) Chrome/85.0.4183.102 Safari/537.36",36,"[0.9, 0.5, 0.1]","[0.8, 0.4, 0.2]","[u'black', u'red', u'blue']","[u'left', u'middle', u'right']","[0.9, 0.5, 0.1]","[u'high', u'medium', u'low']","red",50,"middle","medium","True","False",180,2100,NA
"A281ASP4WWAN3E","Wed Sep 23 2020 12:14:16 GMT-0400 (Eastern Daylight Time)","Wed Sep 23 2020 12:49:48 GMT-0400 (Eastern Daylight Time)","Mozilla/5.0 (Windows NT 6.3) AppleWebKit/537.36 (KHTML, like Gecko) Chrome/85.0.4183.102 Safari/537.36",37,"[0.9, 0.5, 0.1]","[0.8, 0.4, 0.2]","[u'black', u'red', u'blue']","[u'left', u'middle', u'right']","[0.9, 0.5, 0.1]","[u'high', u'medium', u'low']","red",50,"middle","medium","False","False",229,2050,NA
"A281ASP4WWAN3E","Wed Sep 23 2020 12:14:16 GMT-0400 (Eastern Daylight Time)","Wed Sep 23 2020 12:49:48 GMT-0400 (Eastern Daylight Time)","Mozilla/5.0 (Windows NT 6.3) AppleWebKit/537.36 (KHTML, like Gecko) Chrome/85.0.4183.102 Safari/537.36",38,"[0.9, 0.5, 0.1]","[0.8, 0.4, 0.2]","[u'black', u'red', u'blue']","[u'left', u'middle', u'right']","[0.9, 0.5, 0.1]","[u'high', u'medium', u'low']","red",50,"middle","medium","False","False",18,2000,NA
"A281ASP4WWAN3E","Wed Sep 23 2020 12:14:16 GMT-0400 (Eastern Daylight Time)","Wed Sep 23 2020 12:49:48 GMT-0400 (Eastern Daylight Time)","Mozilla/5.0 (Windows NT 6.3) AppleWebKit/537.36 (KHTML, like Gecko) Chrome/85.0.4183.102 Safari/537.36",39,"[0.9, 0.5, 0.1]","[0.8, 0.4, 0.2]","[u'black', u'red', u'blue']","[u'left', u'middle', u'right']","[0.9, 0.5, 0.1]","[u'high', u'medium', u'low']","red",50,"middle","medium","True","False",195,2100,NA
"A281ASP4WWAN3E","Wed Sep 23 2020 12:14:16 GMT-0400 (Eastern Daylight Time)","Wed Sep 23 2020 12:49:48 GMT-0400 (Eastern Daylight Time)","Mozilla/5.0 (Windows NT 6.3) AppleWebKit/537.36 (KHTML, like Gecko) Chrome/85.0.4183.102 Safari/537.36",40,"[0.9, 0.5, 0.1]","[0.8, 0.4, 0.2]","[u'black', u'red', u'blue']","[u'left', u'middle', u'right']","[0.9, 0.5, 0.1]","[u'high', u'medium', u'low']","red",50,"middle","medium","False","False",242,2050,NA
"A281ASP4WWAN3E","Wed Sep 23 2020 12:14:16 GMT-0400 (Eastern Daylight Time)","Wed Sep 23 2020 12:49:48 GMT-0400 (Eastern Daylight Time)","Mozilla/5.0 (Windows NT 6.3) AppleWebKit/537.36 (KHTML, like Gecko) Chrome/85.0.4183.102 Safari/537.36",41,"[0.9, 0.5, 0.1]","[0.8, 0.4, 0.2]","[u'black', u'red', u'blue']","[u'left', u'middle', u'right']","[0.9, 0.5, 0.1]","[u'medium', u'low', u'high']","red",50,"middle","low","False","False",323,2000,NA
"A281ASP4WWAN3E","Wed Sep 23 2020 12:14:16 GMT-0400 (Eastern Daylight Time)","Wed Sep 23 2020 12:49:48 GMT-0400 (Eastern Daylight Time)","Mozilla/5.0 (Windows NT 6.3) AppleWebKit/537.36 (KHTML, like Gecko) Chrome/85.0.4183.102 Safari/537.36",42,"[0.9, 0.5, 0.1]","[0.8, 0.4, 0.2]","[u'black', u'red', u'blue']","[u'left', u'middle', u'right']","[0.9, 0.5, 0.1]","[u'medium', u'low', u'high']","blue",51,"right","high","True","False",220,2100,NA
"A281ASP4WWAN3E","Wed Sep 23 2020 12:14:16 GMT-0400 (Eastern Daylight Time)","Wed Sep 23 2020 12:49:48 GMT-0400 (Eastern Daylight Time)","Mozilla/5.0 (Windows NT 6.3) AppleWebKit/537.36 (KHTML, like Gecko) Chrome/85.0.4183.102 Safari/537.36",43,"[0.9, 0.5, 0.1]","[0.8, 0.4, 0.2]","[u'black', u'red', u'blue']","[u'left', u'middle', u'right']","[0.9, 0.5, 0.1]","[u'medium', u'low', u'high']","blue",51,"right","high","True","False",113,2200,NA
"A281ASP4WWAN3E","Wed Sep 23 2020 12:14:16 GMT-0400 (Eastern Daylight Time)","Wed Sep 23 2020 12:49:48 GMT-0400 (Eastern Daylight Time)","Mozilla/5.0 (Windows NT 6.3) AppleWebKit/537.36 (KHTML, like Gecko) Chrome/85.0.4183.102 Safari/537.36",44,"[0.9, 0.5, 0.1]","[0.8, 0.4, 0.2]","[u'black', u'red', u'blue']","[u'left', u'middle', u'right']","[0.9, 0.5, 0.1]","[u'medium', u'low', u'high']","blue",51,"right","high","True","False",236,2300,NA
"A281ASP4WWAN3E","Wed Sep 23 2020 12:14:16 GMT-0400 (Eastern Daylight Time)","Wed Sep 23 2020 12:49:48 GMT-0400 (Eastern Daylight Time)","Mozilla/5.0 (Windows NT 6.3) AppleWebKit/537.36 (KHTML, like Gecko) Chrome/85.0.4183.102 Safari/537.36",45,"[0.9, 0.5, 0.1]","[0.8, 0.4, 0.2]","[u'black', u'red', u'blue']","[u'left', u'middle', u'right']","[0.9, 0.5, 0.1]","[u'medium', u'low', u'high']","blue",51,"right","high","True","False",251,2400,NA
"A281ASP4WWAN3E","Wed Sep 23 2020 12:14:16 GMT-0400 (Eastern Daylight Time)","Wed Sep 23 2020 12:49:48 GMT-0400 (Eastern Daylight Time)","Mozilla/5.0 (Windows NT 6.3) AppleWebKit/537.36 (KHTML, like Gecko) Chrome/85.0.4183.102 Safari/537.36",46,"[0.9, 0.5, 0.1]","[0.8, 0.4, 0.2]","[u'black', u'red', u'blue']","[u'left', u'middle', u'right']","[0.9, 0.5, 0.1]","[u'medium', u'low', u'high']","blue",51,"right","high","False","False",218,2350,NA
"A281ASP4WWAN3E","Wed Sep 23 2020 12:14:16 GMT-0400 (Eastern Daylight Time)","Wed Sep 23 2020 12:49:48 GMT-0400 (Eastern Daylight Time)","Mozilla/5.0 (Windows NT 6.3) AppleWebKit/537.36 (KHTML, like Gecko) Chrome/85.0.4183.102 Safari/537.36",47,"[0.9, 0.5, 0.1]","[0.8, 0.4, 0.2]","[u'black', u'red', u'blue']","[u'left', u'middle', u'right']","[0.9, 0.5, 0.1]","[u'medium', u'low', u'high']","blue",51,"right","high","True","False",52,2450,NA
"A281ASP4WWAN3E","Wed Sep 23 2020 12:14:16 GMT-0400 (Eastern Daylight Time)","Wed Sep 23 2020 12:49:48 GMT-0400 (Eastern Daylight Time)","Mozilla/5.0 (Windows NT 6.3) AppleWebKit/537.36 (KHTML, like Gecko) Chrome/85.0.4183.102 Safari/537.36",48,"[0.9, 0.5, 0.1]","[0.8, 0.4, 0.2]","[u'black', u'red', u'blue']","[u'left', u'middle', u'right']","[0.9, 0.5, 0.1]","[u'medium', u'low', u'high']","blue",51,"right","high","True","False",122,2550,NA
"A281ASP4WWAN3E","Wed Sep 23 2020 12:14:16 GMT-0400 (Eastern Daylight Time)","Wed Sep 23 2020 12:49:48 GMT-0400 (Eastern Daylight Time)","Mozilla/5.0 (Windows NT 6.3) AppleWebKit/537.36 (KHTML, like Gecko) Chrome/85.0.4183.102 Safari/537.36",49,"[0.9, 0.5, 0.1]","[0.8, 0.4, 0.2]","[u'black', u'red', u'blue']","[u'left', u'middle', u'right']","[0.9, 0.5, 0.1]","[u'medium', u'low', u'high']","blue",51,"right","high","True","False",171,2650,NA
"A281ASP4WWAN3E","Wed Sep 23 2020 12:14:16 GMT-0400 (Eastern Daylight Time)","Wed Sep 23 2020 12:49:48 GMT-0400 (Eastern Daylight Time)","Mozilla/5.0 (Windows NT 6.3) AppleWebKit/537.36 (KHTML, like Gecko) Chrome/85.0.4183.102 Safari/537.36",50,"[0.9, 0.5, 0.1]","[0.8, 0.4, 0.2]","[u'black', u'red', u'blue']","[u'left', u'middle', u'right']","[0.9, 0.5, 0.1]","[u'medium', u'low', u'high']","blue",51,"right","high","True","True",178,2750,NA
"A281ASP4WWAN3E","Wed Sep 23 2020 12:14:16 GMT-0400 (Eastern Daylight Time)","Wed Sep 23 2020 12:49:48 GMT-0400 (Eastern Daylight Time)","Mozilla/5.0 (Windows NT 6.3) AppleWebKit/537.36 (KHTML, like Gecko) Chrome/85.0.4183.102 Safari/537.36",51,"[0.9, 0.5, 0.1]","[0.8, 0.4, 0.2]","[u'black', u'red', u'blue']","[u'left', u'middle', u'right']","[0.9, 0.5, 0.1]","[u'high', u'low', u'medium']","blue",51,"right","medium","False","False",179,2700,NA
"A281ASP4WWAN3E","Wed Sep 23 2020 12:14:16 GMT-0400 (Eastern Daylight Time)","Wed Sep 23 2020 12:49:48 GMT-0400 (Eastern Daylight Time)","Mozilla/5.0 (Windows NT 6.3) AppleWebKit/537.36 (KHTML, like Gecko) Chrome/85.0.4183.102 Safari/537.36",52,"[0.9, 0.5, 0.1]","[0.8, 0.4, 0.2]","[u'black', u'red', u'blue']","[u'left', u'middle', u'right']","[0.9, 0.5, 0.1]","[u'high', u'low', u'medium']","blue",51,"right","medium","True","False",122,2800,NA
"A281ASP4WWAN3E","Wed Sep 23 2020 12:14:16 GMT-0400 (Eastern Daylight Time)","Wed Sep 23 2020 12:49:48 GMT-0400 (Eastern Daylight Time)","Mozilla/5.0 (Windows NT 6.3) AppleWebKit/537.36 (KHTML, like Gecko) Chrome/85.0.4183.102 Safari/537.36",53,"[0.9, 0.5, 0.1]","[0.8, 0.4, 0.2]","[u'black', u'red', u'blue']","[u'left', u'middle', u'right']","[0.9, 0.5, 0.1]","[u'high', u'low', u'medium']","blue",51,"right","medium","True","False",67,2900,NA
"A281ASP4WWAN3E","Wed Sep 23 2020 12:14:16 GMT-0400 (Eastern Daylight Time)","Wed Sep 23 2020 12:49:48 GMT-0400 (Eastern Daylight Time)","Mozilla/5.0 (Windows NT 6.3) AppleWebKit/537.36 (KHTML, like Gecko) Chrome/85.0.4183.102 Safari/537.36",54,"[0.9, 0.5, 0.1]","[0.8, 0.4, 0.2]","[u'black', u'red', u'blue']","[u'left', u'middle', u'right']","[0.9, 0.5, 0.1]","[u'high', u'low', u'medium']","blue",51,"right","medium","False","False",114,2850,NA
"A281ASP4WWAN3E","Wed Sep 23 2020 12:14:16 GMT-0400 (Eastern Daylight Time)","Wed Sep 23 2020 12:49:48 GMT-0400 (Eastern Daylight Time)","Mozilla/5.0 (Windows NT 6.3) AppleWebKit/537.36 (KHTML, like Gecko) Chrome/85.0.4183.102 Safari/537.36",55,"[0.9, 0.5, 0.1]","[0.8, 0.4, 0.2]","[u'black', u'red', u'blue']","[u'left', u'middle', u'right']","[0.9, 0.5, 0.1]","[u'high', u'low', u'medium']","blue",51,"right","medium","False","False",19,2800,NA
"A281ASP4WWAN3E","Wed Sep 23 2020 12:14:16 GMT-0400 (Eastern Daylight Time)","Wed Sep 23 2020 12:49:48 GMT-0400 (Eastern Daylight Time)","Mozilla/5.0 (Windows NT 6.3) AppleWebKit/537.36 (KHTML, like Gecko) Chrome/85.0.4183.102 Safari/537.36",56,"[0.9, 0.5, 0.1]","[0.8, 0.4, 0.2]","[u'black', u'red', u'blue']","[u'left', u'middle', u'right']","[0.9, 0.5, 0.1]","[u'high', u'low', u'medium']","red",50,"middle","low","False","False",84,2750,NA
"A281ASP4WWAN3E","Wed Sep 23 2020 12:14:16 GMT-0400 (Eastern Daylight Time)","Wed Sep 23 2020 12:49:48 GMT-0400 (Eastern Daylight Time)","Mozilla/5.0 (Windows NT 6.3) AppleWebKit/537.36 (KHTML, like Gecko) Chrome/85.0.4183.102 Safari/537.36",57,"[0.9, 0.5, 0.1]","[0.8, 0.4, 0.2]","[u'black', u'red', u'blue']","[u'left', u'middle', u'right']","[0.9, 0.5, 0.1]","[u'high', u'low', u'medium']","black",49,"left","high","True","False",90,2850,NA
"A281ASP4WWAN3E","Wed Sep 23 2020 12:14:16 GMT-0400 (Eastern Daylight Time)","Wed Sep 23 2020 12:49:48 GMT-0400 (Eastern Daylight Time)","Mozilla/5.0 (Windows NT 6.3) AppleWebKit/537.36 (KHTML, like Gecko) Chrome/85.0.4183.102 Safari/537.36",58,"[0.9, 0.5, 0.1]","[0.8, 0.4, 0.2]","[u'black', u'red', u'blue']","[u'left', u'middle', u'right']","[0.9, 0.5, 0.1]","[u'high', u'low', u'medium']","black",49,"left","high","False","False",219,2800,NA
"A281ASP4WWAN3E","Wed Sep 23 2020 12:14:16 GMT-0400 (Eastern Daylight Time)","Wed Sep 23 2020 12:49:48 GMT-0400 (Eastern Daylight Time)","Mozilla/5.0 (Windows NT 6.3) AppleWebKit/537.36 (KHTML, like Gecko) Chrome/85.0.4183.102 Safari/537.36",59,"[0.9, 0.5, 0.1]","[0.8, 0.4, 0.2]","[u'black', u'red', u'blue']","[u'left', u'middle', u'right']","[0.9, 0.5, 0.1]","[u'high', u'low', u'medium']","blue",51,"right","medium","True","False",1689443,2900,NA
"A281ASP4WWAN3E","Wed Sep 23 2020 12:14:16 GMT-0400 (Eastern Daylight Time)","Wed Sep 23 2020 12:49:48 GMT-0400 (Eastern Daylight Time)","Mozilla/5.0 (Windows NT 6.3) AppleWebKit/537.36 (KHTML, like Gecko) Chrome/85.0.4183.102 Safari/537.36",60,"[0.9, 0.5, 0.1]","[0.8, 0.4, 0.2]","[u'black', u'red', u'blue']","[u'left', u'middle', u'right']","[0.9, 0.5, 0.1]","[u'high', u'low', u'medium']","blue",51,"right","medium","True","False",290,3000,NA
"A281ASP4WWAN3E","Wed Sep 23 2020 12:14:16 GMT-0400 (Eastern Daylight Time)","Wed Sep 23 2020 12:49:48 GMT-0400 (Eastern Daylight Time)","Mozilla/5.0 (Windows NT 6.3) AppleWebKit/537.36 (KHTML, like Gecko) Chrome/85.0.4183.102 Safari/537.36",61,"[0.9, 0.5, 0.1]","[0.8, 0.4, 0.2]","[u'black', u'red', u'blue']","[u'left', u'middle', u'right']","[0.9, 0.5, 0.1]","[u'high', u'low', u'medium']","blue",51,"right","medium","False","False",251,2950,NA
"A281ASP4WWAN3E","Wed Sep 23 2020 12:14:16 GMT-0400 (Eastern Daylight Time)","Wed Sep 23 2020 12:49:48 GMT-0400 (Eastern Daylight Time)","Mozilla/5.0 (Windows NT 6.3) AppleWebKit/537.36 (KHTML, like Gecko) Chrome/85.0.4183.102 Safari/537.36",62,"[0.9, 0.5, 0.1]","[0.8, 0.4, 0.2]","[u'black', u'red', u'blue']","[u'left', u'middle', u'right']","[0.9, 0.5, 0.1]","[u'high', u'low', u'medium']","blue",51,"right","medium","False","False",330,2900,NA
"A281ASP4WWAN3E","Wed Sep 23 2020 12:14:16 GMT-0400 (Eastern Daylight Time)","Wed Sep 23 2020 12:49:48 GMT-0400 (Eastern Daylight Time)","Mozilla/5.0 (Windows NT 6.3) AppleWebKit/537.36 (KHTML, like Gecko) Chrome/85.0.4183.102 Safari/537.36",63,"[0.9, 0.5, 0.1]","[0.8, 0.4, 0.2]","[u'black', u'red', u'blue']","[u'left', u'middle', u'right']","[0.9, 0.5, 0.1]","[u'high', u'low', u'medium']","red",50,"middle","low","True","False",35,3000,NA
"A281ASP4WWAN3E","Wed Sep 23 2020 12:14:16 GMT-0400 (Eastern Daylight Time)","Wed Sep 23 2020 12:49:48 GMT-0400 (Eastern Daylight Time)","Mozilla/5.0 (Windows NT 6.3) AppleWebKit/537.36 (KHTML, like Gecko) Chrome/85.0.4183.102 Safari/537.36",64,"[0.9, 0.5, 0.1]","[0.8, 0.4, 0.2]","[u'black', u'red', u'blue']","[u'left', u'middle', u'right']","[0.9, 0.5, 0.1]","[u'high', u'low', u'medium']","red",50,"middle","low","False","False",283,2950,NA
"A281ASP4WWAN3E","Wed Sep 23 2020 12:14:16 GMT-0400 (Eastern Daylight Time)","Wed Sep 23 2020 12:49:48 GMT-0400 (Eastern Daylight Time)","Mozilla/5.0 (Windows NT 6.3) AppleWebKit/537.36 (KHTML, like Gecko) Chrome/85.0.4183.102 Safari/537.36",65,"[0.9, 0.5, 0.1]","[0.8, 0.4, 0.2]","[u'black', u'red', u'blue']","[u'left', u'middle', u'right']","[0.9, 0.5, 0.1]","[u'high', u'low', u'medium']","black",49,"left","high","True","False",196,3050,NA
"A281ASP4WWAN3E","Wed Sep 23 2020 12:14:16 GMT-0400 (Eastern Daylight Time)","Wed Sep 23 2020 12:49:48 GMT-0400 (Eastern Daylight Time)","Mozilla/5.0 (Windows NT 6.3) AppleWebKit/537.36 (KHTML, like Gecko) Chrome/85.0.4183.102 Safari/537.36",66,"[0.9, 0.5, 0.1]","[0.8, 0.4, 0.2]","[u'black', u'red', u'blue']","[u'left', u'middle', u'right']","[0.9, 0.5, 0.1]","[u'high', u'low', u'medium']","black",49,"left","high","False","False",274,3000,NA
"A281ASP4WWAN3E","Wed Sep 23 2020 12:14:16 GMT-0400 (Eastern Daylight Time)","Wed Sep 23 2020 12:49:48 GMT-0400 (Eastern Daylight Time)","Mozilla/5.0 (Windows NT 6.3) AppleWebKit/537.36 (KHTML, like Gecko) Chrome/85.0.4183.102 Safari/537.36",67,"[0.9, 0.5, 0.1]","[0.8, 0.4, 0.2]","[u'black', u'red', u'blue']","[u'left', u'middle', u'right']","[0.9, 0.5, 0.1]","[u'high', u'low', u'medium']","blue",51,"right","medium","True","False",147,3100,NA
"A281ASP4WWAN3E","Wed Sep 23 2020 12:14:16 GMT-0400 (Eastern Daylight Time)","Wed Sep 23 2020 12:49:48 GMT-0400 (Eastern Daylight Time)","Mozilla/5.0 (Windows NT 6.3) AppleWebKit/537.36 (KHTML, like Gecko) Chrome/85.0.4183.102 Safari/537.36",68,"[0.9, 0.5, 0.1]","[0.8, 0.4, 0.2]","[u'black', u'red', u'blue']","[u'left', u'middle', u'right']","[0.9, 0.5, 0.1]","[u'high', u'low', u'medium']","blue",51,"right","medium","False","False",4,3050,NA
"A281ASP4WWAN3E","Wed Sep 23 2020 12:14:16 GMT-0400 (Eastern Daylight Time)","Wed Sep 23 2020 12:49:48 GMT-0400 (Eastern Daylight Time)","Mozilla/5.0 (Windows NT 6.3) AppleWebKit/537.36 (KHTML, like Gecko) Chrome/85.0.4183.102 Safari/537.36",69,"[0.9, 0.5, 0.1]","[0.8, 0.4, 0.2]","[u'black', u'red', u'blue']","[u'left', u'middle', u'right']","[0.9, 0.5, 0.1]","[u'high', u'low', u'medium']","blue",51,"right","medium","True","False",2,3150,NA
"A281ASP4WWAN3E","Wed Sep 23 2020 12:14:16 GMT-0400 (Eastern Daylight Time)","Wed Sep 23 2020 12:49:48 GMT-0400 (Eastern Daylight Time)","Mozilla/5.0 (Windows NT 6.3) AppleWebKit/537.36 (KHTML, like Gecko) Chrome/85.0.4183.102 Safari/537.36",70,"[0.9, 0.5, 0.1]","[0.8, 0.4, 0.2]","[u'black', u'red', u'blue']","[u'left', u'middle', u'right']","[0.9, 0.5, 0.1]","[u'high', u'low', u'medium']","black",49,"left","high","True","False",1059,3250,NA
"A281ASP4WWAN3E","Wed Sep 23 2020 12:14:16 GMT-0400 (Eastern Daylight Time)","Wed Sep 23 2020 12:49:48 GMT-0400 (Eastern Daylight Time)","Mozilla/5.0 (Windows NT 6.3) AppleWebKit/537.36 (KHTML, like Gecko) Chrome/85.0.4183.102 Safari/537.36",71,"[0.9, 0.5, 0.1]","[0.8, 0.4, 0.2]","[u'black', u'red', u'blue']","[u'left', u'middle', u'right']","[0.9, 0.5, 0.1]","[u'high', u'low', u'medium']","black",49,"left","high","True","False",220,3350,NA
"A281ASP4WWAN3E","Wed Sep 23 2020 12:14:16 GMT-0400 (Eastern Daylight Time)","Wed Sep 23 2020 12:49:48 GMT-0400 (Eastern Daylight Time)","Mozilla/5.0 (Windows NT 6.3) AppleWebKit/537.36 (KHTML, like Gecko) Chrome/85.0.4183.102 Safari/537.36",72,"[0.9, 0.5, 0.1]","[0.8, 0.4, 0.2]","[u'black', u'red', u'blue']","[u'left', u'middle', u'right']","[0.9, 0.5, 0.1]","[u'high', u'low', u'medium']","black",49,"left","high","True","False",337,3450,NA
"A281ASP4WWAN3E","Wed Sep 23 2020 12:14:16 GMT-0400 (Eastern Daylight Time)","Wed Sep 23 2020 12:49:48 GMT-0400 (Eastern Daylight Time)","Mozilla/5.0 (Windows NT 6.3) AppleWebKit/537.36 (KHTML, like Gecko) Chrome/85.0.4183.102 Safari/537.36",73,"[0.9, 0.5, 0.1]","[0.8, 0.4, 0.2]","[u'black', u'red', u'blue']","[u'left', u'middle', u'right']","[0.9, 0.5, 0.1]","[u'high', u'low', u'medium']","black",49,"left","high","True","False",923,3550,NA
"A281ASP4WWAN3E","Wed Sep 23 2020 12:14:16 GMT-0400 (Eastern Daylight Time)","Wed Sep 23 2020 12:49:48 GMT-0400 (Eastern Daylight Time)","Mozilla/5.0 (Windows NT 6.3) AppleWebKit/537.36 (KHTML, like Gecko) Chrome/85.0.4183.102 Safari/537.36",74,"[0.9, 0.5, 0.1]","[0.8, 0.4, 0.2]","[u'black', u'red', u'blue']","[u'left', u'middle', u'right']","[0.9, 0.5, 0.1]","[u'high', u'low', u'medium']","black",49,"left","high","True","False",410,3650,NA
"A281ASP4WWAN3E","Wed Sep 23 2020 12:14:16 GMT-0400 (Eastern Daylight Time)","Wed Sep 23 2020 12:49:48 GMT-0400 (Eastern Daylight Time)","Mozilla/5.0 (Windows NT 6.3) AppleWebKit/537.36 (KHTML, like Gecko) Chrome/85.0.4183.102 Safari/537.36",75,"[0.9, 0.5, 0.1]","[0.8, 0.4, 0.2]","[u'black', u'red', u'blue']","[u'left', u'middle', u'right']","[0.9, 0.5, 0.1]","[u'high', u'low', u'medium']","black",49,"left","high","False","False",557,3600,NA
"A281ASP4WWAN3E","Wed Sep 23 2020 12:14:16 GMT-0400 (Eastern Daylight Time)","Wed Sep 23 2020 12:49:48 GMT-0400 (Eastern Daylight Time)","Mozilla/5.0 (Windows NT 6.3) AppleWebKit/537.36 (KHTML, like Gecko) Chrome/85.0.4183.102 Safari/537.36",76,"[0.9, 0.5, 0.1]","[0.8, 0.4, 0.2]","[u'black', u'red', u'blue']","[u'left', u'middle', u'right']","[0.9, 0.5, 0.1]","[u'high', u'low', u'medium']","black",49,"left","high","True","False",257,3700,NA
"A281ASP4WWAN3E","Wed Sep 23 2020 12:14:16 GMT-0400 (Eastern Daylight Time)","Wed Sep 23 2020 12:49:48 GMT-0400 (Eastern Daylight Time)","Mozilla/5.0 (Windows NT 6.3) AppleWebKit/537.36 (KHTML, like Gecko) Chrome/85.0.4183.102 Safari/537.36",77,"[0.9, 0.5, 0.1]","[0.8, 0.4, 0.2]","[u'black', u'red', u'blue']","[u'left', u'middle', u'right']","[0.9, 0.5, 0.1]","[u'high', u'low', u'medium']","black",49,"left","high","True","False",245,3800,NA
"A281ASP4WWAN3E","Wed Sep 23 2020 12:14:16 GMT-0400 (Eastern Daylight Time)","Wed Sep 23 2020 12:49:48 GMT-0400 (Eastern Daylight Time)","Mozilla/5.0 (Windows NT 6.3) AppleWebKit/537.36 (KHTML, like Gecko) Chrome/85.0.4183.102 Safari/537.36",78,"[0.9, 0.5, 0.1]","[0.8, 0.4, 0.2]","[u'black', u'red', u'blue']","[u'left', u'middle', u'right']","[0.9, 0.5, 0.1]","[u'high', u'low', u'medium']","black",49,"left","high","True","True",153,3900,NA
"A281ASP4WWAN3E","Wed Sep 23 2020 12:14:16 GMT-0400 (Eastern Daylight Time)","Wed Sep 23 2020 12:49:48 GMT-0400 (Eastern Daylight Time)","Mozilla/5.0 (Windows NT 6.3) AppleWebKit/537.36 (KHTML, like Gecko) Chrome/85.0.4183.102 Safari/537.36",79,"[0.9, 0.5, 0.1]","[0.8, 0.4, 0.2]","[u'black', u'red', u'blue']","[u'left', u'middle', u'right']","[0.9, 0.5, 0.1]","[u'low', u'medium', u'high']","black",49,"left","low","False","False",213,3850,NA
"A281ASP4WWAN3E","Wed Sep 23 2020 12:14:16 GMT-0400 (Eastern Daylight Time)","Wed Sep 23 2020 12:49:48 GMT-0400 (Eastern Daylight Time)","Mozilla/5.0 (Windows NT 6.3) AppleWebKit/537.36 (KHTML, like Gecko) Chrome/85.0.4183.102 Safari/537.36",80,"[0.9, 0.5, 0.1]","[0.8, 0.4, 0.2]","[u'black', u'red', u'blue']","[u'left', u'middle', u'right']","[0.9, 0.5, 0.1]","[u'low', u'medium', u'high']","black",49,"left","low","False","False",4,3800,NA
"A281ASP4WWAN3E","Wed Sep 23 2020 12:14:16 GMT-0400 (Eastern Daylight Time)","Wed Sep 23 2020 12:49:48 GMT-0400 (Eastern Daylight Time)","Mozilla/5.0 (Windows NT 6.3) AppleWebKit/537.36 (KHTML, like Gecko) Chrome/85.0.4183.102 Safari/537.36",81,"[0.9, 0.5, 0.1]","[0.8, 0.4, 0.2]","[u'black', u'red', u'blue']","[u'left', u'middle', u'right']","[0.8, 0.4, 0.2]","[u'low', u'high', u'medium']","red",50,"middle","high","True","False",228,3900,NA
"A281ASP4WWAN3E","Wed Sep 23 2020 12:14:16 GMT-0400 (Eastern Daylight Time)","Wed Sep 23 2020 12:49:48 GMT-0400 (Eastern Daylight Time)","Mozilla/5.0 (Windows NT 6.3) AppleWebKit/537.36 (KHTML, like Gecko) Chrome/85.0.4183.102 Safari/537.36",82,"[0.9, 0.5, 0.1]","[0.8, 0.4, 0.2]","[u'black', u'red', u'blue']","[u'left', u'middle', u'right']","[0.8, 0.4, 0.2]","[u'low', u'high', u'medium']","red",50,"middle","high","True","False",162,4000,NA
"A281ASP4WWAN3E","Wed Sep 23 2020 12:14:16 GMT-0400 (Eastern Daylight Time)","Wed Sep 23 2020 12:49:48 GMT-0400 (Eastern Daylight Time)","Mozilla/5.0 (Windows NT 6.3) AppleWebKit/537.36 (KHTML, like Gecko) Chrome/85.0.4183.102 Safari/537.36",83,"[0.9, 0.5, 0.1]","[0.8, 0.4, 0.2]","[u'black', u'red', u'blue']","[u'left', u'middle', u'right']","[0.8, 0.4, 0.2]","[u'low', u'high', u'medium']","red",50,"middle","high","True","False",267,4100,NA
"A281ASP4WWAN3E","Wed Sep 23 2020 12:14:16 GMT-0400 (Eastern Daylight Time)","Wed Sep 23 2020 12:49:48 GMT-0400 (Eastern Daylight Time)","Mozilla/5.0 (Windows NT 6.3) AppleWebKit/537.36 (KHTML, like Gecko) Chrome/85.0.4183.102 Safari/537.36",84,"[0.9, 0.5, 0.1]","[0.8, 0.4, 0.2]","[u'black', u'red', u'blue']","[u'left', u'middle', u'right']","[0.8, 0.4, 0.2]","[u'low', u'high', u'medium']","red",50,"middle","high","True","False",45967,4200,NA
"A281ASP4WWAN3E","Wed Sep 23 2020 12:14:16 GMT-0400 (Eastern Daylight Time)","Wed Sep 23 2020 12:49:48 GMT-0400 (Eastern Daylight Time)","Mozilla/5.0 (Windows NT 6.3) AppleWebKit/537.36 (KHTML, like Gecko) Chrome/85.0.4183.102 Safari/537.36",85,"[0.9, 0.5, 0.1]","[0.8, 0.4, 0.2]","[u'black', u'red', u'blue']","[u'left', u'middle', u'right']","[0.8, 0.4, 0.2]","[u'low', u'high', u'medium']","red",50,"middle","high","True","False",313,4300,NA
"A281ASP4WWAN3E","Wed Sep 23 2020 12:14:16 GMT-0400 (Eastern Daylight Time)","Wed Sep 23 2020 12:49:48 GMT-0400 (Eastern Daylight Time)","Mozilla/5.0 (Windows NT 6.3) AppleWebKit/537.36 (KHTML, like Gecko) Chrome/85.0.4183.102 Safari/537.36",86,"[0.9, 0.5, 0.1]","[0.8, 0.4, 0.2]","[u'black', u'red', u'blue']","[u'left', u'middle', u'right']","[0.8, 0.4, 0.2]","[u'low', u'high', u'medium']","red",50,"middle","high","True","False",251,4400,NA
"A281ASP4WWAN3E","Wed Sep 23 2020 12:14:16 GMT-0400 (Eastern Daylight Time)","Wed Sep 23 2020 12:49:48 GMT-0400 (Eastern Daylight Time)","Mozilla/5.0 (Windows NT 6.3) AppleWebKit/537.36 (KHTML, like Gecko) Chrome/85.0.4183.102 Safari/537.36",87,"[0.9, 0.5, 0.1]","[0.8, 0.4, 0.2]","[u'black', u'red', u'blue']","[u'left', u'middle', u'right']","[0.8, 0.4, 0.2]","[u'low', u'high', u'medium']","red",50,"middle","high","True","False",227,4500,NA
"A281ASP4WWAN3E","Wed Sep 23 2020 12:14:16 GMT-0400 (Eastern Daylight Time)","Wed Sep 23 2020 12:49:48 GMT-0400 (Eastern Daylight Time)","Mozilla/5.0 (Windows NT 6.3) AppleWebKit/537.36 (KHTML, like Gecko) Chrome/85.0.4183.102 Safari/537.36",88,"[0.9, 0.5, 0.1]","[0.8, 0.4, 0.2]","[u'black', u'red', u'blue']","[u'left', u'middle', u'right']","[0.8, 0.4, 0.2]","[u'low', u'high', u'medium']","red",50,"middle","high","True","False",252,4600,NA
"A281ASP4WWAN3E","Wed Sep 23 2020 12:14:16 GMT-0400 (Eastern Daylight Time)","Wed Sep 23 2020 12:49:48 GMT-0400 (Eastern Daylight Time)","Mozilla/5.0 (Windows NT 6.3) AppleWebKit/537.36 (KHTML, like Gecko) Chrome/85.0.4183.102 Safari/537.36",89,"[0.9, 0.5, 0.1]","[0.8, 0.4, 0.2]","[u'black', u'red', u'blue']","[u'left', u'middle', u'right']","[0.8, 0.4, 0.2]","[u'low', u'high', u'medium']","red",50,"middle","high","True","True",251,4700,NA
"A281ASP4WWAN3E","Wed Sep 23 2020 12:14:16 GMT-0400 (Eastern Daylight Time)","Wed Sep 23 2020 12:49:48 GMT-0400 (Eastern Daylight Time)","Mozilla/5.0 (Windows NT 6.3) AppleWebKit/537.36 (KHTML, like Gecko) Chrome/85.0.4183.102 Safari/537.36",90,"[0.9, 0.5, 0.1]","[0.8, 0.4, 0.2]","[u'black', u'red', u'blue']","[u'left', u'middle', u'right']","[0.8, 0.4, 0.2]","[u'medium', u'low', u'high']","red",50,"middle","low","True","False",4396,4800,NA
"A281ASP4WWAN3E","Wed Sep 23 2020 12:14:16 GMT-0400 (Eastern Daylight Time)","Wed Sep 23 2020 12:49:48 GMT-0400 (Eastern Daylight Time)","Mozilla/5.0 (Windows NT 6.3) AppleWebKit/537.36 (KHTML, like Gecko) Chrome/85.0.4183.102 Safari/537.36",91,"[0.9, 0.5, 0.1]","[0.8, 0.4, 0.2]","[u'black', u'red', u'blue']","[u'left', u'middle', u'right']","[0.8, 0.4, 0.2]","[u'medium', u'low', u'high']","red",50,"middle","low","False","False",4483,4750,NA
"A281ASP4WWAN3E","Wed Sep 23 2020 12:14:16 GMT-0400 (Eastern Daylight Time)","Wed Sep 23 2020 12:49:48 GMT-0400 (Eastern Daylight Time)","Mozilla/5.0 (Windows NT 6.3) AppleWebKit/537.36 (KHTML, like Gecko) Chrome/85.0.4183.102 Safari/537.36",92,"[0.9, 0.5, 0.1]","[0.8, 0.4, 0.2]","[u'black', u'red', u'blue']","[u'left', u'middle', u'right']","[0.8, 0.4, 0.2]","[u'medium', u'low', u'high']","black",49,"left","medium","False","False",483,4700,NA
"A281ASP4WWAN3E","Wed Sep 23 2020 12:14:16 GMT-0400 (Eastern Daylight Time)","Wed Sep 23 2020 12:49:48 GMT-0400 (Eastern Daylight Time)","Mozilla/5.0 (Windows NT 6.3) AppleWebKit/537.36 (KHTML, like Gecko) Chrome/85.0.4183.102 Safari/537.36",93,"[0.9, 0.5, 0.1]","[0.8, 0.4, 0.2]","[u'black', u'red', u'blue']","[u'left', u'middle', u'right']","[0.8, 0.4, 0.2]","[u'medium', u'low', u'high']","blue",51,"right","high","True","False",789,4800,NA
"A281ASP4WWAN3E","Wed Sep 23 2020 12:14:16 GMT-0400 (Eastern Daylight Time)","Wed Sep 23 2020 12:49:48 GMT-0400 (Eastern Daylight Time)","Mozilla/5.0 (Windows NT 6.3) AppleWebKit/537.36 (KHTML, like Gecko) Chrome/85.0.4183.102 Safari/537.36",94,"[0.9, 0.5, 0.1]","[0.8, 0.4, 0.2]","[u'black', u'red', u'blue']","[u'left', u'middle', u'right']","[0.8, 0.4, 0.2]","[u'medium', u'low', u'high']","blue",51,"right","high","True","False",457,4900,NA
"A281ASP4WWAN3E","Wed Sep 23 2020 12:14:16 GMT-0400 (Eastern Daylight Time)","Wed Sep 23 2020 12:49:48 GMT-0400 (Eastern Daylight Time)","Mozilla/5.0 (Windows NT 6.3) AppleWebKit/537.36 (KHTML, like Gecko) Chrome/85.0.4183.102 Safari/537.36",95,"[0.9, 0.5, 0.1]","[0.8, 0.4, 0.2]","[u'black', u'red', u'blue']","[u'left', u'middle', u'right']","[0.8, 0.4, 0.2]","[u'medium', u'low', u'high']","blue",51,"right","high","True","False",395,5000,NA
"A281ASP4WWAN3E","Wed Sep 23 2020 12:14:16 GMT-0400 (Eastern Daylight Time)","Wed Sep 23 2020 12:49:48 GMT-0400 (Eastern Daylight Time)","Mozilla/5.0 (Windows NT 6.3) AppleWebKit/537.36 (KHTML, like Gecko) Chrome/85.0.4183.102 Safari/537.36",96,"[0.9, 0.5, 0.1]","[0.8, 0.4, 0.2]","[u'black', u'red', u'blue']","[u'left', u'middle', u'right']","[0.8, 0.4, 0.2]","[u'medium', u'low', u'high']","blue",51,"right","high","True","False",195,5100,NA
"A281ASP4WWAN3E","Wed Sep 23 2020 12:14:16 GMT-0400 (Eastern Daylight Time)","Wed Sep 23 2020 12:49:48 GMT-0400 (Eastern Daylight Time)","Mozilla/5.0 (Windows NT 6.3) AppleWebKit/537.36 (KHTML, like Gecko) Chrome/85.0.4183.102 Safari/537.36",97,"[0.9, 0.5, 0.1]","[0.8, 0.4, 0.2]","[u'black', u'red', u'blue']","[u'left', u'middle', u'right']","[0.8, 0.4, 0.2]","[u'medium', u'low', u'high']","blue",51,"right","high","True","False",139,5200,NA
"A281ASP4WWAN3E","Wed Sep 23 2020 12:14:16 GMT-0400 (Eastern Daylight Time)","Wed Sep 23 2020 12:49:48 GMT-0400 (Eastern Daylight Time)","Mozilla/5.0 (Windows NT 6.3) AppleWebKit/537.36 (KHTML, like Gecko) Chrome/85.0.4183.102 Safari/537.36",98,"[0.9, 0.5, 0.1]","[0.8, 0.4, 0.2]","[u'black', u'red', u'blue']","[u'left', u'middle', u'right']","[0.8, 0.4, 0.2]","[u'medium', u'low', u'high']","blue",51,"right","high","False","False",58,5150,NA
"A281ASP4WWAN3E","Wed Sep 23 2020 12:14:16 GMT-0400 (Eastern Daylight Time)","Wed Sep 23 2020 12:49:48 GMT-0400 (Eastern Daylight Time)","Mozilla/5.0 (Windows NT 6.3) AppleWebKit/537.36 (KHTML, like Gecko) Chrome/85.0.4183.102 Safari/537.36",99,"[0.9, 0.5, 0.1]","[0.8, 0.4, 0.2]","[u'black', u'red', u'blue']","[u'left', u'middle', u'right']","[0.8, 0.4, 0.2]","[u'medium', u'low', u'high']","blue",51,"right","high","True","False",51,5250,NA
"A281ASP4WWAN3E","Wed Sep 23 2020 12:14:16 GMT-0400 (Eastern Daylight Time)","Wed Sep 23 2020 12:49:48 GMT-0400 (Eastern Daylight Time)","Mozilla/5.0 (Windows NT 6.3) AppleWebKit/537.36 (KHTML, like Gecko) Chrome/85.0.4183.102 Safari/537.36",100,"[0.9, 0.5, 0.1]","[0.8, 0.4, 0.2]","[u'black', u'red', u'blue']","[u'left', u'middle', u'right']","[0.8, 0.4, 0.2]","[u'medium', u'low', u'high']","blue",51,"right","high","True","False",146,5350,NA
"A281ASP4WWAN3E","Wed Sep 23 2020 12:14:16 GMT-0400 (Eastern Daylight Time)","Wed Sep 23 2020 12:49:48 GMT-0400 (Eastern Daylight Time)","Mozilla/5.0 (Windows NT 6.3) AppleWebKit/537.36 (KHTML, like Gecko) Chrome/85.0.4183.102 Safari/537.36",101,"[0.9, 0.5, 0.1]","[0.8, 0.4, 0.2]","[u'black', u'red', u'blue']","[u'left', u'middle', u'right']","[0.8, 0.4, 0.2]","[u'medium', u'low', u'high']","blue",51,"right","high","True","True",227,5450,NA
"A281ASP4WWAN3E","Wed Sep 23 2020 12:14:16 GMT-0400 (Eastern Daylight Time)","Wed Sep 23 2020 12:49:48 GMT-0400 (Eastern Daylight Time)","Mozilla/5.0 (Windows NT 6.3) AppleWebKit/537.36 (KHTML, like Gecko) Chrome/85.0.4183.102 Safari/537.36",102,"[0.9, 0.5, 0.1]","[0.8, 0.4, 0.2]","[u'black', u'red', u'blue']","[u'left', u'middle', u'right']","[0.8, 0.4, 0.2]","[u'high', u'low', u'medium']","blue",51,"right","medium","False","False",235,5400,NA
"A281ASP4WWAN3E","Wed Sep 23 2020 12:14:16 GMT-0400 (Eastern Daylight Time)","Wed Sep 23 2020 12:49:48 GMT-0400 (Eastern Daylight Time)","Mozilla/5.0 (Windows NT 6.3) AppleWebKit/537.36 (KHTML, like Gecko) Chrome/85.0.4183.102 Safari/537.36",103,"[0.9, 0.5, 0.1]","[0.8, 0.4, 0.2]","[u'black', u'red', u'blue']","[u'left', u'middle', u'right']","[0.8, 0.4, 0.2]","[u'high', u'low', u'medium']","blue",51,"right","medium","False","False",58,5350,NA
"A281ASP4WWAN3E","Wed Sep 23 2020 12:14:16 GMT-0400 (Eastern Daylight Time)","Wed Sep 23 2020 12:49:48 GMT-0400 (Eastern Daylight Time)","Mozilla/5.0 (Windows NT 6.3) AppleWebKit/537.36 (KHTML, like Gecko) Chrome/85.0.4183.102 Safari/537.36",104,"[0.9, 0.5, 0.1]","[0.8, 0.4, 0.2]","[u'black', u'red', u'blue']","[u'left', u'middle', u'right']","[0.8, 0.4, 0.2]","[u'high', u'low', u'medium']","blue",51,"right","medium","True","False",51,5450,NA
"A281ASP4WWAN3E","Wed Sep 23 2020 12:14:16 GMT-0400 (Eastern Daylight Time)","Wed Sep 23 2020 12:49:48 GMT-0400 (Eastern Daylight Time)","Mozilla/5.0 (Windows NT 6.3) AppleWebKit/537.36 (KHTML, like Gecko) Chrome/85.0.4183.102 Safari/537.36",105,"[0.9, 0.5, 0.1]","[0.8, 0.4, 0.2]","[u'black', u'red', u'blue']","[u'left', u'middle', u'right']","[0.8, 0.4, 0.2]","[u'high', u'low', u'medium']","blue",51,"right","medium","True","False",35,5550,NA
"A281ASP4WWAN3E","Wed Sep 23 2020 12:14:16 GMT-0400 (Eastern Daylight Time)","Wed Sep 23 2020 12:49:48 GMT-0400 (Eastern Daylight Time)","Mozilla/5.0 (Windows NT 6.3) AppleWebKit/537.36 (KHTML, like Gecko) Chrome/85.0.4183.102 Safari/537.36",106,"[0.9, 0.5, 0.1]","[0.8, 0.4, 0.2]","[u'black', u'red', u'blue']","[u'left', u'middle', u'right']","[0.8, 0.4, 0.2]","[u'high', u'low', u'medium']","blue",51,"right","medium","False","False",75,5500,NA
"A281ASP4WWAN3E","Wed Sep 23 2020 12:14:16 GMT-0400 (Eastern Daylight Time)","Wed Sep 23 2020 12:49:48 GMT-0400 (Eastern Daylight Time)","Mozilla/5.0 (Windows NT 6.3) AppleWebKit/537.36 (KHTML, like Gecko) Chrome/85.0.4183.102 Safari/537.36",107,"[0.9, 0.5, 0.1]","[0.8, 0.4, 0.2]","[u'black', u'red', u'blue']","[u'left', u'middle', u'right']","[0.8, 0.4, 0.2]","[u'high', u'low', u'medium']","red",50,"middle","low","False","False",58,5450,NA
"A281ASP4WWAN3E","Wed Sep 23 2020 12:14:16 GMT-0400 (Eastern Daylight Time)","Wed Sep 23 2020 12:49:48 GMT-0400 (Eastern Daylight Time)","Mozilla/5.0 (Windows NT 6.3) AppleWebKit/537.36 (KHTML, like Gecko) Chrome/85.0.4183.102 Safari/537.36",108,"[0.9, 0.5, 0.1]","[0.8, 0.4, 0.2]","[u'black', u'red', u'blue']","[u'left', u'middle', u'right']","[0.8, 0.4, 0.2]","[u'high', u'low', u'medium']","blue",51,"right","medium","False","False",652,5400,NA
"A281ASP4WWAN3E","Wed Sep 23 2020 12:14:16 GMT-0400 (Eastern Daylight Time)","Wed Sep 23 2020 12:49:48 GMT-0400 (Eastern Daylight Time)","Mozilla/5.0 (Windows NT 6.3) AppleWebKit/537.36 (KHTML, like Gecko) Chrome/85.0.4183.102 Safari/537.36",109,"[0.9, 0.5, 0.1]","[0.8, 0.4, 0.2]","[u'black', u'red', u'blue']","[u'left', u'middle', u'right']","[0.8, 0.4, 0.2]","[u'high', u'low', u'medium']","black",49,"left","high","True","False",114,5500,NA
"A281ASP4WWAN3E","Wed Sep 23 2020 12:14:16 GMT-0400 (Eastern Daylight Time)","Wed Sep 23 2020 12:49:48 GMT-0400 (Eastern Daylight Time)","Mozilla/5.0 (Windows NT 6.3) AppleWebKit/537.36 (KHTML, like Gecko) Chrome/85.0.4183.102 Safari/537.36",110,"[0.9, 0.5, 0.1]","[0.8, 0.4, 0.2]","[u'black', u'red', u'blue']","[u'left', u'middle', u'right']","[0.8, 0.4, 0.2]","[u'high', u'low', u'medium']","black",49,"left","high","True","False",291,5600,NA
"A281ASP4WWAN3E","Wed Sep 23 2020 12:14:16 GMT-0400 (Eastern Daylight Time)","Wed Sep 23 2020 12:49:48 GMT-0400 (Eastern Daylight Time)","Mozilla/5.0 (Windows NT 6.3) AppleWebKit/537.36 (KHTML, like Gecko) Chrome/85.0.4183.102 Safari/537.36",111,"[0.9, 0.5, 0.1]","[0.8, 0.4, 0.2]","[u'black', u'red', u'blue']","[u'left', u'middle', u'right']","[0.8, 0.4, 0.2]","[u'high', u'low', u'medium']","black",49,"left","high","True","False",412,5700,NA
"A281ASP4WWAN3E","Wed Sep 23 2020 12:14:16 GMT-0400 (Eastern Daylight Time)","Wed Sep 23 2020 12:49:48 GMT-0400 (Eastern Daylight Time)","Mozilla/5.0 (Windows NT 6.3) AppleWebKit/537.36 (KHTML, like Gecko) Chrome/85.0.4183.102 Safari/537.36",112,"[0.9, 0.5, 0.1]","[0.8, 0.4, 0.2]","[u'black', u'red', u'blue']","[u'left', u'middle', u'right']","[0.8, 0.4, 0.2]","[u'high', u'low', u'medium']","black",49,"left","high","True","False",204,5800,NA
"A281ASP4WWAN3E","Wed Sep 23 2020 12:14:16 GMT-0400 (Eastern Daylight Time)","Wed Sep 23 2020 12:49:48 GMT-0400 (Eastern Daylight Time)","Mozilla/5.0 (Windows NT 6.3) AppleWebKit/537.36 (KHTML, like Gecko) Chrome/85.0.4183.102 Safari/537.36",113,"[0.9, 0.5, 0.1]","[0.8, 0.4, 0.2]","[u'black', u'red', u'blue']","[u'left', u'middle', u'right']","[0.8, 0.4, 0.2]","[u'high', u'low', u'medium']","black",49,"left","high","True","False",138,5900,NA
"A281ASP4WWAN3E","Wed Sep 23 2020 12:14:16 GMT-0400 (Eastern Daylight Time)","Wed Sep 23 2020 12:49:48 GMT-0400 (Eastern Daylight Time)","Mozilla/5.0 (Windows NT 6.3) AppleWebKit/537.36 (KHTML, like Gecko) Chrome/85.0.4183.102 Safari/537.36",114,"[0.9, 0.5, 0.1]","[0.8, 0.4, 0.2]","[u'black', u'red', u'blue']","[u'left', u'middle', u'right']","[0.8, 0.4, 0.2]","[u'high', u'low', u'medium']","black",49,"left","high","True","False",133,6000,NA
"A281ASP4WWAN3E","Wed Sep 23 2020 12:14:16 GMT-0400 (Eastern Daylight Time)","Wed Sep 23 2020 12:49:48 GMT-0400 (Eastern Daylight Time)","Mozilla/5.0 (Windows NT 6.3) AppleWebKit/537.36 (KHTML, like Gecko) Chrome/85.0.4183.102 Safari/537.36",115,"[0.9, 0.5, 0.1]","[0.8, 0.4, 0.2]","[u'black', u'red', u'blue']","[u'left', u'middle', u'right']","[0.8, 0.4, 0.2]","[u'high', u'low', u'medium']","black",49,"left","high","True","False",222,6100,NA
"A281ASP4WWAN3E","Wed Sep 23 2020 12:14:16 GMT-0400 (Eastern Daylight Time)","Wed Sep 23 2020 12:49:48 GMT-0400 (Eastern Daylight Time)","Mozilla/5.0 (Windows NT 6.3) AppleWebKit/537.36 (KHTML, like Gecko) Chrome/85.0.4183.102 Safari/537.36",116,"[0.9, 0.5, 0.1]","[0.8, 0.4, 0.2]","[u'black', u'red', u'blue']","[u'left', u'middle', u'right']","[0.8, 0.4, 0.2]","[u'high', u'low', u'medium']","black",49,"left","high","True","False",178,6200,NA
"A281ASP4WWAN3E","Wed Sep 23 2020 12:14:16 GMT-0400 (Eastern Daylight Time)","Wed Sep 23 2020 12:49:48 GMT-0400 (Eastern Daylight Time)","Mozilla/5.0 (Windows NT 6.3) AppleWebKit/537.36 (KHTML, like Gecko) Chrome/85.0.4183.102 Safari/537.36",117,"[0.9, 0.5, 0.1]","[0.8, 0.4, 0.2]","[u'black', u'red', u'blue']","[u'left', u'middle', u'right']","[0.8, 0.4, 0.2]","[u'high', u'low', u'medium']","black",49,"left","high","True","True",178,6300,NA
"A281ASP4WWAN3E","Wed Sep 23 2020 12:14:16 GMT-0400 (Eastern Daylight Time)","Wed Sep 23 2020 12:49:48 GMT-0400 (Eastern Daylight Time)","Mozilla/5.0 (Windows NT 6.3) AppleWebKit/537.36 (KHTML, like Gecko) Chrome/85.0.4183.102 Safari/537.36",118,"[0.9, 0.5, 0.1]","[0.8, 0.4, 0.2]","[u'black', u'red', u'blue']","[u'left', u'middle', u'right']","[0.8, 0.4, 0.2]","[u'low', u'high', u'medium']","black",49,"left","low","False","False",508,6250,NA
"A281ASP4WWAN3E","Wed Sep 23 2020 12:14:16 GMT-0400 (Eastern Daylight Time)","Wed Sep 23 2020 12:49:48 GMT-0400 (Eastern Daylight Time)","Mozilla/5.0 (Windows NT 6.3) AppleWebKit/537.36 (KHTML, like Gecko) Chrome/85.0.4183.102 Safari/537.36",119,"[0.9, 0.5, 0.1]","[0.8, 0.4, 0.2]","[u'black', u'red', u'blue']","[u'left', u'middle', u'right']","[0.8, 0.4, 0.2]","[u'low', u'high', u'medium']","black",49,"left","low","False","False",42,6200,NA
"A281ASP4WWAN3E","Wed Sep 23 2020 12:14:16 GMT-0400 (Eastern Daylight Time)","Wed Sep 23 2020 12:49:48 GMT-0400 (Eastern Daylight Time)","Mozilla/5.0 (Windows NT 6.3) AppleWebKit/537.36 (KHTML, like Gecko) Chrome/85.0.4183.102 Safari/537.36",120,"[0.9, 0.5, 0.1]","[0.8, 0.4, 0.2]","[u'black', u'red', u'blue']","[u'left', u'middle', u'right']","[0.8, 0.4, 0.2]","[u'low', u'high', u'medium']","red",50,"middle","high","True","False",367,6300,NA
"A281ASP4WWAN3E","Wed Sep 23 2020 12:14:16 GMT-0400 (Eastern Daylight Time)","Wed Sep 23 2020 12:49:48 GMT-0400 (Eastern Daylight Time)","Mozilla/5.0 (Windows NT 6.3) AppleWebKit/537.36 (KHTML, like Gecko) Chrome/85.0.4183.102 Safari/537.36",121,"[0.9, 0.5, 0.1]","[0.8, 0.4, 0.2]","[u'black', u'red', u'blue']","[u'left', u'middle', u'right']","[0.8, 0.4, 0.2]","[u'high', u'low', u'medium']","red",50,"middle","low","True","False",427,6400,NA
"A281ASP4WWAN3E","Wed Sep 23 2020 12:14:16 GMT-0400 (Eastern Daylight Time)","Wed Sep 23 2020 12:49:48 GMT-0400 (Eastern Daylight Time)","Mozilla/5.0 (Windows NT 6.3) AppleWebKit/537.36 (KHTML, like Gecko) Chrome/85.0.4183.102 Safari/537.36",122,"[0.9, 0.5, 0.1]","[0.8, 0.4, 0.2]","[u'black', u'red', u'blue']","[u'left', u'middle', u'right']","[0.8, 0.4, 0.2]","[u'high', u'low', u'medium']","red",50,"middle","low","False","False",188,6350,NA
"A281ASP4WWAN3E","Wed Sep 23 2020 12:14:16 GMT-0400 (Eastern Daylight Time)","Wed Sep 23 2020 12:49:48 GMT-0400 (Eastern Daylight Time)","Mozilla/5.0 (Windows NT 6.3) AppleWebKit/537.36 (KHTML, like Gecko) Chrome/85.0.4183.102 Safari/537.36",123,"[0.9, 0.5, 0.1]","[0.8, 0.4, 0.2]","[u'black', u'red', u'blue']","[u'left', u'middle', u'right']","[0.8, 0.4, 0.2]","[u'high', u'low', u'medium']","red",50,"middle","low","False","False",18,6300,NA
"A281ASP4WWAN3E","Wed Sep 23 2020 12:14:16 GMT-0400 (Eastern Daylight Time)","Wed Sep 23 2020 12:49:48 GMT-0400 (Eastern Daylight Time)","Mozilla/5.0 (Windows NT 6.3) AppleWebKit/537.36 (KHTML, like Gecko) Chrome/85.0.4183.102 Safari/537.36",124,"[0.9, 0.5, 0.1]","[0.8, 0.4, 0.2]","[u'black', u'red', u'blue']","[u'left', u'middle', u'right']","[0.8, 0.4, 0.2]","[u'high', u'low', u'medium']","blue",51,"right","medium","False","False",131,6250,NA
"A281ASP4WWAN3E","Wed Sep 23 2020 12:14:16 GMT-0400 (Eastern Daylight Time)","Wed Sep 23 2020 12:49:48 GMT-0400 (Eastern Daylight Time)","Mozilla/5.0 (Windows NT 6.3) AppleWebKit/537.36 (KHTML, like Gecko) Chrome/85.0.4183.102 Safari/537.36",125,"[0.9, 0.5, 0.1]","[0.8, 0.4, 0.2]","[u'black', u'red', u'blue']","[u'left', u'middle', u'right']","[0.8, 0.4, 0.2]","[u'high', u'low', u'medium']","black",49,"left","high","False","False",10,6200,NA
"A281ASP4WWAN3E","Wed Sep 23 2020 12:14:16 GMT-0400 (Eastern Daylight Time)","Wed Sep 23 2020 12:49:48 GMT-0400 (Eastern Daylight Time)","Mozilla/5.0 (Windows NT 6.3) AppleWebKit/537.36 (KHTML, like Gecko) Chrome/85.0.4183.102 Safari/537.36",126,"[0.9, 0.5, 0.1]","[0.8, 0.4, 0.2]","[u'black', u'red', u'blue']","[u'left', u'middle', u'right']","[0.8, 0.4, 0.2]","[u'high', u'low', u'medium']","black",49,"left","high","False","False",75,6150,NA
"A281ASP4WWAN3E","Wed Sep 23 2020 12:14:16 GMT-0400 (Eastern Daylight Time)","Wed Sep 23 2020 12:49:48 GMT-0400 (Eastern Daylight Time)","Mozilla/5.0 (Windows NT 6.3) AppleWebKit/537.36 (KHTML, like Gecko) Chrome/85.0.4183.102 Safari/537.36",127,"[0.9, 0.5, 0.1]","[0.8, 0.4, 0.2]","[u'black', u'red', u'blue']","[u'left', u'middle', u'right']","[0.8, 0.4, 0.2]","[u'high', u'low', u'medium']","red",50,"middle","low","True","False",19,6250,NA
"A281ASP4WWAN3E","Wed Sep 23 2020 12:14:16 GMT-0400 (Eastern Daylight Time)","Wed Sep 23 2020 12:49:48 GMT-0400 (Eastern Daylight Time)","Mozilla/5.0 (Windows NT 6.3) AppleWebKit/537.36 (KHTML, like Gecko) Chrome/85.0.4183.102 Safari/537.36",128,"[0.9, 0.5, 0.1]","[0.8, 0.4, 0.2]","[u'black', u'red', u'blue']","[u'left', u'middle', u'right']","[0.8, 0.4, 0.2]","[u'high', u'low', u'medium']","red",50,"middle","low","False","False",100,6200,NA
"A281ASP4WWAN3E","Wed Sep 23 2020 12:14:16 GMT-0400 (Eastern Daylight Time)","Wed Sep 23 2020 12:49:48 GMT-0400 (Eastern Daylight Time)","Mozilla/5.0 (Windows NT 6.3) AppleWebKit/537.36 (KHTML, like Gecko) Chrome/85.0.4183.102 Safari/537.36",129,"[0.9, 0.5, 0.1]","[0.8, 0.4, 0.2]","[u'black', u'red', u'blue']","[u'left', u'middle', u'right']","[0.8, 0.4, 0.2]","[u'high', u'low', u'medium']","red",50,"middle","low","False","False",467,6150,NA
"A281ASP4WWAN3E","Wed Sep 23 2020 12:14:16 GMT-0400 (Eastern Daylight Time)","Wed Sep 23 2020 12:49:48 GMT-0400 (Eastern Daylight Time)","Mozilla/5.0 (Windows NT 6.3) AppleWebKit/537.36 (KHTML, like Gecko) Chrome/85.0.4183.102 Safari/537.36",130,"[0.9, 0.5, 0.1]","[0.8, 0.4, 0.2]","[u'black', u'red', u'blue']","[u'left', u'middle', u'right']","[0.8, 0.4, 0.2]","[u'high', u'low', u'medium']","blue",51,"right","medium","False","False",146,6100,NA
"A281ASP4WWAN3E","Wed Sep 23 2020 12:14:16 GMT-0400 (Eastern Daylight Time)","Wed Sep 23 2020 12:49:48 GMT-0400 (Eastern Daylight Time)","Mozilla/5.0 (Windows NT 6.3) AppleWebKit/537.36 (KHTML, like Gecko) Chrome/85.0.4183.102 Safari/537.36",131,"[0.9, 0.5, 0.1]","[0.8, 0.4, 0.2]","[u'black', u'red', u'blue']","[u'left', u'middle', u'right']","[0.8, 0.4, 0.2]","[u'high', u'low', u'medium']","blue",51,"right","medium","False","False",172,6050,NA
"A281ASP4WWAN3E","Wed Sep 23 2020 12:14:16 GMT-0400 (Eastern Daylight Time)","Wed Sep 23 2020 12:49:48 GMT-0400 (Eastern Daylight Time)","Mozilla/5.0 (Windows NT 6.3) AppleWebKit/537.36 (KHTML, like Gecko) Chrome/85.0.4183.102 Safari/537.36",132,"[0.9, 0.5, 0.1]","[0.8, 0.4, 0.2]","[u'black', u'red', u'blue']","[u'left', u'middle', u'right']","[0.8, 0.4, 0.2]","[u'high', u'low', u'medium']","black",49,"left","high","False","False",146,6000,NA
"A281ASP4WWAN3E","Wed Sep 23 2020 12:14:16 GMT-0400 (Eastern Daylight Time)","Wed Sep 23 2020 12:49:48 GMT-0400 (Eastern Daylight Time)","Mozilla/5.0 (Windows NT 6.3) AppleWebKit/537.36 (KHTML, like Gecko) Chrome/85.0.4183.102 Safari/537.36",133,"[0.9, 0.5, 0.1]","[0.8, 0.4, 0.2]","[u'black', u'red', u'blue']","[u'left', u'middle', u'right']","[0.8, 0.4, 0.2]","[u'high', u'low', u'medium']","red",50,"middle","low","False","False",12,5950,NA
"A281ASP4WWAN3E","Wed Sep 23 2020 12:14:16 GMT-0400 (Eastern Daylight Time)","Wed Sep 23 2020 12:49:48 GMT-0400 (Eastern Daylight Time)","Mozilla/5.0 (Windows NT 6.3) AppleWebKit/537.36 (KHTML, like Gecko) Chrome/85.0.4183.102 Safari/537.36",134,"[0.9, 0.5, 0.1]","[0.8, 0.4, 0.2]","[u'black', u'red', u'blue']","[u'left', u'middle', u'right']","[0.8, 0.4, 0.2]","[u'high', u'low', u'medium']","black",49,"left","high","True","False",203,6050,NA
"A281ASP4WWAN3E","Wed Sep 23 2020 12:14:16 GMT-0400 (Eastern Daylight Time)","Wed Sep 23 2020 12:49:48 GMT-0400 (Eastern Daylight Time)","Mozilla/5.0 (Windows NT 6.3) AppleWebKit/537.36 (KHTML, like Gecko) Chrome/85.0.4183.102 Safari/537.36",135,"[0.9, 0.5, 0.1]","[0.8, 0.4, 0.2]","[u'black', u'red', u'blue']","[u'left', u'middle', u'right']","[0.8, 0.4, 0.2]","[u'high', u'low', u'medium']","black",49,"left","high","True","False",68,6150,NA
"A281ASP4WWAN3E","Wed Sep 23 2020 12:14:16 GMT-0400 (Eastern Daylight Time)","Wed Sep 23 2020 12:49:48 GMT-0400 (Eastern Daylight Time)","Mozilla/5.0 (Windows NT 6.3) AppleWebKit/537.36 (KHTML, like Gecko) Chrome/85.0.4183.102 Safari/537.36",136,"[0.9, 0.5, 0.1]","[0.8, 0.4, 0.2]","[u'black', u'red', u'blue']","[u'left', u'middle', u'right']","[0.8, 0.4, 0.2]","[u'high', u'low', u'medium']","black",49,"left","high","True","False",82,6250,NA
"A281ASP4WWAN3E","Wed Sep 23 2020 12:14:16 GMT-0400 (Eastern Daylight Time)","Wed Sep 23 2020 12:49:48 GMT-0400 (Eastern Daylight Time)","Mozilla/5.0 (Windows NT 6.3) AppleWebKit/537.36 (KHTML, like Gecko) Chrome/85.0.4183.102 Safari/537.36",137,"[0.9, 0.5, 0.1]","[0.8, 0.4, 0.2]","[u'black', u'red', u'blue']","[u'left', u'middle', u'right']","[0.8, 0.4, 0.2]","[u'high', u'low', u'medium']","black",49,"left","high","True","False",19,6350,NA
"A281ASP4WWAN3E","Wed Sep 23 2020 12:14:16 GMT-0400 (Eastern Daylight Time)","Wed Sep 23 2020 12:49:48 GMT-0400 (Eastern Daylight Time)","Mozilla/5.0 (Windows NT 6.3) AppleWebKit/537.36 (KHTML, like Gecko) Chrome/85.0.4183.102 Safari/537.36",138,"[0.9, 0.5, 0.1]","[0.8, 0.4, 0.2]","[u'black', u'red', u'blue']","[u'left', u'middle', u'right']","[0.8, 0.4, 0.2]","[u'high', u'low', u'medium']","black",49,"left","high","True","False",540,6450,NA
"A281ASP4WWAN3E","Wed Sep 23 2020 12:14:16 GMT-0400 (Eastern Daylight Time)","Wed Sep 23 2020 12:49:48 GMT-0400 (Eastern Daylight Time)","Mozilla/5.0 (Windows NT 6.3) AppleWebKit/537.36 (KHTML, like Gecko) Chrome/85.0.4183.102 Safari/537.36",139,"[0.9, 0.5, 0.1]","[0.8, 0.4, 0.2]","[u'black', u'red', u'blue']","[u'left', u'middle', u'right']","[0.8, 0.4, 0.2]","[u'high', u'low', u'medium']","black",49,"left","high","True","False",522,6550,NA
"A281ASP4WWAN3E","Wed Sep 23 2020 12:14:16 GMT-0400 (Eastern Daylight Time)","Wed Sep 23 2020 12:49:48 GMT-0400 (Eastern Daylight Time)","Mozilla/5.0 (Windows NT 6.3) AppleWebKit/537.36 (KHTML, like Gecko) Chrome/85.0.4183.102 Safari/537.36",140,"[0.9, 0.5, 0.1]","[0.8, 0.4, 0.2]","[u'black', u'red', u'blue']","[u'left', u'middle', u'right']","[0.8, 0.4, 0.2]","[u'high', u'low', u'medium']","black",49,"left","high","True","False",196,6650,NA
"A281ASP4WWAN3E","Wed Sep 23 2020 12:14:16 GMT-0400 (Eastern Daylight Time)","Wed Sep 23 2020 12:49:48 GMT-0400 (Eastern Daylight Time)","Mozilla/5.0 (Windows NT 6.3) AppleWebKit/537.36 (KHTML, like Gecko) Chrome/85.0.4183.102 Safari/537.36",141,"[0.9, 0.5, 0.1]","[0.8, 0.4, 0.2]","[u'black', u'red', u'blue']","[u'left', u'middle', u'right']","[0.8, 0.4, 0.2]","[u'high', u'low', u'medium']","black",49,"left","high","False","True",237,6600,NA
"A281ASP4WWAN3E","Wed Sep 23 2020 12:14:16 GMT-0400 (Eastern Daylight Time)","Wed Sep 23 2020 12:49:48 GMT-0400 (Eastern Daylight Time)","Mozilla/5.0 (Windows NT 6.3) AppleWebKit/537.36 (KHTML, like Gecko) Chrome/85.0.4183.102 Safari/537.36",142,"[0.9, 0.5, 0.1]","[0.8, 0.4, 0.2]","[u'black', u'red', u'blue']","[u'left', u'middle', u'right']","[0.8, 0.4, 0.2]","[u'medium', u'high', u'low']","black",49,"left","medium","True","False",14180,6700,NA
"A281ASP4WWAN3E","Wed Sep 23 2020 12:14:16 GMT-0400 (Eastern Daylight Time)","Wed Sep 23 2020 12:49:48 GMT-0400 (Eastern Daylight Time)","Mozilla/5.0 (Windows NT 6.3) AppleWebKit/537.36 (KHTML, like Gecko) Chrome/85.0.4183.102 Safari/537.36",143,"[0.9, 0.5, 0.1]","[0.8, 0.4, 0.2]","[u'black', u'red', u'blue']","[u'left', u'middle', u'right']","[0.8, 0.4, 0.2]","[u'medium', u'high', u'low']","black",49,"left","medium","True","False",289,6800,NA
"A281ASP4WWAN3E","Wed Sep 23 2020 12:14:16 GMT-0400 (Eastern Daylight Time)","Wed Sep 23 2020 12:49:48 GMT-0400 (Eastern Daylight Time)","Mozilla/5.0 (Windows NT 6.3) AppleWebKit/537.36 (KHTML, like Gecko) Chrome/85.0.4183.102 Safari/537.36",144,"[0.9, 0.5, 0.1]","[0.8, 0.4, 0.2]","[u'black', u'red', u'blue']","[u'left', u'middle', u'right']","[0.8, 0.4, 0.2]","[u'medium', u'high', u'low']","black",49,"left","medium","False","False",307,6750,NA
"A281ASP4WWAN3E","Wed Sep 23 2020 12:14:16 GMT-0400 (Eastern Daylight Time)","Wed Sep 23 2020 12:49:48 GMT-0400 (Eastern Daylight Time)","Mozilla/5.0 (Windows NT 6.3) AppleWebKit/537.36 (KHTML, like Gecko) Chrome/85.0.4183.102 Safari/537.36",145,"[0.9, 0.5, 0.1]","[0.8, 0.4, 0.2]","[u'black', u'red', u'blue']","[u'left', u'middle', u'right']","[0.8, 0.4, 0.2]","[u'medium', u'high', u'low']","black",49,"left","medium","False","False",291,6700,NA
"A281ASP4WWAN3E","Wed Sep 23 2020 12:14:16 GMT-0400 (Eastern Daylight Time)","Wed Sep 23 2020 12:49:48 GMT-0400 (Eastern Daylight Time)","Mozilla/5.0 (Windows NT 6.3) AppleWebKit/537.36 (KHTML, like Gecko) Chrome/85.0.4183.102 Safari/537.36",146,"[0.9, 0.5, 0.1]","[0.8, 0.4, 0.2]","[u'black', u'red', u'blue']","[u'left', u'middle', u'right']","[0.8, 0.4, 0.2]","[u'medium', u'high', u'low']","blue",51,"right","low","False","False",147,6650,NA
"A281ASP4WWAN3E","Wed Sep 23 2020 12:14:16 GMT-0400 (Eastern Daylight Time)","Wed Sep 23 2020 12:49:48 GMT-0400 (Eastern Daylight Time)","Mozilla/5.0 (Windows NT 6.3) AppleWebKit/537.36 (KHTML, like Gecko) Chrome/85.0.4183.102 Safari/537.36",147,"[0.9, 0.5, 0.1]","[0.8, 0.4, 0.2]","[u'black', u'red', u'blue']","[u'left', u'middle', u'right']","[0.8, 0.4, 0.2]","[u'medium', u'high', u'low']","red",50,"middle","high","True","False",115,6750,NA
"A281ASP4WWAN3E","Wed Sep 23 2020 12:14:16 GMT-0400 (Eastern Daylight Time)","Wed Sep 23 2020 12:49:48 GMT-0400 (Eastern Daylight Time)","Mozilla/5.0 (Windows NT 6.3) AppleWebKit/537.36 (KHTML, like Gecko) Chrome/85.0.4183.102 Safari/537.36",148,"[0.9, 0.5, 0.1]","[0.8, 0.4, 0.2]","[u'black', u'red', u'blue']","[u'left', u'middle', u'right']","[0.8, 0.4, 0.2]","[u'medium', u'high', u'low']","red",50,"middle","high","False","False",228,6700,NA
"A281ASP4WWAN3E","Wed Sep 23 2020 12:14:16 GMT-0400 (Eastern Daylight Time)","Wed Sep 23 2020 12:49:48 GMT-0400 (Eastern Daylight Time)","Mozilla/5.0 (Windows NT 6.3) AppleWebKit/537.36 (KHTML, like Gecko) Chrome/85.0.4183.102 Safari/537.36",149,"[0.9, 0.5, 0.1]","[0.8, 0.4, 0.2]","[u'black', u'red', u'blue']","[u'left', u'middle', u'right']","[0.8, 0.4, 0.2]","[u'medium', u'high', u'low']","black",49,"left","medium","True","False",185,6800,NA
"A281ASP4WWAN3E","Wed Sep 23 2020 12:14:16 GMT-0400 (Eastern Daylight Time)","Wed Sep 23 2020 12:49:48 GMT-0400 (Eastern Daylight Time)","Mozilla/5.0 (Windows NT 6.3) AppleWebKit/537.36 (KHTML, like Gecko) Chrome/85.0.4183.102 Safari/537.36",150,"[0.9, 0.5, 0.1]","[0.8, 0.4, 0.2]","[u'black', u'red', u'blue']","[u'left', u'middle', u'right']","[0.8, 0.4, 0.2]","[u'medium', u'high', u'low']","black",49,"left","medium","False","False",195,6750,NA
"A281ASP4WWAN3E","Wed Sep 23 2020 12:14:16 GMT-0400 (Eastern Daylight Time)","Wed Sep 23 2020 12:49:48 GMT-0400 (Eastern Daylight Time)","Mozilla/5.0 (Windows NT 6.3) AppleWebKit/537.36 (KHTML, like Gecko) Chrome/85.0.4183.102 Safari/537.36",151,"[0.9, 0.5, 0.1]","[0.8, 0.4, 0.2]","[u'black', u'red', u'blue']","[u'left', u'middle', u'right']","[0.8, 0.4, 0.2]","[u'medium', u'high', u'low']","black",49,"left","medium","True","False",436,6850,NA
"A281ASP4WWAN3E","Wed Sep 23 2020 12:14:16 GMT-0400 (Eastern Daylight Time)","Wed Sep 23 2020 12:49:48 GMT-0400 (Eastern Daylight Time)","Mozilla/5.0 (Windows NT 6.3) AppleWebKit/537.36 (KHTML, like Gecko) Chrome/85.0.4183.102 Safari/537.36",152,"[0.9, 0.5, 0.1]","[0.8, 0.4, 0.2]","[u'black', u'red', u'blue']","[u'left', u'middle', u'right']","[0.8, 0.4, 0.2]","[u'medium', u'high', u'low']","black",49,"left","medium","False","False",227,6800,NA
"A281ASP4WWAN3E","Wed Sep 23 2020 12:14:16 GMT-0400 (Eastern Daylight Time)","Wed Sep 23 2020 12:49:48 GMT-0400 (Eastern Daylight Time)","Mozilla/5.0 (Windows NT 6.3) AppleWebKit/537.36 (KHTML, like Gecko) Chrome/85.0.4183.102 Safari/537.36",153,"[0.9, 0.5, 0.1]","[0.8, 0.4, 0.2]","[u'black', u'red', u'blue']","[u'left', u'middle', u'right']","[0.8, 0.4, 0.2]","[u'medium', u'high', u'low']","black",49,"left","medium","True","False",332,6900,NA
"A281ASP4WWAN3E","Wed Sep 23 2020 12:14:16 GMT-0400 (Eastern Daylight Time)","Wed Sep 23 2020 12:49:48 GMT-0400 (Eastern Daylight Time)","Mozilla/5.0 (Windows NT 6.3) AppleWebKit/537.36 (KHTML, like Gecko) Chrome/85.0.4183.102 Safari/537.36",154,"[0.9, 0.5, 0.1]","[0.8, 0.4, 0.2]","[u'black', u'red', u'blue']","[u'left', u'middle', u'right']","[0.8, 0.4, 0.2]","[u'medium', u'high', u'low']","black",49,"left","medium","True","False",1044,7000,NA
"A281ASP4WWAN3E","Wed Sep 23 2020 12:14:16 GMT-0400 (Eastern Daylight Time)","Wed Sep 23 2020 12:49:48 GMT-0400 (Eastern Daylight Time)","Mozilla/5.0 (Windows NT 6.3) AppleWebKit/537.36 (KHTML, like Gecko) Chrome/85.0.4183.102 Safari/537.36",155,"[0.9, 0.5, 0.1]","[0.8, 0.4, 0.2]","[u'black', u'red', u'blue']","[u'left', u'middle', u'right']","[0.8, 0.4, 0.2]","[u'medium', u'high', u'low']","black",49,"left","medium","True","False",514,7100,NA
"A281ASP4WWAN3E","Wed Sep 23 2020 12:14:16 GMT-0400 (Eastern Daylight Time)","Wed Sep 23 2020 12:49:48 GMT-0400 (Eastern Daylight Time)","Mozilla/5.0 (Windows NT 6.3) AppleWebKit/537.36 (KHTML, like Gecko) Chrome/85.0.4183.102 Safari/537.36",156,"[0.9, 0.5, 0.1]","[0.8, 0.4, 0.2]","[u'black', u'red', u'blue']","[u'left', u'middle', u'right']","[0.8, 0.4, 0.2]","[u'medium', u'high', u'low']","black",49,"left","medium","True","False",419,7200,NA
"A281ASP4WWAN3E","Wed Sep 23 2020 12:14:16 GMT-0400 (Eastern Daylight Time)","Wed Sep 23 2020 12:49:48 GMT-0400 (Eastern Daylight Time)","Mozilla/5.0 (Windows NT 6.3) AppleWebKit/537.36 (KHTML, like Gecko) Chrome/85.0.4183.102 Safari/537.36",157,"[0.9, 0.5, 0.1]","[0.8, 0.4, 0.2]","[u'black', u'red', u'blue']","[u'left', u'middle', u'right']","[0.8, 0.4, 0.2]","[u'medium', u'high', u'low']","black",49,"left","medium","True","False",243,7300,NA
"A281ASP4WWAN3E","Wed Sep 23 2020 12:14:16 GMT-0400 (Eastern Daylight Time)","Wed Sep 23 2020 12:49:48 GMT-0400 (Eastern Daylight Time)","Mozilla/5.0 (Windows NT 6.3) AppleWebKit/537.36 (KHTML, like Gecko) Chrome/85.0.4183.102 Safari/537.36",158,"[0.9, 0.5, 0.1]","[0.8, 0.4, 0.2]","[u'black', u'red', u'blue']","[u'left', u'middle', u'right']","[0.8, 0.4, 0.2]","[u'medium', u'high', u'low']","black",49,"left","medium","True","False",331,7400,NA
"A281ASP4WWAN3E","Wed Sep 23 2020 12:14:16 GMT-0400 (Eastern Daylight Time)","Wed Sep 23 2020 12:49:48 GMT-0400 (Eastern Daylight Time)","Mozilla/5.0 (Windows NT 6.3) AppleWebKit/537.36 (KHTML, like Gecko) Chrome/85.0.4183.102 Safari/537.36",159,"[0.9, 0.5, 0.1]","[0.8, 0.4, 0.2]","[u'black', u'red', u'blue']","[u'left', u'middle', u'right']","[0.8, 0.4, 0.2]","[u'medium', u'high', u'low']","black",49,"left","medium","True","False",115,7500,NA
"A281ASP4WWAN3E","Wed Sep 23 2020 12:14:16 GMT-0400 (Eastern Daylight Time)","Wed Sep 23 2020 12:49:48 GMT-0400 (Eastern Daylight Time)","Mozilla/5.0 (Windows NT 6.3) AppleWebKit/537.36 (KHTML, like Gecko) Chrome/85.0.4183.102 Safari/537.36",160,"[0.9, 0.5, 0.1]","[0.8, 0.4, 0.2]","[u'black', u'red', u'blue']","[u'left', u'middle', u'right']","[0.8, 0.4, 0.2]","[u'medium', u'high', u'low']","black",49,"left","medium","True","False",1627,7600,NA
