"src_subject_id","start_time","end_time","browser","index","first_half_probabilities","second_half_probabilities","deck_color","deck_position","deck_probabilities","deck_contingencies","response_color","key_press","response_position","response_probability","reward_type","trial_type","rt","reward_tally","exclusion_reason"
"A1MJVTR0PCKBWW","Wed Jan 29 2020 09:27:42 GMT-0800 (Pacific Standard Time)","Wed Jan 29 2020 09:34:15 GMT-0800 (Pacific Standard Time)","Mozilla/5.0 (Windows NT 10.0; Win64; x64) AppleWebKit/537.36 (KHTML, like Gecko) Chrome/79.0.3945.130 Safari/537.36",1,"[0.9, 0.5, 0.1]","[0.8, 0.4, 0.2]","[u'red', u'black', u'blue']","[u'left', u'middle', u'right']","[0.9, 0.5, 0.1]","[u'low', u'medium', u'high']","red",49,"left","low","False","False",534,-50,NA
"A1MJVTR0PCKBWW","Wed Jan 29 2020 09:27:42 GMT-0800 (Pacific Standard Time)","Wed Jan 29 2020 09:34:15 GMT-0800 (Pacific Standard Time)","Mozilla/5.0 (Windows NT 10.0; Win64; x64) AppleWebKit/537.36 (KHTML, like Gecko) Chrome/79.0.3945.130 Safari/537.36",2,"[0.9, 0.5, 0.1]","[0.8, 0.4, 0.2]","[u'red', u'black', u'blue']","[u'left', u'middle', u'right']","[0.9, 0.5, 0.1]","[u'low', u'medium', u'high']","blue",51,"right","high","True","False",500,50,NA
"A1MJVTR0PCKBWW","Wed Jan 29 2020 09:27:42 GMT-0800 (Pacific Standard Time)","Wed Jan 29 2020 09:34:15 GMT-0800 (Pacific Standard Time)","Mozilla/5.0 (Windows NT 10.0; Win64; x64) AppleWebKit/537.36 (KHTML, like Gecko) Chrome/79.0.3945.130 Safari/537.36",3,"[0.9, 0.5, 0.1]","[0.8, 0.4, 0.2]","[u'red', u'black', u'blue']","[u'left', u'middle', u'right']","[0.9, 0.5, 0.1]","[u'low', u'medium', u'high']","blue",51,"right","high","False","False",286,0,NA
"A1MJVTR0PCKBWW","Wed Jan 29 2020 09:27:42 GMT-0800 (Pacific Standard Time)","Wed Jan 29 2020 09:34:15 GMT-0800 (Pacific Standard Time)","Mozilla/5.0 (Windows NT 10.0; Win64; x64) AppleWebKit/537.36 (KHTML, like Gecko) Chrome/79.0.3945.130 Safari/537.36",4,"[0.9, 0.5, 0.1]","[0.8, 0.4, 0.2]","[u'red', u'black', u'blue']","[u'left', u'middle', u'right']","[0.9, 0.5, 0.1]","[u'low', u'medium', u'high']","black",50,"middle","medium","False","False",299,-50,NA
"A1MJVTR0PCKBWW","Wed Jan 29 2020 09:27:42 GMT-0800 (Pacific Standard Time)","Wed Jan 29 2020 09:34:15 GMT-0800 (Pacific Standard Time)","Mozilla/5.0 (Windows NT 10.0; Win64; x64) AppleWebKit/537.36 (KHTML, like Gecko) Chrome/79.0.3945.130 Safari/537.36",5,"[0.9, 0.5, 0.1]","[0.8, 0.4, 0.2]","[u'red', u'black', u'blue']","[u'left', u'middle', u'right']","[0.9, 0.5, 0.1]","[u'low', u'medium', u'high']","blue",51,"right","high","True","False",240,50,NA
"A1MJVTR0PCKBWW","Wed Jan 29 2020 09:27:42 GMT-0800 (Pacific Standard Time)","Wed Jan 29 2020 09:34:15 GMT-0800 (Pacific Standard Time)","Mozilla/5.0 (Windows NT 10.0; Win64; x64) AppleWebKit/537.36 (KHTML, like Gecko) Chrome/79.0.3945.130 Safari/537.36",6,"[0.9, 0.5, 0.1]","[0.8, 0.4, 0.2]","[u'red', u'black', u'blue']","[u'left', u'middle', u'right']","[0.9, 0.5, 0.1]","[u'low', u'medium', u'high']","blue",51,"right","high","False","False",284,0,NA
"A1MJVTR0PCKBWW","Wed Jan 29 2020 09:27:42 GMT-0800 (Pacific Standard Time)","Wed Jan 29 2020 09:34:15 GMT-0800 (Pacific Standard Time)","Mozilla/5.0 (Windows NT 10.0; Win64; x64) AppleWebKit/537.36 (KHTML, like Gecko) Chrome/79.0.3945.130 Safari/537.36",7,"[0.9, 0.5, 0.1]","[0.8, 0.4, 0.2]","[u'red', u'black', u'blue']","[u'left', u'middle', u'right']","[0.9, 0.5, 0.1]","[u'low', u'medium', u'high']","blue",51,"right","high","True","False",127,100,NA
"A1MJVTR0PCKBWW","Wed Jan 29 2020 09:27:42 GMT-0800 (Pacific Standard Time)","Wed Jan 29 2020 09:34:15 GMT-0800 (Pacific Standard Time)","Mozilla/5.0 (Windows NT 10.0; Win64; x64) AppleWebKit/537.36 (KHTML, like Gecko) Chrome/79.0.3945.130 Safari/537.36",8,"[0.9, 0.5, 0.1]","[0.8, 0.4, 0.2]","[u'red', u'black', u'blue']","[u'left', u'middle', u'right']","[0.9, 0.5, 0.1]","[u'low', u'medium', u'high']","blue",51,"right","high","True","False",281,200,NA
"A1MJVTR0PCKBWW","Wed Jan 29 2020 09:27:42 GMT-0800 (Pacific Standard Time)","Wed Jan 29 2020 09:34:15 GMT-0800 (Pacific Standard Time)","Mozilla/5.0 (Windows NT 10.0; Win64; x64) AppleWebKit/537.36 (KHTML, like Gecko) Chrome/79.0.3945.130 Safari/537.36",9,"[0.9, 0.5, 0.1]","[0.8, 0.4, 0.2]","[u'red', u'black', u'blue']","[u'left', u'middle', u'right']","[0.9, 0.5, 0.1]","[u'low', u'medium', u'high']","blue",51,"right","high","True","False",806,300,NA
"A1MJVTR0PCKBWW","Wed Jan 29 2020 09:27:42 GMT-0800 (Pacific Standard Time)","Wed Jan 29 2020 09:34:15 GMT-0800 (Pacific Standard Time)","Mozilla/5.0 (Windows NT 10.0; Win64; x64) AppleWebKit/537.36 (KHTML, like Gecko) Chrome/79.0.3945.130 Safari/537.36",10,"[0.9, 0.5, 0.1]","[0.8, 0.4, 0.2]","[u'red', u'black', u'blue']","[u'left', u'middle', u'right']","[0.9, 0.5, 0.1]","[u'low', u'medium', u'high']","blue",51,"right","high","True","False",358,400,NA
"A1MJVTR0PCKBWW","Wed Jan 29 2020 09:27:42 GMT-0800 (Pacific Standard Time)","Wed Jan 29 2020 09:34:15 GMT-0800 (Pacific Standard Time)","Mozilla/5.0 (Windows NT 10.0; Win64; x64) AppleWebKit/537.36 (KHTML, like Gecko) Chrome/79.0.3945.130 Safari/537.36",11,"[0.9, 0.5, 0.1]","[0.8, 0.4, 0.2]","[u'red', u'black', u'blue']","[u'left', u'middle', u'right']","[0.9, 0.5, 0.1]","[u'low', u'medium', u'high']","blue",51,"right","high","True","True",16984,500,NA
"A1MJVTR0PCKBWW","Wed Jan 29 2020 09:27:42 GMT-0800 (Pacific Standard Time)","Wed Jan 29 2020 09:34:15 GMT-0800 (Pacific Standard Time)","Mozilla/5.0 (Windows NT 10.0; Win64; x64) AppleWebKit/537.36 (KHTML, like Gecko) Chrome/79.0.3945.130 Safari/537.36",12,"[0.9, 0.5, 0.1]","[0.8, 0.4, 0.2]","[u'red', u'black', u'blue']","[u'left', u'middle', u'right']","[0.9, 0.5, 0.1]","[u'medium', u'high', u'low']","blue",51,"right","low","False","False",290,450,NA
"A1MJVTR0PCKBWW","Wed Jan 29 2020 09:27:42 GMT-0800 (Pacific Standard Time)","Wed Jan 29 2020 09:34:15 GMT-0800 (Pacific Standard Time)","Mozilla/5.0 (Windows NT 10.0; Win64; x64) AppleWebKit/537.36 (KHTML, like Gecko) Chrome/79.0.3945.130 Safari/537.36",13,"[0.9, 0.5, 0.1]","[0.8, 0.4, 0.2]","[u'red', u'black', u'blue']","[u'left', u'middle', u'right']","[0.9, 0.5, 0.1]","[u'medium', u'high', u'low']","blue",51,"right","low","False","False",277,400,NA
"A1MJVTR0PCKBWW","Wed Jan 29 2020 09:27:42 GMT-0800 (Pacific Standard Time)","Wed Jan 29 2020 09:34:15 GMT-0800 (Pacific Standard Time)","Mozilla/5.0 (Windows NT 10.0; Win64; x64) AppleWebKit/537.36 (KHTML, like Gecko) Chrome/79.0.3945.130 Safari/537.36",14,"[0.9, 0.5, 0.1]","[0.8, 0.4, 0.2]","[u'red', u'black', u'blue']","[u'left', u'middle', u'right']","[0.9, 0.5, 0.1]","[u'medium', u'high', u'low']","blue",51,"right","low","False","False",5371,350,NA
"A1MJVTR0PCKBWW","Wed Jan 29 2020 09:27:42 GMT-0800 (Pacific Standard Time)","Wed Jan 29 2020 09:34:15 GMT-0800 (Pacific Standard Time)","Mozilla/5.0 (Windows NT 10.0; Win64; x64) AppleWebKit/537.36 (KHTML, like Gecko) Chrome/79.0.3945.130 Safari/537.36",15,"[0.9, 0.5, 0.1]","[0.8, 0.4, 0.2]","[u'red', u'black', u'blue']","[u'left', u'middle', u'right']","[0.9, 0.5, 0.1]","[u'medium', u'high', u'low']","red",49,"left","medium","True","False",251,450,NA
"A1MJVTR0PCKBWW","Wed Jan 29 2020 09:27:42 GMT-0800 (Pacific Standard Time)","Wed Jan 29 2020 09:34:15 GMT-0800 (Pacific Standard Time)","Mozilla/5.0 (Windows NT 10.0; Win64; x64) AppleWebKit/537.36 (KHTML, like Gecko) Chrome/79.0.3945.130 Safari/537.36",16,"[0.9, 0.5, 0.1]","[0.8, 0.4, 0.2]","[u'red', u'black', u'blue']","[u'left', u'middle', u'right']","[0.9, 0.5, 0.1]","[u'medium', u'high', u'low']","blue",51,"right","low","False","False",242,400,NA
"A1MJVTR0PCKBWW","Wed Jan 29 2020 09:27:42 GMT-0800 (Pacific Standard Time)","Wed Jan 29 2020 09:34:15 GMT-0800 (Pacific Standard Time)","Mozilla/5.0 (Windows NT 10.0; Win64; x64) AppleWebKit/537.36 (KHTML, like Gecko) Chrome/79.0.3945.130 Safari/537.36",17,"[0.9, 0.5, 0.1]","[0.8, 0.4, 0.2]","[u'red', u'black', u'blue']","[u'left', u'middle', u'right']","[0.9, 0.5, 0.1]","[u'medium', u'high', u'low']","blue",51,"right","low","False","False",220,350,NA
"A1MJVTR0PCKBWW","Wed Jan 29 2020 09:27:42 GMT-0800 (Pacific Standard Time)","Wed Jan 29 2020 09:34:15 GMT-0800 (Pacific Standard Time)","Mozilla/5.0 (Windows NT 10.0; Win64; x64) AppleWebKit/537.36 (KHTML, like Gecko) Chrome/79.0.3945.130 Safari/537.36",18,"[0.9, 0.5, 0.1]","[0.8, 0.4, 0.2]","[u'red', u'black', u'blue']","[u'left', u'middle', u'right']","[0.9, 0.5, 0.1]","[u'medium', u'high', u'low']","blue",51,"right","low","False","False",155,300,NA
"A1MJVTR0PCKBWW","Wed Jan 29 2020 09:27:42 GMT-0800 (Pacific Standard Time)","Wed Jan 29 2020 09:34:15 GMT-0800 (Pacific Standard Time)","Mozilla/5.0 (Windows NT 10.0; Win64; x64) AppleWebKit/537.36 (KHTML, like Gecko) Chrome/79.0.3945.130 Safari/537.36",19,"[0.9, 0.5, 0.1]","[0.8, 0.4, 0.2]","[u'red', u'black', u'blue']","[u'left', u'middle', u'right']","[0.9, 0.5, 0.1]","[u'medium', u'high', u'low']","blue",51,"right","low","False","False",152,250,NA
"A1MJVTR0PCKBWW","Wed Jan 29 2020 09:27:42 GMT-0800 (Pacific Standard Time)","Wed Jan 29 2020 09:34:15 GMT-0800 (Pacific Standard Time)","Mozilla/5.0 (Windows NT 10.0; Win64; x64) AppleWebKit/537.36 (KHTML, like Gecko) Chrome/79.0.3945.130 Safari/537.36",20,"[0.9, 0.5, 0.1]","[0.8, 0.4, 0.2]","[u'red', u'black', u'blue']","[u'left', u'middle', u'right']","[0.9, 0.5, 0.1]","[u'medium', u'high', u'low']","black",50,"middle","high","True","False",168,350,NA
"A1MJVTR0PCKBWW","Wed Jan 29 2020 09:27:42 GMT-0800 (Pacific Standard Time)","Wed Jan 29 2020 09:34:15 GMT-0800 (Pacific Standard Time)","Mozilla/5.0 (Windows NT 10.0; Win64; x64) AppleWebKit/537.36 (KHTML, like Gecko) Chrome/79.0.3945.130 Safari/537.36",21,"[0.9, 0.5, 0.1]","[0.8, 0.4, 0.2]","[u'red', u'black', u'blue']","[u'left', u'middle', u'right']","[0.9, 0.5, 0.1]","[u'medium', u'high', u'low']","red",49,"left","medium","False","False",260,300,NA
"A1MJVTR0PCKBWW","Wed Jan 29 2020 09:27:42 GMT-0800 (Pacific Standard Time)","Wed Jan 29 2020 09:34:15 GMT-0800 (Pacific Standard Time)","Mozilla/5.0 (Windows NT 10.0; Win64; x64) AppleWebKit/537.36 (KHTML, like Gecko) Chrome/79.0.3945.130 Safari/537.36",22,"[0.9, 0.5, 0.1]","[0.8, 0.4, 0.2]","[u'red', u'black', u'blue']","[u'left', u'middle', u'right']","[0.9, 0.5, 0.1]","[u'medium', u'high', u'low']","blue",51,"right","low","False","False",249,250,NA
"A1MJVTR0PCKBWW","Wed Jan 29 2020 09:27:42 GMT-0800 (Pacific Standard Time)","Wed Jan 29 2020 09:34:15 GMT-0800 (Pacific Standard Time)","Mozilla/5.0 (Windows NT 10.0; Win64; x64) AppleWebKit/537.36 (KHTML, like Gecko) Chrome/79.0.3945.130 Safari/537.36",23,"[0.9, 0.5, 0.1]","[0.8, 0.4, 0.2]","[u'red', u'black', u'blue']","[u'left', u'middle', u'right']","[0.9, 0.5, 0.1]","[u'medium', u'high', u'low']","black",50,"middle","high","True","False",223,350,NA
"A1MJVTR0PCKBWW","Wed Jan 29 2020 09:27:42 GMT-0800 (Pacific Standard Time)","Wed Jan 29 2020 09:34:15 GMT-0800 (Pacific Standard Time)","Mozilla/5.0 (Windows NT 10.0; Win64; x64) AppleWebKit/537.36 (KHTML, like Gecko) Chrome/79.0.3945.130 Safari/537.36",24,"[0.9, 0.5, 0.1]","[0.8, 0.4, 0.2]","[u'red', u'black', u'blue']","[u'left', u'middle', u'right']","[0.9, 0.5, 0.1]","[u'medium', u'high', u'low']","red",49,"left","medium","True","False",235,450,NA
"A1MJVTR0PCKBWW","Wed Jan 29 2020 09:27:42 GMT-0800 (Pacific Standard Time)","Wed Jan 29 2020 09:34:15 GMT-0800 (Pacific Standard Time)","Mozilla/5.0 (Windows NT 10.0; Win64; x64) AppleWebKit/537.36 (KHTML, like Gecko) Chrome/79.0.3945.130 Safari/537.36",25,"[0.9, 0.5, 0.1]","[0.8, 0.4, 0.2]","[u'red', u'black', u'blue']","[u'left', u'middle', u'right']","[0.9, 0.5, 0.1]","[u'medium', u'high', u'low']","black",50,"middle","high","True","False",241,550,NA
"A1MJVTR0PCKBWW","Wed Jan 29 2020 09:27:42 GMT-0800 (Pacific Standard Time)","Wed Jan 29 2020 09:34:15 GMT-0800 (Pacific Standard Time)","Mozilla/5.0 (Windows NT 10.0; Win64; x64) AppleWebKit/537.36 (KHTML, like Gecko) Chrome/79.0.3945.130 Safari/537.36",26,"[0.9, 0.5, 0.1]","[0.8, 0.4, 0.2]","[u'red', u'black', u'blue']","[u'left', u'middle', u'right']","[0.9, 0.5, 0.1]","[u'medium', u'high', u'low']","red",49,"left","medium","False","False",196,500,NA
"A1MJVTR0PCKBWW","Wed Jan 29 2020 09:27:42 GMT-0800 (Pacific Standard Time)","Wed Jan 29 2020 09:34:15 GMT-0800 (Pacific Standard Time)","Mozilla/5.0 (Windows NT 10.0; Win64; x64) AppleWebKit/537.36 (KHTML, like Gecko) Chrome/79.0.3945.130 Safari/537.36",27,"[0.9, 0.5, 0.1]","[0.8, 0.4, 0.2]","[u'red', u'black', u'blue']","[u'left', u'middle', u'right']","[0.9, 0.5, 0.1]","[u'medium', u'high', u'low']","blue",51,"right","low","False","False",219,450,NA
"A1MJVTR0PCKBWW","Wed Jan 29 2020 09:27:42 GMT-0800 (Pacific Standard Time)","Wed Jan 29 2020 09:34:15 GMT-0800 (Pacific Standard Time)","Mozilla/5.0 (Windows NT 10.0; Win64; x64) AppleWebKit/537.36 (KHTML, like Gecko) Chrome/79.0.3945.130 Safari/537.36",28,"[0.9, 0.5, 0.1]","[0.8, 0.4, 0.2]","[u'red', u'black', u'blue']","[u'left', u'middle', u'right']","[0.9, 0.5, 0.1]","[u'medium', u'high', u'low']","black",50,"middle","high","False","False",56,400,NA
"A1MJVTR0PCKBWW","Wed Jan 29 2020 09:27:42 GMT-0800 (Pacific Standard Time)","Wed Jan 29 2020 09:34:15 GMT-0800 (Pacific Standard Time)","Mozilla/5.0 (Windows NT 10.0; Win64; x64) AppleWebKit/537.36 (KHTML, like Gecko) Chrome/79.0.3945.130 Safari/537.36",29,"[0.9, 0.5, 0.1]","[0.8, 0.4, 0.2]","[u'red', u'black', u'blue']","[u'left', u'middle', u'right']","[0.9, 0.5, 0.1]","[u'medium', u'high', u'low']","red",49,"left","medium","True","False",99,500,NA
"A1MJVTR0PCKBWW","Wed Jan 29 2020 09:27:42 GMT-0800 (Pacific Standard Time)","Wed Jan 29 2020 09:34:15 GMT-0800 (Pacific Standard Time)","Mozilla/5.0 (Windows NT 10.0; Win64; x64) AppleWebKit/537.36 (KHTML, like Gecko) Chrome/79.0.3945.130 Safari/537.36",30,"[0.9, 0.5, 0.1]","[0.8, 0.4, 0.2]","[u'red', u'black', u'blue']","[u'left', u'middle', u'right']","[0.9, 0.5, 0.1]","[u'medium', u'high', u'low']","black",50,"middle","high","True","False",108,600,NA
"A1MJVTR0PCKBWW","Wed Jan 29 2020 09:27:42 GMT-0800 (Pacific Standard Time)","Wed Jan 29 2020 09:34:15 GMT-0800 (Pacific Standard Time)","Mozilla/5.0 (Windows NT 10.0; Win64; x64) AppleWebKit/537.36 (KHTML, like Gecko) Chrome/79.0.3945.130 Safari/537.36",31,"[0.9, 0.5, 0.1]","[0.8, 0.4, 0.2]","[u'red', u'black', u'blue']","[u'left', u'middle', u'right']","[0.9, 0.5, 0.1]","[u'medium', u'high', u'low']","blue",51,"right","low","False","False",248,550,NA
"A1MJVTR0PCKBWW","Wed Jan 29 2020 09:27:42 GMT-0800 (Pacific Standard Time)","Wed Jan 29 2020 09:34:15 GMT-0800 (Pacific Standard Time)","Mozilla/5.0 (Windows NT 10.0; Win64; x64) AppleWebKit/537.36 (KHTML, like Gecko) Chrome/79.0.3945.130 Safari/537.36",32,"[0.9, 0.5, 0.1]","[0.8, 0.4, 0.2]","[u'red', u'black', u'blue']","[u'left', u'middle', u'right']","[0.9, 0.5, 0.1]","[u'medium', u'high', u'low']","red",49,"left","medium","False","False",253,500,NA
"A1MJVTR0PCKBWW","Wed Jan 29 2020 09:27:42 GMT-0800 (Pacific Standard Time)","Wed Jan 29 2020 09:34:15 GMT-0800 (Pacific Standard Time)","Mozilla/5.0 (Windows NT 10.0; Win64; x64) AppleWebKit/537.36 (KHTML, like Gecko) Chrome/79.0.3945.130 Safari/537.36",33,"[0.9, 0.5, 0.1]","[0.8, 0.4, 0.2]","[u'red', u'black', u'blue']","[u'left', u'middle', u'right']","[0.9, 0.5, 0.1]","[u'medium', u'high', u'low']","black",50,"middle","high","True","False",21,600,NA
"A1MJVTR0PCKBWW","Wed Jan 29 2020 09:27:42 GMT-0800 (Pacific Standard Time)","Wed Jan 29 2020 09:34:15 GMT-0800 (Pacific Standard Time)","Mozilla/5.0 (Windows NT 10.0; Win64; x64) AppleWebKit/537.36 (KHTML, like Gecko) Chrome/79.0.3945.130 Safari/537.36",34,"[0.9, 0.5, 0.1]","[0.8, 0.4, 0.2]","[u'red', u'black', u'blue']","[u'left', u'middle', u'right']","[0.9, 0.5, 0.1]","[u'medium', u'high', u'low']","red",49,"left","medium","True","False",150,700,NA
"A1MJVTR0PCKBWW","Wed Jan 29 2020 09:27:42 GMT-0800 (Pacific Standard Time)","Wed Jan 29 2020 09:34:15 GMT-0800 (Pacific Standard Time)","Mozilla/5.0 (Windows NT 10.0; Win64; x64) AppleWebKit/537.36 (KHTML, like Gecko) Chrome/79.0.3945.130 Safari/537.36",35,"[0.9, 0.5, 0.1]","[0.8, 0.4, 0.2]","[u'red', u'black', u'blue']","[u'left', u'middle', u'right']","[0.9, 0.5, 0.1]","[u'medium', u'high', u'low']","black",50,"middle","high","True","False",243,800,NA
"A1MJVTR0PCKBWW","Wed Jan 29 2020 09:27:42 GMT-0800 (Pacific Standard Time)","Wed Jan 29 2020 09:34:15 GMT-0800 (Pacific Standard Time)","Mozilla/5.0 (Windows NT 10.0; Win64; x64) AppleWebKit/537.36 (KHTML, like Gecko) Chrome/79.0.3945.130 Safari/537.36",36,"[0.9, 0.5, 0.1]","[0.8, 0.4, 0.2]","[u'red', u'black', u'blue']","[u'left', u'middle', u'right']","[0.9, 0.5, 0.1]","[u'medium', u'high', u'low']","red",49,"left","medium","False","False",130,750,NA
"A1MJVTR0PCKBWW","Wed Jan 29 2020 09:27:42 GMT-0800 (Pacific Standard Time)","Wed Jan 29 2020 09:34:15 GMT-0800 (Pacific Standard Time)","Mozilla/5.0 (Windows NT 10.0; Win64; x64) AppleWebKit/537.36 (KHTML, like Gecko) Chrome/79.0.3945.130 Safari/537.36",37,"[0.9, 0.5, 0.1]","[0.8, 0.4, 0.2]","[u'red', u'black', u'blue']","[u'left', u'middle', u'right']","[0.9, 0.5, 0.1]","[u'medium', u'high', u'low']","black",50,"middle","high","True","False",249,850,NA
"A1MJVTR0PCKBWW","Wed Jan 29 2020 09:27:42 GMT-0800 (Pacific Standard Time)","Wed Jan 29 2020 09:34:15 GMT-0800 (Pacific Standard Time)","Mozilla/5.0 (Windows NT 10.0; Win64; x64) AppleWebKit/537.36 (KHTML, like Gecko) Chrome/79.0.3945.130 Safari/537.36",38,"[0.9, 0.5, 0.1]","[0.8, 0.4, 0.2]","[u'red', u'black', u'blue']","[u'left', u'middle', u'right']","[0.9, 0.5, 0.1]","[u'medium', u'high', u'low']","red",49,"left","medium","False","False",204,800,NA
"A1MJVTR0PCKBWW","Wed Jan 29 2020 09:27:42 GMT-0800 (Pacific Standard Time)","Wed Jan 29 2020 09:34:15 GMT-0800 (Pacific Standard Time)","Mozilla/5.0 (Windows NT 10.0; Win64; x64) AppleWebKit/537.36 (KHTML, like Gecko) Chrome/79.0.3945.130 Safari/537.36",39,"[0.9, 0.5, 0.1]","[0.8, 0.4, 0.2]","[u'red', u'black', u'blue']","[u'left', u'middle', u'right']","[0.9, 0.5, 0.1]","[u'medium', u'high', u'low']","blue",51,"right","low","False","False",232,750,NA
"A1MJVTR0PCKBWW","Wed Jan 29 2020 09:27:42 GMT-0800 (Pacific Standard Time)","Wed Jan 29 2020 09:34:15 GMT-0800 (Pacific Standard Time)","Mozilla/5.0 (Windows NT 10.0; Win64; x64) AppleWebKit/537.36 (KHTML, like Gecko) Chrome/79.0.3945.130 Safari/537.36",40,"[0.9, 0.5, 0.1]","[0.8, 0.4, 0.2]","[u'red', u'black', u'blue']","[u'left', u'middle', u'right']","[0.9, 0.5, 0.1]","[u'medium', u'high', u'low']","black",50,"middle","high","True","False",215,850,NA
"A1MJVTR0PCKBWW","Wed Jan 29 2020 09:27:42 GMT-0800 (Pacific Standard Time)","Wed Jan 29 2020 09:34:15 GMT-0800 (Pacific Standard Time)","Mozilla/5.0 (Windows NT 10.0; Win64; x64) AppleWebKit/537.36 (KHTML, like Gecko) Chrome/79.0.3945.130 Safari/537.36",41,"[0.9, 0.5, 0.1]","[0.8, 0.4, 0.2]","[u'red', u'black', u'blue']","[u'left', u'middle', u'right']","[0.9, 0.5, 0.1]","[u'high', u'low', u'medium']","black",50,"middle","low","True","False",531,950,NA
"A1MJVTR0PCKBWW","Wed Jan 29 2020 09:27:42 GMT-0800 (Pacific Standard Time)","Wed Jan 29 2020 09:34:15 GMT-0800 (Pacific Standard Time)","Mozilla/5.0 (Windows NT 10.0; Win64; x64) AppleWebKit/537.36 (KHTML, like Gecko) Chrome/79.0.3945.130 Safari/537.36",42,"[0.9, 0.5, 0.1]","[0.8, 0.4, 0.2]","[u'red', u'black', u'blue']","[u'left', u'middle', u'right']","[0.9, 0.5, 0.1]","[u'high', u'low', u'medium']","black",50,"middle","low","False","False",80,900,NA
"A1MJVTR0PCKBWW","Wed Jan 29 2020 09:27:42 GMT-0800 (Pacific Standard Time)","Wed Jan 29 2020 09:34:15 GMT-0800 (Pacific Standard Time)","Mozilla/5.0 (Windows NT 10.0; Win64; x64) AppleWebKit/537.36 (KHTML, like Gecko) Chrome/79.0.3945.130 Safari/537.36",43,"[0.9, 0.5, 0.1]","[0.8, 0.4, 0.2]","[u'red', u'black', u'blue']","[u'left', u'middle', u'right']","[0.9, 0.5, 0.1]","[u'high', u'low', u'medium']","red",49,"left","high","True","False",422,1000,NA
"A1MJVTR0PCKBWW","Wed Jan 29 2020 09:27:42 GMT-0800 (Pacific Standard Time)","Wed Jan 29 2020 09:34:15 GMT-0800 (Pacific Standard Time)","Mozilla/5.0 (Windows NT 10.0; Win64; x64) AppleWebKit/537.36 (KHTML, like Gecko) Chrome/79.0.3945.130 Safari/537.36",44,"[0.9, 0.5, 0.1]","[0.8, 0.4, 0.2]","[u'red', u'black', u'blue']","[u'left', u'middle', u'right']","[0.9, 0.5, 0.1]","[u'high', u'low', u'medium']","blue",51,"right","medium","False","False",128,950,NA
"A1MJVTR0PCKBWW","Wed Jan 29 2020 09:27:42 GMT-0800 (Pacific Standard Time)","Wed Jan 29 2020 09:34:15 GMT-0800 (Pacific Standard Time)","Mozilla/5.0 (Windows NT 10.0; Win64; x64) AppleWebKit/537.36 (KHTML, like Gecko) Chrome/79.0.3945.130 Safari/537.36",45,"[0.9, 0.5, 0.1]","[0.8, 0.4, 0.2]","[u'red', u'black', u'blue']","[u'left', u'middle', u'right']","[0.9, 0.5, 0.1]","[u'high', u'low', u'medium']","red",49,"left","high","True","False",1400,1050,NA
"A1MJVTR0PCKBWW","Wed Jan 29 2020 09:27:42 GMT-0800 (Pacific Standard Time)","Wed Jan 29 2020 09:34:15 GMT-0800 (Pacific Standard Time)","Mozilla/5.0 (Windows NT 10.0; Win64; x64) AppleWebKit/537.36 (KHTML, like Gecko) Chrome/79.0.3945.130 Safari/537.36",46,"[0.9, 0.5, 0.1]","[0.8, 0.4, 0.2]","[u'red', u'black', u'blue']","[u'left', u'middle', u'right']","[0.9, 0.5, 0.1]","[u'high', u'low', u'medium']","blue",51,"right","medium","False","False",72,1000,NA
"A1MJVTR0PCKBWW","Wed Jan 29 2020 09:27:42 GMT-0800 (Pacific Standard Time)","Wed Jan 29 2020 09:34:15 GMT-0800 (Pacific Standard Time)","Mozilla/5.0 (Windows NT 10.0; Win64; x64) AppleWebKit/537.36 (KHTML, like Gecko) Chrome/79.0.3945.130 Safari/537.36",47,"[0.9, 0.5, 0.1]","[0.8, 0.4, 0.2]","[u'red', u'black', u'blue']","[u'left', u'middle', u'right']","[0.9, 0.5, 0.1]","[u'high', u'low', u'medium']","black",50,"middle","low","False","False",181,950,NA
"A1MJVTR0PCKBWW","Wed Jan 29 2020 09:27:42 GMT-0800 (Pacific Standard Time)","Wed Jan 29 2020 09:34:15 GMT-0800 (Pacific Standard Time)","Mozilla/5.0 (Windows NT 10.0; Win64; x64) AppleWebKit/537.36 (KHTML, like Gecko) Chrome/79.0.3945.130 Safari/537.36",48,"[0.9, 0.5, 0.1]","[0.8, 0.4, 0.2]","[u'red', u'black', u'blue']","[u'left', u'middle', u'right']","[0.9, 0.5, 0.1]","[u'high', u'low', u'medium']","red",49,"left","high","True","False",949,1050,NA
"A1MJVTR0PCKBWW","Wed Jan 29 2020 09:27:42 GMT-0800 (Pacific Standard Time)","Wed Jan 29 2020 09:34:15 GMT-0800 (Pacific Standard Time)","Mozilla/5.0 (Windows NT 10.0; Win64; x64) AppleWebKit/537.36 (KHTML, like Gecko) Chrome/79.0.3945.130 Safari/537.36",49,"[0.9, 0.5, 0.1]","[0.8, 0.4, 0.2]","[u'red', u'black', u'blue']","[u'left', u'middle', u'right']","[0.9, 0.5, 0.1]","[u'high', u'low', u'medium']","red",49,"left","high","True","False",582,1150,NA
"A1MJVTR0PCKBWW","Wed Jan 29 2020 09:27:42 GMT-0800 (Pacific Standard Time)","Wed Jan 29 2020 09:34:15 GMT-0800 (Pacific Standard Time)","Mozilla/5.0 (Windows NT 10.0; Win64; x64) AppleWebKit/537.36 (KHTML, like Gecko) Chrome/79.0.3945.130 Safari/537.36",50,"[0.9, 0.5, 0.1]","[0.8, 0.4, 0.2]","[u'red', u'black', u'blue']","[u'left', u'middle', u'right']","[0.9, 0.5, 0.1]","[u'high', u'low', u'medium']","black",50,"middle","low","False","False",264,1100,NA
"A1MJVTR0PCKBWW","Wed Jan 29 2020 09:27:42 GMT-0800 (Pacific Standard Time)","Wed Jan 29 2020 09:34:15 GMT-0800 (Pacific Standard Time)","Mozilla/5.0 (Windows NT 10.0; Win64; x64) AppleWebKit/537.36 (KHTML, like Gecko) Chrome/79.0.3945.130 Safari/537.36",51,"[0.9, 0.5, 0.1]","[0.8, 0.4, 0.2]","[u'red', u'black', u'blue']","[u'left', u'middle', u'right']","[0.9, 0.5, 0.1]","[u'high', u'low', u'medium']","red",49,"left","high","True","False",154,1200,NA
"A1MJVTR0PCKBWW","Wed Jan 29 2020 09:27:42 GMT-0800 (Pacific Standard Time)","Wed Jan 29 2020 09:34:15 GMT-0800 (Pacific Standard Time)","Mozilla/5.0 (Windows NT 10.0; Win64; x64) AppleWebKit/537.36 (KHTML, like Gecko) Chrome/79.0.3945.130 Safari/537.36",52,"[0.9, 0.5, 0.1]","[0.8, 0.4, 0.2]","[u'red', u'black', u'blue']","[u'left', u'middle', u'right']","[0.9, 0.5, 0.1]","[u'high', u'low', u'medium']","red",49,"left","high","True","False",1641,1300,NA
"A1MJVTR0PCKBWW","Wed Jan 29 2020 09:27:42 GMT-0800 (Pacific Standard Time)","Wed Jan 29 2020 09:34:15 GMT-0800 (Pacific Standard Time)","Mozilla/5.0 (Windows NT 10.0; Win64; x64) AppleWebKit/537.36 (KHTML, like Gecko) Chrome/79.0.3945.130 Safari/537.36",53,"[0.9, 0.5, 0.1]","[0.8, 0.4, 0.2]","[u'red', u'black', u'blue']","[u'left', u'middle', u'right']","[0.9, 0.5, 0.1]","[u'high', u'low', u'medium']","red",49,"left","high","True","False",598,1400,NA
"A1MJVTR0PCKBWW","Wed Jan 29 2020 09:27:42 GMT-0800 (Pacific Standard Time)","Wed Jan 29 2020 09:34:15 GMT-0800 (Pacific Standard Time)","Mozilla/5.0 (Windows NT 10.0; Win64; x64) AppleWebKit/537.36 (KHTML, like Gecko) Chrome/79.0.3945.130 Safari/537.36",54,"[0.9, 0.5, 0.1]","[0.8, 0.4, 0.2]","[u'red', u'black', u'blue']","[u'left', u'middle', u'right']","[0.9, 0.5, 0.1]","[u'high', u'low', u'medium']","black",50,"middle","low","False","False",470,1350,NA
"A1MJVTR0PCKBWW","Wed Jan 29 2020 09:27:42 GMT-0800 (Pacific Standard Time)","Wed Jan 29 2020 09:34:15 GMT-0800 (Pacific Standard Time)","Mozilla/5.0 (Windows NT 10.0; Win64; x64) AppleWebKit/537.36 (KHTML, like Gecko) Chrome/79.0.3945.130 Safari/537.36",55,"[0.9, 0.5, 0.1]","[0.8, 0.4, 0.2]","[u'red', u'black', u'blue']","[u'left', u'middle', u'right']","[0.9, 0.5, 0.1]","[u'high', u'low', u'medium']","black",50,"middle","low","False","False",6585,1300,NA
"A1MJVTR0PCKBWW","Wed Jan 29 2020 09:27:42 GMT-0800 (Pacific Standard Time)","Wed Jan 29 2020 09:34:15 GMT-0800 (Pacific Standard Time)","Mozilla/5.0 (Windows NT 10.0; Win64; x64) AppleWebKit/537.36 (KHTML, like Gecko) Chrome/79.0.3945.130 Safari/537.36",56,"[0.9, 0.5, 0.1]","[0.8, 0.4, 0.2]","[u'red', u'black', u'blue']","[u'left', u'middle', u'right']","[0.9, 0.5, 0.1]","[u'high', u'low', u'medium']","red",49,"left","high","True","False",589,1400,NA
"A1MJVTR0PCKBWW","Wed Jan 29 2020 09:27:42 GMT-0800 (Pacific Standard Time)","Wed Jan 29 2020 09:34:15 GMT-0800 (Pacific Standard Time)","Mozilla/5.0 (Windows NT 10.0; Win64; x64) AppleWebKit/537.36 (KHTML, like Gecko) Chrome/79.0.3945.130 Safari/537.36",57,"[0.9, 0.5, 0.1]","[0.8, 0.4, 0.2]","[u'red', u'black', u'blue']","[u'left', u'middle', u'right']","[0.9, 0.5, 0.1]","[u'high', u'low', u'medium']","red",49,"left","high","True","False",1027,1500,NA
"A1MJVTR0PCKBWW","Wed Jan 29 2020 09:27:42 GMT-0800 (Pacific Standard Time)","Wed Jan 29 2020 09:34:15 GMT-0800 (Pacific Standard Time)","Mozilla/5.0 (Windows NT 10.0; Win64; x64) AppleWebKit/537.36 (KHTML, like Gecko) Chrome/79.0.3945.130 Safari/537.36",58,"[0.9, 0.5, 0.1]","[0.8, 0.4, 0.2]","[u'red', u'black', u'blue']","[u'left', u'middle', u'right']","[0.9, 0.5, 0.1]","[u'high', u'low', u'medium']","blue",51,"right","medium","False","False",346,1450,NA
"A1MJVTR0PCKBWW","Wed Jan 29 2020 09:27:42 GMT-0800 (Pacific Standard Time)","Wed Jan 29 2020 09:34:15 GMT-0800 (Pacific Standard Time)","Mozilla/5.0 (Windows NT 10.0; Win64; x64) AppleWebKit/537.36 (KHTML, like Gecko) Chrome/79.0.3945.130 Safari/537.36",59,"[0.9, 0.5, 0.1]","[0.8, 0.4, 0.2]","[u'red', u'black', u'blue']","[u'left', u'middle', u'right']","[0.9, 0.5, 0.1]","[u'high', u'low', u'medium']","black",50,"middle","low","False","False",391,1400,NA
"A1MJVTR0PCKBWW","Wed Jan 29 2020 09:27:42 GMT-0800 (Pacific Standard Time)","Wed Jan 29 2020 09:34:15 GMT-0800 (Pacific Standard Time)","Mozilla/5.0 (Windows NT 10.0; Win64; x64) AppleWebKit/537.36 (KHTML, like Gecko) Chrome/79.0.3945.130 Safari/537.36",60,"[0.9, 0.5, 0.1]","[0.8, 0.4, 0.2]","[u'red', u'black', u'blue']","[u'left', u'middle', u'right']","[0.9, 0.5, 0.1]","[u'high', u'low', u'medium']","red",49,"left","high","True","False",1615,1500,NA
"A1MJVTR0PCKBWW","Wed Jan 29 2020 09:27:42 GMT-0800 (Pacific Standard Time)","Wed Jan 29 2020 09:34:15 GMT-0800 (Pacific Standard Time)","Mozilla/5.0 (Windows NT 10.0; Win64; x64) AppleWebKit/537.36 (KHTML, like Gecko) Chrome/79.0.3945.130 Safari/537.36",61,"[0.9, 0.5, 0.1]","[0.8, 0.4, 0.2]","[u'red', u'black', u'blue']","[u'left', u'middle', u'right']","[0.9, 0.5, 0.1]","[u'high', u'low', u'medium']","black",50,"middle","low","False","False",248,1450,NA
"A1MJVTR0PCKBWW","Wed Jan 29 2020 09:27:42 GMT-0800 (Pacific Standard Time)","Wed Jan 29 2020 09:34:15 GMT-0800 (Pacific Standard Time)","Mozilla/5.0 (Windows NT 10.0; Win64; x64) AppleWebKit/537.36 (KHTML, like Gecko) Chrome/79.0.3945.130 Safari/537.36",62,"[0.9, 0.5, 0.1]","[0.8, 0.4, 0.2]","[u'red', u'black', u'blue']","[u'left', u'middle', u'right']","[0.9, 0.5, 0.1]","[u'high', u'low', u'medium']","blue",51,"right","medium","False","False",257,1400,NA
"A1MJVTR0PCKBWW","Wed Jan 29 2020 09:27:42 GMT-0800 (Pacific Standard Time)","Wed Jan 29 2020 09:34:15 GMT-0800 (Pacific Standard Time)","Mozilla/5.0 (Windows NT 10.0; Win64; x64) AppleWebKit/537.36 (KHTML, like Gecko) Chrome/79.0.3945.130 Safari/537.36",63,"[0.9, 0.5, 0.1]","[0.8, 0.4, 0.2]","[u'red', u'black', u'blue']","[u'left', u'middle', u'right']","[0.9, 0.5, 0.1]","[u'high', u'low', u'medium']","red",49,"left","high","True","False",356,1500,NA
"A1MJVTR0PCKBWW","Wed Jan 29 2020 09:27:42 GMT-0800 (Pacific Standard Time)","Wed Jan 29 2020 09:34:15 GMT-0800 (Pacific Standard Time)","Mozilla/5.0 (Windows NT 10.0; Win64; x64) AppleWebKit/537.36 (KHTML, like Gecko) Chrome/79.0.3945.130 Safari/537.36",64,"[0.9, 0.5, 0.1]","[0.8, 0.4, 0.2]","[u'red', u'black', u'blue']","[u'left', u'middle', u'right']","[0.9, 0.5, 0.1]","[u'high', u'low', u'medium']","black",50,"middle","low","False","False",272,1450,NA
"A1MJVTR0PCKBWW","Wed Jan 29 2020 09:27:42 GMT-0800 (Pacific Standard Time)","Wed Jan 29 2020 09:34:15 GMT-0800 (Pacific Standard Time)","Mozilla/5.0 (Windows NT 10.0; Win64; x64) AppleWebKit/537.36 (KHTML, like Gecko) Chrome/79.0.3945.130 Safari/537.36",65,"[0.9, 0.5, 0.1]","[0.8, 0.4, 0.2]","[u'red', u'black', u'blue']","[u'left', u'middle', u'right']","[0.9, 0.5, 0.1]","[u'high', u'low', u'medium']","red",49,"left","high","True","False",250,1550,NA
"A1MJVTR0PCKBWW","Wed Jan 29 2020 09:27:42 GMT-0800 (Pacific Standard Time)","Wed Jan 29 2020 09:34:15 GMT-0800 (Pacific Standard Time)","Mozilla/5.0 (Windows NT 10.0; Win64; x64) AppleWebKit/537.36 (KHTML, like Gecko) Chrome/79.0.3945.130 Safari/537.36",66,"[0.9, 0.5, 0.1]","[0.8, 0.4, 0.2]","[u'red', u'black', u'blue']","[u'left', u'middle', u'right']","[0.9, 0.5, 0.1]","[u'high', u'low', u'medium']","red",49,"left","high","True","False",435,1650,NA
"A1MJVTR0PCKBWW","Wed Jan 29 2020 09:27:42 GMT-0800 (Pacific Standard Time)","Wed Jan 29 2020 09:34:15 GMT-0800 (Pacific Standard Time)","Mozilla/5.0 (Windows NT 10.0; Win64; x64) AppleWebKit/537.36 (KHTML, like Gecko) Chrome/79.0.3945.130 Safari/537.36",67,"[0.9, 0.5, 0.1]","[0.8, 0.4, 0.2]","[u'red', u'black', u'blue']","[u'left', u'middle', u'right']","[0.9, 0.5, 0.1]","[u'high', u'low', u'medium']","red",49,"left","high","True","False",217,1750,NA
"A1MJVTR0PCKBWW","Wed Jan 29 2020 09:27:42 GMT-0800 (Pacific Standard Time)","Wed Jan 29 2020 09:34:15 GMT-0800 (Pacific Standard Time)","Mozilla/5.0 (Windows NT 10.0; Win64; x64) AppleWebKit/537.36 (KHTML, like Gecko) Chrome/79.0.3945.130 Safari/537.36",68,"[0.9, 0.5, 0.1]","[0.8, 0.4, 0.2]","[u'red', u'black', u'blue']","[u'left', u'middle', u'right']","[0.9, 0.5, 0.1]","[u'high', u'low', u'medium']","red",49,"left","high","True","False",215,1850,NA
"A1MJVTR0PCKBWW","Wed Jan 29 2020 09:27:42 GMT-0800 (Pacific Standard Time)","Wed Jan 29 2020 09:34:15 GMT-0800 (Pacific Standard Time)","Mozilla/5.0 (Windows NT 10.0; Win64; x64) AppleWebKit/537.36 (KHTML, like Gecko) Chrome/79.0.3945.130 Safari/537.36",69,"[0.9, 0.5, 0.1]","[0.8, 0.4, 0.2]","[u'red', u'black', u'blue']","[u'left', u'middle', u'right']","[0.9, 0.5, 0.1]","[u'high', u'low', u'medium']","red",49,"left","high","True","False",232,1950,NA
"A1MJVTR0PCKBWW","Wed Jan 29 2020 09:27:42 GMT-0800 (Pacific Standard Time)","Wed Jan 29 2020 09:34:15 GMT-0800 (Pacific Standard Time)","Mozilla/5.0 (Windows NT 10.0; Win64; x64) AppleWebKit/537.36 (KHTML, like Gecko) Chrome/79.0.3945.130 Safari/537.36",70,"[0.9, 0.5, 0.1]","[0.8, 0.4, 0.2]","[u'red', u'black', u'blue']","[u'left', u'middle', u'right']","[0.9, 0.5, 0.1]","[u'high', u'low', u'medium']","red",49,"left","high","True","False",218,2050,NA
"A1MJVTR0PCKBWW","Wed Jan 29 2020 09:27:42 GMT-0800 (Pacific Standard Time)","Wed Jan 29 2020 09:34:15 GMT-0800 (Pacific Standard Time)","Mozilla/5.0 (Windows NT 10.0; Win64; x64) AppleWebKit/537.36 (KHTML, like Gecko) Chrome/79.0.3945.130 Safari/537.36",71,"[0.9, 0.5, 0.1]","[0.8, 0.4, 0.2]","[u'red', u'black', u'blue']","[u'left', u'middle', u'right']","[0.9, 0.5, 0.1]","[u'high', u'low', u'medium']","red",49,"left","high","True","False",217,2150,NA
"A1MJVTR0PCKBWW","Wed Jan 29 2020 09:27:42 GMT-0800 (Pacific Standard Time)","Wed Jan 29 2020 09:34:15 GMT-0800 (Pacific Standard Time)","Mozilla/5.0 (Windows NT 10.0; Win64; x64) AppleWebKit/537.36 (KHTML, like Gecko) Chrome/79.0.3945.130 Safari/537.36",72,"[0.9, 0.5, 0.1]","[0.8, 0.4, 0.2]","[u'red', u'black', u'blue']","[u'left', u'middle', u'right']","[0.9, 0.5, 0.1]","[u'high', u'low', u'medium']","red",49,"left","high","True","True",273,2250,NA
"A1MJVTR0PCKBWW","Wed Jan 29 2020 09:27:42 GMT-0800 (Pacific Standard Time)","Wed Jan 29 2020 09:34:15 GMT-0800 (Pacific Standard Time)","Mozilla/5.0 (Windows NT 10.0; Win64; x64) AppleWebKit/537.36 (KHTML, like Gecko) Chrome/79.0.3945.130 Safari/537.36",73,"[0.9, 0.5, 0.1]","[0.8, 0.4, 0.2]","[u'red', u'black', u'blue']","[u'left', u'middle', u'right']","[0.9, 0.5, 0.1]","[u'medium', u'high', u'low']","red",49,"left","medium","False","False",287,2200,NA
"A1MJVTR0PCKBWW","Wed Jan 29 2020 09:27:42 GMT-0800 (Pacific Standard Time)","Wed Jan 29 2020 09:34:15 GMT-0800 (Pacific Standard Time)","Mozilla/5.0 (Windows NT 10.0; Win64; x64) AppleWebKit/537.36 (KHTML, like Gecko) Chrome/79.0.3945.130 Safari/537.36",74,"[0.9, 0.5, 0.1]","[0.8, 0.4, 0.2]","[u'red', u'black', u'blue']","[u'left', u'middle', u'right']","[0.9, 0.5, 0.1]","[u'medium', u'high', u'low']","red",49,"left","medium","True","False",228,2300,NA
"A1MJVTR0PCKBWW","Wed Jan 29 2020 09:27:42 GMT-0800 (Pacific Standard Time)","Wed Jan 29 2020 09:34:15 GMT-0800 (Pacific Standard Time)","Mozilla/5.0 (Windows NT 10.0; Win64; x64) AppleWebKit/537.36 (KHTML, like Gecko) Chrome/79.0.3945.130 Safari/537.36",75,"[0.9, 0.5, 0.1]","[0.8, 0.4, 0.2]","[u'red', u'black', u'blue']","[u'left', u'middle', u'right']","[0.9, 0.5, 0.1]","[u'medium', u'high', u'low']","red",49,"left","medium","True","False",425,2400,NA
"A1MJVTR0PCKBWW","Wed Jan 29 2020 09:27:42 GMT-0800 (Pacific Standard Time)","Wed Jan 29 2020 09:34:15 GMT-0800 (Pacific Standard Time)","Mozilla/5.0 (Windows NT 10.0; Win64; x64) AppleWebKit/537.36 (KHTML, like Gecko) Chrome/79.0.3945.130 Safari/537.36",76,"[0.9, 0.5, 0.1]","[0.8, 0.4, 0.2]","[u'red', u'black', u'blue']","[u'left', u'middle', u'right']","[0.9, 0.5, 0.1]","[u'medium', u'high', u'low']","red",49,"left","medium","True","False",276,2500,NA
"A1MJVTR0PCKBWW","Wed Jan 29 2020 09:27:42 GMT-0800 (Pacific Standard Time)","Wed Jan 29 2020 09:34:15 GMT-0800 (Pacific Standard Time)","Mozilla/5.0 (Windows NT 10.0; Win64; x64) AppleWebKit/537.36 (KHTML, like Gecko) Chrome/79.0.3945.130 Safari/537.36",77,"[0.9, 0.5, 0.1]","[0.8, 0.4, 0.2]","[u'red', u'black', u'blue']","[u'left', u'middle', u'right']","[0.9, 0.5, 0.1]","[u'medium', u'high', u'low']","red",49,"left","medium","False","False",212,2450,NA
"A1MJVTR0PCKBWW","Wed Jan 29 2020 09:27:42 GMT-0800 (Pacific Standard Time)","Wed Jan 29 2020 09:34:15 GMT-0800 (Pacific Standard Time)","Mozilla/5.0 (Windows NT 10.0; Win64; x64) AppleWebKit/537.36 (KHTML, like Gecko) Chrome/79.0.3945.130 Safari/537.36",78,"[0.9, 0.5, 0.1]","[0.8, 0.4, 0.2]","[u'red', u'black', u'blue']","[u'left', u'middle', u'right']","[0.9, 0.5, 0.1]","[u'medium', u'high', u'low']","red",49,"left","medium","False","False",270,2400,NA
"A1MJVTR0PCKBWW","Wed Jan 29 2020 09:27:42 GMT-0800 (Pacific Standard Time)","Wed Jan 29 2020 09:34:15 GMT-0800 (Pacific Standard Time)","Mozilla/5.0 (Windows NT 10.0; Win64; x64) AppleWebKit/537.36 (KHTML, like Gecko) Chrome/79.0.3945.130 Safari/537.36",79,"[0.9, 0.5, 0.1]","[0.8, 0.4, 0.2]","[u'red', u'black', u'blue']","[u'left', u'middle', u'right']","[0.9, 0.5, 0.1]","[u'medium', u'high', u'low']","black",50,"middle","high","True","False",254,2500,NA
"A1MJVTR0PCKBWW","Wed Jan 29 2020 09:27:42 GMT-0800 (Pacific Standard Time)","Wed Jan 29 2020 09:34:15 GMT-0800 (Pacific Standard Time)","Mozilla/5.0 (Windows NT 10.0; Win64; x64) AppleWebKit/537.36 (KHTML, like Gecko) Chrome/79.0.3945.130 Safari/537.36",80,"[0.9, 0.5, 0.1]","[0.8, 0.4, 0.2]","[u'red', u'black', u'blue']","[u'left', u'middle', u'right']","[0.9, 0.5, 0.1]","[u'medium', u'high', u'low']","black",50,"middle","high","True","False",219,2600,NA
"A1MJVTR0PCKBWW","Wed Jan 29 2020 09:27:42 GMT-0800 (Pacific Standard Time)","Wed Jan 29 2020 09:34:15 GMT-0800 (Pacific Standard Time)","Mozilla/5.0 (Windows NT 10.0; Win64; x64) AppleWebKit/537.36 (KHTML, like Gecko) Chrome/79.0.3945.130 Safari/537.36",81,"[0.9, 0.5, 0.1]","[0.8, 0.4, 0.2]","[u'red', u'black', u'blue']","[u'left', u'middle', u'right']","[0.8, 0.4, 0.2]","[u'high', u'medium', u'low']","black",50,"middle","medium","False","False",1652,2550,NA
"A1MJVTR0PCKBWW","Wed Jan 29 2020 09:27:42 GMT-0800 (Pacific Standard Time)","Wed Jan 29 2020 09:34:15 GMT-0800 (Pacific Standard Time)","Mozilla/5.0 (Windows NT 10.0; Win64; x64) AppleWebKit/537.36 (KHTML, like Gecko) Chrome/79.0.3945.130 Safari/537.36",82,"[0.9, 0.5, 0.1]","[0.8, 0.4, 0.2]","[u'red', u'black', u'blue']","[u'left', u'middle', u'right']","[0.8, 0.4, 0.2]","[u'high', u'medium', u'low']","red",49,"left","high","True","False",261,2650,NA
"A1MJVTR0PCKBWW","Wed Jan 29 2020 09:27:42 GMT-0800 (Pacific Standard Time)","Wed Jan 29 2020 09:34:15 GMT-0800 (Pacific Standard Time)","Mozilla/5.0 (Windows NT 10.0; Win64; x64) AppleWebKit/537.36 (KHTML, like Gecko) Chrome/79.0.3945.130 Safari/537.36",83,"[0.9, 0.5, 0.1]","[0.8, 0.4, 0.2]","[u'red', u'black', u'blue']","[u'left', u'middle', u'right']","[0.8, 0.4, 0.2]","[u'high', u'medium', u'low']","red",49,"left","high","False","False",285,2600,NA
"A1MJVTR0PCKBWW","Wed Jan 29 2020 09:27:42 GMT-0800 (Pacific Standard Time)","Wed Jan 29 2020 09:34:15 GMT-0800 (Pacific Standard Time)","Mozilla/5.0 (Windows NT 10.0; Win64; x64) AppleWebKit/537.36 (KHTML, like Gecko) Chrome/79.0.3945.130 Safari/537.36",84,"[0.9, 0.5, 0.1]","[0.8, 0.4, 0.2]","[u'red', u'black', u'blue']","[u'left', u'middle', u'right']","[0.8, 0.4, 0.2]","[u'high', u'medium', u'low']","black",50,"middle","medium","False","False",222,2550,NA
"A1MJVTR0PCKBWW","Wed Jan 29 2020 09:27:42 GMT-0800 (Pacific Standard Time)","Wed Jan 29 2020 09:34:15 GMT-0800 (Pacific Standard Time)","Mozilla/5.0 (Windows NT 10.0; Win64; x64) AppleWebKit/537.36 (KHTML, like Gecko) Chrome/79.0.3945.130 Safari/537.36",85,"[0.9, 0.5, 0.1]","[0.8, 0.4, 0.2]","[u'red', u'black', u'blue']","[u'left', u'middle', u'right']","[0.8, 0.4, 0.2]","[u'high', u'medium', u'low']","blue",51,"right","low","False","False",275,2500,NA
"A1MJVTR0PCKBWW","Wed Jan 29 2020 09:27:42 GMT-0800 (Pacific Standard Time)","Wed Jan 29 2020 09:34:15 GMT-0800 (Pacific Standard Time)","Mozilla/5.0 (Windows NT 10.0; Win64; x64) AppleWebKit/537.36 (KHTML, like Gecko) Chrome/79.0.3945.130 Safari/537.36",86,"[0.9, 0.5, 0.1]","[0.8, 0.4, 0.2]","[u'red', u'black', u'blue']","[u'left', u'middle', u'right']","[0.8, 0.4, 0.2]","[u'high', u'medium', u'low']","black",50,"middle","medium","True","False",208,2600,NA
"A1MJVTR0PCKBWW","Wed Jan 29 2020 09:27:42 GMT-0800 (Pacific Standard Time)","Wed Jan 29 2020 09:34:15 GMT-0800 (Pacific Standard Time)","Mozilla/5.0 (Windows NT 10.0; Win64; x64) AppleWebKit/537.36 (KHTML, like Gecko) Chrome/79.0.3945.130 Safari/537.36",87,"[0.9, 0.5, 0.1]","[0.8, 0.4, 0.2]","[u'red', u'black', u'blue']","[u'left', u'middle', u'right']","[0.8, 0.4, 0.2]","[u'high', u'medium', u'low']","black",50,"middle","medium","True","False",205,2700,NA
"A1MJVTR0PCKBWW","Wed Jan 29 2020 09:27:42 GMT-0800 (Pacific Standard Time)","Wed Jan 29 2020 09:34:15 GMT-0800 (Pacific Standard Time)","Mozilla/5.0 (Windows NT 10.0; Win64; x64) AppleWebKit/537.36 (KHTML, like Gecko) Chrome/79.0.3945.130 Safari/537.36",88,"[0.9, 0.5, 0.1]","[0.8, 0.4, 0.2]","[u'red', u'black', u'blue']","[u'left', u'middle', u'right']","[0.8, 0.4, 0.2]","[u'high', u'medium', u'low']","black",50,"middle","medium","True","False",209,2800,NA
"A1MJVTR0PCKBWW","Wed Jan 29 2020 09:27:42 GMT-0800 (Pacific Standard Time)","Wed Jan 29 2020 09:34:15 GMT-0800 (Pacific Standard Time)","Mozilla/5.0 (Windows NT 10.0; Win64; x64) AppleWebKit/537.36 (KHTML, like Gecko) Chrome/79.0.3945.130 Safari/537.36",89,"[0.9, 0.5, 0.1]","[0.8, 0.4, 0.2]","[u'red', u'black', u'blue']","[u'left', u'middle', u'right']","[0.8, 0.4, 0.2]","[u'high', u'medium', u'low']","black",50,"middle","medium","False","False",199,2750,NA
"A1MJVTR0PCKBWW","Wed Jan 29 2020 09:27:42 GMT-0800 (Pacific Standard Time)","Wed Jan 29 2020 09:34:15 GMT-0800 (Pacific Standard Time)","Mozilla/5.0 (Windows NT 10.0; Win64; x64) AppleWebKit/537.36 (KHTML, like Gecko) Chrome/79.0.3945.130 Safari/537.36",90,"[0.9, 0.5, 0.1]","[0.8, 0.4, 0.2]","[u'red', u'black', u'blue']","[u'left', u'middle', u'right']","[0.8, 0.4, 0.2]","[u'high', u'medium', u'low']","red",49,"left","high","True","False",259,2850,NA
"A1MJVTR0PCKBWW","Wed Jan 29 2020 09:27:42 GMT-0800 (Pacific Standard Time)","Wed Jan 29 2020 09:34:15 GMT-0800 (Pacific Standard Time)","Mozilla/5.0 (Windows NT 10.0; Win64; x64) AppleWebKit/537.36 (KHTML, like Gecko) Chrome/79.0.3945.130 Safari/537.36",91,"[0.9, 0.5, 0.1]","[0.8, 0.4, 0.2]","[u'red', u'black', u'blue']","[u'left', u'middle', u'right']","[0.8, 0.4, 0.2]","[u'high', u'medium', u'low']","red",49,"left","high","True","False",215,2950,NA
"A1MJVTR0PCKBWW","Wed Jan 29 2020 09:27:42 GMT-0800 (Pacific Standard Time)","Wed Jan 29 2020 09:34:15 GMT-0800 (Pacific Standard Time)","Mozilla/5.0 (Windows NT 10.0; Win64; x64) AppleWebKit/537.36 (KHTML, like Gecko) Chrome/79.0.3945.130 Safari/537.36",92,"[0.9, 0.5, 0.1]","[0.8, 0.4, 0.2]","[u'red', u'black', u'blue']","[u'left', u'middle', u'right']","[0.8, 0.4, 0.2]","[u'high', u'medium', u'low']","red",49,"left","high","True","False",248,3050,NA
"A1MJVTR0PCKBWW","Wed Jan 29 2020 09:27:42 GMT-0800 (Pacific Standard Time)","Wed Jan 29 2020 09:34:15 GMT-0800 (Pacific Standard Time)","Mozilla/5.0 (Windows NT 10.0; Win64; x64) AppleWebKit/537.36 (KHTML, like Gecko) Chrome/79.0.3945.130 Safari/537.36",93,"[0.9, 0.5, 0.1]","[0.8, 0.4, 0.2]","[u'red', u'black', u'blue']","[u'left', u'middle', u'right']","[0.8, 0.4, 0.2]","[u'high', u'medium', u'low']","red",49,"left","high","True","False",280,3150,NA
"A1MJVTR0PCKBWW","Wed Jan 29 2020 09:27:42 GMT-0800 (Pacific Standard Time)","Wed Jan 29 2020 09:34:15 GMT-0800 (Pacific Standard Time)","Mozilla/5.0 (Windows NT 10.0; Win64; x64) AppleWebKit/537.36 (KHTML, like Gecko) Chrome/79.0.3945.130 Safari/537.36",94,"[0.9, 0.5, 0.1]","[0.8, 0.4, 0.2]","[u'red', u'black', u'blue']","[u'left', u'middle', u'right']","[0.8, 0.4, 0.2]","[u'high', u'medium', u'low']","red",49,"left","high","True","False",169,3250,NA
"A1MJVTR0PCKBWW","Wed Jan 29 2020 09:27:42 GMT-0800 (Pacific Standard Time)","Wed Jan 29 2020 09:34:15 GMT-0800 (Pacific Standard Time)","Mozilla/5.0 (Windows NT 10.0; Win64; x64) AppleWebKit/537.36 (KHTML, like Gecko) Chrome/79.0.3945.130 Safari/537.36",95,"[0.9, 0.5, 0.1]","[0.8, 0.4, 0.2]","[u'red', u'black', u'blue']","[u'left', u'middle', u'right']","[0.8, 0.4, 0.2]","[u'high', u'medium', u'low']","red",49,"left","high","True","False",251,3350,NA
"A1MJVTR0PCKBWW","Wed Jan 29 2020 09:27:42 GMT-0800 (Pacific Standard Time)","Wed Jan 29 2020 09:34:15 GMT-0800 (Pacific Standard Time)","Mozilla/5.0 (Windows NT 10.0; Win64; x64) AppleWebKit/537.36 (KHTML, like Gecko) Chrome/79.0.3945.130 Safari/537.36",96,"[0.9, 0.5, 0.1]","[0.8, 0.4, 0.2]","[u'red', u'black', u'blue']","[u'left', u'middle', u'right']","[0.8, 0.4, 0.2]","[u'high', u'medium', u'low']","red",49,"left","high","False","False",223,3300,NA
"A1MJVTR0PCKBWW","Wed Jan 29 2020 09:27:42 GMT-0800 (Pacific Standard Time)","Wed Jan 29 2020 09:34:15 GMT-0800 (Pacific Standard Time)","Mozilla/5.0 (Windows NT 10.0; Win64; x64) AppleWebKit/537.36 (KHTML, like Gecko) Chrome/79.0.3945.130 Safari/537.36",97,"[0.9, 0.5, 0.1]","[0.8, 0.4, 0.2]","[u'red', u'black', u'blue']","[u'left', u'middle', u'right']","[0.8, 0.4, 0.2]","[u'high', u'medium', u'low']","red",49,"left","high","True","False",258,3400,NA
"A1MJVTR0PCKBWW","Wed Jan 29 2020 09:27:42 GMT-0800 (Pacific Standard Time)","Wed Jan 29 2020 09:34:15 GMT-0800 (Pacific Standard Time)","Mozilla/5.0 (Windows NT 10.0; Win64; x64) AppleWebKit/537.36 (KHTML, like Gecko) Chrome/79.0.3945.130 Safari/537.36",98,"[0.9, 0.5, 0.1]","[0.8, 0.4, 0.2]","[u'red', u'black', u'blue']","[u'left', u'middle', u'right']","[0.8, 0.4, 0.2]","[u'high', u'medium', u'low']","red",49,"left","high","True","True",195,3500,NA
"A1MJVTR0PCKBWW","Wed Jan 29 2020 09:27:42 GMT-0800 (Pacific Standard Time)","Wed Jan 29 2020 09:34:15 GMT-0800 (Pacific Standard Time)","Mozilla/5.0 (Windows NT 10.0; Win64; x64) AppleWebKit/537.36 (KHTML, like Gecko) Chrome/79.0.3945.130 Safari/537.36",99,"[0.9, 0.5, 0.1]","[0.8, 0.4, 0.2]","[u'red', u'black', u'blue']","[u'left', u'middle', u'right']","[0.8, 0.4, 0.2]","[u'medium', u'low', u'high']","red",49,"left","medium","False","False",63,3450,NA
"A1MJVTR0PCKBWW","Wed Jan 29 2020 09:27:42 GMT-0800 (Pacific Standard Time)","Wed Jan 29 2020 09:34:15 GMT-0800 (Pacific Standard Time)","Mozilla/5.0 (Windows NT 10.0; Win64; x64) AppleWebKit/537.36 (KHTML, like Gecko) Chrome/79.0.3945.130 Safari/537.36",100,"[0.9, 0.5, 0.1]","[0.8, 0.4, 0.2]","[u'red', u'black', u'blue']","[u'left', u'middle', u'right']","[0.8, 0.4, 0.2]","[u'medium', u'low', u'high']","black",50,"middle","low","False","False",172,3400,NA
"A1MJVTR0PCKBWW","Wed Jan 29 2020 09:27:42 GMT-0800 (Pacific Standard Time)","Wed Jan 29 2020 09:34:15 GMT-0800 (Pacific Standard Time)","Mozilla/5.0 (Windows NT 10.0; Win64; x64) AppleWebKit/537.36 (KHTML, like Gecko) Chrome/79.0.3945.130 Safari/537.36",101,"[0.9, 0.5, 0.1]","[0.8, 0.4, 0.2]","[u'red', u'black', u'blue']","[u'left', u'middle', u'right']","[0.8, 0.4, 0.2]","[u'medium', u'low', u'high']","blue",51,"right","high","True","False",67,3500,NA
"A1MJVTR0PCKBWW","Wed Jan 29 2020 09:27:42 GMT-0800 (Pacific Standard Time)","Wed Jan 29 2020 09:34:15 GMT-0800 (Pacific Standard Time)","Mozilla/5.0 (Windows NT 10.0; Win64; x64) AppleWebKit/537.36 (KHTML, like Gecko) Chrome/79.0.3945.130 Safari/537.36",102,"[0.9, 0.5, 0.1]","[0.8, 0.4, 0.2]","[u'red', u'black', u'blue']","[u'left', u'middle', u'right']","[0.8, 0.4, 0.2]","[u'medium', u'low', u'high']","blue",51,"right","high","True","False",218,3600,NA
"A1MJVTR0PCKBWW","Wed Jan 29 2020 09:27:42 GMT-0800 (Pacific Standard Time)","Wed Jan 29 2020 09:34:15 GMT-0800 (Pacific Standard Time)","Mozilla/5.0 (Windows NT 10.0; Win64; x64) AppleWebKit/537.36 (KHTML, like Gecko) Chrome/79.0.3945.130 Safari/537.36",103,"[0.9, 0.5, 0.1]","[0.8, 0.4, 0.2]","[u'red', u'black', u'blue']","[u'left', u'middle', u'right']","[0.8, 0.4, 0.2]","[u'medium', u'low', u'high']","blue",51,"right","high","True","False",96,3700,NA
"A1MJVTR0PCKBWW","Wed Jan 29 2020 09:27:42 GMT-0800 (Pacific Standard Time)","Wed Jan 29 2020 09:34:15 GMT-0800 (Pacific Standard Time)","Mozilla/5.0 (Windows NT 10.0; Win64; x64) AppleWebKit/537.36 (KHTML, like Gecko) Chrome/79.0.3945.130 Safari/537.36",104,"[0.9, 0.5, 0.1]","[0.8, 0.4, 0.2]","[u'red', u'black', u'blue']","[u'left', u'middle', u'right']","[0.8, 0.4, 0.2]","[u'medium', u'low', u'high']","blue",51,"right","high","True","False",192,3800,NA
"A1MJVTR0PCKBWW","Wed Jan 29 2020 09:27:42 GMT-0800 (Pacific Standard Time)","Wed Jan 29 2020 09:34:15 GMT-0800 (Pacific Standard Time)","Mozilla/5.0 (Windows NT 10.0; Win64; x64) AppleWebKit/537.36 (KHTML, like Gecko) Chrome/79.0.3945.130 Safari/537.36",105,"[0.9, 0.5, 0.1]","[0.8, 0.4, 0.2]","[u'red', u'black', u'blue']","[u'left', u'middle', u'right']","[0.8, 0.4, 0.2]","[u'medium', u'low', u'high']","blue",51,"right","high","True","False",180,3900,NA
"A1MJVTR0PCKBWW","Wed Jan 29 2020 09:27:42 GMT-0800 (Pacific Standard Time)","Wed Jan 29 2020 09:34:15 GMT-0800 (Pacific Standard Time)","Mozilla/5.0 (Windows NT 10.0; Win64; x64) AppleWebKit/537.36 (KHTML, like Gecko) Chrome/79.0.3945.130 Safari/537.36",106,"[0.9, 0.5, 0.1]","[0.8, 0.4, 0.2]","[u'red', u'black', u'blue']","[u'left', u'middle', u'right']","[0.8, 0.4, 0.2]","[u'medium', u'low', u'high']","blue",51,"right","high","True","False",229,4000,NA
"A1MJVTR0PCKBWW","Wed Jan 29 2020 09:27:42 GMT-0800 (Pacific Standard Time)","Wed Jan 29 2020 09:34:15 GMT-0800 (Pacific Standard Time)","Mozilla/5.0 (Windows NT 10.0; Win64; x64) AppleWebKit/537.36 (KHTML, like Gecko) Chrome/79.0.3945.130 Safari/537.36",107,"[0.9, 0.5, 0.1]","[0.8, 0.4, 0.2]","[u'red', u'black', u'blue']","[u'left', u'middle', u'right']","[0.8, 0.4, 0.2]","[u'medium', u'low', u'high']","black",50,"middle","low","False","False",292,3950,NA
"A1MJVTR0PCKBWW","Wed Jan 29 2020 09:27:42 GMT-0800 (Pacific Standard Time)","Wed Jan 29 2020 09:34:15 GMT-0800 (Pacific Standard Time)","Mozilla/5.0 (Windows NT 10.0; Win64; x64) AppleWebKit/537.36 (KHTML, like Gecko) Chrome/79.0.3945.130 Safari/537.36",108,"[0.9, 0.5, 0.1]","[0.8, 0.4, 0.2]","[u'red', u'black', u'blue']","[u'left', u'middle', u'right']","[0.8, 0.4, 0.2]","[u'medium', u'low', u'high']","red",49,"left","medium","False","False",260,3900,NA
"A1MJVTR0PCKBWW","Wed Jan 29 2020 09:27:42 GMT-0800 (Pacific Standard Time)","Wed Jan 29 2020 09:34:15 GMT-0800 (Pacific Standard Time)","Mozilla/5.0 (Windows NT 10.0; Win64; x64) AppleWebKit/537.36 (KHTML, like Gecko) Chrome/79.0.3945.130 Safari/537.36",109,"[0.9, 0.5, 0.1]","[0.8, 0.4, 0.2]","[u'red', u'black', u'blue']","[u'left', u'middle', u'right']","[0.8, 0.4, 0.2]","[u'medium', u'low', u'high']","black",50,"middle","low","False","False",255,3850,NA
"A1MJVTR0PCKBWW","Wed Jan 29 2020 09:27:42 GMT-0800 (Pacific Standard Time)","Wed Jan 29 2020 09:34:15 GMT-0800 (Pacific Standard Time)","Mozilla/5.0 (Windows NT 10.0; Win64; x64) AppleWebKit/537.36 (KHTML, like Gecko) Chrome/79.0.3945.130 Safari/537.36",110,"[0.9, 0.5, 0.1]","[0.8, 0.4, 0.2]","[u'red', u'black', u'blue']","[u'left', u'middle', u'right']","[0.8, 0.4, 0.2]","[u'medium', u'low', u'high']","blue",51,"right","high","False","False",173,3800,NA
"A1MJVTR0PCKBWW","Wed Jan 29 2020 09:27:42 GMT-0800 (Pacific Standard Time)","Wed Jan 29 2020 09:34:15 GMT-0800 (Pacific Standard Time)","Mozilla/5.0 (Windows NT 10.0; Win64; x64) AppleWebKit/537.36 (KHTML, like Gecko) Chrome/79.0.3945.130 Safari/537.36",111,"[0.9, 0.5, 0.1]","[0.8, 0.4, 0.2]","[u'red', u'black', u'blue']","[u'left', u'middle', u'right']","[0.8, 0.4, 0.2]","[u'medium', u'low', u'high']","red",49,"left","medium","False","False",304,3750,NA
"A1MJVTR0PCKBWW","Wed Jan 29 2020 09:27:42 GMT-0800 (Pacific Standard Time)","Wed Jan 29 2020 09:34:15 GMT-0800 (Pacific Standard Time)","Mozilla/5.0 (Windows NT 10.0; Win64; x64) AppleWebKit/537.36 (KHTML, like Gecko) Chrome/79.0.3945.130 Safari/537.36",112,"[0.9, 0.5, 0.1]","[0.8, 0.4, 0.2]","[u'red', u'black', u'blue']","[u'left', u'middle', u'right']","[0.8, 0.4, 0.2]","[u'medium', u'low', u'high']","black",50,"middle","low","False","False",211,3700,NA
"A1MJVTR0PCKBWW","Wed Jan 29 2020 09:27:42 GMT-0800 (Pacific Standard Time)","Wed Jan 29 2020 09:34:15 GMT-0800 (Pacific Standard Time)","Mozilla/5.0 (Windows NT 10.0; Win64; x64) AppleWebKit/537.36 (KHTML, like Gecko) Chrome/79.0.3945.130 Safari/537.36",113,"[0.9, 0.5, 0.1]","[0.8, 0.4, 0.2]","[u'red', u'black', u'blue']","[u'left', u'middle', u'right']","[0.8, 0.4, 0.2]","[u'medium', u'low', u'high']","red",49,"left","medium","True","False",338,3800,NA
"A1MJVTR0PCKBWW","Wed Jan 29 2020 09:27:42 GMT-0800 (Pacific Standard Time)","Wed Jan 29 2020 09:34:15 GMT-0800 (Pacific Standard Time)","Mozilla/5.0 (Windows NT 10.0; Win64; x64) AppleWebKit/537.36 (KHTML, like Gecko) Chrome/79.0.3945.130 Safari/537.36",114,"[0.9, 0.5, 0.1]","[0.8, 0.4, 0.2]","[u'red', u'black', u'blue']","[u'left', u'middle', u'right']","[0.8, 0.4, 0.2]","[u'medium', u'low', u'high']","red",49,"left","medium","True","False",236,3900,NA
"A1MJVTR0PCKBWW","Wed Jan 29 2020 09:27:42 GMT-0800 (Pacific Standard Time)","Wed Jan 29 2020 09:34:15 GMT-0800 (Pacific Standard Time)","Mozilla/5.0 (Windows NT 10.0; Win64; x64) AppleWebKit/537.36 (KHTML, like Gecko) Chrome/79.0.3945.130 Safari/537.36",115,"[0.9, 0.5, 0.1]","[0.8, 0.4, 0.2]","[u'red', u'black', u'blue']","[u'left', u'middle', u'right']","[0.8, 0.4, 0.2]","[u'medium', u'low', u'high']","red",49,"left","medium","False","False",194,3850,NA
"A1MJVTR0PCKBWW","Wed Jan 29 2020 09:27:42 GMT-0800 (Pacific Standard Time)","Wed Jan 29 2020 09:34:15 GMT-0800 (Pacific Standard Time)","Mozilla/5.0 (Windows NT 10.0; Win64; x64) AppleWebKit/537.36 (KHTML, like Gecko) Chrome/79.0.3945.130 Safari/537.36",116,"[0.9, 0.5, 0.1]","[0.8, 0.4, 0.2]","[u'red', u'black', u'blue']","[u'left', u'middle', u'right']","[0.8, 0.4, 0.2]","[u'medium', u'low', u'high']","red",49,"left","medium","True","False",266,3950,NA
"A1MJVTR0PCKBWW","Wed Jan 29 2020 09:27:42 GMT-0800 (Pacific Standard Time)","Wed Jan 29 2020 09:34:15 GMT-0800 (Pacific Standard Time)","Mozilla/5.0 (Windows NT 10.0; Win64; x64) AppleWebKit/537.36 (KHTML, like Gecko) Chrome/79.0.3945.130 Safari/537.36",117,"[0.9, 0.5, 0.1]","[0.8, 0.4, 0.2]","[u'red', u'black', u'blue']","[u'left', u'middle', u'right']","[0.8, 0.4, 0.2]","[u'medium', u'low', u'high']","red",49,"left","medium","False","False",283,3900,NA
"A1MJVTR0PCKBWW","Wed Jan 29 2020 09:27:42 GMT-0800 (Pacific Standard Time)","Wed Jan 29 2020 09:34:15 GMT-0800 (Pacific Standard Time)","Mozilla/5.0 (Windows NT 10.0; Win64; x64) AppleWebKit/537.36 (KHTML, like Gecko) Chrome/79.0.3945.130 Safari/537.36",118,"[0.9, 0.5, 0.1]","[0.8, 0.4, 0.2]","[u'red', u'black', u'blue']","[u'left', u'middle', u'right']","[0.8, 0.4, 0.2]","[u'medium', u'low', u'high']","red",49,"left","medium","False","False",306,3850,NA
"A1MJVTR0PCKBWW","Wed Jan 29 2020 09:27:42 GMT-0800 (Pacific Standard Time)","Wed Jan 29 2020 09:34:15 GMT-0800 (Pacific Standard Time)","Mozilla/5.0 (Windows NT 10.0; Win64; x64) AppleWebKit/537.36 (KHTML, like Gecko) Chrome/79.0.3945.130 Safari/537.36",119,"[0.9, 0.5, 0.1]","[0.8, 0.4, 0.2]","[u'red', u'black', u'blue']","[u'left', u'middle', u'right']","[0.8, 0.4, 0.2]","[u'medium', u'low', u'high']","red",49,"left","medium","True","False",259,3950,NA
"A1MJVTR0PCKBWW","Wed Jan 29 2020 09:27:42 GMT-0800 (Pacific Standard Time)","Wed Jan 29 2020 09:34:15 GMT-0800 (Pacific Standard Time)","Mozilla/5.0 (Windows NT 10.0; Win64; x64) AppleWebKit/537.36 (KHTML, like Gecko) Chrome/79.0.3945.130 Safari/537.36",120,"[0.9, 0.5, 0.1]","[0.8, 0.4, 0.2]","[u'red', u'black', u'blue']","[u'left', u'middle', u'right']","[0.8, 0.4, 0.2]","[u'medium', u'low', u'high']","red",49,"left","medium","False","False",239,3900,NA
"A1MJVTR0PCKBWW","Wed Jan 29 2020 09:27:42 GMT-0800 (Pacific Standard Time)","Wed Jan 29 2020 09:34:15 GMT-0800 (Pacific Standard Time)","Mozilla/5.0 (Windows NT 10.0; Win64; x64) AppleWebKit/537.36 (KHTML, like Gecko) Chrome/79.0.3945.130 Safari/537.36",121,"[0.9, 0.5, 0.1]","[0.8, 0.4, 0.2]","[u'red', u'black', u'blue']","[u'left', u'middle', u'right']","[0.8, 0.4, 0.2]","[u'high', u'medium', u'low']","red",49,"left","high","True","False",372,4000,NA
"A1MJVTR0PCKBWW","Wed Jan 29 2020 09:27:42 GMT-0800 (Pacific Standard Time)","Wed Jan 29 2020 09:34:15 GMT-0800 (Pacific Standard Time)","Mozilla/5.0 (Windows NT 10.0; Win64; x64) AppleWebKit/537.36 (KHTML, like Gecko) Chrome/79.0.3945.130 Safari/537.36",122,"[0.9, 0.5, 0.1]","[0.8, 0.4, 0.2]","[u'red', u'black', u'blue']","[u'left', u'middle', u'right']","[0.8, 0.4, 0.2]","[u'high', u'medium', u'low']","red",49,"left","high","True","False",107,4100,NA
"A1MJVTR0PCKBWW","Wed Jan 29 2020 09:27:42 GMT-0800 (Pacific Standard Time)","Wed Jan 29 2020 09:34:15 GMT-0800 (Pacific Standard Time)","Mozilla/5.0 (Windows NT 10.0; Win64; x64) AppleWebKit/537.36 (KHTML, like Gecko) Chrome/79.0.3945.130 Safari/537.36",123,"[0.9, 0.5, 0.1]","[0.8, 0.4, 0.2]","[u'red', u'black', u'blue']","[u'left', u'middle', u'right']","[0.8, 0.4, 0.2]","[u'high', u'medium', u'low']","red",49,"left","high","False","False",294,4050,NA
"A1MJVTR0PCKBWW","Wed Jan 29 2020 09:27:42 GMT-0800 (Pacific Standard Time)","Wed Jan 29 2020 09:34:15 GMT-0800 (Pacific Standard Time)","Mozilla/5.0 (Windows NT 10.0; Win64; x64) AppleWebKit/537.36 (KHTML, like Gecko) Chrome/79.0.3945.130 Safari/537.36",124,"[0.9, 0.5, 0.1]","[0.8, 0.4, 0.2]","[u'red', u'black', u'blue']","[u'left', u'middle', u'right']","[0.8, 0.4, 0.2]","[u'high', u'medium', u'low']","red",49,"left","high","True","False",361,4150,NA
"A1MJVTR0PCKBWW","Wed Jan 29 2020 09:27:42 GMT-0800 (Pacific Standard Time)","Wed Jan 29 2020 09:34:15 GMT-0800 (Pacific Standard Time)","Mozilla/5.0 (Windows NT 10.0; Win64; x64) AppleWebKit/537.36 (KHTML, like Gecko) Chrome/79.0.3945.130 Safari/537.36",125,"[0.9, 0.5, 0.1]","[0.8, 0.4, 0.2]","[u'red', u'black', u'blue']","[u'left', u'middle', u'right']","[0.8, 0.4, 0.2]","[u'high', u'medium', u'low']","red",49,"left","high","True","False",294,4250,NA
"A1MJVTR0PCKBWW","Wed Jan 29 2020 09:27:42 GMT-0800 (Pacific Standard Time)","Wed Jan 29 2020 09:34:15 GMT-0800 (Pacific Standard Time)","Mozilla/5.0 (Windows NT 10.0; Win64; x64) AppleWebKit/537.36 (KHTML, like Gecko) Chrome/79.0.3945.130 Safari/537.36",126,"[0.9, 0.5, 0.1]","[0.8, 0.4, 0.2]","[u'red', u'black', u'blue']","[u'left', u'middle', u'right']","[0.8, 0.4, 0.2]","[u'high', u'medium', u'low']","black",50,"middle","medium","False","False",256,4200,NA
"A1MJVTR0PCKBWW","Wed Jan 29 2020 09:27:42 GMT-0800 (Pacific Standard Time)","Wed Jan 29 2020 09:34:15 GMT-0800 (Pacific Standard Time)","Mozilla/5.0 (Windows NT 10.0; Win64; x64) AppleWebKit/537.36 (KHTML, like Gecko) Chrome/79.0.3945.130 Safari/537.36",127,"[0.9, 0.5, 0.1]","[0.8, 0.4, 0.2]","[u'red', u'black', u'blue']","[u'left', u'middle', u'right']","[0.8, 0.4, 0.2]","[u'high', u'medium', u'low']","blue",51,"right","low","False","False",275,4150,NA
"A1MJVTR0PCKBWW","Wed Jan 29 2020 09:27:42 GMT-0800 (Pacific Standard Time)","Wed Jan 29 2020 09:34:15 GMT-0800 (Pacific Standard Time)","Mozilla/5.0 (Windows NT 10.0; Win64; x64) AppleWebKit/537.36 (KHTML, like Gecko) Chrome/79.0.3945.130 Safari/537.36",128,"[0.9, 0.5, 0.1]","[0.8, 0.4, 0.2]","[u'red', u'black', u'blue']","[u'left', u'middle', u'right']","[0.8, 0.4, 0.2]","[u'high', u'medium', u'low']","red",49,"left","high","True","False",201,4250,NA
"A1MJVTR0PCKBWW","Wed Jan 29 2020 09:27:42 GMT-0800 (Pacific Standard Time)","Wed Jan 29 2020 09:34:15 GMT-0800 (Pacific Standard Time)","Mozilla/5.0 (Windows NT 10.0; Win64; x64) AppleWebKit/537.36 (KHTML, like Gecko) Chrome/79.0.3945.130 Safari/537.36",129,"[0.9, 0.5, 0.1]","[0.8, 0.4, 0.2]","[u'red', u'black', u'blue']","[u'left', u'middle', u'right']","[0.8, 0.4, 0.2]","[u'high', u'medium', u'low']","black",50,"middle","medium","False","False",227,4200,NA
"A1MJVTR0PCKBWW","Wed Jan 29 2020 09:27:42 GMT-0800 (Pacific Standard Time)","Wed Jan 29 2020 09:34:15 GMT-0800 (Pacific Standard Time)","Mozilla/5.0 (Windows NT 10.0; Win64; x64) AppleWebKit/537.36 (KHTML, like Gecko) Chrome/79.0.3945.130 Safari/537.36",130,"[0.9, 0.5, 0.1]","[0.8, 0.4, 0.2]","[u'red', u'black', u'blue']","[u'left', u'middle', u'right']","[0.8, 0.4, 0.2]","[u'high', u'medium', u'low']","red",49,"left","high","True","False",345,4300,NA
"A1MJVTR0PCKBWW","Wed Jan 29 2020 09:27:42 GMT-0800 (Pacific Standard Time)","Wed Jan 29 2020 09:34:15 GMT-0800 (Pacific Standard Time)","Mozilla/5.0 (Windows NT 10.0; Win64; x64) AppleWebKit/537.36 (KHTML, like Gecko) Chrome/79.0.3945.130 Safari/537.36",131,"[0.9, 0.5, 0.1]","[0.8, 0.4, 0.2]","[u'red', u'black', u'blue']","[u'left', u'middle', u'right']","[0.8, 0.4, 0.2]","[u'high', u'medium', u'low']","black",50,"middle","medium","False","False",539,4250,NA
"A1MJVTR0PCKBWW","Wed Jan 29 2020 09:27:42 GMT-0800 (Pacific Standard Time)","Wed Jan 29 2020 09:34:15 GMT-0800 (Pacific Standard Time)","Mozilla/5.0 (Windows NT 10.0; Win64; x64) AppleWebKit/537.36 (KHTML, like Gecko) Chrome/79.0.3945.130 Safari/537.36",132,"[0.9, 0.5, 0.1]","[0.8, 0.4, 0.2]","[u'red', u'black', u'blue']","[u'left', u'middle', u'right']","[0.8, 0.4, 0.2]","[u'high', u'medium', u'low']","blue",51,"right","low","False","False",242,4200,NA
"A1MJVTR0PCKBWW","Wed Jan 29 2020 09:27:42 GMT-0800 (Pacific Standard Time)","Wed Jan 29 2020 09:34:15 GMT-0800 (Pacific Standard Time)","Mozilla/5.0 (Windows NT 10.0; Win64; x64) AppleWebKit/537.36 (KHTML, like Gecko) Chrome/79.0.3945.130 Safari/537.36",133,"[0.9, 0.5, 0.1]","[0.8, 0.4, 0.2]","[u'red', u'black', u'blue']","[u'left', u'middle', u'right']","[0.8, 0.4, 0.2]","[u'high', u'medium', u'low']","red",49,"left","high","True","False",345,4300,NA
"A1MJVTR0PCKBWW","Wed Jan 29 2020 09:27:42 GMT-0800 (Pacific Standard Time)","Wed Jan 29 2020 09:34:15 GMT-0800 (Pacific Standard Time)","Mozilla/5.0 (Windows NT 10.0; Win64; x64) AppleWebKit/537.36 (KHTML, like Gecko) Chrome/79.0.3945.130 Safari/537.36",134,"[0.9, 0.5, 0.1]","[0.8, 0.4, 0.2]","[u'red', u'black', u'blue']","[u'left', u'middle', u'right']","[0.8, 0.4, 0.2]","[u'high', u'medium', u'low']","red",49,"left","high","False","False",298,4250,NA
"A1MJVTR0PCKBWW","Wed Jan 29 2020 09:27:42 GMT-0800 (Pacific Standard Time)","Wed Jan 29 2020 09:34:15 GMT-0800 (Pacific Standard Time)","Mozilla/5.0 (Windows NT 10.0; Win64; x64) AppleWebKit/537.36 (KHTML, like Gecko) Chrome/79.0.3945.130 Safari/537.36",135,"[0.9, 0.5, 0.1]","[0.8, 0.4, 0.2]","[u'red', u'black', u'blue']","[u'left', u'middle', u'right']","[0.8, 0.4, 0.2]","[u'high', u'medium', u'low']","blue",51,"right","low","True","False",288,4350,NA
"A1MJVTR0PCKBWW","Wed Jan 29 2020 09:27:42 GMT-0800 (Pacific Standard Time)","Wed Jan 29 2020 09:34:15 GMT-0800 (Pacific Standard Time)","Mozilla/5.0 (Windows NT 10.0; Win64; x64) AppleWebKit/537.36 (KHTML, like Gecko) Chrome/79.0.3945.130 Safari/537.36",136,"[0.9, 0.5, 0.1]","[0.8, 0.4, 0.2]","[u'red', u'black', u'blue']","[u'left', u'middle', u'right']","[0.8, 0.4, 0.2]","[u'high', u'medium', u'low']","blue",51,"right","low","False","False",286,4300,NA
"A1MJVTR0PCKBWW","Wed Jan 29 2020 09:27:42 GMT-0800 (Pacific Standard Time)","Wed Jan 29 2020 09:34:15 GMT-0800 (Pacific Standard Time)","Mozilla/5.0 (Windows NT 10.0; Win64; x64) AppleWebKit/537.36 (KHTML, like Gecko) Chrome/79.0.3945.130 Safari/537.36",137,"[0.9, 0.5, 0.1]","[0.8, 0.4, 0.2]","[u'red', u'black', u'blue']","[u'left', u'middle', u'right']","[0.8, 0.4, 0.2]","[u'high', u'medium', u'low']","black",50,"middle","medium","True","False",243,4400,NA
"A1MJVTR0PCKBWW","Wed Jan 29 2020 09:27:42 GMT-0800 (Pacific Standard Time)","Wed Jan 29 2020 09:34:15 GMT-0800 (Pacific Standard Time)","Mozilla/5.0 (Windows NT 10.0; Win64; x64) AppleWebKit/537.36 (KHTML, like Gecko) Chrome/79.0.3945.130 Safari/537.36",138,"[0.9, 0.5, 0.1]","[0.8, 0.4, 0.2]","[u'red', u'black', u'blue']","[u'left', u'middle', u'right']","[0.8, 0.4, 0.2]","[u'high', u'medium', u'low']","red",49,"left","high","False","False",205,4350,NA
"A1MJVTR0PCKBWW","Wed Jan 29 2020 09:27:42 GMT-0800 (Pacific Standard Time)","Wed Jan 29 2020 09:34:15 GMT-0800 (Pacific Standard Time)","Mozilla/5.0 (Windows NT 10.0; Win64; x64) AppleWebKit/537.36 (KHTML, like Gecko) Chrome/79.0.3945.130 Safari/537.36",139,"[0.9, 0.5, 0.1]","[0.8, 0.4, 0.2]","[u'red', u'black', u'blue']","[u'left', u'middle', u'right']","[0.8, 0.4, 0.2]","[u'high', u'medium', u'low']","blue",51,"right","low","False","False",280,4300,NA
"A1MJVTR0PCKBWW","Wed Jan 29 2020 09:27:42 GMT-0800 (Pacific Standard Time)","Wed Jan 29 2020 09:34:15 GMT-0800 (Pacific Standard Time)","Mozilla/5.0 (Windows NT 10.0; Win64; x64) AppleWebKit/537.36 (KHTML, like Gecko) Chrome/79.0.3945.130 Safari/537.36",140,"[0.9, 0.5, 0.1]","[0.8, 0.4, 0.2]","[u'red', u'black', u'blue']","[u'left', u'middle', u'right']","[0.8, 0.4, 0.2]","[u'high', u'medium', u'low']","black",50,"middle","medium","False","False",277,4250,NA
"A1MJVTR0PCKBWW","Wed Jan 29 2020 09:27:42 GMT-0800 (Pacific Standard Time)","Wed Jan 29 2020 09:34:15 GMT-0800 (Pacific Standard Time)","Mozilla/5.0 (Windows NT 10.0; Win64; x64) AppleWebKit/537.36 (KHTML, like Gecko) Chrome/79.0.3945.130 Safari/537.36",141,"[0.9, 0.5, 0.1]","[0.8, 0.4, 0.2]","[u'red', u'black', u'blue']","[u'left', u'middle', u'right']","[0.8, 0.4, 0.2]","[u'high', u'medium', u'low']","red",49,"left","high","False","False",230,4200,NA
"A1MJVTR0PCKBWW","Wed Jan 29 2020 09:27:42 GMT-0800 (Pacific Standard Time)","Wed Jan 29 2020 09:34:15 GMT-0800 (Pacific Standard Time)","Mozilla/5.0 (Windows NT 10.0; Win64; x64) AppleWebKit/537.36 (KHTML, like Gecko) Chrome/79.0.3945.130 Safari/537.36",142,"[0.9, 0.5, 0.1]","[0.8, 0.4, 0.2]","[u'red', u'black', u'blue']","[u'left', u'middle', u'right']","[0.8, 0.4, 0.2]","[u'high', u'medium', u'low']","red",49,"left","high","False","False",2963,4150,NA
"A1MJVTR0PCKBWW","Wed Jan 29 2020 09:27:42 GMT-0800 (Pacific Standard Time)","Wed Jan 29 2020 09:34:15 GMT-0800 (Pacific Standard Time)","Mozilla/5.0 (Windows NT 10.0; Win64; x64) AppleWebKit/537.36 (KHTML, like Gecko) Chrome/79.0.3945.130 Safari/537.36",143,"[0.9, 0.5, 0.1]","[0.8, 0.4, 0.2]","[u'red', u'black', u'blue']","[u'left', u'middle', u'right']","[0.8, 0.4, 0.2]","[u'high', u'medium', u'low']","black",50,"middle","medium","False","False",235,4100,NA
"A1MJVTR0PCKBWW","Wed Jan 29 2020 09:27:42 GMT-0800 (Pacific Standard Time)","Wed Jan 29 2020 09:34:15 GMT-0800 (Pacific Standard Time)","Mozilla/5.0 (Windows NT 10.0; Win64; x64) AppleWebKit/537.36 (KHTML, like Gecko) Chrome/79.0.3945.130 Safari/537.36",144,"[0.9, 0.5, 0.1]","[0.8, 0.4, 0.2]","[u'red', u'black', u'blue']","[u'left', u'middle', u'right']","[0.8, 0.4, 0.2]","[u'high', u'medium', u'low']","blue",51,"right","low","False","False",186,4050,NA
"A1MJVTR0PCKBWW","Wed Jan 29 2020 09:27:42 GMT-0800 (Pacific Standard Time)","Wed Jan 29 2020 09:34:15 GMT-0800 (Pacific Standard Time)","Mozilla/5.0 (Windows NT 10.0; Win64; x64) AppleWebKit/537.36 (KHTML, like Gecko) Chrome/79.0.3945.130 Safari/537.36",145,"[0.9, 0.5, 0.1]","[0.8, 0.4, 0.2]","[u'red', u'black', u'blue']","[u'left', u'middle', u'right']","[0.8, 0.4, 0.2]","[u'high', u'medium', u'low']","red",49,"left","high","True","False",267,4150,NA
"A1MJVTR0PCKBWW","Wed Jan 29 2020 09:27:42 GMT-0800 (Pacific Standard Time)","Wed Jan 29 2020 09:34:15 GMT-0800 (Pacific Standard Time)","Mozilla/5.0 (Windows NT 10.0; Win64; x64) AppleWebKit/537.36 (KHTML, like Gecko) Chrome/79.0.3945.130 Safari/537.36",146,"[0.9, 0.5, 0.1]","[0.8, 0.4, 0.2]","[u'red', u'black', u'blue']","[u'left', u'middle', u'right']","[0.8, 0.4, 0.2]","[u'high', u'medium', u'low']","red",49,"left","high","True","False",381,4250,NA
"A1MJVTR0PCKBWW","Wed Jan 29 2020 09:27:42 GMT-0800 (Pacific Standard Time)","Wed Jan 29 2020 09:34:15 GMT-0800 (Pacific Standard Time)","Mozilla/5.0 (Windows NT 10.0; Win64; x64) AppleWebKit/537.36 (KHTML, like Gecko) Chrome/79.0.3945.130 Safari/537.36",147,"[0.9, 0.5, 0.1]","[0.8, 0.4, 0.2]","[u'red', u'black', u'blue']","[u'left', u'middle', u'right']","[0.8, 0.4, 0.2]","[u'high', u'medium', u'low']","red",49,"left","high","True","False",394,4350,NA
"A1MJVTR0PCKBWW","Wed Jan 29 2020 09:27:42 GMT-0800 (Pacific Standard Time)","Wed Jan 29 2020 09:34:15 GMT-0800 (Pacific Standard Time)","Mozilla/5.0 (Windows NT 10.0; Win64; x64) AppleWebKit/537.36 (KHTML, like Gecko) Chrome/79.0.3945.130 Safari/537.36",148,"[0.9, 0.5, 0.1]","[0.8, 0.4, 0.2]","[u'red', u'black', u'blue']","[u'left', u'middle', u'right']","[0.8, 0.4, 0.2]","[u'high', u'medium', u'low']","blue",51,"right","low","False","False",612,4300,NA
"A1MJVTR0PCKBWW","Wed Jan 29 2020 09:27:42 GMT-0800 (Pacific Standard Time)","Wed Jan 29 2020 09:34:15 GMT-0800 (Pacific Standard Time)","Mozilla/5.0 (Windows NT 10.0; Win64; x64) AppleWebKit/537.36 (KHTML, like Gecko) Chrome/79.0.3945.130 Safari/537.36",149,"[0.9, 0.5, 0.1]","[0.8, 0.4, 0.2]","[u'red', u'black', u'blue']","[u'left', u'middle', u'right']","[0.8, 0.4, 0.2]","[u'high', u'medium', u'low']","black",50,"middle","medium","False","False",359,4250,NA
"A1MJVTR0PCKBWW","Wed Jan 29 2020 09:27:42 GMT-0800 (Pacific Standard Time)","Wed Jan 29 2020 09:34:15 GMT-0800 (Pacific Standard Time)","Mozilla/5.0 (Windows NT 10.0; Win64; x64) AppleWebKit/537.36 (KHTML, like Gecko) Chrome/79.0.3945.130 Safari/537.36",150,"[0.9, 0.5, 0.1]","[0.8, 0.4, 0.2]","[u'red', u'black', u'blue']","[u'left', u'middle', u'right']","[0.8, 0.4, 0.2]","[u'high', u'medium', u'low']","red",49,"left","high","False","False",420,4200,NA
"A1MJVTR0PCKBWW","Wed Jan 29 2020 09:27:42 GMT-0800 (Pacific Standard Time)","Wed Jan 29 2020 09:34:15 GMT-0800 (Pacific Standard Time)","Mozilla/5.0 (Windows NT 10.0; Win64; x64) AppleWebKit/537.36 (KHTML, like Gecko) Chrome/79.0.3945.130 Safari/537.36",151,"[0.9, 0.5, 0.1]","[0.8, 0.4, 0.2]","[u'red', u'black', u'blue']","[u'left', u'middle', u'right']","[0.8, 0.4, 0.2]","[u'high', u'medium', u'low']","black",50,"middle","medium","False","False",293,4150,NA
"A1MJVTR0PCKBWW","Wed Jan 29 2020 09:27:42 GMT-0800 (Pacific Standard Time)","Wed Jan 29 2020 09:34:15 GMT-0800 (Pacific Standard Time)","Mozilla/5.0 (Windows NT 10.0; Win64; x64) AppleWebKit/537.36 (KHTML, like Gecko) Chrome/79.0.3945.130 Safari/537.36",152,"[0.9, 0.5, 0.1]","[0.8, 0.4, 0.2]","[u'red', u'black', u'blue']","[u'left', u'middle', u'right']","[0.8, 0.4, 0.2]","[u'high', u'medium', u'low']","blue",51,"right","low","False","False",296,4100,NA
"A1MJVTR0PCKBWW","Wed Jan 29 2020 09:27:42 GMT-0800 (Pacific Standard Time)","Wed Jan 29 2020 09:34:15 GMT-0800 (Pacific Standard Time)","Mozilla/5.0 (Windows NT 10.0; Win64; x64) AppleWebKit/537.36 (KHTML, like Gecko) Chrome/79.0.3945.130 Safari/537.36",153,"[0.9, 0.5, 0.1]","[0.8, 0.4, 0.2]","[u'red', u'black', u'blue']","[u'left', u'middle', u'right']","[0.8, 0.4, 0.2]","[u'high', u'medium', u'low']","red",49,"left","high","True","False",201,4200,NA
"A1MJVTR0PCKBWW","Wed Jan 29 2020 09:27:42 GMT-0800 (Pacific Standard Time)","Wed Jan 29 2020 09:34:15 GMT-0800 (Pacific Standard Time)","Mozilla/5.0 (Windows NT 10.0; Win64; x64) AppleWebKit/537.36 (KHTML, like Gecko) Chrome/79.0.3945.130 Safari/537.36",154,"[0.9, 0.5, 0.1]","[0.8, 0.4, 0.2]","[u'red', u'black', u'blue']","[u'left', u'middle', u'right']","[0.8, 0.4, 0.2]","[u'high', u'medium', u'low']","red",49,"left","high","True","False",238,4300,NA
"A1MJVTR0PCKBWW","Wed Jan 29 2020 09:27:42 GMT-0800 (Pacific Standard Time)","Wed Jan 29 2020 09:34:15 GMT-0800 (Pacific Standard Time)","Mozilla/5.0 (Windows NT 10.0; Win64; x64) AppleWebKit/537.36 (KHTML, like Gecko) Chrome/79.0.3945.130 Safari/537.36",155,"[0.9, 0.5, 0.1]","[0.8, 0.4, 0.2]","[u'red', u'black', u'blue']","[u'left', u'middle', u'right']","[0.8, 0.4, 0.2]","[u'high', u'medium', u'low']","red",49,"left","high","True","False",252,4400,NA
"A1MJVTR0PCKBWW","Wed Jan 29 2020 09:27:42 GMT-0800 (Pacific Standard Time)","Wed Jan 29 2020 09:34:15 GMT-0800 (Pacific Standard Time)","Mozilla/5.0 (Windows NT 10.0; Win64; x64) AppleWebKit/537.36 (KHTML, like Gecko) Chrome/79.0.3945.130 Safari/537.36",156,"[0.9, 0.5, 0.1]","[0.8, 0.4, 0.2]","[u'red', u'black', u'blue']","[u'left', u'middle', u'right']","[0.8, 0.4, 0.2]","[u'high', u'medium', u'low']","red",49,"left","high","False","False",246,4350,NA
"A1MJVTR0PCKBWW","Wed Jan 29 2020 09:27:42 GMT-0800 (Pacific Standard Time)","Wed Jan 29 2020 09:34:15 GMT-0800 (Pacific Standard Time)","Mozilla/5.0 (Windows NT 10.0; Win64; x64) AppleWebKit/537.36 (KHTML, like Gecko) Chrome/79.0.3945.130 Safari/537.36",157,"[0.9, 0.5, 0.1]","[0.8, 0.4, 0.2]","[u'red', u'black', u'blue']","[u'left', u'middle', u'right']","[0.8, 0.4, 0.2]","[u'high', u'medium', u'low']","red",49,"left","high","True","False",296,4450,NA
"A1MJVTR0PCKBWW","Wed Jan 29 2020 09:27:42 GMT-0800 (Pacific Standard Time)","Wed Jan 29 2020 09:34:15 GMT-0800 (Pacific Standard Time)","Mozilla/5.0 (Windows NT 10.0; Win64; x64) AppleWebKit/537.36 (KHTML, like Gecko) Chrome/79.0.3945.130 Safari/537.36",158,"[0.9, 0.5, 0.1]","[0.8, 0.4, 0.2]","[u'red', u'black', u'blue']","[u'left', u'middle', u'right']","[0.8, 0.4, 0.2]","[u'high', u'medium', u'low']","red",49,"left","high","True","False",291,4550,NA
"A1MJVTR0PCKBWW","Wed Jan 29 2020 09:27:42 GMT-0800 (Pacific Standard Time)","Wed Jan 29 2020 09:34:15 GMT-0800 (Pacific Standard Time)","Mozilla/5.0 (Windows NT 10.0; Win64; x64) AppleWebKit/537.36 (KHTML, like Gecko) Chrome/79.0.3945.130 Safari/537.36",159,"[0.9, 0.5, 0.1]","[0.8, 0.4, 0.2]","[u'red', u'black', u'blue']","[u'left', u'middle', u'right']","[0.8, 0.4, 0.2]","[u'high', u'medium', u'low']","red",49,"left","high","True","False",267,4650,NA
"A1MJVTR0PCKBWW","Wed Jan 29 2020 09:27:42 GMT-0800 (Pacific Standard Time)","Wed Jan 29 2020 09:34:15 GMT-0800 (Pacific Standard Time)","Mozilla/5.0 (Windows NT 10.0; Win64; x64) AppleWebKit/537.36 (KHTML, like Gecko) Chrome/79.0.3945.130 Safari/537.36",160,"[0.9, 0.5, 0.1]","[0.8, 0.4, 0.2]","[u'red', u'black', u'blue']","[u'left', u'middle', u'right']","[0.8, 0.4, 0.2]","[u'high', u'medium', u'low']","red",49,"left","high","True","False",228,4750,NA
