"src_subject_id","start_time","end_time","browser","index","first_half_probabilities","second_half_probabilities","deck_color","deck_position","deck_probabilities","deck_contingencies","response_color","key_press","response_position","response_probability","reward_type","trial_type","rt","reward_tally","exclusion_reason"
"AU0KL60G7FCCK","Wed Jan 29 2020 09:33:00 GMT-0500 (Eastern Standard Time)","Wed Jan 29 2020 09:44:34 GMT-0500 (Eastern Standard Time)","Mozilla/5.0 (Windows NT 6.1; Win64; x64) AppleWebKit/537.36 (KHTML, like Gecko) Chrome/79.0.3945.130 Safari/537.36",1,"[0.9, 0.5, 0.1]","[0.8, 0.4, 0.2]","[u'blue', u'red', u'black']","[u'left', u'middle', u'right']","[0.9, 0.5, 0.1]","[u'low', u'medium', u'high']","red",50,"middle","medium","False","False",2068,-50,NA
"AU0KL60G7FCCK","Wed Jan 29 2020 09:33:00 GMT-0500 (Eastern Standard Time)","Wed Jan 29 2020 09:44:34 GMT-0500 (Eastern Standard Time)","Mozilla/5.0 (Windows NT 6.1; Win64; x64) AppleWebKit/537.36 (KHTML, like Gecko) Chrome/79.0.3945.130 Safari/537.36",2,"[0.9, 0.5, 0.1]","[0.8, 0.4, 0.2]","[u'blue', u'red', u'black']","[u'left', u'middle', u'right']","[0.9, 0.5, 0.1]","[u'low', u'medium', u'high']","black",51,"right","high","False","False",1658,-100,NA
"AU0KL60G7FCCK","Wed Jan 29 2020 09:33:00 GMT-0500 (Eastern Standard Time)","Wed Jan 29 2020 09:44:34 GMT-0500 (Eastern Standard Time)","Mozilla/5.0 (Windows NT 6.1; Win64; x64) AppleWebKit/537.36 (KHTML, like Gecko) Chrome/79.0.3945.130 Safari/537.36",3,"[0.9, 0.5, 0.1]","[0.8, 0.4, 0.2]","[u'blue', u'red', u'black']","[u'left', u'middle', u'right']","[0.9, 0.5, 0.1]","[u'low', u'medium', u'high']","blue",49,"left","low","False","False",1537,-150,NA
"AU0KL60G7FCCK","Wed Jan 29 2020 09:33:00 GMT-0500 (Eastern Standard Time)","Wed Jan 29 2020 09:44:34 GMT-0500 (Eastern Standard Time)","Mozilla/5.0 (Windows NT 6.1; Win64; x64) AppleWebKit/537.36 (KHTML, like Gecko) Chrome/79.0.3945.130 Safari/537.36",4,"[0.9, 0.5, 0.1]","[0.8, 0.4, 0.2]","[u'blue', u'red', u'black']","[u'left', u'middle', u'right']","[0.9, 0.5, 0.1]","[u'low', u'medium', u'high']","red",50,"middle","medium","False","False",2881,-200,NA
"AU0KL60G7FCCK","Wed Jan 29 2020 09:33:00 GMT-0500 (Eastern Standard Time)","Wed Jan 29 2020 09:44:34 GMT-0500 (Eastern Standard Time)","Mozilla/5.0 (Windows NT 6.1; Win64; x64) AppleWebKit/537.36 (KHTML, like Gecko) Chrome/79.0.3945.130 Safari/537.36",5,"[0.9, 0.5, 0.1]","[0.8, 0.4, 0.2]","[u'blue', u'red', u'black']","[u'left', u'middle', u'right']","[0.9, 0.5, 0.1]","[u'low', u'medium', u'high']","red",50,"middle","medium","False","False",889,-250,NA
"AU0KL60G7FCCK","Wed Jan 29 2020 09:33:00 GMT-0500 (Eastern Standard Time)","Wed Jan 29 2020 09:44:34 GMT-0500 (Eastern Standard Time)","Mozilla/5.0 (Windows NT 6.1; Win64; x64) AppleWebKit/537.36 (KHTML, like Gecko) Chrome/79.0.3945.130 Safari/537.36",6,"[0.9, 0.5, 0.1]","[0.8, 0.4, 0.2]","[u'blue', u'red', u'black']","[u'left', u'middle', u'right']","[0.9, 0.5, 0.1]","[u'low', u'medium', u'high']","blue",49,"left","low","False","False",1564,-300,NA
"AU0KL60G7FCCK","Wed Jan 29 2020 09:33:00 GMT-0500 (Eastern Standard Time)","Wed Jan 29 2020 09:44:34 GMT-0500 (Eastern Standard Time)","Mozilla/5.0 (Windows NT 6.1; Win64; x64) AppleWebKit/537.36 (KHTML, like Gecko) Chrome/79.0.3945.130 Safari/537.36",7,"[0.9, 0.5, 0.1]","[0.8, 0.4, 0.2]","[u'blue', u'red', u'black']","[u'left', u'middle', u'right']","[0.9, 0.5, 0.1]","[u'low', u'medium', u'high']","red",50,"middle","medium","True","False",1457,-200,NA
"AU0KL60G7FCCK","Wed Jan 29 2020 09:33:00 GMT-0500 (Eastern Standard Time)","Wed Jan 29 2020 09:44:34 GMT-0500 (Eastern Standard Time)","Mozilla/5.0 (Windows NT 6.1; Win64; x64) AppleWebKit/537.36 (KHTML, like Gecko) Chrome/79.0.3945.130 Safari/537.36",8,"[0.9, 0.5, 0.1]","[0.8, 0.4, 0.2]","[u'blue', u'red', u'black']","[u'left', u'middle', u'right']","[0.9, 0.5, 0.1]","[u'low', u'medium', u'high']","black",51,"right","high","True","False",2688,-100,NA
"AU0KL60G7FCCK","Wed Jan 29 2020 09:33:00 GMT-0500 (Eastern Standard Time)","Wed Jan 29 2020 09:44:34 GMT-0500 (Eastern Standard Time)","Mozilla/5.0 (Windows NT 6.1; Win64; x64) AppleWebKit/537.36 (KHTML, like Gecko) Chrome/79.0.3945.130 Safari/537.36",9,"[0.9, 0.5, 0.1]","[0.8, 0.4, 0.2]","[u'blue', u'red', u'black']","[u'left', u'middle', u'right']","[0.9, 0.5, 0.1]","[u'low', u'medium', u'high']","red",50,"middle","medium","True","False",1848,0,NA
"AU0KL60G7FCCK","Wed Jan 29 2020 09:33:00 GMT-0500 (Eastern Standard Time)","Wed Jan 29 2020 09:44:34 GMT-0500 (Eastern Standard Time)","Mozilla/5.0 (Windows NT 6.1; Win64; x64) AppleWebKit/537.36 (KHTML, like Gecko) Chrome/79.0.3945.130 Safari/537.36",10,"[0.9, 0.5, 0.1]","[0.8, 0.4, 0.2]","[u'blue', u'red', u'black']","[u'left', u'middle', u'right']","[0.9, 0.5, 0.1]","[u'low', u'medium', u'high']","blue",49,"left","low","False","False",2748,-50,NA
"AU0KL60G7FCCK","Wed Jan 29 2020 09:33:00 GMT-0500 (Eastern Standard Time)","Wed Jan 29 2020 09:44:34 GMT-0500 (Eastern Standard Time)","Mozilla/5.0 (Windows NT 6.1; Win64; x64) AppleWebKit/537.36 (KHTML, like Gecko) Chrome/79.0.3945.130 Safari/537.36",11,"[0.9, 0.5, 0.1]","[0.8, 0.4, 0.2]","[u'blue', u'red', u'black']","[u'left', u'middle', u'right']","[0.9, 0.5, 0.1]","[u'low', u'medium', u'high']","black",51,"right","high","True","False",1340,50,NA
"AU0KL60G7FCCK","Wed Jan 29 2020 09:33:00 GMT-0500 (Eastern Standard Time)","Wed Jan 29 2020 09:44:34 GMT-0500 (Eastern Standard Time)","Mozilla/5.0 (Windows NT 6.1; Win64; x64) AppleWebKit/537.36 (KHTML, like Gecko) Chrome/79.0.3945.130 Safari/537.36",12,"[0.9, 0.5, 0.1]","[0.8, 0.4, 0.2]","[u'blue', u'red', u'black']","[u'left', u'middle', u'right']","[0.9, 0.5, 0.1]","[u'low', u'medium', u'high']","black",51,"right","high","True","False",1191,150,NA
"AU0KL60G7FCCK","Wed Jan 29 2020 09:33:00 GMT-0500 (Eastern Standard Time)","Wed Jan 29 2020 09:44:34 GMT-0500 (Eastern Standard Time)","Mozilla/5.0 (Windows NT 6.1; Win64; x64) AppleWebKit/537.36 (KHTML, like Gecko) Chrome/79.0.3945.130 Safari/537.36",13,"[0.9, 0.5, 0.1]","[0.8, 0.4, 0.2]","[u'blue', u'red', u'black']","[u'left', u'middle', u'right']","[0.9, 0.5, 0.1]","[u'low', u'medium', u'high']","black",51,"right","high","True","False",988,250,NA
"AU0KL60G7FCCK","Wed Jan 29 2020 09:33:00 GMT-0500 (Eastern Standard Time)","Wed Jan 29 2020 09:44:34 GMT-0500 (Eastern Standard Time)","Mozilla/5.0 (Windows NT 6.1; Win64; x64) AppleWebKit/537.36 (KHTML, like Gecko) Chrome/79.0.3945.130 Safari/537.36",14,"[0.9, 0.5, 0.1]","[0.8, 0.4, 0.2]","[u'blue', u'red', u'black']","[u'left', u'middle', u'right']","[0.9, 0.5, 0.1]","[u'low', u'medium', u'high']","black",51,"right","high","True","False",1308,350,NA
"AU0KL60G7FCCK","Wed Jan 29 2020 09:33:00 GMT-0500 (Eastern Standard Time)","Wed Jan 29 2020 09:44:34 GMT-0500 (Eastern Standard Time)","Mozilla/5.0 (Windows NT 6.1; Win64; x64) AppleWebKit/537.36 (KHTML, like Gecko) Chrome/79.0.3945.130 Safari/537.36",15,"[0.9, 0.5, 0.1]","[0.8, 0.4, 0.2]","[u'blue', u'red', u'black']","[u'left', u'middle', u'right']","[0.9, 0.5, 0.1]","[u'low', u'medium', u'high']","black",51,"right","high","True","False",981,450,NA
"AU0KL60G7FCCK","Wed Jan 29 2020 09:33:00 GMT-0500 (Eastern Standard Time)","Wed Jan 29 2020 09:44:34 GMT-0500 (Eastern Standard Time)","Mozilla/5.0 (Windows NT 6.1; Win64; x64) AppleWebKit/537.36 (KHTML, like Gecko) Chrome/79.0.3945.130 Safari/537.36",16,"[0.9, 0.5, 0.1]","[0.8, 0.4, 0.2]","[u'blue', u'red', u'black']","[u'left', u'middle', u'right']","[0.9, 0.5, 0.1]","[u'low', u'medium', u'high']","black",51,"right","high","True","False",814,550,NA
"AU0KL60G7FCCK","Wed Jan 29 2020 09:33:00 GMT-0500 (Eastern Standard Time)","Wed Jan 29 2020 09:44:34 GMT-0500 (Eastern Standard Time)","Mozilla/5.0 (Windows NT 6.1; Win64; x64) AppleWebKit/537.36 (KHTML, like Gecko) Chrome/79.0.3945.130 Safari/537.36",17,"[0.9, 0.5, 0.1]","[0.8, 0.4, 0.2]","[u'blue', u'red', u'black']","[u'left', u'middle', u'right']","[0.9, 0.5, 0.1]","[u'low', u'medium', u'high']","black",51,"right","high","True","False",776,650,NA
"AU0KL60G7FCCK","Wed Jan 29 2020 09:33:00 GMT-0500 (Eastern Standard Time)","Wed Jan 29 2020 09:44:34 GMT-0500 (Eastern Standard Time)","Mozilla/5.0 (Windows NT 6.1; Win64; x64) AppleWebKit/537.36 (KHTML, like Gecko) Chrome/79.0.3945.130 Safari/537.36",18,"[0.9, 0.5, 0.1]","[0.8, 0.4, 0.2]","[u'blue', u'red', u'black']","[u'left', u'middle', u'right']","[0.9, 0.5, 0.1]","[u'low', u'medium', u'high']","black",51,"right","high","True","False",598,750,NA
"AU0KL60G7FCCK","Wed Jan 29 2020 09:33:00 GMT-0500 (Eastern Standard Time)","Wed Jan 29 2020 09:44:34 GMT-0500 (Eastern Standard Time)","Mozilla/5.0 (Windows NT 6.1; Win64; x64) AppleWebKit/537.36 (KHTML, like Gecko) Chrome/79.0.3945.130 Safari/537.36",19,"[0.9, 0.5, 0.1]","[0.8, 0.4, 0.2]","[u'blue', u'red', u'black']","[u'left', u'middle', u'right']","[0.9, 0.5, 0.1]","[u'low', u'medium', u'high']","black",51,"right","high","True","True",445,850,NA
"AU0KL60G7FCCK","Wed Jan 29 2020 09:33:00 GMT-0500 (Eastern Standard Time)","Wed Jan 29 2020 09:44:34 GMT-0500 (Eastern Standard Time)","Mozilla/5.0 (Windows NT 6.1; Win64; x64) AppleWebKit/537.36 (KHTML, like Gecko) Chrome/79.0.3945.130 Safari/537.36",20,"[0.9, 0.5, 0.1]","[0.8, 0.4, 0.2]","[u'blue', u'red', u'black']","[u'left', u'middle', u'right']","[0.9, 0.5, 0.1]","[u'high', u'medium', u'low']","black",51,"right","low","False","False",354,800,NA
"AU0KL60G7FCCK","Wed Jan 29 2020 09:33:00 GMT-0500 (Eastern Standard Time)","Wed Jan 29 2020 09:44:34 GMT-0500 (Eastern Standard Time)","Mozilla/5.0 (Windows NT 6.1; Win64; x64) AppleWebKit/537.36 (KHTML, like Gecko) Chrome/79.0.3945.130 Safari/537.36",21,"[0.9, 0.5, 0.1]","[0.8, 0.4, 0.2]","[u'blue', u'red', u'black']","[u'left', u'middle', u'right']","[0.9, 0.5, 0.1]","[u'high', u'medium', u'low']","red",50,"middle","medium","True","False",486,900,NA
"AU0KL60G7FCCK","Wed Jan 29 2020 09:33:00 GMT-0500 (Eastern Standard Time)","Wed Jan 29 2020 09:44:34 GMT-0500 (Eastern Standard Time)","Mozilla/5.0 (Windows NT 6.1; Win64; x64) AppleWebKit/537.36 (KHTML, like Gecko) Chrome/79.0.3945.130 Safari/537.36",22,"[0.9, 0.5, 0.1]","[0.8, 0.4, 0.2]","[u'blue', u'red', u'black']","[u'left', u'middle', u'right']","[0.9, 0.5, 0.1]","[u'high', u'medium', u'low']","red",50,"middle","medium","True","False",416,1000,NA
"AU0KL60G7FCCK","Wed Jan 29 2020 09:33:00 GMT-0500 (Eastern Standard Time)","Wed Jan 29 2020 09:44:34 GMT-0500 (Eastern Standard Time)","Mozilla/5.0 (Windows NT 6.1; Win64; x64) AppleWebKit/537.36 (KHTML, like Gecko) Chrome/79.0.3945.130 Safari/537.36",23,"[0.9, 0.5, 0.1]","[0.8, 0.4, 0.2]","[u'blue', u'red', u'black']","[u'left', u'middle', u'right']","[0.9, 0.5, 0.1]","[u'high', u'medium', u'low']","red",50,"middle","medium","False","False",451,950,NA
"AU0KL60G7FCCK","Wed Jan 29 2020 09:33:00 GMT-0500 (Eastern Standard Time)","Wed Jan 29 2020 09:44:34 GMT-0500 (Eastern Standard Time)","Mozilla/5.0 (Windows NT 6.1; Win64; x64) AppleWebKit/537.36 (KHTML, like Gecko) Chrome/79.0.3945.130 Safari/537.36",24,"[0.9, 0.5, 0.1]","[0.8, 0.4, 0.2]","[u'blue', u'red', u'black']","[u'left', u'middle', u'right']","[0.9, 0.5, 0.1]","[u'high', u'medium', u'low']","black",51,"right","low","False","False",408,900,NA
"AU0KL60G7FCCK","Wed Jan 29 2020 09:33:00 GMT-0500 (Eastern Standard Time)","Wed Jan 29 2020 09:44:34 GMT-0500 (Eastern Standard Time)","Mozilla/5.0 (Windows NT 6.1; Win64; x64) AppleWebKit/537.36 (KHTML, like Gecko) Chrome/79.0.3945.130 Safari/537.36",25,"[0.9, 0.5, 0.1]","[0.8, 0.4, 0.2]","[u'blue', u'red', u'black']","[u'left', u'middle', u'right']","[0.9, 0.5, 0.1]","[u'high', u'medium', u'low']","blue",49,"left","high","True","False",444,1000,NA
"AU0KL60G7FCCK","Wed Jan 29 2020 09:33:00 GMT-0500 (Eastern Standard Time)","Wed Jan 29 2020 09:44:34 GMT-0500 (Eastern Standard Time)","Mozilla/5.0 (Windows NT 6.1; Win64; x64) AppleWebKit/537.36 (KHTML, like Gecko) Chrome/79.0.3945.130 Safari/537.36",26,"[0.9, 0.5, 0.1]","[0.8, 0.4, 0.2]","[u'blue', u'red', u'black']","[u'left', u'middle', u'right']","[0.9, 0.5, 0.1]","[u'high', u'medium', u'low']","blue",49,"left","high","True","False",623,1100,NA
"AU0KL60G7FCCK","Wed Jan 29 2020 09:33:00 GMT-0500 (Eastern Standard Time)","Wed Jan 29 2020 09:44:34 GMT-0500 (Eastern Standard Time)","Mozilla/5.0 (Windows NT 6.1; Win64; x64) AppleWebKit/537.36 (KHTML, like Gecko) Chrome/79.0.3945.130 Safari/537.36",27,"[0.9, 0.5, 0.1]","[0.8, 0.4, 0.2]","[u'blue', u'red', u'black']","[u'left', u'middle', u'right']","[0.9, 0.5, 0.1]","[u'high', u'medium', u'low']","blue",49,"left","high","True","False",412,1200,NA
"AU0KL60G7FCCK","Wed Jan 29 2020 09:33:00 GMT-0500 (Eastern Standard Time)","Wed Jan 29 2020 09:44:34 GMT-0500 (Eastern Standard Time)","Mozilla/5.0 (Windows NT 6.1; Win64; x64) AppleWebKit/537.36 (KHTML, like Gecko) Chrome/79.0.3945.130 Safari/537.36",28,"[0.9, 0.5, 0.1]","[0.8, 0.4, 0.2]","[u'blue', u'red', u'black']","[u'left', u'middle', u'right']","[0.9, 0.5, 0.1]","[u'high', u'medium', u'low']","blue",49,"left","high","True","False",392,1300,NA
"AU0KL60G7FCCK","Wed Jan 29 2020 09:33:00 GMT-0500 (Eastern Standard Time)","Wed Jan 29 2020 09:44:34 GMT-0500 (Eastern Standard Time)","Mozilla/5.0 (Windows NT 6.1; Win64; x64) AppleWebKit/537.36 (KHTML, like Gecko) Chrome/79.0.3945.130 Safari/537.36",29,"[0.9, 0.5, 0.1]","[0.8, 0.4, 0.2]","[u'blue', u'red', u'black']","[u'left', u'middle', u'right']","[0.9, 0.5, 0.1]","[u'high', u'medium', u'low']","blue",49,"left","high","False","False",443,1250,NA
"AU0KL60G7FCCK","Wed Jan 29 2020 09:33:00 GMT-0500 (Eastern Standard Time)","Wed Jan 29 2020 09:44:34 GMT-0500 (Eastern Standard Time)","Mozilla/5.0 (Windows NT 6.1; Win64; x64) AppleWebKit/537.36 (KHTML, like Gecko) Chrome/79.0.3945.130 Safari/537.36",30,"[0.9, 0.5, 0.1]","[0.8, 0.4, 0.2]","[u'blue', u'red', u'black']","[u'left', u'middle', u'right']","[0.9, 0.5, 0.1]","[u'high', u'medium', u'low']","red",50,"middle","medium","False","False",1151,1200,NA
"AU0KL60G7FCCK","Wed Jan 29 2020 09:33:00 GMT-0500 (Eastern Standard Time)","Wed Jan 29 2020 09:44:34 GMT-0500 (Eastern Standard Time)","Mozilla/5.0 (Windows NT 6.1; Win64; x64) AppleWebKit/537.36 (KHTML, like Gecko) Chrome/79.0.3945.130 Safari/537.36",31,"[0.9, 0.5, 0.1]","[0.8, 0.4, 0.2]","[u'blue', u'red', u'black']","[u'left', u'middle', u'right']","[0.9, 0.5, 0.1]","[u'high', u'medium', u'low']","black",51,"right","low","False","False",427,1150,NA
"AU0KL60G7FCCK","Wed Jan 29 2020 09:33:00 GMT-0500 (Eastern Standard Time)","Wed Jan 29 2020 09:44:34 GMT-0500 (Eastern Standard Time)","Mozilla/5.0 (Windows NT 6.1; Win64; x64) AppleWebKit/537.36 (KHTML, like Gecko) Chrome/79.0.3945.130 Safari/537.36",32,"[0.9, 0.5, 0.1]","[0.8, 0.4, 0.2]","[u'blue', u'red', u'black']","[u'left', u'middle', u'right']","[0.9, 0.5, 0.1]","[u'high', u'medium', u'low']","red",50,"middle","medium","True","False",416,1250,NA
"AU0KL60G7FCCK","Wed Jan 29 2020 09:33:00 GMT-0500 (Eastern Standard Time)","Wed Jan 29 2020 09:44:34 GMT-0500 (Eastern Standard Time)","Mozilla/5.0 (Windows NT 6.1; Win64; x64) AppleWebKit/537.36 (KHTML, like Gecko) Chrome/79.0.3945.130 Safari/537.36",33,"[0.9, 0.5, 0.1]","[0.8, 0.4, 0.2]","[u'blue', u'red', u'black']","[u'left', u'middle', u'right']","[0.9, 0.5, 0.1]","[u'high', u'medium', u'low']","red",50,"middle","medium","False","False",396,1200,NA
"AU0KL60G7FCCK","Wed Jan 29 2020 09:33:00 GMT-0500 (Eastern Standard Time)","Wed Jan 29 2020 09:44:34 GMT-0500 (Eastern Standard Time)","Mozilla/5.0 (Windows NT 6.1; Win64; x64) AppleWebKit/537.36 (KHTML, like Gecko) Chrome/79.0.3945.130 Safari/537.36",34,"[0.9, 0.5, 0.1]","[0.8, 0.4, 0.2]","[u'blue', u'red', u'black']","[u'left', u'middle', u'right']","[0.9, 0.5, 0.1]","[u'high', u'medium', u'low']","blue",49,"left","high","True","False",393,1300,NA
"AU0KL60G7FCCK","Wed Jan 29 2020 09:33:00 GMT-0500 (Eastern Standard Time)","Wed Jan 29 2020 09:44:34 GMT-0500 (Eastern Standard Time)","Mozilla/5.0 (Windows NT 6.1; Win64; x64) AppleWebKit/537.36 (KHTML, like Gecko) Chrome/79.0.3945.130 Safari/537.36",35,"[0.9, 0.5, 0.1]","[0.8, 0.4, 0.2]","[u'blue', u'red', u'black']","[u'left', u'middle', u'right']","[0.9, 0.5, 0.1]","[u'high', u'medium', u'low']","blue",49,"left","high","True","False",374,1400,NA
"AU0KL60G7FCCK","Wed Jan 29 2020 09:33:00 GMT-0500 (Eastern Standard Time)","Wed Jan 29 2020 09:44:34 GMT-0500 (Eastern Standard Time)","Mozilla/5.0 (Windows NT 6.1; Win64; x64) AppleWebKit/537.36 (KHTML, like Gecko) Chrome/79.0.3945.130 Safari/537.36",36,"[0.9, 0.5, 0.1]","[0.8, 0.4, 0.2]","[u'blue', u'red', u'black']","[u'left', u'middle', u'right']","[0.9, 0.5, 0.1]","[u'high', u'medium', u'low']","blue",49,"left","high","True","False",615,1500,NA
"AU0KL60G7FCCK","Wed Jan 29 2020 09:33:00 GMT-0500 (Eastern Standard Time)","Wed Jan 29 2020 09:44:34 GMT-0500 (Eastern Standard Time)","Mozilla/5.0 (Windows NT 6.1; Win64; x64) AppleWebKit/537.36 (KHTML, like Gecko) Chrome/79.0.3945.130 Safari/537.36",37,"[0.9, 0.5, 0.1]","[0.8, 0.4, 0.2]","[u'blue', u'red', u'black']","[u'left', u'middle', u'right']","[0.9, 0.5, 0.1]","[u'high', u'medium', u'low']","blue",49,"left","high","True","False",373,1600,NA
"AU0KL60G7FCCK","Wed Jan 29 2020 09:33:00 GMT-0500 (Eastern Standard Time)","Wed Jan 29 2020 09:44:34 GMT-0500 (Eastern Standard Time)","Mozilla/5.0 (Windows NT 6.1; Win64; x64) AppleWebKit/537.36 (KHTML, like Gecko) Chrome/79.0.3945.130 Safari/537.36",38,"[0.9, 0.5, 0.1]","[0.8, 0.4, 0.2]","[u'blue', u'red', u'black']","[u'left', u'middle', u'right']","[0.9, 0.5, 0.1]","[u'high', u'medium', u'low']","blue",49,"left","high","True","False",456,1700,NA
"AU0KL60G7FCCK","Wed Jan 29 2020 09:33:00 GMT-0500 (Eastern Standard Time)","Wed Jan 29 2020 09:44:34 GMT-0500 (Eastern Standard Time)","Mozilla/5.0 (Windows NT 6.1; Win64; x64) AppleWebKit/537.36 (KHTML, like Gecko) Chrome/79.0.3945.130 Safari/537.36",39,"[0.9, 0.5, 0.1]","[0.8, 0.4, 0.2]","[u'blue', u'red', u'black']","[u'left', u'middle', u'right']","[0.9, 0.5, 0.1]","[u'high', u'medium', u'low']","blue",49,"left","high","True","False",451,1800,NA
"AU0KL60G7FCCK","Wed Jan 29 2020 09:33:00 GMT-0500 (Eastern Standard Time)","Wed Jan 29 2020 09:44:34 GMT-0500 (Eastern Standard Time)","Mozilla/5.0 (Windows NT 6.1; Win64; x64) AppleWebKit/537.36 (KHTML, like Gecko) Chrome/79.0.3945.130 Safari/537.36",40,"[0.9, 0.5, 0.1]","[0.8, 0.4, 0.2]","[u'blue', u'red', u'black']","[u'left', u'middle', u'right']","[0.9, 0.5, 0.1]","[u'high', u'medium', u'low']","blue",49,"left","high","True","False",378,1900,NA
"AU0KL60G7FCCK","Wed Jan 29 2020 09:33:00 GMT-0500 (Eastern Standard Time)","Wed Jan 29 2020 09:44:34 GMT-0500 (Eastern Standard Time)","Mozilla/5.0 (Windows NT 6.1; Win64; x64) AppleWebKit/537.36 (KHTML, like Gecko) Chrome/79.0.3945.130 Safari/537.36",41,"[0.9, 0.5, 0.1]","[0.8, 0.4, 0.2]","[u'blue', u'red', u'black']","[u'left', u'middle', u'right']","[0.9, 0.5, 0.1]","[u'medium', u'high', u'low']","black",51,"right","low","False","False",2882,1850,NA
"AU0KL60G7FCCK","Wed Jan 29 2020 09:33:00 GMT-0500 (Eastern Standard Time)","Wed Jan 29 2020 09:44:34 GMT-0500 (Eastern Standard Time)","Mozilla/5.0 (Windows NT 6.1; Win64; x64) AppleWebKit/537.36 (KHTML, like Gecko) Chrome/79.0.3945.130 Safari/537.36",42,"[0.9, 0.5, 0.1]","[0.8, 0.4, 0.2]","[u'blue', u'red', u'black']","[u'left', u'middle', u'right']","[0.9, 0.5, 0.1]","[u'medium', u'high', u'low']","red",50,"middle","high","True","False",449,1950,NA
"AU0KL60G7FCCK","Wed Jan 29 2020 09:33:00 GMT-0500 (Eastern Standard Time)","Wed Jan 29 2020 09:44:34 GMT-0500 (Eastern Standard Time)","Mozilla/5.0 (Windows NT 6.1; Win64; x64) AppleWebKit/537.36 (KHTML, like Gecko) Chrome/79.0.3945.130 Safari/537.36",43,"[0.9, 0.5, 0.1]","[0.8, 0.4, 0.2]","[u'blue', u'red', u'black']","[u'left', u'middle', u'right']","[0.9, 0.5, 0.1]","[u'medium', u'high', u'low']","red",50,"middle","high","True","False",371,2050,NA
"AU0KL60G7FCCK","Wed Jan 29 2020 09:33:00 GMT-0500 (Eastern Standard Time)","Wed Jan 29 2020 09:44:34 GMT-0500 (Eastern Standard Time)","Mozilla/5.0 (Windows NT 6.1; Win64; x64) AppleWebKit/537.36 (KHTML, like Gecko) Chrome/79.0.3945.130 Safari/537.36",44,"[0.9, 0.5, 0.1]","[0.8, 0.4, 0.2]","[u'blue', u'red', u'black']","[u'left', u'middle', u'right']","[0.9, 0.5, 0.1]","[u'medium', u'high', u'low']","red",50,"middle","high","True","False",681,2150,NA
"AU0KL60G7FCCK","Wed Jan 29 2020 09:33:00 GMT-0500 (Eastern Standard Time)","Wed Jan 29 2020 09:44:34 GMT-0500 (Eastern Standard Time)","Mozilla/5.0 (Windows NT 6.1; Win64; x64) AppleWebKit/537.36 (KHTML, like Gecko) Chrome/79.0.3945.130 Safari/537.36",45,"[0.9, 0.5, 0.1]","[0.8, 0.4, 0.2]","[u'blue', u'red', u'black']","[u'left', u'middle', u'right']","[0.9, 0.5, 0.1]","[u'medium', u'high', u'low']","red",50,"middle","high","True","False",418,2250,NA
"AU0KL60G7FCCK","Wed Jan 29 2020 09:33:00 GMT-0500 (Eastern Standard Time)","Wed Jan 29 2020 09:44:34 GMT-0500 (Eastern Standard Time)","Mozilla/5.0 (Windows NT 6.1; Win64; x64) AppleWebKit/537.36 (KHTML, like Gecko) Chrome/79.0.3945.130 Safari/537.36",46,"[0.9, 0.5, 0.1]","[0.8, 0.4, 0.2]","[u'blue', u'red', u'black']","[u'left', u'middle', u'right']","[0.9, 0.5, 0.1]","[u'medium', u'high', u'low']","red",50,"middle","high","True","False",414,2350,NA
"AU0KL60G7FCCK","Wed Jan 29 2020 09:33:00 GMT-0500 (Eastern Standard Time)","Wed Jan 29 2020 09:44:34 GMT-0500 (Eastern Standard Time)","Mozilla/5.0 (Windows NT 6.1; Win64; x64) AppleWebKit/537.36 (KHTML, like Gecko) Chrome/79.0.3945.130 Safari/537.36",47,"[0.9, 0.5, 0.1]","[0.8, 0.4, 0.2]","[u'blue', u'red', u'black']","[u'left', u'middle', u'right']","[0.9, 0.5, 0.1]","[u'medium', u'high', u'low']","red",50,"middle","high","True","False",474,2450,NA
"AU0KL60G7FCCK","Wed Jan 29 2020 09:33:00 GMT-0500 (Eastern Standard Time)","Wed Jan 29 2020 09:44:34 GMT-0500 (Eastern Standard Time)","Mozilla/5.0 (Windows NT 6.1; Win64; x64) AppleWebKit/537.36 (KHTML, like Gecko) Chrome/79.0.3945.130 Safari/537.36",48,"[0.9, 0.5, 0.1]","[0.8, 0.4, 0.2]","[u'blue', u'red', u'black']","[u'left', u'middle', u'right']","[0.9, 0.5, 0.1]","[u'medium', u'high', u'low']","red",50,"middle","high","True","False",401,2550,NA
"AU0KL60G7FCCK","Wed Jan 29 2020 09:33:00 GMT-0500 (Eastern Standard Time)","Wed Jan 29 2020 09:44:34 GMT-0500 (Eastern Standard Time)","Mozilla/5.0 (Windows NT 6.1; Win64; x64) AppleWebKit/537.36 (KHTML, like Gecko) Chrome/79.0.3945.130 Safari/537.36",49,"[0.9, 0.5, 0.1]","[0.8, 0.4, 0.2]","[u'blue', u'red', u'black']","[u'left', u'middle', u'right']","[0.9, 0.5, 0.1]","[u'medium', u'high', u'low']","red",50,"middle","high","True","False",473,2650,NA
"AU0KL60G7FCCK","Wed Jan 29 2020 09:33:00 GMT-0500 (Eastern Standard Time)","Wed Jan 29 2020 09:44:34 GMT-0500 (Eastern Standard Time)","Mozilla/5.0 (Windows NT 6.1; Win64; x64) AppleWebKit/537.36 (KHTML, like Gecko) Chrome/79.0.3945.130 Safari/537.36",50,"[0.9, 0.5, 0.1]","[0.8, 0.4, 0.2]","[u'blue', u'red', u'black']","[u'left', u'middle', u'right']","[0.9, 0.5, 0.1]","[u'medium', u'high', u'low']","red",50,"middle","high","True","True",384,2750,NA
"AU0KL60G7FCCK","Wed Jan 29 2020 09:33:00 GMT-0500 (Eastern Standard Time)","Wed Jan 29 2020 09:44:34 GMT-0500 (Eastern Standard Time)","Mozilla/5.0 (Windows NT 6.1; Win64; x64) AppleWebKit/537.36 (KHTML, like Gecko) Chrome/79.0.3945.130 Safari/537.36",51,"[0.9, 0.5, 0.1]","[0.8, 0.4, 0.2]","[u'blue', u'red', u'black']","[u'left', u'middle', u'right']","[0.9, 0.5, 0.1]","[u'high', u'medium', u'low']","red",50,"middle","medium","True","False",81,2850,NA
"AU0KL60G7FCCK","Wed Jan 29 2020 09:33:00 GMT-0500 (Eastern Standard Time)","Wed Jan 29 2020 09:44:34 GMT-0500 (Eastern Standard Time)","Mozilla/5.0 (Windows NT 6.1; Win64; x64) AppleWebKit/537.36 (KHTML, like Gecko) Chrome/79.0.3945.130 Safari/537.36",52,"[0.9, 0.5, 0.1]","[0.8, 0.4, 0.2]","[u'blue', u'red', u'black']","[u'left', u'middle', u'right']","[0.9, 0.5, 0.1]","[u'high', u'medium', u'low']","red",50,"middle","medium","True","False",361,2950,NA
"AU0KL60G7FCCK","Wed Jan 29 2020 09:33:00 GMT-0500 (Eastern Standard Time)","Wed Jan 29 2020 09:44:34 GMT-0500 (Eastern Standard Time)","Mozilla/5.0 (Windows NT 6.1; Win64; x64) AppleWebKit/537.36 (KHTML, like Gecko) Chrome/79.0.3945.130 Safari/537.36",53,"[0.9, 0.5, 0.1]","[0.8, 0.4, 0.2]","[u'blue', u'red', u'black']","[u'left', u'middle', u'right']","[0.9, 0.5, 0.1]","[u'high', u'medium', u'low']","red",50,"middle","medium","False","False",351,2900,NA
"AU0KL60G7FCCK","Wed Jan 29 2020 09:33:00 GMT-0500 (Eastern Standard Time)","Wed Jan 29 2020 09:44:34 GMT-0500 (Eastern Standard Time)","Mozilla/5.0 (Windows NT 6.1; Win64; x64) AppleWebKit/537.36 (KHTML, like Gecko) Chrome/79.0.3945.130 Safari/537.36",54,"[0.9, 0.5, 0.1]","[0.8, 0.4, 0.2]","[u'blue', u'red', u'black']","[u'left', u'middle', u'right']","[0.9, 0.5, 0.1]","[u'high', u'medium', u'low']","black",51,"right","low","False","False",221,2850,NA
"AU0KL60G7FCCK","Wed Jan 29 2020 09:33:00 GMT-0500 (Eastern Standard Time)","Wed Jan 29 2020 09:44:34 GMT-0500 (Eastern Standard Time)","Mozilla/5.0 (Windows NT 6.1; Win64; x64) AppleWebKit/537.36 (KHTML, like Gecko) Chrome/79.0.3945.130 Safari/537.36",55,"[0.9, 0.5, 0.1]","[0.8, 0.4, 0.2]","[u'blue', u'red', u'black']","[u'left', u'middle', u'right']","[0.9, 0.5, 0.1]","[u'high', u'medium', u'low']","blue",49,"left","high","True","False",791,2950,NA
"AU0KL60G7FCCK","Wed Jan 29 2020 09:33:00 GMT-0500 (Eastern Standard Time)","Wed Jan 29 2020 09:44:34 GMT-0500 (Eastern Standard Time)","Mozilla/5.0 (Windows NT 6.1; Win64; x64) AppleWebKit/537.36 (KHTML, like Gecko) Chrome/79.0.3945.130 Safari/537.36",56,"[0.9, 0.5, 0.1]","[0.8, 0.4, 0.2]","[u'blue', u'red', u'black']","[u'left', u'middle', u'right']","[0.9, 0.5, 0.1]","[u'high', u'medium', u'low']","blue",49,"left","high","True","False",347,3050,NA
"AU0KL60G7FCCK","Wed Jan 29 2020 09:33:00 GMT-0500 (Eastern Standard Time)","Wed Jan 29 2020 09:44:34 GMT-0500 (Eastern Standard Time)","Mozilla/5.0 (Windows NT 6.1; Win64; x64) AppleWebKit/537.36 (KHTML, like Gecko) Chrome/79.0.3945.130 Safari/537.36",57,"[0.9, 0.5, 0.1]","[0.8, 0.4, 0.2]","[u'blue', u'red', u'black']","[u'left', u'middle', u'right']","[0.9, 0.5, 0.1]","[u'high', u'medium', u'low']","blue",49,"left","high","True","False",174,3150,NA
"AU0KL60G7FCCK","Wed Jan 29 2020 09:33:00 GMT-0500 (Eastern Standard Time)","Wed Jan 29 2020 09:44:34 GMT-0500 (Eastern Standard Time)","Mozilla/5.0 (Windows NT 6.1; Win64; x64) AppleWebKit/537.36 (KHTML, like Gecko) Chrome/79.0.3945.130 Safari/537.36",58,"[0.9, 0.5, 0.1]","[0.8, 0.4, 0.2]","[u'blue', u'red', u'black']","[u'left', u'middle', u'right']","[0.9, 0.5, 0.1]","[u'high', u'medium', u'low']","blue",49,"left","high","True","False",371,3250,NA
"AU0KL60G7FCCK","Wed Jan 29 2020 09:33:00 GMT-0500 (Eastern Standard Time)","Wed Jan 29 2020 09:44:34 GMT-0500 (Eastern Standard Time)","Mozilla/5.0 (Windows NT 6.1; Win64; x64) AppleWebKit/537.36 (KHTML, like Gecko) Chrome/79.0.3945.130 Safari/537.36",59,"[0.9, 0.5, 0.1]","[0.8, 0.4, 0.2]","[u'blue', u'red', u'black']","[u'left', u'middle', u'right']","[0.9, 0.5, 0.1]","[u'high', u'medium', u'low']","blue",49,"left","high","False","False",335,3200,NA
"AU0KL60G7FCCK","Wed Jan 29 2020 09:33:00 GMT-0500 (Eastern Standard Time)","Wed Jan 29 2020 09:44:34 GMT-0500 (Eastern Standard Time)","Mozilla/5.0 (Windows NT 6.1; Win64; x64) AppleWebKit/537.36 (KHTML, like Gecko) Chrome/79.0.3945.130 Safari/537.36",60,"[0.9, 0.5, 0.1]","[0.8, 0.4, 0.2]","[u'blue', u'red', u'black']","[u'left', u'middle', u'right']","[0.9, 0.5, 0.1]","[u'high', u'medium', u'low']","black",51,"right","low","False","False",440,3150,NA
"AU0KL60G7FCCK","Wed Jan 29 2020 09:33:00 GMT-0500 (Eastern Standard Time)","Wed Jan 29 2020 09:44:34 GMT-0500 (Eastern Standard Time)","Mozilla/5.0 (Windows NT 6.1; Win64; x64) AppleWebKit/537.36 (KHTML, like Gecko) Chrome/79.0.3945.130 Safari/537.36",61,"[0.9, 0.5, 0.1]","[0.8, 0.4, 0.2]","[u'blue', u'red', u'black']","[u'left', u'middle', u'right']","[0.9, 0.5, 0.1]","[u'high', u'medium', u'low']","red",50,"middle","medium","False","False",318,3100,NA
"AU0KL60G7FCCK","Wed Jan 29 2020 09:33:00 GMT-0500 (Eastern Standard Time)","Wed Jan 29 2020 09:44:34 GMT-0500 (Eastern Standard Time)","Mozilla/5.0 (Windows NT 6.1; Win64; x64) AppleWebKit/537.36 (KHTML, like Gecko) Chrome/79.0.3945.130 Safari/537.36",62,"[0.9, 0.5, 0.1]","[0.8, 0.4, 0.2]","[u'blue', u'red', u'black']","[u'left', u'middle', u'right']","[0.9, 0.5, 0.1]","[u'high', u'medium', u'low']","blue",49,"left","high","True","False",101,3200,NA
"AU0KL60G7FCCK","Wed Jan 29 2020 09:33:00 GMT-0500 (Eastern Standard Time)","Wed Jan 29 2020 09:44:34 GMT-0500 (Eastern Standard Time)","Mozilla/5.0 (Windows NT 6.1; Win64; x64) AppleWebKit/537.36 (KHTML, like Gecko) Chrome/79.0.3945.130 Safari/537.36",63,"[0.9, 0.5, 0.1]","[0.8, 0.4, 0.2]","[u'blue', u'red', u'black']","[u'left', u'middle', u'right']","[0.9, 0.5, 0.1]","[u'high', u'medium', u'low']","blue",49,"left","high","True","False",392,3300,NA
"AU0KL60G7FCCK","Wed Jan 29 2020 09:33:00 GMT-0500 (Eastern Standard Time)","Wed Jan 29 2020 09:44:34 GMT-0500 (Eastern Standard Time)","Mozilla/5.0 (Windows NT 6.1; Win64; x64) AppleWebKit/537.36 (KHTML, like Gecko) Chrome/79.0.3945.130 Safari/537.36",64,"[0.9, 0.5, 0.1]","[0.8, 0.4, 0.2]","[u'blue', u'red', u'black']","[u'left', u'middle', u'right']","[0.9, 0.5, 0.1]","[u'high', u'medium', u'low']","blue",49,"left","high","True","False",301,3400,NA
"AU0KL60G7FCCK","Wed Jan 29 2020 09:33:00 GMT-0500 (Eastern Standard Time)","Wed Jan 29 2020 09:44:34 GMT-0500 (Eastern Standard Time)","Mozilla/5.0 (Windows NT 6.1; Win64; x64) AppleWebKit/537.36 (KHTML, like Gecko) Chrome/79.0.3945.130 Safari/537.36",65,"[0.9, 0.5, 0.1]","[0.8, 0.4, 0.2]","[u'blue', u'red', u'black']","[u'left', u'middle', u'right']","[0.9, 0.5, 0.1]","[u'high', u'medium', u'low']","blue",49,"left","high","True","False",329,3500,NA
"AU0KL60G7FCCK","Wed Jan 29 2020 09:33:00 GMT-0500 (Eastern Standard Time)","Wed Jan 29 2020 09:44:34 GMT-0500 (Eastern Standard Time)","Mozilla/5.0 (Windows NT 6.1; Win64; x64) AppleWebKit/537.36 (KHTML, like Gecko) Chrome/79.0.3945.130 Safari/537.36",66,"[0.9, 0.5, 0.1]","[0.8, 0.4, 0.2]","[u'blue', u'red', u'black']","[u'left', u'middle', u'right']","[0.9, 0.5, 0.1]","[u'high', u'medium', u'low']","blue",49,"left","high","True","False",214,3600,NA
"AU0KL60G7FCCK","Wed Jan 29 2020 09:33:00 GMT-0500 (Eastern Standard Time)","Wed Jan 29 2020 09:44:34 GMT-0500 (Eastern Standard Time)","Mozilla/5.0 (Windows NT 6.1; Win64; x64) AppleWebKit/537.36 (KHTML, like Gecko) Chrome/79.0.3945.130 Safari/537.36",67,"[0.9, 0.5, 0.1]","[0.8, 0.4, 0.2]","[u'blue', u'red', u'black']","[u'left', u'middle', u'right']","[0.9, 0.5, 0.1]","[u'high', u'medium', u'low']","blue",49,"left","high","True","False",355,3700,NA
"AU0KL60G7FCCK","Wed Jan 29 2020 09:33:00 GMT-0500 (Eastern Standard Time)","Wed Jan 29 2020 09:44:34 GMT-0500 (Eastern Standard Time)","Mozilla/5.0 (Windows NT 6.1; Win64; x64) AppleWebKit/537.36 (KHTML, like Gecko) Chrome/79.0.3945.130 Safari/537.36",68,"[0.9, 0.5, 0.1]","[0.8, 0.4, 0.2]","[u'blue', u'red', u'black']","[u'left', u'middle', u'right']","[0.9, 0.5, 0.1]","[u'high', u'medium', u'low']","blue",49,"left","high","False","False",421,3650,NA
"AU0KL60G7FCCK","Wed Jan 29 2020 09:33:00 GMT-0500 (Eastern Standard Time)","Wed Jan 29 2020 09:44:34 GMT-0500 (Eastern Standard Time)","Mozilla/5.0 (Windows NT 6.1; Win64; x64) AppleWebKit/537.36 (KHTML, like Gecko) Chrome/79.0.3945.130 Safari/537.36",69,"[0.9, 0.5, 0.1]","[0.8, 0.4, 0.2]","[u'blue', u'red', u'black']","[u'left', u'middle', u'right']","[0.9, 0.5, 0.1]","[u'high', u'medium', u'low']","red",50,"middle","medium","False","False",271,3600,NA
"AU0KL60G7FCCK","Wed Jan 29 2020 09:33:00 GMT-0500 (Eastern Standard Time)","Wed Jan 29 2020 09:44:34 GMT-0500 (Eastern Standard Time)","Mozilla/5.0 (Windows NT 6.1; Win64; x64) AppleWebKit/537.36 (KHTML, like Gecko) Chrome/79.0.3945.130 Safari/537.36",70,"[0.9, 0.5, 0.1]","[0.8, 0.4, 0.2]","[u'blue', u'red', u'black']","[u'left', u'middle', u'right']","[0.9, 0.5, 0.1]","[u'high', u'medium', u'low']","blue",49,"left","high","True","False",451,3700,NA
"AU0KL60G7FCCK","Wed Jan 29 2020 09:33:00 GMT-0500 (Eastern Standard Time)","Wed Jan 29 2020 09:44:34 GMT-0500 (Eastern Standard Time)","Mozilla/5.0 (Windows NT 6.1; Win64; x64) AppleWebKit/537.36 (KHTML, like Gecko) Chrome/79.0.3945.130 Safari/537.36",71,"[0.9, 0.5, 0.1]","[0.8, 0.4, 0.2]","[u'blue', u'red', u'black']","[u'left', u'middle', u'right']","[0.9, 0.5, 0.1]","[u'high', u'medium', u'low']","blue",49,"left","high","True","True",437,3800,NA
"AU0KL60G7FCCK","Wed Jan 29 2020 09:33:00 GMT-0500 (Eastern Standard Time)","Wed Jan 29 2020 09:44:34 GMT-0500 (Eastern Standard Time)","Mozilla/5.0 (Windows NT 6.1; Win64; x64) AppleWebKit/537.36 (KHTML, like Gecko) Chrome/79.0.3945.130 Safari/537.36",72,"[0.9, 0.5, 0.1]","[0.8, 0.4, 0.2]","[u'blue', u'red', u'black']","[u'left', u'middle', u'right']","[0.9, 0.5, 0.1]","[u'low', u'high', u'medium']","blue",49,"left","low","False","False",359,3750,NA
"AU0KL60G7FCCK","Wed Jan 29 2020 09:33:00 GMT-0500 (Eastern Standard Time)","Wed Jan 29 2020 09:44:34 GMT-0500 (Eastern Standard Time)","Mozilla/5.0 (Windows NT 6.1; Win64; x64) AppleWebKit/537.36 (KHTML, like Gecko) Chrome/79.0.3945.130 Safari/537.36",73,"[0.9, 0.5, 0.1]","[0.8, 0.4, 0.2]","[u'blue', u'red', u'black']","[u'left', u'middle', u'right']","[0.9, 0.5, 0.1]","[u'low', u'high', u'medium']","black",51,"right","medium","False","False",294,3700,NA
"AU0KL60G7FCCK","Wed Jan 29 2020 09:33:00 GMT-0500 (Eastern Standard Time)","Wed Jan 29 2020 09:44:34 GMT-0500 (Eastern Standard Time)","Mozilla/5.0 (Windows NT 6.1; Win64; x64) AppleWebKit/537.36 (KHTML, like Gecko) Chrome/79.0.3945.130 Safari/537.36",74,"[0.9, 0.5, 0.1]","[0.8, 0.4, 0.2]","[u'blue', u'red', u'black']","[u'left', u'middle', u'right']","[0.9, 0.5, 0.1]","[u'low', u'high', u'medium']","blue",49,"left","low","False","False",501,3650,NA
"AU0KL60G7FCCK","Wed Jan 29 2020 09:33:00 GMT-0500 (Eastern Standard Time)","Wed Jan 29 2020 09:44:34 GMT-0500 (Eastern Standard Time)","Mozilla/5.0 (Windows NT 6.1; Win64; x64) AppleWebKit/537.36 (KHTML, like Gecko) Chrome/79.0.3945.130 Safari/537.36",75,"[0.9, 0.5, 0.1]","[0.8, 0.4, 0.2]","[u'blue', u'red', u'black']","[u'left', u'middle', u'right']","[0.9, 0.5, 0.1]","[u'low', u'high', u'medium']","red",50,"middle","high","True","False",442,3750,NA
"AU0KL60G7FCCK","Wed Jan 29 2020 09:33:00 GMT-0500 (Eastern Standard Time)","Wed Jan 29 2020 09:44:34 GMT-0500 (Eastern Standard Time)","Mozilla/5.0 (Windows NT 6.1; Win64; x64) AppleWebKit/537.36 (KHTML, like Gecko) Chrome/79.0.3945.130 Safari/537.36",76,"[0.9, 0.5, 0.1]","[0.8, 0.4, 0.2]","[u'blue', u'red', u'black']","[u'left', u'middle', u'right']","[0.9, 0.5, 0.1]","[u'low', u'high', u'medium']","red",50,"middle","high","True","False",473,3850,NA
"AU0KL60G7FCCK","Wed Jan 29 2020 09:33:00 GMT-0500 (Eastern Standard Time)","Wed Jan 29 2020 09:44:34 GMT-0500 (Eastern Standard Time)","Mozilla/5.0 (Windows NT 6.1; Win64; x64) AppleWebKit/537.36 (KHTML, like Gecko) Chrome/79.0.3945.130 Safari/537.36",77,"[0.9, 0.5, 0.1]","[0.8, 0.4, 0.2]","[u'blue', u'red', u'black']","[u'left', u'middle', u'right']","[0.9, 0.5, 0.1]","[u'low', u'high', u'medium']","red",50,"middle","high","True","False",401,3950,NA
"AU0KL60G7FCCK","Wed Jan 29 2020 09:33:00 GMT-0500 (Eastern Standard Time)","Wed Jan 29 2020 09:44:34 GMT-0500 (Eastern Standard Time)","Mozilla/5.0 (Windows NT 6.1; Win64; x64) AppleWebKit/537.36 (KHTML, like Gecko) Chrome/79.0.3945.130 Safari/537.36",78,"[0.9, 0.5, 0.1]","[0.8, 0.4, 0.2]","[u'blue', u'red', u'black']","[u'left', u'middle', u'right']","[0.9, 0.5, 0.1]","[u'low', u'high', u'medium']","red",50,"middle","high","True","False",357,4050,NA
"AU0KL60G7FCCK","Wed Jan 29 2020 09:33:00 GMT-0500 (Eastern Standard Time)","Wed Jan 29 2020 09:44:34 GMT-0500 (Eastern Standard Time)","Mozilla/5.0 (Windows NT 6.1; Win64; x64) AppleWebKit/537.36 (KHTML, like Gecko) Chrome/79.0.3945.130 Safari/537.36",79,"[0.9, 0.5, 0.1]","[0.8, 0.4, 0.2]","[u'blue', u'red', u'black']","[u'left', u'middle', u'right']","[0.9, 0.5, 0.1]","[u'low', u'high', u'medium']","red",50,"middle","high","True","False",439,4150,NA
"AU0KL60G7FCCK","Wed Jan 29 2020 09:33:00 GMT-0500 (Eastern Standard Time)","Wed Jan 29 2020 09:44:34 GMT-0500 (Eastern Standard Time)","Mozilla/5.0 (Windows NT 6.1; Win64; x64) AppleWebKit/537.36 (KHTML, like Gecko) Chrome/79.0.3945.130 Safari/537.36",80,"[0.9, 0.5, 0.1]","[0.8, 0.4, 0.2]","[u'blue', u'red', u'black']","[u'left', u'middle', u'right']","[0.9, 0.5, 0.1]","[u'low', u'high', u'medium']","red",50,"middle","high","True","False",1754,4250,NA
"AU0KL60G7FCCK","Wed Jan 29 2020 09:33:00 GMT-0500 (Eastern Standard Time)","Wed Jan 29 2020 09:44:34 GMT-0500 (Eastern Standard Time)","Mozilla/5.0 (Windows NT 6.1; Win64; x64) AppleWebKit/537.36 (KHTML, like Gecko) Chrome/79.0.3945.130 Safari/537.36",81,"[0.9, 0.5, 0.1]","[0.8, 0.4, 0.2]","[u'blue', u'red', u'black']","[u'left', u'middle', u'right']","[0.8, 0.4, 0.2]","[u'medium', u'low', u'high']","blue",49,"left","medium","True","False",1975,4350,NA
"AU0KL60G7FCCK","Wed Jan 29 2020 09:33:00 GMT-0500 (Eastern Standard Time)","Wed Jan 29 2020 09:44:34 GMT-0500 (Eastern Standard Time)","Mozilla/5.0 (Windows NT 6.1; Win64; x64) AppleWebKit/537.36 (KHTML, like Gecko) Chrome/79.0.3945.130 Safari/537.36",82,"[0.9, 0.5, 0.1]","[0.8, 0.4, 0.2]","[u'blue', u'red', u'black']","[u'left', u'middle', u'right']","[0.8, 0.4, 0.2]","[u'medium', u'low', u'high']","blue",49,"left","medium","True","False",835,4450,NA
"AU0KL60G7FCCK","Wed Jan 29 2020 09:33:00 GMT-0500 (Eastern Standard Time)","Wed Jan 29 2020 09:44:34 GMT-0500 (Eastern Standard Time)","Mozilla/5.0 (Windows NT 6.1; Win64; x64) AppleWebKit/537.36 (KHTML, like Gecko) Chrome/79.0.3945.130 Safari/537.36",83,"[0.9, 0.5, 0.1]","[0.8, 0.4, 0.2]","[u'blue', u'red', u'black']","[u'left', u'middle', u'right']","[0.8, 0.4, 0.2]","[u'medium', u'low', u'high']","blue",49,"left","medium","True","False",504,4550,NA
"AU0KL60G7FCCK","Wed Jan 29 2020 09:33:00 GMT-0500 (Eastern Standard Time)","Wed Jan 29 2020 09:44:34 GMT-0500 (Eastern Standard Time)","Mozilla/5.0 (Windows NT 6.1; Win64; x64) AppleWebKit/537.36 (KHTML, like Gecko) Chrome/79.0.3945.130 Safari/537.36",84,"[0.9, 0.5, 0.1]","[0.8, 0.4, 0.2]","[u'blue', u'red', u'black']","[u'left', u'middle', u'right']","[0.8, 0.4, 0.2]","[u'medium', u'low', u'high']","blue",49,"left","medium","True","False",461,4650,NA
"AU0KL60G7FCCK","Wed Jan 29 2020 09:33:00 GMT-0500 (Eastern Standard Time)","Wed Jan 29 2020 09:44:34 GMT-0500 (Eastern Standard Time)","Mozilla/5.0 (Windows NT 6.1; Win64; x64) AppleWebKit/537.36 (KHTML, like Gecko) Chrome/79.0.3945.130 Safari/537.36",85,"[0.9, 0.5, 0.1]","[0.8, 0.4, 0.2]","[u'blue', u'red', u'black']","[u'left', u'middle', u'right']","[0.8, 0.4, 0.2]","[u'medium', u'low', u'high']","blue",49,"left","medium","False","False",350,4600,NA
"AU0KL60G7FCCK","Wed Jan 29 2020 09:33:00 GMT-0500 (Eastern Standard Time)","Wed Jan 29 2020 09:44:34 GMT-0500 (Eastern Standard Time)","Mozilla/5.0 (Windows NT 6.1; Win64; x64) AppleWebKit/537.36 (KHTML, like Gecko) Chrome/79.0.3945.130 Safari/537.36",86,"[0.9, 0.5, 0.1]","[0.8, 0.4, 0.2]","[u'blue', u'red', u'black']","[u'left', u'middle', u'right']","[0.8, 0.4, 0.2]","[u'medium', u'low', u'high']","black",51,"right","high","True","False",81,4700,NA
"AU0KL60G7FCCK","Wed Jan 29 2020 09:33:00 GMT-0500 (Eastern Standard Time)","Wed Jan 29 2020 09:44:34 GMT-0500 (Eastern Standard Time)","Mozilla/5.0 (Windows NT 6.1; Win64; x64) AppleWebKit/537.36 (KHTML, like Gecko) Chrome/79.0.3945.130 Safari/537.36",87,"[0.9, 0.5, 0.1]","[0.8, 0.4, 0.2]","[u'blue', u'red', u'black']","[u'left', u'middle', u'right']","[0.8, 0.4, 0.2]","[u'medium', u'low', u'high']","black",51,"right","high","False","False",366,4650,NA
"AU0KL60G7FCCK","Wed Jan 29 2020 09:33:00 GMT-0500 (Eastern Standard Time)","Wed Jan 29 2020 09:44:34 GMT-0500 (Eastern Standard Time)","Mozilla/5.0 (Windows NT 6.1; Win64; x64) AppleWebKit/537.36 (KHTML, like Gecko) Chrome/79.0.3945.130 Safari/537.36",88,"[0.9, 0.5, 0.1]","[0.8, 0.4, 0.2]","[u'blue', u'red', u'black']","[u'left', u'middle', u'right']","[0.8, 0.4, 0.2]","[u'medium', u'low', u'high']","blue",49,"left","medium","False","False",452,4600,NA
"AU0KL60G7FCCK","Wed Jan 29 2020 09:33:00 GMT-0500 (Eastern Standard Time)","Wed Jan 29 2020 09:44:34 GMT-0500 (Eastern Standard Time)","Mozilla/5.0 (Windows NT 6.1; Win64; x64) AppleWebKit/537.36 (KHTML, like Gecko) Chrome/79.0.3945.130 Safari/537.36",89,"[0.9, 0.5, 0.1]","[0.8, 0.4, 0.2]","[u'blue', u'red', u'black']","[u'left', u'middle', u'right']","[0.8, 0.4, 0.2]","[u'medium', u'low', u'high']","red",50,"middle","low","False","False",330,4550,NA
"AU0KL60G7FCCK","Wed Jan 29 2020 09:33:00 GMT-0500 (Eastern Standard Time)","Wed Jan 29 2020 09:44:34 GMT-0500 (Eastern Standard Time)","Mozilla/5.0 (Windows NT 6.1; Win64; x64) AppleWebKit/537.36 (KHTML, like Gecko) Chrome/79.0.3945.130 Safari/537.36",90,"[0.9, 0.5, 0.1]","[0.8, 0.4, 0.2]","[u'blue', u'red', u'black']","[u'left', u'middle', u'right']","[0.8, 0.4, 0.2]","[u'medium', u'low', u'high']","blue",49,"left","medium","False","False",217,4500,NA
"AU0KL60G7FCCK","Wed Jan 29 2020 09:33:00 GMT-0500 (Eastern Standard Time)","Wed Jan 29 2020 09:44:34 GMT-0500 (Eastern Standard Time)","Mozilla/5.0 (Windows NT 6.1; Win64; x64) AppleWebKit/537.36 (KHTML, like Gecko) Chrome/79.0.3945.130 Safari/537.36",91,"[0.9, 0.5, 0.1]","[0.8, 0.4, 0.2]","[u'blue', u'red', u'black']","[u'left', u'middle', u'right']","[0.8, 0.4, 0.2]","[u'medium', u'low', u'high']","black",51,"right","high","True","False",153,4600,NA
"AU0KL60G7FCCK","Wed Jan 29 2020 09:33:00 GMT-0500 (Eastern Standard Time)","Wed Jan 29 2020 09:44:34 GMT-0500 (Eastern Standard Time)","Mozilla/5.0 (Windows NT 6.1; Win64; x64) AppleWebKit/537.36 (KHTML, like Gecko) Chrome/79.0.3945.130 Safari/537.36",92,"[0.9, 0.5, 0.1]","[0.8, 0.4, 0.2]","[u'blue', u'red', u'black']","[u'left', u'middle', u'right']","[0.8, 0.4, 0.2]","[u'medium', u'low', u'high']","black",51,"right","high","True","False",330,4700,NA
"AU0KL60G7FCCK","Wed Jan 29 2020 09:33:00 GMT-0500 (Eastern Standard Time)","Wed Jan 29 2020 09:44:34 GMT-0500 (Eastern Standard Time)","Mozilla/5.0 (Windows NT 6.1; Win64; x64) AppleWebKit/537.36 (KHTML, like Gecko) Chrome/79.0.3945.130 Safari/537.36",93,"[0.9, 0.5, 0.1]","[0.8, 0.4, 0.2]","[u'blue', u'red', u'black']","[u'left', u'middle', u'right']","[0.8, 0.4, 0.2]","[u'medium', u'low', u'high']","black",51,"right","high","True","False",301,4800,NA
"AU0KL60G7FCCK","Wed Jan 29 2020 09:33:00 GMT-0500 (Eastern Standard Time)","Wed Jan 29 2020 09:44:34 GMT-0500 (Eastern Standard Time)","Mozilla/5.0 (Windows NT 6.1; Win64; x64) AppleWebKit/537.36 (KHTML, like Gecko) Chrome/79.0.3945.130 Safari/537.36",94,"[0.9, 0.5, 0.1]","[0.8, 0.4, 0.2]","[u'blue', u'red', u'black']","[u'left', u'middle', u'right']","[0.8, 0.4, 0.2]","[u'medium', u'low', u'high']","black",51,"right","high","True","False",631,4900,NA
"AU0KL60G7FCCK","Wed Jan 29 2020 09:33:00 GMT-0500 (Eastern Standard Time)","Wed Jan 29 2020 09:44:34 GMT-0500 (Eastern Standard Time)","Mozilla/5.0 (Windows NT 6.1; Win64; x64) AppleWebKit/537.36 (KHTML, like Gecko) Chrome/79.0.3945.130 Safari/537.36",95,"[0.9, 0.5, 0.1]","[0.8, 0.4, 0.2]","[u'blue', u'red', u'black']","[u'left', u'middle', u'right']","[0.8, 0.4, 0.2]","[u'medium', u'low', u'high']","black",51,"right","high","True","False",358,5000,NA
"AU0KL60G7FCCK","Wed Jan 29 2020 09:33:00 GMT-0500 (Eastern Standard Time)","Wed Jan 29 2020 09:44:34 GMT-0500 (Eastern Standard Time)","Mozilla/5.0 (Windows NT 6.1; Win64; x64) AppleWebKit/537.36 (KHTML, like Gecko) Chrome/79.0.3945.130 Safari/537.36",96,"[0.9, 0.5, 0.1]","[0.8, 0.4, 0.2]","[u'blue', u'red', u'black']","[u'left', u'middle', u'right']","[0.8, 0.4, 0.2]","[u'medium', u'low', u'high']","black",51,"right","high","True","False",344,5100,NA
"AU0KL60G7FCCK","Wed Jan 29 2020 09:33:00 GMT-0500 (Eastern Standard Time)","Wed Jan 29 2020 09:44:34 GMT-0500 (Eastern Standard Time)","Mozilla/5.0 (Windows NT 6.1; Win64; x64) AppleWebKit/537.36 (KHTML, like Gecko) Chrome/79.0.3945.130 Safari/537.36",97,"[0.9, 0.5, 0.1]","[0.8, 0.4, 0.2]","[u'blue', u'red', u'black']","[u'left', u'middle', u'right']","[0.8, 0.4, 0.2]","[u'medium', u'low', u'high']","black",51,"right","high","False","False",329,5050,NA
"AU0KL60G7FCCK","Wed Jan 29 2020 09:33:00 GMT-0500 (Eastern Standard Time)","Wed Jan 29 2020 09:44:34 GMT-0500 (Eastern Standard Time)","Mozilla/5.0 (Windows NT 6.1; Win64; x64) AppleWebKit/537.36 (KHTML, like Gecko) Chrome/79.0.3945.130 Safari/537.36",98,"[0.9, 0.5, 0.1]","[0.8, 0.4, 0.2]","[u'blue', u'red', u'black']","[u'left', u'middle', u'right']","[0.8, 0.4, 0.2]","[u'medium', u'low', u'high']","red",50,"middle","low","False","False",831,5000,NA
"AU0KL60G7FCCK","Wed Jan 29 2020 09:33:00 GMT-0500 (Eastern Standard Time)","Wed Jan 29 2020 09:44:34 GMT-0500 (Eastern Standard Time)","Mozilla/5.0 (Windows NT 6.1; Win64; x64) AppleWebKit/537.36 (KHTML, like Gecko) Chrome/79.0.3945.130 Safari/537.36",99,"[0.9, 0.5, 0.1]","[0.8, 0.4, 0.2]","[u'blue', u'red', u'black']","[u'left', u'middle', u'right']","[0.8, 0.4, 0.2]","[u'medium', u'low', u'high']","black",51,"right","high","True","False",476,5100,NA
"AU0KL60G7FCCK","Wed Jan 29 2020 09:33:00 GMT-0500 (Eastern Standard Time)","Wed Jan 29 2020 09:44:34 GMT-0500 (Eastern Standard Time)","Mozilla/5.0 (Windows NT 6.1; Win64; x64) AppleWebKit/537.36 (KHTML, like Gecko) Chrome/79.0.3945.130 Safari/537.36",100,"[0.9, 0.5, 0.1]","[0.8, 0.4, 0.2]","[u'blue', u'red', u'black']","[u'left', u'middle', u'right']","[0.8, 0.4, 0.2]","[u'medium', u'low', u'high']","black",51,"right","high","True","True",487,5200,NA
"AU0KL60G7FCCK","Wed Jan 29 2020 09:33:00 GMT-0500 (Eastern Standard Time)","Wed Jan 29 2020 09:44:34 GMT-0500 (Eastern Standard Time)","Mozilla/5.0 (Windows NT 6.1; Win64; x64) AppleWebKit/537.36 (KHTML, like Gecko) Chrome/79.0.3945.130 Safari/537.36",101,"[0.9, 0.5, 0.1]","[0.8, 0.4, 0.2]","[u'blue', u'red', u'black']","[u'left', u'middle', u'right']","[0.8, 0.4, 0.2]","[u'high', u'medium', u'low']","black",51,"right","low","False","False",360,5150,NA
"AU0KL60G7FCCK","Wed Jan 29 2020 09:33:00 GMT-0500 (Eastern Standard Time)","Wed Jan 29 2020 09:44:34 GMT-0500 (Eastern Standard Time)","Mozilla/5.0 (Windows NT 6.1; Win64; x64) AppleWebKit/537.36 (KHTML, like Gecko) Chrome/79.0.3945.130 Safari/537.36",102,"[0.9, 0.5, 0.1]","[0.8, 0.4, 0.2]","[u'blue', u'red', u'black']","[u'left', u'middle', u'right']","[0.8, 0.4, 0.2]","[u'high', u'medium', u'low']","blue",49,"left","high","True","False",123,5250,NA
"AU0KL60G7FCCK","Wed Jan 29 2020 09:33:00 GMT-0500 (Eastern Standard Time)","Wed Jan 29 2020 09:44:34 GMT-0500 (Eastern Standard Time)","Mozilla/5.0 (Windows NT 6.1; Win64; x64) AppleWebKit/537.36 (KHTML, like Gecko) Chrome/79.0.3945.130 Safari/537.36",103,"[0.9, 0.5, 0.1]","[0.8, 0.4, 0.2]","[u'blue', u'red', u'black']","[u'left', u'middle', u'right']","[0.8, 0.4, 0.2]","[u'high', u'medium', u'low']","blue",49,"left","high","True","False",448,5350,NA
"AU0KL60G7FCCK","Wed Jan 29 2020 09:33:00 GMT-0500 (Eastern Standard Time)","Wed Jan 29 2020 09:44:34 GMT-0500 (Eastern Standard Time)","Mozilla/5.0 (Windows NT 6.1; Win64; x64) AppleWebKit/537.36 (KHTML, like Gecko) Chrome/79.0.3945.130 Safari/537.36",104,"[0.9, 0.5, 0.1]","[0.8, 0.4, 0.2]","[u'blue', u'red', u'black']","[u'left', u'middle', u'right']","[0.8, 0.4, 0.2]","[u'high', u'medium', u'low']","blue",49,"left","high","True","False",372,5450,NA
"AU0KL60G7FCCK","Wed Jan 29 2020 09:33:00 GMT-0500 (Eastern Standard Time)","Wed Jan 29 2020 09:44:34 GMT-0500 (Eastern Standard Time)","Mozilla/5.0 (Windows NT 6.1; Win64; x64) AppleWebKit/537.36 (KHTML, like Gecko) Chrome/79.0.3945.130 Safari/537.36",105,"[0.9, 0.5, 0.1]","[0.8, 0.4, 0.2]","[u'blue', u'red', u'black']","[u'left', u'middle', u'right']","[0.8, 0.4, 0.2]","[u'high', u'medium', u'low']","blue",49,"left","high","True","False",415,5550,NA
"AU0KL60G7FCCK","Wed Jan 29 2020 09:33:00 GMT-0500 (Eastern Standard Time)","Wed Jan 29 2020 09:44:34 GMT-0500 (Eastern Standard Time)","Mozilla/5.0 (Windows NT 6.1; Win64; x64) AppleWebKit/537.36 (KHTML, like Gecko) Chrome/79.0.3945.130 Safari/537.36",106,"[0.9, 0.5, 0.1]","[0.8, 0.4, 0.2]","[u'blue', u'red', u'black']","[u'left', u'middle', u'right']","[0.8, 0.4, 0.2]","[u'high', u'medium', u'low']","blue",49,"left","high","True","False",368,5650,NA
"AU0KL60G7FCCK","Wed Jan 29 2020 09:33:00 GMT-0500 (Eastern Standard Time)","Wed Jan 29 2020 09:44:34 GMT-0500 (Eastern Standard Time)","Mozilla/5.0 (Windows NT 6.1; Win64; x64) AppleWebKit/537.36 (KHTML, like Gecko) Chrome/79.0.3945.130 Safari/537.36",107,"[0.9, 0.5, 0.1]","[0.8, 0.4, 0.2]","[u'blue', u'red', u'black']","[u'left', u'middle', u'right']","[0.8, 0.4, 0.2]","[u'high', u'medium', u'low']","blue",49,"left","high","False","False",366,5600,NA
"AU0KL60G7FCCK","Wed Jan 29 2020 09:33:00 GMT-0500 (Eastern Standard Time)","Wed Jan 29 2020 09:44:34 GMT-0500 (Eastern Standard Time)","Mozilla/5.0 (Windows NT 6.1; Win64; x64) AppleWebKit/537.36 (KHTML, like Gecko) Chrome/79.0.3945.130 Safari/537.36",108,"[0.9, 0.5, 0.1]","[0.8, 0.4, 0.2]","[u'blue', u'red', u'black']","[u'left', u'middle', u'right']","[0.8, 0.4, 0.2]","[u'high', u'medium', u'low']","black",51,"right","low","False","False",479,5550,NA
"AU0KL60G7FCCK","Wed Jan 29 2020 09:33:00 GMT-0500 (Eastern Standard Time)","Wed Jan 29 2020 09:44:34 GMT-0500 (Eastern Standard Time)","Mozilla/5.0 (Windows NT 6.1; Win64; x64) AppleWebKit/537.36 (KHTML, like Gecko) Chrome/79.0.3945.130 Safari/537.36",109,"[0.9, 0.5, 0.1]","[0.8, 0.4, 0.2]","[u'blue', u'red', u'black']","[u'left', u'middle', u'right']","[0.8, 0.4, 0.2]","[u'high', u'medium', u'low']","blue",49,"left","high","True","False",447,5650,NA
"AU0KL60G7FCCK","Wed Jan 29 2020 09:33:00 GMT-0500 (Eastern Standard Time)","Wed Jan 29 2020 09:44:34 GMT-0500 (Eastern Standard Time)","Mozilla/5.0 (Windows NT 6.1; Win64; x64) AppleWebKit/537.36 (KHTML, like Gecko) Chrome/79.0.3945.130 Safari/537.36",110,"[0.9, 0.5, 0.1]","[0.8, 0.4, 0.2]","[u'blue', u'red', u'black']","[u'left', u'middle', u'right']","[0.8, 0.4, 0.2]","[u'high', u'medium', u'low']","blue",49,"left","high","True","False",420,5750,NA
"AU0KL60G7FCCK","Wed Jan 29 2020 09:33:00 GMT-0500 (Eastern Standard Time)","Wed Jan 29 2020 09:44:34 GMT-0500 (Eastern Standard Time)","Mozilla/5.0 (Windows NT 6.1; Win64; x64) AppleWebKit/537.36 (KHTML, like Gecko) Chrome/79.0.3945.130 Safari/537.36",111,"[0.9, 0.5, 0.1]","[0.8, 0.4, 0.2]","[u'blue', u'red', u'black']","[u'left', u'middle', u'right']","[0.8, 0.4, 0.2]","[u'high', u'medium', u'low']","blue",49,"left","high","True","True",359,5850,NA
"AU0KL60G7FCCK","Wed Jan 29 2020 09:33:00 GMT-0500 (Eastern Standard Time)","Wed Jan 29 2020 09:44:34 GMT-0500 (Eastern Standard Time)","Mozilla/5.0 (Windows NT 6.1; Win64; x64) AppleWebKit/537.36 (KHTML, like Gecko) Chrome/79.0.3945.130 Safari/537.36",112,"[0.9, 0.5, 0.1]","[0.8, 0.4, 0.2]","[u'blue', u'red', u'black']","[u'left', u'middle', u'right']","[0.8, 0.4, 0.2]","[u'low', u'medium', u'high']","blue",49,"left","low","False","False",392,5800,NA
"AU0KL60G7FCCK","Wed Jan 29 2020 09:33:00 GMT-0500 (Eastern Standard Time)","Wed Jan 29 2020 09:44:34 GMT-0500 (Eastern Standard Time)","Mozilla/5.0 (Windows NT 6.1; Win64; x64) AppleWebKit/537.36 (KHTML, like Gecko) Chrome/79.0.3945.130 Safari/537.36",113,"[0.9, 0.5, 0.1]","[0.8, 0.4, 0.2]","[u'blue', u'red', u'black']","[u'left', u'middle', u'right']","[0.8, 0.4, 0.2]","[u'low', u'medium', u'high']","red",50,"middle","medium","False","False",384,5750,NA
"AU0KL60G7FCCK","Wed Jan 29 2020 09:33:00 GMT-0500 (Eastern Standard Time)","Wed Jan 29 2020 09:44:34 GMT-0500 (Eastern Standard Time)","Mozilla/5.0 (Windows NT 6.1; Win64; x64) AppleWebKit/537.36 (KHTML, like Gecko) Chrome/79.0.3945.130 Safari/537.36",114,"[0.9, 0.5, 0.1]","[0.8, 0.4, 0.2]","[u'blue', u'red', u'black']","[u'left', u'middle', u'right']","[0.8, 0.4, 0.2]","[u'low', u'medium', u'high']","blue",49,"left","low","False","False",114,5700,NA
"AU0KL60G7FCCK","Wed Jan 29 2020 09:33:00 GMT-0500 (Eastern Standard Time)","Wed Jan 29 2020 09:44:34 GMT-0500 (Eastern Standard Time)","Mozilla/5.0 (Windows NT 6.1; Win64; x64) AppleWebKit/537.36 (KHTML, like Gecko) Chrome/79.0.3945.130 Safari/537.36",115,"[0.9, 0.5, 0.1]","[0.8, 0.4, 0.2]","[u'blue', u'red', u'black']","[u'left', u'middle', u'right']","[0.8, 0.4, 0.2]","[u'low', u'medium', u'high']","black",51,"right","high","False","False",349,5650,NA
"AU0KL60G7FCCK","Wed Jan 29 2020 09:33:00 GMT-0500 (Eastern Standard Time)","Wed Jan 29 2020 09:44:34 GMT-0500 (Eastern Standard Time)","Mozilla/5.0 (Windows NT 6.1; Win64; x64) AppleWebKit/537.36 (KHTML, like Gecko) Chrome/79.0.3945.130 Safari/537.36",116,"[0.9, 0.5, 0.1]","[0.8, 0.4, 0.2]","[u'blue', u'red', u'black']","[u'left', u'middle', u'right']","[0.8, 0.4, 0.2]","[u'low', u'medium', u'high']","blue",49,"left","low","True","False",335,5750,NA
"AU0KL60G7FCCK","Wed Jan 29 2020 09:33:00 GMT-0500 (Eastern Standard Time)","Wed Jan 29 2020 09:44:34 GMT-0500 (Eastern Standard Time)","Mozilla/5.0 (Windows NT 6.1; Win64; x64) AppleWebKit/537.36 (KHTML, like Gecko) Chrome/79.0.3945.130 Safari/537.36",117,"[0.9, 0.5, 0.1]","[0.8, 0.4, 0.2]","[u'blue', u'red', u'black']","[u'left', u'middle', u'right']","[0.8, 0.4, 0.2]","[u'low', u'medium', u'high']","blue",49,"left","low","False","False",445,5700,NA
"AU0KL60G7FCCK","Wed Jan 29 2020 09:33:00 GMT-0500 (Eastern Standard Time)","Wed Jan 29 2020 09:44:34 GMT-0500 (Eastern Standard Time)","Mozilla/5.0 (Windows NT 6.1; Win64; x64) AppleWebKit/537.36 (KHTML, like Gecko) Chrome/79.0.3945.130 Safari/537.36",118,"[0.9, 0.5, 0.1]","[0.8, 0.4, 0.2]","[u'blue', u'red', u'black']","[u'left', u'middle', u'right']","[0.8, 0.4, 0.2]","[u'low', u'medium', u'high']","red",50,"middle","medium","True","False",391,5800,NA
"AU0KL60G7FCCK","Wed Jan 29 2020 09:33:00 GMT-0500 (Eastern Standard Time)","Wed Jan 29 2020 09:44:34 GMT-0500 (Eastern Standard Time)","Mozilla/5.0 (Windows NT 6.1; Win64; x64) AppleWebKit/537.36 (KHTML, like Gecko) Chrome/79.0.3945.130 Safari/537.36",119,"[0.9, 0.5, 0.1]","[0.8, 0.4, 0.2]","[u'blue', u'red', u'black']","[u'left', u'middle', u'right']","[0.8, 0.4, 0.2]","[u'low', u'medium', u'high']","red",50,"middle","medium","False","False",456,5750,NA
"AU0KL60G7FCCK","Wed Jan 29 2020 09:33:00 GMT-0500 (Eastern Standard Time)","Wed Jan 29 2020 09:44:34 GMT-0500 (Eastern Standard Time)","Mozilla/5.0 (Windows NT 6.1; Win64; x64) AppleWebKit/537.36 (KHTML, like Gecko) Chrome/79.0.3945.130 Safari/537.36",120,"[0.9, 0.5, 0.1]","[0.8, 0.4, 0.2]","[u'blue', u'red', u'black']","[u'left', u'middle', u'right']","[0.8, 0.4, 0.2]","[u'low', u'medium', u'high']","blue",49,"left","low","False","False",239,5700,NA
"AU0KL60G7FCCK","Wed Jan 29 2020 09:33:00 GMT-0500 (Eastern Standard Time)","Wed Jan 29 2020 09:44:34 GMT-0500 (Eastern Standard Time)","Mozilla/5.0 (Windows NT 6.1; Win64; x64) AppleWebKit/537.36 (KHTML, like Gecko) Chrome/79.0.3945.130 Safari/537.36",121,"[0.9, 0.5, 0.1]","[0.8, 0.4, 0.2]","[u'blue', u'red', u'black']","[u'left', u'middle', u'right']","[0.8, 0.4, 0.2]","[u'low', u'high', u'medium']","black",51,"right","medium","True","False",1408,5800,NA
"AU0KL60G7FCCK","Wed Jan 29 2020 09:33:00 GMT-0500 (Eastern Standard Time)","Wed Jan 29 2020 09:44:34 GMT-0500 (Eastern Standard Time)","Mozilla/5.0 (Windows NT 6.1; Win64; x64) AppleWebKit/537.36 (KHTML, like Gecko) Chrome/79.0.3945.130 Safari/537.36",122,"[0.9, 0.5, 0.1]","[0.8, 0.4, 0.2]","[u'blue', u'red', u'black']","[u'left', u'middle', u'right']","[0.8, 0.4, 0.2]","[u'low', u'high', u'medium']","black",51,"right","medium","False","False",96,5750,NA
"AU0KL60G7FCCK","Wed Jan 29 2020 09:33:00 GMT-0500 (Eastern Standard Time)","Wed Jan 29 2020 09:44:34 GMT-0500 (Eastern Standard Time)","Mozilla/5.0 (Windows NT 6.1; Win64; x64) AppleWebKit/537.36 (KHTML, like Gecko) Chrome/79.0.3945.130 Safari/537.36",123,"[0.9, 0.5, 0.1]","[0.8, 0.4, 0.2]","[u'blue', u'red', u'black']","[u'left', u'middle', u'right']","[0.8, 0.4, 0.2]","[u'low', u'high', u'medium']","red",50,"middle","high","True","False",550,5850,NA
"AU0KL60G7FCCK","Wed Jan 29 2020 09:33:00 GMT-0500 (Eastern Standard Time)","Wed Jan 29 2020 09:44:34 GMT-0500 (Eastern Standard Time)","Mozilla/5.0 (Windows NT 6.1; Win64; x64) AppleWebKit/537.36 (KHTML, like Gecko) Chrome/79.0.3945.130 Safari/537.36",124,"[0.9, 0.5, 0.1]","[0.8, 0.4, 0.2]","[u'blue', u'red', u'black']","[u'left', u'middle', u'right']","[0.8, 0.4, 0.2]","[u'low', u'high', u'medium']","red",50,"middle","high","True","False",391,5950,NA
"AU0KL60G7FCCK","Wed Jan 29 2020 09:33:00 GMT-0500 (Eastern Standard Time)","Wed Jan 29 2020 09:44:34 GMT-0500 (Eastern Standard Time)","Mozilla/5.0 (Windows NT 6.1; Win64; x64) AppleWebKit/537.36 (KHTML, like Gecko) Chrome/79.0.3945.130 Safari/537.36",125,"[0.9, 0.5, 0.1]","[0.8, 0.4, 0.2]","[u'blue', u'red', u'black']","[u'left', u'middle', u'right']","[0.8, 0.4, 0.2]","[u'low', u'high', u'medium']","red",50,"middle","high","False","False",315,5900,NA
"AU0KL60G7FCCK","Wed Jan 29 2020 09:33:00 GMT-0500 (Eastern Standard Time)","Wed Jan 29 2020 09:44:34 GMT-0500 (Eastern Standard Time)","Mozilla/5.0 (Windows NT 6.1; Win64; x64) AppleWebKit/537.36 (KHTML, like Gecko) Chrome/79.0.3945.130 Safari/537.36",126,"[0.9, 0.5, 0.1]","[0.8, 0.4, 0.2]","[u'blue', u'red', u'black']","[u'left', u'middle', u'right']","[0.8, 0.4, 0.2]","[u'low', u'high', u'medium']","blue",49,"left","low","False","False",587,5850,NA
"AU0KL60G7FCCK","Wed Jan 29 2020 09:33:00 GMT-0500 (Eastern Standard Time)","Wed Jan 29 2020 09:44:34 GMT-0500 (Eastern Standard Time)","Mozilla/5.0 (Windows NT 6.1; Win64; x64) AppleWebKit/537.36 (KHTML, like Gecko) Chrome/79.0.3945.130 Safari/537.36",127,"[0.9, 0.5, 0.1]","[0.8, 0.4, 0.2]","[u'blue', u'red', u'black']","[u'left', u'middle', u'right']","[0.8, 0.4, 0.2]","[u'low', u'high', u'medium']","red",50,"middle","high","True","False",138,5950,NA
"AU0KL60G7FCCK","Wed Jan 29 2020 09:33:00 GMT-0500 (Eastern Standard Time)","Wed Jan 29 2020 09:44:34 GMT-0500 (Eastern Standard Time)","Mozilla/5.0 (Windows NT 6.1; Win64; x64) AppleWebKit/537.36 (KHTML, like Gecko) Chrome/79.0.3945.130 Safari/537.36",128,"[0.9, 0.5, 0.1]","[0.8, 0.4, 0.2]","[u'blue', u'red', u'black']","[u'left', u'middle', u'right']","[0.8, 0.4, 0.2]","[u'low', u'high', u'medium']","red",50,"middle","high","True","False",416,6050,NA
"AU0KL60G7FCCK","Wed Jan 29 2020 09:33:00 GMT-0500 (Eastern Standard Time)","Wed Jan 29 2020 09:44:34 GMT-0500 (Eastern Standard Time)","Mozilla/5.0 (Windows NT 6.1; Win64; x64) AppleWebKit/537.36 (KHTML, like Gecko) Chrome/79.0.3945.130 Safari/537.36",129,"[0.9, 0.5, 0.1]","[0.8, 0.4, 0.2]","[u'blue', u'red', u'black']","[u'left', u'middle', u'right']","[0.8, 0.4, 0.2]","[u'low', u'high', u'medium']","red",50,"middle","high","True","False",480,6150,NA
"AU0KL60G7FCCK","Wed Jan 29 2020 09:33:00 GMT-0500 (Eastern Standard Time)","Wed Jan 29 2020 09:44:34 GMT-0500 (Eastern Standard Time)","Mozilla/5.0 (Windows NT 6.1; Win64; x64) AppleWebKit/537.36 (KHTML, like Gecko) Chrome/79.0.3945.130 Safari/537.36",130,"[0.9, 0.5, 0.1]","[0.8, 0.4, 0.2]","[u'blue', u'red', u'black']","[u'left', u'middle', u'right']","[0.8, 0.4, 0.2]","[u'low', u'high', u'medium']","red",50,"middle","high","True","False",480,6250,NA
"AU0KL60G7FCCK","Wed Jan 29 2020 09:33:00 GMT-0500 (Eastern Standard Time)","Wed Jan 29 2020 09:44:34 GMT-0500 (Eastern Standard Time)","Mozilla/5.0 (Windows NT 6.1; Win64; x64) AppleWebKit/537.36 (KHTML, like Gecko) Chrome/79.0.3945.130 Safari/537.36",131,"[0.9, 0.5, 0.1]","[0.8, 0.4, 0.2]","[u'blue', u'red', u'black']","[u'left', u'middle', u'right']","[0.8, 0.4, 0.2]","[u'low', u'high', u'medium']","red",50,"middle","high","True","False",420,6350,NA
"AU0KL60G7FCCK","Wed Jan 29 2020 09:33:00 GMT-0500 (Eastern Standard Time)","Wed Jan 29 2020 09:44:34 GMT-0500 (Eastern Standard Time)","Mozilla/5.0 (Windows NT 6.1; Win64; x64) AppleWebKit/537.36 (KHTML, like Gecko) Chrome/79.0.3945.130 Safari/537.36",132,"[0.9, 0.5, 0.1]","[0.8, 0.4, 0.2]","[u'blue', u'red', u'black']","[u'left', u'middle', u'right']","[0.8, 0.4, 0.2]","[u'low', u'high', u'medium']","red",50,"middle","high","False","True",388,6300,NA
"AU0KL60G7FCCK","Wed Jan 29 2020 09:33:00 GMT-0500 (Eastern Standard Time)","Wed Jan 29 2020 09:44:34 GMT-0500 (Eastern Standard Time)","Mozilla/5.0 (Windows NT 6.1; Win64; x64) AppleWebKit/537.36 (KHTML, like Gecko) Chrome/79.0.3945.130 Safari/537.36",133,"[0.9, 0.5, 0.1]","[0.8, 0.4, 0.2]","[u'blue', u'red', u'black']","[u'left', u'middle', u'right']","[0.8, 0.4, 0.2]","[u'low', u'medium', u'high']","black",51,"right","high","False","False",402,6250,NA
"AU0KL60G7FCCK","Wed Jan 29 2020 09:33:00 GMT-0500 (Eastern Standard Time)","Wed Jan 29 2020 09:44:34 GMT-0500 (Eastern Standard Time)","Mozilla/5.0 (Windows NT 6.1; Win64; x64) AppleWebKit/537.36 (KHTML, like Gecko) Chrome/79.0.3945.130 Safari/537.36",134,"[0.9, 0.5, 0.1]","[0.8, 0.4, 0.2]","[u'blue', u'red', u'black']","[u'left', u'middle', u'right']","[0.8, 0.4, 0.2]","[u'low', u'medium', u'high']","red",50,"middle","medium","False","False",37,6200,NA
"AU0KL60G7FCCK","Wed Jan 29 2020 09:33:00 GMT-0500 (Eastern Standard Time)","Wed Jan 29 2020 09:44:34 GMT-0500 (Eastern Standard Time)","Mozilla/5.0 (Windows NT 6.1; Win64; x64) AppleWebKit/537.36 (KHTML, like Gecko) Chrome/79.0.3945.130 Safari/537.36",135,"[0.9, 0.5, 0.1]","[0.8, 0.4, 0.2]","[u'blue', u'red', u'black']","[u'left', u'middle', u'right']","[0.8, 0.4, 0.2]","[u'low', u'medium', u'high']","blue",49,"left","low","False","False",608,6150,NA
"AU0KL60G7FCCK","Wed Jan 29 2020 09:33:00 GMT-0500 (Eastern Standard Time)","Wed Jan 29 2020 09:44:34 GMT-0500 (Eastern Standard Time)","Mozilla/5.0 (Windows NT 6.1; Win64; x64) AppleWebKit/537.36 (KHTML, like Gecko) Chrome/79.0.3945.130 Safari/537.36",136,"[0.9, 0.5, 0.1]","[0.8, 0.4, 0.2]","[u'blue', u'red', u'black']","[u'left', u'middle', u'right']","[0.8, 0.4, 0.2]","[u'low', u'medium', u'high']","red",50,"middle","medium","False","False",384,6100,NA
"AU0KL60G7FCCK","Wed Jan 29 2020 09:33:00 GMT-0500 (Eastern Standard Time)","Wed Jan 29 2020 09:44:34 GMT-0500 (Eastern Standard Time)","Mozilla/5.0 (Windows NT 6.1; Win64; x64) AppleWebKit/537.36 (KHTML, like Gecko) Chrome/79.0.3945.130 Safari/537.36",137,"[0.9, 0.5, 0.1]","[0.8, 0.4, 0.2]","[u'blue', u'red', u'black']","[u'left', u'middle', u'right']","[0.8, 0.4, 0.2]","[u'low', u'medium', u'high']","black",51,"right","high","True","False",520,6200,NA
"AU0KL60G7FCCK","Wed Jan 29 2020 09:33:00 GMT-0500 (Eastern Standard Time)","Wed Jan 29 2020 09:44:34 GMT-0500 (Eastern Standard Time)","Mozilla/5.0 (Windows NT 6.1; Win64; x64) AppleWebKit/537.36 (KHTML, like Gecko) Chrome/79.0.3945.130 Safari/537.36",138,"[0.9, 0.5, 0.1]","[0.8, 0.4, 0.2]","[u'blue', u'red', u'black']","[u'left', u'middle', u'right']","[0.8, 0.4, 0.2]","[u'low', u'medium', u'high']","black",51,"right","high","True","False",398,6300,NA
"AU0KL60G7FCCK","Wed Jan 29 2020 09:33:00 GMT-0500 (Eastern Standard Time)","Wed Jan 29 2020 09:44:34 GMT-0500 (Eastern Standard Time)","Mozilla/5.0 (Windows NT 6.1; Win64; x64) AppleWebKit/537.36 (KHTML, like Gecko) Chrome/79.0.3945.130 Safari/537.36",139,"[0.9, 0.5, 0.1]","[0.8, 0.4, 0.2]","[u'blue', u'red', u'black']","[u'left', u'middle', u'right']","[0.8, 0.4, 0.2]","[u'low', u'medium', u'high']","black",51,"right","high","False","False",409,6250,NA
"AU0KL60G7FCCK","Wed Jan 29 2020 09:33:00 GMT-0500 (Eastern Standard Time)","Wed Jan 29 2020 09:44:34 GMT-0500 (Eastern Standard Time)","Mozilla/5.0 (Windows NT 6.1; Win64; x64) AppleWebKit/537.36 (KHTML, like Gecko) Chrome/79.0.3945.130 Safari/537.36",140,"[0.9, 0.5, 0.1]","[0.8, 0.4, 0.2]","[u'blue', u'red', u'black']","[u'left', u'middle', u'right']","[0.8, 0.4, 0.2]","[u'low', u'medium', u'high']","black",51,"right","high","True","False",1049,6350,NA
"AU0KL60G7FCCK","Wed Jan 29 2020 09:33:00 GMT-0500 (Eastern Standard Time)","Wed Jan 29 2020 09:44:34 GMT-0500 (Eastern Standard Time)","Mozilla/5.0 (Windows NT 6.1; Win64; x64) AppleWebKit/537.36 (KHTML, like Gecko) Chrome/79.0.3945.130 Safari/537.36",141,"[0.9, 0.5, 0.1]","[0.8, 0.4, 0.2]","[u'blue', u'red', u'black']","[u'left', u'middle', u'right']","[0.8, 0.4, 0.2]","[u'low', u'medium', u'high']","black",51,"right","high","True","False",505,6450,NA
"AU0KL60G7FCCK","Wed Jan 29 2020 09:33:00 GMT-0500 (Eastern Standard Time)","Wed Jan 29 2020 09:44:34 GMT-0500 (Eastern Standard Time)","Mozilla/5.0 (Windows NT 6.1; Win64; x64) AppleWebKit/537.36 (KHTML, like Gecko) Chrome/79.0.3945.130 Safari/537.36",142,"[0.9, 0.5, 0.1]","[0.8, 0.4, 0.2]","[u'blue', u'red', u'black']","[u'left', u'middle', u'right']","[0.8, 0.4, 0.2]","[u'low', u'medium', u'high']","black",51,"right","high","True","False",101,6550,NA
"AU0KL60G7FCCK","Wed Jan 29 2020 09:33:00 GMT-0500 (Eastern Standard Time)","Wed Jan 29 2020 09:44:34 GMT-0500 (Eastern Standard Time)","Mozilla/5.0 (Windows NT 6.1; Win64; x64) AppleWebKit/537.36 (KHTML, like Gecko) Chrome/79.0.3945.130 Safari/537.36",143,"[0.9, 0.5, 0.1]","[0.8, 0.4, 0.2]","[u'blue', u'red', u'black']","[u'left', u'middle', u'right']","[0.8, 0.4, 0.2]","[u'low', u'medium', u'high']","black",51,"right","high","False","False",411,6500,NA
"AU0KL60G7FCCK","Wed Jan 29 2020 09:33:00 GMT-0500 (Eastern Standard Time)","Wed Jan 29 2020 09:44:34 GMT-0500 (Eastern Standard Time)","Mozilla/5.0 (Windows NT 6.1; Win64; x64) AppleWebKit/537.36 (KHTML, like Gecko) Chrome/79.0.3945.130 Safari/537.36",144,"[0.9, 0.5, 0.1]","[0.8, 0.4, 0.2]","[u'blue', u'red', u'black']","[u'left', u'middle', u'right']","[0.8, 0.4, 0.2]","[u'low', u'medium', u'high']","black",51,"right","high","True","False",569,6600,NA
"AU0KL60G7FCCK","Wed Jan 29 2020 09:33:00 GMT-0500 (Eastern Standard Time)","Wed Jan 29 2020 09:44:34 GMT-0500 (Eastern Standard Time)","Mozilla/5.0 (Windows NT 6.1; Win64; x64) AppleWebKit/537.36 (KHTML, like Gecko) Chrome/79.0.3945.130 Safari/537.36",145,"[0.9, 0.5, 0.1]","[0.8, 0.4, 0.2]","[u'blue', u'red', u'black']","[u'left', u'middle', u'right']","[0.8, 0.4, 0.2]","[u'low', u'medium', u'high']","black",51,"right","high","True","True",345,6700,NA
"AU0KL60G7FCCK","Wed Jan 29 2020 09:33:00 GMT-0500 (Eastern Standard Time)","Wed Jan 29 2020 09:44:34 GMT-0500 (Eastern Standard Time)","Mozilla/5.0 (Windows NT 6.1; Win64; x64) AppleWebKit/537.36 (KHTML, like Gecko) Chrome/79.0.3945.130 Safari/537.36",146,"[0.9, 0.5, 0.1]","[0.8, 0.4, 0.2]","[u'blue', u'red', u'black']","[u'left', u'middle', u'right']","[0.8, 0.4, 0.2]","[u'high', u'medium', u'low']","black",51,"right","low","False","False",382,6650,NA
"AU0KL60G7FCCK","Wed Jan 29 2020 09:33:00 GMT-0500 (Eastern Standard Time)","Wed Jan 29 2020 09:44:34 GMT-0500 (Eastern Standard Time)","Mozilla/5.0 (Windows NT 6.1; Win64; x64) AppleWebKit/537.36 (KHTML, like Gecko) Chrome/79.0.3945.130 Safari/537.36",147,"[0.9, 0.5, 0.1]","[0.8, 0.4, 0.2]","[u'blue', u'red', u'black']","[u'left', u'middle', u'right']","[0.8, 0.4, 0.2]","[u'high', u'medium', u'low']","black",51,"right","low","False","False",676,6600,NA
"AU0KL60G7FCCK","Wed Jan 29 2020 09:33:00 GMT-0500 (Eastern Standard Time)","Wed Jan 29 2020 09:44:34 GMT-0500 (Eastern Standard Time)","Mozilla/5.0 (Windows NT 6.1; Win64; x64) AppleWebKit/537.36 (KHTML, like Gecko) Chrome/79.0.3945.130 Safari/537.36",148,"[0.9, 0.5, 0.1]","[0.8, 0.4, 0.2]","[u'blue', u'red', u'black']","[u'left', u'middle', u'right']","[0.8, 0.4, 0.2]","[u'high', u'medium', u'low']","blue",49,"left","high","True","False",330,6700,NA
"AU0KL60G7FCCK","Wed Jan 29 2020 09:33:00 GMT-0500 (Eastern Standard Time)","Wed Jan 29 2020 09:44:34 GMT-0500 (Eastern Standard Time)","Mozilla/5.0 (Windows NT 6.1; Win64; x64) AppleWebKit/537.36 (KHTML, like Gecko) Chrome/79.0.3945.130 Safari/537.36",149,"[0.9, 0.5, 0.1]","[0.8, 0.4, 0.2]","[u'blue', u'red', u'black']","[u'left', u'middle', u'right']","[0.8, 0.4, 0.2]","[u'high', u'medium', u'low']","blue",49,"left","high","False","False",408,6650,NA
"AU0KL60G7FCCK","Wed Jan 29 2020 09:33:00 GMT-0500 (Eastern Standard Time)","Wed Jan 29 2020 09:44:34 GMT-0500 (Eastern Standard Time)","Mozilla/5.0 (Windows NT 6.1; Win64; x64) AppleWebKit/537.36 (KHTML, like Gecko) Chrome/79.0.3945.130 Safari/537.36",150,"[0.9, 0.5, 0.1]","[0.8, 0.4, 0.2]","[u'blue', u'red', u'black']","[u'left', u'middle', u'right']","[0.8, 0.4, 0.2]","[u'high', u'medium', u'low']","black",51,"right","low","False","False",150,6600,NA
"AU0KL60G7FCCK","Wed Jan 29 2020 09:33:00 GMT-0500 (Eastern Standard Time)","Wed Jan 29 2020 09:44:34 GMT-0500 (Eastern Standard Time)","Mozilla/5.0 (Windows NT 6.1; Win64; x64) AppleWebKit/537.36 (KHTML, like Gecko) Chrome/79.0.3945.130 Safari/537.36",151,"[0.9, 0.5, 0.1]","[0.8, 0.4, 0.2]","[u'blue', u'red', u'black']","[u'left', u'middle', u'right']","[0.8, 0.4, 0.2]","[u'high', u'medium', u'low']","red",50,"middle","medium","True","False",509,6700,NA
"AU0KL60G7FCCK","Wed Jan 29 2020 09:33:00 GMT-0500 (Eastern Standard Time)","Wed Jan 29 2020 09:44:34 GMT-0500 (Eastern Standard Time)","Mozilla/5.0 (Windows NT 6.1; Win64; x64) AppleWebKit/537.36 (KHTML, like Gecko) Chrome/79.0.3945.130 Safari/537.36",152,"[0.9, 0.5, 0.1]","[0.8, 0.4, 0.2]","[u'blue', u'red', u'black']","[u'left', u'middle', u'right']","[0.8, 0.4, 0.2]","[u'high', u'medium', u'low']","red",50,"middle","medium","False","False",404,6650,NA
"AU0KL60G7FCCK","Wed Jan 29 2020 09:33:00 GMT-0500 (Eastern Standard Time)","Wed Jan 29 2020 09:44:34 GMT-0500 (Eastern Standard Time)","Mozilla/5.0 (Windows NT 6.1; Win64; x64) AppleWebKit/537.36 (KHTML, like Gecko) Chrome/79.0.3945.130 Safari/537.36",153,"[0.9, 0.5, 0.1]","[0.8, 0.4, 0.2]","[u'blue', u'red', u'black']","[u'left', u'middle', u'right']","[0.8, 0.4, 0.2]","[u'high', u'medium', u'low']","red",50,"middle","medium","True","False",481,6750,NA
"AU0KL60G7FCCK","Wed Jan 29 2020 09:33:00 GMT-0500 (Eastern Standard Time)","Wed Jan 29 2020 09:44:34 GMT-0500 (Eastern Standard Time)","Mozilla/5.0 (Windows NT 6.1; Win64; x64) AppleWebKit/537.36 (KHTML, like Gecko) Chrome/79.0.3945.130 Safari/537.36",154,"[0.9, 0.5, 0.1]","[0.8, 0.4, 0.2]","[u'blue', u'red', u'black']","[u'left', u'middle', u'right']","[0.8, 0.4, 0.2]","[u'high', u'medium', u'low']","red",50,"middle","medium","False","False",395,6700,NA
"AU0KL60G7FCCK","Wed Jan 29 2020 09:33:00 GMT-0500 (Eastern Standard Time)","Wed Jan 29 2020 09:44:34 GMT-0500 (Eastern Standard Time)","Mozilla/5.0 (Windows NT 6.1; Win64; x64) AppleWebKit/537.36 (KHTML, like Gecko) Chrome/79.0.3945.130 Safari/537.36",155,"[0.9, 0.5, 0.1]","[0.8, 0.4, 0.2]","[u'blue', u'red', u'black']","[u'left', u'middle', u'right']","[0.8, 0.4, 0.2]","[u'high', u'medium', u'low']","red",50,"middle","medium","True","False",448,6800,NA
"AU0KL60G7FCCK","Wed Jan 29 2020 09:33:00 GMT-0500 (Eastern Standard Time)","Wed Jan 29 2020 09:44:34 GMT-0500 (Eastern Standard Time)","Mozilla/5.0 (Windows NT 6.1; Win64; x64) AppleWebKit/537.36 (KHTML, like Gecko) Chrome/79.0.3945.130 Safari/537.36",156,"[0.9, 0.5, 0.1]","[0.8, 0.4, 0.2]","[u'blue', u'red', u'black']","[u'left', u'middle', u'right']","[0.8, 0.4, 0.2]","[u'high', u'medium', u'low']","red",50,"middle","medium","True","False",533,6900,NA
"AU0KL60G7FCCK","Wed Jan 29 2020 09:33:00 GMT-0500 (Eastern Standard Time)","Wed Jan 29 2020 09:44:34 GMT-0500 (Eastern Standard Time)","Mozilla/5.0 (Windows NT 6.1; Win64; x64) AppleWebKit/537.36 (KHTML, like Gecko) Chrome/79.0.3945.130 Safari/537.36",157,"[0.9, 0.5, 0.1]","[0.8, 0.4, 0.2]","[u'blue', u'red', u'black']","[u'left', u'middle', u'right']","[0.8, 0.4, 0.2]","[u'high', u'medium', u'low']","red",50,"middle","medium","False","False",466,6850,NA
"AU0KL60G7FCCK","Wed Jan 29 2020 09:33:00 GMT-0500 (Eastern Standard Time)","Wed Jan 29 2020 09:44:34 GMT-0500 (Eastern Standard Time)","Mozilla/5.0 (Windows NT 6.1; Win64; x64) AppleWebKit/537.36 (KHTML, like Gecko) Chrome/79.0.3945.130 Safari/537.36",158,"[0.9, 0.5, 0.1]","[0.8, 0.4, 0.2]","[u'blue', u'red', u'black']","[u'left', u'middle', u'right']","[0.8, 0.4, 0.2]","[u'high', u'medium', u'low']","red",50,"middle","medium","False","False",600,6800,NA
"AU0KL60G7FCCK","Wed Jan 29 2020 09:33:00 GMT-0500 (Eastern Standard Time)","Wed Jan 29 2020 09:44:34 GMT-0500 (Eastern Standard Time)","Mozilla/5.0 (Windows NT 6.1; Win64; x64) AppleWebKit/537.36 (KHTML, like Gecko) Chrome/79.0.3945.130 Safari/537.36",159,"[0.9, 0.5, 0.1]","[0.8, 0.4, 0.2]","[u'blue', u'red', u'black']","[u'left', u'middle', u'right']","[0.8, 0.4, 0.2]","[u'high', u'medium', u'low']","black",51,"right","low","True","False",161,6900,NA
"AU0KL60G7FCCK","Wed Jan 29 2020 09:33:00 GMT-0500 (Eastern Standard Time)","Wed Jan 29 2020 09:44:34 GMT-0500 (Eastern Standard Time)","Mozilla/5.0 (Windows NT 6.1; Win64; x64) AppleWebKit/537.36 (KHTML, like Gecko) Chrome/79.0.3945.130 Safari/537.36",160,"[0.9, 0.5, 0.1]","[0.8, 0.4, 0.2]","[u'blue', u'red', u'black']","[u'left', u'middle', u'right']","[0.8, 0.4, 0.2]","[u'high', u'medium', u'low']","black",51,"right","low","True","False",419,7000,NA
