"src_subject_id","start_time","end_time","browser","index","first_half_probabilities","second_half_probabilities","deck_color","deck_position","deck_probabilities","deck_contingencies","response_color","key_press","response_position","response_probability","reward_type","trial_type","rt","reward_tally","exclusion_reason"
"A2J8KKPCKD5G33","Thu Sep 24 2020 01:35:06 GMT+0800 (China Standard Time)","Thu Sep 24 2020 01:50:34 GMT+0800 (China Standard Time)","Mozilla/5.0 (Windows NT 6.3; Win64; x64) AppleWebKit/537.36 (KHTML, like Gecko) Chrome/83.0.4103.116 Safari/537.36",1,"[0.9, 0.5, 0.1]","[0.8, 0.4, 0.2]","[u'black', u'blue', u'red']","[u'left', u'middle', u'right']","[0.9, 0.5, 0.1]","[u'low', u'high', u'medium']","blue",50,"middle","high","True","False",1691,100,NA
"A2J8KKPCKD5G33","Thu Sep 24 2020 01:35:06 GMT+0800 (China Standard Time)","Thu Sep 24 2020 01:50:34 GMT+0800 (China Standard Time)","Mozilla/5.0 (Windows NT 6.3; Win64; x64) AppleWebKit/537.36 (KHTML, like Gecko) Chrome/83.0.4103.116 Safari/537.36",2,"[0.9, 0.5, 0.1]","[0.8, 0.4, 0.2]","[u'black', u'blue', u'red']","[u'left', u'middle', u'right']","[0.9, 0.5, 0.1]","[u'low', u'high', u'medium']","black",49,"left","low","False","False",1326,50,NA
"A2J8KKPCKD5G33","Thu Sep 24 2020 01:35:06 GMT+0800 (China Standard Time)","Thu Sep 24 2020 01:50:34 GMT+0800 (China Standard Time)","Mozilla/5.0 (Windows NT 6.3; Win64; x64) AppleWebKit/537.36 (KHTML, like Gecko) Chrome/83.0.4103.116 Safari/537.36",3,"[0.9, 0.5, 0.1]","[0.8, 0.4, 0.2]","[u'black', u'blue', u'red']","[u'left', u'middle', u'right']","[0.9, 0.5, 0.1]","[u'low', u'high', u'medium']","blue",50,"middle","high","True","False",909,150,NA
"A2J8KKPCKD5G33","Thu Sep 24 2020 01:35:06 GMT+0800 (China Standard Time)","Thu Sep 24 2020 01:50:34 GMT+0800 (China Standard Time)","Mozilla/5.0 (Windows NT 6.3; Win64; x64) AppleWebKit/537.36 (KHTML, like Gecko) Chrome/83.0.4103.116 Safari/537.36",4,"[0.9, 0.5, 0.1]","[0.8, 0.4, 0.2]","[u'black', u'blue', u'red']","[u'left', u'middle', u'right']","[0.9, 0.5, 0.1]","[u'low', u'high', u'medium']","blue",50,"middle","high","True","False",860,250,NA
"A2J8KKPCKD5G33","Thu Sep 24 2020 01:35:06 GMT+0800 (China Standard Time)","Thu Sep 24 2020 01:50:34 GMT+0800 (China Standard Time)","Mozilla/5.0 (Windows NT 6.3; Win64; x64) AppleWebKit/537.36 (KHTML, like Gecko) Chrome/83.0.4103.116 Safari/537.36",5,"[0.9, 0.5, 0.1]","[0.8, 0.4, 0.2]","[u'black', u'blue', u'red']","[u'left', u'middle', u'right']","[0.9, 0.5, 0.1]","[u'low', u'high', u'medium']","blue",50,"middle","high","True","False",950,350,NA
"A2J8KKPCKD5G33","Thu Sep 24 2020 01:35:06 GMT+0800 (China Standard Time)","Thu Sep 24 2020 01:50:34 GMT+0800 (China Standard Time)","Mozilla/5.0 (Windows NT 6.3; Win64; x64) AppleWebKit/537.36 (KHTML, like Gecko) Chrome/83.0.4103.116 Safari/537.36",6,"[0.9, 0.5, 0.1]","[0.8, 0.4, 0.2]","[u'black', u'blue', u'red']","[u'left', u'middle', u'right']","[0.9, 0.5, 0.1]","[u'low', u'high', u'medium']","blue",50,"middle","high","True","False",777,450,NA
"A2J8KKPCKD5G33","Thu Sep 24 2020 01:35:06 GMT+0800 (China Standard Time)","Thu Sep 24 2020 01:50:34 GMT+0800 (China Standard Time)","Mozilla/5.0 (Windows NT 6.3; Win64; x64) AppleWebKit/537.36 (KHTML, like Gecko) Chrome/83.0.4103.116 Safari/537.36",7,"[0.9, 0.5, 0.1]","[0.8, 0.4, 0.2]","[u'black', u'blue', u'red']","[u'left', u'middle', u'right']","[0.9, 0.5, 0.1]","[u'low', u'high', u'medium']","blue",50,"middle","high","True","False",784,550,NA
"A2J8KKPCKD5G33","Thu Sep 24 2020 01:35:06 GMT+0800 (China Standard Time)","Thu Sep 24 2020 01:50:34 GMT+0800 (China Standard Time)","Mozilla/5.0 (Windows NT 6.3; Win64; x64) AppleWebKit/537.36 (KHTML, like Gecko) Chrome/83.0.4103.116 Safari/537.36",8,"[0.9, 0.5, 0.1]","[0.8, 0.4, 0.2]","[u'black', u'blue', u'red']","[u'left', u'middle', u'right']","[0.9, 0.5, 0.1]","[u'low', u'high', u'medium']","blue",50,"middle","high","True","False",1777,650,NA
"A2J8KKPCKD5G33","Thu Sep 24 2020 01:35:06 GMT+0800 (China Standard Time)","Thu Sep 24 2020 01:50:34 GMT+0800 (China Standard Time)","Mozilla/5.0 (Windows NT 6.3; Win64; x64) AppleWebKit/537.36 (KHTML, like Gecko) Chrome/83.0.4103.116 Safari/537.36",9,"[0.9, 0.5, 0.1]","[0.8, 0.4, 0.2]","[u'black', u'blue', u'red']","[u'left', u'middle', u'right']","[0.9, 0.5, 0.1]","[u'low', u'high', u'medium']","blue",50,"middle","high","True","False",818,750,NA
"A2J8KKPCKD5G33","Thu Sep 24 2020 01:35:06 GMT+0800 (China Standard Time)","Thu Sep 24 2020 01:50:34 GMT+0800 (China Standard Time)","Mozilla/5.0 (Windows NT 6.3; Win64; x64) AppleWebKit/537.36 (KHTML, like Gecko) Chrome/83.0.4103.116 Safari/537.36",10,"[0.9, 0.5, 0.1]","[0.8, 0.4, 0.2]","[u'black', u'blue', u'red']","[u'left', u'middle', u'right']","[0.9, 0.5, 0.1]","[u'low', u'high', u'medium']","blue",50,"middle","high","True","True",879,850,NA
"A2J8KKPCKD5G33","Thu Sep 24 2020 01:35:06 GMT+0800 (China Standard Time)","Thu Sep 24 2020 01:50:34 GMT+0800 (China Standard Time)","Mozilla/5.0 (Windows NT 6.3; Win64; x64) AppleWebKit/537.36 (KHTML, like Gecko) Chrome/83.0.4103.116 Safari/537.36",11,"[0.9, 0.5, 0.1]","[0.8, 0.4, 0.2]","[u'black', u'blue', u'red']","[u'left', u'middle', u'right']","[0.9, 0.5, 0.1]","[u'medium', u'low', u'high']","blue",50,"middle","low","False","False",2158,800,NA
"A2J8KKPCKD5G33","Thu Sep 24 2020 01:35:06 GMT+0800 (China Standard Time)","Thu Sep 24 2020 01:50:34 GMT+0800 (China Standard Time)","Mozilla/5.0 (Windows NT 6.3; Win64; x64) AppleWebKit/537.36 (KHTML, like Gecko) Chrome/83.0.4103.116 Safari/537.36",12,"[0.9, 0.5, 0.1]","[0.8, 0.4, 0.2]","[u'black', u'blue', u'red']","[u'left', u'middle', u'right']","[0.9, 0.5, 0.1]","[u'medium', u'low', u'high']","black",49,"left","medium","True","False",1379,900,NA
"A2J8KKPCKD5G33","Thu Sep 24 2020 01:35:06 GMT+0800 (China Standard Time)","Thu Sep 24 2020 01:50:34 GMT+0800 (China Standard Time)","Mozilla/5.0 (Windows NT 6.3; Win64; x64) AppleWebKit/537.36 (KHTML, like Gecko) Chrome/83.0.4103.116 Safari/537.36",13,"[0.9, 0.5, 0.1]","[0.8, 0.4, 0.2]","[u'black', u'blue', u'red']","[u'left', u'middle', u'right']","[0.9, 0.5, 0.1]","[u'medium', u'low', u'high']","black",49,"left","medium","False","False",857,850,NA
"A2J8KKPCKD5G33","Thu Sep 24 2020 01:35:06 GMT+0800 (China Standard Time)","Thu Sep 24 2020 01:50:34 GMT+0800 (China Standard Time)","Mozilla/5.0 (Windows NT 6.3; Win64; x64) AppleWebKit/537.36 (KHTML, like Gecko) Chrome/83.0.4103.116 Safari/537.36",14,"[0.9, 0.5, 0.1]","[0.8, 0.4, 0.2]","[u'black', u'blue', u'red']","[u'left', u'middle', u'right']","[0.9, 0.5, 0.1]","[u'medium', u'low', u'high']","blue",50,"middle","low","False","False",712,800,NA
"A2J8KKPCKD5G33","Thu Sep 24 2020 01:35:06 GMT+0800 (China Standard Time)","Thu Sep 24 2020 01:50:34 GMT+0800 (China Standard Time)","Mozilla/5.0 (Windows NT 6.3; Win64; x64) AppleWebKit/537.36 (KHTML, like Gecko) Chrome/83.0.4103.116 Safari/537.36",15,"[0.9, 0.5, 0.1]","[0.8, 0.4, 0.2]","[u'black', u'blue', u'red']","[u'left', u'middle', u'right']","[0.9, 0.5, 0.1]","[u'medium', u'low', u'high']","red",51,"right","high","True","False",1565,900,NA
"A2J8KKPCKD5G33","Thu Sep 24 2020 01:35:06 GMT+0800 (China Standard Time)","Thu Sep 24 2020 01:50:34 GMT+0800 (China Standard Time)","Mozilla/5.0 (Windows NT 6.3; Win64; x64) AppleWebKit/537.36 (KHTML, like Gecko) Chrome/83.0.4103.116 Safari/537.36",16,"[0.9, 0.5, 0.1]","[0.8, 0.4, 0.2]","[u'black', u'blue', u'red']","[u'left', u'middle', u'right']","[0.9, 0.5, 0.1]","[u'medium', u'low', u'high']","red",51,"right","high","True","False",1101,1000,NA
"A2J8KKPCKD5G33","Thu Sep 24 2020 01:35:06 GMT+0800 (China Standard Time)","Thu Sep 24 2020 01:50:34 GMT+0800 (China Standard Time)","Mozilla/5.0 (Windows NT 6.3; Win64; x64) AppleWebKit/537.36 (KHTML, like Gecko) Chrome/83.0.4103.116 Safari/537.36",17,"[0.9, 0.5, 0.1]","[0.8, 0.4, 0.2]","[u'black', u'blue', u'red']","[u'left', u'middle', u'right']","[0.9, 0.5, 0.1]","[u'medium', u'low', u'high']","red",51,"right","high","True","False",1069,1100,NA
"A2J8KKPCKD5G33","Thu Sep 24 2020 01:35:06 GMT+0800 (China Standard Time)","Thu Sep 24 2020 01:50:34 GMT+0800 (China Standard Time)","Mozilla/5.0 (Windows NT 6.3; Win64; x64) AppleWebKit/537.36 (KHTML, like Gecko) Chrome/83.0.4103.116 Safari/537.36",18,"[0.9, 0.5, 0.1]","[0.8, 0.4, 0.2]","[u'black', u'blue', u'red']","[u'left', u'middle', u'right']","[0.9, 0.5, 0.1]","[u'medium', u'low', u'high']","red",51,"right","high","False","False",1044,1050,NA
"A2J8KKPCKD5G33","Thu Sep 24 2020 01:35:06 GMT+0800 (China Standard Time)","Thu Sep 24 2020 01:50:34 GMT+0800 (China Standard Time)","Mozilla/5.0 (Windows NT 6.3; Win64; x64) AppleWebKit/537.36 (KHTML, like Gecko) Chrome/83.0.4103.116 Safari/537.36",19,"[0.9, 0.5, 0.1]","[0.8, 0.4, 0.2]","[u'black', u'blue', u'red']","[u'left', u'middle', u'right']","[0.9, 0.5, 0.1]","[u'medium', u'low', u'high']","blue",50,"middle","low","False","False",2754,1000,NA
"A2J8KKPCKD5G33","Thu Sep 24 2020 01:35:06 GMT+0800 (China Standard Time)","Thu Sep 24 2020 01:50:34 GMT+0800 (China Standard Time)","Mozilla/5.0 (Windows NT 6.3; Win64; x64) AppleWebKit/537.36 (KHTML, like Gecko) Chrome/83.0.4103.116 Safari/537.36",20,"[0.9, 0.5, 0.1]","[0.8, 0.4, 0.2]","[u'black', u'blue', u'red']","[u'left', u'middle', u'right']","[0.9, 0.5, 0.1]","[u'medium', u'low', u'high']","black",49,"left","medium","True","False",1082,1100,NA
"A2J8KKPCKD5G33","Thu Sep 24 2020 01:35:06 GMT+0800 (China Standard Time)","Thu Sep 24 2020 01:50:34 GMT+0800 (China Standard Time)","Mozilla/5.0 (Windows NT 6.3; Win64; x64) AppleWebKit/537.36 (KHTML, like Gecko) Chrome/83.0.4103.116 Safari/537.36",21,"[0.9, 0.5, 0.1]","[0.8, 0.4, 0.2]","[u'black', u'blue', u'red']","[u'left', u'middle', u'right']","[0.9, 0.5, 0.1]","[u'medium', u'low', u'high']","black",49,"left","medium","True","False",737,1200,NA
"A2J8KKPCKD5G33","Thu Sep 24 2020 01:35:06 GMT+0800 (China Standard Time)","Thu Sep 24 2020 01:50:34 GMT+0800 (China Standard Time)","Mozilla/5.0 (Windows NT 6.3; Win64; x64) AppleWebKit/537.36 (KHTML, like Gecko) Chrome/83.0.4103.116 Safari/537.36",22,"[0.9, 0.5, 0.1]","[0.8, 0.4, 0.2]","[u'black', u'blue', u'red']","[u'left', u'middle', u'right']","[0.9, 0.5, 0.1]","[u'medium', u'low', u'high']","black",49,"left","medium","False","False",6437,1150,NA
"A2J8KKPCKD5G33","Thu Sep 24 2020 01:35:06 GMT+0800 (China Standard Time)","Thu Sep 24 2020 01:50:34 GMT+0800 (China Standard Time)","Mozilla/5.0 (Windows NT 6.3; Win64; x64) AppleWebKit/537.36 (KHTML, like Gecko) Chrome/83.0.4103.116 Safari/537.36",23,"[0.9, 0.5, 0.1]","[0.8, 0.4, 0.2]","[u'black', u'blue', u'red']","[u'left', u'middle', u'right']","[0.9, 0.5, 0.1]","[u'medium', u'low', u'high']","blue",50,"middle","low","False","False",766,1100,NA
"A2J8KKPCKD5G33","Thu Sep 24 2020 01:35:06 GMT+0800 (China Standard Time)","Thu Sep 24 2020 01:50:34 GMT+0800 (China Standard Time)","Mozilla/5.0 (Windows NT 6.3; Win64; x64) AppleWebKit/537.36 (KHTML, like Gecko) Chrome/83.0.4103.116 Safari/537.36",24,"[0.9, 0.5, 0.1]","[0.8, 0.4, 0.2]","[u'black', u'blue', u'red']","[u'left', u'middle', u'right']","[0.9, 0.5, 0.1]","[u'medium', u'low', u'high']","red",51,"right","high","True","False",729,1200,NA
"A2J8KKPCKD5G33","Thu Sep 24 2020 01:35:06 GMT+0800 (China Standard Time)","Thu Sep 24 2020 01:50:34 GMT+0800 (China Standard Time)","Mozilla/5.0 (Windows NT 6.3; Win64; x64) AppleWebKit/537.36 (KHTML, like Gecko) Chrome/83.0.4103.116 Safari/537.36",25,"[0.9, 0.5, 0.1]","[0.8, 0.4, 0.2]","[u'black', u'blue', u'red']","[u'left', u'middle', u'right']","[0.9, 0.5, 0.1]","[u'medium', u'low', u'high']","red",51,"right","high","True","False",677,1300,NA
"A2J8KKPCKD5G33","Thu Sep 24 2020 01:35:06 GMT+0800 (China Standard Time)","Thu Sep 24 2020 01:50:34 GMT+0800 (China Standard Time)","Mozilla/5.0 (Windows NT 6.3; Win64; x64) AppleWebKit/537.36 (KHTML, like Gecko) Chrome/83.0.4103.116 Safari/537.36",26,"[0.9, 0.5, 0.1]","[0.8, 0.4, 0.2]","[u'black', u'blue', u'red']","[u'left', u'middle', u'right']","[0.9, 0.5, 0.1]","[u'medium', u'low', u'high']","red",51,"right","high","True","False",690,1400,NA
"A2J8KKPCKD5G33","Thu Sep 24 2020 01:35:06 GMT+0800 (China Standard Time)","Thu Sep 24 2020 01:50:34 GMT+0800 (China Standard Time)","Mozilla/5.0 (Windows NT 6.3; Win64; x64) AppleWebKit/537.36 (KHTML, like Gecko) Chrome/83.0.4103.116 Safari/537.36",27,"[0.9, 0.5, 0.1]","[0.8, 0.4, 0.2]","[u'black', u'blue', u'red']","[u'left', u'middle', u'right']","[0.9, 0.5, 0.1]","[u'medium', u'low', u'high']","red",51,"right","high","True","False",642,1500,NA
"A2J8KKPCKD5G33","Thu Sep 24 2020 01:35:06 GMT+0800 (China Standard Time)","Thu Sep 24 2020 01:50:34 GMT+0800 (China Standard Time)","Mozilla/5.0 (Windows NT 6.3; Win64; x64) AppleWebKit/537.36 (KHTML, like Gecko) Chrome/83.0.4103.116 Safari/537.36",28,"[0.9, 0.5, 0.1]","[0.8, 0.4, 0.2]","[u'black', u'blue', u'red']","[u'left', u'middle', u'right']","[0.9, 0.5, 0.1]","[u'medium', u'low', u'high']","red",51,"right","high","True","False",1227,1600,NA
"A2J8KKPCKD5G33","Thu Sep 24 2020 01:35:06 GMT+0800 (China Standard Time)","Thu Sep 24 2020 01:50:34 GMT+0800 (China Standard Time)","Mozilla/5.0 (Windows NT 6.3; Win64; x64) AppleWebKit/537.36 (KHTML, like Gecko) Chrome/83.0.4103.116 Safari/537.36",29,"[0.9, 0.5, 0.1]","[0.8, 0.4, 0.2]","[u'black', u'blue', u'red']","[u'left', u'middle', u'right']","[0.9, 0.5, 0.1]","[u'medium', u'low', u'high']","black",49,"left","medium","False","False",1490,1550,NA
"A2J8KKPCKD5G33","Thu Sep 24 2020 01:35:06 GMT+0800 (China Standard Time)","Thu Sep 24 2020 01:50:34 GMT+0800 (China Standard Time)","Mozilla/5.0 (Windows NT 6.3; Win64; x64) AppleWebKit/537.36 (KHTML, like Gecko) Chrome/83.0.4103.116 Safari/537.36",30,"[0.9, 0.5, 0.1]","[0.8, 0.4, 0.2]","[u'black', u'blue', u'red']","[u'left', u'middle', u'right']","[0.9, 0.5, 0.1]","[u'medium', u'low', u'high']","red",51,"right","high","True","False",769,1650,NA
"A2J8KKPCKD5G33","Thu Sep 24 2020 01:35:06 GMT+0800 (China Standard Time)","Thu Sep 24 2020 01:50:34 GMT+0800 (China Standard Time)","Mozilla/5.0 (Windows NT 6.3; Win64; x64) AppleWebKit/537.36 (KHTML, like Gecko) Chrome/83.0.4103.116 Safari/537.36",31,"[0.9, 0.5, 0.1]","[0.8, 0.4, 0.2]","[u'black', u'blue', u'red']","[u'left', u'middle', u'right']","[0.9, 0.5, 0.1]","[u'medium', u'low', u'high']","red",51,"right","high","True","False",742,1750,NA
"A2J8KKPCKD5G33","Thu Sep 24 2020 01:35:06 GMT+0800 (China Standard Time)","Thu Sep 24 2020 01:50:34 GMT+0800 (China Standard Time)","Mozilla/5.0 (Windows NT 6.3; Win64; x64) AppleWebKit/537.36 (KHTML, like Gecko) Chrome/83.0.4103.116 Safari/537.36",32,"[0.9, 0.5, 0.1]","[0.8, 0.4, 0.2]","[u'black', u'blue', u'red']","[u'left', u'middle', u'right']","[0.9, 0.5, 0.1]","[u'medium', u'low', u'high']","red",51,"right","high","True","False",875,1850,NA
"A2J8KKPCKD5G33","Thu Sep 24 2020 01:35:06 GMT+0800 (China Standard Time)","Thu Sep 24 2020 01:50:34 GMT+0800 (China Standard Time)","Mozilla/5.0 (Windows NT 6.3; Win64; x64) AppleWebKit/537.36 (KHTML, like Gecko) Chrome/83.0.4103.116 Safari/537.36",33,"[0.9, 0.5, 0.1]","[0.8, 0.4, 0.2]","[u'black', u'blue', u'red']","[u'left', u'middle', u'right']","[0.9, 0.5, 0.1]","[u'medium', u'low', u'high']","red",51,"right","high","True","True",879,1950,NA
"A2J8KKPCKD5G33","Thu Sep 24 2020 01:35:06 GMT+0800 (China Standard Time)","Thu Sep 24 2020 01:50:34 GMT+0800 (China Standard Time)","Mozilla/5.0 (Windows NT 6.3; Win64; x64) AppleWebKit/537.36 (KHTML, like Gecko) Chrome/83.0.4103.116 Safari/537.36",34,"[0.9, 0.5, 0.1]","[0.8, 0.4, 0.2]","[u'black', u'blue', u'red']","[u'left', u'middle', u'right']","[0.9, 0.5, 0.1]","[u'medium', u'high', u'low']","red",51,"right","low","False","False",908,1900,NA
"A2J8KKPCKD5G33","Thu Sep 24 2020 01:35:06 GMT+0800 (China Standard Time)","Thu Sep 24 2020 01:50:34 GMT+0800 (China Standard Time)","Mozilla/5.0 (Windows NT 6.3; Win64; x64) AppleWebKit/537.36 (KHTML, like Gecko) Chrome/83.0.4103.116 Safari/537.36",35,"[0.9, 0.5, 0.1]","[0.8, 0.4, 0.2]","[u'black', u'blue', u'red']","[u'left', u'middle', u'right']","[0.9, 0.5, 0.1]","[u'medium', u'high', u'low']","black",49,"left","medium","True","False",826,2000,NA
"A2J8KKPCKD5G33","Thu Sep 24 2020 01:35:06 GMT+0800 (China Standard Time)","Thu Sep 24 2020 01:50:34 GMT+0800 (China Standard Time)","Mozilla/5.0 (Windows NT 6.3; Win64; x64) AppleWebKit/537.36 (KHTML, like Gecko) Chrome/83.0.4103.116 Safari/537.36",36,"[0.9, 0.5, 0.1]","[0.8, 0.4, 0.2]","[u'black', u'blue', u'red']","[u'left', u'middle', u'right']","[0.9, 0.5, 0.1]","[u'medium', u'high', u'low']","black",49,"left","medium","True","False",1038,2100,NA
"A2J8KKPCKD5G33","Thu Sep 24 2020 01:35:06 GMT+0800 (China Standard Time)","Thu Sep 24 2020 01:50:34 GMT+0800 (China Standard Time)","Mozilla/5.0 (Windows NT 6.3; Win64; x64) AppleWebKit/537.36 (KHTML, like Gecko) Chrome/83.0.4103.116 Safari/537.36",37,"[0.9, 0.5, 0.1]","[0.8, 0.4, 0.2]","[u'black', u'blue', u'red']","[u'left', u'middle', u'right']","[0.9, 0.5, 0.1]","[u'medium', u'high', u'low']","black",49,"left","medium","False","False",917,2050,NA
"A2J8KKPCKD5G33","Thu Sep 24 2020 01:35:06 GMT+0800 (China Standard Time)","Thu Sep 24 2020 01:50:34 GMT+0800 (China Standard Time)","Mozilla/5.0 (Windows NT 6.3; Win64; x64) AppleWebKit/537.36 (KHTML, like Gecko) Chrome/83.0.4103.116 Safari/537.36",38,"[0.9, 0.5, 0.1]","[0.8, 0.4, 0.2]","[u'black', u'blue', u'red']","[u'left', u'middle', u'right']","[0.9, 0.5, 0.1]","[u'medium', u'high', u'low']","red",51,"right","low","False","False",1320,2000,NA
"A2J8KKPCKD5G33","Thu Sep 24 2020 01:35:06 GMT+0800 (China Standard Time)","Thu Sep 24 2020 01:50:34 GMT+0800 (China Standard Time)","Mozilla/5.0 (Windows NT 6.3; Win64; x64) AppleWebKit/537.36 (KHTML, like Gecko) Chrome/83.0.4103.116 Safari/537.36",39,"[0.9, 0.5, 0.1]","[0.8, 0.4, 0.2]","[u'black', u'blue', u'red']","[u'left', u'middle', u'right']","[0.9, 0.5, 0.1]","[u'medium', u'high', u'low']","blue",50,"middle","high","True","False",786,2100,NA
"A2J8KKPCKD5G33","Thu Sep 24 2020 01:35:06 GMT+0800 (China Standard Time)","Thu Sep 24 2020 01:50:34 GMT+0800 (China Standard Time)","Mozilla/5.0 (Windows NT 6.3; Win64; x64) AppleWebKit/537.36 (KHTML, like Gecko) Chrome/83.0.4103.116 Safari/537.36",40,"[0.9, 0.5, 0.1]","[0.8, 0.4, 0.2]","[u'black', u'blue', u'red']","[u'left', u'middle', u'right']","[0.9, 0.5, 0.1]","[u'medium', u'high', u'low']","blue",50,"middle","high","True","False",710,2200,NA
"A2J8KKPCKD5G33","Thu Sep 24 2020 01:35:06 GMT+0800 (China Standard Time)","Thu Sep 24 2020 01:50:34 GMT+0800 (China Standard Time)","Mozilla/5.0 (Windows NT 6.3; Win64; x64) AppleWebKit/537.36 (KHTML, like Gecko) Chrome/83.0.4103.116 Safari/537.36",41,"[0.9, 0.5, 0.1]","[0.8, 0.4, 0.2]","[u'black', u'blue', u'red']","[u'left', u'middle', u'right']","[0.9, 0.5, 0.1]","[u'low', u'medium', u'high']","blue",50,"middle","medium","True","False",1896,2300,NA
"A2J8KKPCKD5G33","Thu Sep 24 2020 01:35:06 GMT+0800 (China Standard Time)","Thu Sep 24 2020 01:50:34 GMT+0800 (China Standard Time)","Mozilla/5.0 (Windows NT 6.3; Win64; x64) AppleWebKit/537.36 (KHTML, like Gecko) Chrome/83.0.4103.116 Safari/537.36",42,"[0.9, 0.5, 0.1]","[0.8, 0.4, 0.2]","[u'black', u'blue', u'red']","[u'left', u'middle', u'right']","[0.9, 0.5, 0.1]","[u'low', u'medium', u'high']","blue",50,"middle","medium","True","False",187,2400,NA
"A2J8KKPCKD5G33","Thu Sep 24 2020 01:35:06 GMT+0800 (China Standard Time)","Thu Sep 24 2020 01:50:34 GMT+0800 (China Standard Time)","Mozilla/5.0 (Windows NT 6.3; Win64; x64) AppleWebKit/537.36 (KHTML, like Gecko) Chrome/83.0.4103.116 Safari/537.36",43,"[0.9, 0.5, 0.1]","[0.8, 0.4, 0.2]","[u'black', u'blue', u'red']","[u'left', u'middle', u'right']","[0.9, 0.5, 0.1]","[u'low', u'medium', u'high']","blue",50,"middle","medium","False","False",858,2350,NA
"A2J8KKPCKD5G33","Thu Sep 24 2020 01:35:06 GMT+0800 (China Standard Time)","Thu Sep 24 2020 01:50:34 GMT+0800 (China Standard Time)","Mozilla/5.0 (Windows NT 6.3; Win64; x64) AppleWebKit/537.36 (KHTML, like Gecko) Chrome/83.0.4103.116 Safari/537.36",44,"[0.9, 0.5, 0.1]","[0.8, 0.4, 0.2]","[u'black', u'blue', u'red']","[u'left', u'middle', u'right']","[0.9, 0.5, 0.1]","[u'low', u'medium', u'high']","red",51,"right","high","False","False",1129,2300,NA
"A2J8KKPCKD5G33","Thu Sep 24 2020 01:35:06 GMT+0800 (China Standard Time)","Thu Sep 24 2020 01:50:34 GMT+0800 (China Standard Time)","Mozilla/5.0 (Windows NT 6.3; Win64; x64) AppleWebKit/537.36 (KHTML, like Gecko) Chrome/83.0.4103.116 Safari/537.36",45,"[0.9, 0.5, 0.1]","[0.8, 0.4, 0.2]","[u'black', u'blue', u'red']","[u'left', u'middle', u'right']","[0.9, 0.5, 0.1]","[u'low', u'medium', u'high']","black",49,"left","low","False","False",648,2250,NA
"A2J8KKPCKD5G33","Thu Sep 24 2020 01:35:06 GMT+0800 (China Standard Time)","Thu Sep 24 2020 01:50:34 GMT+0800 (China Standard Time)","Mozilla/5.0 (Windows NT 6.3; Win64; x64) AppleWebKit/537.36 (KHTML, like Gecko) Chrome/83.0.4103.116 Safari/537.36",46,"[0.9, 0.5, 0.1]","[0.8, 0.4, 0.2]","[u'black', u'blue', u'red']","[u'left', u'middle', u'right']","[0.9, 0.5, 0.1]","[u'low', u'medium', u'high']","blue",50,"middle","medium","False","False",429,2200,NA
"A2J8KKPCKD5G33","Thu Sep 24 2020 01:35:06 GMT+0800 (China Standard Time)","Thu Sep 24 2020 01:50:34 GMT+0800 (China Standard Time)","Mozilla/5.0 (Windows NT 6.3; Win64; x64) AppleWebKit/537.36 (KHTML, like Gecko) Chrome/83.0.4103.116 Safari/537.36",47,"[0.9, 0.5, 0.1]","[0.8, 0.4, 0.2]","[u'black', u'blue', u'red']","[u'left', u'middle', u'right']","[0.9, 0.5, 0.1]","[u'low', u'medium', u'high']","red",51,"right","high","True","False",493,2300,NA
"A2J8KKPCKD5G33","Thu Sep 24 2020 01:35:06 GMT+0800 (China Standard Time)","Thu Sep 24 2020 01:50:34 GMT+0800 (China Standard Time)","Mozilla/5.0 (Windows NT 6.3; Win64; x64) AppleWebKit/537.36 (KHTML, like Gecko) Chrome/83.0.4103.116 Safari/537.36",48,"[0.9, 0.5, 0.1]","[0.8, 0.4, 0.2]","[u'black', u'blue', u'red']","[u'left', u'middle', u'right']","[0.9, 0.5, 0.1]","[u'low', u'medium', u'high']","red",51,"right","high","False","False",778,2250,NA
"A2J8KKPCKD5G33","Thu Sep 24 2020 01:35:06 GMT+0800 (China Standard Time)","Thu Sep 24 2020 01:50:34 GMT+0800 (China Standard Time)","Mozilla/5.0 (Windows NT 6.3; Win64; x64) AppleWebKit/537.36 (KHTML, like Gecko) Chrome/83.0.4103.116 Safari/537.36",49,"[0.9, 0.5, 0.1]","[0.8, 0.4, 0.2]","[u'black', u'blue', u'red']","[u'left', u'middle', u'right']","[0.9, 0.5, 0.1]","[u'low', u'medium', u'high']","black",49,"left","low","False","False",380,2200,NA
"A2J8KKPCKD5G33","Thu Sep 24 2020 01:35:06 GMT+0800 (China Standard Time)","Thu Sep 24 2020 01:50:34 GMT+0800 (China Standard Time)","Mozilla/5.0 (Windows NT 6.3; Win64; x64) AppleWebKit/537.36 (KHTML, like Gecko) Chrome/83.0.4103.116 Safari/537.36",50,"[0.9, 0.5, 0.1]","[0.8, 0.4, 0.2]","[u'black', u'blue', u'red']","[u'left', u'middle', u'right']","[0.9, 0.5, 0.1]","[u'low', u'medium', u'high']","blue",50,"middle","medium","False","False",930,2150,NA
"A2J8KKPCKD5G33","Thu Sep 24 2020 01:35:06 GMT+0800 (China Standard Time)","Thu Sep 24 2020 01:50:34 GMT+0800 (China Standard Time)","Mozilla/5.0 (Windows NT 6.3; Win64; x64) AppleWebKit/537.36 (KHTML, like Gecko) Chrome/83.0.4103.116 Safari/537.36",51,"[0.9, 0.5, 0.1]","[0.8, 0.4, 0.2]","[u'black', u'blue', u'red']","[u'left', u'middle', u'right']","[0.9, 0.5, 0.1]","[u'low', u'medium', u'high']","black",49,"left","low","True","False",1047,2250,NA
"A2J8KKPCKD5G33","Thu Sep 24 2020 01:35:06 GMT+0800 (China Standard Time)","Thu Sep 24 2020 01:50:34 GMT+0800 (China Standard Time)","Mozilla/5.0 (Windows NT 6.3; Win64; x64) AppleWebKit/537.36 (KHTML, like Gecko) Chrome/83.0.4103.116 Safari/537.36",52,"[0.9, 0.5, 0.1]","[0.8, 0.4, 0.2]","[u'black', u'blue', u'red']","[u'left', u'middle', u'right']","[0.9, 0.5, 0.1]","[u'low', u'medium', u'high']","black",49,"left","low","False","False",1028,2200,NA
"A2J8KKPCKD5G33","Thu Sep 24 2020 01:35:06 GMT+0800 (China Standard Time)","Thu Sep 24 2020 01:50:34 GMT+0800 (China Standard Time)","Mozilla/5.0 (Windows NT 6.3; Win64; x64) AppleWebKit/537.36 (KHTML, like Gecko) Chrome/83.0.4103.116 Safari/537.36",53,"[0.9, 0.5, 0.1]","[0.8, 0.4, 0.2]","[u'black', u'blue', u'red']","[u'left', u'middle', u'right']","[0.9, 0.5, 0.1]","[u'low', u'medium', u'high']","red",51,"right","high","True","False",2954,2300,NA
"A2J8KKPCKD5G33","Thu Sep 24 2020 01:35:06 GMT+0800 (China Standard Time)","Thu Sep 24 2020 01:50:34 GMT+0800 (China Standard Time)","Mozilla/5.0 (Windows NT 6.3; Win64; x64) AppleWebKit/537.36 (KHTML, like Gecko) Chrome/83.0.4103.116 Safari/537.36",54,"[0.9, 0.5, 0.1]","[0.8, 0.4, 0.2]","[u'black', u'blue', u'red']","[u'left', u'middle', u'right']","[0.9, 0.5, 0.1]","[u'low', u'medium', u'high']","black",49,"left","low","False","False",1409,2250,NA
"A2J8KKPCKD5G33","Thu Sep 24 2020 01:35:06 GMT+0800 (China Standard Time)","Thu Sep 24 2020 01:50:34 GMT+0800 (China Standard Time)","Mozilla/5.0 (Windows NT 6.3; Win64; x64) AppleWebKit/537.36 (KHTML, like Gecko) Chrome/83.0.4103.116 Safari/537.36",55,"[0.9, 0.5, 0.1]","[0.8, 0.4, 0.2]","[u'black', u'blue', u'red']","[u'left', u'middle', u'right']","[0.9, 0.5, 0.1]","[u'low', u'medium', u'high']","blue",50,"middle","medium","False","False",855,2200,NA
"A2J8KKPCKD5G33","Thu Sep 24 2020 01:35:06 GMT+0800 (China Standard Time)","Thu Sep 24 2020 01:50:34 GMT+0800 (China Standard Time)","Mozilla/5.0 (Windows NT 6.3; Win64; x64) AppleWebKit/537.36 (KHTML, like Gecko) Chrome/83.0.4103.116 Safari/537.36",56,"[0.9, 0.5, 0.1]","[0.8, 0.4, 0.2]","[u'black', u'blue', u'red']","[u'left', u'middle', u'right']","[0.9, 0.5, 0.1]","[u'low', u'medium', u'high']","black",49,"left","low","False","False",1590,2150,NA
"A2J8KKPCKD5G33","Thu Sep 24 2020 01:35:06 GMT+0800 (China Standard Time)","Thu Sep 24 2020 01:50:34 GMT+0800 (China Standard Time)","Mozilla/5.0 (Windows NT 6.3; Win64; x64) AppleWebKit/537.36 (KHTML, like Gecko) Chrome/83.0.4103.116 Safari/537.36",57,"[0.9, 0.5, 0.1]","[0.8, 0.4, 0.2]","[u'black', u'blue', u'red']","[u'left', u'middle', u'right']","[0.9, 0.5, 0.1]","[u'low', u'medium', u'high']","red",51,"right","high","True","False",887,2250,NA
"A2J8KKPCKD5G33","Thu Sep 24 2020 01:35:06 GMT+0800 (China Standard Time)","Thu Sep 24 2020 01:50:34 GMT+0800 (China Standard Time)","Mozilla/5.0 (Windows NT 6.3; Win64; x64) AppleWebKit/537.36 (KHTML, like Gecko) Chrome/83.0.4103.116 Safari/537.36",58,"[0.9, 0.5, 0.1]","[0.8, 0.4, 0.2]","[u'black', u'blue', u'red']","[u'left', u'middle', u'right']","[0.9, 0.5, 0.1]","[u'low', u'medium', u'high']","red",51,"right","high","True","False",734,2350,NA
"A2J8KKPCKD5G33","Thu Sep 24 2020 01:35:06 GMT+0800 (China Standard Time)","Thu Sep 24 2020 01:50:34 GMT+0800 (China Standard Time)","Mozilla/5.0 (Windows NT 6.3; Win64; x64) AppleWebKit/537.36 (KHTML, like Gecko) Chrome/83.0.4103.116 Safari/537.36",59,"[0.9, 0.5, 0.1]","[0.8, 0.4, 0.2]","[u'black', u'blue', u'red']","[u'left', u'middle', u'right']","[0.9, 0.5, 0.1]","[u'low', u'medium', u'high']","red",51,"right","high","True","False",865,2450,NA
"A2J8KKPCKD5G33","Thu Sep 24 2020 01:35:06 GMT+0800 (China Standard Time)","Thu Sep 24 2020 01:50:34 GMT+0800 (China Standard Time)","Mozilla/5.0 (Windows NT 6.3; Win64; x64) AppleWebKit/537.36 (KHTML, like Gecko) Chrome/83.0.4103.116 Safari/537.36",60,"[0.9, 0.5, 0.1]","[0.8, 0.4, 0.2]","[u'black', u'blue', u'red']","[u'left', u'middle', u'right']","[0.9, 0.5, 0.1]","[u'low', u'medium', u'high']","red",51,"right","high","True","False",687,2550,NA
"A2J8KKPCKD5G33","Thu Sep 24 2020 01:35:06 GMT+0800 (China Standard Time)","Thu Sep 24 2020 01:50:34 GMT+0800 (China Standard Time)","Mozilla/5.0 (Windows NT 6.3; Win64; x64) AppleWebKit/537.36 (KHTML, like Gecko) Chrome/83.0.4103.116 Safari/537.36",61,"[0.9, 0.5, 0.1]","[0.8, 0.4, 0.2]","[u'black', u'blue', u'red']","[u'left', u'middle', u'right']","[0.9, 0.5, 0.1]","[u'low', u'medium', u'high']","red",51,"right","high","True","False",787,2650,NA
"A2J8KKPCKD5G33","Thu Sep 24 2020 01:35:06 GMT+0800 (China Standard Time)","Thu Sep 24 2020 01:50:34 GMT+0800 (China Standard Time)","Mozilla/5.0 (Windows NT 6.3; Win64; x64) AppleWebKit/537.36 (KHTML, like Gecko) Chrome/83.0.4103.116 Safari/537.36",62,"[0.9, 0.5, 0.1]","[0.8, 0.4, 0.2]","[u'black', u'blue', u'red']","[u'left', u'middle', u'right']","[0.9, 0.5, 0.1]","[u'low', u'medium', u'high']","red",51,"right","high","True","False",735,2750,NA
"A2J8KKPCKD5G33","Thu Sep 24 2020 01:35:06 GMT+0800 (China Standard Time)","Thu Sep 24 2020 01:50:34 GMT+0800 (China Standard Time)","Mozilla/5.0 (Windows NT 6.3; Win64; x64) AppleWebKit/537.36 (KHTML, like Gecko) Chrome/83.0.4103.116 Safari/537.36",63,"[0.9, 0.5, 0.1]","[0.8, 0.4, 0.2]","[u'black', u'blue', u'red']","[u'left', u'middle', u'right']","[0.9, 0.5, 0.1]","[u'low', u'medium', u'high']","red",51,"right","high","True","False",997,2850,NA
"A2J8KKPCKD5G33","Thu Sep 24 2020 01:35:06 GMT+0800 (China Standard Time)","Thu Sep 24 2020 01:50:34 GMT+0800 (China Standard Time)","Mozilla/5.0 (Windows NT 6.3; Win64; x64) AppleWebKit/537.36 (KHTML, like Gecko) Chrome/83.0.4103.116 Safari/537.36",64,"[0.9, 0.5, 0.1]","[0.8, 0.4, 0.2]","[u'black', u'blue', u'red']","[u'left', u'middle', u'right']","[0.9, 0.5, 0.1]","[u'low', u'medium', u'high']","red",51,"right","high","True","False",801,2950,NA
"A2J8KKPCKD5G33","Thu Sep 24 2020 01:35:06 GMT+0800 (China Standard Time)","Thu Sep 24 2020 01:50:34 GMT+0800 (China Standard Time)","Mozilla/5.0 (Windows NT 6.3; Win64; x64) AppleWebKit/537.36 (KHTML, like Gecko) Chrome/83.0.4103.116 Safari/537.36",65,"[0.9, 0.5, 0.1]","[0.8, 0.4, 0.2]","[u'black', u'blue', u'red']","[u'left', u'middle', u'right']","[0.9, 0.5, 0.1]","[u'low', u'medium', u'high']","red",51,"right","high","True","True",858,3050,NA
"A2J8KKPCKD5G33","Thu Sep 24 2020 01:35:06 GMT+0800 (China Standard Time)","Thu Sep 24 2020 01:50:34 GMT+0800 (China Standard Time)","Mozilla/5.0 (Windows NT 6.3; Win64; x64) AppleWebKit/537.36 (KHTML, like Gecko) Chrome/83.0.4103.116 Safari/537.36",66,"[0.9, 0.5, 0.1]","[0.8, 0.4, 0.2]","[u'black', u'blue', u'red']","[u'left', u'middle', u'right']","[0.9, 0.5, 0.1]","[u'high', u'medium', u'low']","red",51,"right","low","False","False",808,3000,NA
"A2J8KKPCKD5G33","Thu Sep 24 2020 01:35:06 GMT+0800 (China Standard Time)","Thu Sep 24 2020 01:50:34 GMT+0800 (China Standard Time)","Mozilla/5.0 (Windows NT 6.3; Win64; x64) AppleWebKit/537.36 (KHTML, like Gecko) Chrome/83.0.4103.116 Safari/537.36",67,"[0.9, 0.5, 0.1]","[0.8, 0.4, 0.2]","[u'black', u'blue', u'red']","[u'left', u'middle', u'right']","[0.9, 0.5, 0.1]","[u'high', u'medium', u'low']","black",49,"left","high","True","False",1950,3100,NA
"A2J8KKPCKD5G33","Thu Sep 24 2020 01:35:06 GMT+0800 (China Standard Time)","Thu Sep 24 2020 01:50:34 GMT+0800 (China Standard Time)","Mozilla/5.0 (Windows NT 6.3; Win64; x64) AppleWebKit/537.36 (KHTML, like Gecko) Chrome/83.0.4103.116 Safari/537.36",68,"[0.9, 0.5, 0.1]","[0.8, 0.4, 0.2]","[u'black', u'blue', u'red']","[u'left', u'middle', u'right']","[0.9, 0.5, 0.1]","[u'high', u'medium', u'low']","black",49,"left","high","True","False",646,3200,NA
"A2J8KKPCKD5G33","Thu Sep 24 2020 01:35:06 GMT+0800 (China Standard Time)","Thu Sep 24 2020 01:50:34 GMT+0800 (China Standard Time)","Mozilla/5.0 (Windows NT 6.3; Win64; x64) AppleWebKit/537.36 (KHTML, like Gecko) Chrome/83.0.4103.116 Safari/537.36",69,"[0.9, 0.5, 0.1]","[0.8, 0.4, 0.2]","[u'black', u'blue', u'red']","[u'left', u'middle', u'right']","[0.9, 0.5, 0.1]","[u'high', u'medium', u'low']","black",49,"left","high","True","False",719,3300,NA
"A2J8KKPCKD5G33","Thu Sep 24 2020 01:35:06 GMT+0800 (China Standard Time)","Thu Sep 24 2020 01:50:34 GMT+0800 (China Standard Time)","Mozilla/5.0 (Windows NT 6.3; Win64; x64) AppleWebKit/537.36 (KHTML, like Gecko) Chrome/83.0.4103.116 Safari/537.36",70,"[0.9, 0.5, 0.1]","[0.8, 0.4, 0.2]","[u'black', u'blue', u'red']","[u'left', u'middle', u'right']","[0.9, 0.5, 0.1]","[u'high', u'medium', u'low']","black",49,"left","high","True","False",795,3400,NA
"A2J8KKPCKD5G33","Thu Sep 24 2020 01:35:06 GMT+0800 (China Standard Time)","Thu Sep 24 2020 01:50:34 GMT+0800 (China Standard Time)","Mozilla/5.0 (Windows NT 6.3; Win64; x64) AppleWebKit/537.36 (KHTML, like Gecko) Chrome/83.0.4103.116 Safari/537.36",71,"[0.9, 0.5, 0.1]","[0.8, 0.4, 0.2]","[u'black', u'blue', u'red']","[u'left', u'middle', u'right']","[0.9, 0.5, 0.1]","[u'high', u'medium', u'low']","black",49,"left","high","True","False",642,3500,NA
"A2J8KKPCKD5G33","Thu Sep 24 2020 01:35:06 GMT+0800 (China Standard Time)","Thu Sep 24 2020 01:50:34 GMT+0800 (China Standard Time)","Mozilla/5.0 (Windows NT 6.3; Win64; x64) AppleWebKit/537.36 (KHTML, like Gecko) Chrome/83.0.4103.116 Safari/537.36",72,"[0.9, 0.5, 0.1]","[0.8, 0.4, 0.2]","[u'black', u'blue', u'red']","[u'left', u'middle', u'right']","[0.9, 0.5, 0.1]","[u'high', u'medium', u'low']","black",49,"left","high","True","False",842,3600,NA
"A2J8KKPCKD5G33","Thu Sep 24 2020 01:35:06 GMT+0800 (China Standard Time)","Thu Sep 24 2020 01:50:34 GMT+0800 (China Standard Time)","Mozilla/5.0 (Windows NT 6.3; Win64; x64) AppleWebKit/537.36 (KHTML, like Gecko) Chrome/83.0.4103.116 Safari/537.36",73,"[0.9, 0.5, 0.1]","[0.8, 0.4, 0.2]","[u'black', u'blue', u'red']","[u'left', u'middle', u'right']","[0.9, 0.5, 0.1]","[u'high', u'medium', u'low']","black",49,"left","high","True","False",730,3700,NA
"A2J8KKPCKD5G33","Thu Sep 24 2020 01:35:06 GMT+0800 (China Standard Time)","Thu Sep 24 2020 01:50:34 GMT+0800 (China Standard Time)","Mozilla/5.0 (Windows NT 6.3; Win64; x64) AppleWebKit/537.36 (KHTML, like Gecko) Chrome/83.0.4103.116 Safari/537.36",74,"[0.9, 0.5, 0.1]","[0.8, 0.4, 0.2]","[u'black', u'blue', u'red']","[u'left', u'middle', u'right']","[0.9, 0.5, 0.1]","[u'high', u'medium', u'low']","black",49,"left","high","True","False",723,3800,NA
"A2J8KKPCKD5G33","Thu Sep 24 2020 01:35:06 GMT+0800 (China Standard Time)","Thu Sep 24 2020 01:50:34 GMT+0800 (China Standard Time)","Mozilla/5.0 (Windows NT 6.3; Win64; x64) AppleWebKit/537.36 (KHTML, like Gecko) Chrome/83.0.4103.116 Safari/537.36",75,"[0.9, 0.5, 0.1]","[0.8, 0.4, 0.2]","[u'black', u'blue', u'red']","[u'left', u'middle', u'right']","[0.9, 0.5, 0.1]","[u'high', u'medium', u'low']","black",49,"left","high","True","True",649,3900,NA
"A2J8KKPCKD5G33","Thu Sep 24 2020 01:35:06 GMT+0800 (China Standard Time)","Thu Sep 24 2020 01:50:34 GMT+0800 (China Standard Time)","Mozilla/5.0 (Windows NT 6.3; Win64; x64) AppleWebKit/537.36 (KHTML, like Gecko) Chrome/83.0.4103.116 Safari/537.36",76,"[0.9, 0.5, 0.1]","[0.8, 0.4, 0.2]","[u'black', u'blue', u'red']","[u'left', u'middle', u'right']","[0.9, 0.5, 0.1]","[u'low', u'medium', u'high']","black",49,"left","low","False","False",415,3850,NA
"A2J8KKPCKD5G33","Thu Sep 24 2020 01:35:06 GMT+0800 (China Standard Time)","Thu Sep 24 2020 01:50:34 GMT+0800 (China Standard Time)","Mozilla/5.0 (Windows NT 6.3; Win64; x64) AppleWebKit/537.36 (KHTML, like Gecko) Chrome/83.0.4103.116 Safari/537.36",77,"[0.9, 0.5, 0.1]","[0.8, 0.4, 0.2]","[u'black', u'blue', u'red']","[u'left', u'middle', u'right']","[0.9, 0.5, 0.1]","[u'low', u'medium', u'high']","red",51,"right","high","True","False",872,3950,NA
"A2J8KKPCKD5G33","Thu Sep 24 2020 01:35:06 GMT+0800 (China Standard Time)","Thu Sep 24 2020 01:50:34 GMT+0800 (China Standard Time)","Mozilla/5.0 (Windows NT 6.3; Win64; x64) AppleWebKit/537.36 (KHTML, like Gecko) Chrome/83.0.4103.116 Safari/537.36",78,"[0.9, 0.5, 0.1]","[0.8, 0.4, 0.2]","[u'black', u'blue', u'red']","[u'left', u'middle', u'right']","[0.9, 0.5, 0.1]","[u'low', u'medium', u'high']","red",51,"right","high","True","False",159,4050,NA
"A2J8KKPCKD5G33","Thu Sep 24 2020 01:35:06 GMT+0800 (China Standard Time)","Thu Sep 24 2020 01:50:34 GMT+0800 (China Standard Time)","Mozilla/5.0 (Windows NT 6.3; Win64; x64) AppleWebKit/537.36 (KHTML, like Gecko) Chrome/83.0.4103.116 Safari/537.36",79,"[0.9, 0.5, 0.1]","[0.8, 0.4, 0.2]","[u'black', u'blue', u'red']","[u'left', u'middle', u'right']","[0.9, 0.5, 0.1]","[u'low', u'medium', u'high']","red",51,"right","high","True","False",659,4150,NA
"A2J8KKPCKD5G33","Thu Sep 24 2020 01:35:06 GMT+0800 (China Standard Time)","Thu Sep 24 2020 01:50:34 GMT+0800 (China Standard Time)","Mozilla/5.0 (Windows NT 6.3; Win64; x64) AppleWebKit/537.36 (KHTML, like Gecko) Chrome/83.0.4103.116 Safari/537.36",80,"[0.9, 0.5, 0.1]","[0.8, 0.4, 0.2]","[u'black', u'blue', u'red']","[u'left', u'middle', u'right']","[0.9, 0.5, 0.1]","[u'low', u'medium', u'high']","red",51,"right","high","True","False",725,4250,NA
"A2J8KKPCKD5G33","Thu Sep 24 2020 01:35:06 GMT+0800 (China Standard Time)","Thu Sep 24 2020 01:50:34 GMT+0800 (China Standard Time)","Mozilla/5.0 (Windows NT 6.3; Win64; x64) AppleWebKit/537.36 (KHTML, like Gecko) Chrome/83.0.4103.116 Safari/537.36",81,"[0.9, 0.5, 0.1]","[0.8, 0.4, 0.2]","[u'black', u'blue', u'red']","[u'left', u'middle', u'right']","[0.8, 0.4, 0.2]","[u'medium', u'high', u'low']","red",51,"right","low","False","False",1218,4200,NA
"A2J8KKPCKD5G33","Thu Sep 24 2020 01:35:06 GMT+0800 (China Standard Time)","Thu Sep 24 2020 01:50:34 GMT+0800 (China Standard Time)","Mozilla/5.0 (Windows NT 6.3; Win64; x64) AppleWebKit/537.36 (KHTML, like Gecko) Chrome/83.0.4103.116 Safari/537.36",82,"[0.9, 0.5, 0.1]","[0.8, 0.4, 0.2]","[u'black', u'blue', u'red']","[u'left', u'middle', u'right']","[0.8, 0.4, 0.2]","[u'medium', u'high', u'low']","blue",50,"middle","high","False","False",620,4150,NA
"A2J8KKPCKD5G33","Thu Sep 24 2020 01:35:06 GMT+0800 (China Standard Time)","Thu Sep 24 2020 01:50:34 GMT+0800 (China Standard Time)","Mozilla/5.0 (Windows NT 6.3; Win64; x64) AppleWebKit/537.36 (KHTML, like Gecko) Chrome/83.0.4103.116 Safari/537.36",83,"[0.9, 0.5, 0.1]","[0.8, 0.4, 0.2]","[u'black', u'blue', u'red']","[u'left', u'middle', u'right']","[0.8, 0.4, 0.2]","[u'medium', u'high', u'low']","black",49,"left","medium","True","False",661,4250,NA
"A2J8KKPCKD5G33","Thu Sep 24 2020 01:35:06 GMT+0800 (China Standard Time)","Thu Sep 24 2020 01:50:34 GMT+0800 (China Standard Time)","Mozilla/5.0 (Windows NT 6.3; Win64; x64) AppleWebKit/537.36 (KHTML, like Gecko) Chrome/83.0.4103.116 Safari/537.36",84,"[0.9, 0.5, 0.1]","[0.8, 0.4, 0.2]","[u'black', u'blue', u'red']","[u'left', u'middle', u'right']","[0.8, 0.4, 0.2]","[u'medium', u'high', u'low']","black",49,"left","medium","False","False",701,4200,NA
"A2J8KKPCKD5G33","Thu Sep 24 2020 01:35:06 GMT+0800 (China Standard Time)","Thu Sep 24 2020 01:50:34 GMT+0800 (China Standard Time)","Mozilla/5.0 (Windows NT 6.3; Win64; x64) AppleWebKit/537.36 (KHTML, like Gecko) Chrome/83.0.4103.116 Safari/537.36",85,"[0.9, 0.5, 0.1]","[0.8, 0.4, 0.2]","[u'black', u'blue', u'red']","[u'left', u'middle', u'right']","[0.8, 0.4, 0.2]","[u'medium', u'high', u'low']","red",51,"right","low","False","False",616,4150,NA
"A2J8KKPCKD5G33","Thu Sep 24 2020 01:35:06 GMT+0800 (China Standard Time)","Thu Sep 24 2020 01:50:34 GMT+0800 (China Standard Time)","Mozilla/5.0 (Windows NT 6.3; Win64; x64) AppleWebKit/537.36 (KHTML, like Gecko) Chrome/83.0.4103.116 Safari/537.36",86,"[0.9, 0.5, 0.1]","[0.8, 0.4, 0.2]","[u'black', u'blue', u'red']","[u'left', u'middle', u'right']","[0.8, 0.4, 0.2]","[u'medium', u'high', u'low']","blue",50,"middle","high","True","False",393,4250,NA
"A2J8KKPCKD5G33","Thu Sep 24 2020 01:35:06 GMT+0800 (China Standard Time)","Thu Sep 24 2020 01:50:34 GMT+0800 (China Standard Time)","Mozilla/5.0 (Windows NT 6.3; Win64; x64) AppleWebKit/537.36 (KHTML, like Gecko) Chrome/83.0.4103.116 Safari/537.36",87,"[0.9, 0.5, 0.1]","[0.8, 0.4, 0.2]","[u'black', u'blue', u'red']","[u'left', u'middle', u'right']","[0.8, 0.4, 0.2]","[u'medium', u'high', u'low']","blue",50,"middle","high","True","False",494,4350,NA
"A2J8KKPCKD5G33","Thu Sep 24 2020 01:35:06 GMT+0800 (China Standard Time)","Thu Sep 24 2020 01:50:34 GMT+0800 (China Standard Time)","Mozilla/5.0 (Windows NT 6.3; Win64; x64) AppleWebKit/537.36 (KHTML, like Gecko) Chrome/83.0.4103.116 Safari/537.36",88,"[0.9, 0.5, 0.1]","[0.8, 0.4, 0.2]","[u'black', u'blue', u'red']","[u'left', u'middle', u'right']","[0.8, 0.4, 0.2]","[u'medium', u'high', u'low']","blue",50,"middle","high","False","False",136,4300,NA
"A2J8KKPCKD5G33","Thu Sep 24 2020 01:35:06 GMT+0800 (China Standard Time)","Thu Sep 24 2020 01:50:34 GMT+0800 (China Standard Time)","Mozilla/5.0 (Windows NT 6.3; Win64; x64) AppleWebKit/537.36 (KHTML, like Gecko) Chrome/83.0.4103.116 Safari/537.36",89,"[0.9, 0.5, 0.1]","[0.8, 0.4, 0.2]","[u'black', u'blue', u'red']","[u'left', u'middle', u'right']","[0.8, 0.4, 0.2]","[u'medium', u'high', u'low']","black",49,"left","medium","True","False",500,4400,NA
"A2J8KKPCKD5G33","Thu Sep 24 2020 01:35:06 GMT+0800 (China Standard Time)","Thu Sep 24 2020 01:50:34 GMT+0800 (China Standard Time)","Mozilla/5.0 (Windows NT 6.3; Win64; x64) AppleWebKit/537.36 (KHTML, like Gecko) Chrome/83.0.4103.116 Safari/537.36",90,"[0.9, 0.5, 0.1]","[0.8, 0.4, 0.2]","[u'black', u'blue', u'red']","[u'left', u'middle', u'right']","[0.8, 0.4, 0.2]","[u'medium', u'high', u'low']","black",49,"left","medium","False","False",1004,4350,NA
"A2J8KKPCKD5G33","Thu Sep 24 2020 01:35:06 GMT+0800 (China Standard Time)","Thu Sep 24 2020 01:50:34 GMT+0800 (China Standard Time)","Mozilla/5.0 (Windows NT 6.3; Win64; x64) AppleWebKit/537.36 (KHTML, like Gecko) Chrome/83.0.4103.116 Safari/537.36",91,"[0.9, 0.5, 0.1]","[0.8, 0.4, 0.2]","[u'black', u'blue', u'red']","[u'left', u'middle', u'right']","[0.8, 0.4, 0.2]","[u'medium', u'high', u'low']","red",51,"right","low","False","False",745,4300,NA
"A2J8KKPCKD5G33","Thu Sep 24 2020 01:35:06 GMT+0800 (China Standard Time)","Thu Sep 24 2020 01:50:34 GMT+0800 (China Standard Time)","Mozilla/5.0 (Windows NT 6.3; Win64; x64) AppleWebKit/537.36 (KHTML, like Gecko) Chrome/83.0.4103.116 Safari/537.36",92,"[0.9, 0.5, 0.1]","[0.8, 0.4, 0.2]","[u'black', u'blue', u'red']","[u'left', u'middle', u'right']","[0.8, 0.4, 0.2]","[u'medium', u'high', u'low']","black",49,"left","medium","False","False",345,4250,NA
"A2J8KKPCKD5G33","Thu Sep 24 2020 01:35:06 GMT+0800 (China Standard Time)","Thu Sep 24 2020 01:50:34 GMT+0800 (China Standard Time)","Mozilla/5.0 (Windows NT 6.3; Win64; x64) AppleWebKit/537.36 (KHTML, like Gecko) Chrome/83.0.4103.116 Safari/537.36",93,"[0.9, 0.5, 0.1]","[0.8, 0.4, 0.2]","[u'black', u'blue', u'red']","[u'left', u'middle', u'right']","[0.8, 0.4, 0.2]","[u'medium', u'high', u'low']","blue",50,"middle","high","True","False",659,4350,NA
"A2J8KKPCKD5G33","Thu Sep 24 2020 01:35:06 GMT+0800 (China Standard Time)","Thu Sep 24 2020 01:50:34 GMT+0800 (China Standard Time)","Mozilla/5.0 (Windows NT 6.3; Win64; x64) AppleWebKit/537.36 (KHTML, like Gecko) Chrome/83.0.4103.116 Safari/537.36",94,"[0.9, 0.5, 0.1]","[0.8, 0.4, 0.2]","[u'black', u'blue', u'red']","[u'left', u'middle', u'right']","[0.8, 0.4, 0.2]","[u'medium', u'high', u'low']","blue",50,"middle","high","True","False",787,4450,NA
"A2J8KKPCKD5G33","Thu Sep 24 2020 01:35:06 GMT+0800 (China Standard Time)","Thu Sep 24 2020 01:50:34 GMT+0800 (China Standard Time)","Mozilla/5.0 (Windows NT 6.3; Win64; x64) AppleWebKit/537.36 (KHTML, like Gecko) Chrome/83.0.4103.116 Safari/537.36",95,"[0.9, 0.5, 0.1]","[0.8, 0.4, 0.2]","[u'black', u'blue', u'red']","[u'left', u'middle', u'right']","[0.8, 0.4, 0.2]","[u'medium', u'high', u'low']","blue",50,"middle","high","True","False",759,4550,NA
"A2J8KKPCKD5G33","Thu Sep 24 2020 01:35:06 GMT+0800 (China Standard Time)","Thu Sep 24 2020 01:50:34 GMT+0800 (China Standard Time)","Mozilla/5.0 (Windows NT 6.3; Win64; x64) AppleWebKit/537.36 (KHTML, like Gecko) Chrome/83.0.4103.116 Safari/537.36",96,"[0.9, 0.5, 0.1]","[0.8, 0.4, 0.2]","[u'black', u'blue', u'red']","[u'left', u'middle', u'right']","[0.8, 0.4, 0.2]","[u'medium', u'high', u'low']","blue",50,"middle","high","True","False",693,4650,NA
"A2J8KKPCKD5G33","Thu Sep 24 2020 01:35:06 GMT+0800 (China Standard Time)","Thu Sep 24 2020 01:50:34 GMT+0800 (China Standard Time)","Mozilla/5.0 (Windows NT 6.3; Win64; x64) AppleWebKit/537.36 (KHTML, like Gecko) Chrome/83.0.4103.116 Safari/537.36",97,"[0.9, 0.5, 0.1]","[0.8, 0.4, 0.2]","[u'black', u'blue', u'red']","[u'left', u'middle', u'right']","[0.8, 0.4, 0.2]","[u'medium', u'high', u'low']","blue",50,"middle","high","True","False",623,4750,NA
"A2J8KKPCKD5G33","Thu Sep 24 2020 01:35:06 GMT+0800 (China Standard Time)","Thu Sep 24 2020 01:50:34 GMT+0800 (China Standard Time)","Mozilla/5.0 (Windows NT 6.3; Win64; x64) AppleWebKit/537.36 (KHTML, like Gecko) Chrome/83.0.4103.116 Safari/537.36",98,"[0.9, 0.5, 0.1]","[0.8, 0.4, 0.2]","[u'black', u'blue', u'red']","[u'left', u'middle', u'right']","[0.8, 0.4, 0.2]","[u'medium', u'high', u'low']","blue",50,"middle","high","True","False",495,4850,NA
"A2J8KKPCKD5G33","Thu Sep 24 2020 01:35:06 GMT+0800 (China Standard Time)","Thu Sep 24 2020 01:50:34 GMT+0800 (China Standard Time)","Mozilla/5.0 (Windows NT 6.3; Win64; x64) AppleWebKit/537.36 (KHTML, like Gecko) Chrome/83.0.4103.116 Safari/537.36",99,"[0.9, 0.5, 0.1]","[0.8, 0.4, 0.2]","[u'black', u'blue', u'red']","[u'left', u'middle', u'right']","[0.8, 0.4, 0.2]","[u'medium', u'high', u'low']","blue",50,"middle","high","True","False",383,4950,NA
"A2J8KKPCKD5G33","Thu Sep 24 2020 01:35:06 GMT+0800 (China Standard Time)","Thu Sep 24 2020 01:50:34 GMT+0800 (China Standard Time)","Mozilla/5.0 (Windows NT 6.3; Win64; x64) AppleWebKit/537.36 (KHTML, like Gecko) Chrome/83.0.4103.116 Safari/537.36",100,"[0.9, 0.5, 0.1]","[0.8, 0.4, 0.2]","[u'black', u'blue', u'red']","[u'left', u'middle', u'right']","[0.8, 0.4, 0.2]","[u'medium', u'high', u'low']","blue",50,"middle","high","True","False",337,5050,NA
"A2J8KKPCKD5G33","Thu Sep 24 2020 01:35:06 GMT+0800 (China Standard Time)","Thu Sep 24 2020 01:50:34 GMT+0800 (China Standard Time)","Mozilla/5.0 (Windows NT 6.3; Win64; x64) AppleWebKit/537.36 (KHTML, like Gecko) Chrome/83.0.4103.116 Safari/537.36",101,"[0.9, 0.5, 0.1]","[0.8, 0.4, 0.2]","[u'black', u'blue', u'red']","[u'left', u'middle', u'right']","[0.8, 0.4, 0.2]","[u'medium', u'high', u'low']","blue",50,"middle","high","True","True",322,5150,NA
"A2J8KKPCKD5G33","Thu Sep 24 2020 01:35:06 GMT+0800 (China Standard Time)","Thu Sep 24 2020 01:50:34 GMT+0800 (China Standard Time)","Mozilla/5.0 (Windows NT 6.3; Win64; x64) AppleWebKit/537.36 (KHTML, like Gecko) Chrome/83.0.4103.116 Safari/537.36",102,"[0.9, 0.5, 0.1]","[0.8, 0.4, 0.2]","[u'black', u'blue', u'red']","[u'left', u'middle', u'right']","[0.8, 0.4, 0.2]","[u'medium', u'low', u'high']","blue",50,"middle","low","False","False",606,5100,NA
"A2J8KKPCKD5G33","Thu Sep 24 2020 01:35:06 GMT+0800 (China Standard Time)","Thu Sep 24 2020 01:50:34 GMT+0800 (China Standard Time)","Mozilla/5.0 (Windows NT 6.3; Win64; x64) AppleWebKit/537.36 (KHTML, like Gecko) Chrome/83.0.4103.116 Safari/537.36",103,"[0.9, 0.5, 0.1]","[0.8, 0.4, 0.2]","[u'black', u'blue', u'red']","[u'left', u'middle', u'right']","[0.8, 0.4, 0.2]","[u'medium', u'low', u'high']","black",49,"left","medium","False","False",653,5050,NA
"A2J8KKPCKD5G33","Thu Sep 24 2020 01:35:06 GMT+0800 (China Standard Time)","Thu Sep 24 2020 01:50:34 GMT+0800 (China Standard Time)","Mozilla/5.0 (Windows NT 6.3; Win64; x64) AppleWebKit/537.36 (KHTML, like Gecko) Chrome/83.0.4103.116 Safari/537.36",104,"[0.9, 0.5, 0.1]","[0.8, 0.4, 0.2]","[u'black', u'blue', u'red']","[u'left', u'middle', u'right']","[0.8, 0.4, 0.2]","[u'medium', u'low', u'high']","red",51,"right","high","True","False",394,5150,NA
"A2J8KKPCKD5G33","Thu Sep 24 2020 01:35:06 GMT+0800 (China Standard Time)","Thu Sep 24 2020 01:50:34 GMT+0800 (China Standard Time)","Mozilla/5.0 (Windows NT 6.3; Win64; x64) AppleWebKit/537.36 (KHTML, like Gecko) Chrome/83.0.4103.116 Safari/537.36",105,"[0.9, 0.5, 0.1]","[0.8, 0.4, 0.2]","[u'black', u'blue', u'red']","[u'left', u'middle', u'right']","[0.8, 0.4, 0.2]","[u'medium', u'low', u'high']","red",51,"right","high","True","False",331,5250,NA
"A2J8KKPCKD5G33","Thu Sep 24 2020 01:35:06 GMT+0800 (China Standard Time)","Thu Sep 24 2020 01:50:34 GMT+0800 (China Standard Time)","Mozilla/5.0 (Windows NT 6.3; Win64; x64) AppleWebKit/537.36 (KHTML, like Gecko) Chrome/83.0.4103.116 Safari/537.36",106,"[0.9, 0.5, 0.1]","[0.8, 0.4, 0.2]","[u'black', u'blue', u'red']","[u'left', u'middle', u'right']","[0.8, 0.4, 0.2]","[u'medium', u'low', u'high']","red",51,"right","high","False","False",440,5200,NA
"A2J8KKPCKD5G33","Thu Sep 24 2020 01:35:06 GMT+0800 (China Standard Time)","Thu Sep 24 2020 01:50:34 GMT+0800 (China Standard Time)","Mozilla/5.0 (Windows NT 6.3; Win64; x64) AppleWebKit/537.36 (KHTML, like Gecko) Chrome/83.0.4103.116 Safari/537.36",107,"[0.9, 0.5, 0.1]","[0.8, 0.4, 0.2]","[u'black', u'blue', u'red']","[u'left', u'middle', u'right']","[0.8, 0.4, 0.2]","[u'medium', u'low', u'high']","blue",50,"middle","low","False","False",806,5150,NA
"A2J8KKPCKD5G33","Thu Sep 24 2020 01:35:06 GMT+0800 (China Standard Time)","Thu Sep 24 2020 01:50:34 GMT+0800 (China Standard Time)","Mozilla/5.0 (Windows NT 6.3; Win64; x64) AppleWebKit/537.36 (KHTML, like Gecko) Chrome/83.0.4103.116 Safari/537.36",108,"[0.9, 0.5, 0.1]","[0.8, 0.4, 0.2]","[u'black', u'blue', u'red']","[u'left', u'middle', u'right']","[0.8, 0.4, 0.2]","[u'medium', u'low', u'high']","black",49,"left","medium","False","False",392,5100,NA
"A2J8KKPCKD5G33","Thu Sep 24 2020 01:35:06 GMT+0800 (China Standard Time)","Thu Sep 24 2020 01:50:34 GMT+0800 (China Standard Time)","Mozilla/5.0 (Windows NT 6.3; Win64; x64) AppleWebKit/537.36 (KHTML, like Gecko) Chrome/83.0.4103.116 Safari/537.36",109,"[0.9, 0.5, 0.1]","[0.8, 0.4, 0.2]","[u'black', u'blue', u'red']","[u'left', u'middle', u'right']","[0.8, 0.4, 0.2]","[u'medium', u'low', u'high']","red",51,"right","high","True","False",281,5200,NA
"A2J8KKPCKD5G33","Thu Sep 24 2020 01:35:06 GMT+0800 (China Standard Time)","Thu Sep 24 2020 01:50:34 GMT+0800 (China Standard Time)","Mozilla/5.0 (Windows NT 6.3; Win64; x64) AppleWebKit/537.36 (KHTML, like Gecko) Chrome/83.0.4103.116 Safari/537.36",110,"[0.9, 0.5, 0.1]","[0.8, 0.4, 0.2]","[u'black', u'blue', u'red']","[u'left', u'middle', u'right']","[0.8, 0.4, 0.2]","[u'medium', u'low', u'high']","red",51,"right","high","True","False",98,5300,NA
"A2J8KKPCKD5G33","Thu Sep 24 2020 01:35:06 GMT+0800 (China Standard Time)","Thu Sep 24 2020 01:50:34 GMT+0800 (China Standard Time)","Mozilla/5.0 (Windows NT 6.3; Win64; x64) AppleWebKit/537.36 (KHTML, like Gecko) Chrome/83.0.4103.116 Safari/537.36",111,"[0.9, 0.5, 0.1]","[0.8, 0.4, 0.2]","[u'black', u'blue', u'red']","[u'left', u'middle', u'right']","[0.8, 0.4, 0.2]","[u'medium', u'low', u'high']","red",51,"right","high","True","False",1115,5400,NA
"A2J8KKPCKD5G33","Thu Sep 24 2020 01:35:06 GMT+0800 (China Standard Time)","Thu Sep 24 2020 01:50:34 GMT+0800 (China Standard Time)","Mozilla/5.0 (Windows NT 6.3; Win64; x64) AppleWebKit/537.36 (KHTML, like Gecko) Chrome/83.0.4103.116 Safari/537.36",112,"[0.9, 0.5, 0.1]","[0.8, 0.4, 0.2]","[u'black', u'blue', u'red']","[u'left', u'middle', u'right']","[0.8, 0.4, 0.2]","[u'medium', u'low', u'high']","red",51,"right","high","True","False",885,5500,NA
"A2J8KKPCKD5G33","Thu Sep 24 2020 01:35:06 GMT+0800 (China Standard Time)","Thu Sep 24 2020 01:50:34 GMT+0800 (China Standard Time)","Mozilla/5.0 (Windows NT 6.3; Win64; x64) AppleWebKit/537.36 (KHTML, like Gecko) Chrome/83.0.4103.116 Safari/537.36",113,"[0.9, 0.5, 0.1]","[0.8, 0.4, 0.2]","[u'black', u'blue', u'red']","[u'left', u'middle', u'right']","[0.8, 0.4, 0.2]","[u'medium', u'low', u'high']","red",51,"right","high","True","False",614,5600,NA
"A2J8KKPCKD5G33","Thu Sep 24 2020 01:35:06 GMT+0800 (China Standard Time)","Thu Sep 24 2020 01:50:34 GMT+0800 (China Standard Time)","Mozilla/5.0 (Windows NT 6.3; Win64; x64) AppleWebKit/537.36 (KHTML, like Gecko) Chrome/83.0.4103.116 Safari/537.36",114,"[0.9, 0.5, 0.1]","[0.8, 0.4, 0.2]","[u'black', u'blue', u'red']","[u'left', u'middle', u'right']","[0.8, 0.4, 0.2]","[u'medium', u'low', u'high']","red",51,"right","high","True","False",445,5700,NA
"A2J8KKPCKD5G33","Thu Sep 24 2020 01:35:06 GMT+0800 (China Standard Time)","Thu Sep 24 2020 01:50:34 GMT+0800 (China Standard Time)","Mozilla/5.0 (Windows NT 6.3; Win64; x64) AppleWebKit/537.36 (KHTML, like Gecko) Chrome/83.0.4103.116 Safari/537.36",115,"[0.9, 0.5, 0.1]","[0.8, 0.4, 0.2]","[u'black', u'blue', u'red']","[u'left', u'middle', u'right']","[0.8, 0.4, 0.2]","[u'medium', u'low', u'high']","red",51,"right","high","True","False",628,5800,NA
"A2J8KKPCKD5G33","Thu Sep 24 2020 01:35:06 GMT+0800 (China Standard Time)","Thu Sep 24 2020 01:50:34 GMT+0800 (China Standard Time)","Mozilla/5.0 (Windows NT 6.3; Win64; x64) AppleWebKit/537.36 (KHTML, like Gecko) Chrome/83.0.4103.116 Safari/537.36",116,"[0.9, 0.5, 0.1]","[0.8, 0.4, 0.2]","[u'black', u'blue', u'red']","[u'left', u'middle', u'right']","[0.8, 0.4, 0.2]","[u'medium', u'low', u'high']","red",51,"right","high","True","False",740,5900,NA
"A2J8KKPCKD5G33","Thu Sep 24 2020 01:35:06 GMT+0800 (China Standard Time)","Thu Sep 24 2020 01:50:34 GMT+0800 (China Standard Time)","Mozilla/5.0 (Windows NT 6.3; Win64; x64) AppleWebKit/537.36 (KHTML, like Gecko) Chrome/83.0.4103.116 Safari/537.36",117,"[0.9, 0.5, 0.1]","[0.8, 0.4, 0.2]","[u'black', u'blue', u'red']","[u'left', u'middle', u'right']","[0.8, 0.4, 0.2]","[u'medium', u'low', u'high']","red",51,"right","high","False","True",606,5850,NA
"A2J8KKPCKD5G33","Thu Sep 24 2020 01:35:06 GMT+0800 (China Standard Time)","Thu Sep 24 2020 01:50:34 GMT+0800 (China Standard Time)","Mozilla/5.0 (Windows NT 6.3; Win64; x64) AppleWebKit/537.36 (KHTML, like Gecko) Chrome/83.0.4103.116 Safari/537.36",118,"[0.9, 0.5, 0.1]","[0.8, 0.4, 0.2]","[u'black', u'blue', u'red']","[u'left', u'middle', u'right']","[0.8, 0.4, 0.2]","[u'high', u'medium', u'low']","red",51,"right","low","False","False",1277,5800,NA
"A2J8KKPCKD5G33","Thu Sep 24 2020 01:35:06 GMT+0800 (China Standard Time)","Thu Sep 24 2020 01:50:34 GMT+0800 (China Standard Time)","Mozilla/5.0 (Windows NT 6.3; Win64; x64) AppleWebKit/537.36 (KHTML, like Gecko) Chrome/83.0.4103.116 Safari/537.36",119,"[0.9, 0.5, 0.1]","[0.8, 0.4, 0.2]","[u'black', u'blue', u'red']","[u'left', u'middle', u'right']","[0.8, 0.4, 0.2]","[u'high', u'medium', u'low']","blue",50,"middle","medium","True","False",245,5900,NA
"A2J8KKPCKD5G33","Thu Sep 24 2020 01:35:06 GMT+0800 (China Standard Time)","Thu Sep 24 2020 01:50:34 GMT+0800 (China Standard Time)","Mozilla/5.0 (Windows NT 6.3; Win64; x64) AppleWebKit/537.36 (KHTML, like Gecko) Chrome/83.0.4103.116 Safari/537.36",120,"[0.9, 0.5, 0.1]","[0.8, 0.4, 0.2]","[u'black', u'blue', u'red']","[u'left', u'middle', u'right']","[0.8, 0.4, 0.2]","[u'high', u'medium', u'low']","blue",50,"middle","medium","False","False",421,5850,NA
"A2J8KKPCKD5G33","Thu Sep 24 2020 01:35:06 GMT+0800 (China Standard Time)","Thu Sep 24 2020 01:50:34 GMT+0800 (China Standard Time)","Mozilla/5.0 (Windows NT 6.3; Win64; x64) AppleWebKit/537.36 (KHTML, like Gecko) Chrome/83.0.4103.116 Safari/537.36",121,"[0.9, 0.5, 0.1]","[0.8, 0.4, 0.2]","[u'black', u'blue', u'red']","[u'left', u'middle', u'right']","[0.8, 0.4, 0.2]","[u'low', u'high', u'medium']","blue",50,"middle","high","True","False",2576,5950,NA
"A2J8KKPCKD5G33","Thu Sep 24 2020 01:35:06 GMT+0800 (China Standard Time)","Thu Sep 24 2020 01:50:34 GMT+0800 (China Standard Time)","Mozilla/5.0 (Windows NT 6.3; Win64; x64) AppleWebKit/537.36 (KHTML, like Gecko) Chrome/83.0.4103.116 Safari/537.36",122,"[0.9, 0.5, 0.1]","[0.8, 0.4, 0.2]","[u'black', u'blue', u'red']","[u'left', u'middle', u'right']","[0.8, 0.4, 0.2]","[u'low', u'high', u'medium']","blue",50,"middle","high","False","False",155,5900,NA
"A2J8KKPCKD5G33","Thu Sep 24 2020 01:35:06 GMT+0800 (China Standard Time)","Thu Sep 24 2020 01:50:34 GMT+0800 (China Standard Time)","Mozilla/5.0 (Windows NT 6.3; Win64; x64) AppleWebKit/537.36 (KHTML, like Gecko) Chrome/83.0.4103.116 Safari/537.36",123,"[0.9, 0.5, 0.1]","[0.8, 0.4, 0.2]","[u'black', u'blue', u'red']","[u'left', u'middle', u'right']","[0.8, 0.4, 0.2]","[u'low', u'high', u'medium']","black",49,"left","low","True","False",637,6000,NA
"A2J8KKPCKD5G33","Thu Sep 24 2020 01:35:06 GMT+0800 (China Standard Time)","Thu Sep 24 2020 01:50:34 GMT+0800 (China Standard Time)","Mozilla/5.0 (Windows NT 6.3; Win64; x64) AppleWebKit/537.36 (KHTML, like Gecko) Chrome/83.0.4103.116 Safari/537.36",124,"[0.9, 0.5, 0.1]","[0.8, 0.4, 0.2]","[u'black', u'blue', u'red']","[u'left', u'middle', u'right']","[0.8, 0.4, 0.2]","[u'low', u'high', u'medium']","black",49,"left","low","True","False",177,6100,NA
"A2J8KKPCKD5G33","Thu Sep 24 2020 01:35:06 GMT+0800 (China Standard Time)","Thu Sep 24 2020 01:50:34 GMT+0800 (China Standard Time)","Mozilla/5.0 (Windows NT 6.3; Win64; x64) AppleWebKit/537.36 (KHTML, like Gecko) Chrome/83.0.4103.116 Safari/537.36",125,"[0.9, 0.5, 0.1]","[0.8, 0.4, 0.2]","[u'black', u'blue', u'red']","[u'left', u'middle', u'right']","[0.8, 0.4, 0.2]","[u'low', u'high', u'medium']","black",49,"left","low","False","False",632,6050,NA
"A2J8KKPCKD5G33","Thu Sep 24 2020 01:35:06 GMT+0800 (China Standard Time)","Thu Sep 24 2020 01:50:34 GMT+0800 (China Standard Time)","Mozilla/5.0 (Windows NT 6.3; Win64; x64) AppleWebKit/537.36 (KHTML, like Gecko) Chrome/83.0.4103.116 Safari/537.36",126,"[0.9, 0.5, 0.1]","[0.8, 0.4, 0.2]","[u'black', u'blue', u'red']","[u'left', u'middle', u'right']","[0.8, 0.4, 0.2]","[u'low', u'high', u'medium']","red",51,"right","medium","False","False",495,6000,NA
"A2J8KKPCKD5G33","Thu Sep 24 2020 01:35:06 GMT+0800 (China Standard Time)","Thu Sep 24 2020 01:50:34 GMT+0800 (China Standard Time)","Mozilla/5.0 (Windows NT 6.3; Win64; x64) AppleWebKit/537.36 (KHTML, like Gecko) Chrome/83.0.4103.116 Safari/537.36",127,"[0.9, 0.5, 0.1]","[0.8, 0.4, 0.2]","[u'black', u'blue', u'red']","[u'left', u'middle', u'right']","[0.8, 0.4, 0.2]","[u'low', u'high', u'medium']","black",49,"left","low","True","False",410,6100,NA
"A2J8KKPCKD5G33","Thu Sep 24 2020 01:35:06 GMT+0800 (China Standard Time)","Thu Sep 24 2020 01:50:34 GMT+0800 (China Standard Time)","Mozilla/5.0 (Windows NT 6.3; Win64; x64) AppleWebKit/537.36 (KHTML, like Gecko) Chrome/83.0.4103.116 Safari/537.36",128,"[0.9, 0.5, 0.1]","[0.8, 0.4, 0.2]","[u'black', u'blue', u'red']","[u'left', u'middle', u'right']","[0.8, 0.4, 0.2]","[u'low', u'high', u'medium']","black",49,"left","low","False","False",982,6050,NA
"A2J8KKPCKD5G33","Thu Sep 24 2020 01:35:06 GMT+0800 (China Standard Time)","Thu Sep 24 2020 01:50:34 GMT+0800 (China Standard Time)","Mozilla/5.0 (Windows NT 6.3; Win64; x64) AppleWebKit/537.36 (KHTML, like Gecko) Chrome/83.0.4103.116 Safari/537.36",129,"[0.9, 0.5, 0.1]","[0.8, 0.4, 0.2]","[u'black', u'blue', u'red']","[u'left', u'middle', u'right']","[0.8, 0.4, 0.2]","[u'low', u'high', u'medium']","black",49,"left","low","True","False",991,6150,NA
"A2J8KKPCKD5G33","Thu Sep 24 2020 01:35:06 GMT+0800 (China Standard Time)","Thu Sep 24 2020 01:50:34 GMT+0800 (China Standard Time)","Mozilla/5.0 (Windows NT 6.3; Win64; x64) AppleWebKit/537.36 (KHTML, like Gecko) Chrome/83.0.4103.116 Safari/537.36",130,"[0.9, 0.5, 0.1]","[0.8, 0.4, 0.2]","[u'black', u'blue', u'red']","[u'left', u'middle', u'right']","[0.8, 0.4, 0.2]","[u'low', u'high', u'medium']","red",51,"right","medium","True","False",1144,6250,NA
"A2J8KKPCKD5G33","Thu Sep 24 2020 01:35:06 GMT+0800 (China Standard Time)","Thu Sep 24 2020 01:50:34 GMT+0800 (China Standard Time)","Mozilla/5.0 (Windows NT 6.3; Win64; x64) AppleWebKit/537.36 (KHTML, like Gecko) Chrome/83.0.4103.116 Safari/537.36",131,"[0.9, 0.5, 0.1]","[0.8, 0.4, 0.2]","[u'black', u'blue', u'red']","[u'left', u'middle', u'right']","[0.8, 0.4, 0.2]","[u'low', u'high', u'medium']","red",51,"right","medium","True","False",1139,6350,NA
"A2J8KKPCKD5G33","Thu Sep 24 2020 01:35:06 GMT+0800 (China Standard Time)","Thu Sep 24 2020 01:50:34 GMT+0800 (China Standard Time)","Mozilla/5.0 (Windows NT 6.3; Win64; x64) AppleWebKit/537.36 (KHTML, like Gecko) Chrome/83.0.4103.116 Safari/537.36",132,"[0.9, 0.5, 0.1]","[0.8, 0.4, 0.2]","[u'black', u'blue', u'red']","[u'left', u'middle', u'right']","[0.8, 0.4, 0.2]","[u'low', u'high', u'medium']","red",51,"right","medium","False","False",703,6300,NA
"A2J8KKPCKD5G33","Thu Sep 24 2020 01:35:06 GMT+0800 (China Standard Time)","Thu Sep 24 2020 01:50:34 GMT+0800 (China Standard Time)","Mozilla/5.0 (Windows NT 6.3; Win64; x64) AppleWebKit/537.36 (KHTML, like Gecko) Chrome/83.0.4103.116 Safari/537.36",133,"[0.9, 0.5, 0.1]","[0.8, 0.4, 0.2]","[u'black', u'blue', u'red']","[u'left', u'middle', u'right']","[0.8, 0.4, 0.2]","[u'low', u'high', u'medium']","blue",50,"middle","high","True","False",1937,6400,NA
"A2J8KKPCKD5G33","Thu Sep 24 2020 01:35:06 GMT+0800 (China Standard Time)","Thu Sep 24 2020 01:50:34 GMT+0800 (China Standard Time)","Mozilla/5.0 (Windows NT 6.3; Win64; x64) AppleWebKit/537.36 (KHTML, like Gecko) Chrome/83.0.4103.116 Safari/537.36",134,"[0.9, 0.5, 0.1]","[0.8, 0.4, 0.2]","[u'black', u'blue', u'red']","[u'left', u'middle', u'right']","[0.8, 0.4, 0.2]","[u'low', u'high', u'medium']","blue",50,"middle","high","True","False",326,6500,NA
"A2J8KKPCKD5G33","Thu Sep 24 2020 01:35:06 GMT+0800 (China Standard Time)","Thu Sep 24 2020 01:50:34 GMT+0800 (China Standard Time)","Mozilla/5.0 (Windows NT 6.3; Win64; x64) AppleWebKit/537.36 (KHTML, like Gecko) Chrome/83.0.4103.116 Safari/537.36",135,"[0.9, 0.5, 0.1]","[0.8, 0.4, 0.2]","[u'black', u'blue', u'red']","[u'left', u'middle', u'right']","[0.8, 0.4, 0.2]","[u'low', u'high', u'medium']","blue",50,"middle","high","True","False",132,6600,NA
"A2J8KKPCKD5G33","Thu Sep 24 2020 01:35:06 GMT+0800 (China Standard Time)","Thu Sep 24 2020 01:50:34 GMT+0800 (China Standard Time)","Mozilla/5.0 (Windows NT 6.3; Win64; x64) AppleWebKit/537.36 (KHTML, like Gecko) Chrome/83.0.4103.116 Safari/537.36",136,"[0.9, 0.5, 0.1]","[0.8, 0.4, 0.2]","[u'black', u'blue', u'red']","[u'left', u'middle', u'right']","[0.8, 0.4, 0.2]","[u'low', u'high', u'medium']","blue",50,"middle","high","True","False",150,6700,NA
"A2J8KKPCKD5G33","Thu Sep 24 2020 01:35:06 GMT+0800 (China Standard Time)","Thu Sep 24 2020 01:50:34 GMT+0800 (China Standard Time)","Mozilla/5.0 (Windows NT 6.3; Win64; x64) AppleWebKit/537.36 (KHTML, like Gecko) Chrome/83.0.4103.116 Safari/537.36",137,"[0.9, 0.5, 0.1]","[0.8, 0.4, 0.2]","[u'black', u'blue', u'red']","[u'left', u'middle', u'right']","[0.8, 0.4, 0.2]","[u'low', u'high', u'medium']","blue",50,"middle","high","True","False",139,6800,NA
"A2J8KKPCKD5G33","Thu Sep 24 2020 01:35:06 GMT+0800 (China Standard Time)","Thu Sep 24 2020 01:50:34 GMT+0800 (China Standard Time)","Mozilla/5.0 (Windows NT 6.3; Win64; x64) AppleWebKit/537.36 (KHTML, like Gecko) Chrome/83.0.4103.116 Safari/537.36",138,"[0.9, 0.5, 0.1]","[0.8, 0.4, 0.2]","[u'black', u'blue', u'red']","[u'left', u'middle', u'right']","[0.8, 0.4, 0.2]","[u'low', u'high', u'medium']","blue",50,"middle","high","True","False",278,6900,NA
"A2J8KKPCKD5G33","Thu Sep 24 2020 01:35:06 GMT+0800 (China Standard Time)","Thu Sep 24 2020 01:50:34 GMT+0800 (China Standard Time)","Mozilla/5.0 (Windows NT 6.3; Win64; x64) AppleWebKit/537.36 (KHTML, like Gecko) Chrome/83.0.4103.116 Safari/537.36",139,"[0.9, 0.5, 0.1]","[0.8, 0.4, 0.2]","[u'black', u'blue', u'red']","[u'left', u'middle', u'right']","[0.8, 0.4, 0.2]","[u'low', u'high', u'medium']","black",49,"left","low","True","False",524,7000,NA
"A2J8KKPCKD5G33","Thu Sep 24 2020 01:35:06 GMT+0800 (China Standard Time)","Thu Sep 24 2020 01:50:34 GMT+0800 (China Standard Time)","Mozilla/5.0 (Windows NT 6.3; Win64; x64) AppleWebKit/537.36 (KHTML, like Gecko) Chrome/83.0.4103.116 Safari/537.36",140,"[0.9, 0.5, 0.1]","[0.8, 0.4, 0.2]","[u'black', u'blue', u'red']","[u'left', u'middle', u'right']","[0.8, 0.4, 0.2]","[u'low', u'high', u'medium']","red",51,"right","medium","False","False",815,6950,NA
"A2J8KKPCKD5G33","Thu Sep 24 2020 01:35:06 GMT+0800 (China Standard Time)","Thu Sep 24 2020 01:50:34 GMT+0800 (China Standard Time)","Mozilla/5.0 (Windows NT 6.3; Win64; x64) AppleWebKit/537.36 (KHTML, like Gecko) Chrome/83.0.4103.116 Safari/537.36",141,"[0.9, 0.5, 0.1]","[0.8, 0.4, 0.2]","[u'black', u'blue', u'red']","[u'left', u'middle', u'right']","[0.8, 0.4, 0.2]","[u'low', u'high', u'medium']","black",49,"left","low","False","False",783,6900,NA
"A2J8KKPCKD5G33","Thu Sep 24 2020 01:35:06 GMT+0800 (China Standard Time)","Thu Sep 24 2020 01:50:34 GMT+0800 (China Standard Time)","Mozilla/5.0 (Windows NT 6.3; Win64; x64) AppleWebKit/537.36 (KHTML, like Gecko) Chrome/83.0.4103.116 Safari/537.36",142,"[0.9, 0.5, 0.1]","[0.8, 0.4, 0.2]","[u'black', u'blue', u'red']","[u'left', u'middle', u'right']","[0.8, 0.4, 0.2]","[u'low', u'high', u'medium']","red",51,"right","medium","True","False",178,7000,NA
"A2J8KKPCKD5G33","Thu Sep 24 2020 01:35:06 GMT+0800 (China Standard Time)","Thu Sep 24 2020 01:50:34 GMT+0800 (China Standard Time)","Mozilla/5.0 (Windows NT 6.3; Win64; x64) AppleWebKit/537.36 (KHTML, like Gecko) Chrome/83.0.4103.116 Safari/537.36",143,"[0.9, 0.5, 0.1]","[0.8, 0.4, 0.2]","[u'black', u'blue', u'red']","[u'left', u'middle', u'right']","[0.8, 0.4, 0.2]","[u'low', u'high', u'medium']","red",51,"right","medium","False","False",658,6950,NA
"A2J8KKPCKD5G33","Thu Sep 24 2020 01:35:06 GMT+0800 (China Standard Time)","Thu Sep 24 2020 01:50:34 GMT+0800 (China Standard Time)","Mozilla/5.0 (Windows NT 6.3; Win64; x64) AppleWebKit/537.36 (KHTML, like Gecko) Chrome/83.0.4103.116 Safari/537.36",144,"[0.9, 0.5, 0.1]","[0.8, 0.4, 0.2]","[u'black', u'blue', u'red']","[u'left', u'middle', u'right']","[0.8, 0.4, 0.2]","[u'low', u'high', u'medium']","blue",50,"middle","high","False","False",682,6900,NA
"A2J8KKPCKD5G33","Thu Sep 24 2020 01:35:06 GMT+0800 (China Standard Time)","Thu Sep 24 2020 01:50:34 GMT+0800 (China Standard Time)","Mozilla/5.0 (Windows NT 6.3; Win64; x64) AppleWebKit/537.36 (KHTML, like Gecko) Chrome/83.0.4103.116 Safari/537.36",145,"[0.9, 0.5, 0.1]","[0.8, 0.4, 0.2]","[u'black', u'blue', u'red']","[u'left', u'middle', u'right']","[0.8, 0.4, 0.2]","[u'low', u'high', u'medium']","red",51,"right","medium","False","False",218,6850,NA
"A2J8KKPCKD5G33","Thu Sep 24 2020 01:35:06 GMT+0800 (China Standard Time)","Thu Sep 24 2020 01:50:34 GMT+0800 (China Standard Time)","Mozilla/5.0 (Windows NT 6.3; Win64; x64) AppleWebKit/537.36 (KHTML, like Gecko) Chrome/83.0.4103.116 Safari/537.36",146,"[0.9, 0.5, 0.1]","[0.8, 0.4, 0.2]","[u'black', u'blue', u'red']","[u'left', u'middle', u'right']","[0.8, 0.4, 0.2]","[u'low', u'high', u'medium']","black",49,"left","low","True","False",717,6950,NA
"A2J8KKPCKD5G33","Thu Sep 24 2020 01:35:06 GMT+0800 (China Standard Time)","Thu Sep 24 2020 01:50:34 GMT+0800 (China Standard Time)","Mozilla/5.0 (Windows NT 6.3; Win64; x64) AppleWebKit/537.36 (KHTML, like Gecko) Chrome/83.0.4103.116 Safari/537.36",147,"[0.9, 0.5, 0.1]","[0.8, 0.4, 0.2]","[u'black', u'blue', u'red']","[u'left', u'middle', u'right']","[0.8, 0.4, 0.2]","[u'low', u'high', u'medium']","black",49,"left","low","False","False",691,6900,NA
"A2J8KKPCKD5G33","Thu Sep 24 2020 01:35:06 GMT+0800 (China Standard Time)","Thu Sep 24 2020 01:50:34 GMT+0800 (China Standard Time)","Mozilla/5.0 (Windows NT 6.3; Win64; x64) AppleWebKit/537.36 (KHTML, like Gecko) Chrome/83.0.4103.116 Safari/537.36",148,"[0.9, 0.5, 0.1]","[0.8, 0.4, 0.2]","[u'black', u'blue', u'red']","[u'left', u'middle', u'right']","[0.8, 0.4, 0.2]","[u'low', u'high', u'medium']","red",51,"right","medium","False","False",209,6850,NA
"A2J8KKPCKD5G33","Thu Sep 24 2020 01:35:06 GMT+0800 (China Standard Time)","Thu Sep 24 2020 01:50:34 GMT+0800 (China Standard Time)","Mozilla/5.0 (Windows NT 6.3; Win64; x64) AppleWebKit/537.36 (KHTML, like Gecko) Chrome/83.0.4103.116 Safari/537.36",149,"[0.9, 0.5, 0.1]","[0.8, 0.4, 0.2]","[u'black', u'blue', u'red']","[u'left', u'middle', u'right']","[0.8, 0.4, 0.2]","[u'low', u'high', u'medium']","blue",50,"middle","high","True","False",668,6950,NA
"A2J8KKPCKD5G33","Thu Sep 24 2020 01:35:06 GMT+0800 (China Standard Time)","Thu Sep 24 2020 01:50:34 GMT+0800 (China Standard Time)","Mozilla/5.0 (Windows NT 6.3; Win64; x64) AppleWebKit/537.36 (KHTML, like Gecko) Chrome/83.0.4103.116 Safari/537.36",150,"[0.9, 0.5, 0.1]","[0.8, 0.4, 0.2]","[u'black', u'blue', u'red']","[u'left', u'middle', u'right']","[0.8, 0.4, 0.2]","[u'low', u'high', u'medium']","blue",50,"middle","high","True","False",379,7050,NA
"A2J8KKPCKD5G33","Thu Sep 24 2020 01:35:06 GMT+0800 (China Standard Time)","Thu Sep 24 2020 01:50:34 GMT+0800 (China Standard Time)","Mozilla/5.0 (Windows NT 6.3; Win64; x64) AppleWebKit/537.36 (KHTML, like Gecko) Chrome/83.0.4103.116 Safari/537.36",151,"[0.9, 0.5, 0.1]","[0.8, 0.4, 0.2]","[u'black', u'blue', u'red']","[u'left', u'middle', u'right']","[0.8, 0.4, 0.2]","[u'low', u'high', u'medium']","blue",50,"middle","high","True","False",498,7150,NA
"A2J8KKPCKD5G33","Thu Sep 24 2020 01:35:06 GMT+0800 (China Standard Time)","Thu Sep 24 2020 01:50:34 GMT+0800 (China Standard Time)","Mozilla/5.0 (Windows NT 6.3; Win64; x64) AppleWebKit/537.36 (KHTML, like Gecko) Chrome/83.0.4103.116 Safari/537.36",152,"[0.9, 0.5, 0.1]","[0.8, 0.4, 0.2]","[u'black', u'blue', u'red']","[u'left', u'middle', u'right']","[0.8, 0.4, 0.2]","[u'low', u'high', u'medium']","blue",50,"middle","high","False","False",725,7100,NA
"A2J8KKPCKD5G33","Thu Sep 24 2020 01:35:06 GMT+0800 (China Standard Time)","Thu Sep 24 2020 01:50:34 GMT+0800 (China Standard Time)","Mozilla/5.0 (Windows NT 6.3; Win64; x64) AppleWebKit/537.36 (KHTML, like Gecko) Chrome/83.0.4103.116 Safari/537.36",153,"[0.9, 0.5, 0.1]","[0.8, 0.4, 0.2]","[u'black', u'blue', u'red']","[u'left', u'middle', u'right']","[0.8, 0.4, 0.2]","[u'low', u'high', u'medium']","red",51,"right","medium","False","False",645,7050,NA
"A2J8KKPCKD5G33","Thu Sep 24 2020 01:35:06 GMT+0800 (China Standard Time)","Thu Sep 24 2020 01:50:34 GMT+0800 (China Standard Time)","Mozilla/5.0 (Windows NT 6.3; Win64; x64) AppleWebKit/537.36 (KHTML, like Gecko) Chrome/83.0.4103.116 Safari/537.36",154,"[0.9, 0.5, 0.1]","[0.8, 0.4, 0.2]","[u'black', u'blue', u'red']","[u'left', u'middle', u'right']","[0.8, 0.4, 0.2]","[u'low', u'high', u'medium']","red",51,"right","medium","True","False",820,7150,NA
"A2J8KKPCKD5G33","Thu Sep 24 2020 01:35:06 GMT+0800 (China Standard Time)","Thu Sep 24 2020 01:50:34 GMT+0800 (China Standard Time)","Mozilla/5.0 (Windows NT 6.3; Win64; x64) AppleWebKit/537.36 (KHTML, like Gecko) Chrome/83.0.4103.116 Safari/537.36",155,"[0.9, 0.5, 0.1]","[0.8, 0.4, 0.2]","[u'black', u'blue', u'red']","[u'left', u'middle', u'right']","[0.8, 0.4, 0.2]","[u'low', u'high', u'medium']","red",51,"right","medium","True","False",690,7250,NA
"A2J8KKPCKD5G33","Thu Sep 24 2020 01:35:06 GMT+0800 (China Standard Time)","Thu Sep 24 2020 01:50:34 GMT+0800 (China Standard Time)","Mozilla/5.0 (Windows NT 6.3; Win64; x64) AppleWebKit/537.36 (KHTML, like Gecko) Chrome/83.0.4103.116 Safari/537.36",156,"[0.9, 0.5, 0.1]","[0.8, 0.4, 0.2]","[u'black', u'blue', u'red']","[u'left', u'middle', u'right']","[0.8, 0.4, 0.2]","[u'low', u'high', u'medium']","red",51,"right","medium","False","False",694,7200,NA
"A2J8KKPCKD5G33","Thu Sep 24 2020 01:35:06 GMT+0800 (China Standard Time)","Thu Sep 24 2020 01:50:34 GMT+0800 (China Standard Time)","Mozilla/5.0 (Windows NT 6.3; Win64; x64) AppleWebKit/537.36 (KHTML, like Gecko) Chrome/83.0.4103.116 Safari/537.36",157,"[0.9, 0.5, 0.1]","[0.8, 0.4, 0.2]","[u'black', u'blue', u'red']","[u'left', u'middle', u'right']","[0.8, 0.4, 0.2]","[u'low', u'high', u'medium']","black",49,"left","low","False","False",912,7150,NA
"A2J8KKPCKD5G33","Thu Sep 24 2020 01:35:06 GMT+0800 (China Standard Time)","Thu Sep 24 2020 01:50:34 GMT+0800 (China Standard Time)","Mozilla/5.0 (Windows NT 6.3; Win64; x64) AppleWebKit/537.36 (KHTML, like Gecko) Chrome/83.0.4103.116 Safari/537.36",158,"[0.9, 0.5, 0.1]","[0.8, 0.4, 0.2]","[u'black', u'blue', u'red']","[u'left', u'middle', u'right']","[0.8, 0.4, 0.2]","[u'low', u'high', u'medium']","red",51,"right","medium","True","False",495,7250,NA
"A2J8KKPCKD5G33","Thu Sep 24 2020 01:35:06 GMT+0800 (China Standard Time)","Thu Sep 24 2020 01:50:34 GMT+0800 (China Standard Time)","Mozilla/5.0 (Windows NT 6.3; Win64; x64) AppleWebKit/537.36 (KHTML, like Gecko) Chrome/83.0.4103.116 Safari/537.36",159,"[0.9, 0.5, 0.1]","[0.8, 0.4, 0.2]","[u'black', u'blue', u'red']","[u'left', u'middle', u'right']","[0.8, 0.4, 0.2]","[u'low', u'high', u'medium']","red",51,"right","medium","True","False",599,7350,NA
"A2J8KKPCKD5G33","Thu Sep 24 2020 01:35:06 GMT+0800 (China Standard Time)","Thu Sep 24 2020 01:50:34 GMT+0800 (China Standard Time)","Mozilla/5.0 (Windows NT 6.3; Win64; x64) AppleWebKit/537.36 (KHTML, like Gecko) Chrome/83.0.4103.116 Safari/537.36",160,"[0.9, 0.5, 0.1]","[0.8, 0.4, 0.2]","[u'black', u'blue', u'red']","[u'left', u'middle', u'right']","[0.8, 0.4, 0.2]","[u'low', u'high', u'medium']","red",51,"right","medium","False","False",759,7300,NA
