"src_subject_id","start_time","end_time","browser","index","first_half_probabilities","second_half_probabilities","deck_color","deck_position","deck_probabilities","deck_contingencies","response_color","key_press","response_position","response_probability","reward_type","trial_type","rt","reward_tally","exclusion_reason"
"A1Q93M41J566U1","Wed Jan 29 2020 10:43:28 GMT-0600 (Central Standard Time)","Wed Jan 29 2020 10:51:46 GMT-0600 (Central Standard Time)","Mozilla/5.0 (Windows NT 6.2; Win64; x64) AppleWebKit/537.36 (KHTML, like Gecko) Chrome/75.0.3770.100 Safari/537.36",1,"[0.9, 0.5, 0.1]","[0.8, 0.4, 0.2]","[u'blue', u'black', u'red']","[u'left', u'middle', u'right']","[0.9, 0.5, 0.1]","[u'medium', u'low', u'high']","black",50,"middle","low","False","False",1211,-50,NA
"A1Q93M41J566U1","Wed Jan 29 2020 10:43:28 GMT-0600 (Central Standard Time)","Wed Jan 29 2020 10:51:46 GMT-0600 (Central Standard Time)","Mozilla/5.0 (Windows NT 6.2; Win64; x64) AppleWebKit/537.36 (KHTML, like Gecko) Chrome/75.0.3770.100 Safari/537.36",2,"[0.9, 0.5, 0.1]","[0.8, 0.4, 0.2]","[u'blue', u'black', u'red']","[u'left', u'middle', u'right']","[0.9, 0.5, 0.1]","[u'medium', u'low', u'high']","blue",49,"left","medium","True","False",417,50,NA
"A1Q93M41J566U1","Wed Jan 29 2020 10:43:28 GMT-0600 (Central Standard Time)","Wed Jan 29 2020 10:51:46 GMT-0600 (Central Standard Time)","Mozilla/5.0 (Windows NT 6.2; Win64; x64) AppleWebKit/537.36 (KHTML, like Gecko) Chrome/75.0.3770.100 Safari/537.36",3,"[0.9, 0.5, 0.1]","[0.8, 0.4, 0.2]","[u'blue', u'black', u'red']","[u'left', u'middle', u'right']","[0.9, 0.5, 0.1]","[u'medium', u'low', u'high']","blue",49,"left","medium","True","False",523,150,NA
"A1Q93M41J566U1","Wed Jan 29 2020 10:43:28 GMT-0600 (Central Standard Time)","Wed Jan 29 2020 10:51:46 GMT-0600 (Central Standard Time)","Mozilla/5.0 (Windows NT 6.2; Win64; x64) AppleWebKit/537.36 (KHTML, like Gecko) Chrome/75.0.3770.100 Safari/537.36",4,"[0.9, 0.5, 0.1]","[0.8, 0.4, 0.2]","[u'blue', u'black', u'red']","[u'left', u'middle', u'right']","[0.9, 0.5, 0.1]","[u'medium', u'low', u'high']","blue",49,"left","medium","False","False",293,100,NA
"A1Q93M41J566U1","Wed Jan 29 2020 10:43:28 GMT-0600 (Central Standard Time)","Wed Jan 29 2020 10:51:46 GMT-0600 (Central Standard Time)","Mozilla/5.0 (Windows NT 6.2; Win64; x64) AppleWebKit/537.36 (KHTML, like Gecko) Chrome/75.0.3770.100 Safari/537.36",5,"[0.9, 0.5, 0.1]","[0.8, 0.4, 0.2]","[u'blue', u'black', u'red']","[u'left', u'middle', u'right']","[0.9, 0.5, 0.1]","[u'medium', u'low', u'high']","black",50,"middle","low","False","False",312,50,NA
"A1Q93M41J566U1","Wed Jan 29 2020 10:43:28 GMT-0600 (Central Standard Time)","Wed Jan 29 2020 10:51:46 GMT-0600 (Central Standard Time)","Mozilla/5.0 (Windows NT 6.2; Win64; x64) AppleWebKit/537.36 (KHTML, like Gecko) Chrome/75.0.3770.100 Safari/537.36",6,"[0.9, 0.5, 0.1]","[0.8, 0.4, 0.2]","[u'blue', u'black', u'red']","[u'left', u'middle', u'right']","[0.9, 0.5, 0.1]","[u'medium', u'low', u'high']","red",51,"right","high","True","False",211,150,NA
"A1Q93M41J566U1","Wed Jan 29 2020 10:43:28 GMT-0600 (Central Standard Time)","Wed Jan 29 2020 10:51:46 GMT-0600 (Central Standard Time)","Mozilla/5.0 (Windows NT 6.2; Win64; x64) AppleWebKit/537.36 (KHTML, like Gecko) Chrome/75.0.3770.100 Safari/537.36",7,"[0.9, 0.5, 0.1]","[0.8, 0.4, 0.2]","[u'blue', u'black', u'red']","[u'left', u'middle', u'right']","[0.9, 0.5, 0.1]","[u'medium', u'low', u'high']","red",51,"right","high","True","False",218,250,NA
"A1Q93M41J566U1","Wed Jan 29 2020 10:43:28 GMT-0600 (Central Standard Time)","Wed Jan 29 2020 10:51:46 GMT-0600 (Central Standard Time)","Mozilla/5.0 (Windows NT 6.2; Win64; x64) AppleWebKit/537.36 (KHTML, like Gecko) Chrome/75.0.3770.100 Safari/537.36",8,"[0.9, 0.5, 0.1]","[0.8, 0.4, 0.2]","[u'blue', u'black', u'red']","[u'left', u'middle', u'right']","[0.9, 0.5, 0.1]","[u'medium', u'low', u'high']","black",50,"middle","low","False","False",237,200,NA
"A1Q93M41J566U1","Wed Jan 29 2020 10:43:28 GMT-0600 (Central Standard Time)","Wed Jan 29 2020 10:51:46 GMT-0600 (Central Standard Time)","Mozilla/5.0 (Windows NT 6.2; Win64; x64) AppleWebKit/537.36 (KHTML, like Gecko) Chrome/75.0.3770.100 Safari/537.36",9,"[0.9, 0.5, 0.1]","[0.8, 0.4, 0.2]","[u'blue', u'black', u'red']","[u'left', u'middle', u'right']","[0.9, 0.5, 0.1]","[u'medium', u'low', u'high']","blue",49,"left","medium","True","False",65,300,NA
"A1Q93M41J566U1","Wed Jan 29 2020 10:43:28 GMT-0600 (Central Standard Time)","Wed Jan 29 2020 10:51:46 GMT-0600 (Central Standard Time)","Mozilla/5.0 (Windows NT 6.2; Win64; x64) AppleWebKit/537.36 (KHTML, like Gecko) Chrome/75.0.3770.100 Safari/537.36",10,"[0.9, 0.5, 0.1]","[0.8, 0.4, 0.2]","[u'blue', u'black', u'red']","[u'left', u'middle', u'right']","[0.9, 0.5, 0.1]","[u'medium', u'low', u'high']","red",51,"right","high","True","False",195,400,NA
"A1Q93M41J566U1","Wed Jan 29 2020 10:43:28 GMT-0600 (Central Standard Time)","Wed Jan 29 2020 10:51:46 GMT-0600 (Central Standard Time)","Mozilla/5.0 (Windows NT 6.2; Win64; x64) AppleWebKit/537.36 (KHTML, like Gecko) Chrome/75.0.3770.100 Safari/537.36",11,"[0.9, 0.5, 0.1]","[0.8, 0.4, 0.2]","[u'blue', u'black', u'red']","[u'left', u'middle', u'right']","[0.9, 0.5, 0.1]","[u'medium', u'low', u'high']","blue",49,"left","medium","True","False",163,500,NA
"A1Q93M41J566U1","Wed Jan 29 2020 10:43:28 GMT-0600 (Central Standard Time)","Wed Jan 29 2020 10:51:46 GMT-0600 (Central Standard Time)","Mozilla/5.0 (Windows NT 6.2; Win64; x64) AppleWebKit/537.36 (KHTML, like Gecko) Chrome/75.0.3770.100 Safari/537.36",12,"[0.9, 0.5, 0.1]","[0.8, 0.4, 0.2]","[u'blue', u'black', u'red']","[u'left', u'middle', u'right']","[0.9, 0.5, 0.1]","[u'medium', u'low', u'high']","red",51,"right","high","True","False",153,600,NA
"A1Q93M41J566U1","Wed Jan 29 2020 10:43:28 GMT-0600 (Central Standard Time)","Wed Jan 29 2020 10:51:46 GMT-0600 (Central Standard Time)","Mozilla/5.0 (Windows NT 6.2; Win64; x64) AppleWebKit/537.36 (KHTML, like Gecko) Chrome/75.0.3770.100 Safari/537.36",13,"[0.9, 0.5, 0.1]","[0.8, 0.4, 0.2]","[u'blue', u'black', u'red']","[u'left', u'middle', u'right']","[0.9, 0.5, 0.1]","[u'medium', u'low', u'high']","blue",49,"left","medium","False","False",142,550,NA
"A1Q93M41J566U1","Wed Jan 29 2020 10:43:28 GMT-0600 (Central Standard Time)","Wed Jan 29 2020 10:51:46 GMT-0600 (Central Standard Time)","Mozilla/5.0 (Windows NT 6.2; Win64; x64) AppleWebKit/537.36 (KHTML, like Gecko) Chrome/75.0.3770.100 Safari/537.36",14,"[0.9, 0.5, 0.1]","[0.8, 0.4, 0.2]","[u'blue', u'black', u'red']","[u'left', u'middle', u'right']","[0.9, 0.5, 0.1]","[u'medium', u'low', u'high']","black",50,"middle","low","False","False",213,500,NA
"A1Q93M41J566U1","Wed Jan 29 2020 10:43:28 GMT-0600 (Central Standard Time)","Wed Jan 29 2020 10:51:46 GMT-0600 (Central Standard Time)","Mozilla/5.0 (Windows NT 6.2; Win64; x64) AppleWebKit/537.36 (KHTML, like Gecko) Chrome/75.0.3770.100 Safari/537.36",15,"[0.9, 0.5, 0.1]","[0.8, 0.4, 0.2]","[u'blue', u'black', u'red']","[u'left', u'middle', u'right']","[0.9, 0.5, 0.1]","[u'medium', u'low', u'high']","red",51,"right","high","True","False",204,600,NA
"A1Q93M41J566U1","Wed Jan 29 2020 10:43:28 GMT-0600 (Central Standard Time)","Wed Jan 29 2020 10:51:46 GMT-0600 (Central Standard Time)","Mozilla/5.0 (Windows NT 6.2; Win64; x64) AppleWebKit/537.36 (KHTML, like Gecko) Chrome/75.0.3770.100 Safari/537.36",16,"[0.9, 0.5, 0.1]","[0.8, 0.4, 0.2]","[u'blue', u'black', u'red']","[u'left', u'middle', u'right']","[0.9, 0.5, 0.1]","[u'medium', u'low', u'high']","blue",49,"left","medium","False","False",228,550,NA
"A1Q93M41J566U1","Wed Jan 29 2020 10:43:28 GMT-0600 (Central Standard Time)","Wed Jan 29 2020 10:51:46 GMT-0600 (Central Standard Time)","Mozilla/5.0 (Windows NT 6.2; Win64; x64) AppleWebKit/537.36 (KHTML, like Gecko) Chrome/75.0.3770.100 Safari/537.36",17,"[0.9, 0.5, 0.1]","[0.8, 0.4, 0.2]","[u'blue', u'black', u'red']","[u'left', u'middle', u'right']","[0.9, 0.5, 0.1]","[u'medium', u'low', u'high']","red",51,"right","high","True","False",122,650,NA
"A1Q93M41J566U1","Wed Jan 29 2020 10:43:28 GMT-0600 (Central Standard Time)","Wed Jan 29 2020 10:51:46 GMT-0600 (Central Standard Time)","Mozilla/5.0 (Windows NT 6.2; Win64; x64) AppleWebKit/537.36 (KHTML, like Gecko) Chrome/75.0.3770.100 Safari/537.36",18,"[0.9, 0.5, 0.1]","[0.8, 0.4, 0.2]","[u'blue', u'black', u'red']","[u'left', u'middle', u'right']","[0.9, 0.5, 0.1]","[u'medium', u'low', u'high']","black",50,"middle","low","False","False",219,600,NA
"A1Q93M41J566U1","Wed Jan 29 2020 10:43:28 GMT-0600 (Central Standard Time)","Wed Jan 29 2020 10:51:46 GMT-0600 (Central Standard Time)","Mozilla/5.0 (Windows NT 6.2; Win64; x64) AppleWebKit/537.36 (KHTML, like Gecko) Chrome/75.0.3770.100 Safari/537.36",19,"[0.9, 0.5, 0.1]","[0.8, 0.4, 0.2]","[u'blue', u'black', u'red']","[u'left', u'middle', u'right']","[0.9, 0.5, 0.1]","[u'medium', u'low', u'high']","red",51,"right","high","True","False",106,700,NA
"A1Q93M41J566U1","Wed Jan 29 2020 10:43:28 GMT-0600 (Central Standard Time)","Wed Jan 29 2020 10:51:46 GMT-0600 (Central Standard Time)","Mozilla/5.0 (Windows NT 6.2; Win64; x64) AppleWebKit/537.36 (KHTML, like Gecko) Chrome/75.0.3770.100 Safari/537.36",20,"[0.9, 0.5, 0.1]","[0.8, 0.4, 0.2]","[u'blue', u'black', u'red']","[u'left', u'middle', u'right']","[0.9, 0.5, 0.1]","[u'medium', u'low', u'high']","blue",49,"left","medium","True","False",142,800,NA
"A1Q93M41J566U1","Wed Jan 29 2020 10:43:28 GMT-0600 (Central Standard Time)","Wed Jan 29 2020 10:51:46 GMT-0600 (Central Standard Time)","Mozilla/5.0 (Windows NT 6.2; Win64; x64) AppleWebKit/537.36 (KHTML, like Gecko) Chrome/75.0.3770.100 Safari/537.36",21,"[0.9, 0.5, 0.1]","[0.8, 0.4, 0.2]","[u'blue', u'black', u'red']","[u'left', u'middle', u'right']","[0.9, 0.5, 0.1]","[u'medium', u'low', u'high']","red",51,"right","high","True","False",79,900,NA
"A1Q93M41J566U1","Wed Jan 29 2020 10:43:28 GMT-0600 (Central Standard Time)","Wed Jan 29 2020 10:51:46 GMT-0600 (Central Standard Time)","Mozilla/5.0 (Windows NT 6.2; Win64; x64) AppleWebKit/537.36 (KHTML, like Gecko) Chrome/75.0.3770.100 Safari/537.36",22,"[0.9, 0.5, 0.1]","[0.8, 0.4, 0.2]","[u'blue', u'black', u'red']","[u'left', u'middle', u'right']","[0.9, 0.5, 0.1]","[u'medium', u'low', u'high']","blue",49,"left","medium","True","False",173,1000,NA
"A1Q93M41J566U1","Wed Jan 29 2020 10:43:28 GMT-0600 (Central Standard Time)","Wed Jan 29 2020 10:51:46 GMT-0600 (Central Standard Time)","Mozilla/5.0 (Windows NT 6.2; Win64; x64) AppleWebKit/537.36 (KHTML, like Gecko) Chrome/75.0.3770.100 Safari/537.36",23,"[0.9, 0.5, 0.1]","[0.8, 0.4, 0.2]","[u'blue', u'black', u'red']","[u'left', u'middle', u'right']","[0.9, 0.5, 0.1]","[u'medium', u'low', u'high']","red",51,"right","high","True","False",121,1100,NA
"A1Q93M41J566U1","Wed Jan 29 2020 10:43:28 GMT-0600 (Central Standard Time)","Wed Jan 29 2020 10:51:46 GMT-0600 (Central Standard Time)","Mozilla/5.0 (Windows NT 6.2; Win64; x64) AppleWebKit/537.36 (KHTML, like Gecko) Chrome/75.0.3770.100 Safari/537.36",24,"[0.9, 0.5, 0.1]","[0.8, 0.4, 0.2]","[u'blue', u'black', u'red']","[u'left', u'middle', u'right']","[0.9, 0.5, 0.1]","[u'medium', u'low', u'high']","blue",49,"left","medium","True","False",154,1200,NA
"A1Q93M41J566U1","Wed Jan 29 2020 10:43:28 GMT-0600 (Central Standard Time)","Wed Jan 29 2020 10:51:46 GMT-0600 (Central Standard Time)","Mozilla/5.0 (Windows NT 6.2; Win64; x64) AppleWebKit/537.36 (KHTML, like Gecko) Chrome/75.0.3770.100 Safari/537.36",25,"[0.9, 0.5, 0.1]","[0.8, 0.4, 0.2]","[u'blue', u'black', u'red']","[u'left', u'middle', u'right']","[0.9, 0.5, 0.1]","[u'medium', u'low', u'high']","red",51,"right","high","False","False",182,1150,NA
"A1Q93M41J566U1","Wed Jan 29 2020 10:43:28 GMT-0600 (Central Standard Time)","Wed Jan 29 2020 10:51:46 GMT-0600 (Central Standard Time)","Mozilla/5.0 (Windows NT 6.2; Win64; x64) AppleWebKit/537.36 (KHTML, like Gecko) Chrome/75.0.3770.100 Safari/537.36",26,"[0.9, 0.5, 0.1]","[0.8, 0.4, 0.2]","[u'blue', u'black', u'red']","[u'left', u'middle', u'right']","[0.9, 0.5, 0.1]","[u'medium', u'low', u'high']","black",50,"middle","low","False","False",77,1100,NA
"A1Q93M41J566U1","Wed Jan 29 2020 10:43:28 GMT-0600 (Central Standard Time)","Wed Jan 29 2020 10:51:46 GMT-0600 (Central Standard Time)","Mozilla/5.0 (Windows NT 6.2; Win64; x64) AppleWebKit/537.36 (KHTML, like Gecko) Chrome/75.0.3770.100 Safari/537.36",27,"[0.9, 0.5, 0.1]","[0.8, 0.4, 0.2]","[u'blue', u'black', u'red']","[u'left', u'middle', u'right']","[0.9, 0.5, 0.1]","[u'medium', u'low', u'high']","blue",49,"left","medium","True","False",131,1200,NA
"A1Q93M41J566U1","Wed Jan 29 2020 10:43:28 GMT-0600 (Central Standard Time)","Wed Jan 29 2020 10:51:46 GMT-0600 (Central Standard Time)","Mozilla/5.0 (Windows NT 6.2; Win64; x64) AppleWebKit/537.36 (KHTML, like Gecko) Chrome/75.0.3770.100 Safari/537.36",28,"[0.9, 0.5, 0.1]","[0.8, 0.4, 0.2]","[u'blue', u'black', u'red']","[u'left', u'middle', u'right']","[0.9, 0.5, 0.1]","[u'medium', u'low', u'high']","black",50,"middle","low","False","False",223,1150,NA
"A1Q93M41J566U1","Wed Jan 29 2020 10:43:28 GMT-0600 (Central Standard Time)","Wed Jan 29 2020 10:51:46 GMT-0600 (Central Standard Time)","Mozilla/5.0 (Windows NT 6.2; Win64; x64) AppleWebKit/537.36 (KHTML, like Gecko) Chrome/75.0.3770.100 Safari/537.36",29,"[0.9, 0.5, 0.1]","[0.8, 0.4, 0.2]","[u'blue', u'black', u'red']","[u'left', u'middle', u'right']","[0.9, 0.5, 0.1]","[u'medium', u'low', u'high']","red",51,"right","high","True","False",119,1250,NA
"A1Q93M41J566U1","Wed Jan 29 2020 10:43:28 GMT-0600 (Central Standard Time)","Wed Jan 29 2020 10:51:46 GMT-0600 (Central Standard Time)","Mozilla/5.0 (Windows NT 6.2; Win64; x64) AppleWebKit/537.36 (KHTML, like Gecko) Chrome/75.0.3770.100 Safari/537.36",30,"[0.9, 0.5, 0.1]","[0.8, 0.4, 0.2]","[u'blue', u'black', u'red']","[u'left', u'middle', u'right']","[0.9, 0.5, 0.1]","[u'medium', u'low', u'high']","black",50,"middle","low","False","False",90,1200,NA
"A1Q93M41J566U1","Wed Jan 29 2020 10:43:28 GMT-0600 (Central Standard Time)","Wed Jan 29 2020 10:51:46 GMT-0600 (Central Standard Time)","Mozilla/5.0 (Windows NT 6.2; Win64; x64) AppleWebKit/537.36 (KHTML, like Gecko) Chrome/75.0.3770.100 Safari/537.36",31,"[0.9, 0.5, 0.1]","[0.8, 0.4, 0.2]","[u'blue', u'black', u'red']","[u'left', u'middle', u'right']","[0.9, 0.5, 0.1]","[u'medium', u'low', u'high']","blue",49,"left","medium","True","False",56,1300,NA
"A1Q93M41J566U1","Wed Jan 29 2020 10:43:28 GMT-0600 (Central Standard Time)","Wed Jan 29 2020 10:51:46 GMT-0600 (Central Standard Time)","Mozilla/5.0 (Windows NT 6.2; Win64; x64) AppleWebKit/537.36 (KHTML, like Gecko) Chrome/75.0.3770.100 Safari/537.36",32,"[0.9, 0.5, 0.1]","[0.8, 0.4, 0.2]","[u'blue', u'black', u'red']","[u'left', u'middle', u'right']","[0.9, 0.5, 0.1]","[u'medium', u'low', u'high']","red",51,"right","high","True","False",69,1400,NA
"A1Q93M41J566U1","Wed Jan 29 2020 10:43:28 GMT-0600 (Central Standard Time)","Wed Jan 29 2020 10:51:46 GMT-0600 (Central Standard Time)","Mozilla/5.0 (Windows NT 6.2; Win64; x64) AppleWebKit/537.36 (KHTML, like Gecko) Chrome/75.0.3770.100 Safari/537.36",33,"[0.9, 0.5, 0.1]","[0.8, 0.4, 0.2]","[u'blue', u'black', u'red']","[u'left', u'middle', u'right']","[0.9, 0.5, 0.1]","[u'medium', u'low', u'high']","blue",49,"left","medium","False","False",173,1350,NA
"A1Q93M41J566U1","Wed Jan 29 2020 10:43:28 GMT-0600 (Central Standard Time)","Wed Jan 29 2020 10:51:46 GMT-0600 (Central Standard Time)","Mozilla/5.0 (Windows NT 6.2; Win64; x64) AppleWebKit/537.36 (KHTML, like Gecko) Chrome/75.0.3770.100 Safari/537.36",34,"[0.9, 0.5, 0.1]","[0.8, 0.4, 0.2]","[u'blue', u'black', u'red']","[u'left', u'middle', u'right']","[0.9, 0.5, 0.1]","[u'medium', u'low', u'high']","red",51,"right","high","True","False",128,1450,NA
"A1Q93M41J566U1","Wed Jan 29 2020 10:43:28 GMT-0600 (Central Standard Time)","Wed Jan 29 2020 10:51:46 GMT-0600 (Central Standard Time)","Mozilla/5.0 (Windows NT 6.2; Win64; x64) AppleWebKit/537.36 (KHTML, like Gecko) Chrome/75.0.3770.100 Safari/537.36",35,"[0.9, 0.5, 0.1]","[0.8, 0.4, 0.2]","[u'blue', u'black', u'red']","[u'left', u'middle', u'right']","[0.9, 0.5, 0.1]","[u'medium', u'low', u'high']","blue",49,"left","medium","False","False",172,1400,NA
"A1Q93M41J566U1","Wed Jan 29 2020 10:43:28 GMT-0600 (Central Standard Time)","Wed Jan 29 2020 10:51:46 GMT-0600 (Central Standard Time)","Mozilla/5.0 (Windows NT 6.2; Win64; x64) AppleWebKit/537.36 (KHTML, like Gecko) Chrome/75.0.3770.100 Safari/537.36",36,"[0.9, 0.5, 0.1]","[0.8, 0.4, 0.2]","[u'blue', u'black', u'red']","[u'left', u'middle', u'right']","[0.9, 0.5, 0.1]","[u'medium', u'low', u'high']","blue",49,"left","medium","False","False",179,1350,NA
"A1Q93M41J566U1","Wed Jan 29 2020 10:43:28 GMT-0600 (Central Standard Time)","Wed Jan 29 2020 10:51:46 GMT-0600 (Central Standard Time)","Mozilla/5.0 (Windows NT 6.2; Win64; x64) AppleWebKit/537.36 (KHTML, like Gecko) Chrome/75.0.3770.100 Safari/537.36",37,"[0.9, 0.5, 0.1]","[0.8, 0.4, 0.2]","[u'blue', u'black', u'red']","[u'left', u'middle', u'right']","[0.9, 0.5, 0.1]","[u'medium', u'low', u'high']","red",51,"right","high","True","False",100,1450,NA
"A1Q93M41J566U1","Wed Jan 29 2020 10:43:28 GMT-0600 (Central Standard Time)","Wed Jan 29 2020 10:51:46 GMT-0600 (Central Standard Time)","Mozilla/5.0 (Windows NT 6.2; Win64; x64) AppleWebKit/537.36 (KHTML, like Gecko) Chrome/75.0.3770.100 Safari/537.36",38,"[0.9, 0.5, 0.1]","[0.8, 0.4, 0.2]","[u'blue', u'black', u'red']","[u'left', u'middle', u'right']","[0.9, 0.5, 0.1]","[u'medium', u'low', u'high']","red",51,"right","high","True","False",127,1550,NA
"A1Q93M41J566U1","Wed Jan 29 2020 10:43:28 GMT-0600 (Central Standard Time)","Wed Jan 29 2020 10:51:46 GMT-0600 (Central Standard Time)","Mozilla/5.0 (Windows NT 6.2; Win64; x64) AppleWebKit/537.36 (KHTML, like Gecko) Chrome/75.0.3770.100 Safari/537.36",39,"[0.9, 0.5, 0.1]","[0.8, 0.4, 0.2]","[u'blue', u'black', u'red']","[u'left', u'middle', u'right']","[0.9, 0.5, 0.1]","[u'medium', u'low', u'high']","red",51,"right","high","True","False",35,1650,NA
"A1Q93M41J566U1","Wed Jan 29 2020 10:43:28 GMT-0600 (Central Standard Time)","Wed Jan 29 2020 10:51:46 GMT-0600 (Central Standard Time)","Mozilla/5.0 (Windows NT 6.2; Win64; x64) AppleWebKit/537.36 (KHTML, like Gecko) Chrome/75.0.3770.100 Safari/537.36",40,"[0.9, 0.5, 0.1]","[0.8, 0.4, 0.2]","[u'blue', u'black', u'red']","[u'left', u'middle', u'right']","[0.9, 0.5, 0.1]","[u'medium', u'low', u'high']","black",50,"middle","low","False","False",125,1600,NA
"A1Q93M41J566U1","Wed Jan 29 2020 10:43:28 GMT-0600 (Central Standard Time)","Wed Jan 29 2020 10:51:46 GMT-0600 (Central Standard Time)","Mozilla/5.0 (Windows NT 6.2; Win64; x64) AppleWebKit/537.36 (KHTML, like Gecko) Chrome/75.0.3770.100 Safari/537.36",41,"[0.9, 0.5, 0.1]","[0.8, 0.4, 0.2]","[u'blue', u'black', u'red']","[u'left', u'middle', u'right']","[0.9, 0.5, 0.1]","[u'medium', u'high', u'low']","blue",49,"left","medium","True","False",342,1700,NA
"A1Q93M41J566U1","Wed Jan 29 2020 10:43:28 GMT-0600 (Central Standard Time)","Wed Jan 29 2020 10:51:46 GMT-0600 (Central Standard Time)","Mozilla/5.0 (Windows NT 6.2; Win64; x64) AppleWebKit/537.36 (KHTML, like Gecko) Chrome/75.0.3770.100 Safari/537.36",42,"[0.9, 0.5, 0.1]","[0.8, 0.4, 0.2]","[u'blue', u'black', u'red']","[u'left', u'middle', u'right']","[0.9, 0.5, 0.1]","[u'medium', u'high', u'low']","blue",49,"left","medium","True","False",163,1800,NA
"A1Q93M41J566U1","Wed Jan 29 2020 10:43:28 GMT-0600 (Central Standard Time)","Wed Jan 29 2020 10:51:46 GMT-0600 (Central Standard Time)","Mozilla/5.0 (Windows NT 6.2; Win64; x64) AppleWebKit/537.36 (KHTML, like Gecko) Chrome/75.0.3770.100 Safari/537.36",43,"[0.9, 0.5, 0.1]","[0.8, 0.4, 0.2]","[u'blue', u'black', u'red']","[u'left', u'middle', u'right']","[0.9, 0.5, 0.1]","[u'medium', u'high', u'low']","red",51,"right","low","False","False",110,1750,NA
"A1Q93M41J566U1","Wed Jan 29 2020 10:43:28 GMT-0600 (Central Standard Time)","Wed Jan 29 2020 10:51:46 GMT-0600 (Central Standard Time)","Mozilla/5.0 (Windows NT 6.2; Win64; x64) AppleWebKit/537.36 (KHTML, like Gecko) Chrome/75.0.3770.100 Safari/537.36",44,"[0.9, 0.5, 0.1]","[0.8, 0.4, 0.2]","[u'blue', u'black', u'red']","[u'left', u'middle', u'right']","[0.9, 0.5, 0.1]","[u'medium', u'high', u'low']","black",50,"middle","high","True","False",153,1850,NA
"A1Q93M41J566U1","Wed Jan 29 2020 10:43:28 GMT-0600 (Central Standard Time)","Wed Jan 29 2020 10:51:46 GMT-0600 (Central Standard Time)","Mozilla/5.0 (Windows NT 6.2; Win64; x64) AppleWebKit/537.36 (KHTML, like Gecko) Chrome/75.0.3770.100 Safari/537.36",45,"[0.9, 0.5, 0.1]","[0.8, 0.4, 0.2]","[u'blue', u'black', u'red']","[u'left', u'middle', u'right']","[0.9, 0.5, 0.1]","[u'medium', u'high', u'low']","black",50,"middle","high","True","False",152,1950,NA
"A1Q93M41J566U1","Wed Jan 29 2020 10:43:28 GMT-0600 (Central Standard Time)","Wed Jan 29 2020 10:51:46 GMT-0600 (Central Standard Time)","Mozilla/5.0 (Windows NT 6.2; Win64; x64) AppleWebKit/537.36 (KHTML, like Gecko) Chrome/75.0.3770.100 Safari/537.36",46,"[0.9, 0.5, 0.1]","[0.8, 0.4, 0.2]","[u'blue', u'black', u'red']","[u'left', u'middle', u'right']","[0.9, 0.5, 0.1]","[u'medium', u'high', u'low']","blue",49,"left","medium","False","False",147,1900,NA
"A1Q93M41J566U1","Wed Jan 29 2020 10:43:28 GMT-0600 (Central Standard Time)","Wed Jan 29 2020 10:51:46 GMT-0600 (Central Standard Time)","Mozilla/5.0 (Windows NT 6.2; Win64; x64) AppleWebKit/537.36 (KHTML, like Gecko) Chrome/75.0.3770.100 Safari/537.36",47,"[0.9, 0.5, 0.1]","[0.8, 0.4, 0.2]","[u'blue', u'black', u'red']","[u'left', u'middle', u'right']","[0.9, 0.5, 0.1]","[u'medium', u'high', u'low']","black",50,"middle","high","True","False",95,2000,NA
"A1Q93M41J566U1","Wed Jan 29 2020 10:43:28 GMT-0600 (Central Standard Time)","Wed Jan 29 2020 10:51:46 GMT-0600 (Central Standard Time)","Mozilla/5.0 (Windows NT 6.2; Win64; x64) AppleWebKit/537.36 (KHTML, like Gecko) Chrome/75.0.3770.100 Safari/537.36",48,"[0.9, 0.5, 0.1]","[0.8, 0.4, 0.2]","[u'blue', u'black', u'red']","[u'left', u'middle', u'right']","[0.9, 0.5, 0.1]","[u'medium', u'high', u'low']","black",50,"middle","high","True","False",28,2100,NA
"A1Q93M41J566U1","Wed Jan 29 2020 10:43:28 GMT-0600 (Central Standard Time)","Wed Jan 29 2020 10:51:46 GMT-0600 (Central Standard Time)","Mozilla/5.0 (Windows NT 6.2; Win64; x64) AppleWebKit/537.36 (KHTML, like Gecko) Chrome/75.0.3770.100 Safari/537.36",49,"[0.9, 0.5, 0.1]","[0.8, 0.4, 0.2]","[u'blue', u'black', u'red']","[u'left', u'middle', u'right']","[0.9, 0.5, 0.1]","[u'medium', u'high', u'low']","black",50,"middle","high","True","False",190,2200,NA
"A1Q93M41J566U1","Wed Jan 29 2020 10:43:28 GMT-0600 (Central Standard Time)","Wed Jan 29 2020 10:51:46 GMT-0600 (Central Standard Time)","Mozilla/5.0 (Windows NT 6.2; Win64; x64) AppleWebKit/537.36 (KHTML, like Gecko) Chrome/75.0.3770.100 Safari/537.36",50,"[0.9, 0.5, 0.1]","[0.8, 0.4, 0.2]","[u'blue', u'black', u'red']","[u'left', u'middle', u'right']","[0.9, 0.5, 0.1]","[u'medium', u'high', u'low']","black",50,"middle","high","True","False",144,2300,NA
"A1Q93M41J566U1","Wed Jan 29 2020 10:43:28 GMT-0600 (Central Standard Time)","Wed Jan 29 2020 10:51:46 GMT-0600 (Central Standard Time)","Mozilla/5.0 (Windows NT 6.2; Win64; x64) AppleWebKit/537.36 (KHTML, like Gecko) Chrome/75.0.3770.100 Safari/537.36",51,"[0.9, 0.5, 0.1]","[0.8, 0.4, 0.2]","[u'blue', u'black', u'red']","[u'left', u'middle', u'right']","[0.9, 0.5, 0.1]","[u'medium', u'high', u'low']","black",50,"middle","high","True","False",66,2400,NA
"A1Q93M41J566U1","Wed Jan 29 2020 10:43:28 GMT-0600 (Central Standard Time)","Wed Jan 29 2020 10:51:46 GMT-0600 (Central Standard Time)","Mozilla/5.0 (Windows NT 6.2; Win64; x64) AppleWebKit/537.36 (KHTML, like Gecko) Chrome/75.0.3770.100 Safari/537.36",52,"[0.9, 0.5, 0.1]","[0.8, 0.4, 0.2]","[u'blue', u'black', u'red']","[u'left', u'middle', u'right']","[0.9, 0.5, 0.1]","[u'medium', u'high', u'low']","black",50,"middle","high","True","False",155,2500,NA
"A1Q93M41J566U1","Wed Jan 29 2020 10:43:28 GMT-0600 (Central Standard Time)","Wed Jan 29 2020 10:51:46 GMT-0600 (Central Standard Time)","Mozilla/5.0 (Windows NT 6.2; Win64; x64) AppleWebKit/537.36 (KHTML, like Gecko) Chrome/75.0.3770.100 Safari/537.36",53,"[0.9, 0.5, 0.1]","[0.8, 0.4, 0.2]","[u'blue', u'black', u'red']","[u'left', u'middle', u'right']","[0.9, 0.5, 0.1]","[u'medium', u'high', u'low']","black",50,"middle","high","True","True",160,2600,NA
"A1Q93M41J566U1","Wed Jan 29 2020 10:43:28 GMT-0600 (Central Standard Time)","Wed Jan 29 2020 10:51:46 GMT-0600 (Central Standard Time)","Mozilla/5.0 (Windows NT 6.2; Win64; x64) AppleWebKit/537.36 (KHTML, like Gecko) Chrome/75.0.3770.100 Safari/537.36",54,"[0.9, 0.5, 0.1]","[0.8, 0.4, 0.2]","[u'blue', u'black', u'red']","[u'left', u'middle', u'right']","[0.9, 0.5, 0.1]","[u'high', u'medium', u'low']","black",50,"middle","medium","True","False",125,2700,NA
"A1Q93M41J566U1","Wed Jan 29 2020 10:43:28 GMT-0600 (Central Standard Time)","Wed Jan 29 2020 10:51:46 GMT-0600 (Central Standard Time)","Mozilla/5.0 (Windows NT 6.2; Win64; x64) AppleWebKit/537.36 (KHTML, like Gecko) Chrome/75.0.3770.100 Safari/537.36",55,"[0.9, 0.5, 0.1]","[0.8, 0.4, 0.2]","[u'blue', u'black', u'red']","[u'left', u'middle', u'right']","[0.9, 0.5, 0.1]","[u'high', u'medium', u'low']","black",50,"middle","medium","False","False",134,2650,NA
"A1Q93M41J566U1","Wed Jan 29 2020 10:43:28 GMT-0600 (Central Standard Time)","Wed Jan 29 2020 10:51:46 GMT-0600 (Central Standard Time)","Mozilla/5.0 (Windows NT 6.2; Win64; x64) AppleWebKit/537.36 (KHTML, like Gecko) Chrome/75.0.3770.100 Safari/537.36",56,"[0.9, 0.5, 0.1]","[0.8, 0.4, 0.2]","[u'blue', u'black', u'red']","[u'left', u'middle', u'right']","[0.9, 0.5, 0.1]","[u'high', u'medium', u'low']","black",50,"middle","medium","False","False",130,2600,NA
"A1Q93M41J566U1","Wed Jan 29 2020 10:43:28 GMT-0600 (Central Standard Time)","Wed Jan 29 2020 10:51:46 GMT-0600 (Central Standard Time)","Mozilla/5.0 (Windows NT 6.2; Win64; x64) AppleWebKit/537.36 (KHTML, like Gecko) Chrome/75.0.3770.100 Safari/537.36",57,"[0.9, 0.5, 0.1]","[0.8, 0.4, 0.2]","[u'blue', u'black', u'red']","[u'left', u'middle', u'right']","[0.9, 0.5, 0.1]","[u'high', u'medium', u'low']","black",50,"middle","medium","True","False",163,2700,NA
"A1Q93M41J566U1","Wed Jan 29 2020 10:43:28 GMT-0600 (Central Standard Time)","Wed Jan 29 2020 10:51:46 GMT-0600 (Central Standard Time)","Mozilla/5.0 (Windows NT 6.2; Win64; x64) AppleWebKit/537.36 (KHTML, like Gecko) Chrome/75.0.3770.100 Safari/537.36",58,"[0.9, 0.5, 0.1]","[0.8, 0.4, 0.2]","[u'blue', u'black', u'red']","[u'left', u'middle', u'right']","[0.9, 0.5, 0.1]","[u'high', u'medium', u'low']","black",50,"middle","medium","True","False",113,2800,NA
"A1Q93M41J566U1","Wed Jan 29 2020 10:43:28 GMT-0600 (Central Standard Time)","Wed Jan 29 2020 10:51:46 GMT-0600 (Central Standard Time)","Mozilla/5.0 (Windows NT 6.2; Win64; x64) AppleWebKit/537.36 (KHTML, like Gecko) Chrome/75.0.3770.100 Safari/537.36",59,"[0.9, 0.5, 0.1]","[0.8, 0.4, 0.2]","[u'blue', u'black', u'red']","[u'left', u'middle', u'right']","[0.9, 0.5, 0.1]","[u'high', u'medium', u'low']","black",50,"middle","medium","True","False",103,2900,NA
"A1Q93M41J566U1","Wed Jan 29 2020 10:43:28 GMT-0600 (Central Standard Time)","Wed Jan 29 2020 10:51:46 GMT-0600 (Central Standard Time)","Mozilla/5.0 (Windows NT 6.2; Win64; x64) AppleWebKit/537.36 (KHTML, like Gecko) Chrome/75.0.3770.100 Safari/537.36",60,"[0.9, 0.5, 0.1]","[0.8, 0.4, 0.2]","[u'blue', u'black', u'red']","[u'left', u'middle', u'right']","[0.9, 0.5, 0.1]","[u'high', u'medium', u'low']","black",50,"middle","medium","False","False",68,2850,NA
"A1Q93M41J566U1","Wed Jan 29 2020 10:43:28 GMT-0600 (Central Standard Time)","Wed Jan 29 2020 10:51:46 GMT-0600 (Central Standard Time)","Mozilla/5.0 (Windows NT 6.2; Win64; x64) AppleWebKit/537.36 (KHTML, like Gecko) Chrome/75.0.3770.100 Safari/537.36",61,"[0.9, 0.5, 0.1]","[0.8, 0.4, 0.2]","[u'blue', u'black', u'red']","[u'left', u'middle', u'right']","[0.9, 0.5, 0.1]","[u'high', u'medium', u'low']","black",50,"middle","medium","False","False",216,2800,NA
"A1Q93M41J566U1","Wed Jan 29 2020 10:43:28 GMT-0600 (Central Standard Time)","Wed Jan 29 2020 10:51:46 GMT-0600 (Central Standard Time)","Mozilla/5.0 (Windows NT 6.2; Win64; x64) AppleWebKit/537.36 (KHTML, like Gecko) Chrome/75.0.3770.100 Safari/537.36",62,"[0.9, 0.5, 0.1]","[0.8, 0.4, 0.2]","[u'blue', u'black', u'red']","[u'left', u'middle', u'right']","[0.9, 0.5, 0.1]","[u'high', u'medium', u'low']","black",50,"middle","medium","False","False",158,2750,NA
"A1Q93M41J566U1","Wed Jan 29 2020 10:43:28 GMT-0600 (Central Standard Time)","Wed Jan 29 2020 10:51:46 GMT-0600 (Central Standard Time)","Mozilla/5.0 (Windows NT 6.2; Win64; x64) AppleWebKit/537.36 (KHTML, like Gecko) Chrome/75.0.3770.100 Safari/537.36",63,"[0.9, 0.5, 0.1]","[0.8, 0.4, 0.2]","[u'blue', u'black', u'red']","[u'left', u'middle', u'right']","[0.9, 0.5, 0.1]","[u'high', u'medium', u'low']","black",50,"middle","medium","True","False",135,2850,NA
"A1Q93M41J566U1","Wed Jan 29 2020 10:43:28 GMT-0600 (Central Standard Time)","Wed Jan 29 2020 10:51:46 GMT-0600 (Central Standard Time)","Mozilla/5.0 (Windows NT 6.2; Win64; x64) AppleWebKit/537.36 (KHTML, like Gecko) Chrome/75.0.3770.100 Safari/537.36",64,"[0.9, 0.5, 0.1]","[0.8, 0.4, 0.2]","[u'blue', u'black', u'red']","[u'left', u'middle', u'right']","[0.9, 0.5, 0.1]","[u'high', u'medium', u'low']","black",50,"middle","medium","True","False",125,2950,NA
"A1Q93M41J566U1","Wed Jan 29 2020 10:43:28 GMT-0600 (Central Standard Time)","Wed Jan 29 2020 10:51:46 GMT-0600 (Central Standard Time)","Mozilla/5.0 (Windows NT 6.2; Win64; x64) AppleWebKit/537.36 (KHTML, like Gecko) Chrome/75.0.3770.100 Safari/537.36",65,"[0.9, 0.5, 0.1]","[0.8, 0.4, 0.2]","[u'blue', u'black', u'red']","[u'left', u'middle', u'right']","[0.9, 0.5, 0.1]","[u'high', u'medium', u'low']","black",50,"middle","medium","False","False",274,2900,NA
"A1Q93M41J566U1","Wed Jan 29 2020 10:43:28 GMT-0600 (Central Standard Time)","Wed Jan 29 2020 10:51:46 GMT-0600 (Central Standard Time)","Mozilla/5.0 (Windows NT 6.2; Win64; x64) AppleWebKit/537.36 (KHTML, like Gecko) Chrome/75.0.3770.100 Safari/537.36",66,"[0.9, 0.5, 0.1]","[0.8, 0.4, 0.2]","[u'blue', u'black', u'red']","[u'left', u'middle', u'right']","[0.9, 0.5, 0.1]","[u'high', u'medium', u'low']","black",50,"middle","medium","True","False",88,3000,NA
"A1Q93M41J566U1","Wed Jan 29 2020 10:43:28 GMT-0600 (Central Standard Time)","Wed Jan 29 2020 10:51:46 GMT-0600 (Central Standard Time)","Mozilla/5.0 (Windows NT 6.2; Win64; x64) AppleWebKit/537.36 (KHTML, like Gecko) Chrome/75.0.3770.100 Safari/537.36",67,"[0.9, 0.5, 0.1]","[0.8, 0.4, 0.2]","[u'blue', u'black', u'red']","[u'left', u'middle', u'right']","[0.9, 0.5, 0.1]","[u'high', u'medium', u'low']","black",50,"middle","medium","True","False",167,3100,NA
"A1Q93M41J566U1","Wed Jan 29 2020 10:43:28 GMT-0600 (Central Standard Time)","Wed Jan 29 2020 10:51:46 GMT-0600 (Central Standard Time)","Mozilla/5.0 (Windows NT 6.2; Win64; x64) AppleWebKit/537.36 (KHTML, like Gecko) Chrome/75.0.3770.100 Safari/537.36",68,"[0.9, 0.5, 0.1]","[0.8, 0.4, 0.2]","[u'blue', u'black', u'red']","[u'left', u'middle', u'right']","[0.9, 0.5, 0.1]","[u'high', u'medium', u'low']","black",50,"middle","medium","False","False",221,3050,NA
"A1Q93M41J566U1","Wed Jan 29 2020 10:43:28 GMT-0600 (Central Standard Time)","Wed Jan 29 2020 10:51:46 GMT-0600 (Central Standard Time)","Mozilla/5.0 (Windows NT 6.2; Win64; x64) AppleWebKit/537.36 (KHTML, like Gecko) Chrome/75.0.3770.100 Safari/537.36",69,"[0.9, 0.5, 0.1]","[0.8, 0.4, 0.2]","[u'blue', u'black', u'red']","[u'left', u'middle', u'right']","[0.9, 0.5, 0.1]","[u'high', u'medium', u'low']","black",50,"middle","medium","True","False",658,3150,NA
"A1Q93M41J566U1","Wed Jan 29 2020 10:43:28 GMT-0600 (Central Standard Time)","Wed Jan 29 2020 10:51:46 GMT-0600 (Central Standard Time)","Mozilla/5.0 (Windows NT 6.2; Win64; x64) AppleWebKit/537.36 (KHTML, like Gecko) Chrome/75.0.3770.100 Safari/537.36",70,"[0.9, 0.5, 0.1]","[0.8, 0.4, 0.2]","[u'blue', u'black', u'red']","[u'left', u'middle', u'right']","[0.9, 0.5, 0.1]","[u'high', u'medium', u'low']","black",50,"middle","medium","False","False",88,3100,NA
"A1Q93M41J566U1","Wed Jan 29 2020 10:43:28 GMT-0600 (Central Standard Time)","Wed Jan 29 2020 10:51:46 GMT-0600 (Central Standard Time)","Mozilla/5.0 (Windows NT 6.2; Win64; x64) AppleWebKit/537.36 (KHTML, like Gecko) Chrome/75.0.3770.100 Safari/537.36",71,"[0.9, 0.5, 0.1]","[0.8, 0.4, 0.2]","[u'blue', u'black', u'red']","[u'left', u'middle', u'right']","[0.9, 0.5, 0.1]","[u'high', u'medium', u'low']","black",50,"middle","medium","False","False",356,3050,NA
"A1Q93M41J566U1","Wed Jan 29 2020 10:43:28 GMT-0600 (Central Standard Time)","Wed Jan 29 2020 10:51:46 GMT-0600 (Central Standard Time)","Mozilla/5.0 (Windows NT 6.2; Win64; x64) AppleWebKit/537.36 (KHTML, like Gecko) Chrome/75.0.3770.100 Safari/537.36",72,"[0.9, 0.5, 0.1]","[0.8, 0.4, 0.2]","[u'blue', u'black', u'red']","[u'left', u'middle', u'right']","[0.9, 0.5, 0.1]","[u'high', u'medium', u'low']","black",50,"middle","medium","False","False",135,3000,NA
"A1Q93M41J566U1","Wed Jan 29 2020 10:43:28 GMT-0600 (Central Standard Time)","Wed Jan 29 2020 10:51:46 GMT-0600 (Central Standard Time)","Mozilla/5.0 (Windows NT 6.2; Win64; x64) AppleWebKit/537.36 (KHTML, like Gecko) Chrome/75.0.3770.100 Safari/537.36",73,"[0.9, 0.5, 0.1]","[0.8, 0.4, 0.2]","[u'blue', u'black', u'red']","[u'left', u'middle', u'right']","[0.9, 0.5, 0.1]","[u'high', u'medium', u'low']","black",50,"middle","medium","True","False",33,3100,NA
"A1Q93M41J566U1","Wed Jan 29 2020 10:43:28 GMT-0600 (Central Standard Time)","Wed Jan 29 2020 10:51:46 GMT-0600 (Central Standard Time)","Mozilla/5.0 (Windows NT 6.2; Win64; x64) AppleWebKit/537.36 (KHTML, like Gecko) Chrome/75.0.3770.100 Safari/537.36",74,"[0.9, 0.5, 0.1]","[0.8, 0.4, 0.2]","[u'blue', u'black', u'red']","[u'left', u'middle', u'right']","[0.9, 0.5, 0.1]","[u'high', u'medium', u'low']","black",50,"middle","medium","False","False",55,3050,NA
"A1Q93M41J566U1","Wed Jan 29 2020 10:43:28 GMT-0600 (Central Standard Time)","Wed Jan 29 2020 10:51:46 GMT-0600 (Central Standard Time)","Mozilla/5.0 (Windows NT 6.2; Win64; x64) AppleWebKit/537.36 (KHTML, like Gecko) Chrome/75.0.3770.100 Safari/537.36",75,"[0.9, 0.5, 0.1]","[0.8, 0.4, 0.2]","[u'blue', u'black', u'red']","[u'left', u'middle', u'right']","[0.9, 0.5, 0.1]","[u'high', u'medium', u'low']","black",50,"middle","medium","False","False",84,3000,NA
"A1Q93M41J566U1","Wed Jan 29 2020 10:43:28 GMT-0600 (Central Standard Time)","Wed Jan 29 2020 10:51:46 GMT-0600 (Central Standard Time)","Mozilla/5.0 (Windows NT 6.2; Win64; x64) AppleWebKit/537.36 (KHTML, like Gecko) Chrome/75.0.3770.100 Safari/537.36",76,"[0.9, 0.5, 0.1]","[0.8, 0.4, 0.2]","[u'blue', u'black', u'red']","[u'left', u'middle', u'right']","[0.9, 0.5, 0.1]","[u'high', u'medium', u'low']","blue",49,"left","high","True","False",215,3100,NA
"A1Q93M41J566U1","Wed Jan 29 2020 10:43:28 GMT-0600 (Central Standard Time)","Wed Jan 29 2020 10:51:46 GMT-0600 (Central Standard Time)","Mozilla/5.0 (Windows NT 6.2; Win64; x64) AppleWebKit/537.36 (KHTML, like Gecko) Chrome/75.0.3770.100 Safari/537.36",77,"[0.9, 0.5, 0.1]","[0.8, 0.4, 0.2]","[u'blue', u'black', u'red']","[u'left', u'middle', u'right']","[0.9, 0.5, 0.1]","[u'high', u'medium', u'low']","blue",49,"left","high","True","False",116,3200,NA
"A1Q93M41J566U1","Wed Jan 29 2020 10:43:28 GMT-0600 (Central Standard Time)","Wed Jan 29 2020 10:51:46 GMT-0600 (Central Standard Time)","Mozilla/5.0 (Windows NT 6.2; Win64; x64) AppleWebKit/537.36 (KHTML, like Gecko) Chrome/75.0.3770.100 Safari/537.36",78,"[0.9, 0.5, 0.1]","[0.8, 0.4, 0.2]","[u'blue', u'black', u'red']","[u'left', u'middle', u'right']","[0.9, 0.5, 0.1]","[u'high', u'medium', u'low']","black",50,"middle","medium","True","False",114,3300,NA
"A1Q93M41J566U1","Wed Jan 29 2020 10:43:28 GMT-0600 (Central Standard Time)","Wed Jan 29 2020 10:51:46 GMT-0600 (Central Standard Time)","Mozilla/5.0 (Windows NT 6.2; Win64; x64) AppleWebKit/537.36 (KHTML, like Gecko) Chrome/75.0.3770.100 Safari/537.36",79,"[0.9, 0.5, 0.1]","[0.8, 0.4, 0.2]","[u'blue', u'black', u'red']","[u'left', u'middle', u'right']","[0.9, 0.5, 0.1]","[u'high', u'medium', u'low']","black",50,"middle","medium","True","False",75,3400,NA
"A1Q93M41J566U1","Wed Jan 29 2020 10:43:28 GMT-0600 (Central Standard Time)","Wed Jan 29 2020 10:51:46 GMT-0600 (Central Standard Time)","Mozilla/5.0 (Windows NT 6.2; Win64; x64) AppleWebKit/537.36 (KHTML, like Gecko) Chrome/75.0.3770.100 Safari/537.36",80,"[0.9, 0.5, 0.1]","[0.8, 0.4, 0.2]","[u'blue', u'black', u'red']","[u'left', u'middle', u'right']","[0.9, 0.5, 0.1]","[u'high', u'medium', u'low']","blue",49,"left","high","True","False",206,3500,NA
"A1Q93M41J566U1","Wed Jan 29 2020 10:43:28 GMT-0600 (Central Standard Time)","Wed Jan 29 2020 10:51:46 GMT-0600 (Central Standard Time)","Mozilla/5.0 (Windows NT 6.2; Win64; x64) AppleWebKit/537.36 (KHTML, like Gecko) Chrome/75.0.3770.100 Safari/537.36",81,"[0.9, 0.5, 0.1]","[0.8, 0.4, 0.2]","[u'blue', u'black', u'red']","[u'left', u'middle', u'right']","[0.8, 0.4, 0.2]","[u'low', u'medium', u'high']","red",51,"right","high","True","False",361,3600,NA
"A1Q93M41J566U1","Wed Jan 29 2020 10:43:28 GMT-0600 (Central Standard Time)","Wed Jan 29 2020 10:51:46 GMT-0600 (Central Standard Time)","Mozilla/5.0 (Windows NT 6.2; Win64; x64) AppleWebKit/537.36 (KHTML, like Gecko) Chrome/75.0.3770.100 Safari/537.36",82,"[0.9, 0.5, 0.1]","[0.8, 0.4, 0.2]","[u'blue', u'black', u'red']","[u'left', u'middle', u'right']","[0.8, 0.4, 0.2]","[u'low', u'medium', u'high']","blue",49,"left","low","False","False",99,3550,NA
"A1Q93M41J566U1","Wed Jan 29 2020 10:43:28 GMT-0600 (Central Standard Time)","Wed Jan 29 2020 10:51:46 GMT-0600 (Central Standard Time)","Mozilla/5.0 (Windows NT 6.2; Win64; x64) AppleWebKit/537.36 (KHTML, like Gecko) Chrome/75.0.3770.100 Safari/537.36",83,"[0.9, 0.5, 0.1]","[0.8, 0.4, 0.2]","[u'blue', u'black', u'red']","[u'left', u'middle', u'right']","[0.8, 0.4, 0.2]","[u'low', u'medium', u'high']","black",50,"middle","medium","True","False",144,3650,NA
"A1Q93M41J566U1","Wed Jan 29 2020 10:43:28 GMT-0600 (Central Standard Time)","Wed Jan 29 2020 10:51:46 GMT-0600 (Central Standard Time)","Mozilla/5.0 (Windows NT 6.2; Win64; x64) AppleWebKit/537.36 (KHTML, like Gecko) Chrome/75.0.3770.100 Safari/537.36",84,"[0.9, 0.5, 0.1]","[0.8, 0.4, 0.2]","[u'blue', u'black', u'red']","[u'left', u'middle', u'right']","[0.8, 0.4, 0.2]","[u'low', u'medium', u'high']","red",51,"right","high","True","False",105,3750,NA
"A1Q93M41J566U1","Wed Jan 29 2020 10:43:28 GMT-0600 (Central Standard Time)","Wed Jan 29 2020 10:51:46 GMT-0600 (Central Standard Time)","Mozilla/5.0 (Windows NT 6.2; Win64; x64) AppleWebKit/537.36 (KHTML, like Gecko) Chrome/75.0.3770.100 Safari/537.36",85,"[0.9, 0.5, 0.1]","[0.8, 0.4, 0.2]","[u'blue', u'black', u'red']","[u'left', u'middle', u'right']","[0.8, 0.4, 0.2]","[u'low', u'medium', u'high']","red",51,"right","high","True","False",146,3850,NA
"A1Q93M41J566U1","Wed Jan 29 2020 10:43:28 GMT-0600 (Central Standard Time)","Wed Jan 29 2020 10:51:46 GMT-0600 (Central Standard Time)","Mozilla/5.0 (Windows NT 6.2; Win64; x64) AppleWebKit/537.36 (KHTML, like Gecko) Chrome/75.0.3770.100 Safari/537.36",86,"[0.9, 0.5, 0.1]","[0.8, 0.4, 0.2]","[u'blue', u'black', u'red']","[u'left', u'middle', u'right']","[0.8, 0.4, 0.2]","[u'low', u'medium', u'high']","black",50,"middle","medium","False","False",80,3800,NA
"A1Q93M41J566U1","Wed Jan 29 2020 10:43:28 GMT-0600 (Central Standard Time)","Wed Jan 29 2020 10:51:46 GMT-0600 (Central Standard Time)","Mozilla/5.0 (Windows NT 6.2; Win64; x64) AppleWebKit/537.36 (KHTML, like Gecko) Chrome/75.0.3770.100 Safari/537.36",87,"[0.9, 0.5, 0.1]","[0.8, 0.4, 0.2]","[u'blue', u'black', u'red']","[u'left', u'middle', u'right']","[0.8, 0.4, 0.2]","[u'low', u'medium', u'high']","black",50,"middle","medium","True","False",138,3900,NA
"A1Q93M41J566U1","Wed Jan 29 2020 10:43:28 GMT-0600 (Central Standard Time)","Wed Jan 29 2020 10:51:46 GMT-0600 (Central Standard Time)","Mozilla/5.0 (Windows NT 6.2; Win64; x64) AppleWebKit/537.36 (KHTML, like Gecko) Chrome/75.0.3770.100 Safari/537.36",88,"[0.9, 0.5, 0.1]","[0.8, 0.4, 0.2]","[u'blue', u'black', u'red']","[u'left', u'middle', u'right']","[0.8, 0.4, 0.2]","[u'low', u'medium', u'high']","black",50,"middle","medium","False","False",126,3850,NA
"A1Q93M41J566U1","Wed Jan 29 2020 10:43:28 GMT-0600 (Central Standard Time)","Wed Jan 29 2020 10:51:46 GMT-0600 (Central Standard Time)","Mozilla/5.0 (Windows NT 6.2; Win64; x64) AppleWebKit/537.36 (KHTML, like Gecko) Chrome/75.0.3770.100 Safari/537.36",89,"[0.9, 0.5, 0.1]","[0.8, 0.4, 0.2]","[u'blue', u'black', u'red']","[u'left', u'middle', u'right']","[0.8, 0.4, 0.2]","[u'low', u'medium', u'high']","black",50,"middle","medium","False","False",118,3800,NA
"A1Q93M41J566U1","Wed Jan 29 2020 10:43:28 GMT-0600 (Central Standard Time)","Wed Jan 29 2020 10:51:46 GMT-0600 (Central Standard Time)","Mozilla/5.0 (Windows NT 6.2; Win64; x64) AppleWebKit/537.36 (KHTML, like Gecko) Chrome/75.0.3770.100 Safari/537.36",90,"[0.9, 0.5, 0.1]","[0.8, 0.4, 0.2]","[u'blue', u'black', u'red']","[u'left', u'middle', u'right']","[0.8, 0.4, 0.2]","[u'low', u'medium', u'high']","red",51,"right","high","True","False",106,3900,NA
"A1Q93M41J566U1","Wed Jan 29 2020 10:43:28 GMT-0600 (Central Standard Time)","Wed Jan 29 2020 10:51:46 GMT-0600 (Central Standard Time)","Mozilla/5.0 (Windows NT 6.2; Win64; x64) AppleWebKit/537.36 (KHTML, like Gecko) Chrome/75.0.3770.100 Safari/537.36",91,"[0.9, 0.5, 0.1]","[0.8, 0.4, 0.2]","[u'blue', u'black', u'red']","[u'left', u'middle', u'right']","[0.8, 0.4, 0.2]","[u'low', u'medium', u'high']","red",51,"right","high","True","False",141,4000,NA
"A1Q93M41J566U1","Wed Jan 29 2020 10:43:28 GMT-0600 (Central Standard Time)","Wed Jan 29 2020 10:51:46 GMT-0600 (Central Standard Time)","Mozilla/5.0 (Windows NT 6.2; Win64; x64) AppleWebKit/537.36 (KHTML, like Gecko) Chrome/75.0.3770.100 Safari/537.36",92,"[0.9, 0.5, 0.1]","[0.8, 0.4, 0.2]","[u'blue', u'black', u'red']","[u'left', u'middle', u'right']","[0.8, 0.4, 0.2]","[u'low', u'medium', u'high']","red",51,"right","high","True","False",130,4100,NA
"A1Q93M41J566U1","Wed Jan 29 2020 10:43:28 GMT-0600 (Central Standard Time)","Wed Jan 29 2020 10:51:46 GMT-0600 (Central Standard Time)","Mozilla/5.0 (Windows NT 6.2; Win64; x64) AppleWebKit/537.36 (KHTML, like Gecko) Chrome/75.0.3770.100 Safari/537.36",93,"[0.9, 0.5, 0.1]","[0.8, 0.4, 0.2]","[u'blue', u'black', u'red']","[u'left', u'middle', u'right']","[0.8, 0.4, 0.2]","[u'low', u'medium', u'high']","red",51,"right","high","True","False",58,4200,NA
"A1Q93M41J566U1","Wed Jan 29 2020 10:43:28 GMT-0600 (Central Standard Time)","Wed Jan 29 2020 10:51:46 GMT-0600 (Central Standard Time)","Mozilla/5.0 (Windows NT 6.2; Win64; x64) AppleWebKit/537.36 (KHTML, like Gecko) Chrome/75.0.3770.100 Safari/537.36",94,"[0.9, 0.5, 0.1]","[0.8, 0.4, 0.2]","[u'blue', u'black', u'red']","[u'left', u'middle', u'right']","[0.8, 0.4, 0.2]","[u'low', u'medium', u'high']","black",50,"middle","medium","True","False",79,4300,NA
"A1Q93M41J566U1","Wed Jan 29 2020 10:43:28 GMT-0600 (Central Standard Time)","Wed Jan 29 2020 10:51:46 GMT-0600 (Central Standard Time)","Mozilla/5.0 (Windows NT 6.2; Win64; x64) AppleWebKit/537.36 (KHTML, like Gecko) Chrome/75.0.3770.100 Safari/537.36",95,"[0.9, 0.5, 0.1]","[0.8, 0.4, 0.2]","[u'blue', u'black', u'red']","[u'left', u'middle', u'right']","[0.8, 0.4, 0.2]","[u'low', u'medium', u'high']","red",51,"right","high","True","False",203,4400,NA
"A1Q93M41J566U1","Wed Jan 29 2020 10:43:28 GMT-0600 (Central Standard Time)","Wed Jan 29 2020 10:51:46 GMT-0600 (Central Standard Time)","Mozilla/5.0 (Windows NT 6.2; Win64; x64) AppleWebKit/537.36 (KHTML, like Gecko) Chrome/75.0.3770.100 Safari/537.36",96,"[0.9, 0.5, 0.1]","[0.8, 0.4, 0.2]","[u'blue', u'black', u'red']","[u'left', u'middle', u'right']","[0.8, 0.4, 0.2]","[u'low', u'medium', u'high']","black",50,"middle","medium","True","False",137,4500,NA
"A1Q93M41J566U1","Wed Jan 29 2020 10:43:28 GMT-0600 (Central Standard Time)","Wed Jan 29 2020 10:51:46 GMT-0600 (Central Standard Time)","Mozilla/5.0 (Windows NT 6.2; Win64; x64) AppleWebKit/537.36 (KHTML, like Gecko) Chrome/75.0.3770.100 Safari/537.36",97,"[0.9, 0.5, 0.1]","[0.8, 0.4, 0.2]","[u'blue', u'black', u'red']","[u'left', u'middle', u'right']","[0.8, 0.4, 0.2]","[u'low', u'medium', u'high']","red",51,"right","high","True","False",134,4600,NA
"A1Q93M41J566U1","Wed Jan 29 2020 10:43:28 GMT-0600 (Central Standard Time)","Wed Jan 29 2020 10:51:46 GMT-0600 (Central Standard Time)","Mozilla/5.0 (Windows NT 6.2; Win64; x64) AppleWebKit/537.36 (KHTML, like Gecko) Chrome/75.0.3770.100 Safari/537.36",98,"[0.9, 0.5, 0.1]","[0.8, 0.4, 0.2]","[u'blue', u'black', u'red']","[u'left', u'middle', u'right']","[0.8, 0.4, 0.2]","[u'low', u'medium', u'high']","black",50,"middle","medium","True","False",154,4700,NA
"A1Q93M41J566U1","Wed Jan 29 2020 10:43:28 GMT-0600 (Central Standard Time)","Wed Jan 29 2020 10:51:46 GMT-0600 (Central Standard Time)","Mozilla/5.0 (Windows NT 6.2; Win64; x64) AppleWebKit/537.36 (KHTML, like Gecko) Chrome/75.0.3770.100 Safari/537.36",99,"[0.9, 0.5, 0.1]","[0.8, 0.4, 0.2]","[u'blue', u'black', u'red']","[u'left', u'middle', u'right']","[0.8, 0.4, 0.2]","[u'low', u'medium', u'high']","red",51,"right","high","True","False",29,4800,NA
"A1Q93M41J566U1","Wed Jan 29 2020 10:43:28 GMT-0600 (Central Standard Time)","Wed Jan 29 2020 10:51:46 GMT-0600 (Central Standard Time)","Mozilla/5.0 (Windows NT 6.2; Win64; x64) AppleWebKit/537.36 (KHTML, like Gecko) Chrome/75.0.3770.100 Safari/537.36",100,"[0.9, 0.5, 0.1]","[0.8, 0.4, 0.2]","[u'blue', u'black', u'red']","[u'left', u'middle', u'right']","[0.8, 0.4, 0.2]","[u'low', u'medium', u'high']","black",50,"middle","medium","False","False",75,4750,NA
"A1Q93M41J566U1","Wed Jan 29 2020 10:43:28 GMT-0600 (Central Standard Time)","Wed Jan 29 2020 10:51:46 GMT-0600 (Central Standard Time)","Mozilla/5.0 (Windows NT 6.2; Win64; x64) AppleWebKit/537.36 (KHTML, like Gecko) Chrome/75.0.3770.100 Safari/537.36",101,"[0.9, 0.5, 0.1]","[0.8, 0.4, 0.2]","[u'blue', u'black', u'red']","[u'left', u'middle', u'right']","[0.8, 0.4, 0.2]","[u'low', u'medium', u'high']","red",51,"right","high","False","False",69,4700,NA
"A1Q93M41J566U1","Wed Jan 29 2020 10:43:28 GMT-0600 (Central Standard Time)","Wed Jan 29 2020 10:51:46 GMT-0600 (Central Standard Time)","Mozilla/5.0 (Windows NT 6.2; Win64; x64) AppleWebKit/537.36 (KHTML, like Gecko) Chrome/75.0.3770.100 Safari/537.36",102,"[0.9, 0.5, 0.1]","[0.8, 0.4, 0.2]","[u'blue', u'black', u'red']","[u'left', u'middle', u'right']","[0.8, 0.4, 0.2]","[u'low', u'medium', u'high']","black",50,"middle","medium","False","False",69,4650,NA
"A1Q93M41J566U1","Wed Jan 29 2020 10:43:28 GMT-0600 (Central Standard Time)","Wed Jan 29 2020 10:51:46 GMT-0600 (Central Standard Time)","Mozilla/5.0 (Windows NT 6.2; Win64; x64) AppleWebKit/537.36 (KHTML, like Gecko) Chrome/75.0.3770.100 Safari/537.36",103,"[0.9, 0.5, 0.1]","[0.8, 0.4, 0.2]","[u'blue', u'black', u'red']","[u'left', u'middle', u'right']","[0.8, 0.4, 0.2]","[u'low', u'medium', u'high']","red",51,"right","high","False","False",84,4600,NA
"A1Q93M41J566U1","Wed Jan 29 2020 10:43:28 GMT-0600 (Central Standard Time)","Wed Jan 29 2020 10:51:46 GMT-0600 (Central Standard Time)","Mozilla/5.0 (Windows NT 6.2; Win64; x64) AppleWebKit/537.36 (KHTML, like Gecko) Chrome/75.0.3770.100 Safari/537.36",104,"[0.9, 0.5, 0.1]","[0.8, 0.4, 0.2]","[u'blue', u'black', u'red']","[u'left', u'middle', u'right']","[0.8, 0.4, 0.2]","[u'low', u'medium', u'high']","black",50,"middle","medium","True","False",141,4700,NA
"A1Q93M41J566U1","Wed Jan 29 2020 10:43:28 GMT-0600 (Central Standard Time)","Wed Jan 29 2020 10:51:46 GMT-0600 (Central Standard Time)","Mozilla/5.0 (Windows NT 6.2; Win64; x64) AppleWebKit/537.36 (KHTML, like Gecko) Chrome/75.0.3770.100 Safari/537.36",105,"[0.9, 0.5, 0.1]","[0.8, 0.4, 0.2]","[u'blue', u'black', u'red']","[u'left', u'middle', u'right']","[0.8, 0.4, 0.2]","[u'low', u'medium', u'high']","red",51,"right","high","False","False",79,4650,NA
"A1Q93M41J566U1","Wed Jan 29 2020 10:43:28 GMT-0600 (Central Standard Time)","Wed Jan 29 2020 10:51:46 GMT-0600 (Central Standard Time)","Mozilla/5.0 (Windows NT 6.2; Win64; x64) AppleWebKit/537.36 (KHTML, like Gecko) Chrome/75.0.3770.100 Safari/537.36",106,"[0.9, 0.5, 0.1]","[0.8, 0.4, 0.2]","[u'blue', u'black', u'red']","[u'left', u'middle', u'right']","[0.8, 0.4, 0.2]","[u'low', u'medium', u'high']","black",50,"middle","medium","False","False",87,4600,NA
"A1Q93M41J566U1","Wed Jan 29 2020 10:43:28 GMT-0600 (Central Standard Time)","Wed Jan 29 2020 10:51:46 GMT-0600 (Central Standard Time)","Mozilla/5.0 (Windows NT 6.2; Win64; x64) AppleWebKit/537.36 (KHTML, like Gecko) Chrome/75.0.3770.100 Safari/537.36",107,"[0.9, 0.5, 0.1]","[0.8, 0.4, 0.2]","[u'blue', u'black', u'red']","[u'left', u'middle', u'right']","[0.8, 0.4, 0.2]","[u'low', u'medium', u'high']","red",51,"right","high","True","False",127,4700,NA
"A1Q93M41J566U1","Wed Jan 29 2020 10:43:28 GMT-0600 (Central Standard Time)","Wed Jan 29 2020 10:51:46 GMT-0600 (Central Standard Time)","Mozilla/5.0 (Windows NT 6.2; Win64; x64) AppleWebKit/537.36 (KHTML, like Gecko) Chrome/75.0.3770.100 Safari/537.36",108,"[0.9, 0.5, 0.1]","[0.8, 0.4, 0.2]","[u'blue', u'black', u'red']","[u'left', u'middle', u'right']","[0.8, 0.4, 0.2]","[u'low', u'medium', u'high']","black",50,"middle","medium","True","False",107,4800,NA
"A1Q93M41J566U1","Wed Jan 29 2020 10:43:28 GMT-0600 (Central Standard Time)","Wed Jan 29 2020 10:51:46 GMT-0600 (Central Standard Time)","Mozilla/5.0 (Windows NT 6.2; Win64; x64) AppleWebKit/537.36 (KHTML, like Gecko) Chrome/75.0.3770.100 Safari/537.36",109,"[0.9, 0.5, 0.1]","[0.8, 0.4, 0.2]","[u'blue', u'black', u'red']","[u'left', u'middle', u'right']","[0.8, 0.4, 0.2]","[u'low', u'medium', u'high']","red",51,"right","high","True","False",82,4900,NA
"A1Q93M41J566U1","Wed Jan 29 2020 10:43:28 GMT-0600 (Central Standard Time)","Wed Jan 29 2020 10:51:46 GMT-0600 (Central Standard Time)","Mozilla/5.0 (Windows NT 6.2; Win64; x64) AppleWebKit/537.36 (KHTML, like Gecko) Chrome/75.0.3770.100 Safari/537.36",110,"[0.9, 0.5, 0.1]","[0.8, 0.4, 0.2]","[u'blue', u'black', u'red']","[u'left', u'middle', u'right']","[0.8, 0.4, 0.2]","[u'low', u'medium', u'high']","black",50,"middle","medium","True","False",129,5000,NA
"A1Q93M41J566U1","Wed Jan 29 2020 10:43:28 GMT-0600 (Central Standard Time)","Wed Jan 29 2020 10:51:46 GMT-0600 (Central Standard Time)","Mozilla/5.0 (Windows NT 6.2; Win64; x64) AppleWebKit/537.36 (KHTML, like Gecko) Chrome/75.0.3770.100 Safari/537.36",111,"[0.9, 0.5, 0.1]","[0.8, 0.4, 0.2]","[u'blue', u'black', u'red']","[u'left', u'middle', u'right']","[0.8, 0.4, 0.2]","[u'low', u'medium', u'high']","red",51,"right","high","True","False",132,5100,NA
"A1Q93M41J566U1","Wed Jan 29 2020 10:43:28 GMT-0600 (Central Standard Time)","Wed Jan 29 2020 10:51:46 GMT-0600 (Central Standard Time)","Mozilla/5.0 (Windows NT 6.2; Win64; x64) AppleWebKit/537.36 (KHTML, like Gecko) Chrome/75.0.3770.100 Safari/537.36",112,"[0.9, 0.5, 0.1]","[0.8, 0.4, 0.2]","[u'blue', u'black', u'red']","[u'left', u'middle', u'right']","[0.8, 0.4, 0.2]","[u'low', u'medium', u'high']","black",50,"middle","medium","False","False",89,5050,NA
"A1Q93M41J566U1","Wed Jan 29 2020 10:43:28 GMT-0600 (Central Standard Time)","Wed Jan 29 2020 10:51:46 GMT-0600 (Central Standard Time)","Mozilla/5.0 (Windows NT 6.2; Win64; x64) AppleWebKit/537.36 (KHTML, like Gecko) Chrome/75.0.3770.100 Safari/537.36",113,"[0.9, 0.5, 0.1]","[0.8, 0.4, 0.2]","[u'blue', u'black', u'red']","[u'left', u'middle', u'right']","[0.8, 0.4, 0.2]","[u'low', u'medium', u'high']","red",51,"right","high","False","False",67,5000,NA
"A1Q93M41J566U1","Wed Jan 29 2020 10:43:28 GMT-0600 (Central Standard Time)","Wed Jan 29 2020 10:51:46 GMT-0600 (Central Standard Time)","Mozilla/5.0 (Windows NT 6.2; Win64; x64) AppleWebKit/537.36 (KHTML, like Gecko) Chrome/75.0.3770.100 Safari/537.36",114,"[0.9, 0.5, 0.1]","[0.8, 0.4, 0.2]","[u'blue', u'black', u'red']","[u'left', u'middle', u'right']","[0.8, 0.4, 0.2]","[u'low', u'medium', u'high']","black",50,"middle","medium","False","False",432,4950,NA
"A1Q93M41J566U1","Wed Jan 29 2020 10:43:28 GMT-0600 (Central Standard Time)","Wed Jan 29 2020 10:51:46 GMT-0600 (Central Standard Time)","Mozilla/5.0 (Windows NT 6.2; Win64; x64) AppleWebKit/537.36 (KHTML, like Gecko) Chrome/75.0.3770.100 Safari/537.36",115,"[0.9, 0.5, 0.1]","[0.8, 0.4, 0.2]","[u'blue', u'black', u'red']","[u'left', u'middle', u'right']","[0.8, 0.4, 0.2]","[u'low', u'medium', u'high']","blue",49,"left","low","False","False",40,4900,NA
"A1Q93M41J566U1","Wed Jan 29 2020 10:43:28 GMT-0600 (Central Standard Time)","Wed Jan 29 2020 10:51:46 GMT-0600 (Central Standard Time)","Mozilla/5.0 (Windows NT 6.2; Win64; x64) AppleWebKit/537.36 (KHTML, like Gecko) Chrome/75.0.3770.100 Safari/537.36",116,"[0.9, 0.5, 0.1]","[0.8, 0.4, 0.2]","[u'blue', u'black', u'red']","[u'left', u'middle', u'right']","[0.8, 0.4, 0.2]","[u'low', u'medium', u'high']","red",51,"right","high","True","False",46,5000,NA
"A1Q93M41J566U1","Wed Jan 29 2020 10:43:28 GMT-0600 (Central Standard Time)","Wed Jan 29 2020 10:51:46 GMT-0600 (Central Standard Time)","Mozilla/5.0 (Windows NT 6.2; Win64; x64) AppleWebKit/537.36 (KHTML, like Gecko) Chrome/75.0.3770.100 Safari/537.36",117,"[0.9, 0.5, 0.1]","[0.8, 0.4, 0.2]","[u'blue', u'black', u'red']","[u'left', u'middle', u'right']","[0.8, 0.4, 0.2]","[u'low', u'medium', u'high']","black",50,"middle","medium","False","False",150,4950,NA
"A1Q93M41J566U1","Wed Jan 29 2020 10:43:28 GMT-0600 (Central Standard Time)","Wed Jan 29 2020 10:51:46 GMT-0600 (Central Standard Time)","Mozilla/5.0 (Windows NT 6.2; Win64; x64) AppleWebKit/537.36 (KHTML, like Gecko) Chrome/75.0.3770.100 Safari/537.36",118,"[0.9, 0.5, 0.1]","[0.8, 0.4, 0.2]","[u'blue', u'black', u'red']","[u'left', u'middle', u'right']","[0.8, 0.4, 0.2]","[u'low', u'medium', u'high']","red",51,"right","high","False","False",147,4900,NA
"A1Q93M41J566U1","Wed Jan 29 2020 10:43:28 GMT-0600 (Central Standard Time)","Wed Jan 29 2020 10:51:46 GMT-0600 (Central Standard Time)","Mozilla/5.0 (Windows NT 6.2; Win64; x64) AppleWebKit/537.36 (KHTML, like Gecko) Chrome/75.0.3770.100 Safari/537.36",119,"[0.9, 0.5, 0.1]","[0.8, 0.4, 0.2]","[u'blue', u'black', u'red']","[u'left', u'middle', u'right']","[0.8, 0.4, 0.2]","[u'low', u'medium', u'high']","black",50,"middle","medium","True","False",63,5000,NA
"A1Q93M41J566U1","Wed Jan 29 2020 10:43:28 GMT-0600 (Central Standard Time)","Wed Jan 29 2020 10:51:46 GMT-0600 (Central Standard Time)","Mozilla/5.0 (Windows NT 6.2; Win64; x64) AppleWebKit/537.36 (KHTML, like Gecko) Chrome/75.0.3770.100 Safari/537.36",120,"[0.9, 0.5, 0.1]","[0.8, 0.4, 0.2]","[u'blue', u'black', u'red']","[u'left', u'middle', u'right']","[0.8, 0.4, 0.2]","[u'low', u'medium', u'high']","black",50,"middle","medium","False","False",91,4950,NA
"A1Q93M41J566U1","Wed Jan 29 2020 10:43:28 GMT-0600 (Central Standard Time)","Wed Jan 29 2020 10:51:46 GMT-0600 (Central Standard Time)","Mozilla/5.0 (Windows NT 6.2; Win64; x64) AppleWebKit/537.36 (KHTML, like Gecko) Chrome/75.0.3770.100 Safari/537.36",121,"[0.9, 0.5, 0.1]","[0.8, 0.4, 0.2]","[u'blue', u'black', u'red']","[u'left', u'middle', u'right']","[0.8, 0.4, 0.2]","[u'low', u'high', u'medium']","blue",49,"left","low","False","False",279,4900,NA
"A1Q93M41J566U1","Wed Jan 29 2020 10:43:28 GMT-0600 (Central Standard Time)","Wed Jan 29 2020 10:51:46 GMT-0600 (Central Standard Time)","Mozilla/5.0 (Windows NT 6.2; Win64; x64) AppleWebKit/537.36 (KHTML, like Gecko) Chrome/75.0.3770.100 Safari/537.36",122,"[0.9, 0.5, 0.1]","[0.8, 0.4, 0.2]","[u'blue', u'black', u'red']","[u'left', u'middle', u'right']","[0.8, 0.4, 0.2]","[u'low', u'high', u'medium']","black",50,"middle","high","True","False",153,5000,NA
"A1Q93M41J566U1","Wed Jan 29 2020 10:43:28 GMT-0600 (Central Standard Time)","Wed Jan 29 2020 10:51:46 GMT-0600 (Central Standard Time)","Mozilla/5.0 (Windows NT 6.2; Win64; x64) AppleWebKit/537.36 (KHTML, like Gecko) Chrome/75.0.3770.100 Safari/537.36",123,"[0.9, 0.5, 0.1]","[0.8, 0.4, 0.2]","[u'blue', u'black', u'red']","[u'left', u'middle', u'right']","[0.8, 0.4, 0.2]","[u'low', u'high', u'medium']","red",51,"right","medium","True","False",86,5100,NA
"A1Q93M41J566U1","Wed Jan 29 2020 10:43:28 GMT-0600 (Central Standard Time)","Wed Jan 29 2020 10:51:46 GMT-0600 (Central Standard Time)","Mozilla/5.0 (Windows NT 6.2; Win64; x64) AppleWebKit/537.36 (KHTML, like Gecko) Chrome/75.0.3770.100 Safari/537.36",124,"[0.9, 0.5, 0.1]","[0.8, 0.4, 0.2]","[u'blue', u'black', u'red']","[u'left', u'middle', u'right']","[0.8, 0.4, 0.2]","[u'low', u'high', u'medium']","black",50,"middle","high","False","False",127,5050,NA
"A1Q93M41J566U1","Wed Jan 29 2020 10:43:28 GMT-0600 (Central Standard Time)","Wed Jan 29 2020 10:51:46 GMT-0600 (Central Standard Time)","Mozilla/5.0 (Windows NT 6.2; Win64; x64) AppleWebKit/537.36 (KHTML, like Gecko) Chrome/75.0.3770.100 Safari/537.36",125,"[0.9, 0.5, 0.1]","[0.8, 0.4, 0.2]","[u'blue', u'black', u'red']","[u'left', u'middle', u'right']","[0.8, 0.4, 0.2]","[u'low', u'high', u'medium']","blue",49,"left","low","False","False",16,5000,NA
"A1Q93M41J566U1","Wed Jan 29 2020 10:43:28 GMT-0600 (Central Standard Time)","Wed Jan 29 2020 10:51:46 GMT-0600 (Central Standard Time)","Mozilla/5.0 (Windows NT 6.2; Win64; x64) AppleWebKit/537.36 (KHTML, like Gecko) Chrome/75.0.3770.100 Safari/537.36",126,"[0.9, 0.5, 0.1]","[0.8, 0.4, 0.2]","[u'blue', u'black', u'red']","[u'left', u'middle', u'right']","[0.8, 0.4, 0.2]","[u'low', u'high', u'medium']","red",51,"right","medium","False","False",72,4950,NA
"A1Q93M41J566U1","Wed Jan 29 2020 10:43:28 GMT-0600 (Central Standard Time)","Wed Jan 29 2020 10:51:46 GMT-0600 (Central Standard Time)","Mozilla/5.0 (Windows NT 6.2; Win64; x64) AppleWebKit/537.36 (KHTML, like Gecko) Chrome/75.0.3770.100 Safari/537.36",127,"[0.9, 0.5, 0.1]","[0.8, 0.4, 0.2]","[u'blue', u'black', u'red']","[u'left', u'middle', u'right']","[0.8, 0.4, 0.2]","[u'low', u'high', u'medium']","black",50,"middle","high","False","False",64,4900,NA
"A1Q93M41J566U1","Wed Jan 29 2020 10:43:28 GMT-0600 (Central Standard Time)","Wed Jan 29 2020 10:51:46 GMT-0600 (Central Standard Time)","Mozilla/5.0 (Windows NT 6.2; Win64; x64) AppleWebKit/537.36 (KHTML, like Gecko) Chrome/75.0.3770.100 Safari/537.36",128,"[0.9, 0.5, 0.1]","[0.8, 0.4, 0.2]","[u'blue', u'black', u'red']","[u'left', u'middle', u'right']","[0.8, 0.4, 0.2]","[u'low', u'high', u'medium']","red",51,"right","medium","False","False",18,4850,NA
"A1Q93M41J566U1","Wed Jan 29 2020 10:43:28 GMT-0600 (Central Standard Time)","Wed Jan 29 2020 10:51:46 GMT-0600 (Central Standard Time)","Mozilla/5.0 (Windows NT 6.2; Win64; x64) AppleWebKit/537.36 (KHTML, like Gecko) Chrome/75.0.3770.100 Safari/537.36",129,"[0.9, 0.5, 0.1]","[0.8, 0.4, 0.2]","[u'blue', u'black', u'red']","[u'left', u'middle', u'right']","[0.8, 0.4, 0.2]","[u'low', u'high', u'medium']","blue",49,"left","low","False","False",43,4800,NA
"A1Q93M41J566U1","Wed Jan 29 2020 10:43:28 GMT-0600 (Central Standard Time)","Wed Jan 29 2020 10:51:46 GMT-0600 (Central Standard Time)","Mozilla/5.0 (Windows NT 6.2; Win64; x64) AppleWebKit/537.36 (KHTML, like Gecko) Chrome/75.0.3770.100 Safari/537.36",130,"[0.9, 0.5, 0.1]","[0.8, 0.4, 0.2]","[u'blue', u'black', u'red']","[u'left', u'middle', u'right']","[0.8, 0.4, 0.2]","[u'low', u'high', u'medium']","black",50,"middle","high","True","False",101,4900,NA
"A1Q93M41J566U1","Wed Jan 29 2020 10:43:28 GMT-0600 (Central Standard Time)","Wed Jan 29 2020 10:51:46 GMT-0600 (Central Standard Time)","Mozilla/5.0 (Windows NT 6.2; Win64; x64) AppleWebKit/537.36 (KHTML, like Gecko) Chrome/75.0.3770.100 Safari/537.36",131,"[0.9, 0.5, 0.1]","[0.8, 0.4, 0.2]","[u'blue', u'black', u'red']","[u'left', u'middle', u'right']","[0.8, 0.4, 0.2]","[u'low', u'high', u'medium']","black",50,"middle","high","True","False",73,5000,NA
"A1Q93M41J566U1","Wed Jan 29 2020 10:43:28 GMT-0600 (Central Standard Time)","Wed Jan 29 2020 10:51:46 GMT-0600 (Central Standard Time)","Mozilla/5.0 (Windows NT 6.2; Win64; x64) AppleWebKit/537.36 (KHTML, like Gecko) Chrome/75.0.3770.100 Safari/537.36",132,"[0.9, 0.5, 0.1]","[0.8, 0.4, 0.2]","[u'blue', u'black', u'red']","[u'left', u'middle', u'right']","[0.8, 0.4, 0.2]","[u'low', u'high', u'medium']","black",50,"middle","high","True","False",106,5100,NA
"A1Q93M41J566U1","Wed Jan 29 2020 10:43:28 GMT-0600 (Central Standard Time)","Wed Jan 29 2020 10:51:46 GMT-0600 (Central Standard Time)","Mozilla/5.0 (Windows NT 6.2; Win64; x64) AppleWebKit/537.36 (KHTML, like Gecko) Chrome/75.0.3770.100 Safari/537.36",133,"[0.9, 0.5, 0.1]","[0.8, 0.4, 0.2]","[u'blue', u'black', u'red']","[u'left', u'middle', u'right']","[0.8, 0.4, 0.2]","[u'low', u'high', u'medium']","black",50,"middle","high","True","False",97,5200,NA
"A1Q93M41J566U1","Wed Jan 29 2020 10:43:28 GMT-0600 (Central Standard Time)","Wed Jan 29 2020 10:51:46 GMT-0600 (Central Standard Time)","Mozilla/5.0 (Windows NT 6.2; Win64; x64) AppleWebKit/537.36 (KHTML, like Gecko) Chrome/75.0.3770.100 Safari/537.36",134,"[0.9, 0.5, 0.1]","[0.8, 0.4, 0.2]","[u'blue', u'black', u'red']","[u'left', u'middle', u'right']","[0.8, 0.4, 0.2]","[u'low', u'high', u'medium']","black",50,"middle","high","True","False",150,5300,NA
"A1Q93M41J566U1","Wed Jan 29 2020 10:43:28 GMT-0600 (Central Standard Time)","Wed Jan 29 2020 10:51:46 GMT-0600 (Central Standard Time)","Mozilla/5.0 (Windows NT 6.2; Win64; x64) AppleWebKit/537.36 (KHTML, like Gecko) Chrome/75.0.3770.100 Safari/537.36",135,"[0.9, 0.5, 0.1]","[0.8, 0.4, 0.2]","[u'blue', u'black', u'red']","[u'left', u'middle', u'right']","[0.8, 0.4, 0.2]","[u'low', u'high', u'medium']","black",50,"middle","high","False","False",107,5250,NA
"A1Q93M41J566U1","Wed Jan 29 2020 10:43:28 GMT-0600 (Central Standard Time)","Wed Jan 29 2020 10:51:46 GMT-0600 (Central Standard Time)","Mozilla/5.0 (Windows NT 6.2; Win64; x64) AppleWebKit/537.36 (KHTML, like Gecko) Chrome/75.0.3770.100 Safari/537.36",136,"[0.9, 0.5, 0.1]","[0.8, 0.4, 0.2]","[u'blue', u'black', u'red']","[u'left', u'middle', u'right']","[0.8, 0.4, 0.2]","[u'low', u'high', u'medium']","black",50,"middle","high","True","False",124,5350,NA
"A1Q93M41J566U1","Wed Jan 29 2020 10:43:28 GMT-0600 (Central Standard Time)","Wed Jan 29 2020 10:51:46 GMT-0600 (Central Standard Time)","Mozilla/5.0 (Windows NT 6.2; Win64; x64) AppleWebKit/537.36 (KHTML, like Gecko) Chrome/75.0.3770.100 Safari/537.36",137,"[0.9, 0.5, 0.1]","[0.8, 0.4, 0.2]","[u'blue', u'black', u'red']","[u'left', u'middle', u'right']","[0.8, 0.4, 0.2]","[u'low', u'high', u'medium']","black",50,"middle","high","True","False",187,5450,NA
"A1Q93M41J566U1","Wed Jan 29 2020 10:43:28 GMT-0600 (Central Standard Time)","Wed Jan 29 2020 10:51:46 GMT-0600 (Central Standard Time)","Mozilla/5.0 (Windows NT 6.2; Win64; x64) AppleWebKit/537.36 (KHTML, like Gecko) Chrome/75.0.3770.100 Safari/537.36",138,"[0.9, 0.5, 0.1]","[0.8, 0.4, 0.2]","[u'blue', u'black', u'red']","[u'left', u'middle', u'right']","[0.8, 0.4, 0.2]","[u'low', u'high', u'medium']","black",50,"middle","high","True","True",136,5550,NA
"A1Q93M41J566U1","Wed Jan 29 2020 10:43:28 GMT-0600 (Central Standard Time)","Wed Jan 29 2020 10:51:46 GMT-0600 (Central Standard Time)","Mozilla/5.0 (Windows NT 6.2; Win64; x64) AppleWebKit/537.36 (KHTML, like Gecko) Chrome/75.0.3770.100 Safari/537.36",139,"[0.9, 0.5, 0.1]","[0.8, 0.4, 0.2]","[u'blue', u'black', u'red']","[u'left', u'middle', u'right']","[0.8, 0.4, 0.2]","[u'high', u'medium', u'low']","black",50,"middle","medium","True","False",95,5650,NA
"A1Q93M41J566U1","Wed Jan 29 2020 10:43:28 GMT-0600 (Central Standard Time)","Wed Jan 29 2020 10:51:46 GMT-0600 (Central Standard Time)","Mozilla/5.0 (Windows NT 6.2; Win64; x64) AppleWebKit/537.36 (KHTML, like Gecko) Chrome/75.0.3770.100 Safari/537.36",140,"[0.9, 0.5, 0.1]","[0.8, 0.4, 0.2]","[u'blue', u'black', u'red']","[u'left', u'middle', u'right']","[0.8, 0.4, 0.2]","[u'high', u'medium', u'low']","black",50,"middle","medium","False","False",99,5600,NA
"A1Q93M41J566U1","Wed Jan 29 2020 10:43:28 GMT-0600 (Central Standard Time)","Wed Jan 29 2020 10:51:46 GMT-0600 (Central Standard Time)","Mozilla/5.0 (Windows NT 6.2; Win64; x64) AppleWebKit/537.36 (KHTML, like Gecko) Chrome/75.0.3770.100 Safari/537.36",141,"[0.9, 0.5, 0.1]","[0.8, 0.4, 0.2]","[u'blue', u'black', u'red']","[u'left', u'middle', u'right']","[0.8, 0.4, 0.2]","[u'high', u'medium', u'low']","black",50,"middle","medium","False","False",66,5550,NA
"A1Q93M41J566U1","Wed Jan 29 2020 10:43:28 GMT-0600 (Central Standard Time)","Wed Jan 29 2020 10:51:46 GMT-0600 (Central Standard Time)","Mozilla/5.0 (Windows NT 6.2; Win64; x64) AppleWebKit/537.36 (KHTML, like Gecko) Chrome/75.0.3770.100 Safari/537.36",142,"[0.9, 0.5, 0.1]","[0.8, 0.4, 0.2]","[u'blue', u'black', u'red']","[u'left', u'middle', u'right']","[0.8, 0.4, 0.2]","[u'high', u'medium', u'low']","black",50,"middle","medium","False","False",163,5500,NA
"A1Q93M41J566U1","Wed Jan 29 2020 10:43:28 GMT-0600 (Central Standard Time)","Wed Jan 29 2020 10:51:46 GMT-0600 (Central Standard Time)","Mozilla/5.0 (Windows NT 6.2; Win64; x64) AppleWebKit/537.36 (KHTML, like Gecko) Chrome/75.0.3770.100 Safari/537.36",143,"[0.9, 0.5, 0.1]","[0.8, 0.4, 0.2]","[u'blue', u'black', u'red']","[u'left', u'middle', u'right']","[0.8, 0.4, 0.2]","[u'high', u'medium', u'low']","black",50,"middle","medium","True","False",105,5600,NA
"A1Q93M41J566U1","Wed Jan 29 2020 10:43:28 GMT-0600 (Central Standard Time)","Wed Jan 29 2020 10:51:46 GMT-0600 (Central Standard Time)","Mozilla/5.0 (Windows NT 6.2; Win64; x64) AppleWebKit/537.36 (KHTML, like Gecko) Chrome/75.0.3770.100 Safari/537.36",144,"[0.9, 0.5, 0.1]","[0.8, 0.4, 0.2]","[u'blue', u'black', u'red']","[u'left', u'middle', u'right']","[0.8, 0.4, 0.2]","[u'high', u'medium', u'low']","black",50,"middle","medium","True","False",125,5700,NA
"A1Q93M41J566U1","Wed Jan 29 2020 10:43:28 GMT-0600 (Central Standard Time)","Wed Jan 29 2020 10:51:46 GMT-0600 (Central Standard Time)","Mozilla/5.0 (Windows NT 6.2; Win64; x64) AppleWebKit/537.36 (KHTML, like Gecko) Chrome/75.0.3770.100 Safari/537.36",145,"[0.9, 0.5, 0.1]","[0.8, 0.4, 0.2]","[u'blue', u'black', u'red']","[u'left', u'middle', u'right']","[0.8, 0.4, 0.2]","[u'high', u'medium', u'low']","black",50,"middle","medium","False","False",159,5650,NA
"A1Q93M41J566U1","Wed Jan 29 2020 10:43:28 GMT-0600 (Central Standard Time)","Wed Jan 29 2020 10:51:46 GMT-0600 (Central Standard Time)","Mozilla/5.0 (Windows NT 6.2; Win64; x64) AppleWebKit/537.36 (KHTML, like Gecko) Chrome/75.0.3770.100 Safari/537.36",146,"[0.9, 0.5, 0.1]","[0.8, 0.4, 0.2]","[u'blue', u'black', u'red']","[u'left', u'middle', u'right']","[0.8, 0.4, 0.2]","[u'high', u'medium', u'low']","red",51,"right","low","False","False",167,5600,NA
"A1Q93M41J566U1","Wed Jan 29 2020 10:43:28 GMT-0600 (Central Standard Time)","Wed Jan 29 2020 10:51:46 GMT-0600 (Central Standard Time)","Mozilla/5.0 (Windows NT 6.2; Win64; x64) AppleWebKit/537.36 (KHTML, like Gecko) Chrome/75.0.3770.100 Safari/537.36",147,"[0.9, 0.5, 0.1]","[0.8, 0.4, 0.2]","[u'blue', u'black', u'red']","[u'left', u'middle', u'right']","[0.8, 0.4, 0.2]","[u'high', u'medium', u'low']","black",50,"middle","medium","True","False",209,5700,NA
"A1Q93M41J566U1","Wed Jan 29 2020 10:43:28 GMT-0600 (Central Standard Time)","Wed Jan 29 2020 10:51:46 GMT-0600 (Central Standard Time)","Mozilla/5.0 (Windows NT 6.2; Win64; x64) AppleWebKit/537.36 (KHTML, like Gecko) Chrome/75.0.3770.100 Safari/537.36",148,"[0.9, 0.5, 0.1]","[0.8, 0.4, 0.2]","[u'blue', u'black', u'red']","[u'left', u'middle', u'right']","[0.8, 0.4, 0.2]","[u'high', u'medium', u'low']","red",51,"right","low","False","False",112,5650,NA
"A1Q93M41J566U1","Wed Jan 29 2020 10:43:28 GMT-0600 (Central Standard Time)","Wed Jan 29 2020 10:51:46 GMT-0600 (Central Standard Time)","Mozilla/5.0 (Windows NT 6.2; Win64; x64) AppleWebKit/537.36 (KHTML, like Gecko) Chrome/75.0.3770.100 Safari/537.36",149,"[0.9, 0.5, 0.1]","[0.8, 0.4, 0.2]","[u'blue', u'black', u'red']","[u'left', u'middle', u'right']","[0.8, 0.4, 0.2]","[u'high', u'medium', u'low']","black",50,"middle","medium","False","False",110,5600,NA
"A1Q93M41J566U1","Wed Jan 29 2020 10:43:28 GMT-0600 (Central Standard Time)","Wed Jan 29 2020 10:51:46 GMT-0600 (Central Standard Time)","Mozilla/5.0 (Windows NT 6.2; Win64; x64) AppleWebKit/537.36 (KHTML, like Gecko) Chrome/75.0.3770.100 Safari/537.36",150,"[0.9, 0.5, 0.1]","[0.8, 0.4, 0.2]","[u'blue', u'black', u'red']","[u'left', u'middle', u'right']","[0.8, 0.4, 0.2]","[u'high', u'medium', u'low']","black",50,"middle","medium","True","False",383,5700,NA
"A1Q93M41J566U1","Wed Jan 29 2020 10:43:28 GMT-0600 (Central Standard Time)","Wed Jan 29 2020 10:51:46 GMT-0600 (Central Standard Time)","Mozilla/5.0 (Windows NT 6.2; Win64; x64) AppleWebKit/537.36 (KHTML, like Gecko) Chrome/75.0.3770.100 Safari/537.36",151,"[0.9, 0.5, 0.1]","[0.8, 0.4, 0.2]","[u'blue', u'black', u'red']","[u'left', u'middle', u'right']","[0.8, 0.4, 0.2]","[u'high', u'medium', u'low']","black",50,"middle","medium","True","False",96,5800,NA
"A1Q93M41J566U1","Wed Jan 29 2020 10:43:28 GMT-0600 (Central Standard Time)","Wed Jan 29 2020 10:51:46 GMT-0600 (Central Standard Time)","Mozilla/5.0 (Windows NT 6.2; Win64; x64) AppleWebKit/537.36 (KHTML, like Gecko) Chrome/75.0.3770.100 Safari/537.36",152,"[0.9, 0.5, 0.1]","[0.8, 0.4, 0.2]","[u'blue', u'black', u'red']","[u'left', u'middle', u'right']","[0.8, 0.4, 0.2]","[u'high', u'medium', u'low']","black",50,"middle","medium","True","False",223,5900,NA
"A1Q93M41J566U1","Wed Jan 29 2020 10:43:28 GMT-0600 (Central Standard Time)","Wed Jan 29 2020 10:51:46 GMT-0600 (Central Standard Time)","Mozilla/5.0 (Windows NT 6.2; Win64; x64) AppleWebKit/537.36 (KHTML, like Gecko) Chrome/75.0.3770.100 Safari/537.36",153,"[0.9, 0.5, 0.1]","[0.8, 0.4, 0.2]","[u'blue', u'black', u'red']","[u'left', u'middle', u'right']","[0.8, 0.4, 0.2]","[u'high', u'medium', u'low']","black",50,"middle","medium","True","False",143,6000,NA
"A1Q93M41J566U1","Wed Jan 29 2020 10:43:28 GMT-0600 (Central Standard Time)","Wed Jan 29 2020 10:51:46 GMT-0600 (Central Standard Time)","Mozilla/5.0 (Windows NT 6.2; Win64; x64) AppleWebKit/537.36 (KHTML, like Gecko) Chrome/75.0.3770.100 Safari/537.36",154,"[0.9, 0.5, 0.1]","[0.8, 0.4, 0.2]","[u'blue', u'black', u'red']","[u'left', u'middle', u'right']","[0.8, 0.4, 0.2]","[u'high', u'medium', u'low']","black",50,"middle","medium","True","False",436,6100,NA
"A1Q93M41J566U1","Wed Jan 29 2020 10:43:28 GMT-0600 (Central Standard Time)","Wed Jan 29 2020 10:51:46 GMT-0600 (Central Standard Time)","Mozilla/5.0 (Windows NT 6.2; Win64; x64) AppleWebKit/537.36 (KHTML, like Gecko) Chrome/75.0.3770.100 Safari/537.36",155,"[0.9, 0.5, 0.1]","[0.8, 0.4, 0.2]","[u'blue', u'black', u'red']","[u'left', u'middle', u'right']","[0.8, 0.4, 0.2]","[u'high', u'medium', u'low']","black",50,"middle","medium","False","False",88,6050,NA
"A1Q93M41J566U1","Wed Jan 29 2020 10:43:28 GMT-0600 (Central Standard Time)","Wed Jan 29 2020 10:51:46 GMT-0600 (Central Standard Time)","Mozilla/5.0 (Windows NT 6.2; Win64; x64) AppleWebKit/537.36 (KHTML, like Gecko) Chrome/75.0.3770.100 Safari/537.36",156,"[0.9, 0.5, 0.1]","[0.8, 0.4, 0.2]","[u'blue', u'black', u'red']","[u'left', u'middle', u'right']","[0.8, 0.4, 0.2]","[u'high', u'medium', u'low']","black",50,"middle","medium","False","False",104,6000,NA
"A1Q93M41J566U1","Wed Jan 29 2020 10:43:28 GMT-0600 (Central Standard Time)","Wed Jan 29 2020 10:51:46 GMT-0600 (Central Standard Time)","Mozilla/5.0 (Windows NT 6.2; Win64; x64) AppleWebKit/537.36 (KHTML, like Gecko) Chrome/75.0.3770.100 Safari/537.36",157,"[0.9, 0.5, 0.1]","[0.8, 0.4, 0.2]","[u'blue', u'black', u'red']","[u'left', u'middle', u'right']","[0.8, 0.4, 0.2]","[u'high', u'medium', u'low']","black",50,"middle","medium","False","False",189,5950,NA
"A1Q93M41J566U1","Wed Jan 29 2020 10:43:28 GMT-0600 (Central Standard Time)","Wed Jan 29 2020 10:51:46 GMT-0600 (Central Standard Time)","Mozilla/5.0 (Windows NT 6.2; Win64; x64) AppleWebKit/537.36 (KHTML, like Gecko) Chrome/75.0.3770.100 Safari/537.36",158,"[0.9, 0.5, 0.1]","[0.8, 0.4, 0.2]","[u'blue', u'black', u'red']","[u'left', u'middle', u'right']","[0.8, 0.4, 0.2]","[u'high', u'medium', u'low']","black",50,"middle","medium","False","False",202,5900,NA
"A1Q93M41J566U1","Wed Jan 29 2020 10:43:28 GMT-0600 (Central Standard Time)","Wed Jan 29 2020 10:51:46 GMT-0600 (Central Standard Time)","Mozilla/5.0 (Windows NT 6.2; Win64; x64) AppleWebKit/537.36 (KHTML, like Gecko) Chrome/75.0.3770.100 Safari/537.36",159,"[0.9, 0.5, 0.1]","[0.8, 0.4, 0.2]","[u'blue', u'black', u'red']","[u'left', u'middle', u'right']","[0.8, 0.4, 0.2]","[u'high', u'medium', u'low']","black",50,"middle","medium","False","False",203,5850,NA
"A1Q93M41J566U1","Wed Jan 29 2020 10:43:28 GMT-0600 (Central Standard Time)","Wed Jan 29 2020 10:51:46 GMT-0600 (Central Standard Time)","Mozilla/5.0 (Windows NT 6.2; Win64; x64) AppleWebKit/537.36 (KHTML, like Gecko) Chrome/75.0.3770.100 Safari/537.36",160,"[0.9, 0.5, 0.1]","[0.8, 0.4, 0.2]","[u'blue', u'black', u'red']","[u'left', u'middle', u'right']","[0.8, 0.4, 0.2]","[u'high', u'medium', u'low']","black",50,"middle","medium","True","False",414,5950,NA
