"src_subject_id","start_time","end_time","browser","index","first_half_probabilities","second_half_probabilities","deck_color","deck_position","deck_probabilities","deck_contingencies","response_color","key_press","response_position","response_probability","reward_type","trial_type","rt","reward_tally","exclusion_reason"
"A2UIGDOLX5RV95","Wed Sep 23 2020 11:20:08 GMT-0500 (Central Daylight Time)","Wed Sep 23 2020 11:26:37 GMT-0500 (Central Daylight Time)","Mozilla/5.0 (Windows NT 6.1; Win64; x64) AppleWebKit/537.36 (KHTML, like Gecko) Chrome/85.0.4183.121 Safari/537.36",1,"[0.9, 0.5, 0.1]","[0.8, 0.4, 0.2]","[u'black', u'blue', u'red']","[u'left', u'middle', u'right']","[0.9, 0.5, 0.1]","[u'high', u'low', u'medium']","black",49,"left","high","False","False",878,-50,NA
"A2UIGDOLX5RV95","Wed Sep 23 2020 11:20:08 GMT-0500 (Central Daylight Time)","Wed Sep 23 2020 11:26:37 GMT-0500 (Central Daylight Time)","Mozilla/5.0 (Windows NT 6.1; Win64; x64) AppleWebKit/537.36 (KHTML, like Gecko) Chrome/85.0.4183.121 Safari/537.36",2,"[0.9, 0.5, 0.1]","[0.8, 0.4, 0.2]","[u'black', u'blue', u'red']","[u'left', u'middle', u'right']","[0.9, 0.5, 0.1]","[u'high', u'low', u'medium']","blue",50,"middle","low","False","False",307,-100,NA
"A2UIGDOLX5RV95","Wed Sep 23 2020 11:20:08 GMT-0500 (Central Daylight Time)","Wed Sep 23 2020 11:26:37 GMT-0500 (Central Daylight Time)","Mozilla/5.0 (Windows NT 6.1; Win64; x64) AppleWebKit/537.36 (KHTML, like Gecko) Chrome/85.0.4183.121 Safari/537.36",3,"[0.9, 0.5, 0.1]","[0.8, 0.4, 0.2]","[u'black', u'blue', u'red']","[u'left', u'middle', u'right']","[0.9, 0.5, 0.1]","[u'high', u'low', u'medium']","red",51,"right","medium","True","False",329,0,NA
"A2UIGDOLX5RV95","Wed Sep 23 2020 11:20:08 GMT-0500 (Central Daylight Time)","Wed Sep 23 2020 11:26:37 GMT-0500 (Central Daylight Time)","Mozilla/5.0 (Windows NT 6.1; Win64; x64) AppleWebKit/537.36 (KHTML, like Gecko) Chrome/85.0.4183.121 Safari/537.36",4,"[0.9, 0.5, 0.1]","[0.8, 0.4, 0.2]","[u'black', u'blue', u'red']","[u'left', u'middle', u'right']","[0.9, 0.5, 0.1]","[u'high', u'low', u'medium']","red",51,"right","medium","False","False",269,-50,NA
"A2UIGDOLX5RV95","Wed Sep 23 2020 11:20:08 GMT-0500 (Central Daylight Time)","Wed Sep 23 2020 11:26:37 GMT-0500 (Central Daylight Time)","Mozilla/5.0 (Windows NT 6.1; Win64; x64) AppleWebKit/537.36 (KHTML, like Gecko) Chrome/85.0.4183.121 Safari/537.36",5,"[0.9, 0.5, 0.1]","[0.8, 0.4, 0.2]","[u'black', u'blue', u'red']","[u'left', u'middle', u'right']","[0.9, 0.5, 0.1]","[u'high', u'low', u'medium']","red",51,"right","medium","False","False",261,-100,NA
"A2UIGDOLX5RV95","Wed Sep 23 2020 11:20:08 GMT-0500 (Central Daylight Time)","Wed Sep 23 2020 11:26:37 GMT-0500 (Central Daylight Time)","Mozilla/5.0 (Windows NT 6.1; Win64; x64) AppleWebKit/537.36 (KHTML, like Gecko) Chrome/85.0.4183.121 Safari/537.36",6,"[0.9, 0.5, 0.1]","[0.8, 0.4, 0.2]","[u'black', u'blue', u'red']","[u'left', u'middle', u'right']","[0.9, 0.5, 0.1]","[u'high', u'low', u'medium']","black",49,"left","high","True","False",247,0,NA
"A2UIGDOLX5RV95","Wed Sep 23 2020 11:20:08 GMT-0500 (Central Daylight Time)","Wed Sep 23 2020 11:26:37 GMT-0500 (Central Daylight Time)","Mozilla/5.0 (Windows NT 6.1; Win64; x64) AppleWebKit/537.36 (KHTML, like Gecko) Chrome/85.0.4183.121 Safari/537.36",7,"[0.9, 0.5, 0.1]","[0.8, 0.4, 0.2]","[u'black', u'blue', u'red']","[u'left', u'middle', u'right']","[0.9, 0.5, 0.1]","[u'high', u'low', u'medium']","blue",50,"middle","low","False","False",470,-50,NA
"A2UIGDOLX5RV95","Wed Sep 23 2020 11:20:08 GMT-0500 (Central Daylight Time)","Wed Sep 23 2020 11:26:37 GMT-0500 (Central Daylight Time)","Mozilla/5.0 (Windows NT 6.1; Win64; x64) AppleWebKit/537.36 (KHTML, like Gecko) Chrome/85.0.4183.121 Safari/537.36",8,"[0.9, 0.5, 0.1]","[0.8, 0.4, 0.2]","[u'black', u'blue', u'red']","[u'left', u'middle', u'right']","[0.9, 0.5, 0.1]","[u'high', u'low', u'medium']","black",49,"left","high","True","False",255,50,NA
"A2UIGDOLX5RV95","Wed Sep 23 2020 11:20:08 GMT-0500 (Central Daylight Time)","Wed Sep 23 2020 11:26:37 GMT-0500 (Central Daylight Time)","Mozilla/5.0 (Windows NT 6.1; Win64; x64) AppleWebKit/537.36 (KHTML, like Gecko) Chrome/85.0.4183.121 Safari/537.36",9,"[0.9, 0.5, 0.1]","[0.8, 0.4, 0.2]","[u'black', u'blue', u'red']","[u'left', u'middle', u'right']","[0.9, 0.5, 0.1]","[u'high', u'low', u'medium']","black",49,"left","high","True","False",272,150,NA
"A2UIGDOLX5RV95","Wed Sep 23 2020 11:20:08 GMT-0500 (Central Daylight Time)","Wed Sep 23 2020 11:26:37 GMT-0500 (Central Daylight Time)","Mozilla/5.0 (Windows NT 6.1; Win64; x64) AppleWebKit/537.36 (KHTML, like Gecko) Chrome/85.0.4183.121 Safari/537.36",10,"[0.9, 0.5, 0.1]","[0.8, 0.4, 0.2]","[u'black', u'blue', u'red']","[u'left', u'middle', u'right']","[0.9, 0.5, 0.1]","[u'high', u'low', u'medium']","black",49,"left","high","True","False",279,250,NA
"A2UIGDOLX5RV95","Wed Sep 23 2020 11:20:08 GMT-0500 (Central Daylight Time)","Wed Sep 23 2020 11:26:37 GMT-0500 (Central Daylight Time)","Mozilla/5.0 (Windows NT 6.1; Win64; x64) AppleWebKit/537.36 (KHTML, like Gecko) Chrome/85.0.4183.121 Safari/537.36",11,"[0.9, 0.5, 0.1]","[0.8, 0.4, 0.2]","[u'black', u'blue', u'red']","[u'left', u'middle', u'right']","[0.9, 0.5, 0.1]","[u'high', u'low', u'medium']","black",49,"left","high","False","False",262,200,NA
"A2UIGDOLX5RV95","Wed Sep 23 2020 11:20:08 GMT-0500 (Central Daylight Time)","Wed Sep 23 2020 11:26:37 GMT-0500 (Central Daylight Time)","Mozilla/5.0 (Windows NT 6.1; Win64; x64) AppleWebKit/537.36 (KHTML, like Gecko) Chrome/85.0.4183.121 Safari/537.36",12,"[0.9, 0.5, 0.1]","[0.8, 0.4, 0.2]","[u'black', u'blue', u'red']","[u'left', u'middle', u'right']","[0.9, 0.5, 0.1]","[u'high', u'low', u'medium']","black",49,"left","high","True","False",204,300,NA
"A2UIGDOLX5RV95","Wed Sep 23 2020 11:20:08 GMT-0500 (Central Daylight Time)","Wed Sep 23 2020 11:26:37 GMT-0500 (Central Daylight Time)","Mozilla/5.0 (Windows NT 6.1; Win64; x64) AppleWebKit/537.36 (KHTML, like Gecko) Chrome/85.0.4183.121 Safari/537.36",13,"[0.9, 0.5, 0.1]","[0.8, 0.4, 0.2]","[u'black', u'blue', u'red']","[u'left', u'middle', u'right']","[0.9, 0.5, 0.1]","[u'high', u'low', u'medium']","black",49,"left","high","True","False",250,400,NA
"A2UIGDOLX5RV95","Wed Sep 23 2020 11:20:08 GMT-0500 (Central Daylight Time)","Wed Sep 23 2020 11:26:37 GMT-0500 (Central Daylight Time)","Mozilla/5.0 (Windows NT 6.1; Win64; x64) AppleWebKit/537.36 (KHTML, like Gecko) Chrome/85.0.4183.121 Safari/537.36",14,"[0.9, 0.5, 0.1]","[0.8, 0.4, 0.2]","[u'black', u'blue', u'red']","[u'left', u'middle', u'right']","[0.9, 0.5, 0.1]","[u'high', u'low', u'medium']","black",49,"left","high","True","False",275,500,NA
"A2UIGDOLX5RV95","Wed Sep 23 2020 11:20:08 GMT-0500 (Central Daylight Time)","Wed Sep 23 2020 11:26:37 GMT-0500 (Central Daylight Time)","Mozilla/5.0 (Windows NT 6.1; Win64; x64) AppleWebKit/537.36 (KHTML, like Gecko) Chrome/85.0.4183.121 Safari/537.36",15,"[0.9, 0.5, 0.1]","[0.8, 0.4, 0.2]","[u'black', u'blue', u'red']","[u'left', u'middle', u'right']","[0.9, 0.5, 0.1]","[u'high', u'low', u'medium']","black",49,"left","high","True","True",230,600,NA
"A2UIGDOLX5RV95","Wed Sep 23 2020 11:20:08 GMT-0500 (Central Daylight Time)","Wed Sep 23 2020 11:26:37 GMT-0500 (Central Daylight Time)","Mozilla/5.0 (Windows NT 6.1; Win64; x64) AppleWebKit/537.36 (KHTML, like Gecko) Chrome/85.0.4183.121 Safari/537.36",16,"[0.9, 0.5, 0.1]","[0.8, 0.4, 0.2]","[u'black', u'blue', u'red']","[u'left', u'middle', u'right']","[0.9, 0.5, 0.1]","[u'low', u'medium', u'high']","black",49,"left","low","False","False",283,550,NA
"A2UIGDOLX5RV95","Wed Sep 23 2020 11:20:08 GMT-0500 (Central Daylight Time)","Wed Sep 23 2020 11:26:37 GMT-0500 (Central Daylight Time)","Mozilla/5.0 (Windows NT 6.1; Win64; x64) AppleWebKit/537.36 (KHTML, like Gecko) Chrome/85.0.4183.121 Safari/537.36",17,"[0.9, 0.5, 0.1]","[0.8, 0.4, 0.2]","[u'black', u'blue', u'red']","[u'left', u'middle', u'right']","[0.9, 0.5, 0.1]","[u'low', u'medium', u'high']","black",49,"left","low","False","False",270,500,NA
"A2UIGDOLX5RV95","Wed Sep 23 2020 11:20:08 GMT-0500 (Central Daylight Time)","Wed Sep 23 2020 11:26:37 GMT-0500 (Central Daylight Time)","Mozilla/5.0 (Windows NT 6.1; Win64; x64) AppleWebKit/537.36 (KHTML, like Gecko) Chrome/85.0.4183.121 Safari/537.36",18,"[0.9, 0.5, 0.1]","[0.8, 0.4, 0.2]","[u'black', u'blue', u'red']","[u'left', u'middle', u'right']","[0.9, 0.5, 0.1]","[u'low', u'medium', u'high']","blue",50,"middle","medium","False","False",260,450,NA
"A2UIGDOLX5RV95","Wed Sep 23 2020 11:20:08 GMT-0500 (Central Daylight Time)","Wed Sep 23 2020 11:26:37 GMT-0500 (Central Daylight Time)","Mozilla/5.0 (Windows NT 6.1; Win64; x64) AppleWebKit/537.36 (KHTML, like Gecko) Chrome/85.0.4183.121 Safari/537.36",19,"[0.9, 0.5, 0.1]","[0.8, 0.4, 0.2]","[u'black', u'blue', u'red']","[u'left', u'middle', u'right']","[0.9, 0.5, 0.1]","[u'low', u'medium', u'high']","red",51,"right","high","True","False",258,550,NA
"A2UIGDOLX5RV95","Wed Sep 23 2020 11:20:08 GMT-0500 (Central Daylight Time)","Wed Sep 23 2020 11:26:37 GMT-0500 (Central Daylight Time)","Mozilla/5.0 (Windows NT 6.1; Win64; x64) AppleWebKit/537.36 (KHTML, like Gecko) Chrome/85.0.4183.121 Safari/537.36",20,"[0.9, 0.5, 0.1]","[0.8, 0.4, 0.2]","[u'black', u'blue', u'red']","[u'left', u'middle', u'right']","[0.9, 0.5, 0.1]","[u'low', u'medium', u'high']","red",51,"right","high","True","False",350,650,NA
"A2UIGDOLX5RV95","Wed Sep 23 2020 11:20:08 GMT-0500 (Central Daylight Time)","Wed Sep 23 2020 11:26:37 GMT-0500 (Central Daylight Time)","Mozilla/5.0 (Windows NT 6.1; Win64; x64) AppleWebKit/537.36 (KHTML, like Gecko) Chrome/85.0.4183.121 Safari/537.36",21,"[0.9, 0.5, 0.1]","[0.8, 0.4, 0.2]","[u'black', u'blue', u'red']","[u'left', u'middle', u'right']","[0.9, 0.5, 0.1]","[u'low', u'medium', u'high']","red",51,"right","high","False","False",216,600,NA
"A2UIGDOLX5RV95","Wed Sep 23 2020 11:20:08 GMT-0500 (Central Daylight Time)","Wed Sep 23 2020 11:26:37 GMT-0500 (Central Daylight Time)","Mozilla/5.0 (Windows NT 6.1; Win64; x64) AppleWebKit/537.36 (KHTML, like Gecko) Chrome/85.0.4183.121 Safari/537.36",22,"[0.9, 0.5, 0.1]","[0.8, 0.4, 0.2]","[u'black', u'blue', u'red']","[u'left', u'middle', u'right']","[0.9, 0.5, 0.1]","[u'low', u'medium', u'high']","red",51,"right","high","True","False",77,700,NA
"A2UIGDOLX5RV95","Wed Sep 23 2020 11:20:08 GMT-0500 (Central Daylight Time)","Wed Sep 23 2020 11:26:37 GMT-0500 (Central Daylight Time)","Mozilla/5.0 (Windows NT 6.1; Win64; x64) AppleWebKit/537.36 (KHTML, like Gecko) Chrome/85.0.4183.121 Safari/537.36",23,"[0.9, 0.5, 0.1]","[0.8, 0.4, 0.2]","[u'black', u'blue', u'red']","[u'left', u'middle', u'right']","[0.9, 0.5, 0.1]","[u'low', u'medium', u'high']","red",51,"right","high","True","False",291,800,NA
"A2UIGDOLX5RV95","Wed Sep 23 2020 11:20:08 GMT-0500 (Central Daylight Time)","Wed Sep 23 2020 11:26:37 GMT-0500 (Central Daylight Time)","Mozilla/5.0 (Windows NT 6.1; Win64; x64) AppleWebKit/537.36 (KHTML, like Gecko) Chrome/85.0.4183.121 Safari/537.36",24,"[0.9, 0.5, 0.1]","[0.8, 0.4, 0.2]","[u'black', u'blue', u'red']","[u'left', u'middle', u'right']","[0.9, 0.5, 0.1]","[u'low', u'medium', u'high']","red",51,"right","high","True","False",293,900,NA
"A2UIGDOLX5RV95","Wed Sep 23 2020 11:20:08 GMT-0500 (Central Daylight Time)","Wed Sep 23 2020 11:26:37 GMT-0500 (Central Daylight Time)","Mozilla/5.0 (Windows NT 6.1; Win64; x64) AppleWebKit/537.36 (KHTML, like Gecko) Chrome/85.0.4183.121 Safari/537.36",25,"[0.9, 0.5, 0.1]","[0.8, 0.4, 0.2]","[u'black', u'blue', u'red']","[u'left', u'middle', u'right']","[0.9, 0.5, 0.1]","[u'low', u'medium', u'high']","red",51,"right","high","True","False",313,1000,NA
"A2UIGDOLX5RV95","Wed Sep 23 2020 11:20:08 GMT-0500 (Central Daylight Time)","Wed Sep 23 2020 11:26:37 GMT-0500 (Central Daylight Time)","Mozilla/5.0 (Windows NT 6.1; Win64; x64) AppleWebKit/537.36 (KHTML, like Gecko) Chrome/85.0.4183.121 Safari/537.36",26,"[0.9, 0.5, 0.1]","[0.8, 0.4, 0.2]","[u'black', u'blue', u'red']","[u'left', u'middle', u'right']","[0.9, 0.5, 0.1]","[u'low', u'medium', u'high']","red",51,"right","high","True","False",377,1100,NA
"A2UIGDOLX5RV95","Wed Sep 23 2020 11:20:08 GMT-0500 (Central Daylight Time)","Wed Sep 23 2020 11:26:37 GMT-0500 (Central Daylight Time)","Mozilla/5.0 (Windows NT 6.1; Win64; x64) AppleWebKit/537.36 (KHTML, like Gecko) Chrome/85.0.4183.121 Safari/537.36",27,"[0.9, 0.5, 0.1]","[0.8, 0.4, 0.2]","[u'black', u'blue', u'red']","[u'left', u'middle', u'right']","[0.9, 0.5, 0.1]","[u'low', u'medium', u'high']","red",51,"right","high","True","True",367,1200,NA
"A2UIGDOLX5RV95","Wed Sep 23 2020 11:20:08 GMT-0500 (Central Daylight Time)","Wed Sep 23 2020 11:26:37 GMT-0500 (Central Daylight Time)","Mozilla/5.0 (Windows NT 6.1; Win64; x64) AppleWebKit/537.36 (KHTML, like Gecko) Chrome/85.0.4183.121 Safari/537.36",28,"[0.9, 0.5, 0.1]","[0.8, 0.4, 0.2]","[u'black', u'blue', u'red']","[u'left', u'middle', u'right']","[0.9, 0.5, 0.1]","[u'low', u'high', u'medium']","red",51,"right","medium","False","False",315,1150,NA
"A2UIGDOLX5RV95","Wed Sep 23 2020 11:20:08 GMT-0500 (Central Daylight Time)","Wed Sep 23 2020 11:26:37 GMT-0500 (Central Daylight Time)","Mozilla/5.0 (Windows NT 6.1; Win64; x64) AppleWebKit/537.36 (KHTML, like Gecko) Chrome/85.0.4183.121 Safari/537.36",29,"[0.9, 0.5, 0.1]","[0.8, 0.4, 0.2]","[u'black', u'blue', u'red']","[u'left', u'middle', u'right']","[0.9, 0.5, 0.1]","[u'low', u'high', u'medium']","red",51,"right","medium","False","False",299,1100,NA
"A2UIGDOLX5RV95","Wed Sep 23 2020 11:20:08 GMT-0500 (Central Daylight Time)","Wed Sep 23 2020 11:26:37 GMT-0500 (Central Daylight Time)","Mozilla/5.0 (Windows NT 6.1; Win64; x64) AppleWebKit/537.36 (KHTML, like Gecko) Chrome/85.0.4183.121 Safari/537.36",30,"[0.9, 0.5, 0.1]","[0.8, 0.4, 0.2]","[u'black', u'blue', u'red']","[u'left', u'middle', u'right']","[0.9, 0.5, 0.1]","[u'low', u'high', u'medium']","red",51,"right","medium","False","False",263,1050,NA
"A2UIGDOLX5RV95","Wed Sep 23 2020 11:20:08 GMT-0500 (Central Daylight Time)","Wed Sep 23 2020 11:26:37 GMT-0500 (Central Daylight Time)","Mozilla/5.0 (Windows NT 6.1; Win64; x64) AppleWebKit/537.36 (KHTML, like Gecko) Chrome/85.0.4183.121 Safari/537.36",31,"[0.9, 0.5, 0.1]","[0.8, 0.4, 0.2]","[u'black', u'blue', u'red']","[u'left', u'middle', u'right']","[0.9, 0.5, 0.1]","[u'low', u'high', u'medium']","blue",50,"middle","high","True","False",260,1150,NA
"A2UIGDOLX5RV95","Wed Sep 23 2020 11:20:08 GMT-0500 (Central Daylight Time)","Wed Sep 23 2020 11:26:37 GMT-0500 (Central Daylight Time)","Mozilla/5.0 (Windows NT 6.1; Win64; x64) AppleWebKit/537.36 (KHTML, like Gecko) Chrome/85.0.4183.121 Safari/537.36",32,"[0.9, 0.5, 0.1]","[0.8, 0.4, 0.2]","[u'black', u'blue', u'red']","[u'left', u'middle', u'right']","[0.9, 0.5, 0.1]","[u'low', u'high', u'medium']","blue",50,"middle","high","True","False",327,1250,NA
"A2UIGDOLX5RV95","Wed Sep 23 2020 11:20:08 GMT-0500 (Central Daylight Time)","Wed Sep 23 2020 11:26:37 GMT-0500 (Central Daylight Time)","Mozilla/5.0 (Windows NT 6.1; Win64; x64) AppleWebKit/537.36 (KHTML, like Gecko) Chrome/85.0.4183.121 Safari/537.36",33,"[0.9, 0.5, 0.1]","[0.8, 0.4, 0.2]","[u'black', u'blue', u'red']","[u'left', u'middle', u'right']","[0.9, 0.5, 0.1]","[u'low', u'high', u'medium']","blue",50,"middle","high","True","False",476,1350,NA
"A2UIGDOLX5RV95","Wed Sep 23 2020 11:20:08 GMT-0500 (Central Daylight Time)","Wed Sep 23 2020 11:26:37 GMT-0500 (Central Daylight Time)","Mozilla/5.0 (Windows NT 6.1; Win64; x64) AppleWebKit/537.36 (KHTML, like Gecko) Chrome/85.0.4183.121 Safari/537.36",34,"[0.9, 0.5, 0.1]","[0.8, 0.4, 0.2]","[u'black', u'blue', u'red']","[u'left', u'middle', u'right']","[0.9, 0.5, 0.1]","[u'low', u'high', u'medium']","blue",50,"middle","high","True","False",295,1450,NA
"A2UIGDOLX5RV95","Wed Sep 23 2020 11:20:08 GMT-0500 (Central Daylight Time)","Wed Sep 23 2020 11:26:37 GMT-0500 (Central Daylight Time)","Mozilla/5.0 (Windows NT 6.1; Win64; x64) AppleWebKit/537.36 (KHTML, like Gecko) Chrome/85.0.4183.121 Safari/537.36",35,"[0.9, 0.5, 0.1]","[0.8, 0.4, 0.2]","[u'black', u'blue', u'red']","[u'left', u'middle', u'right']","[0.9, 0.5, 0.1]","[u'low', u'high', u'medium']","blue",50,"middle","high","True","False",472,1550,NA
"A2UIGDOLX5RV95","Wed Sep 23 2020 11:20:08 GMT-0500 (Central Daylight Time)","Wed Sep 23 2020 11:26:37 GMT-0500 (Central Daylight Time)","Mozilla/5.0 (Windows NT 6.1; Win64; x64) AppleWebKit/537.36 (KHTML, like Gecko) Chrome/85.0.4183.121 Safari/537.36",36,"[0.9, 0.5, 0.1]","[0.8, 0.4, 0.2]","[u'black', u'blue', u'red']","[u'left', u'middle', u'right']","[0.9, 0.5, 0.1]","[u'low', u'high', u'medium']","blue",50,"middle","high","True","False",612,1650,NA
"A2UIGDOLX5RV95","Wed Sep 23 2020 11:20:08 GMT-0500 (Central Daylight Time)","Wed Sep 23 2020 11:26:37 GMT-0500 (Central Daylight Time)","Mozilla/5.0 (Windows NT 6.1; Win64; x64) AppleWebKit/537.36 (KHTML, like Gecko) Chrome/85.0.4183.121 Safari/537.36",37,"[0.9, 0.5, 0.1]","[0.8, 0.4, 0.2]","[u'black', u'blue', u'red']","[u'left', u'middle', u'right']","[0.9, 0.5, 0.1]","[u'low', u'high', u'medium']","blue",50,"middle","high","True","False",385,1750,NA
"A2UIGDOLX5RV95","Wed Sep 23 2020 11:20:08 GMT-0500 (Central Daylight Time)","Wed Sep 23 2020 11:26:37 GMT-0500 (Central Daylight Time)","Mozilla/5.0 (Windows NT 6.1; Win64; x64) AppleWebKit/537.36 (KHTML, like Gecko) Chrome/85.0.4183.121 Safari/537.36",38,"[0.9, 0.5, 0.1]","[0.8, 0.4, 0.2]","[u'black', u'blue', u'red']","[u'left', u'middle', u'right']","[0.9, 0.5, 0.1]","[u'low', u'high', u'medium']","blue",50,"middle","high","True","False",232,1850,NA
"A2UIGDOLX5RV95","Wed Sep 23 2020 11:20:08 GMT-0500 (Central Daylight Time)","Wed Sep 23 2020 11:26:37 GMT-0500 (Central Daylight Time)","Mozilla/5.0 (Windows NT 6.1; Win64; x64) AppleWebKit/537.36 (KHTML, like Gecko) Chrome/85.0.4183.121 Safari/537.36",39,"[0.9, 0.5, 0.1]","[0.8, 0.4, 0.2]","[u'black', u'blue', u'red']","[u'left', u'middle', u'right']","[0.9, 0.5, 0.1]","[u'low', u'high', u'medium']","blue",50,"middle","high","True","True",334,1950,NA
"A2UIGDOLX5RV95","Wed Sep 23 2020 11:20:08 GMT-0500 (Central Daylight Time)","Wed Sep 23 2020 11:26:37 GMT-0500 (Central Daylight Time)","Mozilla/5.0 (Windows NT 6.1; Win64; x64) AppleWebKit/537.36 (KHTML, like Gecko) Chrome/85.0.4183.121 Safari/537.36",40,"[0.9, 0.5, 0.1]","[0.8, 0.4, 0.2]","[u'black', u'blue', u'red']","[u'left', u'middle', u'right']","[0.9, 0.5, 0.1]","[u'high', u'medium', u'low']","blue",50,"middle","medium","False","False",327,1900,NA
"A2UIGDOLX5RV95","Wed Sep 23 2020 11:20:08 GMT-0500 (Central Daylight Time)","Wed Sep 23 2020 11:26:37 GMT-0500 (Central Daylight Time)","Mozilla/5.0 (Windows NT 6.1; Win64; x64) AppleWebKit/537.36 (KHTML, like Gecko) Chrome/85.0.4183.121 Safari/537.36",41,"[0.9, 0.5, 0.1]","[0.8, 0.4, 0.2]","[u'black', u'blue', u'red']","[u'left', u'middle', u'right']","[0.9, 0.5, 0.1]","[u'low', u'medium', u'high']","blue",50,"middle","medium","True","False",354,2000,NA
"A2UIGDOLX5RV95","Wed Sep 23 2020 11:20:08 GMT-0500 (Central Daylight Time)","Wed Sep 23 2020 11:26:37 GMT-0500 (Central Daylight Time)","Mozilla/5.0 (Windows NT 6.1; Win64; x64) AppleWebKit/537.36 (KHTML, like Gecko) Chrome/85.0.4183.121 Safari/537.36",42,"[0.9, 0.5, 0.1]","[0.8, 0.4, 0.2]","[u'black', u'blue', u'red']","[u'left', u'middle', u'right']","[0.9, 0.5, 0.1]","[u'low', u'medium', u'high']","blue",50,"middle","medium","False","False",376,1950,NA
"A2UIGDOLX5RV95","Wed Sep 23 2020 11:20:08 GMT-0500 (Central Daylight Time)","Wed Sep 23 2020 11:26:37 GMT-0500 (Central Daylight Time)","Mozilla/5.0 (Windows NT 6.1; Win64; x64) AppleWebKit/537.36 (KHTML, like Gecko) Chrome/85.0.4183.121 Safari/537.36",43,"[0.9, 0.5, 0.1]","[0.8, 0.4, 0.2]","[u'black', u'blue', u'red']","[u'left', u'middle', u'right']","[0.9, 0.5, 0.1]","[u'low', u'medium', u'high']","blue",50,"middle","medium","False","False",336,1900,NA
"A2UIGDOLX5RV95","Wed Sep 23 2020 11:20:08 GMT-0500 (Central Daylight Time)","Wed Sep 23 2020 11:26:37 GMT-0500 (Central Daylight Time)","Mozilla/5.0 (Windows NT 6.1; Win64; x64) AppleWebKit/537.36 (KHTML, like Gecko) Chrome/85.0.4183.121 Safari/537.36",44,"[0.9, 0.5, 0.1]","[0.8, 0.4, 0.2]","[u'black', u'blue', u'red']","[u'left', u'middle', u'right']","[0.9, 0.5, 0.1]","[u'low', u'medium', u'high']","black",49,"left","low","False","False",248,1850,NA
"A2UIGDOLX5RV95","Wed Sep 23 2020 11:20:08 GMT-0500 (Central Daylight Time)","Wed Sep 23 2020 11:26:37 GMT-0500 (Central Daylight Time)","Mozilla/5.0 (Windows NT 6.1; Win64; x64) AppleWebKit/537.36 (KHTML, like Gecko) Chrome/85.0.4183.121 Safari/537.36",45,"[0.9, 0.5, 0.1]","[0.8, 0.4, 0.2]","[u'black', u'blue', u'red']","[u'left', u'middle', u'right']","[0.9, 0.5, 0.1]","[u'low', u'medium', u'high']","black",49,"left","low","False","False",253,1800,NA
"A2UIGDOLX5RV95","Wed Sep 23 2020 11:20:08 GMT-0500 (Central Daylight Time)","Wed Sep 23 2020 11:26:37 GMT-0500 (Central Daylight Time)","Mozilla/5.0 (Windows NT 6.1; Win64; x64) AppleWebKit/537.36 (KHTML, like Gecko) Chrome/85.0.4183.121 Safari/537.36",46,"[0.9, 0.5, 0.1]","[0.8, 0.4, 0.2]","[u'black', u'blue', u'red']","[u'left', u'middle', u'right']","[0.9, 0.5, 0.1]","[u'low', u'medium', u'high']","red",51,"right","high","True","False",240,1900,NA
"A2UIGDOLX5RV95","Wed Sep 23 2020 11:20:08 GMT-0500 (Central Daylight Time)","Wed Sep 23 2020 11:26:37 GMT-0500 (Central Daylight Time)","Mozilla/5.0 (Windows NT 6.1; Win64; x64) AppleWebKit/537.36 (KHTML, like Gecko) Chrome/85.0.4183.121 Safari/537.36",47,"[0.9, 0.5, 0.1]","[0.8, 0.4, 0.2]","[u'black', u'blue', u'red']","[u'left', u'middle', u'right']","[0.9, 0.5, 0.1]","[u'low', u'medium', u'high']","red",51,"right","high","True","False",246,2000,NA
"A2UIGDOLX5RV95","Wed Sep 23 2020 11:20:08 GMT-0500 (Central Daylight Time)","Wed Sep 23 2020 11:26:37 GMT-0500 (Central Daylight Time)","Mozilla/5.0 (Windows NT 6.1; Win64; x64) AppleWebKit/537.36 (KHTML, like Gecko) Chrome/85.0.4183.121 Safari/537.36",48,"[0.9, 0.5, 0.1]","[0.8, 0.4, 0.2]","[u'black', u'blue', u'red']","[u'left', u'middle', u'right']","[0.9, 0.5, 0.1]","[u'low', u'medium', u'high']","red",51,"right","high","True","False",257,2100,NA
"A2UIGDOLX5RV95","Wed Sep 23 2020 11:20:08 GMT-0500 (Central Daylight Time)","Wed Sep 23 2020 11:26:37 GMT-0500 (Central Daylight Time)","Mozilla/5.0 (Windows NT 6.1; Win64; x64) AppleWebKit/537.36 (KHTML, like Gecko) Chrome/85.0.4183.121 Safari/537.36",49,"[0.9, 0.5, 0.1]","[0.8, 0.4, 0.2]","[u'black', u'blue', u'red']","[u'left', u'middle', u'right']","[0.9, 0.5, 0.1]","[u'low', u'medium', u'high']","red",51,"right","high","True","False",270,2200,NA
"A2UIGDOLX5RV95","Wed Sep 23 2020 11:20:08 GMT-0500 (Central Daylight Time)","Wed Sep 23 2020 11:26:37 GMT-0500 (Central Daylight Time)","Mozilla/5.0 (Windows NT 6.1; Win64; x64) AppleWebKit/537.36 (KHTML, like Gecko) Chrome/85.0.4183.121 Safari/537.36",50,"[0.9, 0.5, 0.1]","[0.8, 0.4, 0.2]","[u'black', u'blue', u'red']","[u'left', u'middle', u'right']","[0.9, 0.5, 0.1]","[u'low', u'medium', u'high']","red",51,"right","high","True","False",261,2300,NA
"A2UIGDOLX5RV95","Wed Sep 23 2020 11:20:08 GMT-0500 (Central Daylight Time)","Wed Sep 23 2020 11:26:37 GMT-0500 (Central Daylight Time)","Mozilla/5.0 (Windows NT 6.1; Win64; x64) AppleWebKit/537.36 (KHTML, like Gecko) Chrome/85.0.4183.121 Safari/537.36",51,"[0.9, 0.5, 0.1]","[0.8, 0.4, 0.2]","[u'black', u'blue', u'red']","[u'left', u'middle', u'right']","[0.9, 0.5, 0.1]","[u'low', u'medium', u'high']","red",51,"right","high","True","False",302,2400,NA
"A2UIGDOLX5RV95","Wed Sep 23 2020 11:20:08 GMT-0500 (Central Daylight Time)","Wed Sep 23 2020 11:26:37 GMT-0500 (Central Daylight Time)","Mozilla/5.0 (Windows NT 6.1; Win64; x64) AppleWebKit/537.36 (KHTML, like Gecko) Chrome/85.0.4183.121 Safari/537.36",52,"[0.9, 0.5, 0.1]","[0.8, 0.4, 0.2]","[u'black', u'blue', u'red']","[u'left', u'middle', u'right']","[0.9, 0.5, 0.1]","[u'low', u'medium', u'high']","red",51,"right","high","True","False",313,2500,NA
"A2UIGDOLX5RV95","Wed Sep 23 2020 11:20:08 GMT-0500 (Central Daylight Time)","Wed Sep 23 2020 11:26:37 GMT-0500 (Central Daylight Time)","Mozilla/5.0 (Windows NT 6.1; Win64; x64) AppleWebKit/537.36 (KHTML, like Gecko) Chrome/85.0.4183.121 Safari/537.36",53,"[0.9, 0.5, 0.1]","[0.8, 0.4, 0.2]","[u'black', u'blue', u'red']","[u'left', u'middle', u'right']","[0.9, 0.5, 0.1]","[u'low', u'medium', u'high']","red",51,"right","high","True","False",291,2600,NA
"A2UIGDOLX5RV95","Wed Sep 23 2020 11:20:08 GMT-0500 (Central Daylight Time)","Wed Sep 23 2020 11:26:37 GMT-0500 (Central Daylight Time)","Mozilla/5.0 (Windows NT 6.1; Win64; x64) AppleWebKit/537.36 (KHTML, like Gecko) Chrome/85.0.4183.121 Safari/537.36",54,"[0.9, 0.5, 0.1]","[0.8, 0.4, 0.2]","[u'black', u'blue', u'red']","[u'left', u'middle', u'right']","[0.9, 0.5, 0.1]","[u'low', u'medium', u'high']","red",51,"right","high","True","True",560,2700,NA
"A2UIGDOLX5RV95","Wed Sep 23 2020 11:20:08 GMT-0500 (Central Daylight Time)","Wed Sep 23 2020 11:26:37 GMT-0500 (Central Daylight Time)","Mozilla/5.0 (Windows NT 6.1; Win64; x64) AppleWebKit/537.36 (KHTML, like Gecko) Chrome/85.0.4183.121 Safari/537.36",55,"[0.9, 0.5, 0.1]","[0.8, 0.4, 0.2]","[u'black', u'blue', u'red']","[u'left', u'middle', u'right']","[0.9, 0.5, 0.1]","[u'high', u'medium', u'low']","red",51,"right","low","False","False",321,2650,NA
"A2UIGDOLX5RV95","Wed Sep 23 2020 11:20:08 GMT-0500 (Central Daylight Time)","Wed Sep 23 2020 11:26:37 GMT-0500 (Central Daylight Time)","Mozilla/5.0 (Windows NT 6.1; Win64; x64) AppleWebKit/537.36 (KHTML, like Gecko) Chrome/85.0.4183.121 Safari/537.36",56,"[0.9, 0.5, 0.1]","[0.8, 0.4, 0.2]","[u'black', u'blue', u'red']","[u'left', u'middle', u'right']","[0.9, 0.5, 0.1]","[u'high', u'medium', u'low']","red",51,"right","low","False","False",235,2600,NA
"A2UIGDOLX5RV95","Wed Sep 23 2020 11:20:08 GMT-0500 (Central Daylight Time)","Wed Sep 23 2020 11:26:37 GMT-0500 (Central Daylight Time)","Mozilla/5.0 (Windows NT 6.1; Win64; x64) AppleWebKit/537.36 (KHTML, like Gecko) Chrome/85.0.4183.121 Safari/537.36",57,"[0.9, 0.5, 0.1]","[0.8, 0.4, 0.2]","[u'black', u'blue', u'red']","[u'left', u'middle', u'right']","[0.9, 0.5, 0.1]","[u'high', u'medium', u'low']","red",51,"right","low","False","False",187,2550,NA
"A2UIGDOLX5RV95","Wed Sep 23 2020 11:20:08 GMT-0500 (Central Daylight Time)","Wed Sep 23 2020 11:26:37 GMT-0500 (Central Daylight Time)","Mozilla/5.0 (Windows NT 6.1; Win64; x64) AppleWebKit/537.36 (KHTML, like Gecko) Chrome/85.0.4183.121 Safari/537.36",58,"[0.9, 0.5, 0.1]","[0.8, 0.4, 0.2]","[u'black', u'blue', u'red']","[u'left', u'middle', u'right']","[0.9, 0.5, 0.1]","[u'high', u'medium', u'low']","blue",50,"middle","medium","True","False",226,2650,NA
"A2UIGDOLX5RV95","Wed Sep 23 2020 11:20:08 GMT-0500 (Central Daylight Time)","Wed Sep 23 2020 11:26:37 GMT-0500 (Central Daylight Time)","Mozilla/5.0 (Windows NT 6.1; Win64; x64) AppleWebKit/537.36 (KHTML, like Gecko) Chrome/85.0.4183.121 Safari/537.36",59,"[0.9, 0.5, 0.1]","[0.8, 0.4, 0.2]","[u'black', u'blue', u'red']","[u'left', u'middle', u'right']","[0.9, 0.5, 0.1]","[u'high', u'medium', u'low']","blue",50,"middle","medium","True","False",266,2750,NA
"A2UIGDOLX5RV95","Wed Sep 23 2020 11:20:08 GMT-0500 (Central Daylight Time)","Wed Sep 23 2020 11:26:37 GMT-0500 (Central Daylight Time)","Mozilla/5.0 (Windows NT 6.1; Win64; x64) AppleWebKit/537.36 (KHTML, like Gecko) Chrome/85.0.4183.121 Safari/537.36",60,"[0.9, 0.5, 0.1]","[0.8, 0.4, 0.2]","[u'black', u'blue', u'red']","[u'left', u'middle', u'right']","[0.9, 0.5, 0.1]","[u'high', u'medium', u'low']","blue",50,"middle","medium","False","False",268,2700,NA
"A2UIGDOLX5RV95","Wed Sep 23 2020 11:20:08 GMT-0500 (Central Daylight Time)","Wed Sep 23 2020 11:26:37 GMT-0500 (Central Daylight Time)","Mozilla/5.0 (Windows NT 6.1; Win64; x64) AppleWebKit/537.36 (KHTML, like Gecko) Chrome/85.0.4183.121 Safari/537.36",61,"[0.9, 0.5, 0.1]","[0.8, 0.4, 0.2]","[u'black', u'blue', u'red']","[u'left', u'middle', u'right']","[0.9, 0.5, 0.1]","[u'high', u'medium', u'low']","blue",50,"middle","medium","False","False",269,2650,NA
"A2UIGDOLX5RV95","Wed Sep 23 2020 11:20:08 GMT-0500 (Central Daylight Time)","Wed Sep 23 2020 11:26:37 GMT-0500 (Central Daylight Time)","Mozilla/5.0 (Windows NT 6.1; Win64; x64) AppleWebKit/537.36 (KHTML, like Gecko) Chrome/85.0.4183.121 Safari/537.36",62,"[0.9, 0.5, 0.1]","[0.8, 0.4, 0.2]","[u'black', u'blue', u'red']","[u'left', u'middle', u'right']","[0.9, 0.5, 0.1]","[u'high', u'medium', u'low']","black",49,"left","high","True","False",219,2750,NA
"A2UIGDOLX5RV95","Wed Sep 23 2020 11:20:08 GMT-0500 (Central Daylight Time)","Wed Sep 23 2020 11:26:37 GMT-0500 (Central Daylight Time)","Mozilla/5.0 (Windows NT 6.1; Win64; x64) AppleWebKit/537.36 (KHTML, like Gecko) Chrome/85.0.4183.121 Safari/537.36",63,"[0.9, 0.5, 0.1]","[0.8, 0.4, 0.2]","[u'black', u'blue', u'red']","[u'left', u'middle', u'right']","[0.9, 0.5, 0.1]","[u'high', u'medium', u'low']","black",49,"left","high","True","False",301,2850,NA
"A2UIGDOLX5RV95","Wed Sep 23 2020 11:20:08 GMT-0500 (Central Daylight Time)","Wed Sep 23 2020 11:26:37 GMT-0500 (Central Daylight Time)","Mozilla/5.0 (Windows NT 6.1; Win64; x64) AppleWebKit/537.36 (KHTML, like Gecko) Chrome/85.0.4183.121 Safari/537.36",64,"[0.9, 0.5, 0.1]","[0.8, 0.4, 0.2]","[u'black', u'blue', u'red']","[u'left', u'middle', u'right']","[0.9, 0.5, 0.1]","[u'high', u'medium', u'low']","black",49,"left","high","True","False",244,2950,NA
"A2UIGDOLX5RV95","Wed Sep 23 2020 11:20:08 GMT-0500 (Central Daylight Time)","Wed Sep 23 2020 11:26:37 GMT-0500 (Central Daylight Time)","Mozilla/5.0 (Windows NT 6.1; Win64; x64) AppleWebKit/537.36 (KHTML, like Gecko) Chrome/85.0.4183.121 Safari/537.36",65,"[0.9, 0.5, 0.1]","[0.8, 0.4, 0.2]","[u'black', u'blue', u'red']","[u'left', u'middle', u'right']","[0.9, 0.5, 0.1]","[u'high', u'medium', u'low']","black",49,"left","high","True","False",286,3050,NA
"A2UIGDOLX5RV95","Wed Sep 23 2020 11:20:08 GMT-0500 (Central Daylight Time)","Wed Sep 23 2020 11:26:37 GMT-0500 (Central Daylight Time)","Mozilla/5.0 (Windows NT 6.1; Win64; x64) AppleWebKit/537.36 (KHTML, like Gecko) Chrome/85.0.4183.121 Safari/537.36",66,"[0.9, 0.5, 0.1]","[0.8, 0.4, 0.2]","[u'black', u'blue', u'red']","[u'left', u'middle', u'right']","[0.9, 0.5, 0.1]","[u'high', u'medium', u'low']","black",49,"left","high","True","False",261,3150,NA
"A2UIGDOLX5RV95","Wed Sep 23 2020 11:20:08 GMT-0500 (Central Daylight Time)","Wed Sep 23 2020 11:26:37 GMT-0500 (Central Daylight Time)","Mozilla/5.0 (Windows NT 6.1; Win64; x64) AppleWebKit/537.36 (KHTML, like Gecko) Chrome/85.0.4183.121 Safari/537.36",67,"[0.9, 0.5, 0.1]","[0.8, 0.4, 0.2]","[u'black', u'blue', u'red']","[u'left', u'middle', u'right']","[0.9, 0.5, 0.1]","[u'high', u'medium', u'low']","black",49,"left","high","True","False",416,3250,NA
"A2UIGDOLX5RV95","Wed Sep 23 2020 11:20:08 GMT-0500 (Central Daylight Time)","Wed Sep 23 2020 11:26:37 GMT-0500 (Central Daylight Time)","Mozilla/5.0 (Windows NT 6.1; Win64; x64) AppleWebKit/537.36 (KHTML, like Gecko) Chrome/85.0.4183.121 Safari/537.36",68,"[0.9, 0.5, 0.1]","[0.8, 0.4, 0.2]","[u'black', u'blue', u'red']","[u'left', u'middle', u'right']","[0.9, 0.5, 0.1]","[u'high', u'medium', u'low']","black",49,"left","high","True","False",323,3350,NA
"A2UIGDOLX5RV95","Wed Sep 23 2020 11:20:08 GMT-0500 (Central Daylight Time)","Wed Sep 23 2020 11:26:37 GMT-0500 (Central Daylight Time)","Mozilla/5.0 (Windows NT 6.1; Win64; x64) AppleWebKit/537.36 (KHTML, like Gecko) Chrome/85.0.4183.121 Safari/537.36",69,"[0.9, 0.5, 0.1]","[0.8, 0.4, 0.2]","[u'black', u'blue', u'red']","[u'left', u'middle', u'right']","[0.9, 0.5, 0.1]","[u'high', u'medium', u'low']","black",49,"left","high","True","False",317,3450,NA
"A2UIGDOLX5RV95","Wed Sep 23 2020 11:20:08 GMT-0500 (Central Daylight Time)","Wed Sep 23 2020 11:26:37 GMT-0500 (Central Daylight Time)","Mozilla/5.0 (Windows NT 6.1; Win64; x64) AppleWebKit/537.36 (KHTML, like Gecko) Chrome/85.0.4183.121 Safari/537.36",70,"[0.9, 0.5, 0.1]","[0.8, 0.4, 0.2]","[u'black', u'blue', u'red']","[u'left', u'middle', u'right']","[0.9, 0.5, 0.1]","[u'high', u'medium', u'low']","black",49,"left","high","True","True",248,3550,NA
"A2UIGDOLX5RV95","Wed Sep 23 2020 11:20:08 GMT-0500 (Central Daylight Time)","Wed Sep 23 2020 11:26:37 GMT-0500 (Central Daylight Time)","Mozilla/5.0 (Windows NT 6.1; Win64; x64) AppleWebKit/537.36 (KHTML, like Gecko) Chrome/85.0.4183.121 Safari/537.36",71,"[0.9, 0.5, 0.1]","[0.8, 0.4, 0.2]","[u'black', u'blue', u'red']","[u'left', u'middle', u'right']","[0.9, 0.5, 0.1]","[u'medium', u'low', u'high']","black",49,"left","medium","False","False",287,3500,NA
"A2UIGDOLX5RV95","Wed Sep 23 2020 11:20:08 GMT-0500 (Central Daylight Time)","Wed Sep 23 2020 11:26:37 GMT-0500 (Central Daylight Time)","Mozilla/5.0 (Windows NT 6.1; Win64; x64) AppleWebKit/537.36 (KHTML, like Gecko) Chrome/85.0.4183.121 Safari/537.36",72,"[0.9, 0.5, 0.1]","[0.8, 0.4, 0.2]","[u'black', u'blue', u'red']","[u'left', u'middle', u'right']","[0.9, 0.5, 0.1]","[u'medium', u'low', u'high']","black",49,"left","medium","False","False",130,3450,NA
"A2UIGDOLX5RV95","Wed Sep 23 2020 11:20:08 GMT-0500 (Central Daylight Time)","Wed Sep 23 2020 11:26:37 GMT-0500 (Central Daylight Time)","Mozilla/5.0 (Windows NT 6.1; Win64; x64) AppleWebKit/537.36 (KHTML, like Gecko) Chrome/85.0.4183.121 Safari/537.36",73,"[0.9, 0.5, 0.1]","[0.8, 0.4, 0.2]","[u'black', u'blue', u'red']","[u'left', u'middle', u'right']","[0.9, 0.5, 0.1]","[u'medium', u'low', u'high']","blue",50,"middle","low","False","False",22,3400,NA
"A2UIGDOLX5RV95","Wed Sep 23 2020 11:20:08 GMT-0500 (Central Daylight Time)","Wed Sep 23 2020 11:26:37 GMT-0500 (Central Daylight Time)","Mozilla/5.0 (Windows NT 6.1; Win64; x64) AppleWebKit/537.36 (KHTML, like Gecko) Chrome/85.0.4183.121 Safari/537.36",74,"[0.9, 0.5, 0.1]","[0.8, 0.4, 0.2]","[u'black', u'blue', u'red']","[u'left', u'middle', u'right']","[0.9, 0.5, 0.1]","[u'medium', u'low', u'high']","red",51,"right","high","True","False",361,3500,NA
"A2UIGDOLX5RV95","Wed Sep 23 2020 11:20:08 GMT-0500 (Central Daylight Time)","Wed Sep 23 2020 11:26:37 GMT-0500 (Central Daylight Time)","Mozilla/5.0 (Windows NT 6.1; Win64; x64) AppleWebKit/537.36 (KHTML, like Gecko) Chrome/85.0.4183.121 Safari/537.36",75,"[0.9, 0.5, 0.1]","[0.8, 0.4, 0.2]","[u'black', u'blue', u'red']","[u'left', u'middle', u'right']","[0.9, 0.5, 0.1]","[u'medium', u'low', u'high']","red",51,"right","high","True","False",397,3600,NA
"A2UIGDOLX5RV95","Wed Sep 23 2020 11:20:08 GMT-0500 (Central Daylight Time)","Wed Sep 23 2020 11:26:37 GMT-0500 (Central Daylight Time)","Mozilla/5.0 (Windows NT 6.1; Win64; x64) AppleWebKit/537.36 (KHTML, like Gecko) Chrome/85.0.4183.121 Safari/537.36",76,"[0.9, 0.5, 0.1]","[0.8, 0.4, 0.2]","[u'black', u'blue', u'red']","[u'left', u'middle', u'right']","[0.9, 0.5, 0.1]","[u'medium', u'low', u'high']","red",51,"right","high","True","False",285,3700,NA
"A2UIGDOLX5RV95","Wed Sep 23 2020 11:20:08 GMT-0500 (Central Daylight Time)","Wed Sep 23 2020 11:26:37 GMT-0500 (Central Daylight Time)","Mozilla/5.0 (Windows NT 6.1; Win64; x64) AppleWebKit/537.36 (KHTML, like Gecko) Chrome/85.0.4183.121 Safari/537.36",77,"[0.9, 0.5, 0.1]","[0.8, 0.4, 0.2]","[u'black', u'blue', u'red']","[u'left', u'middle', u'right']","[0.9, 0.5, 0.1]","[u'medium', u'low', u'high']","red",51,"right","high","True","False",341,3800,NA
"A2UIGDOLX5RV95","Wed Sep 23 2020 11:20:08 GMT-0500 (Central Daylight Time)","Wed Sep 23 2020 11:26:37 GMT-0500 (Central Daylight Time)","Mozilla/5.0 (Windows NT 6.1; Win64; x64) AppleWebKit/537.36 (KHTML, like Gecko) Chrome/85.0.4183.121 Safari/537.36",78,"[0.9, 0.5, 0.1]","[0.8, 0.4, 0.2]","[u'black', u'blue', u'red']","[u'left', u'middle', u'right']","[0.9, 0.5, 0.1]","[u'medium', u'low', u'high']","red",51,"right","high","True","False",388,3900,NA
"A2UIGDOLX5RV95","Wed Sep 23 2020 11:20:08 GMT-0500 (Central Daylight Time)","Wed Sep 23 2020 11:26:37 GMT-0500 (Central Daylight Time)","Mozilla/5.0 (Windows NT 6.1; Win64; x64) AppleWebKit/537.36 (KHTML, like Gecko) Chrome/85.0.4183.121 Safari/537.36",79,"[0.9, 0.5, 0.1]","[0.8, 0.4, 0.2]","[u'black', u'blue', u'red']","[u'left', u'middle', u'right']","[0.9, 0.5, 0.1]","[u'medium', u'low', u'high']","red",51,"right","high","True","False",346,4000,NA
"A2UIGDOLX5RV95","Wed Sep 23 2020 11:20:08 GMT-0500 (Central Daylight Time)","Wed Sep 23 2020 11:26:37 GMT-0500 (Central Daylight Time)","Mozilla/5.0 (Windows NT 6.1; Win64; x64) AppleWebKit/537.36 (KHTML, like Gecko) Chrome/85.0.4183.121 Safari/537.36",80,"[0.9, 0.5, 0.1]","[0.8, 0.4, 0.2]","[u'black', u'blue', u'red']","[u'left', u'middle', u'right']","[0.9, 0.5, 0.1]","[u'medium', u'low', u'high']","red",51,"right","high","True","False",655,4100,NA
"A2UIGDOLX5RV95","Wed Sep 23 2020 11:20:08 GMT-0500 (Central Daylight Time)","Wed Sep 23 2020 11:26:37 GMT-0500 (Central Daylight Time)","Mozilla/5.0 (Windows NT 6.1; Win64; x64) AppleWebKit/537.36 (KHTML, like Gecko) Chrome/85.0.4183.121 Safari/537.36",81,"[0.9, 0.5, 0.1]","[0.8, 0.4, 0.2]","[u'black', u'blue', u'red']","[u'left', u'middle', u'right']","[0.8, 0.4, 0.2]","[u'high', u'low', u'medium']","red",51,"right","medium","True","False",418,4200,NA
"A2UIGDOLX5RV95","Wed Sep 23 2020 11:20:08 GMT-0500 (Central Daylight Time)","Wed Sep 23 2020 11:26:37 GMT-0500 (Central Daylight Time)","Mozilla/5.0 (Windows NT 6.1; Win64; x64) AppleWebKit/537.36 (KHTML, like Gecko) Chrome/85.0.4183.121 Safari/537.36",82,"[0.9, 0.5, 0.1]","[0.8, 0.4, 0.2]","[u'black', u'blue', u'red']","[u'left', u'middle', u'right']","[0.8, 0.4, 0.2]","[u'high', u'low', u'medium']","red",51,"right","medium","True","False",270,4300,NA
"A2UIGDOLX5RV95","Wed Sep 23 2020 11:20:08 GMT-0500 (Central Daylight Time)","Wed Sep 23 2020 11:26:37 GMT-0500 (Central Daylight Time)","Mozilla/5.0 (Windows NT 6.1; Win64; x64) AppleWebKit/537.36 (KHTML, like Gecko) Chrome/85.0.4183.121 Safari/537.36",83,"[0.9, 0.5, 0.1]","[0.8, 0.4, 0.2]","[u'black', u'blue', u'red']","[u'left', u'middle', u'right']","[0.8, 0.4, 0.2]","[u'high', u'low', u'medium']","red",51,"right","medium","False","False",239,4250,NA
"A2UIGDOLX5RV95","Wed Sep 23 2020 11:20:08 GMT-0500 (Central Daylight Time)","Wed Sep 23 2020 11:26:37 GMT-0500 (Central Daylight Time)","Mozilla/5.0 (Windows NT 6.1; Win64; x64) AppleWebKit/537.36 (KHTML, like Gecko) Chrome/85.0.4183.121 Safari/537.36",84,"[0.9, 0.5, 0.1]","[0.8, 0.4, 0.2]","[u'black', u'blue', u'red']","[u'left', u'middle', u'right']","[0.8, 0.4, 0.2]","[u'high', u'low', u'medium']","red",51,"right","medium","True","False",74,4350,NA
"A2UIGDOLX5RV95","Wed Sep 23 2020 11:20:08 GMT-0500 (Central Daylight Time)","Wed Sep 23 2020 11:26:37 GMT-0500 (Central Daylight Time)","Mozilla/5.0 (Windows NT 6.1; Win64; x64) AppleWebKit/537.36 (KHTML, like Gecko) Chrome/85.0.4183.121 Safari/537.36",85,"[0.9, 0.5, 0.1]","[0.8, 0.4, 0.2]","[u'black', u'blue', u'red']","[u'left', u'middle', u'right']","[0.8, 0.4, 0.2]","[u'high', u'low', u'medium']","red",51,"right","medium","True","False",308,4450,NA
"A2UIGDOLX5RV95","Wed Sep 23 2020 11:20:08 GMT-0500 (Central Daylight Time)","Wed Sep 23 2020 11:26:37 GMT-0500 (Central Daylight Time)","Mozilla/5.0 (Windows NT 6.1; Win64; x64) AppleWebKit/537.36 (KHTML, like Gecko) Chrome/85.0.4183.121 Safari/537.36",86,"[0.9, 0.5, 0.1]","[0.8, 0.4, 0.2]","[u'black', u'blue', u'red']","[u'left', u'middle', u'right']","[0.8, 0.4, 0.2]","[u'high', u'low', u'medium']","red",51,"right","medium","True","False",276,4550,NA
"A2UIGDOLX5RV95","Wed Sep 23 2020 11:20:08 GMT-0500 (Central Daylight Time)","Wed Sep 23 2020 11:26:37 GMT-0500 (Central Daylight Time)","Mozilla/5.0 (Windows NT 6.1; Win64; x64) AppleWebKit/537.36 (KHTML, like Gecko) Chrome/85.0.4183.121 Safari/537.36",87,"[0.9, 0.5, 0.1]","[0.8, 0.4, 0.2]","[u'black', u'blue', u'red']","[u'left', u'middle', u'right']","[0.8, 0.4, 0.2]","[u'high', u'low', u'medium']","red",51,"right","medium","False","False",377,4500,NA
"A2UIGDOLX5RV95","Wed Sep 23 2020 11:20:08 GMT-0500 (Central Daylight Time)","Wed Sep 23 2020 11:26:37 GMT-0500 (Central Daylight Time)","Mozilla/5.0 (Windows NT 6.1; Win64; x64) AppleWebKit/537.36 (KHTML, like Gecko) Chrome/85.0.4183.121 Safari/537.36",88,"[0.9, 0.5, 0.1]","[0.8, 0.4, 0.2]","[u'black', u'blue', u'red']","[u'left', u'middle', u'right']","[0.8, 0.4, 0.2]","[u'high', u'low', u'medium']","red",51,"right","medium","False","False",224,4450,NA
"A2UIGDOLX5RV95","Wed Sep 23 2020 11:20:08 GMT-0500 (Central Daylight Time)","Wed Sep 23 2020 11:26:37 GMT-0500 (Central Daylight Time)","Mozilla/5.0 (Windows NT 6.1; Win64; x64) AppleWebKit/537.36 (KHTML, like Gecko) Chrome/85.0.4183.121 Safari/537.36",89,"[0.9, 0.5, 0.1]","[0.8, 0.4, 0.2]","[u'black', u'blue', u'red']","[u'left', u'middle', u'right']","[0.8, 0.4, 0.2]","[u'high', u'low', u'medium']","blue",50,"middle","low","False","False",220,4400,NA
"A2UIGDOLX5RV95","Wed Sep 23 2020 11:20:08 GMT-0500 (Central Daylight Time)","Wed Sep 23 2020 11:26:37 GMT-0500 (Central Daylight Time)","Mozilla/5.0 (Windows NT 6.1; Win64; x64) AppleWebKit/537.36 (KHTML, like Gecko) Chrome/85.0.4183.121 Safari/537.36",90,"[0.9, 0.5, 0.1]","[0.8, 0.4, 0.2]","[u'black', u'blue', u'red']","[u'left', u'middle', u'right']","[0.8, 0.4, 0.2]","[u'high', u'low', u'medium']","blue",50,"middle","low","False","False",357,4350,NA
"A2UIGDOLX5RV95","Wed Sep 23 2020 11:20:08 GMT-0500 (Central Daylight Time)","Wed Sep 23 2020 11:26:37 GMT-0500 (Central Daylight Time)","Mozilla/5.0 (Windows NT 6.1; Win64; x64) AppleWebKit/537.36 (KHTML, like Gecko) Chrome/85.0.4183.121 Safari/537.36",91,"[0.9, 0.5, 0.1]","[0.8, 0.4, 0.2]","[u'black', u'blue', u'red']","[u'left', u'middle', u'right']","[0.8, 0.4, 0.2]","[u'high', u'low', u'medium']","black",49,"left","high","True","False",271,4450,NA
"A2UIGDOLX5RV95","Wed Sep 23 2020 11:20:08 GMT-0500 (Central Daylight Time)","Wed Sep 23 2020 11:26:37 GMT-0500 (Central Daylight Time)","Mozilla/5.0 (Windows NT 6.1; Win64; x64) AppleWebKit/537.36 (KHTML, like Gecko) Chrome/85.0.4183.121 Safari/537.36",92,"[0.9, 0.5, 0.1]","[0.8, 0.4, 0.2]","[u'black', u'blue', u'red']","[u'left', u'middle', u'right']","[0.8, 0.4, 0.2]","[u'high', u'low', u'medium']","black",49,"left","high","True","False",332,4550,NA
"A2UIGDOLX5RV95","Wed Sep 23 2020 11:20:08 GMT-0500 (Central Daylight Time)","Wed Sep 23 2020 11:26:37 GMT-0500 (Central Daylight Time)","Mozilla/5.0 (Windows NT 6.1; Win64; x64) AppleWebKit/537.36 (KHTML, like Gecko) Chrome/85.0.4183.121 Safari/537.36",93,"[0.9, 0.5, 0.1]","[0.8, 0.4, 0.2]","[u'black', u'blue', u'red']","[u'left', u'middle', u'right']","[0.8, 0.4, 0.2]","[u'high', u'low', u'medium']","black",49,"left","high","True","False",361,4650,NA
"A2UIGDOLX5RV95","Wed Sep 23 2020 11:20:08 GMT-0500 (Central Daylight Time)","Wed Sep 23 2020 11:26:37 GMT-0500 (Central Daylight Time)","Mozilla/5.0 (Windows NT 6.1; Win64; x64) AppleWebKit/537.36 (KHTML, like Gecko) Chrome/85.0.4183.121 Safari/537.36",94,"[0.9, 0.5, 0.1]","[0.8, 0.4, 0.2]","[u'black', u'blue', u'red']","[u'left', u'middle', u'right']","[0.8, 0.4, 0.2]","[u'high', u'low', u'medium']","black",49,"left","high","True","False",312,4750,NA
"A2UIGDOLX5RV95","Wed Sep 23 2020 11:20:08 GMT-0500 (Central Daylight Time)","Wed Sep 23 2020 11:26:37 GMT-0500 (Central Daylight Time)","Mozilla/5.0 (Windows NT 6.1; Win64; x64) AppleWebKit/537.36 (KHTML, like Gecko) Chrome/85.0.4183.121 Safari/537.36",95,"[0.9, 0.5, 0.1]","[0.8, 0.4, 0.2]","[u'black', u'blue', u'red']","[u'left', u'middle', u'right']","[0.8, 0.4, 0.2]","[u'high', u'low', u'medium']","black",49,"left","high","True","False",274,4850,NA
"A2UIGDOLX5RV95","Wed Sep 23 2020 11:20:08 GMT-0500 (Central Daylight Time)","Wed Sep 23 2020 11:26:37 GMT-0500 (Central Daylight Time)","Mozilla/5.0 (Windows NT 6.1; Win64; x64) AppleWebKit/537.36 (KHTML, like Gecko) Chrome/85.0.4183.121 Safari/537.36",96,"[0.9, 0.5, 0.1]","[0.8, 0.4, 0.2]","[u'black', u'blue', u'red']","[u'left', u'middle', u'right']","[0.8, 0.4, 0.2]","[u'high', u'low', u'medium']","black",49,"left","high","False","False",314,4800,NA
"A2UIGDOLX5RV95","Wed Sep 23 2020 11:20:08 GMT-0500 (Central Daylight Time)","Wed Sep 23 2020 11:26:37 GMT-0500 (Central Daylight Time)","Mozilla/5.0 (Windows NT 6.1; Win64; x64) AppleWebKit/537.36 (KHTML, like Gecko) Chrome/85.0.4183.121 Safari/537.36",97,"[0.9, 0.5, 0.1]","[0.8, 0.4, 0.2]","[u'black', u'blue', u'red']","[u'left', u'middle', u'right']","[0.8, 0.4, 0.2]","[u'high', u'low', u'medium']","black",49,"left","high","True","False",221,4900,NA
"A2UIGDOLX5RV95","Wed Sep 23 2020 11:20:08 GMT-0500 (Central Daylight Time)","Wed Sep 23 2020 11:26:37 GMT-0500 (Central Daylight Time)","Mozilla/5.0 (Windows NT 6.1; Win64; x64) AppleWebKit/537.36 (KHTML, like Gecko) Chrome/85.0.4183.121 Safari/537.36",98,"[0.9, 0.5, 0.1]","[0.8, 0.4, 0.2]","[u'black', u'blue', u'red']","[u'left', u'middle', u'right']","[0.8, 0.4, 0.2]","[u'high', u'low', u'medium']","black",49,"left","high","True","False",273,5000,NA
"A2UIGDOLX5RV95","Wed Sep 23 2020 11:20:08 GMT-0500 (Central Daylight Time)","Wed Sep 23 2020 11:26:37 GMT-0500 (Central Daylight Time)","Mozilla/5.0 (Windows NT 6.1; Win64; x64) AppleWebKit/537.36 (KHTML, like Gecko) Chrome/85.0.4183.121 Safari/537.36",99,"[0.9, 0.5, 0.1]","[0.8, 0.4, 0.2]","[u'black', u'blue', u'red']","[u'left', u'middle', u'right']","[0.8, 0.4, 0.2]","[u'high', u'low', u'medium']","black",49,"left","high","True","True",248,5100,NA
"A2UIGDOLX5RV95","Wed Sep 23 2020 11:20:08 GMT-0500 (Central Daylight Time)","Wed Sep 23 2020 11:26:37 GMT-0500 (Central Daylight Time)","Mozilla/5.0 (Windows NT 6.1; Win64; x64) AppleWebKit/537.36 (KHTML, like Gecko) Chrome/85.0.4183.121 Safari/537.36",100,"[0.9, 0.5, 0.1]","[0.8, 0.4, 0.2]","[u'black', u'blue', u'red']","[u'left', u'middle', u'right']","[0.8, 0.4, 0.2]","[u'low', u'medium', u'high']","black",49,"left","low","False","False",299,5050,NA
"A2UIGDOLX5RV95","Wed Sep 23 2020 11:20:08 GMT-0500 (Central Daylight Time)","Wed Sep 23 2020 11:26:37 GMT-0500 (Central Daylight Time)","Mozilla/5.0 (Windows NT 6.1; Win64; x64) AppleWebKit/537.36 (KHTML, like Gecko) Chrome/85.0.4183.121 Safari/537.36",101,"[0.9, 0.5, 0.1]","[0.8, 0.4, 0.2]","[u'black', u'blue', u'red']","[u'left', u'middle', u'right']","[0.8, 0.4, 0.2]","[u'low', u'medium', u'high']","black",49,"left","low","False","False",202,5000,NA
"A2UIGDOLX5RV95","Wed Sep 23 2020 11:20:08 GMT-0500 (Central Daylight Time)","Wed Sep 23 2020 11:26:37 GMT-0500 (Central Daylight Time)","Mozilla/5.0 (Windows NT 6.1; Win64; x64) AppleWebKit/537.36 (KHTML, like Gecko) Chrome/85.0.4183.121 Safari/537.36",102,"[0.9, 0.5, 0.1]","[0.8, 0.4, 0.2]","[u'black', u'blue', u'red']","[u'left', u'middle', u'right']","[0.8, 0.4, 0.2]","[u'low', u'medium', u'high']","blue",50,"middle","medium","False","False",335,4950,NA
"A2UIGDOLX5RV95","Wed Sep 23 2020 11:20:08 GMT-0500 (Central Daylight Time)","Wed Sep 23 2020 11:26:37 GMT-0500 (Central Daylight Time)","Mozilla/5.0 (Windows NT 6.1; Win64; x64) AppleWebKit/537.36 (KHTML, like Gecko) Chrome/85.0.4183.121 Safari/537.36",103,"[0.9, 0.5, 0.1]","[0.8, 0.4, 0.2]","[u'black', u'blue', u'red']","[u'left', u'middle', u'right']","[0.8, 0.4, 0.2]","[u'low', u'medium', u'high']","red",51,"right","high","True","False",275,5050,NA
"A2UIGDOLX5RV95","Wed Sep 23 2020 11:20:08 GMT-0500 (Central Daylight Time)","Wed Sep 23 2020 11:26:37 GMT-0500 (Central Daylight Time)","Mozilla/5.0 (Windows NT 6.1; Win64; x64) AppleWebKit/537.36 (KHTML, like Gecko) Chrome/85.0.4183.121 Safari/537.36",104,"[0.9, 0.5, 0.1]","[0.8, 0.4, 0.2]","[u'black', u'blue', u'red']","[u'left', u'middle', u'right']","[0.8, 0.4, 0.2]","[u'low', u'medium', u'high']","red",51,"right","high","True","False",223,5150,NA
"A2UIGDOLX5RV95","Wed Sep 23 2020 11:20:08 GMT-0500 (Central Daylight Time)","Wed Sep 23 2020 11:26:37 GMT-0500 (Central Daylight Time)","Mozilla/5.0 (Windows NT 6.1; Win64; x64) AppleWebKit/537.36 (KHTML, like Gecko) Chrome/85.0.4183.121 Safari/537.36",105,"[0.9, 0.5, 0.1]","[0.8, 0.4, 0.2]","[u'black', u'blue', u'red']","[u'left', u'middle', u'right']","[0.8, 0.4, 0.2]","[u'low', u'medium', u'high']","red",51,"right","high","True","False",238,5250,NA
"A2UIGDOLX5RV95","Wed Sep 23 2020 11:20:08 GMT-0500 (Central Daylight Time)","Wed Sep 23 2020 11:26:37 GMT-0500 (Central Daylight Time)","Mozilla/5.0 (Windows NT 6.1; Win64; x64) AppleWebKit/537.36 (KHTML, like Gecko) Chrome/85.0.4183.121 Safari/537.36",106,"[0.9, 0.5, 0.1]","[0.8, 0.4, 0.2]","[u'black', u'blue', u'red']","[u'left', u'middle', u'right']","[0.8, 0.4, 0.2]","[u'low', u'medium', u'high']","red",51,"right","high","False","False",287,5200,NA
"A2UIGDOLX5RV95","Wed Sep 23 2020 11:20:08 GMT-0500 (Central Daylight Time)","Wed Sep 23 2020 11:26:37 GMT-0500 (Central Daylight Time)","Mozilla/5.0 (Windows NT 6.1; Win64; x64) AppleWebKit/537.36 (KHTML, like Gecko) Chrome/85.0.4183.121 Safari/537.36",107,"[0.9, 0.5, 0.1]","[0.8, 0.4, 0.2]","[u'black', u'blue', u'red']","[u'left', u'middle', u'right']","[0.8, 0.4, 0.2]","[u'low', u'medium', u'high']","red",51,"right","high","True","False",267,5300,NA
"A2UIGDOLX5RV95","Wed Sep 23 2020 11:20:08 GMT-0500 (Central Daylight Time)","Wed Sep 23 2020 11:26:37 GMT-0500 (Central Daylight Time)","Mozilla/5.0 (Windows NT 6.1; Win64; x64) AppleWebKit/537.36 (KHTML, like Gecko) Chrome/85.0.4183.121 Safari/537.36",108,"[0.9, 0.5, 0.1]","[0.8, 0.4, 0.2]","[u'black', u'blue', u'red']","[u'left', u'middle', u'right']","[0.8, 0.4, 0.2]","[u'low', u'medium', u'high']","red",51,"right","high","True","False",306,5400,NA
"A2UIGDOLX5RV95","Wed Sep 23 2020 11:20:08 GMT-0500 (Central Daylight Time)","Wed Sep 23 2020 11:26:37 GMT-0500 (Central Daylight Time)","Mozilla/5.0 (Windows NT 6.1; Win64; x64) AppleWebKit/537.36 (KHTML, like Gecko) Chrome/85.0.4183.121 Safari/537.36",109,"[0.9, 0.5, 0.1]","[0.8, 0.4, 0.2]","[u'black', u'blue', u'red']","[u'left', u'middle', u'right']","[0.8, 0.4, 0.2]","[u'low', u'medium', u'high']","red",51,"right","high","True","False",318,5500,NA
"A2UIGDOLX5RV95","Wed Sep 23 2020 11:20:08 GMT-0500 (Central Daylight Time)","Wed Sep 23 2020 11:26:37 GMT-0500 (Central Daylight Time)","Mozilla/5.0 (Windows NT 6.1; Win64; x64) AppleWebKit/537.36 (KHTML, like Gecko) Chrome/85.0.4183.121 Safari/537.36",110,"[0.9, 0.5, 0.1]","[0.8, 0.4, 0.2]","[u'black', u'blue', u'red']","[u'left', u'middle', u'right']","[0.8, 0.4, 0.2]","[u'low', u'medium', u'high']","red",51,"right","high","True","False",302,5600,NA
"A2UIGDOLX5RV95","Wed Sep 23 2020 11:20:08 GMT-0500 (Central Daylight Time)","Wed Sep 23 2020 11:26:37 GMT-0500 (Central Daylight Time)","Mozilla/5.0 (Windows NT 6.1; Win64; x64) AppleWebKit/537.36 (KHTML, like Gecko) Chrome/85.0.4183.121 Safari/537.36",111,"[0.9, 0.5, 0.1]","[0.8, 0.4, 0.2]","[u'black', u'blue', u'red']","[u'left', u'middle', u'right']","[0.8, 0.4, 0.2]","[u'low', u'medium', u'high']","red",51,"right","high","True","True",246,5700,NA
"A2UIGDOLX5RV95","Wed Sep 23 2020 11:20:08 GMT-0500 (Central Daylight Time)","Wed Sep 23 2020 11:26:37 GMT-0500 (Central Daylight Time)","Mozilla/5.0 (Windows NT 6.1; Win64; x64) AppleWebKit/537.36 (KHTML, like Gecko) Chrome/85.0.4183.121 Safari/537.36",112,"[0.9, 0.5, 0.1]","[0.8, 0.4, 0.2]","[u'black', u'blue', u'red']","[u'left', u'middle', u'right']","[0.8, 0.4, 0.2]","[u'low', u'high', u'medium']","red",51,"right","medium","True","False",269,5800,NA
"A2UIGDOLX5RV95","Wed Sep 23 2020 11:20:08 GMT-0500 (Central Daylight Time)","Wed Sep 23 2020 11:26:37 GMT-0500 (Central Daylight Time)","Mozilla/5.0 (Windows NT 6.1; Win64; x64) AppleWebKit/537.36 (KHTML, like Gecko) Chrome/85.0.4183.121 Safari/537.36",113,"[0.9, 0.5, 0.1]","[0.8, 0.4, 0.2]","[u'black', u'blue', u'red']","[u'left', u'middle', u'right']","[0.8, 0.4, 0.2]","[u'low', u'high', u'medium']","red",51,"right","medium","False","False",376,5750,NA
"A2UIGDOLX5RV95","Wed Sep 23 2020 11:20:08 GMT-0500 (Central Daylight Time)","Wed Sep 23 2020 11:26:37 GMT-0500 (Central Daylight Time)","Mozilla/5.0 (Windows NT 6.1; Win64; x64) AppleWebKit/537.36 (KHTML, like Gecko) Chrome/85.0.4183.121 Safari/537.36",114,"[0.9, 0.5, 0.1]","[0.8, 0.4, 0.2]","[u'black', u'blue', u'red']","[u'left', u'middle', u'right']","[0.8, 0.4, 0.2]","[u'low', u'high', u'medium']","red",51,"right","medium","True","False",226,5850,NA
"A2UIGDOLX5RV95","Wed Sep 23 2020 11:20:08 GMT-0500 (Central Daylight Time)","Wed Sep 23 2020 11:26:37 GMT-0500 (Central Daylight Time)","Mozilla/5.0 (Windows NT 6.1; Win64; x64) AppleWebKit/537.36 (KHTML, like Gecko) Chrome/85.0.4183.121 Safari/537.36",115,"[0.9, 0.5, 0.1]","[0.8, 0.4, 0.2]","[u'black', u'blue', u'red']","[u'left', u'middle', u'right']","[0.8, 0.4, 0.2]","[u'low', u'high', u'medium']","red",51,"right","medium","True","False",269,5950,NA
"A2UIGDOLX5RV95","Wed Sep 23 2020 11:20:08 GMT-0500 (Central Daylight Time)","Wed Sep 23 2020 11:26:37 GMT-0500 (Central Daylight Time)","Mozilla/5.0 (Windows NT 6.1; Win64; x64) AppleWebKit/537.36 (KHTML, like Gecko) Chrome/85.0.4183.121 Safari/537.36",116,"[0.9, 0.5, 0.1]","[0.8, 0.4, 0.2]","[u'black', u'blue', u'red']","[u'left', u'middle', u'right']","[0.8, 0.4, 0.2]","[u'low', u'high', u'medium']","red",51,"right","medium","False","False",265,5900,NA
"A2UIGDOLX5RV95","Wed Sep 23 2020 11:20:08 GMT-0500 (Central Daylight Time)","Wed Sep 23 2020 11:26:37 GMT-0500 (Central Daylight Time)","Mozilla/5.0 (Windows NT 6.1; Win64; x64) AppleWebKit/537.36 (KHTML, like Gecko) Chrome/85.0.4183.121 Safari/537.36",117,"[0.9, 0.5, 0.1]","[0.8, 0.4, 0.2]","[u'black', u'blue', u'red']","[u'left', u'middle', u'right']","[0.8, 0.4, 0.2]","[u'low', u'high', u'medium']","red",51,"right","medium","False","False",259,5850,NA
"A2UIGDOLX5RV95","Wed Sep 23 2020 11:20:08 GMT-0500 (Central Daylight Time)","Wed Sep 23 2020 11:26:37 GMT-0500 (Central Daylight Time)","Mozilla/5.0 (Windows NT 6.1; Win64; x64) AppleWebKit/537.36 (KHTML, like Gecko) Chrome/85.0.4183.121 Safari/537.36",118,"[0.9, 0.5, 0.1]","[0.8, 0.4, 0.2]","[u'black', u'blue', u'red']","[u'left', u'middle', u'right']","[0.8, 0.4, 0.2]","[u'low', u'high', u'medium']","blue",50,"middle","high","True","False",275,5950,NA
"A2UIGDOLX5RV95","Wed Sep 23 2020 11:20:08 GMT-0500 (Central Daylight Time)","Wed Sep 23 2020 11:26:37 GMT-0500 (Central Daylight Time)","Mozilla/5.0 (Windows NT 6.1; Win64; x64) AppleWebKit/537.36 (KHTML, like Gecko) Chrome/85.0.4183.121 Safari/537.36",119,"[0.9, 0.5, 0.1]","[0.8, 0.4, 0.2]","[u'black', u'blue', u'red']","[u'left', u'middle', u'right']","[0.8, 0.4, 0.2]","[u'low', u'high', u'medium']","blue",50,"middle","high","True","False",267,6050,NA
"A2UIGDOLX5RV95","Wed Sep 23 2020 11:20:08 GMT-0500 (Central Daylight Time)","Wed Sep 23 2020 11:26:37 GMT-0500 (Central Daylight Time)","Mozilla/5.0 (Windows NT 6.1; Win64; x64) AppleWebKit/537.36 (KHTML, like Gecko) Chrome/85.0.4183.121 Safari/537.36",120,"[0.9, 0.5, 0.1]","[0.8, 0.4, 0.2]","[u'black', u'blue', u'red']","[u'left', u'middle', u'right']","[0.8, 0.4, 0.2]","[u'low', u'high', u'medium']","blue",50,"middle","high","False","False",281,6000,NA
"A2UIGDOLX5RV95","Wed Sep 23 2020 11:20:08 GMT-0500 (Central Daylight Time)","Wed Sep 23 2020 11:26:37 GMT-0500 (Central Daylight Time)","Mozilla/5.0 (Windows NT 6.1; Win64; x64) AppleWebKit/537.36 (KHTML, like Gecko) Chrome/85.0.4183.121 Safari/537.36",121,"[0.9, 0.5, 0.1]","[0.8, 0.4, 0.2]","[u'black', u'blue', u'red']","[u'left', u'middle', u'right']","[0.8, 0.4, 0.2]","[u'low', u'medium', u'high']","black",49,"left","low","False","False",466,5950,NA
"A2UIGDOLX5RV95","Wed Sep 23 2020 11:20:08 GMT-0500 (Central Daylight Time)","Wed Sep 23 2020 11:26:37 GMT-0500 (Central Daylight Time)","Mozilla/5.0 (Windows NT 6.1; Win64; x64) AppleWebKit/537.36 (KHTML, like Gecko) Chrome/85.0.4183.121 Safari/537.36",122,"[0.9, 0.5, 0.1]","[0.8, 0.4, 0.2]","[u'black', u'blue', u'red']","[u'left', u'middle', u'right']","[0.8, 0.4, 0.2]","[u'low', u'medium', u'high']","black",49,"left","low","False","False",321,5900,NA
"A2UIGDOLX5RV95","Wed Sep 23 2020 11:20:08 GMT-0500 (Central Daylight Time)","Wed Sep 23 2020 11:26:37 GMT-0500 (Central Daylight Time)","Mozilla/5.0 (Windows NT 6.1; Win64; x64) AppleWebKit/537.36 (KHTML, like Gecko) Chrome/85.0.4183.121 Safari/537.36",123,"[0.9, 0.5, 0.1]","[0.8, 0.4, 0.2]","[u'black', u'blue', u'red']","[u'left', u'middle', u'right']","[0.8, 0.4, 0.2]","[u'low', u'medium', u'high']","blue",50,"middle","medium","True","False",267,6000,NA
"A2UIGDOLX5RV95","Wed Sep 23 2020 11:20:08 GMT-0500 (Central Daylight Time)","Wed Sep 23 2020 11:26:37 GMT-0500 (Central Daylight Time)","Mozilla/5.0 (Windows NT 6.1; Win64; x64) AppleWebKit/537.36 (KHTML, like Gecko) Chrome/85.0.4183.121 Safari/537.36",124,"[0.9, 0.5, 0.1]","[0.8, 0.4, 0.2]","[u'black', u'blue', u'red']","[u'left', u'middle', u'right']","[0.8, 0.4, 0.2]","[u'low', u'medium', u'high']","blue",50,"middle","medium","False","False",234,5950,NA
"A2UIGDOLX5RV95","Wed Sep 23 2020 11:20:08 GMT-0500 (Central Daylight Time)","Wed Sep 23 2020 11:26:37 GMT-0500 (Central Daylight Time)","Mozilla/5.0 (Windows NT 6.1; Win64; x64) AppleWebKit/537.36 (KHTML, like Gecko) Chrome/85.0.4183.121 Safari/537.36",125,"[0.9, 0.5, 0.1]","[0.8, 0.4, 0.2]","[u'black', u'blue', u'red']","[u'left', u'middle', u'right']","[0.8, 0.4, 0.2]","[u'low', u'medium', u'high']","blue",50,"middle","medium","True","False",254,6050,NA
"A2UIGDOLX5RV95","Wed Sep 23 2020 11:20:08 GMT-0500 (Central Daylight Time)","Wed Sep 23 2020 11:26:37 GMT-0500 (Central Daylight Time)","Mozilla/5.0 (Windows NT 6.1; Win64; x64) AppleWebKit/537.36 (KHTML, like Gecko) Chrome/85.0.4183.121 Safari/537.36",126,"[0.9, 0.5, 0.1]","[0.8, 0.4, 0.2]","[u'black', u'blue', u'red']","[u'left', u'middle', u'right']","[0.8, 0.4, 0.2]","[u'low', u'medium', u'high']","blue",50,"middle","medium","False","False",281,6000,NA
"A2UIGDOLX5RV95","Wed Sep 23 2020 11:20:08 GMT-0500 (Central Daylight Time)","Wed Sep 23 2020 11:26:37 GMT-0500 (Central Daylight Time)","Mozilla/5.0 (Windows NT 6.1; Win64; x64) AppleWebKit/537.36 (KHTML, like Gecko) Chrome/85.0.4183.121 Safari/537.36",127,"[0.9, 0.5, 0.1]","[0.8, 0.4, 0.2]","[u'black', u'blue', u'red']","[u'left', u'middle', u'right']","[0.8, 0.4, 0.2]","[u'low', u'medium', u'high']","blue",50,"middle","medium","False","False",268,5950,NA
"A2UIGDOLX5RV95","Wed Sep 23 2020 11:20:08 GMT-0500 (Central Daylight Time)","Wed Sep 23 2020 11:26:37 GMT-0500 (Central Daylight Time)","Mozilla/5.0 (Windows NT 6.1; Win64; x64) AppleWebKit/537.36 (KHTML, like Gecko) Chrome/85.0.4183.121 Safari/537.36",128,"[0.9, 0.5, 0.1]","[0.8, 0.4, 0.2]","[u'black', u'blue', u'red']","[u'left', u'middle', u'right']","[0.8, 0.4, 0.2]","[u'low', u'medium', u'high']","red",51,"right","high","True","False",274,6050,NA
"A2UIGDOLX5RV95","Wed Sep 23 2020 11:20:08 GMT-0500 (Central Daylight Time)","Wed Sep 23 2020 11:26:37 GMT-0500 (Central Daylight Time)","Mozilla/5.0 (Windows NT 6.1; Win64; x64) AppleWebKit/537.36 (KHTML, like Gecko) Chrome/85.0.4183.121 Safari/537.36",129,"[0.9, 0.5, 0.1]","[0.8, 0.4, 0.2]","[u'black', u'blue', u'red']","[u'left', u'middle', u'right']","[0.8, 0.4, 0.2]","[u'low', u'medium', u'high']","red",51,"right","high","True","False",231,6150,NA
"A2UIGDOLX5RV95","Wed Sep 23 2020 11:20:08 GMT-0500 (Central Daylight Time)","Wed Sep 23 2020 11:26:37 GMT-0500 (Central Daylight Time)","Mozilla/5.0 (Windows NT 6.1; Win64; x64) AppleWebKit/537.36 (KHTML, like Gecko) Chrome/85.0.4183.121 Safari/537.36",130,"[0.9, 0.5, 0.1]","[0.8, 0.4, 0.2]","[u'black', u'blue', u'red']","[u'left', u'middle', u'right']","[0.8, 0.4, 0.2]","[u'low', u'medium', u'high']","red",51,"right","high","True","False",219,6250,NA
"A2UIGDOLX5RV95","Wed Sep 23 2020 11:20:08 GMT-0500 (Central Daylight Time)","Wed Sep 23 2020 11:26:37 GMT-0500 (Central Daylight Time)","Mozilla/5.0 (Windows NT 6.1; Win64; x64) AppleWebKit/537.36 (KHTML, like Gecko) Chrome/85.0.4183.121 Safari/537.36",131,"[0.9, 0.5, 0.1]","[0.8, 0.4, 0.2]","[u'black', u'blue', u'red']","[u'left', u'middle', u'right']","[0.8, 0.4, 0.2]","[u'low', u'medium', u'high']","red",51,"right","high","True","False",256,6350,NA
"A2UIGDOLX5RV95","Wed Sep 23 2020 11:20:08 GMT-0500 (Central Daylight Time)","Wed Sep 23 2020 11:26:37 GMT-0500 (Central Daylight Time)","Mozilla/5.0 (Windows NT 6.1; Win64; x64) AppleWebKit/537.36 (KHTML, like Gecko) Chrome/85.0.4183.121 Safari/537.36",132,"[0.9, 0.5, 0.1]","[0.8, 0.4, 0.2]","[u'black', u'blue', u'red']","[u'left', u'middle', u'right']","[0.8, 0.4, 0.2]","[u'low', u'medium', u'high']","red",51,"right","high","False","False",236,6300,NA
"A2UIGDOLX5RV95","Wed Sep 23 2020 11:20:08 GMT-0500 (Central Daylight Time)","Wed Sep 23 2020 11:26:37 GMT-0500 (Central Daylight Time)","Mozilla/5.0 (Windows NT 6.1; Win64; x64) AppleWebKit/537.36 (KHTML, like Gecko) Chrome/85.0.4183.121 Safari/537.36",133,"[0.9, 0.5, 0.1]","[0.8, 0.4, 0.2]","[u'black', u'blue', u'red']","[u'left', u'middle', u'right']","[0.8, 0.4, 0.2]","[u'low', u'medium', u'high']","red",51,"right","high","False","False",251,6250,NA
"A2UIGDOLX5RV95","Wed Sep 23 2020 11:20:08 GMT-0500 (Central Daylight Time)","Wed Sep 23 2020 11:26:37 GMT-0500 (Central Daylight Time)","Mozilla/5.0 (Windows NT 6.1; Win64; x64) AppleWebKit/537.36 (KHTML, like Gecko) Chrome/85.0.4183.121 Safari/537.36",134,"[0.9, 0.5, 0.1]","[0.8, 0.4, 0.2]","[u'black', u'blue', u'red']","[u'left', u'middle', u'right']","[0.8, 0.4, 0.2]","[u'low', u'medium', u'high']","red",51,"right","high","True","False",215,6350,NA
"A2UIGDOLX5RV95","Wed Sep 23 2020 11:20:08 GMT-0500 (Central Daylight Time)","Wed Sep 23 2020 11:26:37 GMT-0500 (Central Daylight Time)","Mozilla/5.0 (Windows NT 6.1; Win64; x64) AppleWebKit/537.36 (KHTML, like Gecko) Chrome/85.0.4183.121 Safari/537.36",135,"[0.9, 0.5, 0.1]","[0.8, 0.4, 0.2]","[u'black', u'blue', u'red']","[u'left', u'middle', u'right']","[0.8, 0.4, 0.2]","[u'low', u'medium', u'high']","red",51,"right","high","True","False",249,6450,NA
"A2UIGDOLX5RV95","Wed Sep 23 2020 11:20:08 GMT-0500 (Central Daylight Time)","Wed Sep 23 2020 11:26:37 GMT-0500 (Central Daylight Time)","Mozilla/5.0 (Windows NT 6.1; Win64; x64) AppleWebKit/537.36 (KHTML, like Gecko) Chrome/85.0.4183.121 Safari/537.36",136,"[0.9, 0.5, 0.1]","[0.8, 0.4, 0.2]","[u'black', u'blue', u'red']","[u'left', u'middle', u'right']","[0.8, 0.4, 0.2]","[u'low', u'medium', u'high']","red",51,"right","high","True","True",281,6550,NA
"A2UIGDOLX5RV95","Wed Sep 23 2020 11:20:08 GMT-0500 (Central Daylight Time)","Wed Sep 23 2020 11:26:37 GMT-0500 (Central Daylight Time)","Mozilla/5.0 (Windows NT 6.1; Win64; x64) AppleWebKit/537.36 (KHTML, like Gecko) Chrome/85.0.4183.121 Safari/537.36",137,"[0.9, 0.5, 0.1]","[0.8, 0.4, 0.2]","[u'black', u'blue', u'red']","[u'left', u'middle', u'right']","[0.8, 0.4, 0.2]","[u'high', u'low', u'medium']","red",51,"right","medium","False","False",223,6500,NA
"A2UIGDOLX5RV95","Wed Sep 23 2020 11:20:08 GMT-0500 (Central Daylight Time)","Wed Sep 23 2020 11:26:37 GMT-0500 (Central Daylight Time)","Mozilla/5.0 (Windows NT 6.1; Win64; x64) AppleWebKit/537.36 (KHTML, like Gecko) Chrome/85.0.4183.121 Safari/537.36",138,"[0.9, 0.5, 0.1]","[0.8, 0.4, 0.2]","[u'black', u'blue', u'red']","[u'left', u'middle', u'right']","[0.8, 0.4, 0.2]","[u'high', u'low', u'medium']","red",51,"right","medium","False","False",216,6450,NA
"A2UIGDOLX5RV95","Wed Sep 23 2020 11:20:08 GMT-0500 (Central Daylight Time)","Wed Sep 23 2020 11:26:37 GMT-0500 (Central Daylight Time)","Mozilla/5.0 (Windows NT 6.1; Win64; x64) AppleWebKit/537.36 (KHTML, like Gecko) Chrome/85.0.4183.121 Safari/537.36",139,"[0.9, 0.5, 0.1]","[0.8, 0.4, 0.2]","[u'black', u'blue', u'red']","[u'left', u'middle', u'right']","[0.8, 0.4, 0.2]","[u'high', u'low', u'medium']","blue",50,"middle","low","True","False",233,6550,NA
"A2UIGDOLX5RV95","Wed Sep 23 2020 11:20:08 GMT-0500 (Central Daylight Time)","Wed Sep 23 2020 11:26:37 GMT-0500 (Central Daylight Time)","Mozilla/5.0 (Windows NT 6.1; Win64; x64) AppleWebKit/537.36 (KHTML, like Gecko) Chrome/85.0.4183.121 Safari/537.36",140,"[0.9, 0.5, 0.1]","[0.8, 0.4, 0.2]","[u'black', u'blue', u'red']","[u'left', u'middle', u'right']","[0.8, 0.4, 0.2]","[u'high', u'low', u'medium']","blue",50,"middle","low","True","False",276,6650,NA
"A2UIGDOLX5RV95","Wed Sep 23 2020 11:20:08 GMT-0500 (Central Daylight Time)","Wed Sep 23 2020 11:26:37 GMT-0500 (Central Daylight Time)","Mozilla/5.0 (Windows NT 6.1; Win64; x64) AppleWebKit/537.36 (KHTML, like Gecko) Chrome/85.0.4183.121 Safari/537.36",141,"[0.9, 0.5, 0.1]","[0.8, 0.4, 0.2]","[u'black', u'blue', u'red']","[u'left', u'middle', u'right']","[0.8, 0.4, 0.2]","[u'high', u'low', u'medium']","blue",50,"middle","low","False","False",257,6600,NA
"A2UIGDOLX5RV95","Wed Sep 23 2020 11:20:08 GMT-0500 (Central Daylight Time)","Wed Sep 23 2020 11:26:37 GMT-0500 (Central Daylight Time)","Mozilla/5.0 (Windows NT 6.1; Win64; x64) AppleWebKit/537.36 (KHTML, like Gecko) Chrome/85.0.4183.121 Safari/537.36",142,"[0.9, 0.5, 0.1]","[0.8, 0.4, 0.2]","[u'black', u'blue', u'red']","[u'left', u'middle', u'right']","[0.8, 0.4, 0.2]","[u'high', u'low', u'medium']","blue",50,"middle","low","False","False",226,6550,NA
"A2UIGDOLX5RV95","Wed Sep 23 2020 11:20:08 GMT-0500 (Central Daylight Time)","Wed Sep 23 2020 11:26:37 GMT-0500 (Central Daylight Time)","Mozilla/5.0 (Windows NT 6.1; Win64; x64) AppleWebKit/537.36 (KHTML, like Gecko) Chrome/85.0.4183.121 Safari/537.36",143,"[0.9, 0.5, 0.1]","[0.8, 0.4, 0.2]","[u'black', u'blue', u'red']","[u'left', u'middle', u'right']","[0.8, 0.4, 0.2]","[u'high', u'low', u'medium']","black",49,"left","high","True","False",216,6650,NA
"A2UIGDOLX5RV95","Wed Sep 23 2020 11:20:08 GMT-0500 (Central Daylight Time)","Wed Sep 23 2020 11:26:37 GMT-0500 (Central Daylight Time)","Mozilla/5.0 (Windows NT 6.1; Win64; x64) AppleWebKit/537.36 (KHTML, like Gecko) Chrome/85.0.4183.121 Safari/537.36",144,"[0.9, 0.5, 0.1]","[0.8, 0.4, 0.2]","[u'black', u'blue', u'red']","[u'left', u'middle', u'right']","[0.8, 0.4, 0.2]","[u'high', u'low', u'medium']","black",49,"left","high","True","False",269,6750,NA
"A2UIGDOLX5RV95","Wed Sep 23 2020 11:20:08 GMT-0500 (Central Daylight Time)","Wed Sep 23 2020 11:26:37 GMT-0500 (Central Daylight Time)","Mozilla/5.0 (Windows NT 6.1; Win64; x64) AppleWebKit/537.36 (KHTML, like Gecko) Chrome/85.0.4183.121 Safari/537.36",145,"[0.9, 0.5, 0.1]","[0.8, 0.4, 0.2]","[u'black', u'blue', u'red']","[u'left', u'middle', u'right']","[0.8, 0.4, 0.2]","[u'high', u'low', u'medium']","black",49,"left","high","True","False",234,6850,NA
"A2UIGDOLX5RV95","Wed Sep 23 2020 11:20:08 GMT-0500 (Central Daylight Time)","Wed Sep 23 2020 11:26:37 GMT-0500 (Central Daylight Time)","Mozilla/5.0 (Windows NT 6.1; Win64; x64) AppleWebKit/537.36 (KHTML, like Gecko) Chrome/85.0.4183.121 Safari/537.36",146,"[0.9, 0.5, 0.1]","[0.8, 0.4, 0.2]","[u'black', u'blue', u'red']","[u'left', u'middle', u'right']","[0.8, 0.4, 0.2]","[u'high', u'low', u'medium']","black",49,"left","high","True","False",289,6950,NA
"A2UIGDOLX5RV95","Wed Sep 23 2020 11:20:08 GMT-0500 (Central Daylight Time)","Wed Sep 23 2020 11:26:37 GMT-0500 (Central Daylight Time)","Mozilla/5.0 (Windows NT 6.1; Win64; x64) AppleWebKit/537.36 (KHTML, like Gecko) Chrome/85.0.4183.121 Safari/537.36",147,"[0.9, 0.5, 0.1]","[0.8, 0.4, 0.2]","[u'black', u'blue', u'red']","[u'left', u'middle', u'right']","[0.8, 0.4, 0.2]","[u'high', u'low', u'medium']","black",49,"left","high","True","False",476,7050,NA
"A2UIGDOLX5RV95","Wed Sep 23 2020 11:20:08 GMT-0500 (Central Daylight Time)","Wed Sep 23 2020 11:26:37 GMT-0500 (Central Daylight Time)","Mozilla/5.0 (Windows NT 6.1; Win64; x64) AppleWebKit/537.36 (KHTML, like Gecko) Chrome/85.0.4183.121 Safari/537.36",148,"[0.9, 0.5, 0.1]","[0.8, 0.4, 0.2]","[u'black', u'blue', u'red']","[u'left', u'middle', u'right']","[0.8, 0.4, 0.2]","[u'high', u'low', u'medium']","black",49,"left","high","False","False",249,7000,NA
"A2UIGDOLX5RV95","Wed Sep 23 2020 11:20:08 GMT-0500 (Central Daylight Time)","Wed Sep 23 2020 11:26:37 GMT-0500 (Central Daylight Time)","Mozilla/5.0 (Windows NT 6.1; Win64; x64) AppleWebKit/537.36 (KHTML, like Gecko) Chrome/85.0.4183.121 Safari/537.36",149,"[0.9, 0.5, 0.1]","[0.8, 0.4, 0.2]","[u'black', u'blue', u'red']","[u'left', u'middle', u'right']","[0.8, 0.4, 0.2]","[u'high', u'low', u'medium']","black",49,"left","high","False","False",201,6950,NA
"A2UIGDOLX5RV95","Wed Sep 23 2020 11:20:08 GMT-0500 (Central Daylight Time)","Wed Sep 23 2020 11:26:37 GMT-0500 (Central Daylight Time)","Mozilla/5.0 (Windows NT 6.1; Win64; x64) AppleWebKit/537.36 (KHTML, like Gecko) Chrome/85.0.4183.121 Safari/537.36",150,"[0.9, 0.5, 0.1]","[0.8, 0.4, 0.2]","[u'black', u'blue', u'red']","[u'left', u'middle', u'right']","[0.8, 0.4, 0.2]","[u'high', u'low', u'medium']","black",49,"left","high","True","False",29,7050,NA
"A2UIGDOLX5RV95","Wed Sep 23 2020 11:20:08 GMT-0500 (Central Daylight Time)","Wed Sep 23 2020 11:26:37 GMT-0500 (Central Daylight Time)","Mozilla/5.0 (Windows NT 6.1; Win64; x64) AppleWebKit/537.36 (KHTML, like Gecko) Chrome/85.0.4183.121 Safari/537.36",151,"[0.9, 0.5, 0.1]","[0.8, 0.4, 0.2]","[u'black', u'blue', u'red']","[u'left', u'middle', u'right']","[0.8, 0.4, 0.2]","[u'high', u'low', u'medium']","black",49,"left","high","True","True",219,7150,NA
"A2UIGDOLX5RV95","Wed Sep 23 2020 11:20:08 GMT-0500 (Central Daylight Time)","Wed Sep 23 2020 11:26:37 GMT-0500 (Central Daylight Time)","Mozilla/5.0 (Windows NT 6.1; Win64; x64) AppleWebKit/537.36 (KHTML, like Gecko) Chrome/85.0.4183.121 Safari/537.36",152,"[0.9, 0.5, 0.1]","[0.8, 0.4, 0.2]","[u'black', u'blue', u'red']","[u'left', u'middle', u'right']","[0.8, 0.4, 0.2]","[u'medium', u'high', u'low']","black",49,"left","medium","True","False",230,7250,NA
"A2UIGDOLX5RV95","Wed Sep 23 2020 11:20:08 GMT-0500 (Central Daylight Time)","Wed Sep 23 2020 11:26:37 GMT-0500 (Central Daylight Time)","Mozilla/5.0 (Windows NT 6.1; Win64; x64) AppleWebKit/537.36 (KHTML, like Gecko) Chrome/85.0.4183.121 Safari/537.36",153,"[0.9, 0.5, 0.1]","[0.8, 0.4, 0.2]","[u'black', u'blue', u'red']","[u'left', u'middle', u'right']","[0.8, 0.4, 0.2]","[u'medium', u'high', u'low']","black",49,"left","medium","False","False",244,7200,NA
"A2UIGDOLX5RV95","Wed Sep 23 2020 11:20:08 GMT-0500 (Central Daylight Time)","Wed Sep 23 2020 11:26:37 GMT-0500 (Central Daylight Time)","Mozilla/5.0 (Windows NT 6.1; Win64; x64) AppleWebKit/537.36 (KHTML, like Gecko) Chrome/85.0.4183.121 Safari/537.36",154,"[0.9, 0.5, 0.1]","[0.8, 0.4, 0.2]","[u'black', u'blue', u'red']","[u'left', u'middle', u'right']","[0.8, 0.4, 0.2]","[u'medium', u'high', u'low']","black",49,"left","medium","False","False",88,7150,NA
"A2UIGDOLX5RV95","Wed Sep 23 2020 11:20:08 GMT-0500 (Central Daylight Time)","Wed Sep 23 2020 11:26:37 GMT-0500 (Central Daylight Time)","Mozilla/5.0 (Windows NT 6.1; Win64; x64) AppleWebKit/537.36 (KHTML, like Gecko) Chrome/85.0.4183.121 Safari/537.36",155,"[0.9, 0.5, 0.1]","[0.8, 0.4, 0.2]","[u'black', u'blue', u'red']","[u'left', u'middle', u'right']","[0.8, 0.4, 0.2]","[u'medium', u'high', u'low']","black",49,"left","medium","False","False",80,7100,NA
"A2UIGDOLX5RV95","Wed Sep 23 2020 11:20:08 GMT-0500 (Central Daylight Time)","Wed Sep 23 2020 11:26:37 GMT-0500 (Central Daylight Time)","Mozilla/5.0 (Windows NT 6.1; Win64; x64) AppleWebKit/537.36 (KHTML, like Gecko) Chrome/85.0.4183.121 Safari/537.36",156,"[0.9, 0.5, 0.1]","[0.8, 0.4, 0.2]","[u'black', u'blue', u'red']","[u'left', u'middle', u'right']","[0.8, 0.4, 0.2]","[u'medium', u'high', u'low']","blue",50,"middle","high","True","False",158,7200,NA
"A2UIGDOLX5RV95","Wed Sep 23 2020 11:20:08 GMT-0500 (Central Daylight Time)","Wed Sep 23 2020 11:26:37 GMT-0500 (Central Daylight Time)","Mozilla/5.0 (Windows NT 6.1; Win64; x64) AppleWebKit/537.36 (KHTML, like Gecko) Chrome/85.0.4183.121 Safari/537.36",157,"[0.9, 0.5, 0.1]","[0.8, 0.4, 0.2]","[u'black', u'blue', u'red']","[u'left', u'middle', u'right']","[0.8, 0.4, 0.2]","[u'medium', u'high', u'low']","blue",50,"middle","high","True","False",321,7300,NA
"A2UIGDOLX5RV95","Wed Sep 23 2020 11:20:08 GMT-0500 (Central Daylight Time)","Wed Sep 23 2020 11:26:37 GMT-0500 (Central Daylight Time)","Mozilla/5.0 (Windows NT 6.1; Win64; x64) AppleWebKit/537.36 (KHTML, like Gecko) Chrome/85.0.4183.121 Safari/537.36",158,"[0.9, 0.5, 0.1]","[0.8, 0.4, 0.2]","[u'black', u'blue', u'red']","[u'left', u'middle', u'right']","[0.8, 0.4, 0.2]","[u'medium', u'high', u'low']","blue",50,"middle","high","True","False",254,7400,NA
"A2UIGDOLX5RV95","Wed Sep 23 2020 11:20:08 GMT-0500 (Central Daylight Time)","Wed Sep 23 2020 11:26:37 GMT-0500 (Central Daylight Time)","Mozilla/5.0 (Windows NT 6.1; Win64; x64) AppleWebKit/537.36 (KHTML, like Gecko) Chrome/85.0.4183.121 Safari/537.36",159,"[0.9, 0.5, 0.1]","[0.8, 0.4, 0.2]","[u'black', u'blue', u'red']","[u'left', u'middle', u'right']","[0.8, 0.4, 0.2]","[u'medium', u'high', u'low']","blue",50,"middle","high","True","False",234,7500,NA
"A2UIGDOLX5RV95","Wed Sep 23 2020 11:20:08 GMT-0500 (Central Daylight Time)","Wed Sep 23 2020 11:26:37 GMT-0500 (Central Daylight Time)","Mozilla/5.0 (Windows NT 6.1; Win64; x64) AppleWebKit/537.36 (KHTML, like Gecko) Chrome/85.0.4183.121 Safari/537.36",160,"[0.9, 0.5, 0.1]","[0.8, 0.4, 0.2]","[u'black', u'blue', u'red']","[u'left', u'middle', u'right']","[0.8, 0.4, 0.2]","[u'medium', u'high', u'low']","blue",50,"middle","high","True","False",347,7600,NA
