"src_subject_id","start_time","end_time","browser","index","first_half_probabilities","second_half_probabilities","deck_color","deck_position","deck_probabilities","deck_contingencies","response_color","key_press","response_position","response_probability","reward_type","trial_type","rt","reward_tally","exclusion_reason"
"ALEJV7D94ZLHF","Wed Jan 29 2020 11:41:00 GMT-0700 (Mountain Standard Time)","Wed Jan 29 2020 11:47:23 GMT-0700 (Mountain Standard Time)","Mozilla/5.0 (Windows NT 10.0; Win64; x64) AppleWebKit/537.36 (KHTML, like Gecko) Chrome/79.0.3945.130 Safari/537.36",1,"[0.9, 0.5, 0.1]","[0.8, 0.4, 0.2]","[u'red', u'black', u'blue']","[u'left', u'middle', u'right']","[0.9, 0.5, 0.1]","[u'low', u'medium', u'high']","red",49,"left","low","False","False",1684,-50,NA
"ALEJV7D94ZLHF","Wed Jan 29 2020 11:41:00 GMT-0700 (Mountain Standard Time)","Wed Jan 29 2020 11:47:23 GMT-0700 (Mountain Standard Time)","Mozilla/5.0 (Windows NT 10.0; Win64; x64) AppleWebKit/537.36 (KHTML, like Gecko) Chrome/79.0.3945.130 Safari/537.36",2,"[0.9, 0.5, 0.1]","[0.8, 0.4, 0.2]","[u'red', u'black', u'blue']","[u'left', u'middle', u'right']","[0.9, 0.5, 0.1]","[u'low', u'medium', u'high']","red",49,"left","low","False","False",337,-100,NA
"ALEJV7D94ZLHF","Wed Jan 29 2020 11:41:00 GMT-0700 (Mountain Standard Time)","Wed Jan 29 2020 11:47:23 GMT-0700 (Mountain Standard Time)","Mozilla/5.0 (Windows NT 10.0; Win64; x64) AppleWebKit/537.36 (KHTML, like Gecko) Chrome/79.0.3945.130 Safari/537.36",3,"[0.9, 0.5, 0.1]","[0.8, 0.4, 0.2]","[u'red', u'black', u'blue']","[u'left', u'middle', u'right']","[0.9, 0.5, 0.1]","[u'low', u'medium', u'high']","black",50,"middle","medium","True","False",263,0,NA
"ALEJV7D94ZLHF","Wed Jan 29 2020 11:41:00 GMT-0700 (Mountain Standard Time)","Wed Jan 29 2020 11:47:23 GMT-0700 (Mountain Standard Time)","Mozilla/5.0 (Windows NT 10.0; Win64; x64) AppleWebKit/537.36 (KHTML, like Gecko) Chrome/79.0.3945.130 Safari/537.36",4,"[0.9, 0.5, 0.1]","[0.8, 0.4, 0.2]","[u'red', u'black', u'blue']","[u'left', u'middle', u'right']","[0.9, 0.5, 0.1]","[u'low', u'medium', u'high']","black",50,"middle","medium","False","False",388,-50,NA
"ALEJV7D94ZLHF","Wed Jan 29 2020 11:41:00 GMT-0700 (Mountain Standard Time)","Wed Jan 29 2020 11:47:23 GMT-0700 (Mountain Standard Time)","Mozilla/5.0 (Windows NT 10.0; Win64; x64) AppleWebKit/537.36 (KHTML, like Gecko) Chrome/79.0.3945.130 Safari/537.36",5,"[0.9, 0.5, 0.1]","[0.8, 0.4, 0.2]","[u'red', u'black', u'blue']","[u'left', u'middle', u'right']","[0.9, 0.5, 0.1]","[u'low', u'medium', u'high']","black",50,"middle","medium","True","False",252,50,NA
"ALEJV7D94ZLHF","Wed Jan 29 2020 11:41:00 GMT-0700 (Mountain Standard Time)","Wed Jan 29 2020 11:47:23 GMT-0700 (Mountain Standard Time)","Mozilla/5.0 (Windows NT 10.0; Win64; x64) AppleWebKit/537.36 (KHTML, like Gecko) Chrome/79.0.3945.130 Safari/537.36",6,"[0.9, 0.5, 0.1]","[0.8, 0.4, 0.2]","[u'red', u'black', u'blue']","[u'left', u'middle', u'right']","[0.9, 0.5, 0.1]","[u'low', u'medium', u'high']","black",50,"middle","medium","True","False",279,150,NA
"ALEJV7D94ZLHF","Wed Jan 29 2020 11:41:00 GMT-0700 (Mountain Standard Time)","Wed Jan 29 2020 11:47:23 GMT-0700 (Mountain Standard Time)","Mozilla/5.0 (Windows NT 10.0; Win64; x64) AppleWebKit/537.36 (KHTML, like Gecko) Chrome/79.0.3945.130 Safari/537.36",7,"[0.9, 0.5, 0.1]","[0.8, 0.4, 0.2]","[u'red', u'black', u'blue']","[u'left', u'middle', u'right']","[0.9, 0.5, 0.1]","[u'low', u'medium', u'high']","black",50,"middle","medium","True","False",259,250,NA
"ALEJV7D94ZLHF","Wed Jan 29 2020 11:41:00 GMT-0700 (Mountain Standard Time)","Wed Jan 29 2020 11:47:23 GMT-0700 (Mountain Standard Time)","Mozilla/5.0 (Windows NT 10.0; Win64; x64) AppleWebKit/537.36 (KHTML, like Gecko) Chrome/79.0.3945.130 Safari/537.36",8,"[0.9, 0.5, 0.1]","[0.8, 0.4, 0.2]","[u'red', u'black', u'blue']","[u'left', u'middle', u'right']","[0.9, 0.5, 0.1]","[u'low', u'medium', u'high']","black",50,"middle","medium","True","False",652,350,NA
"ALEJV7D94ZLHF","Wed Jan 29 2020 11:41:00 GMT-0700 (Mountain Standard Time)","Wed Jan 29 2020 11:47:23 GMT-0700 (Mountain Standard Time)","Mozilla/5.0 (Windows NT 10.0; Win64; x64) AppleWebKit/537.36 (KHTML, like Gecko) Chrome/79.0.3945.130 Safari/537.36",9,"[0.9, 0.5, 0.1]","[0.8, 0.4, 0.2]","[u'red', u'black', u'blue']","[u'left', u'middle', u'right']","[0.9, 0.5, 0.1]","[u'low', u'medium', u'high']","black",50,"middle","medium","False","False",1036,300,NA
"ALEJV7D94ZLHF","Wed Jan 29 2020 11:41:00 GMT-0700 (Mountain Standard Time)","Wed Jan 29 2020 11:47:23 GMT-0700 (Mountain Standard Time)","Mozilla/5.0 (Windows NT 10.0; Win64; x64) AppleWebKit/537.36 (KHTML, like Gecko) Chrome/79.0.3945.130 Safari/537.36",10,"[0.9, 0.5, 0.1]","[0.8, 0.4, 0.2]","[u'red', u'black', u'blue']","[u'left', u'middle', u'right']","[0.9, 0.5, 0.1]","[u'low', u'medium', u'high']","black",50,"middle","medium","True","False",295,400,NA
"ALEJV7D94ZLHF","Wed Jan 29 2020 11:41:00 GMT-0700 (Mountain Standard Time)","Wed Jan 29 2020 11:47:23 GMT-0700 (Mountain Standard Time)","Mozilla/5.0 (Windows NT 10.0; Win64; x64) AppleWebKit/537.36 (KHTML, like Gecko) Chrome/79.0.3945.130 Safari/537.36",11,"[0.9, 0.5, 0.1]","[0.8, 0.4, 0.2]","[u'red', u'black', u'blue']","[u'left', u'middle', u'right']","[0.9, 0.5, 0.1]","[u'low', u'medium', u'high']","black",50,"middle","medium","True","False",3321,500,NA
"ALEJV7D94ZLHF","Wed Jan 29 2020 11:41:00 GMT-0700 (Mountain Standard Time)","Wed Jan 29 2020 11:47:23 GMT-0700 (Mountain Standard Time)","Mozilla/5.0 (Windows NT 10.0; Win64; x64) AppleWebKit/537.36 (KHTML, like Gecko) Chrome/79.0.3945.130 Safari/537.36",12,"[0.9, 0.5, 0.1]","[0.8, 0.4, 0.2]","[u'red', u'black', u'blue']","[u'left', u'middle', u'right']","[0.9, 0.5, 0.1]","[u'low', u'medium', u'high']","black",50,"middle","medium","True","False",293,600,NA
"ALEJV7D94ZLHF","Wed Jan 29 2020 11:41:00 GMT-0700 (Mountain Standard Time)","Wed Jan 29 2020 11:47:23 GMT-0700 (Mountain Standard Time)","Mozilla/5.0 (Windows NT 10.0; Win64; x64) AppleWebKit/537.36 (KHTML, like Gecko) Chrome/79.0.3945.130 Safari/537.36",13,"[0.9, 0.5, 0.1]","[0.8, 0.4, 0.2]","[u'red', u'black', u'blue']","[u'left', u'middle', u'right']","[0.9, 0.5, 0.1]","[u'low', u'medium', u'high']","black",50,"middle","medium","False","False",392,550,NA
"ALEJV7D94ZLHF","Wed Jan 29 2020 11:41:00 GMT-0700 (Mountain Standard Time)","Wed Jan 29 2020 11:47:23 GMT-0700 (Mountain Standard Time)","Mozilla/5.0 (Windows NT 10.0; Win64; x64) AppleWebKit/537.36 (KHTML, like Gecko) Chrome/79.0.3945.130 Safari/537.36",14,"[0.9, 0.5, 0.1]","[0.8, 0.4, 0.2]","[u'red', u'black', u'blue']","[u'left', u'middle', u'right']","[0.9, 0.5, 0.1]","[u'low', u'medium', u'high']","black",50,"middle","medium","False","False",109,500,NA
"ALEJV7D94ZLHF","Wed Jan 29 2020 11:41:00 GMT-0700 (Mountain Standard Time)","Wed Jan 29 2020 11:47:23 GMT-0700 (Mountain Standard Time)","Mozilla/5.0 (Windows NT 10.0; Win64; x64) AppleWebKit/537.36 (KHTML, like Gecko) Chrome/79.0.3945.130 Safari/537.36",15,"[0.9, 0.5, 0.1]","[0.8, 0.4, 0.2]","[u'red', u'black', u'blue']","[u'left', u'middle', u'right']","[0.9, 0.5, 0.1]","[u'low', u'medium', u'high']","blue",51,"right","high","True","False",231,600,NA
"ALEJV7D94ZLHF","Wed Jan 29 2020 11:41:00 GMT-0700 (Mountain Standard Time)","Wed Jan 29 2020 11:47:23 GMT-0700 (Mountain Standard Time)","Mozilla/5.0 (Windows NT 10.0; Win64; x64) AppleWebKit/537.36 (KHTML, like Gecko) Chrome/79.0.3945.130 Safari/537.36",16,"[0.9, 0.5, 0.1]","[0.8, 0.4, 0.2]","[u'red', u'black', u'blue']","[u'left', u'middle', u'right']","[0.9, 0.5, 0.1]","[u'low', u'medium', u'high']","blue",51,"right","high","True","False",236,700,NA
"ALEJV7D94ZLHF","Wed Jan 29 2020 11:41:00 GMT-0700 (Mountain Standard Time)","Wed Jan 29 2020 11:47:23 GMT-0700 (Mountain Standard Time)","Mozilla/5.0 (Windows NT 10.0; Win64; x64) AppleWebKit/537.36 (KHTML, like Gecko) Chrome/79.0.3945.130 Safari/537.36",17,"[0.9, 0.5, 0.1]","[0.8, 0.4, 0.2]","[u'red', u'black', u'blue']","[u'left', u'middle', u'right']","[0.9, 0.5, 0.1]","[u'low', u'medium', u'high']","blue",51,"right","high","True","False",284,800,NA
"ALEJV7D94ZLHF","Wed Jan 29 2020 11:41:00 GMT-0700 (Mountain Standard Time)","Wed Jan 29 2020 11:47:23 GMT-0700 (Mountain Standard Time)","Mozilla/5.0 (Windows NT 10.0; Win64; x64) AppleWebKit/537.36 (KHTML, like Gecko) Chrome/79.0.3945.130 Safari/537.36",18,"[0.9, 0.5, 0.1]","[0.8, 0.4, 0.2]","[u'red', u'black', u'blue']","[u'left', u'middle', u'right']","[0.9, 0.5, 0.1]","[u'low', u'medium', u'high']","blue",51,"right","high","True","False",251,900,NA
"ALEJV7D94ZLHF","Wed Jan 29 2020 11:41:00 GMT-0700 (Mountain Standard Time)","Wed Jan 29 2020 11:47:23 GMT-0700 (Mountain Standard Time)","Mozilla/5.0 (Windows NT 10.0; Win64; x64) AppleWebKit/537.36 (KHTML, like Gecko) Chrome/79.0.3945.130 Safari/537.36",19,"[0.9, 0.5, 0.1]","[0.8, 0.4, 0.2]","[u'red', u'black', u'blue']","[u'left', u'middle', u'right']","[0.9, 0.5, 0.1]","[u'low', u'medium', u'high']","blue",51,"right","high","True","False",1079,1000,NA
"ALEJV7D94ZLHF","Wed Jan 29 2020 11:41:00 GMT-0700 (Mountain Standard Time)","Wed Jan 29 2020 11:47:23 GMT-0700 (Mountain Standard Time)","Mozilla/5.0 (Windows NT 10.0; Win64; x64) AppleWebKit/537.36 (KHTML, like Gecko) Chrome/79.0.3945.130 Safari/537.36",20,"[0.9, 0.5, 0.1]","[0.8, 0.4, 0.2]","[u'red', u'black', u'blue']","[u'left', u'middle', u'right']","[0.9, 0.5, 0.1]","[u'low', u'medium', u'high']","blue",51,"right","high","True","False",283,1100,NA
"ALEJV7D94ZLHF","Wed Jan 29 2020 11:41:00 GMT-0700 (Mountain Standard Time)","Wed Jan 29 2020 11:47:23 GMT-0700 (Mountain Standard Time)","Mozilla/5.0 (Windows NT 10.0; Win64; x64) AppleWebKit/537.36 (KHTML, like Gecko) Chrome/79.0.3945.130 Safari/537.36",21,"[0.9, 0.5, 0.1]","[0.8, 0.4, 0.2]","[u'red', u'black', u'blue']","[u'left', u'middle', u'right']","[0.9, 0.5, 0.1]","[u'low', u'medium', u'high']","blue",51,"right","high","True","False",129,1200,NA
"ALEJV7D94ZLHF","Wed Jan 29 2020 11:41:00 GMT-0700 (Mountain Standard Time)","Wed Jan 29 2020 11:47:23 GMT-0700 (Mountain Standard Time)","Mozilla/5.0 (Windows NT 10.0; Win64; x64) AppleWebKit/537.36 (KHTML, like Gecko) Chrome/79.0.3945.130 Safari/537.36",22,"[0.9, 0.5, 0.1]","[0.8, 0.4, 0.2]","[u'red', u'black', u'blue']","[u'left', u'middle', u'right']","[0.9, 0.5, 0.1]","[u'low', u'medium', u'high']","blue",51,"right","high","True","False",279,1300,NA
"ALEJV7D94ZLHF","Wed Jan 29 2020 11:41:00 GMT-0700 (Mountain Standard Time)","Wed Jan 29 2020 11:47:23 GMT-0700 (Mountain Standard Time)","Mozilla/5.0 (Windows NT 10.0; Win64; x64) AppleWebKit/537.36 (KHTML, like Gecko) Chrome/79.0.3945.130 Safari/537.36",23,"[0.9, 0.5, 0.1]","[0.8, 0.4, 0.2]","[u'red', u'black', u'blue']","[u'left', u'middle', u'right']","[0.9, 0.5, 0.1]","[u'low', u'medium', u'high']","blue",51,"right","high","True","True",545,1400,NA
"ALEJV7D94ZLHF","Wed Jan 29 2020 11:41:00 GMT-0700 (Mountain Standard Time)","Wed Jan 29 2020 11:47:23 GMT-0700 (Mountain Standard Time)","Mozilla/5.0 (Windows NT 10.0; Win64; x64) AppleWebKit/537.36 (KHTML, like Gecko) Chrome/79.0.3945.130 Safari/537.36",24,"[0.9, 0.5, 0.1]","[0.8, 0.4, 0.2]","[u'red', u'black', u'blue']","[u'left', u'middle', u'right']","[0.9, 0.5, 0.1]","[u'medium', u'high', u'low']","blue",51,"right","low","False","False",508,1350,NA
"ALEJV7D94ZLHF","Wed Jan 29 2020 11:41:00 GMT-0700 (Mountain Standard Time)","Wed Jan 29 2020 11:47:23 GMT-0700 (Mountain Standard Time)","Mozilla/5.0 (Windows NT 10.0; Win64; x64) AppleWebKit/537.36 (KHTML, like Gecko) Chrome/79.0.3945.130 Safari/537.36",25,"[0.9, 0.5, 0.1]","[0.8, 0.4, 0.2]","[u'red', u'black', u'blue']","[u'left', u'middle', u'right']","[0.9, 0.5, 0.1]","[u'medium', u'high', u'low']","blue",51,"right","low","False","False",232,1300,NA
"ALEJV7D94ZLHF","Wed Jan 29 2020 11:41:00 GMT-0700 (Mountain Standard Time)","Wed Jan 29 2020 11:47:23 GMT-0700 (Mountain Standard Time)","Mozilla/5.0 (Windows NT 10.0; Win64; x64) AppleWebKit/537.36 (KHTML, like Gecko) Chrome/79.0.3945.130 Safari/537.36",26,"[0.9, 0.5, 0.1]","[0.8, 0.4, 0.2]","[u'red', u'black', u'blue']","[u'left', u'middle', u'right']","[0.9, 0.5, 0.1]","[u'medium', u'high', u'low']","red",49,"left","medium","True","False",234,1400,NA
"ALEJV7D94ZLHF","Wed Jan 29 2020 11:41:00 GMT-0700 (Mountain Standard Time)","Wed Jan 29 2020 11:47:23 GMT-0700 (Mountain Standard Time)","Mozilla/5.0 (Windows NT 10.0; Win64; x64) AppleWebKit/537.36 (KHTML, like Gecko) Chrome/79.0.3945.130 Safari/537.36",27,"[0.9, 0.5, 0.1]","[0.8, 0.4, 0.2]","[u'red', u'black', u'blue']","[u'left', u'middle', u'right']","[0.9, 0.5, 0.1]","[u'medium', u'high', u'low']","red",49,"left","medium","True","False",635,1500,NA
"ALEJV7D94ZLHF","Wed Jan 29 2020 11:41:00 GMT-0700 (Mountain Standard Time)","Wed Jan 29 2020 11:47:23 GMT-0700 (Mountain Standard Time)","Mozilla/5.0 (Windows NT 10.0; Win64; x64) AppleWebKit/537.36 (KHTML, like Gecko) Chrome/79.0.3945.130 Safari/537.36",28,"[0.9, 0.5, 0.1]","[0.8, 0.4, 0.2]","[u'red', u'black', u'blue']","[u'left', u'middle', u'right']","[0.9, 0.5, 0.1]","[u'medium', u'high', u'low']","red",49,"left","medium","False","False",251,1450,NA
"ALEJV7D94ZLHF","Wed Jan 29 2020 11:41:00 GMT-0700 (Mountain Standard Time)","Wed Jan 29 2020 11:47:23 GMT-0700 (Mountain Standard Time)","Mozilla/5.0 (Windows NT 10.0; Win64; x64) AppleWebKit/537.36 (KHTML, like Gecko) Chrome/79.0.3945.130 Safari/537.36",29,"[0.9, 0.5, 0.1]","[0.8, 0.4, 0.2]","[u'red', u'black', u'blue']","[u'left', u'middle', u'right']","[0.9, 0.5, 0.1]","[u'medium', u'high', u'low']","red",49,"left","medium","False","False",464,1400,NA
"ALEJV7D94ZLHF","Wed Jan 29 2020 11:41:00 GMT-0700 (Mountain Standard Time)","Wed Jan 29 2020 11:47:23 GMT-0700 (Mountain Standard Time)","Mozilla/5.0 (Windows NT 10.0; Win64; x64) AppleWebKit/537.36 (KHTML, like Gecko) Chrome/79.0.3945.130 Safari/537.36",30,"[0.9, 0.5, 0.1]","[0.8, 0.4, 0.2]","[u'red', u'black', u'blue']","[u'left', u'middle', u'right']","[0.9, 0.5, 0.1]","[u'medium', u'high', u'low']","black",50,"middle","high","False","False",260,1350,NA
"ALEJV7D94ZLHF","Wed Jan 29 2020 11:41:00 GMT-0700 (Mountain Standard Time)","Wed Jan 29 2020 11:47:23 GMT-0700 (Mountain Standard Time)","Mozilla/5.0 (Windows NT 10.0; Win64; x64) AppleWebKit/537.36 (KHTML, like Gecko) Chrome/79.0.3945.130 Safari/537.36",31,"[0.9, 0.5, 0.1]","[0.8, 0.4, 0.2]","[u'red', u'black', u'blue']","[u'left', u'middle', u'right']","[0.9, 0.5, 0.1]","[u'medium', u'high', u'low']","blue",51,"right","low","False","False",340,1300,NA
"ALEJV7D94ZLHF","Wed Jan 29 2020 11:41:00 GMT-0700 (Mountain Standard Time)","Wed Jan 29 2020 11:47:23 GMT-0700 (Mountain Standard Time)","Mozilla/5.0 (Windows NT 10.0; Win64; x64) AppleWebKit/537.36 (KHTML, like Gecko) Chrome/79.0.3945.130 Safari/537.36",32,"[0.9, 0.5, 0.1]","[0.8, 0.4, 0.2]","[u'red', u'black', u'blue']","[u'left', u'middle', u'right']","[0.9, 0.5, 0.1]","[u'medium', u'high', u'low']","blue",51,"right","low","False","False",248,1250,NA
"ALEJV7D94ZLHF","Wed Jan 29 2020 11:41:00 GMT-0700 (Mountain Standard Time)","Wed Jan 29 2020 11:47:23 GMT-0700 (Mountain Standard Time)","Mozilla/5.0 (Windows NT 10.0; Win64; x64) AppleWebKit/537.36 (KHTML, like Gecko) Chrome/79.0.3945.130 Safari/537.36",33,"[0.9, 0.5, 0.1]","[0.8, 0.4, 0.2]","[u'red', u'black', u'blue']","[u'left', u'middle', u'right']","[0.9, 0.5, 0.1]","[u'medium', u'high', u'low']","red",49,"left","medium","True","False",233,1350,NA
"ALEJV7D94ZLHF","Wed Jan 29 2020 11:41:00 GMT-0700 (Mountain Standard Time)","Wed Jan 29 2020 11:47:23 GMT-0700 (Mountain Standard Time)","Mozilla/5.0 (Windows NT 10.0; Win64; x64) AppleWebKit/537.36 (KHTML, like Gecko) Chrome/79.0.3945.130 Safari/537.36",34,"[0.9, 0.5, 0.1]","[0.8, 0.4, 0.2]","[u'red', u'black', u'blue']","[u'left', u'middle', u'right']","[0.9, 0.5, 0.1]","[u'medium', u'high', u'low']","red",49,"left","medium","True","False",1054,1450,NA
"ALEJV7D94ZLHF","Wed Jan 29 2020 11:41:00 GMT-0700 (Mountain Standard Time)","Wed Jan 29 2020 11:47:23 GMT-0700 (Mountain Standard Time)","Mozilla/5.0 (Windows NT 10.0; Win64; x64) AppleWebKit/537.36 (KHTML, like Gecko) Chrome/79.0.3945.130 Safari/537.36",35,"[0.9, 0.5, 0.1]","[0.8, 0.4, 0.2]","[u'red', u'black', u'blue']","[u'left', u'middle', u'right']","[0.9, 0.5, 0.1]","[u'medium', u'high', u'low']","red",49,"left","medium","False","False",156,1400,NA
"ALEJV7D94ZLHF","Wed Jan 29 2020 11:41:00 GMT-0700 (Mountain Standard Time)","Wed Jan 29 2020 11:47:23 GMT-0700 (Mountain Standard Time)","Mozilla/5.0 (Windows NT 10.0; Win64; x64) AppleWebKit/537.36 (KHTML, like Gecko) Chrome/79.0.3945.130 Safari/537.36",36,"[0.9, 0.5, 0.1]","[0.8, 0.4, 0.2]","[u'red', u'black', u'blue']","[u'left', u'middle', u'right']","[0.9, 0.5, 0.1]","[u'medium', u'high', u'low']","red",49,"left","medium","False","False",273,1350,NA
"ALEJV7D94ZLHF","Wed Jan 29 2020 11:41:00 GMT-0700 (Mountain Standard Time)","Wed Jan 29 2020 11:47:23 GMT-0700 (Mountain Standard Time)","Mozilla/5.0 (Windows NT 10.0; Win64; x64) AppleWebKit/537.36 (KHTML, like Gecko) Chrome/79.0.3945.130 Safari/537.36",37,"[0.9, 0.5, 0.1]","[0.8, 0.4, 0.2]","[u'red', u'black', u'blue']","[u'left', u'middle', u'right']","[0.9, 0.5, 0.1]","[u'medium', u'high', u'low']","black",50,"middle","high","True","False",257,1450,NA
"ALEJV7D94ZLHF","Wed Jan 29 2020 11:41:00 GMT-0700 (Mountain Standard Time)","Wed Jan 29 2020 11:47:23 GMT-0700 (Mountain Standard Time)","Mozilla/5.0 (Windows NT 10.0; Win64; x64) AppleWebKit/537.36 (KHTML, like Gecko) Chrome/79.0.3945.130 Safari/537.36",38,"[0.9, 0.5, 0.1]","[0.8, 0.4, 0.2]","[u'red', u'black', u'blue']","[u'left', u'middle', u'right']","[0.9, 0.5, 0.1]","[u'medium', u'high', u'low']","black",50,"middle","high","True","False",278,1550,NA
"ALEJV7D94ZLHF","Wed Jan 29 2020 11:41:00 GMT-0700 (Mountain Standard Time)","Wed Jan 29 2020 11:47:23 GMT-0700 (Mountain Standard Time)","Mozilla/5.0 (Windows NT 10.0; Win64; x64) AppleWebKit/537.36 (KHTML, like Gecko) Chrome/79.0.3945.130 Safari/537.36",39,"[0.9, 0.5, 0.1]","[0.8, 0.4, 0.2]","[u'red', u'black', u'blue']","[u'left', u'middle', u'right']","[0.9, 0.5, 0.1]","[u'medium', u'high', u'low']","black",50,"middle","high","True","False",69,1650,NA
"ALEJV7D94ZLHF","Wed Jan 29 2020 11:41:00 GMT-0700 (Mountain Standard Time)","Wed Jan 29 2020 11:47:23 GMT-0700 (Mountain Standard Time)","Mozilla/5.0 (Windows NT 10.0; Win64; x64) AppleWebKit/537.36 (KHTML, like Gecko) Chrome/79.0.3945.130 Safari/537.36",40,"[0.9, 0.5, 0.1]","[0.8, 0.4, 0.2]","[u'red', u'black', u'blue']","[u'left', u'middle', u'right']","[0.9, 0.5, 0.1]","[u'medium', u'high', u'low']","black",50,"middle","high","True","False",295,1750,NA
"ALEJV7D94ZLHF","Wed Jan 29 2020 11:41:00 GMT-0700 (Mountain Standard Time)","Wed Jan 29 2020 11:47:23 GMT-0700 (Mountain Standard Time)","Mozilla/5.0 (Windows NT 10.0; Win64; x64) AppleWebKit/537.36 (KHTML, like Gecko) Chrome/79.0.3945.130 Safari/537.36",41,"[0.9, 0.5, 0.1]","[0.8, 0.4, 0.2]","[u'red', u'black', u'blue']","[u'left', u'middle', u'right']","[0.9, 0.5, 0.1]","[u'low', u'medium', u'high']","black",50,"middle","medium","True","False",281,1850,NA
"ALEJV7D94ZLHF","Wed Jan 29 2020 11:41:00 GMT-0700 (Mountain Standard Time)","Wed Jan 29 2020 11:47:23 GMT-0700 (Mountain Standard Time)","Mozilla/5.0 (Windows NT 10.0; Win64; x64) AppleWebKit/537.36 (KHTML, like Gecko) Chrome/79.0.3945.130 Safari/537.36",42,"[0.9, 0.5, 0.1]","[0.8, 0.4, 0.2]","[u'red', u'black', u'blue']","[u'left', u'middle', u'right']","[0.9, 0.5, 0.1]","[u'low', u'medium', u'high']","black",50,"middle","medium","False","False",226,1800,NA
"ALEJV7D94ZLHF","Wed Jan 29 2020 11:41:00 GMT-0700 (Mountain Standard Time)","Wed Jan 29 2020 11:47:23 GMT-0700 (Mountain Standard Time)","Mozilla/5.0 (Windows NT 10.0; Win64; x64) AppleWebKit/537.36 (KHTML, like Gecko) Chrome/79.0.3945.130 Safari/537.36",43,"[0.9, 0.5, 0.1]","[0.8, 0.4, 0.2]","[u'red', u'black', u'blue']","[u'left', u'middle', u'right']","[0.9, 0.5, 0.1]","[u'low', u'medium', u'high']","black",50,"middle","medium","False","False",246,1750,NA
"ALEJV7D94ZLHF","Wed Jan 29 2020 11:41:00 GMT-0700 (Mountain Standard Time)","Wed Jan 29 2020 11:47:23 GMT-0700 (Mountain Standard Time)","Mozilla/5.0 (Windows NT 10.0; Win64; x64) AppleWebKit/537.36 (KHTML, like Gecko) Chrome/79.0.3945.130 Safari/537.36",44,"[0.9, 0.5, 0.1]","[0.8, 0.4, 0.2]","[u'red', u'black', u'blue']","[u'left', u'middle', u'right']","[0.9, 0.5, 0.1]","[u'low', u'medium', u'high']","red",49,"left","low","False","False",175,1700,NA
"ALEJV7D94ZLHF","Wed Jan 29 2020 11:41:00 GMT-0700 (Mountain Standard Time)","Wed Jan 29 2020 11:47:23 GMT-0700 (Mountain Standard Time)","Mozilla/5.0 (Windows NT 10.0; Win64; x64) AppleWebKit/537.36 (KHTML, like Gecko) Chrome/79.0.3945.130 Safari/537.36",45,"[0.9, 0.5, 0.1]","[0.8, 0.4, 0.2]","[u'red', u'black', u'blue']","[u'left', u'middle', u'right']","[0.9, 0.5, 0.1]","[u'low', u'medium', u'high']","blue",51,"right","high","True","False",296,1800,NA
"ALEJV7D94ZLHF","Wed Jan 29 2020 11:41:00 GMT-0700 (Mountain Standard Time)","Wed Jan 29 2020 11:47:23 GMT-0700 (Mountain Standard Time)","Mozilla/5.0 (Windows NT 10.0; Win64; x64) AppleWebKit/537.36 (KHTML, like Gecko) Chrome/79.0.3945.130 Safari/537.36",46,"[0.9, 0.5, 0.1]","[0.8, 0.4, 0.2]","[u'red', u'black', u'blue']","[u'left', u'middle', u'right']","[0.9, 0.5, 0.1]","[u'low', u'medium', u'high']","blue",51,"right","high","True","False",293,1900,NA
"ALEJV7D94ZLHF","Wed Jan 29 2020 11:41:00 GMT-0700 (Mountain Standard Time)","Wed Jan 29 2020 11:47:23 GMT-0700 (Mountain Standard Time)","Mozilla/5.0 (Windows NT 10.0; Win64; x64) AppleWebKit/537.36 (KHTML, like Gecko) Chrome/79.0.3945.130 Safari/537.36",47,"[0.9, 0.5, 0.1]","[0.8, 0.4, 0.2]","[u'red', u'black', u'blue']","[u'left', u'middle', u'right']","[0.9, 0.5, 0.1]","[u'low', u'medium', u'high']","blue",51,"right","high","True","False",351,2000,NA
"ALEJV7D94ZLHF","Wed Jan 29 2020 11:41:00 GMT-0700 (Mountain Standard Time)","Wed Jan 29 2020 11:47:23 GMT-0700 (Mountain Standard Time)","Mozilla/5.0 (Windows NT 10.0; Win64; x64) AppleWebKit/537.36 (KHTML, like Gecko) Chrome/79.0.3945.130 Safari/537.36",48,"[0.9, 0.5, 0.1]","[0.8, 0.4, 0.2]","[u'red', u'black', u'blue']","[u'left', u'middle', u'right']","[0.9, 0.5, 0.1]","[u'low', u'medium', u'high']","blue",51,"right","high","False","False",415,1950,NA
"ALEJV7D94ZLHF","Wed Jan 29 2020 11:41:00 GMT-0700 (Mountain Standard Time)","Wed Jan 29 2020 11:47:23 GMT-0700 (Mountain Standard Time)","Mozilla/5.0 (Windows NT 10.0; Win64; x64) AppleWebKit/537.36 (KHTML, like Gecko) Chrome/79.0.3945.130 Safari/537.36",49,"[0.9, 0.5, 0.1]","[0.8, 0.4, 0.2]","[u'red', u'black', u'blue']","[u'left', u'middle', u'right']","[0.9, 0.5, 0.1]","[u'low', u'medium', u'high']","blue",51,"right","high","True","False",287,2050,NA
"ALEJV7D94ZLHF","Wed Jan 29 2020 11:41:00 GMT-0700 (Mountain Standard Time)","Wed Jan 29 2020 11:47:23 GMT-0700 (Mountain Standard Time)","Mozilla/5.0 (Windows NT 10.0; Win64; x64) AppleWebKit/537.36 (KHTML, like Gecko) Chrome/79.0.3945.130 Safari/537.36",50,"[0.9, 0.5, 0.1]","[0.8, 0.4, 0.2]","[u'red', u'black', u'blue']","[u'left', u'middle', u'right']","[0.9, 0.5, 0.1]","[u'low', u'medium', u'high']","blue",51,"right","high","True","False",939,2150,NA
"ALEJV7D94ZLHF","Wed Jan 29 2020 11:41:00 GMT-0700 (Mountain Standard Time)","Wed Jan 29 2020 11:47:23 GMT-0700 (Mountain Standard Time)","Mozilla/5.0 (Windows NT 10.0; Win64; x64) AppleWebKit/537.36 (KHTML, like Gecko) Chrome/79.0.3945.130 Safari/537.36",51,"[0.9, 0.5, 0.1]","[0.8, 0.4, 0.2]","[u'red', u'black', u'blue']","[u'left', u'middle', u'right']","[0.9, 0.5, 0.1]","[u'low', u'medium', u'high']","blue",51,"right","high","True","False",2678,2250,NA
"ALEJV7D94ZLHF","Wed Jan 29 2020 11:41:00 GMT-0700 (Mountain Standard Time)","Wed Jan 29 2020 11:47:23 GMT-0700 (Mountain Standard Time)","Mozilla/5.0 (Windows NT 10.0; Win64; x64) AppleWebKit/537.36 (KHTML, like Gecko) Chrome/79.0.3945.130 Safari/537.36",52,"[0.9, 0.5, 0.1]","[0.8, 0.4, 0.2]","[u'red', u'black', u'blue']","[u'left', u'middle', u'right']","[0.9, 0.5, 0.1]","[u'low', u'medium', u'high']","blue",51,"right","high","True","False",551,2350,NA
"ALEJV7D94ZLHF","Wed Jan 29 2020 11:41:00 GMT-0700 (Mountain Standard Time)","Wed Jan 29 2020 11:47:23 GMT-0700 (Mountain Standard Time)","Mozilla/5.0 (Windows NT 10.0; Win64; x64) AppleWebKit/537.36 (KHTML, like Gecko) Chrome/79.0.3945.130 Safari/537.36",53,"[0.9, 0.5, 0.1]","[0.8, 0.4, 0.2]","[u'red', u'black', u'blue']","[u'left', u'middle', u'right']","[0.9, 0.5, 0.1]","[u'low', u'medium', u'high']","blue",51,"right","high","True","True",385,2450,NA
"ALEJV7D94ZLHF","Wed Jan 29 2020 11:41:00 GMT-0700 (Mountain Standard Time)","Wed Jan 29 2020 11:47:23 GMT-0700 (Mountain Standard Time)","Mozilla/5.0 (Windows NT 10.0; Win64; x64) AppleWebKit/537.36 (KHTML, like Gecko) Chrome/79.0.3945.130 Safari/537.36",54,"[0.9, 0.5, 0.1]","[0.8, 0.4, 0.2]","[u'red', u'black', u'blue']","[u'left', u'middle', u'right']","[0.9, 0.5, 0.1]","[u'high', u'low', u'medium']","blue",51,"right","medium","True","False",359,2550,NA
"ALEJV7D94ZLHF","Wed Jan 29 2020 11:41:00 GMT-0700 (Mountain Standard Time)","Wed Jan 29 2020 11:47:23 GMT-0700 (Mountain Standard Time)","Mozilla/5.0 (Windows NT 10.0; Win64; x64) AppleWebKit/537.36 (KHTML, like Gecko) Chrome/79.0.3945.130 Safari/537.36",55,"[0.9, 0.5, 0.1]","[0.8, 0.4, 0.2]","[u'red', u'black', u'blue']","[u'left', u'middle', u'right']","[0.9, 0.5, 0.1]","[u'high', u'low', u'medium']","blue",51,"right","medium","True","False",398,2650,NA
"ALEJV7D94ZLHF","Wed Jan 29 2020 11:41:00 GMT-0700 (Mountain Standard Time)","Wed Jan 29 2020 11:47:23 GMT-0700 (Mountain Standard Time)","Mozilla/5.0 (Windows NT 10.0; Win64; x64) AppleWebKit/537.36 (KHTML, like Gecko) Chrome/79.0.3945.130 Safari/537.36",56,"[0.9, 0.5, 0.1]","[0.8, 0.4, 0.2]","[u'red', u'black', u'blue']","[u'left', u'middle', u'right']","[0.9, 0.5, 0.1]","[u'high', u'low', u'medium']","blue",51,"right","medium","True","False",370,2750,NA
"ALEJV7D94ZLHF","Wed Jan 29 2020 11:41:00 GMT-0700 (Mountain Standard Time)","Wed Jan 29 2020 11:47:23 GMT-0700 (Mountain Standard Time)","Mozilla/5.0 (Windows NT 10.0; Win64; x64) AppleWebKit/537.36 (KHTML, like Gecko) Chrome/79.0.3945.130 Safari/537.36",57,"[0.9, 0.5, 0.1]","[0.8, 0.4, 0.2]","[u'red', u'black', u'blue']","[u'left', u'middle', u'right']","[0.9, 0.5, 0.1]","[u'high', u'low', u'medium']","blue",51,"right","medium","True","False",316,2850,NA
"ALEJV7D94ZLHF","Wed Jan 29 2020 11:41:00 GMT-0700 (Mountain Standard Time)","Wed Jan 29 2020 11:47:23 GMT-0700 (Mountain Standard Time)","Mozilla/5.0 (Windows NT 10.0; Win64; x64) AppleWebKit/537.36 (KHTML, like Gecko) Chrome/79.0.3945.130 Safari/537.36",58,"[0.9, 0.5, 0.1]","[0.8, 0.4, 0.2]","[u'red', u'black', u'blue']","[u'left', u'middle', u'right']","[0.9, 0.5, 0.1]","[u'high', u'low', u'medium']","blue",51,"right","medium","False","False",254,2800,NA
"ALEJV7D94ZLHF","Wed Jan 29 2020 11:41:00 GMT-0700 (Mountain Standard Time)","Wed Jan 29 2020 11:47:23 GMT-0700 (Mountain Standard Time)","Mozilla/5.0 (Windows NT 10.0; Win64; x64) AppleWebKit/537.36 (KHTML, like Gecko) Chrome/79.0.3945.130 Safari/537.36",59,"[0.9, 0.5, 0.1]","[0.8, 0.4, 0.2]","[u'red', u'black', u'blue']","[u'left', u'middle', u'right']","[0.9, 0.5, 0.1]","[u'high', u'low', u'medium']","blue",51,"right","medium","True","False",200,2900,NA
"ALEJV7D94ZLHF","Wed Jan 29 2020 11:41:00 GMT-0700 (Mountain Standard Time)","Wed Jan 29 2020 11:47:23 GMT-0700 (Mountain Standard Time)","Mozilla/5.0 (Windows NT 10.0; Win64; x64) AppleWebKit/537.36 (KHTML, like Gecko) Chrome/79.0.3945.130 Safari/537.36",60,"[0.9, 0.5, 0.1]","[0.8, 0.4, 0.2]","[u'red', u'black', u'blue']","[u'left', u'middle', u'right']","[0.9, 0.5, 0.1]","[u'high', u'low', u'medium']","blue",51,"right","medium","True","False",385,3000,NA
"ALEJV7D94ZLHF","Wed Jan 29 2020 11:41:00 GMT-0700 (Mountain Standard Time)","Wed Jan 29 2020 11:47:23 GMT-0700 (Mountain Standard Time)","Mozilla/5.0 (Windows NT 10.0; Win64; x64) AppleWebKit/537.36 (KHTML, like Gecko) Chrome/79.0.3945.130 Safari/537.36",61,"[0.9, 0.5, 0.1]","[0.8, 0.4, 0.2]","[u'red', u'black', u'blue']","[u'left', u'middle', u'right']","[0.9, 0.5, 0.1]","[u'high', u'low', u'medium']","blue",51,"right","medium","True","False",203,3100,NA
"ALEJV7D94ZLHF","Wed Jan 29 2020 11:41:00 GMT-0700 (Mountain Standard Time)","Wed Jan 29 2020 11:47:23 GMT-0700 (Mountain Standard Time)","Mozilla/5.0 (Windows NT 10.0; Win64; x64) AppleWebKit/537.36 (KHTML, like Gecko) Chrome/79.0.3945.130 Safari/537.36",62,"[0.9, 0.5, 0.1]","[0.8, 0.4, 0.2]","[u'red', u'black', u'blue']","[u'left', u'middle', u'right']","[0.9, 0.5, 0.1]","[u'high', u'low', u'medium']","blue",51,"right","medium","False","False",288,3050,NA
"ALEJV7D94ZLHF","Wed Jan 29 2020 11:41:00 GMT-0700 (Mountain Standard Time)","Wed Jan 29 2020 11:47:23 GMT-0700 (Mountain Standard Time)","Mozilla/5.0 (Windows NT 10.0; Win64; x64) AppleWebKit/537.36 (KHTML, like Gecko) Chrome/79.0.3945.130 Safari/537.36",63,"[0.9, 0.5, 0.1]","[0.8, 0.4, 0.2]","[u'red', u'black', u'blue']","[u'left', u'middle', u'right']","[0.9, 0.5, 0.1]","[u'high', u'low', u'medium']","blue",51,"right","medium","False","False",270,3000,NA
"ALEJV7D94ZLHF","Wed Jan 29 2020 11:41:00 GMT-0700 (Mountain Standard Time)","Wed Jan 29 2020 11:47:23 GMT-0700 (Mountain Standard Time)","Mozilla/5.0 (Windows NT 10.0; Win64; x64) AppleWebKit/537.36 (KHTML, like Gecko) Chrome/79.0.3945.130 Safari/537.36",64,"[0.9, 0.5, 0.1]","[0.8, 0.4, 0.2]","[u'red', u'black', u'blue']","[u'left', u'middle', u'right']","[0.9, 0.5, 0.1]","[u'high', u'low', u'medium']","black",50,"middle","low","False","False",206,2950,NA
"ALEJV7D94ZLHF","Wed Jan 29 2020 11:41:00 GMT-0700 (Mountain Standard Time)","Wed Jan 29 2020 11:47:23 GMT-0700 (Mountain Standard Time)","Mozilla/5.0 (Windows NT 10.0; Win64; x64) AppleWebKit/537.36 (KHTML, like Gecko) Chrome/79.0.3945.130 Safari/537.36",65,"[0.9, 0.5, 0.1]","[0.8, 0.4, 0.2]","[u'red', u'black', u'blue']","[u'left', u'middle', u'right']","[0.9, 0.5, 0.1]","[u'high', u'low', u'medium']","black",50,"middle","low","False","False",61,2900,NA
"ALEJV7D94ZLHF","Wed Jan 29 2020 11:41:00 GMT-0700 (Mountain Standard Time)","Wed Jan 29 2020 11:47:23 GMT-0700 (Mountain Standard Time)","Mozilla/5.0 (Windows NT 10.0; Win64; x64) AppleWebKit/537.36 (KHTML, like Gecko) Chrome/79.0.3945.130 Safari/537.36",66,"[0.9, 0.5, 0.1]","[0.8, 0.4, 0.2]","[u'red', u'black', u'blue']","[u'left', u'middle', u'right']","[0.9, 0.5, 0.1]","[u'high', u'low', u'medium']","red",49,"left","high","True","False",270,3000,NA
"ALEJV7D94ZLHF","Wed Jan 29 2020 11:41:00 GMT-0700 (Mountain Standard Time)","Wed Jan 29 2020 11:47:23 GMT-0700 (Mountain Standard Time)","Mozilla/5.0 (Windows NT 10.0; Win64; x64) AppleWebKit/537.36 (KHTML, like Gecko) Chrome/79.0.3945.130 Safari/537.36",67,"[0.9, 0.5, 0.1]","[0.8, 0.4, 0.2]","[u'red', u'black', u'blue']","[u'left', u'middle', u'right']","[0.9, 0.5, 0.1]","[u'high', u'low', u'medium']","red",49,"left","high","True","False",281,3100,NA
"ALEJV7D94ZLHF","Wed Jan 29 2020 11:41:00 GMT-0700 (Mountain Standard Time)","Wed Jan 29 2020 11:47:23 GMT-0700 (Mountain Standard Time)","Mozilla/5.0 (Windows NT 10.0; Win64; x64) AppleWebKit/537.36 (KHTML, like Gecko) Chrome/79.0.3945.130 Safari/537.36",68,"[0.9, 0.5, 0.1]","[0.8, 0.4, 0.2]","[u'red', u'black', u'blue']","[u'left', u'middle', u'right']","[0.9, 0.5, 0.1]","[u'high', u'low', u'medium']","red",49,"left","high","True","False",226,3200,NA
"ALEJV7D94ZLHF","Wed Jan 29 2020 11:41:00 GMT-0700 (Mountain Standard Time)","Wed Jan 29 2020 11:47:23 GMT-0700 (Mountain Standard Time)","Mozilla/5.0 (Windows NT 10.0; Win64; x64) AppleWebKit/537.36 (KHTML, like Gecko) Chrome/79.0.3945.130 Safari/537.36",69,"[0.9, 0.5, 0.1]","[0.8, 0.4, 0.2]","[u'red', u'black', u'blue']","[u'left', u'middle', u'right']","[0.9, 0.5, 0.1]","[u'high', u'low', u'medium']","red",49,"left","high","True","False",282,3300,NA
"ALEJV7D94ZLHF","Wed Jan 29 2020 11:41:00 GMT-0700 (Mountain Standard Time)","Wed Jan 29 2020 11:47:23 GMT-0700 (Mountain Standard Time)","Mozilla/5.0 (Windows NT 10.0; Win64; x64) AppleWebKit/537.36 (KHTML, like Gecko) Chrome/79.0.3945.130 Safari/537.36",70,"[0.9, 0.5, 0.1]","[0.8, 0.4, 0.2]","[u'red', u'black', u'blue']","[u'left', u'middle', u'right']","[0.9, 0.5, 0.1]","[u'high', u'low', u'medium']","red",49,"left","high","False","False",270,3250,NA
"ALEJV7D94ZLHF","Wed Jan 29 2020 11:41:00 GMT-0700 (Mountain Standard Time)","Wed Jan 29 2020 11:47:23 GMT-0700 (Mountain Standard Time)","Mozilla/5.0 (Windows NT 10.0; Win64; x64) AppleWebKit/537.36 (KHTML, like Gecko) Chrome/79.0.3945.130 Safari/537.36",71,"[0.9, 0.5, 0.1]","[0.8, 0.4, 0.2]","[u'red', u'black', u'blue']","[u'left', u'middle', u'right']","[0.9, 0.5, 0.1]","[u'high', u'low', u'medium']","red",49,"left","high","True","False",227,3350,NA
"ALEJV7D94ZLHF","Wed Jan 29 2020 11:41:00 GMT-0700 (Mountain Standard Time)","Wed Jan 29 2020 11:47:23 GMT-0700 (Mountain Standard Time)","Mozilla/5.0 (Windows NT 10.0; Win64; x64) AppleWebKit/537.36 (KHTML, like Gecko) Chrome/79.0.3945.130 Safari/537.36",72,"[0.9, 0.5, 0.1]","[0.8, 0.4, 0.2]","[u'red', u'black', u'blue']","[u'left', u'middle', u'right']","[0.9, 0.5, 0.1]","[u'high', u'low', u'medium']","red",49,"left","high","True","False",264,3450,NA
"ALEJV7D94ZLHF","Wed Jan 29 2020 11:41:00 GMT-0700 (Mountain Standard Time)","Wed Jan 29 2020 11:47:23 GMT-0700 (Mountain Standard Time)","Mozilla/5.0 (Windows NT 10.0; Win64; x64) AppleWebKit/537.36 (KHTML, like Gecko) Chrome/79.0.3945.130 Safari/537.36",73,"[0.9, 0.5, 0.1]","[0.8, 0.4, 0.2]","[u'red', u'black', u'blue']","[u'left', u'middle', u'right']","[0.9, 0.5, 0.1]","[u'high', u'low', u'medium']","red",49,"left","high","True","False",147,3550,NA
"ALEJV7D94ZLHF","Wed Jan 29 2020 11:41:00 GMT-0700 (Mountain Standard Time)","Wed Jan 29 2020 11:47:23 GMT-0700 (Mountain Standard Time)","Mozilla/5.0 (Windows NT 10.0; Win64; x64) AppleWebKit/537.36 (KHTML, like Gecko) Chrome/79.0.3945.130 Safari/537.36",74,"[0.9, 0.5, 0.1]","[0.8, 0.4, 0.2]","[u'red', u'black', u'blue']","[u'left', u'middle', u'right']","[0.9, 0.5, 0.1]","[u'high', u'low', u'medium']","red",49,"left","high","True","True",303,3650,NA
"ALEJV7D94ZLHF","Wed Jan 29 2020 11:41:00 GMT-0700 (Mountain Standard Time)","Wed Jan 29 2020 11:47:23 GMT-0700 (Mountain Standard Time)","Mozilla/5.0 (Windows NT 10.0; Win64; x64) AppleWebKit/537.36 (KHTML, like Gecko) Chrome/79.0.3945.130 Safari/537.36",75,"[0.9, 0.5, 0.1]","[0.8, 0.4, 0.2]","[u'red', u'black', u'blue']","[u'left', u'middle', u'right']","[0.9, 0.5, 0.1]","[u'medium', u'high', u'low']","red",49,"left","medium","False","False",289,3600,NA
"ALEJV7D94ZLHF","Wed Jan 29 2020 11:41:00 GMT-0700 (Mountain Standard Time)","Wed Jan 29 2020 11:47:23 GMT-0700 (Mountain Standard Time)","Mozilla/5.0 (Windows NT 10.0; Win64; x64) AppleWebKit/537.36 (KHTML, like Gecko) Chrome/79.0.3945.130 Safari/537.36",76,"[0.9, 0.5, 0.1]","[0.8, 0.4, 0.2]","[u'red', u'black', u'blue']","[u'left', u'middle', u'right']","[0.9, 0.5, 0.1]","[u'medium', u'high', u'low']","red",49,"left","medium","True","False",274,3700,NA
"ALEJV7D94ZLHF","Wed Jan 29 2020 11:41:00 GMT-0700 (Mountain Standard Time)","Wed Jan 29 2020 11:47:23 GMT-0700 (Mountain Standard Time)","Mozilla/5.0 (Windows NT 10.0; Win64; x64) AppleWebKit/537.36 (KHTML, like Gecko) Chrome/79.0.3945.130 Safari/537.36",77,"[0.9, 0.5, 0.1]","[0.8, 0.4, 0.2]","[u'red', u'black', u'blue']","[u'left', u'middle', u'right']","[0.9, 0.5, 0.1]","[u'medium', u'high', u'low']","red",49,"left","medium","False","False",239,3650,NA
"ALEJV7D94ZLHF","Wed Jan 29 2020 11:41:00 GMT-0700 (Mountain Standard Time)","Wed Jan 29 2020 11:47:23 GMT-0700 (Mountain Standard Time)","Mozilla/5.0 (Windows NT 10.0; Win64; x64) AppleWebKit/537.36 (KHTML, like Gecko) Chrome/79.0.3945.130 Safari/537.36",78,"[0.9, 0.5, 0.1]","[0.8, 0.4, 0.2]","[u'red', u'black', u'blue']","[u'left', u'middle', u'right']","[0.9, 0.5, 0.1]","[u'medium', u'high', u'low']","red",49,"left","medium","True","False",288,3750,NA
"ALEJV7D94ZLHF","Wed Jan 29 2020 11:41:00 GMT-0700 (Mountain Standard Time)","Wed Jan 29 2020 11:47:23 GMT-0700 (Mountain Standard Time)","Mozilla/5.0 (Windows NT 10.0; Win64; x64) AppleWebKit/537.36 (KHTML, like Gecko) Chrome/79.0.3945.130 Safari/537.36",79,"[0.9, 0.5, 0.1]","[0.8, 0.4, 0.2]","[u'red', u'black', u'blue']","[u'left', u'middle', u'right']","[0.9, 0.5, 0.1]","[u'medium', u'high', u'low']","red",49,"left","medium","True","False",244,3850,NA
"ALEJV7D94ZLHF","Wed Jan 29 2020 11:41:00 GMT-0700 (Mountain Standard Time)","Wed Jan 29 2020 11:47:23 GMT-0700 (Mountain Standard Time)","Mozilla/5.0 (Windows NT 10.0; Win64; x64) AppleWebKit/537.36 (KHTML, like Gecko) Chrome/79.0.3945.130 Safari/537.36",80,"[0.9, 0.5, 0.1]","[0.8, 0.4, 0.2]","[u'red', u'black', u'blue']","[u'left', u'middle', u'right']","[0.9, 0.5, 0.1]","[u'medium', u'high', u'low']","red",49,"left","medium","True","False",262,3950,NA
"ALEJV7D94ZLHF","Wed Jan 29 2020 11:41:00 GMT-0700 (Mountain Standard Time)","Wed Jan 29 2020 11:47:23 GMT-0700 (Mountain Standard Time)","Mozilla/5.0 (Windows NT 10.0; Win64; x64) AppleWebKit/537.36 (KHTML, like Gecko) Chrome/79.0.3945.130 Safari/537.36",81,"[0.9, 0.5, 0.1]","[0.8, 0.4, 0.2]","[u'red', u'black', u'blue']","[u'left', u'middle', u'right']","[0.8, 0.4, 0.2]","[u'high', u'low', u'medium']","red",49,"left","high","True","False",273,4050,NA
"ALEJV7D94ZLHF","Wed Jan 29 2020 11:41:00 GMT-0700 (Mountain Standard Time)","Wed Jan 29 2020 11:47:23 GMT-0700 (Mountain Standard Time)","Mozilla/5.0 (Windows NT 10.0; Win64; x64) AppleWebKit/537.36 (KHTML, like Gecko) Chrome/79.0.3945.130 Safari/537.36",82,"[0.9, 0.5, 0.1]","[0.8, 0.4, 0.2]","[u'red', u'black', u'blue']","[u'left', u'middle', u'right']","[0.8, 0.4, 0.2]","[u'high', u'low', u'medium']","red",49,"left","high","True","False",196,4150,NA
"ALEJV7D94ZLHF","Wed Jan 29 2020 11:41:00 GMT-0700 (Mountain Standard Time)","Wed Jan 29 2020 11:47:23 GMT-0700 (Mountain Standard Time)","Mozilla/5.0 (Windows NT 10.0; Win64; x64) AppleWebKit/537.36 (KHTML, like Gecko) Chrome/79.0.3945.130 Safari/537.36",83,"[0.9, 0.5, 0.1]","[0.8, 0.4, 0.2]","[u'red', u'black', u'blue']","[u'left', u'middle', u'right']","[0.8, 0.4, 0.2]","[u'high', u'low', u'medium']","red",49,"left","high","False","False",156,4100,NA
"ALEJV7D94ZLHF","Wed Jan 29 2020 11:41:00 GMT-0700 (Mountain Standard Time)","Wed Jan 29 2020 11:47:23 GMT-0700 (Mountain Standard Time)","Mozilla/5.0 (Windows NT 10.0; Win64; x64) AppleWebKit/537.36 (KHTML, like Gecko) Chrome/79.0.3945.130 Safari/537.36",84,"[0.9, 0.5, 0.1]","[0.8, 0.4, 0.2]","[u'red', u'black', u'blue']","[u'left', u'middle', u'right']","[0.8, 0.4, 0.2]","[u'high', u'low', u'medium']","red",49,"left","high","True","False",112,4200,NA
"ALEJV7D94ZLHF","Wed Jan 29 2020 11:41:00 GMT-0700 (Mountain Standard Time)","Wed Jan 29 2020 11:47:23 GMT-0700 (Mountain Standard Time)","Mozilla/5.0 (Windows NT 10.0; Win64; x64) AppleWebKit/537.36 (KHTML, like Gecko) Chrome/79.0.3945.130 Safari/537.36",85,"[0.9, 0.5, 0.1]","[0.8, 0.4, 0.2]","[u'red', u'black', u'blue']","[u'left', u'middle', u'right']","[0.8, 0.4, 0.2]","[u'high', u'low', u'medium']","red",49,"left","high","False","False",233,4150,NA
"ALEJV7D94ZLHF","Wed Jan 29 2020 11:41:00 GMT-0700 (Mountain Standard Time)","Wed Jan 29 2020 11:47:23 GMT-0700 (Mountain Standard Time)","Mozilla/5.0 (Windows NT 10.0; Win64; x64) AppleWebKit/537.36 (KHTML, like Gecko) Chrome/79.0.3945.130 Safari/537.36",86,"[0.9, 0.5, 0.1]","[0.8, 0.4, 0.2]","[u'red', u'black', u'blue']","[u'left', u'middle', u'right']","[0.8, 0.4, 0.2]","[u'high', u'low', u'medium']","red",49,"left","high","False","False",137,4100,NA
"ALEJV7D94ZLHF","Wed Jan 29 2020 11:41:00 GMT-0700 (Mountain Standard Time)","Wed Jan 29 2020 11:47:23 GMT-0700 (Mountain Standard Time)","Mozilla/5.0 (Windows NT 10.0; Win64; x64) AppleWebKit/537.36 (KHTML, like Gecko) Chrome/79.0.3945.130 Safari/537.36",87,"[0.9, 0.5, 0.1]","[0.8, 0.4, 0.2]","[u'red', u'black', u'blue']","[u'left', u'middle', u'right']","[0.8, 0.4, 0.2]","[u'high', u'low', u'medium']","black",50,"middle","low","False","False",287,4050,NA
"ALEJV7D94ZLHF","Wed Jan 29 2020 11:41:00 GMT-0700 (Mountain Standard Time)","Wed Jan 29 2020 11:47:23 GMT-0700 (Mountain Standard Time)","Mozilla/5.0 (Windows NT 10.0; Win64; x64) AppleWebKit/537.36 (KHTML, like Gecko) Chrome/79.0.3945.130 Safari/537.36",88,"[0.9, 0.5, 0.1]","[0.8, 0.4, 0.2]","[u'red', u'black', u'blue']","[u'left', u'middle', u'right']","[0.8, 0.4, 0.2]","[u'high', u'low', u'medium']","blue",51,"right","medium","True","False",243,4150,NA
"ALEJV7D94ZLHF","Wed Jan 29 2020 11:41:00 GMT-0700 (Mountain Standard Time)","Wed Jan 29 2020 11:47:23 GMT-0700 (Mountain Standard Time)","Mozilla/5.0 (Windows NT 10.0; Win64; x64) AppleWebKit/537.36 (KHTML, like Gecko) Chrome/79.0.3945.130 Safari/537.36",89,"[0.9, 0.5, 0.1]","[0.8, 0.4, 0.2]","[u'red', u'black', u'blue']","[u'left', u'middle', u'right']","[0.8, 0.4, 0.2]","[u'high', u'low', u'medium']","blue",51,"right","medium","False","False",251,4100,NA
"ALEJV7D94ZLHF","Wed Jan 29 2020 11:41:00 GMT-0700 (Mountain Standard Time)","Wed Jan 29 2020 11:47:23 GMT-0700 (Mountain Standard Time)","Mozilla/5.0 (Windows NT 10.0; Win64; x64) AppleWebKit/537.36 (KHTML, like Gecko) Chrome/79.0.3945.130 Safari/537.36",90,"[0.9, 0.5, 0.1]","[0.8, 0.4, 0.2]","[u'red', u'black', u'blue']","[u'left', u'middle', u'right']","[0.8, 0.4, 0.2]","[u'high', u'low', u'medium']","blue",51,"right","medium","True","False",151,4200,NA
"ALEJV7D94ZLHF","Wed Jan 29 2020 11:41:00 GMT-0700 (Mountain Standard Time)","Wed Jan 29 2020 11:47:23 GMT-0700 (Mountain Standard Time)","Mozilla/5.0 (Windows NT 10.0; Win64; x64) AppleWebKit/537.36 (KHTML, like Gecko) Chrome/79.0.3945.130 Safari/537.36",91,"[0.9, 0.5, 0.1]","[0.8, 0.4, 0.2]","[u'red', u'black', u'blue']","[u'left', u'middle', u'right']","[0.8, 0.4, 0.2]","[u'high', u'low', u'medium']","blue",51,"right","medium","False","False",260,4150,NA
"ALEJV7D94ZLHF","Wed Jan 29 2020 11:41:00 GMT-0700 (Mountain Standard Time)","Wed Jan 29 2020 11:47:23 GMT-0700 (Mountain Standard Time)","Mozilla/5.0 (Windows NT 10.0; Win64; x64) AppleWebKit/537.36 (KHTML, like Gecko) Chrome/79.0.3945.130 Safari/537.36",92,"[0.9, 0.5, 0.1]","[0.8, 0.4, 0.2]","[u'red', u'black', u'blue']","[u'left', u'middle', u'right']","[0.8, 0.4, 0.2]","[u'high', u'low', u'medium']","blue",51,"right","medium","False","False",145,4100,NA
"ALEJV7D94ZLHF","Wed Jan 29 2020 11:41:00 GMT-0700 (Mountain Standard Time)","Wed Jan 29 2020 11:47:23 GMT-0700 (Mountain Standard Time)","Mozilla/5.0 (Windows NT 10.0; Win64; x64) AppleWebKit/537.36 (KHTML, like Gecko) Chrome/79.0.3945.130 Safari/537.36",93,"[0.9, 0.5, 0.1]","[0.8, 0.4, 0.2]","[u'red', u'black', u'blue']","[u'left', u'middle', u'right']","[0.8, 0.4, 0.2]","[u'high', u'low', u'medium']","black",50,"middle","low","False","False",219,4050,NA
"ALEJV7D94ZLHF","Wed Jan 29 2020 11:41:00 GMT-0700 (Mountain Standard Time)","Wed Jan 29 2020 11:47:23 GMT-0700 (Mountain Standard Time)","Mozilla/5.0 (Windows NT 10.0; Win64; x64) AppleWebKit/537.36 (KHTML, like Gecko) Chrome/79.0.3945.130 Safari/537.36",94,"[0.9, 0.5, 0.1]","[0.8, 0.4, 0.2]","[u'red', u'black', u'blue']","[u'left', u'middle', u'right']","[0.8, 0.4, 0.2]","[u'high', u'low', u'medium']","red",49,"left","high","True","False",201,4150,NA
"ALEJV7D94ZLHF","Wed Jan 29 2020 11:41:00 GMT-0700 (Mountain Standard Time)","Wed Jan 29 2020 11:47:23 GMT-0700 (Mountain Standard Time)","Mozilla/5.0 (Windows NT 10.0; Win64; x64) AppleWebKit/537.36 (KHTML, like Gecko) Chrome/79.0.3945.130 Safari/537.36",95,"[0.9, 0.5, 0.1]","[0.8, 0.4, 0.2]","[u'red', u'black', u'blue']","[u'left', u'middle', u'right']","[0.8, 0.4, 0.2]","[u'high', u'low', u'medium']","red",49,"left","high","True","False",273,4250,NA
"ALEJV7D94ZLHF","Wed Jan 29 2020 11:41:00 GMT-0700 (Mountain Standard Time)","Wed Jan 29 2020 11:47:23 GMT-0700 (Mountain Standard Time)","Mozilla/5.0 (Windows NT 10.0; Win64; x64) AppleWebKit/537.36 (KHTML, like Gecko) Chrome/79.0.3945.130 Safari/537.36",96,"[0.9, 0.5, 0.1]","[0.8, 0.4, 0.2]","[u'red', u'black', u'blue']","[u'left', u'middle', u'right']","[0.8, 0.4, 0.2]","[u'high', u'low', u'medium']","red",49,"left","high","True","False",225,4350,NA
"ALEJV7D94ZLHF","Wed Jan 29 2020 11:41:00 GMT-0700 (Mountain Standard Time)","Wed Jan 29 2020 11:47:23 GMT-0700 (Mountain Standard Time)","Mozilla/5.0 (Windows NT 10.0; Win64; x64) AppleWebKit/537.36 (KHTML, like Gecko) Chrome/79.0.3945.130 Safari/537.36",97,"[0.9, 0.5, 0.1]","[0.8, 0.4, 0.2]","[u'red', u'black', u'blue']","[u'left', u'middle', u'right']","[0.8, 0.4, 0.2]","[u'high', u'low', u'medium']","red",49,"left","high","True","False",403,4450,NA
"ALEJV7D94ZLHF","Wed Jan 29 2020 11:41:00 GMT-0700 (Mountain Standard Time)","Wed Jan 29 2020 11:47:23 GMT-0700 (Mountain Standard Time)","Mozilla/5.0 (Windows NT 10.0; Win64; x64) AppleWebKit/537.36 (KHTML, like Gecko) Chrome/79.0.3945.130 Safari/537.36",98,"[0.9, 0.5, 0.1]","[0.8, 0.4, 0.2]","[u'red', u'black', u'blue']","[u'left', u'middle', u'right']","[0.8, 0.4, 0.2]","[u'high', u'low', u'medium']","red",49,"left","high","True","False",538,4550,NA
"ALEJV7D94ZLHF","Wed Jan 29 2020 11:41:00 GMT-0700 (Mountain Standard Time)","Wed Jan 29 2020 11:47:23 GMT-0700 (Mountain Standard Time)","Mozilla/5.0 (Windows NT 10.0; Win64; x64) AppleWebKit/537.36 (KHTML, like Gecko) Chrome/79.0.3945.130 Safari/537.36",99,"[0.9, 0.5, 0.1]","[0.8, 0.4, 0.2]","[u'red', u'black', u'blue']","[u'left', u'middle', u'right']","[0.8, 0.4, 0.2]","[u'high', u'low', u'medium']","red",49,"left","high","True","False",318,4650,NA
"ALEJV7D94ZLHF","Wed Jan 29 2020 11:41:00 GMT-0700 (Mountain Standard Time)","Wed Jan 29 2020 11:47:23 GMT-0700 (Mountain Standard Time)","Mozilla/5.0 (Windows NT 10.0; Win64; x64) AppleWebKit/537.36 (KHTML, like Gecko) Chrome/79.0.3945.130 Safari/537.36",100,"[0.9, 0.5, 0.1]","[0.8, 0.4, 0.2]","[u'red', u'black', u'blue']","[u'left', u'middle', u'right']","[0.8, 0.4, 0.2]","[u'high', u'low', u'medium']","red",49,"left","high","True","False",315,4750,NA
"ALEJV7D94ZLHF","Wed Jan 29 2020 11:41:00 GMT-0700 (Mountain Standard Time)","Wed Jan 29 2020 11:47:23 GMT-0700 (Mountain Standard Time)","Mozilla/5.0 (Windows NT 10.0; Win64; x64) AppleWebKit/537.36 (KHTML, like Gecko) Chrome/79.0.3945.130 Safari/537.36",101,"[0.9, 0.5, 0.1]","[0.8, 0.4, 0.2]","[u'red', u'black', u'blue']","[u'left', u'middle', u'right']","[0.8, 0.4, 0.2]","[u'high', u'low', u'medium']","red",49,"left","high","True","False",345,4850,NA
"ALEJV7D94ZLHF","Wed Jan 29 2020 11:41:00 GMT-0700 (Mountain Standard Time)","Wed Jan 29 2020 11:47:23 GMT-0700 (Mountain Standard Time)","Mozilla/5.0 (Windows NT 10.0; Win64; x64) AppleWebKit/537.36 (KHTML, like Gecko) Chrome/79.0.3945.130 Safari/537.36",102,"[0.9, 0.5, 0.1]","[0.8, 0.4, 0.2]","[u'red', u'black', u'blue']","[u'left', u'middle', u'right']","[0.8, 0.4, 0.2]","[u'high', u'low', u'medium']","red",49,"left","high","True","True",117,4950,NA
"ALEJV7D94ZLHF","Wed Jan 29 2020 11:41:00 GMT-0700 (Mountain Standard Time)","Wed Jan 29 2020 11:47:23 GMT-0700 (Mountain Standard Time)","Mozilla/5.0 (Windows NT 10.0; Win64; x64) AppleWebKit/537.36 (KHTML, like Gecko) Chrome/79.0.3945.130 Safari/537.36",103,"[0.9, 0.5, 0.1]","[0.8, 0.4, 0.2]","[u'red', u'black', u'blue']","[u'left', u'middle', u'right']","[0.8, 0.4, 0.2]","[u'medium', u'high', u'low']","red",49,"left","medium","False","False",260,4900,NA
"ALEJV7D94ZLHF","Wed Jan 29 2020 11:41:00 GMT-0700 (Mountain Standard Time)","Wed Jan 29 2020 11:47:23 GMT-0700 (Mountain Standard Time)","Mozilla/5.0 (Windows NT 10.0; Win64; x64) AppleWebKit/537.36 (KHTML, like Gecko) Chrome/79.0.3945.130 Safari/537.36",104,"[0.9, 0.5, 0.1]","[0.8, 0.4, 0.2]","[u'red', u'black', u'blue']","[u'left', u'middle', u'right']","[0.8, 0.4, 0.2]","[u'medium', u'high', u'low']","red",49,"left","medium","False","False",131,4850,NA
"ALEJV7D94ZLHF","Wed Jan 29 2020 11:41:00 GMT-0700 (Mountain Standard Time)","Wed Jan 29 2020 11:47:23 GMT-0700 (Mountain Standard Time)","Mozilla/5.0 (Windows NT 10.0; Win64; x64) AppleWebKit/537.36 (KHTML, like Gecko) Chrome/79.0.3945.130 Safari/537.36",105,"[0.9, 0.5, 0.1]","[0.8, 0.4, 0.2]","[u'red', u'black', u'blue']","[u'left', u'middle', u'right']","[0.8, 0.4, 0.2]","[u'medium', u'high', u'low']","black",50,"middle","high","True","False",286,4950,NA
"ALEJV7D94ZLHF","Wed Jan 29 2020 11:41:00 GMT-0700 (Mountain Standard Time)","Wed Jan 29 2020 11:47:23 GMT-0700 (Mountain Standard Time)","Mozilla/5.0 (Windows NT 10.0; Win64; x64) AppleWebKit/537.36 (KHTML, like Gecko) Chrome/79.0.3945.130 Safari/537.36",106,"[0.9, 0.5, 0.1]","[0.8, 0.4, 0.2]","[u'red', u'black', u'blue']","[u'left', u'middle', u'right']","[0.8, 0.4, 0.2]","[u'medium', u'high', u'low']","black",50,"middle","high","True","False",503,5050,NA
"ALEJV7D94ZLHF","Wed Jan 29 2020 11:41:00 GMT-0700 (Mountain Standard Time)","Wed Jan 29 2020 11:47:23 GMT-0700 (Mountain Standard Time)","Mozilla/5.0 (Windows NT 10.0; Win64; x64) AppleWebKit/537.36 (KHTML, like Gecko) Chrome/79.0.3945.130 Safari/537.36",107,"[0.9, 0.5, 0.1]","[0.8, 0.4, 0.2]","[u'red', u'black', u'blue']","[u'left', u'middle', u'right']","[0.8, 0.4, 0.2]","[u'medium', u'high', u'low']","black",50,"middle","high","True","False",275,5150,NA
"ALEJV7D94ZLHF","Wed Jan 29 2020 11:41:00 GMT-0700 (Mountain Standard Time)","Wed Jan 29 2020 11:47:23 GMT-0700 (Mountain Standard Time)","Mozilla/5.0 (Windows NT 10.0; Win64; x64) AppleWebKit/537.36 (KHTML, like Gecko) Chrome/79.0.3945.130 Safari/537.36",108,"[0.9, 0.5, 0.1]","[0.8, 0.4, 0.2]","[u'red', u'black', u'blue']","[u'left', u'middle', u'right']","[0.8, 0.4, 0.2]","[u'medium', u'high', u'low']","black",50,"middle","high","True","False",240,5250,NA
"ALEJV7D94ZLHF","Wed Jan 29 2020 11:41:00 GMT-0700 (Mountain Standard Time)","Wed Jan 29 2020 11:47:23 GMT-0700 (Mountain Standard Time)","Mozilla/5.0 (Windows NT 10.0; Win64; x64) AppleWebKit/537.36 (KHTML, like Gecko) Chrome/79.0.3945.130 Safari/537.36",109,"[0.9, 0.5, 0.1]","[0.8, 0.4, 0.2]","[u'red', u'black', u'blue']","[u'left', u'middle', u'right']","[0.8, 0.4, 0.2]","[u'medium', u'high', u'low']","black",50,"middle","high","True","False",273,5350,NA
"ALEJV7D94ZLHF","Wed Jan 29 2020 11:41:00 GMT-0700 (Mountain Standard Time)","Wed Jan 29 2020 11:47:23 GMT-0700 (Mountain Standard Time)","Mozilla/5.0 (Windows NT 10.0; Win64; x64) AppleWebKit/537.36 (KHTML, like Gecko) Chrome/79.0.3945.130 Safari/537.36",110,"[0.9, 0.5, 0.1]","[0.8, 0.4, 0.2]","[u'red', u'black', u'blue']","[u'left', u'middle', u'right']","[0.8, 0.4, 0.2]","[u'medium', u'high', u'low']","black",50,"middle","high","True","False",331,5450,NA
"ALEJV7D94ZLHF","Wed Jan 29 2020 11:41:00 GMT-0700 (Mountain Standard Time)","Wed Jan 29 2020 11:47:23 GMT-0700 (Mountain Standard Time)","Mozilla/5.0 (Windows NT 10.0; Win64; x64) AppleWebKit/537.36 (KHTML, like Gecko) Chrome/79.0.3945.130 Safari/537.36",111,"[0.9, 0.5, 0.1]","[0.8, 0.4, 0.2]","[u'red', u'black', u'blue']","[u'left', u'middle', u'right']","[0.8, 0.4, 0.2]","[u'medium', u'high', u'low']","black",50,"middle","high","True","False",334,5550,NA
"ALEJV7D94ZLHF","Wed Jan 29 2020 11:41:00 GMT-0700 (Mountain Standard Time)","Wed Jan 29 2020 11:47:23 GMT-0700 (Mountain Standard Time)","Mozilla/5.0 (Windows NT 10.0; Win64; x64) AppleWebKit/537.36 (KHTML, like Gecko) Chrome/79.0.3945.130 Safari/537.36",112,"[0.9, 0.5, 0.1]","[0.8, 0.4, 0.2]","[u'red', u'black', u'blue']","[u'left', u'middle', u'right']","[0.8, 0.4, 0.2]","[u'medium', u'high', u'low']","black",50,"middle","high","True","False",538,5650,NA
"ALEJV7D94ZLHF","Wed Jan 29 2020 11:41:00 GMT-0700 (Mountain Standard Time)","Wed Jan 29 2020 11:47:23 GMT-0700 (Mountain Standard Time)","Mozilla/5.0 (Windows NT 10.0; Win64; x64) AppleWebKit/537.36 (KHTML, like Gecko) Chrome/79.0.3945.130 Safari/537.36",113,"[0.9, 0.5, 0.1]","[0.8, 0.4, 0.2]","[u'red', u'black', u'blue']","[u'left', u'middle', u'right']","[0.8, 0.4, 0.2]","[u'medium', u'high', u'low']","black",50,"middle","high","True","True",213,5750,NA
"ALEJV7D94ZLHF","Wed Jan 29 2020 11:41:00 GMT-0700 (Mountain Standard Time)","Wed Jan 29 2020 11:47:23 GMT-0700 (Mountain Standard Time)","Mozilla/5.0 (Windows NT 10.0; Win64; x64) AppleWebKit/537.36 (KHTML, like Gecko) Chrome/79.0.3945.130 Safari/537.36",114,"[0.9, 0.5, 0.1]","[0.8, 0.4, 0.2]","[u'red', u'black', u'blue']","[u'left', u'middle', u'right']","[0.8, 0.4, 0.2]","[u'medium', u'low', u'high']","black",50,"middle","low","False","False",341,5700,NA
"ALEJV7D94ZLHF","Wed Jan 29 2020 11:41:00 GMT-0700 (Mountain Standard Time)","Wed Jan 29 2020 11:47:23 GMT-0700 (Mountain Standard Time)","Mozilla/5.0 (Windows NT 10.0; Win64; x64) AppleWebKit/537.36 (KHTML, like Gecko) Chrome/79.0.3945.130 Safari/537.36",115,"[0.9, 0.5, 0.1]","[0.8, 0.4, 0.2]","[u'red', u'black', u'blue']","[u'left', u'middle', u'right']","[0.8, 0.4, 0.2]","[u'medium', u'low', u'high']","black",50,"middle","low","False","False",26,5650,NA
"ALEJV7D94ZLHF","Wed Jan 29 2020 11:41:00 GMT-0700 (Mountain Standard Time)","Wed Jan 29 2020 11:47:23 GMT-0700 (Mountain Standard Time)","Mozilla/5.0 (Windows NT 10.0; Win64; x64) AppleWebKit/537.36 (KHTML, like Gecko) Chrome/79.0.3945.130 Safari/537.36",116,"[0.9, 0.5, 0.1]","[0.8, 0.4, 0.2]","[u'red', u'black', u'blue']","[u'left', u'middle', u'right']","[0.8, 0.4, 0.2]","[u'medium', u'low', u'high']","blue",51,"right","high","True","False",373,5750,NA
"ALEJV7D94ZLHF","Wed Jan 29 2020 11:41:00 GMT-0700 (Mountain Standard Time)","Wed Jan 29 2020 11:47:23 GMT-0700 (Mountain Standard Time)","Mozilla/5.0 (Windows NT 10.0; Win64; x64) AppleWebKit/537.36 (KHTML, like Gecko) Chrome/79.0.3945.130 Safari/537.36",117,"[0.9, 0.5, 0.1]","[0.8, 0.4, 0.2]","[u'red', u'black', u'blue']","[u'left', u'middle', u'right']","[0.8, 0.4, 0.2]","[u'medium', u'low', u'high']","blue",51,"right","high","True","False",242,5850,NA
"ALEJV7D94ZLHF","Wed Jan 29 2020 11:41:00 GMT-0700 (Mountain Standard Time)","Wed Jan 29 2020 11:47:23 GMT-0700 (Mountain Standard Time)","Mozilla/5.0 (Windows NT 10.0; Win64; x64) AppleWebKit/537.36 (KHTML, like Gecko) Chrome/79.0.3945.130 Safari/537.36",118,"[0.9, 0.5, 0.1]","[0.8, 0.4, 0.2]","[u'red', u'black', u'blue']","[u'left', u'middle', u'right']","[0.8, 0.4, 0.2]","[u'medium', u'low', u'high']","blue",51,"right","high","True","False",189,5950,NA
"ALEJV7D94ZLHF","Wed Jan 29 2020 11:41:00 GMT-0700 (Mountain Standard Time)","Wed Jan 29 2020 11:47:23 GMT-0700 (Mountain Standard Time)","Mozilla/5.0 (Windows NT 10.0; Win64; x64) AppleWebKit/537.36 (KHTML, like Gecko) Chrome/79.0.3945.130 Safari/537.36",119,"[0.9, 0.5, 0.1]","[0.8, 0.4, 0.2]","[u'red', u'black', u'blue']","[u'left', u'middle', u'right']","[0.8, 0.4, 0.2]","[u'medium', u'low', u'high']","blue",51,"right","high","True","False",269,6050,NA
"ALEJV7D94ZLHF","Wed Jan 29 2020 11:41:00 GMT-0700 (Mountain Standard Time)","Wed Jan 29 2020 11:47:23 GMT-0700 (Mountain Standard Time)","Mozilla/5.0 (Windows NT 10.0; Win64; x64) AppleWebKit/537.36 (KHTML, like Gecko) Chrome/79.0.3945.130 Safari/537.36",120,"[0.9, 0.5, 0.1]","[0.8, 0.4, 0.2]","[u'red', u'black', u'blue']","[u'left', u'middle', u'right']","[0.8, 0.4, 0.2]","[u'medium', u'low', u'high']","blue",51,"right","high","True","False",234,6150,NA
"ALEJV7D94ZLHF","Wed Jan 29 2020 11:41:00 GMT-0700 (Mountain Standard Time)","Wed Jan 29 2020 11:47:23 GMT-0700 (Mountain Standard Time)","Mozilla/5.0 (Windows NT 10.0; Win64; x64) AppleWebKit/537.36 (KHTML, like Gecko) Chrome/79.0.3945.130 Safari/537.36",121,"[0.9, 0.5, 0.1]","[0.8, 0.4, 0.2]","[u'red', u'black', u'blue']","[u'left', u'middle', u'right']","[0.8, 0.4, 0.2]","[u'high', u'medium', u'low']","blue",51,"right","low","False","False",356,6100,NA
"ALEJV7D94ZLHF","Wed Jan 29 2020 11:41:00 GMT-0700 (Mountain Standard Time)","Wed Jan 29 2020 11:47:23 GMT-0700 (Mountain Standard Time)","Mozilla/5.0 (Windows NT 10.0; Win64; x64) AppleWebKit/537.36 (KHTML, like Gecko) Chrome/79.0.3945.130 Safari/537.36",122,"[0.9, 0.5, 0.1]","[0.8, 0.4, 0.2]","[u'red', u'black', u'blue']","[u'left', u'middle', u'right']","[0.8, 0.4, 0.2]","[u'high', u'medium', u'low']","red",49,"left","high","True","False",240,6200,NA
"ALEJV7D94ZLHF","Wed Jan 29 2020 11:41:00 GMT-0700 (Mountain Standard Time)","Wed Jan 29 2020 11:47:23 GMT-0700 (Mountain Standard Time)","Mozilla/5.0 (Windows NT 10.0; Win64; x64) AppleWebKit/537.36 (KHTML, like Gecko) Chrome/79.0.3945.130 Safari/537.36",123,"[0.9, 0.5, 0.1]","[0.8, 0.4, 0.2]","[u'red', u'black', u'blue']","[u'left', u'middle', u'right']","[0.8, 0.4, 0.2]","[u'high', u'medium', u'low']","red",49,"left","high","False","False",489,6150,NA
"ALEJV7D94ZLHF","Wed Jan 29 2020 11:41:00 GMT-0700 (Mountain Standard Time)","Wed Jan 29 2020 11:47:23 GMT-0700 (Mountain Standard Time)","Mozilla/5.0 (Windows NT 10.0; Win64; x64) AppleWebKit/537.36 (KHTML, like Gecko) Chrome/79.0.3945.130 Safari/537.36",124,"[0.9, 0.5, 0.1]","[0.8, 0.4, 0.2]","[u'red', u'black', u'blue']","[u'left', u'middle', u'right']","[0.8, 0.4, 0.2]","[u'high', u'medium', u'low']","black",50,"middle","medium","False","False",309,6100,NA
"ALEJV7D94ZLHF","Wed Jan 29 2020 11:41:00 GMT-0700 (Mountain Standard Time)","Wed Jan 29 2020 11:47:23 GMT-0700 (Mountain Standard Time)","Mozilla/5.0 (Windows NT 10.0; Win64; x64) AppleWebKit/537.36 (KHTML, like Gecko) Chrome/79.0.3945.130 Safari/537.36",125,"[0.9, 0.5, 0.1]","[0.8, 0.4, 0.2]","[u'red', u'black', u'blue']","[u'left', u'middle', u'right']","[0.8, 0.4, 0.2]","[u'high', u'medium', u'low']","red",49,"left","high","True","False",614,6200,NA
"ALEJV7D94ZLHF","Wed Jan 29 2020 11:41:00 GMT-0700 (Mountain Standard Time)","Wed Jan 29 2020 11:47:23 GMT-0700 (Mountain Standard Time)","Mozilla/5.0 (Windows NT 10.0; Win64; x64) AppleWebKit/537.36 (KHTML, like Gecko) Chrome/79.0.3945.130 Safari/537.36",126,"[0.9, 0.5, 0.1]","[0.8, 0.4, 0.2]","[u'red', u'black', u'blue']","[u'left', u'middle', u'right']","[0.8, 0.4, 0.2]","[u'high', u'medium', u'low']","red",49,"left","high","True","False",386,6300,NA
"ALEJV7D94ZLHF","Wed Jan 29 2020 11:41:00 GMT-0700 (Mountain Standard Time)","Wed Jan 29 2020 11:47:23 GMT-0700 (Mountain Standard Time)","Mozilla/5.0 (Windows NT 10.0; Win64; x64) AppleWebKit/537.36 (KHTML, like Gecko) Chrome/79.0.3945.130 Safari/537.36",127,"[0.9, 0.5, 0.1]","[0.8, 0.4, 0.2]","[u'red', u'black', u'blue']","[u'left', u'middle', u'right']","[0.8, 0.4, 0.2]","[u'high', u'medium', u'low']","red",49,"left","high","True","False",267,6400,NA
"ALEJV7D94ZLHF","Wed Jan 29 2020 11:41:00 GMT-0700 (Mountain Standard Time)","Wed Jan 29 2020 11:47:23 GMT-0700 (Mountain Standard Time)","Mozilla/5.0 (Windows NT 10.0; Win64; x64) AppleWebKit/537.36 (KHTML, like Gecko) Chrome/79.0.3945.130 Safari/537.36",128,"[0.9, 0.5, 0.1]","[0.8, 0.4, 0.2]","[u'red', u'black', u'blue']","[u'left', u'middle', u'right']","[0.8, 0.4, 0.2]","[u'high', u'medium', u'low']","red",49,"left","high","True","False",249,6500,NA
"ALEJV7D94ZLHF","Wed Jan 29 2020 11:41:00 GMT-0700 (Mountain Standard Time)","Wed Jan 29 2020 11:47:23 GMT-0700 (Mountain Standard Time)","Mozilla/5.0 (Windows NT 10.0; Win64; x64) AppleWebKit/537.36 (KHTML, like Gecko) Chrome/79.0.3945.130 Safari/537.36",129,"[0.9, 0.5, 0.1]","[0.8, 0.4, 0.2]","[u'red', u'black', u'blue']","[u'left', u'middle', u'right']","[0.8, 0.4, 0.2]","[u'high', u'medium', u'low']","red",49,"left","high","True","False",308,6600,NA
"ALEJV7D94ZLHF","Wed Jan 29 2020 11:41:00 GMT-0700 (Mountain Standard Time)","Wed Jan 29 2020 11:47:23 GMT-0700 (Mountain Standard Time)","Mozilla/5.0 (Windows NT 10.0; Win64; x64) AppleWebKit/537.36 (KHTML, like Gecko) Chrome/79.0.3945.130 Safari/537.36",130,"[0.9, 0.5, 0.1]","[0.8, 0.4, 0.2]","[u'red', u'black', u'blue']","[u'left', u'middle', u'right']","[0.8, 0.4, 0.2]","[u'high', u'medium', u'low']","red",49,"left","high","True","False",364,6700,NA
"ALEJV7D94ZLHF","Wed Jan 29 2020 11:41:00 GMT-0700 (Mountain Standard Time)","Wed Jan 29 2020 11:47:23 GMT-0700 (Mountain Standard Time)","Mozilla/5.0 (Windows NT 10.0; Win64; x64) AppleWebKit/537.36 (KHTML, like Gecko) Chrome/79.0.3945.130 Safari/537.36",131,"[0.9, 0.5, 0.1]","[0.8, 0.4, 0.2]","[u'red', u'black', u'blue']","[u'left', u'middle', u'right']","[0.8, 0.4, 0.2]","[u'high', u'medium', u'low']","red",49,"left","high","True","True",263,6800,NA
"ALEJV7D94ZLHF","Wed Jan 29 2020 11:41:00 GMT-0700 (Mountain Standard Time)","Wed Jan 29 2020 11:47:23 GMT-0700 (Mountain Standard Time)","Mozilla/5.0 (Windows NT 10.0; Win64; x64) AppleWebKit/537.36 (KHTML, like Gecko) Chrome/79.0.3945.130 Safari/537.36",132,"[0.9, 0.5, 0.1]","[0.8, 0.4, 0.2]","[u'red', u'black', u'blue']","[u'left', u'middle', u'right']","[0.8, 0.4, 0.2]","[u'low', u'medium', u'high']","red",49,"left","low","True","False",231,6900,NA
"ALEJV7D94ZLHF","Wed Jan 29 2020 11:41:00 GMT-0700 (Mountain Standard Time)","Wed Jan 29 2020 11:47:23 GMT-0700 (Mountain Standard Time)","Mozilla/5.0 (Windows NT 10.0; Win64; x64) AppleWebKit/537.36 (KHTML, like Gecko) Chrome/79.0.3945.130 Safari/537.36",133,"[0.9, 0.5, 0.1]","[0.8, 0.4, 0.2]","[u'red', u'black', u'blue']","[u'left', u'middle', u'right']","[0.8, 0.4, 0.2]","[u'low', u'medium', u'high']","red",49,"left","low","False","False",611,6850,NA
"ALEJV7D94ZLHF","Wed Jan 29 2020 11:41:00 GMT-0700 (Mountain Standard Time)","Wed Jan 29 2020 11:47:23 GMT-0700 (Mountain Standard Time)","Mozilla/5.0 (Windows NT 10.0; Win64; x64) AppleWebKit/537.36 (KHTML, like Gecko) Chrome/79.0.3945.130 Safari/537.36",134,"[0.9, 0.5, 0.1]","[0.8, 0.4, 0.2]","[u'red', u'black', u'blue']","[u'left', u'middle', u'right']","[0.8, 0.4, 0.2]","[u'low', u'medium', u'high']","black",50,"middle","medium","False","False",518,6800,NA
"ALEJV7D94ZLHF","Wed Jan 29 2020 11:41:00 GMT-0700 (Mountain Standard Time)","Wed Jan 29 2020 11:47:23 GMT-0700 (Mountain Standard Time)","Mozilla/5.0 (Windows NT 10.0; Win64; x64) AppleWebKit/537.36 (KHTML, like Gecko) Chrome/79.0.3945.130 Safari/537.36",135,"[0.9, 0.5, 0.1]","[0.8, 0.4, 0.2]","[u'red', u'black', u'blue']","[u'left', u'middle', u'right']","[0.8, 0.4, 0.2]","[u'low', u'medium', u'high']","blue",51,"right","high","True","False",296,6900,NA
"ALEJV7D94ZLHF","Wed Jan 29 2020 11:41:00 GMT-0700 (Mountain Standard Time)","Wed Jan 29 2020 11:47:23 GMT-0700 (Mountain Standard Time)","Mozilla/5.0 (Windows NT 10.0; Win64; x64) AppleWebKit/537.36 (KHTML, like Gecko) Chrome/79.0.3945.130 Safari/537.36",136,"[0.9, 0.5, 0.1]","[0.8, 0.4, 0.2]","[u'red', u'black', u'blue']","[u'left', u'middle', u'right']","[0.8, 0.4, 0.2]","[u'low', u'medium', u'high']","blue",51,"right","high","True","False",312,7000,NA
"ALEJV7D94ZLHF","Wed Jan 29 2020 11:41:00 GMT-0700 (Mountain Standard Time)","Wed Jan 29 2020 11:47:23 GMT-0700 (Mountain Standard Time)","Mozilla/5.0 (Windows NT 10.0; Win64; x64) AppleWebKit/537.36 (KHTML, like Gecko) Chrome/79.0.3945.130 Safari/537.36",137,"[0.9, 0.5, 0.1]","[0.8, 0.4, 0.2]","[u'red', u'black', u'blue']","[u'left', u'middle', u'right']","[0.8, 0.4, 0.2]","[u'low', u'medium', u'high']","blue",51,"right","high","True","False",404,7100,NA
"ALEJV7D94ZLHF","Wed Jan 29 2020 11:41:00 GMT-0700 (Mountain Standard Time)","Wed Jan 29 2020 11:47:23 GMT-0700 (Mountain Standard Time)","Mozilla/5.0 (Windows NT 10.0; Win64; x64) AppleWebKit/537.36 (KHTML, like Gecko) Chrome/79.0.3945.130 Safari/537.36",138,"[0.9, 0.5, 0.1]","[0.8, 0.4, 0.2]","[u'red', u'black', u'blue']","[u'left', u'middle', u'right']","[0.8, 0.4, 0.2]","[u'low', u'medium', u'high']","blue",51,"right","high","True","False",244,7200,NA
"ALEJV7D94ZLHF","Wed Jan 29 2020 11:41:00 GMT-0700 (Mountain Standard Time)","Wed Jan 29 2020 11:47:23 GMT-0700 (Mountain Standard Time)","Mozilla/5.0 (Windows NT 10.0; Win64; x64) AppleWebKit/537.36 (KHTML, like Gecko) Chrome/79.0.3945.130 Safari/537.36",139,"[0.9, 0.5, 0.1]","[0.8, 0.4, 0.2]","[u'red', u'black', u'blue']","[u'left', u'middle', u'right']","[0.8, 0.4, 0.2]","[u'low', u'medium', u'high']","blue",51,"right","high","True","False",337,7300,NA
"ALEJV7D94ZLHF","Wed Jan 29 2020 11:41:00 GMT-0700 (Mountain Standard Time)","Wed Jan 29 2020 11:47:23 GMT-0700 (Mountain Standard Time)","Mozilla/5.0 (Windows NT 10.0; Win64; x64) AppleWebKit/537.36 (KHTML, like Gecko) Chrome/79.0.3945.130 Safari/537.36",140,"[0.9, 0.5, 0.1]","[0.8, 0.4, 0.2]","[u'red', u'black', u'blue']","[u'left', u'middle', u'right']","[0.8, 0.4, 0.2]","[u'low', u'medium', u'high']","blue",51,"right","high","True","False",242,7400,NA
"ALEJV7D94ZLHF","Wed Jan 29 2020 11:41:00 GMT-0700 (Mountain Standard Time)","Wed Jan 29 2020 11:47:23 GMT-0700 (Mountain Standard Time)","Mozilla/5.0 (Windows NT 10.0; Win64; x64) AppleWebKit/537.36 (KHTML, like Gecko) Chrome/79.0.3945.130 Safari/537.36",141,"[0.9, 0.5, 0.1]","[0.8, 0.4, 0.2]","[u'red', u'black', u'blue']","[u'left', u'middle', u'right']","[0.8, 0.4, 0.2]","[u'low', u'medium', u'high']","blue",51,"right","high","True","False",265,7500,NA
"ALEJV7D94ZLHF","Wed Jan 29 2020 11:41:00 GMT-0700 (Mountain Standard Time)","Wed Jan 29 2020 11:47:23 GMT-0700 (Mountain Standard Time)","Mozilla/5.0 (Windows NT 10.0; Win64; x64) AppleWebKit/537.36 (KHTML, like Gecko) Chrome/79.0.3945.130 Safari/537.36",142,"[0.9, 0.5, 0.1]","[0.8, 0.4, 0.2]","[u'red', u'black', u'blue']","[u'left', u'middle', u'right']","[0.8, 0.4, 0.2]","[u'low', u'medium', u'high']","blue",51,"right","high","True","False",295,7600,NA
"ALEJV7D94ZLHF","Wed Jan 29 2020 11:41:00 GMT-0700 (Mountain Standard Time)","Wed Jan 29 2020 11:47:23 GMT-0700 (Mountain Standard Time)","Mozilla/5.0 (Windows NT 10.0; Win64; x64) AppleWebKit/537.36 (KHTML, like Gecko) Chrome/79.0.3945.130 Safari/537.36",143,"[0.9, 0.5, 0.1]","[0.8, 0.4, 0.2]","[u'red', u'black', u'blue']","[u'left', u'middle', u'right']","[0.8, 0.4, 0.2]","[u'low', u'medium', u'high']","blue",51,"right","high","True","True",298,7700,NA
"ALEJV7D94ZLHF","Wed Jan 29 2020 11:41:00 GMT-0700 (Mountain Standard Time)","Wed Jan 29 2020 11:47:23 GMT-0700 (Mountain Standard Time)","Mozilla/5.0 (Windows NT 10.0; Win64; x64) AppleWebKit/537.36 (KHTML, like Gecko) Chrome/79.0.3945.130 Safari/537.36",144,"[0.9, 0.5, 0.1]","[0.8, 0.4, 0.2]","[u'red', u'black', u'blue']","[u'left', u'middle', u'right']","[0.8, 0.4, 0.2]","[u'medium', u'high', u'low']","blue",51,"right","low","False","False",268,7650,NA
"ALEJV7D94ZLHF","Wed Jan 29 2020 11:41:00 GMT-0700 (Mountain Standard Time)","Wed Jan 29 2020 11:47:23 GMT-0700 (Mountain Standard Time)","Mozilla/5.0 (Windows NT 10.0; Win64; x64) AppleWebKit/537.36 (KHTML, like Gecko) Chrome/79.0.3945.130 Safari/537.36",145,"[0.9, 0.5, 0.1]","[0.8, 0.4, 0.2]","[u'red', u'black', u'blue']","[u'left', u'middle', u'right']","[0.8, 0.4, 0.2]","[u'medium', u'high', u'low']","red",49,"left","medium","False","False",212,7600,NA
"ALEJV7D94ZLHF","Wed Jan 29 2020 11:41:00 GMT-0700 (Mountain Standard Time)","Wed Jan 29 2020 11:47:23 GMT-0700 (Mountain Standard Time)","Mozilla/5.0 (Windows NT 10.0; Win64; x64) AppleWebKit/537.36 (KHTML, like Gecko) Chrome/79.0.3945.130 Safari/537.36",146,"[0.9, 0.5, 0.1]","[0.8, 0.4, 0.2]","[u'red', u'black', u'blue']","[u'left', u'middle', u'right']","[0.8, 0.4, 0.2]","[u'medium', u'high', u'low']","black",50,"middle","high","True","False",185,7700,NA
"ALEJV7D94ZLHF","Wed Jan 29 2020 11:41:00 GMT-0700 (Mountain Standard Time)","Wed Jan 29 2020 11:47:23 GMT-0700 (Mountain Standard Time)","Mozilla/5.0 (Windows NT 10.0; Win64; x64) AppleWebKit/537.36 (KHTML, like Gecko) Chrome/79.0.3945.130 Safari/537.36",147,"[0.9, 0.5, 0.1]","[0.8, 0.4, 0.2]","[u'red', u'black', u'blue']","[u'left', u'middle', u'right']","[0.8, 0.4, 0.2]","[u'medium', u'high', u'low']","black",50,"middle","high","False","False",240,7650,NA
"ALEJV7D94ZLHF","Wed Jan 29 2020 11:41:00 GMT-0700 (Mountain Standard Time)","Wed Jan 29 2020 11:47:23 GMT-0700 (Mountain Standard Time)","Mozilla/5.0 (Windows NT 10.0; Win64; x64) AppleWebKit/537.36 (KHTML, like Gecko) Chrome/79.0.3945.130 Safari/537.36",148,"[0.9, 0.5, 0.1]","[0.8, 0.4, 0.2]","[u'red', u'black', u'blue']","[u'left', u'middle', u'right']","[0.8, 0.4, 0.2]","[u'medium', u'high', u'low']","black",50,"middle","high","False","False",212,7600,NA
"ALEJV7D94ZLHF","Wed Jan 29 2020 11:41:00 GMT-0700 (Mountain Standard Time)","Wed Jan 29 2020 11:47:23 GMT-0700 (Mountain Standard Time)","Mozilla/5.0 (Windows NT 10.0; Win64; x64) AppleWebKit/537.36 (KHTML, like Gecko) Chrome/79.0.3945.130 Safari/537.36",149,"[0.9, 0.5, 0.1]","[0.8, 0.4, 0.2]","[u'red', u'black', u'blue']","[u'left', u'middle', u'right']","[0.8, 0.4, 0.2]","[u'medium', u'high', u'low']","red",49,"left","medium","False","False",257,7550,NA
"ALEJV7D94ZLHF","Wed Jan 29 2020 11:41:00 GMT-0700 (Mountain Standard Time)","Wed Jan 29 2020 11:47:23 GMT-0700 (Mountain Standard Time)","Mozilla/5.0 (Windows NT 10.0; Win64; x64) AppleWebKit/537.36 (KHTML, like Gecko) Chrome/79.0.3945.130 Safari/537.36",150,"[0.9, 0.5, 0.1]","[0.8, 0.4, 0.2]","[u'red', u'black', u'blue']","[u'left', u'middle', u'right']","[0.8, 0.4, 0.2]","[u'medium', u'high', u'low']","blue",51,"right","low","True","False",219,7650,NA
"ALEJV7D94ZLHF","Wed Jan 29 2020 11:41:00 GMT-0700 (Mountain Standard Time)","Wed Jan 29 2020 11:47:23 GMT-0700 (Mountain Standard Time)","Mozilla/5.0 (Windows NT 10.0; Win64; x64) AppleWebKit/537.36 (KHTML, like Gecko) Chrome/79.0.3945.130 Safari/537.36",151,"[0.9, 0.5, 0.1]","[0.8, 0.4, 0.2]","[u'red', u'black', u'blue']","[u'left', u'middle', u'right']","[0.8, 0.4, 0.2]","[u'medium', u'high', u'low']","blue",51,"right","low","False","False",261,7600,NA
"ALEJV7D94ZLHF","Wed Jan 29 2020 11:41:00 GMT-0700 (Mountain Standard Time)","Wed Jan 29 2020 11:47:23 GMT-0700 (Mountain Standard Time)","Mozilla/5.0 (Windows NT 10.0; Win64; x64) AppleWebKit/537.36 (KHTML, like Gecko) Chrome/79.0.3945.130 Safari/537.36",152,"[0.9, 0.5, 0.1]","[0.8, 0.4, 0.2]","[u'red', u'black', u'blue']","[u'left', u'middle', u'right']","[0.8, 0.4, 0.2]","[u'medium', u'high', u'low']","blue",51,"right","low","False","False",202,7550,NA
"ALEJV7D94ZLHF","Wed Jan 29 2020 11:41:00 GMT-0700 (Mountain Standard Time)","Wed Jan 29 2020 11:47:23 GMT-0700 (Mountain Standard Time)","Mozilla/5.0 (Windows NT 10.0; Win64; x64) AppleWebKit/537.36 (KHTML, like Gecko) Chrome/79.0.3945.130 Safari/537.36",153,"[0.9, 0.5, 0.1]","[0.8, 0.4, 0.2]","[u'red', u'black', u'blue']","[u'left', u'middle', u'right']","[0.8, 0.4, 0.2]","[u'medium', u'high', u'low']","black",50,"middle","high","True","False",179,7650,NA
"ALEJV7D94ZLHF","Wed Jan 29 2020 11:41:00 GMT-0700 (Mountain Standard Time)","Wed Jan 29 2020 11:47:23 GMT-0700 (Mountain Standard Time)","Mozilla/5.0 (Windows NT 10.0; Win64; x64) AppleWebKit/537.36 (KHTML, like Gecko) Chrome/79.0.3945.130 Safari/537.36",154,"[0.9, 0.5, 0.1]","[0.8, 0.4, 0.2]","[u'red', u'black', u'blue']","[u'left', u'middle', u'right']","[0.8, 0.4, 0.2]","[u'medium', u'high', u'low']","black",50,"middle","high","True","False",275,7750,NA
"ALEJV7D94ZLHF","Wed Jan 29 2020 11:41:00 GMT-0700 (Mountain Standard Time)","Wed Jan 29 2020 11:47:23 GMT-0700 (Mountain Standard Time)","Mozilla/5.0 (Windows NT 10.0; Win64; x64) AppleWebKit/537.36 (KHTML, like Gecko) Chrome/79.0.3945.130 Safari/537.36",155,"[0.9, 0.5, 0.1]","[0.8, 0.4, 0.2]","[u'red', u'black', u'blue']","[u'left', u'middle', u'right']","[0.8, 0.4, 0.2]","[u'medium', u'high', u'low']","black",50,"middle","high","True","False",254,7850,NA
"ALEJV7D94ZLHF","Wed Jan 29 2020 11:41:00 GMT-0700 (Mountain Standard Time)","Wed Jan 29 2020 11:47:23 GMT-0700 (Mountain Standard Time)","Mozilla/5.0 (Windows NT 10.0; Win64; x64) AppleWebKit/537.36 (KHTML, like Gecko) Chrome/79.0.3945.130 Safari/537.36",156,"[0.9, 0.5, 0.1]","[0.8, 0.4, 0.2]","[u'red', u'black', u'blue']","[u'left', u'middle', u'right']","[0.8, 0.4, 0.2]","[u'medium', u'high', u'low']","black",50,"middle","high","True","False",274,7950,NA
"ALEJV7D94ZLHF","Wed Jan 29 2020 11:41:00 GMT-0700 (Mountain Standard Time)","Wed Jan 29 2020 11:47:23 GMT-0700 (Mountain Standard Time)","Mozilla/5.0 (Windows NT 10.0; Win64; x64) AppleWebKit/537.36 (KHTML, like Gecko) Chrome/79.0.3945.130 Safari/537.36",157,"[0.9, 0.5, 0.1]","[0.8, 0.4, 0.2]","[u'red', u'black', u'blue']","[u'left', u'middle', u'right']","[0.8, 0.4, 0.2]","[u'medium', u'high', u'low']","black",50,"middle","high","True","False",307,8050,NA
"ALEJV7D94ZLHF","Wed Jan 29 2020 11:41:00 GMT-0700 (Mountain Standard Time)","Wed Jan 29 2020 11:47:23 GMT-0700 (Mountain Standard Time)","Mozilla/5.0 (Windows NT 10.0; Win64; x64) AppleWebKit/537.36 (KHTML, like Gecko) Chrome/79.0.3945.130 Safari/537.36",158,"[0.9, 0.5, 0.1]","[0.8, 0.4, 0.2]","[u'red', u'black', u'blue']","[u'left', u'middle', u'right']","[0.8, 0.4, 0.2]","[u'medium', u'high', u'low']","black",50,"middle","high","True","False",229,8150,NA
"ALEJV7D94ZLHF","Wed Jan 29 2020 11:41:00 GMT-0700 (Mountain Standard Time)","Wed Jan 29 2020 11:47:23 GMT-0700 (Mountain Standard Time)","Mozilla/5.0 (Windows NT 10.0; Win64; x64) AppleWebKit/537.36 (KHTML, like Gecko) Chrome/79.0.3945.130 Safari/537.36",159,"[0.9, 0.5, 0.1]","[0.8, 0.4, 0.2]","[u'red', u'black', u'blue']","[u'left', u'middle', u'right']","[0.8, 0.4, 0.2]","[u'medium', u'high', u'low']","black",50,"middle","high","True","False",318,8250,NA
"ALEJV7D94ZLHF","Wed Jan 29 2020 11:41:00 GMT-0700 (Mountain Standard Time)","Wed Jan 29 2020 11:47:23 GMT-0700 (Mountain Standard Time)","Mozilla/5.0 (Windows NT 10.0; Win64; x64) AppleWebKit/537.36 (KHTML, like Gecko) Chrome/79.0.3945.130 Safari/537.36",160,"[0.9, 0.5, 0.1]","[0.8, 0.4, 0.2]","[u'red', u'black', u'blue']","[u'left', u'middle', u'right']","[0.8, 0.4, 0.2]","[u'medium', u'high', u'low']","black",50,"middle","high","True","False",399,8350,NA
