"src_subject_id","start_time","end_time","browser","index","first_half_probabilities","second_half_probabilities","deck_color","deck_position","deck_probabilities","deck_contingencies","response_color","key_press","response_position","response_probability","reward_type","trial_type","rt","reward_tally","exclusion_reason"
"AHOQWPD49OMW3","Wed Jan 29 2020 13:15:59 GMT-0500 (Eastern Standard Time)","Wed Jan 29 2020 13:26:26 GMT-0500 (Eastern Standard Time)","Mozilla/5.0 (Windows NT 10.0; WOW64) AppleWebKit/537.36 (KHTML, like Gecko) Chrome/78.0.3904.108 Safari/537.36 OPR/65.0.3467.78",1,"[0.9, 0.5, 0.1]","[0.8, 0.4, 0.2]","[u'blue', u'black', u'red']","[u'left', u'middle', u'right']","[0.9, 0.5, 0.1]","[u'low', u'medium', u'high']","blue",49,"left","low","False","False",1852,-50,NA
"AHOQWPD49OMW3","Wed Jan 29 2020 13:15:59 GMT-0500 (Eastern Standard Time)","Wed Jan 29 2020 13:26:26 GMT-0500 (Eastern Standard Time)","Mozilla/5.0 (Windows NT 10.0; WOW64) AppleWebKit/537.36 (KHTML, like Gecko) Chrome/78.0.3904.108 Safari/537.36 OPR/65.0.3467.78",2,"[0.9, 0.5, 0.1]","[0.8, 0.4, 0.2]","[u'blue', u'black', u'red']","[u'left', u'middle', u'right']","[0.9, 0.5, 0.1]","[u'low', u'medium', u'high']","black",50,"middle","medium","True","False",378,50,NA
"AHOQWPD49OMW3","Wed Jan 29 2020 13:15:59 GMT-0500 (Eastern Standard Time)","Wed Jan 29 2020 13:26:26 GMT-0500 (Eastern Standard Time)","Mozilla/5.0 (Windows NT 10.0; WOW64) AppleWebKit/537.36 (KHTML, like Gecko) Chrome/78.0.3904.108 Safari/537.36 OPR/65.0.3467.78",3,"[0.9, 0.5, 0.1]","[0.8, 0.4, 0.2]","[u'blue', u'black', u'red']","[u'left', u'middle', u'right']","[0.9, 0.5, 0.1]","[u'low', u'medium', u'high']","black",50,"middle","medium","False","False",542,0,NA
"AHOQWPD49OMW3","Wed Jan 29 2020 13:15:59 GMT-0500 (Eastern Standard Time)","Wed Jan 29 2020 13:26:26 GMT-0500 (Eastern Standard Time)","Mozilla/5.0 (Windows NT 10.0; WOW64) AppleWebKit/537.36 (KHTML, like Gecko) Chrome/78.0.3904.108 Safari/537.36 OPR/65.0.3467.78",4,"[0.9, 0.5, 0.1]","[0.8, 0.4, 0.2]","[u'blue', u'black', u'red']","[u'left', u'middle', u'right']","[0.9, 0.5, 0.1]","[u'low', u'medium', u'high']","red",51,"right","high","True","False",349,100,NA
"AHOQWPD49OMW3","Wed Jan 29 2020 13:15:59 GMT-0500 (Eastern Standard Time)","Wed Jan 29 2020 13:26:26 GMT-0500 (Eastern Standard Time)","Mozilla/5.0 (Windows NT 10.0; WOW64) AppleWebKit/537.36 (KHTML, like Gecko) Chrome/78.0.3904.108 Safari/537.36 OPR/65.0.3467.78",5,"[0.9, 0.5, 0.1]","[0.8, 0.4, 0.2]","[u'blue', u'black', u'red']","[u'left', u'middle', u'right']","[0.9, 0.5, 0.1]","[u'low', u'medium', u'high']","blue",49,"left","low","False","False",327,50,NA
"AHOQWPD49OMW3","Wed Jan 29 2020 13:15:59 GMT-0500 (Eastern Standard Time)","Wed Jan 29 2020 13:26:26 GMT-0500 (Eastern Standard Time)","Mozilla/5.0 (Windows NT 10.0; WOW64) AppleWebKit/537.36 (KHTML, like Gecko) Chrome/78.0.3904.108 Safari/537.36 OPR/65.0.3467.78",6,"[0.9, 0.5, 0.1]","[0.8, 0.4, 0.2]","[u'blue', u'black', u'red']","[u'left', u'middle', u'right']","[0.9, 0.5, 0.1]","[u'low', u'medium', u'high']","red",51,"right","high","True","False",486,150,NA
"AHOQWPD49OMW3","Wed Jan 29 2020 13:15:59 GMT-0500 (Eastern Standard Time)","Wed Jan 29 2020 13:26:26 GMT-0500 (Eastern Standard Time)","Mozilla/5.0 (Windows NT 10.0; WOW64) AppleWebKit/537.36 (KHTML, like Gecko) Chrome/78.0.3904.108 Safari/537.36 OPR/65.0.3467.78",7,"[0.9, 0.5, 0.1]","[0.8, 0.4, 0.2]","[u'blue', u'black', u'red']","[u'left', u'middle', u'right']","[0.9, 0.5, 0.1]","[u'low', u'medium', u'high']","red",51,"right","high","True","False",457,250,NA
"AHOQWPD49OMW3","Wed Jan 29 2020 13:15:59 GMT-0500 (Eastern Standard Time)","Wed Jan 29 2020 13:26:26 GMT-0500 (Eastern Standard Time)","Mozilla/5.0 (Windows NT 10.0; WOW64) AppleWebKit/537.36 (KHTML, like Gecko) Chrome/78.0.3904.108 Safari/537.36 OPR/65.0.3467.78",8,"[0.9, 0.5, 0.1]","[0.8, 0.4, 0.2]","[u'blue', u'black', u'red']","[u'left', u'middle', u'right']","[0.9, 0.5, 0.1]","[u'low', u'medium', u'high']","red",51,"right","high","True","False",443,350,NA
"AHOQWPD49OMW3","Wed Jan 29 2020 13:15:59 GMT-0500 (Eastern Standard Time)","Wed Jan 29 2020 13:26:26 GMT-0500 (Eastern Standard Time)","Mozilla/5.0 (Windows NT 10.0; WOW64) AppleWebKit/537.36 (KHTML, like Gecko) Chrome/78.0.3904.108 Safari/537.36 OPR/65.0.3467.78",9,"[0.9, 0.5, 0.1]","[0.8, 0.4, 0.2]","[u'blue', u'black', u'red']","[u'left', u'middle', u'right']","[0.9, 0.5, 0.1]","[u'low', u'medium', u'high']","black",50,"middle","medium","False","False",481,300,NA
"AHOQWPD49OMW3","Wed Jan 29 2020 13:15:59 GMT-0500 (Eastern Standard Time)","Wed Jan 29 2020 13:26:26 GMT-0500 (Eastern Standard Time)","Mozilla/5.0 (Windows NT 10.0; WOW64) AppleWebKit/537.36 (KHTML, like Gecko) Chrome/78.0.3904.108 Safari/537.36 OPR/65.0.3467.78",10,"[0.9, 0.5, 0.1]","[0.8, 0.4, 0.2]","[u'blue', u'black', u'red']","[u'left', u'middle', u'right']","[0.9, 0.5, 0.1]","[u'low', u'medium', u'high']","red",51,"right","high","True","False",132,400,NA
"AHOQWPD49OMW3","Wed Jan 29 2020 13:15:59 GMT-0500 (Eastern Standard Time)","Wed Jan 29 2020 13:26:26 GMT-0500 (Eastern Standard Time)","Mozilla/5.0 (Windows NT 10.0; WOW64) AppleWebKit/537.36 (KHTML, like Gecko) Chrome/78.0.3904.108 Safari/537.36 OPR/65.0.3467.78",11,"[0.9, 0.5, 0.1]","[0.8, 0.4, 0.2]","[u'blue', u'black', u'red']","[u'left', u'middle', u'right']","[0.9, 0.5, 0.1]","[u'low', u'medium', u'high']","red",51,"right","high","True","False",262,500,NA
"AHOQWPD49OMW3","Wed Jan 29 2020 13:15:59 GMT-0500 (Eastern Standard Time)","Wed Jan 29 2020 13:26:26 GMT-0500 (Eastern Standard Time)","Mozilla/5.0 (Windows NT 10.0; WOW64) AppleWebKit/537.36 (KHTML, like Gecko) Chrome/78.0.3904.108 Safari/537.36 OPR/65.0.3467.78",12,"[0.9, 0.5, 0.1]","[0.8, 0.4, 0.2]","[u'blue', u'black', u'red']","[u'left', u'middle', u'right']","[0.9, 0.5, 0.1]","[u'low', u'medium', u'high']","red",51,"right","high","True","False",452,600,NA
"AHOQWPD49OMW3","Wed Jan 29 2020 13:15:59 GMT-0500 (Eastern Standard Time)","Wed Jan 29 2020 13:26:26 GMT-0500 (Eastern Standard Time)","Mozilla/5.0 (Windows NT 10.0; WOW64) AppleWebKit/537.36 (KHTML, like Gecko) Chrome/78.0.3904.108 Safari/537.36 OPR/65.0.3467.78",13,"[0.9, 0.5, 0.1]","[0.8, 0.4, 0.2]","[u'blue', u'black', u'red']","[u'left', u'middle', u'right']","[0.9, 0.5, 0.1]","[u'low', u'medium', u'high']","red",51,"right","high","True","False",239,700,NA
"AHOQWPD49OMW3","Wed Jan 29 2020 13:15:59 GMT-0500 (Eastern Standard Time)","Wed Jan 29 2020 13:26:26 GMT-0500 (Eastern Standard Time)","Mozilla/5.0 (Windows NT 10.0; WOW64) AppleWebKit/537.36 (KHTML, like Gecko) Chrome/78.0.3904.108 Safari/537.36 OPR/65.0.3467.78",14,"[0.9, 0.5, 0.1]","[0.8, 0.4, 0.2]","[u'blue', u'black', u'red']","[u'left', u'middle', u'right']","[0.9, 0.5, 0.1]","[u'low', u'medium', u'high']","red",51,"right","high","True","False",405,800,NA
"AHOQWPD49OMW3","Wed Jan 29 2020 13:15:59 GMT-0500 (Eastern Standard Time)","Wed Jan 29 2020 13:26:26 GMT-0500 (Eastern Standard Time)","Mozilla/5.0 (Windows NT 10.0; WOW64) AppleWebKit/537.36 (KHTML, like Gecko) Chrome/78.0.3904.108 Safari/537.36 OPR/65.0.3467.78",15,"[0.9, 0.5, 0.1]","[0.8, 0.4, 0.2]","[u'blue', u'black', u'red']","[u'left', u'middle', u'right']","[0.9, 0.5, 0.1]","[u'low', u'medium', u'high']","red",51,"right","high","True","False",426,900,NA
"AHOQWPD49OMW3","Wed Jan 29 2020 13:15:59 GMT-0500 (Eastern Standard Time)","Wed Jan 29 2020 13:26:26 GMT-0500 (Eastern Standard Time)","Mozilla/5.0 (Windows NT 10.0; WOW64) AppleWebKit/537.36 (KHTML, like Gecko) Chrome/78.0.3904.108 Safari/537.36 OPR/65.0.3467.78",16,"[0.9, 0.5, 0.1]","[0.8, 0.4, 0.2]","[u'blue', u'black', u'red']","[u'left', u'middle', u'right']","[0.9, 0.5, 0.1]","[u'low', u'medium', u'high']","red",51,"right","high","True","False",285,1000,NA
"AHOQWPD49OMW3","Wed Jan 29 2020 13:15:59 GMT-0500 (Eastern Standard Time)","Wed Jan 29 2020 13:26:26 GMT-0500 (Eastern Standard Time)","Mozilla/5.0 (Windows NT 10.0; WOW64) AppleWebKit/537.36 (KHTML, like Gecko) Chrome/78.0.3904.108 Safari/537.36 OPR/65.0.3467.78",17,"[0.9, 0.5, 0.1]","[0.8, 0.4, 0.2]","[u'blue', u'black', u'red']","[u'left', u'middle', u'right']","[0.9, 0.5, 0.1]","[u'low', u'medium', u'high']","red",51,"right","high","True","False",372,1100,NA
"AHOQWPD49OMW3","Wed Jan 29 2020 13:15:59 GMT-0500 (Eastern Standard Time)","Wed Jan 29 2020 13:26:26 GMT-0500 (Eastern Standard Time)","Mozilla/5.0 (Windows NT 10.0; WOW64) AppleWebKit/537.36 (KHTML, like Gecko) Chrome/78.0.3904.108 Safari/537.36 OPR/65.0.3467.78",18,"[0.9, 0.5, 0.1]","[0.8, 0.4, 0.2]","[u'blue', u'black', u'red']","[u'left', u'middle', u'right']","[0.9, 0.5, 0.1]","[u'low', u'medium', u'high']","red",51,"right","high","True","True",313,1200,NA
"AHOQWPD49OMW3","Wed Jan 29 2020 13:15:59 GMT-0500 (Eastern Standard Time)","Wed Jan 29 2020 13:26:26 GMT-0500 (Eastern Standard Time)","Mozilla/5.0 (Windows NT 10.0; WOW64) AppleWebKit/537.36 (KHTML, like Gecko) Chrome/78.0.3904.108 Safari/537.36 OPR/65.0.3467.78",19,"[0.9, 0.5, 0.1]","[0.8, 0.4, 0.2]","[u'blue', u'black', u'red']","[u'left', u'middle', u'right']","[0.9, 0.5, 0.1]","[u'high', u'medium', u'low']","red",51,"right","low","False","False",302,1150,NA
"AHOQWPD49OMW3","Wed Jan 29 2020 13:15:59 GMT-0500 (Eastern Standard Time)","Wed Jan 29 2020 13:26:26 GMT-0500 (Eastern Standard Time)","Mozilla/5.0 (Windows NT 10.0; WOW64) AppleWebKit/537.36 (KHTML, like Gecko) Chrome/78.0.3904.108 Safari/537.36 OPR/65.0.3467.78",20,"[0.9, 0.5, 0.1]","[0.8, 0.4, 0.2]","[u'blue', u'black', u'red']","[u'left', u'middle', u'right']","[0.9, 0.5, 0.1]","[u'high', u'medium', u'low']","black",50,"middle","medium","False","False",93,1100,NA
"AHOQWPD49OMW3","Wed Jan 29 2020 13:15:59 GMT-0500 (Eastern Standard Time)","Wed Jan 29 2020 13:26:26 GMT-0500 (Eastern Standard Time)","Mozilla/5.0 (Windows NT 10.0; WOW64) AppleWebKit/537.36 (KHTML, like Gecko) Chrome/78.0.3904.108 Safari/537.36 OPR/65.0.3467.78",21,"[0.9, 0.5, 0.1]","[0.8, 0.4, 0.2]","[u'blue', u'black', u'red']","[u'left', u'middle', u'right']","[0.9, 0.5, 0.1]","[u'high', u'medium', u'low']","blue",49,"left","high","True","False",447,1200,NA
"AHOQWPD49OMW3","Wed Jan 29 2020 13:15:59 GMT-0500 (Eastern Standard Time)","Wed Jan 29 2020 13:26:26 GMT-0500 (Eastern Standard Time)","Mozilla/5.0 (Windows NT 10.0; WOW64) AppleWebKit/537.36 (KHTML, like Gecko) Chrome/78.0.3904.108 Safari/537.36 OPR/65.0.3467.78",22,"[0.9, 0.5, 0.1]","[0.8, 0.4, 0.2]","[u'blue', u'black', u'red']","[u'left', u'middle', u'right']","[0.9, 0.5, 0.1]","[u'high', u'medium', u'low']","blue",49,"left","high","True","False",964,1300,NA
"AHOQWPD49OMW3","Wed Jan 29 2020 13:15:59 GMT-0500 (Eastern Standard Time)","Wed Jan 29 2020 13:26:26 GMT-0500 (Eastern Standard Time)","Mozilla/5.0 (Windows NT 10.0; WOW64) AppleWebKit/537.36 (KHTML, like Gecko) Chrome/78.0.3904.108 Safari/537.36 OPR/65.0.3467.78",23,"[0.9, 0.5, 0.1]","[0.8, 0.4, 0.2]","[u'blue', u'black', u'red']","[u'left', u'middle', u'right']","[0.9, 0.5, 0.1]","[u'high', u'medium', u'low']","blue",49,"left","high","True","False",1898,1400,NA
"AHOQWPD49OMW3","Wed Jan 29 2020 13:15:59 GMT-0500 (Eastern Standard Time)","Wed Jan 29 2020 13:26:26 GMT-0500 (Eastern Standard Time)","Mozilla/5.0 (Windows NT 10.0; WOW64) AppleWebKit/537.36 (KHTML, like Gecko) Chrome/78.0.3904.108 Safari/537.36 OPR/65.0.3467.78",24,"[0.9, 0.5, 0.1]","[0.8, 0.4, 0.2]","[u'blue', u'black', u'red']","[u'left', u'middle', u'right']","[0.9, 0.5, 0.1]","[u'high', u'medium', u'low']","blue",49,"left","high","True","False",284,1500,NA
"AHOQWPD49OMW3","Wed Jan 29 2020 13:15:59 GMT-0500 (Eastern Standard Time)","Wed Jan 29 2020 13:26:26 GMT-0500 (Eastern Standard Time)","Mozilla/5.0 (Windows NT 10.0; WOW64) AppleWebKit/537.36 (KHTML, like Gecko) Chrome/78.0.3904.108 Safari/537.36 OPR/65.0.3467.78",25,"[0.9, 0.5, 0.1]","[0.8, 0.4, 0.2]","[u'blue', u'black', u'red']","[u'left', u'middle', u'right']","[0.9, 0.5, 0.1]","[u'high', u'medium', u'low']","blue",49,"left","high","True","False",1744,1600,NA
"AHOQWPD49OMW3","Wed Jan 29 2020 13:15:59 GMT-0500 (Eastern Standard Time)","Wed Jan 29 2020 13:26:26 GMT-0500 (Eastern Standard Time)","Mozilla/5.0 (Windows NT 10.0; WOW64) AppleWebKit/537.36 (KHTML, like Gecko) Chrome/78.0.3904.108 Safari/537.36 OPR/65.0.3467.78",26,"[0.9, 0.5, 0.1]","[0.8, 0.4, 0.2]","[u'blue', u'black', u'red']","[u'left', u'middle', u'right']","[0.9, 0.5, 0.1]","[u'high', u'medium', u'low']","blue",49,"left","high","True","False",345,1700,NA
"AHOQWPD49OMW3","Wed Jan 29 2020 13:15:59 GMT-0500 (Eastern Standard Time)","Wed Jan 29 2020 13:26:26 GMT-0500 (Eastern Standard Time)","Mozilla/5.0 (Windows NT 10.0; WOW64) AppleWebKit/537.36 (KHTML, like Gecko) Chrome/78.0.3904.108 Safari/537.36 OPR/65.0.3467.78",27,"[0.9, 0.5, 0.1]","[0.8, 0.4, 0.2]","[u'blue', u'black', u'red']","[u'left', u'middle', u'right']","[0.9, 0.5, 0.1]","[u'high', u'medium', u'low']","blue",49,"left","high","True","False",279,1800,NA
"AHOQWPD49OMW3","Wed Jan 29 2020 13:15:59 GMT-0500 (Eastern Standard Time)","Wed Jan 29 2020 13:26:26 GMT-0500 (Eastern Standard Time)","Mozilla/5.0 (Windows NT 10.0; WOW64) AppleWebKit/537.36 (KHTML, like Gecko) Chrome/78.0.3904.108 Safari/537.36 OPR/65.0.3467.78",28,"[0.9, 0.5, 0.1]","[0.8, 0.4, 0.2]","[u'blue', u'black', u'red']","[u'left', u'middle', u'right']","[0.9, 0.5, 0.1]","[u'high', u'medium', u'low']","blue",49,"left","high","True","False",1978,1900,NA
"AHOQWPD49OMW3","Wed Jan 29 2020 13:15:59 GMT-0500 (Eastern Standard Time)","Wed Jan 29 2020 13:26:26 GMT-0500 (Eastern Standard Time)","Mozilla/5.0 (Windows NT 10.0; WOW64) AppleWebKit/537.36 (KHTML, like Gecko) Chrome/78.0.3904.108 Safari/537.36 OPR/65.0.3467.78",29,"[0.9, 0.5, 0.1]","[0.8, 0.4, 0.2]","[u'blue', u'black', u'red']","[u'left', u'middle', u'right']","[0.9, 0.5, 0.1]","[u'high', u'medium', u'low']","blue",49,"left","high","True","True",687,2000,NA
"AHOQWPD49OMW3","Wed Jan 29 2020 13:15:59 GMT-0500 (Eastern Standard Time)","Wed Jan 29 2020 13:26:26 GMT-0500 (Eastern Standard Time)","Mozilla/5.0 (Windows NT 10.0; WOW64) AppleWebKit/537.36 (KHTML, like Gecko) Chrome/78.0.3904.108 Safari/537.36 OPR/65.0.3467.78",30,"[0.9, 0.5, 0.1]","[0.8, 0.4, 0.2]","[u'blue', u'black', u'red']","[u'left', u'middle', u'right']","[0.9, 0.5, 0.1]","[u'low', u'high', u'medium']","blue",49,"left","low","False","False",1505,1950,NA
"AHOQWPD49OMW3","Wed Jan 29 2020 13:15:59 GMT-0500 (Eastern Standard Time)","Wed Jan 29 2020 13:26:26 GMT-0500 (Eastern Standard Time)","Mozilla/5.0 (Windows NT 10.0; WOW64) AppleWebKit/537.36 (KHTML, like Gecko) Chrome/78.0.3904.108 Safari/537.36 OPR/65.0.3467.78",31,"[0.9, 0.5, 0.1]","[0.8, 0.4, 0.2]","[u'blue', u'black', u'red']","[u'left', u'middle', u'right']","[0.9, 0.5, 0.1]","[u'low', u'high', u'medium']","blue",49,"left","low","False","False",695,1900,NA
"AHOQWPD49OMW3","Wed Jan 29 2020 13:15:59 GMT-0500 (Eastern Standard Time)","Wed Jan 29 2020 13:26:26 GMT-0500 (Eastern Standard Time)","Mozilla/5.0 (Windows NT 10.0; WOW64) AppleWebKit/537.36 (KHTML, like Gecko) Chrome/78.0.3904.108 Safari/537.36 OPR/65.0.3467.78",32,"[0.9, 0.5, 0.1]","[0.8, 0.4, 0.2]","[u'blue', u'black', u'red']","[u'left', u'middle', u'right']","[0.9, 0.5, 0.1]","[u'low', u'high', u'medium']","black",50,"middle","high","True","False",317,2000,NA
"AHOQWPD49OMW3","Wed Jan 29 2020 13:15:59 GMT-0500 (Eastern Standard Time)","Wed Jan 29 2020 13:26:26 GMT-0500 (Eastern Standard Time)","Mozilla/5.0 (Windows NT 10.0; WOW64) AppleWebKit/537.36 (KHTML, like Gecko) Chrome/78.0.3904.108 Safari/537.36 OPR/65.0.3467.78",33,"[0.9, 0.5, 0.1]","[0.8, 0.4, 0.2]","[u'blue', u'black', u'red']","[u'left', u'middle', u'right']","[0.9, 0.5, 0.1]","[u'low', u'high', u'medium']","black",50,"middle","high","True","False",773,2100,NA
"AHOQWPD49OMW3","Wed Jan 29 2020 13:15:59 GMT-0500 (Eastern Standard Time)","Wed Jan 29 2020 13:26:26 GMT-0500 (Eastern Standard Time)","Mozilla/5.0 (Windows NT 10.0; WOW64) AppleWebKit/537.36 (KHTML, like Gecko) Chrome/78.0.3904.108 Safari/537.36 OPR/65.0.3467.78",34,"[0.9, 0.5, 0.1]","[0.8, 0.4, 0.2]","[u'blue', u'black', u'red']","[u'left', u'middle', u'right']","[0.9, 0.5, 0.1]","[u'low', u'high', u'medium']","black",50,"middle","high","True","False",735,2200,NA
"AHOQWPD49OMW3","Wed Jan 29 2020 13:15:59 GMT-0500 (Eastern Standard Time)","Wed Jan 29 2020 13:26:26 GMT-0500 (Eastern Standard Time)","Mozilla/5.0 (Windows NT 10.0; WOW64) AppleWebKit/537.36 (KHTML, like Gecko) Chrome/78.0.3904.108 Safari/537.36 OPR/65.0.3467.78",35,"[0.9, 0.5, 0.1]","[0.8, 0.4, 0.2]","[u'blue', u'black', u'red']","[u'left', u'middle', u'right']","[0.9, 0.5, 0.1]","[u'low', u'high', u'medium']","black",50,"middle","high","True","False",501,2300,NA
"AHOQWPD49OMW3","Wed Jan 29 2020 13:15:59 GMT-0500 (Eastern Standard Time)","Wed Jan 29 2020 13:26:26 GMT-0500 (Eastern Standard Time)","Mozilla/5.0 (Windows NT 10.0; WOW64) AppleWebKit/537.36 (KHTML, like Gecko) Chrome/78.0.3904.108 Safari/537.36 OPR/65.0.3467.78",36,"[0.9, 0.5, 0.1]","[0.8, 0.4, 0.2]","[u'blue', u'black', u'red']","[u'left', u'middle', u'right']","[0.9, 0.5, 0.1]","[u'low', u'high', u'medium']","black",50,"middle","high","True","False",101,2400,NA
"AHOQWPD49OMW3","Wed Jan 29 2020 13:15:59 GMT-0500 (Eastern Standard Time)","Wed Jan 29 2020 13:26:26 GMT-0500 (Eastern Standard Time)","Mozilla/5.0 (Windows NT 10.0; WOW64) AppleWebKit/537.36 (KHTML, like Gecko) Chrome/78.0.3904.108 Safari/537.36 OPR/65.0.3467.78",37,"[0.9, 0.5, 0.1]","[0.8, 0.4, 0.2]","[u'blue', u'black', u'red']","[u'left', u'middle', u'right']","[0.9, 0.5, 0.1]","[u'low', u'high', u'medium']","black",50,"middle","high","True","False",472,2500,NA
"AHOQWPD49OMW3","Wed Jan 29 2020 13:15:59 GMT-0500 (Eastern Standard Time)","Wed Jan 29 2020 13:26:26 GMT-0500 (Eastern Standard Time)","Mozilla/5.0 (Windows NT 10.0; WOW64) AppleWebKit/537.36 (KHTML, like Gecko) Chrome/78.0.3904.108 Safari/537.36 OPR/65.0.3467.78",38,"[0.9, 0.5, 0.1]","[0.8, 0.4, 0.2]","[u'blue', u'black', u'red']","[u'left', u'middle', u'right']","[0.9, 0.5, 0.1]","[u'low', u'high', u'medium']","black",50,"middle","high","True","False",223,2600,NA
"AHOQWPD49OMW3","Wed Jan 29 2020 13:15:59 GMT-0500 (Eastern Standard Time)","Wed Jan 29 2020 13:26:26 GMT-0500 (Eastern Standard Time)","Mozilla/5.0 (Windows NT 10.0; WOW64) AppleWebKit/537.36 (KHTML, like Gecko) Chrome/78.0.3904.108 Safari/537.36 OPR/65.0.3467.78",39,"[0.9, 0.5, 0.1]","[0.8, 0.4, 0.2]","[u'blue', u'black', u'red']","[u'left', u'middle', u'right']","[0.9, 0.5, 0.1]","[u'low', u'high', u'medium']","black",50,"middle","high","True","False",581,2700,NA
"AHOQWPD49OMW3","Wed Jan 29 2020 13:15:59 GMT-0500 (Eastern Standard Time)","Wed Jan 29 2020 13:26:26 GMT-0500 (Eastern Standard Time)","Mozilla/5.0 (Windows NT 10.0; WOW64) AppleWebKit/537.36 (KHTML, like Gecko) Chrome/78.0.3904.108 Safari/537.36 OPR/65.0.3467.78",40,"[0.9, 0.5, 0.1]","[0.8, 0.4, 0.2]","[u'blue', u'black', u'red']","[u'left', u'middle', u'right']","[0.9, 0.5, 0.1]","[u'low', u'high', u'medium']","black",50,"middle","high","True","True",212,2800,NA
"AHOQWPD49OMW3","Wed Jan 29 2020 13:15:59 GMT-0500 (Eastern Standard Time)","Wed Jan 29 2020 13:26:26 GMT-0500 (Eastern Standard Time)","Mozilla/5.0 (Windows NT 10.0; WOW64) AppleWebKit/537.36 (KHTML, like Gecko) Chrome/78.0.3904.108 Safari/537.36 OPR/65.0.3467.78",41,"[0.9, 0.5, 0.1]","[0.8, 0.4, 0.2]","[u'blue', u'black', u'red']","[u'left', u'middle', u'right']","[0.9, 0.5, 0.1]","[u'medium', u'low', u'high']","black",50,"middle","low","False","False",1640,2750,NA
"AHOQWPD49OMW3","Wed Jan 29 2020 13:15:59 GMT-0500 (Eastern Standard Time)","Wed Jan 29 2020 13:26:26 GMT-0500 (Eastern Standard Time)","Mozilla/5.0 (Windows NT 10.0; WOW64) AppleWebKit/537.36 (KHTML, like Gecko) Chrome/78.0.3904.108 Safari/537.36 OPR/65.0.3467.78",42,"[0.9, 0.5, 0.1]","[0.8, 0.4, 0.2]","[u'blue', u'black', u'red']","[u'left', u'middle', u'right']","[0.9, 0.5, 0.1]","[u'medium', u'low', u'high']","blue",49,"left","medium","False","False",6,2700,NA
"AHOQWPD49OMW3","Wed Jan 29 2020 13:15:59 GMT-0500 (Eastern Standard Time)","Wed Jan 29 2020 13:26:26 GMT-0500 (Eastern Standard Time)","Mozilla/5.0 (Windows NT 10.0; WOW64) AppleWebKit/537.36 (KHTML, like Gecko) Chrome/78.0.3904.108 Safari/537.36 OPR/65.0.3467.78",43,"[0.9, 0.5, 0.1]","[0.8, 0.4, 0.2]","[u'blue', u'black', u'red']","[u'left', u'middle', u'right']","[0.9, 0.5, 0.1]","[u'medium', u'low', u'high']","red",51,"right","high","True","False",562,2800,NA
"AHOQWPD49OMW3","Wed Jan 29 2020 13:15:59 GMT-0500 (Eastern Standard Time)","Wed Jan 29 2020 13:26:26 GMT-0500 (Eastern Standard Time)","Mozilla/5.0 (Windows NT 10.0; WOW64) AppleWebKit/537.36 (KHTML, like Gecko) Chrome/78.0.3904.108 Safari/537.36 OPR/65.0.3467.78",44,"[0.9, 0.5, 0.1]","[0.8, 0.4, 0.2]","[u'blue', u'black', u'red']","[u'left', u'middle', u'right']","[0.9, 0.5, 0.1]","[u'medium', u'low', u'high']","red",51,"right","high","True","False",147,2900,NA
"AHOQWPD49OMW3","Wed Jan 29 2020 13:15:59 GMT-0500 (Eastern Standard Time)","Wed Jan 29 2020 13:26:26 GMT-0500 (Eastern Standard Time)","Mozilla/5.0 (Windows NT 10.0; WOW64) AppleWebKit/537.36 (KHTML, like Gecko) Chrome/78.0.3904.108 Safari/537.36 OPR/65.0.3467.78",45,"[0.9, 0.5, 0.1]","[0.8, 0.4, 0.2]","[u'blue', u'black', u'red']","[u'left', u'middle', u'right']","[0.9, 0.5, 0.1]","[u'medium', u'low', u'high']","red",51,"right","high","True","False",321,3000,NA
"AHOQWPD49OMW3","Wed Jan 29 2020 13:15:59 GMT-0500 (Eastern Standard Time)","Wed Jan 29 2020 13:26:26 GMT-0500 (Eastern Standard Time)","Mozilla/5.0 (Windows NT 10.0; WOW64) AppleWebKit/537.36 (KHTML, like Gecko) Chrome/78.0.3904.108 Safari/537.36 OPR/65.0.3467.78",46,"[0.9, 0.5, 0.1]","[0.8, 0.4, 0.2]","[u'blue', u'black', u'red']","[u'left', u'middle', u'right']","[0.9, 0.5, 0.1]","[u'medium', u'low', u'high']","red",51,"right","high","False","False",370,2950,NA
"AHOQWPD49OMW3","Wed Jan 29 2020 13:15:59 GMT-0500 (Eastern Standard Time)","Wed Jan 29 2020 13:26:26 GMT-0500 (Eastern Standard Time)","Mozilla/5.0 (Windows NT 10.0; WOW64) AppleWebKit/537.36 (KHTML, like Gecko) Chrome/78.0.3904.108 Safari/537.36 OPR/65.0.3467.78",47,"[0.9, 0.5, 0.1]","[0.8, 0.4, 0.2]","[u'blue', u'black', u'red']","[u'left', u'middle', u'right']","[0.9, 0.5, 0.1]","[u'medium', u'low', u'high']","black",50,"middle","low","False","False",335,2900,NA
"AHOQWPD49OMW3","Wed Jan 29 2020 13:15:59 GMT-0500 (Eastern Standard Time)","Wed Jan 29 2020 13:26:26 GMT-0500 (Eastern Standard Time)","Mozilla/5.0 (Windows NT 10.0; WOW64) AppleWebKit/537.36 (KHTML, like Gecko) Chrome/78.0.3904.108 Safari/537.36 OPR/65.0.3467.78",48,"[0.9, 0.5, 0.1]","[0.8, 0.4, 0.2]","[u'blue', u'black', u'red']","[u'left', u'middle', u'right']","[0.9, 0.5, 0.1]","[u'medium', u'low', u'high']","blue",49,"left","medium","True","False",704,3000,NA
"AHOQWPD49OMW3","Wed Jan 29 2020 13:15:59 GMT-0500 (Eastern Standard Time)","Wed Jan 29 2020 13:26:26 GMT-0500 (Eastern Standard Time)","Mozilla/5.0 (Windows NT 10.0; WOW64) AppleWebKit/537.36 (KHTML, like Gecko) Chrome/78.0.3904.108 Safari/537.36 OPR/65.0.3467.78",49,"[0.9, 0.5, 0.1]","[0.8, 0.4, 0.2]","[u'blue', u'black', u'red']","[u'left', u'middle', u'right']","[0.9, 0.5, 0.1]","[u'medium', u'low', u'high']","blue",49,"left","medium","False","False",1144,2950,NA
"AHOQWPD49OMW3","Wed Jan 29 2020 13:15:59 GMT-0500 (Eastern Standard Time)","Wed Jan 29 2020 13:26:26 GMT-0500 (Eastern Standard Time)","Mozilla/5.0 (Windows NT 10.0; WOW64) AppleWebKit/537.36 (KHTML, like Gecko) Chrome/78.0.3904.108 Safari/537.36 OPR/65.0.3467.78",50,"[0.9, 0.5, 0.1]","[0.8, 0.4, 0.2]","[u'blue', u'black', u'red']","[u'left', u'middle', u'right']","[0.9, 0.5, 0.1]","[u'medium', u'low', u'high']","black",50,"middle","low","False","False",111,2900,NA
"AHOQWPD49OMW3","Wed Jan 29 2020 13:15:59 GMT-0500 (Eastern Standard Time)","Wed Jan 29 2020 13:26:26 GMT-0500 (Eastern Standard Time)","Mozilla/5.0 (Windows NT 10.0; WOW64) AppleWebKit/537.36 (KHTML, like Gecko) Chrome/78.0.3904.108 Safari/537.36 OPR/65.0.3467.78",51,"[0.9, 0.5, 0.1]","[0.8, 0.4, 0.2]","[u'blue', u'black', u'red']","[u'left', u'middle', u'right']","[0.9, 0.5, 0.1]","[u'medium', u'low', u'high']","red",51,"right","high","True","False",440,3000,NA
"AHOQWPD49OMW3","Wed Jan 29 2020 13:15:59 GMT-0500 (Eastern Standard Time)","Wed Jan 29 2020 13:26:26 GMT-0500 (Eastern Standard Time)","Mozilla/5.0 (Windows NT 10.0; WOW64) AppleWebKit/537.36 (KHTML, like Gecko) Chrome/78.0.3904.108 Safari/537.36 OPR/65.0.3467.78",52,"[0.9, 0.5, 0.1]","[0.8, 0.4, 0.2]","[u'blue', u'black', u'red']","[u'left', u'middle', u'right']","[0.9, 0.5, 0.1]","[u'medium', u'low', u'high']","red",51,"right","high","True","False",69,3100,NA
"AHOQWPD49OMW3","Wed Jan 29 2020 13:15:59 GMT-0500 (Eastern Standard Time)","Wed Jan 29 2020 13:26:26 GMT-0500 (Eastern Standard Time)","Mozilla/5.0 (Windows NT 10.0; WOW64) AppleWebKit/537.36 (KHTML, like Gecko) Chrome/78.0.3904.108 Safari/537.36 OPR/65.0.3467.78",53,"[0.9, 0.5, 0.1]","[0.8, 0.4, 0.2]","[u'blue', u'black', u'red']","[u'left', u'middle', u'right']","[0.9, 0.5, 0.1]","[u'medium', u'low', u'high']","red",51,"right","high","True","False",1721,3200,NA
"AHOQWPD49OMW3","Wed Jan 29 2020 13:15:59 GMT-0500 (Eastern Standard Time)","Wed Jan 29 2020 13:26:26 GMT-0500 (Eastern Standard Time)","Mozilla/5.0 (Windows NT 10.0; WOW64) AppleWebKit/537.36 (KHTML, like Gecko) Chrome/78.0.3904.108 Safari/537.36 OPR/65.0.3467.78",54,"[0.9, 0.5, 0.1]","[0.8, 0.4, 0.2]","[u'blue', u'black', u'red']","[u'left', u'middle', u'right']","[0.9, 0.5, 0.1]","[u'medium', u'low', u'high']","red",51,"right","high","False","False",53,3150,NA
"AHOQWPD49OMW3","Wed Jan 29 2020 13:15:59 GMT-0500 (Eastern Standard Time)","Wed Jan 29 2020 13:26:26 GMT-0500 (Eastern Standard Time)","Mozilla/5.0 (Windows NT 10.0; WOW64) AppleWebKit/537.36 (KHTML, like Gecko) Chrome/78.0.3904.108 Safari/537.36 OPR/65.0.3467.78",55,"[0.9, 0.5, 0.1]","[0.8, 0.4, 0.2]","[u'blue', u'black', u'red']","[u'left', u'middle', u'right']","[0.9, 0.5, 0.1]","[u'medium', u'low', u'high']","black",50,"middle","low","False","False",232,3100,NA
"AHOQWPD49OMW3","Wed Jan 29 2020 13:15:59 GMT-0500 (Eastern Standard Time)","Wed Jan 29 2020 13:26:26 GMT-0500 (Eastern Standard Time)","Mozilla/5.0 (Windows NT 10.0; WOW64) AppleWebKit/537.36 (KHTML, like Gecko) Chrome/78.0.3904.108 Safari/537.36 OPR/65.0.3467.78",56,"[0.9, 0.5, 0.1]","[0.8, 0.4, 0.2]","[u'blue', u'black', u'red']","[u'left', u'middle', u'right']","[0.9, 0.5, 0.1]","[u'medium', u'low', u'high']","blue",49,"left","medium","False","False",295,3050,NA
"AHOQWPD49OMW3","Wed Jan 29 2020 13:15:59 GMT-0500 (Eastern Standard Time)","Wed Jan 29 2020 13:26:26 GMT-0500 (Eastern Standard Time)","Mozilla/5.0 (Windows NT 10.0; WOW64) AppleWebKit/537.36 (KHTML, like Gecko) Chrome/78.0.3904.108 Safari/537.36 OPR/65.0.3467.78",57,"[0.9, 0.5, 0.1]","[0.8, 0.4, 0.2]","[u'blue', u'black', u'red']","[u'left', u'middle', u'right']","[0.9, 0.5, 0.1]","[u'medium', u'low', u'high']","red",51,"right","high","True","False",47,3150,NA
"AHOQWPD49OMW3","Wed Jan 29 2020 13:15:59 GMT-0500 (Eastern Standard Time)","Wed Jan 29 2020 13:26:26 GMT-0500 (Eastern Standard Time)","Mozilla/5.0 (Windows NT 10.0; WOW64) AppleWebKit/537.36 (KHTML, like Gecko) Chrome/78.0.3904.108 Safari/537.36 OPR/65.0.3467.78",58,"[0.9, 0.5, 0.1]","[0.8, 0.4, 0.2]","[u'blue', u'black', u'red']","[u'left', u'middle', u'right']","[0.9, 0.5, 0.1]","[u'medium', u'low', u'high']","red",51,"right","high","True","False",340,3250,NA
"AHOQWPD49OMW3","Wed Jan 29 2020 13:15:59 GMT-0500 (Eastern Standard Time)","Wed Jan 29 2020 13:26:26 GMT-0500 (Eastern Standard Time)","Mozilla/5.0 (Windows NT 10.0; WOW64) AppleWebKit/537.36 (KHTML, like Gecko) Chrome/78.0.3904.108 Safari/537.36 OPR/65.0.3467.78",59,"[0.9, 0.5, 0.1]","[0.8, 0.4, 0.2]","[u'blue', u'black', u'red']","[u'left', u'middle', u'right']","[0.9, 0.5, 0.1]","[u'medium', u'low', u'high']","red",51,"right","high","True","False",39,3350,NA
"AHOQWPD49OMW3","Wed Jan 29 2020 13:15:59 GMT-0500 (Eastern Standard Time)","Wed Jan 29 2020 13:26:26 GMT-0500 (Eastern Standard Time)","Mozilla/5.0 (Windows NT 10.0; WOW64) AppleWebKit/537.36 (KHTML, like Gecko) Chrome/78.0.3904.108 Safari/537.36 OPR/65.0.3467.78",60,"[0.9, 0.5, 0.1]","[0.8, 0.4, 0.2]","[u'blue', u'black', u'red']","[u'left', u'middle', u'right']","[0.9, 0.5, 0.1]","[u'medium', u'low', u'high']","red",51,"right","high","False","False",428,3300,NA
"AHOQWPD49OMW3","Wed Jan 29 2020 13:15:59 GMT-0500 (Eastern Standard Time)","Wed Jan 29 2020 13:26:26 GMT-0500 (Eastern Standard Time)","Mozilla/5.0 (Windows NT 10.0; WOW64) AppleWebKit/537.36 (KHTML, like Gecko) Chrome/78.0.3904.108 Safari/537.36 OPR/65.0.3467.78",61,"[0.9, 0.5, 0.1]","[0.8, 0.4, 0.2]","[u'blue', u'black', u'red']","[u'left', u'middle', u'right']","[0.9, 0.5, 0.1]","[u'medium', u'low', u'high']","blue",49,"left","medium","False","False",289,3250,NA
"AHOQWPD49OMW3","Wed Jan 29 2020 13:15:59 GMT-0500 (Eastern Standard Time)","Wed Jan 29 2020 13:26:26 GMT-0500 (Eastern Standard Time)","Mozilla/5.0 (Windows NT 10.0; WOW64) AppleWebKit/537.36 (KHTML, like Gecko) Chrome/78.0.3904.108 Safari/537.36 OPR/65.0.3467.78",62,"[0.9, 0.5, 0.1]","[0.8, 0.4, 0.2]","[u'blue', u'black', u'red']","[u'left', u'middle', u'right']","[0.9, 0.5, 0.1]","[u'medium', u'low', u'high']","red",51,"right","high","True","False",613,3350,NA
"AHOQWPD49OMW3","Wed Jan 29 2020 13:15:59 GMT-0500 (Eastern Standard Time)","Wed Jan 29 2020 13:26:26 GMT-0500 (Eastern Standard Time)","Mozilla/5.0 (Windows NT 10.0; WOW64) AppleWebKit/537.36 (KHTML, like Gecko) Chrome/78.0.3904.108 Safari/537.36 OPR/65.0.3467.78",63,"[0.9, 0.5, 0.1]","[0.8, 0.4, 0.2]","[u'blue', u'black', u'red']","[u'left', u'middle', u'right']","[0.9, 0.5, 0.1]","[u'medium', u'low', u'high']","red",51,"right","high","True","False",576,3450,NA
"AHOQWPD49OMW3","Wed Jan 29 2020 13:15:59 GMT-0500 (Eastern Standard Time)","Wed Jan 29 2020 13:26:26 GMT-0500 (Eastern Standard Time)","Mozilla/5.0 (Windows NT 10.0; WOW64) AppleWebKit/537.36 (KHTML, like Gecko) Chrome/78.0.3904.108 Safari/537.36 OPR/65.0.3467.78",64,"[0.9, 0.5, 0.1]","[0.8, 0.4, 0.2]","[u'blue', u'black', u'red']","[u'left', u'middle', u'right']","[0.9, 0.5, 0.1]","[u'medium', u'low', u'high']","red",51,"right","high","True","False",1200,3550,NA
"AHOQWPD49OMW3","Wed Jan 29 2020 13:15:59 GMT-0500 (Eastern Standard Time)","Wed Jan 29 2020 13:26:26 GMT-0500 (Eastern Standard Time)","Mozilla/5.0 (Windows NT 10.0; WOW64) AppleWebKit/537.36 (KHTML, like Gecko) Chrome/78.0.3904.108 Safari/537.36 OPR/65.0.3467.78",65,"[0.9, 0.5, 0.1]","[0.8, 0.4, 0.2]","[u'blue', u'black', u'red']","[u'left', u'middle', u'right']","[0.9, 0.5, 0.1]","[u'medium', u'low', u'high']","red",51,"right","high","True","False",909,3650,NA
"AHOQWPD49OMW3","Wed Jan 29 2020 13:15:59 GMT-0500 (Eastern Standard Time)","Wed Jan 29 2020 13:26:26 GMT-0500 (Eastern Standard Time)","Mozilla/5.0 (Windows NT 10.0; WOW64) AppleWebKit/537.36 (KHTML, like Gecko) Chrome/78.0.3904.108 Safari/537.36 OPR/65.0.3467.78",66,"[0.9, 0.5, 0.1]","[0.8, 0.4, 0.2]","[u'blue', u'black', u'red']","[u'left', u'middle', u'right']","[0.9, 0.5, 0.1]","[u'medium', u'low', u'high']","red",51,"right","high","True","True",1305,3750,NA
"AHOQWPD49OMW3","Wed Jan 29 2020 13:15:59 GMT-0500 (Eastern Standard Time)","Wed Jan 29 2020 13:26:26 GMT-0500 (Eastern Standard Time)","Mozilla/5.0 (Windows NT 10.0; WOW64) AppleWebKit/537.36 (KHTML, like Gecko) Chrome/78.0.3904.108 Safari/537.36 OPR/65.0.3467.78",67,"[0.9, 0.5, 0.1]","[0.8, 0.4, 0.2]","[u'blue', u'black', u'red']","[u'left', u'middle', u'right']","[0.9, 0.5, 0.1]","[u'medium', u'high', u'low']","red",51,"right","low","False","False",194,3700,NA
"AHOQWPD49OMW3","Wed Jan 29 2020 13:15:59 GMT-0500 (Eastern Standard Time)","Wed Jan 29 2020 13:26:26 GMT-0500 (Eastern Standard Time)","Mozilla/5.0 (Windows NT 10.0; WOW64) AppleWebKit/537.36 (KHTML, like Gecko) Chrome/78.0.3904.108 Safari/537.36 OPR/65.0.3467.78",68,"[0.9, 0.5, 0.1]","[0.8, 0.4, 0.2]","[u'blue', u'black', u'red']","[u'left', u'middle', u'right']","[0.9, 0.5, 0.1]","[u'medium', u'high', u'low']","black",50,"middle","high","True","False",135,3800,NA
"AHOQWPD49OMW3","Wed Jan 29 2020 13:15:59 GMT-0500 (Eastern Standard Time)","Wed Jan 29 2020 13:26:26 GMT-0500 (Eastern Standard Time)","Mozilla/5.0 (Windows NT 10.0; WOW64) AppleWebKit/537.36 (KHTML, like Gecko) Chrome/78.0.3904.108 Safari/537.36 OPR/65.0.3467.78",69,"[0.9, 0.5, 0.1]","[0.8, 0.4, 0.2]","[u'blue', u'black', u'red']","[u'left', u'middle', u'right']","[0.9, 0.5, 0.1]","[u'medium', u'high', u'low']","black",50,"middle","high","False","False",116,3750,NA
"AHOQWPD49OMW3","Wed Jan 29 2020 13:15:59 GMT-0500 (Eastern Standard Time)","Wed Jan 29 2020 13:26:26 GMT-0500 (Eastern Standard Time)","Mozilla/5.0 (Windows NT 10.0; WOW64) AppleWebKit/537.36 (KHTML, like Gecko) Chrome/78.0.3904.108 Safari/537.36 OPR/65.0.3467.78",70,"[0.9, 0.5, 0.1]","[0.8, 0.4, 0.2]","[u'blue', u'black', u'red']","[u'left', u'middle', u'right']","[0.9, 0.5, 0.1]","[u'medium', u'high', u'low']","blue",49,"left","medium","False","False",918,3700,NA
"AHOQWPD49OMW3","Wed Jan 29 2020 13:15:59 GMT-0500 (Eastern Standard Time)","Wed Jan 29 2020 13:26:26 GMT-0500 (Eastern Standard Time)","Mozilla/5.0 (Windows NT 10.0; WOW64) AppleWebKit/537.36 (KHTML, like Gecko) Chrome/78.0.3904.108 Safari/537.36 OPR/65.0.3467.78",71,"[0.9, 0.5, 0.1]","[0.8, 0.4, 0.2]","[u'blue', u'black', u'red']","[u'left', u'middle', u'right']","[0.9, 0.5, 0.1]","[u'medium', u'high', u'low']","red",51,"right","low","False","False",658,3650,NA
"AHOQWPD49OMW3","Wed Jan 29 2020 13:15:59 GMT-0500 (Eastern Standard Time)","Wed Jan 29 2020 13:26:26 GMT-0500 (Eastern Standard Time)","Mozilla/5.0 (Windows NT 10.0; WOW64) AppleWebKit/537.36 (KHTML, like Gecko) Chrome/78.0.3904.108 Safari/537.36 OPR/65.0.3467.78",72,"[0.9, 0.5, 0.1]","[0.8, 0.4, 0.2]","[u'blue', u'black', u'red']","[u'left', u'middle', u'right']","[0.9, 0.5, 0.1]","[u'medium', u'high', u'low']","blue",49,"left","medium","False","False",164,3600,NA
"AHOQWPD49OMW3","Wed Jan 29 2020 13:15:59 GMT-0500 (Eastern Standard Time)","Wed Jan 29 2020 13:26:26 GMT-0500 (Eastern Standard Time)","Mozilla/5.0 (Windows NT 10.0; WOW64) AppleWebKit/537.36 (KHTML, like Gecko) Chrome/78.0.3904.108 Safari/537.36 OPR/65.0.3467.78",73,"[0.9, 0.5, 0.1]","[0.8, 0.4, 0.2]","[u'blue', u'black', u'red']","[u'left', u'middle', u'right']","[0.9, 0.5, 0.1]","[u'medium', u'high', u'low']","black",50,"middle","high","True","False",640,3700,NA
"AHOQWPD49OMW3","Wed Jan 29 2020 13:15:59 GMT-0500 (Eastern Standard Time)","Wed Jan 29 2020 13:26:26 GMT-0500 (Eastern Standard Time)","Mozilla/5.0 (Windows NT 10.0; WOW64) AppleWebKit/537.36 (KHTML, like Gecko) Chrome/78.0.3904.108 Safari/537.36 OPR/65.0.3467.78",74,"[0.9, 0.5, 0.1]","[0.8, 0.4, 0.2]","[u'blue', u'black', u'red']","[u'left', u'middle', u'right']","[0.9, 0.5, 0.1]","[u'medium', u'high', u'low']","black",50,"middle","high","True","False",355,3800,NA
"AHOQWPD49OMW3","Wed Jan 29 2020 13:15:59 GMT-0500 (Eastern Standard Time)","Wed Jan 29 2020 13:26:26 GMT-0500 (Eastern Standard Time)","Mozilla/5.0 (Windows NT 10.0; WOW64) AppleWebKit/537.36 (KHTML, like Gecko) Chrome/78.0.3904.108 Safari/537.36 OPR/65.0.3467.78",75,"[0.9, 0.5, 0.1]","[0.8, 0.4, 0.2]","[u'blue', u'black', u'red']","[u'left', u'middle', u'right']","[0.9, 0.5, 0.1]","[u'medium', u'high', u'low']","black",50,"middle","high","True","False",399,3900,NA
"AHOQWPD49OMW3","Wed Jan 29 2020 13:15:59 GMT-0500 (Eastern Standard Time)","Wed Jan 29 2020 13:26:26 GMT-0500 (Eastern Standard Time)","Mozilla/5.0 (Windows NT 10.0; WOW64) AppleWebKit/537.36 (KHTML, like Gecko) Chrome/78.0.3904.108 Safari/537.36 OPR/65.0.3467.78",76,"[0.9, 0.5, 0.1]","[0.8, 0.4, 0.2]","[u'blue', u'black', u'red']","[u'left', u'middle', u'right']","[0.9, 0.5, 0.1]","[u'medium', u'high', u'low']","black",50,"middle","high","False","False",381,3850,NA
"AHOQWPD49OMW3","Wed Jan 29 2020 13:15:59 GMT-0500 (Eastern Standard Time)","Wed Jan 29 2020 13:26:26 GMT-0500 (Eastern Standard Time)","Mozilla/5.0 (Windows NT 10.0; WOW64) AppleWebKit/537.36 (KHTML, like Gecko) Chrome/78.0.3904.108 Safari/537.36 OPR/65.0.3467.78",77,"[0.9, 0.5, 0.1]","[0.8, 0.4, 0.2]","[u'blue', u'black', u'red']","[u'left', u'middle', u'right']","[0.9, 0.5, 0.1]","[u'medium', u'high', u'low']","red",51,"right","low","False","False",490,3800,NA
"AHOQWPD49OMW3","Wed Jan 29 2020 13:15:59 GMT-0500 (Eastern Standard Time)","Wed Jan 29 2020 13:26:26 GMT-0500 (Eastern Standard Time)","Mozilla/5.0 (Windows NT 10.0; WOW64) AppleWebKit/537.36 (KHTML, like Gecko) Chrome/78.0.3904.108 Safari/537.36 OPR/65.0.3467.78",78,"[0.9, 0.5, 0.1]","[0.8, 0.4, 0.2]","[u'blue', u'black', u'red']","[u'left', u'middle', u'right']","[0.9, 0.5, 0.1]","[u'medium', u'high', u'low']","blue",49,"left","medium","False","False",423,3750,NA
"AHOQWPD49OMW3","Wed Jan 29 2020 13:15:59 GMT-0500 (Eastern Standard Time)","Wed Jan 29 2020 13:26:26 GMT-0500 (Eastern Standard Time)","Mozilla/5.0 (Windows NT 10.0; WOW64) AppleWebKit/537.36 (KHTML, like Gecko) Chrome/78.0.3904.108 Safari/537.36 OPR/65.0.3467.78",79,"[0.9, 0.5, 0.1]","[0.8, 0.4, 0.2]","[u'blue', u'black', u'red']","[u'left', u'middle', u'right']","[0.9, 0.5, 0.1]","[u'medium', u'high', u'low']","red",51,"right","low","False","False",176,3700,NA
"AHOQWPD49OMW3","Wed Jan 29 2020 13:15:59 GMT-0500 (Eastern Standard Time)","Wed Jan 29 2020 13:26:26 GMT-0500 (Eastern Standard Time)","Mozilla/5.0 (Windows NT 10.0; WOW64) AppleWebKit/537.36 (KHTML, like Gecko) Chrome/78.0.3904.108 Safari/537.36 OPR/65.0.3467.78",80,"[0.9, 0.5, 0.1]","[0.8, 0.4, 0.2]","[u'blue', u'black', u'red']","[u'left', u'middle', u'right']","[0.9, 0.5, 0.1]","[u'medium', u'high', u'low']","blue",49,"left","medium","False","False",562,3650,NA
"AHOQWPD49OMW3","Wed Jan 29 2020 13:15:59 GMT-0500 (Eastern Standard Time)","Wed Jan 29 2020 13:26:26 GMT-0500 (Eastern Standard Time)","Mozilla/5.0 (Windows NT 10.0; WOW64) AppleWebKit/537.36 (KHTML, like Gecko) Chrome/78.0.3904.108 Safari/537.36 OPR/65.0.3467.78",81,"[0.9, 0.5, 0.1]","[0.8, 0.4, 0.2]","[u'blue', u'black', u'red']","[u'left', u'middle', u'right']","[0.8, 0.4, 0.2]","[u'high', u'low', u'medium']","red",51,"right","medium","False","False",1366,3600,NA
"AHOQWPD49OMW3","Wed Jan 29 2020 13:15:59 GMT-0500 (Eastern Standard Time)","Wed Jan 29 2020 13:26:26 GMT-0500 (Eastern Standard Time)","Mozilla/5.0 (Windows NT 10.0; WOW64) AppleWebKit/537.36 (KHTML, like Gecko) Chrome/78.0.3904.108 Safari/537.36 OPR/65.0.3467.78",82,"[0.9, 0.5, 0.1]","[0.8, 0.4, 0.2]","[u'blue', u'black', u'red']","[u'left', u'middle', u'right']","[0.8, 0.4, 0.2]","[u'high', u'low', u'medium']","black",50,"middle","low","False","False",391,3550,NA
"AHOQWPD49OMW3","Wed Jan 29 2020 13:15:59 GMT-0500 (Eastern Standard Time)","Wed Jan 29 2020 13:26:26 GMT-0500 (Eastern Standard Time)","Mozilla/5.0 (Windows NT 10.0; WOW64) AppleWebKit/537.36 (KHTML, like Gecko) Chrome/78.0.3904.108 Safari/537.36 OPR/65.0.3467.78",83,"[0.9, 0.5, 0.1]","[0.8, 0.4, 0.2]","[u'blue', u'black', u'red']","[u'left', u'middle', u'right']","[0.8, 0.4, 0.2]","[u'high', u'low', u'medium']","blue",49,"left","high","True","False",71,3650,NA
"AHOQWPD49OMW3","Wed Jan 29 2020 13:15:59 GMT-0500 (Eastern Standard Time)","Wed Jan 29 2020 13:26:26 GMT-0500 (Eastern Standard Time)","Mozilla/5.0 (Windows NT 10.0; WOW64) AppleWebKit/537.36 (KHTML, like Gecko) Chrome/78.0.3904.108 Safari/537.36 OPR/65.0.3467.78",84,"[0.9, 0.5, 0.1]","[0.8, 0.4, 0.2]","[u'blue', u'black', u'red']","[u'left', u'middle', u'right']","[0.8, 0.4, 0.2]","[u'high', u'low', u'medium']","blue",49,"left","high","False","False",446,3600,NA
"AHOQWPD49OMW3","Wed Jan 29 2020 13:15:59 GMT-0500 (Eastern Standard Time)","Wed Jan 29 2020 13:26:26 GMT-0500 (Eastern Standard Time)","Mozilla/5.0 (Windows NT 10.0; WOW64) AppleWebKit/537.36 (KHTML, like Gecko) Chrome/78.0.3904.108 Safari/537.36 OPR/65.0.3467.78",85,"[0.9, 0.5, 0.1]","[0.8, 0.4, 0.2]","[u'blue', u'black', u'red']","[u'left', u'middle', u'right']","[0.8, 0.4, 0.2]","[u'high', u'low', u'medium']","red",51,"right","medium","True","False",318,3700,NA
"AHOQWPD49OMW3","Wed Jan 29 2020 13:15:59 GMT-0500 (Eastern Standard Time)","Wed Jan 29 2020 13:26:26 GMT-0500 (Eastern Standard Time)","Mozilla/5.0 (Windows NT 10.0; WOW64) AppleWebKit/537.36 (KHTML, like Gecko) Chrome/78.0.3904.108 Safari/537.36 OPR/65.0.3467.78",86,"[0.9, 0.5, 0.1]","[0.8, 0.4, 0.2]","[u'blue', u'black', u'red']","[u'left', u'middle', u'right']","[0.8, 0.4, 0.2]","[u'high', u'low', u'medium']","blue",49,"left","high","True","False",463,3800,NA
"AHOQWPD49OMW3","Wed Jan 29 2020 13:15:59 GMT-0500 (Eastern Standard Time)","Wed Jan 29 2020 13:26:26 GMT-0500 (Eastern Standard Time)","Mozilla/5.0 (Windows NT 10.0; WOW64) AppleWebKit/537.36 (KHTML, like Gecko) Chrome/78.0.3904.108 Safari/537.36 OPR/65.0.3467.78",87,"[0.9, 0.5, 0.1]","[0.8, 0.4, 0.2]","[u'blue', u'black', u'red']","[u'left', u'middle', u'right']","[0.8, 0.4, 0.2]","[u'high', u'low', u'medium']","black",50,"middle","low","False","False",334,3750,NA
"AHOQWPD49OMW3","Wed Jan 29 2020 13:15:59 GMT-0500 (Eastern Standard Time)","Wed Jan 29 2020 13:26:26 GMT-0500 (Eastern Standard Time)","Mozilla/5.0 (Windows NT 10.0; WOW64) AppleWebKit/537.36 (KHTML, like Gecko) Chrome/78.0.3904.108 Safari/537.36 OPR/65.0.3467.78",88,"[0.9, 0.5, 0.1]","[0.8, 0.4, 0.2]","[u'blue', u'black', u'red']","[u'left', u'middle', u'right']","[0.8, 0.4, 0.2]","[u'high', u'low', u'medium']","blue",49,"left","high","False","False",352,3700,NA
"AHOQWPD49OMW3","Wed Jan 29 2020 13:15:59 GMT-0500 (Eastern Standard Time)","Wed Jan 29 2020 13:26:26 GMT-0500 (Eastern Standard Time)","Mozilla/5.0 (Windows NT 10.0; WOW64) AppleWebKit/537.36 (KHTML, like Gecko) Chrome/78.0.3904.108 Safari/537.36 OPR/65.0.3467.78",89,"[0.9, 0.5, 0.1]","[0.8, 0.4, 0.2]","[u'blue', u'black', u'red']","[u'left', u'middle', u'right']","[0.8, 0.4, 0.2]","[u'high', u'low', u'medium']","red",51,"right","medium","False","False",153,3650,NA
"AHOQWPD49OMW3","Wed Jan 29 2020 13:15:59 GMT-0500 (Eastern Standard Time)","Wed Jan 29 2020 13:26:26 GMT-0500 (Eastern Standard Time)","Mozilla/5.0 (Windows NT 10.0; WOW64) AppleWebKit/537.36 (KHTML, like Gecko) Chrome/78.0.3904.108 Safari/537.36 OPR/65.0.3467.78",90,"[0.9, 0.5, 0.1]","[0.8, 0.4, 0.2]","[u'blue', u'black', u'red']","[u'left', u'middle', u'right']","[0.8, 0.4, 0.2]","[u'high', u'low', u'medium']","black",50,"middle","low","False","False",1242,3600,NA
"AHOQWPD49OMW3","Wed Jan 29 2020 13:15:59 GMT-0500 (Eastern Standard Time)","Wed Jan 29 2020 13:26:26 GMT-0500 (Eastern Standard Time)","Mozilla/5.0 (Windows NT 10.0; WOW64) AppleWebKit/537.36 (KHTML, like Gecko) Chrome/78.0.3904.108 Safari/537.36 OPR/65.0.3467.78",91,"[0.9, 0.5, 0.1]","[0.8, 0.4, 0.2]","[u'blue', u'black', u'red']","[u'left', u'middle', u'right']","[0.8, 0.4, 0.2]","[u'high', u'low', u'medium']","blue",49,"left","high","False","False",662,3550,NA
"AHOQWPD49OMW3","Wed Jan 29 2020 13:15:59 GMT-0500 (Eastern Standard Time)","Wed Jan 29 2020 13:26:26 GMT-0500 (Eastern Standard Time)","Mozilla/5.0 (Windows NT 10.0; WOW64) AppleWebKit/537.36 (KHTML, like Gecko) Chrome/78.0.3904.108 Safari/537.36 OPR/65.0.3467.78",92,"[0.9, 0.5, 0.1]","[0.8, 0.4, 0.2]","[u'blue', u'black', u'red']","[u'left', u'middle', u'right']","[0.8, 0.4, 0.2]","[u'high', u'low', u'medium']","red",51,"right","medium","False","False",754,3500,NA
"AHOQWPD49OMW3","Wed Jan 29 2020 13:15:59 GMT-0500 (Eastern Standard Time)","Wed Jan 29 2020 13:26:26 GMT-0500 (Eastern Standard Time)","Mozilla/5.0 (Windows NT 10.0; WOW64) AppleWebKit/537.36 (KHTML, like Gecko) Chrome/78.0.3904.108 Safari/537.36 OPR/65.0.3467.78",93,"[0.9, 0.5, 0.1]","[0.8, 0.4, 0.2]","[u'blue', u'black', u'red']","[u'left', u'middle', u'right']","[0.8, 0.4, 0.2]","[u'high', u'low', u'medium']","black",50,"middle","low","False","False",1314,3450,NA
"AHOQWPD49OMW3","Wed Jan 29 2020 13:15:59 GMT-0500 (Eastern Standard Time)","Wed Jan 29 2020 13:26:26 GMT-0500 (Eastern Standard Time)","Mozilla/5.0 (Windows NT 10.0; WOW64) AppleWebKit/537.36 (KHTML, like Gecko) Chrome/78.0.3904.108 Safari/537.36 OPR/65.0.3467.78",94,"[0.9, 0.5, 0.1]","[0.8, 0.4, 0.2]","[u'blue', u'black', u'red']","[u'left', u'middle', u'right']","[0.8, 0.4, 0.2]","[u'high', u'low', u'medium']","blue",49,"left","high","True","False",401,3550,NA
"AHOQWPD49OMW3","Wed Jan 29 2020 13:15:59 GMT-0500 (Eastern Standard Time)","Wed Jan 29 2020 13:26:26 GMT-0500 (Eastern Standard Time)","Mozilla/5.0 (Windows NT 10.0; WOW64) AppleWebKit/537.36 (KHTML, like Gecko) Chrome/78.0.3904.108 Safari/537.36 OPR/65.0.3467.78",95,"[0.9, 0.5, 0.1]","[0.8, 0.4, 0.2]","[u'blue', u'black', u'red']","[u'left', u'middle', u'right']","[0.8, 0.4, 0.2]","[u'high', u'low', u'medium']","blue",49,"left","high","True","False",390,3650,NA
"AHOQWPD49OMW3","Wed Jan 29 2020 13:15:59 GMT-0500 (Eastern Standard Time)","Wed Jan 29 2020 13:26:26 GMT-0500 (Eastern Standard Time)","Mozilla/5.0 (Windows NT 10.0; WOW64) AppleWebKit/537.36 (KHTML, like Gecko) Chrome/78.0.3904.108 Safari/537.36 OPR/65.0.3467.78",96,"[0.9, 0.5, 0.1]","[0.8, 0.4, 0.2]","[u'blue', u'black', u'red']","[u'left', u'middle', u'right']","[0.8, 0.4, 0.2]","[u'high', u'low', u'medium']","blue",49,"left","high","True","False",997,3750,NA
"AHOQWPD49OMW3","Wed Jan 29 2020 13:15:59 GMT-0500 (Eastern Standard Time)","Wed Jan 29 2020 13:26:26 GMT-0500 (Eastern Standard Time)","Mozilla/5.0 (Windows NT 10.0; WOW64) AppleWebKit/537.36 (KHTML, like Gecko) Chrome/78.0.3904.108 Safari/537.36 OPR/65.0.3467.78",97,"[0.9, 0.5, 0.1]","[0.8, 0.4, 0.2]","[u'blue', u'black', u'red']","[u'left', u'middle', u'right']","[0.8, 0.4, 0.2]","[u'high', u'low', u'medium']","blue",49,"left","high","True","False",1666,3850,NA
"AHOQWPD49OMW3","Wed Jan 29 2020 13:15:59 GMT-0500 (Eastern Standard Time)","Wed Jan 29 2020 13:26:26 GMT-0500 (Eastern Standard Time)","Mozilla/5.0 (Windows NT 10.0; WOW64) AppleWebKit/537.36 (KHTML, like Gecko) Chrome/78.0.3904.108 Safari/537.36 OPR/65.0.3467.78",98,"[0.9, 0.5, 0.1]","[0.8, 0.4, 0.2]","[u'blue', u'black', u'red']","[u'left', u'middle', u'right']","[0.8, 0.4, 0.2]","[u'high', u'low', u'medium']","blue",49,"left","high","True","False",1139,3950,NA
"AHOQWPD49OMW3","Wed Jan 29 2020 13:15:59 GMT-0500 (Eastern Standard Time)","Wed Jan 29 2020 13:26:26 GMT-0500 (Eastern Standard Time)","Mozilla/5.0 (Windows NT 10.0; WOW64) AppleWebKit/537.36 (KHTML, like Gecko) Chrome/78.0.3904.108 Safari/537.36 OPR/65.0.3467.78",99,"[0.9, 0.5, 0.1]","[0.8, 0.4, 0.2]","[u'blue', u'black', u'red']","[u'left', u'middle', u'right']","[0.8, 0.4, 0.2]","[u'high', u'low', u'medium']","blue",49,"left","high","False","False",165,3900,NA
"AHOQWPD49OMW3","Wed Jan 29 2020 13:15:59 GMT-0500 (Eastern Standard Time)","Wed Jan 29 2020 13:26:26 GMT-0500 (Eastern Standard Time)","Mozilla/5.0 (Windows NT 10.0; WOW64) AppleWebKit/537.36 (KHTML, like Gecko) Chrome/78.0.3904.108 Safari/537.36 OPR/65.0.3467.78",100,"[0.9, 0.5, 0.1]","[0.8, 0.4, 0.2]","[u'blue', u'black', u'red']","[u'left', u'middle', u'right']","[0.8, 0.4, 0.2]","[u'high', u'low', u'medium']","red",51,"right","medium","True","False",412,4000,NA
"AHOQWPD49OMW3","Wed Jan 29 2020 13:15:59 GMT-0500 (Eastern Standard Time)","Wed Jan 29 2020 13:26:26 GMT-0500 (Eastern Standard Time)","Mozilla/5.0 (Windows NT 10.0; WOW64) AppleWebKit/537.36 (KHTML, like Gecko) Chrome/78.0.3904.108 Safari/537.36 OPR/65.0.3467.78",101,"[0.9, 0.5, 0.1]","[0.8, 0.4, 0.2]","[u'blue', u'black', u'red']","[u'left', u'middle', u'right']","[0.8, 0.4, 0.2]","[u'high', u'low', u'medium']","blue",49,"left","high","False","False",6,3950,NA
"AHOQWPD49OMW3","Wed Jan 29 2020 13:15:59 GMT-0500 (Eastern Standard Time)","Wed Jan 29 2020 13:26:26 GMT-0500 (Eastern Standard Time)","Mozilla/5.0 (Windows NT 10.0; WOW64) AppleWebKit/537.36 (KHTML, like Gecko) Chrome/78.0.3904.108 Safari/537.36 OPR/65.0.3467.78",102,"[0.9, 0.5, 0.1]","[0.8, 0.4, 0.2]","[u'blue', u'black', u'red']","[u'left', u'middle', u'right']","[0.8, 0.4, 0.2]","[u'high', u'low', u'medium']","red",51,"right","medium","True","False",209,4050,NA
"AHOQWPD49OMW3","Wed Jan 29 2020 13:15:59 GMT-0500 (Eastern Standard Time)","Wed Jan 29 2020 13:26:26 GMT-0500 (Eastern Standard Time)","Mozilla/5.0 (Windows NT 10.0; WOW64) AppleWebKit/537.36 (KHTML, like Gecko) Chrome/78.0.3904.108 Safari/537.36 OPR/65.0.3467.78",103,"[0.9, 0.5, 0.1]","[0.8, 0.4, 0.2]","[u'blue', u'black', u'red']","[u'left', u'middle', u'right']","[0.8, 0.4, 0.2]","[u'high', u'low', u'medium']","red",51,"right","medium","False","False",579,4000,NA
"AHOQWPD49OMW3","Wed Jan 29 2020 13:15:59 GMT-0500 (Eastern Standard Time)","Wed Jan 29 2020 13:26:26 GMT-0500 (Eastern Standard Time)","Mozilla/5.0 (Windows NT 10.0; WOW64) AppleWebKit/537.36 (KHTML, like Gecko) Chrome/78.0.3904.108 Safari/537.36 OPR/65.0.3467.78",104,"[0.9, 0.5, 0.1]","[0.8, 0.4, 0.2]","[u'blue', u'black', u'red']","[u'left', u'middle', u'right']","[0.8, 0.4, 0.2]","[u'high', u'low', u'medium']","black",50,"middle","low","False","False",1355,3950,NA
"AHOQWPD49OMW3","Wed Jan 29 2020 13:15:59 GMT-0500 (Eastern Standard Time)","Wed Jan 29 2020 13:26:26 GMT-0500 (Eastern Standard Time)","Mozilla/5.0 (Windows NT 10.0; WOW64) AppleWebKit/537.36 (KHTML, like Gecko) Chrome/78.0.3904.108 Safari/537.36 OPR/65.0.3467.78",105,"[0.9, 0.5, 0.1]","[0.8, 0.4, 0.2]","[u'blue', u'black', u'red']","[u'left', u'middle', u'right']","[0.8, 0.4, 0.2]","[u'high', u'low', u'medium']","red",51,"right","medium","True","False",1106,4050,NA
"AHOQWPD49OMW3","Wed Jan 29 2020 13:15:59 GMT-0500 (Eastern Standard Time)","Wed Jan 29 2020 13:26:26 GMT-0500 (Eastern Standard Time)","Mozilla/5.0 (Windows NT 10.0; WOW64) AppleWebKit/537.36 (KHTML, like Gecko) Chrome/78.0.3904.108 Safari/537.36 OPR/65.0.3467.78",106,"[0.9, 0.5, 0.1]","[0.8, 0.4, 0.2]","[u'blue', u'black', u'red']","[u'left', u'middle', u'right']","[0.8, 0.4, 0.2]","[u'high', u'low', u'medium']","red",51,"right","medium","False","False",547,4000,NA
"AHOQWPD49OMW3","Wed Jan 29 2020 13:15:59 GMT-0500 (Eastern Standard Time)","Wed Jan 29 2020 13:26:26 GMT-0500 (Eastern Standard Time)","Mozilla/5.0 (Windows NT 10.0; WOW64) AppleWebKit/537.36 (KHTML, like Gecko) Chrome/78.0.3904.108 Safari/537.36 OPR/65.0.3467.78",107,"[0.9, 0.5, 0.1]","[0.8, 0.4, 0.2]","[u'blue', u'black', u'red']","[u'left', u'middle', u'right']","[0.8, 0.4, 0.2]","[u'high', u'low', u'medium']","red",51,"right","medium","True","False",2151,4100,NA
"AHOQWPD49OMW3","Wed Jan 29 2020 13:15:59 GMT-0500 (Eastern Standard Time)","Wed Jan 29 2020 13:26:26 GMT-0500 (Eastern Standard Time)","Mozilla/5.0 (Windows NT 10.0; WOW64) AppleWebKit/537.36 (KHTML, like Gecko) Chrome/78.0.3904.108 Safari/537.36 OPR/65.0.3467.78",108,"[0.9, 0.5, 0.1]","[0.8, 0.4, 0.2]","[u'blue', u'black', u'red']","[u'left', u'middle', u'right']","[0.8, 0.4, 0.2]","[u'high', u'low', u'medium']","red",51,"right","medium","False","False",1231,4050,NA
"AHOQWPD49OMW3","Wed Jan 29 2020 13:15:59 GMT-0500 (Eastern Standard Time)","Wed Jan 29 2020 13:26:26 GMT-0500 (Eastern Standard Time)","Mozilla/5.0 (Windows NT 10.0; WOW64) AppleWebKit/537.36 (KHTML, like Gecko) Chrome/78.0.3904.108 Safari/537.36 OPR/65.0.3467.78",109,"[0.9, 0.5, 0.1]","[0.8, 0.4, 0.2]","[u'blue', u'black', u'red']","[u'left', u'middle', u'right']","[0.8, 0.4, 0.2]","[u'high', u'low', u'medium']","blue",49,"left","high","False","False",496,4000,NA
"AHOQWPD49OMW3","Wed Jan 29 2020 13:15:59 GMT-0500 (Eastern Standard Time)","Wed Jan 29 2020 13:26:26 GMT-0500 (Eastern Standard Time)","Mozilla/5.0 (Windows NT 10.0; WOW64) AppleWebKit/537.36 (KHTML, like Gecko) Chrome/78.0.3904.108 Safari/537.36 OPR/65.0.3467.78",110,"[0.9, 0.5, 0.1]","[0.8, 0.4, 0.2]","[u'blue', u'black', u'red']","[u'left', u'middle', u'right']","[0.8, 0.4, 0.2]","[u'high', u'low', u'medium']","black",50,"middle","low","False","False",124,3950,NA
"AHOQWPD49OMW3","Wed Jan 29 2020 13:15:59 GMT-0500 (Eastern Standard Time)","Wed Jan 29 2020 13:26:26 GMT-0500 (Eastern Standard Time)","Mozilla/5.0 (Windows NT 10.0; WOW64) AppleWebKit/537.36 (KHTML, like Gecko) Chrome/78.0.3904.108 Safari/537.36 OPR/65.0.3467.78",111,"[0.9, 0.5, 0.1]","[0.8, 0.4, 0.2]","[u'blue', u'black', u'red']","[u'left', u'middle', u'right']","[0.8, 0.4, 0.2]","[u'high', u'low', u'medium']","red",51,"right","medium","False","False",131,3900,NA
"AHOQWPD49OMW3","Wed Jan 29 2020 13:15:59 GMT-0500 (Eastern Standard Time)","Wed Jan 29 2020 13:26:26 GMT-0500 (Eastern Standard Time)","Mozilla/5.0 (Windows NT 10.0; WOW64) AppleWebKit/537.36 (KHTML, like Gecko) Chrome/78.0.3904.108 Safari/537.36 OPR/65.0.3467.78",112,"[0.9, 0.5, 0.1]","[0.8, 0.4, 0.2]","[u'blue', u'black', u'red']","[u'left', u'middle', u'right']","[0.8, 0.4, 0.2]","[u'high', u'low', u'medium']","red",51,"right","medium","False","False",4057,3850,NA
"AHOQWPD49OMW3","Wed Jan 29 2020 13:15:59 GMT-0500 (Eastern Standard Time)","Wed Jan 29 2020 13:26:26 GMT-0500 (Eastern Standard Time)","Mozilla/5.0 (Windows NT 10.0; WOW64) AppleWebKit/537.36 (KHTML, like Gecko) Chrome/78.0.3904.108 Safari/537.36 OPR/65.0.3467.78",113,"[0.9, 0.5, 0.1]","[0.8, 0.4, 0.2]","[u'blue', u'black', u'red']","[u'left', u'middle', u'right']","[0.8, 0.4, 0.2]","[u'high', u'low', u'medium']","blue",49,"left","high","True","False",396,3950,NA
"AHOQWPD49OMW3","Wed Jan 29 2020 13:15:59 GMT-0500 (Eastern Standard Time)","Wed Jan 29 2020 13:26:26 GMT-0500 (Eastern Standard Time)","Mozilla/5.0 (Windows NT 10.0; WOW64) AppleWebKit/537.36 (KHTML, like Gecko) Chrome/78.0.3904.108 Safari/537.36 OPR/65.0.3467.78",114,"[0.9, 0.5, 0.1]","[0.8, 0.4, 0.2]","[u'blue', u'black', u'red']","[u'left', u'middle', u'right']","[0.8, 0.4, 0.2]","[u'high', u'low', u'medium']","blue",49,"left","high","True","False",549,4050,NA
"AHOQWPD49OMW3","Wed Jan 29 2020 13:15:59 GMT-0500 (Eastern Standard Time)","Wed Jan 29 2020 13:26:26 GMT-0500 (Eastern Standard Time)","Mozilla/5.0 (Windows NT 10.0; WOW64) AppleWebKit/537.36 (KHTML, like Gecko) Chrome/78.0.3904.108 Safari/537.36 OPR/65.0.3467.78",115,"[0.9, 0.5, 0.1]","[0.8, 0.4, 0.2]","[u'blue', u'black', u'red']","[u'left', u'middle', u'right']","[0.8, 0.4, 0.2]","[u'high', u'low', u'medium']","blue",49,"left","high","True","False",527,4150,NA
"AHOQWPD49OMW3","Wed Jan 29 2020 13:15:59 GMT-0500 (Eastern Standard Time)","Wed Jan 29 2020 13:26:26 GMT-0500 (Eastern Standard Time)","Mozilla/5.0 (Windows NT 10.0; WOW64) AppleWebKit/537.36 (KHTML, like Gecko) Chrome/78.0.3904.108 Safari/537.36 OPR/65.0.3467.78",116,"[0.9, 0.5, 0.1]","[0.8, 0.4, 0.2]","[u'blue', u'black', u'red']","[u'left', u'middle', u'right']","[0.8, 0.4, 0.2]","[u'high', u'low', u'medium']","black",50,"middle","low","True","False",513,4250,NA
"AHOQWPD49OMW3","Wed Jan 29 2020 13:15:59 GMT-0500 (Eastern Standard Time)","Wed Jan 29 2020 13:26:26 GMT-0500 (Eastern Standard Time)","Mozilla/5.0 (Windows NT 10.0; WOW64) AppleWebKit/537.36 (KHTML, like Gecko) Chrome/78.0.3904.108 Safari/537.36 OPR/65.0.3467.78",117,"[0.9, 0.5, 0.1]","[0.8, 0.4, 0.2]","[u'blue', u'black', u'red']","[u'left', u'middle', u'right']","[0.8, 0.4, 0.2]","[u'high', u'low', u'medium']","red",51,"right","medium","True","False",94,4350,NA
"AHOQWPD49OMW3","Wed Jan 29 2020 13:15:59 GMT-0500 (Eastern Standard Time)","Wed Jan 29 2020 13:26:26 GMT-0500 (Eastern Standard Time)","Mozilla/5.0 (Windows NT 10.0; WOW64) AppleWebKit/537.36 (KHTML, like Gecko) Chrome/78.0.3904.108 Safari/537.36 OPR/65.0.3467.78",118,"[0.9, 0.5, 0.1]","[0.8, 0.4, 0.2]","[u'blue', u'black', u'red']","[u'left', u'middle', u'right']","[0.8, 0.4, 0.2]","[u'high', u'low', u'medium']","red",51,"right","medium","False","False",412,4300,NA
"AHOQWPD49OMW3","Wed Jan 29 2020 13:15:59 GMT-0500 (Eastern Standard Time)","Wed Jan 29 2020 13:26:26 GMT-0500 (Eastern Standard Time)","Mozilla/5.0 (Windows NT 10.0; WOW64) AppleWebKit/537.36 (KHTML, like Gecko) Chrome/78.0.3904.108 Safari/537.36 OPR/65.0.3467.78",119,"[0.9, 0.5, 0.1]","[0.8, 0.4, 0.2]","[u'blue', u'black', u'red']","[u'left', u'middle', u'right']","[0.8, 0.4, 0.2]","[u'high', u'low', u'medium']","black",50,"middle","low","False","False",495,4250,NA
"AHOQWPD49OMW3","Wed Jan 29 2020 13:15:59 GMT-0500 (Eastern Standard Time)","Wed Jan 29 2020 13:26:26 GMT-0500 (Eastern Standard Time)","Mozilla/5.0 (Windows NT 10.0; WOW64) AppleWebKit/537.36 (KHTML, like Gecko) Chrome/78.0.3904.108 Safari/537.36 OPR/65.0.3467.78",120,"[0.9, 0.5, 0.1]","[0.8, 0.4, 0.2]","[u'blue', u'black', u'red']","[u'left', u'middle', u'right']","[0.8, 0.4, 0.2]","[u'high', u'low', u'medium']","blue",49,"left","high","True","False",238,4350,NA
"AHOQWPD49OMW3","Wed Jan 29 2020 13:15:59 GMT-0500 (Eastern Standard Time)","Wed Jan 29 2020 13:26:26 GMT-0500 (Eastern Standard Time)","Mozilla/5.0 (Windows NT 10.0; WOW64) AppleWebKit/537.36 (KHTML, like Gecko) Chrome/78.0.3904.108 Safari/537.36 OPR/65.0.3467.78",121,"[0.9, 0.5, 0.1]","[0.8, 0.4, 0.2]","[u'blue', u'black', u'red']","[u'left', u'middle', u'right']","[0.8, 0.4, 0.2]","[u'low', u'high', u'medium']","black",50,"middle","high","True","False",924,4450,NA
"AHOQWPD49OMW3","Wed Jan 29 2020 13:15:59 GMT-0500 (Eastern Standard Time)","Wed Jan 29 2020 13:26:26 GMT-0500 (Eastern Standard Time)","Mozilla/5.0 (Windows NT 10.0; WOW64) AppleWebKit/537.36 (KHTML, like Gecko) Chrome/78.0.3904.108 Safari/537.36 OPR/65.0.3467.78",122,"[0.9, 0.5, 0.1]","[0.8, 0.4, 0.2]","[u'blue', u'black', u'red']","[u'left', u'middle', u'right']","[0.8, 0.4, 0.2]","[u'low', u'high', u'medium']","black",50,"middle","high","True","False",96,4550,NA
"AHOQWPD49OMW3","Wed Jan 29 2020 13:15:59 GMT-0500 (Eastern Standard Time)","Wed Jan 29 2020 13:26:26 GMT-0500 (Eastern Standard Time)","Mozilla/5.0 (Windows NT 10.0; WOW64) AppleWebKit/537.36 (KHTML, like Gecko) Chrome/78.0.3904.108 Safari/537.36 OPR/65.0.3467.78",123,"[0.9, 0.5, 0.1]","[0.8, 0.4, 0.2]","[u'blue', u'black', u'red']","[u'left', u'middle', u'right']","[0.8, 0.4, 0.2]","[u'low', u'high', u'medium']","black",50,"middle","high","True","False",131,4650,NA
"AHOQWPD49OMW3","Wed Jan 29 2020 13:15:59 GMT-0500 (Eastern Standard Time)","Wed Jan 29 2020 13:26:26 GMT-0500 (Eastern Standard Time)","Mozilla/5.0 (Windows NT 10.0; WOW64) AppleWebKit/537.36 (KHTML, like Gecko) Chrome/78.0.3904.108 Safari/537.36 OPR/65.0.3467.78",124,"[0.9, 0.5, 0.1]","[0.8, 0.4, 0.2]","[u'blue', u'black', u'red']","[u'left', u'middle', u'right']","[0.8, 0.4, 0.2]","[u'low', u'high', u'medium']","black",50,"middle","high","True","False",757,4750,NA
"AHOQWPD49OMW3","Wed Jan 29 2020 13:15:59 GMT-0500 (Eastern Standard Time)","Wed Jan 29 2020 13:26:26 GMT-0500 (Eastern Standard Time)","Mozilla/5.0 (Windows NT 10.0; WOW64) AppleWebKit/537.36 (KHTML, like Gecko) Chrome/78.0.3904.108 Safari/537.36 OPR/65.0.3467.78",125,"[0.9, 0.5, 0.1]","[0.8, 0.4, 0.2]","[u'blue', u'black', u'red']","[u'left', u'middle', u'right']","[0.8, 0.4, 0.2]","[u'low', u'high', u'medium']","black",50,"middle","high","True","False",42,4850,NA
"AHOQWPD49OMW3","Wed Jan 29 2020 13:15:59 GMT-0500 (Eastern Standard Time)","Wed Jan 29 2020 13:26:26 GMT-0500 (Eastern Standard Time)","Mozilla/5.0 (Windows NT 10.0; WOW64) AppleWebKit/537.36 (KHTML, like Gecko) Chrome/78.0.3904.108 Safari/537.36 OPR/65.0.3467.78",126,"[0.9, 0.5, 0.1]","[0.8, 0.4, 0.2]","[u'blue', u'black', u'red']","[u'left', u'middle', u'right']","[0.8, 0.4, 0.2]","[u'low', u'high', u'medium']","black",50,"middle","high","False","False",185,4800,NA
"AHOQWPD49OMW3","Wed Jan 29 2020 13:15:59 GMT-0500 (Eastern Standard Time)","Wed Jan 29 2020 13:26:26 GMT-0500 (Eastern Standard Time)","Mozilla/5.0 (Windows NT 10.0; WOW64) AppleWebKit/537.36 (KHTML, like Gecko) Chrome/78.0.3904.108 Safari/537.36 OPR/65.0.3467.78",127,"[0.9, 0.5, 0.1]","[0.8, 0.4, 0.2]","[u'blue', u'black', u'red']","[u'left', u'middle', u'right']","[0.8, 0.4, 0.2]","[u'low', u'high', u'medium']","blue",49,"left","low","True","False",856,4900,NA
"AHOQWPD49OMW3","Wed Jan 29 2020 13:15:59 GMT-0500 (Eastern Standard Time)","Wed Jan 29 2020 13:26:26 GMT-0500 (Eastern Standard Time)","Mozilla/5.0 (Windows NT 10.0; WOW64) AppleWebKit/537.36 (KHTML, like Gecko) Chrome/78.0.3904.108 Safari/537.36 OPR/65.0.3467.78",128,"[0.9, 0.5, 0.1]","[0.8, 0.4, 0.2]","[u'blue', u'black', u'red']","[u'left', u'middle', u'right']","[0.8, 0.4, 0.2]","[u'low', u'high', u'medium']","blue",49,"left","low","False","False",1488,4850,NA
"AHOQWPD49OMW3","Wed Jan 29 2020 13:15:59 GMT-0500 (Eastern Standard Time)","Wed Jan 29 2020 13:26:26 GMT-0500 (Eastern Standard Time)","Mozilla/5.0 (Windows NT 10.0; WOW64) AppleWebKit/537.36 (KHTML, like Gecko) Chrome/78.0.3904.108 Safari/537.36 OPR/65.0.3467.78",129,"[0.9, 0.5, 0.1]","[0.8, 0.4, 0.2]","[u'blue', u'black', u'red']","[u'left', u'middle', u'right']","[0.8, 0.4, 0.2]","[u'low', u'high', u'medium']","red",51,"right","medium","True","False",220,4950,NA
"AHOQWPD49OMW3","Wed Jan 29 2020 13:15:59 GMT-0500 (Eastern Standard Time)","Wed Jan 29 2020 13:26:26 GMT-0500 (Eastern Standard Time)","Mozilla/5.0 (Windows NT 10.0; WOW64) AppleWebKit/537.36 (KHTML, like Gecko) Chrome/78.0.3904.108 Safari/537.36 OPR/65.0.3467.78",130,"[0.9, 0.5, 0.1]","[0.8, 0.4, 0.2]","[u'blue', u'black', u'red']","[u'left', u'middle', u'right']","[0.8, 0.4, 0.2]","[u'low', u'high', u'medium']","red",51,"right","medium","False","False",143,4900,NA
"AHOQWPD49OMW3","Wed Jan 29 2020 13:15:59 GMT-0500 (Eastern Standard Time)","Wed Jan 29 2020 13:26:26 GMT-0500 (Eastern Standard Time)","Mozilla/5.0 (Windows NT 10.0; WOW64) AppleWebKit/537.36 (KHTML, like Gecko) Chrome/78.0.3904.108 Safari/537.36 OPR/65.0.3467.78",131,"[0.9, 0.5, 0.1]","[0.8, 0.4, 0.2]","[u'blue', u'black', u'red']","[u'left', u'middle', u'right']","[0.8, 0.4, 0.2]","[u'low', u'high', u'medium']","black",50,"middle","high","False","False",99,4850,NA
"AHOQWPD49OMW3","Wed Jan 29 2020 13:15:59 GMT-0500 (Eastern Standard Time)","Wed Jan 29 2020 13:26:26 GMT-0500 (Eastern Standard Time)","Mozilla/5.0 (Windows NT 10.0; WOW64) AppleWebKit/537.36 (KHTML, like Gecko) Chrome/78.0.3904.108 Safari/537.36 OPR/65.0.3467.78",132,"[0.9, 0.5, 0.1]","[0.8, 0.4, 0.2]","[u'blue', u'black', u'red']","[u'left', u'middle', u'right']","[0.8, 0.4, 0.2]","[u'low', u'high', u'medium']","red",51,"right","medium","True","False",501,4950,NA
"AHOQWPD49OMW3","Wed Jan 29 2020 13:15:59 GMT-0500 (Eastern Standard Time)","Wed Jan 29 2020 13:26:26 GMT-0500 (Eastern Standard Time)","Mozilla/5.0 (Windows NT 10.0; WOW64) AppleWebKit/537.36 (KHTML, like Gecko) Chrome/78.0.3904.108 Safari/537.36 OPR/65.0.3467.78",133,"[0.9, 0.5, 0.1]","[0.8, 0.4, 0.2]","[u'blue', u'black', u'red']","[u'left', u'middle', u'right']","[0.8, 0.4, 0.2]","[u'low', u'high', u'medium']","blue",49,"left","low","False","False",246,4900,NA
"AHOQWPD49OMW3","Wed Jan 29 2020 13:15:59 GMT-0500 (Eastern Standard Time)","Wed Jan 29 2020 13:26:26 GMT-0500 (Eastern Standard Time)","Mozilla/5.0 (Windows NT 10.0; WOW64) AppleWebKit/537.36 (KHTML, like Gecko) Chrome/78.0.3904.108 Safari/537.36 OPR/65.0.3467.78",134,"[0.9, 0.5, 0.1]","[0.8, 0.4, 0.2]","[u'blue', u'black', u'red']","[u'left', u'middle', u'right']","[0.8, 0.4, 0.2]","[u'low', u'high', u'medium']","black",50,"middle","high","True","False",168,5000,NA
"AHOQWPD49OMW3","Wed Jan 29 2020 13:15:59 GMT-0500 (Eastern Standard Time)","Wed Jan 29 2020 13:26:26 GMT-0500 (Eastern Standard Time)","Mozilla/5.0 (Windows NT 10.0; WOW64) AppleWebKit/537.36 (KHTML, like Gecko) Chrome/78.0.3904.108 Safari/537.36 OPR/65.0.3467.78",135,"[0.9, 0.5, 0.1]","[0.8, 0.4, 0.2]","[u'blue', u'black', u'red']","[u'left', u'middle', u'right']","[0.8, 0.4, 0.2]","[u'low', u'high', u'medium']","red",51,"right","medium","False","False",487,4950,NA
"AHOQWPD49OMW3","Wed Jan 29 2020 13:15:59 GMT-0500 (Eastern Standard Time)","Wed Jan 29 2020 13:26:26 GMT-0500 (Eastern Standard Time)","Mozilla/5.0 (Windows NT 10.0; WOW64) AppleWebKit/537.36 (KHTML, like Gecko) Chrome/78.0.3904.108 Safari/537.36 OPR/65.0.3467.78",136,"[0.9, 0.5, 0.1]","[0.8, 0.4, 0.2]","[u'blue', u'black', u'red']","[u'left', u'middle', u'right']","[0.8, 0.4, 0.2]","[u'low', u'high', u'medium']","black",50,"middle","high","True","False",382,5050,NA
"AHOQWPD49OMW3","Wed Jan 29 2020 13:15:59 GMT-0500 (Eastern Standard Time)","Wed Jan 29 2020 13:26:26 GMT-0500 (Eastern Standard Time)","Mozilla/5.0 (Windows NT 10.0; WOW64) AppleWebKit/537.36 (KHTML, like Gecko) Chrome/78.0.3904.108 Safari/537.36 OPR/65.0.3467.78",137,"[0.9, 0.5, 0.1]","[0.8, 0.4, 0.2]","[u'blue', u'black', u'red']","[u'left', u'middle', u'right']","[0.8, 0.4, 0.2]","[u'low', u'high', u'medium']","black",50,"middle","high","True","False",539,5150,NA
"AHOQWPD49OMW3","Wed Jan 29 2020 13:15:59 GMT-0500 (Eastern Standard Time)","Wed Jan 29 2020 13:26:26 GMT-0500 (Eastern Standard Time)","Mozilla/5.0 (Windows NT 10.0; WOW64) AppleWebKit/537.36 (KHTML, like Gecko) Chrome/78.0.3904.108 Safari/537.36 OPR/65.0.3467.78",138,"[0.9, 0.5, 0.1]","[0.8, 0.4, 0.2]","[u'blue', u'black', u'red']","[u'left', u'middle', u'right']","[0.8, 0.4, 0.2]","[u'low', u'high', u'medium']","black",50,"middle","high","True","False",513,5250,NA
"AHOQWPD49OMW3","Wed Jan 29 2020 13:15:59 GMT-0500 (Eastern Standard Time)","Wed Jan 29 2020 13:26:26 GMT-0500 (Eastern Standard Time)","Mozilla/5.0 (Windows NT 10.0; WOW64) AppleWebKit/537.36 (KHTML, like Gecko) Chrome/78.0.3904.108 Safari/537.36 OPR/65.0.3467.78",139,"[0.9, 0.5, 0.1]","[0.8, 0.4, 0.2]","[u'blue', u'black', u'red']","[u'left', u'middle', u'right']","[0.8, 0.4, 0.2]","[u'low', u'high', u'medium']","black",50,"middle","high","True","False",81,5350,NA
"AHOQWPD49OMW3","Wed Jan 29 2020 13:15:59 GMT-0500 (Eastern Standard Time)","Wed Jan 29 2020 13:26:26 GMT-0500 (Eastern Standard Time)","Mozilla/5.0 (Windows NT 10.0; WOW64) AppleWebKit/537.36 (KHTML, like Gecko) Chrome/78.0.3904.108 Safari/537.36 OPR/65.0.3467.78",140,"[0.9, 0.5, 0.1]","[0.8, 0.4, 0.2]","[u'blue', u'black', u'red']","[u'left', u'middle', u'right']","[0.8, 0.4, 0.2]","[u'low', u'high', u'medium']","black",50,"middle","high","True","False",399,5450,NA
"AHOQWPD49OMW3","Wed Jan 29 2020 13:15:59 GMT-0500 (Eastern Standard Time)","Wed Jan 29 2020 13:26:26 GMT-0500 (Eastern Standard Time)","Mozilla/5.0 (Windows NT 10.0; WOW64) AppleWebKit/537.36 (KHTML, like Gecko) Chrome/78.0.3904.108 Safari/537.36 OPR/65.0.3467.78",141,"[0.9, 0.5, 0.1]","[0.8, 0.4, 0.2]","[u'blue', u'black', u'red']","[u'left', u'middle', u'right']","[0.8, 0.4, 0.2]","[u'low', u'high', u'medium']","black",50,"middle","high","True","False",490,5550,NA
"AHOQWPD49OMW3","Wed Jan 29 2020 13:15:59 GMT-0500 (Eastern Standard Time)","Wed Jan 29 2020 13:26:26 GMT-0500 (Eastern Standard Time)","Mozilla/5.0 (Windows NT 10.0; WOW64) AppleWebKit/537.36 (KHTML, like Gecko) Chrome/78.0.3904.108 Safari/537.36 OPR/65.0.3467.78",142,"[0.9, 0.5, 0.1]","[0.8, 0.4, 0.2]","[u'blue', u'black', u'red']","[u'left', u'middle', u'right']","[0.8, 0.4, 0.2]","[u'low', u'high', u'medium']","black",50,"middle","high","False","False",321,5500,NA
"AHOQWPD49OMW3","Wed Jan 29 2020 13:15:59 GMT-0500 (Eastern Standard Time)","Wed Jan 29 2020 13:26:26 GMT-0500 (Eastern Standard Time)","Mozilla/5.0 (Windows NT 10.0; WOW64) AppleWebKit/537.36 (KHTML, like Gecko) Chrome/78.0.3904.108 Safari/537.36 OPR/65.0.3467.78",143,"[0.9, 0.5, 0.1]","[0.8, 0.4, 0.2]","[u'blue', u'black', u'red']","[u'left', u'middle', u'right']","[0.8, 0.4, 0.2]","[u'low', u'high', u'medium']","blue",49,"left","low","False","False",173,5450,NA
"AHOQWPD49OMW3","Wed Jan 29 2020 13:15:59 GMT-0500 (Eastern Standard Time)","Wed Jan 29 2020 13:26:26 GMT-0500 (Eastern Standard Time)","Mozilla/5.0 (Windows NT 10.0; WOW64) AppleWebKit/537.36 (KHTML, like Gecko) Chrome/78.0.3904.108 Safari/537.36 OPR/65.0.3467.78",144,"[0.9, 0.5, 0.1]","[0.8, 0.4, 0.2]","[u'blue', u'black', u'red']","[u'left', u'middle', u'right']","[0.8, 0.4, 0.2]","[u'low', u'high', u'medium']","red",51,"right","medium","False","False",97,5400,NA
"AHOQWPD49OMW3","Wed Jan 29 2020 13:15:59 GMT-0500 (Eastern Standard Time)","Wed Jan 29 2020 13:26:26 GMT-0500 (Eastern Standard Time)","Mozilla/5.0 (Windows NT 10.0; WOW64) AppleWebKit/537.36 (KHTML, like Gecko) Chrome/78.0.3904.108 Safari/537.36 OPR/65.0.3467.78",145,"[0.9, 0.5, 0.1]","[0.8, 0.4, 0.2]","[u'blue', u'black', u'red']","[u'left', u'middle', u'right']","[0.8, 0.4, 0.2]","[u'low', u'high', u'medium']","black",50,"middle","high","True","False",498,5500,NA
"AHOQWPD49OMW3","Wed Jan 29 2020 13:15:59 GMT-0500 (Eastern Standard Time)","Wed Jan 29 2020 13:26:26 GMT-0500 (Eastern Standard Time)","Mozilla/5.0 (Windows NT 10.0; WOW64) AppleWebKit/537.36 (KHTML, like Gecko) Chrome/78.0.3904.108 Safari/537.36 OPR/65.0.3467.78",146,"[0.9, 0.5, 0.1]","[0.8, 0.4, 0.2]","[u'blue', u'black', u'red']","[u'left', u'middle', u'right']","[0.8, 0.4, 0.2]","[u'low', u'high', u'medium']","black",50,"middle","high","True","False",492,5600,NA
"AHOQWPD49OMW3","Wed Jan 29 2020 13:15:59 GMT-0500 (Eastern Standard Time)","Wed Jan 29 2020 13:26:26 GMT-0500 (Eastern Standard Time)","Mozilla/5.0 (Windows NT 10.0; WOW64) AppleWebKit/537.36 (KHTML, like Gecko) Chrome/78.0.3904.108 Safari/537.36 OPR/65.0.3467.78",147,"[0.9, 0.5, 0.1]","[0.8, 0.4, 0.2]","[u'blue', u'black', u'red']","[u'left', u'middle', u'right']","[0.8, 0.4, 0.2]","[u'low', u'high', u'medium']","black",50,"middle","high","True","False",69,5700,NA
"AHOQWPD49OMW3","Wed Jan 29 2020 13:15:59 GMT-0500 (Eastern Standard Time)","Wed Jan 29 2020 13:26:26 GMT-0500 (Eastern Standard Time)","Mozilla/5.0 (Windows NT 10.0; WOW64) AppleWebKit/537.36 (KHTML, like Gecko) Chrome/78.0.3904.108 Safari/537.36 OPR/65.0.3467.78",148,"[0.9, 0.5, 0.1]","[0.8, 0.4, 0.2]","[u'blue', u'black', u'red']","[u'left', u'middle', u'right']","[0.8, 0.4, 0.2]","[u'low', u'high', u'medium']","blue",49,"left","low","False","False",390,5650,NA
"AHOQWPD49OMW3","Wed Jan 29 2020 13:15:59 GMT-0500 (Eastern Standard Time)","Wed Jan 29 2020 13:26:26 GMT-0500 (Eastern Standard Time)","Mozilla/5.0 (Windows NT 10.0; WOW64) AppleWebKit/537.36 (KHTML, like Gecko) Chrome/78.0.3904.108 Safari/537.36 OPR/65.0.3467.78",149,"[0.9, 0.5, 0.1]","[0.8, 0.4, 0.2]","[u'blue', u'black', u'red']","[u'left', u'middle', u'right']","[0.8, 0.4, 0.2]","[u'low', u'high', u'medium']","red",51,"right","medium","True","False",206,5750,NA
"AHOQWPD49OMW3","Wed Jan 29 2020 13:15:59 GMT-0500 (Eastern Standard Time)","Wed Jan 29 2020 13:26:26 GMT-0500 (Eastern Standard Time)","Mozilla/5.0 (Windows NT 10.0; WOW64) AppleWebKit/537.36 (KHTML, like Gecko) Chrome/78.0.3904.108 Safari/537.36 OPR/65.0.3467.78",150,"[0.9, 0.5, 0.1]","[0.8, 0.4, 0.2]","[u'blue', u'black', u'red']","[u'left', u'middle', u'right']","[0.8, 0.4, 0.2]","[u'low', u'high', u'medium']","black",50,"middle","high","True","False",234,5850,NA
"AHOQWPD49OMW3","Wed Jan 29 2020 13:15:59 GMT-0500 (Eastern Standard Time)","Wed Jan 29 2020 13:26:26 GMT-0500 (Eastern Standard Time)","Mozilla/5.0 (Windows NT 10.0; WOW64) AppleWebKit/537.36 (KHTML, like Gecko) Chrome/78.0.3904.108 Safari/537.36 OPR/65.0.3467.78",151,"[0.9, 0.5, 0.1]","[0.8, 0.4, 0.2]","[u'blue', u'black', u'red']","[u'left', u'middle', u'right']","[0.8, 0.4, 0.2]","[u'low', u'high', u'medium']","red",51,"right","medium","False","False",36,5800,NA
"AHOQWPD49OMW3","Wed Jan 29 2020 13:15:59 GMT-0500 (Eastern Standard Time)","Wed Jan 29 2020 13:26:26 GMT-0500 (Eastern Standard Time)","Mozilla/5.0 (Windows NT 10.0; WOW64) AppleWebKit/537.36 (KHTML, like Gecko) Chrome/78.0.3904.108 Safari/537.36 OPR/65.0.3467.78",152,"[0.9, 0.5, 0.1]","[0.8, 0.4, 0.2]","[u'blue', u'black', u'red']","[u'left', u'middle', u'right']","[0.8, 0.4, 0.2]","[u'low', u'high', u'medium']","black",50,"middle","high","True","False",814,5900,NA
"AHOQWPD49OMW3","Wed Jan 29 2020 13:15:59 GMT-0500 (Eastern Standard Time)","Wed Jan 29 2020 13:26:26 GMT-0500 (Eastern Standard Time)","Mozilla/5.0 (Windows NT 10.0; WOW64) AppleWebKit/537.36 (KHTML, like Gecko) Chrome/78.0.3904.108 Safari/537.36 OPR/65.0.3467.78",153,"[0.9, 0.5, 0.1]","[0.8, 0.4, 0.2]","[u'blue', u'black', u'red']","[u'left', u'middle', u'right']","[0.8, 0.4, 0.2]","[u'low', u'high', u'medium']","blue",49,"left","low","False","False",282,5850,NA
"AHOQWPD49OMW3","Wed Jan 29 2020 13:15:59 GMT-0500 (Eastern Standard Time)","Wed Jan 29 2020 13:26:26 GMT-0500 (Eastern Standard Time)","Mozilla/5.0 (Windows NT 10.0; WOW64) AppleWebKit/537.36 (KHTML, like Gecko) Chrome/78.0.3904.108 Safari/537.36 OPR/65.0.3467.78",154,"[0.9, 0.5, 0.1]","[0.8, 0.4, 0.2]","[u'blue', u'black', u'red']","[u'left', u'middle', u'right']","[0.8, 0.4, 0.2]","[u'low', u'high', u'medium']","black",50,"middle","high","False","False",155,5800,NA
"AHOQWPD49OMW3","Wed Jan 29 2020 13:15:59 GMT-0500 (Eastern Standard Time)","Wed Jan 29 2020 13:26:26 GMT-0500 (Eastern Standard Time)","Mozilla/5.0 (Windows NT 10.0; WOW64) AppleWebKit/537.36 (KHTML, like Gecko) Chrome/78.0.3904.108 Safari/537.36 OPR/65.0.3467.78",155,"[0.9, 0.5, 0.1]","[0.8, 0.4, 0.2]","[u'blue', u'black', u'red']","[u'left', u'middle', u'right']","[0.8, 0.4, 0.2]","[u'low', u'high', u'medium']","red",51,"right","medium","True","False",284,5900,NA
"AHOQWPD49OMW3","Wed Jan 29 2020 13:15:59 GMT-0500 (Eastern Standard Time)","Wed Jan 29 2020 13:26:26 GMT-0500 (Eastern Standard Time)","Mozilla/5.0 (Windows NT 10.0; WOW64) AppleWebKit/537.36 (KHTML, like Gecko) Chrome/78.0.3904.108 Safari/537.36 OPR/65.0.3467.78",156,"[0.9, 0.5, 0.1]","[0.8, 0.4, 0.2]","[u'blue', u'black', u'red']","[u'left', u'middle', u'right']","[0.8, 0.4, 0.2]","[u'low', u'high', u'medium']","red",51,"right","medium","False","False",420,5850,NA
"AHOQWPD49OMW3","Wed Jan 29 2020 13:15:59 GMT-0500 (Eastern Standard Time)","Wed Jan 29 2020 13:26:26 GMT-0500 (Eastern Standard Time)","Mozilla/5.0 (Windows NT 10.0; WOW64) AppleWebKit/537.36 (KHTML, like Gecko) Chrome/78.0.3904.108 Safari/537.36 OPR/65.0.3467.78",157,"[0.9, 0.5, 0.1]","[0.8, 0.4, 0.2]","[u'blue', u'black', u'red']","[u'left', u'middle', u'right']","[0.8, 0.4, 0.2]","[u'low', u'high', u'medium']","blue",49,"left","low","False","False",402,5800,NA
"AHOQWPD49OMW3","Wed Jan 29 2020 13:15:59 GMT-0500 (Eastern Standard Time)","Wed Jan 29 2020 13:26:26 GMT-0500 (Eastern Standard Time)","Mozilla/5.0 (Windows NT 10.0; WOW64) AppleWebKit/537.36 (KHTML, like Gecko) Chrome/78.0.3904.108 Safari/537.36 OPR/65.0.3467.78",158,"[0.9, 0.5, 0.1]","[0.8, 0.4, 0.2]","[u'blue', u'black', u'red']","[u'left', u'middle', u'right']","[0.8, 0.4, 0.2]","[u'low', u'high', u'medium']","black",50,"middle","high","False","False",257,5750,NA
"AHOQWPD49OMW3","Wed Jan 29 2020 13:15:59 GMT-0500 (Eastern Standard Time)","Wed Jan 29 2020 13:26:26 GMT-0500 (Eastern Standard Time)","Mozilla/5.0 (Windows NT 10.0; WOW64) AppleWebKit/537.36 (KHTML, like Gecko) Chrome/78.0.3904.108 Safari/537.36 OPR/65.0.3467.78",159,"[0.9, 0.5, 0.1]","[0.8, 0.4, 0.2]","[u'blue', u'black', u'red']","[u'left', u'middle', u'right']","[0.8, 0.4, 0.2]","[u'low', u'high', u'medium']","red",51,"right","medium","False","False",275,5700,NA
"AHOQWPD49OMW3","Wed Jan 29 2020 13:15:59 GMT-0500 (Eastern Standard Time)","Wed Jan 29 2020 13:26:26 GMT-0500 (Eastern Standard Time)","Mozilla/5.0 (Windows NT 10.0; WOW64) AppleWebKit/537.36 (KHTML, like Gecko) Chrome/78.0.3904.108 Safari/537.36 OPR/65.0.3467.78",160,"[0.9, 0.5, 0.1]","[0.8, 0.4, 0.2]","[u'blue', u'black', u'red']","[u'left', u'middle', u'right']","[0.8, 0.4, 0.2]","[u'low', u'high', u'medium']","blue",49,"left","low","False","False",455,5650,NA
