"src_subject_id","start_time","end_time","browser","index","first_half_probabilities","second_half_probabilities","deck_color","deck_position","deck_probabilities","deck_contingencies","response_color","key_press","response_position","response_probability","reward_type","trial_type","rt","reward_tally","exclusion_reason"
"AVBRJBJONL47I","Wed Jan 29 2020 10:17:07 GMT-0800 (Pacific Standard Time)","Wed Jan 29 2020 10:24:02 GMT-0800 (Pacific Standard Time)","Mozilla/5.0 (Macintosh; Intel Mac OS X 10_14_6) AppleWebKit/537.36 (KHTML, like Gecko) Chrome/79.0.3945.130 Safari/537.36",1,"[0.9, 0.5, 0.1]","[0.8, 0.4, 0.2]","[u'black', u'blue', u'red']","[u'left', u'middle', u'right']","[0.9, 0.5, 0.1]","[u'low', u'high', u'medium']","black",49,"left","low","True","False",1575,100,NA
"AVBRJBJONL47I","Wed Jan 29 2020 10:17:07 GMT-0800 (Pacific Standard Time)","Wed Jan 29 2020 10:24:02 GMT-0800 (Pacific Standard Time)","Mozilla/5.0 (Macintosh; Intel Mac OS X 10_14_6) AppleWebKit/537.36 (KHTML, like Gecko) Chrome/79.0.3945.130 Safari/537.36",2,"[0.9, 0.5, 0.1]","[0.8, 0.4, 0.2]","[u'black', u'blue', u'red']","[u'left', u'middle', u'right']","[0.9, 0.5, 0.1]","[u'low', u'high', u'medium']","red",51,"right","medium","False","False",392,50,NA
"AVBRJBJONL47I","Wed Jan 29 2020 10:17:07 GMT-0800 (Pacific Standard Time)","Wed Jan 29 2020 10:24:02 GMT-0800 (Pacific Standard Time)","Mozilla/5.0 (Macintosh; Intel Mac OS X 10_14_6) AppleWebKit/537.36 (KHTML, like Gecko) Chrome/79.0.3945.130 Safari/537.36",3,"[0.9, 0.5, 0.1]","[0.8, 0.4, 0.2]","[u'black', u'blue', u'red']","[u'left', u'middle', u'right']","[0.9, 0.5, 0.1]","[u'low', u'high', u'medium']","black",49,"left","low","False","False",337,0,NA
"AVBRJBJONL47I","Wed Jan 29 2020 10:17:07 GMT-0800 (Pacific Standard Time)","Wed Jan 29 2020 10:24:02 GMT-0800 (Pacific Standard Time)","Mozilla/5.0 (Macintosh; Intel Mac OS X 10_14_6) AppleWebKit/537.36 (KHTML, like Gecko) Chrome/79.0.3945.130 Safari/537.36",4,"[0.9, 0.5, 0.1]","[0.8, 0.4, 0.2]","[u'black', u'blue', u'red']","[u'left', u'middle', u'right']","[0.9, 0.5, 0.1]","[u'low', u'high', u'medium']","blue",50,"middle","high","False","False",244,-50,NA
"AVBRJBJONL47I","Wed Jan 29 2020 10:17:07 GMT-0800 (Pacific Standard Time)","Wed Jan 29 2020 10:24:02 GMT-0800 (Pacific Standard Time)","Mozilla/5.0 (Macintosh; Intel Mac OS X 10_14_6) AppleWebKit/537.36 (KHTML, like Gecko) Chrome/79.0.3945.130 Safari/537.36",5,"[0.9, 0.5, 0.1]","[0.8, 0.4, 0.2]","[u'black', u'blue', u'red']","[u'left', u'middle', u'right']","[0.9, 0.5, 0.1]","[u'low', u'high', u'medium']","blue",50,"middle","high","True","False",515,50,NA
"AVBRJBJONL47I","Wed Jan 29 2020 10:17:07 GMT-0800 (Pacific Standard Time)","Wed Jan 29 2020 10:24:02 GMT-0800 (Pacific Standard Time)","Mozilla/5.0 (Macintosh; Intel Mac OS X 10_14_6) AppleWebKit/537.36 (KHTML, like Gecko) Chrome/79.0.3945.130 Safari/537.36",6,"[0.9, 0.5, 0.1]","[0.8, 0.4, 0.2]","[u'black', u'blue', u'red']","[u'left', u'middle', u'right']","[0.9, 0.5, 0.1]","[u'low', u'high', u'medium']","blue",50,"middle","high","True","False",377,150,NA
"AVBRJBJONL47I","Wed Jan 29 2020 10:17:07 GMT-0800 (Pacific Standard Time)","Wed Jan 29 2020 10:24:02 GMT-0800 (Pacific Standard Time)","Mozilla/5.0 (Macintosh; Intel Mac OS X 10_14_6) AppleWebKit/537.36 (KHTML, like Gecko) Chrome/79.0.3945.130 Safari/537.36",7,"[0.9, 0.5, 0.1]","[0.8, 0.4, 0.2]","[u'black', u'blue', u'red']","[u'left', u'middle', u'right']","[0.9, 0.5, 0.1]","[u'low', u'high', u'medium']","blue",50,"middle","high","True","False",367,250,NA
"AVBRJBJONL47I","Wed Jan 29 2020 10:17:07 GMT-0800 (Pacific Standard Time)","Wed Jan 29 2020 10:24:02 GMT-0800 (Pacific Standard Time)","Mozilla/5.0 (Macintosh; Intel Mac OS X 10_14_6) AppleWebKit/537.36 (KHTML, like Gecko) Chrome/79.0.3945.130 Safari/537.36",8,"[0.9, 0.5, 0.1]","[0.8, 0.4, 0.2]","[u'black', u'blue', u'red']","[u'left', u'middle', u'right']","[0.9, 0.5, 0.1]","[u'low', u'high', u'medium']","blue",50,"middle","high","True","False",418,350,NA
"AVBRJBJONL47I","Wed Jan 29 2020 10:17:07 GMT-0800 (Pacific Standard Time)","Wed Jan 29 2020 10:24:02 GMT-0800 (Pacific Standard Time)","Mozilla/5.0 (Macintosh; Intel Mac OS X 10_14_6) AppleWebKit/537.36 (KHTML, like Gecko) Chrome/79.0.3945.130 Safari/537.36",9,"[0.9, 0.5, 0.1]","[0.8, 0.4, 0.2]","[u'black', u'blue', u'red']","[u'left', u'middle', u'right']","[0.9, 0.5, 0.1]","[u'low', u'high', u'medium']","blue",50,"middle","high","True","False",499,450,NA
"AVBRJBJONL47I","Wed Jan 29 2020 10:17:07 GMT-0800 (Pacific Standard Time)","Wed Jan 29 2020 10:24:02 GMT-0800 (Pacific Standard Time)","Mozilla/5.0 (Macintosh; Intel Mac OS X 10_14_6) AppleWebKit/537.36 (KHTML, like Gecko) Chrome/79.0.3945.130 Safari/537.36",10,"[0.9, 0.5, 0.1]","[0.8, 0.4, 0.2]","[u'black', u'blue', u'red']","[u'left', u'middle', u'right']","[0.9, 0.5, 0.1]","[u'low', u'high', u'medium']","blue",50,"middle","high","True","False",611,550,NA
"AVBRJBJONL47I","Wed Jan 29 2020 10:17:07 GMT-0800 (Pacific Standard Time)","Wed Jan 29 2020 10:24:02 GMT-0800 (Pacific Standard Time)","Mozilla/5.0 (Macintosh; Intel Mac OS X 10_14_6) AppleWebKit/537.36 (KHTML, like Gecko) Chrome/79.0.3945.130 Safari/537.36",11,"[0.9, 0.5, 0.1]","[0.8, 0.4, 0.2]","[u'black', u'blue', u'red']","[u'left', u'middle', u'right']","[0.9, 0.5, 0.1]","[u'low', u'high', u'medium']","blue",50,"middle","high","True","False",592,650,NA
"AVBRJBJONL47I","Wed Jan 29 2020 10:17:07 GMT-0800 (Pacific Standard Time)","Wed Jan 29 2020 10:24:02 GMT-0800 (Pacific Standard Time)","Mozilla/5.0 (Macintosh; Intel Mac OS X 10_14_6) AppleWebKit/537.36 (KHTML, like Gecko) Chrome/79.0.3945.130 Safari/537.36",12,"[0.9, 0.5, 0.1]","[0.8, 0.4, 0.2]","[u'black', u'blue', u'red']","[u'left', u'middle', u'right']","[0.9, 0.5, 0.1]","[u'low', u'high', u'medium']","blue",50,"middle","high","True","True",580,750,NA
"AVBRJBJONL47I","Wed Jan 29 2020 10:17:07 GMT-0800 (Pacific Standard Time)","Wed Jan 29 2020 10:24:02 GMT-0800 (Pacific Standard Time)","Mozilla/5.0 (Macintosh; Intel Mac OS X 10_14_6) AppleWebKit/537.36 (KHTML, like Gecko) Chrome/79.0.3945.130 Safari/537.36",13,"[0.9, 0.5, 0.1]","[0.8, 0.4, 0.2]","[u'black', u'blue', u'red']","[u'left', u'middle', u'right']","[0.9, 0.5, 0.1]","[u'high', u'low', u'medium']","blue",50,"middle","low","False","False",560,700,NA
"AVBRJBJONL47I","Wed Jan 29 2020 10:17:07 GMT-0800 (Pacific Standard Time)","Wed Jan 29 2020 10:24:02 GMT-0800 (Pacific Standard Time)","Mozilla/5.0 (Macintosh; Intel Mac OS X 10_14_6) AppleWebKit/537.36 (KHTML, like Gecko) Chrome/79.0.3945.130 Safari/537.36",14,"[0.9, 0.5, 0.1]","[0.8, 0.4, 0.2]","[u'black', u'blue', u'red']","[u'left', u'middle', u'right']","[0.9, 0.5, 0.1]","[u'high', u'low', u'medium']","blue",50,"middle","low","False","False",518,650,NA
"AVBRJBJONL47I","Wed Jan 29 2020 10:17:07 GMT-0800 (Pacific Standard Time)","Wed Jan 29 2020 10:24:02 GMT-0800 (Pacific Standard Time)","Mozilla/5.0 (Macintosh; Intel Mac OS X 10_14_6) AppleWebKit/537.36 (KHTML, like Gecko) Chrome/79.0.3945.130 Safari/537.36",15,"[0.9, 0.5, 0.1]","[0.8, 0.4, 0.2]","[u'black', u'blue', u'red']","[u'left', u'middle', u'right']","[0.9, 0.5, 0.1]","[u'high', u'low', u'medium']","red",51,"right","medium","True","False",103,750,NA
"AVBRJBJONL47I","Wed Jan 29 2020 10:17:07 GMT-0800 (Pacific Standard Time)","Wed Jan 29 2020 10:24:02 GMT-0800 (Pacific Standard Time)","Mozilla/5.0 (Macintosh; Intel Mac OS X 10_14_6) AppleWebKit/537.36 (KHTML, like Gecko) Chrome/79.0.3945.130 Safari/537.36",16,"[0.9, 0.5, 0.1]","[0.8, 0.4, 0.2]","[u'black', u'blue', u'red']","[u'left', u'middle', u'right']","[0.9, 0.5, 0.1]","[u'high', u'low', u'medium']","red",51,"right","medium","True","False",498,850,NA
"AVBRJBJONL47I","Wed Jan 29 2020 10:17:07 GMT-0800 (Pacific Standard Time)","Wed Jan 29 2020 10:24:02 GMT-0800 (Pacific Standard Time)","Mozilla/5.0 (Macintosh; Intel Mac OS X 10_14_6) AppleWebKit/537.36 (KHTML, like Gecko) Chrome/79.0.3945.130 Safari/537.36",17,"[0.9, 0.5, 0.1]","[0.8, 0.4, 0.2]","[u'black', u'blue', u'red']","[u'left', u'middle', u'right']","[0.9, 0.5, 0.1]","[u'high', u'low', u'medium']","red",51,"right","medium","True","False",377,950,NA
"AVBRJBJONL47I","Wed Jan 29 2020 10:17:07 GMT-0800 (Pacific Standard Time)","Wed Jan 29 2020 10:24:02 GMT-0800 (Pacific Standard Time)","Mozilla/5.0 (Macintosh; Intel Mac OS X 10_14_6) AppleWebKit/537.36 (KHTML, like Gecko) Chrome/79.0.3945.130 Safari/537.36",18,"[0.9, 0.5, 0.1]","[0.8, 0.4, 0.2]","[u'black', u'blue', u'red']","[u'left', u'middle', u'right']","[0.9, 0.5, 0.1]","[u'high', u'low', u'medium']","red",51,"right","medium","False","False",369,900,NA
"AVBRJBJONL47I","Wed Jan 29 2020 10:17:07 GMT-0800 (Pacific Standard Time)","Wed Jan 29 2020 10:24:02 GMT-0800 (Pacific Standard Time)","Mozilla/5.0 (Macintosh; Intel Mac OS X 10_14_6) AppleWebKit/537.36 (KHTML, like Gecko) Chrome/79.0.3945.130 Safari/537.36",19,"[0.9, 0.5, 0.1]","[0.8, 0.4, 0.2]","[u'black', u'blue', u'red']","[u'left', u'middle', u'right']","[0.9, 0.5, 0.1]","[u'high', u'low', u'medium']","blue",50,"middle","low","False","False",284,850,NA
"AVBRJBJONL47I","Wed Jan 29 2020 10:17:07 GMT-0800 (Pacific Standard Time)","Wed Jan 29 2020 10:24:02 GMT-0800 (Pacific Standard Time)","Mozilla/5.0 (Macintosh; Intel Mac OS X 10_14_6) AppleWebKit/537.36 (KHTML, like Gecko) Chrome/79.0.3945.130 Safari/537.36",20,"[0.9, 0.5, 0.1]","[0.8, 0.4, 0.2]","[u'black', u'blue', u'red']","[u'left', u'middle', u'right']","[0.9, 0.5, 0.1]","[u'high', u'low', u'medium']","black",49,"left","high","True","False",446,950,NA
"AVBRJBJONL47I","Wed Jan 29 2020 10:17:07 GMT-0800 (Pacific Standard Time)","Wed Jan 29 2020 10:24:02 GMT-0800 (Pacific Standard Time)","Mozilla/5.0 (Macintosh; Intel Mac OS X 10_14_6) AppleWebKit/537.36 (KHTML, like Gecko) Chrome/79.0.3945.130 Safari/537.36",21,"[0.9, 0.5, 0.1]","[0.8, 0.4, 0.2]","[u'black', u'blue', u'red']","[u'left', u'middle', u'right']","[0.9, 0.5, 0.1]","[u'high', u'low', u'medium']","black",49,"left","high","True","False",317,1050,NA
"AVBRJBJONL47I","Wed Jan 29 2020 10:17:07 GMT-0800 (Pacific Standard Time)","Wed Jan 29 2020 10:24:02 GMT-0800 (Pacific Standard Time)","Mozilla/5.0 (Macintosh; Intel Mac OS X 10_14_6) AppleWebKit/537.36 (KHTML, like Gecko) Chrome/79.0.3945.130 Safari/537.36",22,"[0.9, 0.5, 0.1]","[0.8, 0.4, 0.2]","[u'black', u'blue', u'red']","[u'left', u'middle', u'right']","[0.9, 0.5, 0.1]","[u'high', u'low', u'medium']","black",49,"left","high","True","False",295,1150,NA
"AVBRJBJONL47I","Wed Jan 29 2020 10:17:07 GMT-0800 (Pacific Standard Time)","Wed Jan 29 2020 10:24:02 GMT-0800 (Pacific Standard Time)","Mozilla/5.0 (Macintosh; Intel Mac OS X 10_14_6) AppleWebKit/537.36 (KHTML, like Gecko) Chrome/79.0.3945.130 Safari/537.36",23,"[0.9, 0.5, 0.1]","[0.8, 0.4, 0.2]","[u'black', u'blue', u'red']","[u'left', u'middle', u'right']","[0.9, 0.5, 0.1]","[u'high', u'low', u'medium']","black",49,"left","high","True","False",482,1250,NA
"AVBRJBJONL47I","Wed Jan 29 2020 10:17:07 GMT-0800 (Pacific Standard Time)","Wed Jan 29 2020 10:24:02 GMT-0800 (Pacific Standard Time)","Mozilla/5.0 (Macintosh; Intel Mac OS X 10_14_6) AppleWebKit/537.36 (KHTML, like Gecko) Chrome/79.0.3945.130 Safari/537.36",24,"[0.9, 0.5, 0.1]","[0.8, 0.4, 0.2]","[u'black', u'blue', u'red']","[u'left', u'middle', u'right']","[0.9, 0.5, 0.1]","[u'high', u'low', u'medium']","black",49,"left","high","False","False",320,1200,NA
"AVBRJBJONL47I","Wed Jan 29 2020 10:17:07 GMT-0800 (Pacific Standard Time)","Wed Jan 29 2020 10:24:02 GMT-0800 (Pacific Standard Time)","Mozilla/5.0 (Macintosh; Intel Mac OS X 10_14_6) AppleWebKit/537.36 (KHTML, like Gecko) Chrome/79.0.3945.130 Safari/537.36",25,"[0.9, 0.5, 0.1]","[0.8, 0.4, 0.2]","[u'black', u'blue', u'red']","[u'left', u'middle', u'right']","[0.9, 0.5, 0.1]","[u'high', u'low', u'medium']","blue",50,"middle","low","False","False",2,1150,NA
"AVBRJBJONL47I","Wed Jan 29 2020 10:17:07 GMT-0800 (Pacific Standard Time)","Wed Jan 29 2020 10:24:02 GMT-0800 (Pacific Standard Time)","Mozilla/5.0 (Macintosh; Intel Mac OS X 10_14_6) AppleWebKit/537.36 (KHTML, like Gecko) Chrome/79.0.3945.130 Safari/537.36",26,"[0.9, 0.5, 0.1]","[0.8, 0.4, 0.2]","[u'black', u'blue', u'red']","[u'left', u'middle', u'right']","[0.9, 0.5, 0.1]","[u'high', u'low', u'medium']","red",51,"right","medium","True","False",332,1250,NA
"AVBRJBJONL47I","Wed Jan 29 2020 10:17:07 GMT-0800 (Pacific Standard Time)","Wed Jan 29 2020 10:24:02 GMT-0800 (Pacific Standard Time)","Mozilla/5.0 (Macintosh; Intel Mac OS X 10_14_6) AppleWebKit/537.36 (KHTML, like Gecko) Chrome/79.0.3945.130 Safari/537.36",27,"[0.9, 0.5, 0.1]","[0.8, 0.4, 0.2]","[u'black', u'blue', u'red']","[u'left', u'middle', u'right']","[0.9, 0.5, 0.1]","[u'high', u'low', u'medium']","red",51,"right","medium","False","False",437,1200,NA
"AVBRJBJONL47I","Wed Jan 29 2020 10:17:07 GMT-0800 (Pacific Standard Time)","Wed Jan 29 2020 10:24:02 GMT-0800 (Pacific Standard Time)","Mozilla/5.0 (Macintosh; Intel Mac OS X 10_14_6) AppleWebKit/537.36 (KHTML, like Gecko) Chrome/79.0.3945.130 Safari/537.36",28,"[0.9, 0.5, 0.1]","[0.8, 0.4, 0.2]","[u'black', u'blue', u'red']","[u'left', u'middle', u'right']","[0.9, 0.5, 0.1]","[u'high', u'low', u'medium']","blue",50,"middle","low","False","False",335,1150,NA
"AVBRJBJONL47I","Wed Jan 29 2020 10:17:07 GMT-0800 (Pacific Standard Time)","Wed Jan 29 2020 10:24:02 GMT-0800 (Pacific Standard Time)","Mozilla/5.0 (Macintosh; Intel Mac OS X 10_14_6) AppleWebKit/537.36 (KHTML, like Gecko) Chrome/79.0.3945.130 Safari/537.36",29,"[0.9, 0.5, 0.1]","[0.8, 0.4, 0.2]","[u'black', u'blue', u'red']","[u'left', u'middle', u'right']","[0.9, 0.5, 0.1]","[u'high', u'low', u'medium']","red",51,"right","medium","False","False",197,1100,NA
"AVBRJBJONL47I","Wed Jan 29 2020 10:17:07 GMT-0800 (Pacific Standard Time)","Wed Jan 29 2020 10:24:02 GMT-0800 (Pacific Standard Time)","Mozilla/5.0 (Macintosh; Intel Mac OS X 10_14_6) AppleWebKit/537.36 (KHTML, like Gecko) Chrome/79.0.3945.130 Safari/537.36",30,"[0.9, 0.5, 0.1]","[0.8, 0.4, 0.2]","[u'black', u'blue', u'red']","[u'left', u'middle', u'right']","[0.9, 0.5, 0.1]","[u'high', u'low', u'medium']","black",49,"left","high","True","False",421,1200,NA
"AVBRJBJONL47I","Wed Jan 29 2020 10:17:07 GMT-0800 (Pacific Standard Time)","Wed Jan 29 2020 10:24:02 GMT-0800 (Pacific Standard Time)","Mozilla/5.0 (Macintosh; Intel Mac OS X 10_14_6) AppleWebKit/537.36 (KHTML, like Gecko) Chrome/79.0.3945.130 Safari/537.36",31,"[0.9, 0.5, 0.1]","[0.8, 0.4, 0.2]","[u'black', u'blue', u'red']","[u'left', u'middle', u'right']","[0.9, 0.5, 0.1]","[u'high', u'low', u'medium']","black",49,"left","high","True","False",433,1300,NA
"AVBRJBJONL47I","Wed Jan 29 2020 10:17:07 GMT-0800 (Pacific Standard Time)","Wed Jan 29 2020 10:24:02 GMT-0800 (Pacific Standard Time)","Mozilla/5.0 (Macintosh; Intel Mac OS X 10_14_6) AppleWebKit/537.36 (KHTML, like Gecko) Chrome/79.0.3945.130 Safari/537.36",32,"[0.9, 0.5, 0.1]","[0.8, 0.4, 0.2]","[u'black', u'blue', u'red']","[u'left', u'middle', u'right']","[0.9, 0.5, 0.1]","[u'high', u'low', u'medium']","black",49,"left","high","True","False",569,1400,NA
"AVBRJBJONL47I","Wed Jan 29 2020 10:17:07 GMT-0800 (Pacific Standard Time)","Wed Jan 29 2020 10:24:02 GMT-0800 (Pacific Standard Time)","Mozilla/5.0 (Macintosh; Intel Mac OS X 10_14_6) AppleWebKit/537.36 (KHTML, like Gecko) Chrome/79.0.3945.130 Safari/537.36",33,"[0.9, 0.5, 0.1]","[0.8, 0.4, 0.2]","[u'black', u'blue', u'red']","[u'left', u'middle', u'right']","[0.9, 0.5, 0.1]","[u'high', u'low', u'medium']","black",49,"left","high","True","False",668,1500,NA
"AVBRJBJONL47I","Wed Jan 29 2020 10:17:07 GMT-0800 (Pacific Standard Time)","Wed Jan 29 2020 10:24:02 GMT-0800 (Pacific Standard Time)","Mozilla/5.0 (Macintosh; Intel Mac OS X 10_14_6) AppleWebKit/537.36 (KHTML, like Gecko) Chrome/79.0.3945.130 Safari/537.36",34,"[0.9, 0.5, 0.1]","[0.8, 0.4, 0.2]","[u'black', u'blue', u'red']","[u'left', u'middle', u'right']","[0.9, 0.5, 0.1]","[u'high', u'low', u'medium']","black",49,"left","high","True","False",489,1600,NA
"AVBRJBJONL47I","Wed Jan 29 2020 10:17:07 GMT-0800 (Pacific Standard Time)","Wed Jan 29 2020 10:24:02 GMT-0800 (Pacific Standard Time)","Mozilla/5.0 (Macintosh; Intel Mac OS X 10_14_6) AppleWebKit/537.36 (KHTML, like Gecko) Chrome/79.0.3945.130 Safari/537.36",35,"[0.9, 0.5, 0.1]","[0.8, 0.4, 0.2]","[u'black', u'blue', u'red']","[u'left', u'middle', u'right']","[0.9, 0.5, 0.1]","[u'high', u'low', u'medium']","black",49,"left","high","True","False",634,1700,NA
"AVBRJBJONL47I","Wed Jan 29 2020 10:17:07 GMT-0800 (Pacific Standard Time)","Wed Jan 29 2020 10:24:02 GMT-0800 (Pacific Standard Time)","Mozilla/5.0 (Macintosh; Intel Mac OS X 10_14_6) AppleWebKit/537.36 (KHTML, like Gecko) Chrome/79.0.3945.130 Safari/537.36",36,"[0.9, 0.5, 0.1]","[0.8, 0.4, 0.2]","[u'black', u'blue', u'red']","[u'left', u'middle', u'right']","[0.9, 0.5, 0.1]","[u'high', u'low', u'medium']","black",49,"left","high","True","False",356,1800,NA
"AVBRJBJONL47I","Wed Jan 29 2020 10:17:07 GMT-0800 (Pacific Standard Time)","Wed Jan 29 2020 10:24:02 GMT-0800 (Pacific Standard Time)","Mozilla/5.0 (Macintosh; Intel Mac OS X 10_14_6) AppleWebKit/537.36 (KHTML, like Gecko) Chrome/79.0.3945.130 Safari/537.36",37,"[0.9, 0.5, 0.1]","[0.8, 0.4, 0.2]","[u'black', u'blue', u'red']","[u'left', u'middle', u'right']","[0.9, 0.5, 0.1]","[u'high', u'low', u'medium']","black",49,"left","high","True","False",403,1900,NA
"AVBRJBJONL47I","Wed Jan 29 2020 10:17:07 GMT-0800 (Pacific Standard Time)","Wed Jan 29 2020 10:24:02 GMT-0800 (Pacific Standard Time)","Mozilla/5.0 (Macintosh; Intel Mac OS X 10_14_6) AppleWebKit/537.36 (KHTML, like Gecko) Chrome/79.0.3945.130 Safari/537.36",38,"[0.9, 0.5, 0.1]","[0.8, 0.4, 0.2]","[u'black', u'blue', u'red']","[u'left', u'middle', u'right']","[0.9, 0.5, 0.1]","[u'high', u'low', u'medium']","black",49,"left","high","True","True",294,2000,NA
"AVBRJBJONL47I","Wed Jan 29 2020 10:17:07 GMT-0800 (Pacific Standard Time)","Wed Jan 29 2020 10:24:02 GMT-0800 (Pacific Standard Time)","Mozilla/5.0 (Macintosh; Intel Mac OS X 10_14_6) AppleWebKit/537.36 (KHTML, like Gecko) Chrome/79.0.3945.130 Safari/537.36",39,"[0.9, 0.5, 0.1]","[0.8, 0.4, 0.2]","[u'black', u'blue', u'red']","[u'left', u'middle', u'right']","[0.9, 0.5, 0.1]","[u'medium', u'high', u'low']","black",49,"left","medium","True","False",508,2100,NA
"AVBRJBJONL47I","Wed Jan 29 2020 10:17:07 GMT-0800 (Pacific Standard Time)","Wed Jan 29 2020 10:24:02 GMT-0800 (Pacific Standard Time)","Mozilla/5.0 (Macintosh; Intel Mac OS X 10_14_6) AppleWebKit/537.36 (KHTML, like Gecko) Chrome/79.0.3945.130 Safari/537.36",40,"[0.9, 0.5, 0.1]","[0.8, 0.4, 0.2]","[u'black', u'blue', u'red']","[u'left', u'middle', u'right']","[0.9, 0.5, 0.1]","[u'medium', u'high', u'low']","black",49,"left","medium","False","False",392,2050,NA
"AVBRJBJONL47I","Wed Jan 29 2020 10:17:07 GMT-0800 (Pacific Standard Time)","Wed Jan 29 2020 10:24:02 GMT-0800 (Pacific Standard Time)","Mozilla/5.0 (Macintosh; Intel Mac OS X 10_14_6) AppleWebKit/537.36 (KHTML, like Gecko) Chrome/79.0.3945.130 Safari/537.36",41,"[0.9, 0.5, 0.1]","[0.8, 0.4, 0.2]","[u'black', u'blue', u'red']","[u'left', u'middle', u'right']","[0.9, 0.5, 0.1]","[u'high', u'medium', u'low']","blue",50,"middle","medium","True","False",998,2150,NA
"AVBRJBJONL47I","Wed Jan 29 2020 10:17:07 GMT-0800 (Pacific Standard Time)","Wed Jan 29 2020 10:24:02 GMT-0800 (Pacific Standard Time)","Mozilla/5.0 (Macintosh; Intel Mac OS X 10_14_6) AppleWebKit/537.36 (KHTML, like Gecko) Chrome/79.0.3945.130 Safari/537.36",42,"[0.9, 0.5, 0.1]","[0.8, 0.4, 0.2]","[u'black', u'blue', u'red']","[u'left', u'middle', u'right']","[0.9, 0.5, 0.1]","[u'high', u'medium', u'low']","blue",50,"middle","medium","False","False",364,2100,NA
"AVBRJBJONL47I","Wed Jan 29 2020 10:17:07 GMT-0800 (Pacific Standard Time)","Wed Jan 29 2020 10:24:02 GMT-0800 (Pacific Standard Time)","Mozilla/5.0 (Macintosh; Intel Mac OS X 10_14_6) AppleWebKit/537.36 (KHTML, like Gecko) Chrome/79.0.3945.130 Safari/537.36",43,"[0.9, 0.5, 0.1]","[0.8, 0.4, 0.2]","[u'black', u'blue', u'red']","[u'left', u'middle', u'right']","[0.9, 0.5, 0.1]","[u'high', u'medium', u'low']","red",51,"right","low","False","False",325,2050,NA
"AVBRJBJONL47I","Wed Jan 29 2020 10:17:07 GMT-0800 (Pacific Standard Time)","Wed Jan 29 2020 10:24:02 GMT-0800 (Pacific Standard Time)","Mozilla/5.0 (Macintosh; Intel Mac OS X 10_14_6) AppleWebKit/537.36 (KHTML, like Gecko) Chrome/79.0.3945.130 Safari/537.36",44,"[0.9, 0.5, 0.1]","[0.8, 0.4, 0.2]","[u'black', u'blue', u'red']","[u'left', u'middle', u'right']","[0.9, 0.5, 0.1]","[u'high', u'medium', u'low']","black",49,"left","high","True","False",323,2150,NA
"AVBRJBJONL47I","Wed Jan 29 2020 10:17:07 GMT-0800 (Pacific Standard Time)","Wed Jan 29 2020 10:24:02 GMT-0800 (Pacific Standard Time)","Mozilla/5.0 (Macintosh; Intel Mac OS X 10_14_6) AppleWebKit/537.36 (KHTML, like Gecko) Chrome/79.0.3945.130 Safari/537.36",45,"[0.9, 0.5, 0.1]","[0.8, 0.4, 0.2]","[u'black', u'blue', u'red']","[u'left', u'middle', u'right']","[0.9, 0.5, 0.1]","[u'high', u'medium', u'low']","black",49,"left","high","True","False",351,2250,NA
"AVBRJBJONL47I","Wed Jan 29 2020 10:17:07 GMT-0800 (Pacific Standard Time)","Wed Jan 29 2020 10:24:02 GMT-0800 (Pacific Standard Time)","Mozilla/5.0 (Macintosh; Intel Mac OS X 10_14_6) AppleWebKit/537.36 (KHTML, like Gecko) Chrome/79.0.3945.130 Safari/537.36",46,"[0.9, 0.5, 0.1]","[0.8, 0.4, 0.2]","[u'black', u'blue', u'red']","[u'left', u'middle', u'right']","[0.9, 0.5, 0.1]","[u'high', u'medium', u'low']","black",49,"left","high","True","False",458,2350,NA
"AVBRJBJONL47I","Wed Jan 29 2020 10:17:07 GMT-0800 (Pacific Standard Time)","Wed Jan 29 2020 10:24:02 GMT-0800 (Pacific Standard Time)","Mozilla/5.0 (Macintosh; Intel Mac OS X 10_14_6) AppleWebKit/537.36 (KHTML, like Gecko) Chrome/79.0.3945.130 Safari/537.36",47,"[0.9, 0.5, 0.1]","[0.8, 0.4, 0.2]","[u'black', u'blue', u'red']","[u'left', u'middle', u'right']","[0.9, 0.5, 0.1]","[u'high', u'medium', u'low']","black",49,"left","high","True","False",404,2450,NA
"AVBRJBJONL47I","Wed Jan 29 2020 10:17:07 GMT-0800 (Pacific Standard Time)","Wed Jan 29 2020 10:24:02 GMT-0800 (Pacific Standard Time)","Mozilla/5.0 (Macintosh; Intel Mac OS X 10_14_6) AppleWebKit/537.36 (KHTML, like Gecko) Chrome/79.0.3945.130 Safari/537.36",48,"[0.9, 0.5, 0.1]","[0.8, 0.4, 0.2]","[u'black', u'blue', u'red']","[u'left', u'middle', u'right']","[0.9, 0.5, 0.1]","[u'high', u'medium', u'low']","black",49,"left","high","True","False",409,2550,NA
"AVBRJBJONL47I","Wed Jan 29 2020 10:17:07 GMT-0800 (Pacific Standard Time)","Wed Jan 29 2020 10:24:02 GMT-0800 (Pacific Standard Time)","Mozilla/5.0 (Macintosh; Intel Mac OS X 10_14_6) AppleWebKit/537.36 (KHTML, like Gecko) Chrome/79.0.3945.130 Safari/537.36",49,"[0.9, 0.5, 0.1]","[0.8, 0.4, 0.2]","[u'black', u'blue', u'red']","[u'left', u'middle', u'right']","[0.9, 0.5, 0.1]","[u'high', u'medium', u'low']","black",49,"left","high","True","False",384,2650,NA
"AVBRJBJONL47I","Wed Jan 29 2020 10:17:07 GMT-0800 (Pacific Standard Time)","Wed Jan 29 2020 10:24:02 GMT-0800 (Pacific Standard Time)","Mozilla/5.0 (Macintosh; Intel Mac OS X 10_14_6) AppleWebKit/537.36 (KHTML, like Gecko) Chrome/79.0.3945.130 Safari/537.36",50,"[0.9, 0.5, 0.1]","[0.8, 0.4, 0.2]","[u'black', u'blue', u'red']","[u'left', u'middle', u'right']","[0.9, 0.5, 0.1]","[u'high', u'medium', u'low']","black",49,"left","high","True","False",404,2750,NA
"AVBRJBJONL47I","Wed Jan 29 2020 10:17:07 GMT-0800 (Pacific Standard Time)","Wed Jan 29 2020 10:24:02 GMT-0800 (Pacific Standard Time)","Mozilla/5.0 (Macintosh; Intel Mac OS X 10_14_6) AppleWebKit/537.36 (KHTML, like Gecko) Chrome/79.0.3945.130 Safari/537.36",51,"[0.9, 0.5, 0.1]","[0.8, 0.4, 0.2]","[u'black', u'blue', u'red']","[u'left', u'middle', u'right']","[0.9, 0.5, 0.1]","[u'high', u'medium', u'low']","black",49,"left","high","True","False",394,2850,NA
"AVBRJBJONL47I","Wed Jan 29 2020 10:17:07 GMT-0800 (Pacific Standard Time)","Wed Jan 29 2020 10:24:02 GMT-0800 (Pacific Standard Time)","Mozilla/5.0 (Macintosh; Intel Mac OS X 10_14_6) AppleWebKit/537.36 (KHTML, like Gecko) Chrome/79.0.3945.130 Safari/537.36",52,"[0.9, 0.5, 0.1]","[0.8, 0.4, 0.2]","[u'black', u'blue', u'red']","[u'left', u'middle', u'right']","[0.9, 0.5, 0.1]","[u'high', u'medium', u'low']","black",49,"left","high","False","True",398,2800,NA
"AVBRJBJONL47I","Wed Jan 29 2020 10:17:07 GMT-0800 (Pacific Standard Time)","Wed Jan 29 2020 10:24:02 GMT-0800 (Pacific Standard Time)","Mozilla/5.0 (Macintosh; Intel Mac OS X 10_14_6) AppleWebKit/537.36 (KHTML, like Gecko) Chrome/79.0.3945.130 Safari/537.36",53,"[0.9, 0.5, 0.1]","[0.8, 0.4, 0.2]","[u'black', u'blue', u'red']","[u'left', u'middle', u'right']","[0.9, 0.5, 0.1]","[u'low', u'medium', u'high']","red",51,"right","high","True","False",204,2900,NA
"AVBRJBJONL47I","Wed Jan 29 2020 10:17:07 GMT-0800 (Pacific Standard Time)","Wed Jan 29 2020 10:24:02 GMT-0800 (Pacific Standard Time)","Mozilla/5.0 (Macintosh; Intel Mac OS X 10_14_6) AppleWebKit/537.36 (KHTML, like Gecko) Chrome/79.0.3945.130 Safari/537.36",54,"[0.9, 0.5, 0.1]","[0.8, 0.4, 0.2]","[u'black', u'blue', u'red']","[u'left', u'middle', u'right']","[0.9, 0.5, 0.1]","[u'low', u'medium', u'high']","red",51,"right","high","True","False",153,3000,NA
"AVBRJBJONL47I","Wed Jan 29 2020 10:17:07 GMT-0800 (Pacific Standard Time)","Wed Jan 29 2020 10:24:02 GMT-0800 (Pacific Standard Time)","Mozilla/5.0 (Macintosh; Intel Mac OS X 10_14_6) AppleWebKit/537.36 (KHTML, like Gecko) Chrome/79.0.3945.130 Safari/537.36",55,"[0.9, 0.5, 0.1]","[0.8, 0.4, 0.2]","[u'black', u'blue', u'red']","[u'left', u'middle', u'right']","[0.9, 0.5, 0.1]","[u'low', u'medium', u'high']","red",51,"right","high","True","False",283,3100,NA
"AVBRJBJONL47I","Wed Jan 29 2020 10:17:07 GMT-0800 (Pacific Standard Time)","Wed Jan 29 2020 10:24:02 GMT-0800 (Pacific Standard Time)","Mozilla/5.0 (Macintosh; Intel Mac OS X 10_14_6) AppleWebKit/537.36 (KHTML, like Gecko) Chrome/79.0.3945.130 Safari/537.36",56,"[0.9, 0.5, 0.1]","[0.8, 0.4, 0.2]","[u'black', u'blue', u'red']","[u'left', u'middle', u'right']","[0.9, 0.5, 0.1]","[u'low', u'medium', u'high']","red",51,"right","high","True","False",65,3200,NA
"AVBRJBJONL47I","Wed Jan 29 2020 10:17:07 GMT-0800 (Pacific Standard Time)","Wed Jan 29 2020 10:24:02 GMT-0800 (Pacific Standard Time)","Mozilla/5.0 (Macintosh; Intel Mac OS X 10_14_6) AppleWebKit/537.36 (KHTML, like Gecko) Chrome/79.0.3945.130 Safari/537.36",57,"[0.9, 0.5, 0.1]","[0.8, 0.4, 0.2]","[u'black', u'blue', u'red']","[u'left', u'middle', u'right']","[0.9, 0.5, 0.1]","[u'low', u'medium', u'high']","red",51,"right","high","True","False",333,3300,NA
"AVBRJBJONL47I","Wed Jan 29 2020 10:17:07 GMT-0800 (Pacific Standard Time)","Wed Jan 29 2020 10:24:02 GMT-0800 (Pacific Standard Time)","Mozilla/5.0 (Macintosh; Intel Mac OS X 10_14_6) AppleWebKit/537.36 (KHTML, like Gecko) Chrome/79.0.3945.130 Safari/537.36",58,"[0.9, 0.5, 0.1]","[0.8, 0.4, 0.2]","[u'black', u'blue', u'red']","[u'left', u'middle', u'right']","[0.9, 0.5, 0.1]","[u'low', u'medium', u'high']","red",51,"right","high","True","False",309,3400,NA
"AVBRJBJONL47I","Wed Jan 29 2020 10:17:07 GMT-0800 (Pacific Standard Time)","Wed Jan 29 2020 10:24:02 GMT-0800 (Pacific Standard Time)","Mozilla/5.0 (Macintosh; Intel Mac OS X 10_14_6) AppleWebKit/537.36 (KHTML, like Gecko) Chrome/79.0.3945.130 Safari/537.36",59,"[0.9, 0.5, 0.1]","[0.8, 0.4, 0.2]","[u'black', u'blue', u'red']","[u'left', u'middle', u'right']","[0.9, 0.5, 0.1]","[u'low', u'medium', u'high']","red",51,"right","high","True","False",291,3500,NA
"AVBRJBJONL47I","Wed Jan 29 2020 10:17:07 GMT-0800 (Pacific Standard Time)","Wed Jan 29 2020 10:24:02 GMT-0800 (Pacific Standard Time)","Mozilla/5.0 (Macintosh; Intel Mac OS X 10_14_6) AppleWebKit/537.36 (KHTML, like Gecko) Chrome/79.0.3945.130 Safari/537.36",60,"[0.9, 0.5, 0.1]","[0.8, 0.4, 0.2]","[u'black', u'blue', u'red']","[u'left', u'middle', u'right']","[0.9, 0.5, 0.1]","[u'low', u'medium', u'high']","red",51,"right","high","False","False",286,3450,NA
"AVBRJBJONL47I","Wed Jan 29 2020 10:17:07 GMT-0800 (Pacific Standard Time)","Wed Jan 29 2020 10:24:02 GMT-0800 (Pacific Standard Time)","Mozilla/5.0 (Macintosh; Intel Mac OS X 10_14_6) AppleWebKit/537.36 (KHTML, like Gecko) Chrome/79.0.3945.130 Safari/537.36",61,"[0.9, 0.5, 0.1]","[0.8, 0.4, 0.2]","[u'black', u'blue', u'red']","[u'left', u'middle', u'right']","[0.9, 0.5, 0.1]","[u'low', u'medium', u'high']","black",49,"left","low","True","False",344,3550,NA
"AVBRJBJONL47I","Wed Jan 29 2020 10:17:07 GMT-0800 (Pacific Standard Time)","Wed Jan 29 2020 10:24:02 GMT-0800 (Pacific Standard Time)","Mozilla/5.0 (Macintosh; Intel Mac OS X 10_14_6) AppleWebKit/537.36 (KHTML, like Gecko) Chrome/79.0.3945.130 Safari/537.36",62,"[0.9, 0.5, 0.1]","[0.8, 0.4, 0.2]","[u'black', u'blue', u'red']","[u'left', u'middle', u'right']","[0.9, 0.5, 0.1]","[u'low', u'medium', u'high']","black",49,"left","low","False","False",530,3500,NA
"AVBRJBJONL47I","Wed Jan 29 2020 10:17:07 GMT-0800 (Pacific Standard Time)","Wed Jan 29 2020 10:24:02 GMT-0800 (Pacific Standard Time)","Mozilla/5.0 (Macintosh; Intel Mac OS X 10_14_6) AppleWebKit/537.36 (KHTML, like Gecko) Chrome/79.0.3945.130 Safari/537.36",63,"[0.9, 0.5, 0.1]","[0.8, 0.4, 0.2]","[u'black', u'blue', u'red']","[u'left', u'middle', u'right']","[0.9, 0.5, 0.1]","[u'low', u'medium', u'high']","blue",50,"middle","medium","False","False",425,3450,NA
"AVBRJBJONL47I","Wed Jan 29 2020 10:17:07 GMT-0800 (Pacific Standard Time)","Wed Jan 29 2020 10:24:02 GMT-0800 (Pacific Standard Time)","Mozilla/5.0 (Macintosh; Intel Mac OS X 10_14_6) AppleWebKit/537.36 (KHTML, like Gecko) Chrome/79.0.3945.130 Safari/537.36",64,"[0.9, 0.5, 0.1]","[0.8, 0.4, 0.2]","[u'black', u'blue', u'red']","[u'left', u'middle', u'right']","[0.9, 0.5, 0.1]","[u'low', u'medium', u'high']","black",49,"left","low","False","False",89,3400,NA
"AVBRJBJONL47I","Wed Jan 29 2020 10:17:07 GMT-0800 (Pacific Standard Time)","Wed Jan 29 2020 10:24:02 GMT-0800 (Pacific Standard Time)","Mozilla/5.0 (Macintosh; Intel Mac OS X 10_14_6) AppleWebKit/537.36 (KHTML, like Gecko) Chrome/79.0.3945.130 Safari/537.36",65,"[0.9, 0.5, 0.1]","[0.8, 0.4, 0.2]","[u'black', u'blue', u'red']","[u'left', u'middle', u'right']","[0.9, 0.5, 0.1]","[u'low', u'medium', u'high']","red",51,"right","high","False","False",424,3350,NA
"AVBRJBJONL47I","Wed Jan 29 2020 10:17:07 GMT-0800 (Pacific Standard Time)","Wed Jan 29 2020 10:24:02 GMT-0800 (Pacific Standard Time)","Mozilla/5.0 (Macintosh; Intel Mac OS X 10_14_6) AppleWebKit/537.36 (KHTML, like Gecko) Chrome/79.0.3945.130 Safari/537.36",66,"[0.9, 0.5, 0.1]","[0.8, 0.4, 0.2]","[u'black', u'blue', u'red']","[u'left', u'middle', u'right']","[0.9, 0.5, 0.1]","[u'low', u'medium', u'high']","black",49,"left","low","False","False",431,3300,NA
"AVBRJBJONL47I","Wed Jan 29 2020 10:17:07 GMT-0800 (Pacific Standard Time)","Wed Jan 29 2020 10:24:02 GMT-0800 (Pacific Standard Time)","Mozilla/5.0 (Macintosh; Intel Mac OS X 10_14_6) AppleWebKit/537.36 (KHTML, like Gecko) Chrome/79.0.3945.130 Safari/537.36",67,"[0.9, 0.5, 0.1]","[0.8, 0.4, 0.2]","[u'black', u'blue', u'red']","[u'left', u'middle', u'right']","[0.9, 0.5, 0.1]","[u'low', u'medium', u'high']","red",51,"right","high","True","False",364,3400,NA
"AVBRJBJONL47I","Wed Jan 29 2020 10:17:07 GMT-0800 (Pacific Standard Time)","Wed Jan 29 2020 10:24:02 GMT-0800 (Pacific Standard Time)","Mozilla/5.0 (Macintosh; Intel Mac OS X 10_14_6) AppleWebKit/537.36 (KHTML, like Gecko) Chrome/79.0.3945.130 Safari/537.36",68,"[0.9, 0.5, 0.1]","[0.8, 0.4, 0.2]","[u'black', u'blue', u'red']","[u'left', u'middle', u'right']","[0.9, 0.5, 0.1]","[u'low', u'medium', u'high']","red",51,"right","high","True","False",281,3500,NA
"AVBRJBJONL47I","Wed Jan 29 2020 10:17:07 GMT-0800 (Pacific Standard Time)","Wed Jan 29 2020 10:24:02 GMT-0800 (Pacific Standard Time)","Mozilla/5.0 (Macintosh; Intel Mac OS X 10_14_6) AppleWebKit/537.36 (KHTML, like Gecko) Chrome/79.0.3945.130 Safari/537.36",69,"[0.9, 0.5, 0.1]","[0.8, 0.4, 0.2]","[u'black', u'blue', u'red']","[u'left', u'middle', u'right']","[0.9, 0.5, 0.1]","[u'low', u'medium', u'high']","red",51,"right","high","True","False",420,3600,NA
"AVBRJBJONL47I","Wed Jan 29 2020 10:17:07 GMT-0800 (Pacific Standard Time)","Wed Jan 29 2020 10:24:02 GMT-0800 (Pacific Standard Time)","Mozilla/5.0 (Macintosh; Intel Mac OS X 10_14_6) AppleWebKit/537.36 (KHTML, like Gecko) Chrome/79.0.3945.130 Safari/537.36",70,"[0.9, 0.5, 0.1]","[0.8, 0.4, 0.2]","[u'black', u'blue', u'red']","[u'left', u'middle', u'right']","[0.9, 0.5, 0.1]","[u'low', u'medium', u'high']","red",51,"right","high","True","False",333,3700,NA
"AVBRJBJONL47I","Wed Jan 29 2020 10:17:07 GMT-0800 (Pacific Standard Time)","Wed Jan 29 2020 10:24:02 GMT-0800 (Pacific Standard Time)","Mozilla/5.0 (Macintosh; Intel Mac OS X 10_14_6) AppleWebKit/537.36 (KHTML, like Gecko) Chrome/79.0.3945.130 Safari/537.36",71,"[0.9, 0.5, 0.1]","[0.8, 0.4, 0.2]","[u'black', u'blue', u'red']","[u'left', u'middle', u'right']","[0.9, 0.5, 0.1]","[u'low', u'medium', u'high']","red",51,"right","high","False","False",272,3650,NA
"AVBRJBJONL47I","Wed Jan 29 2020 10:17:07 GMT-0800 (Pacific Standard Time)","Wed Jan 29 2020 10:24:02 GMT-0800 (Pacific Standard Time)","Mozilla/5.0 (Macintosh; Intel Mac OS X 10_14_6) AppleWebKit/537.36 (KHTML, like Gecko) Chrome/79.0.3945.130 Safari/537.36",72,"[0.9, 0.5, 0.1]","[0.8, 0.4, 0.2]","[u'black', u'blue', u'red']","[u'left', u'middle', u'right']","[0.9, 0.5, 0.1]","[u'low', u'medium', u'high']","black",49,"left","low","False","False",38,3600,NA
"AVBRJBJONL47I","Wed Jan 29 2020 10:17:07 GMT-0800 (Pacific Standard Time)","Wed Jan 29 2020 10:24:02 GMT-0800 (Pacific Standard Time)","Mozilla/5.0 (Macintosh; Intel Mac OS X 10_14_6) AppleWebKit/537.36 (KHTML, like Gecko) Chrome/79.0.3945.130 Safari/537.36",73,"[0.9, 0.5, 0.1]","[0.8, 0.4, 0.2]","[u'black', u'blue', u'red']","[u'left', u'middle', u'right']","[0.9, 0.5, 0.1]","[u'low', u'medium', u'high']","blue",50,"middle","medium","True","False",621,3700,NA
"AVBRJBJONL47I","Wed Jan 29 2020 10:17:07 GMT-0800 (Pacific Standard Time)","Wed Jan 29 2020 10:24:02 GMT-0800 (Pacific Standard Time)","Mozilla/5.0 (Macintosh; Intel Mac OS X 10_14_6) AppleWebKit/537.36 (KHTML, like Gecko) Chrome/79.0.3945.130 Safari/537.36",74,"[0.9, 0.5, 0.1]","[0.8, 0.4, 0.2]","[u'black', u'blue', u'red']","[u'left', u'middle', u'right']","[0.9, 0.5, 0.1]","[u'low', u'medium', u'high']","blue",50,"middle","medium","False","False",448,3650,NA
"AVBRJBJONL47I","Wed Jan 29 2020 10:17:07 GMT-0800 (Pacific Standard Time)","Wed Jan 29 2020 10:24:02 GMT-0800 (Pacific Standard Time)","Mozilla/5.0 (Macintosh; Intel Mac OS X 10_14_6) AppleWebKit/537.36 (KHTML, like Gecko) Chrome/79.0.3945.130 Safari/537.36",75,"[0.9, 0.5, 0.1]","[0.8, 0.4, 0.2]","[u'black', u'blue', u'red']","[u'left', u'middle', u'right']","[0.9, 0.5, 0.1]","[u'low', u'medium', u'high']","black",49,"left","low","False","False",270,3600,NA
"AVBRJBJONL47I","Wed Jan 29 2020 10:17:07 GMT-0800 (Pacific Standard Time)","Wed Jan 29 2020 10:24:02 GMT-0800 (Pacific Standard Time)","Mozilla/5.0 (Macintosh; Intel Mac OS X 10_14_6) AppleWebKit/537.36 (KHTML, like Gecko) Chrome/79.0.3945.130 Safari/537.36",76,"[0.9, 0.5, 0.1]","[0.8, 0.4, 0.2]","[u'black', u'blue', u'red']","[u'left', u'middle', u'right']","[0.9, 0.5, 0.1]","[u'low', u'medium', u'high']","red",51,"right","high","True","False",547,3700,NA
"AVBRJBJONL47I","Wed Jan 29 2020 10:17:07 GMT-0800 (Pacific Standard Time)","Wed Jan 29 2020 10:24:02 GMT-0800 (Pacific Standard Time)","Mozilla/5.0 (Macintosh; Intel Mac OS X 10_14_6) AppleWebKit/537.36 (KHTML, like Gecko) Chrome/79.0.3945.130 Safari/537.36",77,"[0.9, 0.5, 0.1]","[0.8, 0.4, 0.2]","[u'black', u'blue', u'red']","[u'left', u'middle', u'right']","[0.9, 0.5, 0.1]","[u'low', u'medium', u'high']","red",51,"right","high","True","False",128,3800,NA
"AVBRJBJONL47I","Wed Jan 29 2020 10:17:07 GMT-0800 (Pacific Standard Time)","Wed Jan 29 2020 10:24:02 GMT-0800 (Pacific Standard Time)","Mozilla/5.0 (Macintosh; Intel Mac OS X 10_14_6) AppleWebKit/537.36 (KHTML, like Gecko) Chrome/79.0.3945.130 Safari/537.36",78,"[0.9, 0.5, 0.1]","[0.8, 0.4, 0.2]","[u'black', u'blue', u'red']","[u'left', u'middle', u'right']","[0.9, 0.5, 0.1]","[u'low', u'medium', u'high']","red",51,"right","high","True","False",321,3900,NA
"AVBRJBJONL47I","Wed Jan 29 2020 10:17:07 GMT-0800 (Pacific Standard Time)","Wed Jan 29 2020 10:24:02 GMT-0800 (Pacific Standard Time)","Mozilla/5.0 (Macintosh; Intel Mac OS X 10_14_6) AppleWebKit/537.36 (KHTML, like Gecko) Chrome/79.0.3945.130 Safari/537.36",79,"[0.9, 0.5, 0.1]","[0.8, 0.4, 0.2]","[u'black', u'blue', u'red']","[u'left', u'middle', u'right']","[0.9, 0.5, 0.1]","[u'low', u'medium', u'high']","red",51,"right","high","True","False",375,4000,NA
"AVBRJBJONL47I","Wed Jan 29 2020 10:17:07 GMT-0800 (Pacific Standard Time)","Wed Jan 29 2020 10:24:02 GMT-0800 (Pacific Standard Time)","Mozilla/5.0 (Macintosh; Intel Mac OS X 10_14_6) AppleWebKit/537.36 (KHTML, like Gecko) Chrome/79.0.3945.130 Safari/537.36",80,"[0.9, 0.5, 0.1]","[0.8, 0.4, 0.2]","[u'black', u'blue', u'red']","[u'left', u'middle', u'right']","[0.9, 0.5, 0.1]","[u'low', u'medium', u'high']","red",51,"right","high","True","False",373,4100,NA
"AVBRJBJONL47I","Wed Jan 29 2020 10:17:07 GMT-0800 (Pacific Standard Time)","Wed Jan 29 2020 10:24:02 GMT-0800 (Pacific Standard Time)","Mozilla/5.0 (Macintosh; Intel Mac OS X 10_14_6) AppleWebKit/537.36 (KHTML, like Gecko) Chrome/79.0.3945.130 Safari/537.36",81,"[0.9, 0.5, 0.1]","[0.8, 0.4, 0.2]","[u'black', u'blue', u'red']","[u'left', u'middle', u'right']","[0.8, 0.4, 0.2]","[u'high', u'low', u'medium']","black",49,"left","high","True","False",590,4200,NA
"AVBRJBJONL47I","Wed Jan 29 2020 10:17:07 GMT-0800 (Pacific Standard Time)","Wed Jan 29 2020 10:24:02 GMT-0800 (Pacific Standard Time)","Mozilla/5.0 (Macintosh; Intel Mac OS X 10_14_6) AppleWebKit/537.36 (KHTML, like Gecko) Chrome/79.0.3945.130 Safari/537.36",82,"[0.9, 0.5, 0.1]","[0.8, 0.4, 0.2]","[u'black', u'blue', u'red']","[u'left', u'middle', u'right']","[0.8, 0.4, 0.2]","[u'high', u'low', u'medium']","black",49,"left","high","True","False",401,4300,NA
"AVBRJBJONL47I","Wed Jan 29 2020 10:17:07 GMT-0800 (Pacific Standard Time)","Wed Jan 29 2020 10:24:02 GMT-0800 (Pacific Standard Time)","Mozilla/5.0 (Macintosh; Intel Mac OS X 10_14_6) AppleWebKit/537.36 (KHTML, like Gecko) Chrome/79.0.3945.130 Safari/537.36",83,"[0.9, 0.5, 0.1]","[0.8, 0.4, 0.2]","[u'black', u'blue', u'red']","[u'left', u'middle', u'right']","[0.8, 0.4, 0.2]","[u'high', u'low', u'medium']","black",49,"left","high","False","False",266,4250,NA
"AVBRJBJONL47I","Wed Jan 29 2020 10:17:07 GMT-0800 (Pacific Standard Time)","Wed Jan 29 2020 10:24:02 GMT-0800 (Pacific Standard Time)","Mozilla/5.0 (Macintosh; Intel Mac OS X 10_14_6) AppleWebKit/537.36 (KHTML, like Gecko) Chrome/79.0.3945.130 Safari/537.36",84,"[0.9, 0.5, 0.1]","[0.8, 0.4, 0.2]","[u'black', u'blue', u'red']","[u'left', u'middle', u'right']","[0.8, 0.4, 0.2]","[u'high', u'low', u'medium']","blue",50,"middle","low","False","False",393,4200,NA
"AVBRJBJONL47I","Wed Jan 29 2020 10:17:07 GMT-0800 (Pacific Standard Time)","Wed Jan 29 2020 10:24:02 GMT-0800 (Pacific Standard Time)","Mozilla/5.0 (Macintosh; Intel Mac OS X 10_14_6) AppleWebKit/537.36 (KHTML, like Gecko) Chrome/79.0.3945.130 Safari/537.36",85,"[0.9, 0.5, 0.1]","[0.8, 0.4, 0.2]","[u'black', u'blue', u'red']","[u'left', u'middle', u'right']","[0.8, 0.4, 0.2]","[u'high', u'low', u'medium']","blue",50,"middle","low","False","False",226,4150,NA
"AVBRJBJONL47I","Wed Jan 29 2020 10:17:07 GMT-0800 (Pacific Standard Time)","Wed Jan 29 2020 10:24:02 GMT-0800 (Pacific Standard Time)","Mozilla/5.0 (Macintosh; Intel Mac OS X 10_14_6) AppleWebKit/537.36 (KHTML, like Gecko) Chrome/79.0.3945.130 Safari/537.36",86,"[0.9, 0.5, 0.1]","[0.8, 0.4, 0.2]","[u'black', u'blue', u'red']","[u'left', u'middle', u'right']","[0.8, 0.4, 0.2]","[u'high', u'low', u'medium']","red",51,"right","medium","True","False",462,4250,NA
"AVBRJBJONL47I","Wed Jan 29 2020 10:17:07 GMT-0800 (Pacific Standard Time)","Wed Jan 29 2020 10:24:02 GMT-0800 (Pacific Standard Time)","Mozilla/5.0 (Macintosh; Intel Mac OS X 10_14_6) AppleWebKit/537.36 (KHTML, like Gecko) Chrome/79.0.3945.130 Safari/537.36",87,"[0.9, 0.5, 0.1]","[0.8, 0.4, 0.2]","[u'black', u'blue', u'red']","[u'left', u'middle', u'right']","[0.8, 0.4, 0.2]","[u'high', u'low', u'medium']","red",51,"right","medium","False","False",396,4200,NA
"AVBRJBJONL47I","Wed Jan 29 2020 10:17:07 GMT-0800 (Pacific Standard Time)","Wed Jan 29 2020 10:24:02 GMT-0800 (Pacific Standard Time)","Mozilla/5.0 (Macintosh; Intel Mac OS X 10_14_6) AppleWebKit/537.36 (KHTML, like Gecko) Chrome/79.0.3945.130 Safari/537.36",88,"[0.9, 0.5, 0.1]","[0.8, 0.4, 0.2]","[u'black', u'blue', u'red']","[u'left', u'middle', u'right']","[0.8, 0.4, 0.2]","[u'high', u'low', u'medium']","black",49,"left","high","False","False",352,4150,NA
"AVBRJBJONL47I","Wed Jan 29 2020 10:17:07 GMT-0800 (Pacific Standard Time)","Wed Jan 29 2020 10:24:02 GMT-0800 (Pacific Standard Time)","Mozilla/5.0 (Macintosh; Intel Mac OS X 10_14_6) AppleWebKit/537.36 (KHTML, like Gecko) Chrome/79.0.3945.130 Safari/537.36",89,"[0.9, 0.5, 0.1]","[0.8, 0.4, 0.2]","[u'black', u'blue', u'red']","[u'left', u'middle', u'right']","[0.8, 0.4, 0.2]","[u'high', u'low', u'medium']","blue",50,"middle","low","False","False",470,4100,NA
"AVBRJBJONL47I","Wed Jan 29 2020 10:17:07 GMT-0800 (Pacific Standard Time)","Wed Jan 29 2020 10:24:02 GMT-0800 (Pacific Standard Time)","Mozilla/5.0 (Macintosh; Intel Mac OS X 10_14_6) AppleWebKit/537.36 (KHTML, like Gecko) Chrome/79.0.3945.130 Safari/537.36",90,"[0.9, 0.5, 0.1]","[0.8, 0.4, 0.2]","[u'black', u'blue', u'red']","[u'left', u'middle', u'right']","[0.8, 0.4, 0.2]","[u'high', u'low', u'medium']","red",51,"right","medium","False","False",377,4050,NA
"AVBRJBJONL47I","Wed Jan 29 2020 10:17:07 GMT-0800 (Pacific Standard Time)","Wed Jan 29 2020 10:24:02 GMT-0800 (Pacific Standard Time)","Mozilla/5.0 (Macintosh; Intel Mac OS X 10_14_6) AppleWebKit/537.36 (KHTML, like Gecko) Chrome/79.0.3945.130 Safari/537.36",91,"[0.9, 0.5, 0.1]","[0.8, 0.4, 0.2]","[u'black', u'blue', u'red']","[u'left', u'middle', u'right']","[0.8, 0.4, 0.2]","[u'high', u'low', u'medium']","black",49,"left","high","True","False",255,4150,NA
"AVBRJBJONL47I","Wed Jan 29 2020 10:17:07 GMT-0800 (Pacific Standard Time)","Wed Jan 29 2020 10:24:02 GMT-0800 (Pacific Standard Time)","Mozilla/5.0 (Macintosh; Intel Mac OS X 10_14_6) AppleWebKit/537.36 (KHTML, like Gecko) Chrome/79.0.3945.130 Safari/537.36",92,"[0.9, 0.5, 0.1]","[0.8, 0.4, 0.2]","[u'black', u'blue', u'red']","[u'left', u'middle', u'right']","[0.8, 0.4, 0.2]","[u'high', u'low', u'medium']","black",49,"left","high","True","False",320,4250,NA
"AVBRJBJONL47I","Wed Jan 29 2020 10:17:07 GMT-0800 (Pacific Standard Time)","Wed Jan 29 2020 10:24:02 GMT-0800 (Pacific Standard Time)","Mozilla/5.0 (Macintosh; Intel Mac OS X 10_14_6) AppleWebKit/537.36 (KHTML, like Gecko) Chrome/79.0.3945.130 Safari/537.36",93,"[0.9, 0.5, 0.1]","[0.8, 0.4, 0.2]","[u'black', u'blue', u'red']","[u'left', u'middle', u'right']","[0.8, 0.4, 0.2]","[u'high', u'low', u'medium']","black",49,"left","high","True","False",368,4350,NA
"AVBRJBJONL47I","Wed Jan 29 2020 10:17:07 GMT-0800 (Pacific Standard Time)","Wed Jan 29 2020 10:24:02 GMT-0800 (Pacific Standard Time)","Mozilla/5.0 (Macintosh; Intel Mac OS X 10_14_6) AppleWebKit/537.36 (KHTML, like Gecko) Chrome/79.0.3945.130 Safari/537.36",94,"[0.9, 0.5, 0.1]","[0.8, 0.4, 0.2]","[u'black', u'blue', u'red']","[u'left', u'middle', u'right']","[0.8, 0.4, 0.2]","[u'high', u'low', u'medium']","black",49,"left","high","True","False",395,4450,NA
"AVBRJBJONL47I","Wed Jan 29 2020 10:17:07 GMT-0800 (Pacific Standard Time)","Wed Jan 29 2020 10:24:02 GMT-0800 (Pacific Standard Time)","Mozilla/5.0 (Macintosh; Intel Mac OS X 10_14_6) AppleWebKit/537.36 (KHTML, like Gecko) Chrome/79.0.3945.130 Safari/537.36",95,"[0.9, 0.5, 0.1]","[0.8, 0.4, 0.2]","[u'black', u'blue', u'red']","[u'left', u'middle', u'right']","[0.8, 0.4, 0.2]","[u'high', u'low', u'medium']","black",49,"left","high","True","False",417,4550,NA
"AVBRJBJONL47I","Wed Jan 29 2020 10:17:07 GMT-0800 (Pacific Standard Time)","Wed Jan 29 2020 10:24:02 GMT-0800 (Pacific Standard Time)","Mozilla/5.0 (Macintosh; Intel Mac OS X 10_14_6) AppleWebKit/537.36 (KHTML, like Gecko) Chrome/79.0.3945.130 Safari/537.36",96,"[0.9, 0.5, 0.1]","[0.8, 0.4, 0.2]","[u'black', u'blue', u'red']","[u'left', u'middle', u'right']","[0.8, 0.4, 0.2]","[u'high', u'low', u'medium']","black",49,"left","high","False","False",461,4500,NA
"AVBRJBJONL47I","Wed Jan 29 2020 10:17:07 GMT-0800 (Pacific Standard Time)","Wed Jan 29 2020 10:24:02 GMT-0800 (Pacific Standard Time)","Mozilla/5.0 (Macintosh; Intel Mac OS X 10_14_6) AppleWebKit/537.36 (KHTML, like Gecko) Chrome/79.0.3945.130 Safari/537.36",97,"[0.9, 0.5, 0.1]","[0.8, 0.4, 0.2]","[u'black', u'blue', u'red']","[u'left', u'middle', u'right']","[0.8, 0.4, 0.2]","[u'high', u'low', u'medium']","red",51,"right","medium","True","False",299,4600,NA
"AVBRJBJONL47I","Wed Jan 29 2020 10:17:07 GMT-0800 (Pacific Standard Time)","Wed Jan 29 2020 10:24:02 GMT-0800 (Pacific Standard Time)","Mozilla/5.0 (Macintosh; Intel Mac OS X 10_14_6) AppleWebKit/537.36 (KHTML, like Gecko) Chrome/79.0.3945.130 Safari/537.36",98,"[0.9, 0.5, 0.1]","[0.8, 0.4, 0.2]","[u'black', u'blue', u'red']","[u'left', u'middle', u'right']","[0.8, 0.4, 0.2]","[u'high', u'low', u'medium']","red",51,"right","medium","False","False",383,4550,NA
"AVBRJBJONL47I","Wed Jan 29 2020 10:17:07 GMT-0800 (Pacific Standard Time)","Wed Jan 29 2020 10:24:02 GMT-0800 (Pacific Standard Time)","Mozilla/5.0 (Macintosh; Intel Mac OS X 10_14_6) AppleWebKit/537.36 (KHTML, like Gecko) Chrome/79.0.3945.130 Safari/537.36",99,"[0.9, 0.5, 0.1]","[0.8, 0.4, 0.2]","[u'black', u'blue', u'red']","[u'left', u'middle', u'right']","[0.8, 0.4, 0.2]","[u'high', u'low', u'medium']","blue",50,"middle","low","True","False",243,4650,NA
"AVBRJBJONL47I","Wed Jan 29 2020 10:17:07 GMT-0800 (Pacific Standard Time)","Wed Jan 29 2020 10:24:02 GMT-0800 (Pacific Standard Time)","Mozilla/5.0 (Macintosh; Intel Mac OS X 10_14_6) AppleWebKit/537.36 (KHTML, like Gecko) Chrome/79.0.3945.130 Safari/537.36",100,"[0.9, 0.5, 0.1]","[0.8, 0.4, 0.2]","[u'black', u'blue', u'red']","[u'left', u'middle', u'right']","[0.8, 0.4, 0.2]","[u'high', u'low', u'medium']","blue",50,"middle","low","False","False",316,4600,NA
"AVBRJBJONL47I","Wed Jan 29 2020 10:17:07 GMT-0800 (Pacific Standard Time)","Wed Jan 29 2020 10:24:02 GMT-0800 (Pacific Standard Time)","Mozilla/5.0 (Macintosh; Intel Mac OS X 10_14_6) AppleWebKit/537.36 (KHTML, like Gecko) Chrome/79.0.3945.130 Safari/537.36",101,"[0.9, 0.5, 0.1]","[0.8, 0.4, 0.2]","[u'black', u'blue', u'red']","[u'left', u'middle', u'right']","[0.8, 0.4, 0.2]","[u'high', u'low', u'medium']","black",49,"left","high","True","False",318,4700,NA
"AVBRJBJONL47I","Wed Jan 29 2020 10:17:07 GMT-0800 (Pacific Standard Time)","Wed Jan 29 2020 10:24:02 GMT-0800 (Pacific Standard Time)","Mozilla/5.0 (Macintosh; Intel Mac OS X 10_14_6) AppleWebKit/537.36 (KHTML, like Gecko) Chrome/79.0.3945.130 Safari/537.36",102,"[0.9, 0.5, 0.1]","[0.8, 0.4, 0.2]","[u'black', u'blue', u'red']","[u'left', u'middle', u'right']","[0.8, 0.4, 0.2]","[u'high', u'low', u'medium']","black",49,"left","high","False","False",334,4650,NA
"AVBRJBJONL47I","Wed Jan 29 2020 10:17:07 GMT-0800 (Pacific Standard Time)","Wed Jan 29 2020 10:24:02 GMT-0800 (Pacific Standard Time)","Mozilla/5.0 (Macintosh; Intel Mac OS X 10_14_6) AppleWebKit/537.36 (KHTML, like Gecko) Chrome/79.0.3945.130 Safari/537.36",103,"[0.9, 0.5, 0.1]","[0.8, 0.4, 0.2]","[u'black', u'blue', u'red']","[u'left', u'middle', u'right']","[0.8, 0.4, 0.2]","[u'high', u'low', u'medium']","red",51,"right","medium","False","False",266,4600,NA
"AVBRJBJONL47I","Wed Jan 29 2020 10:17:07 GMT-0800 (Pacific Standard Time)","Wed Jan 29 2020 10:24:02 GMT-0800 (Pacific Standard Time)","Mozilla/5.0 (Macintosh; Intel Mac OS X 10_14_6) AppleWebKit/537.36 (KHTML, like Gecko) Chrome/79.0.3945.130 Safari/537.36",104,"[0.9, 0.5, 0.1]","[0.8, 0.4, 0.2]","[u'black', u'blue', u'red']","[u'left', u'middle', u'right']","[0.8, 0.4, 0.2]","[u'high', u'low', u'medium']","blue",50,"middle","low","False","False",165,4550,NA
"AVBRJBJONL47I","Wed Jan 29 2020 10:17:07 GMT-0800 (Pacific Standard Time)","Wed Jan 29 2020 10:24:02 GMT-0800 (Pacific Standard Time)","Mozilla/5.0 (Macintosh; Intel Mac OS X 10_14_6) AppleWebKit/537.36 (KHTML, like Gecko) Chrome/79.0.3945.130 Safari/537.36",105,"[0.9, 0.5, 0.1]","[0.8, 0.4, 0.2]","[u'black', u'blue', u'red']","[u'left', u'middle', u'right']","[0.8, 0.4, 0.2]","[u'high', u'low', u'medium']","black",49,"left","high","False","False",388,4500,NA
"AVBRJBJONL47I","Wed Jan 29 2020 10:17:07 GMT-0800 (Pacific Standard Time)","Wed Jan 29 2020 10:24:02 GMT-0800 (Pacific Standard Time)","Mozilla/5.0 (Macintosh; Intel Mac OS X 10_14_6) AppleWebKit/537.36 (KHTML, like Gecko) Chrome/79.0.3945.130 Safari/537.36",106,"[0.9, 0.5, 0.1]","[0.8, 0.4, 0.2]","[u'black', u'blue', u'red']","[u'left', u'middle', u'right']","[0.8, 0.4, 0.2]","[u'high', u'low', u'medium']","red",51,"right","medium","False","False",5,4450,NA
"AVBRJBJONL47I","Wed Jan 29 2020 10:17:07 GMT-0800 (Pacific Standard Time)","Wed Jan 29 2020 10:24:02 GMT-0800 (Pacific Standard Time)","Mozilla/5.0 (Macintosh; Intel Mac OS X 10_14_6) AppleWebKit/537.36 (KHTML, like Gecko) Chrome/79.0.3945.130 Safari/537.36",107,"[0.9, 0.5, 0.1]","[0.8, 0.4, 0.2]","[u'black', u'blue', u'red']","[u'left', u'middle', u'right']","[0.8, 0.4, 0.2]","[u'high', u'low', u'medium']","blue",50,"middle","low","False","False",322,4400,NA
"AVBRJBJONL47I","Wed Jan 29 2020 10:17:07 GMT-0800 (Pacific Standard Time)","Wed Jan 29 2020 10:24:02 GMT-0800 (Pacific Standard Time)","Mozilla/5.0 (Macintosh; Intel Mac OS X 10_14_6) AppleWebKit/537.36 (KHTML, like Gecko) Chrome/79.0.3945.130 Safari/537.36",108,"[0.9, 0.5, 0.1]","[0.8, 0.4, 0.2]","[u'black', u'blue', u'red']","[u'left', u'middle', u'right']","[0.8, 0.4, 0.2]","[u'high', u'low', u'medium']","red",51,"right","medium","True","False",645,4500,NA
"AVBRJBJONL47I","Wed Jan 29 2020 10:17:07 GMT-0800 (Pacific Standard Time)","Wed Jan 29 2020 10:24:02 GMT-0800 (Pacific Standard Time)","Mozilla/5.0 (Macintosh; Intel Mac OS X 10_14_6) AppleWebKit/537.36 (KHTML, like Gecko) Chrome/79.0.3945.130 Safari/537.36",109,"[0.9, 0.5, 0.1]","[0.8, 0.4, 0.2]","[u'black', u'blue', u'red']","[u'left', u'middle', u'right']","[0.8, 0.4, 0.2]","[u'high', u'low', u'medium']","red",51,"right","medium","False","False",394,4450,NA
"AVBRJBJONL47I","Wed Jan 29 2020 10:17:07 GMT-0800 (Pacific Standard Time)","Wed Jan 29 2020 10:24:02 GMT-0800 (Pacific Standard Time)","Mozilla/5.0 (Macintosh; Intel Mac OS X 10_14_6) AppleWebKit/537.36 (KHTML, like Gecko) Chrome/79.0.3945.130 Safari/537.36",110,"[0.9, 0.5, 0.1]","[0.8, 0.4, 0.2]","[u'black', u'blue', u'red']","[u'left', u'middle', u'right']","[0.8, 0.4, 0.2]","[u'high', u'low', u'medium']","black",49,"left","high","False","False",127,4400,NA
"AVBRJBJONL47I","Wed Jan 29 2020 10:17:07 GMT-0800 (Pacific Standard Time)","Wed Jan 29 2020 10:24:02 GMT-0800 (Pacific Standard Time)","Mozilla/5.0 (Macintosh; Intel Mac OS X 10_14_6) AppleWebKit/537.36 (KHTML, like Gecko) Chrome/79.0.3945.130 Safari/537.36",111,"[0.9, 0.5, 0.1]","[0.8, 0.4, 0.2]","[u'black', u'blue', u'red']","[u'left', u'middle', u'right']","[0.8, 0.4, 0.2]","[u'high', u'low', u'medium']","black",49,"left","high","True","False",274,4500,NA
"AVBRJBJONL47I","Wed Jan 29 2020 10:17:07 GMT-0800 (Pacific Standard Time)","Wed Jan 29 2020 10:24:02 GMT-0800 (Pacific Standard Time)","Mozilla/5.0 (Macintosh; Intel Mac OS X 10_14_6) AppleWebKit/537.36 (KHTML, like Gecko) Chrome/79.0.3945.130 Safari/537.36",112,"[0.9, 0.5, 0.1]","[0.8, 0.4, 0.2]","[u'black', u'blue', u'red']","[u'left', u'middle', u'right']","[0.8, 0.4, 0.2]","[u'high', u'low', u'medium']","black",49,"left","high","True","False",381,4600,NA
"AVBRJBJONL47I","Wed Jan 29 2020 10:17:07 GMT-0800 (Pacific Standard Time)","Wed Jan 29 2020 10:24:02 GMT-0800 (Pacific Standard Time)","Mozilla/5.0 (Macintosh; Intel Mac OS X 10_14_6) AppleWebKit/537.36 (KHTML, like Gecko) Chrome/79.0.3945.130 Safari/537.36",113,"[0.9, 0.5, 0.1]","[0.8, 0.4, 0.2]","[u'black', u'blue', u'red']","[u'left', u'middle', u'right']","[0.8, 0.4, 0.2]","[u'high', u'low', u'medium']","black",49,"left","high","True","False",360,4700,NA
"AVBRJBJONL47I","Wed Jan 29 2020 10:17:07 GMT-0800 (Pacific Standard Time)","Wed Jan 29 2020 10:24:02 GMT-0800 (Pacific Standard Time)","Mozilla/5.0 (Macintosh; Intel Mac OS X 10_14_6) AppleWebKit/537.36 (KHTML, like Gecko) Chrome/79.0.3945.130 Safari/537.36",114,"[0.9, 0.5, 0.1]","[0.8, 0.4, 0.2]","[u'black', u'blue', u'red']","[u'left', u'middle', u'right']","[0.8, 0.4, 0.2]","[u'high', u'low', u'medium']","black",49,"left","high","True","False",291,4800,NA
"AVBRJBJONL47I","Wed Jan 29 2020 10:17:07 GMT-0800 (Pacific Standard Time)","Wed Jan 29 2020 10:24:02 GMT-0800 (Pacific Standard Time)","Mozilla/5.0 (Macintosh; Intel Mac OS X 10_14_6) AppleWebKit/537.36 (KHTML, like Gecko) Chrome/79.0.3945.130 Safari/537.36",115,"[0.9, 0.5, 0.1]","[0.8, 0.4, 0.2]","[u'black', u'blue', u'red']","[u'left', u'middle', u'right']","[0.8, 0.4, 0.2]","[u'high', u'low', u'medium']","black",49,"left","high","True","False",310,4900,NA
"AVBRJBJONL47I","Wed Jan 29 2020 10:17:07 GMT-0800 (Pacific Standard Time)","Wed Jan 29 2020 10:24:02 GMT-0800 (Pacific Standard Time)","Mozilla/5.0 (Macintosh; Intel Mac OS X 10_14_6) AppleWebKit/537.36 (KHTML, like Gecko) Chrome/79.0.3945.130 Safari/537.36",116,"[0.9, 0.5, 0.1]","[0.8, 0.4, 0.2]","[u'black', u'blue', u'red']","[u'left', u'middle', u'right']","[0.8, 0.4, 0.2]","[u'high', u'low', u'medium']","black",49,"left","high","False","False",127,4850,NA
"AVBRJBJONL47I","Wed Jan 29 2020 10:17:07 GMT-0800 (Pacific Standard Time)","Wed Jan 29 2020 10:24:02 GMT-0800 (Pacific Standard Time)","Mozilla/5.0 (Macintosh; Intel Mac OS X 10_14_6) AppleWebKit/537.36 (KHTML, like Gecko) Chrome/79.0.3945.130 Safari/537.36",117,"[0.9, 0.5, 0.1]","[0.8, 0.4, 0.2]","[u'black', u'blue', u'red']","[u'left', u'middle', u'right']","[0.8, 0.4, 0.2]","[u'high', u'low', u'medium']","blue",50,"middle","low","False","False",373,4800,NA
"AVBRJBJONL47I","Wed Jan 29 2020 10:17:07 GMT-0800 (Pacific Standard Time)","Wed Jan 29 2020 10:24:02 GMT-0800 (Pacific Standard Time)","Mozilla/5.0 (Macintosh; Intel Mac OS X 10_14_6) AppleWebKit/537.36 (KHTML, like Gecko) Chrome/79.0.3945.130 Safari/537.36",118,"[0.9, 0.5, 0.1]","[0.8, 0.4, 0.2]","[u'black', u'blue', u'red']","[u'left', u'middle', u'right']","[0.8, 0.4, 0.2]","[u'high', u'low', u'medium']","blue",50,"middle","low","False","False",365,4750,NA
"AVBRJBJONL47I","Wed Jan 29 2020 10:17:07 GMT-0800 (Pacific Standard Time)","Wed Jan 29 2020 10:24:02 GMT-0800 (Pacific Standard Time)","Mozilla/5.0 (Macintosh; Intel Mac OS X 10_14_6) AppleWebKit/537.36 (KHTML, like Gecko) Chrome/79.0.3945.130 Safari/537.36",119,"[0.9, 0.5, 0.1]","[0.8, 0.4, 0.2]","[u'black', u'blue', u'red']","[u'left', u'middle', u'right']","[0.8, 0.4, 0.2]","[u'high', u'low', u'medium']","black",49,"left","high","True","False",302,4850,NA
"AVBRJBJONL47I","Wed Jan 29 2020 10:17:07 GMT-0800 (Pacific Standard Time)","Wed Jan 29 2020 10:24:02 GMT-0800 (Pacific Standard Time)","Mozilla/5.0 (Macintosh; Intel Mac OS X 10_14_6) AppleWebKit/537.36 (KHTML, like Gecko) Chrome/79.0.3945.130 Safari/537.36",120,"[0.9, 0.5, 0.1]","[0.8, 0.4, 0.2]","[u'black', u'blue', u'red']","[u'left', u'middle', u'right']","[0.8, 0.4, 0.2]","[u'high', u'low', u'medium']","black",49,"left","high","True","False",222,4950,NA
"AVBRJBJONL47I","Wed Jan 29 2020 10:17:07 GMT-0800 (Pacific Standard Time)","Wed Jan 29 2020 10:24:02 GMT-0800 (Pacific Standard Time)","Mozilla/5.0 (Macintosh; Intel Mac OS X 10_14_6) AppleWebKit/537.36 (KHTML, like Gecko) Chrome/79.0.3945.130 Safari/537.36",121,"[0.9, 0.5, 0.1]","[0.8, 0.4, 0.2]","[u'black', u'blue', u'red']","[u'left', u'middle', u'right']","[0.8, 0.4, 0.2]","[u'low', u'high', u'medium']","black",49,"left","low","False","False",532,4900,NA
"AVBRJBJONL47I","Wed Jan 29 2020 10:17:07 GMT-0800 (Pacific Standard Time)","Wed Jan 29 2020 10:24:02 GMT-0800 (Pacific Standard Time)","Mozilla/5.0 (Macintosh; Intel Mac OS X 10_14_6) AppleWebKit/537.36 (KHTML, like Gecko) Chrome/79.0.3945.130 Safari/537.36",122,"[0.9, 0.5, 0.1]","[0.8, 0.4, 0.2]","[u'black', u'blue', u'red']","[u'left', u'middle', u'right']","[0.8, 0.4, 0.2]","[u'low', u'high', u'medium']","red",51,"right","medium","True","False",369,5000,NA
"AVBRJBJONL47I","Wed Jan 29 2020 10:17:07 GMT-0800 (Pacific Standard Time)","Wed Jan 29 2020 10:24:02 GMT-0800 (Pacific Standard Time)","Mozilla/5.0 (Macintosh; Intel Mac OS X 10_14_6) AppleWebKit/537.36 (KHTML, like Gecko) Chrome/79.0.3945.130 Safari/537.36",123,"[0.9, 0.5, 0.1]","[0.8, 0.4, 0.2]","[u'black', u'blue', u'red']","[u'left', u'middle', u'right']","[0.8, 0.4, 0.2]","[u'low', u'high', u'medium']","red",51,"right","medium","True","False",184,5100,NA
"AVBRJBJONL47I","Wed Jan 29 2020 10:17:07 GMT-0800 (Pacific Standard Time)","Wed Jan 29 2020 10:24:02 GMT-0800 (Pacific Standard Time)","Mozilla/5.0 (Macintosh; Intel Mac OS X 10_14_6) AppleWebKit/537.36 (KHTML, like Gecko) Chrome/79.0.3945.130 Safari/537.36",124,"[0.9, 0.5, 0.1]","[0.8, 0.4, 0.2]","[u'black', u'blue', u'red']","[u'left', u'middle', u'right']","[0.8, 0.4, 0.2]","[u'low', u'high', u'medium']","red",51,"right","medium","True","False",373,5200,NA
"AVBRJBJONL47I","Wed Jan 29 2020 10:17:07 GMT-0800 (Pacific Standard Time)","Wed Jan 29 2020 10:24:02 GMT-0800 (Pacific Standard Time)","Mozilla/5.0 (Macintosh; Intel Mac OS X 10_14_6) AppleWebKit/537.36 (KHTML, like Gecko) Chrome/79.0.3945.130 Safari/537.36",125,"[0.9, 0.5, 0.1]","[0.8, 0.4, 0.2]","[u'black', u'blue', u'red']","[u'left', u'middle', u'right']","[0.8, 0.4, 0.2]","[u'low', u'high', u'medium']","red",51,"right","medium","False","False",410,5150,NA
"AVBRJBJONL47I","Wed Jan 29 2020 10:17:07 GMT-0800 (Pacific Standard Time)","Wed Jan 29 2020 10:24:02 GMT-0800 (Pacific Standard Time)","Mozilla/5.0 (Macintosh; Intel Mac OS X 10_14_6) AppleWebKit/537.36 (KHTML, like Gecko) Chrome/79.0.3945.130 Safari/537.36",126,"[0.9, 0.5, 0.1]","[0.8, 0.4, 0.2]","[u'black', u'blue', u'red']","[u'left', u'middle', u'right']","[0.8, 0.4, 0.2]","[u'low', u'high', u'medium']","black",49,"left","low","False","False",6,5100,NA
"AVBRJBJONL47I","Wed Jan 29 2020 10:17:07 GMT-0800 (Pacific Standard Time)","Wed Jan 29 2020 10:24:02 GMT-0800 (Pacific Standard Time)","Mozilla/5.0 (Macintosh; Intel Mac OS X 10_14_6) AppleWebKit/537.36 (KHTML, like Gecko) Chrome/79.0.3945.130 Safari/537.36",127,"[0.9, 0.5, 0.1]","[0.8, 0.4, 0.2]","[u'black', u'blue', u'red']","[u'left', u'middle', u'right']","[0.8, 0.4, 0.2]","[u'low', u'high', u'medium']","black",49,"left","low","False","False",343,5050,NA
"AVBRJBJONL47I","Wed Jan 29 2020 10:17:07 GMT-0800 (Pacific Standard Time)","Wed Jan 29 2020 10:24:02 GMT-0800 (Pacific Standard Time)","Mozilla/5.0 (Macintosh; Intel Mac OS X 10_14_6) AppleWebKit/537.36 (KHTML, like Gecko) Chrome/79.0.3945.130 Safari/537.36",128,"[0.9, 0.5, 0.1]","[0.8, 0.4, 0.2]","[u'black', u'blue', u'red']","[u'left', u'middle', u'right']","[0.8, 0.4, 0.2]","[u'low', u'high', u'medium']","black",49,"left","low","False","False",20,5000,NA
"AVBRJBJONL47I","Wed Jan 29 2020 10:17:07 GMT-0800 (Pacific Standard Time)","Wed Jan 29 2020 10:24:02 GMT-0800 (Pacific Standard Time)","Mozilla/5.0 (Macintosh; Intel Mac OS X 10_14_6) AppleWebKit/537.36 (KHTML, like Gecko) Chrome/79.0.3945.130 Safari/537.36",129,"[0.9, 0.5, 0.1]","[0.8, 0.4, 0.2]","[u'black', u'blue', u'red']","[u'left', u'middle', u'right']","[0.8, 0.4, 0.2]","[u'low', u'high', u'medium']","black",49,"left","low","False","False",58,4950,NA
"AVBRJBJONL47I","Wed Jan 29 2020 10:17:07 GMT-0800 (Pacific Standard Time)","Wed Jan 29 2020 10:24:02 GMT-0800 (Pacific Standard Time)","Mozilla/5.0 (Macintosh; Intel Mac OS X 10_14_6) AppleWebKit/537.36 (KHTML, like Gecko) Chrome/79.0.3945.130 Safari/537.36",130,"[0.9, 0.5, 0.1]","[0.8, 0.4, 0.2]","[u'black', u'blue', u'red']","[u'left', u'middle', u'right']","[0.8, 0.4, 0.2]","[u'low', u'high', u'medium']","blue",50,"middle","high","False","False",395,4900,NA
"AVBRJBJONL47I","Wed Jan 29 2020 10:17:07 GMT-0800 (Pacific Standard Time)","Wed Jan 29 2020 10:24:02 GMT-0800 (Pacific Standard Time)","Mozilla/5.0 (Macintosh; Intel Mac OS X 10_14_6) AppleWebKit/537.36 (KHTML, like Gecko) Chrome/79.0.3945.130 Safari/537.36",131,"[0.9, 0.5, 0.1]","[0.8, 0.4, 0.2]","[u'black', u'blue', u'red']","[u'left', u'middle', u'right']","[0.8, 0.4, 0.2]","[u'low', u'high', u'medium']","blue",50,"middle","high","True","False",372,5000,NA
"AVBRJBJONL47I","Wed Jan 29 2020 10:17:07 GMT-0800 (Pacific Standard Time)","Wed Jan 29 2020 10:24:02 GMT-0800 (Pacific Standard Time)","Mozilla/5.0 (Macintosh; Intel Mac OS X 10_14_6) AppleWebKit/537.36 (KHTML, like Gecko) Chrome/79.0.3945.130 Safari/537.36",132,"[0.9, 0.5, 0.1]","[0.8, 0.4, 0.2]","[u'black', u'blue', u'red']","[u'left', u'middle', u'right']","[0.8, 0.4, 0.2]","[u'low', u'high', u'medium']","blue",50,"middle","high","True","False",359,5100,NA
"AVBRJBJONL47I","Wed Jan 29 2020 10:17:07 GMT-0800 (Pacific Standard Time)","Wed Jan 29 2020 10:24:02 GMT-0800 (Pacific Standard Time)","Mozilla/5.0 (Macintosh; Intel Mac OS X 10_14_6) AppleWebKit/537.36 (KHTML, like Gecko) Chrome/79.0.3945.130 Safari/537.36",133,"[0.9, 0.5, 0.1]","[0.8, 0.4, 0.2]","[u'black', u'blue', u'red']","[u'left', u'middle', u'right']","[0.8, 0.4, 0.2]","[u'low', u'high', u'medium']","blue",50,"middle","high","True","False",184,5200,NA
"AVBRJBJONL47I","Wed Jan 29 2020 10:17:07 GMT-0800 (Pacific Standard Time)","Wed Jan 29 2020 10:24:02 GMT-0800 (Pacific Standard Time)","Mozilla/5.0 (Macintosh; Intel Mac OS X 10_14_6) AppleWebKit/537.36 (KHTML, like Gecko) Chrome/79.0.3945.130 Safari/537.36",134,"[0.9, 0.5, 0.1]","[0.8, 0.4, 0.2]","[u'black', u'blue', u'red']","[u'left', u'middle', u'right']","[0.8, 0.4, 0.2]","[u'low', u'high', u'medium']","blue",50,"middle","high","True","False",376,5300,NA
"AVBRJBJONL47I","Wed Jan 29 2020 10:17:07 GMT-0800 (Pacific Standard Time)","Wed Jan 29 2020 10:24:02 GMT-0800 (Pacific Standard Time)","Mozilla/5.0 (Macintosh; Intel Mac OS X 10_14_6) AppleWebKit/537.36 (KHTML, like Gecko) Chrome/79.0.3945.130 Safari/537.36",135,"[0.9, 0.5, 0.1]","[0.8, 0.4, 0.2]","[u'black', u'blue', u'red']","[u'left', u'middle', u'right']","[0.8, 0.4, 0.2]","[u'low', u'high', u'medium']","blue",50,"middle","high","False","False",406,5250,NA
"AVBRJBJONL47I","Wed Jan 29 2020 10:17:07 GMT-0800 (Pacific Standard Time)","Wed Jan 29 2020 10:24:02 GMT-0800 (Pacific Standard Time)","Mozilla/5.0 (Macintosh; Intel Mac OS X 10_14_6) AppleWebKit/537.36 (KHTML, like Gecko) Chrome/79.0.3945.130 Safari/537.36",136,"[0.9, 0.5, 0.1]","[0.8, 0.4, 0.2]","[u'black', u'blue', u'red']","[u'left', u'middle', u'right']","[0.8, 0.4, 0.2]","[u'low', u'high', u'medium']","black",49,"left","low","False","False",88,5200,NA
"AVBRJBJONL47I","Wed Jan 29 2020 10:17:07 GMT-0800 (Pacific Standard Time)","Wed Jan 29 2020 10:24:02 GMT-0800 (Pacific Standard Time)","Mozilla/5.0 (Macintosh; Intel Mac OS X 10_14_6) AppleWebKit/537.36 (KHTML, like Gecko) Chrome/79.0.3945.130 Safari/537.36",137,"[0.9, 0.5, 0.1]","[0.8, 0.4, 0.2]","[u'black', u'blue', u'red']","[u'left', u'middle', u'right']","[0.8, 0.4, 0.2]","[u'low', u'high', u'medium']","red",51,"right","medium","False","False",47,5150,NA
"AVBRJBJONL47I","Wed Jan 29 2020 10:17:07 GMT-0800 (Pacific Standard Time)","Wed Jan 29 2020 10:24:02 GMT-0800 (Pacific Standard Time)","Mozilla/5.0 (Macintosh; Intel Mac OS X 10_14_6) AppleWebKit/537.36 (KHTML, like Gecko) Chrome/79.0.3945.130 Safari/537.36",138,"[0.9, 0.5, 0.1]","[0.8, 0.4, 0.2]","[u'black', u'blue', u'red']","[u'left', u'middle', u'right']","[0.8, 0.4, 0.2]","[u'low', u'high', u'medium']","blue",50,"middle","high","True","False",189,5250,NA
"AVBRJBJONL47I","Wed Jan 29 2020 10:17:07 GMT-0800 (Pacific Standard Time)","Wed Jan 29 2020 10:24:02 GMT-0800 (Pacific Standard Time)","Mozilla/5.0 (Macintosh; Intel Mac OS X 10_14_6) AppleWebKit/537.36 (KHTML, like Gecko) Chrome/79.0.3945.130 Safari/537.36",139,"[0.9, 0.5, 0.1]","[0.8, 0.4, 0.2]","[u'black', u'blue', u'red']","[u'left', u'middle', u'right']","[0.8, 0.4, 0.2]","[u'low', u'high', u'medium']","blue",50,"middle","high","True","False",32,5350,NA
"AVBRJBJONL47I","Wed Jan 29 2020 10:17:07 GMT-0800 (Pacific Standard Time)","Wed Jan 29 2020 10:24:02 GMT-0800 (Pacific Standard Time)","Mozilla/5.0 (Macintosh; Intel Mac OS X 10_14_6) AppleWebKit/537.36 (KHTML, like Gecko) Chrome/79.0.3945.130 Safari/537.36",140,"[0.9, 0.5, 0.1]","[0.8, 0.4, 0.2]","[u'black', u'blue', u'red']","[u'left', u'middle', u'right']","[0.8, 0.4, 0.2]","[u'low', u'high', u'medium']","blue",50,"middle","high","True","False",311,5450,NA
"AVBRJBJONL47I","Wed Jan 29 2020 10:17:07 GMT-0800 (Pacific Standard Time)","Wed Jan 29 2020 10:24:02 GMT-0800 (Pacific Standard Time)","Mozilla/5.0 (Macintosh; Intel Mac OS X 10_14_6) AppleWebKit/537.36 (KHTML, like Gecko) Chrome/79.0.3945.130 Safari/537.36",141,"[0.9, 0.5, 0.1]","[0.8, 0.4, 0.2]","[u'black', u'blue', u'red']","[u'left', u'middle', u'right']","[0.8, 0.4, 0.2]","[u'low', u'high', u'medium']","blue",50,"middle","high","True","False",297,5550,NA
"AVBRJBJONL47I","Wed Jan 29 2020 10:17:07 GMT-0800 (Pacific Standard Time)","Wed Jan 29 2020 10:24:02 GMT-0800 (Pacific Standard Time)","Mozilla/5.0 (Macintosh; Intel Mac OS X 10_14_6) AppleWebKit/537.36 (KHTML, like Gecko) Chrome/79.0.3945.130 Safari/537.36",142,"[0.9, 0.5, 0.1]","[0.8, 0.4, 0.2]","[u'black', u'blue', u'red']","[u'left', u'middle', u'right']","[0.8, 0.4, 0.2]","[u'low', u'high', u'medium']","blue",50,"middle","high","True","False",278,5650,NA
"AVBRJBJONL47I","Wed Jan 29 2020 10:17:07 GMT-0800 (Pacific Standard Time)","Wed Jan 29 2020 10:24:02 GMT-0800 (Pacific Standard Time)","Mozilla/5.0 (Macintosh; Intel Mac OS X 10_14_6) AppleWebKit/537.36 (KHTML, like Gecko) Chrome/79.0.3945.130 Safari/537.36",143,"[0.9, 0.5, 0.1]","[0.8, 0.4, 0.2]","[u'black', u'blue', u'red']","[u'left', u'middle', u'right']","[0.8, 0.4, 0.2]","[u'low', u'high', u'medium']","blue",50,"middle","high","True","False",33,5750,NA
"AVBRJBJONL47I","Wed Jan 29 2020 10:17:07 GMT-0800 (Pacific Standard Time)","Wed Jan 29 2020 10:24:02 GMT-0800 (Pacific Standard Time)","Mozilla/5.0 (Macintosh; Intel Mac OS X 10_14_6) AppleWebKit/537.36 (KHTML, like Gecko) Chrome/79.0.3945.130 Safari/537.36",144,"[0.9, 0.5, 0.1]","[0.8, 0.4, 0.2]","[u'black', u'blue', u'red']","[u'left', u'middle', u'right']","[0.8, 0.4, 0.2]","[u'low', u'high', u'medium']","blue",50,"middle","high","True","False",215,5850,NA
"AVBRJBJONL47I","Wed Jan 29 2020 10:17:07 GMT-0800 (Pacific Standard Time)","Wed Jan 29 2020 10:24:02 GMT-0800 (Pacific Standard Time)","Mozilla/5.0 (Macintosh; Intel Mac OS X 10_14_6) AppleWebKit/537.36 (KHTML, like Gecko) Chrome/79.0.3945.130 Safari/537.36",145,"[0.9, 0.5, 0.1]","[0.8, 0.4, 0.2]","[u'black', u'blue', u'red']","[u'left', u'middle', u'right']","[0.8, 0.4, 0.2]","[u'low', u'high', u'medium']","blue",50,"middle","high","True","False",266,5950,NA
"AVBRJBJONL47I","Wed Jan 29 2020 10:17:07 GMT-0800 (Pacific Standard Time)","Wed Jan 29 2020 10:24:02 GMT-0800 (Pacific Standard Time)","Mozilla/5.0 (Macintosh; Intel Mac OS X 10_14_6) AppleWebKit/537.36 (KHTML, like Gecko) Chrome/79.0.3945.130 Safari/537.36",146,"[0.9, 0.5, 0.1]","[0.8, 0.4, 0.2]","[u'black', u'blue', u'red']","[u'left', u'middle', u'right']","[0.8, 0.4, 0.2]","[u'low', u'high', u'medium']","blue",50,"middle","high","True","True",356,6050,NA
"AVBRJBJONL47I","Wed Jan 29 2020 10:17:07 GMT-0800 (Pacific Standard Time)","Wed Jan 29 2020 10:24:02 GMT-0800 (Pacific Standard Time)","Mozilla/5.0 (Macintosh; Intel Mac OS X 10_14_6) AppleWebKit/537.36 (KHTML, like Gecko) Chrome/79.0.3945.130 Safari/537.36",147,"[0.9, 0.5, 0.1]","[0.8, 0.4, 0.2]","[u'black', u'blue', u'red']","[u'left', u'middle', u'right']","[0.8, 0.4, 0.2]","[u'high', u'medium', u'low']","blue",50,"middle","medium","False","False",60,6000,NA
"AVBRJBJONL47I","Wed Jan 29 2020 10:17:07 GMT-0800 (Pacific Standard Time)","Wed Jan 29 2020 10:24:02 GMT-0800 (Pacific Standard Time)","Mozilla/5.0 (Macintosh; Intel Mac OS X 10_14_6) AppleWebKit/537.36 (KHTML, like Gecko) Chrome/79.0.3945.130 Safari/537.36",148,"[0.9, 0.5, 0.1]","[0.8, 0.4, 0.2]","[u'black', u'blue', u'red']","[u'left', u'middle', u'right']","[0.8, 0.4, 0.2]","[u'high', u'medium', u'low']","black",49,"left","high","True","False",13,6100,NA
"AVBRJBJONL47I","Wed Jan 29 2020 10:17:07 GMT-0800 (Pacific Standard Time)","Wed Jan 29 2020 10:24:02 GMT-0800 (Pacific Standard Time)","Mozilla/5.0 (Macintosh; Intel Mac OS X 10_14_6) AppleWebKit/537.36 (KHTML, like Gecko) Chrome/79.0.3945.130 Safari/537.36",149,"[0.9, 0.5, 0.1]","[0.8, 0.4, 0.2]","[u'black', u'blue', u'red']","[u'left', u'middle', u'right']","[0.8, 0.4, 0.2]","[u'high', u'medium', u'low']","black",49,"left","high","True","False",226,6200,NA
"AVBRJBJONL47I","Wed Jan 29 2020 10:17:07 GMT-0800 (Pacific Standard Time)","Wed Jan 29 2020 10:24:02 GMT-0800 (Pacific Standard Time)","Mozilla/5.0 (Macintosh; Intel Mac OS X 10_14_6) AppleWebKit/537.36 (KHTML, like Gecko) Chrome/79.0.3945.130 Safari/537.36",150,"[0.9, 0.5, 0.1]","[0.8, 0.4, 0.2]","[u'black', u'blue', u'red']","[u'left', u'middle', u'right']","[0.8, 0.4, 0.2]","[u'high', u'medium', u'low']","black",49,"left","high","False","False",148,6150,NA
"AVBRJBJONL47I","Wed Jan 29 2020 10:17:07 GMT-0800 (Pacific Standard Time)","Wed Jan 29 2020 10:24:02 GMT-0800 (Pacific Standard Time)","Mozilla/5.0 (Macintosh; Intel Mac OS X 10_14_6) AppleWebKit/537.36 (KHTML, like Gecko) Chrome/79.0.3945.130 Safari/537.36",151,"[0.9, 0.5, 0.1]","[0.8, 0.4, 0.2]","[u'black', u'blue', u'red']","[u'left', u'middle', u'right']","[0.8, 0.4, 0.2]","[u'high', u'medium', u'low']","red",51,"right","low","False","False",515,6100,NA
"AVBRJBJONL47I","Wed Jan 29 2020 10:17:07 GMT-0800 (Pacific Standard Time)","Wed Jan 29 2020 10:24:02 GMT-0800 (Pacific Standard Time)","Mozilla/5.0 (Macintosh; Intel Mac OS X 10_14_6) AppleWebKit/537.36 (KHTML, like Gecko) Chrome/79.0.3945.130 Safari/537.36",152,"[0.9, 0.5, 0.1]","[0.8, 0.4, 0.2]","[u'black', u'blue', u'red']","[u'left', u'middle', u'right']","[0.8, 0.4, 0.2]","[u'high', u'medium', u'low']","black",49,"left","high","True","False",23,6200,NA
"AVBRJBJONL47I","Wed Jan 29 2020 10:17:07 GMT-0800 (Pacific Standard Time)","Wed Jan 29 2020 10:24:02 GMT-0800 (Pacific Standard Time)","Mozilla/5.0 (Macintosh; Intel Mac OS X 10_14_6) AppleWebKit/537.36 (KHTML, like Gecko) Chrome/79.0.3945.130 Safari/537.36",153,"[0.9, 0.5, 0.1]","[0.8, 0.4, 0.2]","[u'black', u'blue', u'red']","[u'left', u'middle', u'right']","[0.8, 0.4, 0.2]","[u'high', u'medium', u'low']","black",49,"left","high","True","False",322,6300,NA
"AVBRJBJONL47I","Wed Jan 29 2020 10:17:07 GMT-0800 (Pacific Standard Time)","Wed Jan 29 2020 10:24:02 GMT-0800 (Pacific Standard Time)","Mozilla/5.0 (Macintosh; Intel Mac OS X 10_14_6) AppleWebKit/537.36 (KHTML, like Gecko) Chrome/79.0.3945.130 Safari/537.36",154,"[0.9, 0.5, 0.1]","[0.8, 0.4, 0.2]","[u'black', u'blue', u'red']","[u'left', u'middle', u'right']","[0.8, 0.4, 0.2]","[u'high', u'medium', u'low']","black",49,"left","high","True","False",353,6400,NA
"AVBRJBJONL47I","Wed Jan 29 2020 10:17:07 GMT-0800 (Pacific Standard Time)","Wed Jan 29 2020 10:24:02 GMT-0800 (Pacific Standard Time)","Mozilla/5.0 (Macintosh; Intel Mac OS X 10_14_6) AppleWebKit/537.36 (KHTML, like Gecko) Chrome/79.0.3945.130 Safari/537.36",155,"[0.9, 0.5, 0.1]","[0.8, 0.4, 0.2]","[u'black', u'blue', u'red']","[u'left', u'middle', u'right']","[0.8, 0.4, 0.2]","[u'high', u'medium', u'low']","black",49,"left","high","False","False",332,6350,NA
"AVBRJBJONL47I","Wed Jan 29 2020 10:17:07 GMT-0800 (Pacific Standard Time)","Wed Jan 29 2020 10:24:02 GMT-0800 (Pacific Standard Time)","Mozilla/5.0 (Macintosh; Intel Mac OS X 10_14_6) AppleWebKit/537.36 (KHTML, like Gecko) Chrome/79.0.3945.130 Safari/537.36",156,"[0.9, 0.5, 0.1]","[0.8, 0.4, 0.2]","[u'black', u'blue', u'red']","[u'left', u'middle', u'right']","[0.8, 0.4, 0.2]","[u'high', u'medium', u'low']","blue",50,"middle","medium","False","False",420,6300,NA
"AVBRJBJONL47I","Wed Jan 29 2020 10:17:07 GMT-0800 (Pacific Standard Time)","Wed Jan 29 2020 10:24:02 GMT-0800 (Pacific Standard Time)","Mozilla/5.0 (Macintosh; Intel Mac OS X 10_14_6) AppleWebKit/537.36 (KHTML, like Gecko) Chrome/79.0.3945.130 Safari/537.36",157,"[0.9, 0.5, 0.1]","[0.8, 0.4, 0.2]","[u'black', u'blue', u'red']","[u'left', u'middle', u'right']","[0.8, 0.4, 0.2]","[u'high', u'medium', u'low']","red",51,"right","low","False","False",100,6250,NA
"AVBRJBJONL47I","Wed Jan 29 2020 10:17:07 GMT-0800 (Pacific Standard Time)","Wed Jan 29 2020 10:24:02 GMT-0800 (Pacific Standard Time)","Mozilla/5.0 (Macintosh; Intel Mac OS X 10_14_6) AppleWebKit/537.36 (KHTML, like Gecko) Chrome/79.0.3945.130 Safari/537.36",158,"[0.9, 0.5, 0.1]","[0.8, 0.4, 0.2]","[u'black', u'blue', u'red']","[u'left', u'middle', u'right']","[0.8, 0.4, 0.2]","[u'high', u'medium', u'low']","black",49,"left","high","True","False",106,6350,NA
"AVBRJBJONL47I","Wed Jan 29 2020 10:17:07 GMT-0800 (Pacific Standard Time)","Wed Jan 29 2020 10:24:02 GMT-0800 (Pacific Standard Time)","Mozilla/5.0 (Macintosh; Intel Mac OS X 10_14_6) AppleWebKit/537.36 (KHTML, like Gecko) Chrome/79.0.3945.130 Safari/537.36",159,"[0.9, 0.5, 0.1]","[0.8, 0.4, 0.2]","[u'black', u'blue', u'red']","[u'left', u'middle', u'right']","[0.8, 0.4, 0.2]","[u'high', u'medium', u'low']","black",49,"left","high","True","False",317,6450,NA
"AVBRJBJONL47I","Wed Jan 29 2020 10:17:07 GMT-0800 (Pacific Standard Time)","Wed Jan 29 2020 10:24:02 GMT-0800 (Pacific Standard Time)","Mozilla/5.0 (Macintosh; Intel Mac OS X 10_14_6) AppleWebKit/537.36 (KHTML, like Gecko) Chrome/79.0.3945.130 Safari/537.36",160,"[0.9, 0.5, 0.1]","[0.8, 0.4, 0.2]","[u'black', u'blue', u'red']","[u'left', u'middle', u'right']","[0.8, 0.4, 0.2]","[u'high', u'medium', u'low']","black",49,"left","high","True","False",355,6550,NA
