"src_subject_id","start_time","end_time","browser","index","first_half_probabilities","second_half_probabilities","deck_color","deck_position","deck_probabilities","deck_contingencies","response_color","key_press","response_position","response_probability","reward_type","trial_type","rt","reward_tally","exclusion_reason"
"A1BUNT3VJFLXD0","Wed Sep 23 2020 12:56:38 GMT-0700 (Mountain Standard Time)","Wed Sep 23 2020 13:04:46 GMT-0700 (Mountain Standard Time)","Mozilla/5.0 (Windows NT 10.0; Win64; x64) AppleWebKit/537.36 (KHTML, like Gecko) Chrome/85.0.4183.121 Safari/537.36",1,"[0.9, 0.5, 0.1]","[0.8, 0.4, 0.2]","[u'black', u'blue', u'red']","[u'left', u'middle', u'right']","[0.9, 0.5, 0.1]","[u'low', u'high', u'medium']","black",49,"left","low","True","False",1653,100,NA
"A1BUNT3VJFLXD0","Wed Sep 23 2020 12:56:38 GMT-0700 (Mountain Standard Time)","Wed Sep 23 2020 13:04:46 GMT-0700 (Mountain Standard Time)","Mozilla/5.0 (Windows NT 10.0; Win64; x64) AppleWebKit/537.36 (KHTML, like Gecko) Chrome/85.0.4183.121 Safari/537.36",2,"[0.9, 0.5, 0.1]","[0.8, 0.4, 0.2]","[u'black', u'blue', u'red']","[u'left', u'middle', u'right']","[0.9, 0.5, 0.1]","[u'low', u'high', u'medium']","black",49,"left","low","False","False",445,50,NA
"A1BUNT3VJFLXD0","Wed Sep 23 2020 12:56:38 GMT-0700 (Mountain Standard Time)","Wed Sep 23 2020 13:04:46 GMT-0700 (Mountain Standard Time)","Mozilla/5.0 (Windows NT 10.0; Win64; x64) AppleWebKit/537.36 (KHTML, like Gecko) Chrome/85.0.4183.121 Safari/537.36",3,"[0.9, 0.5, 0.1]","[0.8, 0.4, 0.2]","[u'black', u'blue', u'red']","[u'left', u'middle', u'right']","[0.9, 0.5, 0.1]","[u'low', u'high', u'medium']","black",49,"left","low","False","False",652,0,NA
"A1BUNT3VJFLXD0","Wed Sep 23 2020 12:56:38 GMT-0700 (Mountain Standard Time)","Wed Sep 23 2020 13:04:46 GMT-0700 (Mountain Standard Time)","Mozilla/5.0 (Windows NT 10.0; Win64; x64) AppleWebKit/537.36 (KHTML, like Gecko) Chrome/85.0.4183.121 Safari/537.36",4,"[0.9, 0.5, 0.1]","[0.8, 0.4, 0.2]","[u'black', u'blue', u'red']","[u'left', u'middle', u'right']","[0.9, 0.5, 0.1]","[u'low', u'high', u'medium']","blue",50,"middle","high","False","False",371,-50,NA
"A1BUNT3VJFLXD0","Wed Sep 23 2020 12:56:38 GMT-0700 (Mountain Standard Time)","Wed Sep 23 2020 13:04:46 GMT-0700 (Mountain Standard Time)","Mozilla/5.0 (Windows NT 10.0; Win64; x64) AppleWebKit/537.36 (KHTML, like Gecko) Chrome/85.0.4183.121 Safari/537.36",5,"[0.9, 0.5, 0.1]","[0.8, 0.4, 0.2]","[u'black', u'blue', u'red']","[u'left', u'middle', u'right']","[0.9, 0.5, 0.1]","[u'low', u'high', u'medium']","red",51,"right","medium","False","False",308,-100,NA
"A1BUNT3VJFLXD0","Wed Sep 23 2020 12:56:38 GMT-0700 (Mountain Standard Time)","Wed Sep 23 2020 13:04:46 GMT-0700 (Mountain Standard Time)","Mozilla/5.0 (Windows NT 10.0; Win64; x64) AppleWebKit/537.36 (KHTML, like Gecko) Chrome/85.0.4183.121 Safari/537.36",6,"[0.9, 0.5, 0.1]","[0.8, 0.4, 0.2]","[u'black', u'blue', u'red']","[u'left', u'middle', u'right']","[0.9, 0.5, 0.1]","[u'low', u'high', u'medium']","blue",50,"middle","high","True","False",331,0,NA
"A1BUNT3VJFLXD0","Wed Sep 23 2020 12:56:38 GMT-0700 (Mountain Standard Time)","Wed Sep 23 2020 13:04:46 GMT-0700 (Mountain Standard Time)","Mozilla/5.0 (Windows NT 10.0; Win64; x64) AppleWebKit/537.36 (KHTML, like Gecko) Chrome/85.0.4183.121 Safari/537.36",7,"[0.9, 0.5, 0.1]","[0.8, 0.4, 0.2]","[u'black', u'blue', u'red']","[u'left', u'middle', u'right']","[0.9, 0.5, 0.1]","[u'low', u'high', u'medium']","blue",50,"middle","high","True","False",372,100,NA
"A1BUNT3VJFLXD0","Wed Sep 23 2020 12:56:38 GMT-0700 (Mountain Standard Time)","Wed Sep 23 2020 13:04:46 GMT-0700 (Mountain Standard Time)","Mozilla/5.0 (Windows NT 10.0; Win64; x64) AppleWebKit/537.36 (KHTML, like Gecko) Chrome/85.0.4183.121 Safari/537.36",8,"[0.9, 0.5, 0.1]","[0.8, 0.4, 0.2]","[u'black', u'blue', u'red']","[u'left', u'middle', u'right']","[0.9, 0.5, 0.1]","[u'low', u'high', u'medium']","blue",50,"middle","high","True","False",329,200,NA
"A1BUNT3VJFLXD0","Wed Sep 23 2020 12:56:38 GMT-0700 (Mountain Standard Time)","Wed Sep 23 2020 13:04:46 GMT-0700 (Mountain Standard Time)","Mozilla/5.0 (Windows NT 10.0; Win64; x64) AppleWebKit/537.36 (KHTML, like Gecko) Chrome/85.0.4183.121 Safari/537.36",9,"[0.9, 0.5, 0.1]","[0.8, 0.4, 0.2]","[u'black', u'blue', u'red']","[u'left', u'middle', u'right']","[0.9, 0.5, 0.1]","[u'low', u'high', u'medium']","blue",50,"middle","high","True","False",335,300,NA
"A1BUNT3VJFLXD0","Wed Sep 23 2020 12:56:38 GMT-0700 (Mountain Standard Time)","Wed Sep 23 2020 13:04:46 GMT-0700 (Mountain Standard Time)","Mozilla/5.0 (Windows NT 10.0; Win64; x64) AppleWebKit/537.36 (KHTML, like Gecko) Chrome/85.0.4183.121 Safari/537.36",10,"[0.9, 0.5, 0.1]","[0.8, 0.4, 0.2]","[u'black', u'blue', u'red']","[u'left', u'middle', u'right']","[0.9, 0.5, 0.1]","[u'low', u'high', u'medium']","blue",50,"middle","high","True","False",378,400,NA
"A1BUNT3VJFLXD0","Wed Sep 23 2020 12:56:38 GMT-0700 (Mountain Standard Time)","Wed Sep 23 2020 13:04:46 GMT-0700 (Mountain Standard Time)","Mozilla/5.0 (Windows NT 10.0; Win64; x64) AppleWebKit/537.36 (KHTML, like Gecko) Chrome/85.0.4183.121 Safari/537.36",11,"[0.9, 0.5, 0.1]","[0.8, 0.4, 0.2]","[u'black', u'blue', u'red']","[u'left', u'middle', u'right']","[0.9, 0.5, 0.1]","[u'low', u'high', u'medium']","blue",50,"middle","high","True","False",282,500,NA
"A1BUNT3VJFLXD0","Wed Sep 23 2020 12:56:38 GMT-0700 (Mountain Standard Time)","Wed Sep 23 2020 13:04:46 GMT-0700 (Mountain Standard Time)","Mozilla/5.0 (Windows NT 10.0; Win64; x64) AppleWebKit/537.36 (KHTML, like Gecko) Chrome/85.0.4183.121 Safari/537.36",12,"[0.9, 0.5, 0.1]","[0.8, 0.4, 0.2]","[u'black', u'blue', u'red']","[u'left', u'middle', u'right']","[0.9, 0.5, 0.1]","[u'low', u'high', u'medium']","blue",50,"middle","high","True","False",283,600,NA
"A1BUNT3VJFLXD0","Wed Sep 23 2020 12:56:38 GMT-0700 (Mountain Standard Time)","Wed Sep 23 2020 13:04:46 GMT-0700 (Mountain Standard Time)","Mozilla/5.0 (Windows NT 10.0; Win64; x64) AppleWebKit/537.36 (KHTML, like Gecko) Chrome/85.0.4183.121 Safari/537.36",13,"[0.9, 0.5, 0.1]","[0.8, 0.4, 0.2]","[u'black', u'blue', u'red']","[u'left', u'middle', u'right']","[0.9, 0.5, 0.1]","[u'low', u'high', u'medium']","blue",50,"middle","high","True","True",169,700,NA
"A1BUNT3VJFLXD0","Wed Sep 23 2020 12:56:38 GMT-0700 (Mountain Standard Time)","Wed Sep 23 2020 13:04:46 GMT-0700 (Mountain Standard Time)","Mozilla/5.0 (Windows NT 10.0; Win64; x64) AppleWebKit/537.36 (KHTML, like Gecko) Chrome/85.0.4183.121 Safari/537.36",14,"[0.9, 0.5, 0.1]","[0.8, 0.4, 0.2]","[u'black', u'blue', u'red']","[u'left', u'middle', u'right']","[0.9, 0.5, 0.1]","[u'low', u'medium', u'high']","blue",50,"middle","medium","False","False",264,650,NA
"A1BUNT3VJFLXD0","Wed Sep 23 2020 12:56:38 GMT-0700 (Mountain Standard Time)","Wed Sep 23 2020 13:04:46 GMT-0700 (Mountain Standard Time)","Mozilla/5.0 (Windows NT 10.0; Win64; x64) AppleWebKit/537.36 (KHTML, like Gecko) Chrome/85.0.4183.121 Safari/537.36",15,"[0.9, 0.5, 0.1]","[0.8, 0.4, 0.2]","[u'black', u'blue', u'red']","[u'left', u'middle', u'right']","[0.9, 0.5, 0.1]","[u'low', u'medium', u'high']","blue",50,"middle","medium","False","False",301,600,NA
"A1BUNT3VJFLXD0","Wed Sep 23 2020 12:56:38 GMT-0700 (Mountain Standard Time)","Wed Sep 23 2020 13:04:46 GMT-0700 (Mountain Standard Time)","Mozilla/5.0 (Windows NT 10.0; Win64; x64) AppleWebKit/537.36 (KHTML, like Gecko) Chrome/85.0.4183.121 Safari/537.36",16,"[0.9, 0.5, 0.1]","[0.8, 0.4, 0.2]","[u'black', u'blue', u'red']","[u'left', u'middle', u'right']","[0.9, 0.5, 0.1]","[u'low', u'medium', u'high']","red",51,"right","high","True","False",244,700,NA
"A1BUNT3VJFLXD0","Wed Sep 23 2020 12:56:38 GMT-0700 (Mountain Standard Time)","Wed Sep 23 2020 13:04:46 GMT-0700 (Mountain Standard Time)","Mozilla/5.0 (Windows NT 10.0; Win64; x64) AppleWebKit/537.36 (KHTML, like Gecko) Chrome/85.0.4183.121 Safari/537.36",17,"[0.9, 0.5, 0.1]","[0.8, 0.4, 0.2]","[u'black', u'blue', u'red']","[u'left', u'middle', u'right']","[0.9, 0.5, 0.1]","[u'low', u'medium', u'high']","red",51,"right","high","True","False",191,800,NA
"A1BUNT3VJFLXD0","Wed Sep 23 2020 12:56:38 GMT-0700 (Mountain Standard Time)","Wed Sep 23 2020 13:04:46 GMT-0700 (Mountain Standard Time)","Mozilla/5.0 (Windows NT 10.0; Win64; x64) AppleWebKit/537.36 (KHTML, like Gecko) Chrome/85.0.4183.121 Safari/537.36",18,"[0.9, 0.5, 0.1]","[0.8, 0.4, 0.2]","[u'black', u'blue', u'red']","[u'left', u'middle', u'right']","[0.9, 0.5, 0.1]","[u'low', u'medium', u'high']","red",51,"right","high","True","False",252,900,NA
"A1BUNT3VJFLXD0","Wed Sep 23 2020 12:56:38 GMT-0700 (Mountain Standard Time)","Wed Sep 23 2020 13:04:46 GMT-0700 (Mountain Standard Time)","Mozilla/5.0 (Windows NT 10.0; Win64; x64) AppleWebKit/537.36 (KHTML, like Gecko) Chrome/85.0.4183.121 Safari/537.36",19,"[0.9, 0.5, 0.1]","[0.8, 0.4, 0.2]","[u'black', u'blue', u'red']","[u'left', u'middle', u'right']","[0.9, 0.5, 0.1]","[u'low', u'medium', u'high']","red",51,"right","high","True","False",236,1000,NA
"A1BUNT3VJFLXD0","Wed Sep 23 2020 12:56:38 GMT-0700 (Mountain Standard Time)","Wed Sep 23 2020 13:04:46 GMT-0700 (Mountain Standard Time)","Mozilla/5.0 (Windows NT 10.0; Win64; x64) AppleWebKit/537.36 (KHTML, like Gecko) Chrome/85.0.4183.121 Safari/537.36",20,"[0.9, 0.5, 0.1]","[0.8, 0.4, 0.2]","[u'black', u'blue', u'red']","[u'left', u'middle', u'right']","[0.9, 0.5, 0.1]","[u'low', u'medium', u'high']","red",51,"right","high","True","False",264,1100,NA
"A1BUNT3VJFLXD0","Wed Sep 23 2020 12:56:38 GMT-0700 (Mountain Standard Time)","Wed Sep 23 2020 13:04:46 GMT-0700 (Mountain Standard Time)","Mozilla/5.0 (Windows NT 10.0; Win64; x64) AppleWebKit/537.36 (KHTML, like Gecko) Chrome/85.0.4183.121 Safari/537.36",21,"[0.9, 0.5, 0.1]","[0.8, 0.4, 0.2]","[u'black', u'blue', u'red']","[u'left', u'middle', u'right']","[0.9, 0.5, 0.1]","[u'low', u'medium', u'high']","red",51,"right","high","True","False",484,1200,NA
"A1BUNT3VJFLXD0","Wed Sep 23 2020 12:56:38 GMT-0700 (Mountain Standard Time)","Wed Sep 23 2020 13:04:46 GMT-0700 (Mountain Standard Time)","Mozilla/5.0 (Windows NT 10.0; Win64; x64) AppleWebKit/537.36 (KHTML, like Gecko) Chrome/85.0.4183.121 Safari/537.36",22,"[0.9, 0.5, 0.1]","[0.8, 0.4, 0.2]","[u'black', u'blue', u'red']","[u'left', u'middle', u'right']","[0.9, 0.5, 0.1]","[u'low', u'medium', u'high']","red",51,"right","high","True","False",3743,1300,NA
"A1BUNT3VJFLXD0","Wed Sep 23 2020 12:56:38 GMT-0700 (Mountain Standard Time)","Wed Sep 23 2020 13:04:46 GMT-0700 (Mountain Standard Time)","Mozilla/5.0 (Windows NT 10.0; Win64; x64) AppleWebKit/537.36 (KHTML, like Gecko) Chrome/85.0.4183.121 Safari/537.36",23,"[0.9, 0.5, 0.1]","[0.8, 0.4, 0.2]","[u'black', u'blue', u'red']","[u'left', u'middle', u'right']","[0.9, 0.5, 0.1]","[u'low', u'medium', u'high']","red",51,"right","high","True","False",356,1400,NA
"A1BUNT3VJFLXD0","Wed Sep 23 2020 12:56:38 GMT-0700 (Mountain Standard Time)","Wed Sep 23 2020 13:04:46 GMT-0700 (Mountain Standard Time)","Mozilla/5.0 (Windows NT 10.0; Win64; x64) AppleWebKit/537.36 (KHTML, like Gecko) Chrome/85.0.4183.121 Safari/537.36",24,"[0.9, 0.5, 0.1]","[0.8, 0.4, 0.2]","[u'black', u'blue', u'red']","[u'left', u'middle', u'right']","[0.9, 0.5, 0.1]","[u'low', u'medium', u'high']","red",51,"right","high","True","True",341,1500,NA
"A1BUNT3VJFLXD0","Wed Sep 23 2020 12:56:38 GMT-0700 (Mountain Standard Time)","Wed Sep 23 2020 13:04:46 GMT-0700 (Mountain Standard Time)","Mozilla/5.0 (Windows NT 10.0; Win64; x64) AppleWebKit/537.36 (KHTML, like Gecko) Chrome/85.0.4183.121 Safari/537.36",25,"[0.9, 0.5, 0.1]","[0.8, 0.4, 0.2]","[u'black', u'blue', u'red']","[u'left', u'middle', u'right']","[0.9, 0.5, 0.1]","[u'high', u'medium', u'low']","red",51,"right","low","False","False",346,1450,NA
"A1BUNT3VJFLXD0","Wed Sep 23 2020 12:56:38 GMT-0700 (Mountain Standard Time)","Wed Sep 23 2020 13:04:46 GMT-0700 (Mountain Standard Time)","Mozilla/5.0 (Windows NT 10.0; Win64; x64) AppleWebKit/537.36 (KHTML, like Gecko) Chrome/85.0.4183.121 Safari/537.36",26,"[0.9, 0.5, 0.1]","[0.8, 0.4, 0.2]","[u'black', u'blue', u'red']","[u'left', u'middle', u'right']","[0.9, 0.5, 0.1]","[u'high', u'medium', u'low']","black",49,"left","high","True","False",380,1550,NA
"A1BUNT3VJFLXD0","Wed Sep 23 2020 12:56:38 GMT-0700 (Mountain Standard Time)","Wed Sep 23 2020 13:04:46 GMT-0700 (Mountain Standard Time)","Mozilla/5.0 (Windows NT 10.0; Win64; x64) AppleWebKit/537.36 (KHTML, like Gecko) Chrome/85.0.4183.121 Safari/537.36",27,"[0.9, 0.5, 0.1]","[0.8, 0.4, 0.2]","[u'black', u'blue', u'red']","[u'left', u'middle', u'right']","[0.9, 0.5, 0.1]","[u'high', u'medium', u'low']","black",49,"left","high","True","False",144,1650,NA
"A1BUNT3VJFLXD0","Wed Sep 23 2020 12:56:38 GMT-0700 (Mountain Standard Time)","Wed Sep 23 2020 13:04:46 GMT-0700 (Mountain Standard Time)","Mozilla/5.0 (Windows NT 10.0; Win64; x64) AppleWebKit/537.36 (KHTML, like Gecko) Chrome/85.0.4183.121 Safari/537.36",28,"[0.9, 0.5, 0.1]","[0.8, 0.4, 0.2]","[u'black', u'blue', u'red']","[u'left', u'middle', u'right']","[0.9, 0.5, 0.1]","[u'high', u'medium', u'low']","black",49,"left","high","True","False",241,1750,NA
"A1BUNT3VJFLXD0","Wed Sep 23 2020 12:56:38 GMT-0700 (Mountain Standard Time)","Wed Sep 23 2020 13:04:46 GMT-0700 (Mountain Standard Time)","Mozilla/5.0 (Windows NT 10.0; Win64; x64) AppleWebKit/537.36 (KHTML, like Gecko) Chrome/85.0.4183.121 Safari/537.36",29,"[0.9, 0.5, 0.1]","[0.8, 0.4, 0.2]","[u'black', u'blue', u'red']","[u'left', u'middle', u'right']","[0.9, 0.5, 0.1]","[u'high', u'medium', u'low']","black",49,"left","high","True","False",256,1850,NA
"A1BUNT3VJFLXD0","Wed Sep 23 2020 12:56:38 GMT-0700 (Mountain Standard Time)","Wed Sep 23 2020 13:04:46 GMT-0700 (Mountain Standard Time)","Mozilla/5.0 (Windows NT 10.0; Win64; x64) AppleWebKit/537.36 (KHTML, like Gecko) Chrome/85.0.4183.121 Safari/537.36",30,"[0.9, 0.5, 0.1]","[0.8, 0.4, 0.2]","[u'black', u'blue', u'red']","[u'left', u'middle', u'right']","[0.9, 0.5, 0.1]","[u'high', u'medium', u'low']","black",49,"left","high","True","False",230,1950,NA
"A1BUNT3VJFLXD0","Wed Sep 23 2020 12:56:38 GMT-0700 (Mountain Standard Time)","Wed Sep 23 2020 13:04:46 GMT-0700 (Mountain Standard Time)","Mozilla/5.0 (Windows NT 10.0; Win64; x64) AppleWebKit/537.36 (KHTML, like Gecko) Chrome/85.0.4183.121 Safari/537.36",31,"[0.9, 0.5, 0.1]","[0.8, 0.4, 0.2]","[u'black', u'blue', u'red']","[u'left', u'middle', u'right']","[0.9, 0.5, 0.1]","[u'high', u'medium', u'low']","black",49,"left","high","True","False",181,2050,NA
"A1BUNT3VJFLXD0","Wed Sep 23 2020 12:56:38 GMT-0700 (Mountain Standard Time)","Wed Sep 23 2020 13:04:46 GMT-0700 (Mountain Standard Time)","Mozilla/5.0 (Windows NT 10.0; Win64; x64) AppleWebKit/537.36 (KHTML, like Gecko) Chrome/85.0.4183.121 Safari/537.36",32,"[0.9, 0.5, 0.1]","[0.8, 0.4, 0.2]","[u'black', u'blue', u'red']","[u'left', u'middle', u'right']","[0.9, 0.5, 0.1]","[u'high', u'medium', u'low']","black",49,"left","high","True","False",255,2150,NA
"A1BUNT3VJFLXD0","Wed Sep 23 2020 12:56:38 GMT-0700 (Mountain Standard Time)","Wed Sep 23 2020 13:04:46 GMT-0700 (Mountain Standard Time)","Mozilla/5.0 (Windows NT 10.0; Win64; x64) AppleWebKit/537.36 (KHTML, like Gecko) Chrome/85.0.4183.121 Safari/537.36",33,"[0.9, 0.5, 0.1]","[0.8, 0.4, 0.2]","[u'black', u'blue', u'red']","[u'left', u'middle', u'right']","[0.9, 0.5, 0.1]","[u'high', u'medium', u'low']","black",49,"left","high","True","False",148,2250,NA
"A1BUNT3VJFLXD0","Wed Sep 23 2020 12:56:38 GMT-0700 (Mountain Standard Time)","Wed Sep 23 2020 13:04:46 GMT-0700 (Mountain Standard Time)","Mozilla/5.0 (Windows NT 10.0; Win64; x64) AppleWebKit/537.36 (KHTML, like Gecko) Chrome/85.0.4183.121 Safari/537.36",34,"[0.9, 0.5, 0.1]","[0.8, 0.4, 0.2]","[u'black', u'blue', u'red']","[u'left', u'middle', u'right']","[0.9, 0.5, 0.1]","[u'high', u'medium', u'low']","black",49,"left","high","True","True",135,2350,NA
"A1BUNT3VJFLXD0","Wed Sep 23 2020 12:56:38 GMT-0700 (Mountain Standard Time)","Wed Sep 23 2020 13:04:46 GMT-0700 (Mountain Standard Time)","Mozilla/5.0 (Windows NT 10.0; Win64; x64) AppleWebKit/537.36 (KHTML, like Gecko) Chrome/85.0.4183.121 Safari/537.36",35,"[0.9, 0.5, 0.1]","[0.8, 0.4, 0.2]","[u'black', u'blue', u'red']","[u'left', u'middle', u'right']","[0.9, 0.5, 0.1]","[u'low', u'high', u'medium']","black",49,"left","low","False","False",157,2300,NA
"A1BUNT3VJFLXD0","Wed Sep 23 2020 12:56:38 GMT-0700 (Mountain Standard Time)","Wed Sep 23 2020 13:04:46 GMT-0700 (Mountain Standard Time)","Mozilla/5.0 (Windows NT 10.0; Win64; x64) AppleWebKit/537.36 (KHTML, like Gecko) Chrome/85.0.4183.121 Safari/537.36",36,"[0.9, 0.5, 0.1]","[0.8, 0.4, 0.2]","[u'black', u'blue', u'red']","[u'left', u'middle', u'right']","[0.9, 0.5, 0.1]","[u'low', u'high', u'medium']","blue",50,"middle","high","True","False",280,2400,NA
"A1BUNT3VJFLXD0","Wed Sep 23 2020 12:56:38 GMT-0700 (Mountain Standard Time)","Wed Sep 23 2020 13:04:46 GMT-0700 (Mountain Standard Time)","Mozilla/5.0 (Windows NT 10.0; Win64; x64) AppleWebKit/537.36 (KHTML, like Gecko) Chrome/85.0.4183.121 Safari/537.36",37,"[0.9, 0.5, 0.1]","[0.8, 0.4, 0.2]","[u'black', u'blue', u'red']","[u'left', u'middle', u'right']","[0.9, 0.5, 0.1]","[u'low', u'high', u'medium']","blue",50,"middle","high","True","False",134,2500,NA
"A1BUNT3VJFLXD0","Wed Sep 23 2020 12:56:38 GMT-0700 (Mountain Standard Time)","Wed Sep 23 2020 13:04:46 GMT-0700 (Mountain Standard Time)","Mozilla/5.0 (Windows NT 10.0; Win64; x64) AppleWebKit/537.36 (KHTML, like Gecko) Chrome/85.0.4183.121 Safari/537.36",38,"[0.9, 0.5, 0.1]","[0.8, 0.4, 0.2]","[u'black', u'blue', u'red']","[u'left', u'middle', u'right']","[0.9, 0.5, 0.1]","[u'low', u'high', u'medium']","blue",50,"middle","high","True","False",197,2600,NA
"A1BUNT3VJFLXD0","Wed Sep 23 2020 12:56:38 GMT-0700 (Mountain Standard Time)","Wed Sep 23 2020 13:04:46 GMT-0700 (Mountain Standard Time)","Mozilla/5.0 (Windows NT 10.0; Win64; x64) AppleWebKit/537.36 (KHTML, like Gecko) Chrome/85.0.4183.121 Safari/537.36",39,"[0.9, 0.5, 0.1]","[0.8, 0.4, 0.2]","[u'black', u'blue', u'red']","[u'left', u'middle', u'right']","[0.9, 0.5, 0.1]","[u'low', u'high', u'medium']","blue",50,"middle","high","True","False",66,2700,NA
"A1BUNT3VJFLXD0","Wed Sep 23 2020 12:56:38 GMT-0700 (Mountain Standard Time)","Wed Sep 23 2020 13:04:46 GMT-0700 (Mountain Standard Time)","Mozilla/5.0 (Windows NT 10.0; Win64; x64) AppleWebKit/537.36 (KHTML, like Gecko) Chrome/85.0.4183.121 Safari/537.36",40,"[0.9, 0.5, 0.1]","[0.8, 0.4, 0.2]","[u'black', u'blue', u'red']","[u'left', u'middle', u'right']","[0.9, 0.5, 0.1]","[u'low', u'high', u'medium']","blue",50,"middle","high","True","False",247,2800,NA
"A1BUNT3VJFLXD0","Wed Sep 23 2020 12:56:38 GMT-0700 (Mountain Standard Time)","Wed Sep 23 2020 13:04:46 GMT-0700 (Mountain Standard Time)","Mozilla/5.0 (Windows NT 10.0; Win64; x64) AppleWebKit/537.36 (KHTML, like Gecko) Chrome/85.0.4183.121 Safari/537.36",41,"[0.9, 0.5, 0.1]","[0.8, 0.4, 0.2]","[u'black', u'blue', u'red']","[u'left', u'middle', u'right']","[0.9, 0.5, 0.1]","[u'high', u'medium', u'low']","blue",50,"middle","medium","False","False",962,2750,NA
"A1BUNT3VJFLXD0","Wed Sep 23 2020 12:56:38 GMT-0700 (Mountain Standard Time)","Wed Sep 23 2020 13:04:46 GMT-0700 (Mountain Standard Time)","Mozilla/5.0 (Windows NT 10.0; Win64; x64) AppleWebKit/537.36 (KHTML, like Gecko) Chrome/85.0.4183.121 Safari/537.36",42,"[0.9, 0.5, 0.1]","[0.8, 0.4, 0.2]","[u'black', u'blue', u'red']","[u'left', u'middle', u'right']","[0.9, 0.5, 0.1]","[u'high', u'medium', u'low']","red",51,"right","low","False","False",217,2700,NA
"A1BUNT3VJFLXD0","Wed Sep 23 2020 12:56:38 GMT-0700 (Mountain Standard Time)","Wed Sep 23 2020 13:04:46 GMT-0700 (Mountain Standard Time)","Mozilla/5.0 (Windows NT 10.0; Win64; x64) AppleWebKit/537.36 (KHTML, like Gecko) Chrome/85.0.4183.121 Safari/537.36",43,"[0.9, 0.5, 0.1]","[0.8, 0.4, 0.2]","[u'black', u'blue', u'red']","[u'left', u'middle', u'right']","[0.9, 0.5, 0.1]","[u'high', u'medium', u'low']","black",49,"left","high","True","False",136,2800,NA
"A1BUNT3VJFLXD0","Wed Sep 23 2020 12:56:38 GMT-0700 (Mountain Standard Time)","Wed Sep 23 2020 13:04:46 GMT-0700 (Mountain Standard Time)","Mozilla/5.0 (Windows NT 10.0; Win64; x64) AppleWebKit/537.36 (KHTML, like Gecko) Chrome/85.0.4183.121 Safari/537.36",44,"[0.9, 0.5, 0.1]","[0.8, 0.4, 0.2]","[u'black', u'blue', u'red']","[u'left', u'middle', u'right']","[0.9, 0.5, 0.1]","[u'high', u'medium', u'low']","black",49,"left","high","True","False",107,2900,NA
"A1BUNT3VJFLXD0","Wed Sep 23 2020 12:56:38 GMT-0700 (Mountain Standard Time)","Wed Sep 23 2020 13:04:46 GMT-0700 (Mountain Standard Time)","Mozilla/5.0 (Windows NT 10.0; Win64; x64) AppleWebKit/537.36 (KHTML, like Gecko) Chrome/85.0.4183.121 Safari/537.36",45,"[0.9, 0.5, 0.1]","[0.8, 0.4, 0.2]","[u'black', u'blue', u'red']","[u'left', u'middle', u'right']","[0.9, 0.5, 0.1]","[u'high', u'medium', u'low']","black",49,"left","high","True","False",263,3000,NA
"A1BUNT3VJFLXD0","Wed Sep 23 2020 12:56:38 GMT-0700 (Mountain Standard Time)","Wed Sep 23 2020 13:04:46 GMT-0700 (Mountain Standard Time)","Mozilla/5.0 (Windows NT 10.0; Win64; x64) AppleWebKit/537.36 (KHTML, like Gecko) Chrome/85.0.4183.121 Safari/537.36",46,"[0.9, 0.5, 0.1]","[0.8, 0.4, 0.2]","[u'black', u'blue', u'red']","[u'left', u'middle', u'right']","[0.9, 0.5, 0.1]","[u'high', u'medium', u'low']","black",49,"left","high","True","False",247,3100,NA
"A1BUNT3VJFLXD0","Wed Sep 23 2020 12:56:38 GMT-0700 (Mountain Standard Time)","Wed Sep 23 2020 13:04:46 GMT-0700 (Mountain Standard Time)","Mozilla/5.0 (Windows NT 10.0; Win64; x64) AppleWebKit/537.36 (KHTML, like Gecko) Chrome/85.0.4183.121 Safari/537.36",47,"[0.9, 0.5, 0.1]","[0.8, 0.4, 0.2]","[u'black', u'blue', u'red']","[u'left', u'middle', u'right']","[0.9, 0.5, 0.1]","[u'high', u'medium', u'low']","black",49,"left","high","True","False",263,3200,NA
"A1BUNT3VJFLXD0","Wed Sep 23 2020 12:56:38 GMT-0700 (Mountain Standard Time)","Wed Sep 23 2020 13:04:46 GMT-0700 (Mountain Standard Time)","Mozilla/5.0 (Windows NT 10.0; Win64; x64) AppleWebKit/537.36 (KHTML, like Gecko) Chrome/85.0.4183.121 Safari/537.36",48,"[0.9, 0.5, 0.1]","[0.8, 0.4, 0.2]","[u'black', u'blue', u'red']","[u'left', u'middle', u'right']","[0.9, 0.5, 0.1]","[u'high', u'medium', u'low']","black",49,"left","high","True","False",249,3300,NA
"A1BUNT3VJFLXD0","Wed Sep 23 2020 12:56:38 GMT-0700 (Mountain Standard Time)","Wed Sep 23 2020 13:04:46 GMT-0700 (Mountain Standard Time)","Mozilla/5.0 (Windows NT 10.0; Win64; x64) AppleWebKit/537.36 (KHTML, like Gecko) Chrome/85.0.4183.121 Safari/537.36",49,"[0.9, 0.5, 0.1]","[0.8, 0.4, 0.2]","[u'black', u'blue', u'red']","[u'left', u'middle', u'right']","[0.9, 0.5, 0.1]","[u'high', u'medium', u'low']","black",49,"left","high","True","False",270,3400,NA
"A1BUNT3VJFLXD0","Wed Sep 23 2020 12:56:38 GMT-0700 (Mountain Standard Time)","Wed Sep 23 2020 13:04:46 GMT-0700 (Mountain Standard Time)","Mozilla/5.0 (Windows NT 10.0; Win64; x64) AppleWebKit/537.36 (KHTML, like Gecko) Chrome/85.0.4183.121 Safari/537.36",50,"[0.9, 0.5, 0.1]","[0.8, 0.4, 0.2]","[u'black', u'blue', u'red']","[u'left', u'middle', u'right']","[0.9, 0.5, 0.1]","[u'high', u'medium', u'low']","black",49,"left","high","True","False",271,3500,NA
"A1BUNT3VJFLXD0","Wed Sep 23 2020 12:56:38 GMT-0700 (Mountain Standard Time)","Wed Sep 23 2020 13:04:46 GMT-0700 (Mountain Standard Time)","Mozilla/5.0 (Windows NT 10.0; Win64; x64) AppleWebKit/537.36 (KHTML, like Gecko) Chrome/85.0.4183.121 Safari/537.36",51,"[0.9, 0.5, 0.1]","[0.8, 0.4, 0.2]","[u'black', u'blue', u'red']","[u'left', u'middle', u'right']","[0.9, 0.5, 0.1]","[u'high', u'medium', u'low']","black",49,"left","high","True","True",235,3600,NA
"A1BUNT3VJFLXD0","Wed Sep 23 2020 12:56:38 GMT-0700 (Mountain Standard Time)","Wed Sep 23 2020 13:04:46 GMT-0700 (Mountain Standard Time)","Mozilla/5.0 (Windows NT 10.0; Win64; x64) AppleWebKit/537.36 (KHTML, like Gecko) Chrome/85.0.4183.121 Safari/537.36",52,"[0.9, 0.5, 0.1]","[0.8, 0.4, 0.2]","[u'black', u'blue', u'red']","[u'left', u'middle', u'right']","[0.9, 0.5, 0.1]","[u'low', u'medium', u'high']","black",49,"left","low","False","False",246,3550,NA
"A1BUNT3VJFLXD0","Wed Sep 23 2020 12:56:38 GMT-0700 (Mountain Standard Time)","Wed Sep 23 2020 13:04:46 GMT-0700 (Mountain Standard Time)","Mozilla/5.0 (Windows NT 10.0; Win64; x64) AppleWebKit/537.36 (KHTML, like Gecko) Chrome/85.0.4183.121 Safari/537.36",53,"[0.9, 0.5, 0.1]","[0.8, 0.4, 0.2]","[u'black', u'blue', u'red']","[u'left', u'middle', u'right']","[0.9, 0.5, 0.1]","[u'low', u'medium', u'high']","red",51,"right","high","True","False",198,3650,NA
"A1BUNT3VJFLXD0","Wed Sep 23 2020 12:56:38 GMT-0700 (Mountain Standard Time)","Wed Sep 23 2020 13:04:46 GMT-0700 (Mountain Standard Time)","Mozilla/5.0 (Windows NT 10.0; Win64; x64) AppleWebKit/537.36 (KHTML, like Gecko) Chrome/85.0.4183.121 Safari/537.36",54,"[0.9, 0.5, 0.1]","[0.8, 0.4, 0.2]","[u'black', u'blue', u'red']","[u'left', u'middle', u'right']","[0.9, 0.5, 0.1]","[u'low', u'medium', u'high']","red",51,"right","high","True","False",159,3750,NA
"A1BUNT3VJFLXD0","Wed Sep 23 2020 12:56:38 GMT-0700 (Mountain Standard Time)","Wed Sep 23 2020 13:04:46 GMT-0700 (Mountain Standard Time)","Mozilla/5.0 (Windows NT 10.0; Win64; x64) AppleWebKit/537.36 (KHTML, like Gecko) Chrome/85.0.4183.121 Safari/537.36",55,"[0.9, 0.5, 0.1]","[0.8, 0.4, 0.2]","[u'black', u'blue', u'red']","[u'left', u'middle', u'right']","[0.9, 0.5, 0.1]","[u'low', u'medium', u'high']","red",51,"right","high","True","False",202,3850,NA
"A1BUNT3VJFLXD0","Wed Sep 23 2020 12:56:38 GMT-0700 (Mountain Standard Time)","Wed Sep 23 2020 13:04:46 GMT-0700 (Mountain Standard Time)","Mozilla/5.0 (Windows NT 10.0; Win64; x64) AppleWebKit/537.36 (KHTML, like Gecko) Chrome/85.0.4183.121 Safari/537.36",56,"[0.9, 0.5, 0.1]","[0.8, 0.4, 0.2]","[u'black', u'blue', u'red']","[u'left', u'middle', u'right']","[0.9, 0.5, 0.1]","[u'low', u'medium', u'high']","red",51,"right","high","True","False",123,3950,NA
"A1BUNT3VJFLXD0","Wed Sep 23 2020 12:56:38 GMT-0700 (Mountain Standard Time)","Wed Sep 23 2020 13:04:46 GMT-0700 (Mountain Standard Time)","Mozilla/5.0 (Windows NT 10.0; Win64; x64) AppleWebKit/537.36 (KHTML, like Gecko) Chrome/85.0.4183.121 Safari/537.36",57,"[0.9, 0.5, 0.1]","[0.8, 0.4, 0.2]","[u'black', u'blue', u'red']","[u'left', u'middle', u'right']","[0.9, 0.5, 0.1]","[u'low', u'medium', u'high']","red",51,"right","high","True","False",238,4050,NA
"A1BUNT3VJFLXD0","Wed Sep 23 2020 12:56:38 GMT-0700 (Mountain Standard Time)","Wed Sep 23 2020 13:04:46 GMT-0700 (Mountain Standard Time)","Mozilla/5.0 (Windows NT 10.0; Win64; x64) AppleWebKit/537.36 (KHTML, like Gecko) Chrome/85.0.4183.121 Safari/537.36",58,"[0.9, 0.5, 0.1]","[0.8, 0.4, 0.2]","[u'black', u'blue', u'red']","[u'left', u'middle', u'right']","[0.9, 0.5, 0.1]","[u'low', u'medium', u'high']","red",51,"right","high","True","False",269,4150,NA
"A1BUNT3VJFLXD0","Wed Sep 23 2020 12:56:38 GMT-0700 (Mountain Standard Time)","Wed Sep 23 2020 13:04:46 GMT-0700 (Mountain Standard Time)","Mozilla/5.0 (Windows NT 10.0; Win64; x64) AppleWebKit/537.36 (KHTML, like Gecko) Chrome/85.0.4183.121 Safari/537.36",59,"[0.9, 0.5, 0.1]","[0.8, 0.4, 0.2]","[u'black', u'blue', u'red']","[u'left', u'middle', u'right']","[0.9, 0.5, 0.1]","[u'low', u'medium', u'high']","red",51,"right","high","True","False",221,4250,NA
"A1BUNT3VJFLXD0","Wed Sep 23 2020 12:56:38 GMT-0700 (Mountain Standard Time)","Wed Sep 23 2020 13:04:46 GMT-0700 (Mountain Standard Time)","Mozilla/5.0 (Windows NT 10.0; Win64; x64) AppleWebKit/537.36 (KHTML, like Gecko) Chrome/85.0.4183.121 Safari/537.36",60,"[0.9, 0.5, 0.1]","[0.8, 0.4, 0.2]","[u'black', u'blue', u'red']","[u'left', u'middle', u'right']","[0.9, 0.5, 0.1]","[u'low', u'medium', u'high']","red",51,"right","high","True","False",292,4350,NA
"A1BUNT3VJFLXD0","Wed Sep 23 2020 12:56:38 GMT-0700 (Mountain Standard Time)","Wed Sep 23 2020 13:04:46 GMT-0700 (Mountain Standard Time)","Mozilla/5.0 (Windows NT 10.0; Win64; x64) AppleWebKit/537.36 (KHTML, like Gecko) Chrome/85.0.4183.121 Safari/537.36",61,"[0.9, 0.5, 0.1]","[0.8, 0.4, 0.2]","[u'black', u'blue', u'red']","[u'left', u'middle', u'right']","[0.9, 0.5, 0.1]","[u'low', u'medium', u'high']","red",51,"right","high","True","True",298,4450,NA
"A1BUNT3VJFLXD0","Wed Sep 23 2020 12:56:38 GMT-0700 (Mountain Standard Time)","Wed Sep 23 2020 13:04:46 GMT-0700 (Mountain Standard Time)","Mozilla/5.0 (Windows NT 10.0; Win64; x64) AppleWebKit/537.36 (KHTML, like Gecko) Chrome/85.0.4183.121 Safari/537.36",62,"[0.9, 0.5, 0.1]","[0.8, 0.4, 0.2]","[u'black', u'blue', u'red']","[u'left', u'middle', u'right']","[0.9, 0.5, 0.1]","[u'high', u'low', u'medium']","red",51,"right","medium","False","False",220,4400,NA
"A1BUNT3VJFLXD0","Wed Sep 23 2020 12:56:38 GMT-0700 (Mountain Standard Time)","Wed Sep 23 2020 13:04:46 GMT-0700 (Mountain Standard Time)","Mozilla/5.0 (Windows NT 10.0; Win64; x64) AppleWebKit/537.36 (KHTML, like Gecko) Chrome/85.0.4183.121 Safari/537.36",63,"[0.9, 0.5, 0.1]","[0.8, 0.4, 0.2]","[u'black', u'blue', u'red']","[u'left', u'middle', u'right']","[0.9, 0.5, 0.1]","[u'high', u'low', u'medium']","blue",50,"middle","low","False","False",79,4350,NA
"A1BUNT3VJFLXD0","Wed Sep 23 2020 12:56:38 GMT-0700 (Mountain Standard Time)","Wed Sep 23 2020 13:04:46 GMT-0700 (Mountain Standard Time)","Mozilla/5.0 (Windows NT 10.0; Win64; x64) AppleWebKit/537.36 (KHTML, like Gecko) Chrome/85.0.4183.121 Safari/537.36",64,"[0.9, 0.5, 0.1]","[0.8, 0.4, 0.2]","[u'black', u'blue', u'red']","[u'left', u'middle', u'right']","[0.9, 0.5, 0.1]","[u'high', u'low', u'medium']","black",49,"left","high","True","False",110,4450,NA
"A1BUNT3VJFLXD0","Wed Sep 23 2020 12:56:38 GMT-0700 (Mountain Standard Time)","Wed Sep 23 2020 13:04:46 GMT-0700 (Mountain Standard Time)","Mozilla/5.0 (Windows NT 10.0; Win64; x64) AppleWebKit/537.36 (KHTML, like Gecko) Chrome/85.0.4183.121 Safari/537.36",65,"[0.9, 0.5, 0.1]","[0.8, 0.4, 0.2]","[u'black', u'blue', u'red']","[u'left', u'middle', u'right']","[0.9, 0.5, 0.1]","[u'high', u'low', u'medium']","black",49,"left","high","True","False",114,4550,NA
"A1BUNT3VJFLXD0","Wed Sep 23 2020 12:56:38 GMT-0700 (Mountain Standard Time)","Wed Sep 23 2020 13:04:46 GMT-0700 (Mountain Standard Time)","Mozilla/5.0 (Windows NT 10.0; Win64; x64) AppleWebKit/537.36 (KHTML, like Gecko) Chrome/85.0.4183.121 Safari/537.36",66,"[0.9, 0.5, 0.1]","[0.8, 0.4, 0.2]","[u'black', u'blue', u'red']","[u'left', u'middle', u'right']","[0.9, 0.5, 0.1]","[u'high', u'low', u'medium']","black",49,"left","high","True","False",223,4650,NA
"A1BUNT3VJFLXD0","Wed Sep 23 2020 12:56:38 GMT-0700 (Mountain Standard Time)","Wed Sep 23 2020 13:04:46 GMT-0700 (Mountain Standard Time)","Mozilla/5.0 (Windows NT 10.0; Win64; x64) AppleWebKit/537.36 (KHTML, like Gecko) Chrome/85.0.4183.121 Safari/537.36",67,"[0.9, 0.5, 0.1]","[0.8, 0.4, 0.2]","[u'black', u'blue', u'red']","[u'left', u'middle', u'right']","[0.9, 0.5, 0.1]","[u'high', u'low', u'medium']","black",49,"left","high","True","False",224,4750,NA
"A1BUNT3VJFLXD0","Wed Sep 23 2020 12:56:38 GMT-0700 (Mountain Standard Time)","Wed Sep 23 2020 13:04:46 GMT-0700 (Mountain Standard Time)","Mozilla/5.0 (Windows NT 10.0; Win64; x64) AppleWebKit/537.36 (KHTML, like Gecko) Chrome/85.0.4183.121 Safari/537.36",68,"[0.9, 0.5, 0.1]","[0.8, 0.4, 0.2]","[u'black', u'blue', u'red']","[u'left', u'middle', u'right']","[0.9, 0.5, 0.1]","[u'high', u'low', u'medium']","black",49,"left","high","True","False",308,4850,NA
"A1BUNT3VJFLXD0","Wed Sep 23 2020 12:56:38 GMT-0700 (Mountain Standard Time)","Wed Sep 23 2020 13:04:46 GMT-0700 (Mountain Standard Time)","Mozilla/5.0 (Windows NT 10.0; Win64; x64) AppleWebKit/537.36 (KHTML, like Gecko) Chrome/85.0.4183.121 Safari/537.36",69,"[0.9, 0.5, 0.1]","[0.8, 0.4, 0.2]","[u'black', u'blue', u'red']","[u'left', u'middle', u'right']","[0.9, 0.5, 0.1]","[u'high', u'low', u'medium']","black",49,"left","high","True","False",338,4950,NA
"A1BUNT3VJFLXD0","Wed Sep 23 2020 12:56:38 GMT-0700 (Mountain Standard Time)","Wed Sep 23 2020 13:04:46 GMT-0700 (Mountain Standard Time)","Mozilla/5.0 (Windows NT 10.0; Win64; x64) AppleWebKit/537.36 (KHTML, like Gecko) Chrome/85.0.4183.121 Safari/537.36",70,"[0.9, 0.5, 0.1]","[0.8, 0.4, 0.2]","[u'black', u'blue', u'red']","[u'left', u'middle', u'right']","[0.9, 0.5, 0.1]","[u'high', u'low', u'medium']","black",49,"left","high","True","False",279,5050,NA
"A1BUNT3VJFLXD0","Wed Sep 23 2020 12:56:38 GMT-0700 (Mountain Standard Time)","Wed Sep 23 2020 13:04:46 GMT-0700 (Mountain Standard Time)","Mozilla/5.0 (Windows NT 10.0; Win64; x64) AppleWebKit/537.36 (KHTML, like Gecko) Chrome/85.0.4183.121 Safari/537.36",71,"[0.9, 0.5, 0.1]","[0.8, 0.4, 0.2]","[u'black', u'blue', u'red']","[u'left', u'middle', u'right']","[0.9, 0.5, 0.1]","[u'high', u'low', u'medium']","black",49,"left","high","True","False",305,5150,NA
"A1BUNT3VJFLXD0","Wed Sep 23 2020 12:56:38 GMT-0700 (Mountain Standard Time)","Wed Sep 23 2020 13:04:46 GMT-0700 (Mountain Standard Time)","Mozilla/5.0 (Windows NT 10.0; Win64; x64) AppleWebKit/537.36 (KHTML, like Gecko) Chrome/85.0.4183.121 Safari/537.36",72,"[0.9, 0.5, 0.1]","[0.8, 0.4, 0.2]","[u'black', u'blue', u'red']","[u'left', u'middle', u'right']","[0.9, 0.5, 0.1]","[u'high', u'low', u'medium']","black",49,"left","high","True","True",242,5250,NA
"A1BUNT3VJFLXD0","Wed Sep 23 2020 12:56:38 GMT-0700 (Mountain Standard Time)","Wed Sep 23 2020 13:04:46 GMT-0700 (Mountain Standard Time)","Mozilla/5.0 (Windows NT 10.0; Win64; x64) AppleWebKit/537.36 (KHTML, like Gecko) Chrome/85.0.4183.121 Safari/537.36",73,"[0.9, 0.5, 0.1]","[0.8, 0.4, 0.2]","[u'black', u'blue', u'red']","[u'left', u'middle', u'right']","[0.9, 0.5, 0.1]","[u'low', u'medium', u'high']","black",49,"left","low","False","False",536,5200,NA
"A1BUNT3VJFLXD0","Wed Sep 23 2020 12:56:38 GMT-0700 (Mountain Standard Time)","Wed Sep 23 2020 13:04:46 GMT-0700 (Mountain Standard Time)","Mozilla/5.0 (Windows NT 10.0; Win64; x64) AppleWebKit/537.36 (KHTML, like Gecko) Chrome/85.0.4183.121 Safari/537.36",74,"[0.9, 0.5, 0.1]","[0.8, 0.4, 0.2]","[u'black', u'blue', u'red']","[u'left', u'middle', u'right']","[0.9, 0.5, 0.1]","[u'low', u'medium', u'high']","red",51,"right","high","True","False",91,5300,NA
"A1BUNT3VJFLXD0","Wed Sep 23 2020 12:56:38 GMT-0700 (Mountain Standard Time)","Wed Sep 23 2020 13:04:46 GMT-0700 (Mountain Standard Time)","Mozilla/5.0 (Windows NT 10.0; Win64; x64) AppleWebKit/537.36 (KHTML, like Gecko) Chrome/85.0.4183.121 Safari/537.36",75,"[0.9, 0.5, 0.1]","[0.8, 0.4, 0.2]","[u'black', u'blue', u'red']","[u'left', u'middle', u'right']","[0.9, 0.5, 0.1]","[u'low', u'medium', u'high']","red",51,"right","high","True","False",253,5400,NA
"A1BUNT3VJFLXD0","Wed Sep 23 2020 12:56:38 GMT-0700 (Mountain Standard Time)","Wed Sep 23 2020 13:04:46 GMT-0700 (Mountain Standard Time)","Mozilla/5.0 (Windows NT 10.0; Win64; x64) AppleWebKit/537.36 (KHTML, like Gecko) Chrome/85.0.4183.121 Safari/537.36",76,"[0.9, 0.5, 0.1]","[0.8, 0.4, 0.2]","[u'black', u'blue', u'red']","[u'left', u'middle', u'right']","[0.9, 0.5, 0.1]","[u'low', u'medium', u'high']","red",51,"right","high","True","False",244,5500,NA
"A1BUNT3VJFLXD0","Wed Sep 23 2020 12:56:38 GMT-0700 (Mountain Standard Time)","Wed Sep 23 2020 13:04:46 GMT-0700 (Mountain Standard Time)","Mozilla/5.0 (Windows NT 10.0; Win64; x64) AppleWebKit/537.36 (KHTML, like Gecko) Chrome/85.0.4183.121 Safari/537.36",77,"[0.9, 0.5, 0.1]","[0.8, 0.4, 0.2]","[u'black', u'blue', u'red']","[u'left', u'middle', u'right']","[0.9, 0.5, 0.1]","[u'low', u'medium', u'high']","red",51,"right","high","True","False",278,5600,NA
"A1BUNT3VJFLXD0","Wed Sep 23 2020 12:56:38 GMT-0700 (Mountain Standard Time)","Wed Sep 23 2020 13:04:46 GMT-0700 (Mountain Standard Time)","Mozilla/5.0 (Windows NT 10.0; Win64; x64) AppleWebKit/537.36 (KHTML, like Gecko) Chrome/85.0.4183.121 Safari/537.36",78,"[0.9, 0.5, 0.1]","[0.8, 0.4, 0.2]","[u'black', u'blue', u'red']","[u'left', u'middle', u'right']","[0.9, 0.5, 0.1]","[u'low', u'medium', u'high']","red",51,"right","high","True","False",316,5700,NA
"A1BUNT3VJFLXD0","Wed Sep 23 2020 12:56:38 GMT-0700 (Mountain Standard Time)","Wed Sep 23 2020 13:04:46 GMT-0700 (Mountain Standard Time)","Mozilla/5.0 (Windows NT 10.0; Win64; x64) AppleWebKit/537.36 (KHTML, like Gecko) Chrome/85.0.4183.121 Safari/537.36",79,"[0.9, 0.5, 0.1]","[0.8, 0.4, 0.2]","[u'black', u'blue', u'red']","[u'left', u'middle', u'right']","[0.9, 0.5, 0.1]","[u'low', u'medium', u'high']","red",51,"right","high","True","False",498,5800,NA
"A1BUNT3VJFLXD0","Wed Sep 23 2020 12:56:38 GMT-0700 (Mountain Standard Time)","Wed Sep 23 2020 13:04:46 GMT-0700 (Mountain Standard Time)","Mozilla/5.0 (Windows NT 10.0; Win64; x64) AppleWebKit/537.36 (KHTML, like Gecko) Chrome/85.0.4183.121 Safari/537.36",80,"[0.9, 0.5, 0.1]","[0.8, 0.4, 0.2]","[u'black', u'blue', u'red']","[u'left', u'middle', u'right']","[0.9, 0.5, 0.1]","[u'low', u'medium', u'high']","red",51,"right","high","True","False",360,5900,NA
"A1BUNT3VJFLXD0","Wed Sep 23 2020 12:56:38 GMT-0700 (Mountain Standard Time)","Wed Sep 23 2020 13:04:46 GMT-0700 (Mountain Standard Time)","Mozilla/5.0 (Windows NT 10.0; Win64; x64) AppleWebKit/537.36 (KHTML, like Gecko) Chrome/85.0.4183.121 Safari/537.36",81,"[0.9, 0.5, 0.1]","[0.8, 0.4, 0.2]","[u'black', u'blue', u'red']","[u'left', u'middle', u'right']","[0.8, 0.4, 0.2]","[u'high', u'low', u'medium']","black",49,"left","high","True","False",1601,6000,NA
"A1BUNT3VJFLXD0","Wed Sep 23 2020 12:56:38 GMT-0700 (Mountain Standard Time)","Wed Sep 23 2020 13:04:46 GMT-0700 (Mountain Standard Time)","Mozilla/5.0 (Windows NT 10.0; Win64; x64) AppleWebKit/537.36 (KHTML, like Gecko) Chrome/85.0.4183.121 Safari/537.36",82,"[0.9, 0.5, 0.1]","[0.8, 0.4, 0.2]","[u'black', u'blue', u'red']","[u'left', u'middle', u'right']","[0.8, 0.4, 0.2]","[u'high', u'low', u'medium']","black",49,"left","high","False","False",250,5950,NA
"A1BUNT3VJFLXD0","Wed Sep 23 2020 12:56:38 GMT-0700 (Mountain Standard Time)","Wed Sep 23 2020 13:04:46 GMT-0700 (Mountain Standard Time)","Mozilla/5.0 (Windows NT 10.0; Win64; x64) AppleWebKit/537.36 (KHTML, like Gecko) Chrome/85.0.4183.121 Safari/537.36",83,"[0.9, 0.5, 0.1]","[0.8, 0.4, 0.2]","[u'black', u'blue', u'red']","[u'left', u'middle', u'right']","[0.8, 0.4, 0.2]","[u'high', u'low', u'medium']","blue",50,"middle","low","False","False",237,5900,NA
"A1BUNT3VJFLXD0","Wed Sep 23 2020 12:56:38 GMT-0700 (Mountain Standard Time)","Wed Sep 23 2020 13:04:46 GMT-0700 (Mountain Standard Time)","Mozilla/5.0 (Windows NT 10.0; Win64; x64) AppleWebKit/537.36 (KHTML, like Gecko) Chrome/85.0.4183.121 Safari/537.36",84,"[0.9, 0.5, 0.1]","[0.8, 0.4, 0.2]","[u'black', u'blue', u'red']","[u'left', u'middle', u'right']","[0.8, 0.4, 0.2]","[u'high', u'low', u'medium']","red",51,"right","medium","True","False",73,6000,NA
"A1BUNT3VJFLXD0","Wed Sep 23 2020 12:56:38 GMT-0700 (Mountain Standard Time)","Wed Sep 23 2020 13:04:46 GMT-0700 (Mountain Standard Time)","Mozilla/5.0 (Windows NT 10.0; Win64; x64) AppleWebKit/537.36 (KHTML, like Gecko) Chrome/85.0.4183.121 Safari/537.36",85,"[0.9, 0.5, 0.1]","[0.8, 0.4, 0.2]","[u'black', u'blue', u'red']","[u'left', u'middle', u'right']","[0.8, 0.4, 0.2]","[u'high', u'low', u'medium']","red",51,"right","medium","False","False",251,5950,NA
"A1BUNT3VJFLXD0","Wed Sep 23 2020 12:56:38 GMT-0700 (Mountain Standard Time)","Wed Sep 23 2020 13:04:46 GMT-0700 (Mountain Standard Time)","Mozilla/5.0 (Windows NT 10.0; Win64; x64) AppleWebKit/537.36 (KHTML, like Gecko) Chrome/85.0.4183.121 Safari/537.36",86,"[0.9, 0.5, 0.1]","[0.8, 0.4, 0.2]","[u'black', u'blue', u'red']","[u'left', u'middle', u'right']","[0.8, 0.4, 0.2]","[u'high', u'low', u'medium']","black",49,"left","high","False","False",82,5900,NA
"A1BUNT3VJFLXD0","Wed Sep 23 2020 12:56:38 GMT-0700 (Mountain Standard Time)","Wed Sep 23 2020 13:04:46 GMT-0700 (Mountain Standard Time)","Mozilla/5.0 (Windows NT 10.0; Win64; x64) AppleWebKit/537.36 (KHTML, like Gecko) Chrome/85.0.4183.121 Safari/537.36",87,"[0.9, 0.5, 0.1]","[0.8, 0.4, 0.2]","[u'black', u'blue', u'red']","[u'left', u'middle', u'right']","[0.8, 0.4, 0.2]","[u'high', u'low', u'medium']","blue",50,"middle","low","False","False",31,5850,NA
"A1BUNT3VJFLXD0","Wed Sep 23 2020 12:56:38 GMT-0700 (Mountain Standard Time)","Wed Sep 23 2020 13:04:46 GMT-0700 (Mountain Standard Time)","Mozilla/5.0 (Windows NT 10.0; Win64; x64) AppleWebKit/537.36 (KHTML, like Gecko) Chrome/85.0.4183.121 Safari/537.36",88,"[0.9, 0.5, 0.1]","[0.8, 0.4, 0.2]","[u'black', u'blue', u'red']","[u'left', u'middle', u'right']","[0.8, 0.4, 0.2]","[u'high', u'low', u'medium']","red",51,"right","medium","True","False",31,5950,NA
"A1BUNT3VJFLXD0","Wed Sep 23 2020 12:56:38 GMT-0700 (Mountain Standard Time)","Wed Sep 23 2020 13:04:46 GMT-0700 (Mountain Standard Time)","Mozilla/5.0 (Windows NT 10.0; Win64; x64) AppleWebKit/537.36 (KHTML, like Gecko) Chrome/85.0.4183.121 Safari/537.36",89,"[0.9, 0.5, 0.1]","[0.8, 0.4, 0.2]","[u'black', u'blue', u'red']","[u'left', u'middle', u'right']","[0.8, 0.4, 0.2]","[u'high', u'low', u'medium']","red",51,"right","medium","False","False",120,5900,NA
"A1BUNT3VJFLXD0","Wed Sep 23 2020 12:56:38 GMT-0700 (Mountain Standard Time)","Wed Sep 23 2020 13:04:46 GMT-0700 (Mountain Standard Time)","Mozilla/5.0 (Windows NT 10.0; Win64; x64) AppleWebKit/537.36 (KHTML, like Gecko) Chrome/85.0.4183.121 Safari/537.36",90,"[0.9, 0.5, 0.1]","[0.8, 0.4, 0.2]","[u'black', u'blue', u'red']","[u'left', u'middle', u'right']","[0.8, 0.4, 0.2]","[u'high', u'low', u'medium']","red",51,"right","medium","True","False",139,6000,NA
"A1BUNT3VJFLXD0","Wed Sep 23 2020 12:56:38 GMT-0700 (Mountain Standard Time)","Wed Sep 23 2020 13:04:46 GMT-0700 (Mountain Standard Time)","Mozilla/5.0 (Windows NT 10.0; Win64; x64) AppleWebKit/537.36 (KHTML, like Gecko) Chrome/85.0.4183.121 Safari/537.36",91,"[0.9, 0.5, 0.1]","[0.8, 0.4, 0.2]","[u'black', u'blue', u'red']","[u'left', u'middle', u'right']","[0.8, 0.4, 0.2]","[u'high', u'low', u'medium']","red",51,"right","medium","True","False",251,6100,NA
"A1BUNT3VJFLXD0","Wed Sep 23 2020 12:56:38 GMT-0700 (Mountain Standard Time)","Wed Sep 23 2020 13:04:46 GMT-0700 (Mountain Standard Time)","Mozilla/5.0 (Windows NT 10.0; Win64; x64) AppleWebKit/537.36 (KHTML, like Gecko) Chrome/85.0.4183.121 Safari/537.36",92,"[0.9, 0.5, 0.1]","[0.8, 0.4, 0.2]","[u'black', u'blue', u'red']","[u'left', u'middle', u'right']","[0.8, 0.4, 0.2]","[u'high', u'low', u'medium']","red",51,"right","medium","True","False",248,6200,NA
"A1BUNT3VJFLXD0","Wed Sep 23 2020 12:56:38 GMT-0700 (Mountain Standard Time)","Wed Sep 23 2020 13:04:46 GMT-0700 (Mountain Standard Time)","Mozilla/5.0 (Windows NT 10.0; Win64; x64) AppleWebKit/537.36 (KHTML, like Gecko) Chrome/85.0.4183.121 Safari/537.36",93,"[0.9, 0.5, 0.1]","[0.8, 0.4, 0.2]","[u'black', u'blue', u'red']","[u'left', u'middle', u'right']","[0.8, 0.4, 0.2]","[u'high', u'low', u'medium']","red",51,"right","medium","False","False",179,6150,NA
"A1BUNT3VJFLXD0","Wed Sep 23 2020 12:56:38 GMT-0700 (Mountain Standard Time)","Wed Sep 23 2020 13:04:46 GMT-0700 (Mountain Standard Time)","Mozilla/5.0 (Windows NT 10.0; Win64; x64) AppleWebKit/537.36 (KHTML, like Gecko) Chrome/85.0.4183.121 Safari/537.36",94,"[0.9, 0.5, 0.1]","[0.8, 0.4, 0.2]","[u'black', u'blue', u'red']","[u'left', u'middle', u'right']","[0.8, 0.4, 0.2]","[u'high', u'low', u'medium']","red",51,"right","medium","True","False",72,6250,NA
"A1BUNT3VJFLXD0","Wed Sep 23 2020 12:56:38 GMT-0700 (Mountain Standard Time)","Wed Sep 23 2020 13:04:46 GMT-0700 (Mountain Standard Time)","Mozilla/5.0 (Windows NT 10.0; Win64; x64) AppleWebKit/537.36 (KHTML, like Gecko) Chrome/85.0.4183.121 Safari/537.36",95,"[0.9, 0.5, 0.1]","[0.8, 0.4, 0.2]","[u'black', u'blue', u'red']","[u'left', u'middle', u'right']","[0.8, 0.4, 0.2]","[u'high', u'low', u'medium']","red",51,"right","medium","False","False",90,6200,NA
"A1BUNT3VJFLXD0","Wed Sep 23 2020 12:56:38 GMT-0700 (Mountain Standard Time)","Wed Sep 23 2020 13:04:46 GMT-0700 (Mountain Standard Time)","Mozilla/5.0 (Windows NT 10.0; Win64; x64) AppleWebKit/537.36 (KHTML, like Gecko) Chrome/85.0.4183.121 Safari/537.36",96,"[0.9, 0.5, 0.1]","[0.8, 0.4, 0.2]","[u'black', u'blue', u'red']","[u'left', u'middle', u'right']","[0.8, 0.4, 0.2]","[u'high', u'low', u'medium']","red",51,"right","medium","False","False",197,6150,NA
"A1BUNT3VJFLXD0","Wed Sep 23 2020 12:56:38 GMT-0700 (Mountain Standard Time)","Wed Sep 23 2020 13:04:46 GMT-0700 (Mountain Standard Time)","Mozilla/5.0 (Windows NT 10.0; Win64; x64) AppleWebKit/537.36 (KHTML, like Gecko) Chrome/85.0.4183.121 Safari/537.36",97,"[0.9, 0.5, 0.1]","[0.8, 0.4, 0.2]","[u'black', u'blue', u'red']","[u'left', u'middle', u'right']","[0.8, 0.4, 0.2]","[u'high', u'low', u'medium']","red",51,"right","medium","True","False",173,6250,NA
"A1BUNT3VJFLXD0","Wed Sep 23 2020 12:56:38 GMT-0700 (Mountain Standard Time)","Wed Sep 23 2020 13:04:46 GMT-0700 (Mountain Standard Time)","Mozilla/5.0 (Windows NT 10.0; Win64; x64) AppleWebKit/537.36 (KHTML, like Gecko) Chrome/85.0.4183.121 Safari/537.36",98,"[0.9, 0.5, 0.1]","[0.8, 0.4, 0.2]","[u'black', u'blue', u'red']","[u'left', u'middle', u'right']","[0.8, 0.4, 0.2]","[u'high', u'low', u'medium']","black",49,"left","high","True","False",296,6350,NA
"A1BUNT3VJFLXD0","Wed Sep 23 2020 12:56:38 GMT-0700 (Mountain Standard Time)","Wed Sep 23 2020 13:04:46 GMT-0700 (Mountain Standard Time)","Mozilla/5.0 (Windows NT 10.0; Win64; x64) AppleWebKit/537.36 (KHTML, like Gecko) Chrome/85.0.4183.121 Safari/537.36",99,"[0.9, 0.5, 0.1]","[0.8, 0.4, 0.2]","[u'black', u'blue', u'red']","[u'left', u'middle', u'right']","[0.8, 0.4, 0.2]","[u'high', u'low', u'medium']","black",49,"left","high","True","False",81,6450,NA
"A1BUNT3VJFLXD0","Wed Sep 23 2020 12:56:38 GMT-0700 (Mountain Standard Time)","Wed Sep 23 2020 13:04:46 GMT-0700 (Mountain Standard Time)","Mozilla/5.0 (Windows NT 10.0; Win64; x64) AppleWebKit/537.36 (KHTML, like Gecko) Chrome/85.0.4183.121 Safari/537.36",100,"[0.9, 0.5, 0.1]","[0.8, 0.4, 0.2]","[u'black', u'blue', u'red']","[u'left', u'middle', u'right']","[0.8, 0.4, 0.2]","[u'high', u'low', u'medium']","black",49,"left","high","True","False",183,6550,NA
"A1BUNT3VJFLXD0","Wed Sep 23 2020 12:56:38 GMT-0700 (Mountain Standard Time)","Wed Sep 23 2020 13:04:46 GMT-0700 (Mountain Standard Time)","Mozilla/5.0 (Windows NT 10.0; Win64; x64) AppleWebKit/537.36 (KHTML, like Gecko) Chrome/85.0.4183.121 Safari/537.36",101,"[0.9, 0.5, 0.1]","[0.8, 0.4, 0.2]","[u'black', u'blue', u'red']","[u'left', u'middle', u'right']","[0.8, 0.4, 0.2]","[u'high', u'low', u'medium']","black",49,"left","high","True","False",151,6650,NA
"A1BUNT3VJFLXD0","Wed Sep 23 2020 12:56:38 GMT-0700 (Mountain Standard Time)","Wed Sep 23 2020 13:04:46 GMT-0700 (Mountain Standard Time)","Mozilla/5.0 (Windows NT 10.0; Win64; x64) AppleWebKit/537.36 (KHTML, like Gecko) Chrome/85.0.4183.121 Safari/537.36",102,"[0.9, 0.5, 0.1]","[0.8, 0.4, 0.2]","[u'black', u'blue', u'red']","[u'left', u'middle', u'right']","[0.8, 0.4, 0.2]","[u'high', u'low', u'medium']","black",49,"left","high","False","False",245,6600,NA
"A1BUNT3VJFLXD0","Wed Sep 23 2020 12:56:38 GMT-0700 (Mountain Standard Time)","Wed Sep 23 2020 13:04:46 GMT-0700 (Mountain Standard Time)","Mozilla/5.0 (Windows NT 10.0; Win64; x64) AppleWebKit/537.36 (KHTML, like Gecko) Chrome/85.0.4183.121 Safari/537.36",103,"[0.9, 0.5, 0.1]","[0.8, 0.4, 0.2]","[u'black', u'blue', u'red']","[u'left', u'middle', u'right']","[0.8, 0.4, 0.2]","[u'high', u'low', u'medium']","black",49,"left","high","True","False",91,6700,NA
"A1BUNT3VJFLXD0","Wed Sep 23 2020 12:56:38 GMT-0700 (Mountain Standard Time)","Wed Sep 23 2020 13:04:46 GMT-0700 (Mountain Standard Time)","Mozilla/5.0 (Windows NT 10.0; Win64; x64) AppleWebKit/537.36 (KHTML, like Gecko) Chrome/85.0.4183.121 Safari/537.36",104,"[0.9, 0.5, 0.1]","[0.8, 0.4, 0.2]","[u'black', u'blue', u'red']","[u'left', u'middle', u'right']","[0.8, 0.4, 0.2]","[u'high', u'low', u'medium']","black",49,"left","high","True","False",73,6800,NA
"A1BUNT3VJFLXD0","Wed Sep 23 2020 12:56:38 GMT-0700 (Mountain Standard Time)","Wed Sep 23 2020 13:04:46 GMT-0700 (Mountain Standard Time)","Mozilla/5.0 (Windows NT 10.0; Win64; x64) AppleWebKit/537.36 (KHTML, like Gecko) Chrome/85.0.4183.121 Safari/537.36",105,"[0.9, 0.5, 0.1]","[0.8, 0.4, 0.2]","[u'black', u'blue', u'red']","[u'left', u'middle', u'right']","[0.8, 0.4, 0.2]","[u'high', u'low', u'medium']","black",49,"left","high","True","False",90,6900,NA
"A1BUNT3VJFLXD0","Wed Sep 23 2020 12:56:38 GMT-0700 (Mountain Standard Time)","Wed Sep 23 2020 13:04:46 GMT-0700 (Mountain Standard Time)","Mozilla/5.0 (Windows NT 10.0; Win64; x64) AppleWebKit/537.36 (KHTML, like Gecko) Chrome/85.0.4183.121 Safari/537.36",106,"[0.9, 0.5, 0.1]","[0.8, 0.4, 0.2]","[u'black', u'blue', u'red']","[u'left', u'middle', u'right']","[0.8, 0.4, 0.2]","[u'high', u'low', u'medium']","black",49,"left","high","True","True",78,7000,NA
"A1BUNT3VJFLXD0","Wed Sep 23 2020 12:56:38 GMT-0700 (Mountain Standard Time)","Wed Sep 23 2020 13:04:46 GMT-0700 (Mountain Standard Time)","Mozilla/5.0 (Windows NT 10.0; Win64; x64) AppleWebKit/537.36 (KHTML, like Gecko) Chrome/85.0.4183.121 Safari/537.36",107,"[0.9, 0.5, 0.1]","[0.8, 0.4, 0.2]","[u'black', u'blue', u'red']","[u'left', u'middle', u'right']","[0.8, 0.4, 0.2]","[u'medium', u'high', u'low']","black",49,"left","medium","False","False",36,6950,NA
"A1BUNT3VJFLXD0","Wed Sep 23 2020 12:56:38 GMT-0700 (Mountain Standard Time)","Wed Sep 23 2020 13:04:46 GMT-0700 (Mountain Standard Time)","Mozilla/5.0 (Windows NT 10.0; Win64; x64) AppleWebKit/537.36 (KHTML, like Gecko) Chrome/85.0.4183.121 Safari/537.36",108,"[0.9, 0.5, 0.1]","[0.8, 0.4, 0.2]","[u'black', u'blue', u'red']","[u'left', u'middle', u'right']","[0.8, 0.4, 0.2]","[u'medium', u'high', u'low']","black",49,"left","medium","True","False",44,7050,NA
"A1BUNT3VJFLXD0","Wed Sep 23 2020 12:56:38 GMT-0700 (Mountain Standard Time)","Wed Sep 23 2020 13:04:46 GMT-0700 (Mountain Standard Time)","Mozilla/5.0 (Windows NT 10.0; Win64; x64) AppleWebKit/537.36 (KHTML, like Gecko) Chrome/85.0.4183.121 Safari/537.36",109,"[0.9, 0.5, 0.1]","[0.8, 0.4, 0.2]","[u'black', u'blue', u'red']","[u'left', u'middle', u'right']","[0.8, 0.4, 0.2]","[u'medium', u'high', u'low']","black",49,"left","medium","False","False",343,7000,NA
"A1BUNT3VJFLXD0","Wed Sep 23 2020 12:56:38 GMT-0700 (Mountain Standard Time)","Wed Sep 23 2020 13:04:46 GMT-0700 (Mountain Standard Time)","Mozilla/5.0 (Windows NT 10.0; Win64; x64) AppleWebKit/537.36 (KHTML, like Gecko) Chrome/85.0.4183.121 Safari/537.36",110,"[0.9, 0.5, 0.1]","[0.8, 0.4, 0.2]","[u'black', u'blue', u'red']","[u'left', u'middle', u'right']","[0.8, 0.4, 0.2]","[u'medium', u'high', u'low']","black",49,"left","medium","True","False",180,7100,NA
"A1BUNT3VJFLXD0","Wed Sep 23 2020 12:56:38 GMT-0700 (Mountain Standard Time)","Wed Sep 23 2020 13:04:46 GMT-0700 (Mountain Standard Time)","Mozilla/5.0 (Windows NT 10.0; Win64; x64) AppleWebKit/537.36 (KHTML, like Gecko) Chrome/85.0.4183.121 Safari/537.36",111,"[0.9, 0.5, 0.1]","[0.8, 0.4, 0.2]","[u'black', u'blue', u'red']","[u'left', u'middle', u'right']","[0.8, 0.4, 0.2]","[u'medium', u'high', u'low']","black",49,"left","medium","False","False",127,7050,NA
"A1BUNT3VJFLXD0","Wed Sep 23 2020 12:56:38 GMT-0700 (Mountain Standard Time)","Wed Sep 23 2020 13:04:46 GMT-0700 (Mountain Standard Time)","Mozilla/5.0 (Windows NT 10.0; Win64; x64) AppleWebKit/537.36 (KHTML, like Gecko) Chrome/85.0.4183.121 Safari/537.36",112,"[0.9, 0.5, 0.1]","[0.8, 0.4, 0.2]","[u'black', u'blue', u'red']","[u'left', u'middle', u'right']","[0.8, 0.4, 0.2]","[u'medium', u'high', u'low']","blue",50,"middle","high","True","False",109,7150,NA
"A1BUNT3VJFLXD0","Wed Sep 23 2020 12:56:38 GMT-0700 (Mountain Standard Time)","Wed Sep 23 2020 13:04:46 GMT-0700 (Mountain Standard Time)","Mozilla/5.0 (Windows NT 10.0; Win64; x64) AppleWebKit/537.36 (KHTML, like Gecko) Chrome/85.0.4183.121 Safari/537.36",113,"[0.9, 0.5, 0.1]","[0.8, 0.4, 0.2]","[u'black', u'blue', u'red']","[u'left', u'middle', u'right']","[0.8, 0.4, 0.2]","[u'medium', u'high', u'low']","blue",50,"middle","high","True","False",186,7250,NA
"A1BUNT3VJFLXD0","Wed Sep 23 2020 12:56:38 GMT-0700 (Mountain Standard Time)","Wed Sep 23 2020 13:04:46 GMT-0700 (Mountain Standard Time)","Mozilla/5.0 (Windows NT 10.0; Win64; x64) AppleWebKit/537.36 (KHTML, like Gecko) Chrome/85.0.4183.121 Safari/537.36",114,"[0.9, 0.5, 0.1]","[0.8, 0.4, 0.2]","[u'black', u'blue', u'red']","[u'left', u'middle', u'right']","[0.8, 0.4, 0.2]","[u'medium', u'high', u'low']","blue",50,"middle","high","False","False",97,7200,NA
"A1BUNT3VJFLXD0","Wed Sep 23 2020 12:56:38 GMT-0700 (Mountain Standard Time)","Wed Sep 23 2020 13:04:46 GMT-0700 (Mountain Standard Time)","Mozilla/5.0 (Windows NT 10.0; Win64; x64) AppleWebKit/537.36 (KHTML, like Gecko) Chrome/85.0.4183.121 Safari/537.36",115,"[0.9, 0.5, 0.1]","[0.8, 0.4, 0.2]","[u'black', u'blue', u'red']","[u'left', u'middle', u'right']","[0.8, 0.4, 0.2]","[u'medium', u'high', u'low']","blue",50,"middle","high","True","False",314,7300,NA
"A1BUNT3VJFLXD0","Wed Sep 23 2020 12:56:38 GMT-0700 (Mountain Standard Time)","Wed Sep 23 2020 13:04:46 GMT-0700 (Mountain Standard Time)","Mozilla/5.0 (Windows NT 10.0; Win64; x64) AppleWebKit/537.36 (KHTML, like Gecko) Chrome/85.0.4183.121 Safari/537.36",116,"[0.9, 0.5, 0.1]","[0.8, 0.4, 0.2]","[u'black', u'blue', u'red']","[u'left', u'middle', u'right']","[0.8, 0.4, 0.2]","[u'medium', u'high', u'low']","blue",50,"middle","high","True","False",194,7400,NA
"A1BUNT3VJFLXD0","Wed Sep 23 2020 12:56:38 GMT-0700 (Mountain Standard Time)","Wed Sep 23 2020 13:04:46 GMT-0700 (Mountain Standard Time)","Mozilla/5.0 (Windows NT 10.0; Win64; x64) AppleWebKit/537.36 (KHTML, like Gecko) Chrome/85.0.4183.121 Safari/537.36",117,"[0.9, 0.5, 0.1]","[0.8, 0.4, 0.2]","[u'black', u'blue', u'red']","[u'left', u'middle', u'right']","[0.8, 0.4, 0.2]","[u'medium', u'high', u'low']","blue",50,"middle","high","True","False",64,7500,NA
"A1BUNT3VJFLXD0","Wed Sep 23 2020 12:56:38 GMT-0700 (Mountain Standard Time)","Wed Sep 23 2020 13:04:46 GMT-0700 (Mountain Standard Time)","Mozilla/5.0 (Windows NT 10.0; Win64; x64) AppleWebKit/537.36 (KHTML, like Gecko) Chrome/85.0.4183.121 Safari/537.36",118,"[0.9, 0.5, 0.1]","[0.8, 0.4, 0.2]","[u'black', u'blue', u'red']","[u'left', u'middle', u'right']","[0.8, 0.4, 0.2]","[u'medium', u'high', u'low']","blue",50,"middle","high","True","False",214,7600,NA
"A1BUNT3VJFLXD0","Wed Sep 23 2020 12:56:38 GMT-0700 (Mountain Standard Time)","Wed Sep 23 2020 13:04:46 GMT-0700 (Mountain Standard Time)","Mozilla/5.0 (Windows NT 10.0; Win64; x64) AppleWebKit/537.36 (KHTML, like Gecko) Chrome/85.0.4183.121 Safari/537.36",119,"[0.9, 0.5, 0.1]","[0.8, 0.4, 0.2]","[u'black', u'blue', u'red']","[u'left', u'middle', u'right']","[0.8, 0.4, 0.2]","[u'medium', u'high', u'low']","blue",50,"middle","high","True","False",291,7700,NA
"A1BUNT3VJFLXD0","Wed Sep 23 2020 12:56:38 GMT-0700 (Mountain Standard Time)","Wed Sep 23 2020 13:04:46 GMT-0700 (Mountain Standard Time)","Mozilla/5.0 (Windows NT 10.0; Win64; x64) AppleWebKit/537.36 (KHTML, like Gecko) Chrome/85.0.4183.121 Safari/537.36",120,"[0.9, 0.5, 0.1]","[0.8, 0.4, 0.2]","[u'black', u'blue', u'red']","[u'left', u'middle', u'right']","[0.8, 0.4, 0.2]","[u'medium', u'high', u'low']","blue",50,"middle","high","True","True",118,7800,NA
"A1BUNT3VJFLXD0","Wed Sep 23 2020 12:56:38 GMT-0700 (Mountain Standard Time)","Wed Sep 23 2020 13:04:46 GMT-0700 (Mountain Standard Time)","Mozilla/5.0 (Windows NT 10.0; Win64; x64) AppleWebKit/537.36 (KHTML, like Gecko) Chrome/85.0.4183.121 Safari/537.36",121,"[0.9, 0.5, 0.1]","[0.8, 0.4, 0.2]","[u'black', u'blue', u'red']","[u'left', u'middle', u'right']","[0.8, 0.4, 0.2]","[u'high', u'low', u'medium']","black",49,"left","high","True","False",456,7900,NA
"A1BUNT3VJFLXD0","Wed Sep 23 2020 12:56:38 GMT-0700 (Mountain Standard Time)","Wed Sep 23 2020 13:04:46 GMT-0700 (Mountain Standard Time)","Mozilla/5.0 (Windows NT 10.0; Win64; x64) AppleWebKit/537.36 (KHTML, like Gecko) Chrome/85.0.4183.121 Safari/537.36",122,"[0.9, 0.5, 0.1]","[0.8, 0.4, 0.2]","[u'black', u'blue', u'red']","[u'left', u'middle', u'right']","[0.8, 0.4, 0.2]","[u'high', u'low', u'medium']","black",49,"left","high","True","False",88,8000,NA
"A1BUNT3VJFLXD0","Wed Sep 23 2020 12:56:38 GMT-0700 (Mountain Standard Time)","Wed Sep 23 2020 13:04:46 GMT-0700 (Mountain Standard Time)","Mozilla/5.0 (Windows NT 10.0; Win64; x64) AppleWebKit/537.36 (KHTML, like Gecko) Chrome/85.0.4183.121 Safari/537.36",123,"[0.9, 0.5, 0.1]","[0.8, 0.4, 0.2]","[u'black', u'blue', u'red']","[u'left', u'middle', u'right']","[0.8, 0.4, 0.2]","[u'high', u'low', u'medium']","black",49,"left","high","False","False",86,7950,NA
"A1BUNT3VJFLXD0","Wed Sep 23 2020 12:56:38 GMT-0700 (Mountain Standard Time)","Wed Sep 23 2020 13:04:46 GMT-0700 (Mountain Standard Time)","Mozilla/5.0 (Windows NT 10.0; Win64; x64) AppleWebKit/537.36 (KHTML, like Gecko) Chrome/85.0.4183.121 Safari/537.36",124,"[0.9, 0.5, 0.1]","[0.8, 0.4, 0.2]","[u'black', u'blue', u'red']","[u'left', u'middle', u'right']","[0.8, 0.4, 0.2]","[u'high', u'low', u'medium']","black",49,"left","high","True","False",21,8050,NA
"A1BUNT3VJFLXD0","Wed Sep 23 2020 12:56:38 GMT-0700 (Mountain Standard Time)","Wed Sep 23 2020 13:04:46 GMT-0700 (Mountain Standard Time)","Mozilla/5.0 (Windows NT 10.0; Win64; x64) AppleWebKit/537.36 (KHTML, like Gecko) Chrome/85.0.4183.121 Safari/537.36",125,"[0.9, 0.5, 0.1]","[0.8, 0.4, 0.2]","[u'black', u'blue', u'red']","[u'left', u'middle', u'right']","[0.8, 0.4, 0.2]","[u'high', u'low', u'medium']","black",49,"left","high","False","False",74,8000,NA
"A1BUNT3VJFLXD0","Wed Sep 23 2020 12:56:38 GMT-0700 (Mountain Standard Time)","Wed Sep 23 2020 13:04:46 GMT-0700 (Mountain Standard Time)","Mozilla/5.0 (Windows NT 10.0; Win64; x64) AppleWebKit/537.36 (KHTML, like Gecko) Chrome/85.0.4183.121 Safari/537.36",126,"[0.9, 0.5, 0.1]","[0.8, 0.4, 0.2]","[u'black', u'blue', u'red']","[u'left', u'middle', u'right']","[0.8, 0.4, 0.2]","[u'high', u'low', u'medium']","red",51,"right","medium","False","False",99,7950,NA
"A1BUNT3VJFLXD0","Wed Sep 23 2020 12:56:38 GMT-0700 (Mountain Standard Time)","Wed Sep 23 2020 13:04:46 GMT-0700 (Mountain Standard Time)","Mozilla/5.0 (Windows NT 10.0; Win64; x64) AppleWebKit/537.36 (KHTML, like Gecko) Chrome/85.0.4183.121 Safari/537.36",127,"[0.9, 0.5, 0.1]","[0.8, 0.4, 0.2]","[u'black', u'blue', u'red']","[u'left', u'middle', u'right']","[0.8, 0.4, 0.2]","[u'high', u'low', u'medium']","red",51,"right","medium","False","False",145,7900,NA
"A1BUNT3VJFLXD0","Wed Sep 23 2020 12:56:38 GMT-0700 (Mountain Standard Time)","Wed Sep 23 2020 13:04:46 GMT-0700 (Mountain Standard Time)","Mozilla/5.0 (Windows NT 10.0; Win64; x64) AppleWebKit/537.36 (KHTML, like Gecko) Chrome/85.0.4183.121 Safari/537.36",128,"[0.9, 0.5, 0.1]","[0.8, 0.4, 0.2]","[u'black', u'blue', u'red']","[u'left', u'middle', u'right']","[0.8, 0.4, 0.2]","[u'high', u'low', u'medium']","blue",50,"middle","low","False","False",136,7850,NA
"A1BUNT3VJFLXD0","Wed Sep 23 2020 12:56:38 GMT-0700 (Mountain Standard Time)","Wed Sep 23 2020 13:04:46 GMT-0700 (Mountain Standard Time)","Mozilla/5.0 (Windows NT 10.0; Win64; x64) AppleWebKit/537.36 (KHTML, like Gecko) Chrome/85.0.4183.121 Safari/537.36",129,"[0.9, 0.5, 0.1]","[0.8, 0.4, 0.2]","[u'black', u'blue', u'red']","[u'left', u'middle', u'right']","[0.8, 0.4, 0.2]","[u'high', u'low', u'medium']","blue",50,"middle","low","False","False",68,7800,NA
"A1BUNT3VJFLXD0","Wed Sep 23 2020 12:56:38 GMT-0700 (Mountain Standard Time)","Wed Sep 23 2020 13:04:46 GMT-0700 (Mountain Standard Time)","Mozilla/5.0 (Windows NT 10.0; Win64; x64) AppleWebKit/537.36 (KHTML, like Gecko) Chrome/85.0.4183.121 Safari/537.36",130,"[0.9, 0.5, 0.1]","[0.8, 0.4, 0.2]","[u'black', u'blue', u'red']","[u'left', u'middle', u'right']","[0.8, 0.4, 0.2]","[u'high', u'low', u'medium']","black",49,"left","high","False","False",132,7750,NA
"A1BUNT3VJFLXD0","Wed Sep 23 2020 12:56:38 GMT-0700 (Mountain Standard Time)","Wed Sep 23 2020 13:04:46 GMT-0700 (Mountain Standard Time)","Mozilla/5.0 (Windows NT 10.0; Win64; x64) AppleWebKit/537.36 (KHTML, like Gecko) Chrome/85.0.4183.121 Safari/537.36",131,"[0.9, 0.5, 0.1]","[0.8, 0.4, 0.2]","[u'black', u'blue', u'red']","[u'left', u'middle', u'right']","[0.8, 0.4, 0.2]","[u'high', u'low', u'medium']","black",49,"left","high","True","False",124,7850,NA
"A1BUNT3VJFLXD0","Wed Sep 23 2020 12:56:38 GMT-0700 (Mountain Standard Time)","Wed Sep 23 2020 13:04:46 GMT-0700 (Mountain Standard Time)","Mozilla/5.0 (Windows NT 10.0; Win64; x64) AppleWebKit/537.36 (KHTML, like Gecko) Chrome/85.0.4183.121 Safari/537.36",132,"[0.9, 0.5, 0.1]","[0.8, 0.4, 0.2]","[u'black', u'blue', u'red']","[u'left', u'middle', u'right']","[0.8, 0.4, 0.2]","[u'high', u'low', u'medium']","black",49,"left","high","True","False",141,7950,NA
"A1BUNT3VJFLXD0","Wed Sep 23 2020 12:56:38 GMT-0700 (Mountain Standard Time)","Wed Sep 23 2020 13:04:46 GMT-0700 (Mountain Standard Time)","Mozilla/5.0 (Windows NT 10.0; Win64; x64) AppleWebKit/537.36 (KHTML, like Gecko) Chrome/85.0.4183.121 Safari/537.36",133,"[0.9, 0.5, 0.1]","[0.8, 0.4, 0.2]","[u'black', u'blue', u'red']","[u'left', u'middle', u'right']","[0.8, 0.4, 0.2]","[u'high', u'low', u'medium']","black",49,"left","high","True","False",67,8050,NA
"A1BUNT3VJFLXD0","Wed Sep 23 2020 12:56:38 GMT-0700 (Mountain Standard Time)","Wed Sep 23 2020 13:04:46 GMT-0700 (Mountain Standard Time)","Mozilla/5.0 (Windows NT 10.0; Win64; x64) AppleWebKit/537.36 (KHTML, like Gecko) Chrome/85.0.4183.121 Safari/537.36",134,"[0.9, 0.5, 0.1]","[0.8, 0.4, 0.2]","[u'black', u'blue', u'red']","[u'left', u'middle', u'right']","[0.8, 0.4, 0.2]","[u'high', u'low', u'medium']","black",49,"left","high","True","False",259,8150,NA
"A1BUNT3VJFLXD0","Wed Sep 23 2020 12:56:38 GMT-0700 (Mountain Standard Time)","Wed Sep 23 2020 13:04:46 GMT-0700 (Mountain Standard Time)","Mozilla/5.0 (Windows NT 10.0; Win64; x64) AppleWebKit/537.36 (KHTML, like Gecko) Chrome/85.0.4183.121 Safari/537.36",135,"[0.9, 0.5, 0.1]","[0.8, 0.4, 0.2]","[u'black', u'blue', u'red']","[u'left', u'middle', u'right']","[0.8, 0.4, 0.2]","[u'high', u'low', u'medium']","black",49,"left","high","True","False",52,8250,NA
"A1BUNT3VJFLXD0","Wed Sep 23 2020 12:56:38 GMT-0700 (Mountain Standard Time)","Wed Sep 23 2020 13:04:46 GMT-0700 (Mountain Standard Time)","Mozilla/5.0 (Windows NT 10.0; Win64; x64) AppleWebKit/537.36 (KHTML, like Gecko) Chrome/85.0.4183.121 Safari/537.36",136,"[0.9, 0.5, 0.1]","[0.8, 0.4, 0.2]","[u'black', u'blue', u'red']","[u'left', u'middle', u'right']","[0.8, 0.4, 0.2]","[u'high', u'low', u'medium']","black",49,"left","high","True","False",222,8350,NA
"A1BUNT3VJFLXD0","Wed Sep 23 2020 12:56:38 GMT-0700 (Mountain Standard Time)","Wed Sep 23 2020 13:04:46 GMT-0700 (Mountain Standard Time)","Mozilla/5.0 (Windows NT 10.0; Win64; x64) AppleWebKit/537.36 (KHTML, like Gecko) Chrome/85.0.4183.121 Safari/537.36",137,"[0.9, 0.5, 0.1]","[0.8, 0.4, 0.2]","[u'black', u'blue', u'red']","[u'left', u'middle', u'right']","[0.8, 0.4, 0.2]","[u'high', u'low', u'medium']","black",49,"left","high","False","False",248,8300,NA
"A1BUNT3VJFLXD0","Wed Sep 23 2020 12:56:38 GMT-0700 (Mountain Standard Time)","Wed Sep 23 2020 13:04:46 GMT-0700 (Mountain Standard Time)","Mozilla/5.0 (Windows NT 10.0; Win64; x64) AppleWebKit/537.36 (KHTML, like Gecko) Chrome/85.0.4183.121 Safari/537.36",138,"[0.9, 0.5, 0.1]","[0.8, 0.4, 0.2]","[u'black', u'blue', u'red']","[u'left', u'middle', u'right']","[0.8, 0.4, 0.2]","[u'high', u'low', u'medium']","black",49,"left","high","True","True",249,8400,NA
"A1BUNT3VJFLXD0","Wed Sep 23 2020 12:56:38 GMT-0700 (Mountain Standard Time)","Wed Sep 23 2020 13:04:46 GMT-0700 (Mountain Standard Time)","Mozilla/5.0 (Windows NT 10.0; Win64; x64) AppleWebKit/537.36 (KHTML, like Gecko) Chrome/85.0.4183.121 Safari/537.36",139,"[0.9, 0.5, 0.1]","[0.8, 0.4, 0.2]","[u'black', u'blue', u'red']","[u'left', u'middle', u'right']","[0.8, 0.4, 0.2]","[u'medium', u'high', u'low']","black",49,"left","medium","False","False",953,8350,NA
"A1BUNT3VJFLXD0","Wed Sep 23 2020 12:56:38 GMT-0700 (Mountain Standard Time)","Wed Sep 23 2020 13:04:46 GMT-0700 (Mountain Standard Time)","Mozilla/5.0 (Windows NT 10.0; Win64; x64) AppleWebKit/537.36 (KHTML, like Gecko) Chrome/85.0.4183.121 Safari/537.36",140,"[0.9, 0.5, 0.1]","[0.8, 0.4, 0.2]","[u'black', u'blue', u'red']","[u'left', u'middle', u'right']","[0.8, 0.4, 0.2]","[u'medium', u'high', u'low']","black",49,"left","medium","False","False",467,8300,NA
"A1BUNT3VJFLXD0","Wed Sep 23 2020 12:56:38 GMT-0700 (Mountain Standard Time)","Wed Sep 23 2020 13:04:46 GMT-0700 (Mountain Standard Time)","Mozilla/5.0 (Windows NT 10.0; Win64; x64) AppleWebKit/537.36 (KHTML, like Gecko) Chrome/85.0.4183.121 Safari/537.36",141,"[0.9, 0.5, 0.1]","[0.8, 0.4, 0.2]","[u'black', u'blue', u'red']","[u'left', u'middle', u'right']","[0.8, 0.4, 0.2]","[u'medium', u'high', u'low']","black",49,"left","medium","False","False",246,8250,NA
"A1BUNT3VJFLXD0","Wed Sep 23 2020 12:56:38 GMT-0700 (Mountain Standard Time)","Wed Sep 23 2020 13:04:46 GMT-0700 (Mountain Standard Time)","Mozilla/5.0 (Windows NT 10.0; Win64; x64) AppleWebKit/537.36 (KHTML, like Gecko) Chrome/85.0.4183.121 Safari/537.36",142,"[0.9, 0.5, 0.1]","[0.8, 0.4, 0.2]","[u'black', u'blue', u'red']","[u'left', u'middle', u'right']","[0.8, 0.4, 0.2]","[u'medium', u'high', u'low']","blue",50,"middle","high","True","False",216,8350,NA
"A1BUNT3VJFLXD0","Wed Sep 23 2020 12:56:38 GMT-0700 (Mountain Standard Time)","Wed Sep 23 2020 13:04:46 GMT-0700 (Mountain Standard Time)","Mozilla/5.0 (Windows NT 10.0; Win64; x64) AppleWebKit/537.36 (KHTML, like Gecko) Chrome/85.0.4183.121 Safari/537.36",143,"[0.9, 0.5, 0.1]","[0.8, 0.4, 0.2]","[u'black', u'blue', u'red']","[u'left', u'middle', u'right']","[0.8, 0.4, 0.2]","[u'medium', u'high', u'low']","blue",50,"middle","high","True","False",126,8450,NA
"A1BUNT3VJFLXD0","Wed Sep 23 2020 12:56:38 GMT-0700 (Mountain Standard Time)","Wed Sep 23 2020 13:04:46 GMT-0700 (Mountain Standard Time)","Mozilla/5.0 (Windows NT 10.0; Win64; x64) AppleWebKit/537.36 (KHTML, like Gecko) Chrome/85.0.4183.121 Safari/537.36",144,"[0.9, 0.5, 0.1]","[0.8, 0.4, 0.2]","[u'black', u'blue', u'red']","[u'left', u'middle', u'right']","[0.8, 0.4, 0.2]","[u'medium', u'high', u'low']","blue",50,"middle","high","True","False",242,8550,NA
"A1BUNT3VJFLXD0","Wed Sep 23 2020 12:56:38 GMT-0700 (Mountain Standard Time)","Wed Sep 23 2020 13:04:46 GMT-0700 (Mountain Standard Time)","Mozilla/5.0 (Windows NT 10.0; Win64; x64) AppleWebKit/537.36 (KHTML, like Gecko) Chrome/85.0.4183.121 Safari/537.36",145,"[0.9, 0.5, 0.1]","[0.8, 0.4, 0.2]","[u'black', u'blue', u'red']","[u'left', u'middle', u'right']","[0.8, 0.4, 0.2]","[u'medium', u'high', u'low']","blue",50,"middle","high","True","False",166,8650,NA
"A1BUNT3VJFLXD0","Wed Sep 23 2020 12:56:38 GMT-0700 (Mountain Standard Time)","Wed Sep 23 2020 13:04:46 GMT-0700 (Mountain Standard Time)","Mozilla/5.0 (Windows NT 10.0; Win64; x64) AppleWebKit/537.36 (KHTML, like Gecko) Chrome/85.0.4183.121 Safari/537.36",146,"[0.9, 0.5, 0.1]","[0.8, 0.4, 0.2]","[u'black', u'blue', u'red']","[u'left', u'middle', u'right']","[0.8, 0.4, 0.2]","[u'medium', u'high', u'low']","blue",50,"middle","high","True","False",353,8750,NA
"A1BUNT3VJFLXD0","Wed Sep 23 2020 12:56:38 GMT-0700 (Mountain Standard Time)","Wed Sep 23 2020 13:04:46 GMT-0700 (Mountain Standard Time)","Mozilla/5.0 (Windows NT 10.0; Win64; x64) AppleWebKit/537.36 (KHTML, like Gecko) Chrome/85.0.4183.121 Safari/537.36",147,"[0.9, 0.5, 0.1]","[0.8, 0.4, 0.2]","[u'black', u'blue', u'red']","[u'left', u'middle', u'right']","[0.8, 0.4, 0.2]","[u'medium', u'high', u'low']","blue",50,"middle","high","False","False",309,8700,NA
"A1BUNT3VJFLXD0","Wed Sep 23 2020 12:56:38 GMT-0700 (Mountain Standard Time)","Wed Sep 23 2020 13:04:46 GMT-0700 (Mountain Standard Time)","Mozilla/5.0 (Windows NT 10.0; Win64; x64) AppleWebKit/537.36 (KHTML, like Gecko) Chrome/85.0.4183.121 Safari/537.36",148,"[0.9, 0.5, 0.1]","[0.8, 0.4, 0.2]","[u'black', u'blue', u'red']","[u'left', u'middle', u'right']","[0.8, 0.4, 0.2]","[u'medium', u'high', u'low']","red",51,"right","low","True","False",141,8800,NA
"A1BUNT3VJFLXD0","Wed Sep 23 2020 12:56:38 GMT-0700 (Mountain Standard Time)","Wed Sep 23 2020 13:04:46 GMT-0700 (Mountain Standard Time)","Mozilla/5.0 (Windows NT 10.0; Win64; x64) AppleWebKit/537.36 (KHTML, like Gecko) Chrome/85.0.4183.121 Safari/537.36",149,"[0.9, 0.5, 0.1]","[0.8, 0.4, 0.2]","[u'black', u'blue', u'red']","[u'left', u'middle', u'right']","[0.8, 0.4, 0.2]","[u'medium', u'high', u'low']","red",51,"right","low","False","False",341,8750,NA
"A1BUNT3VJFLXD0","Wed Sep 23 2020 12:56:38 GMT-0700 (Mountain Standard Time)","Wed Sep 23 2020 13:04:46 GMT-0700 (Mountain Standard Time)","Mozilla/5.0 (Windows NT 10.0; Win64; x64) AppleWebKit/537.36 (KHTML, like Gecko) Chrome/85.0.4183.121 Safari/537.36",150,"[0.9, 0.5, 0.1]","[0.8, 0.4, 0.2]","[u'black', u'blue', u'red']","[u'left', u'middle', u'right']","[0.8, 0.4, 0.2]","[u'medium', u'high', u'low']","red",51,"right","low","True","False",211,8850,NA
"A1BUNT3VJFLXD0","Wed Sep 23 2020 12:56:38 GMT-0700 (Mountain Standard Time)","Wed Sep 23 2020 13:04:46 GMT-0700 (Mountain Standard Time)","Mozilla/5.0 (Windows NT 10.0; Win64; x64) AppleWebKit/537.36 (KHTML, like Gecko) Chrome/85.0.4183.121 Safari/537.36",151,"[0.9, 0.5, 0.1]","[0.8, 0.4, 0.2]","[u'black', u'blue', u'red']","[u'left', u'middle', u'right']","[0.8, 0.4, 0.2]","[u'medium', u'high', u'low']","red",51,"right","low","False","False",310,8800,NA
"A1BUNT3VJFLXD0","Wed Sep 23 2020 12:56:38 GMT-0700 (Mountain Standard Time)","Wed Sep 23 2020 13:04:46 GMT-0700 (Mountain Standard Time)","Mozilla/5.0 (Windows NT 10.0; Win64; x64) AppleWebKit/537.36 (KHTML, like Gecko) Chrome/85.0.4183.121 Safari/537.36",152,"[0.9, 0.5, 0.1]","[0.8, 0.4, 0.2]","[u'black', u'blue', u'red']","[u'left', u'middle', u'right']","[0.8, 0.4, 0.2]","[u'medium', u'high', u'low']","red",51,"right","low","False","False",273,8750,NA
"A1BUNT3VJFLXD0","Wed Sep 23 2020 12:56:38 GMT-0700 (Mountain Standard Time)","Wed Sep 23 2020 13:04:46 GMT-0700 (Mountain Standard Time)","Mozilla/5.0 (Windows NT 10.0; Win64; x64) AppleWebKit/537.36 (KHTML, like Gecko) Chrome/85.0.4183.121 Safari/537.36",153,"[0.9, 0.5, 0.1]","[0.8, 0.4, 0.2]","[u'black', u'blue', u'red']","[u'left', u'middle', u'right']","[0.8, 0.4, 0.2]","[u'medium', u'high', u'low']","red",51,"right","low","False","False",167,8700,NA
"A1BUNT3VJFLXD0","Wed Sep 23 2020 12:56:38 GMT-0700 (Mountain Standard Time)","Wed Sep 23 2020 13:04:46 GMT-0700 (Mountain Standard Time)","Mozilla/5.0 (Windows NT 10.0; Win64; x64) AppleWebKit/537.36 (KHTML, like Gecko) Chrome/85.0.4183.121 Safari/537.36",154,"[0.9, 0.5, 0.1]","[0.8, 0.4, 0.2]","[u'black', u'blue', u'red']","[u'left', u'middle', u'right']","[0.8, 0.4, 0.2]","[u'medium', u'high', u'low']","black",49,"left","medium","False","False",128,8650,NA
"A1BUNT3VJFLXD0","Wed Sep 23 2020 12:56:38 GMT-0700 (Mountain Standard Time)","Wed Sep 23 2020 13:04:46 GMT-0700 (Mountain Standard Time)","Mozilla/5.0 (Windows NT 10.0; Win64; x64) AppleWebKit/537.36 (KHTML, like Gecko) Chrome/85.0.4183.121 Safari/537.36",155,"[0.9, 0.5, 0.1]","[0.8, 0.4, 0.2]","[u'black', u'blue', u'red']","[u'left', u'middle', u'right']","[0.8, 0.4, 0.2]","[u'medium', u'high', u'low']","blue",50,"middle","high","True","False",217,8750,NA
"A1BUNT3VJFLXD0","Wed Sep 23 2020 12:56:38 GMT-0700 (Mountain Standard Time)","Wed Sep 23 2020 13:04:46 GMT-0700 (Mountain Standard Time)","Mozilla/5.0 (Windows NT 10.0; Win64; x64) AppleWebKit/537.36 (KHTML, like Gecko) Chrome/85.0.4183.121 Safari/537.36",156,"[0.9, 0.5, 0.1]","[0.8, 0.4, 0.2]","[u'black', u'blue', u'red']","[u'left', u'middle', u'right']","[0.8, 0.4, 0.2]","[u'medium', u'high', u'low']","blue",50,"middle","high","True","False",152,8850,NA
"A1BUNT3VJFLXD0","Wed Sep 23 2020 12:56:38 GMT-0700 (Mountain Standard Time)","Wed Sep 23 2020 13:04:46 GMT-0700 (Mountain Standard Time)","Mozilla/5.0 (Windows NT 10.0; Win64; x64) AppleWebKit/537.36 (KHTML, like Gecko) Chrome/85.0.4183.121 Safari/537.36",157,"[0.9, 0.5, 0.1]","[0.8, 0.4, 0.2]","[u'black', u'blue', u'red']","[u'left', u'middle', u'right']","[0.8, 0.4, 0.2]","[u'medium', u'high', u'low']","blue",50,"middle","high","True","False",284,8950,NA
"A1BUNT3VJFLXD0","Wed Sep 23 2020 12:56:38 GMT-0700 (Mountain Standard Time)","Wed Sep 23 2020 13:04:46 GMT-0700 (Mountain Standard Time)","Mozilla/5.0 (Windows NT 10.0; Win64; x64) AppleWebKit/537.36 (KHTML, like Gecko) Chrome/85.0.4183.121 Safari/537.36",158,"[0.9, 0.5, 0.1]","[0.8, 0.4, 0.2]","[u'black', u'blue', u'red']","[u'left', u'middle', u'right']","[0.8, 0.4, 0.2]","[u'medium', u'high', u'low']","blue",50,"middle","high","True","False",304,9050,NA
"A1BUNT3VJFLXD0","Wed Sep 23 2020 12:56:38 GMT-0700 (Mountain Standard Time)","Wed Sep 23 2020 13:04:46 GMT-0700 (Mountain Standard Time)","Mozilla/5.0 (Windows NT 10.0; Win64; x64) AppleWebKit/537.36 (KHTML, like Gecko) Chrome/85.0.4183.121 Safari/537.36",159,"[0.9, 0.5, 0.1]","[0.8, 0.4, 0.2]","[u'black', u'blue', u'red']","[u'left', u'middle', u'right']","[0.8, 0.4, 0.2]","[u'medium', u'high', u'low']","blue",50,"middle","high","True","False",260,9150,NA
"A1BUNT3VJFLXD0","Wed Sep 23 2020 12:56:38 GMT-0700 (Mountain Standard Time)","Wed Sep 23 2020 13:04:46 GMT-0700 (Mountain Standard Time)","Mozilla/5.0 (Windows NT 10.0; Win64; x64) AppleWebKit/537.36 (KHTML, like Gecko) Chrome/85.0.4183.121 Safari/537.36",160,"[0.9, 0.5, 0.1]","[0.8, 0.4, 0.2]","[u'black', u'blue', u'red']","[u'left', u'middle', u'right']","[0.8, 0.4, 0.2]","[u'medium', u'high', u'low']","blue",50,"middle","high","True","False",324,9250,NA
