"src_subject_id","start_time","end_time","browser","index","first_half_probabilities","second_half_probabilities","deck_color","deck_position","deck_probabilities","deck_contingencies","response_color","key_press","response_position","response_probability","reward_type","trial_type","rt","reward_tally","exclusion_reason"
"A29AKJXQ248KNK","Wed Jan 29 2020 12:07:35 GMT-0600 (Central Standard Time)","Wed Jan 29 2020 12:15:11 GMT-0600 (Central Standard Time)","Mozilla/5.0 (Windows NT 6.2; Win64; x64) AppleWebKit/537.36 (KHTML, like Gecko) Chrome/75.0.3770.100 Safari/537.36",1,"[0.9, 0.5, 0.1]","[0.8, 0.4, 0.2]","[u'blue', u'red', u'black']","[u'left', u'middle', u'right']","[0.9, 0.5, 0.1]","[u'medium', u'high', u'low']","blue",49,"left","medium","True","False",1563,100,NA
"A29AKJXQ248KNK","Wed Jan 29 2020 12:07:35 GMT-0600 (Central Standard Time)","Wed Jan 29 2020 12:15:11 GMT-0600 (Central Standard Time)","Mozilla/5.0 (Windows NT 6.2; Win64; x64) AppleWebKit/537.36 (KHTML, like Gecko) Chrome/75.0.3770.100 Safari/537.36",2,"[0.9, 0.5, 0.1]","[0.8, 0.4, 0.2]","[u'blue', u'red', u'black']","[u'left', u'middle', u'right']","[0.9, 0.5, 0.1]","[u'medium', u'high', u'low']","red",50,"middle","high","True","False",413,200,NA
"A29AKJXQ248KNK","Wed Jan 29 2020 12:07:35 GMT-0600 (Central Standard Time)","Wed Jan 29 2020 12:15:11 GMT-0600 (Central Standard Time)","Mozilla/5.0 (Windows NT 6.2; Win64; x64) AppleWebKit/537.36 (KHTML, like Gecko) Chrome/75.0.3770.100 Safari/537.36",3,"[0.9, 0.5, 0.1]","[0.8, 0.4, 0.2]","[u'blue', u'red', u'black']","[u'left', u'middle', u'right']","[0.9, 0.5, 0.1]","[u'medium', u'high', u'low']","red",50,"middle","high","True","False",516,300,NA
"A29AKJXQ248KNK","Wed Jan 29 2020 12:07:35 GMT-0600 (Central Standard Time)","Wed Jan 29 2020 12:15:11 GMT-0600 (Central Standard Time)","Mozilla/5.0 (Windows NT 6.2; Win64; x64) AppleWebKit/537.36 (KHTML, like Gecko) Chrome/75.0.3770.100 Safari/537.36",4,"[0.9, 0.5, 0.1]","[0.8, 0.4, 0.2]","[u'blue', u'red', u'black']","[u'left', u'middle', u'right']","[0.9, 0.5, 0.1]","[u'medium', u'high', u'low']","black",51,"right","low","False","False",534,250,NA
"A29AKJXQ248KNK","Wed Jan 29 2020 12:07:35 GMT-0600 (Central Standard Time)","Wed Jan 29 2020 12:15:11 GMT-0600 (Central Standard Time)","Mozilla/5.0 (Windows NT 6.2; Win64; x64) AppleWebKit/537.36 (KHTML, like Gecko) Chrome/75.0.3770.100 Safari/537.36",5,"[0.9, 0.5, 0.1]","[0.8, 0.4, 0.2]","[u'blue', u'red', u'black']","[u'left', u'middle', u'right']","[0.9, 0.5, 0.1]","[u'medium', u'high', u'low']","red",50,"middle","high","True","False",320,350,NA
"A29AKJXQ248KNK","Wed Jan 29 2020 12:07:35 GMT-0600 (Central Standard Time)","Wed Jan 29 2020 12:15:11 GMT-0600 (Central Standard Time)","Mozilla/5.0 (Windows NT 6.2; Win64; x64) AppleWebKit/537.36 (KHTML, like Gecko) Chrome/75.0.3770.100 Safari/537.36",6,"[0.9, 0.5, 0.1]","[0.8, 0.4, 0.2]","[u'blue', u'red', u'black']","[u'left', u'middle', u'right']","[0.9, 0.5, 0.1]","[u'medium', u'high', u'low']","blue",49,"left","medium","True","False",326,450,NA
"A29AKJXQ248KNK","Wed Jan 29 2020 12:07:35 GMT-0600 (Central Standard Time)","Wed Jan 29 2020 12:15:11 GMT-0600 (Central Standard Time)","Mozilla/5.0 (Windows NT 6.2; Win64; x64) AppleWebKit/537.36 (KHTML, like Gecko) Chrome/75.0.3770.100 Safari/537.36",7,"[0.9, 0.5, 0.1]","[0.8, 0.4, 0.2]","[u'blue', u'red', u'black']","[u'left', u'middle', u'right']","[0.9, 0.5, 0.1]","[u'medium', u'high', u'low']","red",50,"middle","high","True","False",549,550,NA
"A29AKJXQ248KNK","Wed Jan 29 2020 12:07:35 GMT-0600 (Central Standard Time)","Wed Jan 29 2020 12:15:11 GMT-0600 (Central Standard Time)","Mozilla/5.0 (Windows NT 6.2; Win64; x64) AppleWebKit/537.36 (KHTML, like Gecko) Chrome/75.0.3770.100 Safari/537.36",8,"[0.9, 0.5, 0.1]","[0.8, 0.4, 0.2]","[u'blue', u'red', u'black']","[u'left', u'middle', u'right']","[0.9, 0.5, 0.1]","[u'medium', u'high', u'low']","red",50,"middle","high","True","False",516,650,NA
"A29AKJXQ248KNK","Wed Jan 29 2020 12:07:35 GMT-0600 (Central Standard Time)","Wed Jan 29 2020 12:15:11 GMT-0600 (Central Standard Time)","Mozilla/5.0 (Windows NT 6.2; Win64; x64) AppleWebKit/537.36 (KHTML, like Gecko) Chrome/75.0.3770.100 Safari/537.36",9,"[0.9, 0.5, 0.1]","[0.8, 0.4, 0.2]","[u'blue', u'red', u'black']","[u'left', u'middle', u'right']","[0.9, 0.5, 0.1]","[u'medium', u'high', u'low']","red",50,"middle","high","True","False",276,750,NA
"A29AKJXQ248KNK","Wed Jan 29 2020 12:07:35 GMT-0600 (Central Standard Time)","Wed Jan 29 2020 12:15:11 GMT-0600 (Central Standard Time)","Mozilla/5.0 (Windows NT 6.2; Win64; x64) AppleWebKit/537.36 (KHTML, like Gecko) Chrome/75.0.3770.100 Safari/537.36",10,"[0.9, 0.5, 0.1]","[0.8, 0.4, 0.2]","[u'blue', u'red', u'black']","[u'left', u'middle', u'right']","[0.9, 0.5, 0.1]","[u'medium', u'high', u'low']","blue",49,"left","medium","True","False",274,850,NA
"A29AKJXQ248KNK","Wed Jan 29 2020 12:07:35 GMT-0600 (Central Standard Time)","Wed Jan 29 2020 12:15:11 GMT-0600 (Central Standard Time)","Mozilla/5.0 (Windows NT 6.2; Win64; x64) AppleWebKit/537.36 (KHTML, like Gecko) Chrome/75.0.3770.100 Safari/537.36",11,"[0.9, 0.5, 0.1]","[0.8, 0.4, 0.2]","[u'blue', u'red', u'black']","[u'left', u'middle', u'right']","[0.9, 0.5, 0.1]","[u'medium', u'high', u'low']","black",51,"right","low","False","False",19,800,NA
"A29AKJXQ248KNK","Wed Jan 29 2020 12:07:35 GMT-0600 (Central Standard Time)","Wed Jan 29 2020 12:15:11 GMT-0600 (Central Standard Time)","Mozilla/5.0 (Windows NT 6.2; Win64; x64) AppleWebKit/537.36 (KHTML, like Gecko) Chrome/75.0.3770.100 Safari/537.36",12,"[0.9, 0.5, 0.1]","[0.8, 0.4, 0.2]","[u'blue', u'red', u'black']","[u'left', u'middle', u'right']","[0.9, 0.5, 0.1]","[u'medium', u'high', u'low']","red",50,"middle","high","False","False",25,750,NA
"A29AKJXQ248KNK","Wed Jan 29 2020 12:07:35 GMT-0600 (Central Standard Time)","Wed Jan 29 2020 12:15:11 GMT-0600 (Central Standard Time)","Mozilla/5.0 (Windows NT 6.2; Win64; x64) AppleWebKit/537.36 (KHTML, like Gecko) Chrome/75.0.3770.100 Safari/537.36",13,"[0.9, 0.5, 0.1]","[0.8, 0.4, 0.2]","[u'blue', u'red', u'black']","[u'left', u'middle', u'right']","[0.9, 0.5, 0.1]","[u'medium', u'high', u'low']","red",50,"middle","high","True","False",227,850,NA
"A29AKJXQ248KNK","Wed Jan 29 2020 12:07:35 GMT-0600 (Central Standard Time)","Wed Jan 29 2020 12:15:11 GMT-0600 (Central Standard Time)","Mozilla/5.0 (Windows NT 6.2; Win64; x64) AppleWebKit/537.36 (KHTML, like Gecko) Chrome/75.0.3770.100 Safari/537.36",14,"[0.9, 0.5, 0.1]","[0.8, 0.4, 0.2]","[u'blue', u'red', u'black']","[u'left', u'middle', u'right']","[0.9, 0.5, 0.1]","[u'medium', u'high', u'low']","red",50,"middle","high","True","False",342,950,NA
"A29AKJXQ248KNK","Wed Jan 29 2020 12:07:35 GMT-0600 (Central Standard Time)","Wed Jan 29 2020 12:15:11 GMT-0600 (Central Standard Time)","Mozilla/5.0 (Windows NT 6.2; Win64; x64) AppleWebKit/537.36 (KHTML, like Gecko) Chrome/75.0.3770.100 Safari/537.36",15,"[0.9, 0.5, 0.1]","[0.8, 0.4, 0.2]","[u'blue', u'red', u'black']","[u'left', u'middle', u'right']","[0.9, 0.5, 0.1]","[u'medium', u'high', u'low']","red",50,"middle","high","True","False",302,1050,NA
"A29AKJXQ248KNK","Wed Jan 29 2020 12:07:35 GMT-0600 (Central Standard Time)","Wed Jan 29 2020 12:15:11 GMT-0600 (Central Standard Time)","Mozilla/5.0 (Windows NT 6.2; Win64; x64) AppleWebKit/537.36 (KHTML, like Gecko) Chrome/75.0.3770.100 Safari/537.36",16,"[0.9, 0.5, 0.1]","[0.8, 0.4, 0.2]","[u'blue', u'red', u'black']","[u'left', u'middle', u'right']","[0.9, 0.5, 0.1]","[u'medium', u'high', u'low']","red",50,"middle","high","False","False",279,1000,NA
"A29AKJXQ248KNK","Wed Jan 29 2020 12:07:35 GMT-0600 (Central Standard Time)","Wed Jan 29 2020 12:15:11 GMT-0600 (Central Standard Time)","Mozilla/5.0 (Windows NT 6.2; Win64; x64) AppleWebKit/537.36 (KHTML, like Gecko) Chrome/75.0.3770.100 Safari/537.36",17,"[0.9, 0.5, 0.1]","[0.8, 0.4, 0.2]","[u'blue', u'red', u'black']","[u'left', u'middle', u'right']","[0.9, 0.5, 0.1]","[u'medium', u'high', u'low']","red",50,"middle","high","True","False",256,1100,NA
"A29AKJXQ248KNK","Wed Jan 29 2020 12:07:35 GMT-0600 (Central Standard Time)","Wed Jan 29 2020 12:15:11 GMT-0600 (Central Standard Time)","Mozilla/5.0 (Windows NT 6.2; Win64; x64) AppleWebKit/537.36 (KHTML, like Gecko) Chrome/75.0.3770.100 Safari/537.36",18,"[0.9, 0.5, 0.1]","[0.8, 0.4, 0.2]","[u'blue', u'red', u'black']","[u'left', u'middle', u'right']","[0.9, 0.5, 0.1]","[u'medium', u'high', u'low']","red",50,"middle","high","True","False",237,1200,NA
"A29AKJXQ248KNK","Wed Jan 29 2020 12:07:35 GMT-0600 (Central Standard Time)","Wed Jan 29 2020 12:15:11 GMT-0600 (Central Standard Time)","Mozilla/5.0 (Windows NT 6.2; Win64; x64) AppleWebKit/537.36 (KHTML, like Gecko) Chrome/75.0.3770.100 Safari/537.36",19,"[0.9, 0.5, 0.1]","[0.8, 0.4, 0.2]","[u'blue', u'red', u'black']","[u'left', u'middle', u'right']","[0.9, 0.5, 0.1]","[u'medium', u'high', u'low']","red",50,"middle","high","True","False",279,1300,NA
"A29AKJXQ248KNK","Wed Jan 29 2020 12:07:35 GMT-0600 (Central Standard Time)","Wed Jan 29 2020 12:15:11 GMT-0600 (Central Standard Time)","Mozilla/5.0 (Windows NT 6.2; Win64; x64) AppleWebKit/537.36 (KHTML, like Gecko) Chrome/75.0.3770.100 Safari/537.36",20,"[0.9, 0.5, 0.1]","[0.8, 0.4, 0.2]","[u'blue', u'red', u'black']","[u'left', u'middle', u'right']","[0.9, 0.5, 0.1]","[u'medium', u'high', u'low']","black",51,"right","low","False","False",286,1250,NA
"A29AKJXQ248KNK","Wed Jan 29 2020 12:07:35 GMT-0600 (Central Standard Time)","Wed Jan 29 2020 12:15:11 GMT-0600 (Central Standard Time)","Mozilla/5.0 (Windows NT 6.2; Win64; x64) AppleWebKit/537.36 (KHTML, like Gecko) Chrome/75.0.3770.100 Safari/537.36",21,"[0.9, 0.5, 0.1]","[0.8, 0.4, 0.2]","[u'blue', u'red', u'black']","[u'left', u'middle', u'right']","[0.9, 0.5, 0.1]","[u'medium', u'high', u'low']","red",50,"middle","high","True","True",201,1350,NA
"A29AKJXQ248KNK","Wed Jan 29 2020 12:07:35 GMT-0600 (Central Standard Time)","Wed Jan 29 2020 12:15:11 GMT-0600 (Central Standard Time)","Mozilla/5.0 (Windows NT 6.2; Win64; x64) AppleWebKit/537.36 (KHTML, like Gecko) Chrome/75.0.3770.100 Safari/537.36",22,"[0.9, 0.5, 0.1]","[0.8, 0.4, 0.2]","[u'blue', u'red', u'black']","[u'left', u'middle', u'right']","[0.9, 0.5, 0.1]","[u'medium', u'low', u'high']","blue",49,"left","medium","False","False",188,1300,NA
"A29AKJXQ248KNK","Wed Jan 29 2020 12:07:35 GMT-0600 (Central Standard Time)","Wed Jan 29 2020 12:15:11 GMT-0600 (Central Standard Time)","Mozilla/5.0 (Windows NT 6.2; Win64; x64) AppleWebKit/537.36 (KHTML, like Gecko) Chrome/75.0.3770.100 Safari/537.36",23,"[0.9, 0.5, 0.1]","[0.8, 0.4, 0.2]","[u'blue', u'red', u'black']","[u'left', u'middle', u'right']","[0.9, 0.5, 0.1]","[u'medium', u'low', u'high']","red",50,"middle","low","False","False",262,1250,NA
"A29AKJXQ248KNK","Wed Jan 29 2020 12:07:35 GMT-0600 (Central Standard Time)","Wed Jan 29 2020 12:15:11 GMT-0600 (Central Standard Time)","Mozilla/5.0 (Windows NT 6.2; Win64; x64) AppleWebKit/537.36 (KHTML, like Gecko) Chrome/75.0.3770.100 Safari/537.36",24,"[0.9, 0.5, 0.1]","[0.8, 0.4, 0.2]","[u'blue', u'red', u'black']","[u'left', u'middle', u'right']","[0.9, 0.5, 0.1]","[u'medium', u'low', u'high']","red",50,"middle","low","False","False",284,1200,NA
"A29AKJXQ248KNK","Wed Jan 29 2020 12:07:35 GMT-0600 (Central Standard Time)","Wed Jan 29 2020 12:15:11 GMT-0600 (Central Standard Time)","Mozilla/5.0 (Windows NT 6.2; Win64; x64) AppleWebKit/537.36 (KHTML, like Gecko) Chrome/75.0.3770.100 Safari/537.36",25,"[0.9, 0.5, 0.1]","[0.8, 0.4, 0.2]","[u'blue', u'red', u'black']","[u'left', u'middle', u'right']","[0.9, 0.5, 0.1]","[u'medium', u'low', u'high']","blue",49,"left","medium","False","False",381,1150,NA
"A29AKJXQ248KNK","Wed Jan 29 2020 12:07:35 GMT-0600 (Central Standard Time)","Wed Jan 29 2020 12:15:11 GMT-0600 (Central Standard Time)","Mozilla/5.0 (Windows NT 6.2; Win64; x64) AppleWebKit/537.36 (KHTML, like Gecko) Chrome/75.0.3770.100 Safari/537.36",26,"[0.9, 0.5, 0.1]","[0.8, 0.4, 0.2]","[u'blue', u'red', u'black']","[u'left', u'middle', u'right']","[0.9, 0.5, 0.1]","[u'medium', u'low', u'high']","red",50,"middle","low","False","False",290,1100,NA
"A29AKJXQ248KNK","Wed Jan 29 2020 12:07:35 GMT-0600 (Central Standard Time)","Wed Jan 29 2020 12:15:11 GMT-0600 (Central Standard Time)","Mozilla/5.0 (Windows NT 6.2; Win64; x64) AppleWebKit/537.36 (KHTML, like Gecko) Chrome/75.0.3770.100 Safari/537.36",27,"[0.9, 0.5, 0.1]","[0.8, 0.4, 0.2]","[u'blue', u'red', u'black']","[u'left', u'middle', u'right']","[0.9, 0.5, 0.1]","[u'medium', u'low', u'high']","black",51,"right","high","True","False",171,1200,NA
"A29AKJXQ248KNK","Wed Jan 29 2020 12:07:35 GMT-0600 (Central Standard Time)","Wed Jan 29 2020 12:15:11 GMT-0600 (Central Standard Time)","Mozilla/5.0 (Windows NT 6.2; Win64; x64) AppleWebKit/537.36 (KHTML, like Gecko) Chrome/75.0.3770.100 Safari/537.36",28,"[0.9, 0.5, 0.1]","[0.8, 0.4, 0.2]","[u'blue', u'red', u'black']","[u'left', u'middle', u'right']","[0.9, 0.5, 0.1]","[u'medium', u'low', u'high']","black",51,"right","high","True","False",104,1300,NA
"A29AKJXQ248KNK","Wed Jan 29 2020 12:07:35 GMT-0600 (Central Standard Time)","Wed Jan 29 2020 12:15:11 GMT-0600 (Central Standard Time)","Mozilla/5.0 (Windows NT 6.2; Win64; x64) AppleWebKit/537.36 (KHTML, like Gecko) Chrome/75.0.3770.100 Safari/537.36",29,"[0.9, 0.5, 0.1]","[0.8, 0.4, 0.2]","[u'blue', u'red', u'black']","[u'left', u'middle', u'right']","[0.9, 0.5, 0.1]","[u'medium', u'low', u'high']","black",51,"right","high","False","False",91,1250,NA
"A29AKJXQ248KNK","Wed Jan 29 2020 12:07:35 GMT-0600 (Central Standard Time)","Wed Jan 29 2020 12:15:11 GMT-0600 (Central Standard Time)","Mozilla/5.0 (Windows NT 6.2; Win64; x64) AppleWebKit/537.36 (KHTML, like Gecko) Chrome/75.0.3770.100 Safari/537.36",30,"[0.9, 0.5, 0.1]","[0.8, 0.4, 0.2]","[u'blue', u'red', u'black']","[u'left', u'middle', u'right']","[0.9, 0.5, 0.1]","[u'medium', u'low', u'high']","red",50,"middle","low","False","False",186,1200,NA
"A29AKJXQ248KNK","Wed Jan 29 2020 12:07:35 GMT-0600 (Central Standard Time)","Wed Jan 29 2020 12:15:11 GMT-0600 (Central Standard Time)","Mozilla/5.0 (Windows NT 6.2; Win64; x64) AppleWebKit/537.36 (KHTML, like Gecko) Chrome/75.0.3770.100 Safari/537.36",31,"[0.9, 0.5, 0.1]","[0.8, 0.4, 0.2]","[u'blue', u'red', u'black']","[u'left', u'middle', u'right']","[0.9, 0.5, 0.1]","[u'medium', u'low', u'high']","black",51,"right","high","True","False",58,1300,NA
"A29AKJXQ248KNK","Wed Jan 29 2020 12:07:35 GMT-0600 (Central Standard Time)","Wed Jan 29 2020 12:15:11 GMT-0600 (Central Standard Time)","Mozilla/5.0 (Windows NT 6.2; Win64; x64) AppleWebKit/537.36 (KHTML, like Gecko) Chrome/75.0.3770.100 Safari/537.36",32,"[0.9, 0.5, 0.1]","[0.8, 0.4, 0.2]","[u'blue', u'red', u'black']","[u'left', u'middle', u'right']","[0.9, 0.5, 0.1]","[u'medium', u'low', u'high']","black",51,"right","high","False","False",150,1250,NA
"A29AKJXQ248KNK","Wed Jan 29 2020 12:07:35 GMT-0600 (Central Standard Time)","Wed Jan 29 2020 12:15:11 GMT-0600 (Central Standard Time)","Mozilla/5.0 (Windows NT 6.2; Win64; x64) AppleWebKit/537.36 (KHTML, like Gecko) Chrome/75.0.3770.100 Safari/537.36",33,"[0.9, 0.5, 0.1]","[0.8, 0.4, 0.2]","[u'blue', u'red', u'black']","[u'left', u'middle', u'right']","[0.9, 0.5, 0.1]","[u'medium', u'low', u'high']","blue",49,"left","medium","False","False",227,1200,NA
"A29AKJXQ248KNK","Wed Jan 29 2020 12:07:35 GMT-0600 (Central Standard Time)","Wed Jan 29 2020 12:15:11 GMT-0600 (Central Standard Time)","Mozilla/5.0 (Windows NT 6.2; Win64; x64) AppleWebKit/537.36 (KHTML, like Gecko) Chrome/75.0.3770.100 Safari/537.36",34,"[0.9, 0.5, 0.1]","[0.8, 0.4, 0.2]","[u'blue', u'red', u'black']","[u'left', u'middle', u'right']","[0.9, 0.5, 0.1]","[u'medium', u'low', u'high']","black",51,"right","high","True","False",222,1300,NA
"A29AKJXQ248KNK","Wed Jan 29 2020 12:07:35 GMT-0600 (Central Standard Time)","Wed Jan 29 2020 12:15:11 GMT-0600 (Central Standard Time)","Mozilla/5.0 (Windows NT 6.2; Win64; x64) AppleWebKit/537.36 (KHTML, like Gecko) Chrome/75.0.3770.100 Safari/537.36",35,"[0.9, 0.5, 0.1]","[0.8, 0.4, 0.2]","[u'blue', u'red', u'black']","[u'left', u'middle', u'right']","[0.9, 0.5, 0.1]","[u'medium', u'low', u'high']","red",50,"middle","low","False","False",300,1250,NA
"A29AKJXQ248KNK","Wed Jan 29 2020 12:07:35 GMT-0600 (Central Standard Time)","Wed Jan 29 2020 12:15:11 GMT-0600 (Central Standard Time)","Mozilla/5.0 (Windows NT 6.2; Win64; x64) AppleWebKit/537.36 (KHTML, like Gecko) Chrome/75.0.3770.100 Safari/537.36",36,"[0.9, 0.5, 0.1]","[0.8, 0.4, 0.2]","[u'blue', u'red', u'black']","[u'left', u'middle', u'right']","[0.9, 0.5, 0.1]","[u'medium', u'low', u'high']","red",50,"middle","low","False","False",263,1200,NA
"A29AKJXQ248KNK","Wed Jan 29 2020 12:07:35 GMT-0600 (Central Standard Time)","Wed Jan 29 2020 12:15:11 GMT-0600 (Central Standard Time)","Mozilla/5.0 (Windows NT 6.2; Win64; x64) AppleWebKit/537.36 (KHTML, like Gecko) Chrome/75.0.3770.100 Safari/537.36",37,"[0.9, 0.5, 0.1]","[0.8, 0.4, 0.2]","[u'blue', u'red', u'black']","[u'left', u'middle', u'right']","[0.9, 0.5, 0.1]","[u'medium', u'low', u'high']","black",51,"right","high","True","False",278,1300,NA
"A29AKJXQ248KNK","Wed Jan 29 2020 12:07:35 GMT-0600 (Central Standard Time)","Wed Jan 29 2020 12:15:11 GMT-0600 (Central Standard Time)","Mozilla/5.0 (Windows NT 6.2; Win64; x64) AppleWebKit/537.36 (KHTML, like Gecko) Chrome/75.0.3770.100 Safari/537.36",38,"[0.9, 0.5, 0.1]","[0.8, 0.4, 0.2]","[u'blue', u'red', u'black']","[u'left', u'middle', u'right']","[0.9, 0.5, 0.1]","[u'medium', u'low', u'high']","red",50,"middle","low","False","False",226,1250,NA
"A29AKJXQ248KNK","Wed Jan 29 2020 12:07:35 GMT-0600 (Central Standard Time)","Wed Jan 29 2020 12:15:11 GMT-0600 (Central Standard Time)","Mozilla/5.0 (Windows NT 6.2; Win64; x64) AppleWebKit/537.36 (KHTML, like Gecko) Chrome/75.0.3770.100 Safari/537.36",39,"[0.9, 0.5, 0.1]","[0.8, 0.4, 0.2]","[u'blue', u'red', u'black']","[u'left', u'middle', u'right']","[0.9, 0.5, 0.1]","[u'medium', u'low', u'high']","red",50,"middle","low","False","False",299,1200,NA
"A29AKJXQ248KNK","Wed Jan 29 2020 12:07:35 GMT-0600 (Central Standard Time)","Wed Jan 29 2020 12:15:11 GMT-0600 (Central Standard Time)","Mozilla/5.0 (Windows NT 6.2; Win64; x64) AppleWebKit/537.36 (KHTML, like Gecko) Chrome/75.0.3770.100 Safari/537.36",40,"[0.9, 0.5, 0.1]","[0.8, 0.4, 0.2]","[u'blue', u'red', u'black']","[u'left', u'middle', u'right']","[0.9, 0.5, 0.1]","[u'medium', u'low', u'high']","black",51,"right","high","True","False",238,1300,NA
"A29AKJXQ248KNK","Wed Jan 29 2020 12:07:35 GMT-0600 (Central Standard Time)","Wed Jan 29 2020 12:15:11 GMT-0600 (Central Standard Time)","Mozilla/5.0 (Windows NT 6.2; Win64; x64) AppleWebKit/537.36 (KHTML, like Gecko) Chrome/75.0.3770.100 Safari/537.36",41,"[0.9, 0.5, 0.1]","[0.8, 0.4, 0.2]","[u'blue', u'red', u'black']","[u'left', u'middle', u'right']","[0.9, 0.5, 0.1]","[u'low', u'high', u'medium']","red",50,"middle","high","False","False",362,1250,NA
"A29AKJXQ248KNK","Wed Jan 29 2020 12:07:35 GMT-0600 (Central Standard Time)","Wed Jan 29 2020 12:15:11 GMT-0600 (Central Standard Time)","Mozilla/5.0 (Windows NT 6.2; Win64; x64) AppleWebKit/537.36 (KHTML, like Gecko) Chrome/75.0.3770.100 Safari/537.36",42,"[0.9, 0.5, 0.1]","[0.8, 0.4, 0.2]","[u'blue', u'red', u'black']","[u'left', u'middle', u'right']","[0.9, 0.5, 0.1]","[u'low', u'high', u'medium']","red",50,"middle","high","True","False",329,1350,NA
"A29AKJXQ248KNK","Wed Jan 29 2020 12:07:35 GMT-0600 (Central Standard Time)","Wed Jan 29 2020 12:15:11 GMT-0600 (Central Standard Time)","Mozilla/5.0 (Windows NT 6.2; Win64; x64) AppleWebKit/537.36 (KHTML, like Gecko) Chrome/75.0.3770.100 Safari/537.36",43,"[0.9, 0.5, 0.1]","[0.8, 0.4, 0.2]","[u'blue', u'red', u'black']","[u'left', u'middle', u'right']","[0.9, 0.5, 0.1]","[u'low', u'high', u'medium']","red",50,"middle","high","True","False",280,1450,NA
"A29AKJXQ248KNK","Wed Jan 29 2020 12:07:35 GMT-0600 (Central Standard Time)","Wed Jan 29 2020 12:15:11 GMT-0600 (Central Standard Time)","Mozilla/5.0 (Windows NT 6.2; Win64; x64) AppleWebKit/537.36 (KHTML, like Gecko) Chrome/75.0.3770.100 Safari/537.36",44,"[0.9, 0.5, 0.1]","[0.8, 0.4, 0.2]","[u'blue', u'red', u'black']","[u'left', u'middle', u'right']","[0.9, 0.5, 0.1]","[u'low', u'high', u'medium']","red",50,"middle","high","True","False",242,1550,NA
"A29AKJXQ248KNK","Wed Jan 29 2020 12:07:35 GMT-0600 (Central Standard Time)","Wed Jan 29 2020 12:15:11 GMT-0600 (Central Standard Time)","Mozilla/5.0 (Windows NT 6.2; Win64; x64) AppleWebKit/537.36 (KHTML, like Gecko) Chrome/75.0.3770.100 Safari/537.36",45,"[0.9, 0.5, 0.1]","[0.8, 0.4, 0.2]","[u'blue', u'red', u'black']","[u'left', u'middle', u'right']","[0.9, 0.5, 0.1]","[u'low', u'high', u'medium']","red",50,"middle","high","True","False",257,1650,NA
"A29AKJXQ248KNK","Wed Jan 29 2020 12:07:35 GMT-0600 (Central Standard Time)","Wed Jan 29 2020 12:15:11 GMT-0600 (Central Standard Time)","Mozilla/5.0 (Windows NT 6.2; Win64; x64) AppleWebKit/537.36 (KHTML, like Gecko) Chrome/75.0.3770.100 Safari/537.36",46,"[0.9, 0.5, 0.1]","[0.8, 0.4, 0.2]","[u'blue', u'red', u'black']","[u'left', u'middle', u'right']","[0.9, 0.5, 0.1]","[u'low', u'high', u'medium']","red",50,"middle","high","True","False",337,1750,NA
"A29AKJXQ248KNK","Wed Jan 29 2020 12:07:35 GMT-0600 (Central Standard Time)","Wed Jan 29 2020 12:15:11 GMT-0600 (Central Standard Time)","Mozilla/5.0 (Windows NT 6.2; Win64; x64) AppleWebKit/537.36 (KHTML, like Gecko) Chrome/75.0.3770.100 Safari/537.36",47,"[0.9, 0.5, 0.1]","[0.8, 0.4, 0.2]","[u'blue', u'red', u'black']","[u'left', u'middle', u'right']","[0.9, 0.5, 0.1]","[u'low', u'high', u'medium']","red",50,"middle","high","True","False",257,1850,NA
"A29AKJXQ248KNK","Wed Jan 29 2020 12:07:35 GMT-0600 (Central Standard Time)","Wed Jan 29 2020 12:15:11 GMT-0600 (Central Standard Time)","Mozilla/5.0 (Windows NT 6.2; Win64; x64) AppleWebKit/537.36 (KHTML, like Gecko) Chrome/75.0.3770.100 Safari/537.36",48,"[0.9, 0.5, 0.1]","[0.8, 0.4, 0.2]","[u'blue', u'red', u'black']","[u'left', u'middle', u'right']","[0.9, 0.5, 0.1]","[u'low', u'high', u'medium']","blue",49,"left","low","False","False",176,1800,NA
"A29AKJXQ248KNK","Wed Jan 29 2020 12:07:35 GMT-0600 (Central Standard Time)","Wed Jan 29 2020 12:15:11 GMT-0600 (Central Standard Time)","Mozilla/5.0 (Windows NT 6.2; Win64; x64) AppleWebKit/537.36 (KHTML, like Gecko) Chrome/75.0.3770.100 Safari/537.36",49,"[0.9, 0.5, 0.1]","[0.8, 0.4, 0.2]","[u'blue', u'red', u'black']","[u'left', u'middle', u'right']","[0.9, 0.5, 0.1]","[u'low', u'high', u'medium']","black",51,"right","medium","True","False",62,1900,NA
"A29AKJXQ248KNK","Wed Jan 29 2020 12:07:35 GMT-0600 (Central Standard Time)","Wed Jan 29 2020 12:15:11 GMT-0600 (Central Standard Time)","Mozilla/5.0 (Windows NT 6.2; Win64; x64) AppleWebKit/537.36 (KHTML, like Gecko) Chrome/75.0.3770.100 Safari/537.36",50,"[0.9, 0.5, 0.1]","[0.8, 0.4, 0.2]","[u'blue', u'red', u'black']","[u'left', u'middle', u'right']","[0.9, 0.5, 0.1]","[u'low', u'high', u'medium']","black",51,"right","medium","True","False",68,2000,NA
"A29AKJXQ248KNK","Wed Jan 29 2020 12:07:35 GMT-0600 (Central Standard Time)","Wed Jan 29 2020 12:15:11 GMT-0600 (Central Standard Time)","Mozilla/5.0 (Windows NT 6.2; Win64; x64) AppleWebKit/537.36 (KHTML, like Gecko) Chrome/75.0.3770.100 Safari/537.36",51,"[0.9, 0.5, 0.1]","[0.8, 0.4, 0.2]","[u'blue', u'red', u'black']","[u'left', u'middle', u'right']","[0.9, 0.5, 0.1]","[u'low', u'high', u'medium']","red",50,"middle","high","True","False",226,2100,NA
"A29AKJXQ248KNK","Wed Jan 29 2020 12:07:35 GMT-0600 (Central Standard Time)","Wed Jan 29 2020 12:15:11 GMT-0600 (Central Standard Time)","Mozilla/5.0 (Windows NT 6.2; Win64; x64) AppleWebKit/537.36 (KHTML, like Gecko) Chrome/75.0.3770.100 Safari/537.36",52,"[0.9, 0.5, 0.1]","[0.8, 0.4, 0.2]","[u'blue', u'red', u'black']","[u'left', u'middle', u'right']","[0.9, 0.5, 0.1]","[u'low', u'high', u'medium']","red",50,"middle","high","True","False",223,2200,NA
"A29AKJXQ248KNK","Wed Jan 29 2020 12:07:35 GMT-0600 (Central Standard Time)","Wed Jan 29 2020 12:15:11 GMT-0600 (Central Standard Time)","Mozilla/5.0 (Windows NT 6.2; Win64; x64) AppleWebKit/537.36 (KHTML, like Gecko) Chrome/75.0.3770.100 Safari/537.36",53,"[0.9, 0.5, 0.1]","[0.8, 0.4, 0.2]","[u'blue', u'red', u'black']","[u'left', u'middle', u'right']","[0.9, 0.5, 0.1]","[u'low', u'high', u'medium']","red",50,"middle","high","True","False",323,2300,NA
"A29AKJXQ248KNK","Wed Jan 29 2020 12:07:35 GMT-0600 (Central Standard Time)","Wed Jan 29 2020 12:15:11 GMT-0600 (Central Standard Time)","Mozilla/5.0 (Windows NT 6.2; Win64; x64) AppleWebKit/537.36 (KHTML, like Gecko) Chrome/75.0.3770.100 Safari/537.36",54,"[0.9, 0.5, 0.1]","[0.8, 0.4, 0.2]","[u'blue', u'red', u'black']","[u'left', u'middle', u'right']","[0.9, 0.5, 0.1]","[u'low', u'high', u'medium']","red",50,"middle","high","False","False",230,2250,NA
"A29AKJXQ248KNK","Wed Jan 29 2020 12:07:35 GMT-0600 (Central Standard Time)","Wed Jan 29 2020 12:15:11 GMT-0600 (Central Standard Time)","Mozilla/5.0 (Windows NT 6.2; Win64; x64) AppleWebKit/537.36 (KHTML, like Gecko) Chrome/75.0.3770.100 Safari/537.36",55,"[0.9, 0.5, 0.1]","[0.8, 0.4, 0.2]","[u'blue', u'red', u'black']","[u'left', u'middle', u'right']","[0.9, 0.5, 0.1]","[u'low', u'high', u'medium']","red",50,"middle","high","True","False",227,2350,NA
"A29AKJXQ248KNK","Wed Jan 29 2020 12:07:35 GMT-0600 (Central Standard Time)","Wed Jan 29 2020 12:15:11 GMT-0600 (Central Standard Time)","Mozilla/5.0 (Windows NT 6.2; Win64; x64) AppleWebKit/537.36 (KHTML, like Gecko) Chrome/75.0.3770.100 Safari/537.36",56,"[0.9, 0.5, 0.1]","[0.8, 0.4, 0.2]","[u'blue', u'red', u'black']","[u'left', u'middle', u'right']","[0.9, 0.5, 0.1]","[u'low', u'high', u'medium']","red",50,"middle","high","True","False",235,2450,NA
"A29AKJXQ248KNK","Wed Jan 29 2020 12:07:35 GMT-0600 (Central Standard Time)","Wed Jan 29 2020 12:15:11 GMT-0600 (Central Standard Time)","Mozilla/5.0 (Windows NT 6.2; Win64; x64) AppleWebKit/537.36 (KHTML, like Gecko) Chrome/75.0.3770.100 Safari/537.36",57,"[0.9, 0.5, 0.1]","[0.8, 0.4, 0.2]","[u'blue', u'red', u'black']","[u'left', u'middle', u'right']","[0.9, 0.5, 0.1]","[u'low', u'high', u'medium']","red",50,"middle","high","False","False",234,2400,NA
"A29AKJXQ248KNK","Wed Jan 29 2020 12:07:35 GMT-0600 (Central Standard Time)","Wed Jan 29 2020 12:15:11 GMT-0600 (Central Standard Time)","Mozilla/5.0 (Windows NT 6.2; Win64; x64) AppleWebKit/537.36 (KHTML, like Gecko) Chrome/75.0.3770.100 Safari/537.36",58,"[0.9, 0.5, 0.1]","[0.8, 0.4, 0.2]","[u'blue', u'red', u'black']","[u'left', u'middle', u'right']","[0.9, 0.5, 0.1]","[u'low', u'high', u'medium']","black",51,"right","medium","False","False",245,2350,NA
"A29AKJXQ248KNK","Wed Jan 29 2020 12:07:35 GMT-0600 (Central Standard Time)","Wed Jan 29 2020 12:15:11 GMT-0600 (Central Standard Time)","Mozilla/5.0 (Windows NT 6.2; Win64; x64) AppleWebKit/537.36 (KHTML, like Gecko) Chrome/75.0.3770.100 Safari/537.36",59,"[0.9, 0.5, 0.1]","[0.8, 0.4, 0.2]","[u'blue', u'red', u'black']","[u'left', u'middle', u'right']","[0.9, 0.5, 0.1]","[u'low', u'high', u'medium']","blue",49,"left","low","False","False",176,2300,NA
"A29AKJXQ248KNK","Wed Jan 29 2020 12:07:35 GMT-0600 (Central Standard Time)","Wed Jan 29 2020 12:15:11 GMT-0600 (Central Standard Time)","Mozilla/5.0 (Windows NT 6.2; Win64; x64) AppleWebKit/537.36 (KHTML, like Gecko) Chrome/75.0.3770.100 Safari/537.36",60,"[0.9, 0.5, 0.1]","[0.8, 0.4, 0.2]","[u'blue', u'red', u'black']","[u'left', u'middle', u'right']","[0.9, 0.5, 0.1]","[u'low', u'high', u'medium']","red",50,"middle","high","True","False",284,2400,NA
"A29AKJXQ248KNK","Wed Jan 29 2020 12:07:35 GMT-0600 (Central Standard Time)","Wed Jan 29 2020 12:15:11 GMT-0600 (Central Standard Time)","Mozilla/5.0 (Windows NT 6.2; Win64; x64) AppleWebKit/537.36 (KHTML, like Gecko) Chrome/75.0.3770.100 Safari/537.36",61,"[0.9, 0.5, 0.1]","[0.8, 0.4, 0.2]","[u'blue', u'red', u'black']","[u'left', u'middle', u'right']","[0.9, 0.5, 0.1]","[u'low', u'high', u'medium']","red",50,"middle","high","True","False",382,2500,NA
"A29AKJXQ248KNK","Wed Jan 29 2020 12:07:35 GMT-0600 (Central Standard Time)","Wed Jan 29 2020 12:15:11 GMT-0600 (Central Standard Time)","Mozilla/5.0 (Windows NT 6.2; Win64; x64) AppleWebKit/537.36 (KHTML, like Gecko) Chrome/75.0.3770.100 Safari/537.36",62,"[0.9, 0.5, 0.1]","[0.8, 0.4, 0.2]","[u'blue', u'red', u'black']","[u'left', u'middle', u'right']","[0.9, 0.5, 0.1]","[u'low', u'high', u'medium']","red",50,"middle","high","True","False",326,2600,NA
"A29AKJXQ248KNK","Wed Jan 29 2020 12:07:35 GMT-0600 (Central Standard Time)","Wed Jan 29 2020 12:15:11 GMT-0600 (Central Standard Time)","Mozilla/5.0 (Windows NT 6.2; Win64; x64) AppleWebKit/537.36 (KHTML, like Gecko) Chrome/75.0.3770.100 Safari/537.36",63,"[0.9, 0.5, 0.1]","[0.8, 0.4, 0.2]","[u'blue', u'red', u'black']","[u'left', u'middle', u'right']","[0.9, 0.5, 0.1]","[u'low', u'high', u'medium']","black",51,"right","medium","True","False",312,2700,NA
"A29AKJXQ248KNK","Wed Jan 29 2020 12:07:35 GMT-0600 (Central Standard Time)","Wed Jan 29 2020 12:15:11 GMT-0600 (Central Standard Time)","Mozilla/5.0 (Windows NT 6.2; Win64; x64) AppleWebKit/537.36 (KHTML, like Gecko) Chrome/75.0.3770.100 Safari/537.36",64,"[0.9, 0.5, 0.1]","[0.8, 0.4, 0.2]","[u'blue', u'red', u'black']","[u'left', u'middle', u'right']","[0.9, 0.5, 0.1]","[u'low', u'high', u'medium']","black",51,"right","medium","True","False",306,2800,NA
"A29AKJXQ248KNK","Wed Jan 29 2020 12:07:35 GMT-0600 (Central Standard Time)","Wed Jan 29 2020 12:15:11 GMT-0600 (Central Standard Time)","Mozilla/5.0 (Windows NT 6.2; Win64; x64) AppleWebKit/537.36 (KHTML, like Gecko) Chrome/75.0.3770.100 Safari/537.36",65,"[0.9, 0.5, 0.1]","[0.8, 0.4, 0.2]","[u'blue', u'red', u'black']","[u'left', u'middle', u'right']","[0.9, 0.5, 0.1]","[u'low', u'high', u'medium']","red",50,"middle","high","True","False",301,2900,NA
"A29AKJXQ248KNK","Wed Jan 29 2020 12:07:35 GMT-0600 (Central Standard Time)","Wed Jan 29 2020 12:15:11 GMT-0600 (Central Standard Time)","Mozilla/5.0 (Windows NT 6.2; Win64; x64) AppleWebKit/537.36 (KHTML, like Gecko) Chrome/75.0.3770.100 Safari/537.36",66,"[0.9, 0.5, 0.1]","[0.8, 0.4, 0.2]","[u'blue', u'red', u'black']","[u'left', u'middle', u'right']","[0.9, 0.5, 0.1]","[u'low', u'high', u'medium']","red",50,"middle","high","True","False",243,3000,NA
"A29AKJXQ248KNK","Wed Jan 29 2020 12:07:35 GMT-0600 (Central Standard Time)","Wed Jan 29 2020 12:15:11 GMT-0600 (Central Standard Time)","Mozilla/5.0 (Windows NT 6.2; Win64; x64) AppleWebKit/537.36 (KHTML, like Gecko) Chrome/75.0.3770.100 Safari/537.36",67,"[0.9, 0.5, 0.1]","[0.8, 0.4, 0.2]","[u'blue', u'red', u'black']","[u'left', u'middle', u'right']","[0.9, 0.5, 0.1]","[u'low', u'high', u'medium']","red",50,"middle","high","True","False",248,3100,NA
"A29AKJXQ248KNK","Wed Jan 29 2020 12:07:35 GMT-0600 (Central Standard Time)","Wed Jan 29 2020 12:15:11 GMT-0600 (Central Standard Time)","Mozilla/5.0 (Windows NT 6.2; Win64; x64) AppleWebKit/537.36 (KHTML, like Gecko) Chrome/75.0.3770.100 Safari/537.36",68,"[0.9, 0.5, 0.1]","[0.8, 0.4, 0.2]","[u'blue', u'red', u'black']","[u'left', u'middle', u'right']","[0.9, 0.5, 0.1]","[u'low', u'high', u'medium']","blue",49,"left","low","False","False",167,3050,NA
"A29AKJXQ248KNK","Wed Jan 29 2020 12:07:35 GMT-0600 (Central Standard Time)","Wed Jan 29 2020 12:15:11 GMT-0600 (Central Standard Time)","Mozilla/5.0 (Windows NT 6.2; Win64; x64) AppleWebKit/537.36 (KHTML, like Gecko) Chrome/75.0.3770.100 Safari/537.36",69,"[0.9, 0.5, 0.1]","[0.8, 0.4, 0.2]","[u'blue', u'red', u'black']","[u'left', u'middle', u'right']","[0.9, 0.5, 0.1]","[u'low', u'high', u'medium']","red",50,"middle","high","True","False",235,3150,NA
"A29AKJXQ248KNK","Wed Jan 29 2020 12:07:35 GMT-0600 (Central Standard Time)","Wed Jan 29 2020 12:15:11 GMT-0600 (Central Standard Time)","Mozilla/5.0 (Windows NT 6.2; Win64; x64) AppleWebKit/537.36 (KHTML, like Gecko) Chrome/75.0.3770.100 Safari/537.36",70,"[0.9, 0.5, 0.1]","[0.8, 0.4, 0.2]","[u'blue', u'red', u'black']","[u'left', u'middle', u'right']","[0.9, 0.5, 0.1]","[u'low', u'high', u'medium']","red",50,"middle","high","True","False",258,3250,NA
"A29AKJXQ248KNK","Wed Jan 29 2020 12:07:35 GMT-0600 (Central Standard Time)","Wed Jan 29 2020 12:15:11 GMT-0600 (Central Standard Time)","Mozilla/5.0 (Windows NT 6.2; Win64; x64) AppleWebKit/537.36 (KHTML, like Gecko) Chrome/75.0.3770.100 Safari/537.36",71,"[0.9, 0.5, 0.1]","[0.8, 0.4, 0.2]","[u'blue', u'red', u'black']","[u'left', u'middle', u'right']","[0.9, 0.5, 0.1]","[u'low', u'high', u'medium']","red",50,"middle","high","True","False",230,3350,NA
"A29AKJXQ248KNK","Wed Jan 29 2020 12:07:35 GMT-0600 (Central Standard Time)","Wed Jan 29 2020 12:15:11 GMT-0600 (Central Standard Time)","Mozilla/5.0 (Windows NT 6.2; Win64; x64) AppleWebKit/537.36 (KHTML, like Gecko) Chrome/75.0.3770.100 Safari/537.36",72,"[0.9, 0.5, 0.1]","[0.8, 0.4, 0.2]","[u'blue', u'red', u'black']","[u'left', u'middle', u'right']","[0.9, 0.5, 0.1]","[u'low', u'high', u'medium']","black",51,"right","medium","True","False",232,3450,NA
"A29AKJXQ248KNK","Wed Jan 29 2020 12:07:35 GMT-0600 (Central Standard Time)","Wed Jan 29 2020 12:15:11 GMT-0600 (Central Standard Time)","Mozilla/5.0 (Windows NT 6.2; Win64; x64) AppleWebKit/537.36 (KHTML, like Gecko) Chrome/75.0.3770.100 Safari/537.36",73,"[0.9, 0.5, 0.1]","[0.8, 0.4, 0.2]","[u'blue', u'red', u'black']","[u'left', u'middle', u'right']","[0.9, 0.5, 0.1]","[u'low', u'high', u'medium']","red",50,"middle","high","True","False",145,3550,NA
"A29AKJXQ248KNK","Wed Jan 29 2020 12:07:35 GMT-0600 (Central Standard Time)","Wed Jan 29 2020 12:15:11 GMT-0600 (Central Standard Time)","Mozilla/5.0 (Windows NT 6.2; Win64; x64) AppleWebKit/537.36 (KHTML, like Gecko) Chrome/75.0.3770.100 Safari/537.36",74,"[0.9, 0.5, 0.1]","[0.8, 0.4, 0.2]","[u'blue', u'red', u'black']","[u'left', u'middle', u'right']","[0.9, 0.5, 0.1]","[u'low', u'high', u'medium']","red",50,"middle","high","True","False",239,3650,NA
"A29AKJXQ248KNK","Wed Jan 29 2020 12:07:35 GMT-0600 (Central Standard Time)","Wed Jan 29 2020 12:15:11 GMT-0600 (Central Standard Time)","Mozilla/5.0 (Windows NT 6.2; Win64; x64) AppleWebKit/537.36 (KHTML, like Gecko) Chrome/75.0.3770.100 Safari/537.36",75,"[0.9, 0.5, 0.1]","[0.8, 0.4, 0.2]","[u'blue', u'red', u'black']","[u'left', u'middle', u'right']","[0.9, 0.5, 0.1]","[u'low', u'high', u'medium']","red",50,"middle","high","True","False",269,3750,NA
"A29AKJXQ248KNK","Wed Jan 29 2020 12:07:35 GMT-0600 (Central Standard Time)","Wed Jan 29 2020 12:15:11 GMT-0600 (Central Standard Time)","Mozilla/5.0 (Windows NT 6.2; Win64; x64) AppleWebKit/537.36 (KHTML, like Gecko) Chrome/75.0.3770.100 Safari/537.36",76,"[0.9, 0.5, 0.1]","[0.8, 0.4, 0.2]","[u'blue', u'red', u'black']","[u'left', u'middle', u'right']","[0.9, 0.5, 0.1]","[u'low', u'high', u'medium']","red",50,"middle","high","True","False",400,3850,NA
"A29AKJXQ248KNK","Wed Jan 29 2020 12:07:35 GMT-0600 (Central Standard Time)","Wed Jan 29 2020 12:15:11 GMT-0600 (Central Standard Time)","Mozilla/5.0 (Windows NT 6.2; Win64; x64) AppleWebKit/537.36 (KHTML, like Gecko) Chrome/75.0.3770.100 Safari/537.36",77,"[0.9, 0.5, 0.1]","[0.8, 0.4, 0.2]","[u'blue', u'red', u'black']","[u'left', u'middle', u'right']","[0.9, 0.5, 0.1]","[u'low', u'high', u'medium']","red",50,"middle","high","False","False",309,3800,NA
"A29AKJXQ248KNK","Wed Jan 29 2020 12:07:35 GMT-0600 (Central Standard Time)","Wed Jan 29 2020 12:15:11 GMT-0600 (Central Standard Time)","Mozilla/5.0 (Windows NT 6.2; Win64; x64) AppleWebKit/537.36 (KHTML, like Gecko) Chrome/75.0.3770.100 Safari/537.36",78,"[0.9, 0.5, 0.1]","[0.8, 0.4, 0.2]","[u'blue', u'red', u'black']","[u'left', u'middle', u'right']","[0.9, 0.5, 0.1]","[u'low', u'high', u'medium']","blue",49,"left","low","False","False",265,3750,NA
"A29AKJXQ248KNK","Wed Jan 29 2020 12:07:35 GMT-0600 (Central Standard Time)","Wed Jan 29 2020 12:15:11 GMT-0600 (Central Standard Time)","Mozilla/5.0 (Windows NT 6.2; Win64; x64) AppleWebKit/537.36 (KHTML, like Gecko) Chrome/75.0.3770.100 Safari/537.36",79,"[0.9, 0.5, 0.1]","[0.8, 0.4, 0.2]","[u'blue', u'red', u'black']","[u'left', u'middle', u'right']","[0.9, 0.5, 0.1]","[u'low', u'high', u'medium']","red",50,"middle","high","True","False",373,3850,NA
"A29AKJXQ248KNK","Wed Jan 29 2020 12:07:35 GMT-0600 (Central Standard Time)","Wed Jan 29 2020 12:15:11 GMT-0600 (Central Standard Time)","Mozilla/5.0 (Windows NT 6.2; Win64; x64) AppleWebKit/537.36 (KHTML, like Gecko) Chrome/75.0.3770.100 Safari/537.36",80,"[0.9, 0.5, 0.1]","[0.8, 0.4, 0.2]","[u'blue', u'red', u'black']","[u'left', u'middle', u'right']","[0.9, 0.5, 0.1]","[u'low', u'high', u'medium']","red",50,"middle","high","True","False",365,3950,NA
"A29AKJXQ248KNK","Wed Jan 29 2020 12:07:35 GMT-0600 (Central Standard Time)","Wed Jan 29 2020 12:15:11 GMT-0600 (Central Standard Time)","Mozilla/5.0 (Windows NT 6.2; Win64; x64) AppleWebKit/537.36 (KHTML, like Gecko) Chrome/75.0.3770.100 Safari/537.36",81,"[0.9, 0.5, 0.1]","[0.8, 0.4, 0.2]","[u'blue', u'red', u'black']","[u'left', u'middle', u'right']","[0.8, 0.4, 0.2]","[u'medium', u'low', u'high']","red",50,"middle","low","False","False",833,3900,NA
"A29AKJXQ248KNK","Wed Jan 29 2020 12:07:35 GMT-0600 (Central Standard Time)","Wed Jan 29 2020 12:15:11 GMT-0600 (Central Standard Time)","Mozilla/5.0 (Windows NT 6.2; Win64; x64) AppleWebKit/537.36 (KHTML, like Gecko) Chrome/75.0.3770.100 Safari/537.36",82,"[0.9, 0.5, 0.1]","[0.8, 0.4, 0.2]","[u'blue', u'red', u'black']","[u'left', u'middle', u'right']","[0.8, 0.4, 0.2]","[u'medium', u'low', u'high']","blue",49,"left","medium","False","False",258,3850,NA
"A29AKJXQ248KNK","Wed Jan 29 2020 12:07:35 GMT-0600 (Central Standard Time)","Wed Jan 29 2020 12:15:11 GMT-0600 (Central Standard Time)","Mozilla/5.0 (Windows NT 6.2; Win64; x64) AppleWebKit/537.36 (KHTML, like Gecko) Chrome/75.0.3770.100 Safari/537.36",83,"[0.9, 0.5, 0.1]","[0.8, 0.4, 0.2]","[u'blue', u'red', u'black']","[u'left', u'middle', u'right']","[0.8, 0.4, 0.2]","[u'medium', u'low', u'high']","blue",49,"left","medium","True","False",2106,3950,NA
"A29AKJXQ248KNK","Wed Jan 29 2020 12:07:35 GMT-0600 (Central Standard Time)","Wed Jan 29 2020 12:15:11 GMT-0600 (Central Standard Time)","Mozilla/5.0 (Windows NT 6.2; Win64; x64) AppleWebKit/537.36 (KHTML, like Gecko) Chrome/75.0.3770.100 Safari/537.36",84,"[0.9, 0.5, 0.1]","[0.8, 0.4, 0.2]","[u'blue', u'red', u'black']","[u'left', u'middle', u'right']","[0.8, 0.4, 0.2]","[u'medium', u'low', u'high']","blue",49,"left","medium","True","False",1858,4050,NA
"A29AKJXQ248KNK","Wed Jan 29 2020 12:07:35 GMT-0600 (Central Standard Time)","Wed Jan 29 2020 12:15:11 GMT-0600 (Central Standard Time)","Mozilla/5.0 (Windows NT 6.2; Win64; x64) AppleWebKit/537.36 (KHTML, like Gecko) Chrome/75.0.3770.100 Safari/537.36",85,"[0.9, 0.5, 0.1]","[0.8, 0.4, 0.2]","[u'blue', u'red', u'black']","[u'left', u'middle', u'right']","[0.8, 0.4, 0.2]","[u'medium', u'low', u'high']","blue",49,"left","medium","False","False",517,4000,NA
"A29AKJXQ248KNK","Wed Jan 29 2020 12:07:35 GMT-0600 (Central Standard Time)","Wed Jan 29 2020 12:15:11 GMT-0600 (Central Standard Time)","Mozilla/5.0 (Windows NT 6.2; Win64; x64) AppleWebKit/537.36 (KHTML, like Gecko) Chrome/75.0.3770.100 Safari/537.36",86,"[0.9, 0.5, 0.1]","[0.8, 0.4, 0.2]","[u'blue', u'red', u'black']","[u'left', u'middle', u'right']","[0.8, 0.4, 0.2]","[u'medium', u'low', u'high']","black",51,"right","high","True","False",626,4100,NA
"A29AKJXQ248KNK","Wed Jan 29 2020 12:07:35 GMT-0600 (Central Standard Time)","Wed Jan 29 2020 12:15:11 GMT-0600 (Central Standard Time)","Mozilla/5.0 (Windows NT 6.2; Win64; x64) AppleWebKit/537.36 (KHTML, like Gecko) Chrome/75.0.3770.100 Safari/537.36",87,"[0.9, 0.5, 0.1]","[0.8, 0.4, 0.2]","[u'blue', u'red', u'black']","[u'left', u'middle', u'right']","[0.8, 0.4, 0.2]","[u'medium', u'low', u'high']","blue",49,"left","medium","False","False",458,4050,NA
"A29AKJXQ248KNK","Wed Jan 29 2020 12:07:35 GMT-0600 (Central Standard Time)","Wed Jan 29 2020 12:15:11 GMT-0600 (Central Standard Time)","Mozilla/5.0 (Windows NT 6.2; Win64; x64) AppleWebKit/537.36 (KHTML, like Gecko) Chrome/75.0.3770.100 Safari/537.36",88,"[0.9, 0.5, 0.1]","[0.8, 0.4, 0.2]","[u'blue', u'red', u'black']","[u'left', u'middle', u'right']","[0.8, 0.4, 0.2]","[u'medium', u'low', u'high']","blue",49,"left","medium","True","False",288,4150,NA
"A29AKJXQ248KNK","Wed Jan 29 2020 12:07:35 GMT-0600 (Central Standard Time)","Wed Jan 29 2020 12:15:11 GMT-0600 (Central Standard Time)","Mozilla/5.0 (Windows NT 6.2; Win64; x64) AppleWebKit/537.36 (KHTML, like Gecko) Chrome/75.0.3770.100 Safari/537.36",89,"[0.9, 0.5, 0.1]","[0.8, 0.4, 0.2]","[u'blue', u'red', u'black']","[u'left', u'middle', u'right']","[0.8, 0.4, 0.2]","[u'medium', u'low', u'high']","blue",49,"left","medium","False","False",864,4100,NA
"A29AKJXQ248KNK","Wed Jan 29 2020 12:07:35 GMT-0600 (Central Standard Time)","Wed Jan 29 2020 12:15:11 GMT-0600 (Central Standard Time)","Mozilla/5.0 (Windows NT 6.2; Win64; x64) AppleWebKit/537.36 (KHTML, like Gecko) Chrome/75.0.3770.100 Safari/537.36",90,"[0.9, 0.5, 0.1]","[0.8, 0.4, 0.2]","[u'blue', u'red', u'black']","[u'left', u'middle', u'right']","[0.8, 0.4, 0.2]","[u'medium', u'low', u'high']","blue",49,"left","medium","True","False",279,4200,NA
"A29AKJXQ248KNK","Wed Jan 29 2020 12:07:35 GMT-0600 (Central Standard Time)","Wed Jan 29 2020 12:15:11 GMT-0600 (Central Standard Time)","Mozilla/5.0 (Windows NT 6.2; Win64; x64) AppleWebKit/537.36 (KHTML, like Gecko) Chrome/75.0.3770.100 Safari/537.36",91,"[0.9, 0.5, 0.1]","[0.8, 0.4, 0.2]","[u'blue', u'red', u'black']","[u'left', u'middle', u'right']","[0.8, 0.4, 0.2]","[u'medium', u'low', u'high']","blue",49,"left","medium","False","False",1229,4150,NA
"A29AKJXQ248KNK","Wed Jan 29 2020 12:07:35 GMT-0600 (Central Standard Time)","Wed Jan 29 2020 12:15:11 GMT-0600 (Central Standard Time)","Mozilla/5.0 (Windows NT 6.2; Win64; x64) AppleWebKit/537.36 (KHTML, like Gecko) Chrome/75.0.3770.100 Safari/537.36",92,"[0.9, 0.5, 0.1]","[0.8, 0.4, 0.2]","[u'blue', u'red', u'black']","[u'left', u'middle', u'right']","[0.8, 0.4, 0.2]","[u'medium', u'low', u'high']","blue",49,"left","medium","False","False",682,4100,NA
"A29AKJXQ248KNK","Wed Jan 29 2020 12:07:35 GMT-0600 (Central Standard Time)","Wed Jan 29 2020 12:15:11 GMT-0600 (Central Standard Time)","Mozilla/5.0 (Windows NT 6.2; Win64; x64) AppleWebKit/537.36 (KHTML, like Gecko) Chrome/75.0.3770.100 Safari/537.36",93,"[0.9, 0.5, 0.1]","[0.8, 0.4, 0.2]","[u'blue', u'red', u'black']","[u'left', u'middle', u'right']","[0.8, 0.4, 0.2]","[u'medium', u'low', u'high']","blue",49,"left","medium","False","False",199,4050,NA
"A29AKJXQ248KNK","Wed Jan 29 2020 12:07:35 GMT-0600 (Central Standard Time)","Wed Jan 29 2020 12:15:11 GMT-0600 (Central Standard Time)","Mozilla/5.0 (Windows NT 6.2; Win64; x64) AppleWebKit/537.36 (KHTML, like Gecko) Chrome/75.0.3770.100 Safari/537.36",94,"[0.9, 0.5, 0.1]","[0.8, 0.4, 0.2]","[u'blue', u'red', u'black']","[u'left', u'middle', u'right']","[0.8, 0.4, 0.2]","[u'medium', u'low', u'high']","blue",49,"left","medium","False","False",718,4000,NA
"A29AKJXQ248KNK","Wed Jan 29 2020 12:07:35 GMT-0600 (Central Standard Time)","Wed Jan 29 2020 12:15:11 GMT-0600 (Central Standard Time)","Mozilla/5.0 (Windows NT 6.2; Win64; x64) AppleWebKit/537.36 (KHTML, like Gecko) Chrome/75.0.3770.100 Safari/537.36",95,"[0.9, 0.5, 0.1]","[0.8, 0.4, 0.2]","[u'blue', u'red', u'black']","[u'left', u'middle', u'right']","[0.8, 0.4, 0.2]","[u'medium', u'low', u'high']","blue",49,"left","medium","False","False",616,3950,NA
"A29AKJXQ248KNK","Wed Jan 29 2020 12:07:35 GMT-0600 (Central Standard Time)","Wed Jan 29 2020 12:15:11 GMT-0600 (Central Standard Time)","Mozilla/5.0 (Windows NT 6.2; Win64; x64) AppleWebKit/537.36 (KHTML, like Gecko) Chrome/75.0.3770.100 Safari/537.36",96,"[0.9, 0.5, 0.1]","[0.8, 0.4, 0.2]","[u'blue', u'red', u'black']","[u'left', u'middle', u'right']","[0.8, 0.4, 0.2]","[u'medium', u'low', u'high']","black",51,"right","high","True","False",846,4050,NA
"A29AKJXQ248KNK","Wed Jan 29 2020 12:07:35 GMT-0600 (Central Standard Time)","Wed Jan 29 2020 12:15:11 GMT-0600 (Central Standard Time)","Mozilla/5.0 (Windows NT 6.2; Win64; x64) AppleWebKit/537.36 (KHTML, like Gecko) Chrome/75.0.3770.100 Safari/537.36",97,"[0.9, 0.5, 0.1]","[0.8, 0.4, 0.2]","[u'blue', u'red', u'black']","[u'left', u'middle', u'right']","[0.8, 0.4, 0.2]","[u'medium', u'low', u'high']","blue",49,"left","medium","False","False",280,4000,NA
"A29AKJXQ248KNK","Wed Jan 29 2020 12:07:35 GMT-0600 (Central Standard Time)","Wed Jan 29 2020 12:15:11 GMT-0600 (Central Standard Time)","Mozilla/5.0 (Windows NT 6.2; Win64; x64) AppleWebKit/537.36 (KHTML, like Gecko) Chrome/75.0.3770.100 Safari/537.36",98,"[0.9, 0.5, 0.1]","[0.8, 0.4, 0.2]","[u'blue', u'red', u'black']","[u'left', u'middle', u'right']","[0.8, 0.4, 0.2]","[u'medium', u'low', u'high']","blue",49,"left","medium","False","False",182,3950,NA
"A29AKJXQ248KNK","Wed Jan 29 2020 12:07:35 GMT-0600 (Central Standard Time)","Wed Jan 29 2020 12:15:11 GMT-0600 (Central Standard Time)","Mozilla/5.0 (Windows NT 6.2; Win64; x64) AppleWebKit/537.36 (KHTML, like Gecko) Chrome/75.0.3770.100 Safari/537.36",99,"[0.9, 0.5, 0.1]","[0.8, 0.4, 0.2]","[u'blue', u'red', u'black']","[u'left', u'middle', u'right']","[0.8, 0.4, 0.2]","[u'medium', u'low', u'high']","blue",49,"left","medium","False","False",477,3900,NA
"A29AKJXQ248KNK","Wed Jan 29 2020 12:07:35 GMT-0600 (Central Standard Time)","Wed Jan 29 2020 12:15:11 GMT-0600 (Central Standard Time)","Mozilla/5.0 (Windows NT 6.2; Win64; x64) AppleWebKit/537.36 (KHTML, like Gecko) Chrome/75.0.3770.100 Safari/537.36",100,"[0.9, 0.5, 0.1]","[0.8, 0.4, 0.2]","[u'blue', u'red', u'black']","[u'left', u'middle', u'right']","[0.8, 0.4, 0.2]","[u'medium', u'low', u'high']","blue",49,"left","medium","False","False",235,3850,NA
"A29AKJXQ248KNK","Wed Jan 29 2020 12:07:35 GMT-0600 (Central Standard Time)","Wed Jan 29 2020 12:15:11 GMT-0600 (Central Standard Time)","Mozilla/5.0 (Windows NT 6.2; Win64; x64) AppleWebKit/537.36 (KHTML, like Gecko) Chrome/75.0.3770.100 Safari/537.36",101,"[0.9, 0.5, 0.1]","[0.8, 0.4, 0.2]","[u'blue', u'red', u'black']","[u'left', u'middle', u'right']","[0.8, 0.4, 0.2]","[u'medium', u'low', u'high']","blue",49,"left","medium","False","False",291,3800,NA
"A29AKJXQ248KNK","Wed Jan 29 2020 12:07:35 GMT-0600 (Central Standard Time)","Wed Jan 29 2020 12:15:11 GMT-0600 (Central Standard Time)","Mozilla/5.0 (Windows NT 6.2; Win64; x64) AppleWebKit/537.36 (KHTML, like Gecko) Chrome/75.0.3770.100 Safari/537.36",102,"[0.9, 0.5, 0.1]","[0.8, 0.4, 0.2]","[u'blue', u'red', u'black']","[u'left', u'middle', u'right']","[0.8, 0.4, 0.2]","[u'medium', u'low', u'high']","blue",49,"left","medium","True","False",1603,3900,NA
"A29AKJXQ248KNK","Wed Jan 29 2020 12:07:35 GMT-0600 (Central Standard Time)","Wed Jan 29 2020 12:15:11 GMT-0600 (Central Standard Time)","Mozilla/5.0 (Windows NT 6.2; Win64; x64) AppleWebKit/537.36 (KHTML, like Gecko) Chrome/75.0.3770.100 Safari/537.36",103,"[0.9, 0.5, 0.1]","[0.8, 0.4, 0.2]","[u'blue', u'red', u'black']","[u'left', u'middle', u'right']","[0.8, 0.4, 0.2]","[u'medium', u'low', u'high']","blue",49,"left","medium","True","False",83,4000,NA
"A29AKJXQ248KNK","Wed Jan 29 2020 12:07:35 GMT-0600 (Central Standard Time)","Wed Jan 29 2020 12:15:11 GMT-0600 (Central Standard Time)","Mozilla/5.0 (Windows NT 6.2; Win64; x64) AppleWebKit/537.36 (KHTML, like Gecko) Chrome/75.0.3770.100 Safari/537.36",104,"[0.9, 0.5, 0.1]","[0.8, 0.4, 0.2]","[u'blue', u'red', u'black']","[u'left', u'middle', u'right']","[0.8, 0.4, 0.2]","[u'medium', u'low', u'high']","black",51,"right","high","True","False",1073,4100,NA
"A29AKJXQ248KNK","Wed Jan 29 2020 12:07:35 GMT-0600 (Central Standard Time)","Wed Jan 29 2020 12:15:11 GMT-0600 (Central Standard Time)","Mozilla/5.0 (Windows NT 6.2; Win64; x64) AppleWebKit/537.36 (KHTML, like Gecko) Chrome/75.0.3770.100 Safari/537.36",105,"[0.9, 0.5, 0.1]","[0.8, 0.4, 0.2]","[u'blue', u'red', u'black']","[u'left', u'middle', u'right']","[0.8, 0.4, 0.2]","[u'medium', u'low', u'high']","red",50,"middle","low","False","False",937,4050,NA
"A29AKJXQ248KNK","Wed Jan 29 2020 12:07:35 GMT-0600 (Central Standard Time)","Wed Jan 29 2020 12:15:11 GMT-0600 (Central Standard Time)","Mozilla/5.0 (Windows NT 6.2; Win64; x64) AppleWebKit/537.36 (KHTML, like Gecko) Chrome/75.0.3770.100 Safari/537.36",106,"[0.9, 0.5, 0.1]","[0.8, 0.4, 0.2]","[u'blue', u'red', u'black']","[u'left', u'middle', u'right']","[0.8, 0.4, 0.2]","[u'medium', u'low', u'high']","blue",49,"left","medium","False","False",1829,4000,NA
"A29AKJXQ248KNK","Wed Jan 29 2020 12:07:35 GMT-0600 (Central Standard Time)","Wed Jan 29 2020 12:15:11 GMT-0600 (Central Standard Time)","Mozilla/5.0 (Windows NT 6.2; Win64; x64) AppleWebKit/537.36 (KHTML, like Gecko) Chrome/75.0.3770.100 Safari/537.36",107,"[0.9, 0.5, 0.1]","[0.8, 0.4, 0.2]","[u'blue', u'red', u'black']","[u'left', u'middle', u'right']","[0.8, 0.4, 0.2]","[u'medium', u'low', u'high']","blue",49,"left","medium","False","False",3099,3950,NA
"A29AKJXQ248KNK","Wed Jan 29 2020 12:07:35 GMT-0600 (Central Standard Time)","Wed Jan 29 2020 12:15:11 GMT-0600 (Central Standard Time)","Mozilla/5.0 (Windows NT 6.2; Win64; x64) AppleWebKit/537.36 (KHTML, like Gecko) Chrome/75.0.3770.100 Safari/537.36",108,"[0.9, 0.5, 0.1]","[0.8, 0.4, 0.2]","[u'blue', u'red', u'black']","[u'left', u'middle', u'right']","[0.8, 0.4, 0.2]","[u'medium', u'low', u'high']","blue",49,"left","medium","False","False",1552,3900,NA
"A29AKJXQ248KNK","Wed Jan 29 2020 12:07:35 GMT-0600 (Central Standard Time)","Wed Jan 29 2020 12:15:11 GMT-0600 (Central Standard Time)","Mozilla/5.0 (Windows NT 6.2; Win64; x64) AppleWebKit/537.36 (KHTML, like Gecko) Chrome/75.0.3770.100 Safari/537.36",109,"[0.9, 0.5, 0.1]","[0.8, 0.4, 0.2]","[u'blue', u'red', u'black']","[u'left', u'middle', u'right']","[0.8, 0.4, 0.2]","[u'medium', u'low', u'high']","blue",49,"left","medium","False","False",1748,3850,NA
"A29AKJXQ248KNK","Wed Jan 29 2020 12:07:35 GMT-0600 (Central Standard Time)","Wed Jan 29 2020 12:15:11 GMT-0600 (Central Standard Time)","Mozilla/5.0 (Windows NT 6.2; Win64; x64) AppleWebKit/537.36 (KHTML, like Gecko) Chrome/75.0.3770.100 Safari/537.36",110,"[0.9, 0.5, 0.1]","[0.8, 0.4, 0.2]","[u'blue', u'red', u'black']","[u'left', u'middle', u'right']","[0.8, 0.4, 0.2]","[u'medium', u'low', u'high']","black",51,"right","high","True","False",463,3950,NA
"A29AKJXQ248KNK","Wed Jan 29 2020 12:07:35 GMT-0600 (Central Standard Time)","Wed Jan 29 2020 12:15:11 GMT-0600 (Central Standard Time)","Mozilla/5.0 (Windows NT 6.2; Win64; x64) AppleWebKit/537.36 (KHTML, like Gecko) Chrome/75.0.3770.100 Safari/537.36",111,"[0.9, 0.5, 0.1]","[0.8, 0.4, 0.2]","[u'blue', u'red', u'black']","[u'left', u'middle', u'right']","[0.8, 0.4, 0.2]","[u'medium', u'low', u'high']","black",51,"right","high","True","False",881,4050,NA
"A29AKJXQ248KNK","Wed Jan 29 2020 12:07:35 GMT-0600 (Central Standard Time)","Wed Jan 29 2020 12:15:11 GMT-0600 (Central Standard Time)","Mozilla/5.0 (Windows NT 6.2; Win64; x64) AppleWebKit/537.36 (KHTML, like Gecko) Chrome/75.0.3770.100 Safari/537.36",112,"[0.9, 0.5, 0.1]","[0.8, 0.4, 0.2]","[u'blue', u'red', u'black']","[u'left', u'middle', u'right']","[0.8, 0.4, 0.2]","[u'medium', u'low', u'high']","blue",49,"left","medium","True","False",124,4150,NA
"A29AKJXQ248KNK","Wed Jan 29 2020 12:07:35 GMT-0600 (Central Standard Time)","Wed Jan 29 2020 12:15:11 GMT-0600 (Central Standard Time)","Mozilla/5.0 (Windows NT 6.2; Win64; x64) AppleWebKit/537.36 (KHTML, like Gecko) Chrome/75.0.3770.100 Safari/537.36",113,"[0.9, 0.5, 0.1]","[0.8, 0.4, 0.2]","[u'blue', u'red', u'black']","[u'left', u'middle', u'right']","[0.8, 0.4, 0.2]","[u'medium', u'low', u'high']","blue",49,"left","medium","False","False",2266,4100,NA
"A29AKJXQ248KNK","Wed Jan 29 2020 12:07:35 GMT-0600 (Central Standard Time)","Wed Jan 29 2020 12:15:11 GMT-0600 (Central Standard Time)","Mozilla/5.0 (Windows NT 6.2; Win64; x64) AppleWebKit/537.36 (KHTML, like Gecko) Chrome/75.0.3770.100 Safari/537.36",114,"[0.9, 0.5, 0.1]","[0.8, 0.4, 0.2]","[u'blue', u'red', u'black']","[u'left', u'middle', u'right']","[0.8, 0.4, 0.2]","[u'medium', u'low', u'high']","black",51,"right","high","True","False",287,4200,NA
"A29AKJXQ248KNK","Wed Jan 29 2020 12:07:35 GMT-0600 (Central Standard Time)","Wed Jan 29 2020 12:15:11 GMT-0600 (Central Standard Time)","Mozilla/5.0 (Windows NT 6.2; Win64; x64) AppleWebKit/537.36 (KHTML, like Gecko) Chrome/75.0.3770.100 Safari/537.36",115,"[0.9, 0.5, 0.1]","[0.8, 0.4, 0.2]","[u'blue', u'red', u'black']","[u'left', u'middle', u'right']","[0.8, 0.4, 0.2]","[u'medium', u'low', u'high']","blue",49,"left","medium","False","False",301,4150,NA
"A29AKJXQ248KNK","Wed Jan 29 2020 12:07:35 GMT-0600 (Central Standard Time)","Wed Jan 29 2020 12:15:11 GMT-0600 (Central Standard Time)","Mozilla/5.0 (Windows NT 6.2; Win64; x64) AppleWebKit/537.36 (KHTML, like Gecko) Chrome/75.0.3770.100 Safari/537.36",116,"[0.9, 0.5, 0.1]","[0.8, 0.4, 0.2]","[u'blue', u'red', u'black']","[u'left', u'middle', u'right']","[0.8, 0.4, 0.2]","[u'medium', u'low', u'high']","blue",49,"left","medium","False","False",920,4100,NA
"A29AKJXQ248KNK","Wed Jan 29 2020 12:07:35 GMT-0600 (Central Standard Time)","Wed Jan 29 2020 12:15:11 GMT-0600 (Central Standard Time)","Mozilla/5.0 (Windows NT 6.2; Win64; x64) AppleWebKit/537.36 (KHTML, like Gecko) Chrome/75.0.3770.100 Safari/537.36",117,"[0.9, 0.5, 0.1]","[0.8, 0.4, 0.2]","[u'blue', u'red', u'black']","[u'left', u'middle', u'right']","[0.8, 0.4, 0.2]","[u'medium', u'low', u'high']","black",51,"right","high","True","False",453,4200,NA
"A29AKJXQ248KNK","Wed Jan 29 2020 12:07:35 GMT-0600 (Central Standard Time)","Wed Jan 29 2020 12:15:11 GMT-0600 (Central Standard Time)","Mozilla/5.0 (Windows NT 6.2; Win64; x64) AppleWebKit/537.36 (KHTML, like Gecko) Chrome/75.0.3770.100 Safari/537.36",118,"[0.9, 0.5, 0.1]","[0.8, 0.4, 0.2]","[u'blue', u'red', u'black']","[u'left', u'middle', u'right']","[0.8, 0.4, 0.2]","[u'medium', u'low', u'high']","blue",49,"left","medium","False","False",1084,4150,NA
"A29AKJXQ248KNK","Wed Jan 29 2020 12:07:35 GMT-0600 (Central Standard Time)","Wed Jan 29 2020 12:15:11 GMT-0600 (Central Standard Time)","Mozilla/5.0 (Windows NT 6.2; Win64; x64) AppleWebKit/537.36 (KHTML, like Gecko) Chrome/75.0.3770.100 Safari/537.36",119,"[0.9, 0.5, 0.1]","[0.8, 0.4, 0.2]","[u'blue', u'red', u'black']","[u'left', u'middle', u'right']","[0.8, 0.4, 0.2]","[u'medium', u'low', u'high']","blue",49,"left","medium","False","False",635,4100,NA
"A29AKJXQ248KNK","Wed Jan 29 2020 12:07:35 GMT-0600 (Central Standard Time)","Wed Jan 29 2020 12:15:11 GMT-0600 (Central Standard Time)","Mozilla/5.0 (Windows NT 6.2; Win64; x64) AppleWebKit/537.36 (KHTML, like Gecko) Chrome/75.0.3770.100 Safari/537.36",120,"[0.9, 0.5, 0.1]","[0.8, 0.4, 0.2]","[u'blue', u'red', u'black']","[u'left', u'middle', u'right']","[0.8, 0.4, 0.2]","[u'medium', u'low', u'high']","blue",49,"left","medium","True","False",538,4200,NA
"A29AKJXQ248KNK","Wed Jan 29 2020 12:07:35 GMT-0600 (Central Standard Time)","Wed Jan 29 2020 12:15:11 GMT-0600 (Central Standard Time)","Mozilla/5.0 (Windows NT 6.2; Win64; x64) AppleWebKit/537.36 (KHTML, like Gecko) Chrome/75.0.3770.100 Safari/537.36",121,"[0.9, 0.5, 0.1]","[0.8, 0.4, 0.2]","[u'blue', u'red', u'black']","[u'left', u'middle', u'right']","[0.8, 0.4, 0.2]","[u'low', u'high', u'medium']","black",51,"right","medium","False","False",437,4150,NA
"A29AKJXQ248KNK","Wed Jan 29 2020 12:07:35 GMT-0600 (Central Standard Time)","Wed Jan 29 2020 12:15:11 GMT-0600 (Central Standard Time)","Mozilla/5.0 (Windows NT 6.2; Win64; x64) AppleWebKit/537.36 (KHTML, like Gecko) Chrome/75.0.3770.100 Safari/537.36",122,"[0.9, 0.5, 0.1]","[0.8, 0.4, 0.2]","[u'blue', u'red', u'black']","[u'left', u'middle', u'right']","[0.8, 0.4, 0.2]","[u'low', u'high', u'medium']","blue",49,"left","low","False","False",364,4100,NA
"A29AKJXQ248KNK","Wed Jan 29 2020 12:07:35 GMT-0600 (Central Standard Time)","Wed Jan 29 2020 12:15:11 GMT-0600 (Central Standard Time)","Mozilla/5.0 (Windows NT 6.2; Win64; x64) AppleWebKit/537.36 (KHTML, like Gecko) Chrome/75.0.3770.100 Safari/537.36",123,"[0.9, 0.5, 0.1]","[0.8, 0.4, 0.2]","[u'blue', u'red', u'black']","[u'left', u'middle', u'right']","[0.8, 0.4, 0.2]","[u'low', u'high', u'medium']","black",51,"right","medium","True","False",270,4200,NA
"A29AKJXQ248KNK","Wed Jan 29 2020 12:07:35 GMT-0600 (Central Standard Time)","Wed Jan 29 2020 12:15:11 GMT-0600 (Central Standard Time)","Mozilla/5.0 (Windows NT 6.2; Win64; x64) AppleWebKit/537.36 (KHTML, like Gecko) Chrome/75.0.3770.100 Safari/537.36",124,"[0.9, 0.5, 0.1]","[0.8, 0.4, 0.2]","[u'blue', u'red', u'black']","[u'left', u'middle', u'right']","[0.8, 0.4, 0.2]","[u'low', u'high', u'medium']","black",51,"right","medium","False","False",406,4150,NA
"A29AKJXQ248KNK","Wed Jan 29 2020 12:07:35 GMT-0600 (Central Standard Time)","Wed Jan 29 2020 12:15:11 GMT-0600 (Central Standard Time)","Mozilla/5.0 (Windows NT 6.2; Win64; x64) AppleWebKit/537.36 (KHTML, like Gecko) Chrome/75.0.3770.100 Safari/537.36",125,"[0.9, 0.5, 0.1]","[0.8, 0.4, 0.2]","[u'blue', u'red', u'black']","[u'left', u'middle', u'right']","[0.8, 0.4, 0.2]","[u'low', u'high', u'medium']","black",51,"right","medium","False","False",291,4100,NA
"A29AKJXQ248KNK","Wed Jan 29 2020 12:07:35 GMT-0600 (Central Standard Time)","Wed Jan 29 2020 12:15:11 GMT-0600 (Central Standard Time)","Mozilla/5.0 (Windows NT 6.2; Win64; x64) AppleWebKit/537.36 (KHTML, like Gecko) Chrome/75.0.3770.100 Safari/537.36",126,"[0.9, 0.5, 0.1]","[0.8, 0.4, 0.2]","[u'blue', u'red', u'black']","[u'left', u'middle', u'right']","[0.8, 0.4, 0.2]","[u'low', u'high', u'medium']","blue",49,"left","low","False","False",371,4050,NA
"A29AKJXQ248KNK","Wed Jan 29 2020 12:07:35 GMT-0600 (Central Standard Time)","Wed Jan 29 2020 12:15:11 GMT-0600 (Central Standard Time)","Mozilla/5.0 (Windows NT 6.2; Win64; x64) AppleWebKit/537.36 (KHTML, like Gecko) Chrome/75.0.3770.100 Safari/537.36",127,"[0.9, 0.5, 0.1]","[0.8, 0.4, 0.2]","[u'blue', u'red', u'black']","[u'left', u'middle', u'right']","[0.8, 0.4, 0.2]","[u'low', u'high', u'medium']","black",51,"right","medium","False","False",347,4000,NA
"A29AKJXQ248KNK","Wed Jan 29 2020 12:07:35 GMT-0600 (Central Standard Time)","Wed Jan 29 2020 12:15:11 GMT-0600 (Central Standard Time)","Mozilla/5.0 (Windows NT 6.2; Win64; x64) AppleWebKit/537.36 (KHTML, like Gecko) Chrome/75.0.3770.100 Safari/537.36",128,"[0.9, 0.5, 0.1]","[0.8, 0.4, 0.2]","[u'blue', u'red', u'black']","[u'left', u'middle', u'right']","[0.8, 0.4, 0.2]","[u'low', u'high', u'medium']","red",50,"middle","high","True","False",221,4100,NA
"A29AKJXQ248KNK","Wed Jan 29 2020 12:07:35 GMT-0600 (Central Standard Time)","Wed Jan 29 2020 12:15:11 GMT-0600 (Central Standard Time)","Mozilla/5.0 (Windows NT 6.2; Win64; x64) AppleWebKit/537.36 (KHTML, like Gecko) Chrome/75.0.3770.100 Safari/537.36",129,"[0.9, 0.5, 0.1]","[0.8, 0.4, 0.2]","[u'blue', u'red', u'black']","[u'left', u'middle', u'right']","[0.8, 0.4, 0.2]","[u'low', u'high', u'medium']","red",50,"middle","high","True","False",93,4200,NA
"A29AKJXQ248KNK","Wed Jan 29 2020 12:07:35 GMT-0600 (Central Standard Time)","Wed Jan 29 2020 12:15:11 GMT-0600 (Central Standard Time)","Mozilla/5.0 (Windows NT 6.2; Win64; x64) AppleWebKit/537.36 (KHTML, like Gecko) Chrome/75.0.3770.100 Safari/537.36",130,"[0.9, 0.5, 0.1]","[0.8, 0.4, 0.2]","[u'blue', u'red', u'black']","[u'left', u'middle', u'right']","[0.8, 0.4, 0.2]","[u'low', u'high', u'medium']","red",50,"middle","high","True","False",238,4300,NA
"A29AKJXQ248KNK","Wed Jan 29 2020 12:07:35 GMT-0600 (Central Standard Time)","Wed Jan 29 2020 12:15:11 GMT-0600 (Central Standard Time)","Mozilla/5.0 (Windows NT 6.2; Win64; x64) AppleWebKit/537.36 (KHTML, like Gecko) Chrome/75.0.3770.100 Safari/537.36",131,"[0.9, 0.5, 0.1]","[0.8, 0.4, 0.2]","[u'blue', u'red', u'black']","[u'left', u'middle', u'right']","[0.8, 0.4, 0.2]","[u'low', u'high', u'medium']","blue",49,"left","low","False","False",216,4250,NA
"A29AKJXQ248KNK","Wed Jan 29 2020 12:07:35 GMT-0600 (Central Standard Time)","Wed Jan 29 2020 12:15:11 GMT-0600 (Central Standard Time)","Mozilla/5.0 (Windows NT 6.2; Win64; x64) AppleWebKit/537.36 (KHTML, like Gecko) Chrome/75.0.3770.100 Safari/537.36",132,"[0.9, 0.5, 0.1]","[0.8, 0.4, 0.2]","[u'blue', u'red', u'black']","[u'left', u'middle', u'right']","[0.8, 0.4, 0.2]","[u'low', u'high', u'medium']","red",50,"middle","high","True","False",956,4350,NA
"A29AKJXQ248KNK","Wed Jan 29 2020 12:07:35 GMT-0600 (Central Standard Time)","Wed Jan 29 2020 12:15:11 GMT-0600 (Central Standard Time)","Mozilla/5.0 (Windows NT 6.2; Win64; x64) AppleWebKit/537.36 (KHTML, like Gecko) Chrome/75.0.3770.100 Safari/537.36",133,"[0.9, 0.5, 0.1]","[0.8, 0.4, 0.2]","[u'blue', u'red', u'black']","[u'left', u'middle', u'right']","[0.8, 0.4, 0.2]","[u'low', u'high', u'medium']","black",51,"right","medium","False","False",364,4300,NA
"A29AKJXQ248KNK","Wed Jan 29 2020 12:07:35 GMT-0600 (Central Standard Time)","Wed Jan 29 2020 12:15:11 GMT-0600 (Central Standard Time)","Mozilla/5.0 (Windows NT 6.2; Win64; x64) AppleWebKit/537.36 (KHTML, like Gecko) Chrome/75.0.3770.100 Safari/537.36",134,"[0.9, 0.5, 0.1]","[0.8, 0.4, 0.2]","[u'blue', u'red', u'black']","[u'left', u'middle', u'right']","[0.8, 0.4, 0.2]","[u'low', u'high', u'medium']","red",50,"middle","high","True","False",264,4400,NA
"A29AKJXQ248KNK","Wed Jan 29 2020 12:07:35 GMT-0600 (Central Standard Time)","Wed Jan 29 2020 12:15:11 GMT-0600 (Central Standard Time)","Mozilla/5.0 (Windows NT 6.2; Win64; x64) AppleWebKit/537.36 (KHTML, like Gecko) Chrome/75.0.3770.100 Safari/537.36",135,"[0.9, 0.5, 0.1]","[0.8, 0.4, 0.2]","[u'blue', u'red', u'black']","[u'left', u'middle', u'right']","[0.8, 0.4, 0.2]","[u'low', u'high', u'medium']","blue",49,"left","low","False","False",330,4350,NA
"A29AKJXQ248KNK","Wed Jan 29 2020 12:07:35 GMT-0600 (Central Standard Time)","Wed Jan 29 2020 12:15:11 GMT-0600 (Central Standard Time)","Mozilla/5.0 (Windows NT 6.2; Win64; x64) AppleWebKit/537.36 (KHTML, like Gecko) Chrome/75.0.3770.100 Safari/537.36",136,"[0.9, 0.5, 0.1]","[0.8, 0.4, 0.2]","[u'blue', u'red', u'black']","[u'left', u'middle', u'right']","[0.8, 0.4, 0.2]","[u'low', u'high', u'medium']","red",50,"middle","high","True","False",809,4450,NA
"A29AKJXQ248KNK","Wed Jan 29 2020 12:07:35 GMT-0600 (Central Standard Time)","Wed Jan 29 2020 12:15:11 GMT-0600 (Central Standard Time)","Mozilla/5.0 (Windows NT 6.2; Win64; x64) AppleWebKit/537.36 (KHTML, like Gecko) Chrome/75.0.3770.100 Safari/537.36",137,"[0.9, 0.5, 0.1]","[0.8, 0.4, 0.2]","[u'blue', u'red', u'black']","[u'left', u'middle', u'right']","[0.8, 0.4, 0.2]","[u'low', u'high', u'medium']","red",50,"middle","high","True","False",973,4550,NA
"A29AKJXQ248KNK","Wed Jan 29 2020 12:07:35 GMT-0600 (Central Standard Time)","Wed Jan 29 2020 12:15:11 GMT-0600 (Central Standard Time)","Mozilla/5.0 (Windows NT 6.2; Win64; x64) AppleWebKit/537.36 (KHTML, like Gecko) Chrome/75.0.3770.100 Safari/537.36",138,"[0.9, 0.5, 0.1]","[0.8, 0.4, 0.2]","[u'blue', u'red', u'black']","[u'left', u'middle', u'right']","[0.8, 0.4, 0.2]","[u'low', u'high', u'medium']","blue",49,"left","low","False","False",157,4500,NA
"A29AKJXQ248KNK","Wed Jan 29 2020 12:07:35 GMT-0600 (Central Standard Time)","Wed Jan 29 2020 12:15:11 GMT-0600 (Central Standard Time)","Mozilla/5.0 (Windows NT 6.2; Win64; x64) AppleWebKit/537.36 (KHTML, like Gecko) Chrome/75.0.3770.100 Safari/537.36",139,"[0.9, 0.5, 0.1]","[0.8, 0.4, 0.2]","[u'blue', u'red', u'black']","[u'left', u'middle', u'right']","[0.8, 0.4, 0.2]","[u'low', u'high', u'medium']","red",50,"middle","high","False","False",1024,4450,NA
"A29AKJXQ248KNK","Wed Jan 29 2020 12:07:35 GMT-0600 (Central Standard Time)","Wed Jan 29 2020 12:15:11 GMT-0600 (Central Standard Time)","Mozilla/5.0 (Windows NT 6.2; Win64; x64) AppleWebKit/537.36 (KHTML, like Gecko) Chrome/75.0.3770.100 Safari/537.36",140,"[0.9, 0.5, 0.1]","[0.8, 0.4, 0.2]","[u'blue', u'red', u'black']","[u'left', u'middle', u'right']","[0.8, 0.4, 0.2]","[u'low', u'high', u'medium']","blue",49,"left","low","True","False",1232,4550,NA
"A29AKJXQ248KNK","Wed Jan 29 2020 12:07:35 GMT-0600 (Central Standard Time)","Wed Jan 29 2020 12:15:11 GMT-0600 (Central Standard Time)","Mozilla/5.0 (Windows NT 6.2; Win64; x64) AppleWebKit/537.36 (KHTML, like Gecko) Chrome/75.0.3770.100 Safari/537.36",141,"[0.9, 0.5, 0.1]","[0.8, 0.4, 0.2]","[u'blue', u'red', u'black']","[u'left', u'middle', u'right']","[0.8, 0.4, 0.2]","[u'low', u'high', u'medium']","black",51,"right","medium","False","False",127,4500,NA
"A29AKJXQ248KNK","Wed Jan 29 2020 12:07:35 GMT-0600 (Central Standard Time)","Wed Jan 29 2020 12:15:11 GMT-0600 (Central Standard Time)","Mozilla/5.0 (Windows NT 6.2; Win64; x64) AppleWebKit/537.36 (KHTML, like Gecko) Chrome/75.0.3770.100 Safari/537.36",142,"[0.9, 0.5, 0.1]","[0.8, 0.4, 0.2]","[u'blue', u'red', u'black']","[u'left', u'middle', u'right']","[0.8, 0.4, 0.2]","[u'low', u'high', u'medium']","blue",49,"left","low","False","False",955,4450,NA
"A29AKJXQ248KNK","Wed Jan 29 2020 12:07:35 GMT-0600 (Central Standard Time)","Wed Jan 29 2020 12:15:11 GMT-0600 (Central Standard Time)","Mozilla/5.0 (Windows NT 6.2; Win64; x64) AppleWebKit/537.36 (KHTML, like Gecko) Chrome/75.0.3770.100 Safari/537.36",143,"[0.9, 0.5, 0.1]","[0.8, 0.4, 0.2]","[u'blue', u'red', u'black']","[u'left', u'middle', u'right']","[0.8, 0.4, 0.2]","[u'low', u'high', u'medium']","blue",49,"left","low","False","False",588,4400,NA
"A29AKJXQ248KNK","Wed Jan 29 2020 12:07:35 GMT-0600 (Central Standard Time)","Wed Jan 29 2020 12:15:11 GMT-0600 (Central Standard Time)","Mozilla/5.0 (Windows NT 6.2; Win64; x64) AppleWebKit/537.36 (KHTML, like Gecko) Chrome/75.0.3770.100 Safari/537.36",144,"[0.9, 0.5, 0.1]","[0.8, 0.4, 0.2]","[u'blue', u'red', u'black']","[u'left', u'middle', u'right']","[0.8, 0.4, 0.2]","[u'low', u'high', u'medium']","blue",49,"left","low","False","False",797,4350,NA
"A29AKJXQ248KNK","Wed Jan 29 2020 12:07:35 GMT-0600 (Central Standard Time)","Wed Jan 29 2020 12:15:11 GMT-0600 (Central Standard Time)","Mozilla/5.0 (Windows NT 6.2; Win64; x64) AppleWebKit/537.36 (KHTML, like Gecko) Chrome/75.0.3770.100 Safari/537.36",145,"[0.9, 0.5, 0.1]","[0.8, 0.4, 0.2]","[u'blue', u'red', u'black']","[u'left', u'middle', u'right']","[0.8, 0.4, 0.2]","[u'low', u'high', u'medium']","red",50,"middle","high","False","False",231,4300,NA
"A29AKJXQ248KNK","Wed Jan 29 2020 12:07:35 GMT-0600 (Central Standard Time)","Wed Jan 29 2020 12:15:11 GMT-0600 (Central Standard Time)","Mozilla/5.0 (Windows NT 6.2; Win64; x64) AppleWebKit/537.36 (KHTML, like Gecko) Chrome/75.0.3770.100 Safari/537.36",146,"[0.9, 0.5, 0.1]","[0.8, 0.4, 0.2]","[u'blue', u'red', u'black']","[u'left', u'middle', u'right']","[0.8, 0.4, 0.2]","[u'low', u'high', u'medium']","black",51,"right","medium","False","False",221,4250,NA
"A29AKJXQ248KNK","Wed Jan 29 2020 12:07:35 GMT-0600 (Central Standard Time)","Wed Jan 29 2020 12:15:11 GMT-0600 (Central Standard Time)","Mozilla/5.0 (Windows NT 6.2; Win64; x64) AppleWebKit/537.36 (KHTML, like Gecko) Chrome/75.0.3770.100 Safari/537.36",147,"[0.9, 0.5, 0.1]","[0.8, 0.4, 0.2]","[u'blue', u'red', u'black']","[u'left', u'middle', u'right']","[0.8, 0.4, 0.2]","[u'low', u'high', u'medium']","blue",49,"left","low","False","False",117,4200,NA
"A29AKJXQ248KNK","Wed Jan 29 2020 12:07:35 GMT-0600 (Central Standard Time)","Wed Jan 29 2020 12:15:11 GMT-0600 (Central Standard Time)","Mozilla/5.0 (Windows NT 6.2; Win64; x64) AppleWebKit/537.36 (KHTML, like Gecko) Chrome/75.0.3770.100 Safari/537.36",148,"[0.9, 0.5, 0.1]","[0.8, 0.4, 0.2]","[u'blue', u'red', u'black']","[u'left', u'middle', u'right']","[0.8, 0.4, 0.2]","[u'low', u'high', u'medium']","red",50,"middle","high","False","False",324,4150,NA
"A29AKJXQ248KNK","Wed Jan 29 2020 12:07:35 GMT-0600 (Central Standard Time)","Wed Jan 29 2020 12:15:11 GMT-0600 (Central Standard Time)","Mozilla/5.0 (Windows NT 6.2; Win64; x64) AppleWebKit/537.36 (KHTML, like Gecko) Chrome/75.0.3770.100 Safari/537.36",149,"[0.9, 0.5, 0.1]","[0.8, 0.4, 0.2]","[u'blue', u'red', u'black']","[u'left', u'middle', u'right']","[0.8, 0.4, 0.2]","[u'low', u'high', u'medium']","black",51,"right","medium","True","False",4972,4250,NA
"A29AKJXQ248KNK","Wed Jan 29 2020 12:07:35 GMT-0600 (Central Standard Time)","Wed Jan 29 2020 12:15:11 GMT-0600 (Central Standard Time)","Mozilla/5.0 (Windows NT 6.2; Win64; x64) AppleWebKit/537.36 (KHTML, like Gecko) Chrome/75.0.3770.100 Safari/537.36",150,"[0.9, 0.5, 0.1]","[0.8, 0.4, 0.2]","[u'blue', u'red', u'black']","[u'left', u'middle', u'right']","[0.8, 0.4, 0.2]","[u'low', u'high', u'medium']","black",51,"right","medium","False","False",3627,4200,NA
"A29AKJXQ248KNK","Wed Jan 29 2020 12:07:35 GMT-0600 (Central Standard Time)","Wed Jan 29 2020 12:15:11 GMT-0600 (Central Standard Time)","Mozilla/5.0 (Windows NT 6.2; Win64; x64) AppleWebKit/537.36 (KHTML, like Gecko) Chrome/75.0.3770.100 Safari/537.36",151,"[0.9, 0.5, 0.1]","[0.8, 0.4, 0.2]","[u'blue', u'red', u'black']","[u'left', u'middle', u'right']","[0.8, 0.4, 0.2]","[u'low', u'high', u'medium']","black",51,"right","medium","False","False",4065,4150,NA
"A29AKJXQ248KNK","Wed Jan 29 2020 12:07:35 GMT-0600 (Central Standard Time)","Wed Jan 29 2020 12:15:11 GMT-0600 (Central Standard Time)","Mozilla/5.0 (Windows NT 6.2; Win64; x64) AppleWebKit/537.36 (KHTML, like Gecko) Chrome/75.0.3770.100 Safari/537.36",152,"[0.9, 0.5, 0.1]","[0.8, 0.4, 0.2]","[u'blue', u'red', u'black']","[u'left', u'middle', u'right']","[0.8, 0.4, 0.2]","[u'low', u'high', u'medium']","blue",49,"left","low","True","False",1034,4250,NA
"A29AKJXQ248KNK","Wed Jan 29 2020 12:07:35 GMT-0600 (Central Standard Time)","Wed Jan 29 2020 12:15:11 GMT-0600 (Central Standard Time)","Mozilla/5.0 (Windows NT 6.2; Win64; x64) AppleWebKit/537.36 (KHTML, like Gecko) Chrome/75.0.3770.100 Safari/537.36",153,"[0.9, 0.5, 0.1]","[0.8, 0.4, 0.2]","[u'blue', u'red', u'black']","[u'left', u'middle', u'right']","[0.8, 0.4, 0.2]","[u'low', u'high', u'medium']","red",50,"middle","high","True","False",1169,4350,NA
"A29AKJXQ248KNK","Wed Jan 29 2020 12:07:35 GMT-0600 (Central Standard Time)","Wed Jan 29 2020 12:15:11 GMT-0600 (Central Standard Time)","Mozilla/5.0 (Windows NT 6.2; Win64; x64) AppleWebKit/537.36 (KHTML, like Gecko) Chrome/75.0.3770.100 Safari/537.36",154,"[0.9, 0.5, 0.1]","[0.8, 0.4, 0.2]","[u'blue', u'red', u'black']","[u'left', u'middle', u'right']","[0.8, 0.4, 0.2]","[u'low', u'high', u'medium']","red",50,"middle","high","True","False",285,4450,NA
"A29AKJXQ248KNK","Wed Jan 29 2020 12:07:35 GMT-0600 (Central Standard Time)","Wed Jan 29 2020 12:15:11 GMT-0600 (Central Standard Time)","Mozilla/5.0 (Windows NT 6.2; Win64; x64) AppleWebKit/537.36 (KHTML, like Gecko) Chrome/75.0.3770.100 Safari/537.36",155,"[0.9, 0.5, 0.1]","[0.8, 0.4, 0.2]","[u'blue', u'red', u'black']","[u'left', u'middle', u'right']","[0.8, 0.4, 0.2]","[u'low', u'high', u'medium']","red",50,"middle","high","True","False",2279,4550,NA
"A29AKJXQ248KNK","Wed Jan 29 2020 12:07:35 GMT-0600 (Central Standard Time)","Wed Jan 29 2020 12:15:11 GMT-0600 (Central Standard Time)","Mozilla/5.0 (Windows NT 6.2; Win64; x64) AppleWebKit/537.36 (KHTML, like Gecko) Chrome/75.0.3770.100 Safari/537.36",156,"[0.9, 0.5, 0.1]","[0.8, 0.4, 0.2]","[u'blue', u'red', u'black']","[u'left', u'middle', u'right']","[0.8, 0.4, 0.2]","[u'low', u'high', u'medium']","black",51,"right","medium","False","False",5728,4500,NA
"A29AKJXQ248KNK","Wed Jan 29 2020 12:07:35 GMT-0600 (Central Standard Time)","Wed Jan 29 2020 12:15:11 GMT-0600 (Central Standard Time)","Mozilla/5.0 (Windows NT 6.2; Win64; x64) AppleWebKit/537.36 (KHTML, like Gecko) Chrome/75.0.3770.100 Safari/537.36",157,"[0.9, 0.5, 0.1]","[0.8, 0.4, 0.2]","[u'blue', u'red', u'black']","[u'left', u'middle', u'right']","[0.8, 0.4, 0.2]","[u'low', u'high', u'medium']","blue",49,"left","low","True","False",5248,4600,NA
"A29AKJXQ248KNK","Wed Jan 29 2020 12:07:35 GMT-0600 (Central Standard Time)","Wed Jan 29 2020 12:15:11 GMT-0600 (Central Standard Time)","Mozilla/5.0 (Windows NT 6.2; Win64; x64) AppleWebKit/537.36 (KHTML, like Gecko) Chrome/75.0.3770.100 Safari/537.36",158,"[0.9, 0.5, 0.1]","[0.8, 0.4, 0.2]","[u'blue', u'red', u'black']","[u'left', u'middle', u'right']","[0.8, 0.4, 0.2]","[u'low', u'high', u'medium']","red",50,"middle","high","True","False",464,4700,NA
"A29AKJXQ248KNK","Wed Jan 29 2020 12:07:35 GMT-0600 (Central Standard Time)","Wed Jan 29 2020 12:15:11 GMT-0600 (Central Standard Time)","Mozilla/5.0 (Windows NT 6.2; Win64; x64) AppleWebKit/537.36 (KHTML, like Gecko) Chrome/75.0.3770.100 Safari/537.36",159,"[0.9, 0.5, 0.1]","[0.8, 0.4, 0.2]","[u'blue', u'red', u'black']","[u'left', u'middle', u'right']","[0.8, 0.4, 0.2]","[u'low', u'high', u'medium']","black",51,"right","medium","True","False",191,4800,NA
"A29AKJXQ248KNK","Wed Jan 29 2020 12:07:35 GMT-0600 (Central Standard Time)","Wed Jan 29 2020 12:15:11 GMT-0600 (Central Standard Time)","Mozilla/5.0 (Windows NT 6.2; Win64; x64) AppleWebKit/537.36 (KHTML, like Gecko) Chrome/75.0.3770.100 Safari/537.36",160,"[0.9, 0.5, 0.1]","[0.8, 0.4, 0.2]","[u'blue', u'red', u'black']","[u'left', u'middle', u'right']","[0.8, 0.4, 0.2]","[u'low', u'high', u'medium']","red",50,"middle","high","True","False",132,4900,NA
