"src_subject_id","start_time","end_time","browser","index","first_half_probabilities","second_half_probabilities","deck_color","deck_position","deck_probabilities","deck_contingencies","response_color","key_press","response_position","response_probability","reward_type","trial_type","rt","reward_tally","exclusion_reason"
"A1P0XSCJ9XAV74","Thu Jan 30 2020 07:26:07 GMT-0600 (Central Standard Time)","Thu Jan 30 2020 07:33:14 GMT-0600 (Central Standard Time)","Mozilla/5.0 (Windows NT 10.0; Win64; x64) AppleWebKit/537.36 (KHTML, like Gecko) Chrome/79.0.3945.117 Safari/537.36",1,"[0.9, 0.5, 0.1]","[0.8, 0.4, 0.2]","[u'black', u'red', u'blue']","[u'left', u'middle', u'right']","[0.9, 0.5, 0.1]","[u'high', u'medium', u'low']","red",50,"middle","medium","True","False",1293,100,NA
"A1P0XSCJ9XAV74","Thu Jan 30 2020 07:26:07 GMT-0600 (Central Standard Time)","Thu Jan 30 2020 07:33:14 GMT-0600 (Central Standard Time)","Mozilla/5.0 (Windows NT 10.0; Win64; x64) AppleWebKit/537.36 (KHTML, like Gecko) Chrome/79.0.3945.117 Safari/537.36",2,"[0.9, 0.5, 0.1]","[0.8, 0.4, 0.2]","[u'black', u'red', u'blue']","[u'left', u'middle', u'right']","[0.9, 0.5, 0.1]","[u'high', u'medium', u'low']","red",50,"middle","medium","True","False",368,200,NA
"A1P0XSCJ9XAV74","Thu Jan 30 2020 07:26:07 GMT-0600 (Central Standard Time)","Thu Jan 30 2020 07:33:14 GMT-0600 (Central Standard Time)","Mozilla/5.0 (Windows NT 10.0; Win64; x64) AppleWebKit/537.36 (KHTML, like Gecko) Chrome/79.0.3945.117 Safari/537.36",3,"[0.9, 0.5, 0.1]","[0.8, 0.4, 0.2]","[u'black', u'red', u'blue']","[u'left', u'middle', u'right']","[0.9, 0.5, 0.1]","[u'high', u'medium', u'low']","red",50,"middle","medium","True","False",336,300,NA
"A1P0XSCJ9XAV74","Thu Jan 30 2020 07:26:07 GMT-0600 (Central Standard Time)","Thu Jan 30 2020 07:33:14 GMT-0600 (Central Standard Time)","Mozilla/5.0 (Windows NT 10.0; Win64; x64) AppleWebKit/537.36 (KHTML, like Gecko) Chrome/79.0.3945.117 Safari/537.36",4,"[0.9, 0.5, 0.1]","[0.8, 0.4, 0.2]","[u'black', u'red', u'blue']","[u'left', u'middle', u'right']","[0.9, 0.5, 0.1]","[u'high', u'medium', u'low']","red",50,"middle","medium","True","False",368,400,NA
"A1P0XSCJ9XAV74","Thu Jan 30 2020 07:26:07 GMT-0600 (Central Standard Time)","Thu Jan 30 2020 07:33:14 GMT-0600 (Central Standard Time)","Mozilla/5.0 (Windows NT 10.0; Win64; x64) AppleWebKit/537.36 (KHTML, like Gecko) Chrome/79.0.3945.117 Safari/537.36",5,"[0.9, 0.5, 0.1]","[0.8, 0.4, 0.2]","[u'black', u'red', u'blue']","[u'left', u'middle', u'right']","[0.9, 0.5, 0.1]","[u'high', u'medium', u'low']","red",50,"middle","medium","True","False",285,500,NA
"A1P0XSCJ9XAV74","Thu Jan 30 2020 07:26:07 GMT-0600 (Central Standard Time)","Thu Jan 30 2020 07:33:14 GMT-0600 (Central Standard Time)","Mozilla/5.0 (Windows NT 10.0; Win64; x64) AppleWebKit/537.36 (KHTML, like Gecko) Chrome/79.0.3945.117 Safari/537.36",6,"[0.9, 0.5, 0.1]","[0.8, 0.4, 0.2]","[u'black', u'red', u'blue']","[u'left', u'middle', u'right']","[0.9, 0.5, 0.1]","[u'high', u'medium', u'low']","red",50,"middle","medium","False","False",538,450,NA
"A1P0XSCJ9XAV74","Thu Jan 30 2020 07:26:07 GMT-0600 (Central Standard Time)","Thu Jan 30 2020 07:33:14 GMT-0600 (Central Standard Time)","Mozilla/5.0 (Windows NT 10.0; Win64; x64) AppleWebKit/537.36 (KHTML, like Gecko) Chrome/79.0.3945.117 Safari/537.36",7,"[0.9, 0.5, 0.1]","[0.8, 0.4, 0.2]","[u'black', u'red', u'blue']","[u'left', u'middle', u'right']","[0.9, 0.5, 0.1]","[u'high', u'medium', u'low']","blue",51,"right","low","False","False",473,400,NA
"A1P0XSCJ9XAV74","Thu Jan 30 2020 07:26:07 GMT-0600 (Central Standard Time)","Thu Jan 30 2020 07:33:14 GMT-0600 (Central Standard Time)","Mozilla/5.0 (Windows NT 10.0; Win64; x64) AppleWebKit/537.36 (KHTML, like Gecko) Chrome/79.0.3945.117 Safari/537.36",8,"[0.9, 0.5, 0.1]","[0.8, 0.4, 0.2]","[u'black', u'red', u'blue']","[u'left', u'middle', u'right']","[0.9, 0.5, 0.1]","[u'high', u'medium', u'low']","black",49,"left","high","True","False",601,500,NA
"A1P0XSCJ9XAV74","Thu Jan 30 2020 07:26:07 GMT-0600 (Central Standard Time)","Thu Jan 30 2020 07:33:14 GMT-0600 (Central Standard Time)","Mozilla/5.0 (Windows NT 10.0; Win64; x64) AppleWebKit/537.36 (KHTML, like Gecko) Chrome/79.0.3945.117 Safari/537.36",9,"[0.9, 0.5, 0.1]","[0.8, 0.4, 0.2]","[u'black', u'red', u'blue']","[u'left', u'middle', u'right']","[0.9, 0.5, 0.1]","[u'high', u'medium', u'low']","black",49,"left","high","True","False",387,600,NA
"A1P0XSCJ9XAV74","Thu Jan 30 2020 07:26:07 GMT-0600 (Central Standard Time)","Thu Jan 30 2020 07:33:14 GMT-0600 (Central Standard Time)","Mozilla/5.0 (Windows NT 10.0; Win64; x64) AppleWebKit/537.36 (KHTML, like Gecko) Chrome/79.0.3945.117 Safari/537.36",10,"[0.9, 0.5, 0.1]","[0.8, 0.4, 0.2]","[u'black', u'red', u'blue']","[u'left', u'middle', u'right']","[0.9, 0.5, 0.1]","[u'high', u'medium', u'low']","black",49,"left","high","True","False",510,700,NA
"A1P0XSCJ9XAV74","Thu Jan 30 2020 07:26:07 GMT-0600 (Central Standard Time)","Thu Jan 30 2020 07:33:14 GMT-0600 (Central Standard Time)","Mozilla/5.0 (Windows NT 10.0; Win64; x64) AppleWebKit/537.36 (KHTML, like Gecko) Chrome/79.0.3945.117 Safari/537.36",11,"[0.9, 0.5, 0.1]","[0.8, 0.4, 0.2]","[u'black', u'red', u'blue']","[u'left', u'middle', u'right']","[0.9, 0.5, 0.1]","[u'high', u'medium', u'low']","black",49,"left","high","True","False",498,800,NA
"A1P0XSCJ9XAV74","Thu Jan 30 2020 07:26:07 GMT-0600 (Central Standard Time)","Thu Jan 30 2020 07:33:14 GMT-0600 (Central Standard Time)","Mozilla/5.0 (Windows NT 10.0; Win64; x64) AppleWebKit/537.36 (KHTML, like Gecko) Chrome/79.0.3945.117 Safari/537.36",12,"[0.9, 0.5, 0.1]","[0.8, 0.4, 0.2]","[u'black', u'red', u'blue']","[u'left', u'middle', u'right']","[0.9, 0.5, 0.1]","[u'high', u'medium', u'low']","black",49,"left","high","True","False",702,900,NA
"A1P0XSCJ9XAV74","Thu Jan 30 2020 07:26:07 GMT-0600 (Central Standard Time)","Thu Jan 30 2020 07:33:14 GMT-0600 (Central Standard Time)","Mozilla/5.0 (Windows NT 10.0; Win64; x64) AppleWebKit/537.36 (KHTML, like Gecko) Chrome/79.0.3945.117 Safari/537.36",13,"[0.9, 0.5, 0.1]","[0.8, 0.4, 0.2]","[u'black', u'red', u'blue']","[u'left', u'middle', u'right']","[0.9, 0.5, 0.1]","[u'high', u'medium', u'low']","black",49,"left","high","True","False",387,1000,NA
"A1P0XSCJ9XAV74","Thu Jan 30 2020 07:26:07 GMT-0600 (Central Standard Time)","Thu Jan 30 2020 07:33:14 GMT-0600 (Central Standard Time)","Mozilla/5.0 (Windows NT 10.0; Win64; x64) AppleWebKit/537.36 (KHTML, like Gecko) Chrome/79.0.3945.117 Safari/537.36",14,"[0.9, 0.5, 0.1]","[0.8, 0.4, 0.2]","[u'black', u'red', u'blue']","[u'left', u'middle', u'right']","[0.9, 0.5, 0.1]","[u'high', u'medium', u'low']","black",49,"left","high","True","False",582,1100,NA
"A1P0XSCJ9XAV74","Thu Jan 30 2020 07:26:07 GMT-0600 (Central Standard Time)","Thu Jan 30 2020 07:33:14 GMT-0600 (Central Standard Time)","Mozilla/5.0 (Windows NT 10.0; Win64; x64) AppleWebKit/537.36 (KHTML, like Gecko) Chrome/79.0.3945.117 Safari/537.36",15,"[0.9, 0.5, 0.1]","[0.8, 0.4, 0.2]","[u'black', u'red', u'blue']","[u'left', u'middle', u'right']","[0.9, 0.5, 0.1]","[u'high', u'medium', u'low']","black",49,"left","high","True","False",433,1200,NA
"A1P0XSCJ9XAV74","Thu Jan 30 2020 07:26:07 GMT-0600 (Central Standard Time)","Thu Jan 30 2020 07:33:14 GMT-0600 (Central Standard Time)","Mozilla/5.0 (Windows NT 10.0; Win64; x64) AppleWebKit/537.36 (KHTML, like Gecko) Chrome/79.0.3945.117 Safari/537.36",16,"[0.9, 0.5, 0.1]","[0.8, 0.4, 0.2]","[u'black', u'red', u'blue']","[u'left', u'middle', u'right']","[0.9, 0.5, 0.1]","[u'high', u'medium', u'low']","black",49,"left","high","True","True",592,1300,NA
"A1P0XSCJ9XAV74","Thu Jan 30 2020 07:26:07 GMT-0600 (Central Standard Time)","Thu Jan 30 2020 07:33:14 GMT-0600 (Central Standard Time)","Mozilla/5.0 (Windows NT 10.0; Win64; x64) AppleWebKit/537.36 (KHTML, like Gecko) Chrome/79.0.3945.117 Safari/537.36",17,"[0.9, 0.5, 0.1]","[0.8, 0.4, 0.2]","[u'black', u'red', u'blue']","[u'left', u'middle', u'right']","[0.9, 0.5, 0.1]","[u'medium', u'low', u'high']","black",49,"left","medium","False","False",563,1250,NA
"A1P0XSCJ9XAV74","Thu Jan 30 2020 07:26:07 GMT-0600 (Central Standard Time)","Thu Jan 30 2020 07:33:14 GMT-0600 (Central Standard Time)","Mozilla/5.0 (Windows NT 10.0; Win64; x64) AppleWebKit/537.36 (KHTML, like Gecko) Chrome/79.0.3945.117 Safari/537.36",18,"[0.9, 0.5, 0.1]","[0.8, 0.4, 0.2]","[u'black', u'red', u'blue']","[u'left', u'middle', u'right']","[0.9, 0.5, 0.1]","[u'medium', u'low', u'high']","blue",51,"right","high","True","False",132,1350,NA
"A1P0XSCJ9XAV74","Thu Jan 30 2020 07:26:07 GMT-0600 (Central Standard Time)","Thu Jan 30 2020 07:33:14 GMT-0600 (Central Standard Time)","Mozilla/5.0 (Windows NT 10.0; Win64; x64) AppleWebKit/537.36 (KHTML, like Gecko) Chrome/79.0.3945.117 Safari/537.36",19,"[0.9, 0.5, 0.1]","[0.8, 0.4, 0.2]","[u'black', u'red', u'blue']","[u'left', u'middle', u'right']","[0.9, 0.5, 0.1]","[u'medium', u'low', u'high']","blue",51,"right","high","True","False",462,1450,NA
"A1P0XSCJ9XAV74","Thu Jan 30 2020 07:26:07 GMT-0600 (Central Standard Time)","Thu Jan 30 2020 07:33:14 GMT-0600 (Central Standard Time)","Mozilla/5.0 (Windows NT 10.0; Win64; x64) AppleWebKit/537.36 (KHTML, like Gecko) Chrome/79.0.3945.117 Safari/537.36",20,"[0.9, 0.5, 0.1]","[0.8, 0.4, 0.2]","[u'black', u'red', u'blue']","[u'left', u'middle', u'right']","[0.9, 0.5, 0.1]","[u'medium', u'low', u'high']","blue",51,"right","high","True","False",701,1550,NA
"A1P0XSCJ9XAV74","Thu Jan 30 2020 07:26:07 GMT-0600 (Central Standard Time)","Thu Jan 30 2020 07:33:14 GMT-0600 (Central Standard Time)","Mozilla/5.0 (Windows NT 10.0; Win64; x64) AppleWebKit/537.36 (KHTML, like Gecko) Chrome/79.0.3945.117 Safari/537.36",21,"[0.9, 0.5, 0.1]","[0.8, 0.4, 0.2]","[u'black', u'red', u'blue']","[u'left', u'middle', u'right']","[0.9, 0.5, 0.1]","[u'medium', u'low', u'high']","blue",51,"right","high","True","False",458,1650,NA
"A1P0XSCJ9XAV74","Thu Jan 30 2020 07:26:07 GMT-0600 (Central Standard Time)","Thu Jan 30 2020 07:33:14 GMT-0600 (Central Standard Time)","Mozilla/5.0 (Windows NT 10.0; Win64; x64) AppleWebKit/537.36 (KHTML, like Gecko) Chrome/79.0.3945.117 Safari/537.36",22,"[0.9, 0.5, 0.1]","[0.8, 0.4, 0.2]","[u'black', u'red', u'blue']","[u'left', u'middle', u'right']","[0.9, 0.5, 0.1]","[u'medium', u'low', u'high']","blue",51,"right","high","False","False",536,1600,NA
"A1P0XSCJ9XAV74","Thu Jan 30 2020 07:26:07 GMT-0600 (Central Standard Time)","Thu Jan 30 2020 07:33:14 GMT-0600 (Central Standard Time)","Mozilla/5.0 (Windows NT 10.0; Win64; x64) AppleWebKit/537.36 (KHTML, like Gecko) Chrome/79.0.3945.117 Safari/537.36",23,"[0.9, 0.5, 0.1]","[0.8, 0.4, 0.2]","[u'black', u'red', u'blue']","[u'left', u'middle', u'right']","[0.9, 0.5, 0.1]","[u'medium', u'low', u'high']","red",50,"middle","low","False","False",258,1550,NA
"A1P0XSCJ9XAV74","Thu Jan 30 2020 07:26:07 GMT-0600 (Central Standard Time)","Thu Jan 30 2020 07:33:14 GMT-0600 (Central Standard Time)","Mozilla/5.0 (Windows NT 10.0; Win64; x64) AppleWebKit/537.36 (KHTML, like Gecko) Chrome/79.0.3945.117 Safari/537.36",24,"[0.9, 0.5, 0.1]","[0.8, 0.4, 0.2]","[u'black', u'red', u'blue']","[u'left', u'middle', u'right']","[0.9, 0.5, 0.1]","[u'medium', u'low', u'high']","black",49,"left","medium","True","False",276,1650,NA
"A1P0XSCJ9XAV74","Thu Jan 30 2020 07:26:07 GMT-0600 (Central Standard Time)","Thu Jan 30 2020 07:33:14 GMT-0600 (Central Standard Time)","Mozilla/5.0 (Windows NT 10.0; Win64; x64) AppleWebKit/537.36 (KHTML, like Gecko) Chrome/79.0.3945.117 Safari/537.36",25,"[0.9, 0.5, 0.1]","[0.8, 0.4, 0.2]","[u'black', u'red', u'blue']","[u'left', u'middle', u'right']","[0.9, 0.5, 0.1]","[u'medium', u'low', u'high']","black",49,"left","medium","True","False",547,1750,NA
"A1P0XSCJ9XAV74","Thu Jan 30 2020 07:26:07 GMT-0600 (Central Standard Time)","Thu Jan 30 2020 07:33:14 GMT-0600 (Central Standard Time)","Mozilla/5.0 (Windows NT 10.0; Win64; x64) AppleWebKit/537.36 (KHTML, like Gecko) Chrome/79.0.3945.117 Safari/537.36",26,"[0.9, 0.5, 0.1]","[0.8, 0.4, 0.2]","[u'black', u'red', u'blue']","[u'left', u'middle', u'right']","[0.9, 0.5, 0.1]","[u'medium', u'low', u'high']","black",49,"left","medium","False","False",467,1700,NA
"A1P0XSCJ9XAV74","Thu Jan 30 2020 07:26:07 GMT-0600 (Central Standard Time)","Thu Jan 30 2020 07:33:14 GMT-0600 (Central Standard Time)","Mozilla/5.0 (Windows NT 10.0; Win64; x64) AppleWebKit/537.36 (KHTML, like Gecko) Chrome/79.0.3945.117 Safari/537.36",27,"[0.9, 0.5, 0.1]","[0.8, 0.4, 0.2]","[u'black', u'red', u'blue']","[u'left', u'middle', u'right']","[0.9, 0.5, 0.1]","[u'medium', u'low', u'high']","red",50,"middle","low","False","False",592,1650,NA
"A1P0XSCJ9XAV74","Thu Jan 30 2020 07:26:07 GMT-0600 (Central Standard Time)","Thu Jan 30 2020 07:33:14 GMT-0600 (Central Standard Time)","Mozilla/5.0 (Windows NT 10.0; Win64; x64) AppleWebKit/537.36 (KHTML, like Gecko) Chrome/79.0.3945.117 Safari/537.36",28,"[0.9, 0.5, 0.1]","[0.8, 0.4, 0.2]","[u'black', u'red', u'blue']","[u'left', u'middle', u'right']","[0.9, 0.5, 0.1]","[u'medium', u'low', u'high']","blue",51,"right","high","True","False",717,1750,NA
"A1P0XSCJ9XAV74","Thu Jan 30 2020 07:26:07 GMT-0600 (Central Standard Time)","Thu Jan 30 2020 07:33:14 GMT-0600 (Central Standard Time)","Mozilla/5.0 (Windows NT 10.0; Win64; x64) AppleWebKit/537.36 (KHTML, like Gecko) Chrome/79.0.3945.117 Safari/537.36",29,"[0.9, 0.5, 0.1]","[0.8, 0.4, 0.2]","[u'black', u'red', u'blue']","[u'left', u'middle', u'right']","[0.9, 0.5, 0.1]","[u'medium', u'low', u'high']","blue",51,"right","high","True","False",366,1850,NA
"A1P0XSCJ9XAV74","Thu Jan 30 2020 07:26:07 GMT-0600 (Central Standard Time)","Thu Jan 30 2020 07:33:14 GMT-0600 (Central Standard Time)","Mozilla/5.0 (Windows NT 10.0; Win64; x64) AppleWebKit/537.36 (KHTML, like Gecko) Chrome/79.0.3945.117 Safari/537.36",30,"[0.9, 0.5, 0.1]","[0.8, 0.4, 0.2]","[u'black', u'red', u'blue']","[u'left', u'middle', u'right']","[0.9, 0.5, 0.1]","[u'medium', u'low', u'high']","blue",51,"right","high","True","False",2435,1950,NA
"A1P0XSCJ9XAV74","Thu Jan 30 2020 07:26:07 GMT-0600 (Central Standard Time)","Thu Jan 30 2020 07:33:14 GMT-0600 (Central Standard Time)","Mozilla/5.0 (Windows NT 10.0; Win64; x64) AppleWebKit/537.36 (KHTML, like Gecko) Chrome/79.0.3945.117 Safari/537.36",31,"[0.9, 0.5, 0.1]","[0.8, 0.4, 0.2]","[u'black', u'red', u'blue']","[u'left', u'middle', u'right']","[0.9, 0.5, 0.1]","[u'medium', u'low', u'high']","blue",51,"right","high","True","False",2037,2050,NA
"A1P0XSCJ9XAV74","Thu Jan 30 2020 07:26:07 GMT-0600 (Central Standard Time)","Thu Jan 30 2020 07:33:14 GMT-0600 (Central Standard Time)","Mozilla/5.0 (Windows NT 10.0; Win64; x64) AppleWebKit/537.36 (KHTML, like Gecko) Chrome/79.0.3945.117 Safari/537.36",32,"[0.9, 0.5, 0.1]","[0.8, 0.4, 0.2]","[u'black', u'red', u'blue']","[u'left', u'middle', u'right']","[0.9, 0.5, 0.1]","[u'medium', u'low', u'high']","blue",51,"right","high","True","False",447,2150,NA
"A1P0XSCJ9XAV74","Thu Jan 30 2020 07:26:07 GMT-0600 (Central Standard Time)","Thu Jan 30 2020 07:33:14 GMT-0600 (Central Standard Time)","Mozilla/5.0 (Windows NT 10.0; Win64; x64) AppleWebKit/537.36 (KHTML, like Gecko) Chrome/79.0.3945.117 Safari/537.36",33,"[0.9, 0.5, 0.1]","[0.8, 0.4, 0.2]","[u'black', u'red', u'blue']","[u'left', u'middle', u'right']","[0.9, 0.5, 0.1]","[u'medium', u'low', u'high']","blue",51,"right","high","True","False",474,2250,NA
"A1P0XSCJ9XAV74","Thu Jan 30 2020 07:26:07 GMT-0600 (Central Standard Time)","Thu Jan 30 2020 07:33:14 GMT-0600 (Central Standard Time)","Mozilla/5.0 (Windows NT 10.0; Win64; x64) AppleWebKit/537.36 (KHTML, like Gecko) Chrome/79.0.3945.117 Safari/537.36",34,"[0.9, 0.5, 0.1]","[0.8, 0.4, 0.2]","[u'black', u'red', u'blue']","[u'left', u'middle', u'right']","[0.9, 0.5, 0.1]","[u'medium', u'low', u'high']","blue",51,"right","high","True","False",488,2350,NA
"A1P0XSCJ9XAV74","Thu Jan 30 2020 07:26:07 GMT-0600 (Central Standard Time)","Thu Jan 30 2020 07:33:14 GMT-0600 (Central Standard Time)","Mozilla/5.0 (Windows NT 10.0; Win64; x64) AppleWebKit/537.36 (KHTML, like Gecko) Chrome/79.0.3945.117 Safari/537.36",35,"[0.9, 0.5, 0.1]","[0.8, 0.4, 0.2]","[u'black', u'red', u'blue']","[u'left', u'middle', u'right']","[0.9, 0.5, 0.1]","[u'medium', u'low', u'high']","blue",51,"right","high","True","False",353,2450,NA
"A1P0XSCJ9XAV74","Thu Jan 30 2020 07:26:07 GMT-0600 (Central Standard Time)","Thu Jan 30 2020 07:33:14 GMT-0600 (Central Standard Time)","Mozilla/5.0 (Windows NT 10.0; Win64; x64) AppleWebKit/537.36 (KHTML, like Gecko) Chrome/79.0.3945.117 Safari/537.36",36,"[0.9, 0.5, 0.1]","[0.8, 0.4, 0.2]","[u'black', u'red', u'blue']","[u'left', u'middle', u'right']","[0.9, 0.5, 0.1]","[u'medium', u'low', u'high']","blue",51,"right","high","True","True",660,2550,NA
"A1P0XSCJ9XAV74","Thu Jan 30 2020 07:26:07 GMT-0600 (Central Standard Time)","Thu Jan 30 2020 07:33:14 GMT-0600 (Central Standard Time)","Mozilla/5.0 (Windows NT 10.0; Win64; x64) AppleWebKit/537.36 (KHTML, like Gecko) Chrome/79.0.3945.117 Safari/537.36",37,"[0.9, 0.5, 0.1]","[0.8, 0.4, 0.2]","[u'black', u'red', u'blue']","[u'left', u'middle', u'right']","[0.9, 0.5, 0.1]","[u'low', u'high', u'medium']","blue",51,"right","medium","False","False",453,2500,NA
"A1P0XSCJ9XAV74","Thu Jan 30 2020 07:26:07 GMT-0600 (Central Standard Time)","Thu Jan 30 2020 07:33:14 GMT-0600 (Central Standard Time)","Mozilla/5.0 (Windows NT 10.0; Win64; x64) AppleWebKit/537.36 (KHTML, like Gecko) Chrome/79.0.3945.117 Safari/537.36",38,"[0.9, 0.5, 0.1]","[0.8, 0.4, 0.2]","[u'black', u'red', u'blue']","[u'left', u'middle', u'right']","[0.9, 0.5, 0.1]","[u'low', u'high', u'medium']","black",49,"left","low","False","False",572,2450,NA
"A1P0XSCJ9XAV74","Thu Jan 30 2020 07:26:07 GMT-0600 (Central Standard Time)","Thu Jan 30 2020 07:33:14 GMT-0600 (Central Standard Time)","Mozilla/5.0 (Windows NT 10.0; Win64; x64) AppleWebKit/537.36 (KHTML, like Gecko) Chrome/79.0.3945.117 Safari/537.36",39,"[0.9, 0.5, 0.1]","[0.8, 0.4, 0.2]","[u'black', u'red', u'blue']","[u'left', u'middle', u'right']","[0.9, 0.5, 0.1]","[u'low', u'high', u'medium']","red",50,"middle","high","True","False",182,2550,NA
"A1P0XSCJ9XAV74","Thu Jan 30 2020 07:26:07 GMT-0600 (Central Standard Time)","Thu Jan 30 2020 07:33:14 GMT-0600 (Central Standard Time)","Mozilla/5.0 (Windows NT 10.0; Win64; x64) AppleWebKit/537.36 (KHTML, like Gecko) Chrome/79.0.3945.117 Safari/537.36",40,"[0.9, 0.5, 0.1]","[0.8, 0.4, 0.2]","[u'black', u'red', u'blue']","[u'left', u'middle', u'right']","[0.9, 0.5, 0.1]","[u'low', u'high', u'medium']","red",50,"middle","high","True","False",224,2650,NA
"A1P0XSCJ9XAV74","Thu Jan 30 2020 07:26:07 GMT-0600 (Central Standard Time)","Thu Jan 30 2020 07:33:14 GMT-0600 (Central Standard Time)","Mozilla/5.0 (Windows NT 10.0; Win64; x64) AppleWebKit/537.36 (KHTML, like Gecko) Chrome/79.0.3945.117 Safari/537.36",41,"[0.9, 0.5, 0.1]","[0.8, 0.4, 0.2]","[u'black', u'red', u'blue']","[u'left', u'middle', u'right']","[0.9, 0.5, 0.1]","[u'low', u'medium', u'high']","red",50,"middle","medium","False","False",1881,2600,NA
"A1P0XSCJ9XAV74","Thu Jan 30 2020 07:26:07 GMT-0600 (Central Standard Time)","Thu Jan 30 2020 07:33:14 GMT-0600 (Central Standard Time)","Mozilla/5.0 (Windows NT 10.0; Win64; x64) AppleWebKit/537.36 (KHTML, like Gecko) Chrome/79.0.3945.117 Safari/537.36",42,"[0.9, 0.5, 0.1]","[0.8, 0.4, 0.2]","[u'black', u'red', u'blue']","[u'left', u'middle', u'right']","[0.9, 0.5, 0.1]","[u'low', u'medium', u'high']","blue",51,"right","high","True","False",411,2700,NA
"A1P0XSCJ9XAV74","Thu Jan 30 2020 07:26:07 GMT-0600 (Central Standard Time)","Thu Jan 30 2020 07:33:14 GMT-0600 (Central Standard Time)","Mozilla/5.0 (Windows NT 10.0; Win64; x64) AppleWebKit/537.36 (KHTML, like Gecko) Chrome/79.0.3945.117 Safari/537.36",43,"[0.9, 0.5, 0.1]","[0.8, 0.4, 0.2]","[u'black', u'red', u'blue']","[u'left', u'middle', u'right']","[0.9, 0.5, 0.1]","[u'low', u'medium', u'high']","blue",51,"right","high","True","False",224,2800,NA
"A1P0XSCJ9XAV74","Thu Jan 30 2020 07:26:07 GMT-0600 (Central Standard Time)","Thu Jan 30 2020 07:33:14 GMT-0600 (Central Standard Time)","Mozilla/5.0 (Windows NT 10.0; Win64; x64) AppleWebKit/537.36 (KHTML, like Gecko) Chrome/79.0.3945.117 Safari/537.36",44,"[0.9, 0.5, 0.1]","[0.8, 0.4, 0.2]","[u'black', u'red', u'blue']","[u'left', u'middle', u'right']","[0.9, 0.5, 0.1]","[u'low', u'medium', u'high']","blue",51,"right","high","True","False",429,2900,NA
"A1P0XSCJ9XAV74","Thu Jan 30 2020 07:26:07 GMT-0600 (Central Standard Time)","Thu Jan 30 2020 07:33:14 GMT-0600 (Central Standard Time)","Mozilla/5.0 (Windows NT 10.0; Win64; x64) AppleWebKit/537.36 (KHTML, like Gecko) Chrome/79.0.3945.117 Safari/537.36",45,"[0.9, 0.5, 0.1]","[0.8, 0.4, 0.2]","[u'black', u'red', u'blue']","[u'left', u'middle', u'right']","[0.9, 0.5, 0.1]","[u'low', u'medium', u'high']","blue",51,"right","high","True","False",646,3000,NA
"A1P0XSCJ9XAV74","Thu Jan 30 2020 07:26:07 GMT-0600 (Central Standard Time)","Thu Jan 30 2020 07:33:14 GMT-0600 (Central Standard Time)","Mozilla/5.0 (Windows NT 10.0; Win64; x64) AppleWebKit/537.36 (KHTML, like Gecko) Chrome/79.0.3945.117 Safari/537.36",46,"[0.9, 0.5, 0.1]","[0.8, 0.4, 0.2]","[u'black', u'red', u'blue']","[u'left', u'middle', u'right']","[0.9, 0.5, 0.1]","[u'low', u'medium', u'high']","blue",51,"right","high","True","False",371,3100,NA
"A1P0XSCJ9XAV74","Thu Jan 30 2020 07:26:07 GMT-0600 (Central Standard Time)","Thu Jan 30 2020 07:33:14 GMT-0600 (Central Standard Time)","Mozilla/5.0 (Windows NT 10.0; Win64; x64) AppleWebKit/537.36 (KHTML, like Gecko) Chrome/79.0.3945.117 Safari/537.36",47,"[0.9, 0.5, 0.1]","[0.8, 0.4, 0.2]","[u'black', u'red', u'blue']","[u'left', u'middle', u'right']","[0.9, 0.5, 0.1]","[u'low', u'medium', u'high']","blue",51,"right","high","False","False",443,3050,NA
"A1P0XSCJ9XAV74","Thu Jan 30 2020 07:26:07 GMT-0600 (Central Standard Time)","Thu Jan 30 2020 07:33:14 GMT-0600 (Central Standard Time)","Mozilla/5.0 (Windows NT 10.0; Win64; x64) AppleWebKit/537.36 (KHTML, like Gecko) Chrome/79.0.3945.117 Safari/537.36",48,"[0.9, 0.5, 0.1]","[0.8, 0.4, 0.2]","[u'black', u'red', u'blue']","[u'left', u'middle', u'right']","[0.9, 0.5, 0.1]","[u'low', u'medium', u'high']","black",49,"left","low","False","False",471,3000,NA
"A1P0XSCJ9XAV74","Thu Jan 30 2020 07:26:07 GMT-0600 (Central Standard Time)","Thu Jan 30 2020 07:33:14 GMT-0600 (Central Standard Time)","Mozilla/5.0 (Windows NT 10.0; Win64; x64) AppleWebKit/537.36 (KHTML, like Gecko) Chrome/79.0.3945.117 Safari/537.36",49,"[0.9, 0.5, 0.1]","[0.8, 0.4, 0.2]","[u'black', u'red', u'blue']","[u'left', u'middle', u'right']","[0.9, 0.5, 0.1]","[u'low', u'medium', u'high']","red",50,"middle","medium","False","False",217,2950,NA
"A1P0XSCJ9XAV74","Thu Jan 30 2020 07:26:07 GMT-0600 (Central Standard Time)","Thu Jan 30 2020 07:33:14 GMT-0600 (Central Standard Time)","Mozilla/5.0 (Windows NT 10.0; Win64; x64) AppleWebKit/537.36 (KHTML, like Gecko) Chrome/79.0.3945.117 Safari/537.36",50,"[0.9, 0.5, 0.1]","[0.8, 0.4, 0.2]","[u'black', u'red', u'blue']","[u'left', u'middle', u'right']","[0.9, 0.5, 0.1]","[u'low', u'medium', u'high']","black",49,"left","low","False","False",508,2900,NA
"A1P0XSCJ9XAV74","Thu Jan 30 2020 07:26:07 GMT-0600 (Central Standard Time)","Thu Jan 30 2020 07:33:14 GMT-0600 (Central Standard Time)","Mozilla/5.0 (Windows NT 10.0; Win64; x64) AppleWebKit/537.36 (KHTML, like Gecko) Chrome/79.0.3945.117 Safari/537.36",51,"[0.9, 0.5, 0.1]","[0.8, 0.4, 0.2]","[u'black', u'red', u'blue']","[u'left', u'middle', u'right']","[0.9, 0.5, 0.1]","[u'low', u'medium', u'high']","blue",51,"right","high","True","False",437,3000,NA
"A1P0XSCJ9XAV74","Thu Jan 30 2020 07:26:07 GMT-0600 (Central Standard Time)","Thu Jan 30 2020 07:33:14 GMT-0600 (Central Standard Time)","Mozilla/5.0 (Windows NT 10.0; Win64; x64) AppleWebKit/537.36 (KHTML, like Gecko) Chrome/79.0.3945.117 Safari/537.36",52,"[0.9, 0.5, 0.1]","[0.8, 0.4, 0.2]","[u'black', u'red', u'blue']","[u'left', u'middle', u'right']","[0.9, 0.5, 0.1]","[u'low', u'medium', u'high']","blue",51,"right","high","True","False",568,3100,NA
"A1P0XSCJ9XAV74","Thu Jan 30 2020 07:26:07 GMT-0600 (Central Standard Time)","Thu Jan 30 2020 07:33:14 GMT-0600 (Central Standard Time)","Mozilla/5.0 (Windows NT 10.0; Win64; x64) AppleWebKit/537.36 (KHTML, like Gecko) Chrome/79.0.3945.117 Safari/537.36",53,"[0.9, 0.5, 0.1]","[0.8, 0.4, 0.2]","[u'black', u'red', u'blue']","[u'left', u'middle', u'right']","[0.9, 0.5, 0.1]","[u'low', u'medium', u'high']","blue",51,"right","high","True","False",677,3200,NA
"A1P0XSCJ9XAV74","Thu Jan 30 2020 07:26:07 GMT-0600 (Central Standard Time)","Thu Jan 30 2020 07:33:14 GMT-0600 (Central Standard Time)","Mozilla/5.0 (Windows NT 10.0; Win64; x64) AppleWebKit/537.36 (KHTML, like Gecko) Chrome/79.0.3945.117 Safari/537.36",54,"[0.9, 0.5, 0.1]","[0.8, 0.4, 0.2]","[u'black', u'red', u'blue']","[u'left', u'middle', u'right']","[0.9, 0.5, 0.1]","[u'low', u'medium', u'high']","blue",51,"right","high","True","False",416,3300,NA
"A1P0XSCJ9XAV74","Thu Jan 30 2020 07:26:07 GMT-0600 (Central Standard Time)","Thu Jan 30 2020 07:33:14 GMT-0600 (Central Standard Time)","Mozilla/5.0 (Windows NT 10.0; Win64; x64) AppleWebKit/537.36 (KHTML, like Gecko) Chrome/79.0.3945.117 Safari/537.36",55,"[0.9, 0.5, 0.1]","[0.8, 0.4, 0.2]","[u'black', u'red', u'blue']","[u'left', u'middle', u'right']","[0.9, 0.5, 0.1]","[u'low', u'medium', u'high']","blue",51,"right","high","True","False",436,3400,NA
"A1P0XSCJ9XAV74","Thu Jan 30 2020 07:26:07 GMT-0600 (Central Standard Time)","Thu Jan 30 2020 07:33:14 GMT-0600 (Central Standard Time)","Mozilla/5.0 (Windows NT 10.0; Win64; x64) AppleWebKit/537.36 (KHTML, like Gecko) Chrome/79.0.3945.117 Safari/537.36",56,"[0.9, 0.5, 0.1]","[0.8, 0.4, 0.2]","[u'black', u'red', u'blue']","[u'left', u'middle', u'right']","[0.9, 0.5, 0.1]","[u'low', u'medium', u'high']","blue",51,"right","high","True","False",793,3500,NA
"A1P0XSCJ9XAV74","Thu Jan 30 2020 07:26:07 GMT-0600 (Central Standard Time)","Thu Jan 30 2020 07:33:14 GMT-0600 (Central Standard Time)","Mozilla/5.0 (Windows NT 10.0; Win64; x64) AppleWebKit/537.36 (KHTML, like Gecko) Chrome/79.0.3945.117 Safari/537.36",57,"[0.9, 0.5, 0.1]","[0.8, 0.4, 0.2]","[u'black', u'red', u'blue']","[u'left', u'middle', u'right']","[0.9, 0.5, 0.1]","[u'low', u'medium', u'high']","blue",51,"right","high","True","False",487,3600,NA
"A1P0XSCJ9XAV74","Thu Jan 30 2020 07:26:07 GMT-0600 (Central Standard Time)","Thu Jan 30 2020 07:33:14 GMT-0600 (Central Standard Time)","Mozilla/5.0 (Windows NT 10.0; Win64; x64) AppleWebKit/537.36 (KHTML, like Gecko) Chrome/79.0.3945.117 Safari/537.36",58,"[0.9, 0.5, 0.1]","[0.8, 0.4, 0.2]","[u'black', u'red', u'blue']","[u'left', u'middle', u'right']","[0.9, 0.5, 0.1]","[u'low', u'medium', u'high']","blue",51,"right","high","True","False",472,3700,NA
"A1P0XSCJ9XAV74","Thu Jan 30 2020 07:26:07 GMT-0600 (Central Standard Time)","Thu Jan 30 2020 07:33:14 GMT-0600 (Central Standard Time)","Mozilla/5.0 (Windows NT 10.0; Win64; x64) AppleWebKit/537.36 (KHTML, like Gecko) Chrome/79.0.3945.117 Safari/537.36",59,"[0.9, 0.5, 0.1]","[0.8, 0.4, 0.2]","[u'black', u'red', u'blue']","[u'left', u'middle', u'right']","[0.9, 0.5, 0.1]","[u'low', u'medium', u'high']","blue",51,"right","high","True","True",699,3800,NA
"A1P0XSCJ9XAV74","Thu Jan 30 2020 07:26:07 GMT-0600 (Central Standard Time)","Thu Jan 30 2020 07:33:14 GMT-0600 (Central Standard Time)","Mozilla/5.0 (Windows NT 10.0; Win64; x64) AppleWebKit/537.36 (KHTML, like Gecko) Chrome/79.0.3945.117 Safari/537.36",60,"[0.9, 0.5, 0.1]","[0.8, 0.4, 0.2]","[u'black', u'red', u'blue']","[u'left', u'middle', u'right']","[0.9, 0.5, 0.1]","[u'low', u'high', u'medium']","blue",51,"right","medium","False","False",408,3750,NA
"A1P0XSCJ9XAV74","Thu Jan 30 2020 07:26:07 GMT-0600 (Central Standard Time)","Thu Jan 30 2020 07:33:14 GMT-0600 (Central Standard Time)","Mozilla/5.0 (Windows NT 10.0; Win64; x64) AppleWebKit/537.36 (KHTML, like Gecko) Chrome/79.0.3945.117 Safari/537.36",61,"[0.9, 0.5, 0.1]","[0.8, 0.4, 0.2]","[u'black', u'red', u'blue']","[u'left', u'middle', u'right']","[0.9, 0.5, 0.1]","[u'low', u'high', u'medium']","red",50,"middle","high","True","False",301,3850,NA
"A1P0XSCJ9XAV74","Thu Jan 30 2020 07:26:07 GMT-0600 (Central Standard Time)","Thu Jan 30 2020 07:33:14 GMT-0600 (Central Standard Time)","Mozilla/5.0 (Windows NT 10.0; Win64; x64) AppleWebKit/537.36 (KHTML, like Gecko) Chrome/79.0.3945.117 Safari/537.36",62,"[0.9, 0.5, 0.1]","[0.8, 0.4, 0.2]","[u'black', u'red', u'blue']","[u'left', u'middle', u'right']","[0.9, 0.5, 0.1]","[u'low', u'high', u'medium']","red",50,"middle","high","True","False",342,3950,NA
"A1P0XSCJ9XAV74","Thu Jan 30 2020 07:26:07 GMT-0600 (Central Standard Time)","Thu Jan 30 2020 07:33:14 GMT-0600 (Central Standard Time)","Mozilla/5.0 (Windows NT 10.0; Win64; x64) AppleWebKit/537.36 (KHTML, like Gecko) Chrome/79.0.3945.117 Safari/537.36",63,"[0.9, 0.5, 0.1]","[0.8, 0.4, 0.2]","[u'black', u'red', u'blue']","[u'left', u'middle', u'right']","[0.9, 0.5, 0.1]","[u'low', u'high', u'medium']","red",50,"middle","high","True","False",492,4050,NA
"A1P0XSCJ9XAV74","Thu Jan 30 2020 07:26:07 GMT-0600 (Central Standard Time)","Thu Jan 30 2020 07:33:14 GMT-0600 (Central Standard Time)","Mozilla/5.0 (Windows NT 10.0; Win64; x64) AppleWebKit/537.36 (KHTML, like Gecko) Chrome/79.0.3945.117 Safari/537.36",64,"[0.9, 0.5, 0.1]","[0.8, 0.4, 0.2]","[u'black', u'red', u'blue']","[u'left', u'middle', u'right']","[0.9, 0.5, 0.1]","[u'low', u'high', u'medium']","red",50,"middle","high","True","False",771,4150,NA
"A1P0XSCJ9XAV74","Thu Jan 30 2020 07:26:07 GMT-0600 (Central Standard Time)","Thu Jan 30 2020 07:33:14 GMT-0600 (Central Standard Time)","Mozilla/5.0 (Windows NT 10.0; Win64; x64) AppleWebKit/537.36 (KHTML, like Gecko) Chrome/79.0.3945.117 Safari/537.36",65,"[0.9, 0.5, 0.1]","[0.8, 0.4, 0.2]","[u'black', u'red', u'blue']","[u'left', u'middle', u'right']","[0.9, 0.5, 0.1]","[u'low', u'high', u'medium']","red",50,"middle","high","True","False",770,4250,NA
"A1P0XSCJ9XAV74","Thu Jan 30 2020 07:26:07 GMT-0600 (Central Standard Time)","Thu Jan 30 2020 07:33:14 GMT-0600 (Central Standard Time)","Mozilla/5.0 (Windows NT 10.0; Win64; x64) AppleWebKit/537.36 (KHTML, like Gecko) Chrome/79.0.3945.117 Safari/537.36",66,"[0.9, 0.5, 0.1]","[0.8, 0.4, 0.2]","[u'black', u'red', u'blue']","[u'left', u'middle', u'right']","[0.9, 0.5, 0.1]","[u'low', u'high', u'medium']","red",50,"middle","high","True","False",1121,4350,NA
"A1P0XSCJ9XAV74","Thu Jan 30 2020 07:26:07 GMT-0600 (Central Standard Time)","Thu Jan 30 2020 07:33:14 GMT-0600 (Central Standard Time)","Mozilla/5.0 (Windows NT 10.0; Win64; x64) AppleWebKit/537.36 (KHTML, like Gecko) Chrome/79.0.3945.117 Safari/537.36",67,"[0.9, 0.5, 0.1]","[0.8, 0.4, 0.2]","[u'black', u'red', u'blue']","[u'left', u'middle', u'right']","[0.9, 0.5, 0.1]","[u'low', u'high', u'medium']","red",50,"middle","high","True","False",442,4450,NA
"A1P0XSCJ9XAV74","Thu Jan 30 2020 07:26:07 GMT-0600 (Central Standard Time)","Thu Jan 30 2020 07:33:14 GMT-0600 (Central Standard Time)","Mozilla/5.0 (Windows NT 10.0; Win64; x64) AppleWebKit/537.36 (KHTML, like Gecko) Chrome/79.0.3945.117 Safari/537.36",68,"[0.9, 0.5, 0.1]","[0.8, 0.4, 0.2]","[u'black', u'red', u'blue']","[u'left', u'middle', u'right']","[0.9, 0.5, 0.1]","[u'low', u'high', u'medium']","red",50,"middle","high","True","False",346,4550,NA
"A1P0XSCJ9XAV74","Thu Jan 30 2020 07:26:07 GMT-0600 (Central Standard Time)","Thu Jan 30 2020 07:33:14 GMT-0600 (Central Standard Time)","Mozilla/5.0 (Windows NT 10.0; Win64; x64) AppleWebKit/537.36 (KHTML, like Gecko) Chrome/79.0.3945.117 Safari/537.36",69,"[0.9, 0.5, 0.1]","[0.8, 0.4, 0.2]","[u'black', u'red', u'blue']","[u'left', u'middle', u'right']","[0.9, 0.5, 0.1]","[u'low', u'high', u'medium']","red",50,"middle","high","False","True",474,4500,NA
"A1P0XSCJ9XAV74","Thu Jan 30 2020 07:26:07 GMT-0600 (Central Standard Time)","Thu Jan 30 2020 07:33:14 GMT-0600 (Central Standard Time)","Mozilla/5.0 (Windows NT 10.0; Win64; x64) AppleWebKit/537.36 (KHTML, like Gecko) Chrome/79.0.3945.117 Safari/537.36",70,"[0.9, 0.5, 0.1]","[0.8, 0.4, 0.2]","[u'black', u'red', u'blue']","[u'left', u'middle', u'right']","[0.9, 0.5, 0.1]","[u'high', u'medium', u'low']","black",49,"left","high","True","False",411,4600,NA
"A1P0XSCJ9XAV74","Thu Jan 30 2020 07:26:07 GMT-0600 (Central Standard Time)","Thu Jan 30 2020 07:33:14 GMT-0600 (Central Standard Time)","Mozilla/5.0 (Windows NT 10.0; Win64; x64) AppleWebKit/537.36 (KHTML, like Gecko) Chrome/79.0.3945.117 Safari/537.36",71,"[0.9, 0.5, 0.1]","[0.8, 0.4, 0.2]","[u'black', u'red', u'blue']","[u'left', u'middle', u'right']","[0.9, 0.5, 0.1]","[u'high', u'medium', u'low']","black",49,"left","high","True","False",508,4700,NA
"A1P0XSCJ9XAV74","Thu Jan 30 2020 07:26:07 GMT-0600 (Central Standard Time)","Thu Jan 30 2020 07:33:14 GMT-0600 (Central Standard Time)","Mozilla/5.0 (Windows NT 10.0; Win64; x64) AppleWebKit/537.36 (KHTML, like Gecko) Chrome/79.0.3945.117 Safari/537.36",72,"[0.9, 0.5, 0.1]","[0.8, 0.4, 0.2]","[u'black', u'red', u'blue']","[u'left', u'middle', u'right']","[0.9, 0.5, 0.1]","[u'high', u'medium', u'low']","black",49,"left","high","True","False",457,4800,NA
"A1P0XSCJ9XAV74","Thu Jan 30 2020 07:26:07 GMT-0600 (Central Standard Time)","Thu Jan 30 2020 07:33:14 GMT-0600 (Central Standard Time)","Mozilla/5.0 (Windows NT 10.0; Win64; x64) AppleWebKit/537.36 (KHTML, like Gecko) Chrome/79.0.3945.117 Safari/537.36",73,"[0.9, 0.5, 0.1]","[0.8, 0.4, 0.2]","[u'black', u'red', u'blue']","[u'left', u'middle', u'right']","[0.9, 0.5, 0.1]","[u'high', u'medium', u'low']","black",49,"left","high","True","False",606,4900,NA
"A1P0XSCJ9XAV74","Thu Jan 30 2020 07:26:07 GMT-0600 (Central Standard Time)","Thu Jan 30 2020 07:33:14 GMT-0600 (Central Standard Time)","Mozilla/5.0 (Windows NT 10.0; Win64; x64) AppleWebKit/537.36 (KHTML, like Gecko) Chrome/79.0.3945.117 Safari/537.36",74,"[0.9, 0.5, 0.1]","[0.8, 0.4, 0.2]","[u'black', u'red', u'blue']","[u'left', u'middle', u'right']","[0.9, 0.5, 0.1]","[u'high', u'medium', u'low']","black",49,"left","high","True","False",368,5000,NA
"A1P0XSCJ9XAV74","Thu Jan 30 2020 07:26:07 GMT-0600 (Central Standard Time)","Thu Jan 30 2020 07:33:14 GMT-0600 (Central Standard Time)","Mozilla/5.0 (Windows NT 10.0; Win64; x64) AppleWebKit/537.36 (KHTML, like Gecko) Chrome/79.0.3945.117 Safari/537.36",75,"[0.9, 0.5, 0.1]","[0.8, 0.4, 0.2]","[u'black', u'red', u'blue']","[u'left', u'middle', u'right']","[0.9, 0.5, 0.1]","[u'high', u'medium', u'low']","black",49,"left","high","True","False",527,5100,NA
"A1P0XSCJ9XAV74","Thu Jan 30 2020 07:26:07 GMT-0600 (Central Standard Time)","Thu Jan 30 2020 07:33:14 GMT-0600 (Central Standard Time)","Mozilla/5.0 (Windows NT 10.0; Win64; x64) AppleWebKit/537.36 (KHTML, like Gecko) Chrome/79.0.3945.117 Safari/537.36",76,"[0.9, 0.5, 0.1]","[0.8, 0.4, 0.2]","[u'black', u'red', u'blue']","[u'left', u'middle', u'right']","[0.9, 0.5, 0.1]","[u'high', u'medium', u'low']","black",49,"left","high","True","False",496,5200,NA
"A1P0XSCJ9XAV74","Thu Jan 30 2020 07:26:07 GMT-0600 (Central Standard Time)","Thu Jan 30 2020 07:33:14 GMT-0600 (Central Standard Time)","Mozilla/5.0 (Windows NT 10.0; Win64; x64) AppleWebKit/537.36 (KHTML, like Gecko) Chrome/79.0.3945.117 Safari/537.36",77,"[0.9, 0.5, 0.1]","[0.8, 0.4, 0.2]","[u'black', u'red', u'blue']","[u'left', u'middle', u'right']","[0.9, 0.5, 0.1]","[u'high', u'medium', u'low']","black",49,"left","high","True","False",608,5300,NA
"A1P0XSCJ9XAV74","Thu Jan 30 2020 07:26:07 GMT-0600 (Central Standard Time)","Thu Jan 30 2020 07:33:14 GMT-0600 (Central Standard Time)","Mozilla/5.0 (Windows NT 10.0; Win64; x64) AppleWebKit/537.36 (KHTML, like Gecko) Chrome/79.0.3945.117 Safari/537.36",78,"[0.9, 0.5, 0.1]","[0.8, 0.4, 0.2]","[u'black', u'red', u'blue']","[u'left', u'middle', u'right']","[0.9, 0.5, 0.1]","[u'high', u'medium', u'low']","black",49,"left","high","True","True",391,5400,NA
"A1P0XSCJ9XAV74","Thu Jan 30 2020 07:26:07 GMT-0600 (Central Standard Time)","Thu Jan 30 2020 07:33:14 GMT-0600 (Central Standard Time)","Mozilla/5.0 (Windows NT 10.0; Win64; x64) AppleWebKit/537.36 (KHTML, like Gecko) Chrome/79.0.3945.117 Safari/537.36",79,"[0.9, 0.5, 0.1]","[0.8, 0.4, 0.2]","[u'black', u'red', u'blue']","[u'left', u'middle', u'right']","[0.9, 0.5, 0.1]","[u'medium', u'low', u'high']","black",49,"left","medium","True","False",468,5500,NA
"A1P0XSCJ9XAV74","Thu Jan 30 2020 07:26:07 GMT-0600 (Central Standard Time)","Thu Jan 30 2020 07:33:14 GMT-0600 (Central Standard Time)","Mozilla/5.0 (Windows NT 10.0; Win64; x64) AppleWebKit/537.36 (KHTML, like Gecko) Chrome/79.0.3945.117 Safari/537.36",80,"[0.9, 0.5, 0.1]","[0.8, 0.4, 0.2]","[u'black', u'red', u'blue']","[u'left', u'middle', u'right']","[0.9, 0.5, 0.1]","[u'medium', u'low', u'high']","black",49,"left","medium","False","False",458,5450,NA
"A1P0XSCJ9XAV74","Thu Jan 30 2020 07:26:07 GMT-0600 (Central Standard Time)","Thu Jan 30 2020 07:33:14 GMT-0600 (Central Standard Time)","Mozilla/5.0 (Windows NT 10.0; Win64; x64) AppleWebKit/537.36 (KHTML, like Gecko) Chrome/79.0.3945.117 Safari/537.36",81,"[0.9, 0.5, 0.1]","[0.8, 0.4, 0.2]","[u'black', u'red', u'blue']","[u'left', u'middle', u'right']","[0.8, 0.4, 0.2]","[u'medium', u'high', u'low']","red",50,"middle","high","True","False",1272,5550,NA
"A1P0XSCJ9XAV74","Thu Jan 30 2020 07:26:07 GMT-0600 (Central Standard Time)","Thu Jan 30 2020 07:33:14 GMT-0600 (Central Standard Time)","Mozilla/5.0 (Windows NT 10.0; Win64; x64) AppleWebKit/537.36 (KHTML, like Gecko) Chrome/79.0.3945.117 Safari/537.36",82,"[0.9, 0.5, 0.1]","[0.8, 0.4, 0.2]","[u'black', u'red', u'blue']","[u'left', u'middle', u'right']","[0.8, 0.4, 0.2]","[u'medium', u'high', u'low']","red",50,"middle","high","True","False",274,5650,NA
"A1P0XSCJ9XAV74","Thu Jan 30 2020 07:26:07 GMT-0600 (Central Standard Time)","Thu Jan 30 2020 07:33:14 GMT-0600 (Central Standard Time)","Mozilla/5.0 (Windows NT 10.0; Win64; x64) AppleWebKit/537.36 (KHTML, like Gecko) Chrome/79.0.3945.117 Safari/537.36",83,"[0.9, 0.5, 0.1]","[0.8, 0.4, 0.2]","[u'black', u'red', u'blue']","[u'left', u'middle', u'right']","[0.8, 0.4, 0.2]","[u'medium', u'high', u'low']","red",50,"middle","high","False","False",387,5600,NA
"A1P0XSCJ9XAV74","Thu Jan 30 2020 07:26:07 GMT-0600 (Central Standard Time)","Thu Jan 30 2020 07:33:14 GMT-0600 (Central Standard Time)","Mozilla/5.0 (Windows NT 10.0; Win64; x64) AppleWebKit/537.36 (KHTML, like Gecko) Chrome/79.0.3945.117 Safari/537.36",84,"[0.9, 0.5, 0.1]","[0.8, 0.4, 0.2]","[u'black', u'red', u'blue']","[u'left', u'middle', u'right']","[0.8, 0.4, 0.2]","[u'medium', u'high', u'low']","blue",51,"right","low","False","False",288,5550,NA
"A1P0XSCJ9XAV74","Thu Jan 30 2020 07:26:07 GMT-0600 (Central Standard Time)","Thu Jan 30 2020 07:33:14 GMT-0600 (Central Standard Time)","Mozilla/5.0 (Windows NT 10.0; Win64; x64) AppleWebKit/537.36 (KHTML, like Gecko) Chrome/79.0.3945.117 Safari/537.36",85,"[0.9, 0.5, 0.1]","[0.8, 0.4, 0.2]","[u'black', u'red', u'blue']","[u'left', u'middle', u'right']","[0.8, 0.4, 0.2]","[u'medium', u'high', u'low']","black",49,"left","medium","True","False",360,5650,NA
"A1P0XSCJ9XAV74","Thu Jan 30 2020 07:26:07 GMT-0600 (Central Standard Time)","Thu Jan 30 2020 07:33:14 GMT-0600 (Central Standard Time)","Mozilla/5.0 (Windows NT 10.0; Win64; x64) AppleWebKit/537.36 (KHTML, like Gecko) Chrome/79.0.3945.117 Safari/537.36",86,"[0.9, 0.5, 0.1]","[0.8, 0.4, 0.2]","[u'black', u'red', u'blue']","[u'left', u'middle', u'right']","[0.8, 0.4, 0.2]","[u'medium', u'high', u'low']","black",49,"left","medium","False","False",469,5600,NA
"A1P0XSCJ9XAV74","Thu Jan 30 2020 07:26:07 GMT-0600 (Central Standard Time)","Thu Jan 30 2020 07:33:14 GMT-0600 (Central Standard Time)","Mozilla/5.0 (Windows NT 10.0; Win64; x64) AppleWebKit/537.36 (KHTML, like Gecko) Chrome/79.0.3945.117 Safari/537.36",87,"[0.9, 0.5, 0.1]","[0.8, 0.4, 0.2]","[u'black', u'red', u'blue']","[u'left', u'middle', u'right']","[0.8, 0.4, 0.2]","[u'medium', u'high', u'low']","red",50,"middle","high","True","False",267,5700,NA
"A1P0XSCJ9XAV74","Thu Jan 30 2020 07:26:07 GMT-0600 (Central Standard Time)","Thu Jan 30 2020 07:33:14 GMT-0600 (Central Standard Time)","Mozilla/5.0 (Windows NT 10.0; Win64; x64) AppleWebKit/537.36 (KHTML, like Gecko) Chrome/79.0.3945.117 Safari/537.36",88,"[0.9, 0.5, 0.1]","[0.8, 0.4, 0.2]","[u'black', u'red', u'blue']","[u'left', u'middle', u'right']","[0.8, 0.4, 0.2]","[u'medium', u'high', u'low']","red",50,"middle","high","True","False",282,5800,NA
"A1P0XSCJ9XAV74","Thu Jan 30 2020 07:26:07 GMT-0600 (Central Standard Time)","Thu Jan 30 2020 07:33:14 GMT-0600 (Central Standard Time)","Mozilla/5.0 (Windows NT 10.0; Win64; x64) AppleWebKit/537.36 (KHTML, like Gecko) Chrome/79.0.3945.117 Safari/537.36",89,"[0.9, 0.5, 0.1]","[0.8, 0.4, 0.2]","[u'black', u'red', u'blue']","[u'left', u'middle', u'right']","[0.8, 0.4, 0.2]","[u'medium', u'high', u'low']","red",50,"middle","high","True","False",302,5900,NA
"A1P0XSCJ9XAV74","Thu Jan 30 2020 07:26:07 GMT-0600 (Central Standard Time)","Thu Jan 30 2020 07:33:14 GMT-0600 (Central Standard Time)","Mozilla/5.0 (Windows NT 10.0; Win64; x64) AppleWebKit/537.36 (KHTML, like Gecko) Chrome/79.0.3945.117 Safari/537.36",90,"[0.9, 0.5, 0.1]","[0.8, 0.4, 0.2]","[u'black', u'red', u'blue']","[u'left', u'middle', u'right']","[0.8, 0.4, 0.2]","[u'medium', u'high', u'low']","red",50,"middle","high","True","False",423,6000,NA
"A1P0XSCJ9XAV74","Thu Jan 30 2020 07:26:07 GMT-0600 (Central Standard Time)","Thu Jan 30 2020 07:33:14 GMT-0600 (Central Standard Time)","Mozilla/5.0 (Windows NT 10.0; Win64; x64) AppleWebKit/537.36 (KHTML, like Gecko) Chrome/79.0.3945.117 Safari/537.36",91,"[0.9, 0.5, 0.1]","[0.8, 0.4, 0.2]","[u'black', u'red', u'blue']","[u'left', u'middle', u'right']","[0.8, 0.4, 0.2]","[u'medium', u'high', u'low']","red",50,"middle","high","True","False",492,6100,NA
"A1P0XSCJ9XAV74","Thu Jan 30 2020 07:26:07 GMT-0600 (Central Standard Time)","Thu Jan 30 2020 07:33:14 GMT-0600 (Central Standard Time)","Mozilla/5.0 (Windows NT 10.0; Win64; x64) AppleWebKit/537.36 (KHTML, like Gecko) Chrome/79.0.3945.117 Safari/537.36",92,"[0.9, 0.5, 0.1]","[0.8, 0.4, 0.2]","[u'black', u'red', u'blue']","[u'left', u'middle', u'right']","[0.8, 0.4, 0.2]","[u'medium', u'high', u'low']","red",50,"middle","high","False","False",417,6050,NA
"A1P0XSCJ9XAV74","Thu Jan 30 2020 07:26:07 GMT-0600 (Central Standard Time)","Thu Jan 30 2020 07:33:14 GMT-0600 (Central Standard Time)","Mozilla/5.0 (Windows NT 10.0; Win64; x64) AppleWebKit/537.36 (KHTML, like Gecko) Chrome/79.0.3945.117 Safari/537.36",93,"[0.9, 0.5, 0.1]","[0.8, 0.4, 0.2]","[u'black', u'red', u'blue']","[u'left', u'middle', u'right']","[0.8, 0.4, 0.2]","[u'medium', u'high', u'low']","black",49,"left","medium","False","False",271,6000,NA
"A1P0XSCJ9XAV74","Thu Jan 30 2020 07:26:07 GMT-0600 (Central Standard Time)","Thu Jan 30 2020 07:33:14 GMT-0600 (Central Standard Time)","Mozilla/5.0 (Windows NT 10.0; Win64; x64) AppleWebKit/537.36 (KHTML, like Gecko) Chrome/79.0.3945.117 Safari/537.36",94,"[0.9, 0.5, 0.1]","[0.8, 0.4, 0.2]","[u'black', u'red', u'blue']","[u'left', u'middle', u'right']","[0.8, 0.4, 0.2]","[u'medium', u'high', u'low']","blue",51,"right","low","True","False",451,6100,NA
"A1P0XSCJ9XAV74","Thu Jan 30 2020 07:26:07 GMT-0600 (Central Standard Time)","Thu Jan 30 2020 07:33:14 GMT-0600 (Central Standard Time)","Mozilla/5.0 (Windows NT 10.0; Win64; x64) AppleWebKit/537.36 (KHTML, like Gecko) Chrome/79.0.3945.117 Safari/537.36",95,"[0.9, 0.5, 0.1]","[0.8, 0.4, 0.2]","[u'black', u'red', u'blue']","[u'left', u'middle', u'right']","[0.8, 0.4, 0.2]","[u'medium', u'high', u'low']","blue",51,"right","low","True","False",284,6200,NA
"A1P0XSCJ9XAV74","Thu Jan 30 2020 07:26:07 GMT-0600 (Central Standard Time)","Thu Jan 30 2020 07:33:14 GMT-0600 (Central Standard Time)","Mozilla/5.0 (Windows NT 10.0; Win64; x64) AppleWebKit/537.36 (KHTML, like Gecko) Chrome/79.0.3945.117 Safari/537.36",96,"[0.9, 0.5, 0.1]","[0.8, 0.4, 0.2]","[u'black', u'red', u'blue']","[u'left', u'middle', u'right']","[0.8, 0.4, 0.2]","[u'medium', u'high', u'low']","blue",51,"right","low","True","False",565,6300,NA
"A1P0XSCJ9XAV74","Thu Jan 30 2020 07:26:07 GMT-0600 (Central Standard Time)","Thu Jan 30 2020 07:33:14 GMT-0600 (Central Standard Time)","Mozilla/5.0 (Windows NT 10.0; Win64; x64) AppleWebKit/537.36 (KHTML, like Gecko) Chrome/79.0.3945.117 Safari/537.36",97,"[0.9, 0.5, 0.1]","[0.8, 0.4, 0.2]","[u'black', u'red', u'blue']","[u'left', u'middle', u'right']","[0.8, 0.4, 0.2]","[u'medium', u'high', u'low']","blue",51,"right","low","False","False",539,6250,NA
"A1P0XSCJ9XAV74","Thu Jan 30 2020 07:26:07 GMT-0600 (Central Standard Time)","Thu Jan 30 2020 07:33:14 GMT-0600 (Central Standard Time)","Mozilla/5.0 (Windows NT 10.0; Win64; x64) AppleWebKit/537.36 (KHTML, like Gecko) Chrome/79.0.3945.117 Safari/537.36",98,"[0.9, 0.5, 0.1]","[0.8, 0.4, 0.2]","[u'black', u'red', u'blue']","[u'left', u'middle', u'right']","[0.8, 0.4, 0.2]","[u'medium', u'high', u'low']","black",49,"left","medium","True","False",227,6350,NA
"A1P0XSCJ9XAV74","Thu Jan 30 2020 07:26:07 GMT-0600 (Central Standard Time)","Thu Jan 30 2020 07:33:14 GMT-0600 (Central Standard Time)","Mozilla/5.0 (Windows NT 10.0; Win64; x64) AppleWebKit/537.36 (KHTML, like Gecko) Chrome/79.0.3945.117 Safari/537.36",99,"[0.9, 0.5, 0.1]","[0.8, 0.4, 0.2]","[u'black', u'red', u'blue']","[u'left', u'middle', u'right']","[0.8, 0.4, 0.2]","[u'medium', u'high', u'low']","black",49,"left","medium","True","False",341,6450,NA
"A1P0XSCJ9XAV74","Thu Jan 30 2020 07:26:07 GMT-0600 (Central Standard Time)","Thu Jan 30 2020 07:33:14 GMT-0600 (Central Standard Time)","Mozilla/5.0 (Windows NT 10.0; Win64; x64) AppleWebKit/537.36 (KHTML, like Gecko) Chrome/79.0.3945.117 Safari/537.36",100,"[0.9, 0.5, 0.1]","[0.8, 0.4, 0.2]","[u'black', u'red', u'blue']","[u'left', u'middle', u'right']","[0.8, 0.4, 0.2]","[u'medium', u'high', u'low']","black",49,"left","medium","True","False",363,6550,NA
"A1P0XSCJ9XAV74","Thu Jan 30 2020 07:26:07 GMT-0600 (Central Standard Time)","Thu Jan 30 2020 07:33:14 GMT-0600 (Central Standard Time)","Mozilla/5.0 (Windows NT 10.0; Win64; x64) AppleWebKit/537.36 (KHTML, like Gecko) Chrome/79.0.3945.117 Safari/537.36",101,"[0.9, 0.5, 0.1]","[0.8, 0.4, 0.2]","[u'black', u'red', u'blue']","[u'left', u'middle', u'right']","[0.8, 0.4, 0.2]","[u'medium', u'high', u'low']","black",49,"left","medium","True","False",412,6650,NA
"A1P0XSCJ9XAV74","Thu Jan 30 2020 07:26:07 GMT-0600 (Central Standard Time)","Thu Jan 30 2020 07:33:14 GMT-0600 (Central Standard Time)","Mozilla/5.0 (Windows NT 10.0; Win64; x64) AppleWebKit/537.36 (KHTML, like Gecko) Chrome/79.0.3945.117 Safari/537.36",102,"[0.9, 0.5, 0.1]","[0.8, 0.4, 0.2]","[u'black', u'red', u'blue']","[u'left', u'middle', u'right']","[0.8, 0.4, 0.2]","[u'medium', u'high', u'low']","black",49,"left","medium","True","False",770,6750,NA
"A1P0XSCJ9XAV74","Thu Jan 30 2020 07:26:07 GMT-0600 (Central Standard Time)","Thu Jan 30 2020 07:33:14 GMT-0600 (Central Standard Time)","Mozilla/5.0 (Windows NT 10.0; Win64; x64) AppleWebKit/537.36 (KHTML, like Gecko) Chrome/79.0.3945.117 Safari/537.36",103,"[0.9, 0.5, 0.1]","[0.8, 0.4, 0.2]","[u'black', u'red', u'blue']","[u'left', u'middle', u'right']","[0.8, 0.4, 0.2]","[u'medium', u'high', u'low']","black",49,"left","medium","False","False",542,6700,NA
"A1P0XSCJ9XAV74","Thu Jan 30 2020 07:26:07 GMT-0600 (Central Standard Time)","Thu Jan 30 2020 07:33:14 GMT-0600 (Central Standard Time)","Mozilla/5.0 (Windows NT 10.0; Win64; x64) AppleWebKit/537.36 (KHTML, like Gecko) Chrome/79.0.3945.117 Safari/537.36",104,"[0.9, 0.5, 0.1]","[0.8, 0.4, 0.2]","[u'black', u'red', u'blue']","[u'left', u'middle', u'right']","[0.8, 0.4, 0.2]","[u'medium', u'high', u'low']","red",50,"middle","high","False","False",337,6650,NA
"A1P0XSCJ9XAV74","Thu Jan 30 2020 07:26:07 GMT-0600 (Central Standard Time)","Thu Jan 30 2020 07:33:14 GMT-0600 (Central Standard Time)","Mozilla/5.0 (Windows NT 10.0; Win64; x64) AppleWebKit/537.36 (KHTML, like Gecko) Chrome/79.0.3945.117 Safari/537.36",105,"[0.9, 0.5, 0.1]","[0.8, 0.4, 0.2]","[u'black', u'red', u'blue']","[u'left', u'middle', u'right']","[0.8, 0.4, 0.2]","[u'medium', u'high', u'low']","blue",51,"right","low","False","False",311,6600,NA
"A1P0XSCJ9XAV74","Thu Jan 30 2020 07:26:07 GMT-0600 (Central Standard Time)","Thu Jan 30 2020 07:33:14 GMT-0600 (Central Standard Time)","Mozilla/5.0 (Windows NT 10.0; Win64; x64) AppleWebKit/537.36 (KHTML, like Gecko) Chrome/79.0.3945.117 Safari/537.36",106,"[0.9, 0.5, 0.1]","[0.8, 0.4, 0.2]","[u'black', u'red', u'blue']","[u'left', u'middle', u'right']","[0.8, 0.4, 0.2]","[u'medium', u'high', u'low']","red",50,"middle","high","True","False",358,6700,NA
"A1P0XSCJ9XAV74","Thu Jan 30 2020 07:26:07 GMT-0600 (Central Standard Time)","Thu Jan 30 2020 07:33:14 GMT-0600 (Central Standard Time)","Mozilla/5.0 (Windows NT 10.0; Win64; x64) AppleWebKit/537.36 (KHTML, like Gecko) Chrome/79.0.3945.117 Safari/537.36",107,"[0.9, 0.5, 0.1]","[0.8, 0.4, 0.2]","[u'black', u'red', u'blue']","[u'left', u'middle', u'right']","[0.8, 0.4, 0.2]","[u'medium', u'high', u'low']","red",50,"middle","high","True","False",361,6800,NA
"A1P0XSCJ9XAV74","Thu Jan 30 2020 07:26:07 GMT-0600 (Central Standard Time)","Thu Jan 30 2020 07:33:14 GMT-0600 (Central Standard Time)","Mozilla/5.0 (Windows NT 10.0; Win64; x64) AppleWebKit/537.36 (KHTML, like Gecko) Chrome/79.0.3945.117 Safari/537.36",108,"[0.9, 0.5, 0.1]","[0.8, 0.4, 0.2]","[u'black', u'red', u'blue']","[u'left', u'middle', u'right']","[0.8, 0.4, 0.2]","[u'medium', u'high', u'low']","red",50,"middle","high","True","False",299,6900,NA
"A1P0XSCJ9XAV74","Thu Jan 30 2020 07:26:07 GMT-0600 (Central Standard Time)","Thu Jan 30 2020 07:33:14 GMT-0600 (Central Standard Time)","Mozilla/5.0 (Windows NT 10.0; Win64; x64) AppleWebKit/537.36 (KHTML, like Gecko) Chrome/79.0.3945.117 Safari/537.36",109,"[0.9, 0.5, 0.1]","[0.8, 0.4, 0.2]","[u'black', u'red', u'blue']","[u'left', u'middle', u'right']","[0.8, 0.4, 0.2]","[u'medium', u'high', u'low']","red",50,"middle","high","True","False",272,7000,NA
"A1P0XSCJ9XAV74","Thu Jan 30 2020 07:26:07 GMT-0600 (Central Standard Time)","Thu Jan 30 2020 07:33:14 GMT-0600 (Central Standard Time)","Mozilla/5.0 (Windows NT 10.0; Win64; x64) AppleWebKit/537.36 (KHTML, like Gecko) Chrome/79.0.3945.117 Safari/537.36",110,"[0.9, 0.5, 0.1]","[0.8, 0.4, 0.2]","[u'black', u'red', u'blue']","[u'left', u'middle', u'right']","[0.8, 0.4, 0.2]","[u'medium', u'high', u'low']","red",50,"middle","high","True","False",407,7100,NA
"A1P0XSCJ9XAV74","Thu Jan 30 2020 07:26:07 GMT-0600 (Central Standard Time)","Thu Jan 30 2020 07:33:14 GMT-0600 (Central Standard Time)","Mozilla/5.0 (Windows NT 10.0; Win64; x64) AppleWebKit/537.36 (KHTML, like Gecko) Chrome/79.0.3945.117 Safari/537.36",111,"[0.9, 0.5, 0.1]","[0.8, 0.4, 0.2]","[u'black', u'red', u'blue']","[u'left', u'middle', u'right']","[0.8, 0.4, 0.2]","[u'medium', u'high', u'low']","red",50,"middle","high","True","False",352,7200,NA
"A1P0XSCJ9XAV74","Thu Jan 30 2020 07:26:07 GMT-0600 (Central Standard Time)","Thu Jan 30 2020 07:33:14 GMT-0600 (Central Standard Time)","Mozilla/5.0 (Windows NT 10.0; Win64; x64) AppleWebKit/537.36 (KHTML, like Gecko) Chrome/79.0.3945.117 Safari/537.36",112,"[0.9, 0.5, 0.1]","[0.8, 0.4, 0.2]","[u'black', u'red', u'blue']","[u'left', u'middle', u'right']","[0.8, 0.4, 0.2]","[u'medium', u'high', u'low']","red",50,"middle","high","True","False",396,7300,NA
"A1P0XSCJ9XAV74","Thu Jan 30 2020 07:26:07 GMT-0600 (Central Standard Time)","Thu Jan 30 2020 07:33:14 GMT-0600 (Central Standard Time)","Mozilla/5.0 (Windows NT 10.0; Win64; x64) AppleWebKit/537.36 (KHTML, like Gecko) Chrome/79.0.3945.117 Safari/537.36",113,"[0.9, 0.5, 0.1]","[0.8, 0.4, 0.2]","[u'black', u'red', u'blue']","[u'left', u'middle', u'right']","[0.8, 0.4, 0.2]","[u'medium', u'high', u'low']","red",50,"middle","high","True","True",333,7400,NA
"A1P0XSCJ9XAV74","Thu Jan 30 2020 07:26:07 GMT-0600 (Central Standard Time)","Thu Jan 30 2020 07:33:14 GMT-0600 (Central Standard Time)","Mozilla/5.0 (Windows NT 10.0; Win64; x64) AppleWebKit/537.36 (KHTML, like Gecko) Chrome/79.0.3945.117 Safari/537.36",114,"[0.9, 0.5, 0.1]","[0.8, 0.4, 0.2]","[u'black', u'red', u'blue']","[u'left', u'middle', u'right']","[0.8, 0.4, 0.2]","[u'high', u'medium', u'low']","red",50,"middle","medium","False","False",612,7350,NA
"A1P0XSCJ9XAV74","Thu Jan 30 2020 07:26:07 GMT-0600 (Central Standard Time)","Thu Jan 30 2020 07:33:14 GMT-0600 (Central Standard Time)","Mozilla/5.0 (Windows NT 10.0; Win64; x64) AppleWebKit/537.36 (KHTML, like Gecko) Chrome/79.0.3945.117 Safari/537.36",115,"[0.9, 0.5, 0.1]","[0.8, 0.4, 0.2]","[u'black', u'red', u'blue']","[u'left', u'middle', u'right']","[0.8, 0.4, 0.2]","[u'high', u'medium', u'low']","blue",51,"right","low","False","False",1190,7300,NA
"A1P0XSCJ9XAV74","Thu Jan 30 2020 07:26:07 GMT-0600 (Central Standard Time)","Thu Jan 30 2020 07:33:14 GMT-0600 (Central Standard Time)","Mozilla/5.0 (Windows NT 10.0; Win64; x64) AppleWebKit/537.36 (KHTML, like Gecko) Chrome/79.0.3945.117 Safari/537.36",116,"[0.9, 0.5, 0.1]","[0.8, 0.4, 0.2]","[u'black', u'red', u'blue']","[u'left', u'middle', u'right']","[0.8, 0.4, 0.2]","[u'high', u'medium', u'low']","black",49,"left","high","False","False",322,7250,NA
"A1P0XSCJ9XAV74","Thu Jan 30 2020 07:26:07 GMT-0600 (Central Standard Time)","Thu Jan 30 2020 07:33:14 GMT-0600 (Central Standard Time)","Mozilla/5.0 (Windows NT 10.0; Win64; x64) AppleWebKit/537.36 (KHTML, like Gecko) Chrome/79.0.3945.117 Safari/537.36",117,"[0.9, 0.5, 0.1]","[0.8, 0.4, 0.2]","[u'black', u'red', u'blue']","[u'left', u'middle', u'right']","[0.8, 0.4, 0.2]","[u'high', u'medium', u'low']","red",50,"middle","medium","False","False",332,7200,NA
"A1P0XSCJ9XAV74","Thu Jan 30 2020 07:26:07 GMT-0600 (Central Standard Time)","Thu Jan 30 2020 07:33:14 GMT-0600 (Central Standard Time)","Mozilla/5.0 (Windows NT 10.0; Win64; x64) AppleWebKit/537.36 (KHTML, like Gecko) Chrome/79.0.3945.117 Safari/537.36",118,"[0.9, 0.5, 0.1]","[0.8, 0.4, 0.2]","[u'black', u'red', u'blue']","[u'left', u'middle', u'right']","[0.8, 0.4, 0.2]","[u'high', u'medium', u'low']","black",49,"left","high","True","False",303,7300,NA
"A1P0XSCJ9XAV74","Thu Jan 30 2020 07:26:07 GMT-0600 (Central Standard Time)","Thu Jan 30 2020 07:33:14 GMT-0600 (Central Standard Time)","Mozilla/5.0 (Windows NT 10.0; Win64; x64) AppleWebKit/537.36 (KHTML, like Gecko) Chrome/79.0.3945.117 Safari/537.36",119,"[0.9, 0.5, 0.1]","[0.8, 0.4, 0.2]","[u'black', u'red', u'blue']","[u'left', u'middle', u'right']","[0.8, 0.4, 0.2]","[u'high', u'medium', u'low']","black",49,"left","high","True","False",312,7400,NA
"A1P0XSCJ9XAV74","Thu Jan 30 2020 07:26:07 GMT-0600 (Central Standard Time)","Thu Jan 30 2020 07:33:14 GMT-0600 (Central Standard Time)","Mozilla/5.0 (Windows NT 10.0; Win64; x64) AppleWebKit/537.36 (KHTML, like Gecko) Chrome/79.0.3945.117 Safari/537.36",120,"[0.9, 0.5, 0.1]","[0.8, 0.4, 0.2]","[u'black', u'red', u'blue']","[u'left', u'middle', u'right']","[0.8, 0.4, 0.2]","[u'high', u'medium', u'low']","black",49,"left","high","True","False",318,7500,NA
"A1P0XSCJ9XAV74","Thu Jan 30 2020 07:26:07 GMT-0600 (Central Standard Time)","Thu Jan 30 2020 07:33:14 GMT-0600 (Central Standard Time)","Mozilla/5.0 (Windows NT 10.0; Win64; x64) AppleWebKit/537.36 (KHTML, like Gecko) Chrome/79.0.3945.117 Safari/537.36",121,"[0.9, 0.5, 0.1]","[0.8, 0.4, 0.2]","[u'black', u'red', u'blue']","[u'left', u'middle', u'right']","[0.8, 0.4, 0.2]","[u'medium', u'high', u'low']","black",49,"left","medium","True","False",1138,7600,NA
"A1P0XSCJ9XAV74","Thu Jan 30 2020 07:26:07 GMT-0600 (Central Standard Time)","Thu Jan 30 2020 07:33:14 GMT-0600 (Central Standard Time)","Mozilla/5.0 (Windows NT 10.0; Win64; x64) AppleWebKit/537.36 (KHTML, like Gecko) Chrome/79.0.3945.117 Safari/537.36",122,"[0.9, 0.5, 0.1]","[0.8, 0.4, 0.2]","[u'black', u'red', u'blue']","[u'left', u'middle', u'right']","[0.8, 0.4, 0.2]","[u'medium', u'high', u'low']","black",49,"left","medium","True","False",422,7700,NA
"A1P0XSCJ9XAV74","Thu Jan 30 2020 07:26:07 GMT-0600 (Central Standard Time)","Thu Jan 30 2020 07:33:14 GMT-0600 (Central Standard Time)","Mozilla/5.0 (Windows NT 10.0; Win64; x64) AppleWebKit/537.36 (KHTML, like Gecko) Chrome/79.0.3945.117 Safari/537.36",123,"[0.9, 0.5, 0.1]","[0.8, 0.4, 0.2]","[u'black', u'red', u'blue']","[u'left', u'middle', u'right']","[0.8, 0.4, 0.2]","[u'medium', u'high', u'low']","black",49,"left","medium","False","False",378,7650,NA
"A1P0XSCJ9XAV74","Thu Jan 30 2020 07:26:07 GMT-0600 (Central Standard Time)","Thu Jan 30 2020 07:33:14 GMT-0600 (Central Standard Time)","Mozilla/5.0 (Windows NT 10.0; Win64; x64) AppleWebKit/537.36 (KHTML, like Gecko) Chrome/79.0.3945.117 Safari/537.36",124,"[0.9, 0.5, 0.1]","[0.8, 0.4, 0.2]","[u'black', u'red', u'blue']","[u'left', u'middle', u'right']","[0.8, 0.4, 0.2]","[u'medium', u'high', u'low']","blue",51,"right","low","False","False",337,7600,NA
"A1P0XSCJ9XAV74","Thu Jan 30 2020 07:26:07 GMT-0600 (Central Standard Time)","Thu Jan 30 2020 07:33:14 GMT-0600 (Central Standard Time)","Mozilla/5.0 (Windows NT 10.0; Win64; x64) AppleWebKit/537.36 (KHTML, like Gecko) Chrome/79.0.3945.117 Safari/537.36",125,"[0.9, 0.5, 0.1]","[0.8, 0.4, 0.2]","[u'black', u'red', u'blue']","[u'left', u'middle', u'right']","[0.8, 0.4, 0.2]","[u'medium', u'high', u'low']","red",50,"middle","high","True","False",284,7700,NA
"A1P0XSCJ9XAV74","Thu Jan 30 2020 07:26:07 GMT-0600 (Central Standard Time)","Thu Jan 30 2020 07:33:14 GMT-0600 (Central Standard Time)","Mozilla/5.0 (Windows NT 10.0; Win64; x64) AppleWebKit/537.36 (KHTML, like Gecko) Chrome/79.0.3945.117 Safari/537.36",126,"[0.9, 0.5, 0.1]","[0.8, 0.4, 0.2]","[u'black', u'red', u'blue']","[u'left', u'middle', u'right']","[0.8, 0.4, 0.2]","[u'medium', u'high', u'low']","red",50,"middle","high","True","False",244,7800,NA
"A1P0XSCJ9XAV74","Thu Jan 30 2020 07:26:07 GMT-0600 (Central Standard Time)","Thu Jan 30 2020 07:33:14 GMT-0600 (Central Standard Time)","Mozilla/5.0 (Windows NT 10.0; Win64; x64) AppleWebKit/537.36 (KHTML, like Gecko) Chrome/79.0.3945.117 Safari/537.36",127,"[0.9, 0.5, 0.1]","[0.8, 0.4, 0.2]","[u'black', u'red', u'blue']","[u'left', u'middle', u'right']","[0.8, 0.4, 0.2]","[u'medium', u'high', u'low']","red",50,"middle","high","True","False",332,7900,NA
"A1P0XSCJ9XAV74","Thu Jan 30 2020 07:26:07 GMT-0600 (Central Standard Time)","Thu Jan 30 2020 07:33:14 GMT-0600 (Central Standard Time)","Mozilla/5.0 (Windows NT 10.0; Win64; x64) AppleWebKit/537.36 (KHTML, like Gecko) Chrome/79.0.3945.117 Safari/537.36",128,"[0.9, 0.5, 0.1]","[0.8, 0.4, 0.2]","[u'black', u'red', u'blue']","[u'left', u'middle', u'right']","[0.8, 0.4, 0.2]","[u'medium', u'high', u'low']","red",50,"middle","high","False","False",262,7850,NA
"A1P0XSCJ9XAV74","Thu Jan 30 2020 07:26:07 GMT-0600 (Central Standard Time)","Thu Jan 30 2020 07:33:14 GMT-0600 (Central Standard Time)","Mozilla/5.0 (Windows NT 10.0; Win64; x64) AppleWebKit/537.36 (KHTML, like Gecko) Chrome/79.0.3945.117 Safari/537.36",129,"[0.9, 0.5, 0.1]","[0.8, 0.4, 0.2]","[u'black', u'red', u'blue']","[u'left', u'middle', u'right']","[0.8, 0.4, 0.2]","[u'medium', u'high', u'low']","black",49,"left","medium","True","False",284,7950,NA
"A1P0XSCJ9XAV74","Thu Jan 30 2020 07:26:07 GMT-0600 (Central Standard Time)","Thu Jan 30 2020 07:33:14 GMT-0600 (Central Standard Time)","Mozilla/5.0 (Windows NT 10.0; Win64; x64) AppleWebKit/537.36 (KHTML, like Gecko) Chrome/79.0.3945.117 Safari/537.36",130,"[0.9, 0.5, 0.1]","[0.8, 0.4, 0.2]","[u'black', u'red', u'blue']","[u'left', u'middle', u'right']","[0.8, 0.4, 0.2]","[u'medium', u'high', u'low']","black",49,"left","medium","False","False",484,7900,NA
"A1P0XSCJ9XAV74","Thu Jan 30 2020 07:26:07 GMT-0600 (Central Standard Time)","Thu Jan 30 2020 07:33:14 GMT-0600 (Central Standard Time)","Mozilla/5.0 (Windows NT 10.0; Win64; x64) AppleWebKit/537.36 (KHTML, like Gecko) Chrome/79.0.3945.117 Safari/537.36",131,"[0.9, 0.5, 0.1]","[0.8, 0.4, 0.2]","[u'black', u'red', u'blue']","[u'left', u'middle', u'right']","[0.8, 0.4, 0.2]","[u'medium', u'high', u'low']","blue",51,"right","low","False","False",243,7850,NA
"A1P0XSCJ9XAV74","Thu Jan 30 2020 07:26:07 GMT-0600 (Central Standard Time)","Thu Jan 30 2020 07:33:14 GMT-0600 (Central Standard Time)","Mozilla/5.0 (Windows NT 10.0; Win64; x64) AppleWebKit/537.36 (KHTML, like Gecko) Chrome/79.0.3945.117 Safari/537.36",132,"[0.9, 0.5, 0.1]","[0.8, 0.4, 0.2]","[u'black', u'red', u'blue']","[u'left', u'middle', u'right']","[0.8, 0.4, 0.2]","[u'medium', u'high', u'low']","red",50,"middle","high","True","False",222,7950,NA
"A1P0XSCJ9XAV74","Thu Jan 30 2020 07:26:07 GMT-0600 (Central Standard Time)","Thu Jan 30 2020 07:33:14 GMT-0600 (Central Standard Time)","Mozilla/5.0 (Windows NT 10.0; Win64; x64) AppleWebKit/537.36 (KHTML, like Gecko) Chrome/79.0.3945.117 Safari/537.36",133,"[0.9, 0.5, 0.1]","[0.8, 0.4, 0.2]","[u'black', u'red', u'blue']","[u'left', u'middle', u'right']","[0.8, 0.4, 0.2]","[u'medium', u'high', u'low']","red",50,"middle","high","False","False",268,7900,NA
"A1P0XSCJ9XAV74","Thu Jan 30 2020 07:26:07 GMT-0600 (Central Standard Time)","Thu Jan 30 2020 07:33:14 GMT-0600 (Central Standard Time)","Mozilla/5.0 (Windows NT 10.0; Win64; x64) AppleWebKit/537.36 (KHTML, like Gecko) Chrome/79.0.3945.117 Safari/537.36",134,"[0.9, 0.5, 0.1]","[0.8, 0.4, 0.2]","[u'black', u'red', u'blue']","[u'left', u'middle', u'right']","[0.8, 0.4, 0.2]","[u'medium', u'high', u'low']","black",49,"left","medium","False","False",267,7850,NA
"A1P0XSCJ9XAV74","Thu Jan 30 2020 07:26:07 GMT-0600 (Central Standard Time)","Thu Jan 30 2020 07:33:14 GMT-0600 (Central Standard Time)","Mozilla/5.0 (Windows NT 10.0; Win64; x64) AppleWebKit/537.36 (KHTML, like Gecko) Chrome/79.0.3945.117 Safari/537.36",135,"[0.9, 0.5, 0.1]","[0.8, 0.4, 0.2]","[u'black', u'red', u'blue']","[u'left', u'middle', u'right']","[0.8, 0.4, 0.2]","[u'medium', u'high', u'low']","blue",51,"right","low","False","False",347,7800,NA
"A1P0XSCJ9XAV74","Thu Jan 30 2020 07:26:07 GMT-0600 (Central Standard Time)","Thu Jan 30 2020 07:33:14 GMT-0600 (Central Standard Time)","Mozilla/5.0 (Windows NT 10.0; Win64; x64) AppleWebKit/537.36 (KHTML, like Gecko) Chrome/79.0.3945.117 Safari/537.36",136,"[0.9, 0.5, 0.1]","[0.8, 0.4, 0.2]","[u'black', u'red', u'blue']","[u'left', u'middle', u'right']","[0.8, 0.4, 0.2]","[u'medium', u'high', u'low']","red",50,"middle","high","False","False",317,7750,NA
"A1P0XSCJ9XAV74","Thu Jan 30 2020 07:26:07 GMT-0600 (Central Standard Time)","Thu Jan 30 2020 07:33:14 GMT-0600 (Central Standard Time)","Mozilla/5.0 (Windows NT 10.0; Win64; x64) AppleWebKit/537.36 (KHTML, like Gecko) Chrome/79.0.3945.117 Safari/537.36",137,"[0.9, 0.5, 0.1]","[0.8, 0.4, 0.2]","[u'black', u'red', u'blue']","[u'left', u'middle', u'right']","[0.8, 0.4, 0.2]","[u'medium', u'high', u'low']","black",49,"left","medium","True","False",468,7850,NA
"A1P0XSCJ9XAV74","Thu Jan 30 2020 07:26:07 GMT-0600 (Central Standard Time)","Thu Jan 30 2020 07:33:14 GMT-0600 (Central Standard Time)","Mozilla/5.0 (Windows NT 10.0; Win64; x64) AppleWebKit/537.36 (KHTML, like Gecko) Chrome/79.0.3945.117 Safari/537.36",138,"[0.9, 0.5, 0.1]","[0.8, 0.4, 0.2]","[u'black', u'red', u'blue']","[u'left', u'middle', u'right']","[0.8, 0.4, 0.2]","[u'medium', u'high', u'low']","black",49,"left","medium","True","False",562,7950,NA
"A1P0XSCJ9XAV74","Thu Jan 30 2020 07:26:07 GMT-0600 (Central Standard Time)","Thu Jan 30 2020 07:33:14 GMT-0600 (Central Standard Time)","Mozilla/5.0 (Windows NT 10.0; Win64; x64) AppleWebKit/537.36 (KHTML, like Gecko) Chrome/79.0.3945.117 Safari/537.36",139,"[0.9, 0.5, 0.1]","[0.8, 0.4, 0.2]","[u'black', u'red', u'blue']","[u'left', u'middle', u'right']","[0.8, 0.4, 0.2]","[u'medium', u'high', u'low']","black",49,"left","medium","False","False",486,7900,NA
"A1P0XSCJ9XAV74","Thu Jan 30 2020 07:26:07 GMT-0600 (Central Standard Time)","Thu Jan 30 2020 07:33:14 GMT-0600 (Central Standard Time)","Mozilla/5.0 (Windows NT 10.0; Win64; x64) AppleWebKit/537.36 (KHTML, like Gecko) Chrome/79.0.3945.117 Safari/537.36",140,"[0.9, 0.5, 0.1]","[0.8, 0.4, 0.2]","[u'black', u'red', u'blue']","[u'left', u'middle', u'right']","[0.8, 0.4, 0.2]","[u'medium', u'high', u'low']","blue",51,"right","low","False","False",298,7850,NA
"A1P0XSCJ9XAV74","Thu Jan 30 2020 07:26:07 GMT-0600 (Central Standard Time)","Thu Jan 30 2020 07:33:14 GMT-0600 (Central Standard Time)","Mozilla/5.0 (Windows NT 10.0; Win64; x64) AppleWebKit/537.36 (KHTML, like Gecko) Chrome/79.0.3945.117 Safari/537.36",141,"[0.9, 0.5, 0.1]","[0.8, 0.4, 0.2]","[u'black', u'red', u'blue']","[u'left', u'middle', u'right']","[0.8, 0.4, 0.2]","[u'medium', u'high', u'low']","red",50,"middle","high","True","False",298,7950,NA
"A1P0XSCJ9XAV74","Thu Jan 30 2020 07:26:07 GMT-0600 (Central Standard Time)","Thu Jan 30 2020 07:33:14 GMT-0600 (Central Standard Time)","Mozilla/5.0 (Windows NT 10.0; Win64; x64) AppleWebKit/537.36 (KHTML, like Gecko) Chrome/79.0.3945.117 Safari/537.36",142,"[0.9, 0.5, 0.1]","[0.8, 0.4, 0.2]","[u'black', u'red', u'blue']","[u'left', u'middle', u'right']","[0.8, 0.4, 0.2]","[u'medium', u'high', u'low']","red",50,"middle","high","True","False",277,8050,NA
"A1P0XSCJ9XAV74","Thu Jan 30 2020 07:26:07 GMT-0600 (Central Standard Time)","Thu Jan 30 2020 07:33:14 GMT-0600 (Central Standard Time)","Mozilla/5.0 (Windows NT 10.0; Win64; x64) AppleWebKit/537.36 (KHTML, like Gecko) Chrome/79.0.3945.117 Safari/537.36",143,"[0.9, 0.5, 0.1]","[0.8, 0.4, 0.2]","[u'black', u'red', u'blue']","[u'left', u'middle', u'right']","[0.8, 0.4, 0.2]","[u'medium', u'high', u'low']","red",50,"middle","high","True","False",414,8150,NA
"A1P0XSCJ9XAV74","Thu Jan 30 2020 07:26:07 GMT-0600 (Central Standard Time)","Thu Jan 30 2020 07:33:14 GMT-0600 (Central Standard Time)","Mozilla/5.0 (Windows NT 10.0; Win64; x64) AppleWebKit/537.36 (KHTML, like Gecko) Chrome/79.0.3945.117 Safari/537.36",144,"[0.9, 0.5, 0.1]","[0.8, 0.4, 0.2]","[u'black', u'red', u'blue']","[u'left', u'middle', u'right']","[0.8, 0.4, 0.2]","[u'medium', u'high', u'low']","red",50,"middle","high","True","False",692,8250,NA
"A1P0XSCJ9XAV74","Thu Jan 30 2020 07:26:07 GMT-0600 (Central Standard Time)","Thu Jan 30 2020 07:33:14 GMT-0600 (Central Standard Time)","Mozilla/5.0 (Windows NT 10.0; Win64; x64) AppleWebKit/537.36 (KHTML, like Gecko) Chrome/79.0.3945.117 Safari/537.36",145,"[0.9, 0.5, 0.1]","[0.8, 0.4, 0.2]","[u'black', u'red', u'blue']","[u'left', u'middle', u'right']","[0.8, 0.4, 0.2]","[u'medium', u'high', u'low']","red",50,"middle","high","True","False",456,8350,NA
"A1P0XSCJ9XAV74","Thu Jan 30 2020 07:26:07 GMT-0600 (Central Standard Time)","Thu Jan 30 2020 07:33:14 GMT-0600 (Central Standard Time)","Mozilla/5.0 (Windows NT 10.0; Win64; x64) AppleWebKit/537.36 (KHTML, like Gecko) Chrome/79.0.3945.117 Safari/537.36",146,"[0.9, 0.5, 0.1]","[0.8, 0.4, 0.2]","[u'black', u'red', u'blue']","[u'left', u'middle', u'right']","[0.8, 0.4, 0.2]","[u'medium', u'high', u'low']","red",50,"middle","high","True","False",467,8450,NA
"A1P0XSCJ9XAV74","Thu Jan 30 2020 07:26:07 GMT-0600 (Central Standard Time)","Thu Jan 30 2020 07:33:14 GMT-0600 (Central Standard Time)","Mozilla/5.0 (Windows NT 10.0; Win64; x64) AppleWebKit/537.36 (KHTML, like Gecko) Chrome/79.0.3945.117 Safari/537.36",147,"[0.9, 0.5, 0.1]","[0.8, 0.4, 0.2]","[u'black', u'red', u'blue']","[u'left', u'middle', u'right']","[0.8, 0.4, 0.2]","[u'medium', u'high', u'low']","red",50,"middle","high","False","False",568,8400,NA
"A1P0XSCJ9XAV74","Thu Jan 30 2020 07:26:07 GMT-0600 (Central Standard Time)","Thu Jan 30 2020 07:33:14 GMT-0600 (Central Standard Time)","Mozilla/5.0 (Windows NT 10.0; Win64; x64) AppleWebKit/537.36 (KHTML, like Gecko) Chrome/79.0.3945.117 Safari/537.36",148,"[0.9, 0.5, 0.1]","[0.8, 0.4, 0.2]","[u'black', u'red', u'blue']","[u'left', u'middle', u'right']","[0.8, 0.4, 0.2]","[u'medium', u'high', u'low']","black",49,"left","medium","False","False",353,8350,NA
"A1P0XSCJ9XAV74","Thu Jan 30 2020 07:26:07 GMT-0600 (Central Standard Time)","Thu Jan 30 2020 07:33:14 GMT-0600 (Central Standard Time)","Mozilla/5.0 (Windows NT 10.0; Win64; x64) AppleWebKit/537.36 (KHTML, like Gecko) Chrome/79.0.3945.117 Safari/537.36",149,"[0.9, 0.5, 0.1]","[0.8, 0.4, 0.2]","[u'black', u'red', u'blue']","[u'left', u'middle', u'right']","[0.8, 0.4, 0.2]","[u'medium', u'high', u'low']","blue",51,"right","low","False","False",435,8300,NA
"A1P0XSCJ9XAV74","Thu Jan 30 2020 07:26:07 GMT-0600 (Central Standard Time)","Thu Jan 30 2020 07:33:14 GMT-0600 (Central Standard Time)","Mozilla/5.0 (Windows NT 10.0; Win64; x64) AppleWebKit/537.36 (KHTML, like Gecko) Chrome/79.0.3945.117 Safari/537.36",150,"[0.9, 0.5, 0.1]","[0.8, 0.4, 0.2]","[u'black', u'red', u'blue']","[u'left', u'middle', u'right']","[0.8, 0.4, 0.2]","[u'medium', u'high', u'low']","red",50,"middle","high","False","False",603,8250,NA
"A1P0XSCJ9XAV74","Thu Jan 30 2020 07:26:07 GMT-0600 (Central Standard Time)","Thu Jan 30 2020 07:33:14 GMT-0600 (Central Standard Time)","Mozilla/5.0 (Windows NT 10.0; Win64; x64) AppleWebKit/537.36 (KHTML, like Gecko) Chrome/79.0.3945.117 Safari/537.36",151,"[0.9, 0.5, 0.1]","[0.8, 0.4, 0.2]","[u'black', u'red', u'blue']","[u'left', u'middle', u'right']","[0.8, 0.4, 0.2]","[u'medium', u'high', u'low']","black",49,"left","medium","True","False",277,8350,NA
"A1P0XSCJ9XAV74","Thu Jan 30 2020 07:26:07 GMT-0600 (Central Standard Time)","Thu Jan 30 2020 07:33:14 GMT-0600 (Central Standard Time)","Mozilla/5.0 (Windows NT 10.0; Win64; x64) AppleWebKit/537.36 (KHTML, like Gecko) Chrome/79.0.3945.117 Safari/537.36",152,"[0.9, 0.5, 0.1]","[0.8, 0.4, 0.2]","[u'black', u'red', u'blue']","[u'left', u'middle', u'right']","[0.8, 0.4, 0.2]","[u'medium', u'high', u'low']","black",49,"left","medium","False","False",356,8300,NA
"A1P0XSCJ9XAV74","Thu Jan 30 2020 07:26:07 GMT-0600 (Central Standard Time)","Thu Jan 30 2020 07:33:14 GMT-0600 (Central Standard Time)","Mozilla/5.0 (Windows NT 10.0; Win64; x64) AppleWebKit/537.36 (KHTML, like Gecko) Chrome/79.0.3945.117 Safari/537.36",153,"[0.9, 0.5, 0.1]","[0.8, 0.4, 0.2]","[u'black', u'red', u'blue']","[u'left', u'middle', u'right']","[0.8, 0.4, 0.2]","[u'medium', u'high', u'low']","blue",51,"right","low","False","False",509,8250,NA
"A1P0XSCJ9XAV74","Thu Jan 30 2020 07:26:07 GMT-0600 (Central Standard Time)","Thu Jan 30 2020 07:33:14 GMT-0600 (Central Standard Time)","Mozilla/5.0 (Windows NT 10.0; Win64; x64) AppleWebKit/537.36 (KHTML, like Gecko) Chrome/79.0.3945.117 Safari/537.36",154,"[0.9, 0.5, 0.1]","[0.8, 0.4, 0.2]","[u'black', u'red', u'blue']","[u'left', u'middle', u'right']","[0.8, 0.4, 0.2]","[u'medium', u'high', u'low']","blue",51,"right","low","False","False",248,8200,NA
"A1P0XSCJ9XAV74","Thu Jan 30 2020 07:26:07 GMT-0600 (Central Standard Time)","Thu Jan 30 2020 07:33:14 GMT-0600 (Central Standard Time)","Mozilla/5.0 (Windows NT 10.0; Win64; x64) AppleWebKit/537.36 (KHTML, like Gecko) Chrome/79.0.3945.117 Safari/537.36",155,"[0.9, 0.5, 0.1]","[0.8, 0.4, 0.2]","[u'black', u'red', u'blue']","[u'left', u'middle', u'right']","[0.8, 0.4, 0.2]","[u'medium', u'high', u'low']","black",49,"left","medium","False","False",262,8150,NA
"A1P0XSCJ9XAV74","Thu Jan 30 2020 07:26:07 GMT-0600 (Central Standard Time)","Thu Jan 30 2020 07:33:14 GMT-0600 (Central Standard Time)","Mozilla/5.0 (Windows NT 10.0; Win64; x64) AppleWebKit/537.36 (KHTML, like Gecko) Chrome/79.0.3945.117 Safari/537.36",156,"[0.9, 0.5, 0.1]","[0.8, 0.4, 0.2]","[u'black', u'red', u'blue']","[u'left', u'middle', u'right']","[0.8, 0.4, 0.2]","[u'medium', u'high', u'low']","black",49,"left","medium","True","False",148,8250,NA
"A1P0XSCJ9XAV74","Thu Jan 30 2020 07:26:07 GMT-0600 (Central Standard Time)","Thu Jan 30 2020 07:33:14 GMT-0600 (Central Standard Time)","Mozilla/5.0 (Windows NT 10.0; Win64; x64) AppleWebKit/537.36 (KHTML, like Gecko) Chrome/79.0.3945.117 Safari/537.36",157,"[0.9, 0.5, 0.1]","[0.8, 0.4, 0.2]","[u'black', u'red', u'blue']","[u'left', u'middle', u'right']","[0.8, 0.4, 0.2]","[u'medium', u'high', u'low']","black",49,"left","medium","False","False",326,8200,NA
"A1P0XSCJ9XAV74","Thu Jan 30 2020 07:26:07 GMT-0600 (Central Standard Time)","Thu Jan 30 2020 07:33:14 GMT-0600 (Central Standard Time)","Mozilla/5.0 (Windows NT 10.0; Win64; x64) AppleWebKit/537.36 (KHTML, like Gecko) Chrome/79.0.3945.117 Safari/537.36",158,"[0.9, 0.5, 0.1]","[0.8, 0.4, 0.2]","[u'black', u'red', u'blue']","[u'left', u'middle', u'right']","[0.8, 0.4, 0.2]","[u'medium', u'high', u'low']","red",50,"middle","high","False","False",208,8150,NA
"A1P0XSCJ9XAV74","Thu Jan 30 2020 07:26:07 GMT-0600 (Central Standard Time)","Thu Jan 30 2020 07:33:14 GMT-0600 (Central Standard Time)","Mozilla/5.0 (Windows NT 10.0; Win64; x64) AppleWebKit/537.36 (KHTML, like Gecko) Chrome/79.0.3945.117 Safari/537.36",159,"[0.9, 0.5, 0.1]","[0.8, 0.4, 0.2]","[u'black', u'red', u'blue']","[u'left', u'middle', u'right']","[0.8, 0.4, 0.2]","[u'medium', u'high', u'low']","red",50,"middle","high","True","False",257,8250,NA
"A1P0XSCJ9XAV74","Thu Jan 30 2020 07:26:07 GMT-0600 (Central Standard Time)","Thu Jan 30 2020 07:33:14 GMT-0600 (Central Standard Time)","Mozilla/5.0 (Windows NT 10.0; Win64; x64) AppleWebKit/537.36 (KHTML, like Gecko) Chrome/79.0.3945.117 Safari/537.36",160,"[0.9, 0.5, 0.1]","[0.8, 0.4, 0.2]","[u'black', u'red', u'blue']","[u'left', u'middle', u'right']","[0.8, 0.4, 0.2]","[u'medium', u'high', u'low']","red",50,"middle","high","True","False",313,8350,NA
