"src_subject_id","start_time","end_time","browser","index","first_half_probabilities","second_half_probabilities","deck_color","deck_position","deck_probabilities","deck_contingencies","response_color","key_press","response_position","response_probability","reward_type","trial_type","rt","reward_tally","exclusion_reason"
"A2IQ0QCTQ3KWLT","Thu Jan 30 2020 08:28:25 GMT-0500 (Eastern Standard Time)","Thu Jan 30 2020 08:35:34 GMT-0500 (Eastern Standard Time)","Mozilla/5.0 (Macintosh; Intel Mac OS X 10_15_2) AppleWebKit/537.36 (KHTML, like Gecko) Chrome/79.0.3945.130 Safari/537.36",1,"[0.9, 0.5, 0.1]","[0.8, 0.4, 0.2]","[u'black', u'blue', u'red']","[u'left', u'middle', u'right']","[0.9, 0.5, 0.1]","[u'medium', u'high', u'low']","red",51,"right","low","False","False",786,-50,NA
"A2IQ0QCTQ3KWLT","Thu Jan 30 2020 08:28:25 GMT-0500 (Eastern Standard Time)","Thu Jan 30 2020 08:35:34 GMT-0500 (Eastern Standard Time)","Mozilla/5.0 (Macintosh; Intel Mac OS X 10_15_2) AppleWebKit/537.36 (KHTML, like Gecko) Chrome/79.0.3945.130 Safari/537.36",2,"[0.9, 0.5, 0.1]","[0.8, 0.4, 0.2]","[u'black', u'blue', u'red']","[u'left', u'middle', u'right']","[0.9, 0.5, 0.1]","[u'medium', u'high', u'low']","black",49,"left","medium","True","False",507,50,NA
"A2IQ0QCTQ3KWLT","Thu Jan 30 2020 08:28:25 GMT-0500 (Eastern Standard Time)","Thu Jan 30 2020 08:35:34 GMT-0500 (Eastern Standard Time)","Mozilla/5.0 (Macintosh; Intel Mac OS X 10_15_2) AppleWebKit/537.36 (KHTML, like Gecko) Chrome/79.0.3945.130 Safari/537.36",3,"[0.9, 0.5, 0.1]","[0.8, 0.4, 0.2]","[u'black', u'blue', u'red']","[u'left', u'middle', u'right']","[0.9, 0.5, 0.1]","[u'medium', u'high', u'low']","black",49,"left","medium","False","False",387,0,NA
"A2IQ0QCTQ3KWLT","Thu Jan 30 2020 08:28:25 GMT-0500 (Eastern Standard Time)","Thu Jan 30 2020 08:35:34 GMT-0500 (Eastern Standard Time)","Mozilla/5.0 (Macintosh; Intel Mac OS X 10_15_2) AppleWebKit/537.36 (KHTML, like Gecko) Chrome/79.0.3945.130 Safari/537.36",4,"[0.9, 0.5, 0.1]","[0.8, 0.4, 0.2]","[u'black', u'blue', u'red']","[u'left', u'middle', u'right']","[0.9, 0.5, 0.1]","[u'medium', u'high', u'low']","red",51,"right","low","False","False",371,-50,NA
"A2IQ0QCTQ3KWLT","Thu Jan 30 2020 08:28:25 GMT-0500 (Eastern Standard Time)","Thu Jan 30 2020 08:35:34 GMT-0500 (Eastern Standard Time)","Mozilla/5.0 (Macintosh; Intel Mac OS X 10_15_2) AppleWebKit/537.36 (KHTML, like Gecko) Chrome/79.0.3945.130 Safari/537.36",5,"[0.9, 0.5, 0.1]","[0.8, 0.4, 0.2]","[u'black', u'blue', u'red']","[u'left', u'middle', u'right']","[0.9, 0.5, 0.1]","[u'medium', u'high', u'low']","blue",50,"middle","high","True","False",391,50,NA
"A2IQ0QCTQ3KWLT","Thu Jan 30 2020 08:28:25 GMT-0500 (Eastern Standard Time)","Thu Jan 30 2020 08:35:34 GMT-0500 (Eastern Standard Time)","Mozilla/5.0 (Macintosh; Intel Mac OS X 10_15_2) AppleWebKit/537.36 (KHTML, like Gecko) Chrome/79.0.3945.130 Safari/537.36",6,"[0.9, 0.5, 0.1]","[0.8, 0.4, 0.2]","[u'black', u'blue', u'red']","[u'left', u'middle', u'right']","[0.9, 0.5, 0.1]","[u'medium', u'high', u'low']","blue",50,"middle","high","False","False",328,0,NA
"A2IQ0QCTQ3KWLT","Thu Jan 30 2020 08:28:25 GMT-0500 (Eastern Standard Time)","Thu Jan 30 2020 08:35:34 GMT-0500 (Eastern Standard Time)","Mozilla/5.0 (Macintosh; Intel Mac OS X 10_15_2) AppleWebKit/537.36 (KHTML, like Gecko) Chrome/79.0.3945.130 Safari/537.36",7,"[0.9, 0.5, 0.1]","[0.8, 0.4, 0.2]","[u'black', u'blue', u'red']","[u'left', u'middle', u'right']","[0.9, 0.5, 0.1]","[u'medium', u'high', u'low']","black",49,"left","medium","True","False",407,100,NA
"A2IQ0QCTQ3KWLT","Thu Jan 30 2020 08:28:25 GMT-0500 (Eastern Standard Time)","Thu Jan 30 2020 08:35:34 GMT-0500 (Eastern Standard Time)","Mozilla/5.0 (Macintosh; Intel Mac OS X 10_15_2) AppleWebKit/537.36 (KHTML, like Gecko) Chrome/79.0.3945.130 Safari/537.36",8,"[0.9, 0.5, 0.1]","[0.8, 0.4, 0.2]","[u'black', u'blue', u'red']","[u'left', u'middle', u'right']","[0.9, 0.5, 0.1]","[u'medium', u'high', u'low']","blue",50,"middle","high","True","False",338,200,NA
"A2IQ0QCTQ3KWLT","Thu Jan 30 2020 08:28:25 GMT-0500 (Eastern Standard Time)","Thu Jan 30 2020 08:35:34 GMT-0500 (Eastern Standard Time)","Mozilla/5.0 (Macintosh; Intel Mac OS X 10_15_2) AppleWebKit/537.36 (KHTML, like Gecko) Chrome/79.0.3945.130 Safari/537.36",9,"[0.9, 0.5, 0.1]","[0.8, 0.4, 0.2]","[u'black', u'blue', u'red']","[u'left', u'middle', u'right']","[0.9, 0.5, 0.1]","[u'medium', u'high', u'low']","red",51,"right","low","False","False",355,150,NA
"A2IQ0QCTQ3KWLT","Thu Jan 30 2020 08:28:25 GMT-0500 (Eastern Standard Time)","Thu Jan 30 2020 08:35:34 GMT-0500 (Eastern Standard Time)","Mozilla/5.0 (Macintosh; Intel Mac OS X 10_15_2) AppleWebKit/537.36 (KHTML, like Gecko) Chrome/79.0.3945.130 Safari/537.36",10,"[0.9, 0.5, 0.1]","[0.8, 0.4, 0.2]","[u'black', u'blue', u'red']","[u'left', u'middle', u'right']","[0.9, 0.5, 0.1]","[u'medium', u'high', u'low']","black",49,"left","medium","False","False",345,100,NA
"A2IQ0QCTQ3KWLT","Thu Jan 30 2020 08:28:25 GMT-0500 (Eastern Standard Time)","Thu Jan 30 2020 08:35:34 GMT-0500 (Eastern Standard Time)","Mozilla/5.0 (Macintosh; Intel Mac OS X 10_15_2) AppleWebKit/537.36 (KHTML, like Gecko) Chrome/79.0.3945.130 Safari/537.36",11,"[0.9, 0.5, 0.1]","[0.8, 0.4, 0.2]","[u'black', u'blue', u'red']","[u'left', u'middle', u'right']","[0.9, 0.5, 0.1]","[u'medium', u'high', u'low']","blue",50,"middle","high","True","False",133,200,NA
"A2IQ0QCTQ3KWLT","Thu Jan 30 2020 08:28:25 GMT-0500 (Eastern Standard Time)","Thu Jan 30 2020 08:35:34 GMT-0500 (Eastern Standard Time)","Mozilla/5.0 (Macintosh; Intel Mac OS X 10_15_2) AppleWebKit/537.36 (KHTML, like Gecko) Chrome/79.0.3945.130 Safari/537.36",12,"[0.9, 0.5, 0.1]","[0.8, 0.4, 0.2]","[u'black', u'blue', u'red']","[u'left', u'middle', u'right']","[0.9, 0.5, 0.1]","[u'medium', u'high', u'low']","red",51,"right","low","False","False",591,150,NA
"A2IQ0QCTQ3KWLT","Thu Jan 30 2020 08:28:25 GMT-0500 (Eastern Standard Time)","Thu Jan 30 2020 08:35:34 GMT-0500 (Eastern Standard Time)","Mozilla/5.0 (Macintosh; Intel Mac OS X 10_15_2) AppleWebKit/537.36 (KHTML, like Gecko) Chrome/79.0.3945.130 Safari/537.36",13,"[0.9, 0.5, 0.1]","[0.8, 0.4, 0.2]","[u'black', u'blue', u'red']","[u'left', u'middle', u'right']","[0.9, 0.5, 0.1]","[u'medium', u'high', u'low']","blue",50,"middle","high","True","False",296,250,NA
"A2IQ0QCTQ3KWLT","Thu Jan 30 2020 08:28:25 GMT-0500 (Eastern Standard Time)","Thu Jan 30 2020 08:35:34 GMT-0500 (Eastern Standard Time)","Mozilla/5.0 (Macintosh; Intel Mac OS X 10_15_2) AppleWebKit/537.36 (KHTML, like Gecko) Chrome/79.0.3945.130 Safari/537.36",14,"[0.9, 0.5, 0.1]","[0.8, 0.4, 0.2]","[u'black', u'blue', u'red']","[u'left', u'middle', u'right']","[0.9, 0.5, 0.1]","[u'medium', u'high', u'low']","blue",50,"middle","high","True","False",304,350,NA
"A2IQ0QCTQ3KWLT","Thu Jan 30 2020 08:28:25 GMT-0500 (Eastern Standard Time)","Thu Jan 30 2020 08:35:34 GMT-0500 (Eastern Standard Time)","Mozilla/5.0 (Macintosh; Intel Mac OS X 10_15_2) AppleWebKit/537.36 (KHTML, like Gecko) Chrome/79.0.3945.130 Safari/537.36",15,"[0.9, 0.5, 0.1]","[0.8, 0.4, 0.2]","[u'black', u'blue', u'red']","[u'left', u'middle', u'right']","[0.9, 0.5, 0.1]","[u'medium', u'high', u'low']","blue",50,"middle","high","False","False",312,300,NA
"A2IQ0QCTQ3KWLT","Thu Jan 30 2020 08:28:25 GMT-0500 (Eastern Standard Time)","Thu Jan 30 2020 08:35:34 GMT-0500 (Eastern Standard Time)","Mozilla/5.0 (Macintosh; Intel Mac OS X 10_15_2) AppleWebKit/537.36 (KHTML, like Gecko) Chrome/79.0.3945.130 Safari/537.36",16,"[0.9, 0.5, 0.1]","[0.8, 0.4, 0.2]","[u'black', u'blue', u'red']","[u'left', u'middle', u'right']","[0.9, 0.5, 0.1]","[u'medium', u'high', u'low']","black",49,"left","medium","True","False",362,400,NA
"A2IQ0QCTQ3KWLT","Thu Jan 30 2020 08:28:25 GMT-0500 (Eastern Standard Time)","Thu Jan 30 2020 08:35:34 GMT-0500 (Eastern Standard Time)","Mozilla/5.0 (Macintosh; Intel Mac OS X 10_15_2) AppleWebKit/537.36 (KHTML, like Gecko) Chrome/79.0.3945.130 Safari/537.36",17,"[0.9, 0.5, 0.1]","[0.8, 0.4, 0.2]","[u'black', u'blue', u'red']","[u'left', u'middle', u'right']","[0.9, 0.5, 0.1]","[u'medium', u'high', u'low']","black",49,"left","medium","False","False",324,350,NA
"A2IQ0QCTQ3KWLT","Thu Jan 30 2020 08:28:25 GMT-0500 (Eastern Standard Time)","Thu Jan 30 2020 08:35:34 GMT-0500 (Eastern Standard Time)","Mozilla/5.0 (Macintosh; Intel Mac OS X 10_15_2) AppleWebKit/537.36 (KHTML, like Gecko) Chrome/79.0.3945.130 Safari/537.36",18,"[0.9, 0.5, 0.1]","[0.8, 0.4, 0.2]","[u'black', u'blue', u'red']","[u'left', u'middle', u'right']","[0.9, 0.5, 0.1]","[u'medium', u'high', u'low']","red",51,"right","low","False","False",340,300,NA
"A2IQ0QCTQ3KWLT","Thu Jan 30 2020 08:28:25 GMT-0500 (Eastern Standard Time)","Thu Jan 30 2020 08:35:34 GMT-0500 (Eastern Standard Time)","Mozilla/5.0 (Macintosh; Intel Mac OS X 10_15_2) AppleWebKit/537.36 (KHTML, like Gecko) Chrome/79.0.3945.130 Safari/537.36",19,"[0.9, 0.5, 0.1]","[0.8, 0.4, 0.2]","[u'black', u'blue', u'red']","[u'left', u'middle', u'right']","[0.9, 0.5, 0.1]","[u'medium', u'high', u'low']","red",51,"right","low","False","False",347,250,NA
"A2IQ0QCTQ3KWLT","Thu Jan 30 2020 08:28:25 GMT-0500 (Eastern Standard Time)","Thu Jan 30 2020 08:35:34 GMT-0500 (Eastern Standard Time)","Mozilla/5.0 (Macintosh; Intel Mac OS X 10_15_2) AppleWebKit/537.36 (KHTML, like Gecko) Chrome/79.0.3945.130 Safari/537.36",20,"[0.9, 0.5, 0.1]","[0.8, 0.4, 0.2]","[u'black', u'blue', u'red']","[u'left', u'middle', u'right']","[0.9, 0.5, 0.1]","[u'medium', u'high', u'low']","black",49,"left","medium","True","False",345,350,NA
"A2IQ0QCTQ3KWLT","Thu Jan 30 2020 08:28:25 GMT-0500 (Eastern Standard Time)","Thu Jan 30 2020 08:35:34 GMT-0500 (Eastern Standard Time)","Mozilla/5.0 (Macintosh; Intel Mac OS X 10_15_2) AppleWebKit/537.36 (KHTML, like Gecko) Chrome/79.0.3945.130 Safari/537.36",21,"[0.9, 0.5, 0.1]","[0.8, 0.4, 0.2]","[u'black', u'blue', u'red']","[u'left', u'middle', u'right']","[0.9, 0.5, 0.1]","[u'medium', u'high', u'low']","blue",50,"middle","high","True","False",276,450,NA
"A2IQ0QCTQ3KWLT","Thu Jan 30 2020 08:28:25 GMT-0500 (Eastern Standard Time)","Thu Jan 30 2020 08:35:34 GMT-0500 (Eastern Standard Time)","Mozilla/5.0 (Macintosh; Intel Mac OS X 10_15_2) AppleWebKit/537.36 (KHTML, like Gecko) Chrome/79.0.3945.130 Safari/537.36",22,"[0.9, 0.5, 0.1]","[0.8, 0.4, 0.2]","[u'black', u'blue', u'red']","[u'left', u'middle', u'right']","[0.9, 0.5, 0.1]","[u'medium', u'high', u'low']","black",49,"left","medium","False","False",356,400,NA
"A2IQ0QCTQ3KWLT","Thu Jan 30 2020 08:28:25 GMT-0500 (Eastern Standard Time)","Thu Jan 30 2020 08:35:34 GMT-0500 (Eastern Standard Time)","Mozilla/5.0 (Macintosh; Intel Mac OS X 10_15_2) AppleWebKit/537.36 (KHTML, like Gecko) Chrome/79.0.3945.130 Safari/537.36",23,"[0.9, 0.5, 0.1]","[0.8, 0.4, 0.2]","[u'black', u'blue', u'red']","[u'left', u'middle', u'right']","[0.9, 0.5, 0.1]","[u'medium', u'high', u'low']","blue",50,"middle","high","True","False",288,500,NA
"A2IQ0QCTQ3KWLT","Thu Jan 30 2020 08:28:25 GMT-0500 (Eastern Standard Time)","Thu Jan 30 2020 08:35:34 GMT-0500 (Eastern Standard Time)","Mozilla/5.0 (Macintosh; Intel Mac OS X 10_15_2) AppleWebKit/537.36 (KHTML, like Gecko) Chrome/79.0.3945.130 Safari/537.36",24,"[0.9, 0.5, 0.1]","[0.8, 0.4, 0.2]","[u'black', u'blue', u'red']","[u'left', u'middle', u'right']","[0.9, 0.5, 0.1]","[u'medium', u'high', u'low']","blue",50,"middle","high","True","False",404,600,NA
"A2IQ0QCTQ3KWLT","Thu Jan 30 2020 08:28:25 GMT-0500 (Eastern Standard Time)","Thu Jan 30 2020 08:35:34 GMT-0500 (Eastern Standard Time)","Mozilla/5.0 (Macintosh; Intel Mac OS X 10_15_2) AppleWebKit/537.36 (KHTML, like Gecko) Chrome/79.0.3945.130 Safari/537.36",25,"[0.9, 0.5, 0.1]","[0.8, 0.4, 0.2]","[u'black', u'blue', u'red']","[u'left', u'middle', u'right']","[0.9, 0.5, 0.1]","[u'medium', u'high', u'low']","black",49,"left","medium","False","False",649,550,NA
"A2IQ0QCTQ3KWLT","Thu Jan 30 2020 08:28:25 GMT-0500 (Eastern Standard Time)","Thu Jan 30 2020 08:35:34 GMT-0500 (Eastern Standard Time)","Mozilla/5.0 (Macintosh; Intel Mac OS X 10_15_2) AppleWebKit/537.36 (KHTML, like Gecko) Chrome/79.0.3945.130 Safari/537.36",26,"[0.9, 0.5, 0.1]","[0.8, 0.4, 0.2]","[u'black', u'blue', u'red']","[u'left', u'middle', u'right']","[0.9, 0.5, 0.1]","[u'medium', u'high', u'low']","red",51,"right","low","False","False",402,500,NA
"A2IQ0QCTQ3KWLT","Thu Jan 30 2020 08:28:25 GMT-0500 (Eastern Standard Time)","Thu Jan 30 2020 08:35:34 GMT-0500 (Eastern Standard Time)","Mozilla/5.0 (Macintosh; Intel Mac OS X 10_15_2) AppleWebKit/537.36 (KHTML, like Gecko) Chrome/79.0.3945.130 Safari/537.36",27,"[0.9, 0.5, 0.1]","[0.8, 0.4, 0.2]","[u'black', u'blue', u'red']","[u'left', u'middle', u'right']","[0.9, 0.5, 0.1]","[u'medium', u'high', u'low']","blue",50,"middle","high","False","False",338,450,NA
"A2IQ0QCTQ3KWLT","Thu Jan 30 2020 08:28:25 GMT-0500 (Eastern Standard Time)","Thu Jan 30 2020 08:35:34 GMT-0500 (Eastern Standard Time)","Mozilla/5.0 (Macintosh; Intel Mac OS X 10_15_2) AppleWebKit/537.36 (KHTML, like Gecko) Chrome/79.0.3945.130 Safari/537.36",28,"[0.9, 0.5, 0.1]","[0.8, 0.4, 0.2]","[u'black', u'blue', u'red']","[u'left', u'middle', u'right']","[0.9, 0.5, 0.1]","[u'medium', u'high', u'low']","blue",50,"middle","high","True","False",217,550,NA
"A2IQ0QCTQ3KWLT","Thu Jan 30 2020 08:28:25 GMT-0500 (Eastern Standard Time)","Thu Jan 30 2020 08:35:34 GMT-0500 (Eastern Standard Time)","Mozilla/5.0 (Macintosh; Intel Mac OS X 10_15_2) AppleWebKit/537.36 (KHTML, like Gecko) Chrome/79.0.3945.130 Safari/537.36",29,"[0.9, 0.5, 0.1]","[0.8, 0.4, 0.2]","[u'black', u'blue', u'red']","[u'left', u'middle', u'right']","[0.9, 0.5, 0.1]","[u'medium', u'high', u'low']","blue",50,"middle","high","False","False",356,500,NA
"A2IQ0QCTQ3KWLT","Thu Jan 30 2020 08:28:25 GMT-0500 (Eastern Standard Time)","Thu Jan 30 2020 08:35:34 GMT-0500 (Eastern Standard Time)","Mozilla/5.0 (Macintosh; Intel Mac OS X 10_15_2) AppleWebKit/537.36 (KHTML, like Gecko) Chrome/79.0.3945.130 Safari/537.36",30,"[0.9, 0.5, 0.1]","[0.8, 0.4, 0.2]","[u'black', u'blue', u'red']","[u'left', u'middle', u'right']","[0.9, 0.5, 0.1]","[u'medium', u'high', u'low']","black",49,"left","medium","True","False",366,600,NA
"A2IQ0QCTQ3KWLT","Thu Jan 30 2020 08:28:25 GMT-0500 (Eastern Standard Time)","Thu Jan 30 2020 08:35:34 GMT-0500 (Eastern Standard Time)","Mozilla/5.0 (Macintosh; Intel Mac OS X 10_15_2) AppleWebKit/537.36 (KHTML, like Gecko) Chrome/79.0.3945.130 Safari/537.36",31,"[0.9, 0.5, 0.1]","[0.8, 0.4, 0.2]","[u'black', u'blue', u'red']","[u'left', u'middle', u'right']","[0.9, 0.5, 0.1]","[u'medium', u'high', u'low']","blue",50,"middle","high","True","False",336,700,NA
"A2IQ0QCTQ3KWLT","Thu Jan 30 2020 08:28:25 GMT-0500 (Eastern Standard Time)","Thu Jan 30 2020 08:35:34 GMT-0500 (Eastern Standard Time)","Mozilla/5.0 (Macintosh; Intel Mac OS X 10_15_2) AppleWebKit/537.36 (KHTML, like Gecko) Chrome/79.0.3945.130 Safari/537.36",32,"[0.9, 0.5, 0.1]","[0.8, 0.4, 0.2]","[u'black', u'blue', u'red']","[u'left', u'middle', u'right']","[0.9, 0.5, 0.1]","[u'medium', u'high', u'low']","blue",50,"middle","high","True","False",384,800,NA
"A2IQ0QCTQ3KWLT","Thu Jan 30 2020 08:28:25 GMT-0500 (Eastern Standard Time)","Thu Jan 30 2020 08:35:34 GMT-0500 (Eastern Standard Time)","Mozilla/5.0 (Macintosh; Intel Mac OS X 10_15_2) AppleWebKit/537.36 (KHTML, like Gecko) Chrome/79.0.3945.130 Safari/537.36",33,"[0.9, 0.5, 0.1]","[0.8, 0.4, 0.2]","[u'black', u'blue', u'red']","[u'left', u'middle', u'right']","[0.9, 0.5, 0.1]","[u'medium', u'high', u'low']","black",49,"left","medium","False","False",376,750,NA
"A2IQ0QCTQ3KWLT","Thu Jan 30 2020 08:28:25 GMT-0500 (Eastern Standard Time)","Thu Jan 30 2020 08:35:34 GMT-0500 (Eastern Standard Time)","Mozilla/5.0 (Macintosh; Intel Mac OS X 10_15_2) AppleWebKit/537.36 (KHTML, like Gecko) Chrome/79.0.3945.130 Safari/537.36",34,"[0.9, 0.5, 0.1]","[0.8, 0.4, 0.2]","[u'black', u'blue', u'red']","[u'left', u'middle', u'right']","[0.9, 0.5, 0.1]","[u'medium', u'high', u'low']","blue",50,"middle","high","True","False",402,850,NA
"A2IQ0QCTQ3KWLT","Thu Jan 30 2020 08:28:25 GMT-0500 (Eastern Standard Time)","Thu Jan 30 2020 08:35:34 GMT-0500 (Eastern Standard Time)","Mozilla/5.0 (Macintosh; Intel Mac OS X 10_15_2) AppleWebKit/537.36 (KHTML, like Gecko) Chrome/79.0.3945.130 Safari/537.36",35,"[0.9, 0.5, 0.1]","[0.8, 0.4, 0.2]","[u'black', u'blue', u'red']","[u'left', u'middle', u'right']","[0.9, 0.5, 0.1]","[u'medium', u'high', u'low']","blue",50,"middle","high","True","False",352,950,NA
"A2IQ0QCTQ3KWLT","Thu Jan 30 2020 08:28:25 GMT-0500 (Eastern Standard Time)","Thu Jan 30 2020 08:35:34 GMT-0500 (Eastern Standard Time)","Mozilla/5.0 (Macintosh; Intel Mac OS X 10_15_2) AppleWebKit/537.36 (KHTML, like Gecko) Chrome/79.0.3945.130 Safari/537.36",36,"[0.9, 0.5, 0.1]","[0.8, 0.4, 0.2]","[u'black', u'blue', u'red']","[u'left', u'middle', u'right']","[0.9, 0.5, 0.1]","[u'medium', u'high', u'low']","blue",50,"middle","high","True","False",315,1050,NA
"A2IQ0QCTQ3KWLT","Thu Jan 30 2020 08:28:25 GMT-0500 (Eastern Standard Time)","Thu Jan 30 2020 08:35:34 GMT-0500 (Eastern Standard Time)","Mozilla/5.0 (Macintosh; Intel Mac OS X 10_15_2) AppleWebKit/537.36 (KHTML, like Gecko) Chrome/79.0.3945.130 Safari/537.36",37,"[0.9, 0.5, 0.1]","[0.8, 0.4, 0.2]","[u'black', u'blue', u'red']","[u'left', u'middle', u'right']","[0.9, 0.5, 0.1]","[u'medium', u'high', u'low']","blue",50,"middle","high","True","False",348,1150,NA
"A2IQ0QCTQ3KWLT","Thu Jan 30 2020 08:28:25 GMT-0500 (Eastern Standard Time)","Thu Jan 30 2020 08:35:34 GMT-0500 (Eastern Standard Time)","Mozilla/5.0 (Macintosh; Intel Mac OS X 10_15_2) AppleWebKit/537.36 (KHTML, like Gecko) Chrome/79.0.3945.130 Safari/537.36",38,"[0.9, 0.5, 0.1]","[0.8, 0.4, 0.2]","[u'black', u'blue', u'red']","[u'left', u'middle', u'right']","[0.9, 0.5, 0.1]","[u'medium', u'high', u'low']","black",49,"left","medium","False","False",397,1100,NA
"A2IQ0QCTQ3KWLT","Thu Jan 30 2020 08:28:25 GMT-0500 (Eastern Standard Time)","Thu Jan 30 2020 08:35:34 GMT-0500 (Eastern Standard Time)","Mozilla/5.0 (Macintosh; Intel Mac OS X 10_15_2) AppleWebKit/537.36 (KHTML, like Gecko) Chrome/79.0.3945.130 Safari/537.36",39,"[0.9, 0.5, 0.1]","[0.8, 0.4, 0.2]","[u'black', u'blue', u'red']","[u'left', u'middle', u'right']","[0.9, 0.5, 0.1]","[u'medium', u'high', u'low']","blue",50,"middle","high","True","False",284,1200,NA
"A2IQ0QCTQ3KWLT","Thu Jan 30 2020 08:28:25 GMT-0500 (Eastern Standard Time)","Thu Jan 30 2020 08:35:34 GMT-0500 (Eastern Standard Time)","Mozilla/5.0 (Macintosh; Intel Mac OS X 10_15_2) AppleWebKit/537.36 (KHTML, like Gecko) Chrome/79.0.3945.130 Safari/537.36",40,"[0.9, 0.5, 0.1]","[0.8, 0.4, 0.2]","[u'black', u'blue', u'red']","[u'left', u'middle', u'right']","[0.9, 0.5, 0.1]","[u'medium', u'high', u'low']","blue",50,"middle","high","True","False",295,1300,NA
"A2IQ0QCTQ3KWLT","Thu Jan 30 2020 08:28:25 GMT-0500 (Eastern Standard Time)","Thu Jan 30 2020 08:35:34 GMT-0500 (Eastern Standard Time)","Mozilla/5.0 (Macintosh; Intel Mac OS X 10_15_2) AppleWebKit/537.36 (KHTML, like Gecko) Chrome/79.0.3945.130 Safari/537.36",41,"[0.9, 0.5, 0.1]","[0.8, 0.4, 0.2]","[u'black', u'blue', u'red']","[u'left', u'middle', u'right']","[0.9, 0.5, 0.1]","[u'medium', u'low', u'high']","red",51,"right","high","True","False",426,1400,NA
"A2IQ0QCTQ3KWLT","Thu Jan 30 2020 08:28:25 GMT-0500 (Eastern Standard Time)","Thu Jan 30 2020 08:35:34 GMT-0500 (Eastern Standard Time)","Mozilla/5.0 (Macintosh; Intel Mac OS X 10_15_2) AppleWebKit/537.36 (KHTML, like Gecko) Chrome/79.0.3945.130 Safari/537.36",42,"[0.9, 0.5, 0.1]","[0.8, 0.4, 0.2]","[u'black', u'blue', u'red']","[u'left', u'middle', u'right']","[0.9, 0.5, 0.1]","[u'medium', u'low', u'high']","red",51,"right","high","True","False",328,1500,NA
"A2IQ0QCTQ3KWLT","Thu Jan 30 2020 08:28:25 GMT-0500 (Eastern Standard Time)","Thu Jan 30 2020 08:35:34 GMT-0500 (Eastern Standard Time)","Mozilla/5.0 (Macintosh; Intel Mac OS X 10_15_2) AppleWebKit/537.36 (KHTML, like Gecko) Chrome/79.0.3945.130 Safari/537.36",43,"[0.9, 0.5, 0.1]","[0.8, 0.4, 0.2]","[u'black', u'blue', u'red']","[u'left', u'middle', u'right']","[0.9, 0.5, 0.1]","[u'medium', u'low', u'high']","red",51,"right","high","True","False",317,1600,NA
"A2IQ0QCTQ3KWLT","Thu Jan 30 2020 08:28:25 GMT-0500 (Eastern Standard Time)","Thu Jan 30 2020 08:35:34 GMT-0500 (Eastern Standard Time)","Mozilla/5.0 (Macintosh; Intel Mac OS X 10_15_2) AppleWebKit/537.36 (KHTML, like Gecko) Chrome/79.0.3945.130 Safari/537.36",44,"[0.9, 0.5, 0.1]","[0.8, 0.4, 0.2]","[u'black', u'blue', u'red']","[u'left', u'middle', u'right']","[0.9, 0.5, 0.1]","[u'medium', u'low', u'high']","red",51,"right","high","True","False",537,1700,NA
"A2IQ0QCTQ3KWLT","Thu Jan 30 2020 08:28:25 GMT-0500 (Eastern Standard Time)","Thu Jan 30 2020 08:35:34 GMT-0500 (Eastern Standard Time)","Mozilla/5.0 (Macintosh; Intel Mac OS X 10_15_2) AppleWebKit/537.36 (KHTML, like Gecko) Chrome/79.0.3945.130 Safari/537.36",45,"[0.9, 0.5, 0.1]","[0.8, 0.4, 0.2]","[u'black', u'blue', u'red']","[u'left', u'middle', u'right']","[0.9, 0.5, 0.1]","[u'medium', u'low', u'high']","red",51,"right","high","True","False",330,1800,NA
"A2IQ0QCTQ3KWLT","Thu Jan 30 2020 08:28:25 GMT-0500 (Eastern Standard Time)","Thu Jan 30 2020 08:35:34 GMT-0500 (Eastern Standard Time)","Mozilla/5.0 (Macintosh; Intel Mac OS X 10_15_2) AppleWebKit/537.36 (KHTML, like Gecko) Chrome/79.0.3945.130 Safari/537.36",46,"[0.9, 0.5, 0.1]","[0.8, 0.4, 0.2]","[u'black', u'blue', u'red']","[u'left', u'middle', u'right']","[0.9, 0.5, 0.1]","[u'medium', u'low', u'high']","red",51,"right","high","True","False",614,1900,NA
"A2IQ0QCTQ3KWLT","Thu Jan 30 2020 08:28:25 GMT-0500 (Eastern Standard Time)","Thu Jan 30 2020 08:35:34 GMT-0500 (Eastern Standard Time)","Mozilla/5.0 (Macintosh; Intel Mac OS X 10_15_2) AppleWebKit/537.36 (KHTML, like Gecko) Chrome/79.0.3945.130 Safari/537.36",47,"[0.9, 0.5, 0.1]","[0.8, 0.4, 0.2]","[u'black', u'blue', u'red']","[u'left', u'middle', u'right']","[0.9, 0.5, 0.1]","[u'medium', u'low', u'high']","red",51,"right","high","True","False",435,2000,NA
"A2IQ0QCTQ3KWLT","Thu Jan 30 2020 08:28:25 GMT-0500 (Eastern Standard Time)","Thu Jan 30 2020 08:35:34 GMT-0500 (Eastern Standard Time)","Mozilla/5.0 (Macintosh; Intel Mac OS X 10_15_2) AppleWebKit/537.36 (KHTML, like Gecko) Chrome/79.0.3945.130 Safari/537.36",48,"[0.9, 0.5, 0.1]","[0.8, 0.4, 0.2]","[u'black', u'blue', u'red']","[u'left', u'middle', u'right']","[0.9, 0.5, 0.1]","[u'medium', u'low', u'high']","red",51,"right","high","True","False",413,2100,NA
"A2IQ0QCTQ3KWLT","Thu Jan 30 2020 08:28:25 GMT-0500 (Eastern Standard Time)","Thu Jan 30 2020 08:35:34 GMT-0500 (Eastern Standard Time)","Mozilla/5.0 (Macintosh; Intel Mac OS X 10_15_2) AppleWebKit/537.36 (KHTML, like Gecko) Chrome/79.0.3945.130 Safari/537.36",49,"[0.9, 0.5, 0.1]","[0.8, 0.4, 0.2]","[u'black', u'blue', u'red']","[u'left', u'middle', u'right']","[0.9, 0.5, 0.1]","[u'medium', u'low', u'high']","red",51,"right","high","True","True",340,2200,NA
"A2IQ0QCTQ3KWLT","Thu Jan 30 2020 08:28:25 GMT-0500 (Eastern Standard Time)","Thu Jan 30 2020 08:35:34 GMT-0500 (Eastern Standard Time)","Mozilla/5.0 (Macintosh; Intel Mac OS X 10_15_2) AppleWebKit/537.36 (KHTML, like Gecko) Chrome/79.0.3945.130 Safari/537.36",50,"[0.9, 0.5, 0.1]","[0.8, 0.4, 0.2]","[u'black', u'blue', u'red']","[u'left', u'middle', u'right']","[0.9, 0.5, 0.1]","[u'low', u'high', u'medium']","red",51,"right","medium","True","False",352,2300,NA
"A2IQ0QCTQ3KWLT","Thu Jan 30 2020 08:28:25 GMT-0500 (Eastern Standard Time)","Thu Jan 30 2020 08:35:34 GMT-0500 (Eastern Standard Time)","Mozilla/5.0 (Macintosh; Intel Mac OS X 10_15_2) AppleWebKit/537.36 (KHTML, like Gecko) Chrome/79.0.3945.130 Safari/537.36",51,"[0.9, 0.5, 0.1]","[0.8, 0.4, 0.2]","[u'black', u'blue', u'red']","[u'left', u'middle', u'right']","[0.9, 0.5, 0.1]","[u'low', u'high', u'medium']","red",51,"right","medium","True","False",333,2400,NA
"A2IQ0QCTQ3KWLT","Thu Jan 30 2020 08:28:25 GMT-0500 (Eastern Standard Time)","Thu Jan 30 2020 08:35:34 GMT-0500 (Eastern Standard Time)","Mozilla/5.0 (Macintosh; Intel Mac OS X 10_15_2) AppleWebKit/537.36 (KHTML, like Gecko) Chrome/79.0.3945.130 Safari/537.36",52,"[0.9, 0.5, 0.1]","[0.8, 0.4, 0.2]","[u'black', u'blue', u'red']","[u'left', u'middle', u'right']","[0.9, 0.5, 0.1]","[u'low', u'high', u'medium']","red",51,"right","medium","True","False",313,2500,NA
"A2IQ0QCTQ3KWLT","Thu Jan 30 2020 08:28:25 GMT-0500 (Eastern Standard Time)","Thu Jan 30 2020 08:35:34 GMT-0500 (Eastern Standard Time)","Mozilla/5.0 (Macintosh; Intel Mac OS X 10_15_2) AppleWebKit/537.36 (KHTML, like Gecko) Chrome/79.0.3945.130 Safari/537.36",53,"[0.9, 0.5, 0.1]","[0.8, 0.4, 0.2]","[u'black', u'blue', u'red']","[u'left', u'middle', u'right']","[0.9, 0.5, 0.1]","[u'low', u'high', u'medium']","red",51,"right","medium","True","False",355,2600,NA
"A2IQ0QCTQ3KWLT","Thu Jan 30 2020 08:28:25 GMT-0500 (Eastern Standard Time)","Thu Jan 30 2020 08:35:34 GMT-0500 (Eastern Standard Time)","Mozilla/5.0 (Macintosh; Intel Mac OS X 10_15_2) AppleWebKit/537.36 (KHTML, like Gecko) Chrome/79.0.3945.130 Safari/537.36",54,"[0.9, 0.5, 0.1]","[0.8, 0.4, 0.2]","[u'black', u'blue', u'red']","[u'left', u'middle', u'right']","[0.9, 0.5, 0.1]","[u'low', u'high', u'medium']","red",51,"right","medium","True","False",360,2700,NA
"A2IQ0QCTQ3KWLT","Thu Jan 30 2020 08:28:25 GMT-0500 (Eastern Standard Time)","Thu Jan 30 2020 08:35:34 GMT-0500 (Eastern Standard Time)","Mozilla/5.0 (Macintosh; Intel Mac OS X 10_15_2) AppleWebKit/537.36 (KHTML, like Gecko) Chrome/79.0.3945.130 Safari/537.36",55,"[0.9, 0.5, 0.1]","[0.8, 0.4, 0.2]","[u'black', u'blue', u'red']","[u'left', u'middle', u'right']","[0.9, 0.5, 0.1]","[u'low', u'high', u'medium']","red",51,"right","medium","True","False",336,2800,NA
"A2IQ0QCTQ3KWLT","Thu Jan 30 2020 08:28:25 GMT-0500 (Eastern Standard Time)","Thu Jan 30 2020 08:35:34 GMT-0500 (Eastern Standard Time)","Mozilla/5.0 (Macintosh; Intel Mac OS X 10_15_2) AppleWebKit/537.36 (KHTML, like Gecko) Chrome/79.0.3945.130 Safari/537.36",56,"[0.9, 0.5, 0.1]","[0.8, 0.4, 0.2]","[u'black', u'blue', u'red']","[u'left', u'middle', u'right']","[0.9, 0.5, 0.1]","[u'low', u'high', u'medium']","red",51,"right","medium","True","False",354,2900,NA
"A2IQ0QCTQ3KWLT","Thu Jan 30 2020 08:28:25 GMT-0500 (Eastern Standard Time)","Thu Jan 30 2020 08:35:34 GMT-0500 (Eastern Standard Time)","Mozilla/5.0 (Macintosh; Intel Mac OS X 10_15_2) AppleWebKit/537.36 (KHTML, like Gecko) Chrome/79.0.3945.130 Safari/537.36",57,"[0.9, 0.5, 0.1]","[0.8, 0.4, 0.2]","[u'black', u'blue', u'red']","[u'left', u'middle', u'right']","[0.9, 0.5, 0.1]","[u'low', u'high', u'medium']","red",51,"right","medium","False","False",352,2850,NA
"A2IQ0QCTQ3KWLT","Thu Jan 30 2020 08:28:25 GMT-0500 (Eastern Standard Time)","Thu Jan 30 2020 08:35:34 GMT-0500 (Eastern Standard Time)","Mozilla/5.0 (Macintosh; Intel Mac OS X 10_15_2) AppleWebKit/537.36 (KHTML, like Gecko) Chrome/79.0.3945.130 Safari/537.36",58,"[0.9, 0.5, 0.1]","[0.8, 0.4, 0.2]","[u'black', u'blue', u'red']","[u'left', u'middle', u'right']","[0.9, 0.5, 0.1]","[u'low', u'high', u'medium']","blue",50,"middle","high","True","False",398,2950,NA
"A2IQ0QCTQ3KWLT","Thu Jan 30 2020 08:28:25 GMT-0500 (Eastern Standard Time)","Thu Jan 30 2020 08:35:34 GMT-0500 (Eastern Standard Time)","Mozilla/5.0 (Macintosh; Intel Mac OS X 10_15_2) AppleWebKit/537.36 (KHTML, like Gecko) Chrome/79.0.3945.130 Safari/537.36",59,"[0.9, 0.5, 0.1]","[0.8, 0.4, 0.2]","[u'black', u'blue', u'red']","[u'left', u'middle', u'right']","[0.9, 0.5, 0.1]","[u'low', u'high', u'medium']","blue",50,"middle","high","True","False",157,3050,NA
"A2IQ0QCTQ3KWLT","Thu Jan 30 2020 08:28:25 GMT-0500 (Eastern Standard Time)","Thu Jan 30 2020 08:35:34 GMT-0500 (Eastern Standard Time)","Mozilla/5.0 (Macintosh; Intel Mac OS X 10_15_2) AppleWebKit/537.36 (KHTML, like Gecko) Chrome/79.0.3945.130 Safari/537.36",60,"[0.9, 0.5, 0.1]","[0.8, 0.4, 0.2]","[u'black', u'blue', u'red']","[u'left', u'middle', u'right']","[0.9, 0.5, 0.1]","[u'low', u'high', u'medium']","blue",50,"middle","high","True","False",299,3150,NA
"A2IQ0QCTQ3KWLT","Thu Jan 30 2020 08:28:25 GMT-0500 (Eastern Standard Time)","Thu Jan 30 2020 08:35:34 GMT-0500 (Eastern Standard Time)","Mozilla/5.0 (Macintosh; Intel Mac OS X 10_15_2) AppleWebKit/537.36 (KHTML, like Gecko) Chrome/79.0.3945.130 Safari/537.36",61,"[0.9, 0.5, 0.1]","[0.8, 0.4, 0.2]","[u'black', u'blue', u'red']","[u'left', u'middle', u'right']","[0.9, 0.5, 0.1]","[u'low', u'high', u'medium']","blue",50,"middle","high","False","False",214,3100,NA
"A2IQ0QCTQ3KWLT","Thu Jan 30 2020 08:28:25 GMT-0500 (Eastern Standard Time)","Thu Jan 30 2020 08:35:34 GMT-0500 (Eastern Standard Time)","Mozilla/5.0 (Macintosh; Intel Mac OS X 10_15_2) AppleWebKit/537.36 (KHTML, like Gecko) Chrome/79.0.3945.130 Safari/537.36",62,"[0.9, 0.5, 0.1]","[0.8, 0.4, 0.2]","[u'black', u'blue', u'red']","[u'left', u'middle', u'right']","[0.9, 0.5, 0.1]","[u'low', u'high', u'medium']","black",49,"left","low","False","False",334,3050,NA
"A2IQ0QCTQ3KWLT","Thu Jan 30 2020 08:28:25 GMT-0500 (Eastern Standard Time)","Thu Jan 30 2020 08:35:34 GMT-0500 (Eastern Standard Time)","Mozilla/5.0 (Macintosh; Intel Mac OS X 10_15_2) AppleWebKit/537.36 (KHTML, like Gecko) Chrome/79.0.3945.130 Safari/537.36",63,"[0.9, 0.5, 0.1]","[0.8, 0.4, 0.2]","[u'black', u'blue', u'red']","[u'left', u'middle', u'right']","[0.9, 0.5, 0.1]","[u'low', u'high', u'medium']","red",51,"right","medium","False","False",330,3000,NA
"A2IQ0QCTQ3KWLT","Thu Jan 30 2020 08:28:25 GMT-0500 (Eastern Standard Time)","Thu Jan 30 2020 08:35:34 GMT-0500 (Eastern Standard Time)","Mozilla/5.0 (Macintosh; Intel Mac OS X 10_15_2) AppleWebKit/537.36 (KHTML, like Gecko) Chrome/79.0.3945.130 Safari/537.36",64,"[0.9, 0.5, 0.1]","[0.8, 0.4, 0.2]","[u'black', u'blue', u'red']","[u'left', u'middle', u'right']","[0.9, 0.5, 0.1]","[u'low', u'high', u'medium']","red",51,"right","medium","False","False",187,2950,NA
"A2IQ0QCTQ3KWLT","Thu Jan 30 2020 08:28:25 GMT-0500 (Eastern Standard Time)","Thu Jan 30 2020 08:35:34 GMT-0500 (Eastern Standard Time)","Mozilla/5.0 (Macintosh; Intel Mac OS X 10_15_2) AppleWebKit/537.36 (KHTML, like Gecko) Chrome/79.0.3945.130 Safari/537.36",65,"[0.9, 0.5, 0.1]","[0.8, 0.4, 0.2]","[u'black', u'blue', u'red']","[u'left', u'middle', u'right']","[0.9, 0.5, 0.1]","[u'low', u'high', u'medium']","blue",50,"middle","high","True","False",48,3050,NA
"A2IQ0QCTQ3KWLT","Thu Jan 30 2020 08:28:25 GMT-0500 (Eastern Standard Time)","Thu Jan 30 2020 08:35:34 GMT-0500 (Eastern Standard Time)","Mozilla/5.0 (Macintosh; Intel Mac OS X 10_15_2) AppleWebKit/537.36 (KHTML, like Gecko) Chrome/79.0.3945.130 Safari/537.36",66,"[0.9, 0.5, 0.1]","[0.8, 0.4, 0.2]","[u'black', u'blue', u'red']","[u'left', u'middle', u'right']","[0.9, 0.5, 0.1]","[u'low', u'high', u'medium']","blue",50,"middle","high","True","False",316,3150,NA
"A2IQ0QCTQ3KWLT","Thu Jan 30 2020 08:28:25 GMT-0500 (Eastern Standard Time)","Thu Jan 30 2020 08:35:34 GMT-0500 (Eastern Standard Time)","Mozilla/5.0 (Macintosh; Intel Mac OS X 10_15_2) AppleWebKit/537.36 (KHTML, like Gecko) Chrome/79.0.3945.130 Safari/537.36",67,"[0.9, 0.5, 0.1]","[0.8, 0.4, 0.2]","[u'black', u'blue', u'red']","[u'left', u'middle', u'right']","[0.9, 0.5, 0.1]","[u'low', u'high', u'medium']","blue",50,"middle","high","True","False",323,3250,NA
"A2IQ0QCTQ3KWLT","Thu Jan 30 2020 08:28:25 GMT-0500 (Eastern Standard Time)","Thu Jan 30 2020 08:35:34 GMT-0500 (Eastern Standard Time)","Mozilla/5.0 (Macintosh; Intel Mac OS X 10_15_2) AppleWebKit/537.36 (KHTML, like Gecko) Chrome/79.0.3945.130 Safari/537.36",68,"[0.9, 0.5, 0.1]","[0.8, 0.4, 0.2]","[u'black', u'blue', u'red']","[u'left', u'middle', u'right']","[0.9, 0.5, 0.1]","[u'low', u'high', u'medium']","blue",50,"middle","high","True","False",305,3350,NA
"A2IQ0QCTQ3KWLT","Thu Jan 30 2020 08:28:25 GMT-0500 (Eastern Standard Time)","Thu Jan 30 2020 08:35:34 GMT-0500 (Eastern Standard Time)","Mozilla/5.0 (Macintosh; Intel Mac OS X 10_15_2) AppleWebKit/537.36 (KHTML, like Gecko) Chrome/79.0.3945.130 Safari/537.36",69,"[0.9, 0.5, 0.1]","[0.8, 0.4, 0.2]","[u'black', u'blue', u'red']","[u'left', u'middle', u'right']","[0.9, 0.5, 0.1]","[u'low', u'high', u'medium']","blue",50,"middle","high","True","False",378,3450,NA
"A2IQ0QCTQ3KWLT","Thu Jan 30 2020 08:28:25 GMT-0500 (Eastern Standard Time)","Thu Jan 30 2020 08:35:34 GMT-0500 (Eastern Standard Time)","Mozilla/5.0 (Macintosh; Intel Mac OS X 10_15_2) AppleWebKit/537.36 (KHTML, like Gecko) Chrome/79.0.3945.130 Safari/537.36",70,"[0.9, 0.5, 0.1]","[0.8, 0.4, 0.2]","[u'black', u'blue', u'red']","[u'left', u'middle', u'right']","[0.9, 0.5, 0.1]","[u'low', u'high', u'medium']","blue",50,"middle","high","True","False",312,3550,NA
"A2IQ0QCTQ3KWLT","Thu Jan 30 2020 08:28:25 GMT-0500 (Eastern Standard Time)","Thu Jan 30 2020 08:35:34 GMT-0500 (Eastern Standard Time)","Mozilla/5.0 (Macintosh; Intel Mac OS X 10_15_2) AppleWebKit/537.36 (KHTML, like Gecko) Chrome/79.0.3945.130 Safari/537.36",71,"[0.9, 0.5, 0.1]","[0.8, 0.4, 0.2]","[u'black', u'blue', u'red']","[u'left', u'middle', u'right']","[0.9, 0.5, 0.1]","[u'low', u'high', u'medium']","blue",50,"middle","high","False","False",493,3500,NA
"A2IQ0QCTQ3KWLT","Thu Jan 30 2020 08:28:25 GMT-0500 (Eastern Standard Time)","Thu Jan 30 2020 08:35:34 GMT-0500 (Eastern Standard Time)","Mozilla/5.0 (Macintosh; Intel Mac OS X 10_15_2) AppleWebKit/537.36 (KHTML, like Gecko) Chrome/79.0.3945.130 Safari/537.36",72,"[0.9, 0.5, 0.1]","[0.8, 0.4, 0.2]","[u'black', u'blue', u'red']","[u'left', u'middle', u'right']","[0.9, 0.5, 0.1]","[u'low', u'high', u'medium']","red",51,"right","medium","False","False",369,3450,NA
"A2IQ0QCTQ3KWLT","Thu Jan 30 2020 08:28:25 GMT-0500 (Eastern Standard Time)","Thu Jan 30 2020 08:35:34 GMT-0500 (Eastern Standard Time)","Mozilla/5.0 (Macintosh; Intel Mac OS X 10_15_2) AppleWebKit/537.36 (KHTML, like Gecko) Chrome/79.0.3945.130 Safari/537.36",73,"[0.9, 0.5, 0.1]","[0.8, 0.4, 0.2]","[u'black', u'blue', u'red']","[u'left', u'middle', u'right']","[0.9, 0.5, 0.1]","[u'low', u'high', u'medium']","red",51,"right","medium","False","False",269,3400,NA
"A2IQ0QCTQ3KWLT","Thu Jan 30 2020 08:28:25 GMT-0500 (Eastern Standard Time)","Thu Jan 30 2020 08:35:34 GMT-0500 (Eastern Standard Time)","Mozilla/5.0 (Macintosh; Intel Mac OS X 10_15_2) AppleWebKit/537.36 (KHTML, like Gecko) Chrome/79.0.3945.130 Safari/537.36",74,"[0.9, 0.5, 0.1]","[0.8, 0.4, 0.2]","[u'black', u'blue', u'red']","[u'left', u'middle', u'right']","[0.9, 0.5, 0.1]","[u'low', u'high', u'medium']","black",49,"left","low","False","False",326,3350,NA
"A2IQ0QCTQ3KWLT","Thu Jan 30 2020 08:28:25 GMT-0500 (Eastern Standard Time)","Thu Jan 30 2020 08:35:34 GMT-0500 (Eastern Standard Time)","Mozilla/5.0 (Macintosh; Intel Mac OS X 10_15_2) AppleWebKit/537.36 (KHTML, like Gecko) Chrome/79.0.3945.130 Safari/537.36",75,"[0.9, 0.5, 0.1]","[0.8, 0.4, 0.2]","[u'black', u'blue', u'red']","[u'left', u'middle', u'right']","[0.9, 0.5, 0.1]","[u'low', u'high', u'medium']","blue",50,"middle","high","True","False",404,3450,NA
"A2IQ0QCTQ3KWLT","Thu Jan 30 2020 08:28:25 GMT-0500 (Eastern Standard Time)","Thu Jan 30 2020 08:35:34 GMT-0500 (Eastern Standard Time)","Mozilla/5.0 (Macintosh; Intel Mac OS X 10_15_2) AppleWebKit/537.36 (KHTML, like Gecko) Chrome/79.0.3945.130 Safari/537.36",76,"[0.9, 0.5, 0.1]","[0.8, 0.4, 0.2]","[u'black', u'blue', u'red']","[u'left', u'middle', u'right']","[0.9, 0.5, 0.1]","[u'low', u'high', u'medium']","blue",50,"middle","high","True","False",326,3550,NA
"A2IQ0QCTQ3KWLT","Thu Jan 30 2020 08:28:25 GMT-0500 (Eastern Standard Time)","Thu Jan 30 2020 08:35:34 GMT-0500 (Eastern Standard Time)","Mozilla/5.0 (Macintosh; Intel Mac OS X 10_15_2) AppleWebKit/537.36 (KHTML, like Gecko) Chrome/79.0.3945.130 Safari/537.36",77,"[0.9, 0.5, 0.1]","[0.8, 0.4, 0.2]","[u'black', u'blue', u'red']","[u'left', u'middle', u'right']","[0.9, 0.5, 0.1]","[u'low', u'high', u'medium']","blue",50,"middle","high","True","False",441,3650,NA
"A2IQ0QCTQ3KWLT","Thu Jan 30 2020 08:28:25 GMT-0500 (Eastern Standard Time)","Thu Jan 30 2020 08:35:34 GMT-0500 (Eastern Standard Time)","Mozilla/5.0 (Macintosh; Intel Mac OS X 10_15_2) AppleWebKit/537.36 (KHTML, like Gecko) Chrome/79.0.3945.130 Safari/537.36",78,"[0.9, 0.5, 0.1]","[0.8, 0.4, 0.2]","[u'black', u'blue', u'red']","[u'left', u'middle', u'right']","[0.9, 0.5, 0.1]","[u'low', u'high', u'medium']","blue",50,"middle","high","True","False",351,3750,NA
"A2IQ0QCTQ3KWLT","Thu Jan 30 2020 08:28:25 GMT-0500 (Eastern Standard Time)","Thu Jan 30 2020 08:35:34 GMT-0500 (Eastern Standard Time)","Mozilla/5.0 (Macintosh; Intel Mac OS X 10_15_2) AppleWebKit/537.36 (KHTML, like Gecko) Chrome/79.0.3945.130 Safari/537.36",79,"[0.9, 0.5, 0.1]","[0.8, 0.4, 0.2]","[u'black', u'blue', u'red']","[u'left', u'middle', u'right']","[0.9, 0.5, 0.1]","[u'low', u'high', u'medium']","blue",50,"middle","high","True","False",580,3850,NA
"A2IQ0QCTQ3KWLT","Thu Jan 30 2020 08:28:25 GMT-0500 (Eastern Standard Time)","Thu Jan 30 2020 08:35:34 GMT-0500 (Eastern Standard Time)","Mozilla/5.0 (Macintosh; Intel Mac OS X 10_15_2) AppleWebKit/537.36 (KHTML, like Gecko) Chrome/79.0.3945.130 Safari/537.36",80,"[0.9, 0.5, 0.1]","[0.8, 0.4, 0.2]","[u'black', u'blue', u'red']","[u'left', u'middle', u'right']","[0.9, 0.5, 0.1]","[u'low', u'high', u'medium']","blue",50,"middle","high","True","False",535,3950,NA
"A2IQ0QCTQ3KWLT","Thu Jan 30 2020 08:28:25 GMT-0500 (Eastern Standard Time)","Thu Jan 30 2020 08:35:34 GMT-0500 (Eastern Standard Time)","Mozilla/5.0 (Macintosh; Intel Mac OS X 10_15_2) AppleWebKit/537.36 (KHTML, like Gecko) Chrome/79.0.3945.130 Safari/537.36",81,"[0.9, 0.5, 0.1]","[0.8, 0.4, 0.2]","[u'black', u'blue', u'red']","[u'left', u'middle', u'right']","[0.8, 0.4, 0.2]","[u'high', u'low', u'medium']","black",49,"left","high","False","False",522,3900,NA
"A2IQ0QCTQ3KWLT","Thu Jan 30 2020 08:28:25 GMT-0500 (Eastern Standard Time)","Thu Jan 30 2020 08:35:34 GMT-0500 (Eastern Standard Time)","Mozilla/5.0 (Macintosh; Intel Mac OS X 10_15_2) AppleWebKit/537.36 (KHTML, like Gecko) Chrome/79.0.3945.130 Safari/537.36",82,"[0.9, 0.5, 0.1]","[0.8, 0.4, 0.2]","[u'black', u'blue', u'red']","[u'left', u'middle', u'right']","[0.8, 0.4, 0.2]","[u'high', u'low', u'medium']","black",49,"left","high","True","False",485,4000,NA
"A2IQ0QCTQ3KWLT","Thu Jan 30 2020 08:28:25 GMT-0500 (Eastern Standard Time)","Thu Jan 30 2020 08:35:34 GMT-0500 (Eastern Standard Time)","Mozilla/5.0 (Macintosh; Intel Mac OS X 10_15_2) AppleWebKit/537.36 (KHTML, like Gecko) Chrome/79.0.3945.130 Safari/537.36",83,"[0.9, 0.5, 0.1]","[0.8, 0.4, 0.2]","[u'black', u'blue', u'red']","[u'left', u'middle', u'right']","[0.8, 0.4, 0.2]","[u'high', u'low', u'medium']","black",49,"left","high","True","False",317,4100,NA
"A2IQ0QCTQ3KWLT","Thu Jan 30 2020 08:28:25 GMT-0500 (Eastern Standard Time)","Thu Jan 30 2020 08:35:34 GMT-0500 (Eastern Standard Time)","Mozilla/5.0 (Macintosh; Intel Mac OS X 10_15_2) AppleWebKit/537.36 (KHTML, like Gecko) Chrome/79.0.3945.130 Safari/537.36",84,"[0.9, 0.5, 0.1]","[0.8, 0.4, 0.2]","[u'black', u'blue', u'red']","[u'left', u'middle', u'right']","[0.8, 0.4, 0.2]","[u'high', u'low', u'medium']","black",49,"left","high","False","False",299,4050,NA
"A2IQ0QCTQ3KWLT","Thu Jan 30 2020 08:28:25 GMT-0500 (Eastern Standard Time)","Thu Jan 30 2020 08:35:34 GMT-0500 (Eastern Standard Time)","Mozilla/5.0 (Macintosh; Intel Mac OS X 10_15_2) AppleWebKit/537.36 (KHTML, like Gecko) Chrome/79.0.3945.130 Safari/537.36",85,"[0.9, 0.5, 0.1]","[0.8, 0.4, 0.2]","[u'black', u'blue', u'red']","[u'left', u'middle', u'right']","[0.8, 0.4, 0.2]","[u'high', u'low', u'medium']","blue",50,"middle","low","False","False",279,4000,NA
"A2IQ0QCTQ3KWLT","Thu Jan 30 2020 08:28:25 GMT-0500 (Eastern Standard Time)","Thu Jan 30 2020 08:35:34 GMT-0500 (Eastern Standard Time)","Mozilla/5.0 (Macintosh; Intel Mac OS X 10_15_2) AppleWebKit/537.36 (KHTML, like Gecko) Chrome/79.0.3945.130 Safari/537.36",86,"[0.9, 0.5, 0.1]","[0.8, 0.4, 0.2]","[u'black', u'blue', u'red']","[u'left', u'middle', u'right']","[0.8, 0.4, 0.2]","[u'high', u'low', u'medium']","red",51,"right","medium","True","False",420,4100,NA
"A2IQ0QCTQ3KWLT","Thu Jan 30 2020 08:28:25 GMT-0500 (Eastern Standard Time)","Thu Jan 30 2020 08:35:34 GMT-0500 (Eastern Standard Time)","Mozilla/5.0 (Macintosh; Intel Mac OS X 10_15_2) AppleWebKit/537.36 (KHTML, like Gecko) Chrome/79.0.3945.130 Safari/537.36",87,"[0.9, 0.5, 0.1]","[0.8, 0.4, 0.2]","[u'black', u'blue', u'red']","[u'left', u'middle', u'right']","[0.8, 0.4, 0.2]","[u'high', u'low', u'medium']","red",51,"right","medium","False","False",381,4050,NA
"A2IQ0QCTQ3KWLT","Thu Jan 30 2020 08:28:25 GMT-0500 (Eastern Standard Time)","Thu Jan 30 2020 08:35:34 GMT-0500 (Eastern Standard Time)","Mozilla/5.0 (Macintosh; Intel Mac OS X 10_15_2) AppleWebKit/537.36 (KHTML, like Gecko) Chrome/79.0.3945.130 Safari/537.36",88,"[0.9, 0.5, 0.1]","[0.8, 0.4, 0.2]","[u'black', u'blue', u'red']","[u'left', u'middle', u'right']","[0.8, 0.4, 0.2]","[u'high', u'low', u'medium']","black",49,"left","high","True","False",335,4150,NA
"A2IQ0QCTQ3KWLT","Thu Jan 30 2020 08:28:25 GMT-0500 (Eastern Standard Time)","Thu Jan 30 2020 08:35:34 GMT-0500 (Eastern Standard Time)","Mozilla/5.0 (Macintosh; Intel Mac OS X 10_15_2) AppleWebKit/537.36 (KHTML, like Gecko) Chrome/79.0.3945.130 Safari/537.36",89,"[0.9, 0.5, 0.1]","[0.8, 0.4, 0.2]","[u'black', u'blue', u'red']","[u'left', u'middle', u'right']","[0.8, 0.4, 0.2]","[u'high', u'low', u'medium']","black",49,"left","high","True","False",45,4250,NA
"A2IQ0QCTQ3KWLT","Thu Jan 30 2020 08:28:25 GMT-0500 (Eastern Standard Time)","Thu Jan 30 2020 08:35:34 GMT-0500 (Eastern Standard Time)","Mozilla/5.0 (Macintosh; Intel Mac OS X 10_15_2) AppleWebKit/537.36 (KHTML, like Gecko) Chrome/79.0.3945.130 Safari/537.36",90,"[0.9, 0.5, 0.1]","[0.8, 0.4, 0.2]","[u'black', u'blue', u'red']","[u'left', u'middle', u'right']","[0.8, 0.4, 0.2]","[u'high', u'low', u'medium']","black",49,"left","high","True","False",368,4350,NA
"A2IQ0QCTQ3KWLT","Thu Jan 30 2020 08:28:25 GMT-0500 (Eastern Standard Time)","Thu Jan 30 2020 08:35:34 GMT-0500 (Eastern Standard Time)","Mozilla/5.0 (Macintosh; Intel Mac OS X 10_15_2) AppleWebKit/537.36 (KHTML, like Gecko) Chrome/79.0.3945.130 Safari/537.36",91,"[0.9, 0.5, 0.1]","[0.8, 0.4, 0.2]","[u'black', u'blue', u'red']","[u'left', u'middle', u'right']","[0.8, 0.4, 0.2]","[u'high', u'low', u'medium']","black",49,"left","high","True","False",332,4450,NA
"A2IQ0QCTQ3KWLT","Thu Jan 30 2020 08:28:25 GMT-0500 (Eastern Standard Time)","Thu Jan 30 2020 08:35:34 GMT-0500 (Eastern Standard Time)","Mozilla/5.0 (Macintosh; Intel Mac OS X 10_15_2) AppleWebKit/537.36 (KHTML, like Gecko) Chrome/79.0.3945.130 Safari/537.36",92,"[0.9, 0.5, 0.1]","[0.8, 0.4, 0.2]","[u'black', u'blue', u'red']","[u'left', u'middle', u'right']","[0.8, 0.4, 0.2]","[u'high', u'low', u'medium']","black",49,"left","high","True","False",499,4550,NA
"A2IQ0QCTQ3KWLT","Thu Jan 30 2020 08:28:25 GMT-0500 (Eastern Standard Time)","Thu Jan 30 2020 08:35:34 GMT-0500 (Eastern Standard Time)","Mozilla/5.0 (Macintosh; Intel Mac OS X 10_15_2) AppleWebKit/537.36 (KHTML, like Gecko) Chrome/79.0.3945.130 Safari/537.36",93,"[0.9, 0.5, 0.1]","[0.8, 0.4, 0.2]","[u'black', u'blue', u'red']","[u'left', u'middle', u'right']","[0.8, 0.4, 0.2]","[u'high', u'low', u'medium']","black",49,"left","high","True","False",356,4650,NA
"A2IQ0QCTQ3KWLT","Thu Jan 30 2020 08:28:25 GMT-0500 (Eastern Standard Time)","Thu Jan 30 2020 08:35:34 GMT-0500 (Eastern Standard Time)","Mozilla/5.0 (Macintosh; Intel Mac OS X 10_15_2) AppleWebKit/537.36 (KHTML, like Gecko) Chrome/79.0.3945.130 Safari/537.36",94,"[0.9, 0.5, 0.1]","[0.8, 0.4, 0.2]","[u'black', u'blue', u'red']","[u'left', u'middle', u'right']","[0.8, 0.4, 0.2]","[u'high', u'low', u'medium']","black",49,"left","high","False","False",752,4600,NA
"A2IQ0QCTQ3KWLT","Thu Jan 30 2020 08:28:25 GMT-0500 (Eastern Standard Time)","Thu Jan 30 2020 08:35:34 GMT-0500 (Eastern Standard Time)","Mozilla/5.0 (Macintosh; Intel Mac OS X 10_15_2) AppleWebKit/537.36 (KHTML, like Gecko) Chrome/79.0.3945.130 Safari/537.36",95,"[0.9, 0.5, 0.1]","[0.8, 0.4, 0.2]","[u'black', u'blue', u'red']","[u'left', u'middle', u'right']","[0.8, 0.4, 0.2]","[u'high', u'low', u'medium']","black",49,"left","high","False","False",539,4550,NA
"A2IQ0QCTQ3KWLT","Thu Jan 30 2020 08:28:25 GMT-0500 (Eastern Standard Time)","Thu Jan 30 2020 08:35:34 GMT-0500 (Eastern Standard Time)","Mozilla/5.0 (Macintosh; Intel Mac OS X 10_15_2) AppleWebKit/537.36 (KHTML, like Gecko) Chrome/79.0.3945.130 Safari/537.36",96,"[0.9, 0.5, 0.1]","[0.8, 0.4, 0.2]","[u'black', u'blue', u'red']","[u'left', u'middle', u'right']","[0.8, 0.4, 0.2]","[u'high', u'low', u'medium']","red",51,"right","medium","True","False",353,4650,NA
"A2IQ0QCTQ3KWLT","Thu Jan 30 2020 08:28:25 GMT-0500 (Eastern Standard Time)","Thu Jan 30 2020 08:35:34 GMT-0500 (Eastern Standard Time)","Mozilla/5.0 (Macintosh; Intel Mac OS X 10_15_2) AppleWebKit/537.36 (KHTML, like Gecko) Chrome/79.0.3945.130 Safari/537.36",97,"[0.9, 0.5, 0.1]","[0.8, 0.4, 0.2]","[u'black', u'blue', u'red']","[u'left', u'middle', u'right']","[0.8, 0.4, 0.2]","[u'high', u'low', u'medium']","red",51,"right","medium","False","False",505,4600,NA
"A2IQ0QCTQ3KWLT","Thu Jan 30 2020 08:28:25 GMT-0500 (Eastern Standard Time)","Thu Jan 30 2020 08:35:34 GMT-0500 (Eastern Standard Time)","Mozilla/5.0 (Macintosh; Intel Mac OS X 10_15_2) AppleWebKit/537.36 (KHTML, like Gecko) Chrome/79.0.3945.130 Safari/537.36",98,"[0.9, 0.5, 0.1]","[0.8, 0.4, 0.2]","[u'black', u'blue', u'red']","[u'left', u'middle', u'right']","[0.8, 0.4, 0.2]","[u'high', u'low', u'medium']","black",49,"left","high","False","False",285,4550,NA
"A2IQ0QCTQ3KWLT","Thu Jan 30 2020 08:28:25 GMT-0500 (Eastern Standard Time)","Thu Jan 30 2020 08:35:34 GMT-0500 (Eastern Standard Time)","Mozilla/5.0 (Macintosh; Intel Mac OS X 10_15_2) AppleWebKit/537.36 (KHTML, like Gecko) Chrome/79.0.3945.130 Safari/537.36",99,"[0.9, 0.5, 0.1]","[0.8, 0.4, 0.2]","[u'black', u'blue', u'red']","[u'left', u'middle', u'right']","[0.8, 0.4, 0.2]","[u'high', u'low', u'medium']","red",51,"right","medium","True","False",259,4650,NA
"A2IQ0QCTQ3KWLT","Thu Jan 30 2020 08:28:25 GMT-0500 (Eastern Standard Time)","Thu Jan 30 2020 08:35:34 GMT-0500 (Eastern Standard Time)","Mozilla/5.0 (Macintosh; Intel Mac OS X 10_15_2) AppleWebKit/537.36 (KHTML, like Gecko) Chrome/79.0.3945.130 Safari/537.36",100,"[0.9, 0.5, 0.1]","[0.8, 0.4, 0.2]","[u'black', u'blue', u'red']","[u'left', u'middle', u'right']","[0.8, 0.4, 0.2]","[u'high', u'low', u'medium']","red",51,"right","medium","True","False",476,4750,NA
"A2IQ0QCTQ3KWLT","Thu Jan 30 2020 08:28:25 GMT-0500 (Eastern Standard Time)","Thu Jan 30 2020 08:35:34 GMT-0500 (Eastern Standard Time)","Mozilla/5.0 (Macintosh; Intel Mac OS X 10_15_2) AppleWebKit/537.36 (KHTML, like Gecko) Chrome/79.0.3945.130 Safari/537.36",101,"[0.9, 0.5, 0.1]","[0.8, 0.4, 0.2]","[u'black', u'blue', u'red']","[u'left', u'middle', u'right']","[0.8, 0.4, 0.2]","[u'high', u'low', u'medium']","red",51,"right","medium","False","False",516,4700,NA
"A2IQ0QCTQ3KWLT","Thu Jan 30 2020 08:28:25 GMT-0500 (Eastern Standard Time)","Thu Jan 30 2020 08:35:34 GMT-0500 (Eastern Standard Time)","Mozilla/5.0 (Macintosh; Intel Mac OS X 10_15_2) AppleWebKit/537.36 (KHTML, like Gecko) Chrome/79.0.3945.130 Safari/537.36",102,"[0.9, 0.5, 0.1]","[0.8, 0.4, 0.2]","[u'black', u'blue', u'red']","[u'left', u'middle', u'right']","[0.8, 0.4, 0.2]","[u'high', u'low', u'medium']","black",49,"left","high","True","False",352,4800,NA
"A2IQ0QCTQ3KWLT","Thu Jan 30 2020 08:28:25 GMT-0500 (Eastern Standard Time)","Thu Jan 30 2020 08:35:34 GMT-0500 (Eastern Standard Time)","Mozilla/5.0 (Macintosh; Intel Mac OS X 10_15_2) AppleWebKit/537.36 (KHTML, like Gecko) Chrome/79.0.3945.130 Safari/537.36",103,"[0.9, 0.5, 0.1]","[0.8, 0.4, 0.2]","[u'black', u'blue', u'red']","[u'left', u'middle', u'right']","[0.8, 0.4, 0.2]","[u'high', u'low', u'medium']","black",49,"left","high","False","False",316,4750,NA
"A2IQ0QCTQ3KWLT","Thu Jan 30 2020 08:28:25 GMT-0500 (Eastern Standard Time)","Thu Jan 30 2020 08:35:34 GMT-0500 (Eastern Standard Time)","Mozilla/5.0 (Macintosh; Intel Mac OS X 10_15_2) AppleWebKit/537.36 (KHTML, like Gecko) Chrome/79.0.3945.130 Safari/537.36",104,"[0.9, 0.5, 0.1]","[0.8, 0.4, 0.2]","[u'black', u'blue', u'red']","[u'left', u'middle', u'right']","[0.8, 0.4, 0.2]","[u'high', u'low', u'medium']","red",51,"right","medium","True","False",354,4850,NA
"A2IQ0QCTQ3KWLT","Thu Jan 30 2020 08:28:25 GMT-0500 (Eastern Standard Time)","Thu Jan 30 2020 08:35:34 GMT-0500 (Eastern Standard Time)","Mozilla/5.0 (Macintosh; Intel Mac OS X 10_15_2) AppleWebKit/537.36 (KHTML, like Gecko) Chrome/79.0.3945.130 Safari/537.36",105,"[0.9, 0.5, 0.1]","[0.8, 0.4, 0.2]","[u'black', u'blue', u'red']","[u'left', u'middle', u'right']","[0.8, 0.4, 0.2]","[u'high', u'low', u'medium']","red",51,"right","medium","True","False",407,4950,NA
"A2IQ0QCTQ3KWLT","Thu Jan 30 2020 08:28:25 GMT-0500 (Eastern Standard Time)","Thu Jan 30 2020 08:35:34 GMT-0500 (Eastern Standard Time)","Mozilla/5.0 (Macintosh; Intel Mac OS X 10_15_2) AppleWebKit/537.36 (KHTML, like Gecko) Chrome/79.0.3945.130 Safari/537.36",106,"[0.9, 0.5, 0.1]","[0.8, 0.4, 0.2]","[u'black', u'blue', u'red']","[u'left', u'middle', u'right']","[0.8, 0.4, 0.2]","[u'high', u'low', u'medium']","red",51,"right","medium","False","False",566,4900,NA
"A2IQ0QCTQ3KWLT","Thu Jan 30 2020 08:28:25 GMT-0500 (Eastern Standard Time)","Thu Jan 30 2020 08:35:34 GMT-0500 (Eastern Standard Time)","Mozilla/5.0 (Macintosh; Intel Mac OS X 10_15_2) AppleWebKit/537.36 (KHTML, like Gecko) Chrome/79.0.3945.130 Safari/537.36",107,"[0.9, 0.5, 0.1]","[0.8, 0.4, 0.2]","[u'black', u'blue', u'red']","[u'left', u'middle', u'right']","[0.8, 0.4, 0.2]","[u'high', u'low', u'medium']","black",49,"left","high","True","False",424,5000,NA
"A2IQ0QCTQ3KWLT","Thu Jan 30 2020 08:28:25 GMT-0500 (Eastern Standard Time)","Thu Jan 30 2020 08:35:34 GMT-0500 (Eastern Standard Time)","Mozilla/5.0 (Macintosh; Intel Mac OS X 10_15_2) AppleWebKit/537.36 (KHTML, like Gecko) Chrome/79.0.3945.130 Safari/537.36",108,"[0.9, 0.5, 0.1]","[0.8, 0.4, 0.2]","[u'black', u'blue', u'red']","[u'left', u'middle', u'right']","[0.8, 0.4, 0.2]","[u'high', u'low', u'medium']","red",51,"right","medium","True","False",379,5100,NA
"A2IQ0QCTQ3KWLT","Thu Jan 30 2020 08:28:25 GMT-0500 (Eastern Standard Time)","Thu Jan 30 2020 08:35:34 GMT-0500 (Eastern Standard Time)","Mozilla/5.0 (Macintosh; Intel Mac OS X 10_15_2) AppleWebKit/537.36 (KHTML, like Gecko) Chrome/79.0.3945.130 Safari/537.36",109,"[0.9, 0.5, 0.1]","[0.8, 0.4, 0.2]","[u'black', u'blue', u'red']","[u'left', u'middle', u'right']","[0.8, 0.4, 0.2]","[u'high', u'low', u'medium']","red",51,"right","medium","False","False",456,5050,NA
"A2IQ0QCTQ3KWLT","Thu Jan 30 2020 08:28:25 GMT-0500 (Eastern Standard Time)","Thu Jan 30 2020 08:35:34 GMT-0500 (Eastern Standard Time)","Mozilla/5.0 (Macintosh; Intel Mac OS X 10_15_2) AppleWebKit/537.36 (KHTML, like Gecko) Chrome/79.0.3945.130 Safari/537.36",110,"[0.9, 0.5, 0.1]","[0.8, 0.4, 0.2]","[u'black', u'blue', u'red']","[u'left', u'middle', u'right']","[0.8, 0.4, 0.2]","[u'high', u'low', u'medium']","black",49,"left","high","True","False",382,5150,NA
"A2IQ0QCTQ3KWLT","Thu Jan 30 2020 08:28:25 GMT-0500 (Eastern Standard Time)","Thu Jan 30 2020 08:35:34 GMT-0500 (Eastern Standard Time)","Mozilla/5.0 (Macintosh; Intel Mac OS X 10_15_2) AppleWebKit/537.36 (KHTML, like Gecko) Chrome/79.0.3945.130 Safari/537.36",111,"[0.9, 0.5, 0.1]","[0.8, 0.4, 0.2]","[u'black', u'blue', u'red']","[u'left', u'middle', u'right']","[0.8, 0.4, 0.2]","[u'high', u'low', u'medium']","red",51,"right","medium","True","False",380,5250,NA
"A2IQ0QCTQ3KWLT","Thu Jan 30 2020 08:28:25 GMT-0500 (Eastern Standard Time)","Thu Jan 30 2020 08:35:34 GMT-0500 (Eastern Standard Time)","Mozilla/5.0 (Macintosh; Intel Mac OS X 10_15_2) AppleWebKit/537.36 (KHTML, like Gecko) Chrome/79.0.3945.130 Safari/537.36",112,"[0.9, 0.5, 0.1]","[0.8, 0.4, 0.2]","[u'black', u'blue', u'red']","[u'left', u'middle', u'right']","[0.8, 0.4, 0.2]","[u'high', u'low', u'medium']","black",49,"left","high","True","False",329,5350,NA
"A2IQ0QCTQ3KWLT","Thu Jan 30 2020 08:28:25 GMT-0500 (Eastern Standard Time)","Thu Jan 30 2020 08:35:34 GMT-0500 (Eastern Standard Time)","Mozilla/5.0 (Macintosh; Intel Mac OS X 10_15_2) AppleWebKit/537.36 (KHTML, like Gecko) Chrome/79.0.3945.130 Safari/537.36",113,"[0.9, 0.5, 0.1]","[0.8, 0.4, 0.2]","[u'black', u'blue', u'red']","[u'left', u'middle', u'right']","[0.8, 0.4, 0.2]","[u'high', u'low', u'medium']","red",51,"right","medium","True","False",378,5450,NA
"A2IQ0QCTQ3KWLT","Thu Jan 30 2020 08:28:25 GMT-0500 (Eastern Standard Time)","Thu Jan 30 2020 08:35:34 GMT-0500 (Eastern Standard Time)","Mozilla/5.0 (Macintosh; Intel Mac OS X 10_15_2) AppleWebKit/537.36 (KHTML, like Gecko) Chrome/79.0.3945.130 Safari/537.36",114,"[0.9, 0.5, 0.1]","[0.8, 0.4, 0.2]","[u'black', u'blue', u'red']","[u'left', u'middle', u'right']","[0.8, 0.4, 0.2]","[u'high', u'low', u'medium']","black",49,"left","high","True","False",434,5550,NA
"A2IQ0QCTQ3KWLT","Thu Jan 30 2020 08:28:25 GMT-0500 (Eastern Standard Time)","Thu Jan 30 2020 08:35:34 GMT-0500 (Eastern Standard Time)","Mozilla/5.0 (Macintosh; Intel Mac OS X 10_15_2) AppleWebKit/537.36 (KHTML, like Gecko) Chrome/79.0.3945.130 Safari/537.36",115,"[0.9, 0.5, 0.1]","[0.8, 0.4, 0.2]","[u'black', u'blue', u'red']","[u'left', u'middle', u'right']","[0.8, 0.4, 0.2]","[u'high', u'low', u'medium']","red",51,"right","medium","False","False",402,5500,NA
"A2IQ0QCTQ3KWLT","Thu Jan 30 2020 08:28:25 GMT-0500 (Eastern Standard Time)","Thu Jan 30 2020 08:35:34 GMT-0500 (Eastern Standard Time)","Mozilla/5.0 (Macintosh; Intel Mac OS X 10_15_2) AppleWebKit/537.36 (KHTML, like Gecko) Chrome/79.0.3945.130 Safari/537.36",116,"[0.9, 0.5, 0.1]","[0.8, 0.4, 0.2]","[u'black', u'blue', u'red']","[u'left', u'middle', u'right']","[0.8, 0.4, 0.2]","[u'high', u'low', u'medium']","black",49,"left","high","False","False",337,5450,NA
"A2IQ0QCTQ3KWLT","Thu Jan 30 2020 08:28:25 GMT-0500 (Eastern Standard Time)","Thu Jan 30 2020 08:35:34 GMT-0500 (Eastern Standard Time)","Mozilla/5.0 (Macintosh; Intel Mac OS X 10_15_2) AppleWebKit/537.36 (KHTML, like Gecko) Chrome/79.0.3945.130 Safari/537.36",117,"[0.9, 0.5, 0.1]","[0.8, 0.4, 0.2]","[u'black', u'blue', u'red']","[u'left', u'middle', u'right']","[0.8, 0.4, 0.2]","[u'high', u'low', u'medium']","black",49,"left","high","True","False",492,5550,NA
"A2IQ0QCTQ3KWLT","Thu Jan 30 2020 08:28:25 GMT-0500 (Eastern Standard Time)","Thu Jan 30 2020 08:35:34 GMT-0500 (Eastern Standard Time)","Mozilla/5.0 (Macintosh; Intel Mac OS X 10_15_2) AppleWebKit/537.36 (KHTML, like Gecko) Chrome/79.0.3945.130 Safari/537.36",118,"[0.9, 0.5, 0.1]","[0.8, 0.4, 0.2]","[u'black', u'blue', u'red']","[u'left', u'middle', u'right']","[0.8, 0.4, 0.2]","[u'high', u'low', u'medium']","red",51,"right","medium","False","False",353,5500,NA
"A2IQ0QCTQ3KWLT","Thu Jan 30 2020 08:28:25 GMT-0500 (Eastern Standard Time)","Thu Jan 30 2020 08:35:34 GMT-0500 (Eastern Standard Time)","Mozilla/5.0 (Macintosh; Intel Mac OS X 10_15_2) AppleWebKit/537.36 (KHTML, like Gecko) Chrome/79.0.3945.130 Safari/537.36",119,"[0.9, 0.5, 0.1]","[0.8, 0.4, 0.2]","[u'black', u'blue', u'red']","[u'left', u'middle', u'right']","[0.8, 0.4, 0.2]","[u'high', u'low', u'medium']","black",49,"left","high","True","False",333,5600,NA
"A2IQ0QCTQ3KWLT","Thu Jan 30 2020 08:28:25 GMT-0500 (Eastern Standard Time)","Thu Jan 30 2020 08:35:34 GMT-0500 (Eastern Standard Time)","Mozilla/5.0 (Macintosh; Intel Mac OS X 10_15_2) AppleWebKit/537.36 (KHTML, like Gecko) Chrome/79.0.3945.130 Safari/537.36",120,"[0.9, 0.5, 0.1]","[0.8, 0.4, 0.2]","[u'black', u'blue', u'red']","[u'left', u'middle', u'right']","[0.8, 0.4, 0.2]","[u'high', u'low', u'medium']","black",49,"left","high","False","False",356,5550,NA
"A2IQ0QCTQ3KWLT","Thu Jan 30 2020 08:28:25 GMT-0500 (Eastern Standard Time)","Thu Jan 30 2020 08:35:34 GMT-0500 (Eastern Standard Time)","Mozilla/5.0 (Macintosh; Intel Mac OS X 10_15_2) AppleWebKit/537.36 (KHTML, like Gecko) Chrome/79.0.3945.130 Safari/537.36",121,"[0.9, 0.5, 0.1]","[0.8, 0.4, 0.2]","[u'black', u'blue', u'red']","[u'left', u'middle', u'right']","[0.8, 0.4, 0.2]","[u'medium', u'high', u'low']","blue",50,"middle","high","True","False",477,5650,NA
"A2IQ0QCTQ3KWLT","Thu Jan 30 2020 08:28:25 GMT-0500 (Eastern Standard Time)","Thu Jan 30 2020 08:35:34 GMT-0500 (Eastern Standard Time)","Mozilla/5.0 (Macintosh; Intel Mac OS X 10_15_2) AppleWebKit/537.36 (KHTML, like Gecko) Chrome/79.0.3945.130 Safari/537.36",122,"[0.9, 0.5, 0.1]","[0.8, 0.4, 0.2]","[u'black', u'blue', u'red']","[u'left', u'middle', u'right']","[0.8, 0.4, 0.2]","[u'medium', u'high', u'low']","blue",50,"middle","high","True","False",309,5750,NA
"A2IQ0QCTQ3KWLT","Thu Jan 30 2020 08:28:25 GMT-0500 (Eastern Standard Time)","Thu Jan 30 2020 08:35:34 GMT-0500 (Eastern Standard Time)","Mozilla/5.0 (Macintosh; Intel Mac OS X 10_15_2) AppleWebKit/537.36 (KHTML, like Gecko) Chrome/79.0.3945.130 Safari/537.36",123,"[0.9, 0.5, 0.1]","[0.8, 0.4, 0.2]","[u'black', u'blue', u'red']","[u'left', u'middle', u'right']","[0.8, 0.4, 0.2]","[u'medium', u'high', u'low']","blue",50,"middle","high","True","False",394,5850,NA
"A2IQ0QCTQ3KWLT","Thu Jan 30 2020 08:28:25 GMT-0500 (Eastern Standard Time)","Thu Jan 30 2020 08:35:34 GMT-0500 (Eastern Standard Time)","Mozilla/5.0 (Macintosh; Intel Mac OS X 10_15_2) AppleWebKit/537.36 (KHTML, like Gecko) Chrome/79.0.3945.130 Safari/537.36",124,"[0.9, 0.5, 0.1]","[0.8, 0.4, 0.2]","[u'black', u'blue', u'red']","[u'left', u'middle', u'right']","[0.8, 0.4, 0.2]","[u'medium', u'high', u'low']","blue",50,"middle","high","True","False",317,5950,NA
"A2IQ0QCTQ3KWLT","Thu Jan 30 2020 08:28:25 GMT-0500 (Eastern Standard Time)","Thu Jan 30 2020 08:35:34 GMT-0500 (Eastern Standard Time)","Mozilla/5.0 (Macintosh; Intel Mac OS X 10_15_2) AppleWebKit/537.36 (KHTML, like Gecko) Chrome/79.0.3945.130 Safari/537.36",125,"[0.9, 0.5, 0.1]","[0.8, 0.4, 0.2]","[u'black', u'blue', u'red']","[u'left', u'middle', u'right']","[0.8, 0.4, 0.2]","[u'medium', u'high', u'low']","blue",50,"middle","high","False","False",234,5900,NA
"A2IQ0QCTQ3KWLT","Thu Jan 30 2020 08:28:25 GMT-0500 (Eastern Standard Time)","Thu Jan 30 2020 08:35:34 GMT-0500 (Eastern Standard Time)","Mozilla/5.0 (Macintosh; Intel Mac OS X 10_15_2) AppleWebKit/537.36 (KHTML, like Gecko) Chrome/79.0.3945.130 Safari/537.36",126,"[0.9, 0.5, 0.1]","[0.8, 0.4, 0.2]","[u'black', u'blue', u'red']","[u'left', u'middle', u'right']","[0.8, 0.4, 0.2]","[u'medium', u'high', u'low']","red",51,"right","low","True","False",303,6000,NA
"A2IQ0QCTQ3KWLT","Thu Jan 30 2020 08:28:25 GMT-0500 (Eastern Standard Time)","Thu Jan 30 2020 08:35:34 GMT-0500 (Eastern Standard Time)","Mozilla/5.0 (Macintosh; Intel Mac OS X 10_15_2) AppleWebKit/537.36 (KHTML, like Gecko) Chrome/79.0.3945.130 Safari/537.36",127,"[0.9, 0.5, 0.1]","[0.8, 0.4, 0.2]","[u'black', u'blue', u'red']","[u'left', u'middle', u'right']","[0.8, 0.4, 0.2]","[u'medium', u'high', u'low']","red",51,"right","low","False","False",318,5950,NA
"A2IQ0QCTQ3KWLT","Thu Jan 30 2020 08:28:25 GMT-0500 (Eastern Standard Time)","Thu Jan 30 2020 08:35:34 GMT-0500 (Eastern Standard Time)","Mozilla/5.0 (Macintosh; Intel Mac OS X 10_15_2) AppleWebKit/537.36 (KHTML, like Gecko) Chrome/79.0.3945.130 Safari/537.36",128,"[0.9, 0.5, 0.1]","[0.8, 0.4, 0.2]","[u'black', u'blue', u'red']","[u'left', u'middle', u'right']","[0.8, 0.4, 0.2]","[u'medium', u'high', u'low']","blue",50,"middle","high","True","False",220,6050,NA
"A2IQ0QCTQ3KWLT","Thu Jan 30 2020 08:28:25 GMT-0500 (Eastern Standard Time)","Thu Jan 30 2020 08:35:34 GMT-0500 (Eastern Standard Time)","Mozilla/5.0 (Macintosh; Intel Mac OS X 10_15_2) AppleWebKit/537.36 (KHTML, like Gecko) Chrome/79.0.3945.130 Safari/537.36",129,"[0.9, 0.5, 0.1]","[0.8, 0.4, 0.2]","[u'black', u'blue', u'red']","[u'left', u'middle', u'right']","[0.8, 0.4, 0.2]","[u'medium', u'high', u'low']","blue",50,"middle","high","True","False",315,6150,NA
"A2IQ0QCTQ3KWLT","Thu Jan 30 2020 08:28:25 GMT-0500 (Eastern Standard Time)","Thu Jan 30 2020 08:35:34 GMT-0500 (Eastern Standard Time)","Mozilla/5.0 (Macintosh; Intel Mac OS X 10_15_2) AppleWebKit/537.36 (KHTML, like Gecko) Chrome/79.0.3945.130 Safari/537.36",130,"[0.9, 0.5, 0.1]","[0.8, 0.4, 0.2]","[u'black', u'blue', u'red']","[u'left', u'middle', u'right']","[0.8, 0.4, 0.2]","[u'medium', u'high', u'low']","blue",50,"middle","high","True","False",335,6250,NA
"A2IQ0QCTQ3KWLT","Thu Jan 30 2020 08:28:25 GMT-0500 (Eastern Standard Time)","Thu Jan 30 2020 08:35:34 GMT-0500 (Eastern Standard Time)","Mozilla/5.0 (Macintosh; Intel Mac OS X 10_15_2) AppleWebKit/537.36 (KHTML, like Gecko) Chrome/79.0.3945.130 Safari/537.36",131,"[0.9, 0.5, 0.1]","[0.8, 0.4, 0.2]","[u'black', u'blue', u'red']","[u'left', u'middle', u'right']","[0.8, 0.4, 0.2]","[u'medium', u'high', u'low']","blue",50,"middle","high","True","False",518,6350,NA
"A2IQ0QCTQ3KWLT","Thu Jan 30 2020 08:28:25 GMT-0500 (Eastern Standard Time)","Thu Jan 30 2020 08:35:34 GMT-0500 (Eastern Standard Time)","Mozilla/5.0 (Macintosh; Intel Mac OS X 10_15_2) AppleWebKit/537.36 (KHTML, like Gecko) Chrome/79.0.3945.130 Safari/537.36",132,"[0.9, 0.5, 0.1]","[0.8, 0.4, 0.2]","[u'black', u'blue', u'red']","[u'left', u'middle', u'right']","[0.8, 0.4, 0.2]","[u'medium', u'high', u'low']","blue",50,"middle","high","True","False",349,6450,NA
"A2IQ0QCTQ3KWLT","Thu Jan 30 2020 08:28:25 GMT-0500 (Eastern Standard Time)","Thu Jan 30 2020 08:35:34 GMT-0500 (Eastern Standard Time)","Mozilla/5.0 (Macintosh; Intel Mac OS X 10_15_2) AppleWebKit/537.36 (KHTML, like Gecko) Chrome/79.0.3945.130 Safari/537.36",133,"[0.9, 0.5, 0.1]","[0.8, 0.4, 0.2]","[u'black', u'blue', u'red']","[u'left', u'middle', u'right']","[0.8, 0.4, 0.2]","[u'medium', u'high', u'low']","blue",50,"middle","high","True","False",312,6550,NA
"A2IQ0QCTQ3KWLT","Thu Jan 30 2020 08:28:25 GMT-0500 (Eastern Standard Time)","Thu Jan 30 2020 08:35:34 GMT-0500 (Eastern Standard Time)","Mozilla/5.0 (Macintosh; Intel Mac OS X 10_15_2) AppleWebKit/537.36 (KHTML, like Gecko) Chrome/79.0.3945.130 Safari/537.36",134,"[0.9, 0.5, 0.1]","[0.8, 0.4, 0.2]","[u'black', u'blue', u'red']","[u'left', u'middle', u'right']","[0.8, 0.4, 0.2]","[u'medium', u'high', u'low']","blue",50,"middle","high","True","False",291,6650,NA
"A2IQ0QCTQ3KWLT","Thu Jan 30 2020 08:28:25 GMT-0500 (Eastern Standard Time)","Thu Jan 30 2020 08:35:34 GMT-0500 (Eastern Standard Time)","Mozilla/5.0 (Macintosh; Intel Mac OS X 10_15_2) AppleWebKit/537.36 (KHTML, like Gecko) Chrome/79.0.3945.130 Safari/537.36",135,"[0.9, 0.5, 0.1]","[0.8, 0.4, 0.2]","[u'black', u'blue', u'red']","[u'left', u'middle', u'right']","[0.8, 0.4, 0.2]","[u'medium', u'high', u'low']","blue",50,"middle","high","True","False",557,6750,NA
"A2IQ0QCTQ3KWLT","Thu Jan 30 2020 08:28:25 GMT-0500 (Eastern Standard Time)","Thu Jan 30 2020 08:35:34 GMT-0500 (Eastern Standard Time)","Mozilla/5.0 (Macintosh; Intel Mac OS X 10_15_2) AppleWebKit/537.36 (KHTML, like Gecko) Chrome/79.0.3945.130 Safari/537.36",136,"[0.9, 0.5, 0.1]","[0.8, 0.4, 0.2]","[u'black', u'blue', u'red']","[u'left', u'middle', u'right']","[0.8, 0.4, 0.2]","[u'medium', u'high', u'low']","blue",50,"middle","high","True","True",376,6850,NA
"A2IQ0QCTQ3KWLT","Thu Jan 30 2020 08:28:25 GMT-0500 (Eastern Standard Time)","Thu Jan 30 2020 08:35:34 GMT-0500 (Eastern Standard Time)","Mozilla/5.0 (Macintosh; Intel Mac OS X 10_15_2) AppleWebKit/537.36 (KHTML, like Gecko) Chrome/79.0.3945.130 Safari/537.36",137,"[0.9, 0.5, 0.1]","[0.8, 0.4, 0.2]","[u'black', u'blue', u'red']","[u'left', u'middle', u'right']","[0.8, 0.4, 0.2]","[u'high', u'medium', u'low']","blue",50,"middle","medium","False","False",431,6800,NA
"A2IQ0QCTQ3KWLT","Thu Jan 30 2020 08:28:25 GMT-0500 (Eastern Standard Time)","Thu Jan 30 2020 08:35:34 GMT-0500 (Eastern Standard Time)","Mozilla/5.0 (Macintosh; Intel Mac OS X 10_15_2) AppleWebKit/537.36 (KHTML, like Gecko) Chrome/79.0.3945.130 Safari/537.36",138,"[0.9, 0.5, 0.1]","[0.8, 0.4, 0.2]","[u'black', u'blue', u'red']","[u'left', u'middle', u'right']","[0.8, 0.4, 0.2]","[u'high', u'medium', u'low']","red",51,"right","low","False","False",600,6750,NA
"A2IQ0QCTQ3KWLT","Thu Jan 30 2020 08:28:25 GMT-0500 (Eastern Standard Time)","Thu Jan 30 2020 08:35:34 GMT-0500 (Eastern Standard Time)","Mozilla/5.0 (Macintosh; Intel Mac OS X 10_15_2) AppleWebKit/537.36 (KHTML, like Gecko) Chrome/79.0.3945.130 Safari/537.36",139,"[0.9, 0.5, 0.1]","[0.8, 0.4, 0.2]","[u'black', u'blue', u'red']","[u'left', u'middle', u'right']","[0.8, 0.4, 0.2]","[u'high', u'medium', u'low']","blue",50,"middle","medium","False","False",168,6700,NA
"A2IQ0QCTQ3KWLT","Thu Jan 30 2020 08:28:25 GMT-0500 (Eastern Standard Time)","Thu Jan 30 2020 08:35:34 GMT-0500 (Eastern Standard Time)","Mozilla/5.0 (Macintosh; Intel Mac OS X 10_15_2) AppleWebKit/537.36 (KHTML, like Gecko) Chrome/79.0.3945.130 Safari/537.36",140,"[0.9, 0.5, 0.1]","[0.8, 0.4, 0.2]","[u'black', u'blue', u'red']","[u'left', u'middle', u'right']","[0.8, 0.4, 0.2]","[u'high', u'medium', u'low']","blue",50,"middle","medium","True","False",225,6800,NA
"A2IQ0QCTQ3KWLT","Thu Jan 30 2020 08:28:25 GMT-0500 (Eastern Standard Time)","Thu Jan 30 2020 08:35:34 GMT-0500 (Eastern Standard Time)","Mozilla/5.0 (Macintosh; Intel Mac OS X 10_15_2) AppleWebKit/537.36 (KHTML, like Gecko) Chrome/79.0.3945.130 Safari/537.36",141,"[0.9, 0.5, 0.1]","[0.8, 0.4, 0.2]","[u'black', u'blue', u'red']","[u'left', u'middle', u'right']","[0.8, 0.4, 0.2]","[u'high', u'medium', u'low']","blue",50,"middle","medium","False","False",233,6750,NA
"A2IQ0QCTQ3KWLT","Thu Jan 30 2020 08:28:25 GMT-0500 (Eastern Standard Time)","Thu Jan 30 2020 08:35:34 GMT-0500 (Eastern Standard Time)","Mozilla/5.0 (Macintosh; Intel Mac OS X 10_15_2) AppleWebKit/537.36 (KHTML, like Gecko) Chrome/79.0.3945.130 Safari/537.36",142,"[0.9, 0.5, 0.1]","[0.8, 0.4, 0.2]","[u'black', u'blue', u'red']","[u'left', u'middle', u'right']","[0.8, 0.4, 0.2]","[u'high', u'medium', u'low']","black",49,"left","high","True","False",320,6850,NA
"A2IQ0QCTQ3KWLT","Thu Jan 30 2020 08:28:25 GMT-0500 (Eastern Standard Time)","Thu Jan 30 2020 08:35:34 GMT-0500 (Eastern Standard Time)","Mozilla/5.0 (Macintosh; Intel Mac OS X 10_15_2) AppleWebKit/537.36 (KHTML, like Gecko) Chrome/79.0.3945.130 Safari/537.36",143,"[0.9, 0.5, 0.1]","[0.8, 0.4, 0.2]","[u'black', u'blue', u'red']","[u'left', u'middle', u'right']","[0.8, 0.4, 0.2]","[u'high', u'medium', u'low']","black",49,"left","high","True","False",328,6950,NA
"A2IQ0QCTQ3KWLT","Thu Jan 30 2020 08:28:25 GMT-0500 (Eastern Standard Time)","Thu Jan 30 2020 08:35:34 GMT-0500 (Eastern Standard Time)","Mozilla/5.0 (Macintosh; Intel Mac OS X 10_15_2) AppleWebKit/537.36 (KHTML, like Gecko) Chrome/79.0.3945.130 Safari/537.36",144,"[0.9, 0.5, 0.1]","[0.8, 0.4, 0.2]","[u'black', u'blue', u'red']","[u'left', u'middle', u'right']","[0.8, 0.4, 0.2]","[u'high', u'medium', u'low']","black",49,"left","high","True","False",531,7050,NA
"A2IQ0QCTQ3KWLT","Thu Jan 30 2020 08:28:25 GMT-0500 (Eastern Standard Time)","Thu Jan 30 2020 08:35:34 GMT-0500 (Eastern Standard Time)","Mozilla/5.0 (Macintosh; Intel Mac OS X 10_15_2) AppleWebKit/537.36 (KHTML, like Gecko) Chrome/79.0.3945.130 Safari/537.36",145,"[0.9, 0.5, 0.1]","[0.8, 0.4, 0.2]","[u'black', u'blue', u'red']","[u'left', u'middle', u'right']","[0.8, 0.4, 0.2]","[u'high', u'medium', u'low']","black",49,"left","high","False","False",396,7000,NA
"A2IQ0QCTQ3KWLT","Thu Jan 30 2020 08:28:25 GMT-0500 (Eastern Standard Time)","Thu Jan 30 2020 08:35:34 GMT-0500 (Eastern Standard Time)","Mozilla/5.0 (Macintosh; Intel Mac OS X 10_15_2) AppleWebKit/537.36 (KHTML, like Gecko) Chrome/79.0.3945.130 Safari/537.36",146,"[0.9, 0.5, 0.1]","[0.8, 0.4, 0.2]","[u'black', u'blue', u'red']","[u'left', u'middle', u'right']","[0.8, 0.4, 0.2]","[u'high', u'medium', u'low']","red",51,"right","low","False","False",384,6950,NA
"A2IQ0QCTQ3KWLT","Thu Jan 30 2020 08:28:25 GMT-0500 (Eastern Standard Time)","Thu Jan 30 2020 08:35:34 GMT-0500 (Eastern Standard Time)","Mozilla/5.0 (Macintosh; Intel Mac OS X 10_15_2) AppleWebKit/537.36 (KHTML, like Gecko) Chrome/79.0.3945.130 Safari/537.36",147,"[0.9, 0.5, 0.1]","[0.8, 0.4, 0.2]","[u'black', u'blue', u'red']","[u'left', u'middle', u'right']","[0.8, 0.4, 0.2]","[u'high', u'medium', u'low']","blue",50,"middle","medium","False","False",356,6900,NA
"A2IQ0QCTQ3KWLT","Thu Jan 30 2020 08:28:25 GMT-0500 (Eastern Standard Time)","Thu Jan 30 2020 08:35:34 GMT-0500 (Eastern Standard Time)","Mozilla/5.0 (Macintosh; Intel Mac OS X 10_15_2) AppleWebKit/537.36 (KHTML, like Gecko) Chrome/79.0.3945.130 Safari/537.36",148,"[0.9, 0.5, 0.1]","[0.8, 0.4, 0.2]","[u'black', u'blue', u'red']","[u'left', u'middle', u'right']","[0.8, 0.4, 0.2]","[u'high', u'medium', u'low']","black",49,"left","high","True","False",419,7000,NA
"A2IQ0QCTQ3KWLT","Thu Jan 30 2020 08:28:25 GMT-0500 (Eastern Standard Time)","Thu Jan 30 2020 08:35:34 GMT-0500 (Eastern Standard Time)","Mozilla/5.0 (Macintosh; Intel Mac OS X 10_15_2) AppleWebKit/537.36 (KHTML, like Gecko) Chrome/79.0.3945.130 Safari/537.36",149,"[0.9, 0.5, 0.1]","[0.8, 0.4, 0.2]","[u'black', u'blue', u'red']","[u'left', u'middle', u'right']","[0.8, 0.4, 0.2]","[u'high', u'medium', u'low']","black",49,"left","high","True","False",376,7100,NA
"A2IQ0QCTQ3KWLT","Thu Jan 30 2020 08:28:25 GMT-0500 (Eastern Standard Time)","Thu Jan 30 2020 08:35:34 GMT-0500 (Eastern Standard Time)","Mozilla/5.0 (Macintosh; Intel Mac OS X 10_15_2) AppleWebKit/537.36 (KHTML, like Gecko) Chrome/79.0.3945.130 Safari/537.36",150,"[0.9, 0.5, 0.1]","[0.8, 0.4, 0.2]","[u'black', u'blue', u'red']","[u'left', u'middle', u'right']","[0.8, 0.4, 0.2]","[u'high', u'medium', u'low']","black",49,"left","high","False","False",375,7050,NA
"A2IQ0QCTQ3KWLT","Thu Jan 30 2020 08:28:25 GMT-0500 (Eastern Standard Time)","Thu Jan 30 2020 08:35:34 GMT-0500 (Eastern Standard Time)","Mozilla/5.0 (Macintosh; Intel Mac OS X 10_15_2) AppleWebKit/537.36 (KHTML, like Gecko) Chrome/79.0.3945.130 Safari/537.36",151,"[0.9, 0.5, 0.1]","[0.8, 0.4, 0.2]","[u'black', u'blue', u'red']","[u'left', u'middle', u'right']","[0.8, 0.4, 0.2]","[u'high', u'medium', u'low']","red",51,"right","low","False","False",460,7000,NA
"A2IQ0QCTQ3KWLT","Thu Jan 30 2020 08:28:25 GMT-0500 (Eastern Standard Time)","Thu Jan 30 2020 08:35:34 GMT-0500 (Eastern Standard Time)","Mozilla/5.0 (Macintosh; Intel Mac OS X 10_15_2) AppleWebKit/537.36 (KHTML, like Gecko) Chrome/79.0.3945.130 Safari/537.36",152,"[0.9, 0.5, 0.1]","[0.8, 0.4, 0.2]","[u'black', u'blue', u'red']","[u'left', u'middle', u'right']","[0.8, 0.4, 0.2]","[u'high', u'medium', u'low']","black",49,"left","high","True","False",142,7100,NA
"A2IQ0QCTQ3KWLT","Thu Jan 30 2020 08:28:25 GMT-0500 (Eastern Standard Time)","Thu Jan 30 2020 08:35:34 GMT-0500 (Eastern Standard Time)","Mozilla/5.0 (Macintosh; Intel Mac OS X 10_15_2) AppleWebKit/537.36 (KHTML, like Gecko) Chrome/79.0.3945.130 Safari/537.36",153,"[0.9, 0.5, 0.1]","[0.8, 0.4, 0.2]","[u'black', u'blue', u'red']","[u'left', u'middle', u'right']","[0.8, 0.4, 0.2]","[u'high', u'medium', u'low']","black",49,"left","high","True","False",352,7200,NA
"A2IQ0QCTQ3KWLT","Thu Jan 30 2020 08:28:25 GMT-0500 (Eastern Standard Time)","Thu Jan 30 2020 08:35:34 GMT-0500 (Eastern Standard Time)","Mozilla/5.0 (Macintosh; Intel Mac OS X 10_15_2) AppleWebKit/537.36 (KHTML, like Gecko) Chrome/79.0.3945.130 Safari/537.36",154,"[0.9, 0.5, 0.1]","[0.8, 0.4, 0.2]","[u'black', u'blue', u'red']","[u'left', u'middle', u'right']","[0.8, 0.4, 0.2]","[u'high', u'medium', u'low']","black",49,"left","high","False","False",327,7150,NA
"A2IQ0QCTQ3KWLT","Thu Jan 30 2020 08:28:25 GMT-0500 (Eastern Standard Time)","Thu Jan 30 2020 08:35:34 GMT-0500 (Eastern Standard Time)","Mozilla/5.0 (Macintosh; Intel Mac OS X 10_15_2) AppleWebKit/537.36 (KHTML, like Gecko) Chrome/79.0.3945.130 Safari/537.36",155,"[0.9, 0.5, 0.1]","[0.8, 0.4, 0.2]","[u'black', u'blue', u'red']","[u'left', u'middle', u'right']","[0.8, 0.4, 0.2]","[u'high', u'medium', u'low']","black",49,"left","high","True","False",346,7250,NA
"A2IQ0QCTQ3KWLT","Thu Jan 30 2020 08:28:25 GMT-0500 (Eastern Standard Time)","Thu Jan 30 2020 08:35:34 GMT-0500 (Eastern Standard Time)","Mozilla/5.0 (Macintosh; Intel Mac OS X 10_15_2) AppleWebKit/537.36 (KHTML, like Gecko) Chrome/79.0.3945.130 Safari/537.36",156,"[0.9, 0.5, 0.1]","[0.8, 0.4, 0.2]","[u'black', u'blue', u'red']","[u'left', u'middle', u'right']","[0.8, 0.4, 0.2]","[u'high', u'medium', u'low']","black",49,"left","high","True","False",325,7350,NA
"A2IQ0QCTQ3KWLT","Thu Jan 30 2020 08:28:25 GMT-0500 (Eastern Standard Time)","Thu Jan 30 2020 08:35:34 GMT-0500 (Eastern Standard Time)","Mozilla/5.0 (Macintosh; Intel Mac OS X 10_15_2) AppleWebKit/537.36 (KHTML, like Gecko) Chrome/79.0.3945.130 Safari/537.36",157,"[0.9, 0.5, 0.1]","[0.8, 0.4, 0.2]","[u'black', u'blue', u'red']","[u'left', u'middle', u'right']","[0.8, 0.4, 0.2]","[u'high', u'medium', u'low']","black",49,"left","high","True","True",610,7450,NA
"A2IQ0QCTQ3KWLT","Thu Jan 30 2020 08:28:25 GMT-0500 (Eastern Standard Time)","Thu Jan 30 2020 08:35:34 GMT-0500 (Eastern Standard Time)","Mozilla/5.0 (Macintosh; Intel Mac OS X 10_15_2) AppleWebKit/537.36 (KHTML, like Gecko) Chrome/79.0.3945.130 Safari/537.36",158,"[0.9, 0.5, 0.1]","[0.8, 0.4, 0.2]","[u'black', u'blue', u'red']","[u'left', u'middle', u'right']","[0.8, 0.4, 0.2]","[u'medium', u'high', u'low']","black",49,"left","medium","False","False",462,7400,NA
"A2IQ0QCTQ3KWLT","Thu Jan 30 2020 08:28:25 GMT-0500 (Eastern Standard Time)","Thu Jan 30 2020 08:35:34 GMT-0500 (Eastern Standard Time)","Mozilla/5.0 (Macintosh; Intel Mac OS X 10_15_2) AppleWebKit/537.36 (KHTML, like Gecko) Chrome/79.0.3945.130 Safari/537.36",159,"[0.9, 0.5, 0.1]","[0.8, 0.4, 0.2]","[u'black', u'blue', u'red']","[u'left', u'middle', u'right']","[0.8, 0.4, 0.2]","[u'medium', u'high', u'low']","black",49,"left","medium","False","False",375,7350,NA
"A2IQ0QCTQ3KWLT","Thu Jan 30 2020 08:28:25 GMT-0500 (Eastern Standard Time)","Thu Jan 30 2020 08:35:34 GMT-0500 (Eastern Standard Time)","Mozilla/5.0 (Macintosh; Intel Mac OS X 10_15_2) AppleWebKit/537.36 (KHTML, like Gecko) Chrome/79.0.3945.130 Safari/537.36",160,"[0.9, 0.5, 0.1]","[0.8, 0.4, 0.2]","[u'black', u'blue', u'red']","[u'left', u'middle', u'right']","[0.8, 0.4, 0.2]","[u'medium', u'high', u'low']","black",49,"left","medium","False","False",258,7300,NA
