"src_subject_id","start_time","end_time","browser","index","first_half_probabilities","second_half_probabilities","deck_color","deck_position","deck_probabilities","deck_contingencies","response_color","key_press","response_position","response_probability","reward_type","trial_type","rt","reward_tally","exclusion_reason"
"A2Q3FS9G8ITCN7","Wed Jan 29 2020 13:08:19 GMT-0600 (Central Standard Time)","Wed Jan 29 2020 13:16:20 GMT-0600 (Central Standard Time)","Mozilla/5.0 (Windows NT 10.0; Win64; x64) AppleWebKit/537.36 (KHTML, like Gecko) Chrome/79.0.3945.130 Safari/537.36",1,"[0.9, 0.5, 0.1]","[0.8, 0.4, 0.2]","[u'black', u'red', u'blue']","[u'left', u'middle', u'right']","[0.9, 0.5, 0.1]","[u'low', u'medium', u'high']","red",50,"middle","medium","False","False",437,-50,NA
"A2Q3FS9G8ITCN7","Wed Jan 29 2020 13:08:19 GMT-0600 (Central Standard Time)","Wed Jan 29 2020 13:16:20 GMT-0600 (Central Standard Time)","Mozilla/5.0 (Windows NT 10.0; Win64; x64) AppleWebKit/537.36 (KHTML, like Gecko) Chrome/79.0.3945.130 Safari/537.36",2,"[0.9, 0.5, 0.1]","[0.8, 0.4, 0.2]","[u'black', u'red', u'blue']","[u'left', u'middle', u'right']","[0.9, 0.5, 0.1]","[u'low', u'medium', u'high']","blue",51,"right","high","True","False",349,50,NA
"A2Q3FS9G8ITCN7","Wed Jan 29 2020 13:08:19 GMT-0600 (Central Standard Time)","Wed Jan 29 2020 13:16:20 GMT-0600 (Central Standard Time)","Mozilla/5.0 (Windows NT 10.0; Win64; x64) AppleWebKit/537.36 (KHTML, like Gecko) Chrome/79.0.3945.130 Safari/537.36",3,"[0.9, 0.5, 0.1]","[0.8, 0.4, 0.2]","[u'black', u'red', u'blue']","[u'left', u'middle', u'right']","[0.9, 0.5, 0.1]","[u'low', u'medium', u'high']","blue",51,"right","high","True","False",346,150,NA
"A2Q3FS9G8ITCN7","Wed Jan 29 2020 13:08:19 GMT-0600 (Central Standard Time)","Wed Jan 29 2020 13:16:20 GMT-0600 (Central Standard Time)","Mozilla/5.0 (Windows NT 10.0; Win64; x64) AppleWebKit/537.36 (KHTML, like Gecko) Chrome/79.0.3945.130 Safari/537.36",4,"[0.9, 0.5, 0.1]","[0.8, 0.4, 0.2]","[u'black', u'red', u'blue']","[u'left', u'middle', u'right']","[0.9, 0.5, 0.1]","[u'low', u'medium', u'high']","blue",51,"right","high","True","False",347,250,NA
"A2Q3FS9G8ITCN7","Wed Jan 29 2020 13:08:19 GMT-0600 (Central Standard Time)","Wed Jan 29 2020 13:16:20 GMT-0600 (Central Standard Time)","Mozilla/5.0 (Windows NT 10.0; Win64; x64) AppleWebKit/537.36 (KHTML, like Gecko) Chrome/79.0.3945.130 Safari/537.36",5,"[0.9, 0.5, 0.1]","[0.8, 0.4, 0.2]","[u'black', u'red', u'blue']","[u'left', u'middle', u'right']","[0.9, 0.5, 0.1]","[u'low', u'medium', u'high']","blue",51,"right","high","True","False",380,350,NA
"A2Q3FS9G8ITCN7","Wed Jan 29 2020 13:08:19 GMT-0600 (Central Standard Time)","Wed Jan 29 2020 13:16:20 GMT-0600 (Central Standard Time)","Mozilla/5.0 (Windows NT 10.0; Win64; x64) AppleWebKit/537.36 (KHTML, like Gecko) Chrome/79.0.3945.130 Safari/537.36",6,"[0.9, 0.5, 0.1]","[0.8, 0.4, 0.2]","[u'black', u'red', u'blue']","[u'left', u'middle', u'right']","[0.9, 0.5, 0.1]","[u'low', u'medium', u'high']","blue",51,"right","high","True","False",341,450,NA
"A2Q3FS9G8ITCN7","Wed Jan 29 2020 13:08:19 GMT-0600 (Central Standard Time)","Wed Jan 29 2020 13:16:20 GMT-0600 (Central Standard Time)","Mozilla/5.0 (Windows NT 10.0; Win64; x64) AppleWebKit/537.36 (KHTML, like Gecko) Chrome/79.0.3945.130 Safari/537.36",7,"[0.9, 0.5, 0.1]","[0.8, 0.4, 0.2]","[u'black', u'red', u'blue']","[u'left', u'middle', u'right']","[0.9, 0.5, 0.1]","[u'low', u'medium', u'high']","blue",51,"right","high","False","False",539,400,NA
"A2Q3FS9G8ITCN7","Wed Jan 29 2020 13:08:19 GMT-0600 (Central Standard Time)","Wed Jan 29 2020 13:16:20 GMT-0600 (Central Standard Time)","Mozilla/5.0 (Windows NT 10.0; Win64; x64) AppleWebKit/537.36 (KHTML, like Gecko) Chrome/79.0.3945.130 Safari/537.36",8,"[0.9, 0.5, 0.1]","[0.8, 0.4, 0.2]","[u'black', u'red', u'blue']","[u'left', u'middle', u'right']","[0.9, 0.5, 0.1]","[u'low', u'medium', u'high']","blue",51,"right","high","True","False",484,500,NA
"A2Q3FS9G8ITCN7","Wed Jan 29 2020 13:08:19 GMT-0600 (Central Standard Time)","Wed Jan 29 2020 13:16:20 GMT-0600 (Central Standard Time)","Mozilla/5.0 (Windows NT 10.0; Win64; x64) AppleWebKit/537.36 (KHTML, like Gecko) Chrome/79.0.3945.130 Safari/537.36",9,"[0.9, 0.5, 0.1]","[0.8, 0.4, 0.2]","[u'black', u'red', u'blue']","[u'left', u'middle', u'right']","[0.9, 0.5, 0.1]","[u'low', u'medium', u'high']","blue",51,"right","high","True","False",360,600,NA
"A2Q3FS9G8ITCN7","Wed Jan 29 2020 13:08:19 GMT-0600 (Central Standard Time)","Wed Jan 29 2020 13:16:20 GMT-0600 (Central Standard Time)","Mozilla/5.0 (Windows NT 10.0; Win64; x64) AppleWebKit/537.36 (KHTML, like Gecko) Chrome/79.0.3945.130 Safari/537.36",10,"[0.9, 0.5, 0.1]","[0.8, 0.4, 0.2]","[u'black', u'red', u'blue']","[u'left', u'middle', u'right']","[0.9, 0.5, 0.1]","[u'low', u'medium', u'high']","blue",51,"right","high","True","True",297,700,NA
"A2Q3FS9G8ITCN7","Wed Jan 29 2020 13:08:19 GMT-0600 (Central Standard Time)","Wed Jan 29 2020 13:16:20 GMT-0600 (Central Standard Time)","Mozilla/5.0 (Windows NT 10.0; Win64; x64) AppleWebKit/537.36 (KHTML, like Gecko) Chrome/79.0.3945.130 Safari/537.36",11,"[0.9, 0.5, 0.1]","[0.8, 0.4, 0.2]","[u'black', u'red', u'blue']","[u'left', u'middle', u'right']","[0.9, 0.5, 0.1]","[u'low', u'high', u'medium']","blue",51,"right","medium","False","False",298,650,NA
"A2Q3FS9G8ITCN7","Wed Jan 29 2020 13:08:19 GMT-0600 (Central Standard Time)","Wed Jan 29 2020 13:16:20 GMT-0600 (Central Standard Time)","Mozilla/5.0 (Windows NT 10.0; Win64; x64) AppleWebKit/537.36 (KHTML, like Gecko) Chrome/79.0.3945.130 Safari/537.36",12,"[0.9, 0.5, 0.1]","[0.8, 0.4, 0.2]","[u'black', u'red', u'blue']","[u'left', u'middle', u'right']","[0.9, 0.5, 0.1]","[u'low', u'high', u'medium']","black",49,"left","low","False","False",305,600,NA
"A2Q3FS9G8ITCN7","Wed Jan 29 2020 13:08:19 GMT-0600 (Central Standard Time)","Wed Jan 29 2020 13:16:20 GMT-0600 (Central Standard Time)","Mozilla/5.0 (Windows NT 10.0; Win64; x64) AppleWebKit/537.36 (KHTML, like Gecko) Chrome/79.0.3945.130 Safari/537.36",13,"[0.9, 0.5, 0.1]","[0.8, 0.4, 0.2]","[u'black', u'red', u'blue']","[u'left', u'middle', u'right']","[0.9, 0.5, 0.1]","[u'low', u'high', u'medium']","blue",51,"right","medium","True","False",331,700,NA
"A2Q3FS9G8ITCN7","Wed Jan 29 2020 13:08:19 GMT-0600 (Central Standard Time)","Wed Jan 29 2020 13:16:20 GMT-0600 (Central Standard Time)","Mozilla/5.0 (Windows NT 10.0; Win64; x64) AppleWebKit/537.36 (KHTML, like Gecko) Chrome/79.0.3945.130 Safari/537.36",14,"[0.9, 0.5, 0.1]","[0.8, 0.4, 0.2]","[u'black', u'red', u'blue']","[u'left', u'middle', u'right']","[0.9, 0.5, 0.1]","[u'low', u'high', u'medium']","blue",51,"right","medium","False","False",341,650,NA
"A2Q3FS9G8ITCN7","Wed Jan 29 2020 13:08:19 GMT-0600 (Central Standard Time)","Wed Jan 29 2020 13:16:20 GMT-0600 (Central Standard Time)","Mozilla/5.0 (Windows NT 10.0; Win64; x64) AppleWebKit/537.36 (KHTML, like Gecko) Chrome/79.0.3945.130 Safari/537.36",15,"[0.9, 0.5, 0.1]","[0.8, 0.4, 0.2]","[u'black', u'red', u'blue']","[u'left', u'middle', u'right']","[0.9, 0.5, 0.1]","[u'low', u'high', u'medium']","red",50,"middle","high","True","False",307,750,NA
"A2Q3FS9G8ITCN7","Wed Jan 29 2020 13:08:19 GMT-0600 (Central Standard Time)","Wed Jan 29 2020 13:16:20 GMT-0600 (Central Standard Time)","Mozilla/5.0 (Windows NT 10.0; Win64; x64) AppleWebKit/537.36 (KHTML, like Gecko) Chrome/79.0.3945.130 Safari/537.36",16,"[0.9, 0.5, 0.1]","[0.8, 0.4, 0.2]","[u'black', u'red', u'blue']","[u'left', u'middle', u'right']","[0.9, 0.5, 0.1]","[u'low', u'high', u'medium']","red",50,"middle","high","True","False",264,850,NA
"A2Q3FS9G8ITCN7","Wed Jan 29 2020 13:08:19 GMT-0600 (Central Standard Time)","Wed Jan 29 2020 13:16:20 GMT-0600 (Central Standard Time)","Mozilla/5.0 (Windows NT 10.0; Win64; x64) AppleWebKit/537.36 (KHTML, like Gecko) Chrome/79.0.3945.130 Safari/537.36",17,"[0.9, 0.5, 0.1]","[0.8, 0.4, 0.2]","[u'black', u'red', u'blue']","[u'left', u'middle', u'right']","[0.9, 0.5, 0.1]","[u'low', u'high', u'medium']","red",50,"middle","high","True","False",236,950,NA
"A2Q3FS9G8ITCN7","Wed Jan 29 2020 13:08:19 GMT-0600 (Central Standard Time)","Wed Jan 29 2020 13:16:20 GMT-0600 (Central Standard Time)","Mozilla/5.0 (Windows NT 10.0; Win64; x64) AppleWebKit/537.36 (KHTML, like Gecko) Chrome/79.0.3945.130 Safari/537.36",18,"[0.9, 0.5, 0.1]","[0.8, 0.4, 0.2]","[u'black', u'red', u'blue']","[u'left', u'middle', u'right']","[0.9, 0.5, 0.1]","[u'low', u'high', u'medium']","red",50,"middle","high","True","False",482,1050,NA
"A2Q3FS9G8ITCN7","Wed Jan 29 2020 13:08:19 GMT-0600 (Central Standard Time)","Wed Jan 29 2020 13:16:20 GMT-0600 (Central Standard Time)","Mozilla/5.0 (Windows NT 10.0; Win64; x64) AppleWebKit/537.36 (KHTML, like Gecko) Chrome/79.0.3945.130 Safari/537.36",19,"[0.9, 0.5, 0.1]","[0.8, 0.4, 0.2]","[u'black', u'red', u'blue']","[u'left', u'middle', u'right']","[0.9, 0.5, 0.1]","[u'low', u'high', u'medium']","red",50,"middle","high","True","False",391,1150,NA
"A2Q3FS9G8ITCN7","Wed Jan 29 2020 13:08:19 GMT-0600 (Central Standard Time)","Wed Jan 29 2020 13:16:20 GMT-0600 (Central Standard Time)","Mozilla/5.0 (Windows NT 10.0; Win64; x64) AppleWebKit/537.36 (KHTML, like Gecko) Chrome/79.0.3945.130 Safari/537.36",20,"[0.9, 0.5, 0.1]","[0.8, 0.4, 0.2]","[u'black', u'red', u'blue']","[u'left', u'middle', u'right']","[0.9, 0.5, 0.1]","[u'low', u'high', u'medium']","red",50,"middle","high","True","False",372,1250,NA
"A2Q3FS9G8ITCN7","Wed Jan 29 2020 13:08:19 GMT-0600 (Central Standard Time)","Wed Jan 29 2020 13:16:20 GMT-0600 (Central Standard Time)","Mozilla/5.0 (Windows NT 10.0; Win64; x64) AppleWebKit/537.36 (KHTML, like Gecko) Chrome/79.0.3945.130 Safari/537.36",21,"[0.9, 0.5, 0.1]","[0.8, 0.4, 0.2]","[u'black', u'red', u'blue']","[u'left', u'middle', u'right']","[0.9, 0.5, 0.1]","[u'low', u'high', u'medium']","red",50,"middle","high","True","False",274,1350,NA
"A2Q3FS9G8ITCN7","Wed Jan 29 2020 13:08:19 GMT-0600 (Central Standard Time)","Wed Jan 29 2020 13:16:20 GMT-0600 (Central Standard Time)","Mozilla/5.0 (Windows NT 10.0; Win64; x64) AppleWebKit/537.36 (KHTML, like Gecko) Chrome/79.0.3945.130 Safari/537.36",22,"[0.9, 0.5, 0.1]","[0.8, 0.4, 0.2]","[u'black', u'red', u'blue']","[u'left', u'middle', u'right']","[0.9, 0.5, 0.1]","[u'low', u'high', u'medium']","red",50,"middle","high","False","False",358,1300,NA
"A2Q3FS9G8ITCN7","Wed Jan 29 2020 13:08:19 GMT-0600 (Central Standard Time)","Wed Jan 29 2020 13:16:20 GMT-0600 (Central Standard Time)","Mozilla/5.0 (Windows NT 10.0; Win64; x64) AppleWebKit/537.36 (KHTML, like Gecko) Chrome/79.0.3945.130 Safari/537.36",23,"[0.9, 0.5, 0.1]","[0.8, 0.4, 0.2]","[u'black', u'red', u'blue']","[u'left', u'middle', u'right']","[0.9, 0.5, 0.1]","[u'low', u'high', u'medium']","red",50,"middle","high","True","True",246,1400,NA
"A2Q3FS9G8ITCN7","Wed Jan 29 2020 13:08:19 GMT-0600 (Central Standard Time)","Wed Jan 29 2020 13:16:20 GMT-0600 (Central Standard Time)","Mozilla/5.0 (Windows NT 10.0; Win64; x64) AppleWebKit/537.36 (KHTML, like Gecko) Chrome/79.0.3945.130 Safari/537.36",24,"[0.9, 0.5, 0.1]","[0.8, 0.4, 0.2]","[u'black', u'red', u'blue']","[u'left', u'middle', u'right']","[0.9, 0.5, 0.1]","[u'high', u'low', u'medium']","red",50,"middle","low","False","False",350,1350,NA
"A2Q3FS9G8ITCN7","Wed Jan 29 2020 13:08:19 GMT-0600 (Central Standard Time)","Wed Jan 29 2020 13:16:20 GMT-0600 (Central Standard Time)","Mozilla/5.0 (Windows NT 10.0; Win64; x64) AppleWebKit/537.36 (KHTML, like Gecko) Chrome/79.0.3945.130 Safari/537.36",25,"[0.9, 0.5, 0.1]","[0.8, 0.4, 0.2]","[u'black', u'red', u'blue']","[u'left', u'middle', u'right']","[0.9, 0.5, 0.1]","[u'high', u'low', u'medium']","blue",51,"right","medium","False","False",322,1300,NA
"A2Q3FS9G8ITCN7","Wed Jan 29 2020 13:08:19 GMT-0600 (Central Standard Time)","Wed Jan 29 2020 13:16:20 GMT-0600 (Central Standard Time)","Mozilla/5.0 (Windows NT 10.0; Win64; x64) AppleWebKit/537.36 (KHTML, like Gecko) Chrome/79.0.3945.130 Safari/537.36",26,"[0.9, 0.5, 0.1]","[0.8, 0.4, 0.2]","[u'black', u'red', u'blue']","[u'left', u'middle', u'right']","[0.9, 0.5, 0.1]","[u'high', u'low', u'medium']","black",49,"left","high","True","False",322,1400,NA
"A2Q3FS9G8ITCN7","Wed Jan 29 2020 13:08:19 GMT-0600 (Central Standard Time)","Wed Jan 29 2020 13:16:20 GMT-0600 (Central Standard Time)","Mozilla/5.0 (Windows NT 10.0; Win64; x64) AppleWebKit/537.36 (KHTML, like Gecko) Chrome/79.0.3945.130 Safari/537.36",27,"[0.9, 0.5, 0.1]","[0.8, 0.4, 0.2]","[u'black', u'red', u'blue']","[u'left', u'middle', u'right']","[0.9, 0.5, 0.1]","[u'high', u'low', u'medium']","black",49,"left","high","True","False",270,1500,NA
"A2Q3FS9G8ITCN7","Wed Jan 29 2020 13:08:19 GMT-0600 (Central Standard Time)","Wed Jan 29 2020 13:16:20 GMT-0600 (Central Standard Time)","Mozilla/5.0 (Windows NT 10.0; Win64; x64) AppleWebKit/537.36 (KHTML, like Gecko) Chrome/79.0.3945.130 Safari/537.36",28,"[0.9, 0.5, 0.1]","[0.8, 0.4, 0.2]","[u'black', u'red', u'blue']","[u'left', u'middle', u'right']","[0.9, 0.5, 0.1]","[u'high', u'low', u'medium']","black",49,"left","high","True","False",297,1600,NA
"A2Q3FS9G8ITCN7","Wed Jan 29 2020 13:08:19 GMT-0600 (Central Standard Time)","Wed Jan 29 2020 13:16:20 GMT-0600 (Central Standard Time)","Mozilla/5.0 (Windows NT 10.0; Win64; x64) AppleWebKit/537.36 (KHTML, like Gecko) Chrome/79.0.3945.130 Safari/537.36",29,"[0.9, 0.5, 0.1]","[0.8, 0.4, 0.2]","[u'black', u'red', u'blue']","[u'left', u'middle', u'right']","[0.9, 0.5, 0.1]","[u'high', u'low', u'medium']","black",49,"left","high","True","False",514,1700,NA
"A2Q3FS9G8ITCN7","Wed Jan 29 2020 13:08:19 GMT-0600 (Central Standard Time)","Wed Jan 29 2020 13:16:20 GMT-0600 (Central Standard Time)","Mozilla/5.0 (Windows NT 10.0; Win64; x64) AppleWebKit/537.36 (KHTML, like Gecko) Chrome/79.0.3945.130 Safari/537.36",30,"[0.9, 0.5, 0.1]","[0.8, 0.4, 0.2]","[u'black', u'red', u'blue']","[u'left', u'middle', u'right']","[0.9, 0.5, 0.1]","[u'high', u'low', u'medium']","black",49,"left","high","True","False",365,1800,NA
"A2Q3FS9G8ITCN7","Wed Jan 29 2020 13:08:19 GMT-0600 (Central Standard Time)","Wed Jan 29 2020 13:16:20 GMT-0600 (Central Standard Time)","Mozilla/5.0 (Windows NT 10.0; Win64; x64) AppleWebKit/537.36 (KHTML, like Gecko) Chrome/79.0.3945.130 Safari/537.36",31,"[0.9, 0.5, 0.1]","[0.8, 0.4, 0.2]","[u'black', u'red', u'blue']","[u'left', u'middle', u'right']","[0.9, 0.5, 0.1]","[u'high', u'low', u'medium']","black",49,"left","high","True","False",307,1900,NA
"A2Q3FS9G8ITCN7","Wed Jan 29 2020 13:08:19 GMT-0600 (Central Standard Time)","Wed Jan 29 2020 13:16:20 GMT-0600 (Central Standard Time)","Mozilla/5.0 (Windows NT 10.0; Win64; x64) AppleWebKit/537.36 (KHTML, like Gecko) Chrome/79.0.3945.130 Safari/537.36",32,"[0.9, 0.5, 0.1]","[0.8, 0.4, 0.2]","[u'black', u'red', u'blue']","[u'left', u'middle', u'right']","[0.9, 0.5, 0.1]","[u'high', u'low', u'medium']","black",49,"left","high","True","False",308,2000,NA
"A2Q3FS9G8ITCN7","Wed Jan 29 2020 13:08:19 GMT-0600 (Central Standard Time)","Wed Jan 29 2020 13:16:20 GMT-0600 (Central Standard Time)","Mozilla/5.0 (Windows NT 10.0; Win64; x64) AppleWebKit/537.36 (KHTML, like Gecko) Chrome/79.0.3945.130 Safari/537.36",33,"[0.9, 0.5, 0.1]","[0.8, 0.4, 0.2]","[u'black', u'red', u'blue']","[u'left', u'middle', u'right']","[0.9, 0.5, 0.1]","[u'high', u'low', u'medium']","black",49,"left","high","True","False",315,2100,NA
"A2Q3FS9G8ITCN7","Wed Jan 29 2020 13:08:19 GMT-0600 (Central Standard Time)","Wed Jan 29 2020 13:16:20 GMT-0600 (Central Standard Time)","Mozilla/5.0 (Windows NT 10.0; Win64; x64) AppleWebKit/537.36 (KHTML, like Gecko) Chrome/79.0.3945.130 Safari/537.36",34,"[0.9, 0.5, 0.1]","[0.8, 0.4, 0.2]","[u'black', u'red', u'blue']","[u'left', u'middle', u'right']","[0.9, 0.5, 0.1]","[u'high', u'low', u'medium']","black",49,"left","high","True","True",331,2200,NA
"A2Q3FS9G8ITCN7","Wed Jan 29 2020 13:08:19 GMT-0600 (Central Standard Time)","Wed Jan 29 2020 13:16:20 GMT-0600 (Central Standard Time)","Mozilla/5.0 (Windows NT 10.0; Win64; x64) AppleWebKit/537.36 (KHTML, like Gecko) Chrome/79.0.3945.130 Safari/537.36",35,"[0.9, 0.5, 0.1]","[0.8, 0.4, 0.2]","[u'black', u'red', u'blue']","[u'left', u'middle', u'right']","[0.9, 0.5, 0.1]","[u'low', u'medium', u'high']","black",49,"left","low","False","False",295,2150,NA
"A2Q3FS9G8ITCN7","Wed Jan 29 2020 13:08:19 GMT-0600 (Central Standard Time)","Wed Jan 29 2020 13:16:20 GMT-0600 (Central Standard Time)","Mozilla/5.0 (Windows NT 10.0; Win64; x64) AppleWebKit/537.36 (KHTML, like Gecko) Chrome/79.0.3945.130 Safari/537.36",36,"[0.9, 0.5, 0.1]","[0.8, 0.4, 0.2]","[u'black', u'red', u'blue']","[u'left', u'middle', u'right']","[0.9, 0.5, 0.1]","[u'low', u'medium', u'high']","black",49,"left","low","False","False",306,2100,NA
"A2Q3FS9G8ITCN7","Wed Jan 29 2020 13:08:19 GMT-0600 (Central Standard Time)","Wed Jan 29 2020 13:16:20 GMT-0600 (Central Standard Time)","Mozilla/5.0 (Windows NT 10.0; Win64; x64) AppleWebKit/537.36 (KHTML, like Gecko) Chrome/79.0.3945.130 Safari/537.36",37,"[0.9, 0.5, 0.1]","[0.8, 0.4, 0.2]","[u'black', u'red', u'blue']","[u'left', u'middle', u'right']","[0.9, 0.5, 0.1]","[u'low', u'medium', u'high']","blue",51,"right","high","True","False",273,2200,NA
"A2Q3FS9G8ITCN7","Wed Jan 29 2020 13:08:19 GMT-0600 (Central Standard Time)","Wed Jan 29 2020 13:16:20 GMT-0600 (Central Standard Time)","Mozilla/5.0 (Windows NT 10.0; Win64; x64) AppleWebKit/537.36 (KHTML, like Gecko) Chrome/79.0.3945.130 Safari/537.36",38,"[0.9, 0.5, 0.1]","[0.8, 0.4, 0.2]","[u'black', u'red', u'blue']","[u'left', u'middle', u'right']","[0.9, 0.5, 0.1]","[u'low', u'medium', u'high']","blue",51,"right","high","True","False",286,2300,NA
"A2Q3FS9G8ITCN7","Wed Jan 29 2020 13:08:19 GMT-0600 (Central Standard Time)","Wed Jan 29 2020 13:16:20 GMT-0600 (Central Standard Time)","Mozilla/5.0 (Windows NT 10.0; Win64; x64) AppleWebKit/537.36 (KHTML, like Gecko) Chrome/79.0.3945.130 Safari/537.36",39,"[0.9, 0.5, 0.1]","[0.8, 0.4, 0.2]","[u'black', u'red', u'blue']","[u'left', u'middle', u'right']","[0.9, 0.5, 0.1]","[u'low', u'medium', u'high']","blue",51,"right","high","True","False",277,2400,NA
"A2Q3FS9G8ITCN7","Wed Jan 29 2020 13:08:19 GMT-0600 (Central Standard Time)","Wed Jan 29 2020 13:16:20 GMT-0600 (Central Standard Time)","Mozilla/5.0 (Windows NT 10.0; Win64; x64) AppleWebKit/537.36 (KHTML, like Gecko) Chrome/79.0.3945.130 Safari/537.36",40,"[0.9, 0.5, 0.1]","[0.8, 0.4, 0.2]","[u'black', u'red', u'blue']","[u'left', u'middle', u'right']","[0.9, 0.5, 0.1]","[u'low', u'medium', u'high']","blue",51,"right","high","True","False",319,2500,NA
"A2Q3FS9G8ITCN7","Wed Jan 29 2020 13:08:19 GMT-0600 (Central Standard Time)","Wed Jan 29 2020 13:16:20 GMT-0600 (Central Standard Time)","Mozilla/5.0 (Windows NT 10.0; Win64; x64) AppleWebKit/537.36 (KHTML, like Gecko) Chrome/79.0.3945.130 Safari/537.36",41,"[0.9, 0.5, 0.1]","[0.8, 0.4, 0.2]","[u'black', u'red', u'blue']","[u'left', u'middle', u'right']","[0.9, 0.5, 0.1]","[u'medium', u'high', u'low']","blue",51,"right","low","False","False",679,2450,NA
"A2Q3FS9G8ITCN7","Wed Jan 29 2020 13:08:19 GMT-0600 (Central Standard Time)","Wed Jan 29 2020 13:16:20 GMT-0600 (Central Standard Time)","Mozilla/5.0 (Windows NT 10.0; Win64; x64) AppleWebKit/537.36 (KHTML, like Gecko) Chrome/79.0.3945.130 Safari/537.36",42,"[0.9, 0.5, 0.1]","[0.8, 0.4, 0.2]","[u'black', u'red', u'blue']","[u'left', u'middle', u'right']","[0.9, 0.5, 0.1]","[u'medium', u'high', u'low']","red",50,"middle","high","True","False",340,2550,NA
"A2Q3FS9G8ITCN7","Wed Jan 29 2020 13:08:19 GMT-0600 (Central Standard Time)","Wed Jan 29 2020 13:16:20 GMT-0600 (Central Standard Time)","Mozilla/5.0 (Windows NT 10.0; Win64; x64) AppleWebKit/537.36 (KHTML, like Gecko) Chrome/79.0.3945.130 Safari/537.36",43,"[0.9, 0.5, 0.1]","[0.8, 0.4, 0.2]","[u'black', u'red', u'blue']","[u'left', u'middle', u'right']","[0.9, 0.5, 0.1]","[u'medium', u'high', u'low']","red",50,"middle","high","True","False",330,2650,NA
"A2Q3FS9G8ITCN7","Wed Jan 29 2020 13:08:19 GMT-0600 (Central Standard Time)","Wed Jan 29 2020 13:16:20 GMT-0600 (Central Standard Time)","Mozilla/5.0 (Windows NT 10.0; Win64; x64) AppleWebKit/537.36 (KHTML, like Gecko) Chrome/79.0.3945.130 Safari/537.36",44,"[0.9, 0.5, 0.1]","[0.8, 0.4, 0.2]","[u'black', u'red', u'blue']","[u'left', u'middle', u'right']","[0.9, 0.5, 0.1]","[u'medium', u'high', u'low']","red",50,"middle","high","True","False",306,2750,NA
"A2Q3FS9G8ITCN7","Wed Jan 29 2020 13:08:19 GMT-0600 (Central Standard Time)","Wed Jan 29 2020 13:16:20 GMT-0600 (Central Standard Time)","Mozilla/5.0 (Windows NT 10.0; Win64; x64) AppleWebKit/537.36 (KHTML, like Gecko) Chrome/79.0.3945.130 Safari/537.36",45,"[0.9, 0.5, 0.1]","[0.8, 0.4, 0.2]","[u'black', u'red', u'blue']","[u'left', u'middle', u'right']","[0.9, 0.5, 0.1]","[u'medium', u'high', u'low']","red",50,"middle","high","True","False",376,2850,NA
"A2Q3FS9G8ITCN7","Wed Jan 29 2020 13:08:19 GMT-0600 (Central Standard Time)","Wed Jan 29 2020 13:16:20 GMT-0600 (Central Standard Time)","Mozilla/5.0 (Windows NT 10.0; Win64; x64) AppleWebKit/537.36 (KHTML, like Gecko) Chrome/79.0.3945.130 Safari/537.36",46,"[0.9, 0.5, 0.1]","[0.8, 0.4, 0.2]","[u'black', u'red', u'blue']","[u'left', u'middle', u'right']","[0.9, 0.5, 0.1]","[u'medium', u'high', u'low']","red",50,"middle","high","True","False",506,2950,NA
"A2Q3FS9G8ITCN7","Wed Jan 29 2020 13:08:19 GMT-0600 (Central Standard Time)","Wed Jan 29 2020 13:16:20 GMT-0600 (Central Standard Time)","Mozilla/5.0 (Windows NT 10.0; Win64; x64) AppleWebKit/537.36 (KHTML, like Gecko) Chrome/79.0.3945.130 Safari/537.36",47,"[0.9, 0.5, 0.1]","[0.8, 0.4, 0.2]","[u'black', u'red', u'blue']","[u'left', u'middle', u'right']","[0.9, 0.5, 0.1]","[u'medium', u'high', u'low']","red",50,"middle","high","False","False",310,2900,NA
"A2Q3FS9G8ITCN7","Wed Jan 29 2020 13:08:19 GMT-0600 (Central Standard Time)","Wed Jan 29 2020 13:16:20 GMT-0600 (Central Standard Time)","Mozilla/5.0 (Windows NT 10.0; Win64; x64) AppleWebKit/537.36 (KHTML, like Gecko) Chrome/79.0.3945.130 Safari/537.36",48,"[0.9, 0.5, 0.1]","[0.8, 0.4, 0.2]","[u'black', u'red', u'blue']","[u'left', u'middle', u'right']","[0.9, 0.5, 0.1]","[u'medium', u'high', u'low']","red",50,"middle","high","True","False",343,3000,NA
"A2Q3FS9G8ITCN7","Wed Jan 29 2020 13:08:19 GMT-0600 (Central Standard Time)","Wed Jan 29 2020 13:16:20 GMT-0600 (Central Standard Time)","Mozilla/5.0 (Windows NT 10.0; Win64; x64) AppleWebKit/537.36 (KHTML, like Gecko) Chrome/79.0.3945.130 Safari/537.36",49,"[0.9, 0.5, 0.1]","[0.8, 0.4, 0.2]","[u'black', u'red', u'blue']","[u'left', u'middle', u'right']","[0.9, 0.5, 0.1]","[u'medium', u'high', u'low']","red",50,"middle","high","False","False",302,2950,NA
"A2Q3FS9G8ITCN7","Wed Jan 29 2020 13:08:19 GMT-0600 (Central Standard Time)","Wed Jan 29 2020 13:16:20 GMT-0600 (Central Standard Time)","Mozilla/5.0 (Windows NT 10.0; Win64; x64) AppleWebKit/537.36 (KHTML, like Gecko) Chrome/79.0.3945.130 Safari/537.36",50,"[0.9, 0.5, 0.1]","[0.8, 0.4, 0.2]","[u'black', u'red', u'blue']","[u'left', u'middle', u'right']","[0.9, 0.5, 0.1]","[u'medium', u'high', u'low']","black",49,"left","medium","False","False",290,2900,NA
"A2Q3FS9G8ITCN7","Wed Jan 29 2020 13:08:19 GMT-0600 (Central Standard Time)","Wed Jan 29 2020 13:16:20 GMT-0600 (Central Standard Time)","Mozilla/5.0 (Windows NT 10.0; Win64; x64) AppleWebKit/537.36 (KHTML, like Gecko) Chrome/79.0.3945.130 Safari/537.36",51,"[0.9, 0.5, 0.1]","[0.8, 0.4, 0.2]","[u'black', u'red', u'blue']","[u'left', u'middle', u'right']","[0.9, 0.5, 0.1]","[u'medium', u'high', u'low']","black",49,"left","medium","True","False",337,3000,NA
"A2Q3FS9G8ITCN7","Wed Jan 29 2020 13:08:19 GMT-0600 (Central Standard Time)","Wed Jan 29 2020 13:16:20 GMT-0600 (Central Standard Time)","Mozilla/5.0 (Windows NT 10.0; Win64; x64) AppleWebKit/537.36 (KHTML, like Gecko) Chrome/79.0.3945.130 Safari/537.36",52,"[0.9, 0.5, 0.1]","[0.8, 0.4, 0.2]","[u'black', u'red', u'blue']","[u'left', u'middle', u'right']","[0.9, 0.5, 0.1]","[u'medium', u'high', u'low']","black",49,"left","medium","False","False",329,2950,NA
"A2Q3FS9G8ITCN7","Wed Jan 29 2020 13:08:19 GMT-0600 (Central Standard Time)","Wed Jan 29 2020 13:16:20 GMT-0600 (Central Standard Time)","Mozilla/5.0 (Windows NT 10.0; Win64; x64) AppleWebKit/537.36 (KHTML, like Gecko) Chrome/79.0.3945.130 Safari/537.36",53,"[0.9, 0.5, 0.1]","[0.8, 0.4, 0.2]","[u'black', u'red', u'blue']","[u'left', u'middle', u'right']","[0.9, 0.5, 0.1]","[u'medium', u'high', u'low']","blue",51,"right","low","False","False",317,2900,NA
"A2Q3FS9G8ITCN7","Wed Jan 29 2020 13:08:19 GMT-0600 (Central Standard Time)","Wed Jan 29 2020 13:16:20 GMT-0600 (Central Standard Time)","Mozilla/5.0 (Windows NT 10.0; Win64; x64) AppleWebKit/537.36 (KHTML, like Gecko) Chrome/79.0.3945.130 Safari/537.36",54,"[0.9, 0.5, 0.1]","[0.8, 0.4, 0.2]","[u'black', u'red', u'blue']","[u'left', u'middle', u'right']","[0.9, 0.5, 0.1]","[u'medium', u'high', u'low']","red",50,"middle","high","True","False",306,3000,NA
"A2Q3FS9G8ITCN7","Wed Jan 29 2020 13:08:19 GMT-0600 (Central Standard Time)","Wed Jan 29 2020 13:16:20 GMT-0600 (Central Standard Time)","Mozilla/5.0 (Windows NT 10.0; Win64; x64) AppleWebKit/537.36 (KHTML, like Gecko) Chrome/79.0.3945.130 Safari/537.36",55,"[0.9, 0.5, 0.1]","[0.8, 0.4, 0.2]","[u'black', u'red', u'blue']","[u'left', u'middle', u'right']","[0.9, 0.5, 0.1]","[u'medium', u'high', u'low']","red",50,"middle","high","True","False",337,3100,NA
"A2Q3FS9G8ITCN7","Wed Jan 29 2020 13:08:19 GMT-0600 (Central Standard Time)","Wed Jan 29 2020 13:16:20 GMT-0600 (Central Standard Time)","Mozilla/5.0 (Windows NT 10.0; Win64; x64) AppleWebKit/537.36 (KHTML, like Gecko) Chrome/79.0.3945.130 Safari/537.36",56,"[0.9, 0.5, 0.1]","[0.8, 0.4, 0.2]","[u'black', u'red', u'blue']","[u'left', u'middle', u'right']","[0.9, 0.5, 0.1]","[u'medium', u'high', u'low']","red",50,"middle","high","True","False",307,3200,NA
"A2Q3FS9G8ITCN7","Wed Jan 29 2020 13:08:19 GMT-0600 (Central Standard Time)","Wed Jan 29 2020 13:16:20 GMT-0600 (Central Standard Time)","Mozilla/5.0 (Windows NT 10.0; Win64; x64) AppleWebKit/537.36 (KHTML, like Gecko) Chrome/79.0.3945.130 Safari/537.36",57,"[0.9, 0.5, 0.1]","[0.8, 0.4, 0.2]","[u'black', u'red', u'blue']","[u'left', u'middle', u'right']","[0.9, 0.5, 0.1]","[u'medium', u'high', u'low']","red",50,"middle","high","False","False",411,3150,NA
"A2Q3FS9G8ITCN7","Wed Jan 29 2020 13:08:19 GMT-0600 (Central Standard Time)","Wed Jan 29 2020 13:16:20 GMT-0600 (Central Standard Time)","Mozilla/5.0 (Windows NT 10.0; Win64; x64) AppleWebKit/537.36 (KHTML, like Gecko) Chrome/79.0.3945.130 Safari/537.36",58,"[0.9, 0.5, 0.1]","[0.8, 0.4, 0.2]","[u'black', u'red', u'blue']","[u'left', u'middle', u'right']","[0.9, 0.5, 0.1]","[u'medium', u'high', u'low']","blue",51,"right","low","False","False",321,3100,NA
"A2Q3FS9G8ITCN7","Wed Jan 29 2020 13:08:19 GMT-0600 (Central Standard Time)","Wed Jan 29 2020 13:16:20 GMT-0600 (Central Standard Time)","Mozilla/5.0 (Windows NT 10.0; Win64; x64) AppleWebKit/537.36 (KHTML, like Gecko) Chrome/79.0.3945.130 Safari/537.36",59,"[0.9, 0.5, 0.1]","[0.8, 0.4, 0.2]","[u'black', u'red', u'blue']","[u'left', u'middle', u'right']","[0.9, 0.5, 0.1]","[u'medium', u'high', u'low']","black",49,"left","medium","True","False",235,3200,NA
"A2Q3FS9G8ITCN7","Wed Jan 29 2020 13:08:19 GMT-0600 (Central Standard Time)","Wed Jan 29 2020 13:16:20 GMT-0600 (Central Standard Time)","Mozilla/5.0 (Windows NT 10.0; Win64; x64) AppleWebKit/537.36 (KHTML, like Gecko) Chrome/79.0.3945.130 Safari/537.36",60,"[0.9, 0.5, 0.1]","[0.8, 0.4, 0.2]","[u'black', u'red', u'blue']","[u'left', u'middle', u'right']","[0.9, 0.5, 0.1]","[u'medium', u'high', u'low']","black",49,"left","medium","True","False",249,3300,NA
"A2Q3FS9G8ITCN7","Wed Jan 29 2020 13:08:19 GMT-0600 (Central Standard Time)","Wed Jan 29 2020 13:16:20 GMT-0600 (Central Standard Time)","Mozilla/5.0 (Windows NT 10.0; Win64; x64) AppleWebKit/537.36 (KHTML, like Gecko) Chrome/79.0.3945.130 Safari/537.36",61,"[0.9, 0.5, 0.1]","[0.8, 0.4, 0.2]","[u'black', u'red', u'blue']","[u'left', u'middle', u'right']","[0.9, 0.5, 0.1]","[u'medium', u'high', u'low']","black",49,"left","medium","True","False",420,3400,NA
"A2Q3FS9G8ITCN7","Wed Jan 29 2020 13:08:19 GMT-0600 (Central Standard Time)","Wed Jan 29 2020 13:16:20 GMT-0600 (Central Standard Time)","Mozilla/5.0 (Windows NT 10.0; Win64; x64) AppleWebKit/537.36 (KHTML, like Gecko) Chrome/79.0.3945.130 Safari/537.36",62,"[0.9, 0.5, 0.1]","[0.8, 0.4, 0.2]","[u'black', u'red', u'blue']","[u'left', u'middle', u'right']","[0.9, 0.5, 0.1]","[u'medium', u'high', u'low']","black",49,"left","medium","False","False",339,3350,NA
"A2Q3FS9G8ITCN7","Wed Jan 29 2020 13:08:19 GMT-0600 (Central Standard Time)","Wed Jan 29 2020 13:16:20 GMT-0600 (Central Standard Time)","Mozilla/5.0 (Windows NT 10.0; Win64; x64) AppleWebKit/537.36 (KHTML, like Gecko) Chrome/79.0.3945.130 Safari/537.36",63,"[0.9, 0.5, 0.1]","[0.8, 0.4, 0.2]","[u'black', u'red', u'blue']","[u'left', u'middle', u'right']","[0.9, 0.5, 0.1]","[u'medium', u'high', u'low']","red",50,"middle","high","True","False",770,3450,NA
"A2Q3FS9G8ITCN7","Wed Jan 29 2020 13:08:19 GMT-0600 (Central Standard Time)","Wed Jan 29 2020 13:16:20 GMT-0600 (Central Standard Time)","Mozilla/5.0 (Windows NT 10.0; Win64; x64) AppleWebKit/537.36 (KHTML, like Gecko) Chrome/79.0.3945.130 Safari/537.36",64,"[0.9, 0.5, 0.1]","[0.8, 0.4, 0.2]","[u'black', u'red', u'blue']","[u'left', u'middle', u'right']","[0.9, 0.5, 0.1]","[u'medium', u'high', u'low']","red",50,"middle","high","True","False",388,3550,NA
"A2Q3FS9G8ITCN7","Wed Jan 29 2020 13:08:19 GMT-0600 (Central Standard Time)","Wed Jan 29 2020 13:16:20 GMT-0600 (Central Standard Time)","Mozilla/5.0 (Windows NT 10.0; Win64; x64) AppleWebKit/537.36 (KHTML, like Gecko) Chrome/79.0.3945.130 Safari/537.36",65,"[0.9, 0.5, 0.1]","[0.8, 0.4, 0.2]","[u'black', u'red', u'blue']","[u'left', u'middle', u'right']","[0.9, 0.5, 0.1]","[u'medium', u'high', u'low']","red",50,"middle","high","True","False",356,3650,NA
"A2Q3FS9G8ITCN7","Wed Jan 29 2020 13:08:19 GMT-0600 (Central Standard Time)","Wed Jan 29 2020 13:16:20 GMT-0600 (Central Standard Time)","Mozilla/5.0 (Windows NT 10.0; Win64; x64) AppleWebKit/537.36 (KHTML, like Gecko) Chrome/79.0.3945.130 Safari/537.36",66,"[0.9, 0.5, 0.1]","[0.8, 0.4, 0.2]","[u'black', u'red', u'blue']","[u'left', u'middle', u'right']","[0.9, 0.5, 0.1]","[u'medium', u'high', u'low']","red",50,"middle","high","True","False",446,3750,NA
"A2Q3FS9G8ITCN7","Wed Jan 29 2020 13:08:19 GMT-0600 (Central Standard Time)","Wed Jan 29 2020 13:16:20 GMT-0600 (Central Standard Time)","Mozilla/5.0 (Windows NT 10.0; Win64; x64) AppleWebKit/537.36 (KHTML, like Gecko) Chrome/79.0.3945.130 Safari/537.36",67,"[0.9, 0.5, 0.1]","[0.8, 0.4, 0.2]","[u'black', u'red', u'blue']","[u'left', u'middle', u'right']","[0.9, 0.5, 0.1]","[u'medium', u'high', u'low']","red",50,"middle","high","True","False",401,3850,NA
"A2Q3FS9G8ITCN7","Wed Jan 29 2020 13:08:19 GMT-0600 (Central Standard Time)","Wed Jan 29 2020 13:16:20 GMT-0600 (Central Standard Time)","Mozilla/5.0 (Windows NT 10.0; Win64; x64) AppleWebKit/537.36 (KHTML, like Gecko) Chrome/79.0.3945.130 Safari/537.36",68,"[0.9, 0.5, 0.1]","[0.8, 0.4, 0.2]","[u'black', u'red', u'blue']","[u'left', u'middle', u'right']","[0.9, 0.5, 0.1]","[u'medium', u'high', u'low']","red",50,"middle","high","True","False",391,3950,NA
"A2Q3FS9G8ITCN7","Wed Jan 29 2020 13:08:19 GMT-0600 (Central Standard Time)","Wed Jan 29 2020 13:16:20 GMT-0600 (Central Standard Time)","Mozilla/5.0 (Windows NT 10.0; Win64; x64) AppleWebKit/537.36 (KHTML, like Gecko) Chrome/79.0.3945.130 Safari/537.36",69,"[0.9, 0.5, 0.1]","[0.8, 0.4, 0.2]","[u'black', u'red', u'blue']","[u'left', u'middle', u'right']","[0.9, 0.5, 0.1]","[u'medium', u'high', u'low']","red",50,"middle","high","True","False",350,4050,NA
"A2Q3FS9G8ITCN7","Wed Jan 29 2020 13:08:19 GMT-0600 (Central Standard Time)","Wed Jan 29 2020 13:16:20 GMT-0600 (Central Standard Time)","Mozilla/5.0 (Windows NT 10.0; Win64; x64) AppleWebKit/537.36 (KHTML, like Gecko) Chrome/79.0.3945.130 Safari/537.36",70,"[0.9, 0.5, 0.1]","[0.8, 0.4, 0.2]","[u'black', u'red', u'blue']","[u'left', u'middle', u'right']","[0.9, 0.5, 0.1]","[u'medium', u'high', u'low']","red",50,"middle","high","True","False",236,4150,NA
"A2Q3FS9G8ITCN7","Wed Jan 29 2020 13:08:19 GMT-0600 (Central Standard Time)","Wed Jan 29 2020 13:16:20 GMT-0600 (Central Standard Time)","Mozilla/5.0 (Windows NT 10.0; Win64; x64) AppleWebKit/537.36 (KHTML, like Gecko) Chrome/79.0.3945.130 Safari/537.36",71,"[0.9, 0.5, 0.1]","[0.8, 0.4, 0.2]","[u'black', u'red', u'blue']","[u'left', u'middle', u'right']","[0.9, 0.5, 0.1]","[u'medium', u'high', u'low']","red",50,"middle","high","True","True",282,4250,NA
"A2Q3FS9G8ITCN7","Wed Jan 29 2020 13:08:19 GMT-0600 (Central Standard Time)","Wed Jan 29 2020 13:16:20 GMT-0600 (Central Standard Time)","Mozilla/5.0 (Windows NT 10.0; Win64; x64) AppleWebKit/537.36 (KHTML, like Gecko) Chrome/79.0.3945.130 Safari/537.36",72,"[0.9, 0.5, 0.1]","[0.8, 0.4, 0.2]","[u'black', u'red', u'blue']","[u'left', u'middle', u'right']","[0.9, 0.5, 0.1]","[u'low', u'medium', u'high']","red",50,"middle","medium","False","False",277,4200,NA
"A2Q3FS9G8ITCN7","Wed Jan 29 2020 13:08:19 GMT-0600 (Central Standard Time)","Wed Jan 29 2020 13:16:20 GMT-0600 (Central Standard Time)","Mozilla/5.0 (Windows NT 10.0; Win64; x64) AppleWebKit/537.36 (KHTML, like Gecko) Chrome/79.0.3945.130 Safari/537.36",73,"[0.9, 0.5, 0.1]","[0.8, 0.4, 0.2]","[u'black', u'red', u'blue']","[u'left', u'middle', u'right']","[0.9, 0.5, 0.1]","[u'low', u'medium', u'high']","blue",51,"right","high","True","False",313,4300,NA
"A2Q3FS9G8ITCN7","Wed Jan 29 2020 13:08:19 GMT-0600 (Central Standard Time)","Wed Jan 29 2020 13:16:20 GMT-0600 (Central Standard Time)","Mozilla/5.0 (Windows NT 10.0; Win64; x64) AppleWebKit/537.36 (KHTML, like Gecko) Chrome/79.0.3945.130 Safari/537.36",74,"[0.9, 0.5, 0.1]","[0.8, 0.4, 0.2]","[u'black', u'red', u'blue']","[u'left', u'middle', u'right']","[0.9, 0.5, 0.1]","[u'low', u'medium', u'high']","blue",51,"right","high","True","False",314,4400,NA
"A2Q3FS9G8ITCN7","Wed Jan 29 2020 13:08:19 GMT-0600 (Central Standard Time)","Wed Jan 29 2020 13:16:20 GMT-0600 (Central Standard Time)","Mozilla/5.0 (Windows NT 10.0; Win64; x64) AppleWebKit/537.36 (KHTML, like Gecko) Chrome/79.0.3945.130 Safari/537.36",75,"[0.9, 0.5, 0.1]","[0.8, 0.4, 0.2]","[u'black', u'red', u'blue']","[u'left', u'middle', u'right']","[0.9, 0.5, 0.1]","[u'low', u'medium', u'high']","blue",51,"right","high","True","False",312,4500,NA
"A2Q3FS9G8ITCN7","Wed Jan 29 2020 13:08:19 GMT-0600 (Central Standard Time)","Wed Jan 29 2020 13:16:20 GMT-0600 (Central Standard Time)","Mozilla/5.0 (Windows NT 10.0; Win64; x64) AppleWebKit/537.36 (KHTML, like Gecko) Chrome/79.0.3945.130 Safari/537.36",76,"[0.9, 0.5, 0.1]","[0.8, 0.4, 0.2]","[u'black', u'red', u'blue']","[u'left', u'middle', u'right']","[0.9, 0.5, 0.1]","[u'low', u'medium', u'high']","blue",51,"right","high","True","False",276,4600,NA
"A2Q3FS9G8ITCN7","Wed Jan 29 2020 13:08:19 GMT-0600 (Central Standard Time)","Wed Jan 29 2020 13:16:20 GMT-0600 (Central Standard Time)","Mozilla/5.0 (Windows NT 10.0; Win64; x64) AppleWebKit/537.36 (KHTML, like Gecko) Chrome/79.0.3945.130 Safari/537.36",77,"[0.9, 0.5, 0.1]","[0.8, 0.4, 0.2]","[u'black', u'red', u'blue']","[u'left', u'middle', u'right']","[0.9, 0.5, 0.1]","[u'low', u'medium', u'high']","blue",51,"right","high","True","False",338,4700,NA
"A2Q3FS9G8ITCN7","Wed Jan 29 2020 13:08:19 GMT-0600 (Central Standard Time)","Wed Jan 29 2020 13:16:20 GMT-0600 (Central Standard Time)","Mozilla/5.0 (Windows NT 10.0; Win64; x64) AppleWebKit/537.36 (KHTML, like Gecko) Chrome/79.0.3945.130 Safari/537.36",78,"[0.9, 0.5, 0.1]","[0.8, 0.4, 0.2]","[u'black', u'red', u'blue']","[u'left', u'middle', u'right']","[0.9, 0.5, 0.1]","[u'low', u'medium', u'high']","blue",51,"right","high","True","False",349,4800,NA
"A2Q3FS9G8ITCN7","Wed Jan 29 2020 13:08:19 GMT-0600 (Central Standard Time)","Wed Jan 29 2020 13:16:20 GMT-0600 (Central Standard Time)","Mozilla/5.0 (Windows NT 10.0; Win64; x64) AppleWebKit/537.36 (KHTML, like Gecko) Chrome/79.0.3945.130 Safari/537.36",79,"[0.9, 0.5, 0.1]","[0.8, 0.4, 0.2]","[u'black', u'red', u'blue']","[u'left', u'middle', u'right']","[0.9, 0.5, 0.1]","[u'low', u'medium', u'high']","blue",51,"right","high","True","False",302,4900,NA
"A2Q3FS9G8ITCN7","Wed Jan 29 2020 13:08:19 GMT-0600 (Central Standard Time)","Wed Jan 29 2020 13:16:20 GMT-0600 (Central Standard Time)","Mozilla/5.0 (Windows NT 10.0; Win64; x64) AppleWebKit/537.36 (KHTML, like Gecko) Chrome/79.0.3945.130 Safari/537.36",80,"[0.9, 0.5, 0.1]","[0.8, 0.4, 0.2]","[u'black', u'red', u'blue']","[u'left', u'middle', u'right']","[0.9, 0.5, 0.1]","[u'low', u'medium', u'high']","blue",51,"right","high","True","False",299,5000,NA
"A2Q3FS9G8ITCN7","Wed Jan 29 2020 13:08:19 GMT-0600 (Central Standard Time)","Wed Jan 29 2020 13:16:20 GMT-0600 (Central Standard Time)","Mozilla/5.0 (Windows NT 10.0; Win64; x64) AppleWebKit/537.36 (KHTML, like Gecko) Chrome/79.0.3945.130 Safari/537.36",81,"[0.9, 0.5, 0.1]","[0.8, 0.4, 0.2]","[u'black', u'red', u'blue']","[u'left', u'middle', u'right']","[0.8, 0.4, 0.2]","[u'low', u'high', u'medium']","black",49,"left","low","False","False",451,4950,NA
"A2Q3FS9G8ITCN7","Wed Jan 29 2020 13:08:19 GMT-0600 (Central Standard Time)","Wed Jan 29 2020 13:16:20 GMT-0600 (Central Standard Time)","Mozilla/5.0 (Windows NT 10.0; Win64; x64) AppleWebKit/537.36 (KHTML, like Gecko) Chrome/79.0.3945.130 Safari/537.36",82,"[0.9, 0.5, 0.1]","[0.8, 0.4, 0.2]","[u'black', u'red', u'blue']","[u'left', u'middle', u'right']","[0.8, 0.4, 0.2]","[u'low', u'high', u'medium']","red",50,"middle","high","True","False",267,5050,NA
"A2Q3FS9G8ITCN7","Wed Jan 29 2020 13:08:19 GMT-0600 (Central Standard Time)","Wed Jan 29 2020 13:16:20 GMT-0600 (Central Standard Time)","Mozilla/5.0 (Windows NT 10.0; Win64; x64) AppleWebKit/537.36 (KHTML, like Gecko) Chrome/79.0.3945.130 Safari/537.36",83,"[0.9, 0.5, 0.1]","[0.8, 0.4, 0.2]","[u'black', u'red', u'blue']","[u'left', u'middle', u'right']","[0.8, 0.4, 0.2]","[u'low', u'high', u'medium']","red",50,"middle","high","False","False",264,5000,NA
"A2Q3FS9G8ITCN7","Wed Jan 29 2020 13:08:19 GMT-0600 (Central Standard Time)","Wed Jan 29 2020 13:16:20 GMT-0600 (Central Standard Time)","Mozilla/5.0 (Windows NT 10.0; Win64; x64) AppleWebKit/537.36 (KHTML, like Gecko) Chrome/79.0.3945.130 Safari/537.36",84,"[0.9, 0.5, 0.1]","[0.8, 0.4, 0.2]","[u'black', u'red', u'blue']","[u'left', u'middle', u'right']","[0.8, 0.4, 0.2]","[u'low', u'high', u'medium']","blue",51,"right","medium","False","False",277,4950,NA
"A2Q3FS9G8ITCN7","Wed Jan 29 2020 13:08:19 GMT-0600 (Central Standard Time)","Wed Jan 29 2020 13:16:20 GMT-0600 (Central Standard Time)","Mozilla/5.0 (Windows NT 10.0; Win64; x64) AppleWebKit/537.36 (KHTML, like Gecko) Chrome/79.0.3945.130 Safari/537.36",85,"[0.9, 0.5, 0.1]","[0.8, 0.4, 0.2]","[u'black', u'red', u'blue']","[u'left', u'middle', u'right']","[0.8, 0.4, 0.2]","[u'low', u'high', u'medium']","black",49,"left","low","False","False",278,4900,NA
"A2Q3FS9G8ITCN7","Wed Jan 29 2020 13:08:19 GMT-0600 (Central Standard Time)","Wed Jan 29 2020 13:16:20 GMT-0600 (Central Standard Time)","Mozilla/5.0 (Windows NT 10.0; Win64; x64) AppleWebKit/537.36 (KHTML, like Gecko) Chrome/79.0.3945.130 Safari/537.36",86,"[0.9, 0.5, 0.1]","[0.8, 0.4, 0.2]","[u'black', u'red', u'blue']","[u'left', u'middle', u'right']","[0.8, 0.4, 0.2]","[u'low', u'high', u'medium']","red",50,"middle","high","True","False",236,5000,NA
"A2Q3FS9G8ITCN7","Wed Jan 29 2020 13:08:19 GMT-0600 (Central Standard Time)","Wed Jan 29 2020 13:16:20 GMT-0600 (Central Standard Time)","Mozilla/5.0 (Windows NT 10.0; Win64; x64) AppleWebKit/537.36 (KHTML, like Gecko) Chrome/79.0.3945.130 Safari/537.36",87,"[0.9, 0.5, 0.1]","[0.8, 0.4, 0.2]","[u'black', u'red', u'blue']","[u'left', u'middle', u'right']","[0.8, 0.4, 0.2]","[u'low', u'high', u'medium']","red",50,"middle","high","False","False",163,4950,NA
"A2Q3FS9G8ITCN7","Wed Jan 29 2020 13:08:19 GMT-0600 (Central Standard Time)","Wed Jan 29 2020 13:16:20 GMT-0600 (Central Standard Time)","Mozilla/5.0 (Windows NT 10.0; Win64; x64) AppleWebKit/537.36 (KHTML, like Gecko) Chrome/79.0.3945.130 Safari/537.36",88,"[0.9, 0.5, 0.1]","[0.8, 0.4, 0.2]","[u'black', u'red', u'blue']","[u'left', u'middle', u'right']","[0.8, 0.4, 0.2]","[u'low', u'high', u'medium']","red",50,"middle","high","True","False",259,5050,NA
"A2Q3FS9G8ITCN7","Wed Jan 29 2020 13:08:19 GMT-0600 (Central Standard Time)","Wed Jan 29 2020 13:16:20 GMT-0600 (Central Standard Time)","Mozilla/5.0 (Windows NT 10.0; Win64; x64) AppleWebKit/537.36 (KHTML, like Gecko) Chrome/79.0.3945.130 Safari/537.36",89,"[0.9, 0.5, 0.1]","[0.8, 0.4, 0.2]","[u'black', u'red', u'blue']","[u'left', u'middle', u'right']","[0.8, 0.4, 0.2]","[u'low', u'high', u'medium']","red",50,"middle","high","True","False",236,5150,NA
"A2Q3FS9G8ITCN7","Wed Jan 29 2020 13:08:19 GMT-0600 (Central Standard Time)","Wed Jan 29 2020 13:16:20 GMT-0600 (Central Standard Time)","Mozilla/5.0 (Windows NT 10.0; Win64; x64) AppleWebKit/537.36 (KHTML, like Gecko) Chrome/79.0.3945.130 Safari/537.36",90,"[0.9, 0.5, 0.1]","[0.8, 0.4, 0.2]","[u'black', u'red', u'blue']","[u'left', u'middle', u'right']","[0.8, 0.4, 0.2]","[u'low', u'high', u'medium']","red",50,"middle","high","True","False",332,5250,NA
"A2Q3FS9G8ITCN7","Wed Jan 29 2020 13:08:19 GMT-0600 (Central Standard Time)","Wed Jan 29 2020 13:16:20 GMT-0600 (Central Standard Time)","Mozilla/5.0 (Windows NT 10.0; Win64; x64) AppleWebKit/537.36 (KHTML, like Gecko) Chrome/79.0.3945.130 Safari/537.36",91,"[0.9, 0.5, 0.1]","[0.8, 0.4, 0.2]","[u'black', u'red', u'blue']","[u'left', u'middle', u'right']","[0.8, 0.4, 0.2]","[u'low', u'high', u'medium']","red",50,"middle","high","True","False",297,5350,NA
"A2Q3FS9G8ITCN7","Wed Jan 29 2020 13:08:19 GMT-0600 (Central Standard Time)","Wed Jan 29 2020 13:16:20 GMT-0600 (Central Standard Time)","Mozilla/5.0 (Windows NT 10.0; Win64; x64) AppleWebKit/537.36 (KHTML, like Gecko) Chrome/79.0.3945.130 Safari/537.36",92,"[0.9, 0.5, 0.1]","[0.8, 0.4, 0.2]","[u'black', u'red', u'blue']","[u'left', u'middle', u'right']","[0.8, 0.4, 0.2]","[u'low', u'high', u'medium']","red",50,"middle","high","False","False",335,5300,NA
"A2Q3FS9G8ITCN7","Wed Jan 29 2020 13:08:19 GMT-0600 (Central Standard Time)","Wed Jan 29 2020 13:16:20 GMT-0600 (Central Standard Time)","Mozilla/5.0 (Windows NT 10.0; Win64; x64) AppleWebKit/537.36 (KHTML, like Gecko) Chrome/79.0.3945.130 Safari/537.36",93,"[0.9, 0.5, 0.1]","[0.8, 0.4, 0.2]","[u'black', u'red', u'blue']","[u'left', u'middle', u'right']","[0.8, 0.4, 0.2]","[u'low', u'high', u'medium']","blue",51,"right","medium","False","False",360,5250,NA
"A2Q3FS9G8ITCN7","Wed Jan 29 2020 13:08:19 GMT-0600 (Central Standard Time)","Wed Jan 29 2020 13:16:20 GMT-0600 (Central Standard Time)","Mozilla/5.0 (Windows NT 10.0; Win64; x64) AppleWebKit/537.36 (KHTML, like Gecko) Chrome/79.0.3945.130 Safari/537.36",94,"[0.9, 0.5, 0.1]","[0.8, 0.4, 0.2]","[u'black', u'red', u'blue']","[u'left', u'middle', u'right']","[0.8, 0.4, 0.2]","[u'low', u'high', u'medium']","red",50,"middle","high","False","False",232,5200,NA
"A2Q3FS9G8ITCN7","Wed Jan 29 2020 13:08:19 GMT-0600 (Central Standard Time)","Wed Jan 29 2020 13:16:20 GMT-0600 (Central Standard Time)","Mozilla/5.0 (Windows NT 10.0; Win64; x64) AppleWebKit/537.36 (KHTML, like Gecko) Chrome/79.0.3945.130 Safari/537.36",95,"[0.9, 0.5, 0.1]","[0.8, 0.4, 0.2]","[u'black', u'red', u'blue']","[u'left', u'middle', u'right']","[0.8, 0.4, 0.2]","[u'low', u'high', u'medium']","black",49,"left","low","False","False",338,5150,NA
"A2Q3FS9G8ITCN7","Wed Jan 29 2020 13:08:19 GMT-0600 (Central Standard Time)","Wed Jan 29 2020 13:16:20 GMT-0600 (Central Standard Time)","Mozilla/5.0 (Windows NT 10.0; Win64; x64) AppleWebKit/537.36 (KHTML, like Gecko) Chrome/79.0.3945.130 Safari/537.36",96,"[0.9, 0.5, 0.1]","[0.8, 0.4, 0.2]","[u'black', u'red', u'blue']","[u'left', u'middle', u'right']","[0.8, 0.4, 0.2]","[u'low', u'high', u'medium']","black",49,"left","low","False","False",303,5100,NA
"A2Q3FS9G8ITCN7","Wed Jan 29 2020 13:08:19 GMT-0600 (Central Standard Time)","Wed Jan 29 2020 13:16:20 GMT-0600 (Central Standard Time)","Mozilla/5.0 (Windows NT 10.0; Win64; x64) AppleWebKit/537.36 (KHTML, like Gecko) Chrome/79.0.3945.130 Safari/537.36",97,"[0.9, 0.5, 0.1]","[0.8, 0.4, 0.2]","[u'black', u'red', u'blue']","[u'left', u'middle', u'right']","[0.8, 0.4, 0.2]","[u'low', u'high', u'medium']","red",50,"middle","high","True","False",236,5200,NA
"A2Q3FS9G8ITCN7","Wed Jan 29 2020 13:08:19 GMT-0600 (Central Standard Time)","Wed Jan 29 2020 13:16:20 GMT-0600 (Central Standard Time)","Mozilla/5.0 (Windows NT 10.0; Win64; x64) AppleWebKit/537.36 (KHTML, like Gecko) Chrome/79.0.3945.130 Safari/537.36",98,"[0.9, 0.5, 0.1]","[0.8, 0.4, 0.2]","[u'black', u'red', u'blue']","[u'left', u'middle', u'right']","[0.8, 0.4, 0.2]","[u'low', u'high', u'medium']","red",50,"middle","high","True","False",224,5300,NA
"A2Q3FS9G8ITCN7","Wed Jan 29 2020 13:08:19 GMT-0600 (Central Standard Time)","Wed Jan 29 2020 13:16:20 GMT-0600 (Central Standard Time)","Mozilla/5.0 (Windows NT 10.0; Win64; x64) AppleWebKit/537.36 (KHTML, like Gecko) Chrome/79.0.3945.130 Safari/537.36",99,"[0.9, 0.5, 0.1]","[0.8, 0.4, 0.2]","[u'black', u'red', u'blue']","[u'left', u'middle', u'right']","[0.8, 0.4, 0.2]","[u'low', u'high', u'medium']","red",50,"middle","high","False","False",267,5250,NA
"A2Q3FS9G8ITCN7","Wed Jan 29 2020 13:08:19 GMT-0600 (Central Standard Time)","Wed Jan 29 2020 13:16:20 GMT-0600 (Central Standard Time)","Mozilla/5.0 (Windows NT 10.0; Win64; x64) AppleWebKit/537.36 (KHTML, like Gecko) Chrome/79.0.3945.130 Safari/537.36",100,"[0.9, 0.5, 0.1]","[0.8, 0.4, 0.2]","[u'black', u'red', u'blue']","[u'left', u'middle', u'right']","[0.8, 0.4, 0.2]","[u'low', u'high', u'medium']","red",50,"middle","high","True","False",494,5350,NA
"A2Q3FS9G8ITCN7","Wed Jan 29 2020 13:08:19 GMT-0600 (Central Standard Time)","Wed Jan 29 2020 13:16:20 GMT-0600 (Central Standard Time)","Mozilla/5.0 (Windows NT 10.0; Win64; x64) AppleWebKit/537.36 (KHTML, like Gecko) Chrome/79.0.3945.130 Safari/537.36",101,"[0.9, 0.5, 0.1]","[0.8, 0.4, 0.2]","[u'black', u'red', u'blue']","[u'left', u'middle', u'right']","[0.8, 0.4, 0.2]","[u'low', u'high', u'medium']","red",50,"middle","high","True","False",328,5450,NA
"A2Q3FS9G8ITCN7","Wed Jan 29 2020 13:08:19 GMT-0600 (Central Standard Time)","Wed Jan 29 2020 13:16:20 GMT-0600 (Central Standard Time)","Mozilla/5.0 (Windows NT 10.0; Win64; x64) AppleWebKit/537.36 (KHTML, like Gecko) Chrome/79.0.3945.130 Safari/537.36",102,"[0.9, 0.5, 0.1]","[0.8, 0.4, 0.2]","[u'black', u'red', u'blue']","[u'left', u'middle', u'right']","[0.8, 0.4, 0.2]","[u'low', u'high', u'medium']","red",50,"middle","high","True","False",322,5550,NA
"A2Q3FS9G8ITCN7","Wed Jan 29 2020 13:08:19 GMT-0600 (Central Standard Time)","Wed Jan 29 2020 13:16:20 GMT-0600 (Central Standard Time)","Mozilla/5.0 (Windows NT 10.0; Win64; x64) AppleWebKit/537.36 (KHTML, like Gecko) Chrome/79.0.3945.130 Safari/537.36",103,"[0.9, 0.5, 0.1]","[0.8, 0.4, 0.2]","[u'black', u'red', u'blue']","[u'left', u'middle', u'right']","[0.8, 0.4, 0.2]","[u'low', u'high', u'medium']","red",50,"middle","high","True","False",341,5650,NA
"A2Q3FS9G8ITCN7","Wed Jan 29 2020 13:08:19 GMT-0600 (Central Standard Time)","Wed Jan 29 2020 13:16:20 GMT-0600 (Central Standard Time)","Mozilla/5.0 (Windows NT 10.0; Win64; x64) AppleWebKit/537.36 (KHTML, like Gecko) Chrome/79.0.3945.130 Safari/537.36",104,"[0.9, 0.5, 0.1]","[0.8, 0.4, 0.2]","[u'black', u'red', u'blue']","[u'left', u'middle', u'right']","[0.8, 0.4, 0.2]","[u'low', u'high', u'medium']","red",50,"middle","high","True","False",323,5750,NA
"A2Q3FS9G8ITCN7","Wed Jan 29 2020 13:08:19 GMT-0600 (Central Standard Time)","Wed Jan 29 2020 13:16:20 GMT-0600 (Central Standard Time)","Mozilla/5.0 (Windows NT 10.0; Win64; x64) AppleWebKit/537.36 (KHTML, like Gecko) Chrome/79.0.3945.130 Safari/537.36",105,"[0.9, 0.5, 0.1]","[0.8, 0.4, 0.2]","[u'black', u'red', u'blue']","[u'left', u'middle', u'right']","[0.8, 0.4, 0.2]","[u'low', u'high', u'medium']","red",50,"middle","high","True","True",463,5850,NA
"A2Q3FS9G8ITCN7","Wed Jan 29 2020 13:08:19 GMT-0600 (Central Standard Time)","Wed Jan 29 2020 13:16:20 GMT-0600 (Central Standard Time)","Mozilla/5.0 (Windows NT 10.0; Win64; x64) AppleWebKit/537.36 (KHTML, like Gecko) Chrome/79.0.3945.130 Safari/537.36",106,"[0.9, 0.5, 0.1]","[0.8, 0.4, 0.2]","[u'black', u'red', u'blue']","[u'left', u'middle', u'right']","[0.8, 0.4, 0.2]","[u'high', u'low', u'medium']","red",50,"middle","low","True","False",409,5950,NA
"A2Q3FS9G8ITCN7","Wed Jan 29 2020 13:08:19 GMT-0600 (Central Standard Time)","Wed Jan 29 2020 13:16:20 GMT-0600 (Central Standard Time)","Mozilla/5.0 (Windows NT 10.0; Win64; x64) AppleWebKit/537.36 (KHTML, like Gecko) Chrome/79.0.3945.130 Safari/537.36",107,"[0.9, 0.5, 0.1]","[0.8, 0.4, 0.2]","[u'black', u'red', u'blue']","[u'left', u'middle', u'right']","[0.8, 0.4, 0.2]","[u'high', u'low', u'medium']","red",50,"middle","low","False","False",417,5900,NA
"A2Q3FS9G8ITCN7","Wed Jan 29 2020 13:08:19 GMT-0600 (Central Standard Time)","Wed Jan 29 2020 13:16:20 GMT-0600 (Central Standard Time)","Mozilla/5.0 (Windows NT 10.0; Win64; x64) AppleWebKit/537.36 (KHTML, like Gecko) Chrome/79.0.3945.130 Safari/537.36",108,"[0.9, 0.5, 0.1]","[0.8, 0.4, 0.2]","[u'black', u'red', u'blue']","[u'left', u'middle', u'right']","[0.8, 0.4, 0.2]","[u'high', u'low', u'medium']","blue",51,"right","medium","False","False",319,5850,NA
"A2Q3FS9G8ITCN7","Wed Jan 29 2020 13:08:19 GMT-0600 (Central Standard Time)","Wed Jan 29 2020 13:16:20 GMT-0600 (Central Standard Time)","Mozilla/5.0 (Windows NT 10.0; Win64; x64) AppleWebKit/537.36 (KHTML, like Gecko) Chrome/79.0.3945.130 Safari/537.36",109,"[0.9, 0.5, 0.1]","[0.8, 0.4, 0.2]","[u'black', u'red', u'blue']","[u'left', u'middle', u'right']","[0.8, 0.4, 0.2]","[u'high', u'low', u'medium']","red",50,"middle","low","False","False",298,5800,NA
"A2Q3FS9G8ITCN7","Wed Jan 29 2020 13:08:19 GMT-0600 (Central Standard Time)","Wed Jan 29 2020 13:16:20 GMT-0600 (Central Standard Time)","Mozilla/5.0 (Windows NT 10.0; Win64; x64) AppleWebKit/537.36 (KHTML, like Gecko) Chrome/79.0.3945.130 Safari/537.36",110,"[0.9, 0.5, 0.1]","[0.8, 0.4, 0.2]","[u'black', u'red', u'blue']","[u'left', u'middle', u'right']","[0.8, 0.4, 0.2]","[u'high', u'low', u'medium']","black",49,"left","high","True","False",355,5900,NA
"A2Q3FS9G8ITCN7","Wed Jan 29 2020 13:08:19 GMT-0600 (Central Standard Time)","Wed Jan 29 2020 13:16:20 GMT-0600 (Central Standard Time)","Mozilla/5.0 (Windows NT 10.0; Win64; x64) AppleWebKit/537.36 (KHTML, like Gecko) Chrome/79.0.3945.130 Safari/537.36",111,"[0.9, 0.5, 0.1]","[0.8, 0.4, 0.2]","[u'black', u'red', u'blue']","[u'left', u'middle', u'right']","[0.8, 0.4, 0.2]","[u'high', u'low', u'medium']","black",49,"left","high","False","False",485,5850,NA
"A2Q3FS9G8ITCN7","Wed Jan 29 2020 13:08:19 GMT-0600 (Central Standard Time)","Wed Jan 29 2020 13:16:20 GMT-0600 (Central Standard Time)","Mozilla/5.0 (Windows NT 10.0; Win64; x64) AppleWebKit/537.36 (KHTML, like Gecko) Chrome/79.0.3945.130 Safari/537.36",112,"[0.9, 0.5, 0.1]","[0.8, 0.4, 0.2]","[u'black', u'red', u'blue']","[u'left', u'middle', u'right']","[0.8, 0.4, 0.2]","[u'high', u'low', u'medium']","black",49,"left","high","True","False",291,5950,NA
"A2Q3FS9G8ITCN7","Wed Jan 29 2020 13:08:19 GMT-0600 (Central Standard Time)","Wed Jan 29 2020 13:16:20 GMT-0600 (Central Standard Time)","Mozilla/5.0 (Windows NT 10.0; Win64; x64) AppleWebKit/537.36 (KHTML, like Gecko) Chrome/79.0.3945.130 Safari/537.36",113,"[0.9, 0.5, 0.1]","[0.8, 0.4, 0.2]","[u'black', u'red', u'blue']","[u'left', u'middle', u'right']","[0.8, 0.4, 0.2]","[u'high', u'low', u'medium']","black",49,"left","high","False","False",460,5900,NA
"A2Q3FS9G8ITCN7","Wed Jan 29 2020 13:08:19 GMT-0600 (Central Standard Time)","Wed Jan 29 2020 13:16:20 GMT-0600 (Central Standard Time)","Mozilla/5.0 (Windows NT 10.0; Win64; x64) AppleWebKit/537.36 (KHTML, like Gecko) Chrome/79.0.3945.130 Safari/537.36",114,"[0.9, 0.5, 0.1]","[0.8, 0.4, 0.2]","[u'black', u'red', u'blue']","[u'left', u'middle', u'right']","[0.8, 0.4, 0.2]","[u'high', u'low', u'medium']","red",50,"middle","low","False","False",323,5850,NA
"A2Q3FS9G8ITCN7","Wed Jan 29 2020 13:08:19 GMT-0600 (Central Standard Time)","Wed Jan 29 2020 13:16:20 GMT-0600 (Central Standard Time)","Mozilla/5.0 (Windows NT 10.0; Win64; x64) AppleWebKit/537.36 (KHTML, like Gecko) Chrome/79.0.3945.130 Safari/537.36",115,"[0.9, 0.5, 0.1]","[0.8, 0.4, 0.2]","[u'black', u'red', u'blue']","[u'left', u'middle', u'right']","[0.8, 0.4, 0.2]","[u'high', u'low', u'medium']","blue",51,"right","medium","True","False",307,5950,NA
"A2Q3FS9G8ITCN7","Wed Jan 29 2020 13:08:19 GMT-0600 (Central Standard Time)","Wed Jan 29 2020 13:16:20 GMT-0600 (Central Standard Time)","Mozilla/5.0 (Windows NT 10.0; Win64; x64) AppleWebKit/537.36 (KHTML, like Gecko) Chrome/79.0.3945.130 Safari/537.36",116,"[0.9, 0.5, 0.1]","[0.8, 0.4, 0.2]","[u'black', u'red', u'blue']","[u'left', u'middle', u'right']","[0.8, 0.4, 0.2]","[u'high', u'low', u'medium']","blue",51,"right","medium","True","False",364,6050,NA
"A2Q3FS9G8ITCN7","Wed Jan 29 2020 13:08:19 GMT-0600 (Central Standard Time)","Wed Jan 29 2020 13:16:20 GMT-0600 (Central Standard Time)","Mozilla/5.0 (Windows NT 10.0; Win64; x64) AppleWebKit/537.36 (KHTML, like Gecko) Chrome/79.0.3945.130 Safari/537.36",117,"[0.9, 0.5, 0.1]","[0.8, 0.4, 0.2]","[u'black', u'red', u'blue']","[u'left', u'middle', u'right']","[0.8, 0.4, 0.2]","[u'high', u'low', u'medium']","blue",51,"right","medium","True","False",276,6150,NA
"A2Q3FS9G8ITCN7","Wed Jan 29 2020 13:08:19 GMT-0600 (Central Standard Time)","Wed Jan 29 2020 13:16:20 GMT-0600 (Central Standard Time)","Mozilla/5.0 (Windows NT 10.0; Win64; x64) AppleWebKit/537.36 (KHTML, like Gecko) Chrome/79.0.3945.130 Safari/537.36",118,"[0.9, 0.5, 0.1]","[0.8, 0.4, 0.2]","[u'black', u'red', u'blue']","[u'left', u'middle', u'right']","[0.8, 0.4, 0.2]","[u'high', u'low', u'medium']","blue",51,"right","medium","False","False",320,6100,NA
"A2Q3FS9G8ITCN7","Wed Jan 29 2020 13:08:19 GMT-0600 (Central Standard Time)","Wed Jan 29 2020 13:16:20 GMT-0600 (Central Standard Time)","Mozilla/5.0 (Windows NT 10.0; Win64; x64) AppleWebKit/537.36 (KHTML, like Gecko) Chrome/79.0.3945.130 Safari/537.36",119,"[0.9, 0.5, 0.1]","[0.8, 0.4, 0.2]","[u'black', u'red', u'blue']","[u'left', u'middle', u'right']","[0.8, 0.4, 0.2]","[u'high', u'low', u'medium']","red",50,"middle","low","False","False",313,6050,NA
"A2Q3FS9G8ITCN7","Wed Jan 29 2020 13:08:19 GMT-0600 (Central Standard Time)","Wed Jan 29 2020 13:16:20 GMT-0600 (Central Standard Time)","Mozilla/5.0 (Windows NT 10.0; Win64; x64) AppleWebKit/537.36 (KHTML, like Gecko) Chrome/79.0.3945.130 Safari/537.36",120,"[0.9, 0.5, 0.1]","[0.8, 0.4, 0.2]","[u'black', u'red', u'blue']","[u'left', u'middle', u'right']","[0.8, 0.4, 0.2]","[u'high', u'low', u'medium']","blue",51,"right","medium","False","False",257,6000,NA
"A2Q3FS9G8ITCN7","Wed Jan 29 2020 13:08:19 GMT-0600 (Central Standard Time)","Wed Jan 29 2020 13:16:20 GMT-0600 (Central Standard Time)","Mozilla/5.0 (Windows NT 10.0; Win64; x64) AppleWebKit/537.36 (KHTML, like Gecko) Chrome/79.0.3945.130 Safari/537.36",121,"[0.9, 0.5, 0.1]","[0.8, 0.4, 0.2]","[u'black', u'red', u'blue']","[u'left', u'middle', u'right']","[0.8, 0.4, 0.2]","[u'medium', u'high', u'low']","black",49,"left","medium","False","False",348,5950,NA
"A2Q3FS9G8ITCN7","Wed Jan 29 2020 13:08:19 GMT-0600 (Central Standard Time)","Wed Jan 29 2020 13:16:20 GMT-0600 (Central Standard Time)","Mozilla/5.0 (Windows NT 10.0; Win64; x64) AppleWebKit/537.36 (KHTML, like Gecko) Chrome/79.0.3945.130 Safari/537.36",122,"[0.9, 0.5, 0.1]","[0.8, 0.4, 0.2]","[u'black', u'red', u'blue']","[u'left', u'middle', u'right']","[0.8, 0.4, 0.2]","[u'medium', u'high', u'low']","red",50,"middle","high","True","False",244,6050,NA
"A2Q3FS9G8ITCN7","Wed Jan 29 2020 13:08:19 GMT-0600 (Central Standard Time)","Wed Jan 29 2020 13:16:20 GMT-0600 (Central Standard Time)","Mozilla/5.0 (Windows NT 10.0; Win64; x64) AppleWebKit/537.36 (KHTML, like Gecko) Chrome/79.0.3945.130 Safari/537.36",123,"[0.9, 0.5, 0.1]","[0.8, 0.4, 0.2]","[u'black', u'red', u'blue']","[u'left', u'middle', u'right']","[0.8, 0.4, 0.2]","[u'medium', u'high', u'low']","red",50,"middle","high","True","False",371,6150,NA
"A2Q3FS9G8ITCN7","Wed Jan 29 2020 13:08:19 GMT-0600 (Central Standard Time)","Wed Jan 29 2020 13:16:20 GMT-0600 (Central Standard Time)","Mozilla/5.0 (Windows NT 10.0; Win64; x64) AppleWebKit/537.36 (KHTML, like Gecko) Chrome/79.0.3945.130 Safari/537.36",124,"[0.9, 0.5, 0.1]","[0.8, 0.4, 0.2]","[u'black', u'red', u'blue']","[u'left', u'middle', u'right']","[0.8, 0.4, 0.2]","[u'medium', u'high', u'low']","red",50,"middle","high","True","False",320,6250,NA
"A2Q3FS9G8ITCN7","Wed Jan 29 2020 13:08:19 GMT-0600 (Central Standard Time)","Wed Jan 29 2020 13:16:20 GMT-0600 (Central Standard Time)","Mozilla/5.0 (Windows NT 10.0; Win64; x64) AppleWebKit/537.36 (KHTML, like Gecko) Chrome/79.0.3945.130 Safari/537.36",125,"[0.9, 0.5, 0.1]","[0.8, 0.4, 0.2]","[u'black', u'red', u'blue']","[u'left', u'middle', u'right']","[0.8, 0.4, 0.2]","[u'medium', u'high', u'low']","red",50,"middle","high","False","False",495,6200,NA
"A2Q3FS9G8ITCN7","Wed Jan 29 2020 13:08:19 GMT-0600 (Central Standard Time)","Wed Jan 29 2020 13:16:20 GMT-0600 (Central Standard Time)","Mozilla/5.0 (Windows NT 10.0; Win64; x64) AppleWebKit/537.36 (KHTML, like Gecko) Chrome/79.0.3945.130 Safari/537.36",126,"[0.9, 0.5, 0.1]","[0.8, 0.4, 0.2]","[u'black', u'red', u'blue']","[u'left', u'middle', u'right']","[0.8, 0.4, 0.2]","[u'medium', u'high', u'low']","blue",51,"right","low","False","False",287,6150,NA
"A2Q3FS9G8ITCN7","Wed Jan 29 2020 13:08:19 GMT-0600 (Central Standard Time)","Wed Jan 29 2020 13:16:20 GMT-0600 (Central Standard Time)","Mozilla/5.0 (Windows NT 10.0; Win64; x64) AppleWebKit/537.36 (KHTML, like Gecko) Chrome/79.0.3945.130 Safari/537.36",127,"[0.9, 0.5, 0.1]","[0.8, 0.4, 0.2]","[u'black', u'red', u'blue']","[u'left', u'middle', u'right']","[0.8, 0.4, 0.2]","[u'medium', u'high', u'low']","red",50,"middle","high","True","False",253,6250,NA
"A2Q3FS9G8ITCN7","Wed Jan 29 2020 13:08:19 GMT-0600 (Central Standard Time)","Wed Jan 29 2020 13:16:20 GMT-0600 (Central Standard Time)","Mozilla/5.0 (Windows NT 10.0; Win64; x64) AppleWebKit/537.36 (KHTML, like Gecko) Chrome/79.0.3945.130 Safari/537.36",128,"[0.9, 0.5, 0.1]","[0.8, 0.4, 0.2]","[u'black', u'red', u'blue']","[u'left', u'middle', u'right']","[0.8, 0.4, 0.2]","[u'medium', u'high', u'low']","red",50,"middle","high","True","False",331,6350,NA
"A2Q3FS9G8ITCN7","Wed Jan 29 2020 13:08:19 GMT-0600 (Central Standard Time)","Wed Jan 29 2020 13:16:20 GMT-0600 (Central Standard Time)","Mozilla/5.0 (Windows NT 10.0; Win64; x64) AppleWebKit/537.36 (KHTML, like Gecko) Chrome/79.0.3945.130 Safari/537.36",129,"[0.9, 0.5, 0.1]","[0.8, 0.4, 0.2]","[u'black', u'red', u'blue']","[u'left', u'middle', u'right']","[0.8, 0.4, 0.2]","[u'medium', u'high', u'low']","red",50,"middle","high","True","False",377,6450,NA
"A2Q3FS9G8ITCN7","Wed Jan 29 2020 13:08:19 GMT-0600 (Central Standard Time)","Wed Jan 29 2020 13:16:20 GMT-0600 (Central Standard Time)","Mozilla/5.0 (Windows NT 10.0; Win64; x64) AppleWebKit/537.36 (KHTML, like Gecko) Chrome/79.0.3945.130 Safari/537.36",130,"[0.9, 0.5, 0.1]","[0.8, 0.4, 0.2]","[u'black', u'red', u'blue']","[u'left', u'middle', u'right']","[0.8, 0.4, 0.2]","[u'medium', u'high', u'low']","red",50,"middle","high","True","False",369,6550,NA
"A2Q3FS9G8ITCN7","Wed Jan 29 2020 13:08:19 GMT-0600 (Central Standard Time)","Wed Jan 29 2020 13:16:20 GMT-0600 (Central Standard Time)","Mozilla/5.0 (Windows NT 10.0; Win64; x64) AppleWebKit/537.36 (KHTML, like Gecko) Chrome/79.0.3945.130 Safari/537.36",131,"[0.9, 0.5, 0.1]","[0.8, 0.4, 0.2]","[u'black', u'red', u'blue']","[u'left', u'middle', u'right']","[0.8, 0.4, 0.2]","[u'medium', u'high', u'low']","red",50,"middle","high","False","True",431,6500,NA
"A2Q3FS9G8ITCN7","Wed Jan 29 2020 13:08:19 GMT-0600 (Central Standard Time)","Wed Jan 29 2020 13:16:20 GMT-0600 (Central Standard Time)","Mozilla/5.0 (Windows NT 10.0; Win64; x64) AppleWebKit/537.36 (KHTML, like Gecko) Chrome/79.0.3945.130 Safari/537.36",132,"[0.9, 0.5, 0.1]","[0.8, 0.4, 0.2]","[u'black', u'red', u'blue']","[u'left', u'middle', u'right']","[0.8, 0.4, 0.2]","[u'low', u'medium', u'high']","red",50,"middle","medium","True","False",275,6600,NA
"A2Q3FS9G8ITCN7","Wed Jan 29 2020 13:08:19 GMT-0600 (Central Standard Time)","Wed Jan 29 2020 13:16:20 GMT-0600 (Central Standard Time)","Mozilla/5.0 (Windows NT 10.0; Win64; x64) AppleWebKit/537.36 (KHTML, like Gecko) Chrome/79.0.3945.130 Safari/537.36",133,"[0.9, 0.5, 0.1]","[0.8, 0.4, 0.2]","[u'black', u'red', u'blue']","[u'left', u'middle', u'right']","[0.8, 0.4, 0.2]","[u'low', u'medium', u'high']","red",50,"middle","medium","True","False",381,6700,NA
"A2Q3FS9G8ITCN7","Wed Jan 29 2020 13:08:19 GMT-0600 (Central Standard Time)","Wed Jan 29 2020 13:16:20 GMT-0600 (Central Standard Time)","Mozilla/5.0 (Windows NT 10.0; Win64; x64) AppleWebKit/537.36 (KHTML, like Gecko) Chrome/79.0.3945.130 Safari/537.36",134,"[0.9, 0.5, 0.1]","[0.8, 0.4, 0.2]","[u'black', u'red', u'blue']","[u'left', u'middle', u'right']","[0.8, 0.4, 0.2]","[u'low', u'medium', u'high']","red",50,"middle","medium","False","False",406,6650,NA
"A2Q3FS9G8ITCN7","Wed Jan 29 2020 13:08:19 GMT-0600 (Central Standard Time)","Wed Jan 29 2020 13:16:20 GMT-0600 (Central Standard Time)","Mozilla/5.0 (Windows NT 10.0; Win64; x64) AppleWebKit/537.36 (KHTML, like Gecko) Chrome/79.0.3945.130 Safari/537.36",135,"[0.9, 0.5, 0.1]","[0.8, 0.4, 0.2]","[u'black', u'red', u'blue']","[u'left', u'middle', u'right']","[0.8, 0.4, 0.2]","[u'low', u'medium', u'high']","black",49,"left","low","False","False",371,6600,NA
"A2Q3FS9G8ITCN7","Wed Jan 29 2020 13:08:19 GMT-0600 (Central Standard Time)","Wed Jan 29 2020 13:16:20 GMT-0600 (Central Standard Time)","Mozilla/5.0 (Windows NT 10.0; Win64; x64) AppleWebKit/537.36 (KHTML, like Gecko) Chrome/79.0.3945.130 Safari/537.36",136,"[0.9, 0.5, 0.1]","[0.8, 0.4, 0.2]","[u'black', u'red', u'blue']","[u'left', u'middle', u'right']","[0.8, 0.4, 0.2]","[u'low', u'medium', u'high']","blue",51,"right","high","True","False",288,6700,NA
"A2Q3FS9G8ITCN7","Wed Jan 29 2020 13:08:19 GMT-0600 (Central Standard Time)","Wed Jan 29 2020 13:16:20 GMT-0600 (Central Standard Time)","Mozilla/5.0 (Windows NT 10.0; Win64; x64) AppleWebKit/537.36 (KHTML, like Gecko) Chrome/79.0.3945.130 Safari/537.36",137,"[0.9, 0.5, 0.1]","[0.8, 0.4, 0.2]","[u'black', u'red', u'blue']","[u'left', u'middle', u'right']","[0.8, 0.4, 0.2]","[u'low', u'medium', u'high']","blue",51,"right","high","True","False",270,6800,NA
"A2Q3FS9G8ITCN7","Wed Jan 29 2020 13:08:19 GMT-0600 (Central Standard Time)","Wed Jan 29 2020 13:16:20 GMT-0600 (Central Standard Time)","Mozilla/5.0 (Windows NT 10.0; Win64; x64) AppleWebKit/537.36 (KHTML, like Gecko) Chrome/79.0.3945.130 Safari/537.36",138,"[0.9, 0.5, 0.1]","[0.8, 0.4, 0.2]","[u'black', u'red', u'blue']","[u'left', u'middle', u'right']","[0.8, 0.4, 0.2]","[u'low', u'medium', u'high']","blue",51,"right","high","True","False",890,6900,NA
"A2Q3FS9G8ITCN7","Wed Jan 29 2020 13:08:19 GMT-0600 (Central Standard Time)","Wed Jan 29 2020 13:16:20 GMT-0600 (Central Standard Time)","Mozilla/5.0 (Windows NT 10.0; Win64; x64) AppleWebKit/537.36 (KHTML, like Gecko) Chrome/79.0.3945.130 Safari/537.36",139,"[0.9, 0.5, 0.1]","[0.8, 0.4, 0.2]","[u'black', u'red', u'blue']","[u'left', u'middle', u'right']","[0.8, 0.4, 0.2]","[u'low', u'medium', u'high']","blue",51,"right","high","True","False",479,7000,NA
"A2Q3FS9G8ITCN7","Wed Jan 29 2020 13:08:19 GMT-0600 (Central Standard Time)","Wed Jan 29 2020 13:16:20 GMT-0600 (Central Standard Time)","Mozilla/5.0 (Windows NT 10.0; Win64; x64) AppleWebKit/537.36 (KHTML, like Gecko) Chrome/79.0.3945.130 Safari/537.36",140,"[0.9, 0.5, 0.1]","[0.8, 0.4, 0.2]","[u'black', u'red', u'blue']","[u'left', u'middle', u'right']","[0.8, 0.4, 0.2]","[u'low', u'medium', u'high']","blue",51,"right","high","True","False",497,7100,NA
"A2Q3FS9G8ITCN7","Wed Jan 29 2020 13:08:19 GMT-0600 (Central Standard Time)","Wed Jan 29 2020 13:16:20 GMT-0600 (Central Standard Time)","Mozilla/5.0 (Windows NT 10.0; Win64; x64) AppleWebKit/537.36 (KHTML, like Gecko) Chrome/79.0.3945.130 Safari/537.36",141,"[0.9, 0.5, 0.1]","[0.8, 0.4, 0.2]","[u'black', u'red', u'blue']","[u'left', u'middle', u'right']","[0.8, 0.4, 0.2]","[u'low', u'medium', u'high']","blue",51,"right","high","True","False",406,7200,NA
"A2Q3FS9G8ITCN7","Wed Jan 29 2020 13:08:19 GMT-0600 (Central Standard Time)","Wed Jan 29 2020 13:16:20 GMT-0600 (Central Standard Time)","Mozilla/5.0 (Windows NT 10.0; Win64; x64) AppleWebKit/537.36 (KHTML, like Gecko) Chrome/79.0.3945.130 Safari/537.36",142,"[0.9, 0.5, 0.1]","[0.8, 0.4, 0.2]","[u'black', u'red', u'blue']","[u'left', u'middle', u'right']","[0.8, 0.4, 0.2]","[u'low', u'medium', u'high']","blue",51,"right","high","True","False",386,7300,NA
"A2Q3FS9G8ITCN7","Wed Jan 29 2020 13:08:19 GMT-0600 (Central Standard Time)","Wed Jan 29 2020 13:16:20 GMT-0600 (Central Standard Time)","Mozilla/5.0 (Windows NT 10.0; Win64; x64) AppleWebKit/537.36 (KHTML, like Gecko) Chrome/79.0.3945.130 Safari/537.36",143,"[0.9, 0.5, 0.1]","[0.8, 0.4, 0.2]","[u'black', u'red', u'blue']","[u'left', u'middle', u'right']","[0.8, 0.4, 0.2]","[u'low', u'medium', u'high']","blue",51,"right","high","True","False",316,7400,NA
"A2Q3FS9G8ITCN7","Wed Jan 29 2020 13:08:19 GMT-0600 (Central Standard Time)","Wed Jan 29 2020 13:16:20 GMT-0600 (Central Standard Time)","Mozilla/5.0 (Windows NT 10.0; Win64; x64) AppleWebKit/537.36 (KHTML, like Gecko) Chrome/79.0.3945.130 Safari/537.36",144,"[0.9, 0.5, 0.1]","[0.8, 0.4, 0.2]","[u'black', u'red', u'blue']","[u'left', u'middle', u'right']","[0.8, 0.4, 0.2]","[u'low', u'medium', u'high']","blue",51,"right","high","True","True",502,7500,NA
"A2Q3FS9G8ITCN7","Wed Jan 29 2020 13:08:19 GMT-0600 (Central Standard Time)","Wed Jan 29 2020 13:16:20 GMT-0600 (Central Standard Time)","Mozilla/5.0 (Windows NT 10.0; Win64; x64) AppleWebKit/537.36 (KHTML, like Gecko) Chrome/79.0.3945.130 Safari/537.36",145,"[0.9, 0.5, 0.1]","[0.8, 0.4, 0.2]","[u'black', u'red', u'blue']","[u'left', u'middle', u'right']","[0.8, 0.4, 0.2]","[u'medium', u'high', u'low']","blue",51,"right","low","True","False",340,7600,NA
"A2Q3FS9G8ITCN7","Wed Jan 29 2020 13:08:19 GMT-0600 (Central Standard Time)","Wed Jan 29 2020 13:16:20 GMT-0600 (Central Standard Time)","Mozilla/5.0 (Windows NT 10.0; Win64; x64) AppleWebKit/537.36 (KHTML, like Gecko) Chrome/79.0.3945.130 Safari/537.36",146,"[0.9, 0.5, 0.1]","[0.8, 0.4, 0.2]","[u'black', u'red', u'blue']","[u'left', u'middle', u'right']","[0.8, 0.4, 0.2]","[u'medium', u'high', u'low']","blue",51,"right","low","False","False",393,7550,NA
"A2Q3FS9G8ITCN7","Wed Jan 29 2020 13:08:19 GMT-0600 (Central Standard Time)","Wed Jan 29 2020 13:16:20 GMT-0600 (Central Standard Time)","Mozilla/5.0 (Windows NT 10.0; Win64; x64) AppleWebKit/537.36 (KHTML, like Gecko) Chrome/79.0.3945.130 Safari/537.36",147,"[0.9, 0.5, 0.1]","[0.8, 0.4, 0.2]","[u'black', u'red', u'blue']","[u'left', u'middle', u'right']","[0.8, 0.4, 0.2]","[u'medium', u'high', u'low']","black",49,"left","medium","False","False",333,7500,NA
"A2Q3FS9G8ITCN7","Wed Jan 29 2020 13:08:19 GMT-0600 (Central Standard Time)","Wed Jan 29 2020 13:16:20 GMT-0600 (Central Standard Time)","Mozilla/5.0 (Windows NT 10.0; Win64; x64) AppleWebKit/537.36 (KHTML, like Gecko) Chrome/79.0.3945.130 Safari/537.36",148,"[0.9, 0.5, 0.1]","[0.8, 0.4, 0.2]","[u'black', u'red', u'blue']","[u'left', u'middle', u'right']","[0.8, 0.4, 0.2]","[u'medium', u'high', u'low']","blue",51,"right","low","True","False",264,7600,NA
"A2Q3FS9G8ITCN7","Wed Jan 29 2020 13:08:19 GMT-0600 (Central Standard Time)","Wed Jan 29 2020 13:16:20 GMT-0600 (Central Standard Time)","Mozilla/5.0 (Windows NT 10.0; Win64; x64) AppleWebKit/537.36 (KHTML, like Gecko) Chrome/79.0.3945.130 Safari/537.36",149,"[0.9, 0.5, 0.1]","[0.8, 0.4, 0.2]","[u'black', u'red', u'blue']","[u'left', u'middle', u'right']","[0.8, 0.4, 0.2]","[u'medium', u'high', u'low']","blue",51,"right","low","False","False",278,7550,NA
"A2Q3FS9G8ITCN7","Wed Jan 29 2020 13:08:19 GMT-0600 (Central Standard Time)","Wed Jan 29 2020 13:16:20 GMT-0600 (Central Standard Time)","Mozilla/5.0 (Windows NT 10.0; Win64; x64) AppleWebKit/537.36 (KHTML, like Gecko) Chrome/79.0.3945.130 Safari/537.36",150,"[0.9, 0.5, 0.1]","[0.8, 0.4, 0.2]","[u'black', u'red', u'blue']","[u'left', u'middle', u'right']","[0.8, 0.4, 0.2]","[u'medium', u'high', u'low']","red",50,"middle","high","True","False",279,7650,NA
"A2Q3FS9G8ITCN7","Wed Jan 29 2020 13:08:19 GMT-0600 (Central Standard Time)","Wed Jan 29 2020 13:16:20 GMT-0600 (Central Standard Time)","Mozilla/5.0 (Windows NT 10.0; Win64; x64) AppleWebKit/537.36 (KHTML, like Gecko) Chrome/79.0.3945.130 Safari/537.36",151,"[0.9, 0.5, 0.1]","[0.8, 0.4, 0.2]","[u'black', u'red', u'blue']","[u'left', u'middle', u'right']","[0.8, 0.4, 0.2]","[u'medium', u'high', u'low']","red",50,"middle","high","False","False",273,7600,NA
"A2Q3FS9G8ITCN7","Wed Jan 29 2020 13:08:19 GMT-0600 (Central Standard Time)","Wed Jan 29 2020 13:16:20 GMT-0600 (Central Standard Time)","Mozilla/5.0 (Windows NT 10.0; Win64; x64) AppleWebKit/537.36 (KHTML, like Gecko) Chrome/79.0.3945.130 Safari/537.36",152,"[0.9, 0.5, 0.1]","[0.8, 0.4, 0.2]","[u'black', u'red', u'blue']","[u'left', u'middle', u'right']","[0.8, 0.4, 0.2]","[u'medium', u'high', u'low']","blue",51,"right","low","False","False",256,7550,NA
"A2Q3FS9G8ITCN7","Wed Jan 29 2020 13:08:19 GMT-0600 (Central Standard Time)","Wed Jan 29 2020 13:16:20 GMT-0600 (Central Standard Time)","Mozilla/5.0 (Windows NT 10.0; Win64; x64) AppleWebKit/537.36 (KHTML, like Gecko) Chrome/79.0.3945.130 Safari/537.36",153,"[0.9, 0.5, 0.1]","[0.8, 0.4, 0.2]","[u'black', u'red', u'blue']","[u'left', u'middle', u'right']","[0.8, 0.4, 0.2]","[u'medium', u'high', u'low']","red",50,"middle","high","False","False",549,7500,NA
"A2Q3FS9G8ITCN7","Wed Jan 29 2020 13:08:19 GMT-0600 (Central Standard Time)","Wed Jan 29 2020 13:16:20 GMT-0600 (Central Standard Time)","Mozilla/5.0 (Windows NT 10.0; Win64; x64) AppleWebKit/537.36 (KHTML, like Gecko) Chrome/79.0.3945.130 Safari/537.36",154,"[0.9, 0.5, 0.1]","[0.8, 0.4, 0.2]","[u'black', u'red', u'blue']","[u'left', u'middle', u'right']","[0.8, 0.4, 0.2]","[u'medium', u'high', u'low']","black",49,"left","medium","True","False",341,7600,NA
"A2Q3FS9G8ITCN7","Wed Jan 29 2020 13:08:19 GMT-0600 (Central Standard Time)","Wed Jan 29 2020 13:16:20 GMT-0600 (Central Standard Time)","Mozilla/5.0 (Windows NT 10.0; Win64; x64) AppleWebKit/537.36 (KHTML, like Gecko) Chrome/79.0.3945.130 Safari/537.36",155,"[0.9, 0.5, 0.1]","[0.8, 0.4, 0.2]","[u'black', u'red', u'blue']","[u'left', u'middle', u'right']","[0.8, 0.4, 0.2]","[u'medium', u'high', u'low']","black",49,"left","medium","False","False",394,7550,NA
"A2Q3FS9G8ITCN7","Wed Jan 29 2020 13:08:19 GMT-0600 (Central Standard Time)","Wed Jan 29 2020 13:16:20 GMT-0600 (Central Standard Time)","Mozilla/5.0 (Windows NT 10.0; Win64; x64) AppleWebKit/537.36 (KHTML, like Gecko) Chrome/79.0.3945.130 Safari/537.36",156,"[0.9, 0.5, 0.1]","[0.8, 0.4, 0.2]","[u'black', u'red', u'blue']","[u'left', u'middle', u'right']","[0.8, 0.4, 0.2]","[u'medium', u'high', u'low']","black",49,"left","medium","True","False",332,7650,NA
"A2Q3FS9G8ITCN7","Wed Jan 29 2020 13:08:19 GMT-0600 (Central Standard Time)","Wed Jan 29 2020 13:16:20 GMT-0600 (Central Standard Time)","Mozilla/5.0 (Windows NT 10.0; Win64; x64) AppleWebKit/537.36 (KHTML, like Gecko) Chrome/79.0.3945.130 Safari/537.36",157,"[0.9, 0.5, 0.1]","[0.8, 0.4, 0.2]","[u'black', u'red', u'blue']","[u'left', u'middle', u'right']","[0.8, 0.4, 0.2]","[u'medium', u'high', u'low']","black",49,"left","medium","True","False",403,7750,NA
"A2Q3FS9G8ITCN7","Wed Jan 29 2020 13:08:19 GMT-0600 (Central Standard Time)","Wed Jan 29 2020 13:16:20 GMT-0600 (Central Standard Time)","Mozilla/5.0 (Windows NT 10.0; Win64; x64) AppleWebKit/537.36 (KHTML, like Gecko) Chrome/79.0.3945.130 Safari/537.36",158,"[0.9, 0.5, 0.1]","[0.8, 0.4, 0.2]","[u'black', u'red', u'blue']","[u'left', u'middle', u'right']","[0.8, 0.4, 0.2]","[u'medium', u'high', u'low']","black",49,"left","medium","False","False",507,7700,NA
"A2Q3FS9G8ITCN7","Wed Jan 29 2020 13:08:19 GMT-0600 (Central Standard Time)","Wed Jan 29 2020 13:16:20 GMT-0600 (Central Standard Time)","Mozilla/5.0 (Windows NT 10.0; Win64; x64) AppleWebKit/537.36 (KHTML, like Gecko) Chrome/79.0.3945.130 Safari/537.36",159,"[0.9, 0.5, 0.1]","[0.8, 0.4, 0.2]","[u'black', u'red', u'blue']","[u'left', u'middle', u'right']","[0.8, 0.4, 0.2]","[u'medium', u'high', u'low']","red",50,"middle","high","True","False",267,7800,NA
"A2Q3FS9G8ITCN7","Wed Jan 29 2020 13:08:19 GMT-0600 (Central Standard Time)","Wed Jan 29 2020 13:16:20 GMT-0600 (Central Standard Time)","Mozilla/5.0 (Windows NT 10.0; Win64; x64) AppleWebKit/537.36 (KHTML, like Gecko) Chrome/79.0.3945.130 Safari/537.36",160,"[0.9, 0.5, 0.1]","[0.8, 0.4, 0.2]","[u'black', u'red', u'blue']","[u'left', u'middle', u'right']","[0.8, 0.4, 0.2]","[u'medium', u'high', u'low']","red",50,"middle","high","True","False",254,7900,NA
