"src_subject_id","start_time","end_time","browser","index","first_half_probabilities","second_half_probabilities","deck_color","deck_position","deck_probabilities","deck_contingencies","response_color","key_press","response_position","response_probability","reward_type","trial_type","rt","reward_tally","exclusion_reason"
"A2C6HMH2FDM2CI","Thu Jan 30 2020 08:28:41 GMT-0500 (Eastern Standard Time)","Thu Jan 30 2020 08:39:02 GMT-0500 (Eastern Standard Time)","Mozilla/5.0 (X11; Linux x86_64) AppleWebKit/537.36 (KHTML, like Gecko) Ubuntu Chromium/79.0.3945.79 Chrome/79.0.3945.79 Safari/537.36",1,"[0.9, 0.5, 0.1]","[0.8, 0.4, 0.2]","[u'blue', u'black', u'red']","[u'left', u'middle', u'right']","[0.9, 0.5, 0.1]","[u'medium', u'low', u'high']","blue",49,"left","medium","True","False",1039,100,NA
"A2C6HMH2FDM2CI","Thu Jan 30 2020 08:28:41 GMT-0500 (Eastern Standard Time)","Thu Jan 30 2020 08:39:02 GMT-0500 (Eastern Standard Time)","Mozilla/5.0 (X11; Linux x86_64) AppleWebKit/537.36 (KHTML, like Gecko) Ubuntu Chromium/79.0.3945.79 Chrome/79.0.3945.79 Safari/537.36",2,"[0.9, 0.5, 0.1]","[0.8, 0.4, 0.2]","[u'blue', u'black', u'red']","[u'left', u'middle', u'right']","[0.9, 0.5, 0.1]","[u'medium', u'low', u'high']","red",51,"right","high","True","False",1381,200,NA
"A2C6HMH2FDM2CI","Thu Jan 30 2020 08:28:41 GMT-0500 (Eastern Standard Time)","Thu Jan 30 2020 08:39:02 GMT-0500 (Eastern Standard Time)","Mozilla/5.0 (X11; Linux x86_64) AppleWebKit/537.36 (KHTML, like Gecko) Ubuntu Chromium/79.0.3945.79 Chrome/79.0.3945.79 Safari/537.36",3,"[0.9, 0.5, 0.1]","[0.8, 0.4, 0.2]","[u'blue', u'black', u'red']","[u'left', u'middle', u'right']","[0.9, 0.5, 0.1]","[u'medium', u'low', u'high']","black",50,"middle","low","True","False",1269,300,NA
"A2C6HMH2FDM2CI","Thu Jan 30 2020 08:28:41 GMT-0500 (Eastern Standard Time)","Thu Jan 30 2020 08:39:02 GMT-0500 (Eastern Standard Time)","Mozilla/5.0 (X11; Linux x86_64) AppleWebKit/537.36 (KHTML, like Gecko) Ubuntu Chromium/79.0.3945.79 Chrome/79.0.3945.79 Safari/537.36",4,"[0.9, 0.5, 0.1]","[0.8, 0.4, 0.2]","[u'blue', u'black', u'red']","[u'left', u'middle', u'right']","[0.9, 0.5, 0.1]","[u'medium', u'low', u'high']","red",51,"right","high","True","False",1529,400,NA
"A2C6HMH2FDM2CI","Thu Jan 30 2020 08:28:41 GMT-0500 (Eastern Standard Time)","Thu Jan 30 2020 08:39:02 GMT-0500 (Eastern Standard Time)","Mozilla/5.0 (X11; Linux x86_64) AppleWebKit/537.36 (KHTML, like Gecko) Ubuntu Chromium/79.0.3945.79 Chrome/79.0.3945.79 Safari/537.36",5,"[0.9, 0.5, 0.1]","[0.8, 0.4, 0.2]","[u'blue', u'black', u'red']","[u'left', u'middle', u'right']","[0.9, 0.5, 0.1]","[u'medium', u'low', u'high']","blue",49,"left","medium","False","False",1394,350,NA
"A2C6HMH2FDM2CI","Thu Jan 30 2020 08:28:41 GMT-0500 (Eastern Standard Time)","Thu Jan 30 2020 08:39:02 GMT-0500 (Eastern Standard Time)","Mozilla/5.0 (X11; Linux x86_64) AppleWebKit/537.36 (KHTML, like Gecko) Ubuntu Chromium/79.0.3945.79 Chrome/79.0.3945.79 Safari/537.36",6,"[0.9, 0.5, 0.1]","[0.8, 0.4, 0.2]","[u'blue', u'black', u'red']","[u'left', u'middle', u'right']","[0.9, 0.5, 0.1]","[u'medium', u'low', u'high']","black",50,"middle","low","False","False",595,300,NA
"A2C6HMH2FDM2CI","Thu Jan 30 2020 08:28:41 GMT-0500 (Eastern Standard Time)","Thu Jan 30 2020 08:39:02 GMT-0500 (Eastern Standard Time)","Mozilla/5.0 (X11; Linux x86_64) AppleWebKit/537.36 (KHTML, like Gecko) Ubuntu Chromium/79.0.3945.79 Chrome/79.0.3945.79 Safari/537.36",7,"[0.9, 0.5, 0.1]","[0.8, 0.4, 0.2]","[u'blue', u'black', u'red']","[u'left', u'middle', u'right']","[0.9, 0.5, 0.1]","[u'medium', u'low', u'high']","red",51,"right","high","True","False",919,400,NA
"A2C6HMH2FDM2CI","Thu Jan 30 2020 08:28:41 GMT-0500 (Eastern Standard Time)","Thu Jan 30 2020 08:39:02 GMT-0500 (Eastern Standard Time)","Mozilla/5.0 (X11; Linux x86_64) AppleWebKit/537.36 (KHTML, like Gecko) Ubuntu Chromium/79.0.3945.79 Chrome/79.0.3945.79 Safari/537.36",8,"[0.9, 0.5, 0.1]","[0.8, 0.4, 0.2]","[u'blue', u'black', u'red']","[u'left', u'middle', u'right']","[0.9, 0.5, 0.1]","[u'medium', u'low', u'high']","red",51,"right","high","True","False",612,500,NA
"A2C6HMH2FDM2CI","Thu Jan 30 2020 08:28:41 GMT-0500 (Eastern Standard Time)","Thu Jan 30 2020 08:39:02 GMT-0500 (Eastern Standard Time)","Mozilla/5.0 (X11; Linux x86_64) AppleWebKit/537.36 (KHTML, like Gecko) Ubuntu Chromium/79.0.3945.79 Chrome/79.0.3945.79 Safari/537.36",9,"[0.9, 0.5, 0.1]","[0.8, 0.4, 0.2]","[u'blue', u'black', u'red']","[u'left', u'middle', u'right']","[0.9, 0.5, 0.1]","[u'medium', u'low', u'high']","red",51,"right","high","True","False",566,600,NA
"A2C6HMH2FDM2CI","Thu Jan 30 2020 08:28:41 GMT-0500 (Eastern Standard Time)","Thu Jan 30 2020 08:39:02 GMT-0500 (Eastern Standard Time)","Mozilla/5.0 (X11; Linux x86_64) AppleWebKit/537.36 (KHTML, like Gecko) Ubuntu Chromium/79.0.3945.79 Chrome/79.0.3945.79 Safari/537.36",10,"[0.9, 0.5, 0.1]","[0.8, 0.4, 0.2]","[u'blue', u'black', u'red']","[u'left', u'middle', u'right']","[0.9, 0.5, 0.1]","[u'medium', u'low', u'high']","red",51,"right","high","True","False",544,700,NA
"A2C6HMH2FDM2CI","Thu Jan 30 2020 08:28:41 GMT-0500 (Eastern Standard Time)","Thu Jan 30 2020 08:39:02 GMT-0500 (Eastern Standard Time)","Mozilla/5.0 (X11; Linux x86_64) AppleWebKit/537.36 (KHTML, like Gecko) Ubuntu Chromium/79.0.3945.79 Chrome/79.0.3945.79 Safari/537.36",11,"[0.9, 0.5, 0.1]","[0.8, 0.4, 0.2]","[u'blue', u'black', u'red']","[u'left', u'middle', u'right']","[0.9, 0.5, 0.1]","[u'medium', u'low', u'high']","red",51,"right","high","True","False",472,800,NA
"A2C6HMH2FDM2CI","Thu Jan 30 2020 08:28:41 GMT-0500 (Eastern Standard Time)","Thu Jan 30 2020 08:39:02 GMT-0500 (Eastern Standard Time)","Mozilla/5.0 (X11; Linux x86_64) AppleWebKit/537.36 (KHTML, like Gecko) Ubuntu Chromium/79.0.3945.79 Chrome/79.0.3945.79 Safari/537.36",12,"[0.9, 0.5, 0.1]","[0.8, 0.4, 0.2]","[u'blue', u'black', u'red']","[u'left', u'middle', u'right']","[0.9, 0.5, 0.1]","[u'medium', u'low', u'high']","red",51,"right","high","True","False",464,900,NA
"A2C6HMH2FDM2CI","Thu Jan 30 2020 08:28:41 GMT-0500 (Eastern Standard Time)","Thu Jan 30 2020 08:39:02 GMT-0500 (Eastern Standard Time)","Mozilla/5.0 (X11; Linux x86_64) AppleWebKit/537.36 (KHTML, like Gecko) Ubuntu Chromium/79.0.3945.79 Chrome/79.0.3945.79 Safari/537.36",13,"[0.9, 0.5, 0.1]","[0.8, 0.4, 0.2]","[u'blue', u'black', u'red']","[u'left', u'middle', u'right']","[0.9, 0.5, 0.1]","[u'medium', u'low', u'high']","red",51,"right","high","True","False",571,1000,NA
"A2C6HMH2FDM2CI","Thu Jan 30 2020 08:28:41 GMT-0500 (Eastern Standard Time)","Thu Jan 30 2020 08:39:02 GMT-0500 (Eastern Standard Time)","Mozilla/5.0 (X11; Linux x86_64) AppleWebKit/537.36 (KHTML, like Gecko) Ubuntu Chromium/79.0.3945.79 Chrome/79.0.3945.79 Safari/537.36",14,"[0.9, 0.5, 0.1]","[0.8, 0.4, 0.2]","[u'blue', u'black', u'red']","[u'left', u'middle', u'right']","[0.9, 0.5, 0.1]","[u'medium', u'low', u'high']","red",51,"right","high","True","False",838,1100,NA
"A2C6HMH2FDM2CI","Thu Jan 30 2020 08:28:41 GMT-0500 (Eastern Standard Time)","Thu Jan 30 2020 08:39:02 GMT-0500 (Eastern Standard Time)","Mozilla/5.0 (X11; Linux x86_64) AppleWebKit/537.36 (KHTML, like Gecko) Ubuntu Chromium/79.0.3945.79 Chrome/79.0.3945.79 Safari/537.36",15,"[0.9, 0.5, 0.1]","[0.8, 0.4, 0.2]","[u'blue', u'black', u'red']","[u'left', u'middle', u'right']","[0.9, 0.5, 0.1]","[u'medium', u'low', u'high']","red",51,"right","high","True","True",601,1200,NA
"A2C6HMH2FDM2CI","Thu Jan 30 2020 08:28:41 GMT-0500 (Eastern Standard Time)","Thu Jan 30 2020 08:39:02 GMT-0500 (Eastern Standard Time)","Mozilla/5.0 (X11; Linux x86_64) AppleWebKit/537.36 (KHTML, like Gecko) Ubuntu Chromium/79.0.3945.79 Chrome/79.0.3945.79 Safari/537.36",16,"[0.9, 0.5, 0.1]","[0.8, 0.4, 0.2]","[u'blue', u'black', u'red']","[u'left', u'middle', u'right']","[0.9, 0.5, 0.1]","[u'high', u'medium', u'low']","red",51,"right","low","True","False",531,1300,NA
"A2C6HMH2FDM2CI","Thu Jan 30 2020 08:28:41 GMT-0500 (Eastern Standard Time)","Thu Jan 30 2020 08:39:02 GMT-0500 (Eastern Standard Time)","Mozilla/5.0 (X11; Linux x86_64) AppleWebKit/537.36 (KHTML, like Gecko) Ubuntu Chromium/79.0.3945.79 Chrome/79.0.3945.79 Safari/537.36",17,"[0.9, 0.5, 0.1]","[0.8, 0.4, 0.2]","[u'blue', u'black', u'red']","[u'left', u'middle', u'right']","[0.9, 0.5, 0.1]","[u'high', u'medium', u'low']","red",51,"right","low","False","False",586,1250,NA
"A2C6HMH2FDM2CI","Thu Jan 30 2020 08:28:41 GMT-0500 (Eastern Standard Time)","Thu Jan 30 2020 08:39:02 GMT-0500 (Eastern Standard Time)","Mozilla/5.0 (X11; Linux x86_64) AppleWebKit/537.36 (KHTML, like Gecko) Ubuntu Chromium/79.0.3945.79 Chrome/79.0.3945.79 Safari/537.36",18,"[0.9, 0.5, 0.1]","[0.8, 0.4, 0.2]","[u'blue', u'black', u'red']","[u'left', u'middle', u'right']","[0.9, 0.5, 0.1]","[u'high', u'medium', u'low']","blue",49,"left","high","True","False",984,1350,NA
"A2C6HMH2FDM2CI","Thu Jan 30 2020 08:28:41 GMT-0500 (Eastern Standard Time)","Thu Jan 30 2020 08:39:02 GMT-0500 (Eastern Standard Time)","Mozilla/5.0 (X11; Linux x86_64) AppleWebKit/537.36 (KHTML, like Gecko) Ubuntu Chromium/79.0.3945.79 Chrome/79.0.3945.79 Safari/537.36",19,"[0.9, 0.5, 0.1]","[0.8, 0.4, 0.2]","[u'blue', u'black', u'red']","[u'left', u'middle', u'right']","[0.9, 0.5, 0.1]","[u'high', u'medium', u'low']","blue",49,"left","high","True","False",428,1450,NA
"A2C6HMH2FDM2CI","Thu Jan 30 2020 08:28:41 GMT-0500 (Eastern Standard Time)","Thu Jan 30 2020 08:39:02 GMT-0500 (Eastern Standard Time)","Mozilla/5.0 (X11; Linux x86_64) AppleWebKit/537.36 (KHTML, like Gecko) Ubuntu Chromium/79.0.3945.79 Chrome/79.0.3945.79 Safari/537.36",20,"[0.9, 0.5, 0.1]","[0.8, 0.4, 0.2]","[u'blue', u'black', u'red']","[u'left', u'middle', u'right']","[0.9, 0.5, 0.1]","[u'high', u'medium', u'low']","blue",49,"left","high","False","False",492,1400,NA
"A2C6HMH2FDM2CI","Thu Jan 30 2020 08:28:41 GMT-0500 (Eastern Standard Time)","Thu Jan 30 2020 08:39:02 GMT-0500 (Eastern Standard Time)","Mozilla/5.0 (X11; Linux x86_64) AppleWebKit/537.36 (KHTML, like Gecko) Ubuntu Chromium/79.0.3945.79 Chrome/79.0.3945.79 Safari/537.36",21,"[0.9, 0.5, 0.1]","[0.8, 0.4, 0.2]","[u'blue', u'black', u'red']","[u'left', u'middle', u'right']","[0.9, 0.5, 0.1]","[u'high', u'medium', u'low']","black",50,"middle","medium","True","False",665,1500,NA
"A2C6HMH2FDM2CI","Thu Jan 30 2020 08:28:41 GMT-0500 (Eastern Standard Time)","Thu Jan 30 2020 08:39:02 GMT-0500 (Eastern Standard Time)","Mozilla/5.0 (X11; Linux x86_64) AppleWebKit/537.36 (KHTML, like Gecko) Ubuntu Chromium/79.0.3945.79 Chrome/79.0.3945.79 Safari/537.36",22,"[0.9, 0.5, 0.1]","[0.8, 0.4, 0.2]","[u'blue', u'black', u'red']","[u'left', u'middle', u'right']","[0.9, 0.5, 0.1]","[u'high', u'medium', u'low']","black",50,"middle","medium","True","False",552,1600,NA
"A2C6HMH2FDM2CI","Thu Jan 30 2020 08:28:41 GMT-0500 (Eastern Standard Time)","Thu Jan 30 2020 08:39:02 GMT-0500 (Eastern Standard Time)","Mozilla/5.0 (X11; Linux x86_64) AppleWebKit/537.36 (KHTML, like Gecko) Ubuntu Chromium/79.0.3945.79 Chrome/79.0.3945.79 Safari/537.36",23,"[0.9, 0.5, 0.1]","[0.8, 0.4, 0.2]","[u'blue', u'black', u'red']","[u'left', u'middle', u'right']","[0.9, 0.5, 0.1]","[u'high', u'medium', u'low']","black",50,"middle","medium","True","False",570,1700,NA
"A2C6HMH2FDM2CI","Thu Jan 30 2020 08:28:41 GMT-0500 (Eastern Standard Time)","Thu Jan 30 2020 08:39:02 GMT-0500 (Eastern Standard Time)","Mozilla/5.0 (X11; Linux x86_64) AppleWebKit/537.36 (KHTML, like Gecko) Ubuntu Chromium/79.0.3945.79 Chrome/79.0.3945.79 Safari/537.36",24,"[0.9, 0.5, 0.1]","[0.8, 0.4, 0.2]","[u'blue', u'black', u'red']","[u'left', u'middle', u'right']","[0.9, 0.5, 0.1]","[u'high', u'medium', u'low']","black",50,"middle","medium","True","False",602,1800,NA
"A2C6HMH2FDM2CI","Thu Jan 30 2020 08:28:41 GMT-0500 (Eastern Standard Time)","Thu Jan 30 2020 08:39:02 GMT-0500 (Eastern Standard Time)","Mozilla/5.0 (X11; Linux x86_64) AppleWebKit/537.36 (KHTML, like Gecko) Ubuntu Chromium/79.0.3945.79 Chrome/79.0.3945.79 Safari/537.36",25,"[0.9, 0.5, 0.1]","[0.8, 0.4, 0.2]","[u'blue', u'black', u'red']","[u'left', u'middle', u'right']","[0.9, 0.5, 0.1]","[u'high', u'medium', u'low']","black",50,"middle","medium","True","False",489,1900,NA
"A2C6HMH2FDM2CI","Thu Jan 30 2020 08:28:41 GMT-0500 (Eastern Standard Time)","Thu Jan 30 2020 08:39:02 GMT-0500 (Eastern Standard Time)","Mozilla/5.0 (X11; Linux x86_64) AppleWebKit/537.36 (KHTML, like Gecko) Ubuntu Chromium/79.0.3945.79 Chrome/79.0.3945.79 Safari/537.36",26,"[0.9, 0.5, 0.1]","[0.8, 0.4, 0.2]","[u'blue', u'black', u'red']","[u'left', u'middle', u'right']","[0.9, 0.5, 0.1]","[u'high', u'medium', u'low']","black",50,"middle","medium","False","False",574,1850,NA
"A2C6HMH2FDM2CI","Thu Jan 30 2020 08:28:41 GMT-0500 (Eastern Standard Time)","Thu Jan 30 2020 08:39:02 GMT-0500 (Eastern Standard Time)","Mozilla/5.0 (X11; Linux x86_64) AppleWebKit/537.36 (KHTML, like Gecko) Ubuntu Chromium/79.0.3945.79 Chrome/79.0.3945.79 Safari/537.36",27,"[0.9, 0.5, 0.1]","[0.8, 0.4, 0.2]","[u'blue', u'black', u'red']","[u'left', u'middle', u'right']","[0.9, 0.5, 0.1]","[u'high', u'medium', u'low']","red",51,"right","low","False","False",492,1800,NA
"A2C6HMH2FDM2CI","Thu Jan 30 2020 08:28:41 GMT-0500 (Eastern Standard Time)","Thu Jan 30 2020 08:39:02 GMT-0500 (Eastern Standard Time)","Mozilla/5.0 (X11; Linux x86_64) AppleWebKit/537.36 (KHTML, like Gecko) Ubuntu Chromium/79.0.3945.79 Chrome/79.0.3945.79 Safari/537.36",28,"[0.9, 0.5, 0.1]","[0.8, 0.4, 0.2]","[u'blue', u'black', u'red']","[u'left', u'middle', u'right']","[0.9, 0.5, 0.1]","[u'high', u'medium', u'low']","blue",49,"left","high","True","False",655,1900,NA
"A2C6HMH2FDM2CI","Thu Jan 30 2020 08:28:41 GMT-0500 (Eastern Standard Time)","Thu Jan 30 2020 08:39:02 GMT-0500 (Eastern Standard Time)","Mozilla/5.0 (X11; Linux x86_64) AppleWebKit/537.36 (KHTML, like Gecko) Ubuntu Chromium/79.0.3945.79 Chrome/79.0.3945.79 Safari/537.36",29,"[0.9, 0.5, 0.1]","[0.8, 0.4, 0.2]","[u'blue', u'black', u'red']","[u'left', u'middle', u'right']","[0.9, 0.5, 0.1]","[u'high', u'medium', u'low']","blue",49,"left","high","True","False",479,2000,NA
"A2C6HMH2FDM2CI","Thu Jan 30 2020 08:28:41 GMT-0500 (Eastern Standard Time)","Thu Jan 30 2020 08:39:02 GMT-0500 (Eastern Standard Time)","Mozilla/5.0 (X11; Linux x86_64) AppleWebKit/537.36 (KHTML, like Gecko) Ubuntu Chromium/79.0.3945.79 Chrome/79.0.3945.79 Safari/537.36",30,"[0.9, 0.5, 0.1]","[0.8, 0.4, 0.2]","[u'blue', u'black', u'red']","[u'left', u'middle', u'right']","[0.9, 0.5, 0.1]","[u'high', u'medium', u'low']","blue",49,"left","high","True","False",610,2100,NA
"A2C6HMH2FDM2CI","Thu Jan 30 2020 08:28:41 GMT-0500 (Eastern Standard Time)","Thu Jan 30 2020 08:39:02 GMT-0500 (Eastern Standard Time)","Mozilla/5.0 (X11; Linux x86_64) AppleWebKit/537.36 (KHTML, like Gecko) Ubuntu Chromium/79.0.3945.79 Chrome/79.0.3945.79 Safari/537.36",31,"[0.9, 0.5, 0.1]","[0.8, 0.4, 0.2]","[u'blue', u'black', u'red']","[u'left', u'middle', u'right']","[0.9, 0.5, 0.1]","[u'high', u'medium', u'low']","blue",49,"left","high","True","False",629,2200,NA
"A2C6HMH2FDM2CI","Thu Jan 30 2020 08:28:41 GMT-0500 (Eastern Standard Time)","Thu Jan 30 2020 08:39:02 GMT-0500 (Eastern Standard Time)","Mozilla/5.0 (X11; Linux x86_64) AppleWebKit/537.36 (KHTML, like Gecko) Ubuntu Chromium/79.0.3945.79 Chrome/79.0.3945.79 Safari/537.36",32,"[0.9, 0.5, 0.1]","[0.8, 0.4, 0.2]","[u'blue', u'black', u'red']","[u'left', u'middle', u'right']","[0.9, 0.5, 0.1]","[u'high', u'medium', u'low']","blue",49,"left","high","True","False",603,2300,NA
"A2C6HMH2FDM2CI","Thu Jan 30 2020 08:28:41 GMT-0500 (Eastern Standard Time)","Thu Jan 30 2020 08:39:02 GMT-0500 (Eastern Standard Time)","Mozilla/5.0 (X11; Linux x86_64) AppleWebKit/537.36 (KHTML, like Gecko) Ubuntu Chromium/79.0.3945.79 Chrome/79.0.3945.79 Safari/537.36",33,"[0.9, 0.5, 0.1]","[0.8, 0.4, 0.2]","[u'blue', u'black', u'red']","[u'left', u'middle', u'right']","[0.9, 0.5, 0.1]","[u'high', u'medium', u'low']","blue",49,"left","high","True","False",478,2400,NA
"A2C6HMH2FDM2CI","Thu Jan 30 2020 08:28:41 GMT-0500 (Eastern Standard Time)","Thu Jan 30 2020 08:39:02 GMT-0500 (Eastern Standard Time)","Mozilla/5.0 (X11; Linux x86_64) AppleWebKit/537.36 (KHTML, like Gecko) Ubuntu Chromium/79.0.3945.79 Chrome/79.0.3945.79 Safari/537.36",34,"[0.9, 0.5, 0.1]","[0.8, 0.4, 0.2]","[u'blue', u'black', u'red']","[u'left', u'middle', u'right']","[0.9, 0.5, 0.1]","[u'high', u'medium', u'low']","blue",49,"left","high","True","False",574,2500,NA
"A2C6HMH2FDM2CI","Thu Jan 30 2020 08:28:41 GMT-0500 (Eastern Standard Time)","Thu Jan 30 2020 08:39:02 GMT-0500 (Eastern Standard Time)","Mozilla/5.0 (X11; Linux x86_64) AppleWebKit/537.36 (KHTML, like Gecko) Ubuntu Chromium/79.0.3945.79 Chrome/79.0.3945.79 Safari/537.36",35,"[0.9, 0.5, 0.1]","[0.8, 0.4, 0.2]","[u'blue', u'black', u'red']","[u'left', u'middle', u'right']","[0.9, 0.5, 0.1]","[u'high', u'medium', u'low']","blue",49,"left","high","False","False",484,2450,NA
"A2C6HMH2FDM2CI","Thu Jan 30 2020 08:28:41 GMT-0500 (Eastern Standard Time)","Thu Jan 30 2020 08:39:02 GMT-0500 (Eastern Standard Time)","Mozilla/5.0 (X11; Linux x86_64) AppleWebKit/537.36 (KHTML, like Gecko) Ubuntu Chromium/79.0.3945.79 Chrome/79.0.3945.79 Safari/537.36",36,"[0.9, 0.5, 0.1]","[0.8, 0.4, 0.2]","[u'blue', u'black', u'red']","[u'left', u'middle', u'right']","[0.9, 0.5, 0.1]","[u'high', u'medium', u'low']","red",51,"right","low","False","False",715,2400,NA
"A2C6HMH2FDM2CI","Thu Jan 30 2020 08:28:41 GMT-0500 (Eastern Standard Time)","Thu Jan 30 2020 08:39:02 GMT-0500 (Eastern Standard Time)","Mozilla/5.0 (X11; Linux x86_64) AppleWebKit/537.36 (KHTML, like Gecko) Ubuntu Chromium/79.0.3945.79 Chrome/79.0.3945.79 Safari/537.36",37,"[0.9, 0.5, 0.1]","[0.8, 0.4, 0.2]","[u'blue', u'black', u'red']","[u'left', u'middle', u'right']","[0.9, 0.5, 0.1]","[u'high', u'medium', u'low']","black",50,"middle","medium","True","False",524,2500,NA
"A2C6HMH2FDM2CI","Thu Jan 30 2020 08:28:41 GMT-0500 (Eastern Standard Time)","Thu Jan 30 2020 08:39:02 GMT-0500 (Eastern Standard Time)","Mozilla/5.0 (X11; Linux x86_64) AppleWebKit/537.36 (KHTML, like Gecko) Ubuntu Chromium/79.0.3945.79 Chrome/79.0.3945.79 Safari/537.36",38,"[0.9, 0.5, 0.1]","[0.8, 0.4, 0.2]","[u'blue', u'black', u'red']","[u'left', u'middle', u'right']","[0.9, 0.5, 0.1]","[u'high', u'medium', u'low']","black",50,"middle","medium","True","False",494,2600,NA
"A2C6HMH2FDM2CI","Thu Jan 30 2020 08:28:41 GMT-0500 (Eastern Standard Time)","Thu Jan 30 2020 08:39:02 GMT-0500 (Eastern Standard Time)","Mozilla/5.0 (X11; Linux x86_64) AppleWebKit/537.36 (KHTML, like Gecko) Ubuntu Chromium/79.0.3945.79 Chrome/79.0.3945.79 Safari/537.36",39,"[0.9, 0.5, 0.1]","[0.8, 0.4, 0.2]","[u'blue', u'black', u'red']","[u'left', u'middle', u'right']","[0.9, 0.5, 0.1]","[u'high', u'medium', u'low']","black",50,"middle","medium","True","False",633,2700,NA
"A2C6HMH2FDM2CI","Thu Jan 30 2020 08:28:41 GMT-0500 (Eastern Standard Time)","Thu Jan 30 2020 08:39:02 GMT-0500 (Eastern Standard Time)","Mozilla/5.0 (X11; Linux x86_64) AppleWebKit/537.36 (KHTML, like Gecko) Ubuntu Chromium/79.0.3945.79 Chrome/79.0.3945.79 Safari/537.36",40,"[0.9, 0.5, 0.1]","[0.8, 0.4, 0.2]","[u'blue', u'black', u'red']","[u'left', u'middle', u'right']","[0.9, 0.5, 0.1]","[u'high', u'medium', u'low']","black",50,"middle","medium","False","False",491,2650,NA
"A2C6HMH2FDM2CI","Thu Jan 30 2020 08:28:41 GMT-0500 (Eastern Standard Time)","Thu Jan 30 2020 08:39:02 GMT-0500 (Eastern Standard Time)","Mozilla/5.0 (X11; Linux x86_64) AppleWebKit/537.36 (KHTML, like Gecko) Ubuntu Chromium/79.0.3945.79 Chrome/79.0.3945.79 Safari/537.36",41,"[0.9, 0.5, 0.1]","[0.8, 0.4, 0.2]","[u'blue', u'black', u'red']","[u'left', u'middle', u'right']","[0.9, 0.5, 0.1]","[u'medium', u'high', u'low']","red",51,"right","low","False","False",1291,2600,NA
"A2C6HMH2FDM2CI","Thu Jan 30 2020 08:28:41 GMT-0500 (Eastern Standard Time)","Thu Jan 30 2020 08:39:02 GMT-0500 (Eastern Standard Time)","Mozilla/5.0 (X11; Linux x86_64) AppleWebKit/537.36 (KHTML, like Gecko) Ubuntu Chromium/79.0.3945.79 Chrome/79.0.3945.79 Safari/537.36",42,"[0.9, 0.5, 0.1]","[0.8, 0.4, 0.2]","[u'blue', u'black', u'red']","[u'left', u'middle', u'right']","[0.9, 0.5, 0.1]","[u'medium', u'high', u'low']","blue",49,"left","medium","True","False",981,2700,NA
"A2C6HMH2FDM2CI","Thu Jan 30 2020 08:28:41 GMT-0500 (Eastern Standard Time)","Thu Jan 30 2020 08:39:02 GMT-0500 (Eastern Standard Time)","Mozilla/5.0 (X11; Linux x86_64) AppleWebKit/537.36 (KHTML, like Gecko) Ubuntu Chromium/79.0.3945.79 Chrome/79.0.3945.79 Safari/537.36",43,"[0.9, 0.5, 0.1]","[0.8, 0.4, 0.2]","[u'blue', u'black', u'red']","[u'left', u'middle', u'right']","[0.9, 0.5, 0.1]","[u'medium', u'high', u'low']","blue",49,"left","medium","True","False",446,2800,NA
"A2C6HMH2FDM2CI","Thu Jan 30 2020 08:28:41 GMT-0500 (Eastern Standard Time)","Thu Jan 30 2020 08:39:02 GMT-0500 (Eastern Standard Time)","Mozilla/5.0 (X11; Linux x86_64) AppleWebKit/537.36 (KHTML, like Gecko) Ubuntu Chromium/79.0.3945.79 Chrome/79.0.3945.79 Safari/537.36",44,"[0.9, 0.5, 0.1]","[0.8, 0.4, 0.2]","[u'blue', u'black', u'red']","[u'left', u'middle', u'right']","[0.9, 0.5, 0.1]","[u'medium', u'high', u'low']","blue",49,"left","medium","False","False",543,2750,NA
"A2C6HMH2FDM2CI","Thu Jan 30 2020 08:28:41 GMT-0500 (Eastern Standard Time)","Thu Jan 30 2020 08:39:02 GMT-0500 (Eastern Standard Time)","Mozilla/5.0 (X11; Linux x86_64) AppleWebKit/537.36 (KHTML, like Gecko) Ubuntu Chromium/79.0.3945.79 Chrome/79.0.3945.79 Safari/537.36",45,"[0.9, 0.5, 0.1]","[0.8, 0.4, 0.2]","[u'blue', u'black', u'red']","[u'left', u'middle', u'right']","[0.9, 0.5, 0.1]","[u'medium', u'high', u'low']","black",50,"middle","high","True","False",513,2850,NA
"A2C6HMH2FDM2CI","Thu Jan 30 2020 08:28:41 GMT-0500 (Eastern Standard Time)","Thu Jan 30 2020 08:39:02 GMT-0500 (Eastern Standard Time)","Mozilla/5.0 (X11; Linux x86_64) AppleWebKit/537.36 (KHTML, like Gecko) Ubuntu Chromium/79.0.3945.79 Chrome/79.0.3945.79 Safari/537.36",46,"[0.9, 0.5, 0.1]","[0.8, 0.4, 0.2]","[u'blue', u'black', u'red']","[u'left', u'middle', u'right']","[0.9, 0.5, 0.1]","[u'medium', u'high', u'low']","black",50,"middle","high","True","False",454,2950,NA
"A2C6HMH2FDM2CI","Thu Jan 30 2020 08:28:41 GMT-0500 (Eastern Standard Time)","Thu Jan 30 2020 08:39:02 GMT-0500 (Eastern Standard Time)","Mozilla/5.0 (X11; Linux x86_64) AppleWebKit/537.36 (KHTML, like Gecko) Ubuntu Chromium/79.0.3945.79 Chrome/79.0.3945.79 Safari/537.36",47,"[0.9, 0.5, 0.1]","[0.8, 0.4, 0.2]","[u'blue', u'black', u'red']","[u'left', u'middle', u'right']","[0.9, 0.5, 0.1]","[u'medium', u'high', u'low']","black",50,"middle","high","True","False",472,3050,NA
"A2C6HMH2FDM2CI","Thu Jan 30 2020 08:28:41 GMT-0500 (Eastern Standard Time)","Thu Jan 30 2020 08:39:02 GMT-0500 (Eastern Standard Time)","Mozilla/5.0 (X11; Linux x86_64) AppleWebKit/537.36 (KHTML, like Gecko) Ubuntu Chromium/79.0.3945.79 Chrome/79.0.3945.79 Safari/537.36",48,"[0.9, 0.5, 0.1]","[0.8, 0.4, 0.2]","[u'blue', u'black', u'red']","[u'left', u'middle', u'right']","[0.9, 0.5, 0.1]","[u'medium', u'high', u'low']","black",50,"middle","high","True","False",492,3150,NA
"A2C6HMH2FDM2CI","Thu Jan 30 2020 08:28:41 GMT-0500 (Eastern Standard Time)","Thu Jan 30 2020 08:39:02 GMT-0500 (Eastern Standard Time)","Mozilla/5.0 (X11; Linux x86_64) AppleWebKit/537.36 (KHTML, like Gecko) Ubuntu Chromium/79.0.3945.79 Chrome/79.0.3945.79 Safari/537.36",49,"[0.9, 0.5, 0.1]","[0.8, 0.4, 0.2]","[u'blue', u'black', u'red']","[u'left', u'middle', u'right']","[0.9, 0.5, 0.1]","[u'medium', u'high', u'low']","black",50,"middle","high","True","False",603,3250,NA
"A2C6HMH2FDM2CI","Thu Jan 30 2020 08:28:41 GMT-0500 (Eastern Standard Time)","Thu Jan 30 2020 08:39:02 GMT-0500 (Eastern Standard Time)","Mozilla/5.0 (X11; Linux x86_64) AppleWebKit/537.36 (KHTML, like Gecko) Ubuntu Chromium/79.0.3945.79 Chrome/79.0.3945.79 Safari/537.36",50,"[0.9, 0.5, 0.1]","[0.8, 0.4, 0.2]","[u'blue', u'black', u'red']","[u'left', u'middle', u'right']","[0.9, 0.5, 0.1]","[u'medium', u'high', u'low']","black",50,"middle","high","True","False",505,3350,NA
"A2C6HMH2FDM2CI","Thu Jan 30 2020 08:28:41 GMT-0500 (Eastern Standard Time)","Thu Jan 30 2020 08:39:02 GMT-0500 (Eastern Standard Time)","Mozilla/5.0 (X11; Linux x86_64) AppleWebKit/537.36 (KHTML, like Gecko) Ubuntu Chromium/79.0.3945.79 Chrome/79.0.3945.79 Safari/537.36",51,"[0.9, 0.5, 0.1]","[0.8, 0.4, 0.2]","[u'blue', u'black', u'red']","[u'left', u'middle', u'right']","[0.9, 0.5, 0.1]","[u'medium', u'high', u'low']","black",50,"middle","high","True","False",574,3450,NA
"A2C6HMH2FDM2CI","Thu Jan 30 2020 08:28:41 GMT-0500 (Eastern Standard Time)","Thu Jan 30 2020 08:39:02 GMT-0500 (Eastern Standard Time)","Mozilla/5.0 (X11; Linux x86_64) AppleWebKit/537.36 (KHTML, like Gecko) Ubuntu Chromium/79.0.3945.79 Chrome/79.0.3945.79 Safari/537.36",52,"[0.9, 0.5, 0.1]","[0.8, 0.4, 0.2]","[u'blue', u'black', u'red']","[u'left', u'middle', u'right']","[0.9, 0.5, 0.1]","[u'medium', u'high', u'low']","black",50,"middle","high","True","False",504,3550,NA
"A2C6HMH2FDM2CI","Thu Jan 30 2020 08:28:41 GMT-0500 (Eastern Standard Time)","Thu Jan 30 2020 08:39:02 GMT-0500 (Eastern Standard Time)","Mozilla/5.0 (X11; Linux x86_64) AppleWebKit/537.36 (KHTML, like Gecko) Ubuntu Chromium/79.0.3945.79 Chrome/79.0.3945.79 Safari/537.36",53,"[0.9, 0.5, 0.1]","[0.8, 0.4, 0.2]","[u'blue', u'black', u'red']","[u'left', u'middle', u'right']","[0.9, 0.5, 0.1]","[u'medium', u'high', u'low']","black",50,"middle","high","True","True",535,3650,NA
"A2C6HMH2FDM2CI","Thu Jan 30 2020 08:28:41 GMT-0500 (Eastern Standard Time)","Thu Jan 30 2020 08:39:02 GMT-0500 (Eastern Standard Time)","Mozilla/5.0 (X11; Linux x86_64) AppleWebKit/537.36 (KHTML, like Gecko) Ubuntu Chromium/79.0.3945.79 Chrome/79.0.3945.79 Safari/537.36",54,"[0.9, 0.5, 0.1]","[0.8, 0.4, 0.2]","[u'blue', u'black', u'red']","[u'left', u'middle', u'right']","[0.9, 0.5, 0.1]","[u'high', u'low', u'medium']","black",50,"middle","low","False","False",358,3600,NA
"A2C6HMH2FDM2CI","Thu Jan 30 2020 08:28:41 GMT-0500 (Eastern Standard Time)","Thu Jan 30 2020 08:39:02 GMT-0500 (Eastern Standard Time)","Mozilla/5.0 (X11; Linux x86_64) AppleWebKit/537.36 (KHTML, like Gecko) Ubuntu Chromium/79.0.3945.79 Chrome/79.0.3945.79 Safari/537.36",55,"[0.9, 0.5, 0.1]","[0.8, 0.4, 0.2]","[u'blue', u'black', u'red']","[u'left', u'middle', u'right']","[0.9, 0.5, 0.1]","[u'high', u'low', u'medium']","red",51,"right","medium","False","False",485,3550,NA
"A2C6HMH2FDM2CI","Thu Jan 30 2020 08:28:41 GMT-0500 (Eastern Standard Time)","Thu Jan 30 2020 08:39:02 GMT-0500 (Eastern Standard Time)","Mozilla/5.0 (X11; Linux x86_64) AppleWebKit/537.36 (KHTML, like Gecko) Ubuntu Chromium/79.0.3945.79 Chrome/79.0.3945.79 Safari/537.36",56,"[0.9, 0.5, 0.1]","[0.8, 0.4, 0.2]","[u'blue', u'black', u'red']","[u'left', u'middle', u'right']","[0.9, 0.5, 0.1]","[u'high', u'low', u'medium']","blue",49,"left","high","True","False",591,3650,NA
"A2C6HMH2FDM2CI","Thu Jan 30 2020 08:28:41 GMT-0500 (Eastern Standard Time)","Thu Jan 30 2020 08:39:02 GMT-0500 (Eastern Standard Time)","Mozilla/5.0 (X11; Linux x86_64) AppleWebKit/537.36 (KHTML, like Gecko) Ubuntu Chromium/79.0.3945.79 Chrome/79.0.3945.79 Safari/537.36",57,"[0.9, 0.5, 0.1]","[0.8, 0.4, 0.2]","[u'blue', u'black', u'red']","[u'left', u'middle', u'right']","[0.9, 0.5, 0.1]","[u'high', u'low', u'medium']","blue",49,"left","high","True","False",474,3750,NA
"A2C6HMH2FDM2CI","Thu Jan 30 2020 08:28:41 GMT-0500 (Eastern Standard Time)","Thu Jan 30 2020 08:39:02 GMT-0500 (Eastern Standard Time)","Mozilla/5.0 (X11; Linux x86_64) AppleWebKit/537.36 (KHTML, like Gecko) Ubuntu Chromium/79.0.3945.79 Chrome/79.0.3945.79 Safari/537.36",58,"[0.9, 0.5, 0.1]","[0.8, 0.4, 0.2]","[u'blue', u'black', u'red']","[u'left', u'middle', u'right']","[0.9, 0.5, 0.1]","[u'high', u'low', u'medium']","blue",49,"left","high","True","False",561,3850,NA
"A2C6HMH2FDM2CI","Thu Jan 30 2020 08:28:41 GMT-0500 (Eastern Standard Time)","Thu Jan 30 2020 08:39:02 GMT-0500 (Eastern Standard Time)","Mozilla/5.0 (X11; Linux x86_64) AppleWebKit/537.36 (KHTML, like Gecko) Ubuntu Chromium/79.0.3945.79 Chrome/79.0.3945.79 Safari/537.36",59,"[0.9, 0.5, 0.1]","[0.8, 0.4, 0.2]","[u'blue', u'black', u'red']","[u'left', u'middle', u'right']","[0.9, 0.5, 0.1]","[u'high', u'low', u'medium']","blue",49,"left","high","True","False",512,3950,NA
"A2C6HMH2FDM2CI","Thu Jan 30 2020 08:28:41 GMT-0500 (Eastern Standard Time)","Thu Jan 30 2020 08:39:02 GMT-0500 (Eastern Standard Time)","Mozilla/5.0 (X11; Linux x86_64) AppleWebKit/537.36 (KHTML, like Gecko) Ubuntu Chromium/79.0.3945.79 Chrome/79.0.3945.79 Safari/537.36",60,"[0.9, 0.5, 0.1]","[0.8, 0.4, 0.2]","[u'blue', u'black', u'red']","[u'left', u'middle', u'right']","[0.9, 0.5, 0.1]","[u'high', u'low', u'medium']","blue",49,"left","high","True","False",472,4050,NA
"A2C6HMH2FDM2CI","Thu Jan 30 2020 08:28:41 GMT-0500 (Eastern Standard Time)","Thu Jan 30 2020 08:39:02 GMT-0500 (Eastern Standard Time)","Mozilla/5.0 (X11; Linux x86_64) AppleWebKit/537.36 (KHTML, like Gecko) Ubuntu Chromium/79.0.3945.79 Chrome/79.0.3945.79 Safari/537.36",61,"[0.9, 0.5, 0.1]","[0.8, 0.4, 0.2]","[u'blue', u'black', u'red']","[u'left', u'middle', u'right']","[0.9, 0.5, 0.1]","[u'high', u'low', u'medium']","blue",49,"left","high","True","False",433,4150,NA
"A2C6HMH2FDM2CI","Thu Jan 30 2020 08:28:41 GMT-0500 (Eastern Standard Time)","Thu Jan 30 2020 08:39:02 GMT-0500 (Eastern Standard Time)","Mozilla/5.0 (X11; Linux x86_64) AppleWebKit/537.36 (KHTML, like Gecko) Ubuntu Chromium/79.0.3945.79 Chrome/79.0.3945.79 Safari/537.36",62,"[0.9, 0.5, 0.1]","[0.8, 0.4, 0.2]","[u'blue', u'black', u'red']","[u'left', u'middle', u'right']","[0.9, 0.5, 0.1]","[u'high', u'low', u'medium']","blue",49,"left","high","True","False",467,4250,NA
"A2C6HMH2FDM2CI","Thu Jan 30 2020 08:28:41 GMT-0500 (Eastern Standard Time)","Thu Jan 30 2020 08:39:02 GMT-0500 (Eastern Standard Time)","Mozilla/5.0 (X11; Linux x86_64) AppleWebKit/537.36 (KHTML, like Gecko) Ubuntu Chromium/79.0.3945.79 Chrome/79.0.3945.79 Safari/537.36",63,"[0.9, 0.5, 0.1]","[0.8, 0.4, 0.2]","[u'blue', u'black', u'red']","[u'left', u'middle', u'right']","[0.9, 0.5, 0.1]","[u'high', u'low', u'medium']","blue",49,"left","high","True","False",533,4350,NA
"A2C6HMH2FDM2CI","Thu Jan 30 2020 08:28:41 GMT-0500 (Eastern Standard Time)","Thu Jan 30 2020 08:39:02 GMT-0500 (Eastern Standard Time)","Mozilla/5.0 (X11; Linux x86_64) AppleWebKit/537.36 (KHTML, like Gecko) Ubuntu Chromium/79.0.3945.79 Chrome/79.0.3945.79 Safari/537.36",64,"[0.9, 0.5, 0.1]","[0.8, 0.4, 0.2]","[u'blue', u'black', u'red']","[u'left', u'middle', u'right']","[0.9, 0.5, 0.1]","[u'high', u'low', u'medium']","blue",49,"left","high","True","True",762,4450,NA
"A2C6HMH2FDM2CI","Thu Jan 30 2020 08:28:41 GMT-0500 (Eastern Standard Time)","Thu Jan 30 2020 08:39:02 GMT-0500 (Eastern Standard Time)","Mozilla/5.0 (X11; Linux x86_64) AppleWebKit/537.36 (KHTML, like Gecko) Ubuntu Chromium/79.0.3945.79 Chrome/79.0.3945.79 Safari/537.36",65,"[0.9, 0.5, 0.1]","[0.8, 0.4, 0.2]","[u'blue', u'black', u'red']","[u'left', u'middle', u'right']","[0.9, 0.5, 0.1]","[u'low', u'high', u'medium']","blue",49,"left","low","False","False",389,4400,NA
"A2C6HMH2FDM2CI","Thu Jan 30 2020 08:28:41 GMT-0500 (Eastern Standard Time)","Thu Jan 30 2020 08:39:02 GMT-0500 (Eastern Standard Time)","Mozilla/5.0 (X11; Linux x86_64) AppleWebKit/537.36 (KHTML, like Gecko) Ubuntu Chromium/79.0.3945.79 Chrome/79.0.3945.79 Safari/537.36",66,"[0.9, 0.5, 0.1]","[0.8, 0.4, 0.2]","[u'blue', u'black', u'red']","[u'left', u'middle', u'right']","[0.9, 0.5, 0.1]","[u'low', u'high', u'medium']","red",51,"right","medium","True","False",611,4500,NA
"A2C6HMH2FDM2CI","Thu Jan 30 2020 08:28:41 GMT-0500 (Eastern Standard Time)","Thu Jan 30 2020 08:39:02 GMT-0500 (Eastern Standard Time)","Mozilla/5.0 (X11; Linux x86_64) AppleWebKit/537.36 (KHTML, like Gecko) Ubuntu Chromium/79.0.3945.79 Chrome/79.0.3945.79 Safari/537.36",67,"[0.9, 0.5, 0.1]","[0.8, 0.4, 0.2]","[u'blue', u'black', u'red']","[u'left', u'middle', u'right']","[0.9, 0.5, 0.1]","[u'low', u'high', u'medium']","red",51,"right","medium","True","False",748,4600,NA
"A2C6HMH2FDM2CI","Thu Jan 30 2020 08:28:41 GMT-0500 (Eastern Standard Time)","Thu Jan 30 2020 08:39:02 GMT-0500 (Eastern Standard Time)","Mozilla/5.0 (X11; Linux x86_64) AppleWebKit/537.36 (KHTML, like Gecko) Ubuntu Chromium/79.0.3945.79 Chrome/79.0.3945.79 Safari/537.36",68,"[0.9, 0.5, 0.1]","[0.8, 0.4, 0.2]","[u'blue', u'black', u'red']","[u'left', u'middle', u'right']","[0.9, 0.5, 0.1]","[u'low', u'high', u'medium']","red",51,"right","medium","False","False",458,4550,NA
"A2C6HMH2FDM2CI","Thu Jan 30 2020 08:28:41 GMT-0500 (Eastern Standard Time)","Thu Jan 30 2020 08:39:02 GMT-0500 (Eastern Standard Time)","Mozilla/5.0 (X11; Linux x86_64) AppleWebKit/537.36 (KHTML, like Gecko) Ubuntu Chromium/79.0.3945.79 Chrome/79.0.3945.79 Safari/537.36",69,"[0.9, 0.5, 0.1]","[0.8, 0.4, 0.2]","[u'blue', u'black', u'red']","[u'left', u'middle', u'right']","[0.9, 0.5, 0.1]","[u'low', u'high', u'medium']","black",50,"middle","high","True","False",533,4650,NA
"A2C6HMH2FDM2CI","Thu Jan 30 2020 08:28:41 GMT-0500 (Eastern Standard Time)","Thu Jan 30 2020 08:39:02 GMT-0500 (Eastern Standard Time)","Mozilla/5.0 (X11; Linux x86_64) AppleWebKit/537.36 (KHTML, like Gecko) Ubuntu Chromium/79.0.3945.79 Chrome/79.0.3945.79 Safari/537.36",70,"[0.9, 0.5, 0.1]","[0.8, 0.4, 0.2]","[u'blue', u'black', u'red']","[u'left', u'middle', u'right']","[0.9, 0.5, 0.1]","[u'low', u'high', u'medium']","black",50,"middle","high","True","False",479,4750,NA
"A2C6HMH2FDM2CI","Thu Jan 30 2020 08:28:41 GMT-0500 (Eastern Standard Time)","Thu Jan 30 2020 08:39:02 GMT-0500 (Eastern Standard Time)","Mozilla/5.0 (X11; Linux x86_64) AppleWebKit/537.36 (KHTML, like Gecko) Ubuntu Chromium/79.0.3945.79 Chrome/79.0.3945.79 Safari/537.36",71,"[0.9, 0.5, 0.1]","[0.8, 0.4, 0.2]","[u'blue', u'black', u'red']","[u'left', u'middle', u'right']","[0.9, 0.5, 0.1]","[u'low', u'high', u'medium']","black",50,"middle","high","True","False",436,4850,NA
"A2C6HMH2FDM2CI","Thu Jan 30 2020 08:28:41 GMT-0500 (Eastern Standard Time)","Thu Jan 30 2020 08:39:02 GMT-0500 (Eastern Standard Time)","Mozilla/5.0 (X11; Linux x86_64) AppleWebKit/537.36 (KHTML, like Gecko) Ubuntu Chromium/79.0.3945.79 Chrome/79.0.3945.79 Safari/537.36",72,"[0.9, 0.5, 0.1]","[0.8, 0.4, 0.2]","[u'blue', u'black', u'red']","[u'left', u'middle', u'right']","[0.9, 0.5, 0.1]","[u'low', u'high', u'medium']","black",50,"middle","high","True","False",507,4950,NA
"A2C6HMH2FDM2CI","Thu Jan 30 2020 08:28:41 GMT-0500 (Eastern Standard Time)","Thu Jan 30 2020 08:39:02 GMT-0500 (Eastern Standard Time)","Mozilla/5.0 (X11; Linux x86_64) AppleWebKit/537.36 (KHTML, like Gecko) Ubuntu Chromium/79.0.3945.79 Chrome/79.0.3945.79 Safari/537.36",73,"[0.9, 0.5, 0.1]","[0.8, 0.4, 0.2]","[u'blue', u'black', u'red']","[u'left', u'middle', u'right']","[0.9, 0.5, 0.1]","[u'low', u'high', u'medium']","black",50,"middle","high","True","False",478,5050,NA
"A2C6HMH2FDM2CI","Thu Jan 30 2020 08:28:41 GMT-0500 (Eastern Standard Time)","Thu Jan 30 2020 08:39:02 GMT-0500 (Eastern Standard Time)","Mozilla/5.0 (X11; Linux x86_64) AppleWebKit/537.36 (KHTML, like Gecko) Ubuntu Chromium/79.0.3945.79 Chrome/79.0.3945.79 Safari/537.36",74,"[0.9, 0.5, 0.1]","[0.8, 0.4, 0.2]","[u'blue', u'black', u'red']","[u'left', u'middle', u'right']","[0.9, 0.5, 0.1]","[u'low', u'high', u'medium']","black",50,"middle","high","True","False",656,5150,NA
"A2C6HMH2FDM2CI","Thu Jan 30 2020 08:28:41 GMT-0500 (Eastern Standard Time)","Thu Jan 30 2020 08:39:02 GMT-0500 (Eastern Standard Time)","Mozilla/5.0 (X11; Linux x86_64) AppleWebKit/537.36 (KHTML, like Gecko) Ubuntu Chromium/79.0.3945.79 Chrome/79.0.3945.79 Safari/537.36",75,"[0.9, 0.5, 0.1]","[0.8, 0.4, 0.2]","[u'blue', u'black', u'red']","[u'left', u'middle', u'right']","[0.9, 0.5, 0.1]","[u'low', u'high', u'medium']","black",50,"middle","high","True","False",468,5250,NA
"A2C6HMH2FDM2CI","Thu Jan 30 2020 08:28:41 GMT-0500 (Eastern Standard Time)","Thu Jan 30 2020 08:39:02 GMT-0500 (Eastern Standard Time)","Mozilla/5.0 (X11; Linux x86_64) AppleWebKit/537.36 (KHTML, like Gecko) Ubuntu Chromium/79.0.3945.79 Chrome/79.0.3945.79 Safari/537.36",76,"[0.9, 0.5, 0.1]","[0.8, 0.4, 0.2]","[u'blue', u'black', u'red']","[u'left', u'middle', u'right']","[0.9, 0.5, 0.1]","[u'low', u'high', u'medium']","black",50,"middle","high","True","False",631,5350,NA
"A2C6HMH2FDM2CI","Thu Jan 30 2020 08:28:41 GMT-0500 (Eastern Standard Time)","Thu Jan 30 2020 08:39:02 GMT-0500 (Eastern Standard Time)","Mozilla/5.0 (X11; Linux x86_64) AppleWebKit/537.36 (KHTML, like Gecko) Ubuntu Chromium/79.0.3945.79 Chrome/79.0.3945.79 Safari/537.36",77,"[0.9, 0.5, 0.1]","[0.8, 0.4, 0.2]","[u'blue', u'black', u'red']","[u'left', u'middle', u'right']","[0.9, 0.5, 0.1]","[u'low', u'high', u'medium']","black",50,"middle","high","True","True",627,5450,NA
"A2C6HMH2FDM2CI","Thu Jan 30 2020 08:28:41 GMT-0500 (Eastern Standard Time)","Thu Jan 30 2020 08:39:02 GMT-0500 (Eastern Standard Time)","Mozilla/5.0 (X11; Linux x86_64) AppleWebKit/537.36 (KHTML, like Gecko) Ubuntu Chromium/79.0.3945.79 Chrome/79.0.3945.79 Safari/537.36",78,"[0.9, 0.5, 0.1]","[0.8, 0.4, 0.2]","[u'blue', u'black', u'red']","[u'left', u'middle', u'right']","[0.9, 0.5, 0.1]","[u'low', u'medium', u'high']","black",50,"middle","medium","True","False",631,5550,NA
"A2C6HMH2FDM2CI","Thu Jan 30 2020 08:28:41 GMT-0500 (Eastern Standard Time)","Thu Jan 30 2020 08:39:02 GMT-0500 (Eastern Standard Time)","Mozilla/5.0 (X11; Linux x86_64) AppleWebKit/537.36 (KHTML, like Gecko) Ubuntu Chromium/79.0.3945.79 Chrome/79.0.3945.79 Safari/537.36",79,"[0.9, 0.5, 0.1]","[0.8, 0.4, 0.2]","[u'blue', u'black', u'red']","[u'left', u'middle', u'right']","[0.9, 0.5, 0.1]","[u'low', u'medium', u'high']","black",50,"middle","medium","False","False",535,5500,NA
"A2C6HMH2FDM2CI","Thu Jan 30 2020 08:28:41 GMT-0500 (Eastern Standard Time)","Thu Jan 30 2020 08:39:02 GMT-0500 (Eastern Standard Time)","Mozilla/5.0 (X11; Linux x86_64) AppleWebKit/537.36 (KHTML, like Gecko) Ubuntu Chromium/79.0.3945.79 Chrome/79.0.3945.79 Safari/537.36",80,"[0.9, 0.5, 0.1]","[0.8, 0.4, 0.2]","[u'blue', u'black', u'red']","[u'left', u'middle', u'right']","[0.9, 0.5, 0.1]","[u'low', u'medium', u'high']","blue",49,"left","low","True","False",720,5600,NA
"A2C6HMH2FDM2CI","Thu Jan 30 2020 08:28:41 GMT-0500 (Eastern Standard Time)","Thu Jan 30 2020 08:39:02 GMT-0500 (Eastern Standard Time)","Mozilla/5.0 (X11; Linux x86_64) AppleWebKit/537.36 (KHTML, like Gecko) Ubuntu Chromium/79.0.3945.79 Chrome/79.0.3945.79 Safari/537.36",81,"[0.9, 0.5, 0.1]","[0.8, 0.4, 0.2]","[u'blue', u'black', u'red']","[u'left', u'middle', u'right']","[0.8, 0.4, 0.2]","[u'low', u'high', u'medium']","blue",49,"left","low","False","False",1003,5550,NA
"A2C6HMH2FDM2CI","Thu Jan 30 2020 08:28:41 GMT-0500 (Eastern Standard Time)","Thu Jan 30 2020 08:39:02 GMT-0500 (Eastern Standard Time)","Mozilla/5.0 (X11; Linux x86_64) AppleWebKit/537.36 (KHTML, like Gecko) Ubuntu Chromium/79.0.3945.79 Chrome/79.0.3945.79 Safari/537.36",82,"[0.9, 0.5, 0.1]","[0.8, 0.4, 0.2]","[u'blue', u'black', u'red']","[u'left', u'middle', u'right']","[0.8, 0.4, 0.2]","[u'low', u'high', u'medium']","black",50,"middle","high","True","False",625,5650,NA
"A2C6HMH2FDM2CI","Thu Jan 30 2020 08:28:41 GMT-0500 (Eastern Standard Time)","Thu Jan 30 2020 08:39:02 GMT-0500 (Eastern Standard Time)","Mozilla/5.0 (X11; Linux x86_64) AppleWebKit/537.36 (KHTML, like Gecko) Ubuntu Chromium/79.0.3945.79 Chrome/79.0.3945.79 Safari/537.36",83,"[0.9, 0.5, 0.1]","[0.8, 0.4, 0.2]","[u'blue', u'black', u'red']","[u'left', u'middle', u'right']","[0.8, 0.4, 0.2]","[u'low', u'high', u'medium']","black",50,"middle","high","True","False",486,5750,NA
"A2C6HMH2FDM2CI","Thu Jan 30 2020 08:28:41 GMT-0500 (Eastern Standard Time)","Thu Jan 30 2020 08:39:02 GMT-0500 (Eastern Standard Time)","Mozilla/5.0 (X11; Linux x86_64) AppleWebKit/537.36 (KHTML, like Gecko) Ubuntu Chromium/79.0.3945.79 Chrome/79.0.3945.79 Safari/537.36",84,"[0.9, 0.5, 0.1]","[0.8, 0.4, 0.2]","[u'blue', u'black', u'red']","[u'left', u'middle', u'right']","[0.8, 0.4, 0.2]","[u'low', u'high', u'medium']","black",50,"middle","high","True","False",440,5850,NA
"A2C6HMH2FDM2CI","Thu Jan 30 2020 08:28:41 GMT-0500 (Eastern Standard Time)","Thu Jan 30 2020 08:39:02 GMT-0500 (Eastern Standard Time)","Mozilla/5.0 (X11; Linux x86_64) AppleWebKit/537.36 (KHTML, like Gecko) Ubuntu Chromium/79.0.3945.79 Chrome/79.0.3945.79 Safari/537.36",85,"[0.9, 0.5, 0.1]","[0.8, 0.4, 0.2]","[u'blue', u'black', u'red']","[u'left', u'middle', u'right']","[0.8, 0.4, 0.2]","[u'low', u'high', u'medium']","black",50,"middle","high","True","False",394,5950,NA
"A2C6HMH2FDM2CI","Thu Jan 30 2020 08:28:41 GMT-0500 (Eastern Standard Time)","Thu Jan 30 2020 08:39:02 GMT-0500 (Eastern Standard Time)","Mozilla/5.0 (X11; Linux x86_64) AppleWebKit/537.36 (KHTML, like Gecko) Ubuntu Chromium/79.0.3945.79 Chrome/79.0.3945.79 Safari/537.36",86,"[0.9, 0.5, 0.1]","[0.8, 0.4, 0.2]","[u'blue', u'black', u'red']","[u'left', u'middle', u'right']","[0.8, 0.4, 0.2]","[u'low', u'high', u'medium']","black",50,"middle","high","True","False",657,6050,NA
"A2C6HMH2FDM2CI","Thu Jan 30 2020 08:28:41 GMT-0500 (Eastern Standard Time)","Thu Jan 30 2020 08:39:02 GMT-0500 (Eastern Standard Time)","Mozilla/5.0 (X11; Linux x86_64) AppleWebKit/537.36 (KHTML, like Gecko) Ubuntu Chromium/79.0.3945.79 Chrome/79.0.3945.79 Safari/537.36",87,"[0.9, 0.5, 0.1]","[0.8, 0.4, 0.2]","[u'blue', u'black', u'red']","[u'left', u'middle', u'right']","[0.8, 0.4, 0.2]","[u'low', u'high', u'medium']","black",50,"middle","high","True","False",357,6150,NA
"A2C6HMH2FDM2CI","Thu Jan 30 2020 08:28:41 GMT-0500 (Eastern Standard Time)","Thu Jan 30 2020 08:39:02 GMT-0500 (Eastern Standard Time)","Mozilla/5.0 (X11; Linux x86_64) AppleWebKit/537.36 (KHTML, like Gecko) Ubuntu Chromium/79.0.3945.79 Chrome/79.0.3945.79 Safari/537.36",88,"[0.9, 0.5, 0.1]","[0.8, 0.4, 0.2]","[u'blue', u'black', u'red']","[u'left', u'middle', u'right']","[0.8, 0.4, 0.2]","[u'low', u'high', u'medium']","black",50,"middle","high","True","False",579,6250,NA
"A2C6HMH2FDM2CI","Thu Jan 30 2020 08:28:41 GMT-0500 (Eastern Standard Time)","Thu Jan 30 2020 08:39:02 GMT-0500 (Eastern Standard Time)","Mozilla/5.0 (X11; Linux x86_64) AppleWebKit/537.36 (KHTML, like Gecko) Ubuntu Chromium/79.0.3945.79 Chrome/79.0.3945.79 Safari/537.36",89,"[0.9, 0.5, 0.1]","[0.8, 0.4, 0.2]","[u'blue', u'black', u'red']","[u'left', u'middle', u'right']","[0.8, 0.4, 0.2]","[u'low', u'high', u'medium']","black",50,"middle","high","True","False",575,6350,NA
"A2C6HMH2FDM2CI","Thu Jan 30 2020 08:28:41 GMT-0500 (Eastern Standard Time)","Thu Jan 30 2020 08:39:02 GMT-0500 (Eastern Standard Time)","Mozilla/5.0 (X11; Linux x86_64) AppleWebKit/537.36 (KHTML, like Gecko) Ubuntu Chromium/79.0.3945.79 Chrome/79.0.3945.79 Safari/537.36",90,"[0.9, 0.5, 0.1]","[0.8, 0.4, 0.2]","[u'blue', u'black', u'red']","[u'left', u'middle', u'right']","[0.8, 0.4, 0.2]","[u'low', u'high', u'medium']","black",50,"middle","high","True","True",535,6450,NA
"A2C6HMH2FDM2CI","Thu Jan 30 2020 08:28:41 GMT-0500 (Eastern Standard Time)","Thu Jan 30 2020 08:39:02 GMT-0500 (Eastern Standard Time)","Mozilla/5.0 (X11; Linux x86_64) AppleWebKit/537.36 (KHTML, like Gecko) Ubuntu Chromium/79.0.3945.79 Chrome/79.0.3945.79 Safari/537.36",91,"[0.9, 0.5, 0.1]","[0.8, 0.4, 0.2]","[u'blue', u'black', u'red']","[u'left', u'middle', u'right']","[0.8, 0.4, 0.2]","[u'medium', u'low', u'high']","black",50,"middle","low","False","False",472,6400,NA
"A2C6HMH2FDM2CI","Thu Jan 30 2020 08:28:41 GMT-0500 (Eastern Standard Time)","Thu Jan 30 2020 08:39:02 GMT-0500 (Eastern Standard Time)","Mozilla/5.0 (X11; Linux x86_64) AppleWebKit/537.36 (KHTML, like Gecko) Ubuntu Chromium/79.0.3945.79 Chrome/79.0.3945.79 Safari/537.36",92,"[0.9, 0.5, 0.1]","[0.8, 0.4, 0.2]","[u'blue', u'black', u'red']","[u'left', u'middle', u'right']","[0.8, 0.4, 0.2]","[u'medium', u'low', u'high']","blue",49,"left","medium","False","False",676,6350,NA
"A2C6HMH2FDM2CI","Thu Jan 30 2020 08:28:41 GMT-0500 (Eastern Standard Time)","Thu Jan 30 2020 08:39:02 GMT-0500 (Eastern Standard Time)","Mozilla/5.0 (X11; Linux x86_64) AppleWebKit/537.36 (KHTML, like Gecko) Ubuntu Chromium/79.0.3945.79 Chrome/79.0.3945.79 Safari/537.36",93,"[0.9, 0.5, 0.1]","[0.8, 0.4, 0.2]","[u'blue', u'black', u'red']","[u'left', u'middle', u'right']","[0.8, 0.4, 0.2]","[u'medium', u'low', u'high']","red",51,"right","high","True","False",695,6450,NA
"A2C6HMH2FDM2CI","Thu Jan 30 2020 08:28:41 GMT-0500 (Eastern Standard Time)","Thu Jan 30 2020 08:39:02 GMT-0500 (Eastern Standard Time)","Mozilla/5.0 (X11; Linux x86_64) AppleWebKit/537.36 (KHTML, like Gecko) Ubuntu Chromium/79.0.3945.79 Chrome/79.0.3945.79 Safari/537.36",94,"[0.9, 0.5, 0.1]","[0.8, 0.4, 0.2]","[u'blue', u'black', u'red']","[u'left', u'middle', u'right']","[0.8, 0.4, 0.2]","[u'medium', u'low', u'high']","red",51,"right","high","True","False",624,6550,NA
"A2C6HMH2FDM2CI","Thu Jan 30 2020 08:28:41 GMT-0500 (Eastern Standard Time)","Thu Jan 30 2020 08:39:02 GMT-0500 (Eastern Standard Time)","Mozilla/5.0 (X11; Linux x86_64) AppleWebKit/537.36 (KHTML, like Gecko) Ubuntu Chromium/79.0.3945.79 Chrome/79.0.3945.79 Safari/537.36",95,"[0.9, 0.5, 0.1]","[0.8, 0.4, 0.2]","[u'blue', u'black', u'red']","[u'left', u'middle', u'right']","[0.8, 0.4, 0.2]","[u'medium', u'low', u'high']","red",51,"right","high","True","False",814,6650,NA
"A2C6HMH2FDM2CI","Thu Jan 30 2020 08:28:41 GMT-0500 (Eastern Standard Time)","Thu Jan 30 2020 08:39:02 GMT-0500 (Eastern Standard Time)","Mozilla/5.0 (X11; Linux x86_64) AppleWebKit/537.36 (KHTML, like Gecko) Ubuntu Chromium/79.0.3945.79 Chrome/79.0.3945.79 Safari/537.36",96,"[0.9, 0.5, 0.1]","[0.8, 0.4, 0.2]","[u'blue', u'black', u'red']","[u'left', u'middle', u'right']","[0.8, 0.4, 0.2]","[u'medium', u'low', u'high']","red",51,"right","high","True","False",532,6750,NA
"A2C6HMH2FDM2CI","Thu Jan 30 2020 08:28:41 GMT-0500 (Eastern Standard Time)","Thu Jan 30 2020 08:39:02 GMT-0500 (Eastern Standard Time)","Mozilla/5.0 (X11; Linux x86_64) AppleWebKit/537.36 (KHTML, like Gecko) Ubuntu Chromium/79.0.3945.79 Chrome/79.0.3945.79 Safari/537.36",97,"[0.9, 0.5, 0.1]","[0.8, 0.4, 0.2]","[u'blue', u'black', u'red']","[u'left', u'middle', u'right']","[0.8, 0.4, 0.2]","[u'medium', u'low', u'high']","red",51,"right","high","True","False",675,6850,NA
"A2C6HMH2FDM2CI","Thu Jan 30 2020 08:28:41 GMT-0500 (Eastern Standard Time)","Thu Jan 30 2020 08:39:02 GMT-0500 (Eastern Standard Time)","Mozilla/5.0 (X11; Linux x86_64) AppleWebKit/537.36 (KHTML, like Gecko) Ubuntu Chromium/79.0.3945.79 Chrome/79.0.3945.79 Safari/537.36",98,"[0.9, 0.5, 0.1]","[0.8, 0.4, 0.2]","[u'blue', u'black', u'red']","[u'left', u'middle', u'right']","[0.8, 0.4, 0.2]","[u'medium', u'low', u'high']","red",51,"right","high","True","False",746,6950,NA
"A2C6HMH2FDM2CI","Thu Jan 30 2020 08:28:41 GMT-0500 (Eastern Standard Time)","Thu Jan 30 2020 08:39:02 GMT-0500 (Eastern Standard Time)","Mozilla/5.0 (X11; Linux x86_64) AppleWebKit/537.36 (KHTML, like Gecko) Ubuntu Chromium/79.0.3945.79 Chrome/79.0.3945.79 Safari/537.36",99,"[0.9, 0.5, 0.1]","[0.8, 0.4, 0.2]","[u'blue', u'black', u'red']","[u'left', u'middle', u'right']","[0.8, 0.4, 0.2]","[u'medium', u'low', u'high']","red",51,"right","high","True","False",453,7050,NA
"A2C6HMH2FDM2CI","Thu Jan 30 2020 08:28:41 GMT-0500 (Eastern Standard Time)","Thu Jan 30 2020 08:39:02 GMT-0500 (Eastern Standard Time)","Mozilla/5.0 (X11; Linux x86_64) AppleWebKit/537.36 (KHTML, like Gecko) Ubuntu Chromium/79.0.3945.79 Chrome/79.0.3945.79 Safari/537.36",100,"[0.9, 0.5, 0.1]","[0.8, 0.4, 0.2]","[u'blue', u'black', u'red']","[u'left', u'middle', u'right']","[0.8, 0.4, 0.2]","[u'medium', u'low', u'high']","red",51,"right","high","False","False",504,7000,NA
"A2C6HMH2FDM2CI","Thu Jan 30 2020 08:28:41 GMT-0500 (Eastern Standard Time)","Thu Jan 30 2020 08:39:02 GMT-0500 (Eastern Standard Time)","Mozilla/5.0 (X11; Linux x86_64) AppleWebKit/537.36 (KHTML, like Gecko) Ubuntu Chromium/79.0.3945.79 Chrome/79.0.3945.79 Safari/537.36",101,"[0.9, 0.5, 0.1]","[0.8, 0.4, 0.2]","[u'blue', u'black', u'red']","[u'left', u'middle', u'right']","[0.8, 0.4, 0.2]","[u'medium', u'low', u'high']","blue",49,"left","medium","False","False",402,6950,NA
"A2C6HMH2FDM2CI","Thu Jan 30 2020 08:28:41 GMT-0500 (Eastern Standard Time)","Thu Jan 30 2020 08:39:02 GMT-0500 (Eastern Standard Time)","Mozilla/5.0 (X11; Linux x86_64) AppleWebKit/537.36 (KHTML, like Gecko) Ubuntu Chromium/79.0.3945.79 Chrome/79.0.3945.79 Safari/537.36",102,"[0.9, 0.5, 0.1]","[0.8, 0.4, 0.2]","[u'blue', u'black', u'red']","[u'left', u'middle', u'right']","[0.8, 0.4, 0.2]","[u'medium', u'low', u'high']","black",50,"middle","low","False","False",423,6900,NA
"A2C6HMH2FDM2CI","Thu Jan 30 2020 08:28:41 GMT-0500 (Eastern Standard Time)","Thu Jan 30 2020 08:39:02 GMT-0500 (Eastern Standard Time)","Mozilla/5.0 (X11; Linux x86_64) AppleWebKit/537.36 (KHTML, like Gecko) Ubuntu Chromium/79.0.3945.79 Chrome/79.0.3945.79 Safari/537.36",103,"[0.9, 0.5, 0.1]","[0.8, 0.4, 0.2]","[u'blue', u'black', u'red']","[u'left', u'middle', u'right']","[0.8, 0.4, 0.2]","[u'medium', u'low', u'high']","red",51,"right","high","True","False",762,7000,NA
"A2C6HMH2FDM2CI","Thu Jan 30 2020 08:28:41 GMT-0500 (Eastern Standard Time)","Thu Jan 30 2020 08:39:02 GMT-0500 (Eastern Standard Time)","Mozilla/5.0 (X11; Linux x86_64) AppleWebKit/537.36 (KHTML, like Gecko) Ubuntu Chromium/79.0.3945.79 Chrome/79.0.3945.79 Safari/537.36",104,"[0.9, 0.5, 0.1]","[0.8, 0.4, 0.2]","[u'blue', u'black', u'red']","[u'left', u'middle', u'right']","[0.8, 0.4, 0.2]","[u'medium', u'low', u'high']","red",51,"right","high","True","False",594,7100,NA
"A2C6HMH2FDM2CI","Thu Jan 30 2020 08:28:41 GMT-0500 (Eastern Standard Time)","Thu Jan 30 2020 08:39:02 GMT-0500 (Eastern Standard Time)","Mozilla/5.0 (X11; Linux x86_64) AppleWebKit/537.36 (KHTML, like Gecko) Ubuntu Chromium/79.0.3945.79 Chrome/79.0.3945.79 Safari/537.36",105,"[0.9, 0.5, 0.1]","[0.8, 0.4, 0.2]","[u'blue', u'black', u'red']","[u'left', u'middle', u'right']","[0.8, 0.4, 0.2]","[u'medium', u'low', u'high']","red",51,"right","high","False","False",608,7050,NA
"A2C6HMH2FDM2CI","Thu Jan 30 2020 08:28:41 GMT-0500 (Eastern Standard Time)","Thu Jan 30 2020 08:39:02 GMT-0500 (Eastern Standard Time)","Mozilla/5.0 (X11; Linux x86_64) AppleWebKit/537.36 (KHTML, like Gecko) Ubuntu Chromium/79.0.3945.79 Chrome/79.0.3945.79 Safari/537.36",106,"[0.9, 0.5, 0.1]","[0.8, 0.4, 0.2]","[u'blue', u'black', u'red']","[u'left', u'middle', u'right']","[0.8, 0.4, 0.2]","[u'medium', u'low', u'high']","black",50,"middle","low","False","False",188,7000,NA
"A2C6HMH2FDM2CI","Thu Jan 30 2020 08:28:41 GMT-0500 (Eastern Standard Time)","Thu Jan 30 2020 08:39:02 GMT-0500 (Eastern Standard Time)","Mozilla/5.0 (X11; Linux x86_64) AppleWebKit/537.36 (KHTML, like Gecko) Ubuntu Chromium/79.0.3945.79 Chrome/79.0.3945.79 Safari/537.36",107,"[0.9, 0.5, 0.1]","[0.8, 0.4, 0.2]","[u'blue', u'black', u'red']","[u'left', u'middle', u'right']","[0.8, 0.4, 0.2]","[u'medium', u'low', u'high']","blue",49,"left","medium","False","False",912,6950,NA
"A2C6HMH2FDM2CI","Thu Jan 30 2020 08:28:41 GMT-0500 (Eastern Standard Time)","Thu Jan 30 2020 08:39:02 GMT-0500 (Eastern Standard Time)","Mozilla/5.0 (X11; Linux x86_64) AppleWebKit/537.36 (KHTML, like Gecko) Ubuntu Chromium/79.0.3945.79 Chrome/79.0.3945.79 Safari/537.36",108,"[0.9, 0.5, 0.1]","[0.8, 0.4, 0.2]","[u'blue', u'black', u'red']","[u'left', u'middle', u'right']","[0.8, 0.4, 0.2]","[u'medium', u'low', u'high']","red",51,"right","high","True","False",811,7050,NA
"A2C6HMH2FDM2CI","Thu Jan 30 2020 08:28:41 GMT-0500 (Eastern Standard Time)","Thu Jan 30 2020 08:39:02 GMT-0500 (Eastern Standard Time)","Mozilla/5.0 (X11; Linux x86_64) AppleWebKit/537.36 (KHTML, like Gecko) Ubuntu Chromium/79.0.3945.79 Chrome/79.0.3945.79 Safari/537.36",109,"[0.9, 0.5, 0.1]","[0.8, 0.4, 0.2]","[u'blue', u'black', u'red']","[u'left', u'middle', u'right']","[0.8, 0.4, 0.2]","[u'medium', u'low', u'high']","red",51,"right","high","True","False",491,7150,NA
"A2C6HMH2FDM2CI","Thu Jan 30 2020 08:28:41 GMT-0500 (Eastern Standard Time)","Thu Jan 30 2020 08:39:02 GMT-0500 (Eastern Standard Time)","Mozilla/5.0 (X11; Linux x86_64) AppleWebKit/537.36 (KHTML, like Gecko) Ubuntu Chromium/79.0.3945.79 Chrome/79.0.3945.79 Safari/537.36",110,"[0.9, 0.5, 0.1]","[0.8, 0.4, 0.2]","[u'blue', u'black', u'red']","[u'left', u'middle', u'right']","[0.8, 0.4, 0.2]","[u'medium', u'low', u'high']","red",51,"right","high","False","False",465,7100,NA
"A2C6HMH2FDM2CI","Thu Jan 30 2020 08:28:41 GMT-0500 (Eastern Standard Time)","Thu Jan 30 2020 08:39:02 GMT-0500 (Eastern Standard Time)","Mozilla/5.0 (X11; Linux x86_64) AppleWebKit/537.36 (KHTML, like Gecko) Ubuntu Chromium/79.0.3945.79 Chrome/79.0.3945.79 Safari/537.36",111,"[0.9, 0.5, 0.1]","[0.8, 0.4, 0.2]","[u'blue', u'black', u'red']","[u'left', u'middle', u'right']","[0.8, 0.4, 0.2]","[u'medium', u'low', u'high']","red",51,"right","high","False","False",450,7050,NA
"A2C6HMH2FDM2CI","Thu Jan 30 2020 08:28:41 GMT-0500 (Eastern Standard Time)","Thu Jan 30 2020 08:39:02 GMT-0500 (Eastern Standard Time)","Mozilla/5.0 (X11; Linux x86_64) AppleWebKit/537.36 (KHTML, like Gecko) Ubuntu Chromium/79.0.3945.79 Chrome/79.0.3945.79 Safari/537.36",112,"[0.9, 0.5, 0.1]","[0.8, 0.4, 0.2]","[u'blue', u'black', u'red']","[u'left', u'middle', u'right']","[0.8, 0.4, 0.2]","[u'medium', u'low', u'high']","black",50,"middle","low","False","False",111,7000,NA
"A2C6HMH2FDM2CI","Thu Jan 30 2020 08:28:41 GMT-0500 (Eastern Standard Time)","Thu Jan 30 2020 08:39:02 GMT-0500 (Eastern Standard Time)","Mozilla/5.0 (X11; Linux x86_64) AppleWebKit/537.36 (KHTML, like Gecko) Ubuntu Chromium/79.0.3945.79 Chrome/79.0.3945.79 Safari/537.36",113,"[0.9, 0.5, 0.1]","[0.8, 0.4, 0.2]","[u'blue', u'black', u'red']","[u'left', u'middle', u'right']","[0.8, 0.4, 0.2]","[u'medium', u'low', u'high']","blue",49,"left","medium","True","False",396,7100,NA
"A2C6HMH2FDM2CI","Thu Jan 30 2020 08:28:41 GMT-0500 (Eastern Standard Time)","Thu Jan 30 2020 08:39:02 GMT-0500 (Eastern Standard Time)","Mozilla/5.0 (X11; Linux x86_64) AppleWebKit/537.36 (KHTML, like Gecko) Ubuntu Chromium/79.0.3945.79 Chrome/79.0.3945.79 Safari/537.36",114,"[0.9, 0.5, 0.1]","[0.8, 0.4, 0.2]","[u'blue', u'black', u'red']","[u'left', u'middle', u'right']","[0.8, 0.4, 0.2]","[u'medium', u'low', u'high']","blue",49,"left","medium","False","False",463,7050,NA
"A2C6HMH2FDM2CI","Thu Jan 30 2020 08:28:41 GMT-0500 (Eastern Standard Time)","Thu Jan 30 2020 08:39:02 GMT-0500 (Eastern Standard Time)","Mozilla/5.0 (X11; Linux x86_64) AppleWebKit/537.36 (KHTML, like Gecko) Ubuntu Chromium/79.0.3945.79 Chrome/79.0.3945.79 Safari/537.36",115,"[0.9, 0.5, 0.1]","[0.8, 0.4, 0.2]","[u'blue', u'black', u'red']","[u'left', u'middle', u'right']","[0.8, 0.4, 0.2]","[u'medium', u'low', u'high']","black",50,"middle","low","True","False",467,7150,NA
"A2C6HMH2FDM2CI","Thu Jan 30 2020 08:28:41 GMT-0500 (Eastern Standard Time)","Thu Jan 30 2020 08:39:02 GMT-0500 (Eastern Standard Time)","Mozilla/5.0 (X11; Linux x86_64) AppleWebKit/537.36 (KHTML, like Gecko) Ubuntu Chromium/79.0.3945.79 Chrome/79.0.3945.79 Safari/537.36",116,"[0.9, 0.5, 0.1]","[0.8, 0.4, 0.2]","[u'blue', u'black', u'red']","[u'left', u'middle', u'right']","[0.8, 0.4, 0.2]","[u'medium', u'low', u'high']","black",50,"middle","low","False","False",499,7100,NA
"A2C6HMH2FDM2CI","Thu Jan 30 2020 08:28:41 GMT-0500 (Eastern Standard Time)","Thu Jan 30 2020 08:39:02 GMT-0500 (Eastern Standard Time)","Mozilla/5.0 (X11; Linux x86_64) AppleWebKit/537.36 (KHTML, like Gecko) Ubuntu Chromium/79.0.3945.79 Chrome/79.0.3945.79 Safari/537.36",117,"[0.9, 0.5, 0.1]","[0.8, 0.4, 0.2]","[u'blue', u'black', u'red']","[u'left', u'middle', u'right']","[0.8, 0.4, 0.2]","[u'medium', u'low', u'high']","black",50,"middle","low","False","False",462,7050,NA
"A2C6HMH2FDM2CI","Thu Jan 30 2020 08:28:41 GMT-0500 (Eastern Standard Time)","Thu Jan 30 2020 08:39:02 GMT-0500 (Eastern Standard Time)","Mozilla/5.0 (X11; Linux x86_64) AppleWebKit/537.36 (KHTML, like Gecko) Ubuntu Chromium/79.0.3945.79 Chrome/79.0.3945.79 Safari/537.36",118,"[0.9, 0.5, 0.1]","[0.8, 0.4, 0.2]","[u'blue', u'black', u'red']","[u'left', u'middle', u'right']","[0.8, 0.4, 0.2]","[u'medium', u'low', u'high']","red",51,"right","high","True","False",454,7150,NA
"A2C6HMH2FDM2CI","Thu Jan 30 2020 08:28:41 GMT-0500 (Eastern Standard Time)","Thu Jan 30 2020 08:39:02 GMT-0500 (Eastern Standard Time)","Mozilla/5.0 (X11; Linux x86_64) AppleWebKit/537.36 (KHTML, like Gecko) Ubuntu Chromium/79.0.3945.79 Chrome/79.0.3945.79 Safari/537.36",119,"[0.9, 0.5, 0.1]","[0.8, 0.4, 0.2]","[u'blue', u'black', u'red']","[u'left', u'middle', u'right']","[0.8, 0.4, 0.2]","[u'medium', u'low', u'high']","red",51,"right","high","True","False",441,7250,NA
"A2C6HMH2FDM2CI","Thu Jan 30 2020 08:28:41 GMT-0500 (Eastern Standard Time)","Thu Jan 30 2020 08:39:02 GMT-0500 (Eastern Standard Time)","Mozilla/5.0 (X11; Linux x86_64) AppleWebKit/537.36 (KHTML, like Gecko) Ubuntu Chromium/79.0.3945.79 Chrome/79.0.3945.79 Safari/537.36",120,"[0.9, 0.5, 0.1]","[0.8, 0.4, 0.2]","[u'blue', u'black', u'red']","[u'left', u'middle', u'right']","[0.8, 0.4, 0.2]","[u'medium', u'low', u'high']","red",51,"right","high","True","False",486,7350,NA
"A2C6HMH2FDM2CI","Thu Jan 30 2020 08:28:41 GMT-0500 (Eastern Standard Time)","Thu Jan 30 2020 08:39:02 GMT-0500 (Eastern Standard Time)","Mozilla/5.0 (X11; Linux x86_64) AppleWebKit/537.36 (KHTML, like Gecko) Ubuntu Chromium/79.0.3945.79 Chrome/79.0.3945.79 Safari/537.36",121,"[0.9, 0.5, 0.1]","[0.8, 0.4, 0.2]","[u'blue', u'black', u'red']","[u'left', u'middle', u'right']","[0.8, 0.4, 0.2]","[u'high', u'low', u'medium']","blue",49,"left","high","False","False",2311,7300,NA
"A2C6HMH2FDM2CI","Thu Jan 30 2020 08:28:41 GMT-0500 (Eastern Standard Time)","Thu Jan 30 2020 08:39:02 GMT-0500 (Eastern Standard Time)","Mozilla/5.0 (X11; Linux x86_64) AppleWebKit/537.36 (KHTML, like Gecko) Ubuntu Chromium/79.0.3945.79 Chrome/79.0.3945.79 Safari/537.36",122,"[0.9, 0.5, 0.1]","[0.8, 0.4, 0.2]","[u'blue', u'black', u'red']","[u'left', u'middle', u'right']","[0.8, 0.4, 0.2]","[u'high', u'low', u'medium']","red",51,"right","medium","True","False",1100,7400,NA
"A2C6HMH2FDM2CI","Thu Jan 30 2020 08:28:41 GMT-0500 (Eastern Standard Time)","Thu Jan 30 2020 08:39:02 GMT-0500 (Eastern Standard Time)","Mozilla/5.0 (X11; Linux x86_64) AppleWebKit/537.36 (KHTML, like Gecko) Ubuntu Chromium/79.0.3945.79 Chrome/79.0.3945.79 Safari/537.36",123,"[0.9, 0.5, 0.1]","[0.8, 0.4, 0.2]","[u'blue', u'black', u'red']","[u'left', u'middle', u'right']","[0.8, 0.4, 0.2]","[u'high', u'low', u'medium']","red",51,"right","medium","False","False",452,7350,NA
"A2C6HMH2FDM2CI","Thu Jan 30 2020 08:28:41 GMT-0500 (Eastern Standard Time)","Thu Jan 30 2020 08:39:02 GMT-0500 (Eastern Standard Time)","Mozilla/5.0 (X11; Linux x86_64) AppleWebKit/537.36 (KHTML, like Gecko) Ubuntu Chromium/79.0.3945.79 Chrome/79.0.3945.79 Safari/537.36",124,"[0.9, 0.5, 0.1]","[0.8, 0.4, 0.2]","[u'blue', u'black', u'red']","[u'left', u'middle', u'right']","[0.8, 0.4, 0.2]","[u'high', u'low', u'medium']","red",51,"right","medium","True","False",532,7450,NA
"A2C6HMH2FDM2CI","Thu Jan 30 2020 08:28:41 GMT-0500 (Eastern Standard Time)","Thu Jan 30 2020 08:39:02 GMT-0500 (Eastern Standard Time)","Mozilla/5.0 (X11; Linux x86_64) AppleWebKit/537.36 (KHTML, like Gecko) Ubuntu Chromium/79.0.3945.79 Chrome/79.0.3945.79 Safari/537.36",125,"[0.9, 0.5, 0.1]","[0.8, 0.4, 0.2]","[u'blue', u'black', u'red']","[u'left', u'middle', u'right']","[0.8, 0.4, 0.2]","[u'high', u'low', u'medium']","red",51,"right","medium","False","False",649,7400,NA
"A2C6HMH2FDM2CI","Thu Jan 30 2020 08:28:41 GMT-0500 (Eastern Standard Time)","Thu Jan 30 2020 08:39:02 GMT-0500 (Eastern Standard Time)","Mozilla/5.0 (X11; Linux x86_64) AppleWebKit/537.36 (KHTML, like Gecko) Ubuntu Chromium/79.0.3945.79 Chrome/79.0.3945.79 Safari/537.36",126,"[0.9, 0.5, 0.1]","[0.8, 0.4, 0.2]","[u'blue', u'black', u'red']","[u'left', u'middle', u'right']","[0.8, 0.4, 0.2]","[u'high', u'low', u'medium']","black",50,"middle","low","False","False",3,7350,NA
"A2C6HMH2FDM2CI","Thu Jan 30 2020 08:28:41 GMT-0500 (Eastern Standard Time)","Thu Jan 30 2020 08:39:02 GMT-0500 (Eastern Standard Time)","Mozilla/5.0 (X11; Linux x86_64) AppleWebKit/537.36 (KHTML, like Gecko) Ubuntu Chromium/79.0.3945.79 Chrome/79.0.3945.79 Safari/537.36",127,"[0.9, 0.5, 0.1]","[0.8, 0.4, 0.2]","[u'blue', u'black', u'red']","[u'left', u'middle', u'right']","[0.8, 0.4, 0.2]","[u'high', u'low', u'medium']","blue",49,"left","high","True","False",430,7450,NA
"A2C6HMH2FDM2CI","Thu Jan 30 2020 08:28:41 GMT-0500 (Eastern Standard Time)","Thu Jan 30 2020 08:39:02 GMT-0500 (Eastern Standard Time)","Mozilla/5.0 (X11; Linux x86_64) AppleWebKit/537.36 (KHTML, like Gecko) Ubuntu Chromium/79.0.3945.79 Chrome/79.0.3945.79 Safari/537.36",128,"[0.9, 0.5, 0.1]","[0.8, 0.4, 0.2]","[u'blue', u'black', u'red']","[u'left', u'middle', u'right']","[0.8, 0.4, 0.2]","[u'high', u'low', u'medium']","blue",49,"left","high","True","False",495,7550,NA
"A2C6HMH2FDM2CI","Thu Jan 30 2020 08:28:41 GMT-0500 (Eastern Standard Time)","Thu Jan 30 2020 08:39:02 GMT-0500 (Eastern Standard Time)","Mozilla/5.0 (X11; Linux x86_64) AppleWebKit/537.36 (KHTML, like Gecko) Ubuntu Chromium/79.0.3945.79 Chrome/79.0.3945.79 Safari/537.36",129,"[0.9, 0.5, 0.1]","[0.8, 0.4, 0.2]","[u'blue', u'black', u'red']","[u'left', u'middle', u'right']","[0.8, 0.4, 0.2]","[u'high', u'low', u'medium']","blue",49,"left","high","True","False",508,7650,NA
"A2C6HMH2FDM2CI","Thu Jan 30 2020 08:28:41 GMT-0500 (Eastern Standard Time)","Thu Jan 30 2020 08:39:02 GMT-0500 (Eastern Standard Time)","Mozilla/5.0 (X11; Linux x86_64) AppleWebKit/537.36 (KHTML, like Gecko) Ubuntu Chromium/79.0.3945.79 Chrome/79.0.3945.79 Safari/537.36",130,"[0.9, 0.5, 0.1]","[0.8, 0.4, 0.2]","[u'blue', u'black', u'red']","[u'left', u'middle', u'right']","[0.8, 0.4, 0.2]","[u'high', u'low', u'medium']","blue",49,"left","high","True","False",441,7750,NA
"A2C6HMH2FDM2CI","Thu Jan 30 2020 08:28:41 GMT-0500 (Eastern Standard Time)","Thu Jan 30 2020 08:39:02 GMT-0500 (Eastern Standard Time)","Mozilla/5.0 (X11; Linux x86_64) AppleWebKit/537.36 (KHTML, like Gecko) Ubuntu Chromium/79.0.3945.79 Chrome/79.0.3945.79 Safari/537.36",131,"[0.9, 0.5, 0.1]","[0.8, 0.4, 0.2]","[u'blue', u'black', u'red']","[u'left', u'middle', u'right']","[0.8, 0.4, 0.2]","[u'high', u'low', u'medium']","blue",49,"left","high","True","False",561,7850,NA
"A2C6HMH2FDM2CI","Thu Jan 30 2020 08:28:41 GMT-0500 (Eastern Standard Time)","Thu Jan 30 2020 08:39:02 GMT-0500 (Eastern Standard Time)","Mozilla/5.0 (X11; Linux x86_64) AppleWebKit/537.36 (KHTML, like Gecko) Ubuntu Chromium/79.0.3945.79 Chrome/79.0.3945.79 Safari/537.36",132,"[0.9, 0.5, 0.1]","[0.8, 0.4, 0.2]","[u'blue', u'black', u'red']","[u'left', u'middle', u'right']","[0.8, 0.4, 0.2]","[u'high', u'low', u'medium']","blue",49,"left","high","False","False",455,7800,NA
"A2C6HMH2FDM2CI","Thu Jan 30 2020 08:28:41 GMT-0500 (Eastern Standard Time)","Thu Jan 30 2020 08:39:02 GMT-0500 (Eastern Standard Time)","Mozilla/5.0 (X11; Linux x86_64) AppleWebKit/537.36 (KHTML, like Gecko) Ubuntu Chromium/79.0.3945.79 Chrome/79.0.3945.79 Safari/537.36",133,"[0.9, 0.5, 0.1]","[0.8, 0.4, 0.2]","[u'blue', u'black', u'red']","[u'left', u'middle', u'right']","[0.8, 0.4, 0.2]","[u'high', u'low', u'medium']","blue",49,"left","high","True","False",560,7900,NA
"A2C6HMH2FDM2CI","Thu Jan 30 2020 08:28:41 GMT-0500 (Eastern Standard Time)","Thu Jan 30 2020 08:39:02 GMT-0500 (Eastern Standard Time)","Mozilla/5.0 (X11; Linux x86_64) AppleWebKit/537.36 (KHTML, like Gecko) Ubuntu Chromium/79.0.3945.79 Chrome/79.0.3945.79 Safari/537.36",134,"[0.9, 0.5, 0.1]","[0.8, 0.4, 0.2]","[u'blue', u'black', u'red']","[u'left', u'middle', u'right']","[0.8, 0.4, 0.2]","[u'high', u'low', u'medium']","blue",49,"left","high","True","False",678,8000,NA
"A2C6HMH2FDM2CI","Thu Jan 30 2020 08:28:41 GMT-0500 (Eastern Standard Time)","Thu Jan 30 2020 08:39:02 GMT-0500 (Eastern Standard Time)","Mozilla/5.0 (X11; Linux x86_64) AppleWebKit/537.36 (KHTML, like Gecko) Ubuntu Chromium/79.0.3945.79 Chrome/79.0.3945.79 Safari/537.36",135,"[0.9, 0.5, 0.1]","[0.8, 0.4, 0.2]","[u'blue', u'black', u'red']","[u'left', u'middle', u'right']","[0.8, 0.4, 0.2]","[u'high', u'low', u'medium']","blue",49,"left","high","True","True",625,8100,NA
"A2C6HMH2FDM2CI","Thu Jan 30 2020 08:28:41 GMT-0500 (Eastern Standard Time)","Thu Jan 30 2020 08:39:02 GMT-0500 (Eastern Standard Time)","Mozilla/5.0 (X11; Linux x86_64) AppleWebKit/537.36 (KHTML, like Gecko) Ubuntu Chromium/79.0.3945.79 Chrome/79.0.3945.79 Safari/537.36",136,"[0.9, 0.5, 0.1]","[0.8, 0.4, 0.2]","[u'blue', u'black', u'red']","[u'left', u'middle', u'right']","[0.8, 0.4, 0.2]","[u'medium', u'low', u'high']","blue",49,"left","medium","True","False",416,8200,NA
"A2C6HMH2FDM2CI","Thu Jan 30 2020 08:28:41 GMT-0500 (Eastern Standard Time)","Thu Jan 30 2020 08:39:02 GMT-0500 (Eastern Standard Time)","Mozilla/5.0 (X11; Linux x86_64) AppleWebKit/537.36 (KHTML, like Gecko) Ubuntu Chromium/79.0.3945.79 Chrome/79.0.3945.79 Safari/537.36",137,"[0.9, 0.5, 0.1]","[0.8, 0.4, 0.2]","[u'blue', u'black', u'red']","[u'left', u'middle', u'right']","[0.8, 0.4, 0.2]","[u'medium', u'low', u'high']","blue",49,"left","medium","True","False",602,8300,NA
"A2C6HMH2FDM2CI","Thu Jan 30 2020 08:28:41 GMT-0500 (Eastern Standard Time)","Thu Jan 30 2020 08:39:02 GMT-0500 (Eastern Standard Time)","Mozilla/5.0 (X11; Linux x86_64) AppleWebKit/537.36 (KHTML, like Gecko) Ubuntu Chromium/79.0.3945.79 Chrome/79.0.3945.79 Safari/537.36",138,"[0.9, 0.5, 0.1]","[0.8, 0.4, 0.2]","[u'blue', u'black', u'red']","[u'left', u'middle', u'right']","[0.8, 0.4, 0.2]","[u'medium', u'low', u'high']","blue",49,"left","medium","True","False",504,8400,NA
"A2C6HMH2FDM2CI","Thu Jan 30 2020 08:28:41 GMT-0500 (Eastern Standard Time)","Thu Jan 30 2020 08:39:02 GMT-0500 (Eastern Standard Time)","Mozilla/5.0 (X11; Linux x86_64) AppleWebKit/537.36 (KHTML, like Gecko) Ubuntu Chromium/79.0.3945.79 Chrome/79.0.3945.79 Safari/537.36",139,"[0.9, 0.5, 0.1]","[0.8, 0.4, 0.2]","[u'blue', u'black', u'red']","[u'left', u'middle', u'right']","[0.8, 0.4, 0.2]","[u'medium', u'low', u'high']","blue",49,"left","medium","False","False",573,8350,NA
"A2C6HMH2FDM2CI","Thu Jan 30 2020 08:28:41 GMT-0500 (Eastern Standard Time)","Thu Jan 30 2020 08:39:02 GMT-0500 (Eastern Standard Time)","Mozilla/5.0 (X11; Linux x86_64) AppleWebKit/537.36 (KHTML, like Gecko) Ubuntu Chromium/79.0.3945.79 Chrome/79.0.3945.79 Safari/537.36",140,"[0.9, 0.5, 0.1]","[0.8, 0.4, 0.2]","[u'blue', u'black', u'red']","[u'left', u'middle', u'right']","[0.8, 0.4, 0.2]","[u'medium', u'low', u'high']","blue",49,"left","medium","False","False",503,8300,NA
"A2C6HMH2FDM2CI","Thu Jan 30 2020 08:28:41 GMT-0500 (Eastern Standard Time)","Thu Jan 30 2020 08:39:02 GMT-0500 (Eastern Standard Time)","Mozilla/5.0 (X11; Linux x86_64) AppleWebKit/537.36 (KHTML, like Gecko) Ubuntu Chromium/79.0.3945.79 Chrome/79.0.3945.79 Safari/537.36",141,"[0.9, 0.5, 0.1]","[0.8, 0.4, 0.2]","[u'blue', u'black', u'red']","[u'left', u'middle', u'right']","[0.8, 0.4, 0.2]","[u'medium', u'low', u'high']","black",50,"middle","low","False","False",214,8250,NA
"A2C6HMH2FDM2CI","Thu Jan 30 2020 08:28:41 GMT-0500 (Eastern Standard Time)","Thu Jan 30 2020 08:39:02 GMT-0500 (Eastern Standard Time)","Mozilla/5.0 (X11; Linux x86_64) AppleWebKit/537.36 (KHTML, like Gecko) Ubuntu Chromium/79.0.3945.79 Chrome/79.0.3945.79 Safari/537.36",142,"[0.9, 0.5, 0.1]","[0.8, 0.4, 0.2]","[u'blue', u'black', u'red']","[u'left', u'middle', u'right']","[0.8, 0.4, 0.2]","[u'medium', u'low', u'high']","red",51,"right","high","True","False",451,8350,NA
"A2C6HMH2FDM2CI","Thu Jan 30 2020 08:28:41 GMT-0500 (Eastern Standard Time)","Thu Jan 30 2020 08:39:02 GMT-0500 (Eastern Standard Time)","Mozilla/5.0 (X11; Linux x86_64) AppleWebKit/537.36 (KHTML, like Gecko) Ubuntu Chromium/79.0.3945.79 Chrome/79.0.3945.79 Safari/537.36",143,"[0.9, 0.5, 0.1]","[0.8, 0.4, 0.2]","[u'blue', u'black', u'red']","[u'left', u'middle', u'right']","[0.8, 0.4, 0.2]","[u'medium', u'low', u'high']","red",51,"right","high","True","False",613,8450,NA
"A2C6HMH2FDM2CI","Thu Jan 30 2020 08:28:41 GMT-0500 (Eastern Standard Time)","Thu Jan 30 2020 08:39:02 GMT-0500 (Eastern Standard Time)","Mozilla/5.0 (X11; Linux x86_64) AppleWebKit/537.36 (KHTML, like Gecko) Ubuntu Chromium/79.0.3945.79 Chrome/79.0.3945.79 Safari/537.36",144,"[0.9, 0.5, 0.1]","[0.8, 0.4, 0.2]","[u'blue', u'black', u'red']","[u'left', u'middle', u'right']","[0.8, 0.4, 0.2]","[u'medium', u'low', u'high']","red",51,"right","high","True","False",490,8550,NA
"A2C6HMH2FDM2CI","Thu Jan 30 2020 08:28:41 GMT-0500 (Eastern Standard Time)","Thu Jan 30 2020 08:39:02 GMT-0500 (Eastern Standard Time)","Mozilla/5.0 (X11; Linux x86_64) AppleWebKit/537.36 (KHTML, like Gecko) Ubuntu Chromium/79.0.3945.79 Chrome/79.0.3945.79 Safari/537.36",145,"[0.9, 0.5, 0.1]","[0.8, 0.4, 0.2]","[u'blue', u'black', u'red']","[u'left', u'middle', u'right']","[0.8, 0.4, 0.2]","[u'medium', u'low', u'high']","red",51,"right","high","True","False",418,8650,NA
"A2C6HMH2FDM2CI","Thu Jan 30 2020 08:28:41 GMT-0500 (Eastern Standard Time)","Thu Jan 30 2020 08:39:02 GMT-0500 (Eastern Standard Time)","Mozilla/5.0 (X11; Linux x86_64) AppleWebKit/537.36 (KHTML, like Gecko) Ubuntu Chromium/79.0.3945.79 Chrome/79.0.3945.79 Safari/537.36",146,"[0.9, 0.5, 0.1]","[0.8, 0.4, 0.2]","[u'blue', u'black', u'red']","[u'left', u'middle', u'right']","[0.8, 0.4, 0.2]","[u'medium', u'low', u'high']","red",51,"right","high","False","False",611,8600,NA
"A2C6HMH2FDM2CI","Thu Jan 30 2020 08:28:41 GMT-0500 (Eastern Standard Time)","Thu Jan 30 2020 08:39:02 GMT-0500 (Eastern Standard Time)","Mozilla/5.0 (X11; Linux x86_64) AppleWebKit/537.36 (KHTML, like Gecko) Ubuntu Chromium/79.0.3945.79 Chrome/79.0.3945.79 Safari/537.36",147,"[0.9, 0.5, 0.1]","[0.8, 0.4, 0.2]","[u'blue', u'black', u'red']","[u'left', u'middle', u'right']","[0.8, 0.4, 0.2]","[u'medium', u'low', u'high']","red",51,"right","high","True","False",454,8700,NA
"A2C6HMH2FDM2CI","Thu Jan 30 2020 08:28:41 GMT-0500 (Eastern Standard Time)","Thu Jan 30 2020 08:39:02 GMT-0500 (Eastern Standard Time)","Mozilla/5.0 (X11; Linux x86_64) AppleWebKit/537.36 (KHTML, like Gecko) Ubuntu Chromium/79.0.3945.79 Chrome/79.0.3945.79 Safari/537.36",148,"[0.9, 0.5, 0.1]","[0.8, 0.4, 0.2]","[u'blue', u'black', u'red']","[u'left', u'middle', u'right']","[0.8, 0.4, 0.2]","[u'medium', u'low', u'high']","red",51,"right","high","False","False",634,8650,NA
"A2C6HMH2FDM2CI","Thu Jan 30 2020 08:28:41 GMT-0500 (Eastern Standard Time)","Thu Jan 30 2020 08:39:02 GMT-0500 (Eastern Standard Time)","Mozilla/5.0 (X11; Linux x86_64) AppleWebKit/537.36 (KHTML, like Gecko) Ubuntu Chromium/79.0.3945.79 Chrome/79.0.3945.79 Safari/537.36",149,"[0.9, 0.5, 0.1]","[0.8, 0.4, 0.2]","[u'blue', u'black', u'red']","[u'left', u'middle', u'right']","[0.8, 0.4, 0.2]","[u'medium', u'low', u'high']","red",51,"right","high","False","False",428,8600,NA
"A2C6HMH2FDM2CI","Thu Jan 30 2020 08:28:41 GMT-0500 (Eastern Standard Time)","Thu Jan 30 2020 08:39:02 GMT-0500 (Eastern Standard Time)","Mozilla/5.0 (X11; Linux x86_64) AppleWebKit/537.36 (KHTML, like Gecko) Ubuntu Chromium/79.0.3945.79 Chrome/79.0.3945.79 Safari/537.36",150,"[0.9, 0.5, 0.1]","[0.8, 0.4, 0.2]","[u'blue', u'black', u'red']","[u'left', u'middle', u'right']","[0.8, 0.4, 0.2]","[u'medium', u'low', u'high']","black",50,"middle","low","False","False",742,8550,NA
"A2C6HMH2FDM2CI","Thu Jan 30 2020 08:28:41 GMT-0500 (Eastern Standard Time)","Thu Jan 30 2020 08:39:02 GMT-0500 (Eastern Standard Time)","Mozilla/5.0 (X11; Linux x86_64) AppleWebKit/537.36 (KHTML, like Gecko) Ubuntu Chromium/79.0.3945.79 Chrome/79.0.3945.79 Safari/537.36",151,"[0.9, 0.5, 0.1]","[0.8, 0.4, 0.2]","[u'blue', u'black', u'red']","[u'left', u'middle', u'right']","[0.8, 0.4, 0.2]","[u'medium', u'low', u'high']","blue",49,"left","medium","False","False",298,8500,NA
"A2C6HMH2FDM2CI","Thu Jan 30 2020 08:28:41 GMT-0500 (Eastern Standard Time)","Thu Jan 30 2020 08:39:02 GMT-0500 (Eastern Standard Time)","Mozilla/5.0 (X11; Linux x86_64) AppleWebKit/537.36 (KHTML, like Gecko) Ubuntu Chromium/79.0.3945.79 Chrome/79.0.3945.79 Safari/537.36",152,"[0.9, 0.5, 0.1]","[0.8, 0.4, 0.2]","[u'blue', u'black', u'red']","[u'left', u'middle', u'right']","[0.8, 0.4, 0.2]","[u'medium', u'low', u'high']","blue",49,"left","medium","True","False",610,8600,NA
"A2C6HMH2FDM2CI","Thu Jan 30 2020 08:28:41 GMT-0500 (Eastern Standard Time)","Thu Jan 30 2020 08:39:02 GMT-0500 (Eastern Standard Time)","Mozilla/5.0 (X11; Linux x86_64) AppleWebKit/537.36 (KHTML, like Gecko) Ubuntu Chromium/79.0.3945.79 Chrome/79.0.3945.79 Safari/537.36",153,"[0.9, 0.5, 0.1]","[0.8, 0.4, 0.2]","[u'blue', u'black', u'red']","[u'left', u'middle', u'right']","[0.8, 0.4, 0.2]","[u'medium', u'low', u'high']","blue",49,"left","medium","False","False",425,8550,NA
"A2C6HMH2FDM2CI","Thu Jan 30 2020 08:28:41 GMT-0500 (Eastern Standard Time)","Thu Jan 30 2020 08:39:02 GMT-0500 (Eastern Standard Time)","Mozilla/5.0 (X11; Linux x86_64) AppleWebKit/537.36 (KHTML, like Gecko) Ubuntu Chromium/79.0.3945.79 Chrome/79.0.3945.79 Safari/537.36",154,"[0.9, 0.5, 0.1]","[0.8, 0.4, 0.2]","[u'blue', u'black', u'red']","[u'left', u'middle', u'right']","[0.8, 0.4, 0.2]","[u'medium', u'low', u'high']","blue",49,"left","medium","False","False",421,8500,NA
"A2C6HMH2FDM2CI","Thu Jan 30 2020 08:28:41 GMT-0500 (Eastern Standard Time)","Thu Jan 30 2020 08:39:02 GMT-0500 (Eastern Standard Time)","Mozilla/5.0 (X11; Linux x86_64) AppleWebKit/537.36 (KHTML, like Gecko) Ubuntu Chromium/79.0.3945.79 Chrome/79.0.3945.79 Safari/537.36",155,"[0.9, 0.5, 0.1]","[0.8, 0.4, 0.2]","[u'blue', u'black', u'red']","[u'left', u'middle', u'right']","[0.8, 0.4, 0.2]","[u'medium', u'low', u'high']","black",50,"middle","low","True","False",230,8600,NA
"A2C6HMH2FDM2CI","Thu Jan 30 2020 08:28:41 GMT-0500 (Eastern Standard Time)","Thu Jan 30 2020 08:39:02 GMT-0500 (Eastern Standard Time)","Mozilla/5.0 (X11; Linux x86_64) AppleWebKit/537.36 (KHTML, like Gecko) Ubuntu Chromium/79.0.3945.79 Chrome/79.0.3945.79 Safari/537.36",156,"[0.9, 0.5, 0.1]","[0.8, 0.4, 0.2]","[u'blue', u'black', u'red']","[u'left', u'middle', u'right']","[0.8, 0.4, 0.2]","[u'medium', u'low', u'high']","black",50,"middle","low","False","False",412,8550,NA
"A2C6HMH2FDM2CI","Thu Jan 30 2020 08:28:41 GMT-0500 (Eastern Standard Time)","Thu Jan 30 2020 08:39:02 GMT-0500 (Eastern Standard Time)","Mozilla/5.0 (X11; Linux x86_64) AppleWebKit/537.36 (KHTML, like Gecko) Ubuntu Chromium/79.0.3945.79 Chrome/79.0.3945.79 Safari/537.36",157,"[0.9, 0.5, 0.1]","[0.8, 0.4, 0.2]","[u'blue', u'black', u'red']","[u'left', u'middle', u'right']","[0.8, 0.4, 0.2]","[u'medium', u'low', u'high']","black",50,"middle","low","False","False",494,8500,NA
"A2C6HMH2FDM2CI","Thu Jan 30 2020 08:28:41 GMT-0500 (Eastern Standard Time)","Thu Jan 30 2020 08:39:02 GMT-0500 (Eastern Standard Time)","Mozilla/5.0 (X11; Linux x86_64) AppleWebKit/537.36 (KHTML, like Gecko) Ubuntu Chromium/79.0.3945.79 Chrome/79.0.3945.79 Safari/537.36",158,"[0.9, 0.5, 0.1]","[0.8, 0.4, 0.2]","[u'blue', u'black', u'red']","[u'left', u'middle', u'right']","[0.8, 0.4, 0.2]","[u'medium', u'low', u'high']","red",51,"right","high","False","False",393,8450,NA
"A2C6HMH2FDM2CI","Thu Jan 30 2020 08:28:41 GMT-0500 (Eastern Standard Time)","Thu Jan 30 2020 08:39:02 GMT-0500 (Eastern Standard Time)","Mozilla/5.0 (X11; Linux x86_64) AppleWebKit/537.36 (KHTML, like Gecko) Ubuntu Chromium/79.0.3945.79 Chrome/79.0.3945.79 Safari/537.36",159,"[0.9, 0.5, 0.1]","[0.8, 0.4, 0.2]","[u'blue', u'black', u'red']","[u'left', u'middle', u'right']","[0.8, 0.4, 0.2]","[u'medium', u'low', u'high']","red",51,"right","high","True","False",463,8550,NA
"A2C6HMH2FDM2CI","Thu Jan 30 2020 08:28:41 GMT-0500 (Eastern Standard Time)","Thu Jan 30 2020 08:39:02 GMT-0500 (Eastern Standard Time)","Mozilla/5.0 (X11; Linux x86_64) AppleWebKit/537.36 (KHTML, like Gecko) Ubuntu Chromium/79.0.3945.79 Chrome/79.0.3945.79 Safari/537.36",160,"[0.9, 0.5, 0.1]","[0.8, 0.4, 0.2]","[u'blue', u'black', u'red']","[u'left', u'middle', u'right']","[0.8, 0.4, 0.2]","[u'medium', u'low', u'high']","red",51,"right","high","False","False",492,8500,NA
