"src_subject_id","start_time","end_time","browser","index","first_half_probabilities","second_half_probabilities","deck_color","deck_position","deck_probabilities","deck_contingencies","response_color","key_press","response_position","response_probability","reward_type","trial_type","rt","reward_tally","exclusion_reason"
"AZOLOOMYRN1K0","Thu Jan 30 2020 06:31:11 GMT-0700 (Mountain Standard Time)","Thu Jan 30 2020 06:39:09 GMT-0700 (Mountain Standard Time)","Mozilla/5.0 (Windows NT 10.0; Win64; x64) AppleWebKit/537.36 (KHTML, like Gecko) Chrome/79.0.3945.130 Safari/537.36",1,"[0.9, 0.5, 0.1]","[0.8, 0.4, 0.2]","[u'black', u'red', u'blue']","[u'left', u'middle', u'right']","[0.9, 0.5, 0.1]","[u'high', u'low', u'medium']","black",49,"left","high","True","False",1466,100,NA
"AZOLOOMYRN1K0","Thu Jan 30 2020 06:31:11 GMT-0700 (Mountain Standard Time)","Thu Jan 30 2020 06:39:09 GMT-0700 (Mountain Standard Time)","Mozilla/5.0 (Windows NT 10.0; Win64; x64) AppleWebKit/537.36 (KHTML, like Gecko) Chrome/79.0.3945.130 Safari/537.36",2,"[0.9, 0.5, 0.1]","[0.8, 0.4, 0.2]","[u'black', u'red', u'blue']","[u'left', u'middle', u'right']","[0.9, 0.5, 0.1]","[u'high', u'low', u'medium']","black",49,"left","high","True","False",606,200,NA
"AZOLOOMYRN1K0","Thu Jan 30 2020 06:31:11 GMT-0700 (Mountain Standard Time)","Thu Jan 30 2020 06:39:09 GMT-0700 (Mountain Standard Time)","Mozilla/5.0 (Windows NT 10.0; Win64; x64) AppleWebKit/537.36 (KHTML, like Gecko) Chrome/79.0.3945.130 Safari/537.36",3,"[0.9, 0.5, 0.1]","[0.8, 0.4, 0.2]","[u'black', u'red', u'blue']","[u'left', u'middle', u'right']","[0.9, 0.5, 0.1]","[u'high', u'low', u'medium']","black",49,"left","high","True","False",461,300,NA
"AZOLOOMYRN1K0","Thu Jan 30 2020 06:31:11 GMT-0700 (Mountain Standard Time)","Thu Jan 30 2020 06:39:09 GMT-0700 (Mountain Standard Time)","Mozilla/5.0 (Windows NT 10.0; Win64; x64) AppleWebKit/537.36 (KHTML, like Gecko) Chrome/79.0.3945.130 Safari/537.36",4,"[0.9, 0.5, 0.1]","[0.8, 0.4, 0.2]","[u'black', u'red', u'blue']","[u'left', u'middle', u'right']","[0.9, 0.5, 0.1]","[u'high', u'low', u'medium']","black",49,"left","high","True","False",381,400,NA
"AZOLOOMYRN1K0","Thu Jan 30 2020 06:31:11 GMT-0700 (Mountain Standard Time)","Thu Jan 30 2020 06:39:09 GMT-0700 (Mountain Standard Time)","Mozilla/5.0 (Windows NT 10.0; Win64; x64) AppleWebKit/537.36 (KHTML, like Gecko) Chrome/79.0.3945.130 Safari/537.36",5,"[0.9, 0.5, 0.1]","[0.8, 0.4, 0.2]","[u'black', u'red', u'blue']","[u'left', u'middle', u'right']","[0.9, 0.5, 0.1]","[u'high', u'low', u'medium']","black",49,"left","high","True","False",449,500,NA
"AZOLOOMYRN1K0","Thu Jan 30 2020 06:31:11 GMT-0700 (Mountain Standard Time)","Thu Jan 30 2020 06:39:09 GMT-0700 (Mountain Standard Time)","Mozilla/5.0 (Windows NT 10.0; Win64; x64) AppleWebKit/537.36 (KHTML, like Gecko) Chrome/79.0.3945.130 Safari/537.36",6,"[0.9, 0.5, 0.1]","[0.8, 0.4, 0.2]","[u'black', u'red', u'blue']","[u'left', u'middle', u'right']","[0.9, 0.5, 0.1]","[u'high', u'low', u'medium']","black",49,"left","high","True","False",418,600,NA
"AZOLOOMYRN1K0","Thu Jan 30 2020 06:31:11 GMT-0700 (Mountain Standard Time)","Thu Jan 30 2020 06:39:09 GMT-0700 (Mountain Standard Time)","Mozilla/5.0 (Windows NT 10.0; Win64; x64) AppleWebKit/537.36 (KHTML, like Gecko) Chrome/79.0.3945.130 Safari/537.36",7,"[0.9, 0.5, 0.1]","[0.8, 0.4, 0.2]","[u'black', u'red', u'blue']","[u'left', u'middle', u'right']","[0.9, 0.5, 0.1]","[u'high', u'low', u'medium']","black",49,"left","high","True","False",309,700,NA
"AZOLOOMYRN1K0","Thu Jan 30 2020 06:31:11 GMT-0700 (Mountain Standard Time)","Thu Jan 30 2020 06:39:09 GMT-0700 (Mountain Standard Time)","Mozilla/5.0 (Windows NT 10.0; Win64; x64) AppleWebKit/537.36 (KHTML, like Gecko) Chrome/79.0.3945.130 Safari/537.36",8,"[0.9, 0.5, 0.1]","[0.8, 0.4, 0.2]","[u'black', u'red', u'blue']","[u'left', u'middle', u'right']","[0.9, 0.5, 0.1]","[u'high', u'low', u'medium']","black",49,"left","high","True","False",307,800,NA
"AZOLOOMYRN1K0","Thu Jan 30 2020 06:31:11 GMT-0700 (Mountain Standard Time)","Thu Jan 30 2020 06:39:09 GMT-0700 (Mountain Standard Time)","Mozilla/5.0 (Windows NT 10.0; Win64; x64) AppleWebKit/537.36 (KHTML, like Gecko) Chrome/79.0.3945.130 Safari/537.36",9,"[0.9, 0.5, 0.1]","[0.8, 0.4, 0.2]","[u'black', u'red', u'blue']","[u'left', u'middle', u'right']","[0.9, 0.5, 0.1]","[u'high', u'low', u'medium']","black",49,"left","high","True","True",303,900,NA
"AZOLOOMYRN1K0","Thu Jan 30 2020 06:31:11 GMT-0700 (Mountain Standard Time)","Thu Jan 30 2020 06:39:09 GMT-0700 (Mountain Standard Time)","Mozilla/5.0 (Windows NT 10.0; Win64; x64) AppleWebKit/537.36 (KHTML, like Gecko) Chrome/79.0.3945.130 Safari/537.36",10,"[0.9, 0.5, 0.1]","[0.8, 0.4, 0.2]","[u'black', u'red', u'blue']","[u'left', u'middle', u'right']","[0.9, 0.5, 0.1]","[u'low', u'medium', u'high']","black",49,"left","low","False","False",334,850,NA
"AZOLOOMYRN1K0","Thu Jan 30 2020 06:31:11 GMT-0700 (Mountain Standard Time)","Thu Jan 30 2020 06:39:09 GMT-0700 (Mountain Standard Time)","Mozilla/5.0 (Windows NT 10.0; Win64; x64) AppleWebKit/537.36 (KHTML, like Gecko) Chrome/79.0.3945.130 Safari/537.36",11,"[0.9, 0.5, 0.1]","[0.8, 0.4, 0.2]","[u'black', u'red', u'blue']","[u'left', u'middle', u'right']","[0.9, 0.5, 0.1]","[u'low', u'medium', u'high']","black",49,"left","low","False","False",321,800,NA
"AZOLOOMYRN1K0","Thu Jan 30 2020 06:31:11 GMT-0700 (Mountain Standard Time)","Thu Jan 30 2020 06:39:09 GMT-0700 (Mountain Standard Time)","Mozilla/5.0 (Windows NT 10.0; Win64; x64) AppleWebKit/537.36 (KHTML, like Gecko) Chrome/79.0.3945.130 Safari/537.36",12,"[0.9, 0.5, 0.1]","[0.8, 0.4, 0.2]","[u'black', u'red', u'blue']","[u'left', u'middle', u'right']","[0.9, 0.5, 0.1]","[u'low', u'medium', u'high']","red",50,"middle","medium","False","False",277,750,NA
"AZOLOOMYRN1K0","Thu Jan 30 2020 06:31:11 GMT-0700 (Mountain Standard Time)","Thu Jan 30 2020 06:39:09 GMT-0700 (Mountain Standard Time)","Mozilla/5.0 (Windows NT 10.0; Win64; x64) AppleWebKit/537.36 (KHTML, like Gecko) Chrome/79.0.3945.130 Safari/537.36",13,"[0.9, 0.5, 0.1]","[0.8, 0.4, 0.2]","[u'black', u'red', u'blue']","[u'left', u'middle', u'right']","[0.9, 0.5, 0.1]","[u'low', u'medium', u'high']","blue",51,"right","high","True","False",307,850,NA
"AZOLOOMYRN1K0","Thu Jan 30 2020 06:31:11 GMT-0700 (Mountain Standard Time)","Thu Jan 30 2020 06:39:09 GMT-0700 (Mountain Standard Time)","Mozilla/5.0 (Windows NT 10.0; Win64; x64) AppleWebKit/537.36 (KHTML, like Gecko) Chrome/79.0.3945.130 Safari/537.36",14,"[0.9, 0.5, 0.1]","[0.8, 0.4, 0.2]","[u'black', u'red', u'blue']","[u'left', u'middle', u'right']","[0.9, 0.5, 0.1]","[u'low', u'medium', u'high']","blue",51,"right","high","True","False",359,950,NA
"AZOLOOMYRN1K0","Thu Jan 30 2020 06:31:11 GMT-0700 (Mountain Standard Time)","Thu Jan 30 2020 06:39:09 GMT-0700 (Mountain Standard Time)","Mozilla/5.0 (Windows NT 10.0; Win64; x64) AppleWebKit/537.36 (KHTML, like Gecko) Chrome/79.0.3945.130 Safari/537.36",15,"[0.9, 0.5, 0.1]","[0.8, 0.4, 0.2]","[u'black', u'red', u'blue']","[u'left', u'middle', u'right']","[0.9, 0.5, 0.1]","[u'low', u'medium', u'high']","blue",51,"right","high","True","False",389,1050,NA
"AZOLOOMYRN1K0","Thu Jan 30 2020 06:31:11 GMT-0700 (Mountain Standard Time)","Thu Jan 30 2020 06:39:09 GMT-0700 (Mountain Standard Time)","Mozilla/5.0 (Windows NT 10.0; Win64; x64) AppleWebKit/537.36 (KHTML, like Gecko) Chrome/79.0.3945.130 Safari/537.36",16,"[0.9, 0.5, 0.1]","[0.8, 0.4, 0.2]","[u'black', u'red', u'blue']","[u'left', u'middle', u'right']","[0.9, 0.5, 0.1]","[u'low', u'medium', u'high']","blue",51,"right","high","True","False",320,1150,NA
"AZOLOOMYRN1K0","Thu Jan 30 2020 06:31:11 GMT-0700 (Mountain Standard Time)","Thu Jan 30 2020 06:39:09 GMT-0700 (Mountain Standard Time)","Mozilla/5.0 (Windows NT 10.0; Win64; x64) AppleWebKit/537.36 (KHTML, like Gecko) Chrome/79.0.3945.130 Safari/537.36",17,"[0.9, 0.5, 0.1]","[0.8, 0.4, 0.2]","[u'black', u'red', u'blue']","[u'left', u'middle', u'right']","[0.9, 0.5, 0.1]","[u'low', u'medium', u'high']","blue",51,"right","high","True","False",271,1250,NA
"AZOLOOMYRN1K0","Thu Jan 30 2020 06:31:11 GMT-0700 (Mountain Standard Time)","Thu Jan 30 2020 06:39:09 GMT-0700 (Mountain Standard Time)","Mozilla/5.0 (Windows NT 10.0; Win64; x64) AppleWebKit/537.36 (KHTML, like Gecko) Chrome/79.0.3945.130 Safari/537.36",18,"[0.9, 0.5, 0.1]","[0.8, 0.4, 0.2]","[u'black', u'red', u'blue']","[u'left', u'middle', u'right']","[0.9, 0.5, 0.1]","[u'low', u'medium', u'high']","blue",51,"right","high","True","False",301,1350,NA
"AZOLOOMYRN1K0","Thu Jan 30 2020 06:31:11 GMT-0700 (Mountain Standard Time)","Thu Jan 30 2020 06:39:09 GMT-0700 (Mountain Standard Time)","Mozilla/5.0 (Windows NT 10.0; Win64; x64) AppleWebKit/537.36 (KHTML, like Gecko) Chrome/79.0.3945.130 Safari/537.36",19,"[0.9, 0.5, 0.1]","[0.8, 0.4, 0.2]","[u'black', u'red', u'blue']","[u'left', u'middle', u'right']","[0.9, 0.5, 0.1]","[u'low', u'medium', u'high']","blue",51,"right","high","False","False",261,1300,NA
"AZOLOOMYRN1K0","Thu Jan 30 2020 06:31:11 GMT-0700 (Mountain Standard Time)","Thu Jan 30 2020 06:39:09 GMT-0700 (Mountain Standard Time)","Mozilla/5.0 (Windows NT 10.0; Win64; x64) AppleWebKit/537.36 (KHTML, like Gecko) Chrome/79.0.3945.130 Safari/537.36",20,"[0.9, 0.5, 0.1]","[0.8, 0.4, 0.2]","[u'black', u'red', u'blue']","[u'left', u'middle', u'right']","[0.9, 0.5, 0.1]","[u'low', u'medium', u'high']","red",50,"middle","medium","True","False",274,1400,NA
"AZOLOOMYRN1K0","Thu Jan 30 2020 06:31:11 GMT-0700 (Mountain Standard Time)","Thu Jan 30 2020 06:39:09 GMT-0700 (Mountain Standard Time)","Mozilla/5.0 (Windows NT 10.0; Win64; x64) AppleWebKit/537.36 (KHTML, like Gecko) Chrome/79.0.3945.130 Safari/537.36",21,"[0.9, 0.5, 0.1]","[0.8, 0.4, 0.2]","[u'black', u'red', u'blue']","[u'left', u'middle', u'right']","[0.9, 0.5, 0.1]","[u'low', u'medium', u'high']","red",50,"middle","medium","False","False",267,1350,NA
"AZOLOOMYRN1K0","Thu Jan 30 2020 06:31:11 GMT-0700 (Mountain Standard Time)","Thu Jan 30 2020 06:39:09 GMT-0700 (Mountain Standard Time)","Mozilla/5.0 (Windows NT 10.0; Win64; x64) AppleWebKit/537.36 (KHTML, like Gecko) Chrome/79.0.3945.130 Safari/537.36",22,"[0.9, 0.5, 0.1]","[0.8, 0.4, 0.2]","[u'black', u'red', u'blue']","[u'left', u'middle', u'right']","[0.9, 0.5, 0.1]","[u'low', u'medium', u'high']","red",50,"middle","medium","False","False",312,1300,NA
"AZOLOOMYRN1K0","Thu Jan 30 2020 06:31:11 GMT-0700 (Mountain Standard Time)","Thu Jan 30 2020 06:39:09 GMT-0700 (Mountain Standard Time)","Mozilla/5.0 (Windows NT 10.0; Win64; x64) AppleWebKit/537.36 (KHTML, like Gecko) Chrome/79.0.3945.130 Safari/537.36",23,"[0.9, 0.5, 0.1]","[0.8, 0.4, 0.2]","[u'black', u'red', u'blue']","[u'left', u'middle', u'right']","[0.9, 0.5, 0.1]","[u'low', u'medium', u'high']","black",49,"left","low","False","False",274,1250,NA
"AZOLOOMYRN1K0","Thu Jan 30 2020 06:31:11 GMT-0700 (Mountain Standard Time)","Thu Jan 30 2020 06:39:09 GMT-0700 (Mountain Standard Time)","Mozilla/5.0 (Windows NT 10.0; Win64; x64) AppleWebKit/537.36 (KHTML, like Gecko) Chrome/79.0.3945.130 Safari/537.36",24,"[0.9, 0.5, 0.1]","[0.8, 0.4, 0.2]","[u'black', u'red', u'blue']","[u'left', u'middle', u'right']","[0.9, 0.5, 0.1]","[u'low', u'medium', u'high']","blue",51,"right","high","True","False",249,1350,NA
"AZOLOOMYRN1K0","Thu Jan 30 2020 06:31:11 GMT-0700 (Mountain Standard Time)","Thu Jan 30 2020 06:39:09 GMT-0700 (Mountain Standard Time)","Mozilla/5.0 (Windows NT 10.0; Win64; x64) AppleWebKit/537.36 (KHTML, like Gecko) Chrome/79.0.3945.130 Safari/537.36",25,"[0.9, 0.5, 0.1]","[0.8, 0.4, 0.2]","[u'black', u'red', u'blue']","[u'left', u'middle', u'right']","[0.9, 0.5, 0.1]","[u'low', u'medium', u'high']","blue",51,"right","high","True","False",305,1450,NA
"AZOLOOMYRN1K0","Thu Jan 30 2020 06:31:11 GMT-0700 (Mountain Standard Time)","Thu Jan 30 2020 06:39:09 GMT-0700 (Mountain Standard Time)","Mozilla/5.0 (Windows NT 10.0; Win64; x64) AppleWebKit/537.36 (KHTML, like Gecko) Chrome/79.0.3945.130 Safari/537.36",26,"[0.9, 0.5, 0.1]","[0.8, 0.4, 0.2]","[u'black', u'red', u'blue']","[u'left', u'middle', u'right']","[0.9, 0.5, 0.1]","[u'low', u'medium', u'high']","blue",51,"right","high","True","False",256,1550,NA
"AZOLOOMYRN1K0","Thu Jan 30 2020 06:31:11 GMT-0700 (Mountain Standard Time)","Thu Jan 30 2020 06:39:09 GMT-0700 (Mountain Standard Time)","Mozilla/5.0 (Windows NT 10.0; Win64; x64) AppleWebKit/537.36 (KHTML, like Gecko) Chrome/79.0.3945.130 Safari/537.36",27,"[0.9, 0.5, 0.1]","[0.8, 0.4, 0.2]","[u'black', u'red', u'blue']","[u'left', u'middle', u'right']","[0.9, 0.5, 0.1]","[u'low', u'medium', u'high']","blue",51,"right","high","True","False",290,1650,NA
"AZOLOOMYRN1K0","Thu Jan 30 2020 06:31:11 GMT-0700 (Mountain Standard Time)","Thu Jan 30 2020 06:39:09 GMT-0700 (Mountain Standard Time)","Mozilla/5.0 (Windows NT 10.0; Win64; x64) AppleWebKit/537.36 (KHTML, like Gecko) Chrome/79.0.3945.130 Safari/537.36",28,"[0.9, 0.5, 0.1]","[0.8, 0.4, 0.2]","[u'black', u'red', u'blue']","[u'left', u'middle', u'right']","[0.9, 0.5, 0.1]","[u'low', u'medium', u'high']","blue",51,"right","high","False","False",302,1600,NA
"AZOLOOMYRN1K0","Thu Jan 30 2020 06:31:11 GMT-0700 (Mountain Standard Time)","Thu Jan 30 2020 06:39:09 GMT-0700 (Mountain Standard Time)","Mozilla/5.0 (Windows NT 10.0; Win64; x64) AppleWebKit/537.36 (KHTML, like Gecko) Chrome/79.0.3945.130 Safari/537.36",29,"[0.9, 0.5, 0.1]","[0.8, 0.4, 0.2]","[u'black', u'red', u'blue']","[u'left', u'middle', u'right']","[0.9, 0.5, 0.1]","[u'low', u'medium', u'high']","blue",51,"right","high","True","False",259,1700,NA
"AZOLOOMYRN1K0","Thu Jan 30 2020 06:31:11 GMT-0700 (Mountain Standard Time)","Thu Jan 30 2020 06:39:09 GMT-0700 (Mountain Standard Time)","Mozilla/5.0 (Windows NT 10.0; Win64; x64) AppleWebKit/537.36 (KHTML, like Gecko) Chrome/79.0.3945.130 Safari/537.36",30,"[0.9, 0.5, 0.1]","[0.8, 0.4, 0.2]","[u'black', u'red', u'blue']","[u'left', u'middle', u'right']","[0.9, 0.5, 0.1]","[u'low', u'medium', u'high']","blue",51,"right","high","True","False",260,1800,NA
"AZOLOOMYRN1K0","Thu Jan 30 2020 06:31:11 GMT-0700 (Mountain Standard Time)","Thu Jan 30 2020 06:39:09 GMT-0700 (Mountain Standard Time)","Mozilla/5.0 (Windows NT 10.0; Win64; x64) AppleWebKit/537.36 (KHTML, like Gecko) Chrome/79.0.3945.130 Safari/537.36",31,"[0.9, 0.5, 0.1]","[0.8, 0.4, 0.2]","[u'black', u'red', u'blue']","[u'left', u'middle', u'right']","[0.9, 0.5, 0.1]","[u'low', u'medium', u'high']","blue",51,"right","high","True","False",275,1900,NA
"AZOLOOMYRN1K0","Thu Jan 30 2020 06:31:11 GMT-0700 (Mountain Standard Time)","Thu Jan 30 2020 06:39:09 GMT-0700 (Mountain Standard Time)","Mozilla/5.0 (Windows NT 10.0; Win64; x64) AppleWebKit/537.36 (KHTML, like Gecko) Chrome/79.0.3945.130 Safari/537.36",32,"[0.9, 0.5, 0.1]","[0.8, 0.4, 0.2]","[u'black', u'red', u'blue']","[u'left', u'middle', u'right']","[0.9, 0.5, 0.1]","[u'low', u'medium', u'high']","blue",51,"right","high","True","True",262,2000,NA
"AZOLOOMYRN1K0","Thu Jan 30 2020 06:31:11 GMT-0700 (Mountain Standard Time)","Thu Jan 30 2020 06:39:09 GMT-0700 (Mountain Standard Time)","Mozilla/5.0 (Windows NT 10.0; Win64; x64) AppleWebKit/537.36 (KHTML, like Gecko) Chrome/79.0.3945.130 Safari/537.36",33,"[0.9, 0.5, 0.1]","[0.8, 0.4, 0.2]","[u'black', u'red', u'blue']","[u'left', u'middle', u'right']","[0.9, 0.5, 0.1]","[u'medium', u'high', u'low']","blue",51,"right","low","False","False",329,1950,NA
"AZOLOOMYRN1K0","Thu Jan 30 2020 06:31:11 GMT-0700 (Mountain Standard Time)","Thu Jan 30 2020 06:39:09 GMT-0700 (Mountain Standard Time)","Mozilla/5.0 (Windows NT 10.0; Win64; x64) AppleWebKit/537.36 (KHTML, like Gecko) Chrome/79.0.3945.130 Safari/537.36",34,"[0.9, 0.5, 0.1]","[0.8, 0.4, 0.2]","[u'black', u'red', u'blue']","[u'left', u'middle', u'right']","[0.9, 0.5, 0.1]","[u'medium', u'high', u'low']","blue",51,"right","low","False","False",372,1900,NA
"AZOLOOMYRN1K0","Thu Jan 30 2020 06:31:11 GMT-0700 (Mountain Standard Time)","Thu Jan 30 2020 06:39:09 GMT-0700 (Mountain Standard Time)","Mozilla/5.0 (Windows NT 10.0; Win64; x64) AppleWebKit/537.36 (KHTML, like Gecko) Chrome/79.0.3945.130 Safari/537.36",35,"[0.9, 0.5, 0.1]","[0.8, 0.4, 0.2]","[u'black', u'red', u'blue']","[u'left', u'middle', u'right']","[0.9, 0.5, 0.1]","[u'medium', u'high', u'low']","red",50,"middle","high","True","False",309,2000,NA
"AZOLOOMYRN1K0","Thu Jan 30 2020 06:31:11 GMT-0700 (Mountain Standard Time)","Thu Jan 30 2020 06:39:09 GMT-0700 (Mountain Standard Time)","Mozilla/5.0 (Windows NT 10.0; Win64; x64) AppleWebKit/537.36 (KHTML, like Gecko) Chrome/79.0.3945.130 Safari/537.36",36,"[0.9, 0.5, 0.1]","[0.8, 0.4, 0.2]","[u'black', u'red', u'blue']","[u'left', u'middle', u'right']","[0.9, 0.5, 0.1]","[u'medium', u'high', u'low']","red",50,"middle","high","True","False",325,2100,NA
"AZOLOOMYRN1K0","Thu Jan 30 2020 06:31:11 GMT-0700 (Mountain Standard Time)","Thu Jan 30 2020 06:39:09 GMT-0700 (Mountain Standard Time)","Mozilla/5.0 (Windows NT 10.0; Win64; x64) AppleWebKit/537.36 (KHTML, like Gecko) Chrome/79.0.3945.130 Safari/537.36",37,"[0.9, 0.5, 0.1]","[0.8, 0.4, 0.2]","[u'black', u'red', u'blue']","[u'left', u'middle', u'right']","[0.9, 0.5, 0.1]","[u'medium', u'high', u'low']","red",50,"middle","high","False","False",323,2050,NA
"AZOLOOMYRN1K0","Thu Jan 30 2020 06:31:11 GMT-0700 (Mountain Standard Time)","Thu Jan 30 2020 06:39:09 GMT-0700 (Mountain Standard Time)","Mozilla/5.0 (Windows NT 10.0; Win64; x64) AppleWebKit/537.36 (KHTML, like Gecko) Chrome/79.0.3945.130 Safari/537.36",38,"[0.9, 0.5, 0.1]","[0.8, 0.4, 0.2]","[u'black', u'red', u'blue']","[u'left', u'middle', u'right']","[0.9, 0.5, 0.1]","[u'medium', u'high', u'low']","red",50,"middle","high","True","False",290,2150,NA
"AZOLOOMYRN1K0","Thu Jan 30 2020 06:31:11 GMT-0700 (Mountain Standard Time)","Thu Jan 30 2020 06:39:09 GMT-0700 (Mountain Standard Time)","Mozilla/5.0 (Windows NT 10.0; Win64; x64) AppleWebKit/537.36 (KHTML, like Gecko) Chrome/79.0.3945.130 Safari/537.36",39,"[0.9, 0.5, 0.1]","[0.8, 0.4, 0.2]","[u'black', u'red', u'blue']","[u'left', u'middle', u'right']","[0.9, 0.5, 0.1]","[u'medium', u'high', u'low']","red",50,"middle","high","False","False",380,2100,NA
"AZOLOOMYRN1K0","Thu Jan 30 2020 06:31:11 GMT-0700 (Mountain Standard Time)","Thu Jan 30 2020 06:39:09 GMT-0700 (Mountain Standard Time)","Mozilla/5.0 (Windows NT 10.0; Win64; x64) AppleWebKit/537.36 (KHTML, like Gecko) Chrome/79.0.3945.130 Safari/537.36",40,"[0.9, 0.5, 0.1]","[0.8, 0.4, 0.2]","[u'black', u'red', u'blue']","[u'left', u'middle', u'right']","[0.9, 0.5, 0.1]","[u'medium', u'high', u'low']","red",50,"middle","high","False","False",293,2050,NA
"AZOLOOMYRN1K0","Thu Jan 30 2020 06:31:11 GMT-0700 (Mountain Standard Time)","Thu Jan 30 2020 06:39:09 GMT-0700 (Mountain Standard Time)","Mozilla/5.0 (Windows NT 10.0; Win64; x64) AppleWebKit/537.36 (KHTML, like Gecko) Chrome/79.0.3945.130 Safari/537.36",41,"[0.9, 0.5, 0.1]","[0.8, 0.4, 0.2]","[u'black', u'red', u'blue']","[u'left', u'middle', u'right']","[0.9, 0.5, 0.1]","[u'low', u'medium', u'high']","blue",51,"right","high","True","False",610,2150,NA
"AZOLOOMYRN1K0","Thu Jan 30 2020 06:31:11 GMT-0700 (Mountain Standard Time)","Thu Jan 30 2020 06:39:09 GMT-0700 (Mountain Standard Time)","Mozilla/5.0 (Windows NT 10.0; Win64; x64) AppleWebKit/537.36 (KHTML, like Gecko) Chrome/79.0.3945.130 Safari/537.36",42,"[0.9, 0.5, 0.1]","[0.8, 0.4, 0.2]","[u'black', u'red', u'blue']","[u'left', u'middle', u'right']","[0.9, 0.5, 0.1]","[u'low', u'medium', u'high']","blue",51,"right","high","True","False",352,2250,NA
"AZOLOOMYRN1K0","Thu Jan 30 2020 06:31:11 GMT-0700 (Mountain Standard Time)","Thu Jan 30 2020 06:39:09 GMT-0700 (Mountain Standard Time)","Mozilla/5.0 (Windows NT 10.0; Win64; x64) AppleWebKit/537.36 (KHTML, like Gecko) Chrome/79.0.3945.130 Safari/537.36",43,"[0.9, 0.5, 0.1]","[0.8, 0.4, 0.2]","[u'black', u'red', u'blue']","[u'left', u'middle', u'right']","[0.9, 0.5, 0.1]","[u'low', u'medium', u'high']","blue",51,"right","high","True","False",335,2350,NA
"AZOLOOMYRN1K0","Thu Jan 30 2020 06:31:11 GMT-0700 (Mountain Standard Time)","Thu Jan 30 2020 06:39:09 GMT-0700 (Mountain Standard Time)","Mozilla/5.0 (Windows NT 10.0; Win64; x64) AppleWebKit/537.36 (KHTML, like Gecko) Chrome/79.0.3945.130 Safari/537.36",44,"[0.9, 0.5, 0.1]","[0.8, 0.4, 0.2]","[u'black', u'red', u'blue']","[u'left', u'middle', u'right']","[0.9, 0.5, 0.1]","[u'low', u'medium', u'high']","blue",51,"right","high","True","False",284,2450,NA
"AZOLOOMYRN1K0","Thu Jan 30 2020 06:31:11 GMT-0700 (Mountain Standard Time)","Thu Jan 30 2020 06:39:09 GMT-0700 (Mountain Standard Time)","Mozilla/5.0 (Windows NT 10.0; Win64; x64) AppleWebKit/537.36 (KHTML, like Gecko) Chrome/79.0.3945.130 Safari/537.36",45,"[0.9, 0.5, 0.1]","[0.8, 0.4, 0.2]","[u'black', u'red', u'blue']","[u'left', u'middle', u'right']","[0.9, 0.5, 0.1]","[u'low', u'medium', u'high']","blue",51,"right","high","True","False",301,2550,NA
"AZOLOOMYRN1K0","Thu Jan 30 2020 06:31:11 GMT-0700 (Mountain Standard Time)","Thu Jan 30 2020 06:39:09 GMT-0700 (Mountain Standard Time)","Mozilla/5.0 (Windows NT 10.0; Win64; x64) AppleWebKit/537.36 (KHTML, like Gecko) Chrome/79.0.3945.130 Safari/537.36",46,"[0.9, 0.5, 0.1]","[0.8, 0.4, 0.2]","[u'black', u'red', u'blue']","[u'left', u'middle', u'right']","[0.9, 0.5, 0.1]","[u'low', u'medium', u'high']","blue",51,"right","high","False","False",341,2500,NA
"AZOLOOMYRN1K0","Thu Jan 30 2020 06:31:11 GMT-0700 (Mountain Standard Time)","Thu Jan 30 2020 06:39:09 GMT-0700 (Mountain Standard Time)","Mozilla/5.0 (Windows NT 10.0; Win64; x64) AppleWebKit/537.36 (KHTML, like Gecko) Chrome/79.0.3945.130 Safari/537.36",47,"[0.9, 0.5, 0.1]","[0.8, 0.4, 0.2]","[u'black', u'red', u'blue']","[u'left', u'middle', u'right']","[0.9, 0.5, 0.1]","[u'low', u'medium', u'high']","blue",51,"right","high","True","False",250,2600,NA
"AZOLOOMYRN1K0","Thu Jan 30 2020 06:31:11 GMT-0700 (Mountain Standard Time)","Thu Jan 30 2020 06:39:09 GMT-0700 (Mountain Standard Time)","Mozilla/5.0 (Windows NT 10.0; Win64; x64) AppleWebKit/537.36 (KHTML, like Gecko) Chrome/79.0.3945.130 Safari/537.36",48,"[0.9, 0.5, 0.1]","[0.8, 0.4, 0.2]","[u'black', u'red', u'blue']","[u'left', u'middle', u'right']","[0.9, 0.5, 0.1]","[u'low', u'medium', u'high']","blue",51,"right","high","True","False",417,2700,NA
"AZOLOOMYRN1K0","Thu Jan 30 2020 06:31:11 GMT-0700 (Mountain Standard Time)","Thu Jan 30 2020 06:39:09 GMT-0700 (Mountain Standard Time)","Mozilla/5.0 (Windows NT 10.0; Win64; x64) AppleWebKit/537.36 (KHTML, like Gecko) Chrome/79.0.3945.130 Safari/537.36",49,"[0.9, 0.5, 0.1]","[0.8, 0.4, 0.2]","[u'black', u'red', u'blue']","[u'left', u'middle', u'right']","[0.9, 0.5, 0.1]","[u'low', u'medium', u'high']","blue",51,"right","high","True","True",303,2800,NA
"AZOLOOMYRN1K0","Thu Jan 30 2020 06:31:11 GMT-0700 (Mountain Standard Time)","Thu Jan 30 2020 06:39:09 GMT-0700 (Mountain Standard Time)","Mozilla/5.0 (Windows NT 10.0; Win64; x64) AppleWebKit/537.36 (KHTML, like Gecko) Chrome/79.0.3945.130 Safari/537.36",50,"[0.9, 0.5, 0.1]","[0.8, 0.4, 0.2]","[u'black', u'red', u'blue']","[u'left', u'middle', u'right']","[0.9, 0.5, 0.1]","[u'medium', u'high', u'low']","blue",51,"right","low","False","False",324,2750,NA
"AZOLOOMYRN1K0","Thu Jan 30 2020 06:31:11 GMT-0700 (Mountain Standard Time)","Thu Jan 30 2020 06:39:09 GMT-0700 (Mountain Standard Time)","Mozilla/5.0 (Windows NT 10.0; Win64; x64) AppleWebKit/537.36 (KHTML, like Gecko) Chrome/79.0.3945.130 Safari/537.36",51,"[0.9, 0.5, 0.1]","[0.8, 0.4, 0.2]","[u'black', u'red', u'blue']","[u'left', u'middle', u'right']","[0.9, 0.5, 0.1]","[u'medium', u'high', u'low']","blue",51,"right","low","False","False",219,2700,NA
"AZOLOOMYRN1K0","Thu Jan 30 2020 06:31:11 GMT-0700 (Mountain Standard Time)","Thu Jan 30 2020 06:39:09 GMT-0700 (Mountain Standard Time)","Mozilla/5.0 (Windows NT 10.0; Win64; x64) AppleWebKit/537.36 (KHTML, like Gecko) Chrome/79.0.3945.130 Safari/537.36",52,"[0.9, 0.5, 0.1]","[0.8, 0.4, 0.2]","[u'black', u'red', u'blue']","[u'left', u'middle', u'right']","[0.9, 0.5, 0.1]","[u'medium', u'high', u'low']","red",50,"middle","high","True","False",253,2800,NA
"AZOLOOMYRN1K0","Thu Jan 30 2020 06:31:11 GMT-0700 (Mountain Standard Time)","Thu Jan 30 2020 06:39:09 GMT-0700 (Mountain Standard Time)","Mozilla/5.0 (Windows NT 10.0; Win64; x64) AppleWebKit/537.36 (KHTML, like Gecko) Chrome/79.0.3945.130 Safari/537.36",53,"[0.9, 0.5, 0.1]","[0.8, 0.4, 0.2]","[u'black', u'red', u'blue']","[u'left', u'middle', u'right']","[0.9, 0.5, 0.1]","[u'medium', u'high', u'low']","red",50,"middle","high","True","False",248,2900,NA
"AZOLOOMYRN1K0","Thu Jan 30 2020 06:31:11 GMT-0700 (Mountain Standard Time)","Thu Jan 30 2020 06:39:09 GMT-0700 (Mountain Standard Time)","Mozilla/5.0 (Windows NT 10.0; Win64; x64) AppleWebKit/537.36 (KHTML, like Gecko) Chrome/79.0.3945.130 Safari/537.36",54,"[0.9, 0.5, 0.1]","[0.8, 0.4, 0.2]","[u'black', u'red', u'blue']","[u'left', u'middle', u'right']","[0.9, 0.5, 0.1]","[u'medium', u'high', u'low']","red",50,"middle","high","True","False",312,3000,NA
"AZOLOOMYRN1K0","Thu Jan 30 2020 06:31:11 GMT-0700 (Mountain Standard Time)","Thu Jan 30 2020 06:39:09 GMT-0700 (Mountain Standard Time)","Mozilla/5.0 (Windows NT 10.0; Win64; x64) AppleWebKit/537.36 (KHTML, like Gecko) Chrome/79.0.3945.130 Safari/537.36",55,"[0.9, 0.5, 0.1]","[0.8, 0.4, 0.2]","[u'black', u'red', u'blue']","[u'left', u'middle', u'right']","[0.9, 0.5, 0.1]","[u'medium', u'high', u'low']","red",50,"middle","high","True","False",252,3100,NA
"AZOLOOMYRN1K0","Thu Jan 30 2020 06:31:11 GMT-0700 (Mountain Standard Time)","Thu Jan 30 2020 06:39:09 GMT-0700 (Mountain Standard Time)","Mozilla/5.0 (Windows NT 10.0; Win64; x64) AppleWebKit/537.36 (KHTML, like Gecko) Chrome/79.0.3945.130 Safari/537.36",56,"[0.9, 0.5, 0.1]","[0.8, 0.4, 0.2]","[u'black', u'red', u'blue']","[u'left', u'middle', u'right']","[0.9, 0.5, 0.1]","[u'medium', u'high', u'low']","red",50,"middle","high","False","False",270,3050,NA
"AZOLOOMYRN1K0","Thu Jan 30 2020 06:31:11 GMT-0700 (Mountain Standard Time)","Thu Jan 30 2020 06:39:09 GMT-0700 (Mountain Standard Time)","Mozilla/5.0 (Windows NT 10.0; Win64; x64) AppleWebKit/537.36 (KHTML, like Gecko) Chrome/79.0.3945.130 Safari/537.36",57,"[0.9, 0.5, 0.1]","[0.8, 0.4, 0.2]","[u'black', u'red', u'blue']","[u'left', u'middle', u'right']","[0.9, 0.5, 0.1]","[u'medium', u'high', u'low']","red",50,"middle","high","True","False",657,3150,NA
"AZOLOOMYRN1K0","Thu Jan 30 2020 06:31:11 GMT-0700 (Mountain Standard Time)","Thu Jan 30 2020 06:39:09 GMT-0700 (Mountain Standard Time)","Mozilla/5.0 (Windows NT 10.0; Win64; x64) AppleWebKit/537.36 (KHTML, like Gecko) Chrome/79.0.3945.130 Safari/537.36",58,"[0.9, 0.5, 0.1]","[0.8, 0.4, 0.2]","[u'black', u'red', u'blue']","[u'left', u'middle', u'right']","[0.9, 0.5, 0.1]","[u'medium', u'high', u'low']","red",50,"middle","high","True","False",313,3250,NA
"AZOLOOMYRN1K0","Thu Jan 30 2020 06:31:11 GMT-0700 (Mountain Standard Time)","Thu Jan 30 2020 06:39:09 GMT-0700 (Mountain Standard Time)","Mozilla/5.0 (Windows NT 10.0; Win64; x64) AppleWebKit/537.36 (KHTML, like Gecko) Chrome/79.0.3945.130 Safari/537.36",59,"[0.9, 0.5, 0.1]","[0.8, 0.4, 0.2]","[u'black', u'red', u'blue']","[u'left', u'middle', u'right']","[0.9, 0.5, 0.1]","[u'medium', u'high', u'low']","red",50,"middle","high","False","False",318,3200,NA
"AZOLOOMYRN1K0","Thu Jan 30 2020 06:31:11 GMT-0700 (Mountain Standard Time)","Thu Jan 30 2020 06:39:09 GMT-0700 (Mountain Standard Time)","Mozilla/5.0 (Windows NT 10.0; Win64; x64) AppleWebKit/537.36 (KHTML, like Gecko) Chrome/79.0.3945.130 Safari/537.36",60,"[0.9, 0.5, 0.1]","[0.8, 0.4, 0.2]","[u'black', u'red', u'blue']","[u'left', u'middle', u'right']","[0.9, 0.5, 0.1]","[u'medium', u'high', u'low']","red",50,"middle","high","False","True",263,3150,NA
"AZOLOOMYRN1K0","Thu Jan 30 2020 06:31:11 GMT-0700 (Mountain Standard Time)","Thu Jan 30 2020 06:39:09 GMT-0700 (Mountain Standard Time)","Mozilla/5.0 (Windows NT 10.0; Win64; x64) AppleWebKit/537.36 (KHTML, like Gecko) Chrome/79.0.3945.130 Safari/537.36",61,"[0.9, 0.5, 0.1]","[0.8, 0.4, 0.2]","[u'black', u'red', u'blue']","[u'left', u'middle', u'right']","[0.9, 0.5, 0.1]","[u'high', u'low', u'medium']","black",49,"left","high","True","False",258,3250,NA
"AZOLOOMYRN1K0","Thu Jan 30 2020 06:31:11 GMT-0700 (Mountain Standard Time)","Thu Jan 30 2020 06:39:09 GMT-0700 (Mountain Standard Time)","Mozilla/5.0 (Windows NT 10.0; Win64; x64) AppleWebKit/537.36 (KHTML, like Gecko) Chrome/79.0.3945.130 Safari/537.36",62,"[0.9, 0.5, 0.1]","[0.8, 0.4, 0.2]","[u'black', u'red', u'blue']","[u'left', u'middle', u'right']","[0.9, 0.5, 0.1]","[u'high', u'low', u'medium']","black",49,"left","high","True","False",292,3350,NA
"AZOLOOMYRN1K0","Thu Jan 30 2020 06:31:11 GMT-0700 (Mountain Standard Time)","Thu Jan 30 2020 06:39:09 GMT-0700 (Mountain Standard Time)","Mozilla/5.0 (Windows NT 10.0; Win64; x64) AppleWebKit/537.36 (KHTML, like Gecko) Chrome/79.0.3945.130 Safari/537.36",63,"[0.9, 0.5, 0.1]","[0.8, 0.4, 0.2]","[u'black', u'red', u'blue']","[u'left', u'middle', u'right']","[0.9, 0.5, 0.1]","[u'high', u'low', u'medium']","black",49,"left","high","True","False",493,3450,NA
"AZOLOOMYRN1K0","Thu Jan 30 2020 06:31:11 GMT-0700 (Mountain Standard Time)","Thu Jan 30 2020 06:39:09 GMT-0700 (Mountain Standard Time)","Mozilla/5.0 (Windows NT 10.0; Win64; x64) AppleWebKit/537.36 (KHTML, like Gecko) Chrome/79.0.3945.130 Safari/537.36",64,"[0.9, 0.5, 0.1]","[0.8, 0.4, 0.2]","[u'black', u'red', u'blue']","[u'left', u'middle', u'right']","[0.9, 0.5, 0.1]","[u'high', u'low', u'medium']","black",49,"left","high","True","False",312,3550,NA
"AZOLOOMYRN1K0","Thu Jan 30 2020 06:31:11 GMT-0700 (Mountain Standard Time)","Thu Jan 30 2020 06:39:09 GMT-0700 (Mountain Standard Time)","Mozilla/5.0 (Windows NT 10.0; Win64; x64) AppleWebKit/537.36 (KHTML, like Gecko) Chrome/79.0.3945.130 Safari/537.36",65,"[0.9, 0.5, 0.1]","[0.8, 0.4, 0.2]","[u'black', u'red', u'blue']","[u'left', u'middle', u'right']","[0.9, 0.5, 0.1]","[u'high', u'low', u'medium']","black",49,"left","high","True","False",313,3650,NA
"AZOLOOMYRN1K0","Thu Jan 30 2020 06:31:11 GMT-0700 (Mountain Standard Time)","Thu Jan 30 2020 06:39:09 GMT-0700 (Mountain Standard Time)","Mozilla/5.0 (Windows NT 10.0; Win64; x64) AppleWebKit/537.36 (KHTML, like Gecko) Chrome/79.0.3945.130 Safari/537.36",66,"[0.9, 0.5, 0.1]","[0.8, 0.4, 0.2]","[u'black', u'red', u'blue']","[u'left', u'middle', u'right']","[0.9, 0.5, 0.1]","[u'high', u'low', u'medium']","black",49,"left","high","True","False",282,3750,NA
"AZOLOOMYRN1K0","Thu Jan 30 2020 06:31:11 GMT-0700 (Mountain Standard Time)","Thu Jan 30 2020 06:39:09 GMT-0700 (Mountain Standard Time)","Mozilla/5.0 (Windows NT 10.0; Win64; x64) AppleWebKit/537.36 (KHTML, like Gecko) Chrome/79.0.3945.130 Safari/537.36",67,"[0.9, 0.5, 0.1]","[0.8, 0.4, 0.2]","[u'black', u'red', u'blue']","[u'left', u'middle', u'right']","[0.9, 0.5, 0.1]","[u'high', u'low', u'medium']","black",49,"left","high","True","False",298,3850,NA
"AZOLOOMYRN1K0","Thu Jan 30 2020 06:31:11 GMT-0700 (Mountain Standard Time)","Thu Jan 30 2020 06:39:09 GMT-0700 (Mountain Standard Time)","Mozilla/5.0 (Windows NT 10.0; Win64; x64) AppleWebKit/537.36 (KHTML, like Gecko) Chrome/79.0.3945.130 Safari/537.36",68,"[0.9, 0.5, 0.1]","[0.8, 0.4, 0.2]","[u'black', u'red', u'blue']","[u'left', u'middle', u'right']","[0.9, 0.5, 0.1]","[u'high', u'low', u'medium']","black",49,"left","high","True","False",278,3950,NA
"AZOLOOMYRN1K0","Thu Jan 30 2020 06:31:11 GMT-0700 (Mountain Standard Time)","Thu Jan 30 2020 06:39:09 GMT-0700 (Mountain Standard Time)","Mozilla/5.0 (Windows NT 10.0; Win64; x64) AppleWebKit/537.36 (KHTML, like Gecko) Chrome/79.0.3945.130 Safari/537.36",69,"[0.9, 0.5, 0.1]","[0.8, 0.4, 0.2]","[u'black', u'red', u'blue']","[u'left', u'middle', u'right']","[0.9, 0.5, 0.1]","[u'high', u'low', u'medium']","black",49,"left","high","True","True",265,4050,NA
"AZOLOOMYRN1K0","Thu Jan 30 2020 06:31:11 GMT-0700 (Mountain Standard Time)","Thu Jan 30 2020 06:39:09 GMT-0700 (Mountain Standard Time)","Mozilla/5.0 (Windows NT 10.0; Win64; x64) AppleWebKit/537.36 (KHTML, like Gecko) Chrome/79.0.3945.130 Safari/537.36",70,"[0.9, 0.5, 0.1]","[0.8, 0.4, 0.2]","[u'black', u'red', u'blue']","[u'left', u'middle', u'right']","[0.9, 0.5, 0.1]","[u'low', u'high', u'medium']","black",49,"left","low","False","False",247,4000,NA
"AZOLOOMYRN1K0","Thu Jan 30 2020 06:31:11 GMT-0700 (Mountain Standard Time)","Thu Jan 30 2020 06:39:09 GMT-0700 (Mountain Standard Time)","Mozilla/5.0 (Windows NT 10.0; Win64; x64) AppleWebKit/537.36 (KHTML, like Gecko) Chrome/79.0.3945.130 Safari/537.36",71,"[0.9, 0.5, 0.1]","[0.8, 0.4, 0.2]","[u'black', u'red', u'blue']","[u'left', u'middle', u'right']","[0.9, 0.5, 0.1]","[u'low', u'high', u'medium']","black",49,"left","low","False","False",225,3950,NA
"AZOLOOMYRN1K0","Thu Jan 30 2020 06:31:11 GMT-0700 (Mountain Standard Time)","Thu Jan 30 2020 06:39:09 GMT-0700 (Mountain Standard Time)","Mozilla/5.0 (Windows NT 10.0; Win64; x64) AppleWebKit/537.36 (KHTML, like Gecko) Chrome/79.0.3945.130 Safari/537.36",72,"[0.9, 0.5, 0.1]","[0.8, 0.4, 0.2]","[u'black', u'red', u'blue']","[u'left', u'middle', u'right']","[0.9, 0.5, 0.1]","[u'low', u'high', u'medium']","blue",51,"right","medium","True","False",244,4050,NA
"AZOLOOMYRN1K0","Thu Jan 30 2020 06:31:11 GMT-0700 (Mountain Standard Time)","Thu Jan 30 2020 06:39:09 GMT-0700 (Mountain Standard Time)","Mozilla/5.0 (Windows NT 10.0; Win64; x64) AppleWebKit/537.36 (KHTML, like Gecko) Chrome/79.0.3945.130 Safari/537.36",73,"[0.9, 0.5, 0.1]","[0.8, 0.4, 0.2]","[u'black', u'red', u'blue']","[u'left', u'middle', u'right']","[0.9, 0.5, 0.1]","[u'low', u'high', u'medium']","blue",51,"right","medium","True","False",251,4150,NA
"AZOLOOMYRN1K0","Thu Jan 30 2020 06:31:11 GMT-0700 (Mountain Standard Time)","Thu Jan 30 2020 06:39:09 GMT-0700 (Mountain Standard Time)","Mozilla/5.0 (Windows NT 10.0; Win64; x64) AppleWebKit/537.36 (KHTML, like Gecko) Chrome/79.0.3945.130 Safari/537.36",74,"[0.9, 0.5, 0.1]","[0.8, 0.4, 0.2]","[u'black', u'red', u'blue']","[u'left', u'middle', u'right']","[0.9, 0.5, 0.1]","[u'low', u'high', u'medium']","blue",51,"right","medium","True","False",370,4250,NA
"AZOLOOMYRN1K0","Thu Jan 30 2020 06:31:11 GMT-0700 (Mountain Standard Time)","Thu Jan 30 2020 06:39:09 GMT-0700 (Mountain Standard Time)","Mozilla/5.0 (Windows NT 10.0; Win64; x64) AppleWebKit/537.36 (KHTML, like Gecko) Chrome/79.0.3945.130 Safari/537.36",75,"[0.9, 0.5, 0.1]","[0.8, 0.4, 0.2]","[u'black', u'red', u'blue']","[u'left', u'middle', u'right']","[0.9, 0.5, 0.1]","[u'low', u'high', u'medium']","blue",51,"right","medium","False","False",281,4200,NA
"AZOLOOMYRN1K0","Thu Jan 30 2020 06:31:11 GMT-0700 (Mountain Standard Time)","Thu Jan 30 2020 06:39:09 GMT-0700 (Mountain Standard Time)","Mozilla/5.0 (Windows NT 10.0; Win64; x64) AppleWebKit/537.36 (KHTML, like Gecko) Chrome/79.0.3945.130 Safari/537.36",76,"[0.9, 0.5, 0.1]","[0.8, 0.4, 0.2]","[u'black', u'red', u'blue']","[u'left', u'middle', u'right']","[0.9, 0.5, 0.1]","[u'low', u'high', u'medium']","blue",51,"right","medium","False","False",257,4150,NA
"AZOLOOMYRN1K0","Thu Jan 30 2020 06:31:11 GMT-0700 (Mountain Standard Time)","Thu Jan 30 2020 06:39:09 GMT-0700 (Mountain Standard Time)","Mozilla/5.0 (Windows NT 10.0; Win64; x64) AppleWebKit/537.36 (KHTML, like Gecko) Chrome/79.0.3945.130 Safari/537.36",77,"[0.9, 0.5, 0.1]","[0.8, 0.4, 0.2]","[u'black', u'red', u'blue']","[u'left', u'middle', u'right']","[0.9, 0.5, 0.1]","[u'low', u'high', u'medium']","red",50,"middle","high","True","False",257,4250,NA
"AZOLOOMYRN1K0","Thu Jan 30 2020 06:31:11 GMT-0700 (Mountain Standard Time)","Thu Jan 30 2020 06:39:09 GMT-0700 (Mountain Standard Time)","Mozilla/5.0 (Windows NT 10.0; Win64; x64) AppleWebKit/537.36 (KHTML, like Gecko) Chrome/79.0.3945.130 Safari/537.36",78,"[0.9, 0.5, 0.1]","[0.8, 0.4, 0.2]","[u'black', u'red', u'blue']","[u'left', u'middle', u'right']","[0.9, 0.5, 0.1]","[u'low', u'high', u'medium']","red",50,"middle","high","True","False",246,4350,NA
"AZOLOOMYRN1K0","Thu Jan 30 2020 06:31:11 GMT-0700 (Mountain Standard Time)","Thu Jan 30 2020 06:39:09 GMT-0700 (Mountain Standard Time)","Mozilla/5.0 (Windows NT 10.0; Win64; x64) AppleWebKit/537.36 (KHTML, like Gecko) Chrome/79.0.3945.130 Safari/537.36",79,"[0.9, 0.5, 0.1]","[0.8, 0.4, 0.2]","[u'black', u'red', u'blue']","[u'left', u'middle', u'right']","[0.9, 0.5, 0.1]","[u'low', u'high', u'medium']","red",50,"middle","high","True","False",311,4450,NA
"AZOLOOMYRN1K0","Thu Jan 30 2020 06:31:11 GMT-0700 (Mountain Standard Time)","Thu Jan 30 2020 06:39:09 GMT-0700 (Mountain Standard Time)","Mozilla/5.0 (Windows NT 10.0; Win64; x64) AppleWebKit/537.36 (KHTML, like Gecko) Chrome/79.0.3945.130 Safari/537.36",80,"[0.9, 0.5, 0.1]","[0.8, 0.4, 0.2]","[u'black', u'red', u'blue']","[u'left', u'middle', u'right']","[0.9, 0.5, 0.1]","[u'low', u'high', u'medium']","red",50,"middle","high","True","False",248,4550,NA
"AZOLOOMYRN1K0","Thu Jan 30 2020 06:31:11 GMT-0700 (Mountain Standard Time)","Thu Jan 30 2020 06:39:09 GMT-0700 (Mountain Standard Time)","Mozilla/5.0 (Windows NT 10.0; Win64; x64) AppleWebKit/537.36 (KHTML, like Gecko) Chrome/79.0.3945.130 Safari/537.36",81,"[0.9, 0.5, 0.1]","[0.8, 0.4, 0.2]","[u'black', u'red', u'blue']","[u'left', u'middle', u'right']","[0.8, 0.4, 0.2]","[u'high', u'low', u'medium']","red",50,"middle","low","False","False",506,4500,NA
"AZOLOOMYRN1K0","Thu Jan 30 2020 06:31:11 GMT-0700 (Mountain Standard Time)","Thu Jan 30 2020 06:39:09 GMT-0700 (Mountain Standard Time)","Mozilla/5.0 (Windows NT 10.0; Win64; x64) AppleWebKit/537.36 (KHTML, like Gecko) Chrome/79.0.3945.130 Safari/537.36",82,"[0.9, 0.5, 0.1]","[0.8, 0.4, 0.2]","[u'black', u'red', u'blue']","[u'left', u'middle', u'right']","[0.8, 0.4, 0.2]","[u'high', u'low', u'medium']","blue",51,"right","medium","True","False",349,4600,NA
"AZOLOOMYRN1K0","Thu Jan 30 2020 06:31:11 GMT-0700 (Mountain Standard Time)","Thu Jan 30 2020 06:39:09 GMT-0700 (Mountain Standard Time)","Mozilla/5.0 (Windows NT 10.0; Win64; x64) AppleWebKit/537.36 (KHTML, like Gecko) Chrome/79.0.3945.130 Safari/537.36",83,"[0.9, 0.5, 0.1]","[0.8, 0.4, 0.2]","[u'black', u'red', u'blue']","[u'left', u'middle', u'right']","[0.8, 0.4, 0.2]","[u'high', u'low', u'medium']","blue",51,"right","medium","False","False",264,4550,NA
"AZOLOOMYRN1K0","Thu Jan 30 2020 06:31:11 GMT-0700 (Mountain Standard Time)","Thu Jan 30 2020 06:39:09 GMT-0700 (Mountain Standard Time)","Mozilla/5.0 (Windows NT 10.0; Win64; x64) AppleWebKit/537.36 (KHTML, like Gecko) Chrome/79.0.3945.130 Safari/537.36",84,"[0.9, 0.5, 0.1]","[0.8, 0.4, 0.2]","[u'black', u'red', u'blue']","[u'left', u'middle', u'right']","[0.8, 0.4, 0.2]","[u'high', u'low', u'medium']","blue",51,"right","medium","False","False",266,4500,NA
"AZOLOOMYRN1K0","Thu Jan 30 2020 06:31:11 GMT-0700 (Mountain Standard Time)","Thu Jan 30 2020 06:39:09 GMT-0700 (Mountain Standard Time)","Mozilla/5.0 (Windows NT 10.0; Win64; x64) AppleWebKit/537.36 (KHTML, like Gecko) Chrome/79.0.3945.130 Safari/537.36",85,"[0.9, 0.5, 0.1]","[0.8, 0.4, 0.2]","[u'black', u'red', u'blue']","[u'left', u'middle', u'right']","[0.8, 0.4, 0.2]","[u'high', u'low', u'medium']","black",49,"left","high","True","False",216,4600,NA
"AZOLOOMYRN1K0","Thu Jan 30 2020 06:31:11 GMT-0700 (Mountain Standard Time)","Thu Jan 30 2020 06:39:09 GMT-0700 (Mountain Standard Time)","Mozilla/5.0 (Windows NT 10.0; Win64; x64) AppleWebKit/537.36 (KHTML, like Gecko) Chrome/79.0.3945.130 Safari/537.36",86,"[0.9, 0.5, 0.1]","[0.8, 0.4, 0.2]","[u'black', u'red', u'blue']","[u'left', u'middle', u'right']","[0.8, 0.4, 0.2]","[u'high', u'low', u'medium']","black",49,"left","high","False","False",263,4550,NA
"AZOLOOMYRN1K0","Thu Jan 30 2020 06:31:11 GMT-0700 (Mountain Standard Time)","Thu Jan 30 2020 06:39:09 GMT-0700 (Mountain Standard Time)","Mozilla/5.0 (Windows NT 10.0; Win64; x64) AppleWebKit/537.36 (KHTML, like Gecko) Chrome/79.0.3945.130 Safari/537.36",87,"[0.9, 0.5, 0.1]","[0.8, 0.4, 0.2]","[u'black', u'red', u'blue']","[u'left', u'middle', u'right']","[0.8, 0.4, 0.2]","[u'high', u'low', u'medium']","black",49,"left","high","False","False",277,4500,NA
"AZOLOOMYRN1K0","Thu Jan 30 2020 06:31:11 GMT-0700 (Mountain Standard Time)","Thu Jan 30 2020 06:39:09 GMT-0700 (Mountain Standard Time)","Mozilla/5.0 (Windows NT 10.0; Win64; x64) AppleWebKit/537.36 (KHTML, like Gecko) Chrome/79.0.3945.130 Safari/537.36",88,"[0.9, 0.5, 0.1]","[0.8, 0.4, 0.2]","[u'black', u'red', u'blue']","[u'left', u'middle', u'right']","[0.8, 0.4, 0.2]","[u'high', u'low', u'medium']","red",50,"middle","low","False","False",242,4450,NA
"AZOLOOMYRN1K0","Thu Jan 30 2020 06:31:11 GMT-0700 (Mountain Standard Time)","Thu Jan 30 2020 06:39:09 GMT-0700 (Mountain Standard Time)","Mozilla/5.0 (Windows NT 10.0; Win64; x64) AppleWebKit/537.36 (KHTML, like Gecko) Chrome/79.0.3945.130 Safari/537.36",89,"[0.9, 0.5, 0.1]","[0.8, 0.4, 0.2]","[u'black', u'red', u'blue']","[u'left', u'middle', u'right']","[0.8, 0.4, 0.2]","[u'high', u'low', u'medium']","red",50,"middle","low","False","False",286,4400,NA
"AZOLOOMYRN1K0","Thu Jan 30 2020 06:31:11 GMT-0700 (Mountain Standard Time)","Thu Jan 30 2020 06:39:09 GMT-0700 (Mountain Standard Time)","Mozilla/5.0 (Windows NT 10.0; Win64; x64) AppleWebKit/537.36 (KHTML, like Gecko) Chrome/79.0.3945.130 Safari/537.36",90,"[0.9, 0.5, 0.1]","[0.8, 0.4, 0.2]","[u'black', u'red', u'blue']","[u'left', u'middle', u'right']","[0.8, 0.4, 0.2]","[u'high', u'low', u'medium']","red",50,"middle","low","False","False",252,4350,NA
"AZOLOOMYRN1K0","Thu Jan 30 2020 06:31:11 GMT-0700 (Mountain Standard Time)","Thu Jan 30 2020 06:39:09 GMT-0700 (Mountain Standard Time)","Mozilla/5.0 (Windows NT 10.0; Win64; x64) AppleWebKit/537.36 (KHTML, like Gecko) Chrome/79.0.3945.130 Safari/537.36",91,"[0.9, 0.5, 0.1]","[0.8, 0.4, 0.2]","[u'black', u'red', u'blue']","[u'left', u'middle', u'right']","[0.8, 0.4, 0.2]","[u'high', u'low', u'medium']","blue",51,"right","medium","False","False",248,4300,NA
"AZOLOOMYRN1K0","Thu Jan 30 2020 06:31:11 GMT-0700 (Mountain Standard Time)","Thu Jan 30 2020 06:39:09 GMT-0700 (Mountain Standard Time)","Mozilla/5.0 (Windows NT 10.0; Win64; x64) AppleWebKit/537.36 (KHTML, like Gecko) Chrome/79.0.3945.130 Safari/537.36",92,"[0.9, 0.5, 0.1]","[0.8, 0.4, 0.2]","[u'black', u'red', u'blue']","[u'left', u'middle', u'right']","[0.8, 0.4, 0.2]","[u'high', u'low', u'medium']","blue",51,"right","medium","True","False",236,4400,NA
"AZOLOOMYRN1K0","Thu Jan 30 2020 06:31:11 GMT-0700 (Mountain Standard Time)","Thu Jan 30 2020 06:39:09 GMT-0700 (Mountain Standard Time)","Mozilla/5.0 (Windows NT 10.0; Win64; x64) AppleWebKit/537.36 (KHTML, like Gecko) Chrome/79.0.3945.130 Safari/537.36",93,"[0.9, 0.5, 0.1]","[0.8, 0.4, 0.2]","[u'black', u'red', u'blue']","[u'left', u'middle', u'right']","[0.8, 0.4, 0.2]","[u'high', u'low', u'medium']","blue",51,"right","medium","True","False",234,4500,NA
"AZOLOOMYRN1K0","Thu Jan 30 2020 06:31:11 GMT-0700 (Mountain Standard Time)","Thu Jan 30 2020 06:39:09 GMT-0700 (Mountain Standard Time)","Mozilla/5.0 (Windows NT 10.0; Win64; x64) AppleWebKit/537.36 (KHTML, like Gecko) Chrome/79.0.3945.130 Safari/537.36",94,"[0.9, 0.5, 0.1]","[0.8, 0.4, 0.2]","[u'black', u'red', u'blue']","[u'left', u'middle', u'right']","[0.8, 0.4, 0.2]","[u'high', u'low', u'medium']","blue",51,"right","medium","False","False",294,4450,NA
"AZOLOOMYRN1K0","Thu Jan 30 2020 06:31:11 GMT-0700 (Mountain Standard Time)","Thu Jan 30 2020 06:39:09 GMT-0700 (Mountain Standard Time)","Mozilla/5.0 (Windows NT 10.0; Win64; x64) AppleWebKit/537.36 (KHTML, like Gecko) Chrome/79.0.3945.130 Safari/537.36",95,"[0.9, 0.5, 0.1]","[0.8, 0.4, 0.2]","[u'black', u'red', u'blue']","[u'left', u'middle', u'right']","[0.8, 0.4, 0.2]","[u'high', u'low', u'medium']","blue",51,"right","medium","False","False",263,4400,NA
"AZOLOOMYRN1K0","Thu Jan 30 2020 06:31:11 GMT-0700 (Mountain Standard Time)","Thu Jan 30 2020 06:39:09 GMT-0700 (Mountain Standard Time)","Mozilla/5.0 (Windows NT 10.0; Win64; x64) AppleWebKit/537.36 (KHTML, like Gecko) Chrome/79.0.3945.130 Safari/537.36",96,"[0.9, 0.5, 0.1]","[0.8, 0.4, 0.2]","[u'black', u'red', u'blue']","[u'left', u'middle', u'right']","[0.8, 0.4, 0.2]","[u'high', u'low', u'medium']","blue",51,"right","medium","True","False",224,4500,NA
"AZOLOOMYRN1K0","Thu Jan 30 2020 06:31:11 GMT-0700 (Mountain Standard Time)","Thu Jan 30 2020 06:39:09 GMT-0700 (Mountain Standard Time)","Mozilla/5.0 (Windows NT 10.0; Win64; x64) AppleWebKit/537.36 (KHTML, like Gecko) Chrome/79.0.3945.130 Safari/537.36",97,"[0.9, 0.5, 0.1]","[0.8, 0.4, 0.2]","[u'black', u'red', u'blue']","[u'left', u'middle', u'right']","[0.8, 0.4, 0.2]","[u'high', u'low', u'medium']","blue",51,"right","medium","False","False",276,4450,NA
"AZOLOOMYRN1K0","Thu Jan 30 2020 06:31:11 GMT-0700 (Mountain Standard Time)","Thu Jan 30 2020 06:39:09 GMT-0700 (Mountain Standard Time)","Mozilla/5.0 (Windows NT 10.0; Win64; x64) AppleWebKit/537.36 (KHTML, like Gecko) Chrome/79.0.3945.130 Safari/537.36",98,"[0.9, 0.5, 0.1]","[0.8, 0.4, 0.2]","[u'black', u'red', u'blue']","[u'left', u'middle', u'right']","[0.8, 0.4, 0.2]","[u'high', u'low', u'medium']","blue",51,"right","medium","True","False",276,4550,NA
"AZOLOOMYRN1K0","Thu Jan 30 2020 06:31:11 GMT-0700 (Mountain Standard Time)","Thu Jan 30 2020 06:39:09 GMT-0700 (Mountain Standard Time)","Mozilla/5.0 (Windows NT 10.0; Win64; x64) AppleWebKit/537.36 (KHTML, like Gecko) Chrome/79.0.3945.130 Safari/537.36",99,"[0.9, 0.5, 0.1]","[0.8, 0.4, 0.2]","[u'black', u'red', u'blue']","[u'left', u'middle', u'right']","[0.8, 0.4, 0.2]","[u'high', u'low', u'medium']","blue",51,"right","medium","True","False",273,4650,NA
"AZOLOOMYRN1K0","Thu Jan 30 2020 06:31:11 GMT-0700 (Mountain Standard Time)","Thu Jan 30 2020 06:39:09 GMT-0700 (Mountain Standard Time)","Mozilla/5.0 (Windows NT 10.0; Win64; x64) AppleWebKit/537.36 (KHTML, like Gecko) Chrome/79.0.3945.130 Safari/537.36",100,"[0.9, 0.5, 0.1]","[0.8, 0.4, 0.2]","[u'black', u'red', u'blue']","[u'left', u'middle', u'right']","[0.8, 0.4, 0.2]","[u'high', u'low', u'medium']","blue",51,"right","medium","False","False",230,4600,NA
"AZOLOOMYRN1K0","Thu Jan 30 2020 06:31:11 GMT-0700 (Mountain Standard Time)","Thu Jan 30 2020 06:39:09 GMT-0700 (Mountain Standard Time)","Mozilla/5.0 (Windows NT 10.0; Win64; x64) AppleWebKit/537.36 (KHTML, like Gecko) Chrome/79.0.3945.130 Safari/537.36",101,"[0.9, 0.5, 0.1]","[0.8, 0.4, 0.2]","[u'black', u'red', u'blue']","[u'left', u'middle', u'right']","[0.8, 0.4, 0.2]","[u'high', u'low', u'medium']","blue",51,"right","medium","False","False",191,4550,NA
"AZOLOOMYRN1K0","Thu Jan 30 2020 06:31:11 GMT-0700 (Mountain Standard Time)","Thu Jan 30 2020 06:39:09 GMT-0700 (Mountain Standard Time)","Mozilla/5.0 (Windows NT 10.0; Win64; x64) AppleWebKit/537.36 (KHTML, like Gecko) Chrome/79.0.3945.130 Safari/537.36",102,"[0.9, 0.5, 0.1]","[0.8, 0.4, 0.2]","[u'black', u'red', u'blue']","[u'left', u'middle', u'right']","[0.8, 0.4, 0.2]","[u'high', u'low', u'medium']","blue",51,"right","medium","False","False",245,4500,NA
"AZOLOOMYRN1K0","Thu Jan 30 2020 06:31:11 GMT-0700 (Mountain Standard Time)","Thu Jan 30 2020 06:39:09 GMT-0700 (Mountain Standard Time)","Mozilla/5.0 (Windows NT 10.0; Win64; x64) AppleWebKit/537.36 (KHTML, like Gecko) Chrome/79.0.3945.130 Safari/537.36",103,"[0.9, 0.5, 0.1]","[0.8, 0.4, 0.2]","[u'black', u'red', u'blue']","[u'left', u'middle', u'right']","[0.8, 0.4, 0.2]","[u'high', u'low', u'medium']","black",49,"left","high","True","False",241,4600,NA
"AZOLOOMYRN1K0","Thu Jan 30 2020 06:31:11 GMT-0700 (Mountain Standard Time)","Thu Jan 30 2020 06:39:09 GMT-0700 (Mountain Standard Time)","Mozilla/5.0 (Windows NT 10.0; Win64; x64) AppleWebKit/537.36 (KHTML, like Gecko) Chrome/79.0.3945.130 Safari/537.36",104,"[0.9, 0.5, 0.1]","[0.8, 0.4, 0.2]","[u'black', u'red', u'blue']","[u'left', u'middle', u'right']","[0.8, 0.4, 0.2]","[u'high', u'low', u'medium']","black",49,"left","high","True","False",248,4700,NA
"AZOLOOMYRN1K0","Thu Jan 30 2020 06:31:11 GMT-0700 (Mountain Standard Time)","Thu Jan 30 2020 06:39:09 GMT-0700 (Mountain Standard Time)","Mozilla/5.0 (Windows NT 10.0; Win64; x64) AppleWebKit/537.36 (KHTML, like Gecko) Chrome/79.0.3945.130 Safari/537.36",105,"[0.9, 0.5, 0.1]","[0.8, 0.4, 0.2]","[u'black', u'red', u'blue']","[u'left', u'middle', u'right']","[0.8, 0.4, 0.2]","[u'high', u'low', u'medium']","black",49,"left","high","True","False",328,4800,NA
"AZOLOOMYRN1K0","Thu Jan 30 2020 06:31:11 GMT-0700 (Mountain Standard Time)","Thu Jan 30 2020 06:39:09 GMT-0700 (Mountain Standard Time)","Mozilla/5.0 (Windows NT 10.0; Win64; x64) AppleWebKit/537.36 (KHTML, like Gecko) Chrome/79.0.3945.130 Safari/537.36",106,"[0.9, 0.5, 0.1]","[0.8, 0.4, 0.2]","[u'black', u'red', u'blue']","[u'left', u'middle', u'right']","[0.8, 0.4, 0.2]","[u'high', u'low', u'medium']","black",49,"left","high","False","False",276,4750,NA
"AZOLOOMYRN1K0","Thu Jan 30 2020 06:31:11 GMT-0700 (Mountain Standard Time)","Thu Jan 30 2020 06:39:09 GMT-0700 (Mountain Standard Time)","Mozilla/5.0 (Windows NT 10.0; Win64; x64) AppleWebKit/537.36 (KHTML, like Gecko) Chrome/79.0.3945.130 Safari/537.36",107,"[0.9, 0.5, 0.1]","[0.8, 0.4, 0.2]","[u'black', u'red', u'blue']","[u'left', u'middle', u'right']","[0.8, 0.4, 0.2]","[u'high', u'low', u'medium']","black",49,"left","high","True","False",215,4850,NA
"AZOLOOMYRN1K0","Thu Jan 30 2020 06:31:11 GMT-0700 (Mountain Standard Time)","Thu Jan 30 2020 06:39:09 GMT-0700 (Mountain Standard Time)","Mozilla/5.0 (Windows NT 10.0; Win64; x64) AppleWebKit/537.36 (KHTML, like Gecko) Chrome/79.0.3945.130 Safari/537.36",108,"[0.9, 0.5, 0.1]","[0.8, 0.4, 0.2]","[u'black', u'red', u'blue']","[u'left', u'middle', u'right']","[0.8, 0.4, 0.2]","[u'high', u'low', u'medium']","black",49,"left","high","False","False",248,4800,NA
"AZOLOOMYRN1K0","Thu Jan 30 2020 06:31:11 GMT-0700 (Mountain Standard Time)","Thu Jan 30 2020 06:39:09 GMT-0700 (Mountain Standard Time)","Mozilla/5.0 (Windows NT 10.0; Win64; x64) AppleWebKit/537.36 (KHTML, like Gecko) Chrome/79.0.3945.130 Safari/537.36",109,"[0.9, 0.5, 0.1]","[0.8, 0.4, 0.2]","[u'black', u'red', u'blue']","[u'left', u'middle', u'right']","[0.8, 0.4, 0.2]","[u'high', u'low', u'medium']","black",49,"left","high","True","False",198,4900,NA
"AZOLOOMYRN1K0","Thu Jan 30 2020 06:31:11 GMT-0700 (Mountain Standard Time)","Thu Jan 30 2020 06:39:09 GMT-0700 (Mountain Standard Time)","Mozilla/5.0 (Windows NT 10.0; Win64; x64) AppleWebKit/537.36 (KHTML, like Gecko) Chrome/79.0.3945.130 Safari/537.36",110,"[0.9, 0.5, 0.1]","[0.8, 0.4, 0.2]","[u'black', u'red', u'blue']","[u'left', u'middle', u'right']","[0.8, 0.4, 0.2]","[u'high', u'low', u'medium']","black",49,"left","high","True","False",198,5000,NA
"AZOLOOMYRN1K0","Thu Jan 30 2020 06:31:11 GMT-0700 (Mountain Standard Time)","Thu Jan 30 2020 06:39:09 GMT-0700 (Mountain Standard Time)","Mozilla/5.0 (Windows NT 10.0; Win64; x64) AppleWebKit/537.36 (KHTML, like Gecko) Chrome/79.0.3945.130 Safari/537.36",111,"[0.9, 0.5, 0.1]","[0.8, 0.4, 0.2]","[u'black', u'red', u'blue']","[u'left', u'middle', u'right']","[0.8, 0.4, 0.2]","[u'high', u'low', u'medium']","black",49,"left","high","True","True",126,5100,NA
"AZOLOOMYRN1K0","Thu Jan 30 2020 06:31:11 GMT-0700 (Mountain Standard Time)","Thu Jan 30 2020 06:39:09 GMT-0700 (Mountain Standard Time)","Mozilla/5.0 (Windows NT 10.0; Win64; x64) AppleWebKit/537.36 (KHTML, like Gecko) Chrome/79.0.3945.130 Safari/537.36",112,"[0.9, 0.5, 0.1]","[0.8, 0.4, 0.2]","[u'black', u'red', u'blue']","[u'left', u'middle', u'right']","[0.8, 0.4, 0.2]","[u'low', u'high', u'medium']","black",49,"left","low","False","False",103,5050,NA
"AZOLOOMYRN1K0","Thu Jan 30 2020 06:31:11 GMT-0700 (Mountain Standard Time)","Thu Jan 30 2020 06:39:09 GMT-0700 (Mountain Standard Time)","Mozilla/5.0 (Windows NT 10.0; Win64; x64) AppleWebKit/537.36 (KHTML, like Gecko) Chrome/79.0.3945.130 Safari/537.36",113,"[0.9, 0.5, 0.1]","[0.8, 0.4, 0.2]","[u'black', u'red', u'blue']","[u'left', u'middle', u'right']","[0.8, 0.4, 0.2]","[u'low', u'high', u'medium']","black",49,"left","low","False","False",144,5000,NA
"AZOLOOMYRN1K0","Thu Jan 30 2020 06:31:11 GMT-0700 (Mountain Standard Time)","Thu Jan 30 2020 06:39:09 GMT-0700 (Mountain Standard Time)","Mozilla/5.0 (Windows NT 10.0; Win64; x64) AppleWebKit/537.36 (KHTML, like Gecko) Chrome/79.0.3945.130 Safari/537.36",114,"[0.9, 0.5, 0.1]","[0.8, 0.4, 0.2]","[u'black', u'red', u'blue']","[u'left', u'middle', u'right']","[0.8, 0.4, 0.2]","[u'low', u'high', u'medium']","black",49,"left","low","False","False",284,4950,NA
"AZOLOOMYRN1K0","Thu Jan 30 2020 06:31:11 GMT-0700 (Mountain Standard Time)","Thu Jan 30 2020 06:39:09 GMT-0700 (Mountain Standard Time)","Mozilla/5.0 (Windows NT 10.0; Win64; x64) AppleWebKit/537.36 (KHTML, like Gecko) Chrome/79.0.3945.130 Safari/537.36",115,"[0.9, 0.5, 0.1]","[0.8, 0.4, 0.2]","[u'black', u'red', u'blue']","[u'left', u'middle', u'right']","[0.8, 0.4, 0.2]","[u'low', u'high', u'medium']","red",50,"middle","high","True","False",236,5050,NA
"AZOLOOMYRN1K0","Thu Jan 30 2020 06:31:11 GMT-0700 (Mountain Standard Time)","Thu Jan 30 2020 06:39:09 GMT-0700 (Mountain Standard Time)","Mozilla/5.0 (Windows NT 10.0; Win64; x64) AppleWebKit/537.36 (KHTML, like Gecko) Chrome/79.0.3945.130 Safari/537.36",116,"[0.9, 0.5, 0.1]","[0.8, 0.4, 0.2]","[u'black', u'red', u'blue']","[u'left', u'middle', u'right']","[0.8, 0.4, 0.2]","[u'low', u'high', u'medium']","red",50,"middle","high","True","False",231,5150,NA
"AZOLOOMYRN1K0","Thu Jan 30 2020 06:31:11 GMT-0700 (Mountain Standard Time)","Thu Jan 30 2020 06:39:09 GMT-0700 (Mountain Standard Time)","Mozilla/5.0 (Windows NT 10.0; Win64; x64) AppleWebKit/537.36 (KHTML, like Gecko) Chrome/79.0.3945.130 Safari/537.36",117,"[0.9, 0.5, 0.1]","[0.8, 0.4, 0.2]","[u'black', u'red', u'blue']","[u'left', u'middle', u'right']","[0.8, 0.4, 0.2]","[u'low', u'high', u'medium']","red",50,"middle","high","True","False",244,5250,NA
"AZOLOOMYRN1K0","Thu Jan 30 2020 06:31:11 GMT-0700 (Mountain Standard Time)","Thu Jan 30 2020 06:39:09 GMT-0700 (Mountain Standard Time)","Mozilla/5.0 (Windows NT 10.0; Win64; x64) AppleWebKit/537.36 (KHTML, like Gecko) Chrome/79.0.3945.130 Safari/537.36",118,"[0.9, 0.5, 0.1]","[0.8, 0.4, 0.2]","[u'black', u'red', u'blue']","[u'left', u'middle', u'right']","[0.8, 0.4, 0.2]","[u'low', u'high', u'medium']","red",50,"middle","high","True","False",246,5350,NA
"AZOLOOMYRN1K0","Thu Jan 30 2020 06:31:11 GMT-0700 (Mountain Standard Time)","Thu Jan 30 2020 06:39:09 GMT-0700 (Mountain Standard Time)","Mozilla/5.0 (Windows NT 10.0; Win64; x64) AppleWebKit/537.36 (KHTML, like Gecko) Chrome/79.0.3945.130 Safari/537.36",119,"[0.9, 0.5, 0.1]","[0.8, 0.4, 0.2]","[u'black', u'red', u'blue']","[u'left', u'middle', u'right']","[0.8, 0.4, 0.2]","[u'low', u'high', u'medium']","red",50,"middle","high","True","False",247,5450,NA
"AZOLOOMYRN1K0","Thu Jan 30 2020 06:31:11 GMT-0700 (Mountain Standard Time)","Thu Jan 30 2020 06:39:09 GMT-0700 (Mountain Standard Time)","Mozilla/5.0 (Windows NT 10.0; Win64; x64) AppleWebKit/537.36 (KHTML, like Gecko) Chrome/79.0.3945.130 Safari/537.36",120,"[0.9, 0.5, 0.1]","[0.8, 0.4, 0.2]","[u'black', u'red', u'blue']","[u'left', u'middle', u'right']","[0.8, 0.4, 0.2]","[u'low', u'high', u'medium']","red",50,"middle","high","True","False",204,5550,NA
"AZOLOOMYRN1K0","Thu Jan 30 2020 06:31:11 GMT-0700 (Mountain Standard Time)","Thu Jan 30 2020 06:39:09 GMT-0700 (Mountain Standard Time)","Mozilla/5.0 (Windows NT 10.0; Win64; x64) AppleWebKit/537.36 (KHTML, like Gecko) Chrome/79.0.3945.130 Safari/537.36",121,"[0.9, 0.5, 0.1]","[0.8, 0.4, 0.2]","[u'black', u'red', u'blue']","[u'left', u'middle', u'right']","[0.8, 0.4, 0.2]","[u'low', u'medium', u'high']","red",50,"middle","medium","False","False",457,5500,NA
"AZOLOOMYRN1K0","Thu Jan 30 2020 06:31:11 GMT-0700 (Mountain Standard Time)","Thu Jan 30 2020 06:39:09 GMT-0700 (Mountain Standard Time)","Mozilla/5.0 (Windows NT 10.0; Win64; x64) AppleWebKit/537.36 (KHTML, like Gecko) Chrome/79.0.3945.130 Safari/537.36",122,"[0.9, 0.5, 0.1]","[0.8, 0.4, 0.2]","[u'black', u'red', u'blue']","[u'left', u'middle', u'right']","[0.8, 0.4, 0.2]","[u'low', u'medium', u'high']","red",50,"middle","medium","False","False",250,5450,NA
"AZOLOOMYRN1K0","Thu Jan 30 2020 06:31:11 GMT-0700 (Mountain Standard Time)","Thu Jan 30 2020 06:39:09 GMT-0700 (Mountain Standard Time)","Mozilla/5.0 (Windows NT 10.0; Win64; x64) AppleWebKit/537.36 (KHTML, like Gecko) Chrome/79.0.3945.130 Safari/537.36",123,"[0.9, 0.5, 0.1]","[0.8, 0.4, 0.2]","[u'black', u'red', u'blue']","[u'left', u'middle', u'right']","[0.8, 0.4, 0.2]","[u'low', u'medium', u'high']","blue",51,"right","high","True","False",233,5550,NA
"AZOLOOMYRN1K0","Thu Jan 30 2020 06:31:11 GMT-0700 (Mountain Standard Time)","Thu Jan 30 2020 06:39:09 GMT-0700 (Mountain Standard Time)","Mozilla/5.0 (Windows NT 10.0; Win64; x64) AppleWebKit/537.36 (KHTML, like Gecko) Chrome/79.0.3945.130 Safari/537.36",124,"[0.9, 0.5, 0.1]","[0.8, 0.4, 0.2]","[u'black', u'red', u'blue']","[u'left', u'middle', u'right']","[0.8, 0.4, 0.2]","[u'low', u'medium', u'high']","blue",51,"right","high","True","False",212,5650,NA
"AZOLOOMYRN1K0","Thu Jan 30 2020 06:31:11 GMT-0700 (Mountain Standard Time)","Thu Jan 30 2020 06:39:09 GMT-0700 (Mountain Standard Time)","Mozilla/5.0 (Windows NT 10.0; Win64; x64) AppleWebKit/537.36 (KHTML, like Gecko) Chrome/79.0.3945.130 Safari/537.36",125,"[0.9, 0.5, 0.1]","[0.8, 0.4, 0.2]","[u'black', u'red', u'blue']","[u'left', u'middle', u'right']","[0.8, 0.4, 0.2]","[u'low', u'medium', u'high']","blue",51,"right","high","True","False",215,5750,NA
"AZOLOOMYRN1K0","Thu Jan 30 2020 06:31:11 GMT-0700 (Mountain Standard Time)","Thu Jan 30 2020 06:39:09 GMT-0700 (Mountain Standard Time)","Mozilla/5.0 (Windows NT 10.0; Win64; x64) AppleWebKit/537.36 (KHTML, like Gecko) Chrome/79.0.3945.130 Safari/537.36",126,"[0.9, 0.5, 0.1]","[0.8, 0.4, 0.2]","[u'black', u'red', u'blue']","[u'left', u'middle', u'right']","[0.8, 0.4, 0.2]","[u'low', u'medium', u'high']","blue",51,"right","high","True","False",241,5850,NA
"AZOLOOMYRN1K0","Thu Jan 30 2020 06:31:11 GMT-0700 (Mountain Standard Time)","Thu Jan 30 2020 06:39:09 GMT-0700 (Mountain Standard Time)","Mozilla/5.0 (Windows NT 10.0; Win64; x64) AppleWebKit/537.36 (KHTML, like Gecko) Chrome/79.0.3945.130 Safari/537.36",127,"[0.9, 0.5, 0.1]","[0.8, 0.4, 0.2]","[u'black', u'red', u'blue']","[u'left', u'middle', u'right']","[0.8, 0.4, 0.2]","[u'low', u'medium', u'high']","blue",51,"right","high","True","False",234,5950,NA
"AZOLOOMYRN1K0","Thu Jan 30 2020 06:31:11 GMT-0700 (Mountain Standard Time)","Thu Jan 30 2020 06:39:09 GMT-0700 (Mountain Standard Time)","Mozilla/5.0 (Windows NT 10.0; Win64; x64) AppleWebKit/537.36 (KHTML, like Gecko) Chrome/79.0.3945.130 Safari/537.36",128,"[0.9, 0.5, 0.1]","[0.8, 0.4, 0.2]","[u'black', u'red', u'blue']","[u'left', u'middle', u'right']","[0.8, 0.4, 0.2]","[u'low', u'medium', u'high']","blue",51,"right","high","True","False",268,6050,NA
"AZOLOOMYRN1K0","Thu Jan 30 2020 06:31:11 GMT-0700 (Mountain Standard Time)","Thu Jan 30 2020 06:39:09 GMT-0700 (Mountain Standard Time)","Mozilla/5.0 (Windows NT 10.0; Win64; x64) AppleWebKit/537.36 (KHTML, like Gecko) Chrome/79.0.3945.130 Safari/537.36",129,"[0.9, 0.5, 0.1]","[0.8, 0.4, 0.2]","[u'black', u'red', u'blue']","[u'left', u'middle', u'right']","[0.8, 0.4, 0.2]","[u'low', u'medium', u'high']","blue",51,"right","high","True","False",225,6150,NA
"AZOLOOMYRN1K0","Thu Jan 30 2020 06:31:11 GMT-0700 (Mountain Standard Time)","Thu Jan 30 2020 06:39:09 GMT-0700 (Mountain Standard Time)","Mozilla/5.0 (Windows NT 10.0; Win64; x64) AppleWebKit/537.36 (KHTML, like Gecko) Chrome/79.0.3945.130 Safari/537.36",130,"[0.9, 0.5, 0.1]","[0.8, 0.4, 0.2]","[u'black', u'red', u'blue']","[u'left', u'middle', u'right']","[0.8, 0.4, 0.2]","[u'low', u'medium', u'high']","blue",51,"right","high","False","False",172,6100,NA
"AZOLOOMYRN1K0","Thu Jan 30 2020 06:31:11 GMT-0700 (Mountain Standard Time)","Thu Jan 30 2020 06:39:09 GMT-0700 (Mountain Standard Time)","Mozilla/5.0 (Windows NT 10.0; Win64; x64) AppleWebKit/537.36 (KHTML, like Gecko) Chrome/79.0.3945.130 Safari/537.36",131,"[0.9, 0.5, 0.1]","[0.8, 0.4, 0.2]","[u'black', u'red', u'blue']","[u'left', u'middle', u'right']","[0.8, 0.4, 0.2]","[u'low', u'medium', u'high']","blue",51,"right","high","True","True",92,6200,NA
"AZOLOOMYRN1K0","Thu Jan 30 2020 06:31:11 GMT-0700 (Mountain Standard Time)","Thu Jan 30 2020 06:39:09 GMT-0700 (Mountain Standard Time)","Mozilla/5.0 (Windows NT 10.0; Win64; x64) AppleWebKit/537.36 (KHTML, like Gecko) Chrome/79.0.3945.130 Safari/537.36",132,"[0.9, 0.5, 0.1]","[0.8, 0.4, 0.2]","[u'black', u'red', u'blue']","[u'left', u'middle', u'right']","[0.8, 0.4, 0.2]","[u'low', u'high', u'medium']","blue",51,"right","medium","True","False",226,6300,NA
"AZOLOOMYRN1K0","Thu Jan 30 2020 06:31:11 GMT-0700 (Mountain Standard Time)","Thu Jan 30 2020 06:39:09 GMT-0700 (Mountain Standard Time)","Mozilla/5.0 (Windows NT 10.0; Win64; x64) AppleWebKit/537.36 (KHTML, like Gecko) Chrome/79.0.3945.130 Safari/537.36",133,"[0.9, 0.5, 0.1]","[0.8, 0.4, 0.2]","[u'black', u'red', u'blue']","[u'left', u'middle', u'right']","[0.8, 0.4, 0.2]","[u'low', u'high', u'medium']","blue",51,"right","medium","False","False",172,6250,NA
"AZOLOOMYRN1K0","Thu Jan 30 2020 06:31:11 GMT-0700 (Mountain Standard Time)","Thu Jan 30 2020 06:39:09 GMT-0700 (Mountain Standard Time)","Mozilla/5.0 (Windows NT 10.0; Win64; x64) AppleWebKit/537.36 (KHTML, like Gecko) Chrome/79.0.3945.130 Safari/537.36",134,"[0.9, 0.5, 0.1]","[0.8, 0.4, 0.2]","[u'black', u'red', u'blue']","[u'left', u'middle', u'right']","[0.8, 0.4, 0.2]","[u'low', u'high', u'medium']","blue",51,"right","medium","False","False",60,6200,NA
"AZOLOOMYRN1K0","Thu Jan 30 2020 06:31:11 GMT-0700 (Mountain Standard Time)","Thu Jan 30 2020 06:39:09 GMT-0700 (Mountain Standard Time)","Mozilla/5.0 (Windows NT 10.0; Win64; x64) AppleWebKit/537.36 (KHTML, like Gecko) Chrome/79.0.3945.130 Safari/537.36",135,"[0.9, 0.5, 0.1]","[0.8, 0.4, 0.2]","[u'black', u'red', u'blue']","[u'left', u'middle', u'right']","[0.8, 0.4, 0.2]","[u'low', u'high', u'medium']","blue",51,"right","medium","True","False",213,6300,NA
"AZOLOOMYRN1K0","Thu Jan 30 2020 06:31:11 GMT-0700 (Mountain Standard Time)","Thu Jan 30 2020 06:39:09 GMT-0700 (Mountain Standard Time)","Mozilla/5.0 (Windows NT 10.0; Win64; x64) AppleWebKit/537.36 (KHTML, like Gecko) Chrome/79.0.3945.130 Safari/537.36",136,"[0.9, 0.5, 0.1]","[0.8, 0.4, 0.2]","[u'black', u'red', u'blue']","[u'left', u'middle', u'right']","[0.8, 0.4, 0.2]","[u'low', u'high', u'medium']","blue",51,"right","medium","True","False",267,6400,NA
"AZOLOOMYRN1K0","Thu Jan 30 2020 06:31:11 GMT-0700 (Mountain Standard Time)","Thu Jan 30 2020 06:39:09 GMT-0700 (Mountain Standard Time)","Mozilla/5.0 (Windows NT 10.0; Win64; x64) AppleWebKit/537.36 (KHTML, like Gecko) Chrome/79.0.3945.130 Safari/537.36",137,"[0.9, 0.5, 0.1]","[0.8, 0.4, 0.2]","[u'black', u'red', u'blue']","[u'left', u'middle', u'right']","[0.8, 0.4, 0.2]","[u'low', u'high', u'medium']","blue",51,"right","medium","True","False",269,6500,NA
"AZOLOOMYRN1K0","Thu Jan 30 2020 06:31:11 GMT-0700 (Mountain Standard Time)","Thu Jan 30 2020 06:39:09 GMT-0700 (Mountain Standard Time)","Mozilla/5.0 (Windows NT 10.0; Win64; x64) AppleWebKit/537.36 (KHTML, like Gecko) Chrome/79.0.3945.130 Safari/537.36",138,"[0.9, 0.5, 0.1]","[0.8, 0.4, 0.2]","[u'black', u'red', u'blue']","[u'left', u'middle', u'right']","[0.8, 0.4, 0.2]","[u'low', u'high', u'medium']","blue",51,"right","medium","True","False",257,6600,NA
"AZOLOOMYRN1K0","Thu Jan 30 2020 06:31:11 GMT-0700 (Mountain Standard Time)","Thu Jan 30 2020 06:39:09 GMT-0700 (Mountain Standard Time)","Mozilla/5.0 (Windows NT 10.0; Win64; x64) AppleWebKit/537.36 (KHTML, like Gecko) Chrome/79.0.3945.130 Safari/537.36",139,"[0.9, 0.5, 0.1]","[0.8, 0.4, 0.2]","[u'black', u'red', u'blue']","[u'left', u'middle', u'right']","[0.8, 0.4, 0.2]","[u'low', u'high', u'medium']","blue",51,"right","medium","False","False",262,6550,NA
"AZOLOOMYRN1K0","Thu Jan 30 2020 06:31:11 GMT-0700 (Mountain Standard Time)","Thu Jan 30 2020 06:39:09 GMT-0700 (Mountain Standard Time)","Mozilla/5.0 (Windows NT 10.0; Win64; x64) AppleWebKit/537.36 (KHTML, like Gecko) Chrome/79.0.3945.130 Safari/537.36",140,"[0.9, 0.5, 0.1]","[0.8, 0.4, 0.2]","[u'black', u'red', u'blue']","[u'left', u'middle', u'right']","[0.8, 0.4, 0.2]","[u'low', u'high', u'medium']","blue",51,"right","medium","False","False",81,6500,NA
"AZOLOOMYRN1K0","Thu Jan 30 2020 06:31:11 GMT-0700 (Mountain Standard Time)","Thu Jan 30 2020 06:39:09 GMT-0700 (Mountain Standard Time)","Mozilla/5.0 (Windows NT 10.0; Win64; x64) AppleWebKit/537.36 (KHTML, like Gecko) Chrome/79.0.3945.130 Safari/537.36",141,"[0.9, 0.5, 0.1]","[0.8, 0.4, 0.2]","[u'black', u'red', u'blue']","[u'left', u'middle', u'right']","[0.8, 0.4, 0.2]","[u'low', u'high', u'medium']","blue",51,"right","medium","True","False",232,6600,NA
"AZOLOOMYRN1K0","Thu Jan 30 2020 06:31:11 GMT-0700 (Mountain Standard Time)","Thu Jan 30 2020 06:39:09 GMT-0700 (Mountain Standard Time)","Mozilla/5.0 (Windows NT 10.0; Win64; x64) AppleWebKit/537.36 (KHTML, like Gecko) Chrome/79.0.3945.130 Safari/537.36",142,"[0.9, 0.5, 0.1]","[0.8, 0.4, 0.2]","[u'black', u'red', u'blue']","[u'left', u'middle', u'right']","[0.8, 0.4, 0.2]","[u'low', u'high', u'medium']","blue",51,"right","medium","True","False",251,6700,NA
"AZOLOOMYRN1K0","Thu Jan 30 2020 06:31:11 GMT-0700 (Mountain Standard Time)","Thu Jan 30 2020 06:39:09 GMT-0700 (Mountain Standard Time)","Mozilla/5.0 (Windows NT 10.0; Win64; x64) AppleWebKit/537.36 (KHTML, like Gecko) Chrome/79.0.3945.130 Safari/537.36",143,"[0.9, 0.5, 0.1]","[0.8, 0.4, 0.2]","[u'black', u'red', u'blue']","[u'left', u'middle', u'right']","[0.8, 0.4, 0.2]","[u'low', u'high', u'medium']","blue",51,"right","medium","False","False",285,6650,NA
"AZOLOOMYRN1K0","Thu Jan 30 2020 06:31:11 GMT-0700 (Mountain Standard Time)","Thu Jan 30 2020 06:39:09 GMT-0700 (Mountain Standard Time)","Mozilla/5.0 (Windows NT 10.0; Win64; x64) AppleWebKit/537.36 (KHTML, like Gecko) Chrome/79.0.3945.130 Safari/537.36",144,"[0.9, 0.5, 0.1]","[0.8, 0.4, 0.2]","[u'black', u'red', u'blue']","[u'left', u'middle', u'right']","[0.8, 0.4, 0.2]","[u'low', u'high', u'medium']","blue",51,"right","medium","True","False",210,6750,NA
"AZOLOOMYRN1K0","Thu Jan 30 2020 06:31:11 GMT-0700 (Mountain Standard Time)","Thu Jan 30 2020 06:39:09 GMT-0700 (Mountain Standard Time)","Mozilla/5.0 (Windows NT 10.0; Win64; x64) AppleWebKit/537.36 (KHTML, like Gecko) Chrome/79.0.3945.130 Safari/537.36",145,"[0.9, 0.5, 0.1]","[0.8, 0.4, 0.2]","[u'black', u'red', u'blue']","[u'left', u'middle', u'right']","[0.8, 0.4, 0.2]","[u'low', u'high', u'medium']","blue",51,"right","medium","True","False",204,6850,NA
"AZOLOOMYRN1K0","Thu Jan 30 2020 06:31:11 GMT-0700 (Mountain Standard Time)","Thu Jan 30 2020 06:39:09 GMT-0700 (Mountain Standard Time)","Mozilla/5.0 (Windows NT 10.0; Win64; x64) AppleWebKit/537.36 (KHTML, like Gecko) Chrome/79.0.3945.130 Safari/537.36",146,"[0.9, 0.5, 0.1]","[0.8, 0.4, 0.2]","[u'black', u'red', u'blue']","[u'left', u'middle', u'right']","[0.8, 0.4, 0.2]","[u'low', u'high', u'medium']","blue",51,"right","medium","False","False",249,6800,NA
"AZOLOOMYRN1K0","Thu Jan 30 2020 06:31:11 GMT-0700 (Mountain Standard Time)","Thu Jan 30 2020 06:39:09 GMT-0700 (Mountain Standard Time)","Mozilla/5.0 (Windows NT 10.0; Win64; x64) AppleWebKit/537.36 (KHTML, like Gecko) Chrome/79.0.3945.130 Safari/537.36",147,"[0.9, 0.5, 0.1]","[0.8, 0.4, 0.2]","[u'black', u'red', u'blue']","[u'left', u'middle', u'right']","[0.8, 0.4, 0.2]","[u'low', u'high', u'medium']","blue",51,"right","medium","False","False",202,6750,NA
"AZOLOOMYRN1K0","Thu Jan 30 2020 06:31:11 GMT-0700 (Mountain Standard Time)","Thu Jan 30 2020 06:39:09 GMT-0700 (Mountain Standard Time)","Mozilla/5.0 (Windows NT 10.0; Win64; x64) AppleWebKit/537.36 (KHTML, like Gecko) Chrome/79.0.3945.130 Safari/537.36",148,"[0.9, 0.5, 0.1]","[0.8, 0.4, 0.2]","[u'black', u'red', u'blue']","[u'left', u'middle', u'right']","[0.8, 0.4, 0.2]","[u'low', u'high', u'medium']","blue",51,"right","medium","False","False",238,6700,NA
"AZOLOOMYRN1K0","Thu Jan 30 2020 06:31:11 GMT-0700 (Mountain Standard Time)","Thu Jan 30 2020 06:39:09 GMT-0700 (Mountain Standard Time)","Mozilla/5.0 (Windows NT 10.0; Win64; x64) AppleWebKit/537.36 (KHTML, like Gecko) Chrome/79.0.3945.130 Safari/537.36",149,"[0.9, 0.5, 0.1]","[0.8, 0.4, 0.2]","[u'black', u'red', u'blue']","[u'left', u'middle', u'right']","[0.8, 0.4, 0.2]","[u'low', u'high', u'medium']","black",49,"left","low","True","False",236,6800,NA
"AZOLOOMYRN1K0","Thu Jan 30 2020 06:31:11 GMT-0700 (Mountain Standard Time)","Thu Jan 30 2020 06:39:09 GMT-0700 (Mountain Standard Time)","Mozilla/5.0 (Windows NT 10.0; Win64; x64) AppleWebKit/537.36 (KHTML, like Gecko) Chrome/79.0.3945.130 Safari/537.36",150,"[0.9, 0.5, 0.1]","[0.8, 0.4, 0.2]","[u'black', u'red', u'blue']","[u'left', u'middle', u'right']","[0.8, 0.4, 0.2]","[u'low', u'high', u'medium']","black",49,"left","low","False","False",295,6750,NA
"AZOLOOMYRN1K0","Thu Jan 30 2020 06:31:11 GMT-0700 (Mountain Standard Time)","Thu Jan 30 2020 06:39:09 GMT-0700 (Mountain Standard Time)","Mozilla/5.0 (Windows NT 10.0; Win64; x64) AppleWebKit/537.36 (KHTML, like Gecko) Chrome/79.0.3945.130 Safari/537.36",151,"[0.9, 0.5, 0.1]","[0.8, 0.4, 0.2]","[u'black', u'red', u'blue']","[u'left', u'middle', u'right']","[0.8, 0.4, 0.2]","[u'low', u'high', u'medium']","black",49,"left","low","False","False",275,6700,NA
"AZOLOOMYRN1K0","Thu Jan 30 2020 06:31:11 GMT-0700 (Mountain Standard Time)","Thu Jan 30 2020 06:39:09 GMT-0700 (Mountain Standard Time)","Mozilla/5.0 (Windows NT 10.0; Win64; x64) AppleWebKit/537.36 (KHTML, like Gecko) Chrome/79.0.3945.130 Safari/537.36",152,"[0.9, 0.5, 0.1]","[0.8, 0.4, 0.2]","[u'black', u'red', u'blue']","[u'left', u'middle', u'right']","[0.8, 0.4, 0.2]","[u'low', u'high', u'medium']","black",49,"left","low","False","False",272,6650,NA
"AZOLOOMYRN1K0","Thu Jan 30 2020 06:31:11 GMT-0700 (Mountain Standard Time)","Thu Jan 30 2020 06:39:09 GMT-0700 (Mountain Standard Time)","Mozilla/5.0 (Windows NT 10.0; Win64; x64) AppleWebKit/537.36 (KHTML, like Gecko) Chrome/79.0.3945.130 Safari/537.36",153,"[0.9, 0.5, 0.1]","[0.8, 0.4, 0.2]","[u'black', u'red', u'blue']","[u'left', u'middle', u'right']","[0.8, 0.4, 0.2]","[u'low', u'high', u'medium']","red",50,"middle","high","True","False",235,6750,NA
"AZOLOOMYRN1K0","Thu Jan 30 2020 06:31:11 GMT-0700 (Mountain Standard Time)","Thu Jan 30 2020 06:39:09 GMT-0700 (Mountain Standard Time)","Mozilla/5.0 (Windows NT 10.0; Win64; x64) AppleWebKit/537.36 (KHTML, like Gecko) Chrome/79.0.3945.130 Safari/537.36",154,"[0.9, 0.5, 0.1]","[0.8, 0.4, 0.2]","[u'black', u'red', u'blue']","[u'left', u'middle', u'right']","[0.8, 0.4, 0.2]","[u'low', u'high', u'medium']","red",50,"middle","high","False","False",229,6700,NA
"AZOLOOMYRN1K0","Thu Jan 30 2020 06:31:11 GMT-0700 (Mountain Standard Time)","Thu Jan 30 2020 06:39:09 GMT-0700 (Mountain Standard Time)","Mozilla/5.0 (Windows NT 10.0; Win64; x64) AppleWebKit/537.36 (KHTML, like Gecko) Chrome/79.0.3945.130 Safari/537.36",155,"[0.9, 0.5, 0.1]","[0.8, 0.4, 0.2]","[u'black', u'red', u'blue']","[u'left', u'middle', u'right']","[0.8, 0.4, 0.2]","[u'low', u'high', u'medium']","red",50,"middle","high","True","False",242,6800,NA
"AZOLOOMYRN1K0","Thu Jan 30 2020 06:31:11 GMT-0700 (Mountain Standard Time)","Thu Jan 30 2020 06:39:09 GMT-0700 (Mountain Standard Time)","Mozilla/5.0 (Windows NT 10.0; Win64; x64) AppleWebKit/537.36 (KHTML, like Gecko) Chrome/79.0.3945.130 Safari/537.36",156,"[0.9, 0.5, 0.1]","[0.8, 0.4, 0.2]","[u'black', u'red', u'blue']","[u'left', u'middle', u'right']","[0.8, 0.4, 0.2]","[u'low', u'high', u'medium']","red",50,"middle","high","False","False",290,6750,NA
"AZOLOOMYRN1K0","Thu Jan 30 2020 06:31:11 GMT-0700 (Mountain Standard Time)","Thu Jan 30 2020 06:39:09 GMT-0700 (Mountain Standard Time)","Mozilla/5.0 (Windows NT 10.0; Win64; x64) AppleWebKit/537.36 (KHTML, like Gecko) Chrome/79.0.3945.130 Safari/537.36",157,"[0.9, 0.5, 0.1]","[0.8, 0.4, 0.2]","[u'black', u'red', u'blue']","[u'left', u'middle', u'right']","[0.8, 0.4, 0.2]","[u'low', u'high', u'medium']","red",50,"middle","high","True","False",246,6850,NA
"AZOLOOMYRN1K0","Thu Jan 30 2020 06:31:11 GMT-0700 (Mountain Standard Time)","Thu Jan 30 2020 06:39:09 GMT-0700 (Mountain Standard Time)","Mozilla/5.0 (Windows NT 10.0; Win64; x64) AppleWebKit/537.36 (KHTML, like Gecko) Chrome/79.0.3945.130 Safari/537.36",158,"[0.9, 0.5, 0.1]","[0.8, 0.4, 0.2]","[u'black', u'red', u'blue']","[u'left', u'middle', u'right']","[0.8, 0.4, 0.2]","[u'low', u'high', u'medium']","red",50,"middle","high","False","False",238,6800,NA
"AZOLOOMYRN1K0","Thu Jan 30 2020 06:31:11 GMT-0700 (Mountain Standard Time)","Thu Jan 30 2020 06:39:09 GMT-0700 (Mountain Standard Time)","Mozilla/5.0 (Windows NT 10.0; Win64; x64) AppleWebKit/537.36 (KHTML, like Gecko) Chrome/79.0.3945.130 Safari/537.36",159,"[0.9, 0.5, 0.1]","[0.8, 0.4, 0.2]","[u'black', u'red', u'blue']","[u'left', u'middle', u'right']","[0.8, 0.4, 0.2]","[u'low', u'high', u'medium']","red",50,"middle","high","True","False",458,6900,NA
"AZOLOOMYRN1K0","Thu Jan 30 2020 06:31:11 GMT-0700 (Mountain Standard Time)","Thu Jan 30 2020 06:39:09 GMT-0700 (Mountain Standard Time)","Mozilla/5.0 (Windows NT 10.0; Win64; x64) AppleWebKit/537.36 (KHTML, like Gecko) Chrome/79.0.3945.130 Safari/537.36",160,"[0.9, 0.5, 0.1]","[0.8, 0.4, 0.2]","[u'black', u'red', u'blue']","[u'left', u'middle', u'right']","[0.8, 0.4, 0.2]","[u'low', u'high', u'medium']","red",50,"middle","high","True","False",265,7000,NA
