"src_subject_id","start_time","end_time","browser","index","first_half_probabilities","second_half_probabilities","deck_color","deck_position","deck_probabilities","deck_contingencies","response_color","key_press","response_position","response_probability","reward_type","trial_type","rt","reward_tally","exclusion_reason"
"A3LC6M2EMDBBXP","Thu Jan 30 2020 09:11:05 GMT-0500 (Eastern Standard Time)","Thu Jan 30 2020 09:18:30 GMT-0500 (Eastern Standard Time)","Mozilla/5.0 (Windows NT 10.0; Win64; x64) AppleWebKit/537.36 (KHTML, like Gecko) Chrome/79.0.3945.130 Safari/537.36",1,"[0.9, 0.5, 0.1]","[0.8, 0.4, 0.2]","[u'red', u'black', u'blue']","[u'left', u'middle', u'right']","[0.9, 0.5, 0.1]","[u'low', u'high', u'medium']","blue",51,"right","medium","False","False",948,-50,NA
"A3LC6M2EMDBBXP","Thu Jan 30 2020 09:11:05 GMT-0500 (Eastern Standard Time)","Thu Jan 30 2020 09:18:30 GMT-0500 (Eastern Standard Time)","Mozilla/5.0 (Windows NT 10.0; Win64; x64) AppleWebKit/537.36 (KHTML, like Gecko) Chrome/79.0.3945.130 Safari/537.36",2,"[0.9, 0.5, 0.1]","[0.8, 0.4, 0.2]","[u'red', u'black', u'blue']","[u'left', u'middle', u'right']","[0.9, 0.5, 0.1]","[u'low', u'high', u'medium']","black",50,"middle","high","True","False",266,50,NA
"A3LC6M2EMDBBXP","Thu Jan 30 2020 09:11:05 GMT-0500 (Eastern Standard Time)","Thu Jan 30 2020 09:18:30 GMT-0500 (Eastern Standard Time)","Mozilla/5.0 (Windows NT 10.0; Win64; x64) AppleWebKit/537.36 (KHTML, like Gecko) Chrome/79.0.3945.130 Safari/537.36",3,"[0.9, 0.5, 0.1]","[0.8, 0.4, 0.2]","[u'red', u'black', u'blue']","[u'left', u'middle', u'right']","[0.9, 0.5, 0.1]","[u'low', u'high', u'medium']","red",49,"left","low","False","False",100,0,NA
"A3LC6M2EMDBBXP","Thu Jan 30 2020 09:11:05 GMT-0500 (Eastern Standard Time)","Thu Jan 30 2020 09:18:30 GMT-0500 (Eastern Standard Time)","Mozilla/5.0 (Windows NT 10.0; Win64; x64) AppleWebKit/537.36 (KHTML, like Gecko) Chrome/79.0.3945.130 Safari/537.36",4,"[0.9, 0.5, 0.1]","[0.8, 0.4, 0.2]","[u'red', u'black', u'blue']","[u'left', u'middle', u'right']","[0.9, 0.5, 0.1]","[u'low', u'high', u'medium']","black",50,"middle","high","True","False",281,100,NA
"A3LC6M2EMDBBXP","Thu Jan 30 2020 09:11:05 GMT-0500 (Eastern Standard Time)","Thu Jan 30 2020 09:18:30 GMT-0500 (Eastern Standard Time)","Mozilla/5.0 (Windows NT 10.0; Win64; x64) AppleWebKit/537.36 (KHTML, like Gecko) Chrome/79.0.3945.130 Safari/537.36",5,"[0.9, 0.5, 0.1]","[0.8, 0.4, 0.2]","[u'red', u'black', u'blue']","[u'left', u'middle', u'right']","[0.9, 0.5, 0.1]","[u'low', u'high', u'medium']","black",50,"middle","high","True","False",246,200,NA
"A3LC6M2EMDBBXP","Thu Jan 30 2020 09:11:05 GMT-0500 (Eastern Standard Time)","Thu Jan 30 2020 09:18:30 GMT-0500 (Eastern Standard Time)","Mozilla/5.0 (Windows NT 10.0; Win64; x64) AppleWebKit/537.36 (KHTML, like Gecko) Chrome/79.0.3945.130 Safari/537.36",6,"[0.9, 0.5, 0.1]","[0.8, 0.4, 0.2]","[u'red', u'black', u'blue']","[u'left', u'middle', u'right']","[0.9, 0.5, 0.1]","[u'low', u'high', u'medium']","black",50,"middle","high","True","False",259,300,NA
"A3LC6M2EMDBBXP","Thu Jan 30 2020 09:11:05 GMT-0500 (Eastern Standard Time)","Thu Jan 30 2020 09:18:30 GMT-0500 (Eastern Standard Time)","Mozilla/5.0 (Windows NT 10.0; Win64; x64) AppleWebKit/537.36 (KHTML, like Gecko) Chrome/79.0.3945.130 Safari/537.36",7,"[0.9, 0.5, 0.1]","[0.8, 0.4, 0.2]","[u'red', u'black', u'blue']","[u'left', u'middle', u'right']","[0.9, 0.5, 0.1]","[u'low', u'high', u'medium']","black",50,"middle","high","True","False",225,400,NA
"A3LC6M2EMDBBXP","Thu Jan 30 2020 09:11:05 GMT-0500 (Eastern Standard Time)","Thu Jan 30 2020 09:18:30 GMT-0500 (Eastern Standard Time)","Mozilla/5.0 (Windows NT 10.0; Win64; x64) AppleWebKit/537.36 (KHTML, like Gecko) Chrome/79.0.3945.130 Safari/537.36",8,"[0.9, 0.5, 0.1]","[0.8, 0.4, 0.2]","[u'red', u'black', u'blue']","[u'left', u'middle', u'right']","[0.9, 0.5, 0.1]","[u'low', u'high', u'medium']","black",50,"middle","high","True","False",225,500,NA
"A3LC6M2EMDBBXP","Thu Jan 30 2020 09:11:05 GMT-0500 (Eastern Standard Time)","Thu Jan 30 2020 09:18:30 GMT-0500 (Eastern Standard Time)","Mozilla/5.0 (Windows NT 10.0; Win64; x64) AppleWebKit/537.36 (KHTML, like Gecko) Chrome/79.0.3945.130 Safari/537.36",9,"[0.9, 0.5, 0.1]","[0.8, 0.4, 0.2]","[u'red', u'black', u'blue']","[u'left', u'middle', u'right']","[0.9, 0.5, 0.1]","[u'low', u'high', u'medium']","black",50,"middle","high","True","False",241,600,NA
"A3LC6M2EMDBBXP","Thu Jan 30 2020 09:11:05 GMT-0500 (Eastern Standard Time)","Thu Jan 30 2020 09:18:30 GMT-0500 (Eastern Standard Time)","Mozilla/5.0 (Windows NT 10.0; Win64; x64) AppleWebKit/537.36 (KHTML, like Gecko) Chrome/79.0.3945.130 Safari/537.36",10,"[0.9, 0.5, 0.1]","[0.8, 0.4, 0.2]","[u'red', u'black', u'blue']","[u'left', u'middle', u'right']","[0.9, 0.5, 0.1]","[u'low', u'high', u'medium']","black",50,"middle","high","True","False",172,700,NA
"A3LC6M2EMDBBXP","Thu Jan 30 2020 09:11:05 GMT-0500 (Eastern Standard Time)","Thu Jan 30 2020 09:18:30 GMT-0500 (Eastern Standard Time)","Mozilla/5.0 (Windows NT 10.0; Win64; x64) AppleWebKit/537.36 (KHTML, like Gecko) Chrome/79.0.3945.130 Safari/537.36",11,"[0.9, 0.5, 0.1]","[0.8, 0.4, 0.2]","[u'red', u'black', u'blue']","[u'left', u'middle', u'right']","[0.9, 0.5, 0.1]","[u'low', u'high', u'medium']","black",50,"middle","high","True","True",210,800,NA
"A3LC6M2EMDBBXP","Thu Jan 30 2020 09:11:05 GMT-0500 (Eastern Standard Time)","Thu Jan 30 2020 09:18:30 GMT-0500 (Eastern Standard Time)","Mozilla/5.0 (Windows NT 10.0; Win64; x64) AppleWebKit/537.36 (KHTML, like Gecko) Chrome/79.0.3945.130 Safari/537.36",12,"[0.9, 0.5, 0.1]","[0.8, 0.4, 0.2]","[u'red', u'black', u'blue']","[u'left', u'middle', u'right']","[0.9, 0.5, 0.1]","[u'high', u'medium', u'low']","black",50,"middle","medium","False","False",181,750,NA
"A3LC6M2EMDBBXP","Thu Jan 30 2020 09:11:05 GMT-0500 (Eastern Standard Time)","Thu Jan 30 2020 09:18:30 GMT-0500 (Eastern Standard Time)","Mozilla/5.0 (Windows NT 10.0; Win64; x64) AppleWebKit/537.36 (KHTML, like Gecko) Chrome/79.0.3945.130 Safari/537.36",13,"[0.9, 0.5, 0.1]","[0.8, 0.4, 0.2]","[u'red', u'black', u'blue']","[u'left', u'middle', u'right']","[0.9, 0.5, 0.1]","[u'high', u'medium', u'low']","black",50,"middle","medium","True","False",232,850,NA
"A3LC6M2EMDBBXP","Thu Jan 30 2020 09:11:05 GMT-0500 (Eastern Standard Time)","Thu Jan 30 2020 09:18:30 GMT-0500 (Eastern Standard Time)","Mozilla/5.0 (Windows NT 10.0; Win64; x64) AppleWebKit/537.36 (KHTML, like Gecko) Chrome/79.0.3945.130 Safari/537.36",14,"[0.9, 0.5, 0.1]","[0.8, 0.4, 0.2]","[u'red', u'black', u'blue']","[u'left', u'middle', u'right']","[0.9, 0.5, 0.1]","[u'high', u'medium', u'low']","black",50,"middle","medium","True","False",221,950,NA
"A3LC6M2EMDBBXP","Thu Jan 30 2020 09:11:05 GMT-0500 (Eastern Standard Time)","Thu Jan 30 2020 09:18:30 GMT-0500 (Eastern Standard Time)","Mozilla/5.0 (Windows NT 10.0; Win64; x64) AppleWebKit/537.36 (KHTML, like Gecko) Chrome/79.0.3945.130 Safari/537.36",15,"[0.9, 0.5, 0.1]","[0.8, 0.4, 0.2]","[u'red', u'black', u'blue']","[u'left', u'middle', u'right']","[0.9, 0.5, 0.1]","[u'high', u'medium', u'low']","black",50,"middle","medium","True","False",344,1050,NA
"A3LC6M2EMDBBXP","Thu Jan 30 2020 09:11:05 GMT-0500 (Eastern Standard Time)","Thu Jan 30 2020 09:18:30 GMT-0500 (Eastern Standard Time)","Mozilla/5.0 (Windows NT 10.0; Win64; x64) AppleWebKit/537.36 (KHTML, like Gecko) Chrome/79.0.3945.130 Safari/537.36",16,"[0.9, 0.5, 0.1]","[0.8, 0.4, 0.2]","[u'red', u'black', u'blue']","[u'left', u'middle', u'right']","[0.9, 0.5, 0.1]","[u'high', u'medium', u'low']","black",50,"middle","medium","False","False",250,1000,NA
"A3LC6M2EMDBBXP","Thu Jan 30 2020 09:11:05 GMT-0500 (Eastern Standard Time)","Thu Jan 30 2020 09:18:30 GMT-0500 (Eastern Standard Time)","Mozilla/5.0 (Windows NT 10.0; Win64; x64) AppleWebKit/537.36 (KHTML, like Gecko) Chrome/79.0.3945.130 Safari/537.36",17,"[0.9, 0.5, 0.1]","[0.8, 0.4, 0.2]","[u'red', u'black', u'blue']","[u'left', u'middle', u'right']","[0.9, 0.5, 0.1]","[u'high', u'medium', u'low']","black",50,"middle","medium","False","False",113,950,NA
"A3LC6M2EMDBBXP","Thu Jan 30 2020 09:11:05 GMT-0500 (Eastern Standard Time)","Thu Jan 30 2020 09:18:30 GMT-0500 (Eastern Standard Time)","Mozilla/5.0 (Windows NT 10.0; Win64; x64) AppleWebKit/537.36 (KHTML, like Gecko) Chrome/79.0.3945.130 Safari/537.36",18,"[0.9, 0.5, 0.1]","[0.8, 0.4, 0.2]","[u'red', u'black', u'blue']","[u'left', u'middle', u'right']","[0.9, 0.5, 0.1]","[u'high', u'medium', u'low']","blue",51,"right","low","False","False",187,900,NA
"A3LC6M2EMDBBXP","Thu Jan 30 2020 09:11:05 GMT-0500 (Eastern Standard Time)","Thu Jan 30 2020 09:18:30 GMT-0500 (Eastern Standard Time)","Mozilla/5.0 (Windows NT 10.0; Win64; x64) AppleWebKit/537.36 (KHTML, like Gecko) Chrome/79.0.3945.130 Safari/537.36",19,"[0.9, 0.5, 0.1]","[0.8, 0.4, 0.2]","[u'red', u'black', u'blue']","[u'left', u'middle', u'right']","[0.9, 0.5, 0.1]","[u'high', u'medium', u'low']","red",49,"left","high","True","False",201,1000,NA
"A3LC6M2EMDBBXP","Thu Jan 30 2020 09:11:05 GMT-0500 (Eastern Standard Time)","Thu Jan 30 2020 09:18:30 GMT-0500 (Eastern Standard Time)","Mozilla/5.0 (Windows NT 10.0; Win64; x64) AppleWebKit/537.36 (KHTML, like Gecko) Chrome/79.0.3945.130 Safari/537.36",20,"[0.9, 0.5, 0.1]","[0.8, 0.4, 0.2]","[u'red', u'black', u'blue']","[u'left', u'middle', u'right']","[0.9, 0.5, 0.1]","[u'high', u'medium', u'low']","red",49,"left","high","True","False",215,1100,NA
"A3LC6M2EMDBBXP","Thu Jan 30 2020 09:11:05 GMT-0500 (Eastern Standard Time)","Thu Jan 30 2020 09:18:30 GMT-0500 (Eastern Standard Time)","Mozilla/5.0 (Windows NT 10.0; Win64; x64) AppleWebKit/537.36 (KHTML, like Gecko) Chrome/79.0.3945.130 Safari/537.36",21,"[0.9, 0.5, 0.1]","[0.8, 0.4, 0.2]","[u'red', u'black', u'blue']","[u'left', u'middle', u'right']","[0.9, 0.5, 0.1]","[u'high', u'medium', u'low']","red",49,"left","high","True","False",248,1200,NA
"A3LC6M2EMDBBXP","Thu Jan 30 2020 09:11:05 GMT-0500 (Eastern Standard Time)","Thu Jan 30 2020 09:18:30 GMT-0500 (Eastern Standard Time)","Mozilla/5.0 (Windows NT 10.0; Win64; x64) AppleWebKit/537.36 (KHTML, like Gecko) Chrome/79.0.3945.130 Safari/537.36",22,"[0.9, 0.5, 0.1]","[0.8, 0.4, 0.2]","[u'red', u'black', u'blue']","[u'left', u'middle', u'right']","[0.9, 0.5, 0.1]","[u'high', u'medium', u'low']","red",49,"left","high","True","False",204,1300,NA
"A3LC6M2EMDBBXP","Thu Jan 30 2020 09:11:05 GMT-0500 (Eastern Standard Time)","Thu Jan 30 2020 09:18:30 GMT-0500 (Eastern Standard Time)","Mozilla/5.0 (Windows NT 10.0; Win64; x64) AppleWebKit/537.36 (KHTML, like Gecko) Chrome/79.0.3945.130 Safari/537.36",23,"[0.9, 0.5, 0.1]","[0.8, 0.4, 0.2]","[u'red', u'black', u'blue']","[u'left', u'middle', u'right']","[0.9, 0.5, 0.1]","[u'high', u'medium', u'low']","red",49,"left","high","True","False",152,1400,NA
"A3LC6M2EMDBBXP","Thu Jan 30 2020 09:11:05 GMT-0500 (Eastern Standard Time)","Thu Jan 30 2020 09:18:30 GMT-0500 (Eastern Standard Time)","Mozilla/5.0 (Windows NT 10.0; Win64; x64) AppleWebKit/537.36 (KHTML, like Gecko) Chrome/79.0.3945.130 Safari/537.36",24,"[0.9, 0.5, 0.1]","[0.8, 0.4, 0.2]","[u'red', u'black', u'blue']","[u'left', u'middle', u'right']","[0.9, 0.5, 0.1]","[u'high', u'medium', u'low']","red",49,"left","high","True","False",247,1500,NA
"A3LC6M2EMDBBXP","Thu Jan 30 2020 09:11:05 GMT-0500 (Eastern Standard Time)","Thu Jan 30 2020 09:18:30 GMT-0500 (Eastern Standard Time)","Mozilla/5.0 (Windows NT 10.0; Win64; x64) AppleWebKit/537.36 (KHTML, like Gecko) Chrome/79.0.3945.130 Safari/537.36",25,"[0.9, 0.5, 0.1]","[0.8, 0.4, 0.2]","[u'red', u'black', u'blue']","[u'left', u'middle', u'right']","[0.9, 0.5, 0.1]","[u'high', u'medium', u'low']","red",49,"left","high","True","False",223,1600,NA
"A3LC6M2EMDBBXP","Thu Jan 30 2020 09:11:05 GMT-0500 (Eastern Standard Time)","Thu Jan 30 2020 09:18:30 GMT-0500 (Eastern Standard Time)","Mozilla/5.0 (Windows NT 10.0; Win64; x64) AppleWebKit/537.36 (KHTML, like Gecko) Chrome/79.0.3945.130 Safari/537.36",26,"[0.9, 0.5, 0.1]","[0.8, 0.4, 0.2]","[u'red', u'black', u'blue']","[u'left', u'middle', u'right']","[0.9, 0.5, 0.1]","[u'high', u'medium', u'low']","red",49,"left","high","True","False",252,1700,NA
"A3LC6M2EMDBBXP","Thu Jan 30 2020 09:11:05 GMT-0500 (Eastern Standard Time)","Thu Jan 30 2020 09:18:30 GMT-0500 (Eastern Standard Time)","Mozilla/5.0 (Windows NT 10.0; Win64; x64) AppleWebKit/537.36 (KHTML, like Gecko) Chrome/79.0.3945.130 Safari/537.36",27,"[0.9, 0.5, 0.1]","[0.8, 0.4, 0.2]","[u'red', u'black', u'blue']","[u'left', u'middle', u'right']","[0.9, 0.5, 0.1]","[u'high', u'medium', u'low']","red",49,"left","high","True","True",281,1800,NA
"A3LC6M2EMDBBXP","Thu Jan 30 2020 09:11:05 GMT-0500 (Eastern Standard Time)","Thu Jan 30 2020 09:18:30 GMT-0500 (Eastern Standard Time)","Mozilla/5.0 (Windows NT 10.0; Win64; x64) AppleWebKit/537.36 (KHTML, like Gecko) Chrome/79.0.3945.130 Safari/537.36",28,"[0.9, 0.5, 0.1]","[0.8, 0.4, 0.2]","[u'red', u'black', u'blue']","[u'left', u'middle', u'right']","[0.9, 0.5, 0.1]","[u'low', u'high', u'medium']","red",49,"left","low","False","False",257,1750,NA
"A3LC6M2EMDBBXP","Thu Jan 30 2020 09:11:05 GMT-0500 (Eastern Standard Time)","Thu Jan 30 2020 09:18:30 GMT-0500 (Eastern Standard Time)","Mozilla/5.0 (Windows NT 10.0; Win64; x64) AppleWebKit/537.36 (KHTML, like Gecko) Chrome/79.0.3945.130 Safari/537.36",29,"[0.9, 0.5, 0.1]","[0.8, 0.4, 0.2]","[u'red', u'black', u'blue']","[u'left', u'middle', u'right']","[0.9, 0.5, 0.1]","[u'low', u'high', u'medium']","red",49,"left","low","False","False",182,1700,NA
"A3LC6M2EMDBBXP","Thu Jan 30 2020 09:11:05 GMT-0500 (Eastern Standard Time)","Thu Jan 30 2020 09:18:30 GMT-0500 (Eastern Standard Time)","Mozilla/5.0 (Windows NT 10.0; Win64; x64) AppleWebKit/537.36 (KHTML, like Gecko) Chrome/79.0.3945.130 Safari/537.36",30,"[0.9, 0.5, 0.1]","[0.8, 0.4, 0.2]","[u'red', u'black', u'blue']","[u'left', u'middle', u'right']","[0.9, 0.5, 0.1]","[u'low', u'high', u'medium']","red",49,"left","low","False","False",211,1650,NA
"A3LC6M2EMDBBXP","Thu Jan 30 2020 09:11:05 GMT-0500 (Eastern Standard Time)","Thu Jan 30 2020 09:18:30 GMT-0500 (Eastern Standard Time)","Mozilla/5.0 (Windows NT 10.0; Win64; x64) AppleWebKit/537.36 (KHTML, like Gecko) Chrome/79.0.3945.130 Safari/537.36",31,"[0.9, 0.5, 0.1]","[0.8, 0.4, 0.2]","[u'red', u'black', u'blue']","[u'left', u'middle', u'right']","[0.9, 0.5, 0.1]","[u'low', u'high', u'medium']","black",50,"middle","high","True","False",202,1750,NA
"A3LC6M2EMDBBXP","Thu Jan 30 2020 09:11:05 GMT-0500 (Eastern Standard Time)","Thu Jan 30 2020 09:18:30 GMT-0500 (Eastern Standard Time)","Mozilla/5.0 (Windows NT 10.0; Win64; x64) AppleWebKit/537.36 (KHTML, like Gecko) Chrome/79.0.3945.130 Safari/537.36",32,"[0.9, 0.5, 0.1]","[0.8, 0.4, 0.2]","[u'red', u'black', u'blue']","[u'left', u'middle', u'right']","[0.9, 0.5, 0.1]","[u'low', u'high', u'medium']","black",50,"middle","high","True","False",166,1850,NA
"A3LC6M2EMDBBXP","Thu Jan 30 2020 09:11:05 GMT-0500 (Eastern Standard Time)","Thu Jan 30 2020 09:18:30 GMT-0500 (Eastern Standard Time)","Mozilla/5.0 (Windows NT 10.0; Win64; x64) AppleWebKit/537.36 (KHTML, like Gecko) Chrome/79.0.3945.130 Safari/537.36",33,"[0.9, 0.5, 0.1]","[0.8, 0.4, 0.2]","[u'red', u'black', u'blue']","[u'left', u'middle', u'right']","[0.9, 0.5, 0.1]","[u'low', u'high', u'medium']","black",50,"middle","high","True","False",222,1950,NA
"A3LC6M2EMDBBXP","Thu Jan 30 2020 09:11:05 GMT-0500 (Eastern Standard Time)","Thu Jan 30 2020 09:18:30 GMT-0500 (Eastern Standard Time)","Mozilla/5.0 (Windows NT 10.0; Win64; x64) AppleWebKit/537.36 (KHTML, like Gecko) Chrome/79.0.3945.130 Safari/537.36",34,"[0.9, 0.5, 0.1]","[0.8, 0.4, 0.2]","[u'red', u'black', u'blue']","[u'left', u'middle', u'right']","[0.9, 0.5, 0.1]","[u'low', u'high', u'medium']","black",50,"middle","high","True","False",237,2050,NA
"A3LC6M2EMDBBXP","Thu Jan 30 2020 09:11:05 GMT-0500 (Eastern Standard Time)","Thu Jan 30 2020 09:18:30 GMT-0500 (Eastern Standard Time)","Mozilla/5.0 (Windows NT 10.0; Win64; x64) AppleWebKit/537.36 (KHTML, like Gecko) Chrome/79.0.3945.130 Safari/537.36",35,"[0.9, 0.5, 0.1]","[0.8, 0.4, 0.2]","[u'red', u'black', u'blue']","[u'left', u'middle', u'right']","[0.9, 0.5, 0.1]","[u'low', u'high', u'medium']","black",50,"middle","high","True","False",14,2150,NA
"A3LC6M2EMDBBXP","Thu Jan 30 2020 09:11:05 GMT-0500 (Eastern Standard Time)","Thu Jan 30 2020 09:18:30 GMT-0500 (Eastern Standard Time)","Mozilla/5.0 (Windows NT 10.0; Win64; x64) AppleWebKit/537.36 (KHTML, like Gecko) Chrome/79.0.3945.130 Safari/537.36",36,"[0.9, 0.5, 0.1]","[0.8, 0.4, 0.2]","[u'red', u'black', u'blue']","[u'left', u'middle', u'right']","[0.9, 0.5, 0.1]","[u'low', u'high', u'medium']","black",50,"middle","high","True","False",4,2250,NA
"A3LC6M2EMDBBXP","Thu Jan 30 2020 09:11:05 GMT-0500 (Eastern Standard Time)","Thu Jan 30 2020 09:18:30 GMT-0500 (Eastern Standard Time)","Mozilla/5.0 (Windows NT 10.0; Win64; x64) AppleWebKit/537.36 (KHTML, like Gecko) Chrome/79.0.3945.130 Safari/537.36",37,"[0.9, 0.5, 0.1]","[0.8, 0.4, 0.2]","[u'red', u'black', u'blue']","[u'left', u'middle', u'right']","[0.9, 0.5, 0.1]","[u'low', u'high', u'medium']","black",50,"middle","high","True","False",237,2350,NA
"A3LC6M2EMDBBXP","Thu Jan 30 2020 09:11:05 GMT-0500 (Eastern Standard Time)","Thu Jan 30 2020 09:18:30 GMT-0500 (Eastern Standard Time)","Mozilla/5.0 (Windows NT 10.0; Win64; x64) AppleWebKit/537.36 (KHTML, like Gecko) Chrome/79.0.3945.130 Safari/537.36",38,"[0.9, 0.5, 0.1]","[0.8, 0.4, 0.2]","[u'red', u'black', u'blue']","[u'left', u'middle', u'right']","[0.9, 0.5, 0.1]","[u'low', u'high', u'medium']","black",50,"middle","high","True","False",288,2450,NA
"A3LC6M2EMDBBXP","Thu Jan 30 2020 09:11:05 GMT-0500 (Eastern Standard Time)","Thu Jan 30 2020 09:18:30 GMT-0500 (Eastern Standard Time)","Mozilla/5.0 (Windows NT 10.0; Win64; x64) AppleWebKit/537.36 (KHTML, like Gecko) Chrome/79.0.3945.130 Safari/537.36",39,"[0.9, 0.5, 0.1]","[0.8, 0.4, 0.2]","[u'red', u'black', u'blue']","[u'left', u'middle', u'right']","[0.9, 0.5, 0.1]","[u'low', u'high', u'medium']","black",50,"middle","high","True","True",295,2550,NA
"A3LC6M2EMDBBXP","Thu Jan 30 2020 09:11:05 GMT-0500 (Eastern Standard Time)","Thu Jan 30 2020 09:18:30 GMT-0500 (Eastern Standard Time)","Mozilla/5.0 (Windows NT 10.0; Win64; x64) AppleWebKit/537.36 (KHTML, like Gecko) Chrome/79.0.3945.130 Safari/537.36",40,"[0.9, 0.5, 0.1]","[0.8, 0.4, 0.2]","[u'red', u'black', u'blue']","[u'left', u'middle', u'right']","[0.9, 0.5, 0.1]","[u'medium', u'low', u'high']","black",50,"middle","low","True","False",221,2650,NA
"A3LC6M2EMDBBXP","Thu Jan 30 2020 09:11:05 GMT-0500 (Eastern Standard Time)","Thu Jan 30 2020 09:18:30 GMT-0500 (Eastern Standard Time)","Mozilla/5.0 (Windows NT 10.0; Win64; x64) AppleWebKit/537.36 (KHTML, like Gecko) Chrome/79.0.3945.130 Safari/537.36",41,"[0.9, 0.5, 0.1]","[0.8, 0.4, 0.2]","[u'red', u'black', u'blue']","[u'left', u'middle', u'right']","[0.9, 0.5, 0.1]","[u'medium', u'high', u'low']","black",50,"middle","high","True","False",518,2750,NA
"A3LC6M2EMDBBXP","Thu Jan 30 2020 09:11:05 GMT-0500 (Eastern Standard Time)","Thu Jan 30 2020 09:18:30 GMT-0500 (Eastern Standard Time)","Mozilla/5.0 (Windows NT 10.0; Win64; x64) AppleWebKit/537.36 (KHTML, like Gecko) Chrome/79.0.3945.130 Safari/537.36",42,"[0.9, 0.5, 0.1]","[0.8, 0.4, 0.2]","[u'red', u'black', u'blue']","[u'left', u'middle', u'right']","[0.9, 0.5, 0.1]","[u'medium', u'high', u'low']","black",50,"middle","high","True","False",241,2850,NA
"A3LC6M2EMDBBXP","Thu Jan 30 2020 09:11:05 GMT-0500 (Eastern Standard Time)","Thu Jan 30 2020 09:18:30 GMT-0500 (Eastern Standard Time)","Mozilla/5.0 (Windows NT 10.0; Win64; x64) AppleWebKit/537.36 (KHTML, like Gecko) Chrome/79.0.3945.130 Safari/537.36",43,"[0.9, 0.5, 0.1]","[0.8, 0.4, 0.2]","[u'red', u'black', u'blue']","[u'left', u'middle', u'right']","[0.9, 0.5, 0.1]","[u'medium', u'high', u'low']","black",50,"middle","high","True","False",211,2950,NA
"A3LC6M2EMDBBXP","Thu Jan 30 2020 09:11:05 GMT-0500 (Eastern Standard Time)","Thu Jan 30 2020 09:18:30 GMT-0500 (Eastern Standard Time)","Mozilla/5.0 (Windows NT 10.0; Win64; x64) AppleWebKit/537.36 (KHTML, like Gecko) Chrome/79.0.3945.130 Safari/537.36",44,"[0.9, 0.5, 0.1]","[0.8, 0.4, 0.2]","[u'red', u'black', u'blue']","[u'left', u'middle', u'right']","[0.9, 0.5, 0.1]","[u'medium', u'high', u'low']","black",50,"middle","high","True","False",179,3050,NA
"A3LC6M2EMDBBXP","Thu Jan 30 2020 09:11:05 GMT-0500 (Eastern Standard Time)","Thu Jan 30 2020 09:18:30 GMT-0500 (Eastern Standard Time)","Mozilla/5.0 (Windows NT 10.0; Win64; x64) AppleWebKit/537.36 (KHTML, like Gecko) Chrome/79.0.3945.130 Safari/537.36",45,"[0.9, 0.5, 0.1]","[0.8, 0.4, 0.2]","[u'red', u'black', u'blue']","[u'left', u'middle', u'right']","[0.9, 0.5, 0.1]","[u'medium', u'high', u'low']","black",50,"middle","high","True","False",208,3150,NA
"A3LC6M2EMDBBXP","Thu Jan 30 2020 09:11:05 GMT-0500 (Eastern Standard Time)","Thu Jan 30 2020 09:18:30 GMT-0500 (Eastern Standard Time)","Mozilla/5.0 (Windows NT 10.0; Win64; x64) AppleWebKit/537.36 (KHTML, like Gecko) Chrome/79.0.3945.130 Safari/537.36",46,"[0.9, 0.5, 0.1]","[0.8, 0.4, 0.2]","[u'red', u'black', u'blue']","[u'left', u'middle', u'right']","[0.9, 0.5, 0.1]","[u'medium', u'high', u'low']","black",50,"middle","high","True","False",265,3250,NA
"A3LC6M2EMDBBXP","Thu Jan 30 2020 09:11:05 GMT-0500 (Eastern Standard Time)","Thu Jan 30 2020 09:18:30 GMT-0500 (Eastern Standard Time)","Mozilla/5.0 (Windows NT 10.0; Win64; x64) AppleWebKit/537.36 (KHTML, like Gecko) Chrome/79.0.3945.130 Safari/537.36",47,"[0.9, 0.5, 0.1]","[0.8, 0.4, 0.2]","[u'red', u'black', u'blue']","[u'left', u'middle', u'right']","[0.9, 0.5, 0.1]","[u'medium', u'high', u'low']","black",50,"middle","high","True","False",212,3350,NA
"A3LC6M2EMDBBXP","Thu Jan 30 2020 09:11:05 GMT-0500 (Eastern Standard Time)","Thu Jan 30 2020 09:18:30 GMT-0500 (Eastern Standard Time)","Mozilla/5.0 (Windows NT 10.0; Win64; x64) AppleWebKit/537.36 (KHTML, like Gecko) Chrome/79.0.3945.130 Safari/537.36",48,"[0.9, 0.5, 0.1]","[0.8, 0.4, 0.2]","[u'red', u'black', u'blue']","[u'left', u'middle', u'right']","[0.9, 0.5, 0.1]","[u'medium', u'high', u'low']","black",50,"middle","high","True","False",212,3450,NA
"A3LC6M2EMDBBXP","Thu Jan 30 2020 09:11:05 GMT-0500 (Eastern Standard Time)","Thu Jan 30 2020 09:18:30 GMT-0500 (Eastern Standard Time)","Mozilla/5.0 (Windows NT 10.0; Win64; x64) AppleWebKit/537.36 (KHTML, like Gecko) Chrome/79.0.3945.130 Safari/537.36",49,"[0.9, 0.5, 0.1]","[0.8, 0.4, 0.2]","[u'red', u'black', u'blue']","[u'left', u'middle', u'right']","[0.9, 0.5, 0.1]","[u'medium', u'high', u'low']","black",50,"middle","high","True","True",204,3550,NA
"A3LC6M2EMDBBXP","Thu Jan 30 2020 09:11:05 GMT-0500 (Eastern Standard Time)","Thu Jan 30 2020 09:18:30 GMT-0500 (Eastern Standard Time)","Mozilla/5.0 (Windows NT 10.0; Win64; x64) AppleWebKit/537.36 (KHTML, like Gecko) Chrome/79.0.3945.130 Safari/537.36",50,"[0.9, 0.5, 0.1]","[0.8, 0.4, 0.2]","[u'red', u'black', u'blue']","[u'left', u'middle', u'right']","[0.9, 0.5, 0.1]","[u'high', u'low', u'medium']","black",50,"middle","low","False","False",177,3500,NA
"A3LC6M2EMDBBXP","Thu Jan 30 2020 09:11:05 GMT-0500 (Eastern Standard Time)","Thu Jan 30 2020 09:18:30 GMT-0500 (Eastern Standard Time)","Mozilla/5.0 (Windows NT 10.0; Win64; x64) AppleWebKit/537.36 (KHTML, like Gecko) Chrome/79.0.3945.130 Safari/537.36",51,"[0.9, 0.5, 0.1]","[0.8, 0.4, 0.2]","[u'red', u'black', u'blue']","[u'left', u'middle', u'right']","[0.9, 0.5, 0.1]","[u'high', u'low', u'medium']","black",50,"middle","low","False","False",48,3450,NA
"A3LC6M2EMDBBXP","Thu Jan 30 2020 09:11:05 GMT-0500 (Eastern Standard Time)","Thu Jan 30 2020 09:18:30 GMT-0500 (Eastern Standard Time)","Mozilla/5.0 (Windows NT 10.0; Win64; x64) AppleWebKit/537.36 (KHTML, like Gecko) Chrome/79.0.3945.130 Safari/537.36",52,"[0.9, 0.5, 0.1]","[0.8, 0.4, 0.2]","[u'red', u'black', u'blue']","[u'left', u'middle', u'right']","[0.9, 0.5, 0.1]","[u'high', u'low', u'medium']","blue",51,"right","medium","True","False",181,3550,NA
"A3LC6M2EMDBBXP","Thu Jan 30 2020 09:11:05 GMT-0500 (Eastern Standard Time)","Thu Jan 30 2020 09:18:30 GMT-0500 (Eastern Standard Time)","Mozilla/5.0 (Windows NT 10.0; Win64; x64) AppleWebKit/537.36 (KHTML, like Gecko) Chrome/79.0.3945.130 Safari/537.36",53,"[0.9, 0.5, 0.1]","[0.8, 0.4, 0.2]","[u'red', u'black', u'blue']","[u'left', u'middle', u'right']","[0.9, 0.5, 0.1]","[u'high', u'low', u'medium']","blue",51,"right","medium","True","False",171,3650,NA
"A3LC6M2EMDBBXP","Thu Jan 30 2020 09:11:05 GMT-0500 (Eastern Standard Time)","Thu Jan 30 2020 09:18:30 GMT-0500 (Eastern Standard Time)","Mozilla/5.0 (Windows NT 10.0; Win64; x64) AppleWebKit/537.36 (KHTML, like Gecko) Chrome/79.0.3945.130 Safari/537.36",54,"[0.9, 0.5, 0.1]","[0.8, 0.4, 0.2]","[u'red', u'black', u'blue']","[u'left', u'middle', u'right']","[0.9, 0.5, 0.1]","[u'high', u'low', u'medium']","blue",51,"right","medium","False","False",261,3600,NA
"A3LC6M2EMDBBXP","Thu Jan 30 2020 09:11:05 GMT-0500 (Eastern Standard Time)","Thu Jan 30 2020 09:18:30 GMT-0500 (Eastern Standard Time)","Mozilla/5.0 (Windows NT 10.0; Win64; x64) AppleWebKit/537.36 (KHTML, like Gecko) Chrome/79.0.3945.130 Safari/537.36",55,"[0.9, 0.5, 0.1]","[0.8, 0.4, 0.2]","[u'red', u'black', u'blue']","[u'left', u'middle', u'right']","[0.9, 0.5, 0.1]","[u'high', u'low', u'medium']","blue",51,"right","medium","True","False",166,3700,NA
"A3LC6M2EMDBBXP","Thu Jan 30 2020 09:11:05 GMT-0500 (Eastern Standard Time)","Thu Jan 30 2020 09:18:30 GMT-0500 (Eastern Standard Time)","Mozilla/5.0 (Windows NT 10.0; Win64; x64) AppleWebKit/537.36 (KHTML, like Gecko) Chrome/79.0.3945.130 Safari/537.36",56,"[0.9, 0.5, 0.1]","[0.8, 0.4, 0.2]","[u'red', u'black', u'blue']","[u'left', u'middle', u'right']","[0.9, 0.5, 0.1]","[u'high', u'low', u'medium']","blue",51,"right","medium","False","False",208,3650,NA
"A3LC6M2EMDBBXP","Thu Jan 30 2020 09:11:05 GMT-0500 (Eastern Standard Time)","Thu Jan 30 2020 09:18:30 GMT-0500 (Eastern Standard Time)","Mozilla/5.0 (Windows NT 10.0; Win64; x64) AppleWebKit/537.36 (KHTML, like Gecko) Chrome/79.0.3945.130 Safari/537.36",57,"[0.9, 0.5, 0.1]","[0.8, 0.4, 0.2]","[u'red', u'black', u'blue']","[u'left', u'middle', u'right']","[0.9, 0.5, 0.1]","[u'high', u'low', u'medium']","blue",51,"right","medium","False","False",184,3600,NA
"A3LC6M2EMDBBXP","Thu Jan 30 2020 09:11:05 GMT-0500 (Eastern Standard Time)","Thu Jan 30 2020 09:18:30 GMT-0500 (Eastern Standard Time)","Mozilla/5.0 (Windows NT 10.0; Win64; x64) AppleWebKit/537.36 (KHTML, like Gecko) Chrome/79.0.3945.130 Safari/537.36",58,"[0.9, 0.5, 0.1]","[0.8, 0.4, 0.2]","[u'red', u'black', u'blue']","[u'left', u'middle', u'right']","[0.9, 0.5, 0.1]","[u'high', u'low', u'medium']","black",50,"middle","low","False","False",168,3550,NA
"A3LC6M2EMDBBXP","Thu Jan 30 2020 09:11:05 GMT-0500 (Eastern Standard Time)","Thu Jan 30 2020 09:18:30 GMT-0500 (Eastern Standard Time)","Mozilla/5.0 (Windows NT 10.0; Win64; x64) AppleWebKit/537.36 (KHTML, like Gecko) Chrome/79.0.3945.130 Safari/537.36",59,"[0.9, 0.5, 0.1]","[0.8, 0.4, 0.2]","[u'red', u'black', u'blue']","[u'left', u'middle', u'right']","[0.9, 0.5, 0.1]","[u'high', u'low', u'medium']","red",49,"left","high","True","False",145,3650,NA
"A3LC6M2EMDBBXP","Thu Jan 30 2020 09:11:05 GMT-0500 (Eastern Standard Time)","Thu Jan 30 2020 09:18:30 GMT-0500 (Eastern Standard Time)","Mozilla/5.0 (Windows NT 10.0; Win64; x64) AppleWebKit/537.36 (KHTML, like Gecko) Chrome/79.0.3945.130 Safari/537.36",60,"[0.9, 0.5, 0.1]","[0.8, 0.4, 0.2]","[u'red', u'black', u'blue']","[u'left', u'middle', u'right']","[0.9, 0.5, 0.1]","[u'high', u'low', u'medium']","red",49,"left","high","True","False",222,3750,NA
"A3LC6M2EMDBBXP","Thu Jan 30 2020 09:11:05 GMT-0500 (Eastern Standard Time)","Thu Jan 30 2020 09:18:30 GMT-0500 (Eastern Standard Time)","Mozilla/5.0 (Windows NT 10.0; Win64; x64) AppleWebKit/537.36 (KHTML, like Gecko) Chrome/79.0.3945.130 Safari/537.36",61,"[0.9, 0.5, 0.1]","[0.8, 0.4, 0.2]","[u'red', u'black', u'blue']","[u'left', u'middle', u'right']","[0.9, 0.5, 0.1]","[u'high', u'low', u'medium']","red",49,"left","high","True","False",222,3850,NA
"A3LC6M2EMDBBXP","Thu Jan 30 2020 09:11:05 GMT-0500 (Eastern Standard Time)","Thu Jan 30 2020 09:18:30 GMT-0500 (Eastern Standard Time)","Mozilla/5.0 (Windows NT 10.0; Win64; x64) AppleWebKit/537.36 (KHTML, like Gecko) Chrome/79.0.3945.130 Safari/537.36",62,"[0.9, 0.5, 0.1]","[0.8, 0.4, 0.2]","[u'red', u'black', u'blue']","[u'left', u'middle', u'right']","[0.9, 0.5, 0.1]","[u'high', u'low', u'medium']","red",49,"left","high","True","False",184,3950,NA
"A3LC6M2EMDBBXP","Thu Jan 30 2020 09:11:05 GMT-0500 (Eastern Standard Time)","Thu Jan 30 2020 09:18:30 GMT-0500 (Eastern Standard Time)","Mozilla/5.0 (Windows NT 10.0; Win64; x64) AppleWebKit/537.36 (KHTML, like Gecko) Chrome/79.0.3945.130 Safari/537.36",63,"[0.9, 0.5, 0.1]","[0.8, 0.4, 0.2]","[u'red', u'black', u'blue']","[u'left', u'middle', u'right']","[0.9, 0.5, 0.1]","[u'high', u'low', u'medium']","red",49,"left","high","True","False",208,4050,NA
"A3LC6M2EMDBBXP","Thu Jan 30 2020 09:11:05 GMT-0500 (Eastern Standard Time)","Thu Jan 30 2020 09:18:30 GMT-0500 (Eastern Standard Time)","Mozilla/5.0 (Windows NT 10.0; Win64; x64) AppleWebKit/537.36 (KHTML, like Gecko) Chrome/79.0.3945.130 Safari/537.36",64,"[0.9, 0.5, 0.1]","[0.8, 0.4, 0.2]","[u'red', u'black', u'blue']","[u'left', u'middle', u'right']","[0.9, 0.5, 0.1]","[u'high', u'low', u'medium']","red",49,"left","high","True","False",242,4150,NA
"A3LC6M2EMDBBXP","Thu Jan 30 2020 09:11:05 GMT-0500 (Eastern Standard Time)","Thu Jan 30 2020 09:18:30 GMT-0500 (Eastern Standard Time)","Mozilla/5.0 (Windows NT 10.0; Win64; x64) AppleWebKit/537.36 (KHTML, like Gecko) Chrome/79.0.3945.130 Safari/537.36",65,"[0.9, 0.5, 0.1]","[0.8, 0.4, 0.2]","[u'red', u'black', u'blue']","[u'left', u'middle', u'right']","[0.9, 0.5, 0.1]","[u'high', u'low', u'medium']","red",49,"left","high","True","False",246,4250,NA
"A3LC6M2EMDBBXP","Thu Jan 30 2020 09:11:05 GMT-0500 (Eastern Standard Time)","Thu Jan 30 2020 09:18:30 GMT-0500 (Eastern Standard Time)","Mozilla/5.0 (Windows NT 10.0; Win64; x64) AppleWebKit/537.36 (KHTML, like Gecko) Chrome/79.0.3945.130 Safari/537.36",66,"[0.9, 0.5, 0.1]","[0.8, 0.4, 0.2]","[u'red', u'black', u'blue']","[u'left', u'middle', u'right']","[0.9, 0.5, 0.1]","[u'high', u'low', u'medium']","red",49,"left","high","True","False",181,4350,NA
"A3LC6M2EMDBBXP","Thu Jan 30 2020 09:11:05 GMT-0500 (Eastern Standard Time)","Thu Jan 30 2020 09:18:30 GMT-0500 (Eastern Standard Time)","Mozilla/5.0 (Windows NT 10.0; Win64; x64) AppleWebKit/537.36 (KHTML, like Gecko) Chrome/79.0.3945.130 Safari/537.36",67,"[0.9, 0.5, 0.1]","[0.8, 0.4, 0.2]","[u'red', u'black', u'blue']","[u'left', u'middle', u'right']","[0.9, 0.5, 0.1]","[u'high', u'low', u'medium']","red",49,"left","high","True","True",250,4450,NA
"A3LC6M2EMDBBXP","Thu Jan 30 2020 09:11:05 GMT-0500 (Eastern Standard Time)","Thu Jan 30 2020 09:18:30 GMT-0500 (Eastern Standard Time)","Mozilla/5.0 (Windows NT 10.0; Win64; x64) AppleWebKit/537.36 (KHTML, like Gecko) Chrome/79.0.3945.130 Safari/537.36",68,"[0.9, 0.5, 0.1]","[0.8, 0.4, 0.2]","[u'red', u'black', u'blue']","[u'left', u'middle', u'right']","[0.9, 0.5, 0.1]","[u'low', u'high', u'medium']","red",49,"left","low","False","False",233,4400,NA
"A3LC6M2EMDBBXP","Thu Jan 30 2020 09:11:05 GMT-0500 (Eastern Standard Time)","Thu Jan 30 2020 09:18:30 GMT-0500 (Eastern Standard Time)","Mozilla/5.0 (Windows NT 10.0; Win64; x64) AppleWebKit/537.36 (KHTML, like Gecko) Chrome/79.0.3945.130 Safari/537.36",69,"[0.9, 0.5, 0.1]","[0.8, 0.4, 0.2]","[u'red', u'black', u'blue']","[u'left', u'middle', u'right']","[0.9, 0.5, 0.1]","[u'low', u'high', u'medium']","red",49,"left","low","False","False",143,4350,NA
"A3LC6M2EMDBBXP","Thu Jan 30 2020 09:11:05 GMT-0500 (Eastern Standard Time)","Thu Jan 30 2020 09:18:30 GMT-0500 (Eastern Standard Time)","Mozilla/5.0 (Windows NT 10.0; Win64; x64) AppleWebKit/537.36 (KHTML, like Gecko) Chrome/79.0.3945.130 Safari/537.36",70,"[0.9, 0.5, 0.1]","[0.8, 0.4, 0.2]","[u'red', u'black', u'blue']","[u'left', u'middle', u'right']","[0.9, 0.5, 0.1]","[u'low', u'high', u'medium']","black",50,"middle","high","True","False",162,4450,NA
"A3LC6M2EMDBBXP","Thu Jan 30 2020 09:11:05 GMT-0500 (Eastern Standard Time)","Thu Jan 30 2020 09:18:30 GMT-0500 (Eastern Standard Time)","Mozilla/5.0 (Windows NT 10.0; Win64; x64) AppleWebKit/537.36 (KHTML, like Gecko) Chrome/79.0.3945.130 Safari/537.36",71,"[0.9, 0.5, 0.1]","[0.8, 0.4, 0.2]","[u'red', u'black', u'blue']","[u'left', u'middle', u'right']","[0.9, 0.5, 0.1]","[u'low', u'high', u'medium']","black",50,"middle","high","True","False",213,4550,NA
"A3LC6M2EMDBBXP","Thu Jan 30 2020 09:11:05 GMT-0500 (Eastern Standard Time)","Thu Jan 30 2020 09:18:30 GMT-0500 (Eastern Standard Time)","Mozilla/5.0 (Windows NT 10.0; Win64; x64) AppleWebKit/537.36 (KHTML, like Gecko) Chrome/79.0.3945.130 Safari/537.36",72,"[0.9, 0.5, 0.1]","[0.8, 0.4, 0.2]","[u'red', u'black', u'blue']","[u'left', u'middle', u'right']","[0.9, 0.5, 0.1]","[u'low', u'high', u'medium']","black",50,"middle","high","True","False",224,4650,NA
"A3LC6M2EMDBBXP","Thu Jan 30 2020 09:11:05 GMT-0500 (Eastern Standard Time)","Thu Jan 30 2020 09:18:30 GMT-0500 (Eastern Standard Time)","Mozilla/5.0 (Windows NT 10.0; Win64; x64) AppleWebKit/537.36 (KHTML, like Gecko) Chrome/79.0.3945.130 Safari/537.36",73,"[0.9, 0.5, 0.1]","[0.8, 0.4, 0.2]","[u'red', u'black', u'blue']","[u'left', u'middle', u'right']","[0.9, 0.5, 0.1]","[u'low', u'high', u'medium']","black",50,"middle","high","True","False",240,4750,NA
"A3LC6M2EMDBBXP","Thu Jan 30 2020 09:11:05 GMT-0500 (Eastern Standard Time)","Thu Jan 30 2020 09:18:30 GMT-0500 (Eastern Standard Time)","Mozilla/5.0 (Windows NT 10.0; Win64; x64) AppleWebKit/537.36 (KHTML, like Gecko) Chrome/79.0.3945.130 Safari/537.36",74,"[0.9, 0.5, 0.1]","[0.8, 0.4, 0.2]","[u'red', u'black', u'blue']","[u'left', u'middle', u'right']","[0.9, 0.5, 0.1]","[u'low', u'high', u'medium']","black",50,"middle","high","True","False",237,4850,NA
"A3LC6M2EMDBBXP","Thu Jan 30 2020 09:11:05 GMT-0500 (Eastern Standard Time)","Thu Jan 30 2020 09:18:30 GMT-0500 (Eastern Standard Time)","Mozilla/5.0 (Windows NT 10.0; Win64; x64) AppleWebKit/537.36 (KHTML, like Gecko) Chrome/79.0.3945.130 Safari/537.36",75,"[0.9, 0.5, 0.1]","[0.8, 0.4, 0.2]","[u'red', u'black', u'blue']","[u'left', u'middle', u'right']","[0.9, 0.5, 0.1]","[u'low', u'high', u'medium']","black",50,"middle","high","True","False",248,4950,NA
"A3LC6M2EMDBBXP","Thu Jan 30 2020 09:11:05 GMT-0500 (Eastern Standard Time)","Thu Jan 30 2020 09:18:30 GMT-0500 (Eastern Standard Time)","Mozilla/5.0 (Windows NT 10.0; Win64; x64) AppleWebKit/537.36 (KHTML, like Gecko) Chrome/79.0.3945.130 Safari/537.36",76,"[0.9, 0.5, 0.1]","[0.8, 0.4, 0.2]","[u'red', u'black', u'blue']","[u'left', u'middle', u'right']","[0.9, 0.5, 0.1]","[u'low', u'high', u'medium']","black",50,"middle","high","True","False",160,5050,NA
"A3LC6M2EMDBBXP","Thu Jan 30 2020 09:11:05 GMT-0500 (Eastern Standard Time)","Thu Jan 30 2020 09:18:30 GMT-0500 (Eastern Standard Time)","Mozilla/5.0 (Windows NT 10.0; Win64; x64) AppleWebKit/537.36 (KHTML, like Gecko) Chrome/79.0.3945.130 Safari/537.36",77,"[0.9, 0.5, 0.1]","[0.8, 0.4, 0.2]","[u'red', u'black', u'blue']","[u'left', u'middle', u'right']","[0.9, 0.5, 0.1]","[u'low', u'high', u'medium']","black",50,"middle","high","True","False",48,5150,NA
"A3LC6M2EMDBBXP","Thu Jan 30 2020 09:11:05 GMT-0500 (Eastern Standard Time)","Thu Jan 30 2020 09:18:30 GMT-0500 (Eastern Standard Time)","Mozilla/5.0 (Windows NT 10.0; Win64; x64) AppleWebKit/537.36 (KHTML, like Gecko) Chrome/79.0.3945.130 Safari/537.36",78,"[0.9, 0.5, 0.1]","[0.8, 0.4, 0.2]","[u'red', u'black', u'blue']","[u'left', u'middle', u'right']","[0.9, 0.5, 0.1]","[u'low', u'high', u'medium']","black",50,"middle","high","False","True",251,5100,NA
"A3LC6M2EMDBBXP","Thu Jan 30 2020 09:11:05 GMT-0500 (Eastern Standard Time)","Thu Jan 30 2020 09:18:30 GMT-0500 (Eastern Standard Time)","Mozilla/5.0 (Windows NT 10.0; Win64; x64) AppleWebKit/537.36 (KHTML, like Gecko) Chrome/79.0.3945.130 Safari/537.36",79,"[0.9, 0.5, 0.1]","[0.8, 0.4, 0.2]","[u'red', u'black', u'blue']","[u'left', u'middle', u'right']","[0.9, 0.5, 0.1]","[u'medium', u'low', u'high']","black",50,"middle","low","False","False",10,5050,NA
"A3LC6M2EMDBBXP","Thu Jan 30 2020 09:11:05 GMT-0500 (Eastern Standard Time)","Thu Jan 30 2020 09:18:30 GMT-0500 (Eastern Standard Time)","Mozilla/5.0 (Windows NT 10.0; Win64; x64) AppleWebKit/537.36 (KHTML, like Gecko) Chrome/79.0.3945.130 Safari/537.36",80,"[0.9, 0.5, 0.1]","[0.8, 0.4, 0.2]","[u'red', u'black', u'blue']","[u'left', u'middle', u'right']","[0.9, 0.5, 0.1]","[u'medium', u'low', u'high']","blue",51,"right","high","True","False",337,5150,NA
"A3LC6M2EMDBBXP","Thu Jan 30 2020 09:11:05 GMT-0500 (Eastern Standard Time)","Thu Jan 30 2020 09:18:30 GMT-0500 (Eastern Standard Time)","Mozilla/5.0 (Windows NT 10.0; Win64; x64) AppleWebKit/537.36 (KHTML, like Gecko) Chrome/79.0.3945.130 Safari/537.36",81,"[0.9, 0.5, 0.1]","[0.8, 0.4, 0.2]","[u'red', u'black', u'blue']","[u'left', u'middle', u'right']","[0.8, 0.4, 0.2]","[u'medium', u'high', u'low']","blue",51,"right","low","False","False",311,5100,NA
"A3LC6M2EMDBBXP","Thu Jan 30 2020 09:11:05 GMT-0500 (Eastern Standard Time)","Thu Jan 30 2020 09:18:30 GMT-0500 (Eastern Standard Time)","Mozilla/5.0 (Windows NT 10.0; Win64; x64) AppleWebKit/537.36 (KHTML, like Gecko) Chrome/79.0.3945.130 Safari/537.36",82,"[0.9, 0.5, 0.1]","[0.8, 0.4, 0.2]","[u'red', u'black', u'blue']","[u'left', u'middle', u'right']","[0.8, 0.4, 0.2]","[u'medium', u'high', u'low']","blue",51,"right","low","True","False",544,5200,NA
"A3LC6M2EMDBBXP","Thu Jan 30 2020 09:11:05 GMT-0500 (Eastern Standard Time)","Thu Jan 30 2020 09:18:30 GMT-0500 (Eastern Standard Time)","Mozilla/5.0 (Windows NT 10.0; Win64; x64) AppleWebKit/537.36 (KHTML, like Gecko) Chrome/79.0.3945.130 Safari/537.36",83,"[0.9, 0.5, 0.1]","[0.8, 0.4, 0.2]","[u'red', u'black', u'blue']","[u'left', u'middle', u'right']","[0.8, 0.4, 0.2]","[u'medium', u'high', u'low']","blue",51,"right","low","False","False",350,5150,NA
"A3LC6M2EMDBBXP","Thu Jan 30 2020 09:11:05 GMT-0500 (Eastern Standard Time)","Thu Jan 30 2020 09:18:30 GMT-0500 (Eastern Standard Time)","Mozilla/5.0 (Windows NT 10.0; Win64; x64) AppleWebKit/537.36 (KHTML, like Gecko) Chrome/79.0.3945.130 Safari/537.36",84,"[0.9, 0.5, 0.1]","[0.8, 0.4, 0.2]","[u'red', u'black', u'blue']","[u'left', u'middle', u'right']","[0.8, 0.4, 0.2]","[u'medium', u'high', u'low']","blue",51,"right","low","True","False",7,5250,NA
"A3LC6M2EMDBBXP","Thu Jan 30 2020 09:11:05 GMT-0500 (Eastern Standard Time)","Thu Jan 30 2020 09:18:30 GMT-0500 (Eastern Standard Time)","Mozilla/5.0 (Windows NT 10.0; Win64; x64) AppleWebKit/537.36 (KHTML, like Gecko) Chrome/79.0.3945.130 Safari/537.36",85,"[0.9, 0.5, 0.1]","[0.8, 0.4, 0.2]","[u'red', u'black', u'blue']","[u'left', u'middle', u'right']","[0.8, 0.4, 0.2]","[u'medium', u'high', u'low']","blue",51,"right","low","False","False",304,5200,NA
"A3LC6M2EMDBBXP","Thu Jan 30 2020 09:11:05 GMT-0500 (Eastern Standard Time)","Thu Jan 30 2020 09:18:30 GMT-0500 (Eastern Standard Time)","Mozilla/5.0 (Windows NT 10.0; Win64; x64) AppleWebKit/537.36 (KHTML, like Gecko) Chrome/79.0.3945.130 Safari/537.36",86,"[0.9, 0.5, 0.1]","[0.8, 0.4, 0.2]","[u'red', u'black', u'blue']","[u'left', u'middle', u'right']","[0.8, 0.4, 0.2]","[u'medium', u'high', u'low']","blue",51,"right","low","False","False",201,5150,NA
"A3LC6M2EMDBBXP","Thu Jan 30 2020 09:11:05 GMT-0500 (Eastern Standard Time)","Thu Jan 30 2020 09:18:30 GMT-0500 (Eastern Standard Time)","Mozilla/5.0 (Windows NT 10.0; Win64; x64) AppleWebKit/537.36 (KHTML, like Gecko) Chrome/79.0.3945.130 Safari/537.36",87,"[0.9, 0.5, 0.1]","[0.8, 0.4, 0.2]","[u'red', u'black', u'blue']","[u'left', u'middle', u'right']","[0.8, 0.4, 0.2]","[u'medium', u'high', u'low']","black",50,"middle","high","False","False",287,5100,NA
"A3LC6M2EMDBBXP","Thu Jan 30 2020 09:11:05 GMT-0500 (Eastern Standard Time)","Thu Jan 30 2020 09:18:30 GMT-0500 (Eastern Standard Time)","Mozilla/5.0 (Windows NT 10.0; Win64; x64) AppleWebKit/537.36 (KHTML, like Gecko) Chrome/79.0.3945.130 Safari/537.36",88,"[0.9, 0.5, 0.1]","[0.8, 0.4, 0.2]","[u'red', u'black', u'blue']","[u'left', u'middle', u'right']","[0.8, 0.4, 0.2]","[u'medium', u'high', u'low']","red",49,"left","medium","False","False",241,5050,NA
"A3LC6M2EMDBBXP","Thu Jan 30 2020 09:11:05 GMT-0500 (Eastern Standard Time)","Thu Jan 30 2020 09:18:30 GMT-0500 (Eastern Standard Time)","Mozilla/5.0 (Windows NT 10.0; Win64; x64) AppleWebKit/537.36 (KHTML, like Gecko) Chrome/79.0.3945.130 Safari/537.36",89,"[0.9, 0.5, 0.1]","[0.8, 0.4, 0.2]","[u'red', u'black', u'blue']","[u'left', u'middle', u'right']","[0.8, 0.4, 0.2]","[u'medium', u'high', u'low']","red",49,"left","medium","True","False",269,5150,NA
"A3LC6M2EMDBBXP","Thu Jan 30 2020 09:11:05 GMT-0500 (Eastern Standard Time)","Thu Jan 30 2020 09:18:30 GMT-0500 (Eastern Standard Time)","Mozilla/5.0 (Windows NT 10.0; Win64; x64) AppleWebKit/537.36 (KHTML, like Gecko) Chrome/79.0.3945.130 Safari/537.36",90,"[0.9, 0.5, 0.1]","[0.8, 0.4, 0.2]","[u'red', u'black', u'blue']","[u'left', u'middle', u'right']","[0.8, 0.4, 0.2]","[u'medium', u'high', u'low']","red",49,"left","medium","False","False",170,5100,NA
"A3LC6M2EMDBBXP","Thu Jan 30 2020 09:11:05 GMT-0500 (Eastern Standard Time)","Thu Jan 30 2020 09:18:30 GMT-0500 (Eastern Standard Time)","Mozilla/5.0 (Windows NT 10.0; Win64; x64) AppleWebKit/537.36 (KHTML, like Gecko) Chrome/79.0.3945.130 Safari/537.36",91,"[0.9, 0.5, 0.1]","[0.8, 0.4, 0.2]","[u'red', u'black', u'blue']","[u'left', u'middle', u'right']","[0.8, 0.4, 0.2]","[u'medium', u'high', u'low']","red",49,"left","medium","False","False",282,5050,NA
"A3LC6M2EMDBBXP","Thu Jan 30 2020 09:11:05 GMT-0500 (Eastern Standard Time)","Thu Jan 30 2020 09:18:30 GMT-0500 (Eastern Standard Time)","Mozilla/5.0 (Windows NT 10.0; Win64; x64) AppleWebKit/537.36 (KHTML, like Gecko) Chrome/79.0.3945.130 Safari/537.36",92,"[0.9, 0.5, 0.1]","[0.8, 0.4, 0.2]","[u'red', u'black', u'blue']","[u'left', u'middle', u'right']","[0.8, 0.4, 0.2]","[u'medium', u'high', u'low']","black",50,"middle","high","True","False",250,5150,NA
"A3LC6M2EMDBBXP","Thu Jan 30 2020 09:11:05 GMT-0500 (Eastern Standard Time)","Thu Jan 30 2020 09:18:30 GMT-0500 (Eastern Standard Time)","Mozilla/5.0 (Windows NT 10.0; Win64; x64) AppleWebKit/537.36 (KHTML, like Gecko) Chrome/79.0.3945.130 Safari/537.36",93,"[0.9, 0.5, 0.1]","[0.8, 0.4, 0.2]","[u'red', u'black', u'blue']","[u'left', u'middle', u'right']","[0.8, 0.4, 0.2]","[u'medium', u'high', u'low']","black",50,"middle","high","True","False",286,5250,NA
"A3LC6M2EMDBBXP","Thu Jan 30 2020 09:11:05 GMT-0500 (Eastern Standard Time)","Thu Jan 30 2020 09:18:30 GMT-0500 (Eastern Standard Time)","Mozilla/5.0 (Windows NT 10.0; Win64; x64) AppleWebKit/537.36 (KHTML, like Gecko) Chrome/79.0.3945.130 Safari/537.36",94,"[0.9, 0.5, 0.1]","[0.8, 0.4, 0.2]","[u'red', u'black', u'blue']","[u'left', u'middle', u'right']","[0.8, 0.4, 0.2]","[u'medium', u'high', u'low']","black",50,"middle","high","True","False",240,5350,NA
"A3LC6M2EMDBBXP","Thu Jan 30 2020 09:11:05 GMT-0500 (Eastern Standard Time)","Thu Jan 30 2020 09:18:30 GMT-0500 (Eastern Standard Time)","Mozilla/5.0 (Windows NT 10.0; Win64; x64) AppleWebKit/537.36 (KHTML, like Gecko) Chrome/79.0.3945.130 Safari/537.36",95,"[0.9, 0.5, 0.1]","[0.8, 0.4, 0.2]","[u'red', u'black', u'blue']","[u'left', u'middle', u'right']","[0.8, 0.4, 0.2]","[u'medium', u'high', u'low']","black",50,"middle","high","True","False",174,5450,NA
"A3LC6M2EMDBBXP","Thu Jan 30 2020 09:11:05 GMT-0500 (Eastern Standard Time)","Thu Jan 30 2020 09:18:30 GMT-0500 (Eastern Standard Time)","Mozilla/5.0 (Windows NT 10.0; Win64; x64) AppleWebKit/537.36 (KHTML, like Gecko) Chrome/79.0.3945.130 Safari/537.36",96,"[0.9, 0.5, 0.1]","[0.8, 0.4, 0.2]","[u'red', u'black', u'blue']","[u'left', u'middle', u'right']","[0.8, 0.4, 0.2]","[u'medium', u'high', u'low']","black",50,"middle","high","False","False",260,5400,NA
"A3LC6M2EMDBBXP","Thu Jan 30 2020 09:11:05 GMT-0500 (Eastern Standard Time)","Thu Jan 30 2020 09:18:30 GMT-0500 (Eastern Standard Time)","Mozilla/5.0 (Windows NT 10.0; Win64; x64) AppleWebKit/537.36 (KHTML, like Gecko) Chrome/79.0.3945.130 Safari/537.36",97,"[0.9, 0.5, 0.1]","[0.8, 0.4, 0.2]","[u'red', u'black', u'blue']","[u'left', u'middle', u'right']","[0.8, 0.4, 0.2]","[u'medium', u'high', u'low']","black",50,"middle","high","True","False",209,5500,NA
"A3LC6M2EMDBBXP","Thu Jan 30 2020 09:11:05 GMT-0500 (Eastern Standard Time)","Thu Jan 30 2020 09:18:30 GMT-0500 (Eastern Standard Time)","Mozilla/5.0 (Windows NT 10.0; Win64; x64) AppleWebKit/537.36 (KHTML, like Gecko) Chrome/79.0.3945.130 Safari/537.36",98,"[0.9, 0.5, 0.1]","[0.8, 0.4, 0.2]","[u'red', u'black', u'blue']","[u'left', u'middle', u'right']","[0.8, 0.4, 0.2]","[u'medium', u'high', u'low']","black",50,"middle","high","True","False",294,5600,NA
"A3LC6M2EMDBBXP","Thu Jan 30 2020 09:11:05 GMT-0500 (Eastern Standard Time)","Thu Jan 30 2020 09:18:30 GMT-0500 (Eastern Standard Time)","Mozilla/5.0 (Windows NT 10.0; Win64; x64) AppleWebKit/537.36 (KHTML, like Gecko) Chrome/79.0.3945.130 Safari/537.36",99,"[0.9, 0.5, 0.1]","[0.8, 0.4, 0.2]","[u'red', u'black', u'blue']","[u'left', u'middle', u'right']","[0.8, 0.4, 0.2]","[u'medium', u'high', u'low']","black",50,"middle","high","False","False",215,5550,NA
"A3LC6M2EMDBBXP","Thu Jan 30 2020 09:11:05 GMT-0500 (Eastern Standard Time)","Thu Jan 30 2020 09:18:30 GMT-0500 (Eastern Standard Time)","Mozilla/5.0 (Windows NT 10.0; Win64; x64) AppleWebKit/537.36 (KHTML, like Gecko) Chrome/79.0.3945.130 Safari/537.36",100,"[0.9, 0.5, 0.1]","[0.8, 0.4, 0.2]","[u'red', u'black', u'blue']","[u'left', u'middle', u'right']","[0.8, 0.4, 0.2]","[u'medium', u'high', u'low']","black",50,"middle","high","True","True",206,5650,NA
"A3LC6M2EMDBBXP","Thu Jan 30 2020 09:11:05 GMT-0500 (Eastern Standard Time)","Thu Jan 30 2020 09:18:30 GMT-0500 (Eastern Standard Time)","Mozilla/5.0 (Windows NT 10.0; Win64; x64) AppleWebKit/537.36 (KHTML, like Gecko) Chrome/79.0.3945.130 Safari/537.36",101,"[0.9, 0.5, 0.1]","[0.8, 0.4, 0.2]","[u'red', u'black', u'blue']","[u'left', u'middle', u'right']","[0.8, 0.4, 0.2]","[u'high', u'low', u'medium']","blue",51,"right","medium","True","False",285,5750,NA
"A3LC6M2EMDBBXP","Thu Jan 30 2020 09:11:05 GMT-0500 (Eastern Standard Time)","Thu Jan 30 2020 09:18:30 GMT-0500 (Eastern Standard Time)","Mozilla/5.0 (Windows NT 10.0; Win64; x64) AppleWebKit/537.36 (KHTML, like Gecko) Chrome/79.0.3945.130 Safari/537.36",102,"[0.9, 0.5, 0.1]","[0.8, 0.4, 0.2]","[u'red', u'black', u'blue']","[u'left', u'middle', u'right']","[0.8, 0.4, 0.2]","[u'high', u'low', u'medium']","blue",51,"right","medium","False","False",141,5700,NA
"A3LC6M2EMDBBXP","Thu Jan 30 2020 09:11:05 GMT-0500 (Eastern Standard Time)","Thu Jan 30 2020 09:18:30 GMT-0500 (Eastern Standard Time)","Mozilla/5.0 (Windows NT 10.0; Win64; x64) AppleWebKit/537.36 (KHTML, like Gecko) Chrome/79.0.3945.130 Safari/537.36",103,"[0.9, 0.5, 0.1]","[0.8, 0.4, 0.2]","[u'red', u'black', u'blue']","[u'left', u'middle', u'right']","[0.8, 0.4, 0.2]","[u'high', u'low', u'medium']","blue",51,"right","medium","True","False",173,5800,NA
"A3LC6M2EMDBBXP","Thu Jan 30 2020 09:11:05 GMT-0500 (Eastern Standard Time)","Thu Jan 30 2020 09:18:30 GMT-0500 (Eastern Standard Time)","Mozilla/5.0 (Windows NT 10.0; Win64; x64) AppleWebKit/537.36 (KHTML, like Gecko) Chrome/79.0.3945.130 Safari/537.36",104,"[0.9, 0.5, 0.1]","[0.8, 0.4, 0.2]","[u'red', u'black', u'blue']","[u'left', u'middle', u'right']","[0.8, 0.4, 0.2]","[u'high', u'low', u'medium']","black",50,"middle","low","False","False",216,5750,NA
"A3LC6M2EMDBBXP","Thu Jan 30 2020 09:11:05 GMT-0500 (Eastern Standard Time)","Thu Jan 30 2020 09:18:30 GMT-0500 (Eastern Standard Time)","Mozilla/5.0 (Windows NT 10.0; Win64; x64) AppleWebKit/537.36 (KHTML, like Gecko) Chrome/79.0.3945.130 Safari/537.36",105,"[0.9, 0.5, 0.1]","[0.8, 0.4, 0.2]","[u'red', u'black', u'blue']","[u'left', u'middle', u'right']","[0.8, 0.4, 0.2]","[u'high', u'low', u'medium']","blue",51,"right","medium","False","False",159,5700,NA
"A3LC6M2EMDBBXP","Thu Jan 30 2020 09:11:05 GMT-0500 (Eastern Standard Time)","Thu Jan 30 2020 09:18:30 GMT-0500 (Eastern Standard Time)","Mozilla/5.0 (Windows NT 10.0; Win64; x64) AppleWebKit/537.36 (KHTML, like Gecko) Chrome/79.0.3945.130 Safari/537.36",106,"[0.9, 0.5, 0.1]","[0.8, 0.4, 0.2]","[u'red', u'black', u'blue']","[u'left', u'middle', u'right']","[0.8, 0.4, 0.2]","[u'high', u'low', u'medium']","black",50,"middle","low","True","False",314,5800,NA
"A3LC6M2EMDBBXP","Thu Jan 30 2020 09:11:05 GMT-0500 (Eastern Standard Time)","Thu Jan 30 2020 09:18:30 GMT-0500 (Eastern Standard Time)","Mozilla/5.0 (Windows NT 10.0; Win64; x64) AppleWebKit/537.36 (KHTML, like Gecko) Chrome/79.0.3945.130 Safari/537.36",107,"[0.9, 0.5, 0.1]","[0.8, 0.4, 0.2]","[u'red', u'black', u'blue']","[u'left', u'middle', u'right']","[0.8, 0.4, 0.2]","[u'high', u'low', u'medium']","black",50,"middle","low","False","False",319,5750,NA
"A3LC6M2EMDBBXP","Thu Jan 30 2020 09:11:05 GMT-0500 (Eastern Standard Time)","Thu Jan 30 2020 09:18:30 GMT-0500 (Eastern Standard Time)","Mozilla/5.0 (Windows NT 10.0; Win64; x64) AppleWebKit/537.36 (KHTML, like Gecko) Chrome/79.0.3945.130 Safari/537.36",108,"[0.9, 0.5, 0.1]","[0.8, 0.4, 0.2]","[u'red', u'black', u'blue']","[u'left', u'middle', u'right']","[0.8, 0.4, 0.2]","[u'high', u'low', u'medium']","blue",51,"right","medium","True","False",295,5850,NA
"A3LC6M2EMDBBXP","Thu Jan 30 2020 09:11:05 GMT-0500 (Eastern Standard Time)","Thu Jan 30 2020 09:18:30 GMT-0500 (Eastern Standard Time)","Mozilla/5.0 (Windows NT 10.0; Win64; x64) AppleWebKit/537.36 (KHTML, like Gecko) Chrome/79.0.3945.130 Safari/537.36",109,"[0.9, 0.5, 0.1]","[0.8, 0.4, 0.2]","[u'red', u'black', u'blue']","[u'left', u'middle', u'right']","[0.8, 0.4, 0.2]","[u'high', u'low', u'medium']","blue",51,"right","medium","False","False",303,5800,NA
"A3LC6M2EMDBBXP","Thu Jan 30 2020 09:11:05 GMT-0500 (Eastern Standard Time)","Thu Jan 30 2020 09:18:30 GMT-0500 (Eastern Standard Time)","Mozilla/5.0 (Windows NT 10.0; Win64; x64) AppleWebKit/537.36 (KHTML, like Gecko) Chrome/79.0.3945.130 Safari/537.36",110,"[0.9, 0.5, 0.1]","[0.8, 0.4, 0.2]","[u'red', u'black', u'blue']","[u'left', u'middle', u'right']","[0.8, 0.4, 0.2]","[u'high', u'low', u'medium']","red",49,"left","high","False","False",275,5750,NA
"A3LC6M2EMDBBXP","Thu Jan 30 2020 09:11:05 GMT-0500 (Eastern Standard Time)","Thu Jan 30 2020 09:18:30 GMT-0500 (Eastern Standard Time)","Mozilla/5.0 (Windows NT 10.0; Win64; x64) AppleWebKit/537.36 (KHTML, like Gecko) Chrome/79.0.3945.130 Safari/537.36",111,"[0.9, 0.5, 0.1]","[0.8, 0.4, 0.2]","[u'red', u'black', u'blue']","[u'left', u'middle', u'right']","[0.8, 0.4, 0.2]","[u'high', u'low', u'medium']","black",50,"middle","low","False","False",168,5700,NA
"A3LC6M2EMDBBXP","Thu Jan 30 2020 09:11:05 GMT-0500 (Eastern Standard Time)","Thu Jan 30 2020 09:18:30 GMT-0500 (Eastern Standard Time)","Mozilla/5.0 (Windows NT 10.0; Win64; x64) AppleWebKit/537.36 (KHTML, like Gecko) Chrome/79.0.3945.130 Safari/537.36",112,"[0.9, 0.5, 0.1]","[0.8, 0.4, 0.2]","[u'red', u'black', u'blue']","[u'left', u'middle', u'right']","[0.8, 0.4, 0.2]","[u'high', u'low', u'medium']","black",50,"middle","low","False","False",154,5650,NA
"A3LC6M2EMDBBXP","Thu Jan 30 2020 09:11:05 GMT-0500 (Eastern Standard Time)","Thu Jan 30 2020 09:18:30 GMT-0500 (Eastern Standard Time)","Mozilla/5.0 (Windows NT 10.0; Win64; x64) AppleWebKit/537.36 (KHTML, like Gecko) Chrome/79.0.3945.130 Safari/537.36",113,"[0.9, 0.5, 0.1]","[0.8, 0.4, 0.2]","[u'red', u'black', u'blue']","[u'left', u'middle', u'right']","[0.8, 0.4, 0.2]","[u'high', u'low', u'medium']","black",50,"middle","low","False","False",200,5600,NA
"A3LC6M2EMDBBXP","Thu Jan 30 2020 09:11:05 GMT-0500 (Eastern Standard Time)","Thu Jan 30 2020 09:18:30 GMT-0500 (Eastern Standard Time)","Mozilla/5.0 (Windows NT 10.0; Win64; x64) AppleWebKit/537.36 (KHTML, like Gecko) Chrome/79.0.3945.130 Safari/537.36",114,"[0.9, 0.5, 0.1]","[0.8, 0.4, 0.2]","[u'red', u'black', u'blue']","[u'left', u'middle', u'right']","[0.8, 0.4, 0.2]","[u'high', u'low', u'medium']","blue",51,"right","medium","False","False",79,5550,NA
"A3LC6M2EMDBBXP","Thu Jan 30 2020 09:11:05 GMT-0500 (Eastern Standard Time)","Thu Jan 30 2020 09:18:30 GMT-0500 (Eastern Standard Time)","Mozilla/5.0 (Windows NT 10.0; Win64; x64) AppleWebKit/537.36 (KHTML, like Gecko) Chrome/79.0.3945.130 Safari/537.36",115,"[0.9, 0.5, 0.1]","[0.8, 0.4, 0.2]","[u'red', u'black', u'blue']","[u'left', u'middle', u'right']","[0.8, 0.4, 0.2]","[u'high', u'low', u'medium']","blue",51,"right","medium","False","False",156,5500,NA
"A3LC6M2EMDBBXP","Thu Jan 30 2020 09:11:05 GMT-0500 (Eastern Standard Time)","Thu Jan 30 2020 09:18:30 GMT-0500 (Eastern Standard Time)","Mozilla/5.0 (Windows NT 10.0; Win64; x64) AppleWebKit/537.36 (KHTML, like Gecko) Chrome/79.0.3945.130 Safari/537.36",116,"[0.9, 0.5, 0.1]","[0.8, 0.4, 0.2]","[u'red', u'black', u'blue']","[u'left', u'middle', u'right']","[0.8, 0.4, 0.2]","[u'high', u'low', u'medium']","red",49,"left","high","True","False",200,5600,NA
"A3LC6M2EMDBBXP","Thu Jan 30 2020 09:11:05 GMT-0500 (Eastern Standard Time)","Thu Jan 30 2020 09:18:30 GMT-0500 (Eastern Standard Time)","Mozilla/5.0 (Windows NT 10.0; Win64; x64) AppleWebKit/537.36 (KHTML, like Gecko) Chrome/79.0.3945.130 Safari/537.36",117,"[0.9, 0.5, 0.1]","[0.8, 0.4, 0.2]","[u'red', u'black', u'blue']","[u'left', u'middle', u'right']","[0.8, 0.4, 0.2]","[u'high', u'low', u'medium']","red",49,"left","high","True","False",440,5700,NA
"A3LC6M2EMDBBXP","Thu Jan 30 2020 09:11:05 GMT-0500 (Eastern Standard Time)","Thu Jan 30 2020 09:18:30 GMT-0500 (Eastern Standard Time)","Mozilla/5.0 (Windows NT 10.0; Win64; x64) AppleWebKit/537.36 (KHTML, like Gecko) Chrome/79.0.3945.130 Safari/537.36",118,"[0.9, 0.5, 0.1]","[0.8, 0.4, 0.2]","[u'red', u'black', u'blue']","[u'left', u'middle', u'right']","[0.8, 0.4, 0.2]","[u'high', u'low', u'medium']","red",49,"left","high","True","False",226,5800,NA
"A3LC6M2EMDBBXP","Thu Jan 30 2020 09:11:05 GMT-0500 (Eastern Standard Time)","Thu Jan 30 2020 09:18:30 GMT-0500 (Eastern Standard Time)","Mozilla/5.0 (Windows NT 10.0; Win64; x64) AppleWebKit/537.36 (KHTML, like Gecko) Chrome/79.0.3945.130 Safari/537.36",119,"[0.9, 0.5, 0.1]","[0.8, 0.4, 0.2]","[u'red', u'black', u'blue']","[u'left', u'middle', u'right']","[0.8, 0.4, 0.2]","[u'high', u'low', u'medium']","red",49,"left","high","True","False",239,5900,NA
"A3LC6M2EMDBBXP","Thu Jan 30 2020 09:11:05 GMT-0500 (Eastern Standard Time)","Thu Jan 30 2020 09:18:30 GMT-0500 (Eastern Standard Time)","Mozilla/5.0 (Windows NT 10.0; Win64; x64) AppleWebKit/537.36 (KHTML, like Gecko) Chrome/79.0.3945.130 Safari/537.36",120,"[0.9, 0.5, 0.1]","[0.8, 0.4, 0.2]","[u'red', u'black', u'blue']","[u'left', u'middle', u'right']","[0.8, 0.4, 0.2]","[u'high', u'low', u'medium']","red",49,"left","high","False","False",249,5850,NA
"A3LC6M2EMDBBXP","Thu Jan 30 2020 09:11:05 GMT-0500 (Eastern Standard Time)","Thu Jan 30 2020 09:18:30 GMT-0500 (Eastern Standard Time)","Mozilla/5.0 (Windows NT 10.0; Win64; x64) AppleWebKit/537.36 (KHTML, like Gecko) Chrome/79.0.3945.130 Safari/537.36",121,"[0.9, 0.5, 0.1]","[0.8, 0.4, 0.2]","[u'red', u'black', u'blue']","[u'left', u'middle', u'right']","[0.8, 0.4, 0.2]","[u'low', u'high', u'medium']","red",49,"left","low","False","False",332,5800,NA
"A3LC6M2EMDBBXP","Thu Jan 30 2020 09:11:05 GMT-0500 (Eastern Standard Time)","Thu Jan 30 2020 09:18:30 GMT-0500 (Eastern Standard Time)","Mozilla/5.0 (Windows NT 10.0; Win64; x64) AppleWebKit/537.36 (KHTML, like Gecko) Chrome/79.0.3945.130 Safari/537.36",122,"[0.9, 0.5, 0.1]","[0.8, 0.4, 0.2]","[u'red', u'black', u'blue']","[u'left', u'middle', u'right']","[0.8, 0.4, 0.2]","[u'low', u'high', u'medium']","black",50,"middle","high","False","False",299,5750,NA
"A3LC6M2EMDBBXP","Thu Jan 30 2020 09:11:05 GMT-0500 (Eastern Standard Time)","Thu Jan 30 2020 09:18:30 GMT-0500 (Eastern Standard Time)","Mozilla/5.0 (Windows NT 10.0; Win64; x64) AppleWebKit/537.36 (KHTML, like Gecko) Chrome/79.0.3945.130 Safari/537.36",123,"[0.9, 0.5, 0.1]","[0.8, 0.4, 0.2]","[u'red', u'black', u'blue']","[u'left', u'middle', u'right']","[0.8, 0.4, 0.2]","[u'low', u'high', u'medium']","blue",51,"right","medium","True","False",293,5850,NA
"A3LC6M2EMDBBXP","Thu Jan 30 2020 09:11:05 GMT-0500 (Eastern Standard Time)","Thu Jan 30 2020 09:18:30 GMT-0500 (Eastern Standard Time)","Mozilla/5.0 (Windows NT 10.0; Win64; x64) AppleWebKit/537.36 (KHTML, like Gecko) Chrome/79.0.3945.130 Safari/537.36",124,"[0.9, 0.5, 0.1]","[0.8, 0.4, 0.2]","[u'red', u'black', u'blue']","[u'left', u'middle', u'right']","[0.8, 0.4, 0.2]","[u'low', u'high', u'medium']","blue",51,"right","medium","False","False",231,5800,NA
"A3LC6M2EMDBBXP","Thu Jan 30 2020 09:11:05 GMT-0500 (Eastern Standard Time)","Thu Jan 30 2020 09:18:30 GMT-0500 (Eastern Standard Time)","Mozilla/5.0 (Windows NT 10.0; Win64; x64) AppleWebKit/537.36 (KHTML, like Gecko) Chrome/79.0.3945.130 Safari/537.36",125,"[0.9, 0.5, 0.1]","[0.8, 0.4, 0.2]","[u'red', u'black', u'blue']","[u'left', u'middle', u'right']","[0.8, 0.4, 0.2]","[u'low', u'high', u'medium']","blue",51,"right","medium","False","False",315,5750,NA
"A3LC6M2EMDBBXP","Thu Jan 30 2020 09:11:05 GMT-0500 (Eastern Standard Time)","Thu Jan 30 2020 09:18:30 GMT-0500 (Eastern Standard Time)","Mozilla/5.0 (Windows NT 10.0; Win64; x64) AppleWebKit/537.36 (KHTML, like Gecko) Chrome/79.0.3945.130 Safari/537.36",126,"[0.9, 0.5, 0.1]","[0.8, 0.4, 0.2]","[u'red', u'black', u'blue']","[u'left', u'middle', u'right']","[0.8, 0.4, 0.2]","[u'low', u'high', u'medium']","black",50,"middle","high","True","False",329,5850,NA
"A3LC6M2EMDBBXP","Thu Jan 30 2020 09:11:05 GMT-0500 (Eastern Standard Time)","Thu Jan 30 2020 09:18:30 GMT-0500 (Eastern Standard Time)","Mozilla/5.0 (Windows NT 10.0; Win64; x64) AppleWebKit/537.36 (KHTML, like Gecko) Chrome/79.0.3945.130 Safari/537.36",127,"[0.9, 0.5, 0.1]","[0.8, 0.4, 0.2]","[u'red', u'black', u'blue']","[u'left', u'middle', u'right']","[0.8, 0.4, 0.2]","[u'low', u'high', u'medium']","black",50,"middle","high","True","False",234,5950,NA
"A3LC6M2EMDBBXP","Thu Jan 30 2020 09:11:05 GMT-0500 (Eastern Standard Time)","Thu Jan 30 2020 09:18:30 GMT-0500 (Eastern Standard Time)","Mozilla/5.0 (Windows NT 10.0; Win64; x64) AppleWebKit/537.36 (KHTML, like Gecko) Chrome/79.0.3945.130 Safari/537.36",128,"[0.9, 0.5, 0.1]","[0.8, 0.4, 0.2]","[u'red', u'black', u'blue']","[u'left', u'middle', u'right']","[0.8, 0.4, 0.2]","[u'low', u'high', u'medium']","black",50,"middle","high","False","False",257,5900,NA
"A3LC6M2EMDBBXP","Thu Jan 30 2020 09:11:05 GMT-0500 (Eastern Standard Time)","Thu Jan 30 2020 09:18:30 GMT-0500 (Eastern Standard Time)","Mozilla/5.0 (Windows NT 10.0; Win64; x64) AppleWebKit/537.36 (KHTML, like Gecko) Chrome/79.0.3945.130 Safari/537.36",129,"[0.9, 0.5, 0.1]","[0.8, 0.4, 0.2]","[u'red', u'black', u'blue']","[u'left', u'middle', u'right']","[0.8, 0.4, 0.2]","[u'low', u'high', u'medium']","black",50,"middle","high","True","False",264,6000,NA
"A3LC6M2EMDBBXP","Thu Jan 30 2020 09:11:05 GMT-0500 (Eastern Standard Time)","Thu Jan 30 2020 09:18:30 GMT-0500 (Eastern Standard Time)","Mozilla/5.0 (Windows NT 10.0; Win64; x64) AppleWebKit/537.36 (KHTML, like Gecko) Chrome/79.0.3945.130 Safari/537.36",130,"[0.9, 0.5, 0.1]","[0.8, 0.4, 0.2]","[u'red', u'black', u'blue']","[u'left', u'middle', u'right']","[0.8, 0.4, 0.2]","[u'low', u'high', u'medium']","black",50,"middle","high","True","False",270,6100,NA
"A3LC6M2EMDBBXP","Thu Jan 30 2020 09:11:05 GMT-0500 (Eastern Standard Time)","Thu Jan 30 2020 09:18:30 GMT-0500 (Eastern Standard Time)","Mozilla/5.0 (Windows NT 10.0; Win64; x64) AppleWebKit/537.36 (KHTML, like Gecko) Chrome/79.0.3945.130 Safari/537.36",131,"[0.9, 0.5, 0.1]","[0.8, 0.4, 0.2]","[u'red', u'black', u'blue']","[u'left', u'middle', u'right']","[0.8, 0.4, 0.2]","[u'low', u'high', u'medium']","black",50,"middle","high","True","False",257,6200,NA
"A3LC6M2EMDBBXP","Thu Jan 30 2020 09:11:05 GMT-0500 (Eastern Standard Time)","Thu Jan 30 2020 09:18:30 GMT-0500 (Eastern Standard Time)","Mozilla/5.0 (Windows NT 10.0; Win64; x64) AppleWebKit/537.36 (KHTML, like Gecko) Chrome/79.0.3945.130 Safari/537.36",132,"[0.9, 0.5, 0.1]","[0.8, 0.4, 0.2]","[u'red', u'black', u'blue']","[u'left', u'middle', u'right']","[0.8, 0.4, 0.2]","[u'low', u'high', u'medium']","black",50,"middle","high","True","False",256,6300,NA
"A3LC6M2EMDBBXP","Thu Jan 30 2020 09:11:05 GMT-0500 (Eastern Standard Time)","Thu Jan 30 2020 09:18:30 GMT-0500 (Eastern Standard Time)","Mozilla/5.0 (Windows NT 10.0; Win64; x64) AppleWebKit/537.36 (KHTML, like Gecko) Chrome/79.0.3945.130 Safari/537.36",133,"[0.9, 0.5, 0.1]","[0.8, 0.4, 0.2]","[u'red', u'black', u'blue']","[u'left', u'middle', u'right']","[0.8, 0.4, 0.2]","[u'low', u'high', u'medium']","black",50,"middle","high","True","False",243,6400,NA
"A3LC6M2EMDBBXP","Thu Jan 30 2020 09:11:05 GMT-0500 (Eastern Standard Time)","Thu Jan 30 2020 09:18:30 GMT-0500 (Eastern Standard Time)","Mozilla/5.0 (Windows NT 10.0; Win64; x64) AppleWebKit/537.36 (KHTML, like Gecko) Chrome/79.0.3945.130 Safari/537.36",134,"[0.9, 0.5, 0.1]","[0.8, 0.4, 0.2]","[u'red', u'black', u'blue']","[u'left', u'middle', u'right']","[0.8, 0.4, 0.2]","[u'low', u'high', u'medium']","black",50,"middle","high","False","True",234,6350,NA
"A3LC6M2EMDBBXP","Thu Jan 30 2020 09:11:05 GMT-0500 (Eastern Standard Time)","Thu Jan 30 2020 09:18:30 GMT-0500 (Eastern Standard Time)","Mozilla/5.0 (Windows NT 10.0; Win64; x64) AppleWebKit/537.36 (KHTML, like Gecko) Chrome/79.0.3945.130 Safari/537.36",135,"[0.9, 0.5, 0.1]","[0.8, 0.4, 0.2]","[u'red', u'black', u'blue']","[u'left', u'middle', u'right']","[0.8, 0.4, 0.2]","[u'high', u'medium', u'low']","black",50,"middle","medium","False","False",204,6300,NA
"A3LC6M2EMDBBXP","Thu Jan 30 2020 09:11:05 GMT-0500 (Eastern Standard Time)","Thu Jan 30 2020 09:18:30 GMT-0500 (Eastern Standard Time)","Mozilla/5.0 (Windows NT 10.0; Win64; x64) AppleWebKit/537.36 (KHTML, like Gecko) Chrome/79.0.3945.130 Safari/537.36",136,"[0.9, 0.5, 0.1]","[0.8, 0.4, 0.2]","[u'red', u'black', u'blue']","[u'left', u'middle', u'right']","[0.8, 0.4, 0.2]","[u'high', u'medium', u'low']","black",50,"middle","medium","False","False",335,6250,NA
"A3LC6M2EMDBBXP","Thu Jan 30 2020 09:11:05 GMT-0500 (Eastern Standard Time)","Thu Jan 30 2020 09:18:30 GMT-0500 (Eastern Standard Time)","Mozilla/5.0 (Windows NT 10.0; Win64; x64) AppleWebKit/537.36 (KHTML, like Gecko) Chrome/79.0.3945.130 Safari/537.36",137,"[0.9, 0.5, 0.1]","[0.8, 0.4, 0.2]","[u'red', u'black', u'blue']","[u'left', u'middle', u'right']","[0.8, 0.4, 0.2]","[u'high', u'medium', u'low']","red",49,"left","high","False","False",249,6200,NA
"A3LC6M2EMDBBXP","Thu Jan 30 2020 09:11:05 GMT-0500 (Eastern Standard Time)","Thu Jan 30 2020 09:18:30 GMT-0500 (Eastern Standard Time)","Mozilla/5.0 (Windows NT 10.0; Win64; x64) AppleWebKit/537.36 (KHTML, like Gecko) Chrome/79.0.3945.130 Safari/537.36",138,"[0.9, 0.5, 0.1]","[0.8, 0.4, 0.2]","[u'red', u'black', u'blue']","[u'left', u'middle', u'right']","[0.8, 0.4, 0.2]","[u'high', u'medium', u'low']","black",50,"middle","medium","True","False",255,6300,NA
"A3LC6M2EMDBBXP","Thu Jan 30 2020 09:11:05 GMT-0500 (Eastern Standard Time)","Thu Jan 30 2020 09:18:30 GMT-0500 (Eastern Standard Time)","Mozilla/5.0 (Windows NT 10.0; Win64; x64) AppleWebKit/537.36 (KHTML, like Gecko) Chrome/79.0.3945.130 Safari/537.36",139,"[0.9, 0.5, 0.1]","[0.8, 0.4, 0.2]","[u'red', u'black', u'blue']","[u'left', u'middle', u'right']","[0.8, 0.4, 0.2]","[u'high', u'medium', u'low']","black",50,"middle","medium","False","False",313,6250,NA
"A3LC6M2EMDBBXP","Thu Jan 30 2020 09:11:05 GMT-0500 (Eastern Standard Time)","Thu Jan 30 2020 09:18:30 GMT-0500 (Eastern Standard Time)","Mozilla/5.0 (Windows NT 10.0; Win64; x64) AppleWebKit/537.36 (KHTML, like Gecko) Chrome/79.0.3945.130 Safari/537.36",140,"[0.9, 0.5, 0.1]","[0.8, 0.4, 0.2]","[u'red', u'black', u'blue']","[u'left', u'middle', u'right']","[0.8, 0.4, 0.2]","[u'high', u'medium', u'low']","blue",51,"right","low","False","False",378,6200,NA
"A3LC6M2EMDBBXP","Thu Jan 30 2020 09:11:05 GMT-0500 (Eastern Standard Time)","Thu Jan 30 2020 09:18:30 GMT-0500 (Eastern Standard Time)","Mozilla/5.0 (Windows NT 10.0; Win64; x64) AppleWebKit/537.36 (KHTML, like Gecko) Chrome/79.0.3945.130 Safari/537.36",141,"[0.9, 0.5, 0.1]","[0.8, 0.4, 0.2]","[u'red', u'black', u'blue']","[u'left', u'middle', u'right']","[0.8, 0.4, 0.2]","[u'high', u'medium', u'low']","blue",51,"right","low","False","False",207,6150,NA
"A3LC6M2EMDBBXP","Thu Jan 30 2020 09:11:05 GMT-0500 (Eastern Standard Time)","Thu Jan 30 2020 09:18:30 GMT-0500 (Eastern Standard Time)","Mozilla/5.0 (Windows NT 10.0; Win64; x64) AppleWebKit/537.36 (KHTML, like Gecko) Chrome/79.0.3945.130 Safari/537.36",142,"[0.9, 0.5, 0.1]","[0.8, 0.4, 0.2]","[u'red', u'black', u'blue']","[u'left', u'middle', u'right']","[0.8, 0.4, 0.2]","[u'high', u'medium', u'low']","blue",51,"right","low","True","False",26,6250,NA
"A3LC6M2EMDBBXP","Thu Jan 30 2020 09:11:05 GMT-0500 (Eastern Standard Time)","Thu Jan 30 2020 09:18:30 GMT-0500 (Eastern Standard Time)","Mozilla/5.0 (Windows NT 10.0; Win64; x64) AppleWebKit/537.36 (KHTML, like Gecko) Chrome/79.0.3945.130 Safari/537.36",143,"[0.9, 0.5, 0.1]","[0.8, 0.4, 0.2]","[u'red', u'black', u'blue']","[u'left', u'middle', u'right']","[0.8, 0.4, 0.2]","[u'high', u'medium', u'low']","blue",51,"right","low","False","False",231,6200,NA
"A3LC6M2EMDBBXP","Thu Jan 30 2020 09:11:05 GMT-0500 (Eastern Standard Time)","Thu Jan 30 2020 09:18:30 GMT-0500 (Eastern Standard Time)","Mozilla/5.0 (Windows NT 10.0; Win64; x64) AppleWebKit/537.36 (KHTML, like Gecko) Chrome/79.0.3945.130 Safari/537.36",144,"[0.9, 0.5, 0.1]","[0.8, 0.4, 0.2]","[u'red', u'black', u'blue']","[u'left', u'middle', u'right']","[0.8, 0.4, 0.2]","[u'high', u'medium', u'low']","black",50,"middle","medium","True","False",247,6300,NA
"A3LC6M2EMDBBXP","Thu Jan 30 2020 09:11:05 GMT-0500 (Eastern Standard Time)","Thu Jan 30 2020 09:18:30 GMT-0500 (Eastern Standard Time)","Mozilla/5.0 (Windows NT 10.0; Win64; x64) AppleWebKit/537.36 (KHTML, like Gecko) Chrome/79.0.3945.130 Safari/537.36",145,"[0.9, 0.5, 0.1]","[0.8, 0.4, 0.2]","[u'red', u'black', u'blue']","[u'left', u'middle', u'right']","[0.8, 0.4, 0.2]","[u'high', u'medium', u'low']","red",49,"left","high","True","False",180,6400,NA
"A3LC6M2EMDBBXP","Thu Jan 30 2020 09:11:05 GMT-0500 (Eastern Standard Time)","Thu Jan 30 2020 09:18:30 GMT-0500 (Eastern Standard Time)","Mozilla/5.0 (Windows NT 10.0; Win64; x64) AppleWebKit/537.36 (KHTML, like Gecko) Chrome/79.0.3945.130 Safari/537.36",146,"[0.9, 0.5, 0.1]","[0.8, 0.4, 0.2]","[u'red', u'black', u'blue']","[u'left', u'middle', u'right']","[0.8, 0.4, 0.2]","[u'high', u'medium', u'low']","blue",51,"right","low","True","False",247,6500,NA
"A3LC6M2EMDBBXP","Thu Jan 30 2020 09:11:05 GMT-0500 (Eastern Standard Time)","Thu Jan 30 2020 09:18:30 GMT-0500 (Eastern Standard Time)","Mozilla/5.0 (Windows NT 10.0; Win64; x64) AppleWebKit/537.36 (KHTML, like Gecko) Chrome/79.0.3945.130 Safari/537.36",147,"[0.9, 0.5, 0.1]","[0.8, 0.4, 0.2]","[u'red', u'black', u'blue']","[u'left', u'middle', u'right']","[0.8, 0.4, 0.2]","[u'high', u'medium', u'low']","black",50,"middle","medium","False","False",173,6450,NA
"A3LC6M2EMDBBXP","Thu Jan 30 2020 09:11:05 GMT-0500 (Eastern Standard Time)","Thu Jan 30 2020 09:18:30 GMT-0500 (Eastern Standard Time)","Mozilla/5.0 (Windows NT 10.0; Win64; x64) AppleWebKit/537.36 (KHTML, like Gecko) Chrome/79.0.3945.130 Safari/537.36",148,"[0.9, 0.5, 0.1]","[0.8, 0.4, 0.2]","[u'red', u'black', u'blue']","[u'left', u'middle', u'right']","[0.8, 0.4, 0.2]","[u'high', u'medium', u'low']","red",49,"left","high","True","False",216,6550,NA
"A3LC6M2EMDBBXP","Thu Jan 30 2020 09:11:05 GMT-0500 (Eastern Standard Time)","Thu Jan 30 2020 09:18:30 GMT-0500 (Eastern Standard Time)","Mozilla/5.0 (Windows NT 10.0; Win64; x64) AppleWebKit/537.36 (KHTML, like Gecko) Chrome/79.0.3945.130 Safari/537.36",149,"[0.9, 0.5, 0.1]","[0.8, 0.4, 0.2]","[u'red', u'black', u'blue']","[u'left', u'middle', u'right']","[0.8, 0.4, 0.2]","[u'high', u'medium', u'low']","blue",51,"right","low","True","False",285,6650,NA
"A3LC6M2EMDBBXP","Thu Jan 30 2020 09:11:05 GMT-0500 (Eastern Standard Time)","Thu Jan 30 2020 09:18:30 GMT-0500 (Eastern Standard Time)","Mozilla/5.0 (Windows NT 10.0; Win64; x64) AppleWebKit/537.36 (KHTML, like Gecko) Chrome/79.0.3945.130 Safari/537.36",150,"[0.9, 0.5, 0.1]","[0.8, 0.4, 0.2]","[u'red', u'black', u'blue']","[u'left', u'middle', u'right']","[0.8, 0.4, 0.2]","[u'high', u'medium', u'low']","red",49,"left","high","True","False",265,6750,NA
"A3LC6M2EMDBBXP","Thu Jan 30 2020 09:11:05 GMT-0500 (Eastern Standard Time)","Thu Jan 30 2020 09:18:30 GMT-0500 (Eastern Standard Time)","Mozilla/5.0 (Windows NT 10.0; Win64; x64) AppleWebKit/537.36 (KHTML, like Gecko) Chrome/79.0.3945.130 Safari/537.36",151,"[0.9, 0.5, 0.1]","[0.8, 0.4, 0.2]","[u'red', u'black', u'blue']","[u'left', u'middle', u'right']","[0.8, 0.4, 0.2]","[u'high', u'medium', u'low']","blue",51,"right","low","False","False",262,6700,NA
"A3LC6M2EMDBBXP","Thu Jan 30 2020 09:11:05 GMT-0500 (Eastern Standard Time)","Thu Jan 30 2020 09:18:30 GMT-0500 (Eastern Standard Time)","Mozilla/5.0 (Windows NT 10.0; Win64; x64) AppleWebKit/537.36 (KHTML, like Gecko) Chrome/79.0.3945.130 Safari/537.36",152,"[0.9, 0.5, 0.1]","[0.8, 0.4, 0.2]","[u'red', u'black', u'blue']","[u'left', u'middle', u'right']","[0.8, 0.4, 0.2]","[u'high', u'medium', u'low']","red",49,"left","high","True","False",192,6800,NA
"A3LC6M2EMDBBXP","Thu Jan 30 2020 09:11:05 GMT-0500 (Eastern Standard Time)","Thu Jan 30 2020 09:18:30 GMT-0500 (Eastern Standard Time)","Mozilla/5.0 (Windows NT 10.0; Win64; x64) AppleWebKit/537.36 (KHTML, like Gecko) Chrome/79.0.3945.130 Safari/537.36",153,"[0.9, 0.5, 0.1]","[0.8, 0.4, 0.2]","[u'red', u'black', u'blue']","[u'left', u'middle', u'right']","[0.8, 0.4, 0.2]","[u'high', u'medium', u'low']","red",49,"left","high","True","False",193,6900,NA
"A3LC6M2EMDBBXP","Thu Jan 30 2020 09:11:05 GMT-0500 (Eastern Standard Time)","Thu Jan 30 2020 09:18:30 GMT-0500 (Eastern Standard Time)","Mozilla/5.0 (Windows NT 10.0; Win64; x64) AppleWebKit/537.36 (KHTML, like Gecko) Chrome/79.0.3945.130 Safari/537.36",154,"[0.9, 0.5, 0.1]","[0.8, 0.4, 0.2]","[u'red', u'black', u'blue']","[u'left', u'middle', u'right']","[0.8, 0.4, 0.2]","[u'high', u'medium', u'low']","red",49,"left","high","True","False",207,7000,NA
"A3LC6M2EMDBBXP","Thu Jan 30 2020 09:11:05 GMT-0500 (Eastern Standard Time)","Thu Jan 30 2020 09:18:30 GMT-0500 (Eastern Standard Time)","Mozilla/5.0 (Windows NT 10.0; Win64; x64) AppleWebKit/537.36 (KHTML, like Gecko) Chrome/79.0.3945.130 Safari/537.36",155,"[0.9, 0.5, 0.1]","[0.8, 0.4, 0.2]","[u'red', u'black', u'blue']","[u'left', u'middle', u'right']","[0.8, 0.4, 0.2]","[u'high', u'medium', u'low']","red",49,"left","high","True","False",226,7100,NA
"A3LC6M2EMDBBXP","Thu Jan 30 2020 09:11:05 GMT-0500 (Eastern Standard Time)","Thu Jan 30 2020 09:18:30 GMT-0500 (Eastern Standard Time)","Mozilla/5.0 (Windows NT 10.0; Win64; x64) AppleWebKit/537.36 (KHTML, like Gecko) Chrome/79.0.3945.130 Safari/537.36",156,"[0.9, 0.5, 0.1]","[0.8, 0.4, 0.2]","[u'red', u'black', u'blue']","[u'left', u'middle', u'right']","[0.8, 0.4, 0.2]","[u'high', u'medium', u'low']","red",49,"left","high","True","False",279,7200,NA
"A3LC6M2EMDBBXP","Thu Jan 30 2020 09:11:05 GMT-0500 (Eastern Standard Time)","Thu Jan 30 2020 09:18:30 GMT-0500 (Eastern Standard Time)","Mozilla/5.0 (Windows NT 10.0; Win64; x64) AppleWebKit/537.36 (KHTML, like Gecko) Chrome/79.0.3945.130 Safari/537.36",157,"[0.9, 0.5, 0.1]","[0.8, 0.4, 0.2]","[u'red', u'black', u'blue']","[u'left', u'middle', u'right']","[0.8, 0.4, 0.2]","[u'high', u'medium', u'low']","red",49,"left","high","True","False",391,7300,NA
"A3LC6M2EMDBBXP","Thu Jan 30 2020 09:11:05 GMT-0500 (Eastern Standard Time)","Thu Jan 30 2020 09:18:30 GMT-0500 (Eastern Standard Time)","Mozilla/5.0 (Windows NT 10.0; Win64; x64) AppleWebKit/537.36 (KHTML, like Gecko) Chrome/79.0.3945.130 Safari/537.36",158,"[0.9, 0.5, 0.1]","[0.8, 0.4, 0.2]","[u'red', u'black', u'blue']","[u'left', u'middle', u'right']","[0.8, 0.4, 0.2]","[u'high', u'medium', u'low']","red",49,"left","high","False","False",280,7250,NA
"A3LC6M2EMDBBXP","Thu Jan 30 2020 09:11:05 GMT-0500 (Eastern Standard Time)","Thu Jan 30 2020 09:18:30 GMT-0500 (Eastern Standard Time)","Mozilla/5.0 (Windows NT 10.0; Win64; x64) AppleWebKit/537.36 (KHTML, like Gecko) Chrome/79.0.3945.130 Safari/537.36",159,"[0.9, 0.5, 0.1]","[0.8, 0.4, 0.2]","[u'red', u'black', u'blue']","[u'left', u'middle', u'right']","[0.8, 0.4, 0.2]","[u'high', u'medium', u'low']","red",49,"left","high","True","False",227,7350,NA
"A3LC6M2EMDBBXP","Thu Jan 30 2020 09:11:05 GMT-0500 (Eastern Standard Time)","Thu Jan 30 2020 09:18:30 GMT-0500 (Eastern Standard Time)","Mozilla/5.0 (Windows NT 10.0; Win64; x64) AppleWebKit/537.36 (KHTML, like Gecko) Chrome/79.0.3945.130 Safari/537.36",160,"[0.9, 0.5, 0.1]","[0.8, 0.4, 0.2]","[u'red', u'black', u'blue']","[u'left', u'middle', u'right']","[0.8, 0.4, 0.2]","[u'high', u'medium', u'low']","red",49,"left","high","True","True",260,7450,NA
