"src_subject_id","start_time","end_time","browser","index","first_half_probabilities","second_half_probabilities","deck_color","deck_position","deck_probabilities","deck_contingencies","response_color","key_press","response_position","response_probability","reward_type","trial_type","rt","reward_tally","exclusion_reason"
"A2ZIATVCA2NKPF","Thu Jan 30 2020 09:05:45 GMT-0500 (Eastern Standard Time)","Thu Jan 30 2020 09:11:31 GMT-0500 (Eastern Standard Time)","Mozilla/5.0 (X11; CrOS aarch64 12607.82.0) AppleWebKit/537.36 (KHTML, like Gecko) Chrome/79.0.3945.123 Safari/537.36",1,"[0.9, 0.5, 0.1]","[0.8, 0.4, 0.2]","[u'blue', u'red', u'black']","[u'left', u'middle', u'right']","[0.9, 0.5, 0.1]","[u'medium', u'low', u'high']","red",50,"middle","low","False","False",451,-50,NA
"A2ZIATVCA2NKPF","Thu Jan 30 2020 09:05:45 GMT-0500 (Eastern Standard Time)","Thu Jan 30 2020 09:11:31 GMT-0500 (Eastern Standard Time)","Mozilla/5.0 (X11; CrOS aarch64 12607.82.0) AppleWebKit/537.36 (KHTML, like Gecko) Chrome/79.0.3945.123 Safari/537.36",2,"[0.9, 0.5, 0.1]","[0.8, 0.4, 0.2]","[u'blue', u'red', u'black']","[u'left', u'middle', u'right']","[0.9, 0.5, 0.1]","[u'medium', u'low', u'high']","blue",49,"left","medium","True","False",274,50,NA
"A2ZIATVCA2NKPF","Thu Jan 30 2020 09:05:45 GMT-0500 (Eastern Standard Time)","Thu Jan 30 2020 09:11:31 GMT-0500 (Eastern Standard Time)","Mozilla/5.0 (X11; CrOS aarch64 12607.82.0) AppleWebKit/537.36 (KHTML, like Gecko) Chrome/79.0.3945.123 Safari/537.36",3,"[0.9, 0.5, 0.1]","[0.8, 0.4, 0.2]","[u'blue', u'red', u'black']","[u'left', u'middle', u'right']","[0.9, 0.5, 0.1]","[u'medium', u'low', u'high']","black",51,"right","high","False","False",305,0,NA
"A2ZIATVCA2NKPF","Thu Jan 30 2020 09:05:45 GMT-0500 (Eastern Standard Time)","Thu Jan 30 2020 09:11:31 GMT-0500 (Eastern Standard Time)","Mozilla/5.0 (X11; CrOS aarch64 12607.82.0) AppleWebKit/537.36 (KHTML, like Gecko) Chrome/79.0.3945.123 Safari/537.36",4,"[0.9, 0.5, 0.1]","[0.8, 0.4, 0.2]","[u'blue', u'red', u'black']","[u'left', u'middle', u'right']","[0.9, 0.5, 0.1]","[u'medium', u'low', u'high']","blue",49,"left","medium","True","False",154,100,NA
"A2ZIATVCA2NKPF","Thu Jan 30 2020 09:05:45 GMT-0500 (Eastern Standard Time)","Thu Jan 30 2020 09:11:31 GMT-0500 (Eastern Standard Time)","Mozilla/5.0 (X11; CrOS aarch64 12607.82.0) AppleWebKit/537.36 (KHTML, like Gecko) Chrome/79.0.3945.123 Safari/537.36",5,"[0.9, 0.5, 0.1]","[0.8, 0.4, 0.2]","[u'blue', u'red', u'black']","[u'left', u'middle', u'right']","[0.9, 0.5, 0.1]","[u'medium', u'low', u'high']","blue",49,"left","medium","True","False",203,200,NA
"A2ZIATVCA2NKPF","Thu Jan 30 2020 09:05:45 GMT-0500 (Eastern Standard Time)","Thu Jan 30 2020 09:11:31 GMT-0500 (Eastern Standard Time)","Mozilla/5.0 (X11; CrOS aarch64 12607.82.0) AppleWebKit/537.36 (KHTML, like Gecko) Chrome/79.0.3945.123 Safari/537.36",6,"[0.9, 0.5, 0.1]","[0.8, 0.4, 0.2]","[u'blue', u'red', u'black']","[u'left', u'middle', u'right']","[0.9, 0.5, 0.1]","[u'medium', u'low', u'high']","blue",49,"left","medium","True","False",303,300,NA
"A2ZIATVCA2NKPF","Thu Jan 30 2020 09:05:45 GMT-0500 (Eastern Standard Time)","Thu Jan 30 2020 09:11:31 GMT-0500 (Eastern Standard Time)","Mozilla/5.0 (X11; CrOS aarch64 12607.82.0) AppleWebKit/537.36 (KHTML, like Gecko) Chrome/79.0.3945.123 Safari/537.36",7,"[0.9, 0.5, 0.1]","[0.8, 0.4, 0.2]","[u'blue', u'red', u'black']","[u'left', u'middle', u'right']","[0.9, 0.5, 0.1]","[u'medium', u'low', u'high']","blue",49,"left","medium","True","False",297,400,NA
"A2ZIATVCA2NKPF","Thu Jan 30 2020 09:05:45 GMT-0500 (Eastern Standard Time)","Thu Jan 30 2020 09:11:31 GMT-0500 (Eastern Standard Time)","Mozilla/5.0 (X11; CrOS aarch64 12607.82.0) AppleWebKit/537.36 (KHTML, like Gecko) Chrome/79.0.3945.123 Safari/537.36",8,"[0.9, 0.5, 0.1]","[0.8, 0.4, 0.2]","[u'blue', u'red', u'black']","[u'left', u'middle', u'right']","[0.9, 0.5, 0.1]","[u'medium', u'low', u'high']","blue",49,"left","medium","True","False",301,500,NA
"A2ZIATVCA2NKPF","Thu Jan 30 2020 09:05:45 GMT-0500 (Eastern Standard Time)","Thu Jan 30 2020 09:11:31 GMT-0500 (Eastern Standard Time)","Mozilla/5.0 (X11; CrOS aarch64 12607.82.0) AppleWebKit/537.36 (KHTML, like Gecko) Chrome/79.0.3945.123 Safari/537.36",9,"[0.9, 0.5, 0.1]","[0.8, 0.4, 0.2]","[u'blue', u'red', u'black']","[u'left', u'middle', u'right']","[0.9, 0.5, 0.1]","[u'medium', u'low', u'high']","blue",49,"left","medium","False","False",169,450,NA
"A2ZIATVCA2NKPF","Thu Jan 30 2020 09:05:45 GMT-0500 (Eastern Standard Time)","Thu Jan 30 2020 09:11:31 GMT-0500 (Eastern Standard Time)","Mozilla/5.0 (X11; CrOS aarch64 12607.82.0) AppleWebKit/537.36 (KHTML, like Gecko) Chrome/79.0.3945.123 Safari/537.36",10,"[0.9, 0.5, 0.1]","[0.8, 0.4, 0.2]","[u'blue', u'red', u'black']","[u'left', u'middle', u'right']","[0.9, 0.5, 0.1]","[u'medium', u'low', u'high']","black",51,"right","high","False","False",253,400,NA
"A2ZIATVCA2NKPF","Thu Jan 30 2020 09:05:45 GMT-0500 (Eastern Standard Time)","Thu Jan 30 2020 09:11:31 GMT-0500 (Eastern Standard Time)","Mozilla/5.0 (X11; CrOS aarch64 12607.82.0) AppleWebKit/537.36 (KHTML, like Gecko) Chrome/79.0.3945.123 Safari/537.36",11,"[0.9, 0.5, 0.1]","[0.8, 0.4, 0.2]","[u'blue', u'red', u'black']","[u'left', u'middle', u'right']","[0.9, 0.5, 0.1]","[u'medium', u'low', u'high']","red",50,"middle","low","False","False",176,350,NA
"A2ZIATVCA2NKPF","Thu Jan 30 2020 09:05:45 GMT-0500 (Eastern Standard Time)","Thu Jan 30 2020 09:11:31 GMT-0500 (Eastern Standard Time)","Mozilla/5.0 (X11; CrOS aarch64 12607.82.0) AppleWebKit/537.36 (KHTML, like Gecko) Chrome/79.0.3945.123 Safari/537.36",12,"[0.9, 0.5, 0.1]","[0.8, 0.4, 0.2]","[u'blue', u'red', u'black']","[u'left', u'middle', u'right']","[0.9, 0.5, 0.1]","[u'medium', u'low', u'high']","blue",49,"left","medium","False","False",100,300,NA
"A2ZIATVCA2NKPF","Thu Jan 30 2020 09:05:45 GMT-0500 (Eastern Standard Time)","Thu Jan 30 2020 09:11:31 GMT-0500 (Eastern Standard Time)","Mozilla/5.0 (X11; CrOS aarch64 12607.82.0) AppleWebKit/537.36 (KHTML, like Gecko) Chrome/79.0.3945.123 Safari/537.36",13,"[0.9, 0.5, 0.1]","[0.8, 0.4, 0.2]","[u'blue', u'red', u'black']","[u'left', u'middle', u'right']","[0.9, 0.5, 0.1]","[u'medium', u'low', u'high']","black",51,"right","high","False","False",609,250,NA
"A2ZIATVCA2NKPF","Thu Jan 30 2020 09:05:45 GMT-0500 (Eastern Standard Time)","Thu Jan 30 2020 09:11:31 GMT-0500 (Eastern Standard Time)","Mozilla/5.0 (X11; CrOS aarch64 12607.82.0) AppleWebKit/537.36 (KHTML, like Gecko) Chrome/79.0.3945.123 Safari/537.36",14,"[0.9, 0.5, 0.1]","[0.8, 0.4, 0.2]","[u'blue', u'red', u'black']","[u'left', u'middle', u'right']","[0.9, 0.5, 0.1]","[u'medium', u'low', u'high']","red",50,"middle","low","False","False",298,200,NA
"A2ZIATVCA2NKPF","Thu Jan 30 2020 09:05:45 GMT-0500 (Eastern Standard Time)","Thu Jan 30 2020 09:11:31 GMT-0500 (Eastern Standard Time)","Mozilla/5.0 (X11; CrOS aarch64 12607.82.0) AppleWebKit/537.36 (KHTML, like Gecko) Chrome/79.0.3945.123 Safari/537.36",15,"[0.9, 0.5, 0.1]","[0.8, 0.4, 0.2]","[u'blue', u'red', u'black']","[u'left', u'middle', u'right']","[0.9, 0.5, 0.1]","[u'medium', u'low', u'high']","red",50,"middle","low","False","False",229,150,NA
"A2ZIATVCA2NKPF","Thu Jan 30 2020 09:05:45 GMT-0500 (Eastern Standard Time)","Thu Jan 30 2020 09:11:31 GMT-0500 (Eastern Standard Time)","Mozilla/5.0 (X11; CrOS aarch64 12607.82.0) AppleWebKit/537.36 (KHTML, like Gecko) Chrome/79.0.3945.123 Safari/537.36",16,"[0.9, 0.5, 0.1]","[0.8, 0.4, 0.2]","[u'blue', u'red', u'black']","[u'left', u'middle', u'right']","[0.9, 0.5, 0.1]","[u'medium', u'low', u'high']","blue",49,"left","medium","False","False",587,100,NA
"A2ZIATVCA2NKPF","Thu Jan 30 2020 09:05:45 GMT-0500 (Eastern Standard Time)","Thu Jan 30 2020 09:11:31 GMT-0500 (Eastern Standard Time)","Mozilla/5.0 (X11; CrOS aarch64 12607.82.0) AppleWebKit/537.36 (KHTML, like Gecko) Chrome/79.0.3945.123 Safari/537.36",17,"[0.9, 0.5, 0.1]","[0.8, 0.4, 0.2]","[u'blue', u'red', u'black']","[u'left', u'middle', u'right']","[0.9, 0.5, 0.1]","[u'medium', u'low', u'high']","red",50,"middle","low","False","False",196,50,NA
"A2ZIATVCA2NKPF","Thu Jan 30 2020 09:05:45 GMT-0500 (Eastern Standard Time)","Thu Jan 30 2020 09:11:31 GMT-0500 (Eastern Standard Time)","Mozilla/5.0 (X11; CrOS aarch64 12607.82.0) AppleWebKit/537.36 (KHTML, like Gecko) Chrome/79.0.3945.123 Safari/537.36",18,"[0.9, 0.5, 0.1]","[0.8, 0.4, 0.2]","[u'blue', u'red', u'black']","[u'left', u'middle', u'right']","[0.9, 0.5, 0.1]","[u'medium', u'low', u'high']","black",51,"right","high","True","False",191,150,NA
"A2ZIATVCA2NKPF","Thu Jan 30 2020 09:05:45 GMT-0500 (Eastern Standard Time)","Thu Jan 30 2020 09:11:31 GMT-0500 (Eastern Standard Time)","Mozilla/5.0 (X11; CrOS aarch64 12607.82.0) AppleWebKit/537.36 (KHTML, like Gecko) Chrome/79.0.3945.123 Safari/537.36",19,"[0.9, 0.5, 0.1]","[0.8, 0.4, 0.2]","[u'blue', u'red', u'black']","[u'left', u'middle', u'right']","[0.9, 0.5, 0.1]","[u'medium', u'low', u'high']","black",51,"right","high","True","False",642,250,NA
"A2ZIATVCA2NKPF","Thu Jan 30 2020 09:05:45 GMT-0500 (Eastern Standard Time)","Thu Jan 30 2020 09:11:31 GMT-0500 (Eastern Standard Time)","Mozilla/5.0 (X11; CrOS aarch64 12607.82.0) AppleWebKit/537.36 (KHTML, like Gecko) Chrome/79.0.3945.123 Safari/537.36",20,"[0.9, 0.5, 0.1]","[0.8, 0.4, 0.2]","[u'blue', u'red', u'black']","[u'left', u'middle', u'right']","[0.9, 0.5, 0.1]","[u'medium', u'low', u'high']","black",51,"right","high","True","False",243,350,NA
"A2ZIATVCA2NKPF","Thu Jan 30 2020 09:05:45 GMT-0500 (Eastern Standard Time)","Thu Jan 30 2020 09:11:31 GMT-0500 (Eastern Standard Time)","Mozilla/5.0 (X11; CrOS aarch64 12607.82.0) AppleWebKit/537.36 (KHTML, like Gecko) Chrome/79.0.3945.123 Safari/537.36",21,"[0.9, 0.5, 0.1]","[0.8, 0.4, 0.2]","[u'blue', u'red', u'black']","[u'left', u'middle', u'right']","[0.9, 0.5, 0.1]","[u'medium', u'low', u'high']","black",51,"right","high","True","False",589,450,NA
"A2ZIATVCA2NKPF","Thu Jan 30 2020 09:05:45 GMT-0500 (Eastern Standard Time)","Thu Jan 30 2020 09:11:31 GMT-0500 (Eastern Standard Time)","Mozilla/5.0 (X11; CrOS aarch64 12607.82.0) AppleWebKit/537.36 (KHTML, like Gecko) Chrome/79.0.3945.123 Safari/537.36",22,"[0.9, 0.5, 0.1]","[0.8, 0.4, 0.2]","[u'blue', u'red', u'black']","[u'left', u'middle', u'right']","[0.9, 0.5, 0.1]","[u'medium', u'low', u'high']","black",51,"right","high","True","False",297,550,NA
"A2ZIATVCA2NKPF","Thu Jan 30 2020 09:05:45 GMT-0500 (Eastern Standard Time)","Thu Jan 30 2020 09:11:31 GMT-0500 (Eastern Standard Time)","Mozilla/5.0 (X11; CrOS aarch64 12607.82.0) AppleWebKit/537.36 (KHTML, like Gecko) Chrome/79.0.3945.123 Safari/537.36",23,"[0.9, 0.5, 0.1]","[0.8, 0.4, 0.2]","[u'blue', u'red', u'black']","[u'left', u'middle', u'right']","[0.9, 0.5, 0.1]","[u'medium', u'low', u'high']","black",51,"right","high","True","False",19,650,NA
"A2ZIATVCA2NKPF","Thu Jan 30 2020 09:05:45 GMT-0500 (Eastern Standard Time)","Thu Jan 30 2020 09:11:31 GMT-0500 (Eastern Standard Time)","Mozilla/5.0 (X11; CrOS aarch64 12607.82.0) AppleWebKit/537.36 (KHTML, like Gecko) Chrome/79.0.3945.123 Safari/537.36",24,"[0.9, 0.5, 0.1]","[0.8, 0.4, 0.2]","[u'blue', u'red', u'black']","[u'left', u'middle', u'right']","[0.9, 0.5, 0.1]","[u'medium', u'low', u'high']","black",51,"right","high","True","False",368,750,NA
"A2ZIATVCA2NKPF","Thu Jan 30 2020 09:05:45 GMT-0500 (Eastern Standard Time)","Thu Jan 30 2020 09:11:31 GMT-0500 (Eastern Standard Time)","Mozilla/5.0 (X11; CrOS aarch64 12607.82.0) AppleWebKit/537.36 (KHTML, like Gecko) Chrome/79.0.3945.123 Safari/537.36",25,"[0.9, 0.5, 0.1]","[0.8, 0.4, 0.2]","[u'blue', u'red', u'black']","[u'left', u'middle', u'right']","[0.9, 0.5, 0.1]","[u'medium', u'low', u'high']","black",51,"right","high","False","False",5,700,NA
"A2ZIATVCA2NKPF","Thu Jan 30 2020 09:05:45 GMT-0500 (Eastern Standard Time)","Thu Jan 30 2020 09:11:31 GMT-0500 (Eastern Standard Time)","Mozilla/5.0 (X11; CrOS aarch64 12607.82.0) AppleWebKit/537.36 (KHTML, like Gecko) Chrome/79.0.3945.123 Safari/537.36",26,"[0.9, 0.5, 0.1]","[0.8, 0.4, 0.2]","[u'blue', u'red', u'black']","[u'left', u'middle', u'right']","[0.9, 0.5, 0.1]","[u'medium', u'low', u'high']","black",51,"right","high","True","True",680,800,NA
"A2ZIATVCA2NKPF","Thu Jan 30 2020 09:05:45 GMT-0500 (Eastern Standard Time)","Thu Jan 30 2020 09:11:31 GMT-0500 (Eastern Standard Time)","Mozilla/5.0 (X11; CrOS aarch64 12607.82.0) AppleWebKit/537.36 (KHTML, like Gecko) Chrome/79.0.3945.123 Safari/537.36",27,"[0.9, 0.5, 0.1]","[0.8, 0.4, 0.2]","[u'blue', u'red', u'black']","[u'left', u'middle', u'right']","[0.9, 0.5, 0.1]","[u'low', u'high', u'medium']","black",51,"right","medium","False","False",276,750,NA
"A2ZIATVCA2NKPF","Thu Jan 30 2020 09:05:45 GMT-0500 (Eastern Standard Time)","Thu Jan 30 2020 09:11:31 GMT-0500 (Eastern Standard Time)","Mozilla/5.0 (X11; CrOS aarch64 12607.82.0) AppleWebKit/537.36 (KHTML, like Gecko) Chrome/79.0.3945.123 Safari/537.36",28,"[0.9, 0.5, 0.1]","[0.8, 0.4, 0.2]","[u'blue', u'red', u'black']","[u'left', u'middle', u'right']","[0.9, 0.5, 0.1]","[u'low', u'high', u'medium']","blue",49,"left","low","False","False",317,700,NA
"A2ZIATVCA2NKPF","Thu Jan 30 2020 09:05:45 GMT-0500 (Eastern Standard Time)","Thu Jan 30 2020 09:11:31 GMT-0500 (Eastern Standard Time)","Mozilla/5.0 (X11; CrOS aarch64 12607.82.0) AppleWebKit/537.36 (KHTML, like Gecko) Chrome/79.0.3945.123 Safari/537.36",29,"[0.9, 0.5, 0.1]","[0.8, 0.4, 0.2]","[u'blue', u'red', u'black']","[u'left', u'middle', u'right']","[0.9, 0.5, 0.1]","[u'low', u'high', u'medium']","red",50,"middle","high","True","False",11,800,NA
"A2ZIATVCA2NKPF","Thu Jan 30 2020 09:05:45 GMT-0500 (Eastern Standard Time)","Thu Jan 30 2020 09:11:31 GMT-0500 (Eastern Standard Time)","Mozilla/5.0 (X11; CrOS aarch64 12607.82.0) AppleWebKit/537.36 (KHTML, like Gecko) Chrome/79.0.3945.123 Safari/537.36",30,"[0.9, 0.5, 0.1]","[0.8, 0.4, 0.2]","[u'blue', u'red', u'black']","[u'left', u'middle', u'right']","[0.9, 0.5, 0.1]","[u'low', u'high', u'medium']","red",50,"middle","high","False","False",139,750,NA
"A2ZIATVCA2NKPF","Thu Jan 30 2020 09:05:45 GMT-0500 (Eastern Standard Time)","Thu Jan 30 2020 09:11:31 GMT-0500 (Eastern Standard Time)","Mozilla/5.0 (X11; CrOS aarch64 12607.82.0) AppleWebKit/537.36 (KHTML, like Gecko) Chrome/79.0.3945.123 Safari/537.36",31,"[0.9, 0.5, 0.1]","[0.8, 0.4, 0.2]","[u'blue', u'red', u'black']","[u'left', u'middle', u'right']","[0.9, 0.5, 0.1]","[u'low', u'high', u'medium']","red",50,"middle","high","True","False",185,850,NA
"A2ZIATVCA2NKPF","Thu Jan 30 2020 09:05:45 GMT-0500 (Eastern Standard Time)","Thu Jan 30 2020 09:11:31 GMT-0500 (Eastern Standard Time)","Mozilla/5.0 (X11; CrOS aarch64 12607.82.0) AppleWebKit/537.36 (KHTML, like Gecko) Chrome/79.0.3945.123 Safari/537.36",32,"[0.9, 0.5, 0.1]","[0.8, 0.4, 0.2]","[u'blue', u'red', u'black']","[u'left', u'middle', u'right']","[0.9, 0.5, 0.1]","[u'low', u'high', u'medium']","red",50,"middle","high","True","False",564,950,NA
"A2ZIATVCA2NKPF","Thu Jan 30 2020 09:05:45 GMT-0500 (Eastern Standard Time)","Thu Jan 30 2020 09:11:31 GMT-0500 (Eastern Standard Time)","Mozilla/5.0 (X11; CrOS aarch64 12607.82.0) AppleWebKit/537.36 (KHTML, like Gecko) Chrome/79.0.3945.123 Safari/537.36",33,"[0.9, 0.5, 0.1]","[0.8, 0.4, 0.2]","[u'blue', u'red', u'black']","[u'left', u'middle', u'right']","[0.9, 0.5, 0.1]","[u'low', u'high', u'medium']","red",50,"middle","high","False","False",136,900,NA
"A2ZIATVCA2NKPF","Thu Jan 30 2020 09:05:45 GMT-0500 (Eastern Standard Time)","Thu Jan 30 2020 09:11:31 GMT-0500 (Eastern Standard Time)","Mozilla/5.0 (X11; CrOS aarch64 12607.82.0) AppleWebKit/537.36 (KHTML, like Gecko) Chrome/79.0.3945.123 Safari/537.36",34,"[0.9, 0.5, 0.1]","[0.8, 0.4, 0.2]","[u'blue', u'red', u'black']","[u'left', u'middle', u'right']","[0.9, 0.5, 0.1]","[u'low', u'high', u'medium']","red",50,"middle","high","True","False",664,1000,NA
"A2ZIATVCA2NKPF","Thu Jan 30 2020 09:05:45 GMT-0500 (Eastern Standard Time)","Thu Jan 30 2020 09:11:31 GMT-0500 (Eastern Standard Time)","Mozilla/5.0 (X11; CrOS aarch64 12607.82.0) AppleWebKit/537.36 (KHTML, like Gecko) Chrome/79.0.3945.123 Safari/537.36",35,"[0.9, 0.5, 0.1]","[0.8, 0.4, 0.2]","[u'blue', u'red', u'black']","[u'left', u'middle', u'right']","[0.9, 0.5, 0.1]","[u'low', u'high', u'medium']","red",50,"middle","high","False","False",238,950,NA
"A2ZIATVCA2NKPF","Thu Jan 30 2020 09:05:45 GMT-0500 (Eastern Standard Time)","Thu Jan 30 2020 09:11:31 GMT-0500 (Eastern Standard Time)","Mozilla/5.0 (X11; CrOS aarch64 12607.82.0) AppleWebKit/537.36 (KHTML, like Gecko) Chrome/79.0.3945.123 Safari/537.36",36,"[0.9, 0.5, 0.1]","[0.8, 0.4, 0.2]","[u'blue', u'red', u'black']","[u'left', u'middle', u'right']","[0.9, 0.5, 0.1]","[u'low', u'high', u'medium']","red",50,"middle","high","True","False",178,1050,NA
"A2ZIATVCA2NKPF","Thu Jan 30 2020 09:05:45 GMT-0500 (Eastern Standard Time)","Thu Jan 30 2020 09:11:31 GMT-0500 (Eastern Standard Time)","Mozilla/5.0 (X11; CrOS aarch64 12607.82.0) AppleWebKit/537.36 (KHTML, like Gecko) Chrome/79.0.3945.123 Safari/537.36",37,"[0.9, 0.5, 0.1]","[0.8, 0.4, 0.2]","[u'blue', u'red', u'black']","[u'left', u'middle', u'right']","[0.9, 0.5, 0.1]","[u'low', u'high', u'medium']","black",51,"right","medium","False","False",303,1000,NA
"A2ZIATVCA2NKPF","Thu Jan 30 2020 09:05:45 GMT-0500 (Eastern Standard Time)","Thu Jan 30 2020 09:11:31 GMT-0500 (Eastern Standard Time)","Mozilla/5.0 (X11; CrOS aarch64 12607.82.0) AppleWebKit/537.36 (KHTML, like Gecko) Chrome/79.0.3945.123 Safari/537.36",38,"[0.9, 0.5, 0.1]","[0.8, 0.4, 0.2]","[u'blue', u'red', u'black']","[u'left', u'middle', u'right']","[0.9, 0.5, 0.1]","[u'low', u'high', u'medium']","red",50,"middle","high","True","True",96,1100,NA
"A2ZIATVCA2NKPF","Thu Jan 30 2020 09:05:45 GMT-0500 (Eastern Standard Time)","Thu Jan 30 2020 09:11:31 GMT-0500 (Eastern Standard Time)","Mozilla/5.0 (X11; CrOS aarch64 12607.82.0) AppleWebKit/537.36 (KHTML, like Gecko) Chrome/79.0.3945.123 Safari/537.36",39,"[0.9, 0.5, 0.1]","[0.8, 0.4, 0.2]","[u'blue', u'red', u'black']","[u'left', u'middle', u'right']","[0.9, 0.5, 0.1]","[u'medium', u'low', u'high']","red",50,"middle","low","False","False",105,1050,NA
"A2ZIATVCA2NKPF","Thu Jan 30 2020 09:05:45 GMT-0500 (Eastern Standard Time)","Thu Jan 30 2020 09:11:31 GMT-0500 (Eastern Standard Time)","Mozilla/5.0 (X11; CrOS aarch64 12607.82.0) AppleWebKit/537.36 (KHTML, like Gecko) Chrome/79.0.3945.123 Safari/537.36",40,"[0.9, 0.5, 0.1]","[0.8, 0.4, 0.2]","[u'blue', u'red', u'black']","[u'left', u'middle', u'right']","[0.9, 0.5, 0.1]","[u'medium', u'low', u'high']","red",50,"middle","low","True","False",637,1150,NA
"A2ZIATVCA2NKPF","Thu Jan 30 2020 09:05:45 GMT-0500 (Eastern Standard Time)","Thu Jan 30 2020 09:11:31 GMT-0500 (Eastern Standard Time)","Mozilla/5.0 (X11; CrOS aarch64 12607.82.0) AppleWebKit/537.36 (KHTML, like Gecko) Chrome/79.0.3945.123 Safari/537.36",41,"[0.9, 0.5, 0.1]","[0.8, 0.4, 0.2]","[u'blue', u'red', u'black']","[u'left', u'middle', u'right']","[0.9, 0.5, 0.1]","[u'medium', u'high', u'low']","blue",49,"left","medium","False","False",1107,1100,NA
"A2ZIATVCA2NKPF","Thu Jan 30 2020 09:05:45 GMT-0500 (Eastern Standard Time)","Thu Jan 30 2020 09:11:31 GMT-0500 (Eastern Standard Time)","Mozilla/5.0 (X11; CrOS aarch64 12607.82.0) AppleWebKit/537.36 (KHTML, like Gecko) Chrome/79.0.3945.123 Safari/537.36",42,"[0.9, 0.5, 0.1]","[0.8, 0.4, 0.2]","[u'blue', u'red', u'black']","[u'left', u'middle', u'right']","[0.9, 0.5, 0.1]","[u'medium', u'high', u'low']","red",50,"middle","high","True","False",155,1200,NA
"A2ZIATVCA2NKPF","Thu Jan 30 2020 09:05:45 GMT-0500 (Eastern Standard Time)","Thu Jan 30 2020 09:11:31 GMT-0500 (Eastern Standard Time)","Mozilla/5.0 (X11; CrOS aarch64 12607.82.0) AppleWebKit/537.36 (KHTML, like Gecko) Chrome/79.0.3945.123 Safari/537.36",43,"[0.9, 0.5, 0.1]","[0.8, 0.4, 0.2]","[u'blue', u'red', u'black']","[u'left', u'middle', u'right']","[0.9, 0.5, 0.1]","[u'medium', u'high', u'low']","red",50,"middle","high","True","False",525,1300,NA
"A2ZIATVCA2NKPF","Thu Jan 30 2020 09:05:45 GMT-0500 (Eastern Standard Time)","Thu Jan 30 2020 09:11:31 GMT-0500 (Eastern Standard Time)","Mozilla/5.0 (X11; CrOS aarch64 12607.82.0) AppleWebKit/537.36 (KHTML, like Gecko) Chrome/79.0.3945.123 Safari/537.36",44,"[0.9, 0.5, 0.1]","[0.8, 0.4, 0.2]","[u'blue', u'red', u'black']","[u'left', u'middle', u'right']","[0.9, 0.5, 0.1]","[u'medium', u'high', u'low']","red",50,"middle","high","True","False",175,1400,NA
"A2ZIATVCA2NKPF","Thu Jan 30 2020 09:05:45 GMT-0500 (Eastern Standard Time)","Thu Jan 30 2020 09:11:31 GMT-0500 (Eastern Standard Time)","Mozilla/5.0 (X11; CrOS aarch64 12607.82.0) AppleWebKit/537.36 (KHTML, like Gecko) Chrome/79.0.3945.123 Safari/537.36",45,"[0.9, 0.5, 0.1]","[0.8, 0.4, 0.2]","[u'blue', u'red', u'black']","[u'left', u'middle', u'right']","[0.9, 0.5, 0.1]","[u'medium', u'high', u'low']","red",50,"middle","high","False","False",796,1350,NA
"A2ZIATVCA2NKPF","Thu Jan 30 2020 09:05:45 GMT-0500 (Eastern Standard Time)","Thu Jan 30 2020 09:11:31 GMT-0500 (Eastern Standard Time)","Mozilla/5.0 (X11; CrOS aarch64 12607.82.0) AppleWebKit/537.36 (KHTML, like Gecko) Chrome/79.0.3945.123 Safari/537.36",46,"[0.9, 0.5, 0.1]","[0.8, 0.4, 0.2]","[u'blue', u'red', u'black']","[u'left', u'middle', u'right']","[0.9, 0.5, 0.1]","[u'medium', u'high', u'low']","black",51,"right","low","False","False",523,1300,NA
"A2ZIATVCA2NKPF","Thu Jan 30 2020 09:05:45 GMT-0500 (Eastern Standard Time)","Thu Jan 30 2020 09:11:31 GMT-0500 (Eastern Standard Time)","Mozilla/5.0 (X11; CrOS aarch64 12607.82.0) AppleWebKit/537.36 (KHTML, like Gecko) Chrome/79.0.3945.123 Safari/537.36",47,"[0.9, 0.5, 0.1]","[0.8, 0.4, 0.2]","[u'blue', u'red', u'black']","[u'left', u'middle', u'right']","[0.9, 0.5, 0.1]","[u'medium', u'high', u'low']","blue",49,"left","medium","True","False",601,1400,NA
"A2ZIATVCA2NKPF","Thu Jan 30 2020 09:05:45 GMT-0500 (Eastern Standard Time)","Thu Jan 30 2020 09:11:31 GMT-0500 (Eastern Standard Time)","Mozilla/5.0 (X11; CrOS aarch64 12607.82.0) AppleWebKit/537.36 (KHTML, like Gecko) Chrome/79.0.3945.123 Safari/537.36",48,"[0.9, 0.5, 0.1]","[0.8, 0.4, 0.2]","[u'blue', u'red', u'black']","[u'left', u'middle', u'right']","[0.9, 0.5, 0.1]","[u'medium', u'high', u'low']","blue",49,"left","medium","True","False",497,1500,NA
"A2ZIATVCA2NKPF","Thu Jan 30 2020 09:05:45 GMT-0500 (Eastern Standard Time)","Thu Jan 30 2020 09:11:31 GMT-0500 (Eastern Standard Time)","Mozilla/5.0 (X11; CrOS aarch64 12607.82.0) AppleWebKit/537.36 (KHTML, like Gecko) Chrome/79.0.3945.123 Safari/537.36",49,"[0.9, 0.5, 0.1]","[0.8, 0.4, 0.2]","[u'blue', u'red', u'black']","[u'left', u'middle', u'right']","[0.9, 0.5, 0.1]","[u'medium', u'high', u'low']","blue",49,"left","medium","False","False",1103,1450,NA
"A2ZIATVCA2NKPF","Thu Jan 30 2020 09:05:45 GMT-0500 (Eastern Standard Time)","Thu Jan 30 2020 09:11:31 GMT-0500 (Eastern Standard Time)","Mozilla/5.0 (X11; CrOS aarch64 12607.82.0) AppleWebKit/537.36 (KHTML, like Gecko) Chrome/79.0.3945.123 Safari/537.36",50,"[0.9, 0.5, 0.1]","[0.8, 0.4, 0.2]","[u'blue', u'red', u'black']","[u'left', u'middle', u'right']","[0.9, 0.5, 0.1]","[u'medium', u'high', u'low']","red",50,"middle","high","True","False",71,1550,NA
"A2ZIATVCA2NKPF","Thu Jan 30 2020 09:05:45 GMT-0500 (Eastern Standard Time)","Thu Jan 30 2020 09:11:31 GMT-0500 (Eastern Standard Time)","Mozilla/5.0 (X11; CrOS aarch64 12607.82.0) AppleWebKit/537.36 (KHTML, like Gecko) Chrome/79.0.3945.123 Safari/537.36",51,"[0.9, 0.5, 0.1]","[0.8, 0.4, 0.2]","[u'blue', u'red', u'black']","[u'left', u'middle', u'right']","[0.9, 0.5, 0.1]","[u'medium', u'high', u'low']","red",50,"middle","high","False","False",476,1500,NA
"A2ZIATVCA2NKPF","Thu Jan 30 2020 09:05:45 GMT-0500 (Eastern Standard Time)","Thu Jan 30 2020 09:11:31 GMT-0500 (Eastern Standard Time)","Mozilla/5.0 (X11; CrOS aarch64 12607.82.0) AppleWebKit/537.36 (KHTML, like Gecko) Chrome/79.0.3945.123 Safari/537.36",52,"[0.9, 0.5, 0.1]","[0.8, 0.4, 0.2]","[u'blue', u'red', u'black']","[u'left', u'middle', u'right']","[0.9, 0.5, 0.1]","[u'medium', u'high', u'low']","blue",49,"left","medium","False","False",387,1450,NA
"A2ZIATVCA2NKPF","Thu Jan 30 2020 09:05:45 GMT-0500 (Eastern Standard Time)","Thu Jan 30 2020 09:11:31 GMT-0500 (Eastern Standard Time)","Mozilla/5.0 (X11; CrOS aarch64 12607.82.0) AppleWebKit/537.36 (KHTML, like Gecko) Chrome/79.0.3945.123 Safari/537.36",53,"[0.9, 0.5, 0.1]","[0.8, 0.4, 0.2]","[u'blue', u'red', u'black']","[u'left', u'middle', u'right']","[0.9, 0.5, 0.1]","[u'medium', u'high', u'low']","red",50,"middle","high","True","False",547,1550,NA
"A2ZIATVCA2NKPF","Thu Jan 30 2020 09:05:45 GMT-0500 (Eastern Standard Time)","Thu Jan 30 2020 09:11:31 GMT-0500 (Eastern Standard Time)","Mozilla/5.0 (X11; CrOS aarch64 12607.82.0) AppleWebKit/537.36 (KHTML, like Gecko) Chrome/79.0.3945.123 Safari/537.36",54,"[0.9, 0.5, 0.1]","[0.8, 0.4, 0.2]","[u'blue', u'red', u'black']","[u'left', u'middle', u'right']","[0.9, 0.5, 0.1]","[u'medium', u'high', u'low']","red",50,"middle","high","True","False",302,1650,NA
"A2ZIATVCA2NKPF","Thu Jan 30 2020 09:05:45 GMT-0500 (Eastern Standard Time)","Thu Jan 30 2020 09:11:31 GMT-0500 (Eastern Standard Time)","Mozilla/5.0 (X11; CrOS aarch64 12607.82.0) AppleWebKit/537.36 (KHTML, like Gecko) Chrome/79.0.3945.123 Safari/537.36",55,"[0.9, 0.5, 0.1]","[0.8, 0.4, 0.2]","[u'blue', u'red', u'black']","[u'left', u'middle', u'right']","[0.9, 0.5, 0.1]","[u'medium', u'high', u'low']","red",50,"middle","high","True","False",837,1750,NA
"A2ZIATVCA2NKPF","Thu Jan 30 2020 09:05:45 GMT-0500 (Eastern Standard Time)","Thu Jan 30 2020 09:11:31 GMT-0500 (Eastern Standard Time)","Mozilla/5.0 (X11; CrOS aarch64 12607.82.0) AppleWebKit/537.36 (KHTML, like Gecko) Chrome/79.0.3945.123 Safari/537.36",56,"[0.9, 0.5, 0.1]","[0.8, 0.4, 0.2]","[u'blue', u'red', u'black']","[u'left', u'middle', u'right']","[0.9, 0.5, 0.1]","[u'medium', u'high', u'low']","red",50,"middle","high","True","False",850,1850,NA
"A2ZIATVCA2NKPF","Thu Jan 30 2020 09:05:45 GMT-0500 (Eastern Standard Time)","Thu Jan 30 2020 09:11:31 GMT-0500 (Eastern Standard Time)","Mozilla/5.0 (X11; CrOS aarch64 12607.82.0) AppleWebKit/537.36 (KHTML, like Gecko) Chrome/79.0.3945.123 Safari/537.36",57,"[0.9, 0.5, 0.1]","[0.8, 0.4, 0.2]","[u'blue', u'red', u'black']","[u'left', u'middle', u'right']","[0.9, 0.5, 0.1]","[u'medium', u'high', u'low']","red",50,"middle","high","True","False",308,1950,NA
"A2ZIATVCA2NKPF","Thu Jan 30 2020 09:05:45 GMT-0500 (Eastern Standard Time)","Thu Jan 30 2020 09:11:31 GMT-0500 (Eastern Standard Time)","Mozilla/5.0 (X11; CrOS aarch64 12607.82.0) AppleWebKit/537.36 (KHTML, like Gecko) Chrome/79.0.3945.123 Safari/537.36",58,"[0.9, 0.5, 0.1]","[0.8, 0.4, 0.2]","[u'blue', u'red', u'black']","[u'left', u'middle', u'right']","[0.9, 0.5, 0.1]","[u'medium', u'high', u'low']","red",50,"middle","high","True","False",1361,2050,NA
"A2ZIATVCA2NKPF","Thu Jan 30 2020 09:05:45 GMT-0500 (Eastern Standard Time)","Thu Jan 30 2020 09:11:31 GMT-0500 (Eastern Standard Time)","Mozilla/5.0 (X11; CrOS aarch64 12607.82.0) AppleWebKit/537.36 (KHTML, like Gecko) Chrome/79.0.3945.123 Safari/537.36",59,"[0.9, 0.5, 0.1]","[0.8, 0.4, 0.2]","[u'blue', u'red', u'black']","[u'left', u'middle', u'right']","[0.9, 0.5, 0.1]","[u'medium', u'high', u'low']","red",50,"middle","high","True","True",219,2150,NA
"A2ZIATVCA2NKPF","Thu Jan 30 2020 09:05:45 GMT-0500 (Eastern Standard Time)","Thu Jan 30 2020 09:11:31 GMT-0500 (Eastern Standard Time)","Mozilla/5.0 (X11; CrOS aarch64 12607.82.0) AppleWebKit/537.36 (KHTML, like Gecko) Chrome/79.0.3945.123 Safari/537.36",60,"[0.9, 0.5, 0.1]","[0.8, 0.4, 0.2]","[u'blue', u'red', u'black']","[u'left', u'middle', u'right']","[0.9, 0.5, 0.1]","[u'medium', u'low', u'high']","red",50,"middle","low","False","False",668,2100,NA
"A2ZIATVCA2NKPF","Thu Jan 30 2020 09:05:45 GMT-0500 (Eastern Standard Time)","Thu Jan 30 2020 09:11:31 GMT-0500 (Eastern Standard Time)","Mozilla/5.0 (X11; CrOS aarch64 12607.82.0) AppleWebKit/537.36 (KHTML, like Gecko) Chrome/79.0.3945.123 Safari/537.36",61,"[0.9, 0.5, 0.1]","[0.8, 0.4, 0.2]","[u'blue', u'red', u'black']","[u'left', u'middle', u'right']","[0.9, 0.5, 0.1]","[u'medium', u'low', u'high']","red",50,"middle","low","False","False",967,2050,NA
"A2ZIATVCA2NKPF","Thu Jan 30 2020 09:05:45 GMT-0500 (Eastern Standard Time)","Thu Jan 30 2020 09:11:31 GMT-0500 (Eastern Standard Time)","Mozilla/5.0 (X11; CrOS aarch64 12607.82.0) AppleWebKit/537.36 (KHTML, like Gecko) Chrome/79.0.3945.123 Safari/537.36",62,"[0.9, 0.5, 0.1]","[0.8, 0.4, 0.2]","[u'blue', u'red', u'black']","[u'left', u'middle', u'right']","[0.9, 0.5, 0.1]","[u'medium', u'low', u'high']","blue",49,"left","medium","False","False",90,2000,NA
"A2ZIATVCA2NKPF","Thu Jan 30 2020 09:05:45 GMT-0500 (Eastern Standard Time)","Thu Jan 30 2020 09:11:31 GMT-0500 (Eastern Standard Time)","Mozilla/5.0 (X11; CrOS aarch64 12607.82.0) AppleWebKit/537.36 (KHTML, like Gecko) Chrome/79.0.3945.123 Safari/537.36",63,"[0.9, 0.5, 0.1]","[0.8, 0.4, 0.2]","[u'blue', u'red', u'black']","[u'left', u'middle', u'right']","[0.9, 0.5, 0.1]","[u'medium', u'low', u'high']","black",51,"right","high","True","False",207,2100,NA
"A2ZIATVCA2NKPF","Thu Jan 30 2020 09:05:45 GMT-0500 (Eastern Standard Time)","Thu Jan 30 2020 09:11:31 GMT-0500 (Eastern Standard Time)","Mozilla/5.0 (X11; CrOS aarch64 12607.82.0) AppleWebKit/537.36 (KHTML, like Gecko) Chrome/79.0.3945.123 Safari/537.36",64,"[0.9, 0.5, 0.1]","[0.8, 0.4, 0.2]","[u'blue', u'red', u'black']","[u'left', u'middle', u'right']","[0.9, 0.5, 0.1]","[u'medium', u'low', u'high']","black",51,"right","high","True","False",19,2200,NA
"A2ZIATVCA2NKPF","Thu Jan 30 2020 09:05:45 GMT-0500 (Eastern Standard Time)","Thu Jan 30 2020 09:11:31 GMT-0500 (Eastern Standard Time)","Mozilla/5.0 (X11; CrOS aarch64 12607.82.0) AppleWebKit/537.36 (KHTML, like Gecko) Chrome/79.0.3945.123 Safari/537.36",65,"[0.9, 0.5, 0.1]","[0.8, 0.4, 0.2]","[u'blue', u'red', u'black']","[u'left', u'middle', u'right']","[0.9, 0.5, 0.1]","[u'medium', u'low', u'high']","black",51,"right","high","True","False",61,2300,NA
"A2ZIATVCA2NKPF","Thu Jan 30 2020 09:05:45 GMT-0500 (Eastern Standard Time)","Thu Jan 30 2020 09:11:31 GMT-0500 (Eastern Standard Time)","Mozilla/5.0 (X11; CrOS aarch64 12607.82.0) AppleWebKit/537.36 (KHTML, like Gecko) Chrome/79.0.3945.123 Safari/537.36",66,"[0.9, 0.5, 0.1]","[0.8, 0.4, 0.2]","[u'blue', u'red', u'black']","[u'left', u'middle', u'right']","[0.9, 0.5, 0.1]","[u'medium', u'low', u'high']","black",51,"right","high","True","False",155,2400,NA
"A2ZIATVCA2NKPF","Thu Jan 30 2020 09:05:45 GMT-0500 (Eastern Standard Time)","Thu Jan 30 2020 09:11:31 GMT-0500 (Eastern Standard Time)","Mozilla/5.0 (X11; CrOS aarch64 12607.82.0) AppleWebKit/537.36 (KHTML, like Gecko) Chrome/79.0.3945.123 Safari/537.36",67,"[0.9, 0.5, 0.1]","[0.8, 0.4, 0.2]","[u'blue', u'red', u'black']","[u'left', u'middle', u'right']","[0.9, 0.5, 0.1]","[u'medium', u'low', u'high']","black",51,"right","high","True","False",939,2500,NA
"A2ZIATVCA2NKPF","Thu Jan 30 2020 09:05:45 GMT-0500 (Eastern Standard Time)","Thu Jan 30 2020 09:11:31 GMT-0500 (Eastern Standard Time)","Mozilla/5.0 (X11; CrOS aarch64 12607.82.0) AppleWebKit/537.36 (KHTML, like Gecko) Chrome/79.0.3945.123 Safari/537.36",68,"[0.9, 0.5, 0.1]","[0.8, 0.4, 0.2]","[u'blue', u'red', u'black']","[u'left', u'middle', u'right']","[0.9, 0.5, 0.1]","[u'medium', u'low', u'high']","black",51,"right","high","True","False",13,2600,NA
"A2ZIATVCA2NKPF","Thu Jan 30 2020 09:05:45 GMT-0500 (Eastern Standard Time)","Thu Jan 30 2020 09:11:31 GMT-0500 (Eastern Standard Time)","Mozilla/5.0 (X11; CrOS aarch64 12607.82.0) AppleWebKit/537.36 (KHTML, like Gecko) Chrome/79.0.3945.123 Safari/537.36",69,"[0.9, 0.5, 0.1]","[0.8, 0.4, 0.2]","[u'blue', u'red', u'black']","[u'left', u'middle', u'right']","[0.9, 0.5, 0.1]","[u'medium', u'low', u'high']","black",51,"right","high","True","False",600,2700,NA
"A2ZIATVCA2NKPF","Thu Jan 30 2020 09:05:45 GMT-0500 (Eastern Standard Time)","Thu Jan 30 2020 09:11:31 GMT-0500 (Eastern Standard Time)","Mozilla/5.0 (X11; CrOS aarch64 12607.82.0) AppleWebKit/537.36 (KHTML, like Gecko) Chrome/79.0.3945.123 Safari/537.36",70,"[0.9, 0.5, 0.1]","[0.8, 0.4, 0.2]","[u'blue', u'red', u'black']","[u'left', u'middle', u'right']","[0.9, 0.5, 0.1]","[u'medium', u'low', u'high']","black",51,"right","high","True","False",215,2800,NA
"A2ZIATVCA2NKPF","Thu Jan 30 2020 09:05:45 GMT-0500 (Eastern Standard Time)","Thu Jan 30 2020 09:11:31 GMT-0500 (Eastern Standard Time)","Mozilla/5.0 (X11; CrOS aarch64 12607.82.0) AppleWebKit/537.36 (KHTML, like Gecko) Chrome/79.0.3945.123 Safari/537.36",71,"[0.9, 0.5, 0.1]","[0.8, 0.4, 0.2]","[u'blue', u'red', u'black']","[u'left', u'middle', u'right']","[0.9, 0.5, 0.1]","[u'medium', u'low', u'high']","black",51,"right","high","True","True",374,2900,NA
"A2ZIATVCA2NKPF","Thu Jan 30 2020 09:05:45 GMT-0500 (Eastern Standard Time)","Thu Jan 30 2020 09:11:31 GMT-0500 (Eastern Standard Time)","Mozilla/5.0 (X11; CrOS aarch64 12607.82.0) AppleWebKit/537.36 (KHTML, like Gecko) Chrome/79.0.3945.123 Safari/537.36",72,"[0.9, 0.5, 0.1]","[0.8, 0.4, 0.2]","[u'blue', u'red', u'black']","[u'left', u'middle', u'right']","[0.9, 0.5, 0.1]","[u'medium', u'high', u'low']","black",51,"right","low","False","False",455,2850,NA
"A2ZIATVCA2NKPF","Thu Jan 30 2020 09:05:45 GMT-0500 (Eastern Standard Time)","Thu Jan 30 2020 09:11:31 GMT-0500 (Eastern Standard Time)","Mozilla/5.0 (X11; CrOS aarch64 12607.82.0) AppleWebKit/537.36 (KHTML, like Gecko) Chrome/79.0.3945.123 Safari/537.36",73,"[0.9, 0.5, 0.1]","[0.8, 0.4, 0.2]","[u'blue', u'red', u'black']","[u'left', u'middle', u'right']","[0.9, 0.5, 0.1]","[u'medium', u'high', u'low']","red",50,"middle","high","True","False",440,2950,NA
"A2ZIATVCA2NKPF","Thu Jan 30 2020 09:05:45 GMT-0500 (Eastern Standard Time)","Thu Jan 30 2020 09:11:31 GMT-0500 (Eastern Standard Time)","Mozilla/5.0 (X11; CrOS aarch64 12607.82.0) AppleWebKit/537.36 (KHTML, like Gecko) Chrome/79.0.3945.123 Safari/537.36",74,"[0.9, 0.5, 0.1]","[0.8, 0.4, 0.2]","[u'blue', u'red', u'black']","[u'left', u'middle', u'right']","[0.9, 0.5, 0.1]","[u'medium', u'high', u'low']","red",50,"middle","high","True","False",197,3050,NA
"A2ZIATVCA2NKPF","Thu Jan 30 2020 09:05:45 GMT-0500 (Eastern Standard Time)","Thu Jan 30 2020 09:11:31 GMT-0500 (Eastern Standard Time)","Mozilla/5.0 (X11; CrOS aarch64 12607.82.0) AppleWebKit/537.36 (KHTML, like Gecko) Chrome/79.0.3945.123 Safari/537.36",75,"[0.9, 0.5, 0.1]","[0.8, 0.4, 0.2]","[u'blue', u'red', u'black']","[u'left', u'middle', u'right']","[0.9, 0.5, 0.1]","[u'medium', u'high', u'low']","red",50,"middle","high","True","False",22,3150,NA
"A2ZIATVCA2NKPF","Thu Jan 30 2020 09:05:45 GMT-0500 (Eastern Standard Time)","Thu Jan 30 2020 09:11:31 GMT-0500 (Eastern Standard Time)","Mozilla/5.0 (X11; CrOS aarch64 12607.82.0) AppleWebKit/537.36 (KHTML, like Gecko) Chrome/79.0.3945.123 Safari/537.36",76,"[0.9, 0.5, 0.1]","[0.8, 0.4, 0.2]","[u'blue', u'red', u'black']","[u'left', u'middle', u'right']","[0.9, 0.5, 0.1]","[u'medium', u'high', u'low']","red",50,"middle","high","True","False",109,3250,NA
"A2ZIATVCA2NKPF","Thu Jan 30 2020 09:05:45 GMT-0500 (Eastern Standard Time)","Thu Jan 30 2020 09:11:31 GMT-0500 (Eastern Standard Time)","Mozilla/5.0 (X11; CrOS aarch64 12607.82.0) AppleWebKit/537.36 (KHTML, like Gecko) Chrome/79.0.3945.123 Safari/537.36",77,"[0.9, 0.5, 0.1]","[0.8, 0.4, 0.2]","[u'blue', u'red', u'black']","[u'left', u'middle', u'right']","[0.9, 0.5, 0.1]","[u'medium', u'high', u'low']","red",50,"middle","high","True","False",217,3350,NA
"A2ZIATVCA2NKPF","Thu Jan 30 2020 09:05:45 GMT-0500 (Eastern Standard Time)","Thu Jan 30 2020 09:11:31 GMT-0500 (Eastern Standard Time)","Mozilla/5.0 (X11; CrOS aarch64 12607.82.0) AppleWebKit/537.36 (KHTML, like Gecko) Chrome/79.0.3945.123 Safari/537.36",78,"[0.9, 0.5, 0.1]","[0.8, 0.4, 0.2]","[u'blue', u'red', u'black']","[u'left', u'middle', u'right']","[0.9, 0.5, 0.1]","[u'medium', u'high', u'low']","red",50,"middle","high","True","False",392,3450,NA
"A2ZIATVCA2NKPF","Thu Jan 30 2020 09:05:45 GMT-0500 (Eastern Standard Time)","Thu Jan 30 2020 09:11:31 GMT-0500 (Eastern Standard Time)","Mozilla/5.0 (X11; CrOS aarch64 12607.82.0) AppleWebKit/537.36 (KHTML, like Gecko) Chrome/79.0.3945.123 Safari/537.36",79,"[0.9, 0.5, 0.1]","[0.8, 0.4, 0.2]","[u'blue', u'red', u'black']","[u'left', u'middle', u'right']","[0.9, 0.5, 0.1]","[u'medium', u'high', u'low']","red",50,"middle","high","True","False",133,3550,NA
"A2ZIATVCA2NKPF","Thu Jan 30 2020 09:05:45 GMT-0500 (Eastern Standard Time)","Thu Jan 30 2020 09:11:31 GMT-0500 (Eastern Standard Time)","Mozilla/5.0 (X11; CrOS aarch64 12607.82.0) AppleWebKit/537.36 (KHTML, like Gecko) Chrome/79.0.3945.123 Safari/537.36",80,"[0.9, 0.5, 0.1]","[0.8, 0.4, 0.2]","[u'blue', u'red', u'black']","[u'left', u'middle', u'right']","[0.9, 0.5, 0.1]","[u'medium', u'high', u'low']","red",50,"middle","high","False","False",23,3500,NA
"A2ZIATVCA2NKPF","Thu Jan 30 2020 09:05:45 GMT-0500 (Eastern Standard Time)","Thu Jan 30 2020 09:11:31 GMT-0500 (Eastern Standard Time)","Mozilla/5.0 (X11; CrOS aarch64 12607.82.0) AppleWebKit/537.36 (KHTML, like Gecko) Chrome/79.0.3945.123 Safari/537.36",81,"[0.9, 0.5, 0.1]","[0.8, 0.4, 0.2]","[u'blue', u'red', u'black']","[u'left', u'middle', u'right']","[0.8, 0.4, 0.2]","[u'high', u'medium', u'low']","black",51,"right","low","False","False",413,3450,NA
"A2ZIATVCA2NKPF","Thu Jan 30 2020 09:05:45 GMT-0500 (Eastern Standard Time)","Thu Jan 30 2020 09:11:31 GMT-0500 (Eastern Standard Time)","Mozilla/5.0 (X11; CrOS aarch64 12607.82.0) AppleWebKit/537.36 (KHTML, like Gecko) Chrome/79.0.3945.123 Safari/537.36",82,"[0.9, 0.5, 0.1]","[0.8, 0.4, 0.2]","[u'blue', u'red', u'black']","[u'left', u'middle', u'right']","[0.8, 0.4, 0.2]","[u'high', u'medium', u'low']","blue",49,"left","high","True","False",162,3550,NA
"A2ZIATVCA2NKPF","Thu Jan 30 2020 09:05:45 GMT-0500 (Eastern Standard Time)","Thu Jan 30 2020 09:11:31 GMT-0500 (Eastern Standard Time)","Mozilla/5.0 (X11; CrOS aarch64 12607.82.0) AppleWebKit/537.36 (KHTML, like Gecko) Chrome/79.0.3945.123 Safari/537.36",83,"[0.9, 0.5, 0.1]","[0.8, 0.4, 0.2]","[u'blue', u'red', u'black']","[u'left', u'middle', u'right']","[0.8, 0.4, 0.2]","[u'high', u'medium', u'low']","blue",49,"left","high","True","False",216,3650,NA
"A2ZIATVCA2NKPF","Thu Jan 30 2020 09:05:45 GMT-0500 (Eastern Standard Time)","Thu Jan 30 2020 09:11:31 GMT-0500 (Eastern Standard Time)","Mozilla/5.0 (X11; CrOS aarch64 12607.82.0) AppleWebKit/537.36 (KHTML, like Gecko) Chrome/79.0.3945.123 Safari/537.36",84,"[0.9, 0.5, 0.1]","[0.8, 0.4, 0.2]","[u'blue', u'red', u'black']","[u'left', u'middle', u'right']","[0.8, 0.4, 0.2]","[u'high', u'medium', u'low']","blue",49,"left","high","False","False",216,3600,NA
"A2ZIATVCA2NKPF","Thu Jan 30 2020 09:05:45 GMT-0500 (Eastern Standard Time)","Thu Jan 30 2020 09:11:31 GMT-0500 (Eastern Standard Time)","Mozilla/5.0 (X11; CrOS aarch64 12607.82.0) AppleWebKit/537.36 (KHTML, like Gecko) Chrome/79.0.3945.123 Safari/537.36",85,"[0.9, 0.5, 0.1]","[0.8, 0.4, 0.2]","[u'blue', u'red', u'black']","[u'left', u'middle', u'right']","[0.8, 0.4, 0.2]","[u'high', u'medium', u'low']","blue",49,"left","high","True","False",658,3700,NA
"A2ZIATVCA2NKPF","Thu Jan 30 2020 09:05:45 GMT-0500 (Eastern Standard Time)","Thu Jan 30 2020 09:11:31 GMT-0500 (Eastern Standard Time)","Mozilla/5.0 (X11; CrOS aarch64 12607.82.0) AppleWebKit/537.36 (KHTML, like Gecko) Chrome/79.0.3945.123 Safari/537.36",86,"[0.9, 0.5, 0.1]","[0.8, 0.4, 0.2]","[u'blue', u'red', u'black']","[u'left', u'middle', u'right']","[0.8, 0.4, 0.2]","[u'high', u'medium', u'low']","blue",49,"left","high","False","False",120,3650,NA
"A2ZIATVCA2NKPF","Thu Jan 30 2020 09:05:45 GMT-0500 (Eastern Standard Time)","Thu Jan 30 2020 09:11:31 GMT-0500 (Eastern Standard Time)","Mozilla/5.0 (X11; CrOS aarch64 12607.82.0) AppleWebKit/537.36 (KHTML, like Gecko) Chrome/79.0.3945.123 Safari/537.36",87,"[0.9, 0.5, 0.1]","[0.8, 0.4, 0.2]","[u'blue', u'red', u'black']","[u'left', u'middle', u'right']","[0.8, 0.4, 0.2]","[u'high', u'medium', u'low']","blue",49,"left","high","False","False",57,3600,NA
"A2ZIATVCA2NKPF","Thu Jan 30 2020 09:05:45 GMT-0500 (Eastern Standard Time)","Thu Jan 30 2020 09:11:31 GMT-0500 (Eastern Standard Time)","Mozilla/5.0 (X11; CrOS aarch64 12607.82.0) AppleWebKit/537.36 (KHTML, like Gecko) Chrome/79.0.3945.123 Safari/537.36",88,"[0.9, 0.5, 0.1]","[0.8, 0.4, 0.2]","[u'blue', u'red', u'black']","[u'left', u'middle', u'right']","[0.8, 0.4, 0.2]","[u'high', u'medium', u'low']","red",50,"middle","medium","True","False",58,3700,NA
"A2ZIATVCA2NKPF","Thu Jan 30 2020 09:05:45 GMT-0500 (Eastern Standard Time)","Thu Jan 30 2020 09:11:31 GMT-0500 (Eastern Standard Time)","Mozilla/5.0 (X11; CrOS aarch64 12607.82.0) AppleWebKit/537.36 (KHTML, like Gecko) Chrome/79.0.3945.123 Safari/537.36",89,"[0.9, 0.5, 0.1]","[0.8, 0.4, 0.2]","[u'blue', u'red', u'black']","[u'left', u'middle', u'right']","[0.8, 0.4, 0.2]","[u'high', u'medium', u'low']","red",50,"middle","medium","True","False",25,3800,NA
"A2ZIATVCA2NKPF","Thu Jan 30 2020 09:05:45 GMT-0500 (Eastern Standard Time)","Thu Jan 30 2020 09:11:31 GMT-0500 (Eastern Standard Time)","Mozilla/5.0 (X11; CrOS aarch64 12607.82.0) AppleWebKit/537.36 (KHTML, like Gecko) Chrome/79.0.3945.123 Safari/537.36",90,"[0.9, 0.5, 0.1]","[0.8, 0.4, 0.2]","[u'blue', u'red', u'black']","[u'left', u'middle', u'right']","[0.8, 0.4, 0.2]","[u'high', u'medium', u'low']","red",50,"middle","medium","False","False",86,3750,NA
"A2ZIATVCA2NKPF","Thu Jan 30 2020 09:05:45 GMT-0500 (Eastern Standard Time)","Thu Jan 30 2020 09:11:31 GMT-0500 (Eastern Standard Time)","Mozilla/5.0 (X11; CrOS aarch64 12607.82.0) AppleWebKit/537.36 (KHTML, like Gecko) Chrome/79.0.3945.123 Safari/537.36",91,"[0.9, 0.5, 0.1]","[0.8, 0.4, 0.2]","[u'blue', u'red', u'black']","[u'left', u'middle', u'right']","[0.8, 0.4, 0.2]","[u'high', u'medium', u'low']","red",50,"middle","medium","True","False",362,3850,NA
"A2ZIATVCA2NKPF","Thu Jan 30 2020 09:05:45 GMT-0500 (Eastern Standard Time)","Thu Jan 30 2020 09:11:31 GMT-0500 (Eastern Standard Time)","Mozilla/5.0 (X11; CrOS aarch64 12607.82.0) AppleWebKit/537.36 (KHTML, like Gecko) Chrome/79.0.3945.123 Safari/537.36",92,"[0.9, 0.5, 0.1]","[0.8, 0.4, 0.2]","[u'blue', u'red', u'black']","[u'left', u'middle', u'right']","[0.8, 0.4, 0.2]","[u'high', u'medium', u'low']","red",50,"middle","medium","False","False",386,3800,NA
"A2ZIATVCA2NKPF","Thu Jan 30 2020 09:05:45 GMT-0500 (Eastern Standard Time)","Thu Jan 30 2020 09:11:31 GMT-0500 (Eastern Standard Time)","Mozilla/5.0 (X11; CrOS aarch64 12607.82.0) AppleWebKit/537.36 (KHTML, like Gecko) Chrome/79.0.3945.123 Safari/537.36",93,"[0.9, 0.5, 0.1]","[0.8, 0.4, 0.2]","[u'blue', u'red', u'black']","[u'left', u'middle', u'right']","[0.8, 0.4, 0.2]","[u'high', u'medium', u'low']","red",50,"middle","medium","True","False",268,3900,NA
"A2ZIATVCA2NKPF","Thu Jan 30 2020 09:05:45 GMT-0500 (Eastern Standard Time)","Thu Jan 30 2020 09:11:31 GMT-0500 (Eastern Standard Time)","Mozilla/5.0 (X11; CrOS aarch64 12607.82.0) AppleWebKit/537.36 (KHTML, like Gecko) Chrome/79.0.3945.123 Safari/537.36",94,"[0.9, 0.5, 0.1]","[0.8, 0.4, 0.2]","[u'blue', u'red', u'black']","[u'left', u'middle', u'right']","[0.8, 0.4, 0.2]","[u'high', u'medium', u'low']","red",50,"middle","medium","False","False",292,3850,NA
"A2ZIATVCA2NKPF","Thu Jan 30 2020 09:05:45 GMT-0500 (Eastern Standard Time)","Thu Jan 30 2020 09:11:31 GMT-0500 (Eastern Standard Time)","Mozilla/5.0 (X11; CrOS aarch64 12607.82.0) AppleWebKit/537.36 (KHTML, like Gecko) Chrome/79.0.3945.123 Safari/537.36",95,"[0.9, 0.5, 0.1]","[0.8, 0.4, 0.2]","[u'blue', u'red', u'black']","[u'left', u'middle', u'right']","[0.8, 0.4, 0.2]","[u'high', u'medium', u'low']","red",50,"middle","medium","False","False",547,3800,NA
"A2ZIATVCA2NKPF","Thu Jan 30 2020 09:05:45 GMT-0500 (Eastern Standard Time)","Thu Jan 30 2020 09:11:31 GMT-0500 (Eastern Standard Time)","Mozilla/5.0 (X11; CrOS aarch64 12607.82.0) AppleWebKit/537.36 (KHTML, like Gecko) Chrome/79.0.3945.123 Safari/537.36",96,"[0.9, 0.5, 0.1]","[0.8, 0.4, 0.2]","[u'blue', u'red', u'black']","[u'left', u'middle', u'right']","[0.8, 0.4, 0.2]","[u'high', u'medium', u'low']","blue",49,"left","high","True","False",876,3900,NA
"A2ZIATVCA2NKPF","Thu Jan 30 2020 09:05:45 GMT-0500 (Eastern Standard Time)","Thu Jan 30 2020 09:11:31 GMT-0500 (Eastern Standard Time)","Mozilla/5.0 (X11; CrOS aarch64 12607.82.0) AppleWebKit/537.36 (KHTML, like Gecko) Chrome/79.0.3945.123 Safari/537.36",97,"[0.9, 0.5, 0.1]","[0.8, 0.4, 0.2]","[u'blue', u'red', u'black']","[u'left', u'middle', u'right']","[0.8, 0.4, 0.2]","[u'high', u'medium', u'low']","blue",49,"left","high","True","False",280,4000,NA
"A2ZIATVCA2NKPF","Thu Jan 30 2020 09:05:45 GMT-0500 (Eastern Standard Time)","Thu Jan 30 2020 09:11:31 GMT-0500 (Eastern Standard Time)","Mozilla/5.0 (X11; CrOS aarch64 12607.82.0) AppleWebKit/537.36 (KHTML, like Gecko) Chrome/79.0.3945.123 Safari/537.36",98,"[0.9, 0.5, 0.1]","[0.8, 0.4, 0.2]","[u'blue', u'red', u'black']","[u'left', u'middle', u'right']","[0.8, 0.4, 0.2]","[u'high', u'medium', u'low']","blue",49,"left","high","True","False",80,4100,NA
"A2ZIATVCA2NKPF","Thu Jan 30 2020 09:05:45 GMT-0500 (Eastern Standard Time)","Thu Jan 30 2020 09:11:31 GMT-0500 (Eastern Standard Time)","Mozilla/5.0 (X11; CrOS aarch64 12607.82.0) AppleWebKit/537.36 (KHTML, like Gecko) Chrome/79.0.3945.123 Safari/537.36",99,"[0.9, 0.5, 0.1]","[0.8, 0.4, 0.2]","[u'blue', u'red', u'black']","[u'left', u'middle', u'right']","[0.8, 0.4, 0.2]","[u'high', u'medium', u'low']","blue",49,"left","high","True","False",247,4200,NA
"A2ZIATVCA2NKPF","Thu Jan 30 2020 09:05:45 GMT-0500 (Eastern Standard Time)","Thu Jan 30 2020 09:11:31 GMT-0500 (Eastern Standard Time)","Mozilla/5.0 (X11; CrOS aarch64 12607.82.0) AppleWebKit/537.36 (KHTML, like Gecko) Chrome/79.0.3945.123 Safari/537.36",100,"[0.9, 0.5, 0.1]","[0.8, 0.4, 0.2]","[u'blue', u'red', u'black']","[u'left', u'middle', u'right']","[0.8, 0.4, 0.2]","[u'high', u'medium', u'low']","blue",49,"left","high","True","False",290,4300,NA
"A2ZIATVCA2NKPF","Thu Jan 30 2020 09:05:45 GMT-0500 (Eastern Standard Time)","Thu Jan 30 2020 09:11:31 GMT-0500 (Eastern Standard Time)","Mozilla/5.0 (X11; CrOS aarch64 12607.82.0) AppleWebKit/537.36 (KHTML, like Gecko) Chrome/79.0.3945.123 Safari/537.36",101,"[0.9, 0.5, 0.1]","[0.8, 0.4, 0.2]","[u'blue', u'red', u'black']","[u'left', u'middle', u'right']","[0.8, 0.4, 0.2]","[u'high', u'medium', u'low']","blue",49,"left","high","True","False",308,4400,NA
"A2ZIATVCA2NKPF","Thu Jan 30 2020 09:05:45 GMT-0500 (Eastern Standard Time)","Thu Jan 30 2020 09:11:31 GMT-0500 (Eastern Standard Time)","Mozilla/5.0 (X11; CrOS aarch64 12607.82.0) AppleWebKit/537.36 (KHTML, like Gecko) Chrome/79.0.3945.123 Safari/537.36",102,"[0.9, 0.5, 0.1]","[0.8, 0.4, 0.2]","[u'blue', u'red', u'black']","[u'left', u'middle', u'right']","[0.8, 0.4, 0.2]","[u'high', u'medium', u'low']","blue",49,"left","high","True","False",203,4500,NA
"A2ZIATVCA2NKPF","Thu Jan 30 2020 09:05:45 GMT-0500 (Eastern Standard Time)","Thu Jan 30 2020 09:11:31 GMT-0500 (Eastern Standard Time)","Mozilla/5.0 (X11; CrOS aarch64 12607.82.0) AppleWebKit/537.36 (KHTML, like Gecko) Chrome/79.0.3945.123 Safari/537.36",103,"[0.9, 0.5, 0.1]","[0.8, 0.4, 0.2]","[u'blue', u'red', u'black']","[u'left', u'middle', u'right']","[0.8, 0.4, 0.2]","[u'high', u'medium', u'low']","blue",49,"left","high","False","False",434,4450,NA
"A2ZIATVCA2NKPF","Thu Jan 30 2020 09:05:45 GMT-0500 (Eastern Standard Time)","Thu Jan 30 2020 09:11:31 GMT-0500 (Eastern Standard Time)","Mozilla/5.0 (X11; CrOS aarch64 12607.82.0) AppleWebKit/537.36 (KHTML, like Gecko) Chrome/79.0.3945.123 Safari/537.36",104,"[0.9, 0.5, 0.1]","[0.8, 0.4, 0.2]","[u'blue', u'red', u'black']","[u'left', u'middle', u'right']","[0.8, 0.4, 0.2]","[u'high', u'medium', u'low']","red",50,"middle","medium","False","False",553,4400,NA
"A2ZIATVCA2NKPF","Thu Jan 30 2020 09:05:45 GMT-0500 (Eastern Standard Time)","Thu Jan 30 2020 09:11:31 GMT-0500 (Eastern Standard Time)","Mozilla/5.0 (X11; CrOS aarch64 12607.82.0) AppleWebKit/537.36 (KHTML, like Gecko) Chrome/79.0.3945.123 Safari/537.36",105,"[0.9, 0.5, 0.1]","[0.8, 0.4, 0.2]","[u'blue', u'red', u'black']","[u'left', u'middle', u'right']","[0.8, 0.4, 0.2]","[u'high', u'medium', u'low']","black",51,"right","low","True","False",146,4500,NA
"A2ZIATVCA2NKPF","Thu Jan 30 2020 09:05:45 GMT-0500 (Eastern Standard Time)","Thu Jan 30 2020 09:11:31 GMT-0500 (Eastern Standard Time)","Mozilla/5.0 (X11; CrOS aarch64 12607.82.0) AppleWebKit/537.36 (KHTML, like Gecko) Chrome/79.0.3945.123 Safari/537.36",106,"[0.9, 0.5, 0.1]","[0.8, 0.4, 0.2]","[u'blue', u'red', u'black']","[u'left', u'middle', u'right']","[0.8, 0.4, 0.2]","[u'high', u'medium', u'low']","black",51,"right","low","False","False",406,4450,NA
"A2ZIATVCA2NKPF","Thu Jan 30 2020 09:05:45 GMT-0500 (Eastern Standard Time)","Thu Jan 30 2020 09:11:31 GMT-0500 (Eastern Standard Time)","Mozilla/5.0 (X11; CrOS aarch64 12607.82.0) AppleWebKit/537.36 (KHTML, like Gecko) Chrome/79.0.3945.123 Safari/537.36",107,"[0.9, 0.5, 0.1]","[0.8, 0.4, 0.2]","[u'blue', u'red', u'black']","[u'left', u'middle', u'right']","[0.8, 0.4, 0.2]","[u'high', u'medium', u'low']","black",51,"right","low","True","False",147,4550,NA
"A2ZIATVCA2NKPF","Thu Jan 30 2020 09:05:45 GMT-0500 (Eastern Standard Time)","Thu Jan 30 2020 09:11:31 GMT-0500 (Eastern Standard Time)","Mozilla/5.0 (X11; CrOS aarch64 12607.82.0) AppleWebKit/537.36 (KHTML, like Gecko) Chrome/79.0.3945.123 Safari/537.36",108,"[0.9, 0.5, 0.1]","[0.8, 0.4, 0.2]","[u'blue', u'red', u'black']","[u'left', u'middle', u'right']","[0.8, 0.4, 0.2]","[u'high', u'medium', u'low']","black",51,"right","low","False","False",119,4500,NA
"A2ZIATVCA2NKPF","Thu Jan 30 2020 09:05:45 GMT-0500 (Eastern Standard Time)","Thu Jan 30 2020 09:11:31 GMT-0500 (Eastern Standard Time)","Mozilla/5.0 (X11; CrOS aarch64 12607.82.0) AppleWebKit/537.36 (KHTML, like Gecko) Chrome/79.0.3945.123 Safari/537.36",109,"[0.9, 0.5, 0.1]","[0.8, 0.4, 0.2]","[u'blue', u'red', u'black']","[u'left', u'middle', u'right']","[0.8, 0.4, 0.2]","[u'high', u'medium', u'low']","black",51,"right","low","False","False",19,4450,NA
"A2ZIATVCA2NKPF","Thu Jan 30 2020 09:05:45 GMT-0500 (Eastern Standard Time)","Thu Jan 30 2020 09:11:31 GMT-0500 (Eastern Standard Time)","Mozilla/5.0 (X11; CrOS aarch64 12607.82.0) AppleWebKit/537.36 (KHTML, like Gecko) Chrome/79.0.3945.123 Safari/537.36",110,"[0.9, 0.5, 0.1]","[0.8, 0.4, 0.2]","[u'blue', u'red', u'black']","[u'left', u'middle', u'right']","[0.8, 0.4, 0.2]","[u'high', u'medium', u'low']","blue",49,"left","high","True","False",173,4550,NA
"A2ZIATVCA2NKPF","Thu Jan 30 2020 09:05:45 GMT-0500 (Eastern Standard Time)","Thu Jan 30 2020 09:11:31 GMT-0500 (Eastern Standard Time)","Mozilla/5.0 (X11; CrOS aarch64 12607.82.0) AppleWebKit/537.36 (KHTML, like Gecko) Chrome/79.0.3945.123 Safari/537.36",111,"[0.9, 0.5, 0.1]","[0.8, 0.4, 0.2]","[u'blue', u'red', u'black']","[u'left', u'middle', u'right']","[0.8, 0.4, 0.2]","[u'high', u'medium', u'low']","blue",49,"left","high","True","False",501,4650,NA
"A2ZIATVCA2NKPF","Thu Jan 30 2020 09:05:45 GMT-0500 (Eastern Standard Time)","Thu Jan 30 2020 09:11:31 GMT-0500 (Eastern Standard Time)","Mozilla/5.0 (X11; CrOS aarch64 12607.82.0) AppleWebKit/537.36 (KHTML, like Gecko) Chrome/79.0.3945.123 Safari/537.36",112,"[0.9, 0.5, 0.1]","[0.8, 0.4, 0.2]","[u'blue', u'red', u'black']","[u'left', u'middle', u'right']","[0.8, 0.4, 0.2]","[u'high', u'medium', u'low']","blue",49,"left","high","True","False",165,4750,NA
"A2ZIATVCA2NKPF","Thu Jan 30 2020 09:05:45 GMT-0500 (Eastern Standard Time)","Thu Jan 30 2020 09:11:31 GMT-0500 (Eastern Standard Time)","Mozilla/5.0 (X11; CrOS aarch64 12607.82.0) AppleWebKit/537.36 (KHTML, like Gecko) Chrome/79.0.3945.123 Safari/537.36",113,"[0.9, 0.5, 0.1]","[0.8, 0.4, 0.2]","[u'blue', u'red', u'black']","[u'left', u'middle', u'right']","[0.8, 0.4, 0.2]","[u'high', u'medium', u'low']","blue",49,"left","high","True","False",223,4850,NA
"A2ZIATVCA2NKPF","Thu Jan 30 2020 09:05:45 GMT-0500 (Eastern Standard Time)","Thu Jan 30 2020 09:11:31 GMT-0500 (Eastern Standard Time)","Mozilla/5.0 (X11; CrOS aarch64 12607.82.0) AppleWebKit/537.36 (KHTML, like Gecko) Chrome/79.0.3945.123 Safari/537.36",114,"[0.9, 0.5, 0.1]","[0.8, 0.4, 0.2]","[u'blue', u'red', u'black']","[u'left', u'middle', u'right']","[0.8, 0.4, 0.2]","[u'high', u'medium', u'low']","blue",49,"left","high","True","False",371,4950,NA
"A2ZIATVCA2NKPF","Thu Jan 30 2020 09:05:45 GMT-0500 (Eastern Standard Time)","Thu Jan 30 2020 09:11:31 GMT-0500 (Eastern Standard Time)","Mozilla/5.0 (X11; CrOS aarch64 12607.82.0) AppleWebKit/537.36 (KHTML, like Gecko) Chrome/79.0.3945.123 Safari/537.36",115,"[0.9, 0.5, 0.1]","[0.8, 0.4, 0.2]","[u'blue', u'red', u'black']","[u'left', u'middle', u'right']","[0.8, 0.4, 0.2]","[u'high', u'medium', u'low']","blue",49,"left","high","True","False",227,5050,NA
"A2ZIATVCA2NKPF","Thu Jan 30 2020 09:05:45 GMT-0500 (Eastern Standard Time)","Thu Jan 30 2020 09:11:31 GMT-0500 (Eastern Standard Time)","Mozilla/5.0 (X11; CrOS aarch64 12607.82.0) AppleWebKit/537.36 (KHTML, like Gecko) Chrome/79.0.3945.123 Safari/537.36",116,"[0.9, 0.5, 0.1]","[0.8, 0.4, 0.2]","[u'blue', u'red', u'black']","[u'left', u'middle', u'right']","[0.8, 0.4, 0.2]","[u'high', u'medium', u'low']","blue",49,"left","high","False","False",325,5000,NA
"A2ZIATVCA2NKPF","Thu Jan 30 2020 09:05:45 GMT-0500 (Eastern Standard Time)","Thu Jan 30 2020 09:11:31 GMT-0500 (Eastern Standard Time)","Mozilla/5.0 (X11; CrOS aarch64 12607.82.0) AppleWebKit/537.36 (KHTML, like Gecko) Chrome/79.0.3945.123 Safari/537.36",117,"[0.9, 0.5, 0.1]","[0.8, 0.4, 0.2]","[u'blue', u'red', u'black']","[u'left', u'middle', u'right']","[0.8, 0.4, 0.2]","[u'high', u'medium', u'low']","red",50,"middle","medium","True","False",108,5100,NA
"A2ZIATVCA2NKPF","Thu Jan 30 2020 09:05:45 GMT-0500 (Eastern Standard Time)","Thu Jan 30 2020 09:11:31 GMT-0500 (Eastern Standard Time)","Mozilla/5.0 (X11; CrOS aarch64 12607.82.0) AppleWebKit/537.36 (KHTML, like Gecko) Chrome/79.0.3945.123 Safari/537.36",118,"[0.9, 0.5, 0.1]","[0.8, 0.4, 0.2]","[u'blue', u'red', u'black']","[u'left', u'middle', u'right']","[0.8, 0.4, 0.2]","[u'high', u'medium', u'low']","red",50,"middle","medium","False","False",540,5050,NA
"A2ZIATVCA2NKPF","Thu Jan 30 2020 09:05:45 GMT-0500 (Eastern Standard Time)","Thu Jan 30 2020 09:11:31 GMT-0500 (Eastern Standard Time)","Mozilla/5.0 (X11; CrOS aarch64 12607.82.0) AppleWebKit/537.36 (KHTML, like Gecko) Chrome/79.0.3945.123 Safari/537.36",119,"[0.9, 0.5, 0.1]","[0.8, 0.4, 0.2]","[u'blue', u'red', u'black']","[u'left', u'middle', u'right']","[0.8, 0.4, 0.2]","[u'high', u'medium', u'low']","red",50,"middle","medium","False","False",108,5000,NA
"A2ZIATVCA2NKPF","Thu Jan 30 2020 09:05:45 GMT-0500 (Eastern Standard Time)","Thu Jan 30 2020 09:11:31 GMT-0500 (Eastern Standard Time)","Mozilla/5.0 (X11; CrOS aarch64 12607.82.0) AppleWebKit/537.36 (KHTML, like Gecko) Chrome/79.0.3945.123 Safari/537.36",120,"[0.9, 0.5, 0.1]","[0.8, 0.4, 0.2]","[u'blue', u'red', u'black']","[u'left', u'middle', u'right']","[0.8, 0.4, 0.2]","[u'high', u'medium', u'low']","black",51,"right","low","False","False",840,4950,NA
"A2ZIATVCA2NKPF","Thu Jan 30 2020 09:05:45 GMT-0500 (Eastern Standard Time)","Thu Jan 30 2020 09:11:31 GMT-0500 (Eastern Standard Time)","Mozilla/5.0 (X11; CrOS aarch64 12607.82.0) AppleWebKit/537.36 (KHTML, like Gecko) Chrome/79.0.3945.123 Safari/537.36",121,"[0.9, 0.5, 0.1]","[0.8, 0.4, 0.2]","[u'blue', u'red', u'black']","[u'left', u'middle', u'right']","[0.8, 0.4, 0.2]","[u'medium', u'low', u'high']","blue",49,"left","medium","False","False",336,4900,NA
"A2ZIATVCA2NKPF","Thu Jan 30 2020 09:05:45 GMT-0500 (Eastern Standard Time)","Thu Jan 30 2020 09:11:31 GMT-0500 (Eastern Standard Time)","Mozilla/5.0 (X11; CrOS aarch64 12607.82.0) AppleWebKit/537.36 (KHTML, like Gecko) Chrome/79.0.3945.123 Safari/537.36",122,"[0.9, 0.5, 0.1]","[0.8, 0.4, 0.2]","[u'blue', u'red', u'black']","[u'left', u'middle', u'right']","[0.8, 0.4, 0.2]","[u'medium', u'low', u'high']","black",51,"right","high","True","False",675,5000,NA
"A2ZIATVCA2NKPF","Thu Jan 30 2020 09:05:45 GMT-0500 (Eastern Standard Time)","Thu Jan 30 2020 09:11:31 GMT-0500 (Eastern Standard Time)","Mozilla/5.0 (X11; CrOS aarch64 12607.82.0) AppleWebKit/537.36 (KHTML, like Gecko) Chrome/79.0.3945.123 Safari/537.36",123,"[0.9, 0.5, 0.1]","[0.8, 0.4, 0.2]","[u'blue', u'red', u'black']","[u'left', u'middle', u'right']","[0.8, 0.4, 0.2]","[u'medium', u'low', u'high']","black",51,"right","high","True","False",295,5100,NA
"A2ZIATVCA2NKPF","Thu Jan 30 2020 09:05:45 GMT-0500 (Eastern Standard Time)","Thu Jan 30 2020 09:11:31 GMT-0500 (Eastern Standard Time)","Mozilla/5.0 (X11; CrOS aarch64 12607.82.0) AppleWebKit/537.36 (KHTML, like Gecko) Chrome/79.0.3945.123 Safari/537.36",124,"[0.9, 0.5, 0.1]","[0.8, 0.4, 0.2]","[u'blue', u'red', u'black']","[u'left', u'middle', u'right']","[0.8, 0.4, 0.2]","[u'medium', u'low', u'high']","black",51,"right","high","False","False",224,5050,NA
"A2ZIATVCA2NKPF","Thu Jan 30 2020 09:05:45 GMT-0500 (Eastern Standard Time)","Thu Jan 30 2020 09:11:31 GMT-0500 (Eastern Standard Time)","Mozilla/5.0 (X11; CrOS aarch64 12607.82.0) AppleWebKit/537.36 (KHTML, like Gecko) Chrome/79.0.3945.123 Safari/537.36",125,"[0.9, 0.5, 0.1]","[0.8, 0.4, 0.2]","[u'blue', u'red', u'black']","[u'left', u'middle', u'right']","[0.8, 0.4, 0.2]","[u'medium', u'low', u'high']","black",51,"right","high","True","False",362,5150,NA
"A2ZIATVCA2NKPF","Thu Jan 30 2020 09:05:45 GMT-0500 (Eastern Standard Time)","Thu Jan 30 2020 09:11:31 GMT-0500 (Eastern Standard Time)","Mozilla/5.0 (X11; CrOS aarch64 12607.82.0) AppleWebKit/537.36 (KHTML, like Gecko) Chrome/79.0.3945.123 Safari/537.36",126,"[0.9, 0.5, 0.1]","[0.8, 0.4, 0.2]","[u'blue', u'red', u'black']","[u'left', u'middle', u'right']","[0.8, 0.4, 0.2]","[u'medium', u'low', u'high']","black",51,"right","high","True","False",200,5250,NA
"A2ZIATVCA2NKPF","Thu Jan 30 2020 09:05:45 GMT-0500 (Eastern Standard Time)","Thu Jan 30 2020 09:11:31 GMT-0500 (Eastern Standard Time)","Mozilla/5.0 (X11; CrOS aarch64 12607.82.0) AppleWebKit/537.36 (KHTML, like Gecko) Chrome/79.0.3945.123 Safari/537.36",127,"[0.9, 0.5, 0.1]","[0.8, 0.4, 0.2]","[u'blue', u'red', u'black']","[u'left', u'middle', u'right']","[0.8, 0.4, 0.2]","[u'medium', u'low', u'high']","black",51,"right","high","True","False",106,5350,NA
"A2ZIATVCA2NKPF","Thu Jan 30 2020 09:05:45 GMT-0500 (Eastern Standard Time)","Thu Jan 30 2020 09:11:31 GMT-0500 (Eastern Standard Time)","Mozilla/5.0 (X11; CrOS aarch64 12607.82.0) AppleWebKit/537.36 (KHTML, like Gecko) Chrome/79.0.3945.123 Safari/537.36",128,"[0.9, 0.5, 0.1]","[0.8, 0.4, 0.2]","[u'blue', u'red', u'black']","[u'left', u'middle', u'right']","[0.8, 0.4, 0.2]","[u'medium', u'low', u'high']","black",51,"right","high","True","False",32,5450,NA
"A2ZIATVCA2NKPF","Thu Jan 30 2020 09:05:45 GMT-0500 (Eastern Standard Time)","Thu Jan 30 2020 09:11:31 GMT-0500 (Eastern Standard Time)","Mozilla/5.0 (X11; CrOS aarch64 12607.82.0) AppleWebKit/537.36 (KHTML, like Gecko) Chrome/79.0.3945.123 Safari/537.36",129,"[0.9, 0.5, 0.1]","[0.8, 0.4, 0.2]","[u'blue', u'red', u'black']","[u'left', u'middle', u'right']","[0.8, 0.4, 0.2]","[u'medium', u'low', u'high']","black",51,"right","high","True","False",207,5550,NA
"A2ZIATVCA2NKPF","Thu Jan 30 2020 09:05:45 GMT-0500 (Eastern Standard Time)","Thu Jan 30 2020 09:11:31 GMT-0500 (Eastern Standard Time)","Mozilla/5.0 (X11; CrOS aarch64 12607.82.0) AppleWebKit/537.36 (KHTML, like Gecko) Chrome/79.0.3945.123 Safari/537.36",130,"[0.9, 0.5, 0.1]","[0.8, 0.4, 0.2]","[u'blue', u'red', u'black']","[u'left', u'middle', u'right']","[0.8, 0.4, 0.2]","[u'medium', u'low', u'high']","black",51,"right","high","True","True",68,5650,NA
"A2ZIATVCA2NKPF","Thu Jan 30 2020 09:05:45 GMT-0500 (Eastern Standard Time)","Thu Jan 30 2020 09:11:31 GMT-0500 (Eastern Standard Time)","Mozilla/5.0 (X11; CrOS aarch64 12607.82.0) AppleWebKit/537.36 (KHTML, like Gecko) Chrome/79.0.3945.123 Safari/537.36",131,"[0.9, 0.5, 0.1]","[0.8, 0.4, 0.2]","[u'blue', u'red', u'black']","[u'left', u'middle', u'right']","[0.8, 0.4, 0.2]","[u'high', u'medium', u'low']","black",51,"right","low","False","False",818,5600,NA
"A2ZIATVCA2NKPF","Thu Jan 30 2020 09:05:45 GMT-0500 (Eastern Standard Time)","Thu Jan 30 2020 09:11:31 GMT-0500 (Eastern Standard Time)","Mozilla/5.0 (X11; CrOS aarch64 12607.82.0) AppleWebKit/537.36 (KHTML, like Gecko) Chrome/79.0.3945.123 Safari/537.36",132,"[0.9, 0.5, 0.1]","[0.8, 0.4, 0.2]","[u'blue', u'red', u'black']","[u'left', u'middle', u'right']","[0.8, 0.4, 0.2]","[u'high', u'medium', u'low']","red",50,"middle","medium","True","False",428,5700,NA
"A2ZIATVCA2NKPF","Thu Jan 30 2020 09:05:45 GMT-0500 (Eastern Standard Time)","Thu Jan 30 2020 09:11:31 GMT-0500 (Eastern Standard Time)","Mozilla/5.0 (X11; CrOS aarch64 12607.82.0) AppleWebKit/537.36 (KHTML, like Gecko) Chrome/79.0.3945.123 Safari/537.36",133,"[0.9, 0.5, 0.1]","[0.8, 0.4, 0.2]","[u'blue', u'red', u'black']","[u'left', u'middle', u'right']","[0.8, 0.4, 0.2]","[u'high', u'medium', u'low']","red",50,"middle","medium","True","False",336,5800,NA
"A2ZIATVCA2NKPF","Thu Jan 30 2020 09:05:45 GMT-0500 (Eastern Standard Time)","Thu Jan 30 2020 09:11:31 GMT-0500 (Eastern Standard Time)","Mozilla/5.0 (X11; CrOS aarch64 12607.82.0) AppleWebKit/537.36 (KHTML, like Gecko) Chrome/79.0.3945.123 Safari/537.36",134,"[0.9, 0.5, 0.1]","[0.8, 0.4, 0.2]","[u'blue', u'red', u'black']","[u'left', u'middle', u'right']","[0.8, 0.4, 0.2]","[u'high', u'medium', u'low']","red",50,"middle","medium","False","False",252,5750,NA
"A2ZIATVCA2NKPF","Thu Jan 30 2020 09:05:45 GMT-0500 (Eastern Standard Time)","Thu Jan 30 2020 09:11:31 GMT-0500 (Eastern Standard Time)","Mozilla/5.0 (X11; CrOS aarch64 12607.82.0) AppleWebKit/537.36 (KHTML, like Gecko) Chrome/79.0.3945.123 Safari/537.36",135,"[0.9, 0.5, 0.1]","[0.8, 0.4, 0.2]","[u'blue', u'red', u'black']","[u'left', u'middle', u'right']","[0.8, 0.4, 0.2]","[u'high', u'medium', u'low']","blue",49,"left","high","True","False",926,5850,NA
"A2ZIATVCA2NKPF","Thu Jan 30 2020 09:05:45 GMT-0500 (Eastern Standard Time)","Thu Jan 30 2020 09:11:31 GMT-0500 (Eastern Standard Time)","Mozilla/5.0 (X11; CrOS aarch64 12607.82.0) AppleWebKit/537.36 (KHTML, like Gecko) Chrome/79.0.3945.123 Safari/537.36",136,"[0.9, 0.5, 0.1]","[0.8, 0.4, 0.2]","[u'blue', u'red', u'black']","[u'left', u'middle', u'right']","[0.8, 0.4, 0.2]","[u'high', u'medium', u'low']","blue",49,"left","high","True","False",17,5950,NA
"A2ZIATVCA2NKPF","Thu Jan 30 2020 09:05:45 GMT-0500 (Eastern Standard Time)","Thu Jan 30 2020 09:11:31 GMT-0500 (Eastern Standard Time)","Mozilla/5.0 (X11; CrOS aarch64 12607.82.0) AppleWebKit/537.36 (KHTML, like Gecko) Chrome/79.0.3945.123 Safari/537.36",137,"[0.9, 0.5, 0.1]","[0.8, 0.4, 0.2]","[u'blue', u'red', u'black']","[u'left', u'middle', u'right']","[0.8, 0.4, 0.2]","[u'high', u'medium', u'low']","blue",49,"left","high","True","False",655,6050,NA
"A2ZIATVCA2NKPF","Thu Jan 30 2020 09:05:45 GMT-0500 (Eastern Standard Time)","Thu Jan 30 2020 09:11:31 GMT-0500 (Eastern Standard Time)","Mozilla/5.0 (X11; CrOS aarch64 12607.82.0) AppleWebKit/537.36 (KHTML, like Gecko) Chrome/79.0.3945.123 Safari/537.36",138,"[0.9, 0.5, 0.1]","[0.8, 0.4, 0.2]","[u'blue', u'red', u'black']","[u'left', u'middle', u'right']","[0.8, 0.4, 0.2]","[u'high', u'medium', u'low']","blue",49,"left","high","True","False",215,6150,NA
"A2ZIATVCA2NKPF","Thu Jan 30 2020 09:05:45 GMT-0500 (Eastern Standard Time)","Thu Jan 30 2020 09:11:31 GMT-0500 (Eastern Standard Time)","Mozilla/5.0 (X11; CrOS aarch64 12607.82.0) AppleWebKit/537.36 (KHTML, like Gecko) Chrome/79.0.3945.123 Safari/537.36",139,"[0.9, 0.5, 0.1]","[0.8, 0.4, 0.2]","[u'blue', u'red', u'black']","[u'left', u'middle', u'right']","[0.8, 0.4, 0.2]","[u'high', u'medium', u'low']","blue",49,"left","high","True","False",30,6250,NA
"A2ZIATVCA2NKPF","Thu Jan 30 2020 09:05:45 GMT-0500 (Eastern Standard Time)","Thu Jan 30 2020 09:11:31 GMT-0500 (Eastern Standard Time)","Mozilla/5.0 (X11; CrOS aarch64 12607.82.0) AppleWebKit/537.36 (KHTML, like Gecko) Chrome/79.0.3945.123 Safari/537.36",140,"[0.9, 0.5, 0.1]","[0.8, 0.4, 0.2]","[u'blue', u'red', u'black']","[u'left', u'middle', u'right']","[0.8, 0.4, 0.2]","[u'high', u'medium', u'low']","blue",49,"left","high","False","False",141,6200,NA
"A2ZIATVCA2NKPF","Thu Jan 30 2020 09:05:45 GMT-0500 (Eastern Standard Time)","Thu Jan 30 2020 09:11:31 GMT-0500 (Eastern Standard Time)","Mozilla/5.0 (X11; CrOS aarch64 12607.82.0) AppleWebKit/537.36 (KHTML, like Gecko) Chrome/79.0.3945.123 Safari/537.36",141,"[0.9, 0.5, 0.1]","[0.8, 0.4, 0.2]","[u'blue', u'red', u'black']","[u'left', u'middle', u'right']","[0.8, 0.4, 0.2]","[u'high', u'medium', u'low']","black",51,"right","low","False","False",1496,6150,NA
"A2ZIATVCA2NKPF","Thu Jan 30 2020 09:05:45 GMT-0500 (Eastern Standard Time)","Thu Jan 30 2020 09:11:31 GMT-0500 (Eastern Standard Time)","Mozilla/5.0 (X11; CrOS aarch64 12607.82.0) AppleWebKit/537.36 (KHTML, like Gecko) Chrome/79.0.3945.123 Safari/537.36",142,"[0.9, 0.5, 0.1]","[0.8, 0.4, 0.2]","[u'blue', u'red', u'black']","[u'left', u'middle', u'right']","[0.8, 0.4, 0.2]","[u'high', u'medium', u'low']","red",50,"middle","medium","True","False",819,6250,NA
"A2ZIATVCA2NKPF","Thu Jan 30 2020 09:05:45 GMT-0500 (Eastern Standard Time)","Thu Jan 30 2020 09:11:31 GMT-0500 (Eastern Standard Time)","Mozilla/5.0 (X11; CrOS aarch64 12607.82.0) AppleWebKit/537.36 (KHTML, like Gecko) Chrome/79.0.3945.123 Safari/537.36",143,"[0.9, 0.5, 0.1]","[0.8, 0.4, 0.2]","[u'blue', u'red', u'black']","[u'left', u'middle', u'right']","[0.8, 0.4, 0.2]","[u'high', u'medium', u'low']","red",50,"middle","medium","True","False",10,6350,NA
"A2ZIATVCA2NKPF","Thu Jan 30 2020 09:05:45 GMT-0500 (Eastern Standard Time)","Thu Jan 30 2020 09:11:31 GMT-0500 (Eastern Standard Time)","Mozilla/5.0 (X11; CrOS aarch64 12607.82.0) AppleWebKit/537.36 (KHTML, like Gecko) Chrome/79.0.3945.123 Safari/537.36",144,"[0.9, 0.5, 0.1]","[0.8, 0.4, 0.2]","[u'blue', u'red', u'black']","[u'left', u'middle', u'right']","[0.8, 0.4, 0.2]","[u'high', u'medium', u'low']","red",50,"middle","medium","False","False",103,6300,NA
"A2ZIATVCA2NKPF","Thu Jan 30 2020 09:05:45 GMT-0500 (Eastern Standard Time)","Thu Jan 30 2020 09:11:31 GMT-0500 (Eastern Standard Time)","Mozilla/5.0 (X11; CrOS aarch64 12607.82.0) AppleWebKit/537.36 (KHTML, like Gecko) Chrome/79.0.3945.123 Safari/537.36",145,"[0.9, 0.5, 0.1]","[0.8, 0.4, 0.2]","[u'blue', u'red', u'black']","[u'left', u'middle', u'right']","[0.8, 0.4, 0.2]","[u'high', u'medium', u'low']","black",51,"right","low","False","False",219,6250,NA
"A2ZIATVCA2NKPF","Thu Jan 30 2020 09:05:45 GMT-0500 (Eastern Standard Time)","Thu Jan 30 2020 09:11:31 GMT-0500 (Eastern Standard Time)","Mozilla/5.0 (X11; CrOS aarch64 12607.82.0) AppleWebKit/537.36 (KHTML, like Gecko) Chrome/79.0.3945.123 Safari/537.36",146,"[0.9, 0.5, 0.1]","[0.8, 0.4, 0.2]","[u'blue', u'red', u'black']","[u'left', u'middle', u'right']","[0.8, 0.4, 0.2]","[u'high', u'medium', u'low']","red",50,"middle","medium","True","False",202,6350,NA
"A2ZIATVCA2NKPF","Thu Jan 30 2020 09:05:45 GMT-0500 (Eastern Standard Time)","Thu Jan 30 2020 09:11:31 GMT-0500 (Eastern Standard Time)","Mozilla/5.0 (X11; CrOS aarch64 12607.82.0) AppleWebKit/537.36 (KHTML, like Gecko) Chrome/79.0.3945.123 Safari/537.36",147,"[0.9, 0.5, 0.1]","[0.8, 0.4, 0.2]","[u'blue', u'red', u'black']","[u'left', u'middle', u'right']","[0.8, 0.4, 0.2]","[u'high', u'medium', u'low']","red",50,"middle","medium","True","False",240,6450,NA
"A2ZIATVCA2NKPF","Thu Jan 30 2020 09:05:45 GMT-0500 (Eastern Standard Time)","Thu Jan 30 2020 09:11:31 GMT-0500 (Eastern Standard Time)","Mozilla/5.0 (X11; CrOS aarch64 12607.82.0) AppleWebKit/537.36 (KHTML, like Gecko) Chrome/79.0.3945.123 Safari/537.36",148,"[0.9, 0.5, 0.1]","[0.8, 0.4, 0.2]","[u'blue', u'red', u'black']","[u'left', u'middle', u'right']","[0.8, 0.4, 0.2]","[u'high', u'medium', u'low']","red",50,"middle","medium","False","False",700,6400,NA
"A2ZIATVCA2NKPF","Thu Jan 30 2020 09:05:45 GMT-0500 (Eastern Standard Time)","Thu Jan 30 2020 09:11:31 GMT-0500 (Eastern Standard Time)","Mozilla/5.0 (X11; CrOS aarch64 12607.82.0) AppleWebKit/537.36 (KHTML, like Gecko) Chrome/79.0.3945.123 Safari/537.36",149,"[0.9, 0.5, 0.1]","[0.8, 0.4, 0.2]","[u'blue', u'red', u'black']","[u'left', u'middle', u'right']","[0.8, 0.4, 0.2]","[u'high', u'medium', u'low']","black",51,"right","low","True","False",1155,6500,NA
"A2ZIATVCA2NKPF","Thu Jan 30 2020 09:05:45 GMT-0500 (Eastern Standard Time)","Thu Jan 30 2020 09:11:31 GMT-0500 (Eastern Standard Time)","Mozilla/5.0 (X11; CrOS aarch64 12607.82.0) AppleWebKit/537.36 (KHTML, like Gecko) Chrome/79.0.3945.123 Safari/537.36",150,"[0.9, 0.5, 0.1]","[0.8, 0.4, 0.2]","[u'blue', u'red', u'black']","[u'left', u'middle', u'right']","[0.8, 0.4, 0.2]","[u'high', u'medium', u'low']","black",51,"right","low","True","False",1074,6600,NA
"A2ZIATVCA2NKPF","Thu Jan 30 2020 09:05:45 GMT-0500 (Eastern Standard Time)","Thu Jan 30 2020 09:11:31 GMT-0500 (Eastern Standard Time)","Mozilla/5.0 (X11; CrOS aarch64 12607.82.0) AppleWebKit/537.36 (KHTML, like Gecko) Chrome/79.0.3945.123 Safari/537.36",151,"[0.9, 0.5, 0.1]","[0.8, 0.4, 0.2]","[u'blue', u'red', u'black']","[u'left', u'middle', u'right']","[0.8, 0.4, 0.2]","[u'high', u'medium', u'low']","black",51,"right","low","True","False",267,6700,NA
"A2ZIATVCA2NKPF","Thu Jan 30 2020 09:05:45 GMT-0500 (Eastern Standard Time)","Thu Jan 30 2020 09:11:31 GMT-0500 (Eastern Standard Time)","Mozilla/5.0 (X11; CrOS aarch64 12607.82.0) AppleWebKit/537.36 (KHTML, like Gecko) Chrome/79.0.3945.123 Safari/537.36",152,"[0.9, 0.5, 0.1]","[0.8, 0.4, 0.2]","[u'blue', u'red', u'black']","[u'left', u'middle', u'right']","[0.8, 0.4, 0.2]","[u'high', u'medium', u'low']","black",51,"right","low","False","False",368,6650,NA
"A2ZIATVCA2NKPF","Thu Jan 30 2020 09:05:45 GMT-0500 (Eastern Standard Time)","Thu Jan 30 2020 09:11:31 GMT-0500 (Eastern Standard Time)","Mozilla/5.0 (X11; CrOS aarch64 12607.82.0) AppleWebKit/537.36 (KHTML, like Gecko) Chrome/79.0.3945.123 Safari/537.36",153,"[0.9, 0.5, 0.1]","[0.8, 0.4, 0.2]","[u'blue', u'red', u'black']","[u'left', u'middle', u'right']","[0.8, 0.4, 0.2]","[u'high', u'medium', u'low']","red",50,"middle","medium","True","False",193,6750,NA
"A2ZIATVCA2NKPF","Thu Jan 30 2020 09:05:45 GMT-0500 (Eastern Standard Time)","Thu Jan 30 2020 09:11:31 GMT-0500 (Eastern Standard Time)","Mozilla/5.0 (X11; CrOS aarch64 12607.82.0) AppleWebKit/537.36 (KHTML, like Gecko) Chrome/79.0.3945.123 Safari/537.36",154,"[0.9, 0.5, 0.1]","[0.8, 0.4, 0.2]","[u'blue', u'red', u'black']","[u'left', u'middle', u'right']","[0.8, 0.4, 0.2]","[u'high', u'medium', u'low']","red",50,"middle","medium","False","False",839,6700,NA
"A2ZIATVCA2NKPF","Thu Jan 30 2020 09:05:45 GMT-0500 (Eastern Standard Time)","Thu Jan 30 2020 09:11:31 GMT-0500 (Eastern Standard Time)","Mozilla/5.0 (X11; CrOS aarch64 12607.82.0) AppleWebKit/537.36 (KHTML, like Gecko) Chrome/79.0.3945.123 Safari/537.36",155,"[0.9, 0.5, 0.1]","[0.8, 0.4, 0.2]","[u'blue', u'red', u'black']","[u'left', u'middle', u'right']","[0.8, 0.4, 0.2]","[u'high', u'medium', u'low']","blue",49,"left","high","True","False",581,6800,NA
"A2ZIATVCA2NKPF","Thu Jan 30 2020 09:05:45 GMT-0500 (Eastern Standard Time)","Thu Jan 30 2020 09:11:31 GMT-0500 (Eastern Standard Time)","Mozilla/5.0 (X11; CrOS aarch64 12607.82.0) AppleWebKit/537.36 (KHTML, like Gecko) Chrome/79.0.3945.123 Safari/537.36",156,"[0.9, 0.5, 0.1]","[0.8, 0.4, 0.2]","[u'blue', u'red', u'black']","[u'left', u'middle', u'right']","[0.8, 0.4, 0.2]","[u'high', u'medium', u'low']","blue",49,"left","high","True","False",978,6900,NA
"A2ZIATVCA2NKPF","Thu Jan 30 2020 09:05:45 GMT-0500 (Eastern Standard Time)","Thu Jan 30 2020 09:11:31 GMT-0500 (Eastern Standard Time)","Mozilla/5.0 (X11; CrOS aarch64 12607.82.0) AppleWebKit/537.36 (KHTML, like Gecko) Chrome/79.0.3945.123 Safari/537.36",157,"[0.9, 0.5, 0.1]","[0.8, 0.4, 0.2]","[u'blue', u'red', u'black']","[u'left', u'middle', u'right']","[0.8, 0.4, 0.2]","[u'high', u'medium', u'low']","blue",49,"left","high","True","False",1202,7000,NA
"A2ZIATVCA2NKPF","Thu Jan 30 2020 09:05:45 GMT-0500 (Eastern Standard Time)","Thu Jan 30 2020 09:11:31 GMT-0500 (Eastern Standard Time)","Mozilla/5.0 (X11; CrOS aarch64 12607.82.0) AppleWebKit/537.36 (KHTML, like Gecko) Chrome/79.0.3945.123 Safari/537.36",158,"[0.9, 0.5, 0.1]","[0.8, 0.4, 0.2]","[u'blue', u'red', u'black']","[u'left', u'middle', u'right']","[0.8, 0.4, 0.2]","[u'high', u'medium', u'low']","blue",49,"left","high","True","False",127,7100,NA
"A2ZIATVCA2NKPF","Thu Jan 30 2020 09:05:45 GMT-0500 (Eastern Standard Time)","Thu Jan 30 2020 09:11:31 GMT-0500 (Eastern Standard Time)","Mozilla/5.0 (X11; CrOS aarch64 12607.82.0) AppleWebKit/537.36 (KHTML, like Gecko) Chrome/79.0.3945.123 Safari/537.36",159,"[0.9, 0.5, 0.1]","[0.8, 0.4, 0.2]","[u'blue', u'red', u'black']","[u'left', u'middle', u'right']","[0.8, 0.4, 0.2]","[u'high', u'medium', u'low']","blue",49,"left","high","True","False",246,7200,NA
"A2ZIATVCA2NKPF","Thu Jan 30 2020 09:05:45 GMT-0500 (Eastern Standard Time)","Thu Jan 30 2020 09:11:31 GMT-0500 (Eastern Standard Time)","Mozilla/5.0 (X11; CrOS aarch64 12607.82.0) AppleWebKit/537.36 (KHTML, like Gecko) Chrome/79.0.3945.123 Safari/537.36",160,"[0.9, 0.5, 0.1]","[0.8, 0.4, 0.2]","[u'blue', u'red', u'black']","[u'left', u'middle', u'right']","[0.8, 0.4, 0.2]","[u'high', u'medium', u'low']","blue",49,"left","high","True","False",107,7300,NA
