"src_subject_id","start_time","end_time","browser","index","first_half_probabilities","second_half_probabilities","deck_color","deck_position","deck_probabilities","deck_contingencies","response_color","key_press","response_position","response_probability","reward_type","trial_type","rt","reward_tally","exclusion_reason"
"ANYJ22IOQKAX3","Thu Jan 30 2020 14:28:35 GMT+0100 (West Africa Standard Time)","Thu Jan 30 2020 15:00:45 GMT+0100 (West Africa Standard Time)","Mozilla/5.0 (Windows NT 10.0; Win64; x64) AppleWebKit/537.36 (KHTML, like Gecko) Chrome/79.0.3945.130 Safari/537.36",1,"[0.9, 0.5, 0.1]","[0.8, 0.4, 0.2]","[u'red', u'blue', u'black']","[u'left', u'middle', u'right']","[0.9, 0.5, 0.1]","[u'low', u'medium', u'high']","blue",50,"middle","medium","False","False",450,-50,NA
"ANYJ22IOQKAX3","Thu Jan 30 2020 14:28:35 GMT+0100 (West Africa Standard Time)","Thu Jan 30 2020 15:00:45 GMT+0100 (West Africa Standard Time)","Mozilla/5.0 (Windows NT 10.0; Win64; x64) AppleWebKit/537.36 (KHTML, like Gecko) Chrome/79.0.3945.130 Safari/537.36",2,"[0.9, 0.5, 0.1]","[0.8, 0.4, 0.2]","[u'red', u'blue', u'black']","[u'left', u'middle', u'right']","[0.9, 0.5, 0.1]","[u'low', u'medium', u'high']","black",51,"right","high","True","False",216,50,NA
"ANYJ22IOQKAX3","Thu Jan 30 2020 14:28:35 GMT+0100 (West Africa Standard Time)","Thu Jan 30 2020 15:00:45 GMT+0100 (West Africa Standard Time)","Mozilla/5.0 (Windows NT 10.0; Win64; x64) AppleWebKit/537.36 (KHTML, like Gecko) Chrome/79.0.3945.130 Safari/537.36",3,"[0.9, 0.5, 0.1]","[0.8, 0.4, 0.2]","[u'red', u'blue', u'black']","[u'left', u'middle', u'right']","[0.9, 0.5, 0.1]","[u'low', u'medium', u'high']","black",51,"right","high","True","False",274,150,NA
"ANYJ22IOQKAX3","Thu Jan 30 2020 14:28:35 GMT+0100 (West Africa Standard Time)","Thu Jan 30 2020 15:00:45 GMT+0100 (West Africa Standard Time)","Mozilla/5.0 (Windows NT 10.0; Win64; x64) AppleWebKit/537.36 (KHTML, like Gecko) Chrome/79.0.3945.130 Safari/537.36",4,"[0.9, 0.5, 0.1]","[0.8, 0.4, 0.2]","[u'red', u'blue', u'black']","[u'left', u'middle', u'right']","[0.9, 0.5, 0.1]","[u'low', u'medium', u'high']","black",51,"right","high","True","False",263,250,NA
"ANYJ22IOQKAX3","Thu Jan 30 2020 14:28:35 GMT+0100 (West Africa Standard Time)","Thu Jan 30 2020 15:00:45 GMT+0100 (West Africa Standard Time)","Mozilla/5.0 (Windows NT 10.0; Win64; x64) AppleWebKit/537.36 (KHTML, like Gecko) Chrome/79.0.3945.130 Safari/537.36",5,"[0.9, 0.5, 0.1]","[0.8, 0.4, 0.2]","[u'red', u'blue', u'black']","[u'left', u'middle', u'right']","[0.9, 0.5, 0.1]","[u'low', u'medium', u'high']","black",51,"right","high","True","False",259,350,NA
"ANYJ22IOQKAX3","Thu Jan 30 2020 14:28:35 GMT+0100 (West Africa Standard Time)","Thu Jan 30 2020 15:00:45 GMT+0100 (West Africa Standard Time)","Mozilla/5.0 (Windows NT 10.0; Win64; x64) AppleWebKit/537.36 (KHTML, like Gecko) Chrome/79.0.3945.130 Safari/537.36",6,"[0.9, 0.5, 0.1]","[0.8, 0.4, 0.2]","[u'red', u'blue', u'black']","[u'left', u'middle', u'right']","[0.9, 0.5, 0.1]","[u'low', u'medium', u'high']","black",51,"right","high","True","False",167,450,NA
"ANYJ22IOQKAX3","Thu Jan 30 2020 14:28:35 GMT+0100 (West Africa Standard Time)","Thu Jan 30 2020 15:00:45 GMT+0100 (West Africa Standard Time)","Mozilla/5.0 (Windows NT 10.0; Win64; x64) AppleWebKit/537.36 (KHTML, like Gecko) Chrome/79.0.3945.130 Safari/537.36",7,"[0.9, 0.5, 0.1]","[0.8, 0.4, 0.2]","[u'red', u'blue', u'black']","[u'left', u'middle', u'right']","[0.9, 0.5, 0.1]","[u'low', u'medium', u'high']","black",51,"right","high","True","False",137,550,NA
"ANYJ22IOQKAX3","Thu Jan 30 2020 14:28:35 GMT+0100 (West Africa Standard Time)","Thu Jan 30 2020 15:00:45 GMT+0100 (West Africa Standard Time)","Mozilla/5.0 (Windows NT 10.0; Win64; x64) AppleWebKit/537.36 (KHTML, like Gecko) Chrome/79.0.3945.130 Safari/537.36",8,"[0.9, 0.5, 0.1]","[0.8, 0.4, 0.2]","[u'red', u'blue', u'black']","[u'left', u'middle', u'right']","[0.9, 0.5, 0.1]","[u'low', u'medium', u'high']","black",51,"right","high","False","False",101,500,NA
"ANYJ22IOQKAX3","Thu Jan 30 2020 14:28:35 GMT+0100 (West Africa Standard Time)","Thu Jan 30 2020 15:00:45 GMT+0100 (West Africa Standard Time)","Mozilla/5.0 (Windows NT 10.0; Win64; x64) AppleWebKit/537.36 (KHTML, like Gecko) Chrome/79.0.3945.130 Safari/537.36",9,"[0.9, 0.5, 0.1]","[0.8, 0.4, 0.2]","[u'red', u'blue', u'black']","[u'left', u'middle', u'right']","[0.9, 0.5, 0.1]","[u'low', u'medium', u'high']","black",51,"right","high","True","False",262,600,NA
"ANYJ22IOQKAX3","Thu Jan 30 2020 14:28:35 GMT+0100 (West Africa Standard Time)","Thu Jan 30 2020 15:00:45 GMT+0100 (West Africa Standard Time)","Mozilla/5.0 (Windows NT 10.0; Win64; x64) AppleWebKit/537.36 (KHTML, like Gecko) Chrome/79.0.3945.130 Safari/537.36",10,"[0.9, 0.5, 0.1]","[0.8, 0.4, 0.2]","[u'red', u'blue', u'black']","[u'left', u'middle', u'right']","[0.9, 0.5, 0.1]","[u'low', u'medium', u'high']","black",51,"right","high","True","True",111,700,NA
"ANYJ22IOQKAX3","Thu Jan 30 2020 14:28:35 GMT+0100 (West Africa Standard Time)","Thu Jan 30 2020 15:00:45 GMT+0100 (West Africa Standard Time)","Mozilla/5.0 (Windows NT 10.0; Win64; x64) AppleWebKit/537.36 (KHTML, like Gecko) Chrome/79.0.3945.130 Safari/537.36",11,"[0.9, 0.5, 0.1]","[0.8, 0.4, 0.2]","[u'red', u'blue', u'black']","[u'left', u'middle', u'right']","[0.9, 0.5, 0.1]","[u'low', u'high', u'medium']","red",49,"left","low","False","False",242,650,NA
"ANYJ22IOQKAX3","Thu Jan 30 2020 14:28:35 GMT+0100 (West Africa Standard Time)","Thu Jan 30 2020 15:00:45 GMT+0100 (West Africa Standard Time)","Mozilla/5.0 (Windows NT 10.0; Win64; x64) AppleWebKit/537.36 (KHTML, like Gecko) Chrome/79.0.3945.130 Safari/537.36",12,"[0.9, 0.5, 0.1]","[0.8, 0.4, 0.2]","[u'red', u'blue', u'black']","[u'left', u'middle', u'right']","[0.9, 0.5, 0.1]","[u'low', u'high', u'medium']","blue",50,"middle","high","True","False",221,750,NA
"ANYJ22IOQKAX3","Thu Jan 30 2020 14:28:35 GMT+0100 (West Africa Standard Time)","Thu Jan 30 2020 15:00:45 GMT+0100 (West Africa Standard Time)","Mozilla/5.0 (Windows NT 10.0; Win64; x64) AppleWebKit/537.36 (KHTML, like Gecko) Chrome/79.0.3945.130 Safari/537.36",13,"[0.9, 0.5, 0.1]","[0.8, 0.4, 0.2]","[u'red', u'blue', u'black']","[u'left', u'middle', u'right']","[0.9, 0.5, 0.1]","[u'low', u'high', u'medium']","blue",50,"middle","high","True","False",279,850,NA
"ANYJ22IOQKAX3","Thu Jan 30 2020 14:28:35 GMT+0100 (West Africa Standard Time)","Thu Jan 30 2020 15:00:45 GMT+0100 (West Africa Standard Time)","Mozilla/5.0 (Windows NT 10.0; Win64; x64) AppleWebKit/537.36 (KHTML, like Gecko) Chrome/79.0.3945.130 Safari/537.36",14,"[0.9, 0.5, 0.1]","[0.8, 0.4, 0.2]","[u'red', u'blue', u'black']","[u'left', u'middle', u'right']","[0.9, 0.5, 0.1]","[u'low', u'high', u'medium']","blue",50,"middle","high","True","False",245,950,NA
"ANYJ22IOQKAX3","Thu Jan 30 2020 14:28:35 GMT+0100 (West Africa Standard Time)","Thu Jan 30 2020 15:00:45 GMT+0100 (West Africa Standard Time)","Mozilla/5.0 (Windows NT 10.0; Win64; x64) AppleWebKit/537.36 (KHTML, like Gecko) Chrome/79.0.3945.130 Safari/537.36",15,"[0.9, 0.5, 0.1]","[0.8, 0.4, 0.2]","[u'red', u'blue', u'black']","[u'left', u'middle', u'right']","[0.9, 0.5, 0.1]","[u'low', u'high', u'medium']","blue",50,"middle","high","True","False",181,1050,NA
"ANYJ22IOQKAX3","Thu Jan 30 2020 14:28:35 GMT+0100 (West Africa Standard Time)","Thu Jan 30 2020 15:00:45 GMT+0100 (West Africa Standard Time)","Mozilla/5.0 (Windows NT 10.0; Win64; x64) AppleWebKit/537.36 (KHTML, like Gecko) Chrome/79.0.3945.130 Safari/537.36",16,"[0.9, 0.5, 0.1]","[0.8, 0.4, 0.2]","[u'red', u'blue', u'black']","[u'left', u'middle', u'right']","[0.9, 0.5, 0.1]","[u'low', u'high', u'medium']","blue",50,"middle","high","False","False",149,1000,NA
"ANYJ22IOQKAX3","Thu Jan 30 2020 14:28:35 GMT+0100 (West Africa Standard Time)","Thu Jan 30 2020 15:00:45 GMT+0100 (West Africa Standard Time)","Mozilla/5.0 (Windows NT 10.0; Win64; x64) AppleWebKit/537.36 (KHTML, like Gecko) Chrome/79.0.3945.130 Safari/537.36",17,"[0.9, 0.5, 0.1]","[0.8, 0.4, 0.2]","[u'red', u'blue', u'black']","[u'left', u'middle', u'right']","[0.9, 0.5, 0.1]","[u'low', u'high', u'medium']","red",49,"left","low","True","False",72,1100,NA
"ANYJ22IOQKAX3","Thu Jan 30 2020 14:28:35 GMT+0100 (West Africa Standard Time)","Thu Jan 30 2020 15:00:45 GMT+0100 (West Africa Standard Time)","Mozilla/5.0 (Windows NT 10.0; Win64; x64) AppleWebKit/537.36 (KHTML, like Gecko) Chrome/79.0.3945.130 Safari/537.36",18,"[0.9, 0.5, 0.1]","[0.8, 0.4, 0.2]","[u'red', u'blue', u'black']","[u'left', u'middle', u'right']","[0.9, 0.5, 0.1]","[u'low', u'high', u'medium']","red",49,"left","low","False","False",994,1050,NA
"ANYJ22IOQKAX3","Thu Jan 30 2020 14:28:35 GMT+0100 (West Africa Standard Time)","Thu Jan 30 2020 15:00:45 GMT+0100 (West Africa Standard Time)","Mozilla/5.0 (Windows NT 10.0; Win64; x64) AppleWebKit/537.36 (KHTML, like Gecko) Chrome/79.0.3945.130 Safari/537.36",19,"[0.9, 0.5, 0.1]","[0.8, 0.4, 0.2]","[u'red', u'blue', u'black']","[u'left', u'middle', u'right']","[0.9, 0.5, 0.1]","[u'low', u'high', u'medium']","red",49,"left","low","False","False",67,1000,NA
"ANYJ22IOQKAX3","Thu Jan 30 2020 14:28:35 GMT+0100 (West Africa Standard Time)","Thu Jan 30 2020 15:00:45 GMT+0100 (West Africa Standard Time)","Mozilla/5.0 (Windows NT 10.0; Win64; x64) AppleWebKit/537.36 (KHTML, like Gecko) Chrome/79.0.3945.130 Safari/537.36",20,"[0.9, 0.5, 0.1]","[0.8, 0.4, 0.2]","[u'red', u'blue', u'black']","[u'left', u'middle', u'right']","[0.9, 0.5, 0.1]","[u'low', u'high', u'medium']","red",49,"left","low","True","False",1372,1100,NA
"ANYJ22IOQKAX3","Thu Jan 30 2020 14:28:35 GMT+0100 (West Africa Standard Time)","Thu Jan 30 2020 15:00:45 GMT+0100 (West Africa Standard Time)","Mozilla/5.0 (Windows NT 10.0; Win64; x64) AppleWebKit/537.36 (KHTML, like Gecko) Chrome/79.0.3945.130 Safari/537.36",21,"[0.9, 0.5, 0.1]","[0.8, 0.4, 0.2]","[u'red', u'blue', u'black']","[u'left', u'middle', u'right']","[0.9, 0.5, 0.1]","[u'low', u'high', u'medium']","red",49,"left","low","False","False",175,1050,NA
"ANYJ22IOQKAX3","Thu Jan 30 2020 14:28:35 GMT+0100 (West Africa Standard Time)","Thu Jan 30 2020 15:00:45 GMT+0100 (West Africa Standard Time)","Mozilla/5.0 (Windows NT 10.0; Win64; x64) AppleWebKit/537.36 (KHTML, like Gecko) Chrome/79.0.3945.130 Safari/537.36",22,"[0.9, 0.5, 0.1]","[0.8, 0.4, 0.2]","[u'red', u'blue', u'black']","[u'left', u'middle', u'right']","[0.9, 0.5, 0.1]","[u'low', u'high', u'medium']","blue",50,"middle","high","True","False",170,1150,NA
"ANYJ22IOQKAX3","Thu Jan 30 2020 14:28:35 GMT+0100 (West Africa Standard Time)","Thu Jan 30 2020 15:00:45 GMT+0100 (West Africa Standard Time)","Mozilla/5.0 (Windows NT 10.0; Win64; x64) AppleWebKit/537.36 (KHTML, like Gecko) Chrome/79.0.3945.130 Safari/537.36",23,"[0.9, 0.5, 0.1]","[0.8, 0.4, 0.2]","[u'red', u'blue', u'black']","[u'left', u'middle', u'right']","[0.9, 0.5, 0.1]","[u'low', u'high', u'medium']","blue",50,"middle","high","True","False",206,1250,NA
"ANYJ22IOQKAX3","Thu Jan 30 2020 14:28:35 GMT+0100 (West Africa Standard Time)","Thu Jan 30 2020 15:00:45 GMT+0100 (West Africa Standard Time)","Mozilla/5.0 (Windows NT 10.0; Win64; x64) AppleWebKit/537.36 (KHTML, like Gecko) Chrome/79.0.3945.130 Safari/537.36",24,"[0.9, 0.5, 0.1]","[0.8, 0.4, 0.2]","[u'red', u'blue', u'black']","[u'left', u'middle', u'right']","[0.9, 0.5, 0.1]","[u'low', u'high', u'medium']","blue",50,"middle","high","True","False",137,1350,NA
"ANYJ22IOQKAX3","Thu Jan 30 2020 14:28:35 GMT+0100 (West Africa Standard Time)","Thu Jan 30 2020 15:00:45 GMT+0100 (West Africa Standard Time)","Mozilla/5.0 (Windows NT 10.0; Win64; x64) AppleWebKit/537.36 (KHTML, like Gecko) Chrome/79.0.3945.130 Safari/537.36",25,"[0.9, 0.5, 0.1]","[0.8, 0.4, 0.2]","[u'red', u'blue', u'black']","[u'left', u'middle', u'right']","[0.9, 0.5, 0.1]","[u'low', u'high', u'medium']","blue",50,"middle","high","True","False",153,1450,NA
"ANYJ22IOQKAX3","Thu Jan 30 2020 14:28:35 GMT+0100 (West Africa Standard Time)","Thu Jan 30 2020 15:00:45 GMT+0100 (West Africa Standard Time)","Mozilla/5.0 (Windows NT 10.0; Win64; x64) AppleWebKit/537.36 (KHTML, like Gecko) Chrome/79.0.3945.130 Safari/537.36",26,"[0.9, 0.5, 0.1]","[0.8, 0.4, 0.2]","[u'red', u'blue', u'black']","[u'left', u'middle', u'right']","[0.9, 0.5, 0.1]","[u'low', u'high', u'medium']","blue",50,"middle","high","True","False",29,1550,NA
"ANYJ22IOQKAX3","Thu Jan 30 2020 14:28:35 GMT+0100 (West Africa Standard Time)","Thu Jan 30 2020 15:00:45 GMT+0100 (West Africa Standard Time)","Mozilla/5.0 (Windows NT 10.0; Win64; x64) AppleWebKit/537.36 (KHTML, like Gecko) Chrome/79.0.3945.130 Safari/537.36",27,"[0.9, 0.5, 0.1]","[0.8, 0.4, 0.2]","[u'red', u'blue', u'black']","[u'left', u'middle', u'right']","[0.9, 0.5, 0.1]","[u'low', u'high', u'medium']","blue",50,"middle","high","True","False",337,1650,NA
"ANYJ22IOQKAX3","Thu Jan 30 2020 14:28:35 GMT+0100 (West Africa Standard Time)","Thu Jan 30 2020 15:00:45 GMT+0100 (West Africa Standard Time)","Mozilla/5.0 (Windows NT 10.0; Win64; x64) AppleWebKit/537.36 (KHTML, like Gecko) Chrome/79.0.3945.130 Safari/537.36",28,"[0.9, 0.5, 0.1]","[0.8, 0.4, 0.2]","[u'red', u'blue', u'black']","[u'left', u'middle', u'right']","[0.9, 0.5, 0.1]","[u'low', u'high', u'medium']","blue",50,"middle","high","True","False",251,1750,NA
"ANYJ22IOQKAX3","Thu Jan 30 2020 14:28:35 GMT+0100 (West Africa Standard Time)","Thu Jan 30 2020 15:00:45 GMT+0100 (West Africa Standard Time)","Mozilla/5.0 (Windows NT 10.0; Win64; x64) AppleWebKit/537.36 (KHTML, like Gecko) Chrome/79.0.3945.130 Safari/537.36",29,"[0.9, 0.5, 0.1]","[0.8, 0.4, 0.2]","[u'red', u'blue', u'black']","[u'left', u'middle', u'right']","[0.9, 0.5, 0.1]","[u'low', u'high', u'medium']","black",51,"right","medium","True","False",187,1850,NA
"ANYJ22IOQKAX3","Thu Jan 30 2020 14:28:35 GMT+0100 (West Africa Standard Time)","Thu Jan 30 2020 15:00:45 GMT+0100 (West Africa Standard Time)","Mozilla/5.0 (Windows NT 10.0; Win64; x64) AppleWebKit/537.36 (KHTML, like Gecko) Chrome/79.0.3945.130 Safari/537.36",30,"[0.9, 0.5, 0.1]","[0.8, 0.4, 0.2]","[u'red', u'blue', u'black']","[u'left', u'middle', u'right']","[0.9, 0.5, 0.1]","[u'low', u'high', u'medium']","black",51,"right","medium","False","False",215,1800,NA
"ANYJ22IOQKAX3","Thu Jan 30 2020 14:28:35 GMT+0100 (West Africa Standard Time)","Thu Jan 30 2020 15:00:45 GMT+0100 (West Africa Standard Time)","Mozilla/5.0 (Windows NT 10.0; Win64; x64) AppleWebKit/537.36 (KHTML, like Gecko) Chrome/79.0.3945.130 Safari/537.36",31,"[0.9, 0.5, 0.1]","[0.8, 0.4, 0.2]","[u'red', u'blue', u'black']","[u'left', u'middle', u'right']","[0.9, 0.5, 0.1]","[u'low', u'high', u'medium']","blue",50,"middle","high","False","False",59,1750,NA
"ANYJ22IOQKAX3","Thu Jan 30 2020 14:28:35 GMT+0100 (West Africa Standard Time)","Thu Jan 30 2020 15:00:45 GMT+0100 (West Africa Standard Time)","Mozilla/5.0 (Windows NT 10.0; Win64; x64) AppleWebKit/537.36 (KHTML, like Gecko) Chrome/79.0.3945.130 Safari/537.36",32,"[0.9, 0.5, 0.1]","[0.8, 0.4, 0.2]","[u'red', u'blue', u'black']","[u'left', u'middle', u'right']","[0.9, 0.5, 0.1]","[u'low', u'high', u'medium']","red",49,"left","low","False","False",171,1700,NA
"ANYJ22IOQKAX3","Thu Jan 30 2020 14:28:35 GMT+0100 (West Africa Standard Time)","Thu Jan 30 2020 15:00:45 GMT+0100 (West Africa Standard Time)","Mozilla/5.0 (Windows NT 10.0; Win64; x64) AppleWebKit/537.36 (KHTML, like Gecko) Chrome/79.0.3945.130 Safari/537.36",33,"[0.9, 0.5, 0.1]","[0.8, 0.4, 0.2]","[u'red', u'blue', u'black']","[u'left', u'middle', u'right']","[0.9, 0.5, 0.1]","[u'low', u'high', u'medium']","blue",50,"middle","high","False","False",158,1650,NA
"ANYJ22IOQKAX3","Thu Jan 30 2020 14:28:35 GMT+0100 (West Africa Standard Time)","Thu Jan 30 2020 15:00:45 GMT+0100 (West Africa Standard Time)","Mozilla/5.0 (Windows NT 10.0; Win64; x64) AppleWebKit/537.36 (KHTML, like Gecko) Chrome/79.0.3945.130 Safari/537.36",34,"[0.9, 0.5, 0.1]","[0.8, 0.4, 0.2]","[u'red', u'blue', u'black']","[u'left', u'middle', u'right']","[0.9, 0.5, 0.1]","[u'low', u'high', u'medium']","blue",50,"middle","high","True","False",227,1750,NA
"ANYJ22IOQKAX3","Thu Jan 30 2020 14:28:35 GMT+0100 (West Africa Standard Time)","Thu Jan 30 2020 15:00:45 GMT+0100 (West Africa Standard Time)","Mozilla/5.0 (Windows NT 10.0; Win64; x64) AppleWebKit/537.36 (KHTML, like Gecko) Chrome/79.0.3945.130 Safari/537.36",35,"[0.9, 0.5, 0.1]","[0.8, 0.4, 0.2]","[u'red', u'blue', u'black']","[u'left', u'middle', u'right']","[0.9, 0.5, 0.1]","[u'low', u'high', u'medium']","blue",50,"middle","high","True","False",250,1850,NA
"ANYJ22IOQKAX3","Thu Jan 30 2020 14:28:35 GMT+0100 (West Africa Standard Time)","Thu Jan 30 2020 15:00:45 GMT+0100 (West Africa Standard Time)","Mozilla/5.0 (Windows NT 10.0; Win64; x64) AppleWebKit/537.36 (KHTML, like Gecko) Chrome/79.0.3945.130 Safari/537.36",36,"[0.9, 0.5, 0.1]","[0.8, 0.4, 0.2]","[u'red', u'blue', u'black']","[u'left', u'middle', u'right']","[0.9, 0.5, 0.1]","[u'low', u'high', u'medium']","blue",50,"middle","high","False","False",158,1800,NA
"ANYJ22IOQKAX3","Thu Jan 30 2020 14:28:35 GMT+0100 (West Africa Standard Time)","Thu Jan 30 2020 15:00:45 GMT+0100 (West Africa Standard Time)","Mozilla/5.0 (Windows NT 10.0; Win64; x64) AppleWebKit/537.36 (KHTML, like Gecko) Chrome/79.0.3945.130 Safari/537.36",37,"[0.9, 0.5, 0.1]","[0.8, 0.4, 0.2]","[u'red', u'blue', u'black']","[u'left', u'middle', u'right']","[0.9, 0.5, 0.1]","[u'low', u'high', u'medium']","black",51,"right","medium","True","False",190,1900,NA
"ANYJ22IOQKAX3","Thu Jan 30 2020 14:28:35 GMT+0100 (West Africa Standard Time)","Thu Jan 30 2020 15:00:45 GMT+0100 (West Africa Standard Time)","Mozilla/5.0 (Windows NT 10.0; Win64; x64) AppleWebKit/537.36 (KHTML, like Gecko) Chrome/79.0.3945.130 Safari/537.36",38,"[0.9, 0.5, 0.1]","[0.8, 0.4, 0.2]","[u'red', u'blue', u'black']","[u'left', u'middle', u'right']","[0.9, 0.5, 0.1]","[u'low', u'high', u'medium']","black",51,"right","medium","False","False",201,1850,NA
"ANYJ22IOQKAX3","Thu Jan 30 2020 14:28:35 GMT+0100 (West Africa Standard Time)","Thu Jan 30 2020 15:00:45 GMT+0100 (West Africa Standard Time)","Mozilla/5.0 (Windows NT 10.0; Win64; x64) AppleWebKit/537.36 (KHTML, like Gecko) Chrome/79.0.3945.130 Safari/537.36",39,"[0.9, 0.5, 0.1]","[0.8, 0.4, 0.2]","[u'red', u'blue', u'black']","[u'left', u'middle', u'right']","[0.9, 0.5, 0.1]","[u'low', u'high', u'medium']","blue",50,"middle","high","True","False",145,1950,NA
"ANYJ22IOQKAX3","Thu Jan 30 2020 14:28:35 GMT+0100 (West Africa Standard Time)","Thu Jan 30 2020 15:00:45 GMT+0100 (West Africa Standard Time)","Mozilla/5.0 (Windows NT 10.0; Win64; x64) AppleWebKit/537.36 (KHTML, like Gecko) Chrome/79.0.3945.130 Safari/537.36",40,"[0.9, 0.5, 0.1]","[0.8, 0.4, 0.2]","[u'red', u'blue', u'black']","[u'left', u'middle', u'right']","[0.9, 0.5, 0.1]","[u'low', u'high', u'medium']","blue",50,"middle","high","True","False",123,2050,NA
"ANYJ22IOQKAX3","Thu Jan 30 2020 14:28:35 GMT+0100 (West Africa Standard Time)","Thu Jan 30 2020 15:00:45 GMT+0100 (West Africa Standard Time)","Mozilla/5.0 (Windows NT 10.0; Win64; x64) AppleWebKit/537.36 (KHTML, like Gecko) Chrome/79.0.3945.130 Safari/537.36",41,"[0.9, 0.5, 0.1]","[0.8, 0.4, 0.2]","[u'red', u'blue', u'black']","[u'left', u'middle', u'right']","[0.9, 0.5, 0.1]","[u'medium', u'low', u'high']","blue",50,"middle","low","False","False",1214,2000,NA
"ANYJ22IOQKAX3","Thu Jan 30 2020 14:28:35 GMT+0100 (West Africa Standard Time)","Thu Jan 30 2020 15:00:45 GMT+0100 (West Africa Standard Time)","Mozilla/5.0 (Windows NT 10.0; Win64; x64) AppleWebKit/537.36 (KHTML, like Gecko) Chrome/79.0.3945.130 Safari/537.36",42,"[0.9, 0.5, 0.1]","[0.8, 0.4, 0.2]","[u'red', u'blue', u'black']","[u'left', u'middle', u'right']","[0.9, 0.5, 0.1]","[u'medium', u'low', u'high']","red",49,"left","medium","False","False",352,1950,NA
"ANYJ22IOQKAX3","Thu Jan 30 2020 14:28:35 GMT+0100 (West Africa Standard Time)","Thu Jan 30 2020 15:00:45 GMT+0100 (West Africa Standard Time)","Mozilla/5.0 (Windows NT 10.0; Win64; x64) AppleWebKit/537.36 (KHTML, like Gecko) Chrome/79.0.3945.130 Safari/537.36",43,"[0.9, 0.5, 0.1]","[0.8, 0.4, 0.2]","[u'red', u'blue', u'black']","[u'left', u'middle', u'right']","[0.9, 0.5, 0.1]","[u'medium', u'low', u'high']","red",49,"left","medium","False","False",1291,1900,NA
"ANYJ22IOQKAX3","Thu Jan 30 2020 14:28:35 GMT+0100 (West Africa Standard Time)","Thu Jan 30 2020 15:00:45 GMT+0100 (West Africa Standard Time)","Mozilla/5.0 (Windows NT 10.0; Win64; x64) AppleWebKit/537.36 (KHTML, like Gecko) Chrome/79.0.3945.130 Safari/537.36",44,"[0.9, 0.5, 0.1]","[0.8, 0.4, 0.2]","[u'red', u'blue', u'black']","[u'left', u'middle', u'right']","[0.9, 0.5, 0.1]","[u'medium', u'low', u'high']","red",49,"left","medium","True","False",357,2000,NA
"ANYJ22IOQKAX3","Thu Jan 30 2020 14:28:35 GMT+0100 (West Africa Standard Time)","Thu Jan 30 2020 15:00:45 GMT+0100 (West Africa Standard Time)","Mozilla/5.0 (Windows NT 10.0; Win64; x64) AppleWebKit/537.36 (KHTML, like Gecko) Chrome/79.0.3945.130 Safari/537.36",45,"[0.9, 0.5, 0.1]","[0.8, 0.4, 0.2]","[u'red', u'blue', u'black']","[u'left', u'middle', u'right']","[0.9, 0.5, 0.1]","[u'medium', u'low', u'high']","red",49,"left","medium","False","False",281,1950,NA
"ANYJ22IOQKAX3","Thu Jan 30 2020 14:28:35 GMT+0100 (West Africa Standard Time)","Thu Jan 30 2020 15:00:45 GMT+0100 (West Africa Standard Time)","Mozilla/5.0 (Windows NT 10.0; Win64; x64) AppleWebKit/537.36 (KHTML, like Gecko) Chrome/79.0.3945.130 Safari/537.36",46,"[0.9, 0.5, 0.1]","[0.8, 0.4, 0.2]","[u'red', u'blue', u'black']","[u'left', u'middle', u'right']","[0.9, 0.5, 0.1]","[u'medium', u'low', u'high']","red",49,"left","medium","False","False",325,1900,NA
"ANYJ22IOQKAX3","Thu Jan 30 2020 14:28:35 GMT+0100 (West Africa Standard Time)","Thu Jan 30 2020 15:00:45 GMT+0100 (West Africa Standard Time)","Mozilla/5.0 (Windows NT 10.0; Win64; x64) AppleWebKit/537.36 (KHTML, like Gecko) Chrome/79.0.3945.130 Safari/537.36",47,"[0.9, 0.5, 0.1]","[0.8, 0.4, 0.2]","[u'red', u'blue', u'black']","[u'left', u'middle', u'right']","[0.9, 0.5, 0.1]","[u'medium', u'low', u'high']","red",49,"left","medium","True","False",320,2000,NA
"ANYJ22IOQKAX3","Thu Jan 30 2020 14:28:35 GMT+0100 (West Africa Standard Time)","Thu Jan 30 2020 15:00:45 GMT+0100 (West Africa Standard Time)","Mozilla/5.0 (Windows NT 10.0; Win64; x64) AppleWebKit/537.36 (KHTML, like Gecko) Chrome/79.0.3945.130 Safari/537.36",48,"[0.9, 0.5, 0.1]","[0.8, 0.4, 0.2]","[u'red', u'blue', u'black']","[u'left', u'middle', u'right']","[0.9, 0.5, 0.1]","[u'medium', u'low', u'high']","red",49,"left","medium","True","False",679,2100,NA
"ANYJ22IOQKAX3","Thu Jan 30 2020 14:28:35 GMT+0100 (West Africa Standard Time)","Thu Jan 30 2020 15:00:45 GMT+0100 (West Africa Standard Time)","Mozilla/5.0 (Windows NT 10.0; Win64; x64) AppleWebKit/537.36 (KHTML, like Gecko) Chrome/79.0.3945.130 Safari/537.36",49,"[0.9, 0.5, 0.1]","[0.8, 0.4, 0.2]","[u'red', u'blue', u'black']","[u'left', u'middle', u'right']","[0.9, 0.5, 0.1]","[u'medium', u'low', u'high']","blue",50,"middle","low","False","False",37418,2050,NA
"ANYJ22IOQKAX3","Thu Jan 30 2020 14:28:35 GMT+0100 (West Africa Standard Time)","Thu Jan 30 2020 15:00:45 GMT+0100 (West Africa Standard Time)","Mozilla/5.0 (Windows NT 10.0; Win64; x64) AppleWebKit/537.36 (KHTML, like Gecko) Chrome/79.0.3945.130 Safari/537.36",50,"[0.9, 0.5, 0.1]","[0.8, 0.4, 0.2]","[u'red', u'blue', u'black']","[u'left', u'middle', u'right']","[0.9, 0.5, 0.1]","[u'medium', u'low', u'high']","black",51,"right","high","False","False",709,2000,NA
"ANYJ22IOQKAX3","Thu Jan 30 2020 14:28:35 GMT+0100 (West Africa Standard Time)","Thu Jan 30 2020 15:00:45 GMT+0100 (West Africa Standard Time)","Mozilla/5.0 (Windows NT 10.0; Win64; x64) AppleWebKit/537.36 (KHTML, like Gecko) Chrome/79.0.3945.130 Safari/537.36",51,"[0.9, 0.5, 0.1]","[0.8, 0.4, 0.2]","[u'red', u'blue', u'black']","[u'left', u'middle', u'right']","[0.9, 0.5, 0.1]","[u'medium', u'low', u'high']","black",51,"right","high","True","False",308,2100,NA
"ANYJ22IOQKAX3","Thu Jan 30 2020 14:28:35 GMT+0100 (West Africa Standard Time)","Thu Jan 30 2020 15:00:45 GMT+0100 (West Africa Standard Time)","Mozilla/5.0 (Windows NT 10.0; Win64; x64) AppleWebKit/537.36 (KHTML, like Gecko) Chrome/79.0.3945.130 Safari/537.36",52,"[0.9, 0.5, 0.1]","[0.8, 0.4, 0.2]","[u'red', u'blue', u'black']","[u'left', u'middle', u'right']","[0.9, 0.5, 0.1]","[u'medium', u'low', u'high']","red",49,"left","medium","True","False",593,2200,NA
"ANYJ22IOQKAX3","Thu Jan 30 2020 14:28:35 GMT+0100 (West Africa Standard Time)","Thu Jan 30 2020 15:00:45 GMT+0100 (West Africa Standard Time)","Mozilla/5.0 (Windows NT 10.0; Win64; x64) AppleWebKit/537.36 (KHTML, like Gecko) Chrome/79.0.3945.130 Safari/537.36",53,"[0.9, 0.5, 0.1]","[0.8, 0.4, 0.2]","[u'red', u'blue', u'black']","[u'left', u'middle', u'right']","[0.9, 0.5, 0.1]","[u'medium', u'low', u'high']","black",51,"right","high","True","False",707,2300,NA
"ANYJ22IOQKAX3","Thu Jan 30 2020 14:28:35 GMT+0100 (West Africa Standard Time)","Thu Jan 30 2020 15:00:45 GMT+0100 (West Africa Standard Time)","Mozilla/5.0 (Windows NT 10.0; Win64; x64) AppleWebKit/537.36 (KHTML, like Gecko) Chrome/79.0.3945.130 Safari/537.36",54,"[0.9, 0.5, 0.1]","[0.8, 0.4, 0.2]","[u'red', u'blue', u'black']","[u'left', u'middle', u'right']","[0.9, 0.5, 0.1]","[u'medium', u'low', u'high']","black",51,"right","high","True","False",290,2400,NA
"ANYJ22IOQKAX3","Thu Jan 30 2020 14:28:35 GMT+0100 (West Africa Standard Time)","Thu Jan 30 2020 15:00:45 GMT+0100 (West Africa Standard Time)","Mozilla/5.0 (Windows NT 10.0; Win64; x64) AppleWebKit/537.36 (KHTML, like Gecko) Chrome/79.0.3945.130 Safari/537.36",55,"[0.9, 0.5, 0.1]","[0.8, 0.4, 0.2]","[u'red', u'blue', u'black']","[u'left', u'middle', u'right']","[0.9, 0.5, 0.1]","[u'medium', u'low', u'high']","red",49,"left","medium","False","False",2204,2350,NA
"ANYJ22IOQKAX3","Thu Jan 30 2020 14:28:35 GMT+0100 (West Africa Standard Time)","Thu Jan 30 2020 15:00:45 GMT+0100 (West Africa Standard Time)","Mozilla/5.0 (Windows NT 10.0; Win64; x64) AppleWebKit/537.36 (KHTML, like Gecko) Chrome/79.0.3945.130 Safari/537.36",56,"[0.9, 0.5, 0.1]","[0.8, 0.4, 0.2]","[u'red', u'blue', u'black']","[u'left', u'middle', u'right']","[0.9, 0.5, 0.1]","[u'medium', u'low', u'high']","red",49,"left","medium","True","False",907,2450,NA
"ANYJ22IOQKAX3","Thu Jan 30 2020 14:28:35 GMT+0100 (West Africa Standard Time)","Thu Jan 30 2020 15:00:45 GMT+0100 (West Africa Standard Time)","Mozilla/5.0 (Windows NT 10.0; Win64; x64) AppleWebKit/537.36 (KHTML, like Gecko) Chrome/79.0.3945.130 Safari/537.36",57,"[0.9, 0.5, 0.1]","[0.8, 0.4, 0.2]","[u'red', u'blue', u'black']","[u'left', u'middle', u'right']","[0.9, 0.5, 0.1]","[u'medium', u'low', u'high']","blue",50,"middle","low","False","False",240,2400,NA
"ANYJ22IOQKAX3","Thu Jan 30 2020 14:28:35 GMT+0100 (West Africa Standard Time)","Thu Jan 30 2020 15:00:45 GMT+0100 (West Africa Standard Time)","Mozilla/5.0 (Windows NT 10.0; Win64; x64) AppleWebKit/537.36 (KHTML, like Gecko) Chrome/79.0.3945.130 Safari/537.36",58,"[0.9, 0.5, 0.1]","[0.8, 0.4, 0.2]","[u'red', u'blue', u'black']","[u'left', u'middle', u'right']","[0.9, 0.5, 0.1]","[u'medium', u'low', u'high']","blue",50,"middle","low","False","False",281,2350,NA
"ANYJ22IOQKAX3","Thu Jan 30 2020 14:28:35 GMT+0100 (West Africa Standard Time)","Thu Jan 30 2020 15:00:45 GMT+0100 (West Africa Standard Time)","Mozilla/5.0 (Windows NT 10.0; Win64; x64) AppleWebKit/537.36 (KHTML, like Gecko) Chrome/79.0.3945.130 Safari/537.36",59,"[0.9, 0.5, 0.1]","[0.8, 0.4, 0.2]","[u'red', u'blue', u'black']","[u'left', u'middle', u'right']","[0.9, 0.5, 0.1]","[u'medium', u'low', u'high']","blue",50,"middle","low","False","False",1449,2300,NA
"ANYJ22IOQKAX3","Thu Jan 30 2020 14:28:35 GMT+0100 (West Africa Standard Time)","Thu Jan 30 2020 15:00:45 GMT+0100 (West Africa Standard Time)","Mozilla/5.0 (Windows NT 10.0; Win64; x64) AppleWebKit/537.36 (KHTML, like Gecko) Chrome/79.0.3945.130 Safari/537.36",60,"[0.9, 0.5, 0.1]","[0.8, 0.4, 0.2]","[u'red', u'blue', u'black']","[u'left', u'middle', u'right']","[0.9, 0.5, 0.1]","[u'medium', u'low', u'high']","black",51,"right","high","False","False",36631,2250,NA
"ANYJ22IOQKAX3","Thu Jan 30 2020 14:28:35 GMT+0100 (West Africa Standard Time)","Thu Jan 30 2020 15:00:45 GMT+0100 (West Africa Standard Time)","Mozilla/5.0 (Windows NT 10.0; Win64; x64) AppleWebKit/537.36 (KHTML, like Gecko) Chrome/79.0.3945.130 Safari/537.36",61,"[0.9, 0.5, 0.1]","[0.8, 0.4, 0.2]","[u'red', u'blue', u'black']","[u'left', u'middle', u'right']","[0.9, 0.5, 0.1]","[u'medium', u'low', u'high']","blue",50,"middle","low","False","False",504,2200,NA
"ANYJ22IOQKAX3","Thu Jan 30 2020 14:28:35 GMT+0100 (West Africa Standard Time)","Thu Jan 30 2020 15:00:45 GMT+0100 (West Africa Standard Time)","Mozilla/5.0 (Windows NT 10.0; Win64; x64) AppleWebKit/537.36 (KHTML, like Gecko) Chrome/79.0.3945.130 Safari/537.36",62,"[0.9, 0.5, 0.1]","[0.8, 0.4, 0.2]","[u'red', u'blue', u'black']","[u'left', u'middle', u'right']","[0.9, 0.5, 0.1]","[u'medium', u'low', u'high']","blue",50,"middle","low","False","False",235,2150,NA
"ANYJ22IOQKAX3","Thu Jan 30 2020 14:28:35 GMT+0100 (West Africa Standard Time)","Thu Jan 30 2020 15:00:45 GMT+0100 (West Africa Standard Time)","Mozilla/5.0 (Windows NT 10.0; Win64; x64) AppleWebKit/537.36 (KHTML, like Gecko) Chrome/79.0.3945.130 Safari/537.36",63,"[0.9, 0.5, 0.1]","[0.8, 0.4, 0.2]","[u'red', u'blue', u'black']","[u'left', u'middle', u'right']","[0.9, 0.5, 0.1]","[u'medium', u'low', u'high']","blue",50,"middle","low","False","False",187,2100,NA
"ANYJ22IOQKAX3","Thu Jan 30 2020 14:28:35 GMT+0100 (West Africa Standard Time)","Thu Jan 30 2020 15:00:45 GMT+0100 (West Africa Standard Time)","Mozilla/5.0 (Windows NT 10.0; Win64; x64) AppleWebKit/537.36 (KHTML, like Gecko) Chrome/79.0.3945.130 Safari/537.36",64,"[0.9, 0.5, 0.1]","[0.8, 0.4, 0.2]","[u'red', u'blue', u'black']","[u'left', u'middle', u'right']","[0.9, 0.5, 0.1]","[u'medium', u'low', u'high']","blue",50,"middle","low","False","False",152,2050,NA
"ANYJ22IOQKAX3","Thu Jan 30 2020 14:28:35 GMT+0100 (West Africa Standard Time)","Thu Jan 30 2020 15:00:45 GMT+0100 (West Africa Standard Time)","Mozilla/5.0 (Windows NT 10.0; Win64; x64) AppleWebKit/537.36 (KHTML, like Gecko) Chrome/79.0.3945.130 Safari/537.36",65,"[0.9, 0.5, 0.1]","[0.8, 0.4, 0.2]","[u'red', u'blue', u'black']","[u'left', u'middle', u'right']","[0.9, 0.5, 0.1]","[u'medium', u'low', u'high']","black",51,"right","high","True","False",183,2150,NA
"ANYJ22IOQKAX3","Thu Jan 30 2020 14:28:35 GMT+0100 (West Africa Standard Time)","Thu Jan 30 2020 15:00:45 GMT+0100 (West Africa Standard Time)","Mozilla/5.0 (Windows NT 10.0; Win64; x64) AppleWebKit/537.36 (KHTML, like Gecko) Chrome/79.0.3945.130 Safari/537.36",66,"[0.9, 0.5, 0.1]","[0.8, 0.4, 0.2]","[u'red', u'blue', u'black']","[u'left', u'middle', u'right']","[0.9, 0.5, 0.1]","[u'medium', u'low', u'high']","red",49,"left","medium","False","False",6062,2100,NA
"ANYJ22IOQKAX3","Thu Jan 30 2020 14:28:35 GMT+0100 (West Africa Standard Time)","Thu Jan 30 2020 15:00:45 GMT+0100 (West Africa Standard Time)","Mozilla/5.0 (Windows NT 10.0; Win64; x64) AppleWebKit/537.36 (KHTML, like Gecko) Chrome/79.0.3945.130 Safari/537.36",67,"[0.9, 0.5, 0.1]","[0.8, 0.4, 0.2]","[u'red', u'blue', u'black']","[u'left', u'middle', u'right']","[0.9, 0.5, 0.1]","[u'medium', u'low', u'high']","black",51,"right","high","True","False",184,2200,NA
"ANYJ22IOQKAX3","Thu Jan 30 2020 14:28:35 GMT+0100 (West Africa Standard Time)","Thu Jan 30 2020 15:00:45 GMT+0100 (West Africa Standard Time)","Mozilla/5.0 (Windows NT 10.0; Win64; x64) AppleWebKit/537.36 (KHTML, like Gecko) Chrome/79.0.3945.130 Safari/537.36",68,"[0.9, 0.5, 0.1]","[0.8, 0.4, 0.2]","[u'red', u'blue', u'black']","[u'left', u'middle', u'right']","[0.9, 0.5, 0.1]","[u'medium', u'low', u'high']","black",51,"right","high","True","False",305,2300,NA
"ANYJ22IOQKAX3","Thu Jan 30 2020 14:28:35 GMT+0100 (West Africa Standard Time)","Thu Jan 30 2020 15:00:45 GMT+0100 (West Africa Standard Time)","Mozilla/5.0 (Windows NT 10.0; Win64; x64) AppleWebKit/537.36 (KHTML, like Gecko) Chrome/79.0.3945.130 Safari/537.36",69,"[0.9, 0.5, 0.1]","[0.8, 0.4, 0.2]","[u'red', u'blue', u'black']","[u'left', u'middle', u'right']","[0.9, 0.5, 0.1]","[u'medium', u'low', u'high']","blue",50,"middle","low","False","False",28989,2250,NA
"ANYJ22IOQKAX3","Thu Jan 30 2020 14:28:35 GMT+0100 (West Africa Standard Time)","Thu Jan 30 2020 15:00:45 GMT+0100 (West Africa Standard Time)","Mozilla/5.0 (Windows NT 10.0; Win64; x64) AppleWebKit/537.36 (KHTML, like Gecko) Chrome/79.0.3945.130 Safari/537.36",70,"[0.9, 0.5, 0.1]","[0.8, 0.4, 0.2]","[u'red', u'blue', u'black']","[u'left', u'middle', u'right']","[0.9, 0.5, 0.1]","[u'medium', u'low', u'high']","black",51,"right","high","True","False",382,2350,NA
"ANYJ22IOQKAX3","Thu Jan 30 2020 14:28:35 GMT+0100 (West Africa Standard Time)","Thu Jan 30 2020 15:00:45 GMT+0100 (West Africa Standard Time)","Mozilla/5.0 (Windows NT 10.0; Win64; x64) AppleWebKit/537.36 (KHTML, like Gecko) Chrome/79.0.3945.130 Safari/537.36",71,"[0.9, 0.5, 0.1]","[0.8, 0.4, 0.2]","[u'red', u'blue', u'black']","[u'left', u'middle', u'right']","[0.9, 0.5, 0.1]","[u'medium', u'low', u'high']","black",51,"right","high","True","False",4,2450,NA
"ANYJ22IOQKAX3","Thu Jan 30 2020 14:28:35 GMT+0100 (West Africa Standard Time)","Thu Jan 30 2020 15:00:45 GMT+0100 (West Africa Standard Time)","Mozilla/5.0 (Windows NT 10.0; Win64; x64) AppleWebKit/537.36 (KHTML, like Gecko) Chrome/79.0.3945.130 Safari/537.36",72,"[0.9, 0.5, 0.1]","[0.8, 0.4, 0.2]","[u'red', u'blue', u'black']","[u'left', u'middle', u'right']","[0.9, 0.5, 0.1]","[u'medium', u'low', u'high']","black",51,"right","high","True","False",1467,2550,NA
"ANYJ22IOQKAX3","Thu Jan 30 2020 14:28:35 GMT+0100 (West Africa Standard Time)","Thu Jan 30 2020 15:00:45 GMT+0100 (West Africa Standard Time)","Mozilla/5.0 (Windows NT 10.0; Win64; x64) AppleWebKit/537.36 (KHTML, like Gecko) Chrome/79.0.3945.130 Safari/537.36",73,"[0.9, 0.5, 0.1]","[0.8, 0.4, 0.2]","[u'red', u'blue', u'black']","[u'left', u'middle', u'right']","[0.9, 0.5, 0.1]","[u'medium', u'low', u'high']","black",51,"right","high","True","False",202,2650,NA
"ANYJ22IOQKAX3","Thu Jan 30 2020 14:28:35 GMT+0100 (West Africa Standard Time)","Thu Jan 30 2020 15:00:45 GMT+0100 (West Africa Standard Time)","Mozilla/5.0 (Windows NT 10.0; Win64; x64) AppleWebKit/537.36 (KHTML, like Gecko) Chrome/79.0.3945.130 Safari/537.36",74,"[0.9, 0.5, 0.1]","[0.8, 0.4, 0.2]","[u'red', u'blue', u'black']","[u'left', u'middle', u'right']","[0.9, 0.5, 0.1]","[u'medium', u'low', u'high']","black",51,"right","high","True","False",277,2750,NA
"ANYJ22IOQKAX3","Thu Jan 30 2020 14:28:35 GMT+0100 (West Africa Standard Time)","Thu Jan 30 2020 15:00:45 GMT+0100 (West Africa Standard Time)","Mozilla/5.0 (Windows NT 10.0; Win64; x64) AppleWebKit/537.36 (KHTML, like Gecko) Chrome/79.0.3945.130 Safari/537.36",75,"[0.9, 0.5, 0.1]","[0.8, 0.4, 0.2]","[u'red', u'blue', u'black']","[u'left', u'middle', u'right']","[0.9, 0.5, 0.1]","[u'medium', u'low', u'high']","black",51,"right","high","True","False",1168,2850,NA
"ANYJ22IOQKAX3","Thu Jan 30 2020 14:28:35 GMT+0100 (West Africa Standard Time)","Thu Jan 30 2020 15:00:45 GMT+0100 (West Africa Standard Time)","Mozilla/5.0 (Windows NT 10.0; Win64; x64) AppleWebKit/537.36 (KHTML, like Gecko) Chrome/79.0.3945.130 Safari/537.36",76,"[0.9, 0.5, 0.1]","[0.8, 0.4, 0.2]","[u'red', u'blue', u'black']","[u'left', u'middle', u'right']","[0.9, 0.5, 0.1]","[u'medium', u'low', u'high']","black",51,"right","high","True","False",367,2950,NA
"ANYJ22IOQKAX3","Thu Jan 30 2020 14:28:35 GMT+0100 (West Africa Standard Time)","Thu Jan 30 2020 15:00:45 GMT+0100 (West Africa Standard Time)","Mozilla/5.0 (Windows NT 10.0; Win64; x64) AppleWebKit/537.36 (KHTML, like Gecko) Chrome/79.0.3945.130 Safari/537.36",77,"[0.9, 0.5, 0.1]","[0.8, 0.4, 0.2]","[u'red', u'blue', u'black']","[u'left', u'middle', u'right']","[0.9, 0.5, 0.1]","[u'medium', u'low', u'high']","black",51,"right","high","True","False",258,3050,NA
"ANYJ22IOQKAX3","Thu Jan 30 2020 14:28:35 GMT+0100 (West Africa Standard Time)","Thu Jan 30 2020 15:00:45 GMT+0100 (West Africa Standard Time)","Mozilla/5.0 (Windows NT 10.0; Win64; x64) AppleWebKit/537.36 (KHTML, like Gecko) Chrome/79.0.3945.130 Safari/537.36",78,"[0.9, 0.5, 0.1]","[0.8, 0.4, 0.2]","[u'red', u'blue', u'black']","[u'left', u'middle', u'right']","[0.9, 0.5, 0.1]","[u'medium', u'low', u'high']","black",51,"right","high","True","True",298,3150,NA
"ANYJ22IOQKAX3","Thu Jan 30 2020 14:28:35 GMT+0100 (West Africa Standard Time)","Thu Jan 30 2020 15:00:45 GMT+0100 (West Africa Standard Time)","Mozilla/5.0 (Windows NT 10.0; Win64; x64) AppleWebKit/537.36 (KHTML, like Gecko) Chrome/79.0.3945.130 Safari/537.36",79,"[0.9, 0.5, 0.1]","[0.8, 0.4, 0.2]","[u'red', u'blue', u'black']","[u'left', u'middle', u'right']","[0.9, 0.5, 0.1]","[u'medium', u'high', u'low']","black",51,"right","low","True","False",325,3250,NA
"ANYJ22IOQKAX3","Thu Jan 30 2020 14:28:35 GMT+0100 (West Africa Standard Time)","Thu Jan 30 2020 15:00:45 GMT+0100 (West Africa Standard Time)","Mozilla/5.0 (Windows NT 10.0; Win64; x64) AppleWebKit/537.36 (KHTML, like Gecko) Chrome/79.0.3945.130 Safari/537.36",80,"[0.9, 0.5, 0.1]","[0.8, 0.4, 0.2]","[u'red', u'blue', u'black']","[u'left', u'middle', u'right']","[0.9, 0.5, 0.1]","[u'medium', u'high', u'low']","black",51,"right","low","False","False",262,3200,NA
"ANYJ22IOQKAX3","Thu Jan 30 2020 14:28:35 GMT+0100 (West Africa Standard Time)","Thu Jan 30 2020 15:00:45 GMT+0100 (West Africa Standard Time)","Mozilla/5.0 (Windows NT 10.0; Win64; x64) AppleWebKit/537.36 (KHTML, like Gecko) Chrome/79.0.3945.130 Safari/537.36",81,"[0.9, 0.5, 0.1]","[0.8, 0.4, 0.2]","[u'red', u'blue', u'black']","[u'left', u'middle', u'right']","[0.8, 0.4, 0.2]","[u'high', u'medium', u'low']","red",49,"left","high","True","False",536,3300,NA
"ANYJ22IOQKAX3","Thu Jan 30 2020 14:28:35 GMT+0100 (West Africa Standard Time)","Thu Jan 30 2020 15:00:45 GMT+0100 (West Africa Standard Time)","Mozilla/5.0 (Windows NT 10.0; Win64; x64) AppleWebKit/537.36 (KHTML, like Gecko) Chrome/79.0.3945.130 Safari/537.36",82,"[0.9, 0.5, 0.1]","[0.8, 0.4, 0.2]","[u'red', u'blue', u'black']","[u'left', u'middle', u'right']","[0.8, 0.4, 0.2]","[u'high', u'medium', u'low']","blue",50,"middle","medium","True","False",216,3400,NA
"ANYJ22IOQKAX3","Thu Jan 30 2020 14:28:35 GMT+0100 (West Africa Standard Time)","Thu Jan 30 2020 15:00:45 GMT+0100 (West Africa Standard Time)","Mozilla/5.0 (Windows NT 10.0; Win64; x64) AppleWebKit/537.36 (KHTML, like Gecko) Chrome/79.0.3945.130 Safari/537.36",83,"[0.9, 0.5, 0.1]","[0.8, 0.4, 0.2]","[u'red', u'blue', u'black']","[u'left', u'middle', u'right']","[0.8, 0.4, 0.2]","[u'high', u'medium', u'low']","blue",50,"middle","medium","False","False",399,3350,NA
"ANYJ22IOQKAX3","Thu Jan 30 2020 14:28:35 GMT+0100 (West Africa Standard Time)","Thu Jan 30 2020 15:00:45 GMT+0100 (West Africa Standard Time)","Mozilla/5.0 (Windows NT 10.0; Win64; x64) AppleWebKit/537.36 (KHTML, like Gecko) Chrome/79.0.3945.130 Safari/537.36",84,"[0.9, 0.5, 0.1]","[0.8, 0.4, 0.2]","[u'red', u'blue', u'black']","[u'left', u'middle', u'right']","[0.8, 0.4, 0.2]","[u'high', u'medium', u'low']","blue",50,"middle","medium","False","False",220,3300,NA
"ANYJ22IOQKAX3","Thu Jan 30 2020 14:28:35 GMT+0100 (West Africa Standard Time)","Thu Jan 30 2020 15:00:45 GMT+0100 (West Africa Standard Time)","Mozilla/5.0 (Windows NT 10.0; Win64; x64) AppleWebKit/537.36 (KHTML, like Gecko) Chrome/79.0.3945.130 Safari/537.36",85,"[0.9, 0.5, 0.1]","[0.8, 0.4, 0.2]","[u'red', u'blue', u'black']","[u'left', u'middle', u'right']","[0.8, 0.4, 0.2]","[u'high', u'medium', u'low']","blue",50,"middle","medium","False","False",6077,3250,NA
"ANYJ22IOQKAX3","Thu Jan 30 2020 14:28:35 GMT+0100 (West Africa Standard Time)","Thu Jan 30 2020 15:00:45 GMT+0100 (West Africa Standard Time)","Mozilla/5.0 (Windows NT 10.0; Win64; x64) AppleWebKit/537.36 (KHTML, like Gecko) Chrome/79.0.3945.130 Safari/537.36",86,"[0.9, 0.5, 0.1]","[0.8, 0.4, 0.2]","[u'red', u'blue', u'black']","[u'left', u'middle', u'right']","[0.8, 0.4, 0.2]","[u'high', u'medium', u'low']","black",51,"right","low","True","False",143,3350,NA
"ANYJ22IOQKAX3","Thu Jan 30 2020 14:28:35 GMT+0100 (West Africa Standard Time)","Thu Jan 30 2020 15:00:45 GMT+0100 (West Africa Standard Time)","Mozilla/5.0 (Windows NT 10.0; Win64; x64) AppleWebKit/537.36 (KHTML, like Gecko) Chrome/79.0.3945.130 Safari/537.36",87,"[0.9, 0.5, 0.1]","[0.8, 0.4, 0.2]","[u'red', u'blue', u'black']","[u'left', u'middle', u'right']","[0.8, 0.4, 0.2]","[u'high', u'medium', u'low']","black",51,"right","low","False","False",320,3300,NA
"ANYJ22IOQKAX3","Thu Jan 30 2020 14:28:35 GMT+0100 (West Africa Standard Time)","Thu Jan 30 2020 15:00:45 GMT+0100 (West Africa Standard Time)","Mozilla/5.0 (Windows NT 10.0; Win64; x64) AppleWebKit/537.36 (KHTML, like Gecko) Chrome/79.0.3945.130 Safari/537.36",88,"[0.9, 0.5, 0.1]","[0.8, 0.4, 0.2]","[u'red', u'blue', u'black']","[u'left', u'middle', u'right']","[0.8, 0.4, 0.2]","[u'high', u'medium', u'low']","black",51,"right","low","False","False",228,3250,NA
"ANYJ22IOQKAX3","Thu Jan 30 2020 14:28:35 GMT+0100 (West Africa Standard Time)","Thu Jan 30 2020 15:00:45 GMT+0100 (West Africa Standard Time)","Mozilla/5.0 (Windows NT 10.0; Win64; x64) AppleWebKit/537.36 (KHTML, like Gecko) Chrome/79.0.3945.130 Safari/537.36",89,"[0.9, 0.5, 0.1]","[0.8, 0.4, 0.2]","[u'red', u'blue', u'black']","[u'left', u'middle', u'right']","[0.8, 0.4, 0.2]","[u'high', u'medium', u'low']","black",51,"right","low","False","False",3608,3200,NA
"ANYJ22IOQKAX3","Thu Jan 30 2020 14:28:35 GMT+0100 (West Africa Standard Time)","Thu Jan 30 2020 15:00:45 GMT+0100 (West Africa Standard Time)","Mozilla/5.0 (Windows NT 10.0; Win64; x64) AppleWebKit/537.36 (KHTML, like Gecko) Chrome/79.0.3945.130 Safari/537.36",90,"[0.9, 0.5, 0.1]","[0.8, 0.4, 0.2]","[u'red', u'blue', u'black']","[u'left', u'middle', u'right']","[0.8, 0.4, 0.2]","[u'high', u'medium', u'low']","black",51,"right","low","False","False",8411,3150,NA
"ANYJ22IOQKAX3","Thu Jan 30 2020 14:28:35 GMT+0100 (West Africa Standard Time)","Thu Jan 30 2020 15:00:45 GMT+0100 (West Africa Standard Time)","Mozilla/5.0 (Windows NT 10.0; Win64; x64) AppleWebKit/537.36 (KHTML, like Gecko) Chrome/79.0.3945.130 Safari/537.36",91,"[0.9, 0.5, 0.1]","[0.8, 0.4, 0.2]","[u'red', u'blue', u'black']","[u'left', u'middle', u'right']","[0.8, 0.4, 0.2]","[u'high', u'medium', u'low']","black",51,"right","low","False","False",89,3100,NA
"ANYJ22IOQKAX3","Thu Jan 30 2020 14:28:35 GMT+0100 (West Africa Standard Time)","Thu Jan 30 2020 15:00:45 GMT+0100 (West Africa Standard Time)","Mozilla/5.0 (Windows NT 10.0; Win64; x64) AppleWebKit/537.36 (KHTML, like Gecko) Chrome/79.0.3945.130 Safari/537.36",92,"[0.9, 0.5, 0.1]","[0.8, 0.4, 0.2]","[u'red', u'blue', u'black']","[u'left', u'middle', u'right']","[0.8, 0.4, 0.2]","[u'high', u'medium', u'low']","black",51,"right","low","False","False",460,3050,NA
"ANYJ22IOQKAX3","Thu Jan 30 2020 14:28:35 GMT+0100 (West Africa Standard Time)","Thu Jan 30 2020 15:00:45 GMT+0100 (West Africa Standard Time)","Mozilla/5.0 (Windows NT 10.0; Win64; x64) AppleWebKit/537.36 (KHTML, like Gecko) Chrome/79.0.3945.130 Safari/537.36",93,"[0.9, 0.5, 0.1]","[0.8, 0.4, 0.2]","[u'red', u'blue', u'black']","[u'left', u'middle', u'right']","[0.8, 0.4, 0.2]","[u'high', u'medium', u'low']","black",51,"right","low","False","False",429,3000,NA
"ANYJ22IOQKAX3","Thu Jan 30 2020 14:28:35 GMT+0100 (West Africa Standard Time)","Thu Jan 30 2020 15:00:45 GMT+0100 (West Africa Standard Time)","Mozilla/5.0 (Windows NT 10.0; Win64; x64) AppleWebKit/537.36 (KHTML, like Gecko) Chrome/79.0.3945.130 Safari/537.36",94,"[0.9, 0.5, 0.1]","[0.8, 0.4, 0.2]","[u'red', u'blue', u'black']","[u'left', u'middle', u'right']","[0.8, 0.4, 0.2]","[u'high', u'medium', u'low']","black",51,"right","low","True","False",11538,3100,NA
"ANYJ22IOQKAX3","Thu Jan 30 2020 14:28:35 GMT+0100 (West Africa Standard Time)","Thu Jan 30 2020 15:00:45 GMT+0100 (West Africa Standard Time)","Mozilla/5.0 (Windows NT 10.0; Win64; x64) AppleWebKit/537.36 (KHTML, like Gecko) Chrome/79.0.3945.130 Safari/537.36",95,"[0.9, 0.5, 0.1]","[0.8, 0.4, 0.2]","[u'red', u'blue', u'black']","[u'left', u'middle', u'right']","[0.8, 0.4, 0.2]","[u'high', u'medium', u'low']","black",51,"right","low","True","False",405,3200,NA
"ANYJ22IOQKAX3","Thu Jan 30 2020 14:28:35 GMT+0100 (West Africa Standard Time)","Thu Jan 30 2020 15:00:45 GMT+0100 (West Africa Standard Time)","Mozilla/5.0 (Windows NT 10.0; Win64; x64) AppleWebKit/537.36 (KHTML, like Gecko) Chrome/79.0.3945.130 Safari/537.36",96,"[0.9, 0.5, 0.1]","[0.8, 0.4, 0.2]","[u'red', u'blue', u'black']","[u'left', u'middle', u'right']","[0.8, 0.4, 0.2]","[u'high', u'medium', u'low']","black",51,"right","low","False","False",354,3150,NA
"ANYJ22IOQKAX3","Thu Jan 30 2020 14:28:35 GMT+0100 (West Africa Standard Time)","Thu Jan 30 2020 15:00:45 GMT+0100 (West Africa Standard Time)","Mozilla/5.0 (Windows NT 10.0; Win64; x64) AppleWebKit/537.36 (KHTML, like Gecko) Chrome/79.0.3945.130 Safari/537.36",97,"[0.9, 0.5, 0.1]","[0.8, 0.4, 0.2]","[u'red', u'blue', u'black']","[u'left', u'middle', u'right']","[0.8, 0.4, 0.2]","[u'high', u'medium', u'low']","black",51,"right","low","True","False",820,3250,NA
"ANYJ22IOQKAX3","Thu Jan 30 2020 14:28:35 GMT+0100 (West Africa Standard Time)","Thu Jan 30 2020 15:00:45 GMT+0100 (West Africa Standard Time)","Mozilla/5.0 (Windows NT 10.0; Win64; x64) AppleWebKit/537.36 (KHTML, like Gecko) Chrome/79.0.3945.130 Safari/537.36",98,"[0.9, 0.5, 0.1]","[0.8, 0.4, 0.2]","[u'red', u'blue', u'black']","[u'left', u'middle', u'right']","[0.8, 0.4, 0.2]","[u'high', u'medium', u'low']","black",51,"right","low","True","False",370,3350,NA
"ANYJ22IOQKAX3","Thu Jan 30 2020 14:28:35 GMT+0100 (West Africa Standard Time)","Thu Jan 30 2020 15:00:45 GMT+0100 (West Africa Standard Time)","Mozilla/5.0 (Windows NT 10.0; Win64; x64) AppleWebKit/537.36 (KHTML, like Gecko) Chrome/79.0.3945.130 Safari/537.36",99,"[0.9, 0.5, 0.1]","[0.8, 0.4, 0.2]","[u'red', u'blue', u'black']","[u'left', u'middle', u'right']","[0.8, 0.4, 0.2]","[u'high', u'medium', u'low']","black",51,"right","low","False","False",494,3300,NA
"ANYJ22IOQKAX3","Thu Jan 30 2020 14:28:35 GMT+0100 (West Africa Standard Time)","Thu Jan 30 2020 15:00:45 GMT+0100 (West Africa Standard Time)","Mozilla/5.0 (Windows NT 10.0; Win64; x64) AppleWebKit/537.36 (KHTML, like Gecko) Chrome/79.0.3945.130 Safari/537.36",100,"[0.9, 0.5, 0.1]","[0.8, 0.4, 0.2]","[u'red', u'blue', u'black']","[u'left', u'middle', u'right']","[0.8, 0.4, 0.2]","[u'high', u'medium', u'low']","red",49,"left","high","True","False",267,3400,NA
"ANYJ22IOQKAX3","Thu Jan 30 2020 14:28:35 GMT+0100 (West Africa Standard Time)","Thu Jan 30 2020 15:00:45 GMT+0100 (West Africa Standard Time)","Mozilla/5.0 (Windows NT 10.0; Win64; x64) AppleWebKit/537.36 (KHTML, like Gecko) Chrome/79.0.3945.130 Safari/537.36",101,"[0.9, 0.5, 0.1]","[0.8, 0.4, 0.2]","[u'red', u'blue', u'black']","[u'left', u'middle', u'right']","[0.8, 0.4, 0.2]","[u'high', u'medium', u'low']","blue",50,"middle","medium","False","False",274,3350,NA
"ANYJ22IOQKAX3","Thu Jan 30 2020 14:28:35 GMT+0100 (West Africa Standard Time)","Thu Jan 30 2020 15:00:45 GMT+0100 (West Africa Standard Time)","Mozilla/5.0 (Windows NT 10.0; Win64; x64) AppleWebKit/537.36 (KHTML, like Gecko) Chrome/79.0.3945.130 Safari/537.36",102,"[0.9, 0.5, 0.1]","[0.8, 0.4, 0.2]","[u'red', u'blue', u'black']","[u'left', u'middle', u'right']","[0.8, 0.4, 0.2]","[u'high', u'medium', u'low']","red",49,"left","high","False","False",309,3300,NA
"ANYJ22IOQKAX3","Thu Jan 30 2020 14:28:35 GMT+0100 (West Africa Standard Time)","Thu Jan 30 2020 15:00:45 GMT+0100 (West Africa Standard Time)","Mozilla/5.0 (Windows NT 10.0; Win64; x64) AppleWebKit/537.36 (KHTML, like Gecko) Chrome/79.0.3945.130 Safari/537.36",103,"[0.9, 0.5, 0.1]","[0.8, 0.4, 0.2]","[u'red', u'blue', u'black']","[u'left', u'middle', u'right']","[0.8, 0.4, 0.2]","[u'high', u'medium', u'low']","black",51,"right","low","True","False",259,3400,NA
"ANYJ22IOQKAX3","Thu Jan 30 2020 14:28:35 GMT+0100 (West Africa Standard Time)","Thu Jan 30 2020 15:00:45 GMT+0100 (West Africa Standard Time)","Mozilla/5.0 (Windows NT 10.0; Win64; x64) AppleWebKit/537.36 (KHTML, like Gecko) Chrome/79.0.3945.130 Safari/537.36",104,"[0.9, 0.5, 0.1]","[0.8, 0.4, 0.2]","[u'red', u'blue', u'black']","[u'left', u'middle', u'right']","[0.8, 0.4, 0.2]","[u'high', u'medium', u'low']","blue",50,"middle","medium","True","False",236,3500,NA
"ANYJ22IOQKAX3","Thu Jan 30 2020 14:28:35 GMT+0100 (West Africa Standard Time)","Thu Jan 30 2020 15:00:45 GMT+0100 (West Africa Standard Time)","Mozilla/5.0 (Windows NT 10.0; Win64; x64) AppleWebKit/537.36 (KHTML, like Gecko) Chrome/79.0.3945.130 Safari/537.36",105,"[0.9, 0.5, 0.1]","[0.8, 0.4, 0.2]","[u'red', u'blue', u'black']","[u'left', u'middle', u'right']","[0.8, 0.4, 0.2]","[u'high', u'medium', u'low']","red",49,"left","high","False","False",252,3450,NA
"ANYJ22IOQKAX3","Thu Jan 30 2020 14:28:35 GMT+0100 (West Africa Standard Time)","Thu Jan 30 2020 15:00:45 GMT+0100 (West Africa Standard Time)","Mozilla/5.0 (Windows NT 10.0; Win64; x64) AppleWebKit/537.36 (KHTML, like Gecko) Chrome/79.0.3945.130 Safari/537.36",106,"[0.9, 0.5, 0.1]","[0.8, 0.4, 0.2]","[u'red', u'blue', u'black']","[u'left', u'middle', u'right']","[0.8, 0.4, 0.2]","[u'high', u'medium', u'low']","red",49,"left","high","True","False",226,3550,NA
"ANYJ22IOQKAX3","Thu Jan 30 2020 14:28:35 GMT+0100 (West Africa Standard Time)","Thu Jan 30 2020 15:00:45 GMT+0100 (West Africa Standard Time)","Mozilla/5.0 (Windows NT 10.0; Win64; x64) AppleWebKit/537.36 (KHTML, like Gecko) Chrome/79.0.3945.130 Safari/537.36",107,"[0.9, 0.5, 0.1]","[0.8, 0.4, 0.2]","[u'red', u'blue', u'black']","[u'left', u'middle', u'right']","[0.8, 0.4, 0.2]","[u'high', u'medium', u'low']","blue",50,"middle","medium","False","False",469,3500,NA
"ANYJ22IOQKAX3","Thu Jan 30 2020 14:28:35 GMT+0100 (West Africa Standard Time)","Thu Jan 30 2020 15:00:45 GMT+0100 (West Africa Standard Time)","Mozilla/5.0 (Windows NT 10.0; Win64; x64) AppleWebKit/537.36 (KHTML, like Gecko) Chrome/79.0.3945.130 Safari/537.36",108,"[0.9, 0.5, 0.1]","[0.8, 0.4, 0.2]","[u'red', u'blue', u'black']","[u'left', u'middle', u'right']","[0.8, 0.4, 0.2]","[u'high', u'medium', u'low']","black",51,"right","low","False","False",267,3450,NA
"ANYJ22IOQKAX3","Thu Jan 30 2020 14:28:35 GMT+0100 (West Africa Standard Time)","Thu Jan 30 2020 15:00:45 GMT+0100 (West Africa Standard Time)","Mozilla/5.0 (Windows NT 10.0; Win64; x64) AppleWebKit/537.36 (KHTML, like Gecko) Chrome/79.0.3945.130 Safari/537.36",109,"[0.9, 0.5, 0.1]","[0.8, 0.4, 0.2]","[u'red', u'blue', u'black']","[u'left', u'middle', u'right']","[0.8, 0.4, 0.2]","[u'high', u'medium', u'low']","black",51,"right","low","False","False",200,3400,NA
"ANYJ22IOQKAX3","Thu Jan 30 2020 14:28:35 GMT+0100 (West Africa Standard Time)","Thu Jan 30 2020 15:00:45 GMT+0100 (West Africa Standard Time)","Mozilla/5.0 (Windows NT 10.0; Win64; x64) AppleWebKit/537.36 (KHTML, like Gecko) Chrome/79.0.3945.130 Safari/537.36",110,"[0.9, 0.5, 0.1]","[0.8, 0.4, 0.2]","[u'red', u'blue', u'black']","[u'left', u'middle', u'right']","[0.8, 0.4, 0.2]","[u'high', u'medium', u'low']","blue",50,"middle","medium","False","False",218,3350,NA
"ANYJ22IOQKAX3","Thu Jan 30 2020 14:28:35 GMT+0100 (West Africa Standard Time)","Thu Jan 30 2020 15:00:45 GMT+0100 (West Africa Standard Time)","Mozilla/5.0 (Windows NT 10.0; Win64; x64) AppleWebKit/537.36 (KHTML, like Gecko) Chrome/79.0.3945.130 Safari/537.36",111,"[0.9, 0.5, 0.1]","[0.8, 0.4, 0.2]","[u'red', u'blue', u'black']","[u'left', u'middle', u'right']","[0.8, 0.4, 0.2]","[u'high', u'medium', u'low']","red",49,"left","high","True","False",257,3450,NA
"ANYJ22IOQKAX3","Thu Jan 30 2020 14:28:35 GMT+0100 (West Africa Standard Time)","Thu Jan 30 2020 15:00:45 GMT+0100 (West Africa Standard Time)","Mozilla/5.0 (Windows NT 10.0; Win64; x64) AppleWebKit/537.36 (KHTML, like Gecko) Chrome/79.0.3945.130 Safari/537.36",112,"[0.9, 0.5, 0.1]","[0.8, 0.4, 0.2]","[u'red', u'blue', u'black']","[u'left', u'middle', u'right']","[0.8, 0.4, 0.2]","[u'high', u'medium', u'low']","red",49,"left","high","True","False",162,3550,NA
"ANYJ22IOQKAX3","Thu Jan 30 2020 14:28:35 GMT+0100 (West Africa Standard Time)","Thu Jan 30 2020 15:00:45 GMT+0100 (West Africa Standard Time)","Mozilla/5.0 (Windows NT 10.0; Win64; x64) AppleWebKit/537.36 (KHTML, like Gecko) Chrome/79.0.3945.130 Safari/537.36",113,"[0.9, 0.5, 0.1]","[0.8, 0.4, 0.2]","[u'red', u'blue', u'black']","[u'left', u'middle', u'right']","[0.8, 0.4, 0.2]","[u'high', u'medium', u'low']","black",51,"right","low","False","False",221,3500,NA
"ANYJ22IOQKAX3","Thu Jan 30 2020 14:28:35 GMT+0100 (West Africa Standard Time)","Thu Jan 30 2020 15:00:45 GMT+0100 (West Africa Standard Time)","Mozilla/5.0 (Windows NT 10.0; Win64; x64) AppleWebKit/537.36 (KHTML, like Gecko) Chrome/79.0.3945.130 Safari/537.36",114,"[0.9, 0.5, 0.1]","[0.8, 0.4, 0.2]","[u'red', u'blue', u'black']","[u'left', u'middle', u'right']","[0.8, 0.4, 0.2]","[u'high', u'medium', u'low']","red",49,"left","high","True","False",125,3600,NA
"ANYJ22IOQKAX3","Thu Jan 30 2020 14:28:35 GMT+0100 (West Africa Standard Time)","Thu Jan 30 2020 15:00:45 GMT+0100 (West Africa Standard Time)","Mozilla/5.0 (Windows NT 10.0; Win64; x64) AppleWebKit/537.36 (KHTML, like Gecko) Chrome/79.0.3945.130 Safari/537.36",115,"[0.9, 0.5, 0.1]","[0.8, 0.4, 0.2]","[u'red', u'blue', u'black']","[u'left', u'middle', u'right']","[0.8, 0.4, 0.2]","[u'high', u'medium', u'low']","red",49,"left","high","True","False",324,3700,NA
"ANYJ22IOQKAX3","Thu Jan 30 2020 14:28:35 GMT+0100 (West Africa Standard Time)","Thu Jan 30 2020 15:00:45 GMT+0100 (West Africa Standard Time)","Mozilla/5.0 (Windows NT 10.0; Win64; x64) AppleWebKit/537.36 (KHTML, like Gecko) Chrome/79.0.3945.130 Safari/537.36",116,"[0.9, 0.5, 0.1]","[0.8, 0.4, 0.2]","[u'red', u'blue', u'black']","[u'left', u'middle', u'right']","[0.8, 0.4, 0.2]","[u'high', u'medium', u'low']","red",49,"left","high","True","False",191,3800,NA
"ANYJ22IOQKAX3","Thu Jan 30 2020 14:28:35 GMT+0100 (West Africa Standard Time)","Thu Jan 30 2020 15:00:45 GMT+0100 (West Africa Standard Time)","Mozilla/5.0 (Windows NT 10.0; Win64; x64) AppleWebKit/537.36 (KHTML, like Gecko) Chrome/79.0.3945.130 Safari/537.36",117,"[0.9, 0.5, 0.1]","[0.8, 0.4, 0.2]","[u'red', u'blue', u'black']","[u'left', u'middle', u'right']","[0.8, 0.4, 0.2]","[u'high', u'medium', u'low']","red",49,"left","high","True","False",156,3900,NA
"ANYJ22IOQKAX3","Thu Jan 30 2020 14:28:35 GMT+0100 (West Africa Standard Time)","Thu Jan 30 2020 15:00:45 GMT+0100 (West Africa Standard Time)","Mozilla/5.0 (Windows NT 10.0; Win64; x64) AppleWebKit/537.36 (KHTML, like Gecko) Chrome/79.0.3945.130 Safari/537.36",118,"[0.9, 0.5, 0.1]","[0.8, 0.4, 0.2]","[u'red', u'blue', u'black']","[u'left', u'middle', u'right']","[0.8, 0.4, 0.2]","[u'high', u'medium', u'low']","red",49,"left","high","True","False",386,4000,NA
"ANYJ22IOQKAX3","Thu Jan 30 2020 14:28:35 GMT+0100 (West Africa Standard Time)","Thu Jan 30 2020 15:00:45 GMT+0100 (West Africa Standard Time)","Mozilla/5.0 (Windows NT 10.0; Win64; x64) AppleWebKit/537.36 (KHTML, like Gecko) Chrome/79.0.3945.130 Safari/537.36",119,"[0.9, 0.5, 0.1]","[0.8, 0.4, 0.2]","[u'red', u'blue', u'black']","[u'left', u'middle', u'right']","[0.8, 0.4, 0.2]","[u'high', u'medium', u'low']","red",49,"left","high","True","False",398,4100,NA
"ANYJ22IOQKAX3","Thu Jan 30 2020 14:28:35 GMT+0100 (West Africa Standard Time)","Thu Jan 30 2020 15:00:45 GMT+0100 (West Africa Standard Time)","Mozilla/5.0 (Windows NT 10.0; Win64; x64) AppleWebKit/537.36 (KHTML, like Gecko) Chrome/79.0.3945.130 Safari/537.36",120,"[0.9, 0.5, 0.1]","[0.8, 0.4, 0.2]","[u'red', u'blue', u'black']","[u'left', u'middle', u'right']","[0.8, 0.4, 0.2]","[u'high', u'medium', u'low']","red",49,"left","high","True","True",367,4200,NA
"ANYJ22IOQKAX3","Thu Jan 30 2020 14:28:35 GMT+0100 (West Africa Standard Time)","Thu Jan 30 2020 15:00:45 GMT+0100 (West Africa Standard Time)","Mozilla/5.0 (Windows NT 10.0; Win64; x64) AppleWebKit/537.36 (KHTML, like Gecko) Chrome/79.0.3945.130 Safari/537.36",121,"[0.9, 0.5, 0.1]","[0.8, 0.4, 0.2]","[u'red', u'blue', u'black']","[u'left', u'middle', u'right']","[0.8, 0.4, 0.2]","[u'low', u'medium', u'high']","red",49,"left","low","False","False",624,4150,NA
"ANYJ22IOQKAX3","Thu Jan 30 2020 14:28:35 GMT+0100 (West Africa Standard Time)","Thu Jan 30 2020 15:00:45 GMT+0100 (West Africa Standard Time)","Mozilla/5.0 (Windows NT 10.0; Win64; x64) AppleWebKit/537.36 (KHTML, like Gecko) Chrome/79.0.3945.130 Safari/537.36",122,"[0.9, 0.5, 0.1]","[0.8, 0.4, 0.2]","[u'red', u'blue', u'black']","[u'left', u'middle', u'right']","[0.8, 0.4, 0.2]","[u'low', u'medium', u'high']","red",49,"left","low","False","False",351,4100,NA
"ANYJ22IOQKAX3","Thu Jan 30 2020 14:28:35 GMT+0100 (West Africa Standard Time)","Thu Jan 30 2020 15:00:45 GMT+0100 (West Africa Standard Time)","Mozilla/5.0 (Windows NT 10.0; Win64; x64) AppleWebKit/537.36 (KHTML, like Gecko) Chrome/79.0.3945.130 Safari/537.36",123,"[0.9, 0.5, 0.1]","[0.8, 0.4, 0.2]","[u'red', u'blue', u'black']","[u'left', u'middle', u'right']","[0.8, 0.4, 0.2]","[u'low', u'medium', u'high']","blue",50,"middle","medium","False","False",8578,4050,NA
"ANYJ22IOQKAX3","Thu Jan 30 2020 14:28:35 GMT+0100 (West Africa Standard Time)","Thu Jan 30 2020 15:00:45 GMT+0100 (West Africa Standard Time)","Mozilla/5.0 (Windows NT 10.0; Win64; x64) AppleWebKit/537.36 (KHTML, like Gecko) Chrome/79.0.3945.130 Safari/537.36",124,"[0.9, 0.5, 0.1]","[0.8, 0.4, 0.2]","[u'red', u'blue', u'black']","[u'left', u'middle', u'right']","[0.8, 0.4, 0.2]","[u'low', u'medium', u'high']","blue",50,"middle","medium","False","False",489,4000,NA
"ANYJ22IOQKAX3","Thu Jan 30 2020 14:28:35 GMT+0100 (West Africa Standard Time)","Thu Jan 30 2020 15:00:45 GMT+0100 (West Africa Standard Time)","Mozilla/5.0 (Windows NT 10.0; Win64; x64) AppleWebKit/537.36 (KHTML, like Gecko) Chrome/79.0.3945.130 Safari/537.36",125,"[0.9, 0.5, 0.1]","[0.8, 0.4, 0.2]","[u'red', u'blue', u'black']","[u'left', u'middle', u'right']","[0.8, 0.4, 0.2]","[u'low', u'medium', u'high']","blue",50,"middle","medium","False","False",290,3950,NA
"ANYJ22IOQKAX3","Thu Jan 30 2020 14:28:35 GMT+0100 (West Africa Standard Time)","Thu Jan 30 2020 15:00:45 GMT+0100 (West Africa Standard Time)","Mozilla/5.0 (Windows NT 10.0; Win64; x64) AppleWebKit/537.36 (KHTML, like Gecko) Chrome/79.0.3945.130 Safari/537.36",126,"[0.9, 0.5, 0.1]","[0.8, 0.4, 0.2]","[u'red', u'blue', u'black']","[u'left', u'middle', u'right']","[0.8, 0.4, 0.2]","[u'low', u'medium', u'high']","blue",50,"middle","medium","False","False",654,3900,NA
"ANYJ22IOQKAX3","Thu Jan 30 2020 14:28:35 GMT+0100 (West Africa Standard Time)","Thu Jan 30 2020 15:00:45 GMT+0100 (West Africa Standard Time)","Mozilla/5.0 (Windows NT 10.0; Win64; x64) AppleWebKit/537.36 (KHTML, like Gecko) Chrome/79.0.3945.130 Safari/537.36",127,"[0.9, 0.5, 0.1]","[0.8, 0.4, 0.2]","[u'red', u'blue', u'black']","[u'left', u'middle', u'right']","[0.8, 0.4, 0.2]","[u'low', u'medium', u'high']","blue",50,"middle","medium","False","False",306,3850,NA
"ANYJ22IOQKAX3","Thu Jan 30 2020 14:28:35 GMT+0100 (West Africa Standard Time)","Thu Jan 30 2020 15:00:45 GMT+0100 (West Africa Standard Time)","Mozilla/5.0 (Windows NT 10.0; Win64; x64) AppleWebKit/537.36 (KHTML, like Gecko) Chrome/79.0.3945.130 Safari/537.36",128,"[0.9, 0.5, 0.1]","[0.8, 0.4, 0.2]","[u'red', u'blue', u'black']","[u'left', u'middle', u'right']","[0.8, 0.4, 0.2]","[u'low', u'medium', u'high']","black",51,"right","high","True","False",310,3950,NA
"ANYJ22IOQKAX3","Thu Jan 30 2020 14:28:35 GMT+0100 (West Africa Standard Time)","Thu Jan 30 2020 15:00:45 GMT+0100 (West Africa Standard Time)","Mozilla/5.0 (Windows NT 10.0; Win64; x64) AppleWebKit/537.36 (KHTML, like Gecko) Chrome/79.0.3945.130 Safari/537.36",129,"[0.9, 0.5, 0.1]","[0.8, 0.4, 0.2]","[u'red', u'blue', u'black']","[u'left', u'middle', u'right']","[0.8, 0.4, 0.2]","[u'low', u'medium', u'high']","blue",50,"middle","medium","True","False",750,4050,NA
"ANYJ22IOQKAX3","Thu Jan 30 2020 14:28:35 GMT+0100 (West Africa Standard Time)","Thu Jan 30 2020 15:00:45 GMT+0100 (West Africa Standard Time)","Mozilla/5.0 (Windows NT 10.0; Win64; x64) AppleWebKit/537.36 (KHTML, like Gecko) Chrome/79.0.3945.130 Safari/537.36",130,"[0.9, 0.5, 0.1]","[0.8, 0.4, 0.2]","[u'red', u'blue', u'black']","[u'left', u'middle', u'right']","[0.8, 0.4, 0.2]","[u'low', u'medium', u'high']","blue",50,"middle","medium","True","False",333,4150,NA
"ANYJ22IOQKAX3","Thu Jan 30 2020 14:28:35 GMT+0100 (West Africa Standard Time)","Thu Jan 30 2020 15:00:45 GMT+0100 (West Africa Standard Time)","Mozilla/5.0 (Windows NT 10.0; Win64; x64) AppleWebKit/537.36 (KHTML, like Gecko) Chrome/79.0.3945.130 Safari/537.36",131,"[0.9, 0.5, 0.1]","[0.8, 0.4, 0.2]","[u'red', u'blue', u'black']","[u'left', u'middle', u'right']","[0.8, 0.4, 0.2]","[u'low', u'medium', u'high']","blue",50,"middle","medium","False","False",589,4100,NA
"ANYJ22IOQKAX3","Thu Jan 30 2020 14:28:35 GMT+0100 (West Africa Standard Time)","Thu Jan 30 2020 15:00:45 GMT+0100 (West Africa Standard Time)","Mozilla/5.0 (Windows NT 10.0; Win64; x64) AppleWebKit/537.36 (KHTML, like Gecko) Chrome/79.0.3945.130 Safari/537.36",132,"[0.9, 0.5, 0.1]","[0.8, 0.4, 0.2]","[u'red', u'blue', u'black']","[u'left', u'middle', u'right']","[0.8, 0.4, 0.2]","[u'low', u'medium', u'high']","red",49,"left","low","True","False",40530,4200,NA
"ANYJ22IOQKAX3","Thu Jan 30 2020 14:28:35 GMT+0100 (West Africa Standard Time)","Thu Jan 30 2020 15:00:45 GMT+0100 (West Africa Standard Time)","Mozilla/5.0 (Windows NT 10.0; Win64; x64) AppleWebKit/537.36 (KHTML, like Gecko) Chrome/79.0.3945.130 Safari/537.36",133,"[0.9, 0.5, 0.1]","[0.8, 0.4, 0.2]","[u'red', u'blue', u'black']","[u'left', u'middle', u'right']","[0.8, 0.4, 0.2]","[u'low', u'medium', u'high']","black",51,"right","high","True","False",299,4300,NA
"ANYJ22IOQKAX3","Thu Jan 30 2020 14:28:35 GMT+0100 (West Africa Standard Time)","Thu Jan 30 2020 15:00:45 GMT+0100 (West Africa Standard Time)","Mozilla/5.0 (Windows NT 10.0; Win64; x64) AppleWebKit/537.36 (KHTML, like Gecko) Chrome/79.0.3945.130 Safari/537.36",134,"[0.9, 0.5, 0.1]","[0.8, 0.4, 0.2]","[u'red', u'blue', u'black']","[u'left', u'middle', u'right']","[0.8, 0.4, 0.2]","[u'low', u'medium', u'high']","red",49,"left","low","False","False",8372,4250,NA
"ANYJ22IOQKAX3","Thu Jan 30 2020 14:28:35 GMT+0100 (West Africa Standard Time)","Thu Jan 30 2020 15:00:45 GMT+0100 (West Africa Standard Time)","Mozilla/5.0 (Windows NT 10.0; Win64; x64) AppleWebKit/537.36 (KHTML, like Gecko) Chrome/79.0.3945.130 Safari/537.36",135,"[0.9, 0.5, 0.1]","[0.8, 0.4, 0.2]","[u'red', u'blue', u'black']","[u'left', u'middle', u'right']","[0.8, 0.4, 0.2]","[u'low', u'medium', u'high']","blue",50,"middle","medium","False","False",140,4200,NA
"ANYJ22IOQKAX3","Thu Jan 30 2020 14:28:35 GMT+0100 (West Africa Standard Time)","Thu Jan 30 2020 15:00:45 GMT+0100 (West Africa Standard Time)","Mozilla/5.0 (Windows NT 10.0; Win64; x64) AppleWebKit/537.36 (KHTML, like Gecko) Chrome/79.0.3945.130 Safari/537.36",136,"[0.9, 0.5, 0.1]","[0.8, 0.4, 0.2]","[u'red', u'blue', u'black']","[u'left', u'middle', u'right']","[0.8, 0.4, 0.2]","[u'low', u'medium', u'high']","blue",50,"middle","medium","False","False",119,4150,NA
"ANYJ22IOQKAX3","Thu Jan 30 2020 14:28:35 GMT+0100 (West Africa Standard Time)","Thu Jan 30 2020 15:00:45 GMT+0100 (West Africa Standard Time)","Mozilla/5.0 (Windows NT 10.0; Win64; x64) AppleWebKit/537.36 (KHTML, like Gecko) Chrome/79.0.3945.130 Safari/537.36",137,"[0.9, 0.5, 0.1]","[0.8, 0.4, 0.2]","[u'red', u'blue', u'black']","[u'left', u'middle', u'right']","[0.8, 0.4, 0.2]","[u'low', u'medium', u'high']","red",49,"left","low","False","False",110,4100,NA
"ANYJ22IOQKAX3","Thu Jan 30 2020 14:28:35 GMT+0100 (West Africa Standard Time)","Thu Jan 30 2020 15:00:45 GMT+0100 (West Africa Standard Time)","Mozilla/5.0 (Windows NT 10.0; Win64; x64) AppleWebKit/537.36 (KHTML, like Gecko) Chrome/79.0.3945.130 Safari/537.36",138,"[0.9, 0.5, 0.1]","[0.8, 0.4, 0.2]","[u'red', u'blue', u'black']","[u'left', u'middle', u'right']","[0.8, 0.4, 0.2]","[u'low', u'medium', u'high']","black",51,"right","high","True","False",124,4200,NA
"ANYJ22IOQKAX3","Thu Jan 30 2020 14:28:35 GMT+0100 (West Africa Standard Time)","Thu Jan 30 2020 15:00:45 GMT+0100 (West Africa Standard Time)","Mozilla/5.0 (Windows NT 10.0; Win64; x64) AppleWebKit/537.36 (KHTML, like Gecko) Chrome/79.0.3945.130 Safari/537.36",139,"[0.9, 0.5, 0.1]","[0.8, 0.4, 0.2]","[u'red', u'blue', u'black']","[u'left', u'middle', u'right']","[0.8, 0.4, 0.2]","[u'low', u'medium', u'high']","blue",50,"middle","medium","False","False",10143,4150,NA
"ANYJ22IOQKAX3","Thu Jan 30 2020 14:28:35 GMT+0100 (West Africa Standard Time)","Thu Jan 30 2020 15:00:45 GMT+0100 (West Africa Standard Time)","Mozilla/5.0 (Windows NT 10.0; Win64; x64) AppleWebKit/537.36 (KHTML, like Gecko) Chrome/79.0.3945.130 Safari/537.36",140,"[0.9, 0.5, 0.1]","[0.8, 0.4, 0.2]","[u'red', u'blue', u'black']","[u'left', u'middle', u'right']","[0.8, 0.4, 0.2]","[u'low', u'medium', u'high']","black",51,"right","high","True","False",173,4250,NA
"ANYJ22IOQKAX3","Thu Jan 30 2020 14:28:35 GMT+0100 (West Africa Standard Time)","Thu Jan 30 2020 15:00:45 GMT+0100 (West Africa Standard Time)","Mozilla/5.0 (Windows NT 10.0; Win64; x64) AppleWebKit/537.36 (KHTML, like Gecko) Chrome/79.0.3945.130 Safari/537.36",141,"[0.9, 0.5, 0.1]","[0.8, 0.4, 0.2]","[u'red', u'blue', u'black']","[u'left', u'middle', u'right']","[0.8, 0.4, 0.2]","[u'low', u'medium', u'high']","black",51,"right","high","True","False",253,4350,NA
"ANYJ22IOQKAX3","Thu Jan 30 2020 14:28:35 GMT+0100 (West Africa Standard Time)","Thu Jan 30 2020 15:00:45 GMT+0100 (West Africa Standard Time)","Mozilla/5.0 (Windows NT 10.0; Win64; x64) AppleWebKit/537.36 (KHTML, like Gecko) Chrome/79.0.3945.130 Safari/537.36",142,"[0.9, 0.5, 0.1]","[0.8, 0.4, 0.2]","[u'red', u'blue', u'black']","[u'left', u'middle', u'right']","[0.8, 0.4, 0.2]","[u'low', u'medium', u'high']","black",51,"right","high","False","False",264,4300,NA
"ANYJ22IOQKAX3","Thu Jan 30 2020 14:28:35 GMT+0100 (West Africa Standard Time)","Thu Jan 30 2020 15:00:45 GMT+0100 (West Africa Standard Time)","Mozilla/5.0 (Windows NT 10.0; Win64; x64) AppleWebKit/537.36 (KHTML, like Gecko) Chrome/79.0.3945.130 Safari/537.36",143,"[0.9, 0.5, 0.1]","[0.8, 0.4, 0.2]","[u'red', u'blue', u'black']","[u'left', u'middle', u'right']","[0.8, 0.4, 0.2]","[u'low', u'medium', u'high']","blue",50,"middle","medium","True","False",49236,4400,NA
"ANYJ22IOQKAX3","Thu Jan 30 2020 14:28:35 GMT+0100 (West Africa Standard Time)","Thu Jan 30 2020 15:00:45 GMT+0100 (West Africa Standard Time)","Mozilla/5.0 (Windows NT 10.0; Win64; x64) AppleWebKit/537.36 (KHTML, like Gecko) Chrome/79.0.3945.130 Safari/537.36",144,"[0.9, 0.5, 0.1]","[0.8, 0.4, 0.2]","[u'red', u'blue', u'black']","[u'left', u'middle', u'right']","[0.8, 0.4, 0.2]","[u'low', u'medium', u'high']","blue",50,"middle","medium","False","False",242,4350,NA
"ANYJ22IOQKAX3","Thu Jan 30 2020 14:28:35 GMT+0100 (West Africa Standard Time)","Thu Jan 30 2020 15:00:45 GMT+0100 (West Africa Standard Time)","Mozilla/5.0 (Windows NT 10.0; Win64; x64) AppleWebKit/537.36 (KHTML, like Gecko) Chrome/79.0.3945.130 Safari/537.36",145,"[0.9, 0.5, 0.1]","[0.8, 0.4, 0.2]","[u'red', u'blue', u'black']","[u'left', u'middle', u'right']","[0.8, 0.4, 0.2]","[u'low', u'medium', u'high']","red",49,"left","low","False","False",249,4300,NA
"ANYJ22IOQKAX3","Thu Jan 30 2020 14:28:35 GMT+0100 (West Africa Standard Time)","Thu Jan 30 2020 15:00:45 GMT+0100 (West Africa Standard Time)","Mozilla/5.0 (Windows NT 10.0; Win64; x64) AppleWebKit/537.36 (KHTML, like Gecko) Chrome/79.0.3945.130 Safari/537.36",146,"[0.9, 0.5, 0.1]","[0.8, 0.4, 0.2]","[u'red', u'blue', u'black']","[u'left', u'middle', u'right']","[0.8, 0.4, 0.2]","[u'low', u'medium', u'high']","red",49,"left","low","True","False",281,4400,NA
"ANYJ22IOQKAX3","Thu Jan 30 2020 14:28:35 GMT+0100 (West Africa Standard Time)","Thu Jan 30 2020 15:00:45 GMT+0100 (West Africa Standard Time)","Mozilla/5.0 (Windows NT 10.0; Win64; x64) AppleWebKit/537.36 (KHTML, like Gecko) Chrome/79.0.3945.130 Safari/537.36",147,"[0.9, 0.5, 0.1]","[0.8, 0.4, 0.2]","[u'red', u'blue', u'black']","[u'left', u'middle', u'right']","[0.8, 0.4, 0.2]","[u'low', u'medium', u'high']","red",49,"left","low","True","False",348,4500,NA
"ANYJ22IOQKAX3","Thu Jan 30 2020 14:28:35 GMT+0100 (West Africa Standard Time)","Thu Jan 30 2020 15:00:45 GMT+0100 (West Africa Standard Time)","Mozilla/5.0 (Windows NT 10.0; Win64; x64) AppleWebKit/537.36 (KHTML, like Gecko) Chrome/79.0.3945.130 Safari/537.36",148,"[0.9, 0.5, 0.1]","[0.8, 0.4, 0.2]","[u'red', u'blue', u'black']","[u'left', u'middle', u'right']","[0.8, 0.4, 0.2]","[u'low', u'medium', u'high']","red",49,"left","low","True","False",325,4600,NA
"ANYJ22IOQKAX3","Thu Jan 30 2020 14:28:35 GMT+0100 (West Africa Standard Time)","Thu Jan 30 2020 15:00:45 GMT+0100 (West Africa Standard Time)","Mozilla/5.0 (Windows NT 10.0; Win64; x64) AppleWebKit/537.36 (KHTML, like Gecko) Chrome/79.0.3945.130 Safari/537.36",149,"[0.9, 0.5, 0.1]","[0.8, 0.4, 0.2]","[u'red', u'blue', u'black']","[u'left', u'middle', u'right']","[0.8, 0.4, 0.2]","[u'low', u'medium', u'high']","red",49,"left","low","False","False",12308,4550,NA
"ANYJ22IOQKAX3","Thu Jan 30 2020 14:28:35 GMT+0100 (West Africa Standard Time)","Thu Jan 30 2020 15:00:45 GMT+0100 (West Africa Standard Time)","Mozilla/5.0 (Windows NT 10.0; Win64; x64) AppleWebKit/537.36 (KHTML, like Gecko) Chrome/79.0.3945.130 Safari/537.36",150,"[0.9, 0.5, 0.1]","[0.8, 0.4, 0.2]","[u'red', u'blue', u'black']","[u'left', u'middle', u'right']","[0.8, 0.4, 0.2]","[u'low', u'medium', u'high']","red",49,"left","low","False","False",238,4500,NA
"ANYJ22IOQKAX3","Thu Jan 30 2020 14:28:35 GMT+0100 (West Africa Standard Time)","Thu Jan 30 2020 15:00:45 GMT+0100 (West Africa Standard Time)","Mozilla/5.0 (Windows NT 10.0; Win64; x64) AppleWebKit/537.36 (KHTML, like Gecko) Chrome/79.0.3945.130 Safari/537.36",151,"[0.9, 0.5, 0.1]","[0.8, 0.4, 0.2]","[u'red', u'blue', u'black']","[u'left', u'middle', u'right']","[0.8, 0.4, 0.2]","[u'low', u'medium', u'high']","blue",50,"middle","medium","False","False",225,4450,NA
"ANYJ22IOQKAX3","Thu Jan 30 2020 14:28:35 GMT+0100 (West Africa Standard Time)","Thu Jan 30 2020 15:00:45 GMT+0100 (West Africa Standard Time)","Mozilla/5.0 (Windows NT 10.0; Win64; x64) AppleWebKit/537.36 (KHTML, like Gecko) Chrome/79.0.3945.130 Safari/537.36",152,"[0.9, 0.5, 0.1]","[0.8, 0.4, 0.2]","[u'red', u'blue', u'black']","[u'left', u'middle', u'right']","[0.8, 0.4, 0.2]","[u'low', u'medium', u'high']","blue",50,"middle","medium","True","False",13138,4550,NA
"ANYJ22IOQKAX3","Thu Jan 30 2020 14:28:35 GMT+0100 (West Africa Standard Time)","Thu Jan 30 2020 15:00:45 GMT+0100 (West Africa Standard Time)","Mozilla/5.0 (Windows NT 10.0; Win64; x64) AppleWebKit/537.36 (KHTML, like Gecko) Chrome/79.0.3945.130 Safari/537.36",153,"[0.9, 0.5, 0.1]","[0.8, 0.4, 0.2]","[u'red', u'blue', u'black']","[u'left', u'middle', u'right']","[0.8, 0.4, 0.2]","[u'low', u'medium', u'high']","red",49,"left","low","True","False",58727,4650,NA
"ANYJ22IOQKAX3","Thu Jan 30 2020 14:28:35 GMT+0100 (West Africa Standard Time)","Thu Jan 30 2020 15:00:45 GMT+0100 (West Africa Standard Time)","Mozilla/5.0 (Windows NT 10.0; Win64; x64) AppleWebKit/537.36 (KHTML, like Gecko) Chrome/79.0.3945.130 Safari/537.36",154,"[0.9, 0.5, 0.1]","[0.8, 0.4, 0.2]","[u'red', u'blue', u'black']","[u'left', u'middle', u'right']","[0.8, 0.4, 0.2]","[u'low', u'medium', u'high']","blue",50,"middle","medium","False","False",234,4600,NA
"ANYJ22IOQKAX3","Thu Jan 30 2020 14:28:35 GMT+0100 (West Africa Standard Time)","Thu Jan 30 2020 15:00:45 GMT+0100 (West Africa Standard Time)","Mozilla/5.0 (Windows NT 10.0; Win64; x64) AppleWebKit/537.36 (KHTML, like Gecko) Chrome/79.0.3945.130 Safari/537.36",155,"[0.9, 0.5, 0.1]","[0.8, 0.4, 0.2]","[u'red', u'blue', u'black']","[u'left', u'middle', u'right']","[0.8, 0.4, 0.2]","[u'low', u'medium', u'high']","blue",50,"middle","medium","False","False",165,4550,NA
"ANYJ22IOQKAX3","Thu Jan 30 2020 14:28:35 GMT+0100 (West Africa Standard Time)","Thu Jan 30 2020 15:00:45 GMT+0100 (West Africa Standard Time)","Mozilla/5.0 (Windows NT 10.0; Win64; x64) AppleWebKit/537.36 (KHTML, like Gecko) Chrome/79.0.3945.130 Safari/537.36",156,"[0.9, 0.5, 0.1]","[0.8, 0.4, 0.2]","[u'red', u'blue', u'black']","[u'left', u'middle', u'right']","[0.8, 0.4, 0.2]","[u'low', u'medium', u'high']","black",51,"right","high","True","False",175,4650,NA
"ANYJ22IOQKAX3","Thu Jan 30 2020 14:28:35 GMT+0100 (West Africa Standard Time)","Thu Jan 30 2020 15:00:45 GMT+0100 (West Africa Standard Time)","Mozilla/5.0 (Windows NT 10.0; Win64; x64) AppleWebKit/537.36 (KHTML, like Gecko) Chrome/79.0.3945.130 Safari/537.36",157,"[0.9, 0.5, 0.1]","[0.8, 0.4, 0.2]","[u'red', u'blue', u'black']","[u'left', u'middle', u'right']","[0.8, 0.4, 0.2]","[u'low', u'medium', u'high']","black",51,"right","high","False","False",252,4600,NA
"ANYJ22IOQKAX3","Thu Jan 30 2020 14:28:35 GMT+0100 (West Africa Standard Time)","Thu Jan 30 2020 15:00:45 GMT+0100 (West Africa Standard Time)","Mozilla/5.0 (Windows NT 10.0; Win64; x64) AppleWebKit/537.36 (KHTML, like Gecko) Chrome/79.0.3945.130 Safari/537.36",158,"[0.9, 0.5, 0.1]","[0.8, 0.4, 0.2]","[u'red', u'blue', u'black']","[u'left', u'middle', u'right']","[0.8, 0.4, 0.2]","[u'low', u'medium', u'high']","black",51,"right","high","True","False",110,4700,NA
"ANYJ22IOQKAX3","Thu Jan 30 2020 14:28:35 GMT+0100 (West Africa Standard Time)","Thu Jan 30 2020 15:00:45 GMT+0100 (West Africa Standard Time)","Mozilla/5.0 (Windows NT 10.0; Win64; x64) AppleWebKit/537.36 (KHTML, like Gecko) Chrome/79.0.3945.130 Safari/537.36",159,"[0.9, 0.5, 0.1]","[0.8, 0.4, 0.2]","[u'red', u'blue', u'black']","[u'left', u'middle', u'right']","[0.8, 0.4, 0.2]","[u'low', u'medium', u'high']","red",49,"left","low","True","False",14186,4800,NA
"ANYJ22IOQKAX3","Thu Jan 30 2020 14:28:35 GMT+0100 (West Africa Standard Time)","Thu Jan 30 2020 15:00:45 GMT+0100 (West Africa Standard Time)","Mozilla/5.0 (Windows NT 10.0; Win64; x64) AppleWebKit/537.36 (KHTML, like Gecko) Chrome/79.0.3945.130 Safari/537.36",160,"[0.9, 0.5, 0.1]","[0.8, 0.4, 0.2]","[u'red', u'blue', u'black']","[u'left', u'middle', u'right']","[0.8, 0.4, 0.2]","[u'low', u'medium', u'high']","black",51,"right","high","True","False",781,4900,NA
