"src_subject_id","start_time","end_time","browser","index","first_half_probabilities","second_half_probabilities","deck_color","deck_position","deck_probabilities","deck_contingencies","response_color","key_press","response_position","response_probability","reward_type","trial_type","rt","reward_tally","exclusion_reason"
"A1HWB810RJBV2K","Thu Jan 30 2020 08:46:30 GMT-0500 (Eastern Standard Time)","Thu Jan 30 2020 08:53:26 GMT-0500 (Eastern Standard Time)","Mozilla/5.0 (Windows NT 6.1; Win64; x64) AppleWebKit/537.36 (KHTML, like Gecko) Chrome/79.0.3945.88 Safari/537.36",1,"[0.9, 0.5, 0.1]","[0.8, 0.4, 0.2]","[u'red', u'blue', u'black']","[u'left', u'middle', u'right']","[0.9, 0.5, 0.1]","[u'low', u'medium', u'high']","red",49,"left","low","False","False",545,-50,NA
"A1HWB810RJBV2K","Thu Jan 30 2020 08:46:30 GMT-0500 (Eastern Standard Time)","Thu Jan 30 2020 08:53:26 GMT-0500 (Eastern Standard Time)","Mozilla/5.0 (Windows NT 6.1; Win64; x64) AppleWebKit/537.36 (KHTML, like Gecko) Chrome/79.0.3945.88 Safari/537.36",2,"[0.9, 0.5, 0.1]","[0.8, 0.4, 0.2]","[u'red', u'blue', u'black']","[u'left', u'middle', u'right']","[0.9, 0.5, 0.1]","[u'low', u'medium', u'high']","blue",50,"middle","medium","False","False",335,-100,NA
"A1HWB810RJBV2K","Thu Jan 30 2020 08:46:30 GMT-0500 (Eastern Standard Time)","Thu Jan 30 2020 08:53:26 GMT-0500 (Eastern Standard Time)","Mozilla/5.0 (Windows NT 6.1; Win64; x64) AppleWebKit/537.36 (KHTML, like Gecko) Chrome/79.0.3945.88 Safari/537.36",3,"[0.9, 0.5, 0.1]","[0.8, 0.4, 0.2]","[u'red', u'blue', u'black']","[u'left', u'middle', u'right']","[0.9, 0.5, 0.1]","[u'low', u'medium', u'high']","black",51,"right","high","True","False",327,0,NA
"A1HWB810RJBV2K","Thu Jan 30 2020 08:46:30 GMT-0500 (Eastern Standard Time)","Thu Jan 30 2020 08:53:26 GMT-0500 (Eastern Standard Time)","Mozilla/5.0 (Windows NT 6.1; Win64; x64) AppleWebKit/537.36 (KHTML, like Gecko) Chrome/79.0.3945.88 Safari/537.36",4,"[0.9, 0.5, 0.1]","[0.8, 0.4, 0.2]","[u'red', u'blue', u'black']","[u'left', u'middle', u'right']","[0.9, 0.5, 0.1]","[u'low', u'medium', u'high']","black",51,"right","high","True","False",390,100,NA
"A1HWB810RJBV2K","Thu Jan 30 2020 08:46:30 GMT-0500 (Eastern Standard Time)","Thu Jan 30 2020 08:53:26 GMT-0500 (Eastern Standard Time)","Mozilla/5.0 (Windows NT 6.1; Win64; x64) AppleWebKit/537.36 (KHTML, like Gecko) Chrome/79.0.3945.88 Safari/537.36",5,"[0.9, 0.5, 0.1]","[0.8, 0.4, 0.2]","[u'red', u'blue', u'black']","[u'left', u'middle', u'right']","[0.9, 0.5, 0.1]","[u'low', u'medium', u'high']","black",51,"right","high","True","False",385,200,NA
"A1HWB810RJBV2K","Thu Jan 30 2020 08:46:30 GMT-0500 (Eastern Standard Time)","Thu Jan 30 2020 08:53:26 GMT-0500 (Eastern Standard Time)","Mozilla/5.0 (Windows NT 6.1; Win64; x64) AppleWebKit/537.36 (KHTML, like Gecko) Chrome/79.0.3945.88 Safari/537.36",6,"[0.9, 0.5, 0.1]","[0.8, 0.4, 0.2]","[u'red', u'blue', u'black']","[u'left', u'middle', u'right']","[0.9, 0.5, 0.1]","[u'low', u'medium', u'high']","black",51,"right","high","True","False",474,300,NA
"A1HWB810RJBV2K","Thu Jan 30 2020 08:46:30 GMT-0500 (Eastern Standard Time)","Thu Jan 30 2020 08:53:26 GMT-0500 (Eastern Standard Time)","Mozilla/5.0 (Windows NT 6.1; Win64; x64) AppleWebKit/537.36 (KHTML, like Gecko) Chrome/79.0.3945.88 Safari/537.36",7,"[0.9, 0.5, 0.1]","[0.8, 0.4, 0.2]","[u'red', u'blue', u'black']","[u'left', u'middle', u'right']","[0.9, 0.5, 0.1]","[u'low', u'medium', u'high']","black",51,"right","high","True","False",360,400,NA
"A1HWB810RJBV2K","Thu Jan 30 2020 08:46:30 GMT-0500 (Eastern Standard Time)","Thu Jan 30 2020 08:53:26 GMT-0500 (Eastern Standard Time)","Mozilla/5.0 (Windows NT 6.1; Win64; x64) AppleWebKit/537.36 (KHTML, like Gecko) Chrome/79.0.3945.88 Safari/537.36",8,"[0.9, 0.5, 0.1]","[0.8, 0.4, 0.2]","[u'red', u'blue', u'black']","[u'left', u'middle', u'right']","[0.9, 0.5, 0.1]","[u'low', u'medium', u'high']","black",51,"right","high","True","False",374,500,NA
"A1HWB810RJBV2K","Thu Jan 30 2020 08:46:30 GMT-0500 (Eastern Standard Time)","Thu Jan 30 2020 08:53:26 GMT-0500 (Eastern Standard Time)","Mozilla/5.0 (Windows NT 6.1; Win64; x64) AppleWebKit/537.36 (KHTML, like Gecko) Chrome/79.0.3945.88 Safari/537.36",9,"[0.9, 0.5, 0.1]","[0.8, 0.4, 0.2]","[u'red', u'blue', u'black']","[u'left', u'middle', u'right']","[0.9, 0.5, 0.1]","[u'low', u'medium', u'high']","black",51,"right","high","True","False",372,600,NA
"A1HWB810RJBV2K","Thu Jan 30 2020 08:46:30 GMT-0500 (Eastern Standard Time)","Thu Jan 30 2020 08:53:26 GMT-0500 (Eastern Standard Time)","Mozilla/5.0 (Windows NT 6.1; Win64; x64) AppleWebKit/537.36 (KHTML, like Gecko) Chrome/79.0.3945.88 Safari/537.36",10,"[0.9, 0.5, 0.1]","[0.8, 0.4, 0.2]","[u'red', u'blue', u'black']","[u'left', u'middle', u'right']","[0.9, 0.5, 0.1]","[u'low', u'medium', u'high']","black",51,"right","high","True","False",407,700,NA
"A1HWB810RJBV2K","Thu Jan 30 2020 08:46:30 GMT-0500 (Eastern Standard Time)","Thu Jan 30 2020 08:53:26 GMT-0500 (Eastern Standard Time)","Mozilla/5.0 (Windows NT 6.1; Win64; x64) AppleWebKit/537.36 (KHTML, like Gecko) Chrome/79.0.3945.88 Safari/537.36",11,"[0.9, 0.5, 0.1]","[0.8, 0.4, 0.2]","[u'red', u'blue', u'black']","[u'left', u'middle', u'right']","[0.9, 0.5, 0.1]","[u'low', u'medium', u'high']","black",51,"right","high","True","True",428,800,NA
"A1HWB810RJBV2K","Thu Jan 30 2020 08:46:30 GMT-0500 (Eastern Standard Time)","Thu Jan 30 2020 08:53:26 GMT-0500 (Eastern Standard Time)","Mozilla/5.0 (Windows NT 6.1; Win64; x64) AppleWebKit/537.36 (KHTML, like Gecko) Chrome/79.0.3945.88 Safari/537.36",12,"[0.9, 0.5, 0.1]","[0.8, 0.4, 0.2]","[u'red', u'blue', u'black']","[u'left', u'middle', u'right']","[0.9, 0.5, 0.1]","[u'medium', u'high', u'low']","black",51,"right","low","False","False",352,750,NA
"A1HWB810RJBV2K","Thu Jan 30 2020 08:46:30 GMT-0500 (Eastern Standard Time)","Thu Jan 30 2020 08:53:26 GMT-0500 (Eastern Standard Time)","Mozilla/5.0 (Windows NT 6.1; Win64; x64) AppleWebKit/537.36 (KHTML, like Gecko) Chrome/79.0.3945.88 Safari/537.36",13,"[0.9, 0.5, 0.1]","[0.8, 0.4, 0.2]","[u'red', u'blue', u'black']","[u'left', u'middle', u'right']","[0.9, 0.5, 0.1]","[u'medium', u'high', u'low']","blue",50,"middle","high","True","False",332,850,NA
"A1HWB810RJBV2K","Thu Jan 30 2020 08:46:30 GMT-0500 (Eastern Standard Time)","Thu Jan 30 2020 08:53:26 GMT-0500 (Eastern Standard Time)","Mozilla/5.0 (Windows NT 6.1; Win64; x64) AppleWebKit/537.36 (KHTML, like Gecko) Chrome/79.0.3945.88 Safari/537.36",14,"[0.9, 0.5, 0.1]","[0.8, 0.4, 0.2]","[u'red', u'blue', u'black']","[u'left', u'middle', u'right']","[0.9, 0.5, 0.1]","[u'medium', u'high', u'low']","blue",50,"middle","high","True","False",336,950,NA
"A1HWB810RJBV2K","Thu Jan 30 2020 08:46:30 GMT-0500 (Eastern Standard Time)","Thu Jan 30 2020 08:53:26 GMT-0500 (Eastern Standard Time)","Mozilla/5.0 (Windows NT 6.1; Win64; x64) AppleWebKit/537.36 (KHTML, like Gecko) Chrome/79.0.3945.88 Safari/537.36",15,"[0.9, 0.5, 0.1]","[0.8, 0.4, 0.2]","[u'red', u'blue', u'black']","[u'left', u'middle', u'right']","[0.9, 0.5, 0.1]","[u'medium', u'high', u'low']","blue",50,"middle","high","True","False",356,1050,NA
"A1HWB810RJBV2K","Thu Jan 30 2020 08:46:30 GMT-0500 (Eastern Standard Time)","Thu Jan 30 2020 08:53:26 GMT-0500 (Eastern Standard Time)","Mozilla/5.0 (Windows NT 6.1; Win64; x64) AppleWebKit/537.36 (KHTML, like Gecko) Chrome/79.0.3945.88 Safari/537.36",16,"[0.9, 0.5, 0.1]","[0.8, 0.4, 0.2]","[u'red', u'blue', u'black']","[u'left', u'middle', u'right']","[0.9, 0.5, 0.1]","[u'medium', u'high', u'low']","blue",50,"middle","high","True","False",190,1150,NA
"A1HWB810RJBV2K","Thu Jan 30 2020 08:46:30 GMT-0500 (Eastern Standard Time)","Thu Jan 30 2020 08:53:26 GMT-0500 (Eastern Standard Time)","Mozilla/5.0 (Windows NT 6.1; Win64; x64) AppleWebKit/537.36 (KHTML, like Gecko) Chrome/79.0.3945.88 Safari/537.36",17,"[0.9, 0.5, 0.1]","[0.8, 0.4, 0.2]","[u'red', u'blue', u'black']","[u'left', u'middle', u'right']","[0.9, 0.5, 0.1]","[u'medium', u'high', u'low']","blue",50,"middle","high","True","False",331,1250,NA
"A1HWB810RJBV2K","Thu Jan 30 2020 08:46:30 GMT-0500 (Eastern Standard Time)","Thu Jan 30 2020 08:53:26 GMT-0500 (Eastern Standard Time)","Mozilla/5.0 (Windows NT 6.1; Win64; x64) AppleWebKit/537.36 (KHTML, like Gecko) Chrome/79.0.3945.88 Safari/537.36",18,"[0.9, 0.5, 0.1]","[0.8, 0.4, 0.2]","[u'red', u'blue', u'black']","[u'left', u'middle', u'right']","[0.9, 0.5, 0.1]","[u'medium', u'high', u'low']","blue",50,"middle","high","True","False",352,1350,NA
"A1HWB810RJBV2K","Thu Jan 30 2020 08:46:30 GMT-0500 (Eastern Standard Time)","Thu Jan 30 2020 08:53:26 GMT-0500 (Eastern Standard Time)","Mozilla/5.0 (Windows NT 6.1; Win64; x64) AppleWebKit/537.36 (KHTML, like Gecko) Chrome/79.0.3945.88 Safari/537.36",19,"[0.9, 0.5, 0.1]","[0.8, 0.4, 0.2]","[u'red', u'blue', u'black']","[u'left', u'middle', u'right']","[0.9, 0.5, 0.1]","[u'medium', u'high', u'low']","blue",50,"middle","high","True","False",309,1450,NA
"A1HWB810RJBV2K","Thu Jan 30 2020 08:46:30 GMT-0500 (Eastern Standard Time)","Thu Jan 30 2020 08:53:26 GMT-0500 (Eastern Standard Time)","Mozilla/5.0 (Windows NT 6.1; Win64; x64) AppleWebKit/537.36 (KHTML, like Gecko) Chrome/79.0.3945.88 Safari/537.36",20,"[0.9, 0.5, 0.1]","[0.8, 0.4, 0.2]","[u'red', u'blue', u'black']","[u'left', u'middle', u'right']","[0.9, 0.5, 0.1]","[u'medium', u'high', u'low']","blue",50,"middle","high","True","False",323,1550,NA
"A1HWB810RJBV2K","Thu Jan 30 2020 08:46:30 GMT-0500 (Eastern Standard Time)","Thu Jan 30 2020 08:53:26 GMT-0500 (Eastern Standard Time)","Mozilla/5.0 (Windows NT 6.1; Win64; x64) AppleWebKit/537.36 (KHTML, like Gecko) Chrome/79.0.3945.88 Safari/537.36",21,"[0.9, 0.5, 0.1]","[0.8, 0.4, 0.2]","[u'red', u'blue', u'black']","[u'left', u'middle', u'right']","[0.9, 0.5, 0.1]","[u'medium', u'high', u'low']","blue",50,"middle","high","False","True",319,1500,NA
"A1HWB810RJBV2K","Thu Jan 30 2020 08:46:30 GMT-0500 (Eastern Standard Time)","Thu Jan 30 2020 08:53:26 GMT-0500 (Eastern Standard Time)","Mozilla/5.0 (Windows NT 6.1; Win64; x64) AppleWebKit/537.36 (KHTML, like Gecko) Chrome/79.0.3945.88 Safari/537.36",22,"[0.9, 0.5, 0.1]","[0.8, 0.4, 0.2]","[u'red', u'blue', u'black']","[u'left', u'middle', u'right']","[0.9, 0.5, 0.1]","[u'medium', u'low', u'high']","red",49,"left","medium","True","False",314,1600,NA
"A1HWB810RJBV2K","Thu Jan 30 2020 08:46:30 GMT-0500 (Eastern Standard Time)","Thu Jan 30 2020 08:53:26 GMT-0500 (Eastern Standard Time)","Mozilla/5.0 (Windows NT 6.1; Win64; x64) AppleWebKit/537.36 (KHTML, like Gecko) Chrome/79.0.3945.88 Safari/537.36",23,"[0.9, 0.5, 0.1]","[0.8, 0.4, 0.2]","[u'red', u'blue', u'black']","[u'left', u'middle', u'right']","[0.9, 0.5, 0.1]","[u'medium', u'low', u'high']","red",49,"left","medium","False","False",316,1550,NA
"A1HWB810RJBV2K","Thu Jan 30 2020 08:46:30 GMT-0500 (Eastern Standard Time)","Thu Jan 30 2020 08:53:26 GMT-0500 (Eastern Standard Time)","Mozilla/5.0 (Windows NT 6.1; Win64; x64) AppleWebKit/537.36 (KHTML, like Gecko) Chrome/79.0.3945.88 Safari/537.36",24,"[0.9, 0.5, 0.1]","[0.8, 0.4, 0.2]","[u'red', u'blue', u'black']","[u'left', u'middle', u'right']","[0.9, 0.5, 0.1]","[u'medium', u'low', u'high']","blue",50,"middle","low","False","False",310,1500,NA
"A1HWB810RJBV2K","Thu Jan 30 2020 08:46:30 GMT-0500 (Eastern Standard Time)","Thu Jan 30 2020 08:53:26 GMT-0500 (Eastern Standard Time)","Mozilla/5.0 (Windows NT 6.1; Win64; x64) AppleWebKit/537.36 (KHTML, like Gecko) Chrome/79.0.3945.88 Safari/537.36",25,"[0.9, 0.5, 0.1]","[0.8, 0.4, 0.2]","[u'red', u'blue', u'black']","[u'left', u'middle', u'right']","[0.9, 0.5, 0.1]","[u'medium', u'low', u'high']","black",51,"right","high","True","False",330,1600,NA
"A1HWB810RJBV2K","Thu Jan 30 2020 08:46:30 GMT-0500 (Eastern Standard Time)","Thu Jan 30 2020 08:53:26 GMT-0500 (Eastern Standard Time)","Mozilla/5.0 (Windows NT 6.1; Win64; x64) AppleWebKit/537.36 (KHTML, like Gecko) Chrome/79.0.3945.88 Safari/537.36",26,"[0.9, 0.5, 0.1]","[0.8, 0.4, 0.2]","[u'red', u'blue', u'black']","[u'left', u'middle', u'right']","[0.9, 0.5, 0.1]","[u'medium', u'low', u'high']","black",51,"right","high","False","False",376,1550,NA
"A1HWB810RJBV2K","Thu Jan 30 2020 08:46:30 GMT-0500 (Eastern Standard Time)","Thu Jan 30 2020 08:53:26 GMT-0500 (Eastern Standard Time)","Mozilla/5.0 (Windows NT 6.1; Win64; x64) AppleWebKit/537.36 (KHTML, like Gecko) Chrome/79.0.3945.88 Safari/537.36",27,"[0.9, 0.5, 0.1]","[0.8, 0.4, 0.2]","[u'red', u'blue', u'black']","[u'left', u'middle', u'right']","[0.9, 0.5, 0.1]","[u'medium', u'low', u'high']","blue",50,"middle","low","False","False",285,1500,NA
"A1HWB810RJBV2K","Thu Jan 30 2020 08:46:30 GMT-0500 (Eastern Standard Time)","Thu Jan 30 2020 08:53:26 GMT-0500 (Eastern Standard Time)","Mozilla/5.0 (Windows NT 6.1; Win64; x64) AppleWebKit/537.36 (KHTML, like Gecko) Chrome/79.0.3945.88 Safari/537.36",28,"[0.9, 0.5, 0.1]","[0.8, 0.4, 0.2]","[u'red', u'blue', u'black']","[u'left', u'middle', u'right']","[0.9, 0.5, 0.1]","[u'medium', u'low', u'high']","red",49,"left","medium","False","False",306,1450,NA
"A1HWB810RJBV2K","Thu Jan 30 2020 08:46:30 GMT-0500 (Eastern Standard Time)","Thu Jan 30 2020 08:53:26 GMT-0500 (Eastern Standard Time)","Mozilla/5.0 (Windows NT 6.1; Win64; x64) AppleWebKit/537.36 (KHTML, like Gecko) Chrome/79.0.3945.88 Safari/537.36",29,"[0.9, 0.5, 0.1]","[0.8, 0.4, 0.2]","[u'red', u'blue', u'black']","[u'left', u'middle', u'right']","[0.9, 0.5, 0.1]","[u'medium', u'low', u'high']","black",51,"right","high","False","False",289,1400,NA
"A1HWB810RJBV2K","Thu Jan 30 2020 08:46:30 GMT-0500 (Eastern Standard Time)","Thu Jan 30 2020 08:53:26 GMT-0500 (Eastern Standard Time)","Mozilla/5.0 (Windows NT 6.1; Win64; x64) AppleWebKit/537.36 (KHTML, like Gecko) Chrome/79.0.3945.88 Safari/537.36",30,"[0.9, 0.5, 0.1]","[0.8, 0.4, 0.2]","[u'red', u'blue', u'black']","[u'left', u'middle', u'right']","[0.9, 0.5, 0.1]","[u'medium', u'low', u'high']","black",51,"right","high","False","False",317,1350,NA
"A1HWB810RJBV2K","Thu Jan 30 2020 08:46:30 GMT-0500 (Eastern Standard Time)","Thu Jan 30 2020 08:53:26 GMT-0500 (Eastern Standard Time)","Mozilla/5.0 (Windows NT 6.1; Win64; x64) AppleWebKit/537.36 (KHTML, like Gecko) Chrome/79.0.3945.88 Safari/537.36",31,"[0.9, 0.5, 0.1]","[0.8, 0.4, 0.2]","[u'red', u'blue', u'black']","[u'left', u'middle', u'right']","[0.9, 0.5, 0.1]","[u'medium', u'low', u'high']","blue",50,"middle","low","False","False",283,1300,NA
"A1HWB810RJBV2K","Thu Jan 30 2020 08:46:30 GMT-0500 (Eastern Standard Time)","Thu Jan 30 2020 08:53:26 GMT-0500 (Eastern Standard Time)","Mozilla/5.0 (Windows NT 6.1; Win64; x64) AppleWebKit/537.36 (KHTML, like Gecko) Chrome/79.0.3945.88 Safari/537.36",32,"[0.9, 0.5, 0.1]","[0.8, 0.4, 0.2]","[u'red', u'blue', u'black']","[u'left', u'middle', u'right']","[0.9, 0.5, 0.1]","[u'medium', u'low', u'high']","black",51,"right","high","True","False",459,1400,NA
"A1HWB810RJBV2K","Thu Jan 30 2020 08:46:30 GMT-0500 (Eastern Standard Time)","Thu Jan 30 2020 08:53:26 GMT-0500 (Eastern Standard Time)","Mozilla/5.0 (Windows NT 6.1; Win64; x64) AppleWebKit/537.36 (KHTML, like Gecko) Chrome/79.0.3945.88 Safari/537.36",33,"[0.9, 0.5, 0.1]","[0.8, 0.4, 0.2]","[u'red', u'blue', u'black']","[u'left', u'middle', u'right']","[0.9, 0.5, 0.1]","[u'medium', u'low', u'high']","black",51,"right","high","True","False",362,1500,NA
"A1HWB810RJBV2K","Thu Jan 30 2020 08:46:30 GMT-0500 (Eastern Standard Time)","Thu Jan 30 2020 08:53:26 GMT-0500 (Eastern Standard Time)","Mozilla/5.0 (Windows NT 6.1; Win64; x64) AppleWebKit/537.36 (KHTML, like Gecko) Chrome/79.0.3945.88 Safari/537.36",34,"[0.9, 0.5, 0.1]","[0.8, 0.4, 0.2]","[u'red', u'blue', u'black']","[u'left', u'middle', u'right']","[0.9, 0.5, 0.1]","[u'medium', u'low', u'high']","black",51,"right","high","True","False",483,1600,NA
"A1HWB810RJBV2K","Thu Jan 30 2020 08:46:30 GMT-0500 (Eastern Standard Time)","Thu Jan 30 2020 08:53:26 GMT-0500 (Eastern Standard Time)","Mozilla/5.0 (Windows NT 6.1; Win64; x64) AppleWebKit/537.36 (KHTML, like Gecko) Chrome/79.0.3945.88 Safari/537.36",35,"[0.9, 0.5, 0.1]","[0.8, 0.4, 0.2]","[u'red', u'blue', u'black']","[u'left', u'middle', u'right']","[0.9, 0.5, 0.1]","[u'medium', u'low', u'high']","black",51,"right","high","True","False",338,1700,NA
"A1HWB810RJBV2K","Thu Jan 30 2020 08:46:30 GMT-0500 (Eastern Standard Time)","Thu Jan 30 2020 08:53:26 GMT-0500 (Eastern Standard Time)","Mozilla/5.0 (Windows NT 6.1; Win64; x64) AppleWebKit/537.36 (KHTML, like Gecko) Chrome/79.0.3945.88 Safari/537.36",36,"[0.9, 0.5, 0.1]","[0.8, 0.4, 0.2]","[u'red', u'blue', u'black']","[u'left', u'middle', u'right']","[0.9, 0.5, 0.1]","[u'medium', u'low', u'high']","black",51,"right","high","True","False",235,1800,NA
"A1HWB810RJBV2K","Thu Jan 30 2020 08:46:30 GMT-0500 (Eastern Standard Time)","Thu Jan 30 2020 08:53:26 GMT-0500 (Eastern Standard Time)","Mozilla/5.0 (Windows NT 6.1; Win64; x64) AppleWebKit/537.36 (KHTML, like Gecko) Chrome/79.0.3945.88 Safari/537.36",37,"[0.9, 0.5, 0.1]","[0.8, 0.4, 0.2]","[u'red', u'blue', u'black']","[u'left', u'middle', u'right']","[0.9, 0.5, 0.1]","[u'medium', u'low', u'high']","black",51,"right","high","True","False",318,1900,NA
"A1HWB810RJBV2K","Thu Jan 30 2020 08:46:30 GMT-0500 (Eastern Standard Time)","Thu Jan 30 2020 08:53:26 GMT-0500 (Eastern Standard Time)","Mozilla/5.0 (Windows NT 6.1; Win64; x64) AppleWebKit/537.36 (KHTML, like Gecko) Chrome/79.0.3945.88 Safari/537.36",38,"[0.9, 0.5, 0.1]","[0.8, 0.4, 0.2]","[u'red', u'blue', u'black']","[u'left', u'middle', u'right']","[0.9, 0.5, 0.1]","[u'medium', u'low', u'high']","black",51,"right","high","True","True",276,2000,NA
"A1HWB810RJBV2K","Thu Jan 30 2020 08:46:30 GMT-0500 (Eastern Standard Time)","Thu Jan 30 2020 08:53:26 GMT-0500 (Eastern Standard Time)","Mozilla/5.0 (Windows NT 6.1; Win64; x64) AppleWebKit/537.36 (KHTML, like Gecko) Chrome/79.0.3945.88 Safari/537.36",39,"[0.9, 0.5, 0.1]","[0.8, 0.4, 0.2]","[u'red', u'blue', u'black']","[u'left', u'middle', u'right']","[0.9, 0.5, 0.1]","[u'medium', u'high', u'low']","black",51,"right","low","False","False",287,1950,NA
"A1HWB810RJBV2K","Thu Jan 30 2020 08:46:30 GMT-0500 (Eastern Standard Time)","Thu Jan 30 2020 08:53:26 GMT-0500 (Eastern Standard Time)","Mozilla/5.0 (Windows NT 6.1; Win64; x64) AppleWebKit/537.36 (KHTML, like Gecko) Chrome/79.0.3945.88 Safari/537.36",40,"[0.9, 0.5, 0.1]","[0.8, 0.4, 0.2]","[u'red', u'blue', u'black']","[u'left', u'middle', u'right']","[0.9, 0.5, 0.1]","[u'medium', u'high', u'low']","red",49,"left","medium","True","False",317,2050,NA
"A1HWB810RJBV2K","Thu Jan 30 2020 08:46:30 GMT-0500 (Eastern Standard Time)","Thu Jan 30 2020 08:53:26 GMT-0500 (Eastern Standard Time)","Mozilla/5.0 (Windows NT 6.1; Win64; x64) AppleWebKit/537.36 (KHTML, like Gecko) Chrome/79.0.3945.88 Safari/537.36",41,"[0.9, 0.5, 0.1]","[0.8, 0.4, 0.2]","[u'red', u'blue', u'black']","[u'left', u'middle', u'right']","[0.9, 0.5, 0.1]","[u'medium', u'low', u'high']","red",49,"left","medium","False","False",457,2000,NA
"A1HWB810RJBV2K","Thu Jan 30 2020 08:46:30 GMT-0500 (Eastern Standard Time)","Thu Jan 30 2020 08:53:26 GMT-0500 (Eastern Standard Time)","Mozilla/5.0 (Windows NT 6.1; Win64; x64) AppleWebKit/537.36 (KHTML, like Gecko) Chrome/79.0.3945.88 Safari/537.36",42,"[0.9, 0.5, 0.1]","[0.8, 0.4, 0.2]","[u'red', u'blue', u'black']","[u'left', u'middle', u'right']","[0.9, 0.5, 0.1]","[u'medium', u'low', u'high']","black",51,"right","high","False","False",280,1950,NA
"A1HWB810RJBV2K","Thu Jan 30 2020 08:46:30 GMT-0500 (Eastern Standard Time)","Thu Jan 30 2020 08:53:26 GMT-0500 (Eastern Standard Time)","Mozilla/5.0 (Windows NT 6.1; Win64; x64) AppleWebKit/537.36 (KHTML, like Gecko) Chrome/79.0.3945.88 Safari/537.36",43,"[0.9, 0.5, 0.1]","[0.8, 0.4, 0.2]","[u'red', u'blue', u'black']","[u'left', u'middle', u'right']","[0.9, 0.5, 0.1]","[u'medium', u'low', u'high']","blue",50,"middle","low","False","False",220,1900,NA
"A1HWB810RJBV2K","Thu Jan 30 2020 08:46:30 GMT-0500 (Eastern Standard Time)","Thu Jan 30 2020 08:53:26 GMT-0500 (Eastern Standard Time)","Mozilla/5.0 (Windows NT 6.1; Win64; x64) AppleWebKit/537.36 (KHTML, like Gecko) Chrome/79.0.3945.88 Safari/537.36",44,"[0.9, 0.5, 0.1]","[0.8, 0.4, 0.2]","[u'red', u'blue', u'black']","[u'left', u'middle', u'right']","[0.9, 0.5, 0.1]","[u'medium', u'low', u'high']","black",51,"right","high","True","False",260,2000,NA
"A1HWB810RJBV2K","Thu Jan 30 2020 08:46:30 GMT-0500 (Eastern Standard Time)","Thu Jan 30 2020 08:53:26 GMT-0500 (Eastern Standard Time)","Mozilla/5.0 (Windows NT 6.1; Win64; x64) AppleWebKit/537.36 (KHTML, like Gecko) Chrome/79.0.3945.88 Safari/537.36",45,"[0.9, 0.5, 0.1]","[0.8, 0.4, 0.2]","[u'red', u'blue', u'black']","[u'left', u'middle', u'right']","[0.9, 0.5, 0.1]","[u'medium', u'low', u'high']","black",51,"right","high","False","False",302,1950,NA
"A1HWB810RJBV2K","Thu Jan 30 2020 08:46:30 GMT-0500 (Eastern Standard Time)","Thu Jan 30 2020 08:53:26 GMT-0500 (Eastern Standard Time)","Mozilla/5.0 (Windows NT 6.1; Win64; x64) AppleWebKit/537.36 (KHTML, like Gecko) Chrome/79.0.3945.88 Safari/537.36",46,"[0.9, 0.5, 0.1]","[0.8, 0.4, 0.2]","[u'red', u'blue', u'black']","[u'left', u'middle', u'right']","[0.9, 0.5, 0.1]","[u'medium', u'low', u'high']","red",49,"left","medium","False","False",285,1900,NA
"A1HWB810RJBV2K","Thu Jan 30 2020 08:46:30 GMT-0500 (Eastern Standard Time)","Thu Jan 30 2020 08:53:26 GMT-0500 (Eastern Standard Time)","Mozilla/5.0 (Windows NT 6.1; Win64; x64) AppleWebKit/537.36 (KHTML, like Gecko) Chrome/79.0.3945.88 Safari/537.36",47,"[0.9, 0.5, 0.1]","[0.8, 0.4, 0.2]","[u'red', u'blue', u'black']","[u'left', u'middle', u'right']","[0.9, 0.5, 0.1]","[u'medium', u'low', u'high']","blue",50,"middle","low","False","False",281,1850,NA
"A1HWB810RJBV2K","Thu Jan 30 2020 08:46:30 GMT-0500 (Eastern Standard Time)","Thu Jan 30 2020 08:53:26 GMT-0500 (Eastern Standard Time)","Mozilla/5.0 (Windows NT 6.1; Win64; x64) AppleWebKit/537.36 (KHTML, like Gecko) Chrome/79.0.3945.88 Safari/537.36",48,"[0.9, 0.5, 0.1]","[0.8, 0.4, 0.2]","[u'red', u'blue', u'black']","[u'left', u'middle', u'right']","[0.9, 0.5, 0.1]","[u'medium', u'low', u'high']","black",51,"right","high","True","False",276,1950,NA
"A1HWB810RJBV2K","Thu Jan 30 2020 08:46:30 GMT-0500 (Eastern Standard Time)","Thu Jan 30 2020 08:53:26 GMT-0500 (Eastern Standard Time)","Mozilla/5.0 (Windows NT 6.1; Win64; x64) AppleWebKit/537.36 (KHTML, like Gecko) Chrome/79.0.3945.88 Safari/537.36",49,"[0.9, 0.5, 0.1]","[0.8, 0.4, 0.2]","[u'red', u'blue', u'black']","[u'left', u'middle', u'right']","[0.9, 0.5, 0.1]","[u'medium', u'low', u'high']","black",51,"right","high","False","False",313,1900,NA
"A1HWB810RJBV2K","Thu Jan 30 2020 08:46:30 GMT-0500 (Eastern Standard Time)","Thu Jan 30 2020 08:53:26 GMT-0500 (Eastern Standard Time)","Mozilla/5.0 (Windows NT 6.1; Win64; x64) AppleWebKit/537.36 (KHTML, like Gecko) Chrome/79.0.3945.88 Safari/537.36",50,"[0.9, 0.5, 0.1]","[0.8, 0.4, 0.2]","[u'red', u'blue', u'black']","[u'left', u'middle', u'right']","[0.9, 0.5, 0.1]","[u'medium', u'low', u'high']","blue",50,"middle","low","False","False",62,1850,NA
"A1HWB810RJBV2K","Thu Jan 30 2020 08:46:30 GMT-0500 (Eastern Standard Time)","Thu Jan 30 2020 08:53:26 GMT-0500 (Eastern Standard Time)","Mozilla/5.0 (Windows NT 6.1; Win64; x64) AppleWebKit/537.36 (KHTML, like Gecko) Chrome/79.0.3945.88 Safari/537.36",51,"[0.9, 0.5, 0.1]","[0.8, 0.4, 0.2]","[u'red', u'blue', u'black']","[u'left', u'middle', u'right']","[0.9, 0.5, 0.1]","[u'medium', u'low', u'high']","black",51,"right","high","True","False",306,1950,NA
"A1HWB810RJBV2K","Thu Jan 30 2020 08:46:30 GMT-0500 (Eastern Standard Time)","Thu Jan 30 2020 08:53:26 GMT-0500 (Eastern Standard Time)","Mozilla/5.0 (Windows NT 6.1; Win64; x64) AppleWebKit/537.36 (KHTML, like Gecko) Chrome/79.0.3945.88 Safari/537.36",52,"[0.9, 0.5, 0.1]","[0.8, 0.4, 0.2]","[u'red', u'blue', u'black']","[u'left', u'middle', u'right']","[0.9, 0.5, 0.1]","[u'medium', u'low', u'high']","black",51,"right","high","True","False",434,2050,NA
"A1HWB810RJBV2K","Thu Jan 30 2020 08:46:30 GMT-0500 (Eastern Standard Time)","Thu Jan 30 2020 08:53:26 GMT-0500 (Eastern Standard Time)","Mozilla/5.0 (Windows NT 6.1; Win64; x64) AppleWebKit/537.36 (KHTML, like Gecko) Chrome/79.0.3945.88 Safari/537.36",53,"[0.9, 0.5, 0.1]","[0.8, 0.4, 0.2]","[u'red', u'blue', u'black']","[u'left', u'middle', u'right']","[0.9, 0.5, 0.1]","[u'medium', u'low', u'high']","black",51,"right","high","True","False",296,2150,NA
"A1HWB810RJBV2K","Thu Jan 30 2020 08:46:30 GMT-0500 (Eastern Standard Time)","Thu Jan 30 2020 08:53:26 GMT-0500 (Eastern Standard Time)","Mozilla/5.0 (Windows NT 6.1; Win64; x64) AppleWebKit/537.36 (KHTML, like Gecko) Chrome/79.0.3945.88 Safari/537.36",54,"[0.9, 0.5, 0.1]","[0.8, 0.4, 0.2]","[u'red', u'blue', u'black']","[u'left', u'middle', u'right']","[0.9, 0.5, 0.1]","[u'medium', u'low', u'high']","black",51,"right","high","True","False",310,2250,NA
"A1HWB810RJBV2K","Thu Jan 30 2020 08:46:30 GMT-0500 (Eastern Standard Time)","Thu Jan 30 2020 08:53:26 GMT-0500 (Eastern Standard Time)","Mozilla/5.0 (Windows NT 6.1; Win64; x64) AppleWebKit/537.36 (KHTML, like Gecko) Chrome/79.0.3945.88 Safari/537.36",55,"[0.9, 0.5, 0.1]","[0.8, 0.4, 0.2]","[u'red', u'blue', u'black']","[u'left', u'middle', u'right']","[0.9, 0.5, 0.1]","[u'medium', u'low', u'high']","black",51,"right","high","True","False",377,2350,NA
"A1HWB810RJBV2K","Thu Jan 30 2020 08:46:30 GMT-0500 (Eastern Standard Time)","Thu Jan 30 2020 08:53:26 GMT-0500 (Eastern Standard Time)","Mozilla/5.0 (Windows NT 6.1; Win64; x64) AppleWebKit/537.36 (KHTML, like Gecko) Chrome/79.0.3945.88 Safari/537.36",56,"[0.9, 0.5, 0.1]","[0.8, 0.4, 0.2]","[u'red', u'blue', u'black']","[u'left', u'middle', u'right']","[0.9, 0.5, 0.1]","[u'medium', u'low', u'high']","black",51,"right","high","True","False",413,2450,NA
"A1HWB810RJBV2K","Thu Jan 30 2020 08:46:30 GMT-0500 (Eastern Standard Time)","Thu Jan 30 2020 08:53:26 GMT-0500 (Eastern Standard Time)","Mozilla/5.0 (Windows NT 6.1; Win64; x64) AppleWebKit/537.36 (KHTML, like Gecko) Chrome/79.0.3945.88 Safari/537.36",57,"[0.9, 0.5, 0.1]","[0.8, 0.4, 0.2]","[u'red', u'blue', u'black']","[u'left', u'middle', u'right']","[0.9, 0.5, 0.1]","[u'medium', u'low', u'high']","black",51,"right","high","True","True",351,2550,NA
"A1HWB810RJBV2K","Thu Jan 30 2020 08:46:30 GMT-0500 (Eastern Standard Time)","Thu Jan 30 2020 08:53:26 GMT-0500 (Eastern Standard Time)","Mozilla/5.0 (Windows NT 6.1; Win64; x64) AppleWebKit/537.36 (KHTML, like Gecko) Chrome/79.0.3945.88 Safari/537.36",58,"[0.9, 0.5, 0.1]","[0.8, 0.4, 0.2]","[u'red', u'blue', u'black']","[u'left', u'middle', u'right']","[0.9, 0.5, 0.1]","[u'low', u'high', u'medium']","black",51,"right","medium","False","False",392,2500,NA
"A1HWB810RJBV2K","Thu Jan 30 2020 08:46:30 GMT-0500 (Eastern Standard Time)","Thu Jan 30 2020 08:53:26 GMT-0500 (Eastern Standard Time)","Mozilla/5.0 (Windows NT 6.1; Win64; x64) AppleWebKit/537.36 (KHTML, like Gecko) Chrome/79.0.3945.88 Safari/537.36",59,"[0.9, 0.5, 0.1]","[0.8, 0.4, 0.2]","[u'red', u'blue', u'black']","[u'left', u'middle', u'right']","[0.9, 0.5, 0.1]","[u'low', u'high', u'medium']","red",49,"left","low","False","False",295,2450,NA
"A1HWB810RJBV2K","Thu Jan 30 2020 08:46:30 GMT-0500 (Eastern Standard Time)","Thu Jan 30 2020 08:53:26 GMT-0500 (Eastern Standard Time)","Mozilla/5.0 (Windows NT 6.1; Win64; x64) AppleWebKit/537.36 (KHTML, like Gecko) Chrome/79.0.3945.88 Safari/537.36",60,"[0.9, 0.5, 0.1]","[0.8, 0.4, 0.2]","[u'red', u'blue', u'black']","[u'left', u'middle', u'right']","[0.9, 0.5, 0.1]","[u'low', u'high', u'medium']","black",51,"right","medium","True","False",271,2550,NA
"A1HWB810RJBV2K","Thu Jan 30 2020 08:46:30 GMT-0500 (Eastern Standard Time)","Thu Jan 30 2020 08:53:26 GMT-0500 (Eastern Standard Time)","Mozilla/5.0 (Windows NT 6.1; Win64; x64) AppleWebKit/537.36 (KHTML, like Gecko) Chrome/79.0.3945.88 Safari/537.36",61,"[0.9, 0.5, 0.1]","[0.8, 0.4, 0.2]","[u'red', u'blue', u'black']","[u'left', u'middle', u'right']","[0.9, 0.5, 0.1]","[u'low', u'high', u'medium']","black",51,"right","medium","True","False",338,2650,NA
"A1HWB810RJBV2K","Thu Jan 30 2020 08:46:30 GMT-0500 (Eastern Standard Time)","Thu Jan 30 2020 08:53:26 GMT-0500 (Eastern Standard Time)","Mozilla/5.0 (Windows NT 6.1; Win64; x64) AppleWebKit/537.36 (KHTML, like Gecko) Chrome/79.0.3945.88 Safari/537.36",62,"[0.9, 0.5, 0.1]","[0.8, 0.4, 0.2]","[u'red', u'blue', u'black']","[u'left', u'middle', u'right']","[0.9, 0.5, 0.1]","[u'low', u'high', u'medium']","black",51,"right","medium","True","False",250,2750,NA
"A1HWB810RJBV2K","Thu Jan 30 2020 08:46:30 GMT-0500 (Eastern Standard Time)","Thu Jan 30 2020 08:53:26 GMT-0500 (Eastern Standard Time)","Mozilla/5.0 (Windows NT 6.1; Win64; x64) AppleWebKit/537.36 (KHTML, like Gecko) Chrome/79.0.3945.88 Safari/537.36",63,"[0.9, 0.5, 0.1]","[0.8, 0.4, 0.2]","[u'red', u'blue', u'black']","[u'left', u'middle', u'right']","[0.9, 0.5, 0.1]","[u'low', u'high', u'medium']","black",51,"right","medium","True","False",253,2850,NA
"A1HWB810RJBV2K","Thu Jan 30 2020 08:46:30 GMT-0500 (Eastern Standard Time)","Thu Jan 30 2020 08:53:26 GMT-0500 (Eastern Standard Time)","Mozilla/5.0 (Windows NT 6.1; Win64; x64) AppleWebKit/537.36 (KHTML, like Gecko) Chrome/79.0.3945.88 Safari/537.36",64,"[0.9, 0.5, 0.1]","[0.8, 0.4, 0.2]","[u'red', u'blue', u'black']","[u'left', u'middle', u'right']","[0.9, 0.5, 0.1]","[u'low', u'high', u'medium']","black",51,"right","medium","True","False",286,2950,NA
"A1HWB810RJBV2K","Thu Jan 30 2020 08:46:30 GMT-0500 (Eastern Standard Time)","Thu Jan 30 2020 08:53:26 GMT-0500 (Eastern Standard Time)","Mozilla/5.0 (Windows NT 6.1; Win64; x64) AppleWebKit/537.36 (KHTML, like Gecko) Chrome/79.0.3945.88 Safari/537.36",65,"[0.9, 0.5, 0.1]","[0.8, 0.4, 0.2]","[u'red', u'blue', u'black']","[u'left', u'middle', u'right']","[0.9, 0.5, 0.1]","[u'low', u'high', u'medium']","black",51,"right","medium","False","False",247,2900,NA
"A1HWB810RJBV2K","Thu Jan 30 2020 08:46:30 GMT-0500 (Eastern Standard Time)","Thu Jan 30 2020 08:53:26 GMT-0500 (Eastern Standard Time)","Mozilla/5.0 (Windows NT 6.1; Win64; x64) AppleWebKit/537.36 (KHTML, like Gecko) Chrome/79.0.3945.88 Safari/537.36",66,"[0.9, 0.5, 0.1]","[0.8, 0.4, 0.2]","[u'red', u'blue', u'black']","[u'left', u'middle', u'right']","[0.9, 0.5, 0.1]","[u'low', u'high', u'medium']","red",49,"left","low","False","False",228,2850,NA
"A1HWB810RJBV2K","Thu Jan 30 2020 08:46:30 GMT-0500 (Eastern Standard Time)","Thu Jan 30 2020 08:53:26 GMT-0500 (Eastern Standard Time)","Mozilla/5.0 (Windows NT 6.1; Win64; x64) AppleWebKit/537.36 (KHTML, like Gecko) Chrome/79.0.3945.88 Safari/537.36",67,"[0.9, 0.5, 0.1]","[0.8, 0.4, 0.2]","[u'red', u'blue', u'black']","[u'left', u'middle', u'right']","[0.9, 0.5, 0.1]","[u'low', u'high', u'medium']","blue",50,"middle","high","True","False",170,2950,NA
"A1HWB810RJBV2K","Thu Jan 30 2020 08:46:30 GMT-0500 (Eastern Standard Time)","Thu Jan 30 2020 08:53:26 GMT-0500 (Eastern Standard Time)","Mozilla/5.0 (Windows NT 6.1; Win64; x64) AppleWebKit/537.36 (KHTML, like Gecko) Chrome/79.0.3945.88 Safari/537.36",68,"[0.9, 0.5, 0.1]","[0.8, 0.4, 0.2]","[u'red', u'blue', u'black']","[u'left', u'middle', u'right']","[0.9, 0.5, 0.1]","[u'low', u'high', u'medium']","blue",50,"middle","high","True","False",216,3050,NA
"A1HWB810RJBV2K","Thu Jan 30 2020 08:46:30 GMT-0500 (Eastern Standard Time)","Thu Jan 30 2020 08:53:26 GMT-0500 (Eastern Standard Time)","Mozilla/5.0 (Windows NT 6.1; Win64; x64) AppleWebKit/537.36 (KHTML, like Gecko) Chrome/79.0.3945.88 Safari/537.36",69,"[0.9, 0.5, 0.1]","[0.8, 0.4, 0.2]","[u'red', u'blue', u'black']","[u'left', u'middle', u'right']","[0.9, 0.5, 0.1]","[u'low', u'high', u'medium']","blue",50,"middle","high","True","False",311,3150,NA
"A1HWB810RJBV2K","Thu Jan 30 2020 08:46:30 GMT-0500 (Eastern Standard Time)","Thu Jan 30 2020 08:53:26 GMT-0500 (Eastern Standard Time)","Mozilla/5.0 (Windows NT 6.1; Win64; x64) AppleWebKit/537.36 (KHTML, like Gecko) Chrome/79.0.3945.88 Safari/537.36",70,"[0.9, 0.5, 0.1]","[0.8, 0.4, 0.2]","[u'red', u'blue', u'black']","[u'left', u'middle', u'right']","[0.9, 0.5, 0.1]","[u'low', u'high', u'medium']","blue",50,"middle","high","True","False",335,3250,NA
"A1HWB810RJBV2K","Thu Jan 30 2020 08:46:30 GMT-0500 (Eastern Standard Time)","Thu Jan 30 2020 08:53:26 GMT-0500 (Eastern Standard Time)","Mozilla/5.0 (Windows NT 6.1; Win64; x64) AppleWebKit/537.36 (KHTML, like Gecko) Chrome/79.0.3945.88 Safari/537.36",71,"[0.9, 0.5, 0.1]","[0.8, 0.4, 0.2]","[u'red', u'blue', u'black']","[u'left', u'middle', u'right']","[0.9, 0.5, 0.1]","[u'low', u'high', u'medium']","blue",50,"middle","high","True","False",209,3350,NA
"A1HWB810RJBV2K","Thu Jan 30 2020 08:46:30 GMT-0500 (Eastern Standard Time)","Thu Jan 30 2020 08:53:26 GMT-0500 (Eastern Standard Time)","Mozilla/5.0 (Windows NT 6.1; Win64; x64) AppleWebKit/537.36 (KHTML, like Gecko) Chrome/79.0.3945.88 Safari/537.36",72,"[0.9, 0.5, 0.1]","[0.8, 0.4, 0.2]","[u'red', u'blue', u'black']","[u'left', u'middle', u'right']","[0.9, 0.5, 0.1]","[u'low', u'high', u'medium']","blue",50,"middle","high","True","False",75,3450,NA
"A1HWB810RJBV2K","Thu Jan 30 2020 08:46:30 GMT-0500 (Eastern Standard Time)","Thu Jan 30 2020 08:53:26 GMT-0500 (Eastern Standard Time)","Mozilla/5.0 (Windows NT 6.1; Win64; x64) AppleWebKit/537.36 (KHTML, like Gecko) Chrome/79.0.3945.88 Safari/537.36",73,"[0.9, 0.5, 0.1]","[0.8, 0.4, 0.2]","[u'red', u'blue', u'black']","[u'left', u'middle', u'right']","[0.9, 0.5, 0.1]","[u'low', u'high', u'medium']","blue",50,"middle","high","True","False",175,3550,NA
"A1HWB810RJBV2K","Thu Jan 30 2020 08:46:30 GMT-0500 (Eastern Standard Time)","Thu Jan 30 2020 08:53:26 GMT-0500 (Eastern Standard Time)","Mozilla/5.0 (Windows NT 6.1; Win64; x64) AppleWebKit/537.36 (KHTML, like Gecko) Chrome/79.0.3945.88 Safari/537.36",74,"[0.9, 0.5, 0.1]","[0.8, 0.4, 0.2]","[u'red', u'blue', u'black']","[u'left', u'middle', u'right']","[0.9, 0.5, 0.1]","[u'low', u'high', u'medium']","blue",50,"middle","high","True","False",167,3650,NA
"A1HWB810RJBV2K","Thu Jan 30 2020 08:46:30 GMT-0500 (Eastern Standard Time)","Thu Jan 30 2020 08:53:26 GMT-0500 (Eastern Standard Time)","Mozilla/5.0 (Windows NT 6.1; Win64; x64) AppleWebKit/537.36 (KHTML, like Gecko) Chrome/79.0.3945.88 Safari/537.36",75,"[0.9, 0.5, 0.1]","[0.8, 0.4, 0.2]","[u'red', u'blue', u'black']","[u'left', u'middle', u'right']","[0.9, 0.5, 0.1]","[u'low', u'high', u'medium']","blue",50,"middle","high","True","True",282,3750,NA
"A1HWB810RJBV2K","Thu Jan 30 2020 08:46:30 GMT-0500 (Eastern Standard Time)","Thu Jan 30 2020 08:53:26 GMT-0500 (Eastern Standard Time)","Mozilla/5.0 (Windows NT 6.1; Win64; x64) AppleWebKit/537.36 (KHTML, like Gecko) Chrome/79.0.3945.88 Safari/537.36",76,"[0.9, 0.5, 0.1]","[0.8, 0.4, 0.2]","[u'red', u'blue', u'black']","[u'left', u'middle', u'right']","[0.9, 0.5, 0.1]","[u'low', u'medium', u'high']","blue",50,"middle","medium","True","False",274,3850,NA
"A1HWB810RJBV2K","Thu Jan 30 2020 08:46:30 GMT-0500 (Eastern Standard Time)","Thu Jan 30 2020 08:53:26 GMT-0500 (Eastern Standard Time)","Mozilla/5.0 (Windows NT 6.1; Win64; x64) AppleWebKit/537.36 (KHTML, like Gecko) Chrome/79.0.3945.88 Safari/537.36",77,"[0.9, 0.5, 0.1]","[0.8, 0.4, 0.2]","[u'red', u'blue', u'black']","[u'left', u'middle', u'right']","[0.9, 0.5, 0.1]","[u'low', u'medium', u'high']","blue",50,"middle","medium","True","False",150,3950,NA
"A1HWB810RJBV2K","Thu Jan 30 2020 08:46:30 GMT-0500 (Eastern Standard Time)","Thu Jan 30 2020 08:53:26 GMT-0500 (Eastern Standard Time)","Mozilla/5.0 (Windows NT 6.1; Win64; x64) AppleWebKit/537.36 (KHTML, like Gecko) Chrome/79.0.3945.88 Safari/537.36",78,"[0.9, 0.5, 0.1]","[0.8, 0.4, 0.2]","[u'red', u'blue', u'black']","[u'left', u'middle', u'right']","[0.9, 0.5, 0.1]","[u'low', u'medium', u'high']","blue",50,"middle","medium","False","False",130,3900,NA
"A1HWB810RJBV2K","Thu Jan 30 2020 08:46:30 GMT-0500 (Eastern Standard Time)","Thu Jan 30 2020 08:53:26 GMT-0500 (Eastern Standard Time)","Mozilla/5.0 (Windows NT 6.1; Win64; x64) AppleWebKit/537.36 (KHTML, like Gecko) Chrome/79.0.3945.88 Safari/537.36",79,"[0.9, 0.5, 0.1]","[0.8, 0.4, 0.2]","[u'red', u'blue', u'black']","[u'left', u'middle', u'right']","[0.9, 0.5, 0.1]","[u'low', u'medium', u'high']","black",51,"right","high","True","False",299,4000,NA
"A1HWB810RJBV2K","Thu Jan 30 2020 08:46:30 GMT-0500 (Eastern Standard Time)","Thu Jan 30 2020 08:53:26 GMT-0500 (Eastern Standard Time)","Mozilla/5.0 (Windows NT 6.1; Win64; x64) AppleWebKit/537.36 (KHTML, like Gecko) Chrome/79.0.3945.88 Safari/537.36",80,"[0.9, 0.5, 0.1]","[0.8, 0.4, 0.2]","[u'red', u'blue', u'black']","[u'left', u'middle', u'right']","[0.9, 0.5, 0.1]","[u'low', u'medium', u'high']","black",51,"right","high","True","False",284,4100,NA
"A1HWB810RJBV2K","Thu Jan 30 2020 08:46:30 GMT-0500 (Eastern Standard Time)","Thu Jan 30 2020 08:53:26 GMT-0500 (Eastern Standard Time)","Mozilla/5.0 (Windows NT 6.1; Win64; x64) AppleWebKit/537.36 (KHTML, like Gecko) Chrome/79.0.3945.88 Safari/537.36",81,"[0.9, 0.5, 0.1]","[0.8, 0.4, 0.2]","[u'red', u'blue', u'black']","[u'left', u'middle', u'right']","[0.8, 0.4, 0.2]","[u'high', u'medium', u'low']","red",49,"left","high","True","False",702,4200,NA
"A1HWB810RJBV2K","Thu Jan 30 2020 08:46:30 GMT-0500 (Eastern Standard Time)","Thu Jan 30 2020 08:53:26 GMT-0500 (Eastern Standard Time)","Mozilla/5.0 (Windows NT 6.1; Win64; x64) AppleWebKit/537.36 (KHTML, like Gecko) Chrome/79.0.3945.88 Safari/537.36",82,"[0.9, 0.5, 0.1]","[0.8, 0.4, 0.2]","[u'red', u'blue', u'black']","[u'left', u'middle', u'right']","[0.8, 0.4, 0.2]","[u'high', u'medium', u'low']","red",49,"left","high","True","False",317,4300,NA
"A1HWB810RJBV2K","Thu Jan 30 2020 08:46:30 GMT-0500 (Eastern Standard Time)","Thu Jan 30 2020 08:53:26 GMT-0500 (Eastern Standard Time)","Mozilla/5.0 (Windows NT 6.1; Win64; x64) AppleWebKit/537.36 (KHTML, like Gecko) Chrome/79.0.3945.88 Safari/537.36",83,"[0.9, 0.5, 0.1]","[0.8, 0.4, 0.2]","[u'red', u'blue', u'black']","[u'left', u'middle', u'right']","[0.8, 0.4, 0.2]","[u'high', u'medium', u'low']","red",49,"left","high","True","False",346,4400,NA
"A1HWB810RJBV2K","Thu Jan 30 2020 08:46:30 GMT-0500 (Eastern Standard Time)","Thu Jan 30 2020 08:53:26 GMT-0500 (Eastern Standard Time)","Mozilla/5.0 (Windows NT 6.1; Win64; x64) AppleWebKit/537.36 (KHTML, like Gecko) Chrome/79.0.3945.88 Safari/537.36",84,"[0.9, 0.5, 0.1]","[0.8, 0.4, 0.2]","[u'red', u'blue', u'black']","[u'left', u'middle', u'right']","[0.8, 0.4, 0.2]","[u'high', u'medium', u'low']","red",49,"left","high","True","False",273,4500,NA
"A1HWB810RJBV2K","Thu Jan 30 2020 08:46:30 GMT-0500 (Eastern Standard Time)","Thu Jan 30 2020 08:53:26 GMT-0500 (Eastern Standard Time)","Mozilla/5.0 (Windows NT 6.1; Win64; x64) AppleWebKit/537.36 (KHTML, like Gecko) Chrome/79.0.3945.88 Safari/537.36",85,"[0.9, 0.5, 0.1]","[0.8, 0.4, 0.2]","[u'red', u'blue', u'black']","[u'left', u'middle', u'right']","[0.8, 0.4, 0.2]","[u'high', u'medium', u'low']","red",49,"left","high","True","False",294,4600,NA
"A1HWB810RJBV2K","Thu Jan 30 2020 08:46:30 GMT-0500 (Eastern Standard Time)","Thu Jan 30 2020 08:53:26 GMT-0500 (Eastern Standard Time)","Mozilla/5.0 (Windows NT 6.1; Win64; x64) AppleWebKit/537.36 (KHTML, like Gecko) Chrome/79.0.3945.88 Safari/537.36",86,"[0.9, 0.5, 0.1]","[0.8, 0.4, 0.2]","[u'red', u'blue', u'black']","[u'left', u'middle', u'right']","[0.8, 0.4, 0.2]","[u'high', u'medium', u'low']","red",49,"left","high","True","False",215,4700,NA
"A1HWB810RJBV2K","Thu Jan 30 2020 08:46:30 GMT-0500 (Eastern Standard Time)","Thu Jan 30 2020 08:53:26 GMT-0500 (Eastern Standard Time)","Mozilla/5.0 (Windows NT 6.1; Win64; x64) AppleWebKit/537.36 (KHTML, like Gecko) Chrome/79.0.3945.88 Safari/537.36",87,"[0.9, 0.5, 0.1]","[0.8, 0.4, 0.2]","[u'red', u'blue', u'black']","[u'left', u'middle', u'right']","[0.8, 0.4, 0.2]","[u'high', u'medium', u'low']","red",49,"left","high","True","False",328,4800,NA
"A1HWB810RJBV2K","Thu Jan 30 2020 08:46:30 GMT-0500 (Eastern Standard Time)","Thu Jan 30 2020 08:53:26 GMT-0500 (Eastern Standard Time)","Mozilla/5.0 (Windows NT 6.1; Win64; x64) AppleWebKit/537.36 (KHTML, like Gecko) Chrome/79.0.3945.88 Safari/537.36",88,"[0.9, 0.5, 0.1]","[0.8, 0.4, 0.2]","[u'red', u'blue', u'black']","[u'left', u'middle', u'right']","[0.8, 0.4, 0.2]","[u'high', u'medium', u'low']","red",49,"left","high","False","False",258,4750,NA
"A1HWB810RJBV2K","Thu Jan 30 2020 08:46:30 GMT-0500 (Eastern Standard Time)","Thu Jan 30 2020 08:53:26 GMT-0500 (Eastern Standard Time)","Mozilla/5.0 (Windows NT 6.1; Win64; x64) AppleWebKit/537.36 (KHTML, like Gecko) Chrome/79.0.3945.88 Safari/537.36",89,"[0.9, 0.5, 0.1]","[0.8, 0.4, 0.2]","[u'red', u'blue', u'black']","[u'left', u'middle', u'right']","[0.8, 0.4, 0.2]","[u'high', u'medium', u'low']","black",51,"right","low","False","False",364,4700,NA
"A1HWB810RJBV2K","Thu Jan 30 2020 08:46:30 GMT-0500 (Eastern Standard Time)","Thu Jan 30 2020 08:53:26 GMT-0500 (Eastern Standard Time)","Mozilla/5.0 (Windows NT 6.1; Win64; x64) AppleWebKit/537.36 (KHTML, like Gecko) Chrome/79.0.3945.88 Safari/537.36",90,"[0.9, 0.5, 0.1]","[0.8, 0.4, 0.2]","[u'red', u'blue', u'black']","[u'left', u'middle', u'right']","[0.8, 0.4, 0.2]","[u'high', u'medium', u'low']","blue",50,"middle","medium","False","False",313,4650,NA
"A1HWB810RJBV2K","Thu Jan 30 2020 08:46:30 GMT-0500 (Eastern Standard Time)","Thu Jan 30 2020 08:53:26 GMT-0500 (Eastern Standard Time)","Mozilla/5.0 (Windows NT 6.1; Win64; x64) AppleWebKit/537.36 (KHTML, like Gecko) Chrome/79.0.3945.88 Safari/537.36",91,"[0.9, 0.5, 0.1]","[0.8, 0.4, 0.2]","[u'red', u'blue', u'black']","[u'left', u'middle', u'right']","[0.8, 0.4, 0.2]","[u'high', u'medium', u'low']","black",51,"right","low","False","False",310,4600,NA
"A1HWB810RJBV2K","Thu Jan 30 2020 08:46:30 GMT-0500 (Eastern Standard Time)","Thu Jan 30 2020 08:53:26 GMT-0500 (Eastern Standard Time)","Mozilla/5.0 (Windows NT 6.1; Win64; x64) AppleWebKit/537.36 (KHTML, like Gecko) Chrome/79.0.3945.88 Safari/537.36",92,"[0.9, 0.5, 0.1]","[0.8, 0.4, 0.2]","[u'red', u'blue', u'black']","[u'left', u'middle', u'right']","[0.8, 0.4, 0.2]","[u'high', u'medium', u'low']","red",49,"left","high","True","False",286,4700,NA
"A1HWB810RJBV2K","Thu Jan 30 2020 08:46:30 GMT-0500 (Eastern Standard Time)","Thu Jan 30 2020 08:53:26 GMT-0500 (Eastern Standard Time)","Mozilla/5.0 (Windows NT 6.1; Win64; x64) AppleWebKit/537.36 (KHTML, like Gecko) Chrome/79.0.3945.88 Safari/537.36",93,"[0.9, 0.5, 0.1]","[0.8, 0.4, 0.2]","[u'red', u'blue', u'black']","[u'left', u'middle', u'right']","[0.8, 0.4, 0.2]","[u'high', u'medium', u'low']","red",49,"left","high","False","False",394,4650,NA
"A1HWB810RJBV2K","Thu Jan 30 2020 08:46:30 GMT-0500 (Eastern Standard Time)","Thu Jan 30 2020 08:53:26 GMT-0500 (Eastern Standard Time)","Mozilla/5.0 (Windows NT 6.1; Win64; x64) AppleWebKit/537.36 (KHTML, like Gecko) Chrome/79.0.3945.88 Safari/537.36",94,"[0.9, 0.5, 0.1]","[0.8, 0.4, 0.2]","[u'red', u'blue', u'black']","[u'left', u'middle', u'right']","[0.8, 0.4, 0.2]","[u'high', u'medium', u'low']","black",51,"right","low","False","False",276,4600,NA
"A1HWB810RJBV2K","Thu Jan 30 2020 08:46:30 GMT-0500 (Eastern Standard Time)","Thu Jan 30 2020 08:53:26 GMT-0500 (Eastern Standard Time)","Mozilla/5.0 (Windows NT 6.1; Win64; x64) AppleWebKit/537.36 (KHTML, like Gecko) Chrome/79.0.3945.88 Safari/537.36",95,"[0.9, 0.5, 0.1]","[0.8, 0.4, 0.2]","[u'red', u'blue', u'black']","[u'left', u'middle', u'right']","[0.8, 0.4, 0.2]","[u'high', u'medium', u'low']","blue",50,"middle","medium","False","False",271,4550,NA
"A1HWB810RJBV2K","Thu Jan 30 2020 08:46:30 GMT-0500 (Eastern Standard Time)","Thu Jan 30 2020 08:53:26 GMT-0500 (Eastern Standard Time)","Mozilla/5.0 (Windows NT 6.1; Win64; x64) AppleWebKit/537.36 (KHTML, like Gecko) Chrome/79.0.3945.88 Safari/537.36",96,"[0.9, 0.5, 0.1]","[0.8, 0.4, 0.2]","[u'red', u'blue', u'black']","[u'left', u'middle', u'right']","[0.8, 0.4, 0.2]","[u'high', u'medium', u'low']","black",51,"right","low","False","False",245,4500,NA
"A1HWB810RJBV2K","Thu Jan 30 2020 08:46:30 GMT-0500 (Eastern Standard Time)","Thu Jan 30 2020 08:53:26 GMT-0500 (Eastern Standard Time)","Mozilla/5.0 (Windows NT 6.1; Win64; x64) AppleWebKit/537.36 (KHTML, like Gecko) Chrome/79.0.3945.88 Safari/537.36",97,"[0.9, 0.5, 0.1]","[0.8, 0.4, 0.2]","[u'red', u'blue', u'black']","[u'left', u'middle', u'right']","[0.8, 0.4, 0.2]","[u'high', u'medium', u'low']","red",49,"left","high","True","False",287,4600,NA
"A1HWB810RJBV2K","Thu Jan 30 2020 08:46:30 GMT-0500 (Eastern Standard Time)","Thu Jan 30 2020 08:53:26 GMT-0500 (Eastern Standard Time)","Mozilla/5.0 (Windows NT 6.1; Win64; x64) AppleWebKit/537.36 (KHTML, like Gecko) Chrome/79.0.3945.88 Safari/537.36",98,"[0.9, 0.5, 0.1]","[0.8, 0.4, 0.2]","[u'red', u'blue', u'black']","[u'left', u'middle', u'right']","[0.8, 0.4, 0.2]","[u'high', u'medium', u'low']","red",49,"left","high","False","False",267,4550,NA
"A1HWB810RJBV2K","Thu Jan 30 2020 08:46:30 GMT-0500 (Eastern Standard Time)","Thu Jan 30 2020 08:53:26 GMT-0500 (Eastern Standard Time)","Mozilla/5.0 (Windows NT 6.1; Win64; x64) AppleWebKit/537.36 (KHTML, like Gecko) Chrome/79.0.3945.88 Safari/537.36",99,"[0.9, 0.5, 0.1]","[0.8, 0.4, 0.2]","[u'red', u'blue', u'black']","[u'left', u'middle', u'right']","[0.8, 0.4, 0.2]","[u'high', u'medium', u'low']","black",51,"right","low","False","False",300,4500,NA
"A1HWB810RJBV2K","Thu Jan 30 2020 08:46:30 GMT-0500 (Eastern Standard Time)","Thu Jan 30 2020 08:53:26 GMT-0500 (Eastern Standard Time)","Mozilla/5.0 (Windows NT 6.1; Win64; x64) AppleWebKit/537.36 (KHTML, like Gecko) Chrome/79.0.3945.88 Safari/537.36",100,"[0.9, 0.5, 0.1]","[0.8, 0.4, 0.2]","[u'red', u'blue', u'black']","[u'left', u'middle', u'right']","[0.8, 0.4, 0.2]","[u'high', u'medium', u'low']","blue",50,"middle","medium","False","False",237,4450,NA
"A1HWB810RJBV2K","Thu Jan 30 2020 08:46:30 GMT-0500 (Eastern Standard Time)","Thu Jan 30 2020 08:53:26 GMT-0500 (Eastern Standard Time)","Mozilla/5.0 (Windows NT 6.1; Win64; x64) AppleWebKit/537.36 (KHTML, like Gecko) Chrome/79.0.3945.88 Safari/537.36",101,"[0.9, 0.5, 0.1]","[0.8, 0.4, 0.2]","[u'red', u'blue', u'black']","[u'left', u'middle', u'right']","[0.8, 0.4, 0.2]","[u'high', u'medium', u'low']","red",49,"left","high","True","False",339,4550,NA
"A1HWB810RJBV2K","Thu Jan 30 2020 08:46:30 GMT-0500 (Eastern Standard Time)","Thu Jan 30 2020 08:53:26 GMT-0500 (Eastern Standard Time)","Mozilla/5.0 (Windows NT 6.1; Win64; x64) AppleWebKit/537.36 (KHTML, like Gecko) Chrome/79.0.3945.88 Safari/537.36",102,"[0.9, 0.5, 0.1]","[0.8, 0.4, 0.2]","[u'red', u'blue', u'black']","[u'left', u'middle', u'right']","[0.8, 0.4, 0.2]","[u'high', u'medium', u'low']","red",49,"left","high","True","False",299,4650,NA
"A1HWB810RJBV2K","Thu Jan 30 2020 08:46:30 GMT-0500 (Eastern Standard Time)","Thu Jan 30 2020 08:53:26 GMT-0500 (Eastern Standard Time)","Mozilla/5.0 (Windows NT 6.1; Win64; x64) AppleWebKit/537.36 (KHTML, like Gecko) Chrome/79.0.3945.88 Safari/537.36",103,"[0.9, 0.5, 0.1]","[0.8, 0.4, 0.2]","[u'red', u'blue', u'black']","[u'left', u'middle', u'right']","[0.8, 0.4, 0.2]","[u'high', u'medium', u'low']","red",49,"left","high","True","False",342,4750,NA
"A1HWB810RJBV2K","Thu Jan 30 2020 08:46:30 GMT-0500 (Eastern Standard Time)","Thu Jan 30 2020 08:53:26 GMT-0500 (Eastern Standard Time)","Mozilla/5.0 (Windows NT 6.1; Win64; x64) AppleWebKit/537.36 (KHTML, like Gecko) Chrome/79.0.3945.88 Safari/537.36",104,"[0.9, 0.5, 0.1]","[0.8, 0.4, 0.2]","[u'red', u'blue', u'black']","[u'left', u'middle', u'right']","[0.8, 0.4, 0.2]","[u'high', u'medium', u'low']","red",49,"left","high","True","False",352,4850,NA
"A1HWB810RJBV2K","Thu Jan 30 2020 08:46:30 GMT-0500 (Eastern Standard Time)","Thu Jan 30 2020 08:53:26 GMT-0500 (Eastern Standard Time)","Mozilla/5.0 (Windows NT 6.1; Win64; x64) AppleWebKit/537.36 (KHTML, like Gecko) Chrome/79.0.3945.88 Safari/537.36",105,"[0.9, 0.5, 0.1]","[0.8, 0.4, 0.2]","[u'red', u'blue', u'black']","[u'left', u'middle', u'right']","[0.8, 0.4, 0.2]","[u'high', u'medium', u'low']","red",49,"left","high","True","False",298,4950,NA
"A1HWB810RJBV2K","Thu Jan 30 2020 08:46:30 GMT-0500 (Eastern Standard Time)","Thu Jan 30 2020 08:53:26 GMT-0500 (Eastern Standard Time)","Mozilla/5.0 (Windows NT 6.1; Win64; x64) AppleWebKit/537.36 (KHTML, like Gecko) Chrome/79.0.3945.88 Safari/537.36",106,"[0.9, 0.5, 0.1]","[0.8, 0.4, 0.2]","[u'red', u'blue', u'black']","[u'left', u'middle', u'right']","[0.8, 0.4, 0.2]","[u'high', u'medium', u'low']","red",49,"left","high","True","False",352,5050,NA
"A1HWB810RJBV2K","Thu Jan 30 2020 08:46:30 GMT-0500 (Eastern Standard Time)","Thu Jan 30 2020 08:53:26 GMT-0500 (Eastern Standard Time)","Mozilla/5.0 (Windows NT 6.1; Win64; x64) AppleWebKit/537.36 (KHTML, like Gecko) Chrome/79.0.3945.88 Safari/537.36",107,"[0.9, 0.5, 0.1]","[0.8, 0.4, 0.2]","[u'red', u'blue', u'black']","[u'left', u'middle', u'right']","[0.8, 0.4, 0.2]","[u'high', u'medium', u'low']","red",49,"left","high","True","False",293,5150,NA
"A1HWB810RJBV2K","Thu Jan 30 2020 08:46:30 GMT-0500 (Eastern Standard Time)","Thu Jan 30 2020 08:53:26 GMT-0500 (Eastern Standard Time)","Mozilla/5.0 (Windows NT 6.1; Win64; x64) AppleWebKit/537.36 (KHTML, like Gecko) Chrome/79.0.3945.88 Safari/537.36",108,"[0.9, 0.5, 0.1]","[0.8, 0.4, 0.2]","[u'red', u'blue', u'black']","[u'left', u'middle', u'right']","[0.8, 0.4, 0.2]","[u'high', u'medium', u'low']","red",49,"left","high","True","False",281,5250,NA
"A1HWB810RJBV2K","Thu Jan 30 2020 08:46:30 GMT-0500 (Eastern Standard Time)","Thu Jan 30 2020 08:53:26 GMT-0500 (Eastern Standard Time)","Mozilla/5.0 (Windows NT 6.1; Win64; x64) AppleWebKit/537.36 (KHTML, like Gecko) Chrome/79.0.3945.88 Safari/537.36",109,"[0.9, 0.5, 0.1]","[0.8, 0.4, 0.2]","[u'red', u'blue', u'black']","[u'left', u'middle', u'right']","[0.8, 0.4, 0.2]","[u'high', u'medium', u'low']","red",49,"left","high","False","True",303,5200,NA
"A1HWB810RJBV2K","Thu Jan 30 2020 08:46:30 GMT-0500 (Eastern Standard Time)","Thu Jan 30 2020 08:53:26 GMT-0500 (Eastern Standard Time)","Mozilla/5.0 (Windows NT 6.1; Win64; x64) AppleWebKit/537.36 (KHTML, like Gecko) Chrome/79.0.3945.88 Safari/537.36",110,"[0.9, 0.5, 0.1]","[0.8, 0.4, 0.2]","[u'red', u'blue', u'black']","[u'left', u'middle', u'right']","[0.8, 0.4, 0.2]","[u'medium', u'low', u'high']","black",51,"right","high","False","False",261,5150,NA
"A1HWB810RJBV2K","Thu Jan 30 2020 08:46:30 GMT-0500 (Eastern Standard Time)","Thu Jan 30 2020 08:53:26 GMT-0500 (Eastern Standard Time)","Mozilla/5.0 (Windows NT 6.1; Win64; x64) AppleWebKit/537.36 (KHTML, like Gecko) Chrome/79.0.3945.88 Safari/537.36",111,"[0.9, 0.5, 0.1]","[0.8, 0.4, 0.2]","[u'red', u'blue', u'black']","[u'left', u'middle', u'right']","[0.8, 0.4, 0.2]","[u'medium', u'low', u'high']","red",49,"left","medium","True","False",336,5250,NA
"A1HWB810RJBV2K","Thu Jan 30 2020 08:46:30 GMT-0500 (Eastern Standard Time)","Thu Jan 30 2020 08:53:26 GMT-0500 (Eastern Standard Time)","Mozilla/5.0 (Windows NT 6.1; Win64; x64) AppleWebKit/537.36 (KHTML, like Gecko) Chrome/79.0.3945.88 Safari/537.36",112,"[0.9, 0.5, 0.1]","[0.8, 0.4, 0.2]","[u'red', u'blue', u'black']","[u'left', u'middle', u'right']","[0.8, 0.4, 0.2]","[u'medium', u'low', u'high']","red",49,"left","medium","False","False",266,5200,NA
"A1HWB810RJBV2K","Thu Jan 30 2020 08:46:30 GMT-0500 (Eastern Standard Time)","Thu Jan 30 2020 08:53:26 GMT-0500 (Eastern Standard Time)","Mozilla/5.0 (Windows NT 6.1; Win64; x64) AppleWebKit/537.36 (KHTML, like Gecko) Chrome/79.0.3945.88 Safari/537.36",113,"[0.9, 0.5, 0.1]","[0.8, 0.4, 0.2]","[u'red', u'blue', u'black']","[u'left', u'middle', u'right']","[0.8, 0.4, 0.2]","[u'medium', u'low', u'high']","blue",50,"middle","low","True","False",347,5300,NA
"A1HWB810RJBV2K","Thu Jan 30 2020 08:46:30 GMT-0500 (Eastern Standard Time)","Thu Jan 30 2020 08:53:26 GMT-0500 (Eastern Standard Time)","Mozilla/5.0 (Windows NT 6.1; Win64; x64) AppleWebKit/537.36 (KHTML, like Gecko) Chrome/79.0.3945.88 Safari/537.36",114,"[0.9, 0.5, 0.1]","[0.8, 0.4, 0.2]","[u'red', u'blue', u'black']","[u'left', u'middle', u'right']","[0.8, 0.4, 0.2]","[u'medium', u'low', u'high']","blue",50,"middle","low","False","False",198,5250,NA
"A1HWB810RJBV2K","Thu Jan 30 2020 08:46:30 GMT-0500 (Eastern Standard Time)","Thu Jan 30 2020 08:53:26 GMT-0500 (Eastern Standard Time)","Mozilla/5.0 (Windows NT 6.1; Win64; x64) AppleWebKit/537.36 (KHTML, like Gecko) Chrome/79.0.3945.88 Safari/537.36",115,"[0.9, 0.5, 0.1]","[0.8, 0.4, 0.2]","[u'red', u'blue', u'black']","[u'left', u'middle', u'right']","[0.8, 0.4, 0.2]","[u'medium', u'low', u'high']","black",51,"right","high","True","False",361,5350,NA
"A1HWB810RJBV2K","Thu Jan 30 2020 08:46:30 GMT-0500 (Eastern Standard Time)","Thu Jan 30 2020 08:53:26 GMT-0500 (Eastern Standard Time)","Mozilla/5.0 (Windows NT 6.1; Win64; x64) AppleWebKit/537.36 (KHTML, like Gecko) Chrome/79.0.3945.88 Safari/537.36",116,"[0.9, 0.5, 0.1]","[0.8, 0.4, 0.2]","[u'red', u'blue', u'black']","[u'left', u'middle', u'right']","[0.8, 0.4, 0.2]","[u'medium', u'low', u'high']","black",51,"right","high","True","False",389,5450,NA
"A1HWB810RJBV2K","Thu Jan 30 2020 08:46:30 GMT-0500 (Eastern Standard Time)","Thu Jan 30 2020 08:53:26 GMT-0500 (Eastern Standard Time)","Mozilla/5.0 (Windows NT 6.1; Win64; x64) AppleWebKit/537.36 (KHTML, like Gecko) Chrome/79.0.3945.88 Safari/537.36",117,"[0.9, 0.5, 0.1]","[0.8, 0.4, 0.2]","[u'red', u'blue', u'black']","[u'left', u'middle', u'right']","[0.8, 0.4, 0.2]","[u'medium', u'low', u'high']","black",51,"right","high","True","False",496,5550,NA
"A1HWB810RJBV2K","Thu Jan 30 2020 08:46:30 GMT-0500 (Eastern Standard Time)","Thu Jan 30 2020 08:53:26 GMT-0500 (Eastern Standard Time)","Mozilla/5.0 (Windows NT 6.1; Win64; x64) AppleWebKit/537.36 (KHTML, like Gecko) Chrome/79.0.3945.88 Safari/537.36",118,"[0.9, 0.5, 0.1]","[0.8, 0.4, 0.2]","[u'red', u'blue', u'black']","[u'left', u'middle', u'right']","[0.8, 0.4, 0.2]","[u'medium', u'low', u'high']","black",51,"right","high","False","False",292,5500,NA
"A1HWB810RJBV2K","Thu Jan 30 2020 08:46:30 GMT-0500 (Eastern Standard Time)","Thu Jan 30 2020 08:53:26 GMT-0500 (Eastern Standard Time)","Mozilla/5.0 (Windows NT 6.1; Win64; x64) AppleWebKit/537.36 (KHTML, like Gecko) Chrome/79.0.3945.88 Safari/537.36",119,"[0.9, 0.5, 0.1]","[0.8, 0.4, 0.2]","[u'red', u'blue', u'black']","[u'left', u'middle', u'right']","[0.8, 0.4, 0.2]","[u'medium', u'low', u'high']","red",49,"left","medium","False","False",257,5450,NA
"A1HWB810RJBV2K","Thu Jan 30 2020 08:46:30 GMT-0500 (Eastern Standard Time)","Thu Jan 30 2020 08:53:26 GMT-0500 (Eastern Standard Time)","Mozilla/5.0 (Windows NT 6.1; Win64; x64) AppleWebKit/537.36 (KHTML, like Gecko) Chrome/79.0.3945.88 Safari/537.36",120,"[0.9, 0.5, 0.1]","[0.8, 0.4, 0.2]","[u'red', u'blue', u'black']","[u'left', u'middle', u'right']","[0.8, 0.4, 0.2]","[u'medium', u'low', u'high']","black",51,"right","high","True","False",285,5550,NA
"A1HWB810RJBV2K","Thu Jan 30 2020 08:46:30 GMT-0500 (Eastern Standard Time)","Thu Jan 30 2020 08:53:26 GMT-0500 (Eastern Standard Time)","Mozilla/5.0 (Windows NT 6.1; Win64; x64) AppleWebKit/537.36 (KHTML, like Gecko) Chrome/79.0.3945.88 Safari/537.36",121,"[0.9, 0.5, 0.1]","[0.8, 0.4, 0.2]","[u'red', u'blue', u'black']","[u'left', u'middle', u'right']","[0.8, 0.4, 0.2]","[u'high', u'low', u'medium']","black",51,"right","medium","True","False",468,5650,NA
"A1HWB810RJBV2K","Thu Jan 30 2020 08:46:30 GMT-0500 (Eastern Standard Time)","Thu Jan 30 2020 08:53:26 GMT-0500 (Eastern Standard Time)","Mozilla/5.0 (Windows NT 6.1; Win64; x64) AppleWebKit/537.36 (KHTML, like Gecko) Chrome/79.0.3945.88 Safari/537.36",122,"[0.9, 0.5, 0.1]","[0.8, 0.4, 0.2]","[u'red', u'blue', u'black']","[u'left', u'middle', u'right']","[0.8, 0.4, 0.2]","[u'high', u'low', u'medium']","black",51,"right","medium","False","False",283,5600,NA
"A1HWB810RJBV2K","Thu Jan 30 2020 08:46:30 GMT-0500 (Eastern Standard Time)","Thu Jan 30 2020 08:53:26 GMT-0500 (Eastern Standard Time)","Mozilla/5.0 (Windows NT 6.1; Win64; x64) AppleWebKit/537.36 (KHTML, like Gecko) Chrome/79.0.3945.88 Safari/537.36",123,"[0.9, 0.5, 0.1]","[0.8, 0.4, 0.2]","[u'red', u'blue', u'black']","[u'left', u'middle', u'right']","[0.8, 0.4, 0.2]","[u'high', u'low', u'medium']","red",49,"left","high","True","False",302,5700,NA
"A1HWB810RJBV2K","Thu Jan 30 2020 08:46:30 GMT-0500 (Eastern Standard Time)","Thu Jan 30 2020 08:53:26 GMT-0500 (Eastern Standard Time)","Mozilla/5.0 (Windows NT 6.1; Win64; x64) AppleWebKit/537.36 (KHTML, like Gecko) Chrome/79.0.3945.88 Safari/537.36",124,"[0.9, 0.5, 0.1]","[0.8, 0.4, 0.2]","[u'red', u'blue', u'black']","[u'left', u'middle', u'right']","[0.8, 0.4, 0.2]","[u'high', u'low', u'medium']","red",49,"left","high","True","False",302,5800,NA
"A1HWB810RJBV2K","Thu Jan 30 2020 08:46:30 GMT-0500 (Eastern Standard Time)","Thu Jan 30 2020 08:53:26 GMT-0500 (Eastern Standard Time)","Mozilla/5.0 (Windows NT 6.1; Win64; x64) AppleWebKit/537.36 (KHTML, like Gecko) Chrome/79.0.3945.88 Safari/537.36",125,"[0.9, 0.5, 0.1]","[0.8, 0.4, 0.2]","[u'red', u'blue', u'black']","[u'left', u'middle', u'right']","[0.8, 0.4, 0.2]","[u'high', u'low', u'medium']","red",49,"left","high","True","False",310,5900,NA
"A1HWB810RJBV2K","Thu Jan 30 2020 08:46:30 GMT-0500 (Eastern Standard Time)","Thu Jan 30 2020 08:53:26 GMT-0500 (Eastern Standard Time)","Mozilla/5.0 (Windows NT 6.1; Win64; x64) AppleWebKit/537.36 (KHTML, like Gecko) Chrome/79.0.3945.88 Safari/537.36",126,"[0.9, 0.5, 0.1]","[0.8, 0.4, 0.2]","[u'red', u'blue', u'black']","[u'left', u'middle', u'right']","[0.8, 0.4, 0.2]","[u'high', u'low', u'medium']","red",49,"left","high","True","False",224,6000,NA
"A1HWB810RJBV2K","Thu Jan 30 2020 08:46:30 GMT-0500 (Eastern Standard Time)","Thu Jan 30 2020 08:53:26 GMT-0500 (Eastern Standard Time)","Mozilla/5.0 (Windows NT 6.1; Win64; x64) AppleWebKit/537.36 (KHTML, like Gecko) Chrome/79.0.3945.88 Safari/537.36",127,"[0.9, 0.5, 0.1]","[0.8, 0.4, 0.2]","[u'red', u'blue', u'black']","[u'left', u'middle', u'right']","[0.8, 0.4, 0.2]","[u'high', u'low', u'medium']","red",49,"left","high","True","False",212,6100,NA
"A1HWB810RJBV2K","Thu Jan 30 2020 08:46:30 GMT-0500 (Eastern Standard Time)","Thu Jan 30 2020 08:53:26 GMT-0500 (Eastern Standard Time)","Mozilla/5.0 (Windows NT 6.1; Win64; x64) AppleWebKit/537.36 (KHTML, like Gecko) Chrome/79.0.3945.88 Safari/537.36",128,"[0.9, 0.5, 0.1]","[0.8, 0.4, 0.2]","[u'red', u'blue', u'black']","[u'left', u'middle', u'right']","[0.8, 0.4, 0.2]","[u'high', u'low', u'medium']","red",49,"left","high","True","False",298,6200,NA
"A1HWB810RJBV2K","Thu Jan 30 2020 08:46:30 GMT-0500 (Eastern Standard Time)","Thu Jan 30 2020 08:53:26 GMT-0500 (Eastern Standard Time)","Mozilla/5.0 (Windows NT 6.1; Win64; x64) AppleWebKit/537.36 (KHTML, like Gecko) Chrome/79.0.3945.88 Safari/537.36",129,"[0.9, 0.5, 0.1]","[0.8, 0.4, 0.2]","[u'red', u'blue', u'black']","[u'left', u'middle', u'right']","[0.8, 0.4, 0.2]","[u'high', u'low', u'medium']","red",49,"left","high","False","False",245,6150,NA
"A1HWB810RJBV2K","Thu Jan 30 2020 08:46:30 GMT-0500 (Eastern Standard Time)","Thu Jan 30 2020 08:53:26 GMT-0500 (Eastern Standard Time)","Mozilla/5.0 (Windows NT 6.1; Win64; x64) AppleWebKit/537.36 (KHTML, like Gecko) Chrome/79.0.3945.88 Safari/537.36",130,"[0.9, 0.5, 0.1]","[0.8, 0.4, 0.2]","[u'red', u'blue', u'black']","[u'left', u'middle', u'right']","[0.8, 0.4, 0.2]","[u'high', u'low', u'medium']","blue",50,"middle","low","True","False",112,6250,NA
"A1HWB810RJBV2K","Thu Jan 30 2020 08:46:30 GMT-0500 (Eastern Standard Time)","Thu Jan 30 2020 08:53:26 GMT-0500 (Eastern Standard Time)","Mozilla/5.0 (Windows NT 6.1; Win64; x64) AppleWebKit/537.36 (KHTML, like Gecko) Chrome/79.0.3945.88 Safari/537.36",131,"[0.9, 0.5, 0.1]","[0.8, 0.4, 0.2]","[u'red', u'blue', u'black']","[u'left', u'middle', u'right']","[0.8, 0.4, 0.2]","[u'high', u'low', u'medium']","blue",50,"middle","low","False","False",257,6200,NA
"A1HWB810RJBV2K","Thu Jan 30 2020 08:46:30 GMT-0500 (Eastern Standard Time)","Thu Jan 30 2020 08:53:26 GMT-0500 (Eastern Standard Time)","Mozilla/5.0 (Windows NT 6.1; Win64; x64) AppleWebKit/537.36 (KHTML, like Gecko) Chrome/79.0.3945.88 Safari/537.36",132,"[0.9, 0.5, 0.1]","[0.8, 0.4, 0.2]","[u'red', u'blue', u'black']","[u'left', u'middle', u'right']","[0.8, 0.4, 0.2]","[u'high', u'low', u'medium']","black",51,"right","medium","False","False",158,6150,NA
"A1HWB810RJBV2K","Thu Jan 30 2020 08:46:30 GMT-0500 (Eastern Standard Time)","Thu Jan 30 2020 08:53:26 GMT-0500 (Eastern Standard Time)","Mozilla/5.0 (Windows NT 6.1; Win64; x64) AppleWebKit/537.36 (KHTML, like Gecko) Chrome/79.0.3945.88 Safari/537.36",133,"[0.9, 0.5, 0.1]","[0.8, 0.4, 0.2]","[u'red', u'blue', u'black']","[u'left', u'middle', u'right']","[0.8, 0.4, 0.2]","[u'high', u'low', u'medium']","red",49,"left","high","True","False",188,6250,NA
"A1HWB810RJBV2K","Thu Jan 30 2020 08:46:30 GMT-0500 (Eastern Standard Time)","Thu Jan 30 2020 08:53:26 GMT-0500 (Eastern Standard Time)","Mozilla/5.0 (Windows NT 6.1; Win64; x64) AppleWebKit/537.36 (KHTML, like Gecko) Chrome/79.0.3945.88 Safari/537.36",134,"[0.9, 0.5, 0.1]","[0.8, 0.4, 0.2]","[u'red', u'blue', u'black']","[u'left', u'middle', u'right']","[0.8, 0.4, 0.2]","[u'high', u'low', u'medium']","red",49,"left","high","True","False",320,6350,NA
"A1HWB810RJBV2K","Thu Jan 30 2020 08:46:30 GMT-0500 (Eastern Standard Time)","Thu Jan 30 2020 08:53:26 GMT-0500 (Eastern Standard Time)","Mozilla/5.0 (Windows NT 6.1; Win64; x64) AppleWebKit/537.36 (KHTML, like Gecko) Chrome/79.0.3945.88 Safari/537.36",135,"[0.9, 0.5, 0.1]","[0.8, 0.4, 0.2]","[u'red', u'blue', u'black']","[u'left', u'middle', u'right']","[0.8, 0.4, 0.2]","[u'high', u'low', u'medium']","red",49,"left","high","True","False",305,6450,NA
"A1HWB810RJBV2K","Thu Jan 30 2020 08:46:30 GMT-0500 (Eastern Standard Time)","Thu Jan 30 2020 08:53:26 GMT-0500 (Eastern Standard Time)","Mozilla/5.0 (Windows NT 6.1; Win64; x64) AppleWebKit/537.36 (KHTML, like Gecko) Chrome/79.0.3945.88 Safari/537.36",136,"[0.9, 0.5, 0.1]","[0.8, 0.4, 0.2]","[u'red', u'blue', u'black']","[u'left', u'middle', u'right']","[0.8, 0.4, 0.2]","[u'high', u'low', u'medium']","red",49,"left","high","True","False",359,6550,NA
"A1HWB810RJBV2K","Thu Jan 30 2020 08:46:30 GMT-0500 (Eastern Standard Time)","Thu Jan 30 2020 08:53:26 GMT-0500 (Eastern Standard Time)","Mozilla/5.0 (Windows NT 6.1; Win64; x64) AppleWebKit/537.36 (KHTML, like Gecko) Chrome/79.0.3945.88 Safari/537.36",137,"[0.9, 0.5, 0.1]","[0.8, 0.4, 0.2]","[u'red', u'blue', u'black']","[u'left', u'middle', u'right']","[0.8, 0.4, 0.2]","[u'high', u'low', u'medium']","red",49,"left","high","False","False",309,6500,NA
"A1HWB810RJBV2K","Thu Jan 30 2020 08:46:30 GMT-0500 (Eastern Standard Time)","Thu Jan 30 2020 08:53:26 GMT-0500 (Eastern Standard Time)","Mozilla/5.0 (Windows NT 6.1; Win64; x64) AppleWebKit/537.36 (KHTML, like Gecko) Chrome/79.0.3945.88 Safari/537.36",138,"[0.9, 0.5, 0.1]","[0.8, 0.4, 0.2]","[u'red', u'blue', u'black']","[u'left', u'middle', u'right']","[0.8, 0.4, 0.2]","[u'high', u'low', u'medium']","black",51,"right","medium","False","False",240,6450,NA
"A1HWB810RJBV2K","Thu Jan 30 2020 08:46:30 GMT-0500 (Eastern Standard Time)","Thu Jan 30 2020 08:53:26 GMT-0500 (Eastern Standard Time)","Mozilla/5.0 (Windows NT 6.1; Win64; x64) AppleWebKit/537.36 (KHTML, like Gecko) Chrome/79.0.3945.88 Safari/537.36",139,"[0.9, 0.5, 0.1]","[0.8, 0.4, 0.2]","[u'red', u'blue', u'black']","[u'left', u'middle', u'right']","[0.8, 0.4, 0.2]","[u'high', u'low', u'medium']","red",49,"left","high","True","False",308,6550,NA
"A1HWB810RJBV2K","Thu Jan 30 2020 08:46:30 GMT-0500 (Eastern Standard Time)","Thu Jan 30 2020 08:53:26 GMT-0500 (Eastern Standard Time)","Mozilla/5.0 (Windows NT 6.1; Win64; x64) AppleWebKit/537.36 (KHTML, like Gecko) Chrome/79.0.3945.88 Safari/537.36",140,"[0.9, 0.5, 0.1]","[0.8, 0.4, 0.2]","[u'red', u'blue', u'black']","[u'left', u'middle', u'right']","[0.8, 0.4, 0.2]","[u'high', u'low', u'medium']","red",49,"left","high","True","False",372,6650,NA
"A1HWB810RJBV2K","Thu Jan 30 2020 08:46:30 GMT-0500 (Eastern Standard Time)","Thu Jan 30 2020 08:53:26 GMT-0500 (Eastern Standard Time)","Mozilla/5.0 (Windows NT 6.1; Win64; x64) AppleWebKit/537.36 (KHTML, like Gecko) Chrome/79.0.3945.88 Safari/537.36",141,"[0.9, 0.5, 0.1]","[0.8, 0.4, 0.2]","[u'red', u'blue', u'black']","[u'left', u'middle', u'right']","[0.8, 0.4, 0.2]","[u'high', u'low', u'medium']","red",49,"left","high","True","False",428,6750,NA
"A1HWB810RJBV2K","Thu Jan 30 2020 08:46:30 GMT-0500 (Eastern Standard Time)","Thu Jan 30 2020 08:53:26 GMT-0500 (Eastern Standard Time)","Mozilla/5.0 (Windows NT 6.1; Win64; x64) AppleWebKit/537.36 (KHTML, like Gecko) Chrome/79.0.3945.88 Safari/537.36",142,"[0.9, 0.5, 0.1]","[0.8, 0.4, 0.2]","[u'red', u'blue', u'black']","[u'left', u'middle', u'right']","[0.8, 0.4, 0.2]","[u'high', u'low', u'medium']","red",49,"left","high","True","True",282,6850,NA
"A1HWB810RJBV2K","Thu Jan 30 2020 08:46:30 GMT-0500 (Eastern Standard Time)","Thu Jan 30 2020 08:53:26 GMT-0500 (Eastern Standard Time)","Mozilla/5.0 (Windows NT 6.1; Win64; x64) AppleWebKit/537.36 (KHTML, like Gecko) Chrome/79.0.3945.88 Safari/537.36",143,"[0.9, 0.5, 0.1]","[0.8, 0.4, 0.2]","[u'red', u'blue', u'black']","[u'left', u'middle', u'right']","[0.8, 0.4, 0.2]","[u'medium', u'high', u'low']","red",49,"left","medium","False","False",316,6800,NA
"A1HWB810RJBV2K","Thu Jan 30 2020 08:46:30 GMT-0500 (Eastern Standard Time)","Thu Jan 30 2020 08:53:26 GMT-0500 (Eastern Standard Time)","Mozilla/5.0 (Windows NT 6.1; Win64; x64) AppleWebKit/537.36 (KHTML, like Gecko) Chrome/79.0.3945.88 Safari/537.36",144,"[0.9, 0.5, 0.1]","[0.8, 0.4, 0.2]","[u'red', u'blue', u'black']","[u'left', u'middle', u'right']","[0.8, 0.4, 0.2]","[u'medium', u'high', u'low']","black",51,"right","low","False","False",199,6750,NA
"A1HWB810RJBV2K","Thu Jan 30 2020 08:46:30 GMT-0500 (Eastern Standard Time)","Thu Jan 30 2020 08:53:26 GMT-0500 (Eastern Standard Time)","Mozilla/5.0 (Windows NT 6.1; Win64; x64) AppleWebKit/537.36 (KHTML, like Gecko) Chrome/79.0.3945.88 Safari/537.36",145,"[0.9, 0.5, 0.1]","[0.8, 0.4, 0.2]","[u'red', u'blue', u'black']","[u'left', u'middle', u'right']","[0.8, 0.4, 0.2]","[u'medium', u'high', u'low']","blue",50,"middle","high","True","False",195,6850,NA
"A1HWB810RJBV2K","Thu Jan 30 2020 08:46:30 GMT-0500 (Eastern Standard Time)","Thu Jan 30 2020 08:53:26 GMT-0500 (Eastern Standard Time)","Mozilla/5.0 (Windows NT 6.1; Win64; x64) AppleWebKit/537.36 (KHTML, like Gecko) Chrome/79.0.3945.88 Safari/537.36",146,"[0.9, 0.5, 0.1]","[0.8, 0.4, 0.2]","[u'red', u'blue', u'black']","[u'left', u'middle', u'right']","[0.8, 0.4, 0.2]","[u'medium', u'high', u'low']","blue",50,"middle","high","True","False",209,6950,NA
"A1HWB810RJBV2K","Thu Jan 30 2020 08:46:30 GMT-0500 (Eastern Standard Time)","Thu Jan 30 2020 08:53:26 GMT-0500 (Eastern Standard Time)","Mozilla/5.0 (Windows NT 6.1; Win64; x64) AppleWebKit/537.36 (KHTML, like Gecko) Chrome/79.0.3945.88 Safari/537.36",147,"[0.9, 0.5, 0.1]","[0.8, 0.4, 0.2]","[u'red', u'blue', u'black']","[u'left', u'middle', u'right']","[0.8, 0.4, 0.2]","[u'medium', u'high', u'low']","blue",50,"middle","high","False","False",87,6900,NA
"A1HWB810RJBV2K","Thu Jan 30 2020 08:46:30 GMT-0500 (Eastern Standard Time)","Thu Jan 30 2020 08:53:26 GMT-0500 (Eastern Standard Time)","Mozilla/5.0 (Windows NT 6.1; Win64; x64) AppleWebKit/537.36 (KHTML, like Gecko) Chrome/79.0.3945.88 Safari/537.36",148,"[0.9, 0.5, 0.1]","[0.8, 0.4, 0.2]","[u'red', u'blue', u'black']","[u'left', u'middle', u'right']","[0.8, 0.4, 0.2]","[u'medium', u'high', u'low']","red",49,"left","medium","True","False",47,7000,NA
"A1HWB810RJBV2K","Thu Jan 30 2020 08:46:30 GMT-0500 (Eastern Standard Time)","Thu Jan 30 2020 08:53:26 GMT-0500 (Eastern Standard Time)","Mozilla/5.0 (Windows NT 6.1; Win64; x64) AppleWebKit/537.36 (KHTML, like Gecko) Chrome/79.0.3945.88 Safari/537.36",149,"[0.9, 0.5, 0.1]","[0.8, 0.4, 0.2]","[u'red', u'blue', u'black']","[u'left', u'middle', u'right']","[0.8, 0.4, 0.2]","[u'medium', u'high', u'low']","red",49,"left","medium","False","False",249,6950,NA
"A1HWB810RJBV2K","Thu Jan 30 2020 08:46:30 GMT-0500 (Eastern Standard Time)","Thu Jan 30 2020 08:53:26 GMT-0500 (Eastern Standard Time)","Mozilla/5.0 (Windows NT 6.1; Win64; x64) AppleWebKit/537.36 (KHTML, like Gecko) Chrome/79.0.3945.88 Safari/537.36",150,"[0.9, 0.5, 0.1]","[0.8, 0.4, 0.2]","[u'red', u'blue', u'black']","[u'left', u'middle', u'right']","[0.8, 0.4, 0.2]","[u'medium', u'high', u'low']","blue",50,"middle","high","True","False",247,7050,NA
"A1HWB810RJBV2K","Thu Jan 30 2020 08:46:30 GMT-0500 (Eastern Standard Time)","Thu Jan 30 2020 08:53:26 GMT-0500 (Eastern Standard Time)","Mozilla/5.0 (Windows NT 6.1; Win64; x64) AppleWebKit/537.36 (KHTML, like Gecko) Chrome/79.0.3945.88 Safari/537.36",151,"[0.9, 0.5, 0.1]","[0.8, 0.4, 0.2]","[u'red', u'blue', u'black']","[u'left', u'middle', u'right']","[0.8, 0.4, 0.2]","[u'medium', u'high', u'low']","blue",50,"middle","high","True","False",304,7150,NA
"A1HWB810RJBV2K","Thu Jan 30 2020 08:46:30 GMT-0500 (Eastern Standard Time)","Thu Jan 30 2020 08:53:26 GMT-0500 (Eastern Standard Time)","Mozilla/5.0 (Windows NT 6.1; Win64; x64) AppleWebKit/537.36 (KHTML, like Gecko) Chrome/79.0.3945.88 Safari/537.36",152,"[0.9, 0.5, 0.1]","[0.8, 0.4, 0.2]","[u'red', u'blue', u'black']","[u'left', u'middle', u'right']","[0.8, 0.4, 0.2]","[u'medium', u'high', u'low']","blue",50,"middle","high","True","False",238,7250,NA
"A1HWB810RJBV2K","Thu Jan 30 2020 08:46:30 GMT-0500 (Eastern Standard Time)","Thu Jan 30 2020 08:53:26 GMT-0500 (Eastern Standard Time)","Mozilla/5.0 (Windows NT 6.1; Win64; x64) AppleWebKit/537.36 (KHTML, like Gecko) Chrome/79.0.3945.88 Safari/537.36",153,"[0.9, 0.5, 0.1]","[0.8, 0.4, 0.2]","[u'red', u'blue', u'black']","[u'left', u'middle', u'right']","[0.8, 0.4, 0.2]","[u'medium', u'high', u'low']","blue",50,"middle","high","True","False",82,7350,NA
"A1HWB810RJBV2K","Thu Jan 30 2020 08:46:30 GMT-0500 (Eastern Standard Time)","Thu Jan 30 2020 08:53:26 GMT-0500 (Eastern Standard Time)","Mozilla/5.0 (Windows NT 6.1; Win64; x64) AppleWebKit/537.36 (KHTML, like Gecko) Chrome/79.0.3945.88 Safari/537.36",154,"[0.9, 0.5, 0.1]","[0.8, 0.4, 0.2]","[u'red', u'blue', u'black']","[u'left', u'middle', u'right']","[0.8, 0.4, 0.2]","[u'medium', u'high', u'low']","blue",50,"middle","high","True","False",349,7450,NA
"A1HWB810RJBV2K","Thu Jan 30 2020 08:46:30 GMT-0500 (Eastern Standard Time)","Thu Jan 30 2020 08:53:26 GMT-0500 (Eastern Standard Time)","Mozilla/5.0 (Windows NT 6.1; Win64; x64) AppleWebKit/537.36 (KHTML, like Gecko) Chrome/79.0.3945.88 Safari/537.36",155,"[0.9, 0.5, 0.1]","[0.8, 0.4, 0.2]","[u'red', u'blue', u'black']","[u'left', u'middle', u'right']","[0.8, 0.4, 0.2]","[u'medium', u'high', u'low']","blue",50,"middle","high","False","False",170,7400,NA
"A1HWB810RJBV2K","Thu Jan 30 2020 08:46:30 GMT-0500 (Eastern Standard Time)","Thu Jan 30 2020 08:53:26 GMT-0500 (Eastern Standard Time)","Mozilla/5.0 (Windows NT 6.1; Win64; x64) AppleWebKit/537.36 (KHTML, like Gecko) Chrome/79.0.3945.88 Safari/537.36",156,"[0.9, 0.5, 0.1]","[0.8, 0.4, 0.2]","[u'red', u'blue', u'black']","[u'left', u'middle', u'right']","[0.8, 0.4, 0.2]","[u'medium', u'high', u'low']","black",51,"right","low","True","False",298,7500,NA
"A1HWB810RJBV2K","Thu Jan 30 2020 08:46:30 GMT-0500 (Eastern Standard Time)","Thu Jan 30 2020 08:53:26 GMT-0500 (Eastern Standard Time)","Mozilla/5.0 (Windows NT 6.1; Win64; x64) AppleWebKit/537.36 (KHTML, like Gecko) Chrome/79.0.3945.88 Safari/537.36",157,"[0.9, 0.5, 0.1]","[0.8, 0.4, 0.2]","[u'red', u'blue', u'black']","[u'left', u'middle', u'right']","[0.8, 0.4, 0.2]","[u'medium', u'high', u'low']","black",51,"right","low","False","False",301,7450,NA
"A1HWB810RJBV2K","Thu Jan 30 2020 08:46:30 GMT-0500 (Eastern Standard Time)","Thu Jan 30 2020 08:53:26 GMT-0500 (Eastern Standard Time)","Mozilla/5.0 (Windows NT 6.1; Win64; x64) AppleWebKit/537.36 (KHTML, like Gecko) Chrome/79.0.3945.88 Safari/537.36",158,"[0.9, 0.5, 0.1]","[0.8, 0.4, 0.2]","[u'red', u'blue', u'black']","[u'left', u'middle', u'right']","[0.8, 0.4, 0.2]","[u'medium', u'high', u'low']","red",49,"left","medium","True","False",275,7550,NA
"A1HWB810RJBV2K","Thu Jan 30 2020 08:46:30 GMT-0500 (Eastern Standard Time)","Thu Jan 30 2020 08:53:26 GMT-0500 (Eastern Standard Time)","Mozilla/5.0 (Windows NT 6.1; Win64; x64) AppleWebKit/537.36 (KHTML, like Gecko) Chrome/79.0.3945.88 Safari/537.36",159,"[0.9, 0.5, 0.1]","[0.8, 0.4, 0.2]","[u'red', u'blue', u'black']","[u'left', u'middle', u'right']","[0.8, 0.4, 0.2]","[u'medium', u'high', u'low']","red",49,"left","medium","False","False",367,7500,NA
"A1HWB810RJBV2K","Thu Jan 30 2020 08:46:30 GMT-0500 (Eastern Standard Time)","Thu Jan 30 2020 08:53:26 GMT-0500 (Eastern Standard Time)","Mozilla/5.0 (Windows NT 6.1; Win64; x64) AppleWebKit/537.36 (KHTML, like Gecko) Chrome/79.0.3945.88 Safari/537.36",160,"[0.9, 0.5, 0.1]","[0.8, 0.4, 0.2]","[u'red', u'blue', u'black']","[u'left', u'middle', u'right']","[0.8, 0.4, 0.2]","[u'medium', u'high', u'low']","red",49,"left","medium","False","False",506,7450,NA
