"src_subject_id","start_time","end_time","browser","index","first_half_probabilities","second_half_probabilities","deck_color","deck_position","deck_probabilities","deck_contingencies","response_color","key_press","response_position","response_probability","reward_type","trial_type","rt","reward_tally","exclusion_reason"
"A7ERZELTAMWL5","Thu Jan 30 2020 09:15:05 GMT-0500 (Eastern Standard Time)","Thu Jan 30 2020 09:23:12 GMT-0500 (Eastern Standard Time)","Mozilla/5.0 (X11; Linux x86_64) AppleWebKit/537.36 (KHTML, like Gecko) Chrome/79.0.3945.130 Safari/537.36",1,"[0.9, 0.5, 0.1]","[0.8, 0.4, 0.2]","[u'black', u'blue', u'red']","[u'left', u'middle', u'right']","[0.9, 0.5, 0.1]","[u'low', u'medium', u'high']","blue",50,"middle","medium","False","False",1580,-50,NA
"A7ERZELTAMWL5","Thu Jan 30 2020 09:15:05 GMT-0500 (Eastern Standard Time)","Thu Jan 30 2020 09:23:12 GMT-0500 (Eastern Standard Time)","Mozilla/5.0 (X11; Linux x86_64) AppleWebKit/537.36 (KHTML, like Gecko) Chrome/79.0.3945.130 Safari/537.36",2,"[0.9, 0.5, 0.1]","[0.8, 0.4, 0.2]","[u'black', u'blue', u'red']","[u'left', u'middle', u'right']","[0.9, 0.5, 0.1]","[u'low', u'medium', u'high']","blue",50,"middle","medium","False","False",579,-100,NA
"A7ERZELTAMWL5","Thu Jan 30 2020 09:15:05 GMT-0500 (Eastern Standard Time)","Thu Jan 30 2020 09:23:12 GMT-0500 (Eastern Standard Time)","Mozilla/5.0 (X11; Linux x86_64) AppleWebKit/537.36 (KHTML, like Gecko) Chrome/79.0.3945.130 Safari/537.36",3,"[0.9, 0.5, 0.1]","[0.8, 0.4, 0.2]","[u'black', u'blue', u'red']","[u'left', u'middle', u'right']","[0.9, 0.5, 0.1]","[u'low', u'medium', u'high']","black",49,"left","low","False","False",427,-150,NA
"A7ERZELTAMWL5","Thu Jan 30 2020 09:15:05 GMT-0500 (Eastern Standard Time)","Thu Jan 30 2020 09:23:12 GMT-0500 (Eastern Standard Time)","Mozilla/5.0 (X11; Linux x86_64) AppleWebKit/537.36 (KHTML, like Gecko) Chrome/79.0.3945.130 Safari/537.36",4,"[0.9, 0.5, 0.1]","[0.8, 0.4, 0.2]","[u'black', u'blue', u'red']","[u'left', u'middle', u'right']","[0.9, 0.5, 0.1]","[u'low', u'medium', u'high']","black",49,"left","low","False","False",483,-200,NA
"A7ERZELTAMWL5","Thu Jan 30 2020 09:15:05 GMT-0500 (Eastern Standard Time)","Thu Jan 30 2020 09:23:12 GMT-0500 (Eastern Standard Time)","Mozilla/5.0 (X11; Linux x86_64) AppleWebKit/537.36 (KHTML, like Gecko) Chrome/79.0.3945.130 Safari/537.36",5,"[0.9, 0.5, 0.1]","[0.8, 0.4, 0.2]","[u'black', u'blue', u'red']","[u'left', u'middle', u'right']","[0.9, 0.5, 0.1]","[u'low', u'medium', u'high']","red",51,"right","high","False","False",779,-250,NA
"A7ERZELTAMWL5","Thu Jan 30 2020 09:15:05 GMT-0500 (Eastern Standard Time)","Thu Jan 30 2020 09:23:12 GMT-0500 (Eastern Standard Time)","Mozilla/5.0 (X11; Linux x86_64) AppleWebKit/537.36 (KHTML, like Gecko) Chrome/79.0.3945.130 Safari/537.36",6,"[0.9, 0.5, 0.1]","[0.8, 0.4, 0.2]","[u'black', u'blue', u'red']","[u'left', u'middle', u'right']","[0.9, 0.5, 0.1]","[u'low', u'medium', u'high']","blue",50,"middle","medium","False","False",267,-300,NA
"A7ERZELTAMWL5","Thu Jan 30 2020 09:15:05 GMT-0500 (Eastern Standard Time)","Thu Jan 30 2020 09:23:12 GMT-0500 (Eastern Standard Time)","Mozilla/5.0 (X11; Linux x86_64) AppleWebKit/537.36 (KHTML, like Gecko) Chrome/79.0.3945.130 Safari/537.36",7,"[0.9, 0.5, 0.1]","[0.8, 0.4, 0.2]","[u'black', u'blue', u'red']","[u'left', u'middle', u'right']","[0.9, 0.5, 0.1]","[u'low', u'medium', u'high']","black",49,"left","low","False","False",379,-350,NA
"A7ERZELTAMWL5","Thu Jan 30 2020 09:15:05 GMT-0500 (Eastern Standard Time)","Thu Jan 30 2020 09:23:12 GMT-0500 (Eastern Standard Time)","Mozilla/5.0 (X11; Linux x86_64) AppleWebKit/537.36 (KHTML, like Gecko) Chrome/79.0.3945.130 Safari/537.36",8,"[0.9, 0.5, 0.1]","[0.8, 0.4, 0.2]","[u'black', u'blue', u'red']","[u'left', u'middle', u'right']","[0.9, 0.5, 0.1]","[u'low', u'medium', u'high']","black",49,"left","low","False","False",627,-400,NA
"A7ERZELTAMWL5","Thu Jan 30 2020 09:15:05 GMT-0500 (Eastern Standard Time)","Thu Jan 30 2020 09:23:12 GMT-0500 (Eastern Standard Time)","Mozilla/5.0 (X11; Linux x86_64) AppleWebKit/537.36 (KHTML, like Gecko) Chrome/79.0.3945.130 Safari/537.36",9,"[0.9, 0.5, 0.1]","[0.8, 0.4, 0.2]","[u'black', u'blue', u'red']","[u'left', u'middle', u'right']","[0.9, 0.5, 0.1]","[u'low', u'medium', u'high']","red",51,"right","high","False","False",427,-450,NA
"A7ERZELTAMWL5","Thu Jan 30 2020 09:15:05 GMT-0500 (Eastern Standard Time)","Thu Jan 30 2020 09:23:12 GMT-0500 (Eastern Standard Time)","Mozilla/5.0 (X11; Linux x86_64) AppleWebKit/537.36 (KHTML, like Gecko) Chrome/79.0.3945.130 Safari/537.36",10,"[0.9, 0.5, 0.1]","[0.8, 0.4, 0.2]","[u'black', u'blue', u'red']","[u'left', u'middle', u'right']","[0.9, 0.5, 0.1]","[u'low', u'medium', u'high']","blue",50,"middle","medium","True","False",323,-350,NA
"A7ERZELTAMWL5","Thu Jan 30 2020 09:15:05 GMT-0500 (Eastern Standard Time)","Thu Jan 30 2020 09:23:12 GMT-0500 (Eastern Standard Time)","Mozilla/5.0 (X11; Linux x86_64) AppleWebKit/537.36 (KHTML, like Gecko) Chrome/79.0.3945.130 Safari/537.36",11,"[0.9, 0.5, 0.1]","[0.8, 0.4, 0.2]","[u'black', u'blue', u'red']","[u'left', u'middle', u'right']","[0.9, 0.5, 0.1]","[u'low', u'medium', u'high']","blue",50,"middle","medium","True","False",244,-250,NA
"A7ERZELTAMWL5","Thu Jan 30 2020 09:15:05 GMT-0500 (Eastern Standard Time)","Thu Jan 30 2020 09:23:12 GMT-0500 (Eastern Standard Time)","Mozilla/5.0 (X11; Linux x86_64) AppleWebKit/537.36 (KHTML, like Gecko) Chrome/79.0.3945.130 Safari/537.36",12,"[0.9, 0.5, 0.1]","[0.8, 0.4, 0.2]","[u'black', u'blue', u'red']","[u'left', u'middle', u'right']","[0.9, 0.5, 0.1]","[u'low', u'medium', u'high']","blue",50,"middle","medium","True","False",371,-150,NA
"A7ERZELTAMWL5","Thu Jan 30 2020 09:15:05 GMT-0500 (Eastern Standard Time)","Thu Jan 30 2020 09:23:12 GMT-0500 (Eastern Standard Time)","Mozilla/5.0 (X11; Linux x86_64) AppleWebKit/537.36 (KHTML, like Gecko) Chrome/79.0.3945.130 Safari/537.36",13,"[0.9, 0.5, 0.1]","[0.8, 0.4, 0.2]","[u'black', u'blue', u'red']","[u'left', u'middle', u'right']","[0.9, 0.5, 0.1]","[u'low', u'medium', u'high']","blue",50,"middle","medium","True","False",475,-50,NA
"A7ERZELTAMWL5","Thu Jan 30 2020 09:15:05 GMT-0500 (Eastern Standard Time)","Thu Jan 30 2020 09:23:12 GMT-0500 (Eastern Standard Time)","Mozilla/5.0 (X11; Linux x86_64) AppleWebKit/537.36 (KHTML, like Gecko) Chrome/79.0.3945.130 Safari/537.36",14,"[0.9, 0.5, 0.1]","[0.8, 0.4, 0.2]","[u'black', u'blue', u'red']","[u'left', u'middle', u'right']","[0.9, 0.5, 0.1]","[u'low', u'medium', u'high']","blue",50,"middle","medium","True","False",395,50,NA
"A7ERZELTAMWL5","Thu Jan 30 2020 09:15:05 GMT-0500 (Eastern Standard Time)","Thu Jan 30 2020 09:23:12 GMT-0500 (Eastern Standard Time)","Mozilla/5.0 (X11; Linux x86_64) AppleWebKit/537.36 (KHTML, like Gecko) Chrome/79.0.3945.130 Safari/537.36",15,"[0.9, 0.5, 0.1]","[0.8, 0.4, 0.2]","[u'black', u'blue', u'red']","[u'left', u'middle', u'right']","[0.9, 0.5, 0.1]","[u'low', u'medium', u'high']","blue",50,"middle","medium","False","False",363,0,NA
"A7ERZELTAMWL5","Thu Jan 30 2020 09:15:05 GMT-0500 (Eastern Standard Time)","Thu Jan 30 2020 09:23:12 GMT-0500 (Eastern Standard Time)","Mozilla/5.0 (X11; Linux x86_64) AppleWebKit/537.36 (KHTML, like Gecko) Chrome/79.0.3945.130 Safari/537.36",16,"[0.9, 0.5, 0.1]","[0.8, 0.4, 0.2]","[u'black', u'blue', u'red']","[u'left', u'middle', u'right']","[0.9, 0.5, 0.1]","[u'low', u'medium', u'high']","black",49,"left","low","False","False",363,-50,NA
"A7ERZELTAMWL5","Thu Jan 30 2020 09:15:05 GMT-0500 (Eastern Standard Time)","Thu Jan 30 2020 09:23:12 GMT-0500 (Eastern Standard Time)","Mozilla/5.0 (X11; Linux x86_64) AppleWebKit/537.36 (KHTML, like Gecko) Chrome/79.0.3945.130 Safari/537.36",17,"[0.9, 0.5, 0.1]","[0.8, 0.4, 0.2]","[u'black', u'blue', u'red']","[u'left', u'middle', u'right']","[0.9, 0.5, 0.1]","[u'low', u'medium', u'high']","red",51,"right","high","True","False",340,50,NA
"A7ERZELTAMWL5","Thu Jan 30 2020 09:15:05 GMT-0500 (Eastern Standard Time)","Thu Jan 30 2020 09:23:12 GMT-0500 (Eastern Standard Time)","Mozilla/5.0 (X11; Linux x86_64) AppleWebKit/537.36 (KHTML, like Gecko) Chrome/79.0.3945.130 Safari/537.36",18,"[0.9, 0.5, 0.1]","[0.8, 0.4, 0.2]","[u'black', u'blue', u'red']","[u'left', u'middle', u'right']","[0.9, 0.5, 0.1]","[u'low', u'medium', u'high']","red",51,"right","high","False","False",371,0,NA
"A7ERZELTAMWL5","Thu Jan 30 2020 09:15:05 GMT-0500 (Eastern Standard Time)","Thu Jan 30 2020 09:23:12 GMT-0500 (Eastern Standard Time)","Mozilla/5.0 (X11; Linux x86_64) AppleWebKit/537.36 (KHTML, like Gecko) Chrome/79.0.3945.130 Safari/537.36",19,"[0.9, 0.5, 0.1]","[0.8, 0.4, 0.2]","[u'black', u'blue', u'red']","[u'left', u'middle', u'right']","[0.9, 0.5, 0.1]","[u'low', u'medium', u'high']","blue",50,"middle","medium","False","False",395,-50,NA
"A7ERZELTAMWL5","Thu Jan 30 2020 09:15:05 GMT-0500 (Eastern Standard Time)","Thu Jan 30 2020 09:23:12 GMT-0500 (Eastern Standard Time)","Mozilla/5.0 (X11; Linux x86_64) AppleWebKit/537.36 (KHTML, like Gecko) Chrome/79.0.3945.130 Safari/537.36",20,"[0.9, 0.5, 0.1]","[0.8, 0.4, 0.2]","[u'black', u'blue', u'red']","[u'left', u'middle', u'right']","[0.9, 0.5, 0.1]","[u'low', u'medium', u'high']","red",51,"right","high","False","False",330,-100,NA
"A7ERZELTAMWL5","Thu Jan 30 2020 09:15:05 GMT-0500 (Eastern Standard Time)","Thu Jan 30 2020 09:23:12 GMT-0500 (Eastern Standard Time)","Mozilla/5.0 (X11; Linux x86_64) AppleWebKit/537.36 (KHTML, like Gecko) Chrome/79.0.3945.130 Safari/537.36",21,"[0.9, 0.5, 0.1]","[0.8, 0.4, 0.2]","[u'black', u'blue', u'red']","[u'left', u'middle', u'right']","[0.9, 0.5, 0.1]","[u'low', u'medium', u'high']","black",49,"left","low","False","False",372,-150,NA
"A7ERZELTAMWL5","Thu Jan 30 2020 09:15:05 GMT-0500 (Eastern Standard Time)","Thu Jan 30 2020 09:23:12 GMT-0500 (Eastern Standard Time)","Mozilla/5.0 (X11; Linux x86_64) AppleWebKit/537.36 (KHTML, like Gecko) Chrome/79.0.3945.130 Safari/537.36",22,"[0.9, 0.5, 0.1]","[0.8, 0.4, 0.2]","[u'black', u'blue', u'red']","[u'left', u'middle', u'right']","[0.9, 0.5, 0.1]","[u'low', u'medium', u'high']","blue",50,"middle","medium","False","False",67,-200,NA
"A7ERZELTAMWL5","Thu Jan 30 2020 09:15:05 GMT-0500 (Eastern Standard Time)","Thu Jan 30 2020 09:23:12 GMT-0500 (Eastern Standard Time)","Mozilla/5.0 (X11; Linux x86_64) AppleWebKit/537.36 (KHTML, like Gecko) Chrome/79.0.3945.130 Safari/537.36",23,"[0.9, 0.5, 0.1]","[0.8, 0.4, 0.2]","[u'black', u'blue', u'red']","[u'left', u'middle', u'right']","[0.9, 0.5, 0.1]","[u'low', u'medium', u'high']","blue",50,"middle","medium","True","False",156,-100,NA
"A7ERZELTAMWL5","Thu Jan 30 2020 09:15:05 GMT-0500 (Eastern Standard Time)","Thu Jan 30 2020 09:23:12 GMT-0500 (Eastern Standard Time)","Mozilla/5.0 (X11; Linux x86_64) AppleWebKit/537.36 (KHTML, like Gecko) Chrome/79.0.3945.130 Safari/537.36",24,"[0.9, 0.5, 0.1]","[0.8, 0.4, 0.2]","[u'black', u'blue', u'red']","[u'left', u'middle', u'right']","[0.9, 0.5, 0.1]","[u'low', u'medium', u'high']","blue",50,"middle","medium","True","False",322,0,NA
"A7ERZELTAMWL5","Thu Jan 30 2020 09:15:05 GMT-0500 (Eastern Standard Time)","Thu Jan 30 2020 09:23:12 GMT-0500 (Eastern Standard Time)","Mozilla/5.0 (X11; Linux x86_64) AppleWebKit/537.36 (KHTML, like Gecko) Chrome/79.0.3945.130 Safari/537.36",25,"[0.9, 0.5, 0.1]","[0.8, 0.4, 0.2]","[u'black', u'blue', u'red']","[u'left', u'middle', u'right']","[0.9, 0.5, 0.1]","[u'low', u'medium', u'high']","blue",50,"middle","medium","True","False",483,100,NA
"A7ERZELTAMWL5","Thu Jan 30 2020 09:15:05 GMT-0500 (Eastern Standard Time)","Thu Jan 30 2020 09:23:12 GMT-0500 (Eastern Standard Time)","Mozilla/5.0 (X11; Linux x86_64) AppleWebKit/537.36 (KHTML, like Gecko) Chrome/79.0.3945.130 Safari/537.36",26,"[0.9, 0.5, 0.1]","[0.8, 0.4, 0.2]","[u'black', u'blue', u'red']","[u'left', u'middle', u'right']","[0.9, 0.5, 0.1]","[u'low', u'medium', u'high']","blue",50,"middle","medium","True","False",171,200,NA
"A7ERZELTAMWL5","Thu Jan 30 2020 09:15:05 GMT-0500 (Eastern Standard Time)","Thu Jan 30 2020 09:23:12 GMT-0500 (Eastern Standard Time)","Mozilla/5.0 (X11; Linux x86_64) AppleWebKit/537.36 (KHTML, like Gecko) Chrome/79.0.3945.130 Safari/537.36",27,"[0.9, 0.5, 0.1]","[0.8, 0.4, 0.2]","[u'black', u'blue', u'red']","[u'left', u'middle', u'right']","[0.9, 0.5, 0.1]","[u'low', u'medium', u'high']","blue",50,"middle","medium","False","False",507,150,NA
"A7ERZELTAMWL5","Thu Jan 30 2020 09:15:05 GMT-0500 (Eastern Standard Time)","Thu Jan 30 2020 09:23:12 GMT-0500 (Eastern Standard Time)","Mozilla/5.0 (X11; Linux x86_64) AppleWebKit/537.36 (KHTML, like Gecko) Chrome/79.0.3945.130 Safari/537.36",28,"[0.9, 0.5, 0.1]","[0.8, 0.4, 0.2]","[u'black', u'blue', u'red']","[u'left', u'middle', u'right']","[0.9, 0.5, 0.1]","[u'low', u'medium', u'high']","black",49,"left","low","False","False",355,100,NA
"A7ERZELTAMWL5","Thu Jan 30 2020 09:15:05 GMT-0500 (Eastern Standard Time)","Thu Jan 30 2020 09:23:12 GMT-0500 (Eastern Standard Time)","Mozilla/5.0 (X11; Linux x86_64) AppleWebKit/537.36 (KHTML, like Gecko) Chrome/79.0.3945.130 Safari/537.36",29,"[0.9, 0.5, 0.1]","[0.8, 0.4, 0.2]","[u'black', u'blue', u'red']","[u'left', u'middle', u'right']","[0.9, 0.5, 0.1]","[u'low', u'medium', u'high']","black",49,"left","low","False","False",332,50,NA
"A7ERZELTAMWL5","Thu Jan 30 2020 09:15:05 GMT-0500 (Eastern Standard Time)","Thu Jan 30 2020 09:23:12 GMT-0500 (Eastern Standard Time)","Mozilla/5.0 (X11; Linux x86_64) AppleWebKit/537.36 (KHTML, like Gecko) Chrome/79.0.3945.130 Safari/537.36",30,"[0.9, 0.5, 0.1]","[0.8, 0.4, 0.2]","[u'black', u'blue', u'red']","[u'left', u'middle', u'right']","[0.9, 0.5, 0.1]","[u'low', u'medium', u'high']","black",49,"left","low","False","False",355,0,NA
"A7ERZELTAMWL5","Thu Jan 30 2020 09:15:05 GMT-0500 (Eastern Standard Time)","Thu Jan 30 2020 09:23:12 GMT-0500 (Eastern Standard Time)","Mozilla/5.0 (X11; Linux x86_64) AppleWebKit/537.36 (KHTML, like Gecko) Chrome/79.0.3945.130 Safari/537.36",31,"[0.9, 0.5, 0.1]","[0.8, 0.4, 0.2]","[u'black', u'blue', u'red']","[u'left', u'middle', u'right']","[0.9, 0.5, 0.1]","[u'low', u'medium', u'high']","red",51,"right","high","True","False",339,100,NA
"A7ERZELTAMWL5","Thu Jan 30 2020 09:15:05 GMT-0500 (Eastern Standard Time)","Thu Jan 30 2020 09:23:12 GMT-0500 (Eastern Standard Time)","Mozilla/5.0 (X11; Linux x86_64) AppleWebKit/537.36 (KHTML, like Gecko) Chrome/79.0.3945.130 Safari/537.36",32,"[0.9, 0.5, 0.1]","[0.8, 0.4, 0.2]","[u'black', u'blue', u'red']","[u'left', u'middle', u'right']","[0.9, 0.5, 0.1]","[u'low', u'medium', u'high']","red",51,"right","high","True","False",411,200,NA
"A7ERZELTAMWL5","Thu Jan 30 2020 09:15:05 GMT-0500 (Eastern Standard Time)","Thu Jan 30 2020 09:23:12 GMT-0500 (Eastern Standard Time)","Mozilla/5.0 (X11; Linux x86_64) AppleWebKit/537.36 (KHTML, like Gecko) Chrome/79.0.3945.130 Safari/537.36",33,"[0.9, 0.5, 0.1]","[0.8, 0.4, 0.2]","[u'black', u'blue', u'red']","[u'left', u'middle', u'right']","[0.9, 0.5, 0.1]","[u'low', u'medium', u'high']","red",51,"right","high","True","False",379,300,NA
"A7ERZELTAMWL5","Thu Jan 30 2020 09:15:05 GMT-0500 (Eastern Standard Time)","Thu Jan 30 2020 09:23:12 GMT-0500 (Eastern Standard Time)","Mozilla/5.0 (X11; Linux x86_64) AppleWebKit/537.36 (KHTML, like Gecko) Chrome/79.0.3945.130 Safari/537.36",34,"[0.9, 0.5, 0.1]","[0.8, 0.4, 0.2]","[u'black', u'blue', u'red']","[u'left', u'middle', u'right']","[0.9, 0.5, 0.1]","[u'low', u'medium', u'high']","red",51,"right","high","True","False",395,400,NA
"A7ERZELTAMWL5","Thu Jan 30 2020 09:15:05 GMT-0500 (Eastern Standard Time)","Thu Jan 30 2020 09:23:12 GMT-0500 (Eastern Standard Time)","Mozilla/5.0 (X11; Linux x86_64) AppleWebKit/537.36 (KHTML, like Gecko) Chrome/79.0.3945.130 Safari/537.36",35,"[0.9, 0.5, 0.1]","[0.8, 0.4, 0.2]","[u'black', u'blue', u'red']","[u'left', u'middle', u'right']","[0.9, 0.5, 0.1]","[u'low', u'medium', u'high']","red",51,"right","high","False","False",436,350,NA
"A7ERZELTAMWL5","Thu Jan 30 2020 09:15:05 GMT-0500 (Eastern Standard Time)","Thu Jan 30 2020 09:23:12 GMT-0500 (Eastern Standard Time)","Mozilla/5.0 (X11; Linux x86_64) AppleWebKit/537.36 (KHTML, like Gecko) Chrome/79.0.3945.130 Safari/537.36",36,"[0.9, 0.5, 0.1]","[0.8, 0.4, 0.2]","[u'black', u'blue', u'red']","[u'left', u'middle', u'right']","[0.9, 0.5, 0.1]","[u'low', u'medium', u'high']","black",49,"left","low","False","False",378,300,NA
"A7ERZELTAMWL5","Thu Jan 30 2020 09:15:05 GMT-0500 (Eastern Standard Time)","Thu Jan 30 2020 09:23:12 GMT-0500 (Eastern Standard Time)","Mozilla/5.0 (X11; Linux x86_64) AppleWebKit/537.36 (KHTML, like Gecko) Chrome/79.0.3945.130 Safari/537.36",37,"[0.9, 0.5, 0.1]","[0.8, 0.4, 0.2]","[u'black', u'blue', u'red']","[u'left', u'middle', u'right']","[0.9, 0.5, 0.1]","[u'low', u'medium', u'high']","black",49,"left","low","False","False",139,250,NA
"A7ERZELTAMWL5","Thu Jan 30 2020 09:15:05 GMT-0500 (Eastern Standard Time)","Thu Jan 30 2020 09:23:12 GMT-0500 (Eastern Standard Time)","Mozilla/5.0 (X11; Linux x86_64) AppleWebKit/537.36 (KHTML, like Gecko) Chrome/79.0.3945.130 Safari/537.36",38,"[0.9, 0.5, 0.1]","[0.8, 0.4, 0.2]","[u'black', u'blue', u'red']","[u'left', u'middle', u'right']","[0.9, 0.5, 0.1]","[u'low', u'medium', u'high']","red",51,"right","high","True","False",340,350,NA
"A7ERZELTAMWL5","Thu Jan 30 2020 09:15:05 GMT-0500 (Eastern Standard Time)","Thu Jan 30 2020 09:23:12 GMT-0500 (Eastern Standard Time)","Mozilla/5.0 (X11; Linux x86_64) AppleWebKit/537.36 (KHTML, like Gecko) Chrome/79.0.3945.130 Safari/537.36",39,"[0.9, 0.5, 0.1]","[0.8, 0.4, 0.2]","[u'black', u'blue', u'red']","[u'left', u'middle', u'right']","[0.9, 0.5, 0.1]","[u'low', u'medium', u'high']","red",51,"right","high","True","False",363,450,NA
"A7ERZELTAMWL5","Thu Jan 30 2020 09:15:05 GMT-0500 (Eastern Standard Time)","Thu Jan 30 2020 09:23:12 GMT-0500 (Eastern Standard Time)","Mozilla/5.0 (X11; Linux x86_64) AppleWebKit/537.36 (KHTML, like Gecko) Chrome/79.0.3945.130 Safari/537.36",40,"[0.9, 0.5, 0.1]","[0.8, 0.4, 0.2]","[u'black', u'blue', u'red']","[u'left', u'middle', u'right']","[0.9, 0.5, 0.1]","[u'low', u'medium', u'high']","red",51,"right","high","True","False",531,550,NA
"A7ERZELTAMWL5","Thu Jan 30 2020 09:15:05 GMT-0500 (Eastern Standard Time)","Thu Jan 30 2020 09:23:12 GMT-0500 (Eastern Standard Time)","Mozilla/5.0 (X11; Linux x86_64) AppleWebKit/537.36 (KHTML, like Gecko) Chrome/79.0.3945.130 Safari/537.36",41,"[0.9, 0.5, 0.1]","[0.8, 0.4, 0.2]","[u'black', u'blue', u'red']","[u'left', u'middle', u'right']","[0.9, 0.5, 0.1]","[u'low', u'high', u'medium']","blue",50,"middle","high","True","False",1027,650,NA
"A7ERZELTAMWL5","Thu Jan 30 2020 09:15:05 GMT-0500 (Eastern Standard Time)","Thu Jan 30 2020 09:23:12 GMT-0500 (Eastern Standard Time)","Mozilla/5.0 (X11; Linux x86_64) AppleWebKit/537.36 (KHTML, like Gecko) Chrome/79.0.3945.130 Safari/537.36",42,"[0.9, 0.5, 0.1]","[0.8, 0.4, 0.2]","[u'black', u'blue', u'red']","[u'left', u'middle', u'right']","[0.9, 0.5, 0.1]","[u'low', u'high', u'medium']","blue",50,"middle","high","True","False",235,750,NA
"A7ERZELTAMWL5","Thu Jan 30 2020 09:15:05 GMT-0500 (Eastern Standard Time)","Thu Jan 30 2020 09:23:12 GMT-0500 (Eastern Standard Time)","Mozilla/5.0 (X11; Linux x86_64) AppleWebKit/537.36 (KHTML, like Gecko) Chrome/79.0.3945.130 Safari/537.36",43,"[0.9, 0.5, 0.1]","[0.8, 0.4, 0.2]","[u'black', u'blue', u'red']","[u'left', u'middle', u'right']","[0.9, 0.5, 0.1]","[u'low', u'high', u'medium']","blue",50,"middle","high","True","False",28,850,NA
"A7ERZELTAMWL5","Thu Jan 30 2020 09:15:05 GMT-0500 (Eastern Standard Time)","Thu Jan 30 2020 09:23:12 GMT-0500 (Eastern Standard Time)","Mozilla/5.0 (X11; Linux x86_64) AppleWebKit/537.36 (KHTML, like Gecko) Chrome/79.0.3945.130 Safari/537.36",44,"[0.9, 0.5, 0.1]","[0.8, 0.4, 0.2]","[u'black', u'blue', u'red']","[u'left', u'middle', u'right']","[0.9, 0.5, 0.1]","[u'low', u'high', u'medium']","blue",50,"middle","high","True","False",259,950,NA
"A7ERZELTAMWL5","Thu Jan 30 2020 09:15:05 GMT-0500 (Eastern Standard Time)","Thu Jan 30 2020 09:23:12 GMT-0500 (Eastern Standard Time)","Mozilla/5.0 (X11; Linux x86_64) AppleWebKit/537.36 (KHTML, like Gecko) Chrome/79.0.3945.130 Safari/537.36",45,"[0.9, 0.5, 0.1]","[0.8, 0.4, 0.2]","[u'black', u'blue', u'red']","[u'left', u'middle', u'right']","[0.9, 0.5, 0.1]","[u'low', u'high', u'medium']","blue",50,"middle","high","True","False",322,1050,NA
"A7ERZELTAMWL5","Thu Jan 30 2020 09:15:05 GMT-0500 (Eastern Standard Time)","Thu Jan 30 2020 09:23:12 GMT-0500 (Eastern Standard Time)","Mozilla/5.0 (X11; Linux x86_64) AppleWebKit/537.36 (KHTML, like Gecko) Chrome/79.0.3945.130 Safari/537.36",46,"[0.9, 0.5, 0.1]","[0.8, 0.4, 0.2]","[u'black', u'blue', u'red']","[u'left', u'middle', u'right']","[0.9, 0.5, 0.1]","[u'low', u'high', u'medium']","blue",50,"middle","high","True","False",411,1150,NA
"A7ERZELTAMWL5","Thu Jan 30 2020 09:15:05 GMT-0500 (Eastern Standard Time)","Thu Jan 30 2020 09:23:12 GMT-0500 (Eastern Standard Time)","Mozilla/5.0 (X11; Linux x86_64) AppleWebKit/537.36 (KHTML, like Gecko) Chrome/79.0.3945.130 Safari/537.36",47,"[0.9, 0.5, 0.1]","[0.8, 0.4, 0.2]","[u'black', u'blue', u'red']","[u'left', u'middle', u'right']","[0.9, 0.5, 0.1]","[u'low', u'high', u'medium']","blue",50,"middle","high","True","False",307,1250,NA
"A7ERZELTAMWL5","Thu Jan 30 2020 09:15:05 GMT-0500 (Eastern Standard Time)","Thu Jan 30 2020 09:23:12 GMT-0500 (Eastern Standard Time)","Mozilla/5.0 (X11; Linux x86_64) AppleWebKit/537.36 (KHTML, like Gecko) Chrome/79.0.3945.130 Safari/537.36",48,"[0.9, 0.5, 0.1]","[0.8, 0.4, 0.2]","[u'black', u'blue', u'red']","[u'left', u'middle', u'right']","[0.9, 0.5, 0.1]","[u'low', u'high', u'medium']","blue",50,"middle","high","True","False",283,1350,NA
"A7ERZELTAMWL5","Thu Jan 30 2020 09:15:05 GMT-0500 (Eastern Standard Time)","Thu Jan 30 2020 09:23:12 GMT-0500 (Eastern Standard Time)","Mozilla/5.0 (X11; Linux x86_64) AppleWebKit/537.36 (KHTML, like Gecko) Chrome/79.0.3945.130 Safari/537.36",49,"[0.9, 0.5, 0.1]","[0.8, 0.4, 0.2]","[u'black', u'blue', u'red']","[u'left', u'middle', u'right']","[0.9, 0.5, 0.1]","[u'low', u'high', u'medium']","blue",50,"middle","high","True","True",395,1450,NA
"A7ERZELTAMWL5","Thu Jan 30 2020 09:15:05 GMT-0500 (Eastern Standard Time)","Thu Jan 30 2020 09:23:12 GMT-0500 (Eastern Standard Time)","Mozilla/5.0 (X11; Linux x86_64) AppleWebKit/537.36 (KHTML, like Gecko) Chrome/79.0.3945.130 Safari/537.36",50,"[0.9, 0.5, 0.1]","[0.8, 0.4, 0.2]","[u'black', u'blue', u'red']","[u'left', u'middle', u'right']","[0.9, 0.5, 0.1]","[u'high', u'medium', u'low']","blue",50,"middle","medium","False","False",276,1400,NA
"A7ERZELTAMWL5","Thu Jan 30 2020 09:15:05 GMT-0500 (Eastern Standard Time)","Thu Jan 30 2020 09:23:12 GMT-0500 (Eastern Standard Time)","Mozilla/5.0 (X11; Linux x86_64) AppleWebKit/537.36 (KHTML, like Gecko) Chrome/79.0.3945.130 Safari/537.36",51,"[0.9, 0.5, 0.1]","[0.8, 0.4, 0.2]","[u'black', u'blue', u'red']","[u'left', u'middle', u'right']","[0.9, 0.5, 0.1]","[u'high', u'medium', u'low']","red",51,"right","low","False","False",290,1350,NA
"A7ERZELTAMWL5","Thu Jan 30 2020 09:15:05 GMT-0500 (Eastern Standard Time)","Thu Jan 30 2020 09:23:12 GMT-0500 (Eastern Standard Time)","Mozilla/5.0 (X11; Linux x86_64) AppleWebKit/537.36 (KHTML, like Gecko) Chrome/79.0.3945.130 Safari/537.36",52,"[0.9, 0.5, 0.1]","[0.8, 0.4, 0.2]","[u'black', u'blue', u'red']","[u'left', u'middle', u'right']","[0.9, 0.5, 0.1]","[u'high', u'medium', u'low']","black",49,"left","high","True","False",171,1450,NA
"A7ERZELTAMWL5","Thu Jan 30 2020 09:15:05 GMT-0500 (Eastern Standard Time)","Thu Jan 30 2020 09:23:12 GMT-0500 (Eastern Standard Time)","Mozilla/5.0 (X11; Linux x86_64) AppleWebKit/537.36 (KHTML, like Gecko) Chrome/79.0.3945.130 Safari/537.36",53,"[0.9, 0.5, 0.1]","[0.8, 0.4, 0.2]","[u'black', u'blue', u'red']","[u'left', u'middle', u'right']","[0.9, 0.5, 0.1]","[u'high', u'medium', u'low']","black",49,"left","high","True","False",244,1550,NA
"A7ERZELTAMWL5","Thu Jan 30 2020 09:15:05 GMT-0500 (Eastern Standard Time)","Thu Jan 30 2020 09:23:12 GMT-0500 (Eastern Standard Time)","Mozilla/5.0 (X11; Linux x86_64) AppleWebKit/537.36 (KHTML, like Gecko) Chrome/79.0.3945.130 Safari/537.36",54,"[0.9, 0.5, 0.1]","[0.8, 0.4, 0.2]","[u'black', u'blue', u'red']","[u'left', u'middle', u'right']","[0.9, 0.5, 0.1]","[u'high', u'medium', u'low']","black",49,"left","high","True","False",283,1650,NA
"A7ERZELTAMWL5","Thu Jan 30 2020 09:15:05 GMT-0500 (Eastern Standard Time)","Thu Jan 30 2020 09:23:12 GMT-0500 (Eastern Standard Time)","Mozilla/5.0 (X11; Linux x86_64) AppleWebKit/537.36 (KHTML, like Gecko) Chrome/79.0.3945.130 Safari/537.36",55,"[0.9, 0.5, 0.1]","[0.8, 0.4, 0.2]","[u'black', u'blue', u'red']","[u'left', u'middle', u'right']","[0.9, 0.5, 0.1]","[u'high', u'medium', u'low']","black",49,"left","high","True","False",243,1750,NA
"A7ERZELTAMWL5","Thu Jan 30 2020 09:15:05 GMT-0500 (Eastern Standard Time)","Thu Jan 30 2020 09:23:12 GMT-0500 (Eastern Standard Time)","Mozilla/5.0 (X11; Linux x86_64) AppleWebKit/537.36 (KHTML, like Gecko) Chrome/79.0.3945.130 Safari/537.36",56,"[0.9, 0.5, 0.1]","[0.8, 0.4, 0.2]","[u'black', u'blue', u'red']","[u'left', u'middle', u'right']","[0.9, 0.5, 0.1]","[u'high', u'medium', u'low']","black",49,"left","high","False","False",212,1700,NA
"A7ERZELTAMWL5","Thu Jan 30 2020 09:15:05 GMT-0500 (Eastern Standard Time)","Thu Jan 30 2020 09:23:12 GMT-0500 (Eastern Standard Time)","Mozilla/5.0 (X11; Linux x86_64) AppleWebKit/537.36 (KHTML, like Gecko) Chrome/79.0.3945.130 Safari/537.36",57,"[0.9, 0.5, 0.1]","[0.8, 0.4, 0.2]","[u'black', u'blue', u'red']","[u'left', u'middle', u'right']","[0.9, 0.5, 0.1]","[u'high', u'medium', u'low']","red",51,"right","low","True","False",362,1800,NA
"A7ERZELTAMWL5","Thu Jan 30 2020 09:15:05 GMT-0500 (Eastern Standard Time)","Thu Jan 30 2020 09:23:12 GMT-0500 (Eastern Standard Time)","Mozilla/5.0 (X11; Linux x86_64) AppleWebKit/537.36 (KHTML, like Gecko) Chrome/79.0.3945.130 Safari/537.36",58,"[0.9, 0.5, 0.1]","[0.8, 0.4, 0.2]","[u'black', u'blue', u'red']","[u'left', u'middle', u'right']","[0.9, 0.5, 0.1]","[u'high', u'medium', u'low']","red",51,"right","low","False","False",372,1750,NA
"A7ERZELTAMWL5","Thu Jan 30 2020 09:15:05 GMT-0500 (Eastern Standard Time)","Thu Jan 30 2020 09:23:12 GMT-0500 (Eastern Standard Time)","Mozilla/5.0 (X11; Linux x86_64) AppleWebKit/537.36 (KHTML, like Gecko) Chrome/79.0.3945.130 Safari/537.36",59,"[0.9, 0.5, 0.1]","[0.8, 0.4, 0.2]","[u'black', u'blue', u'red']","[u'left', u'middle', u'right']","[0.9, 0.5, 0.1]","[u'high', u'medium', u'low']","black",49,"left","high","True","False",299,1850,NA
"A7ERZELTAMWL5","Thu Jan 30 2020 09:15:05 GMT-0500 (Eastern Standard Time)","Thu Jan 30 2020 09:23:12 GMT-0500 (Eastern Standard Time)","Mozilla/5.0 (X11; Linux x86_64) AppleWebKit/537.36 (KHTML, like Gecko) Chrome/79.0.3945.130 Safari/537.36",60,"[0.9, 0.5, 0.1]","[0.8, 0.4, 0.2]","[u'black', u'blue', u'red']","[u'left', u'middle', u'right']","[0.9, 0.5, 0.1]","[u'high', u'medium', u'low']","black",49,"left","high","True","False",179,1950,NA
"A7ERZELTAMWL5","Thu Jan 30 2020 09:15:05 GMT-0500 (Eastern Standard Time)","Thu Jan 30 2020 09:23:12 GMT-0500 (Eastern Standard Time)","Mozilla/5.0 (X11; Linux x86_64) AppleWebKit/537.36 (KHTML, like Gecko) Chrome/79.0.3945.130 Safari/537.36",61,"[0.9, 0.5, 0.1]","[0.8, 0.4, 0.2]","[u'black', u'blue', u'red']","[u'left', u'middle', u'right']","[0.9, 0.5, 0.1]","[u'high', u'medium', u'low']","black",49,"left","high","True","False",379,2050,NA
"A7ERZELTAMWL5","Thu Jan 30 2020 09:15:05 GMT-0500 (Eastern Standard Time)","Thu Jan 30 2020 09:23:12 GMT-0500 (Eastern Standard Time)","Mozilla/5.0 (X11; Linux x86_64) AppleWebKit/537.36 (KHTML, like Gecko) Chrome/79.0.3945.130 Safari/537.36",62,"[0.9, 0.5, 0.1]","[0.8, 0.4, 0.2]","[u'black', u'blue', u'red']","[u'left', u'middle', u'right']","[0.9, 0.5, 0.1]","[u'high', u'medium', u'low']","black",49,"left","high","True","False",324,2150,NA
"A7ERZELTAMWL5","Thu Jan 30 2020 09:15:05 GMT-0500 (Eastern Standard Time)","Thu Jan 30 2020 09:23:12 GMT-0500 (Eastern Standard Time)","Mozilla/5.0 (X11; Linux x86_64) AppleWebKit/537.36 (KHTML, like Gecko) Chrome/79.0.3945.130 Safari/537.36",63,"[0.9, 0.5, 0.1]","[0.8, 0.4, 0.2]","[u'black', u'blue', u'red']","[u'left', u'middle', u'right']","[0.9, 0.5, 0.1]","[u'high', u'medium', u'low']","black",49,"left","high","True","False",482,2250,NA
"A7ERZELTAMWL5","Thu Jan 30 2020 09:15:05 GMT-0500 (Eastern Standard Time)","Thu Jan 30 2020 09:23:12 GMT-0500 (Eastern Standard Time)","Mozilla/5.0 (X11; Linux x86_64) AppleWebKit/537.36 (KHTML, like Gecko) Chrome/79.0.3945.130 Safari/537.36",64,"[0.9, 0.5, 0.1]","[0.8, 0.4, 0.2]","[u'black', u'blue', u'red']","[u'left', u'middle', u'right']","[0.9, 0.5, 0.1]","[u'high', u'medium', u'low']","black",49,"left","high","True","False",413,2350,NA
"A7ERZELTAMWL5","Thu Jan 30 2020 09:15:05 GMT-0500 (Eastern Standard Time)","Thu Jan 30 2020 09:23:12 GMT-0500 (Eastern Standard Time)","Mozilla/5.0 (X11; Linux x86_64) AppleWebKit/537.36 (KHTML, like Gecko) Chrome/79.0.3945.130 Safari/537.36",65,"[0.9, 0.5, 0.1]","[0.8, 0.4, 0.2]","[u'black', u'blue', u'red']","[u'left', u'middle', u'right']","[0.9, 0.5, 0.1]","[u'high', u'medium', u'low']","black",49,"left","high","True","False",380,2450,NA
"A7ERZELTAMWL5","Thu Jan 30 2020 09:15:05 GMT-0500 (Eastern Standard Time)","Thu Jan 30 2020 09:23:12 GMT-0500 (Eastern Standard Time)","Mozilla/5.0 (X11; Linux x86_64) AppleWebKit/537.36 (KHTML, like Gecko) Chrome/79.0.3945.130 Safari/537.36",66,"[0.9, 0.5, 0.1]","[0.8, 0.4, 0.2]","[u'black', u'blue', u'red']","[u'left', u'middle', u'right']","[0.9, 0.5, 0.1]","[u'high', u'medium', u'low']","black",49,"left","high","True","False",235,2550,NA
"A7ERZELTAMWL5","Thu Jan 30 2020 09:15:05 GMT-0500 (Eastern Standard Time)","Thu Jan 30 2020 09:23:12 GMT-0500 (Eastern Standard Time)","Mozilla/5.0 (X11; Linux x86_64) AppleWebKit/537.36 (KHTML, like Gecko) Chrome/79.0.3945.130 Safari/537.36",67,"[0.9, 0.5, 0.1]","[0.8, 0.4, 0.2]","[u'black', u'blue', u'red']","[u'left', u'middle', u'right']","[0.9, 0.5, 0.1]","[u'high', u'medium', u'low']","black",49,"left","high","True","True",396,2650,NA
"A7ERZELTAMWL5","Thu Jan 30 2020 09:15:05 GMT-0500 (Eastern Standard Time)","Thu Jan 30 2020 09:23:12 GMT-0500 (Eastern Standard Time)","Mozilla/5.0 (X11; Linux x86_64) AppleWebKit/537.36 (KHTML, like Gecko) Chrome/79.0.3945.130 Safari/537.36",68,"[0.9, 0.5, 0.1]","[0.8, 0.4, 0.2]","[u'black', u'blue', u'red']","[u'left', u'middle', u'right']","[0.9, 0.5, 0.1]","[u'medium', u'low', u'high']","black",49,"left","medium","False","False",284,2600,NA
"A7ERZELTAMWL5","Thu Jan 30 2020 09:15:05 GMT-0500 (Eastern Standard Time)","Thu Jan 30 2020 09:23:12 GMT-0500 (Eastern Standard Time)","Mozilla/5.0 (X11; Linux x86_64) AppleWebKit/537.36 (KHTML, like Gecko) Chrome/79.0.3945.130 Safari/537.36",69,"[0.9, 0.5, 0.1]","[0.8, 0.4, 0.2]","[u'black', u'blue', u'red']","[u'left', u'middle', u'right']","[0.9, 0.5, 0.1]","[u'medium', u'low', u'high']","blue",50,"middle","low","False","False",298,2550,NA
"A7ERZELTAMWL5","Thu Jan 30 2020 09:15:05 GMT-0500 (Eastern Standard Time)","Thu Jan 30 2020 09:23:12 GMT-0500 (Eastern Standard Time)","Mozilla/5.0 (X11; Linux x86_64) AppleWebKit/537.36 (KHTML, like Gecko) Chrome/79.0.3945.130 Safari/537.36",70,"[0.9, 0.5, 0.1]","[0.8, 0.4, 0.2]","[u'black', u'blue', u'red']","[u'left', u'middle', u'right']","[0.9, 0.5, 0.1]","[u'medium', u'low', u'high']","black",49,"left","medium","True","False",10,2650,NA
"A7ERZELTAMWL5","Thu Jan 30 2020 09:15:05 GMT-0500 (Eastern Standard Time)","Thu Jan 30 2020 09:23:12 GMT-0500 (Eastern Standard Time)","Mozilla/5.0 (X11; Linux x86_64) AppleWebKit/537.36 (KHTML, like Gecko) Chrome/79.0.3945.130 Safari/537.36",71,"[0.9, 0.5, 0.1]","[0.8, 0.4, 0.2]","[u'black', u'blue', u'red']","[u'left', u'middle', u'right']","[0.9, 0.5, 0.1]","[u'medium', u'low', u'high']","black",49,"left","medium","False","False",300,2600,NA
"A7ERZELTAMWL5","Thu Jan 30 2020 09:15:05 GMT-0500 (Eastern Standard Time)","Thu Jan 30 2020 09:23:12 GMT-0500 (Eastern Standard Time)","Mozilla/5.0 (X11; Linux x86_64) AppleWebKit/537.36 (KHTML, like Gecko) Chrome/79.0.3945.130 Safari/537.36",72,"[0.9, 0.5, 0.1]","[0.8, 0.4, 0.2]","[u'black', u'blue', u'red']","[u'left', u'middle', u'right']","[0.9, 0.5, 0.1]","[u'medium', u'low', u'high']","red",51,"right","high","True","False",308,2700,NA
"A7ERZELTAMWL5","Thu Jan 30 2020 09:15:05 GMT-0500 (Eastern Standard Time)","Thu Jan 30 2020 09:23:12 GMT-0500 (Eastern Standard Time)","Mozilla/5.0 (X11; Linux x86_64) AppleWebKit/537.36 (KHTML, like Gecko) Chrome/79.0.3945.130 Safari/537.36",73,"[0.9, 0.5, 0.1]","[0.8, 0.4, 0.2]","[u'black', u'blue', u'red']","[u'left', u'middle', u'right']","[0.9, 0.5, 0.1]","[u'medium', u'low', u'high']","red",51,"right","high","True","False",274,2800,NA
"A7ERZELTAMWL5","Thu Jan 30 2020 09:15:05 GMT-0500 (Eastern Standard Time)","Thu Jan 30 2020 09:23:12 GMT-0500 (Eastern Standard Time)","Mozilla/5.0 (X11; Linux x86_64) AppleWebKit/537.36 (KHTML, like Gecko) Chrome/79.0.3945.130 Safari/537.36",74,"[0.9, 0.5, 0.1]","[0.8, 0.4, 0.2]","[u'black', u'blue', u'red']","[u'left', u'middle', u'right']","[0.9, 0.5, 0.1]","[u'medium', u'low', u'high']","red",51,"right","high","True","False",324,2900,NA
"A7ERZELTAMWL5","Thu Jan 30 2020 09:15:05 GMT-0500 (Eastern Standard Time)","Thu Jan 30 2020 09:23:12 GMT-0500 (Eastern Standard Time)","Mozilla/5.0 (X11; Linux x86_64) AppleWebKit/537.36 (KHTML, like Gecko) Chrome/79.0.3945.130 Safari/537.36",75,"[0.9, 0.5, 0.1]","[0.8, 0.4, 0.2]","[u'black', u'blue', u'red']","[u'left', u'middle', u'right']","[0.9, 0.5, 0.1]","[u'medium', u'low', u'high']","red",51,"right","high","False","False",315,2850,NA
"A7ERZELTAMWL5","Thu Jan 30 2020 09:15:05 GMT-0500 (Eastern Standard Time)","Thu Jan 30 2020 09:23:12 GMT-0500 (Eastern Standard Time)","Mozilla/5.0 (X11; Linux x86_64) AppleWebKit/537.36 (KHTML, like Gecko) Chrome/79.0.3945.130 Safari/537.36",76,"[0.9, 0.5, 0.1]","[0.8, 0.4, 0.2]","[u'black', u'blue', u'red']","[u'left', u'middle', u'right']","[0.9, 0.5, 0.1]","[u'medium', u'low', u'high']","blue",50,"middle","low","False","False",299,2800,NA
"A7ERZELTAMWL5","Thu Jan 30 2020 09:15:05 GMT-0500 (Eastern Standard Time)","Thu Jan 30 2020 09:23:12 GMT-0500 (Eastern Standard Time)","Mozilla/5.0 (X11; Linux x86_64) AppleWebKit/537.36 (KHTML, like Gecko) Chrome/79.0.3945.130 Safari/537.36",77,"[0.9, 0.5, 0.1]","[0.8, 0.4, 0.2]","[u'black', u'blue', u'red']","[u'left', u'middle', u'right']","[0.9, 0.5, 0.1]","[u'medium', u'low', u'high']","red",51,"right","high","True","False",282,2900,NA
"A7ERZELTAMWL5","Thu Jan 30 2020 09:15:05 GMT-0500 (Eastern Standard Time)","Thu Jan 30 2020 09:23:12 GMT-0500 (Eastern Standard Time)","Mozilla/5.0 (X11; Linux x86_64) AppleWebKit/537.36 (KHTML, like Gecko) Chrome/79.0.3945.130 Safari/537.36",78,"[0.9, 0.5, 0.1]","[0.8, 0.4, 0.2]","[u'black', u'blue', u'red']","[u'left', u'middle', u'right']","[0.9, 0.5, 0.1]","[u'medium', u'low', u'high']","red",51,"right","high","True","False",308,3000,NA
"A7ERZELTAMWL5","Thu Jan 30 2020 09:15:05 GMT-0500 (Eastern Standard Time)","Thu Jan 30 2020 09:23:12 GMT-0500 (Eastern Standard Time)","Mozilla/5.0 (X11; Linux x86_64) AppleWebKit/537.36 (KHTML, like Gecko) Chrome/79.0.3945.130 Safari/537.36",79,"[0.9, 0.5, 0.1]","[0.8, 0.4, 0.2]","[u'black', u'blue', u'red']","[u'left', u'middle', u'right']","[0.9, 0.5, 0.1]","[u'medium', u'low', u'high']","red",51,"right","high","True","False",322,3100,NA
"A7ERZELTAMWL5","Thu Jan 30 2020 09:15:05 GMT-0500 (Eastern Standard Time)","Thu Jan 30 2020 09:23:12 GMT-0500 (Eastern Standard Time)","Mozilla/5.0 (X11; Linux x86_64) AppleWebKit/537.36 (KHTML, like Gecko) Chrome/79.0.3945.130 Safari/537.36",80,"[0.9, 0.5, 0.1]","[0.8, 0.4, 0.2]","[u'black', u'blue', u'red']","[u'left', u'middle', u'right']","[0.9, 0.5, 0.1]","[u'medium', u'low', u'high']","red",51,"right","high","True","False",284,3200,NA
"A7ERZELTAMWL5","Thu Jan 30 2020 09:15:05 GMT-0500 (Eastern Standard Time)","Thu Jan 30 2020 09:23:12 GMT-0500 (Eastern Standard Time)","Mozilla/5.0 (X11; Linux x86_64) AppleWebKit/537.36 (KHTML, like Gecko) Chrome/79.0.3945.130 Safari/537.36",81,"[0.9, 0.5, 0.1]","[0.8, 0.4, 0.2]","[u'black', u'blue', u'red']","[u'left', u'middle', u'right']","[0.8, 0.4, 0.2]","[u'high', u'medium', u'low']","black",49,"left","high","True","False",451,3300,NA
"A7ERZELTAMWL5","Thu Jan 30 2020 09:15:05 GMT-0500 (Eastern Standard Time)","Thu Jan 30 2020 09:23:12 GMT-0500 (Eastern Standard Time)","Mozilla/5.0 (X11; Linux x86_64) AppleWebKit/537.36 (KHTML, like Gecko) Chrome/79.0.3945.130 Safari/537.36",82,"[0.9, 0.5, 0.1]","[0.8, 0.4, 0.2]","[u'black', u'blue', u'red']","[u'left', u'middle', u'right']","[0.8, 0.4, 0.2]","[u'high', u'medium', u'low']","black",49,"left","high","True","False",123,3400,NA
"A7ERZELTAMWL5","Thu Jan 30 2020 09:15:05 GMT-0500 (Eastern Standard Time)","Thu Jan 30 2020 09:23:12 GMT-0500 (Eastern Standard Time)","Mozilla/5.0 (X11; Linux x86_64) AppleWebKit/537.36 (KHTML, like Gecko) Chrome/79.0.3945.130 Safari/537.36",83,"[0.9, 0.5, 0.1]","[0.8, 0.4, 0.2]","[u'black', u'blue', u'red']","[u'left', u'middle', u'right']","[0.8, 0.4, 0.2]","[u'high', u'medium', u'low']","black",49,"left","high","True","False",260,3500,NA
"A7ERZELTAMWL5","Thu Jan 30 2020 09:15:05 GMT-0500 (Eastern Standard Time)","Thu Jan 30 2020 09:23:12 GMT-0500 (Eastern Standard Time)","Mozilla/5.0 (X11; Linux x86_64) AppleWebKit/537.36 (KHTML, like Gecko) Chrome/79.0.3945.130 Safari/537.36",84,"[0.9, 0.5, 0.1]","[0.8, 0.4, 0.2]","[u'black', u'blue', u'red']","[u'left', u'middle', u'right']","[0.8, 0.4, 0.2]","[u'high', u'medium', u'low']","black",49,"left","high","True","False",139,3600,NA
"A7ERZELTAMWL5","Thu Jan 30 2020 09:15:05 GMT-0500 (Eastern Standard Time)","Thu Jan 30 2020 09:23:12 GMT-0500 (Eastern Standard Time)","Mozilla/5.0 (X11; Linux x86_64) AppleWebKit/537.36 (KHTML, like Gecko) Chrome/79.0.3945.130 Safari/537.36",85,"[0.9, 0.5, 0.1]","[0.8, 0.4, 0.2]","[u'black', u'blue', u'red']","[u'left', u'middle', u'right']","[0.8, 0.4, 0.2]","[u'high', u'medium', u'low']","black",49,"left","high","True","False",227,3700,NA
"A7ERZELTAMWL5","Thu Jan 30 2020 09:15:05 GMT-0500 (Eastern Standard Time)","Thu Jan 30 2020 09:23:12 GMT-0500 (Eastern Standard Time)","Mozilla/5.0 (X11; Linux x86_64) AppleWebKit/537.36 (KHTML, like Gecko) Chrome/79.0.3945.130 Safari/537.36",86,"[0.9, 0.5, 0.1]","[0.8, 0.4, 0.2]","[u'black', u'blue', u'red']","[u'left', u'middle', u'right']","[0.8, 0.4, 0.2]","[u'high', u'medium', u'low']","black",49,"left","high","True","False",123,3800,NA
"A7ERZELTAMWL5","Thu Jan 30 2020 09:15:05 GMT-0500 (Eastern Standard Time)","Thu Jan 30 2020 09:23:12 GMT-0500 (Eastern Standard Time)","Mozilla/5.0 (X11; Linux x86_64) AppleWebKit/537.36 (KHTML, like Gecko) Chrome/79.0.3945.130 Safari/537.36",87,"[0.9, 0.5, 0.1]","[0.8, 0.4, 0.2]","[u'black', u'blue', u'red']","[u'left', u'middle', u'right']","[0.8, 0.4, 0.2]","[u'high', u'medium', u'low']","black",49,"left","high","False","False",147,3750,NA
"A7ERZELTAMWL5","Thu Jan 30 2020 09:15:05 GMT-0500 (Eastern Standard Time)","Thu Jan 30 2020 09:23:12 GMT-0500 (Eastern Standard Time)","Mozilla/5.0 (X11; Linux x86_64) AppleWebKit/537.36 (KHTML, like Gecko) Chrome/79.0.3945.130 Safari/537.36",88,"[0.9, 0.5, 0.1]","[0.8, 0.4, 0.2]","[u'black', u'blue', u'red']","[u'left', u'middle', u'right']","[0.8, 0.4, 0.2]","[u'high', u'medium', u'low']","red",51,"right","low","False","False",364,3700,NA
"A7ERZELTAMWL5","Thu Jan 30 2020 09:15:05 GMT-0500 (Eastern Standard Time)","Thu Jan 30 2020 09:23:12 GMT-0500 (Eastern Standard Time)","Mozilla/5.0 (X11; Linux x86_64) AppleWebKit/537.36 (KHTML, like Gecko) Chrome/79.0.3945.130 Safari/537.36",89,"[0.9, 0.5, 0.1]","[0.8, 0.4, 0.2]","[u'black', u'blue', u'red']","[u'left', u'middle', u'right']","[0.8, 0.4, 0.2]","[u'high', u'medium', u'low']","blue",50,"middle","medium","False","False",74,3650,NA
"A7ERZELTAMWL5","Thu Jan 30 2020 09:15:05 GMT-0500 (Eastern Standard Time)","Thu Jan 30 2020 09:23:12 GMT-0500 (Eastern Standard Time)","Mozilla/5.0 (X11; Linux x86_64) AppleWebKit/537.36 (KHTML, like Gecko) Chrome/79.0.3945.130 Safari/537.36",90,"[0.9, 0.5, 0.1]","[0.8, 0.4, 0.2]","[u'black', u'blue', u'red']","[u'left', u'middle', u'right']","[0.8, 0.4, 0.2]","[u'high', u'medium', u'low']","blue",50,"middle","medium","False","False",68,3600,NA
"A7ERZELTAMWL5","Thu Jan 30 2020 09:15:05 GMT-0500 (Eastern Standard Time)","Thu Jan 30 2020 09:23:12 GMT-0500 (Eastern Standard Time)","Mozilla/5.0 (X11; Linux x86_64) AppleWebKit/537.36 (KHTML, like Gecko) Chrome/79.0.3945.130 Safari/537.36",91,"[0.9, 0.5, 0.1]","[0.8, 0.4, 0.2]","[u'black', u'blue', u'red']","[u'left', u'middle', u'right']","[0.8, 0.4, 0.2]","[u'high', u'medium', u'low']","red",51,"right","low","True","False",131,3700,NA
"A7ERZELTAMWL5","Thu Jan 30 2020 09:15:05 GMT-0500 (Eastern Standard Time)","Thu Jan 30 2020 09:23:12 GMT-0500 (Eastern Standard Time)","Mozilla/5.0 (X11; Linux x86_64) AppleWebKit/537.36 (KHTML, like Gecko) Chrome/79.0.3945.130 Safari/537.36",92,"[0.9, 0.5, 0.1]","[0.8, 0.4, 0.2]","[u'black', u'blue', u'red']","[u'left', u'middle', u'right']","[0.8, 0.4, 0.2]","[u'high', u'medium', u'low']","red",51,"right","low","False","False",76,3650,NA
"A7ERZELTAMWL5","Thu Jan 30 2020 09:15:05 GMT-0500 (Eastern Standard Time)","Thu Jan 30 2020 09:23:12 GMT-0500 (Eastern Standard Time)","Mozilla/5.0 (X11; Linux x86_64) AppleWebKit/537.36 (KHTML, like Gecko) Chrome/79.0.3945.130 Safari/537.36",93,"[0.9, 0.5, 0.1]","[0.8, 0.4, 0.2]","[u'black', u'blue', u'red']","[u'left', u'middle', u'right']","[0.8, 0.4, 0.2]","[u'high', u'medium', u'low']","black",49,"left","high","True","False",50,3750,NA
"A7ERZELTAMWL5","Thu Jan 30 2020 09:15:05 GMT-0500 (Eastern Standard Time)","Thu Jan 30 2020 09:23:12 GMT-0500 (Eastern Standard Time)","Mozilla/5.0 (X11; Linux x86_64) AppleWebKit/537.36 (KHTML, like Gecko) Chrome/79.0.3945.130 Safari/537.36",94,"[0.9, 0.5, 0.1]","[0.8, 0.4, 0.2]","[u'black', u'blue', u'red']","[u'left', u'middle', u'right']","[0.8, 0.4, 0.2]","[u'high', u'medium', u'low']","black",49,"left","high","True","False",107,3850,NA
"A7ERZELTAMWL5","Thu Jan 30 2020 09:15:05 GMT-0500 (Eastern Standard Time)","Thu Jan 30 2020 09:23:12 GMT-0500 (Eastern Standard Time)","Mozilla/5.0 (X11; Linux x86_64) AppleWebKit/537.36 (KHTML, like Gecko) Chrome/79.0.3945.130 Safari/537.36",95,"[0.9, 0.5, 0.1]","[0.8, 0.4, 0.2]","[u'black', u'blue', u'red']","[u'left', u'middle', u'right']","[0.8, 0.4, 0.2]","[u'high', u'medium', u'low']","black",49,"left","high","True","False",291,3950,NA
"A7ERZELTAMWL5","Thu Jan 30 2020 09:15:05 GMT-0500 (Eastern Standard Time)","Thu Jan 30 2020 09:23:12 GMT-0500 (Eastern Standard Time)","Mozilla/5.0 (X11; Linux x86_64) AppleWebKit/537.36 (KHTML, like Gecko) Chrome/79.0.3945.130 Safari/537.36",96,"[0.9, 0.5, 0.1]","[0.8, 0.4, 0.2]","[u'black', u'blue', u'red']","[u'left', u'middle', u'right']","[0.8, 0.4, 0.2]","[u'high', u'medium', u'low']","black",49,"left","high","True","False",147,4050,NA
"A7ERZELTAMWL5","Thu Jan 30 2020 09:15:05 GMT-0500 (Eastern Standard Time)","Thu Jan 30 2020 09:23:12 GMT-0500 (Eastern Standard Time)","Mozilla/5.0 (X11; Linux x86_64) AppleWebKit/537.36 (KHTML, like Gecko) Chrome/79.0.3945.130 Safari/537.36",97,"[0.9, 0.5, 0.1]","[0.8, 0.4, 0.2]","[u'black', u'blue', u'red']","[u'left', u'middle', u'right']","[0.8, 0.4, 0.2]","[u'high', u'medium', u'low']","black",49,"left","high","True","False",235,4150,NA
"A7ERZELTAMWL5","Thu Jan 30 2020 09:15:05 GMT-0500 (Eastern Standard Time)","Thu Jan 30 2020 09:23:12 GMT-0500 (Eastern Standard Time)","Mozilla/5.0 (X11; Linux x86_64) AppleWebKit/537.36 (KHTML, like Gecko) Chrome/79.0.3945.130 Safari/537.36",98,"[0.9, 0.5, 0.1]","[0.8, 0.4, 0.2]","[u'black', u'blue', u'red']","[u'left', u'middle', u'right']","[0.8, 0.4, 0.2]","[u'high', u'medium', u'low']","black",49,"left","high","True","False",147,4250,NA
"A7ERZELTAMWL5","Thu Jan 30 2020 09:15:05 GMT-0500 (Eastern Standard Time)","Thu Jan 30 2020 09:23:12 GMT-0500 (Eastern Standard Time)","Mozilla/5.0 (X11; Linux x86_64) AppleWebKit/537.36 (KHTML, like Gecko) Chrome/79.0.3945.130 Safari/537.36",99,"[0.9, 0.5, 0.1]","[0.8, 0.4, 0.2]","[u'black', u'blue', u'red']","[u'left', u'middle', u'right']","[0.8, 0.4, 0.2]","[u'high', u'medium', u'low']","black",49,"left","high","False","False",467,4200,NA
"A7ERZELTAMWL5","Thu Jan 30 2020 09:15:05 GMT-0500 (Eastern Standard Time)","Thu Jan 30 2020 09:23:12 GMT-0500 (Eastern Standard Time)","Mozilla/5.0 (X11; Linux x86_64) AppleWebKit/537.36 (KHTML, like Gecko) Chrome/79.0.3945.130 Safari/537.36",100,"[0.9, 0.5, 0.1]","[0.8, 0.4, 0.2]","[u'black', u'blue', u'red']","[u'left', u'middle', u'right']","[0.8, 0.4, 0.2]","[u'high', u'medium', u'low']","black",49,"left","high","True","False",491,4300,NA
"A7ERZELTAMWL5","Thu Jan 30 2020 09:15:05 GMT-0500 (Eastern Standard Time)","Thu Jan 30 2020 09:23:12 GMT-0500 (Eastern Standard Time)","Mozilla/5.0 (X11; Linux x86_64) AppleWebKit/537.36 (KHTML, like Gecko) Chrome/79.0.3945.130 Safari/537.36",101,"[0.9, 0.5, 0.1]","[0.8, 0.4, 0.2]","[u'black', u'blue', u'red']","[u'left', u'middle', u'right']","[0.8, 0.4, 0.2]","[u'high', u'medium', u'low']","black",49,"left","high","True","True",345,4400,NA
"A7ERZELTAMWL5","Thu Jan 30 2020 09:15:05 GMT-0500 (Eastern Standard Time)","Thu Jan 30 2020 09:23:12 GMT-0500 (Eastern Standard Time)","Mozilla/5.0 (X11; Linux x86_64) AppleWebKit/537.36 (KHTML, like Gecko) Chrome/79.0.3945.130 Safari/537.36",102,"[0.9, 0.5, 0.1]","[0.8, 0.4, 0.2]","[u'black', u'blue', u'red']","[u'left', u'middle', u'right']","[0.8, 0.4, 0.2]","[u'low', u'high', u'medium']","black",49,"left","low","True","False",333,4500,NA
"A7ERZELTAMWL5","Thu Jan 30 2020 09:15:05 GMT-0500 (Eastern Standard Time)","Thu Jan 30 2020 09:23:12 GMT-0500 (Eastern Standard Time)","Mozilla/5.0 (X11; Linux x86_64) AppleWebKit/537.36 (KHTML, like Gecko) Chrome/79.0.3945.130 Safari/537.36",103,"[0.9, 0.5, 0.1]","[0.8, 0.4, 0.2]","[u'black', u'blue', u'red']","[u'left', u'middle', u'right']","[0.8, 0.4, 0.2]","[u'low', u'high', u'medium']","black",49,"left","low","True","False",371,4600,NA
"A7ERZELTAMWL5","Thu Jan 30 2020 09:15:05 GMT-0500 (Eastern Standard Time)","Thu Jan 30 2020 09:23:12 GMT-0500 (Eastern Standard Time)","Mozilla/5.0 (X11; Linux x86_64) AppleWebKit/537.36 (KHTML, like Gecko) Chrome/79.0.3945.130 Safari/537.36",104,"[0.9, 0.5, 0.1]","[0.8, 0.4, 0.2]","[u'black', u'blue', u'red']","[u'left', u'middle', u'right']","[0.8, 0.4, 0.2]","[u'low', u'high', u'medium']","black",49,"left","low","False","False",491,4550,NA
"A7ERZELTAMWL5","Thu Jan 30 2020 09:15:05 GMT-0500 (Eastern Standard Time)","Thu Jan 30 2020 09:23:12 GMT-0500 (Eastern Standard Time)","Mozilla/5.0 (X11; Linux x86_64) AppleWebKit/537.36 (KHTML, like Gecko) Chrome/79.0.3945.130 Safari/537.36",105,"[0.9, 0.5, 0.1]","[0.8, 0.4, 0.2]","[u'black', u'blue', u'red']","[u'left', u'middle', u'right']","[0.8, 0.4, 0.2]","[u'low', u'high', u'medium']","black",49,"left","low","False","False",323,4500,NA
"A7ERZELTAMWL5","Thu Jan 30 2020 09:15:05 GMT-0500 (Eastern Standard Time)","Thu Jan 30 2020 09:23:12 GMT-0500 (Eastern Standard Time)","Mozilla/5.0 (X11; Linux x86_64) AppleWebKit/537.36 (KHTML, like Gecko) Chrome/79.0.3945.130 Safari/537.36",106,"[0.9, 0.5, 0.1]","[0.8, 0.4, 0.2]","[u'black', u'blue', u'red']","[u'left', u'middle', u'right']","[0.8, 0.4, 0.2]","[u'low', u'high', u'medium']","blue",50,"middle","high","True","False",291,4600,NA
"A7ERZELTAMWL5","Thu Jan 30 2020 09:15:05 GMT-0500 (Eastern Standard Time)","Thu Jan 30 2020 09:23:12 GMT-0500 (Eastern Standard Time)","Mozilla/5.0 (X11; Linux x86_64) AppleWebKit/537.36 (KHTML, like Gecko) Chrome/79.0.3945.130 Safari/537.36",107,"[0.9, 0.5, 0.1]","[0.8, 0.4, 0.2]","[u'black', u'blue', u'red']","[u'left', u'middle', u'right']","[0.8, 0.4, 0.2]","[u'low', u'high', u'medium']","blue",50,"middle","high","True","False",219,4700,NA
"A7ERZELTAMWL5","Thu Jan 30 2020 09:15:05 GMT-0500 (Eastern Standard Time)","Thu Jan 30 2020 09:23:12 GMT-0500 (Eastern Standard Time)","Mozilla/5.0 (X11; Linux x86_64) AppleWebKit/537.36 (KHTML, like Gecko) Chrome/79.0.3945.130 Safari/537.36",108,"[0.9, 0.5, 0.1]","[0.8, 0.4, 0.2]","[u'black', u'blue', u'red']","[u'left', u'middle', u'right']","[0.8, 0.4, 0.2]","[u'low', u'high', u'medium']","blue",50,"middle","high","False","False",475,4650,NA
"A7ERZELTAMWL5","Thu Jan 30 2020 09:15:05 GMT-0500 (Eastern Standard Time)","Thu Jan 30 2020 09:23:12 GMT-0500 (Eastern Standard Time)","Mozilla/5.0 (X11; Linux x86_64) AppleWebKit/537.36 (KHTML, like Gecko) Chrome/79.0.3945.130 Safari/537.36",109,"[0.9, 0.5, 0.1]","[0.8, 0.4, 0.2]","[u'black', u'blue', u'red']","[u'left', u'middle', u'right']","[0.8, 0.4, 0.2]","[u'low', u'high', u'medium']","blue",50,"middle","high","True","False",451,4750,NA
"A7ERZELTAMWL5","Thu Jan 30 2020 09:15:05 GMT-0500 (Eastern Standard Time)","Thu Jan 30 2020 09:23:12 GMT-0500 (Eastern Standard Time)","Mozilla/5.0 (X11; Linux x86_64) AppleWebKit/537.36 (KHTML, like Gecko) Chrome/79.0.3945.130 Safari/537.36",110,"[0.9, 0.5, 0.1]","[0.8, 0.4, 0.2]","[u'black', u'blue', u'red']","[u'left', u'middle', u'right']","[0.8, 0.4, 0.2]","[u'low', u'high', u'medium']","blue",50,"middle","high","False","False",362,4700,NA
"A7ERZELTAMWL5","Thu Jan 30 2020 09:15:05 GMT-0500 (Eastern Standard Time)","Thu Jan 30 2020 09:23:12 GMT-0500 (Eastern Standard Time)","Mozilla/5.0 (X11; Linux x86_64) AppleWebKit/537.36 (KHTML, like Gecko) Chrome/79.0.3945.130 Safari/537.36",111,"[0.9, 0.5, 0.1]","[0.8, 0.4, 0.2]","[u'black', u'blue', u'red']","[u'left', u'middle', u'right']","[0.8, 0.4, 0.2]","[u'low', u'high', u'medium']","red",51,"right","medium","False","False",331,4650,NA
"A7ERZELTAMWL5","Thu Jan 30 2020 09:15:05 GMT-0500 (Eastern Standard Time)","Thu Jan 30 2020 09:23:12 GMT-0500 (Eastern Standard Time)","Mozilla/5.0 (X11; Linux x86_64) AppleWebKit/537.36 (KHTML, like Gecko) Chrome/79.0.3945.130 Safari/537.36",112,"[0.9, 0.5, 0.1]","[0.8, 0.4, 0.2]","[u'black', u'blue', u'red']","[u'left', u'middle', u'right']","[0.8, 0.4, 0.2]","[u'low', u'high', u'medium']","red",51,"right","medium","False","False",283,4600,NA
"A7ERZELTAMWL5","Thu Jan 30 2020 09:15:05 GMT-0500 (Eastern Standard Time)","Thu Jan 30 2020 09:23:12 GMT-0500 (Eastern Standard Time)","Mozilla/5.0 (X11; Linux x86_64) AppleWebKit/537.36 (KHTML, like Gecko) Chrome/79.0.3945.130 Safari/537.36",113,"[0.9, 0.5, 0.1]","[0.8, 0.4, 0.2]","[u'black', u'blue', u'red']","[u'left', u'middle', u'right']","[0.8, 0.4, 0.2]","[u'low', u'high', u'medium']","black",49,"left","low","False","False",283,4550,NA
"A7ERZELTAMWL5","Thu Jan 30 2020 09:15:05 GMT-0500 (Eastern Standard Time)","Thu Jan 30 2020 09:23:12 GMT-0500 (Eastern Standard Time)","Mozilla/5.0 (X11; Linux x86_64) AppleWebKit/537.36 (KHTML, like Gecko) Chrome/79.0.3945.130 Safari/537.36",114,"[0.9, 0.5, 0.1]","[0.8, 0.4, 0.2]","[u'black', u'blue', u'red']","[u'left', u'middle', u'right']","[0.8, 0.4, 0.2]","[u'low', u'high', u'medium']","blue",50,"middle","high","True","False",163,4650,NA
"A7ERZELTAMWL5","Thu Jan 30 2020 09:15:05 GMT-0500 (Eastern Standard Time)","Thu Jan 30 2020 09:23:12 GMT-0500 (Eastern Standard Time)","Mozilla/5.0 (X11; Linux x86_64) AppleWebKit/537.36 (KHTML, like Gecko) Chrome/79.0.3945.130 Safari/537.36",115,"[0.9, 0.5, 0.1]","[0.8, 0.4, 0.2]","[u'black', u'blue', u'red']","[u'left', u'middle', u'right']","[0.8, 0.4, 0.2]","[u'low', u'high', u'medium']","blue",50,"middle","high","True","False",140,4750,NA
"A7ERZELTAMWL5","Thu Jan 30 2020 09:15:05 GMT-0500 (Eastern Standard Time)","Thu Jan 30 2020 09:23:12 GMT-0500 (Eastern Standard Time)","Mozilla/5.0 (X11; Linux x86_64) AppleWebKit/537.36 (KHTML, like Gecko) Chrome/79.0.3945.130 Safari/537.36",116,"[0.9, 0.5, 0.1]","[0.8, 0.4, 0.2]","[u'black', u'blue', u'red']","[u'left', u'middle', u'right']","[0.8, 0.4, 0.2]","[u'low', u'high', u'medium']","blue",50,"middle","high","True","False",482,4850,NA
"A7ERZELTAMWL5","Thu Jan 30 2020 09:15:05 GMT-0500 (Eastern Standard Time)","Thu Jan 30 2020 09:23:12 GMT-0500 (Eastern Standard Time)","Mozilla/5.0 (X11; Linux x86_64) AppleWebKit/537.36 (KHTML, like Gecko) Chrome/79.0.3945.130 Safari/537.36",117,"[0.9, 0.5, 0.1]","[0.8, 0.4, 0.2]","[u'black', u'blue', u'red']","[u'left', u'middle', u'right']","[0.8, 0.4, 0.2]","[u'low', u'high', u'medium']","blue",50,"middle","high","False","False",123,4800,NA
"A7ERZELTAMWL5","Thu Jan 30 2020 09:15:05 GMT-0500 (Eastern Standard Time)","Thu Jan 30 2020 09:23:12 GMT-0500 (Eastern Standard Time)","Mozilla/5.0 (X11; Linux x86_64) AppleWebKit/537.36 (KHTML, like Gecko) Chrome/79.0.3945.130 Safari/537.36",118,"[0.9, 0.5, 0.1]","[0.8, 0.4, 0.2]","[u'black', u'blue', u'red']","[u'left', u'middle', u'right']","[0.8, 0.4, 0.2]","[u'low', u'high', u'medium']","black",49,"left","low","False","False",131,4750,NA
"A7ERZELTAMWL5","Thu Jan 30 2020 09:15:05 GMT-0500 (Eastern Standard Time)","Thu Jan 30 2020 09:23:12 GMT-0500 (Eastern Standard Time)","Mozilla/5.0 (X11; Linux x86_64) AppleWebKit/537.36 (KHTML, like Gecko) Chrome/79.0.3945.130 Safari/537.36",119,"[0.9, 0.5, 0.1]","[0.8, 0.4, 0.2]","[u'black', u'blue', u'red']","[u'left', u'middle', u'right']","[0.8, 0.4, 0.2]","[u'low', u'high', u'medium']","red",51,"right","medium","False","False",299,4700,NA
"A7ERZELTAMWL5","Thu Jan 30 2020 09:15:05 GMT-0500 (Eastern Standard Time)","Thu Jan 30 2020 09:23:12 GMT-0500 (Eastern Standard Time)","Mozilla/5.0 (X11; Linux x86_64) AppleWebKit/537.36 (KHTML, like Gecko) Chrome/79.0.3945.130 Safari/537.36",120,"[0.9, 0.5, 0.1]","[0.8, 0.4, 0.2]","[u'black', u'blue', u'red']","[u'left', u'middle', u'right']","[0.8, 0.4, 0.2]","[u'low', u'high', u'medium']","red",51,"right","medium","False","False",299,4650,NA
"A7ERZELTAMWL5","Thu Jan 30 2020 09:15:05 GMT-0500 (Eastern Standard Time)","Thu Jan 30 2020 09:23:12 GMT-0500 (Eastern Standard Time)","Mozilla/5.0 (X11; Linux x86_64) AppleWebKit/537.36 (KHTML, like Gecko) Chrome/79.0.3945.130 Safari/537.36",121,"[0.9, 0.5, 0.1]","[0.8, 0.4, 0.2]","[u'black', u'blue', u'red']","[u'left', u'middle', u'right']","[0.8, 0.4, 0.2]","[u'high', u'medium', u'low']","blue",50,"middle","medium","False","False",509,4600,NA
"A7ERZELTAMWL5","Thu Jan 30 2020 09:15:05 GMT-0500 (Eastern Standard Time)","Thu Jan 30 2020 09:23:12 GMT-0500 (Eastern Standard Time)","Mozilla/5.0 (X11; Linux x86_64) AppleWebKit/537.36 (KHTML, like Gecko) Chrome/79.0.3945.130 Safari/537.36",122,"[0.9, 0.5, 0.1]","[0.8, 0.4, 0.2]","[u'black', u'blue', u'red']","[u'left', u'middle', u'right']","[0.8, 0.4, 0.2]","[u'high', u'medium', u'low']","blue",50,"middle","medium","True","False",195,4700,NA
"A7ERZELTAMWL5","Thu Jan 30 2020 09:15:05 GMT-0500 (Eastern Standard Time)","Thu Jan 30 2020 09:23:12 GMT-0500 (Eastern Standard Time)","Mozilla/5.0 (X11; Linux x86_64) AppleWebKit/537.36 (KHTML, like Gecko) Chrome/79.0.3945.130 Safari/537.36",123,"[0.9, 0.5, 0.1]","[0.8, 0.4, 0.2]","[u'black', u'blue', u'red']","[u'left', u'middle', u'right']","[0.8, 0.4, 0.2]","[u'high', u'medium', u'low']","blue",50,"middle","medium","False","False",795,4650,NA
"A7ERZELTAMWL5","Thu Jan 30 2020 09:15:05 GMT-0500 (Eastern Standard Time)","Thu Jan 30 2020 09:23:12 GMT-0500 (Eastern Standard Time)","Mozilla/5.0 (X11; Linux x86_64) AppleWebKit/537.36 (KHTML, like Gecko) Chrome/79.0.3945.130 Safari/537.36",124,"[0.9, 0.5, 0.1]","[0.8, 0.4, 0.2]","[u'black', u'blue', u'red']","[u'left', u'middle', u'right']","[0.8, 0.4, 0.2]","[u'high', u'medium', u'low']","black",49,"left","high","True","False",347,4750,NA
"A7ERZELTAMWL5","Thu Jan 30 2020 09:15:05 GMT-0500 (Eastern Standard Time)","Thu Jan 30 2020 09:23:12 GMT-0500 (Eastern Standard Time)","Mozilla/5.0 (X11; Linux x86_64) AppleWebKit/537.36 (KHTML, like Gecko) Chrome/79.0.3945.130 Safari/537.36",125,"[0.9, 0.5, 0.1]","[0.8, 0.4, 0.2]","[u'black', u'blue', u'red']","[u'left', u'middle', u'right']","[0.8, 0.4, 0.2]","[u'high', u'medium', u'low']","black",49,"left","high","True","False",268,4850,NA
"A7ERZELTAMWL5","Thu Jan 30 2020 09:15:05 GMT-0500 (Eastern Standard Time)","Thu Jan 30 2020 09:23:12 GMT-0500 (Eastern Standard Time)","Mozilla/5.0 (X11; Linux x86_64) AppleWebKit/537.36 (KHTML, like Gecko) Chrome/79.0.3945.130 Safari/537.36",126,"[0.9, 0.5, 0.1]","[0.8, 0.4, 0.2]","[u'black', u'blue', u'red']","[u'left', u'middle', u'right']","[0.8, 0.4, 0.2]","[u'high', u'medium', u'low']","black",49,"left","high","True","False",274,4950,NA
"A7ERZELTAMWL5","Thu Jan 30 2020 09:15:05 GMT-0500 (Eastern Standard Time)","Thu Jan 30 2020 09:23:12 GMT-0500 (Eastern Standard Time)","Mozilla/5.0 (X11; Linux x86_64) AppleWebKit/537.36 (KHTML, like Gecko) Chrome/79.0.3945.130 Safari/537.36",127,"[0.9, 0.5, 0.1]","[0.8, 0.4, 0.2]","[u'black', u'blue', u'red']","[u'left', u'middle', u'right']","[0.8, 0.4, 0.2]","[u'high', u'medium', u'low']","black",49,"left","high","True","False",307,5050,NA
"A7ERZELTAMWL5","Thu Jan 30 2020 09:15:05 GMT-0500 (Eastern Standard Time)","Thu Jan 30 2020 09:23:12 GMT-0500 (Eastern Standard Time)","Mozilla/5.0 (X11; Linux x86_64) AppleWebKit/537.36 (KHTML, like Gecko) Chrome/79.0.3945.130 Safari/537.36",128,"[0.9, 0.5, 0.1]","[0.8, 0.4, 0.2]","[u'black', u'blue', u'red']","[u'left', u'middle', u'right']","[0.8, 0.4, 0.2]","[u'high', u'medium', u'low']","black",49,"left","high","True","False",323,5150,NA
"A7ERZELTAMWL5","Thu Jan 30 2020 09:15:05 GMT-0500 (Eastern Standard Time)","Thu Jan 30 2020 09:23:12 GMT-0500 (Eastern Standard Time)","Mozilla/5.0 (X11; Linux x86_64) AppleWebKit/537.36 (KHTML, like Gecko) Chrome/79.0.3945.130 Safari/537.36",129,"[0.9, 0.5, 0.1]","[0.8, 0.4, 0.2]","[u'black', u'blue', u'red']","[u'left', u'middle', u'right']","[0.8, 0.4, 0.2]","[u'high', u'medium', u'low']","black",49,"left","high","True","False",283,5250,NA
"A7ERZELTAMWL5","Thu Jan 30 2020 09:15:05 GMT-0500 (Eastern Standard Time)","Thu Jan 30 2020 09:23:12 GMT-0500 (Eastern Standard Time)","Mozilla/5.0 (X11; Linux x86_64) AppleWebKit/537.36 (KHTML, like Gecko) Chrome/79.0.3945.130 Safari/537.36",130,"[0.9, 0.5, 0.1]","[0.8, 0.4, 0.2]","[u'black', u'blue', u'red']","[u'left', u'middle', u'right']","[0.8, 0.4, 0.2]","[u'high', u'medium', u'low']","black",49,"left","high","True","False",355,5350,NA
"A7ERZELTAMWL5","Thu Jan 30 2020 09:15:05 GMT-0500 (Eastern Standard Time)","Thu Jan 30 2020 09:23:12 GMT-0500 (Eastern Standard Time)","Mozilla/5.0 (X11; Linux x86_64) AppleWebKit/537.36 (KHTML, like Gecko) Chrome/79.0.3945.130 Safari/537.36",131,"[0.9, 0.5, 0.1]","[0.8, 0.4, 0.2]","[u'black', u'blue', u'red']","[u'left', u'middle', u'right']","[0.8, 0.4, 0.2]","[u'high', u'medium', u'low']","black",49,"left","high","True","False",292,5450,NA
"A7ERZELTAMWL5","Thu Jan 30 2020 09:15:05 GMT-0500 (Eastern Standard Time)","Thu Jan 30 2020 09:23:12 GMT-0500 (Eastern Standard Time)","Mozilla/5.0 (X11; Linux x86_64) AppleWebKit/537.36 (KHTML, like Gecko) Chrome/79.0.3945.130 Safari/537.36",132,"[0.9, 0.5, 0.1]","[0.8, 0.4, 0.2]","[u'black', u'blue', u'red']","[u'left', u'middle', u'right']","[0.8, 0.4, 0.2]","[u'high', u'medium', u'low']","black",49,"left","high","True","True",298,5550,NA
"A7ERZELTAMWL5","Thu Jan 30 2020 09:15:05 GMT-0500 (Eastern Standard Time)","Thu Jan 30 2020 09:23:12 GMT-0500 (Eastern Standard Time)","Mozilla/5.0 (X11; Linux x86_64) AppleWebKit/537.36 (KHTML, like Gecko) Chrome/79.0.3945.130 Safari/537.36",133,"[0.9, 0.5, 0.1]","[0.8, 0.4, 0.2]","[u'black', u'blue', u'red']","[u'left', u'middle', u'right']","[0.8, 0.4, 0.2]","[u'medium', u'low', u'high']","black",49,"left","medium","False","False",243,5500,NA
"A7ERZELTAMWL5","Thu Jan 30 2020 09:15:05 GMT-0500 (Eastern Standard Time)","Thu Jan 30 2020 09:23:12 GMT-0500 (Eastern Standard Time)","Mozilla/5.0 (X11; Linux x86_64) AppleWebKit/537.36 (KHTML, like Gecko) Chrome/79.0.3945.130 Safari/537.36",134,"[0.9, 0.5, 0.1]","[0.8, 0.4, 0.2]","[u'black', u'blue', u'red']","[u'left', u'middle', u'right']","[0.8, 0.4, 0.2]","[u'medium', u'low', u'high']","red",51,"right","high","True","False",307,5600,NA
"A7ERZELTAMWL5","Thu Jan 30 2020 09:15:05 GMT-0500 (Eastern Standard Time)","Thu Jan 30 2020 09:23:12 GMT-0500 (Eastern Standard Time)","Mozilla/5.0 (X11; Linux x86_64) AppleWebKit/537.36 (KHTML, like Gecko) Chrome/79.0.3945.130 Safari/537.36",135,"[0.9, 0.5, 0.1]","[0.8, 0.4, 0.2]","[u'black', u'blue', u'red']","[u'left', u'middle', u'right']","[0.8, 0.4, 0.2]","[u'medium', u'low', u'high']","red",51,"right","high","False","False",203,5550,NA
"A7ERZELTAMWL5","Thu Jan 30 2020 09:15:05 GMT-0500 (Eastern Standard Time)","Thu Jan 30 2020 09:23:12 GMT-0500 (Eastern Standard Time)","Mozilla/5.0 (X11; Linux x86_64) AppleWebKit/537.36 (KHTML, like Gecko) Chrome/79.0.3945.130 Safari/537.36",136,"[0.9, 0.5, 0.1]","[0.8, 0.4, 0.2]","[u'black', u'blue', u'red']","[u'left', u'middle', u'right']","[0.8, 0.4, 0.2]","[u'medium', u'low', u'high']","blue",50,"middle","low","True","False",211,5650,NA
"A7ERZELTAMWL5","Thu Jan 30 2020 09:15:05 GMT-0500 (Eastern Standard Time)","Thu Jan 30 2020 09:23:12 GMT-0500 (Eastern Standard Time)","Mozilla/5.0 (X11; Linux x86_64) AppleWebKit/537.36 (KHTML, like Gecko) Chrome/79.0.3945.130 Safari/537.36",137,"[0.9, 0.5, 0.1]","[0.8, 0.4, 0.2]","[u'black', u'blue', u'red']","[u'left', u'middle', u'right']","[0.8, 0.4, 0.2]","[u'medium', u'low', u'high']","blue",50,"middle","low","False","False",28,5600,NA
"A7ERZELTAMWL5","Thu Jan 30 2020 09:15:05 GMT-0500 (Eastern Standard Time)","Thu Jan 30 2020 09:23:12 GMT-0500 (Eastern Standard Time)","Mozilla/5.0 (X11; Linux x86_64) AppleWebKit/537.36 (KHTML, like Gecko) Chrome/79.0.3945.130 Safari/537.36",138,"[0.9, 0.5, 0.1]","[0.8, 0.4, 0.2]","[u'black', u'blue', u'red']","[u'left', u'middle', u'right']","[0.8, 0.4, 0.2]","[u'medium', u'low', u'high']","black",49,"left","medium","False","False",50,5550,NA
"A7ERZELTAMWL5","Thu Jan 30 2020 09:15:05 GMT-0500 (Eastern Standard Time)","Thu Jan 30 2020 09:23:12 GMT-0500 (Eastern Standard Time)","Mozilla/5.0 (X11; Linux x86_64) AppleWebKit/537.36 (KHTML, like Gecko) Chrome/79.0.3945.130 Safari/537.36",139,"[0.9, 0.5, 0.1]","[0.8, 0.4, 0.2]","[u'black', u'blue', u'red']","[u'left', u'middle', u'right']","[0.8, 0.4, 0.2]","[u'medium', u'low', u'high']","red",51,"right","high","False","False",297,5500,NA
"A7ERZELTAMWL5","Thu Jan 30 2020 09:15:05 GMT-0500 (Eastern Standard Time)","Thu Jan 30 2020 09:23:12 GMT-0500 (Eastern Standard Time)","Mozilla/5.0 (X11; Linux x86_64) AppleWebKit/537.36 (KHTML, like Gecko) Chrome/79.0.3945.130 Safari/537.36",140,"[0.9, 0.5, 0.1]","[0.8, 0.4, 0.2]","[u'black', u'blue', u'red']","[u'left', u'middle', u'right']","[0.8, 0.4, 0.2]","[u'medium', u'low', u'high']","blue",50,"middle","low","True","False",20,5600,NA
"A7ERZELTAMWL5","Thu Jan 30 2020 09:15:05 GMT-0500 (Eastern Standard Time)","Thu Jan 30 2020 09:23:12 GMT-0500 (Eastern Standard Time)","Mozilla/5.0 (X11; Linux x86_64) AppleWebKit/537.36 (KHTML, like Gecko) Chrome/79.0.3945.130 Safari/537.36",141,"[0.9, 0.5, 0.1]","[0.8, 0.4, 0.2]","[u'black', u'blue', u'red']","[u'left', u'middle', u'right']","[0.8, 0.4, 0.2]","[u'medium', u'low', u'high']","blue",50,"middle","low","False","False",226,5550,NA
"A7ERZELTAMWL5","Thu Jan 30 2020 09:15:05 GMT-0500 (Eastern Standard Time)","Thu Jan 30 2020 09:23:12 GMT-0500 (Eastern Standard Time)","Mozilla/5.0 (X11; Linux x86_64) AppleWebKit/537.36 (KHTML, like Gecko) Chrome/79.0.3945.130 Safari/537.36",142,"[0.9, 0.5, 0.1]","[0.8, 0.4, 0.2]","[u'black', u'blue', u'red']","[u'left', u'middle', u'right']","[0.8, 0.4, 0.2]","[u'medium', u'low', u'high']","blue",50,"middle","low","False","False",11,5500,NA
"A7ERZELTAMWL5","Thu Jan 30 2020 09:15:05 GMT-0500 (Eastern Standard Time)","Thu Jan 30 2020 09:23:12 GMT-0500 (Eastern Standard Time)","Mozilla/5.0 (X11; Linux x86_64) AppleWebKit/537.36 (KHTML, like Gecko) Chrome/79.0.3945.130 Safari/537.36",143,"[0.9, 0.5, 0.1]","[0.8, 0.4, 0.2]","[u'black', u'blue', u'red']","[u'left', u'middle', u'right']","[0.8, 0.4, 0.2]","[u'medium', u'low', u'high']","red",51,"right","high","True","False",235,5600,NA
"A7ERZELTAMWL5","Thu Jan 30 2020 09:15:05 GMT-0500 (Eastern Standard Time)","Thu Jan 30 2020 09:23:12 GMT-0500 (Eastern Standard Time)","Mozilla/5.0 (X11; Linux x86_64) AppleWebKit/537.36 (KHTML, like Gecko) Chrome/79.0.3945.130 Safari/537.36",144,"[0.9, 0.5, 0.1]","[0.8, 0.4, 0.2]","[u'black', u'blue', u'red']","[u'left', u'middle', u'right']","[0.8, 0.4, 0.2]","[u'medium', u'low', u'high']","red",51,"right","high","True","False",164,5700,NA
"A7ERZELTAMWL5","Thu Jan 30 2020 09:15:05 GMT-0500 (Eastern Standard Time)","Thu Jan 30 2020 09:23:12 GMT-0500 (Eastern Standard Time)","Mozilla/5.0 (X11; Linux x86_64) AppleWebKit/537.36 (KHTML, like Gecko) Chrome/79.0.3945.130 Safari/537.36",145,"[0.9, 0.5, 0.1]","[0.8, 0.4, 0.2]","[u'black', u'blue', u'red']","[u'left', u'middle', u'right']","[0.8, 0.4, 0.2]","[u'medium', u'low', u'high']","red",51,"right","high","True","False",258,5800,NA
"A7ERZELTAMWL5","Thu Jan 30 2020 09:15:05 GMT-0500 (Eastern Standard Time)","Thu Jan 30 2020 09:23:12 GMT-0500 (Eastern Standard Time)","Mozilla/5.0 (X11; Linux x86_64) AppleWebKit/537.36 (KHTML, like Gecko) Chrome/79.0.3945.130 Safari/537.36",146,"[0.9, 0.5, 0.1]","[0.8, 0.4, 0.2]","[u'black', u'blue', u'red']","[u'left', u'middle', u'right']","[0.8, 0.4, 0.2]","[u'medium', u'low', u'high']","red",51,"right","high","True","False",307,5900,NA
"A7ERZELTAMWL5","Thu Jan 30 2020 09:15:05 GMT-0500 (Eastern Standard Time)","Thu Jan 30 2020 09:23:12 GMT-0500 (Eastern Standard Time)","Mozilla/5.0 (X11; Linux x86_64) AppleWebKit/537.36 (KHTML, like Gecko) Chrome/79.0.3945.130 Safari/537.36",147,"[0.9, 0.5, 0.1]","[0.8, 0.4, 0.2]","[u'black', u'blue', u'red']","[u'left', u'middle', u'right']","[0.8, 0.4, 0.2]","[u'medium', u'low', u'high']","red",51,"right","high","True","False",123,6000,NA
"A7ERZELTAMWL5","Thu Jan 30 2020 09:15:05 GMT-0500 (Eastern Standard Time)","Thu Jan 30 2020 09:23:12 GMT-0500 (Eastern Standard Time)","Mozilla/5.0 (X11; Linux x86_64) AppleWebKit/537.36 (KHTML, like Gecko) Chrome/79.0.3945.130 Safari/537.36",148,"[0.9, 0.5, 0.1]","[0.8, 0.4, 0.2]","[u'black', u'blue', u'red']","[u'left', u'middle', u'right']","[0.8, 0.4, 0.2]","[u'medium', u'low', u'high']","red",51,"right","high","True","False",275,6100,NA
"A7ERZELTAMWL5","Thu Jan 30 2020 09:15:05 GMT-0500 (Eastern Standard Time)","Thu Jan 30 2020 09:23:12 GMT-0500 (Eastern Standard Time)","Mozilla/5.0 (X11; Linux x86_64) AppleWebKit/537.36 (KHTML, like Gecko) Chrome/79.0.3945.130 Safari/537.36",149,"[0.9, 0.5, 0.1]","[0.8, 0.4, 0.2]","[u'black', u'blue', u'red']","[u'left', u'middle', u'right']","[0.8, 0.4, 0.2]","[u'medium', u'low', u'high']","red",51,"right","high","True","False",99,6200,NA
"A7ERZELTAMWL5","Thu Jan 30 2020 09:15:05 GMT-0500 (Eastern Standard Time)","Thu Jan 30 2020 09:23:12 GMT-0500 (Eastern Standard Time)","Mozilla/5.0 (X11; Linux x86_64) AppleWebKit/537.36 (KHTML, like Gecko) Chrome/79.0.3945.130 Safari/537.36",150,"[0.9, 0.5, 0.1]","[0.8, 0.4, 0.2]","[u'black', u'blue', u'red']","[u'left', u'middle', u'right']","[0.8, 0.4, 0.2]","[u'medium', u'low', u'high']","red",51,"right","high","True","False",460,6300,NA
"A7ERZELTAMWL5","Thu Jan 30 2020 09:15:05 GMT-0500 (Eastern Standard Time)","Thu Jan 30 2020 09:23:12 GMT-0500 (Eastern Standard Time)","Mozilla/5.0 (X11; Linux x86_64) AppleWebKit/537.36 (KHTML, like Gecko) Chrome/79.0.3945.130 Safari/537.36",151,"[0.9, 0.5, 0.1]","[0.8, 0.4, 0.2]","[u'black', u'blue', u'red']","[u'left', u'middle', u'right']","[0.8, 0.4, 0.2]","[u'medium', u'low', u'high']","red",51,"right","high","False","True",323,6250,NA
"A7ERZELTAMWL5","Thu Jan 30 2020 09:15:05 GMT-0500 (Eastern Standard Time)","Thu Jan 30 2020 09:23:12 GMT-0500 (Eastern Standard Time)","Mozilla/5.0 (X11; Linux x86_64) AppleWebKit/537.36 (KHTML, like Gecko) Chrome/79.0.3945.130 Safari/537.36",152,"[0.9, 0.5, 0.1]","[0.8, 0.4, 0.2]","[u'black', u'blue', u'red']","[u'left', u'middle', u'right']","[0.8, 0.4, 0.2]","[u'high', u'low', u'medium']","red",51,"right","medium","False","False",970,6200,NA
"A7ERZELTAMWL5","Thu Jan 30 2020 09:15:05 GMT-0500 (Eastern Standard Time)","Thu Jan 30 2020 09:23:12 GMT-0500 (Eastern Standard Time)","Mozilla/5.0 (X11; Linux x86_64) AppleWebKit/537.36 (KHTML, like Gecko) Chrome/79.0.3945.130 Safari/537.36",153,"[0.9, 0.5, 0.1]","[0.8, 0.4, 0.2]","[u'black', u'blue', u'red']","[u'left', u'middle', u'right']","[0.8, 0.4, 0.2]","[u'high', u'low', u'medium']","blue",50,"middle","low","False","False",579,6150,NA
"A7ERZELTAMWL5","Thu Jan 30 2020 09:15:05 GMT-0500 (Eastern Standard Time)","Thu Jan 30 2020 09:23:12 GMT-0500 (Eastern Standard Time)","Mozilla/5.0 (X11; Linux x86_64) AppleWebKit/537.36 (KHTML, like Gecko) Chrome/79.0.3945.130 Safari/537.36",154,"[0.9, 0.5, 0.1]","[0.8, 0.4, 0.2]","[u'black', u'blue', u'red']","[u'left', u'middle', u'right']","[0.8, 0.4, 0.2]","[u'high', u'low', u'medium']","blue",50,"middle","low","False","False",564,6100,NA
"A7ERZELTAMWL5","Thu Jan 30 2020 09:15:05 GMT-0500 (Eastern Standard Time)","Thu Jan 30 2020 09:23:12 GMT-0500 (Eastern Standard Time)","Mozilla/5.0 (X11; Linux x86_64) AppleWebKit/537.36 (KHTML, like Gecko) Chrome/79.0.3945.130 Safari/537.36",155,"[0.9, 0.5, 0.1]","[0.8, 0.4, 0.2]","[u'black', u'blue', u'red']","[u'left', u'middle', u'right']","[0.8, 0.4, 0.2]","[u'high', u'low', u'medium']","black",49,"left","high","True","False",171,6200,NA
"A7ERZELTAMWL5","Thu Jan 30 2020 09:15:05 GMT-0500 (Eastern Standard Time)","Thu Jan 30 2020 09:23:12 GMT-0500 (Eastern Standard Time)","Mozilla/5.0 (X11; Linux x86_64) AppleWebKit/537.36 (KHTML, like Gecko) Chrome/79.0.3945.130 Safari/537.36",156,"[0.9, 0.5, 0.1]","[0.8, 0.4, 0.2]","[u'black', u'blue', u'red']","[u'left', u'middle', u'right']","[0.8, 0.4, 0.2]","[u'high', u'low', u'medium']","black",49,"left","high","True","False",3,6300,NA
"A7ERZELTAMWL5","Thu Jan 30 2020 09:15:05 GMT-0500 (Eastern Standard Time)","Thu Jan 30 2020 09:23:12 GMT-0500 (Eastern Standard Time)","Mozilla/5.0 (X11; Linux x86_64) AppleWebKit/537.36 (KHTML, like Gecko) Chrome/79.0.3945.130 Safari/537.36",157,"[0.9, 0.5, 0.1]","[0.8, 0.4, 0.2]","[u'black', u'blue', u'red']","[u'left', u'middle', u'right']","[0.8, 0.4, 0.2]","[u'high', u'low', u'medium']","black",49,"left","high","False","False",155,6250,NA
"A7ERZELTAMWL5","Thu Jan 30 2020 09:15:05 GMT-0500 (Eastern Standard Time)","Thu Jan 30 2020 09:23:12 GMT-0500 (Eastern Standard Time)","Mozilla/5.0 (X11; Linux x86_64) AppleWebKit/537.36 (KHTML, like Gecko) Chrome/79.0.3945.130 Safari/537.36",158,"[0.9, 0.5, 0.1]","[0.8, 0.4, 0.2]","[u'black', u'blue', u'red']","[u'left', u'middle', u'right']","[0.8, 0.4, 0.2]","[u'high', u'low', u'medium']","blue",50,"middle","low","False","False",139,6200,NA
"A7ERZELTAMWL5","Thu Jan 30 2020 09:15:05 GMT-0500 (Eastern Standard Time)","Thu Jan 30 2020 09:23:12 GMT-0500 (Eastern Standard Time)","Mozilla/5.0 (X11; Linux x86_64) AppleWebKit/537.36 (KHTML, like Gecko) Chrome/79.0.3945.130 Safari/537.36",159,"[0.9, 0.5, 0.1]","[0.8, 0.4, 0.2]","[u'black', u'blue', u'red']","[u'left', u'middle', u'right']","[0.8, 0.4, 0.2]","[u'high', u'low', u'medium']","blue",50,"middle","low","False","False",19,6150,NA
"A7ERZELTAMWL5","Thu Jan 30 2020 09:15:05 GMT-0500 (Eastern Standard Time)","Thu Jan 30 2020 09:23:12 GMT-0500 (Eastern Standard Time)","Mozilla/5.0 (X11; Linux x86_64) AppleWebKit/537.36 (KHTML, like Gecko) Chrome/79.0.3945.130 Safari/537.36",160,"[0.9, 0.5, 0.1]","[0.8, 0.4, 0.2]","[u'black', u'blue', u'red']","[u'left', u'middle', u'right']","[0.8, 0.4, 0.2]","[u'high', u'low', u'medium']","black",49,"left","high","True","False",188,6250,NA
