"src_subject_id","start_time","end_time","browser","index","first_half_probabilities","second_half_probabilities","deck_color","deck_position","deck_probabilities","deck_contingencies","response_color","key_press","response_position","response_probability","reward_type","trial_type","rt","reward_tally","exclusion_reason"
"A3VTOW7WLPTBRR","Thu Jan 30 2020 12:13:47 GMT-0500 (Eastern Standard Time)","Thu Jan 30 2020 12:20:38 GMT-0500 (Eastern Standard Time)","Mozilla/5.0 (Windows NT 6.1; Win64; x64) AppleWebKit/537.36 (KHTML, like Gecko) Chrome/79.0.3945.130 Safari/537.36",1,"[0.9, 0.5, 0.1]","[0.8, 0.4, 0.2]","[u'blue', u'red', u'black']","[u'left', u'middle', u'right']","[0.9, 0.5, 0.1]","[u'medium', u'high', u'low']","blue",49,"left","medium","False","False",1557,-50,NA
"A3VTOW7WLPTBRR","Thu Jan 30 2020 12:13:47 GMT-0500 (Eastern Standard Time)","Thu Jan 30 2020 12:20:38 GMT-0500 (Eastern Standard Time)","Mozilla/5.0 (Windows NT 6.1; Win64; x64) AppleWebKit/537.36 (KHTML, like Gecko) Chrome/79.0.3945.130 Safari/537.36",2,"[0.9, 0.5, 0.1]","[0.8, 0.4, 0.2]","[u'blue', u'red', u'black']","[u'left', u'middle', u'right']","[0.9, 0.5, 0.1]","[u'medium', u'high', u'low']","blue",49,"left","medium","True","False",304,50,NA
"A3VTOW7WLPTBRR","Thu Jan 30 2020 12:13:47 GMT-0500 (Eastern Standard Time)","Thu Jan 30 2020 12:20:38 GMT-0500 (Eastern Standard Time)","Mozilla/5.0 (Windows NT 6.1; Win64; x64) AppleWebKit/537.36 (KHTML, like Gecko) Chrome/79.0.3945.130 Safari/537.36",3,"[0.9, 0.5, 0.1]","[0.8, 0.4, 0.2]","[u'blue', u'red', u'black']","[u'left', u'middle', u'right']","[0.9, 0.5, 0.1]","[u'medium', u'high', u'low']","blue",49,"left","medium","False","False",438,0,NA
"A3VTOW7WLPTBRR","Thu Jan 30 2020 12:13:47 GMT-0500 (Eastern Standard Time)","Thu Jan 30 2020 12:20:38 GMT-0500 (Eastern Standard Time)","Mozilla/5.0 (Windows NT 6.1; Win64; x64) AppleWebKit/537.36 (KHTML, like Gecko) Chrome/79.0.3945.130 Safari/537.36",4,"[0.9, 0.5, 0.1]","[0.8, 0.4, 0.2]","[u'blue', u'red', u'black']","[u'left', u'middle', u'right']","[0.9, 0.5, 0.1]","[u'medium', u'high', u'low']","blue",49,"left","medium","True","False",279,100,NA
"A3VTOW7WLPTBRR","Thu Jan 30 2020 12:13:47 GMT-0500 (Eastern Standard Time)","Thu Jan 30 2020 12:20:38 GMT-0500 (Eastern Standard Time)","Mozilla/5.0 (Windows NT 6.1; Win64; x64) AppleWebKit/537.36 (KHTML, like Gecko) Chrome/79.0.3945.130 Safari/537.36",5,"[0.9, 0.5, 0.1]","[0.8, 0.4, 0.2]","[u'blue', u'red', u'black']","[u'left', u'middle', u'right']","[0.9, 0.5, 0.1]","[u'medium', u'high', u'low']","blue",49,"left","medium","True","False",286,200,NA
"A3VTOW7WLPTBRR","Thu Jan 30 2020 12:13:47 GMT-0500 (Eastern Standard Time)","Thu Jan 30 2020 12:20:38 GMT-0500 (Eastern Standard Time)","Mozilla/5.0 (Windows NT 6.1; Win64; x64) AppleWebKit/537.36 (KHTML, like Gecko) Chrome/79.0.3945.130 Safari/537.36",6,"[0.9, 0.5, 0.1]","[0.8, 0.4, 0.2]","[u'blue', u'red', u'black']","[u'left', u'middle', u'right']","[0.9, 0.5, 0.1]","[u'medium', u'high', u'low']","blue",49,"left","medium","True","False",256,300,NA
"A3VTOW7WLPTBRR","Thu Jan 30 2020 12:13:47 GMT-0500 (Eastern Standard Time)","Thu Jan 30 2020 12:20:38 GMT-0500 (Eastern Standard Time)","Mozilla/5.0 (Windows NT 6.1; Win64; x64) AppleWebKit/537.36 (KHTML, like Gecko) Chrome/79.0.3945.130 Safari/537.36",7,"[0.9, 0.5, 0.1]","[0.8, 0.4, 0.2]","[u'blue', u'red', u'black']","[u'left', u'middle', u'right']","[0.9, 0.5, 0.1]","[u'medium', u'high', u'low']","blue",49,"left","medium","True","False",262,400,NA
"A3VTOW7WLPTBRR","Thu Jan 30 2020 12:13:47 GMT-0500 (Eastern Standard Time)","Thu Jan 30 2020 12:20:38 GMT-0500 (Eastern Standard Time)","Mozilla/5.0 (Windows NT 6.1; Win64; x64) AppleWebKit/537.36 (KHTML, like Gecko) Chrome/79.0.3945.130 Safari/537.36",8,"[0.9, 0.5, 0.1]","[0.8, 0.4, 0.2]","[u'blue', u'red', u'black']","[u'left', u'middle', u'right']","[0.9, 0.5, 0.1]","[u'medium', u'high', u'low']","blue",49,"left","medium","False","False",301,350,NA
"A3VTOW7WLPTBRR","Thu Jan 30 2020 12:13:47 GMT-0500 (Eastern Standard Time)","Thu Jan 30 2020 12:20:38 GMT-0500 (Eastern Standard Time)","Mozilla/5.0 (Windows NT 6.1; Win64; x64) AppleWebKit/537.36 (KHTML, like Gecko) Chrome/79.0.3945.130 Safari/537.36",9,"[0.9, 0.5, 0.1]","[0.8, 0.4, 0.2]","[u'blue', u'red', u'black']","[u'left', u'middle', u'right']","[0.9, 0.5, 0.1]","[u'medium', u'high', u'low']","red",50,"middle","high","True","False",404,450,NA
"A3VTOW7WLPTBRR","Thu Jan 30 2020 12:13:47 GMT-0500 (Eastern Standard Time)","Thu Jan 30 2020 12:20:38 GMT-0500 (Eastern Standard Time)","Mozilla/5.0 (Windows NT 6.1; Win64; x64) AppleWebKit/537.36 (KHTML, like Gecko) Chrome/79.0.3945.130 Safari/537.36",10,"[0.9, 0.5, 0.1]","[0.8, 0.4, 0.2]","[u'blue', u'red', u'black']","[u'left', u'middle', u'right']","[0.9, 0.5, 0.1]","[u'medium', u'high', u'low']","red",50,"middle","high","True","False",262,550,NA
"A3VTOW7WLPTBRR","Thu Jan 30 2020 12:13:47 GMT-0500 (Eastern Standard Time)","Thu Jan 30 2020 12:20:38 GMT-0500 (Eastern Standard Time)","Mozilla/5.0 (Windows NT 6.1; Win64; x64) AppleWebKit/537.36 (KHTML, like Gecko) Chrome/79.0.3945.130 Safari/537.36",11,"[0.9, 0.5, 0.1]","[0.8, 0.4, 0.2]","[u'blue', u'red', u'black']","[u'left', u'middle', u'right']","[0.9, 0.5, 0.1]","[u'medium', u'high', u'low']","red",50,"middle","high","False","False",273,500,NA
"A3VTOW7WLPTBRR","Thu Jan 30 2020 12:13:47 GMT-0500 (Eastern Standard Time)","Thu Jan 30 2020 12:20:38 GMT-0500 (Eastern Standard Time)","Mozilla/5.0 (Windows NT 6.1; Win64; x64) AppleWebKit/537.36 (KHTML, like Gecko) Chrome/79.0.3945.130 Safari/537.36",12,"[0.9, 0.5, 0.1]","[0.8, 0.4, 0.2]","[u'blue', u'red', u'black']","[u'left', u'middle', u'right']","[0.9, 0.5, 0.1]","[u'medium', u'high', u'low']","red",50,"middle","high","True","False",406,600,NA
"A3VTOW7WLPTBRR","Thu Jan 30 2020 12:13:47 GMT-0500 (Eastern Standard Time)","Thu Jan 30 2020 12:20:38 GMT-0500 (Eastern Standard Time)","Mozilla/5.0 (Windows NT 6.1; Win64; x64) AppleWebKit/537.36 (KHTML, like Gecko) Chrome/79.0.3945.130 Safari/537.36",13,"[0.9, 0.5, 0.1]","[0.8, 0.4, 0.2]","[u'blue', u'red', u'black']","[u'left', u'middle', u'right']","[0.9, 0.5, 0.1]","[u'medium', u'high', u'low']","red",50,"middle","high","True","False",291,700,NA
"A3VTOW7WLPTBRR","Thu Jan 30 2020 12:13:47 GMT-0500 (Eastern Standard Time)","Thu Jan 30 2020 12:20:38 GMT-0500 (Eastern Standard Time)","Mozilla/5.0 (Windows NT 6.1; Win64; x64) AppleWebKit/537.36 (KHTML, like Gecko) Chrome/79.0.3945.130 Safari/537.36",14,"[0.9, 0.5, 0.1]","[0.8, 0.4, 0.2]","[u'blue', u'red', u'black']","[u'left', u'middle', u'right']","[0.9, 0.5, 0.1]","[u'medium', u'high', u'low']","red",50,"middle","high","True","False",245,800,NA
"A3VTOW7WLPTBRR","Thu Jan 30 2020 12:13:47 GMT-0500 (Eastern Standard Time)","Thu Jan 30 2020 12:20:38 GMT-0500 (Eastern Standard Time)","Mozilla/5.0 (Windows NT 6.1; Win64; x64) AppleWebKit/537.36 (KHTML, like Gecko) Chrome/79.0.3945.130 Safari/537.36",15,"[0.9, 0.5, 0.1]","[0.8, 0.4, 0.2]","[u'blue', u'red', u'black']","[u'left', u'middle', u'right']","[0.9, 0.5, 0.1]","[u'medium', u'high', u'low']","red",50,"middle","high","True","False",128,900,NA
"A3VTOW7WLPTBRR","Thu Jan 30 2020 12:13:47 GMT-0500 (Eastern Standard Time)","Thu Jan 30 2020 12:20:38 GMT-0500 (Eastern Standard Time)","Mozilla/5.0 (Windows NT 6.1; Win64; x64) AppleWebKit/537.36 (KHTML, like Gecko) Chrome/79.0.3945.130 Safari/537.36",16,"[0.9, 0.5, 0.1]","[0.8, 0.4, 0.2]","[u'blue', u'red', u'black']","[u'left', u'middle', u'right']","[0.9, 0.5, 0.1]","[u'medium', u'high', u'low']","red",50,"middle","high","True","False",257,1000,NA
"A3VTOW7WLPTBRR","Thu Jan 30 2020 12:13:47 GMT-0500 (Eastern Standard Time)","Thu Jan 30 2020 12:20:38 GMT-0500 (Eastern Standard Time)","Mozilla/5.0 (Windows NT 6.1; Win64; x64) AppleWebKit/537.36 (KHTML, like Gecko) Chrome/79.0.3945.130 Safari/537.36",17,"[0.9, 0.5, 0.1]","[0.8, 0.4, 0.2]","[u'blue', u'red', u'black']","[u'left', u'middle', u'right']","[0.9, 0.5, 0.1]","[u'medium', u'high', u'low']","red",50,"middle","high","True","True",256,1100,NA
"A3VTOW7WLPTBRR","Thu Jan 30 2020 12:13:47 GMT-0500 (Eastern Standard Time)","Thu Jan 30 2020 12:20:38 GMT-0500 (Eastern Standard Time)","Mozilla/5.0 (Windows NT 6.1; Win64; x64) AppleWebKit/537.36 (KHTML, like Gecko) Chrome/79.0.3945.130 Safari/537.36",18,"[0.9, 0.5, 0.1]","[0.8, 0.4, 0.2]","[u'blue', u'red', u'black']","[u'left', u'middle', u'right']","[0.9, 0.5, 0.1]","[u'medium', u'low', u'high']","red",50,"middle","low","False","False",271,1050,NA
"A3VTOW7WLPTBRR","Thu Jan 30 2020 12:13:47 GMT-0500 (Eastern Standard Time)","Thu Jan 30 2020 12:20:38 GMT-0500 (Eastern Standard Time)","Mozilla/5.0 (Windows NT 6.1; Win64; x64) AppleWebKit/537.36 (KHTML, like Gecko) Chrome/79.0.3945.130 Safari/537.36",19,"[0.9, 0.5, 0.1]","[0.8, 0.4, 0.2]","[u'blue', u'red', u'black']","[u'left', u'middle', u'right']","[0.9, 0.5, 0.1]","[u'medium', u'low', u'high']","black",51,"right","high","True","False",218,1150,NA
"A3VTOW7WLPTBRR","Thu Jan 30 2020 12:13:47 GMT-0500 (Eastern Standard Time)","Thu Jan 30 2020 12:20:38 GMT-0500 (Eastern Standard Time)","Mozilla/5.0 (Windows NT 6.1; Win64; x64) AppleWebKit/537.36 (KHTML, like Gecko) Chrome/79.0.3945.130 Safari/537.36",20,"[0.9, 0.5, 0.1]","[0.8, 0.4, 0.2]","[u'blue', u'red', u'black']","[u'left', u'middle', u'right']","[0.9, 0.5, 0.1]","[u'medium', u'low', u'high']","black",51,"right","high","True","False",235,1250,NA
"A3VTOW7WLPTBRR","Thu Jan 30 2020 12:13:47 GMT-0500 (Eastern Standard Time)","Thu Jan 30 2020 12:20:38 GMT-0500 (Eastern Standard Time)","Mozilla/5.0 (Windows NT 6.1; Win64; x64) AppleWebKit/537.36 (KHTML, like Gecko) Chrome/79.0.3945.130 Safari/537.36",21,"[0.9, 0.5, 0.1]","[0.8, 0.4, 0.2]","[u'blue', u'red', u'black']","[u'left', u'middle', u'right']","[0.9, 0.5, 0.1]","[u'medium', u'low', u'high']","black",51,"right","high","True","False",287,1350,NA
"A3VTOW7WLPTBRR","Thu Jan 30 2020 12:13:47 GMT-0500 (Eastern Standard Time)","Thu Jan 30 2020 12:20:38 GMT-0500 (Eastern Standard Time)","Mozilla/5.0 (Windows NT 6.1; Win64; x64) AppleWebKit/537.36 (KHTML, like Gecko) Chrome/79.0.3945.130 Safari/537.36",22,"[0.9, 0.5, 0.1]","[0.8, 0.4, 0.2]","[u'blue', u'red', u'black']","[u'left', u'middle', u'right']","[0.9, 0.5, 0.1]","[u'medium', u'low', u'high']","black",51,"right","high","True","False",189,1450,NA
"A3VTOW7WLPTBRR","Thu Jan 30 2020 12:13:47 GMT-0500 (Eastern Standard Time)","Thu Jan 30 2020 12:20:38 GMT-0500 (Eastern Standard Time)","Mozilla/5.0 (Windows NT 6.1; Win64; x64) AppleWebKit/537.36 (KHTML, like Gecko) Chrome/79.0.3945.130 Safari/537.36",23,"[0.9, 0.5, 0.1]","[0.8, 0.4, 0.2]","[u'blue', u'red', u'black']","[u'left', u'middle', u'right']","[0.9, 0.5, 0.1]","[u'medium', u'low', u'high']","black",51,"right","high","True","False",236,1550,NA
"A3VTOW7WLPTBRR","Thu Jan 30 2020 12:13:47 GMT-0500 (Eastern Standard Time)","Thu Jan 30 2020 12:20:38 GMT-0500 (Eastern Standard Time)","Mozilla/5.0 (Windows NT 6.1; Win64; x64) AppleWebKit/537.36 (KHTML, like Gecko) Chrome/79.0.3945.130 Safari/537.36",24,"[0.9, 0.5, 0.1]","[0.8, 0.4, 0.2]","[u'blue', u'red', u'black']","[u'left', u'middle', u'right']","[0.9, 0.5, 0.1]","[u'medium', u'low', u'high']","black",51,"right","high","True","False",224,1650,NA
"A3VTOW7WLPTBRR","Thu Jan 30 2020 12:13:47 GMT-0500 (Eastern Standard Time)","Thu Jan 30 2020 12:20:38 GMT-0500 (Eastern Standard Time)","Mozilla/5.0 (Windows NT 6.1; Win64; x64) AppleWebKit/537.36 (KHTML, like Gecko) Chrome/79.0.3945.130 Safari/537.36",25,"[0.9, 0.5, 0.1]","[0.8, 0.4, 0.2]","[u'blue', u'red', u'black']","[u'left', u'middle', u'right']","[0.9, 0.5, 0.1]","[u'medium', u'low', u'high']","black",51,"right","high","True","False",240,1750,NA
"A3VTOW7WLPTBRR","Thu Jan 30 2020 12:13:47 GMT-0500 (Eastern Standard Time)","Thu Jan 30 2020 12:20:38 GMT-0500 (Eastern Standard Time)","Mozilla/5.0 (Windows NT 6.1; Win64; x64) AppleWebKit/537.36 (KHTML, like Gecko) Chrome/79.0.3945.130 Safari/537.36",26,"[0.9, 0.5, 0.1]","[0.8, 0.4, 0.2]","[u'blue', u'red', u'black']","[u'left', u'middle', u'right']","[0.9, 0.5, 0.1]","[u'medium', u'low', u'high']","black",51,"right","high","True","False",253,1850,NA
"A3VTOW7WLPTBRR","Thu Jan 30 2020 12:13:47 GMT-0500 (Eastern Standard Time)","Thu Jan 30 2020 12:20:38 GMT-0500 (Eastern Standard Time)","Mozilla/5.0 (Windows NT 6.1; Win64; x64) AppleWebKit/537.36 (KHTML, like Gecko) Chrome/79.0.3945.130 Safari/537.36",27,"[0.9, 0.5, 0.1]","[0.8, 0.4, 0.2]","[u'blue', u'red', u'black']","[u'left', u'middle', u'right']","[0.9, 0.5, 0.1]","[u'medium', u'low', u'high']","black",51,"right","high","True","True",258,1950,NA
"A3VTOW7WLPTBRR","Thu Jan 30 2020 12:13:47 GMT-0500 (Eastern Standard Time)","Thu Jan 30 2020 12:20:38 GMT-0500 (Eastern Standard Time)","Mozilla/5.0 (Windows NT 6.1; Win64; x64) AppleWebKit/537.36 (KHTML, like Gecko) Chrome/79.0.3945.130 Safari/537.36",28,"[0.9, 0.5, 0.1]","[0.8, 0.4, 0.2]","[u'blue', u'red', u'black']","[u'left', u'middle', u'right']","[0.9, 0.5, 0.1]","[u'high', u'low', u'medium']","black",51,"right","medium","False","False",268,1900,NA
"A3VTOW7WLPTBRR","Thu Jan 30 2020 12:13:47 GMT-0500 (Eastern Standard Time)","Thu Jan 30 2020 12:20:38 GMT-0500 (Eastern Standard Time)","Mozilla/5.0 (Windows NT 6.1; Win64; x64) AppleWebKit/537.36 (KHTML, like Gecko) Chrome/79.0.3945.130 Safari/537.36",29,"[0.9, 0.5, 0.1]","[0.8, 0.4, 0.2]","[u'blue', u'red', u'black']","[u'left', u'middle', u'right']","[0.9, 0.5, 0.1]","[u'high', u'low', u'medium']","black",51,"right","medium","True","False",49,2000,NA
"A3VTOW7WLPTBRR","Thu Jan 30 2020 12:13:47 GMT-0500 (Eastern Standard Time)","Thu Jan 30 2020 12:20:38 GMT-0500 (Eastern Standard Time)","Mozilla/5.0 (Windows NT 6.1; Win64; x64) AppleWebKit/537.36 (KHTML, like Gecko) Chrome/79.0.3945.130 Safari/537.36",30,"[0.9, 0.5, 0.1]","[0.8, 0.4, 0.2]","[u'blue', u'red', u'black']","[u'left', u'middle', u'right']","[0.9, 0.5, 0.1]","[u'high', u'low', u'medium']","black",51,"right","medium","True","False",254,2100,NA
"A3VTOW7WLPTBRR","Thu Jan 30 2020 12:13:47 GMT-0500 (Eastern Standard Time)","Thu Jan 30 2020 12:20:38 GMT-0500 (Eastern Standard Time)","Mozilla/5.0 (Windows NT 6.1; Win64; x64) AppleWebKit/537.36 (KHTML, like Gecko) Chrome/79.0.3945.130 Safari/537.36",31,"[0.9, 0.5, 0.1]","[0.8, 0.4, 0.2]","[u'blue', u'red', u'black']","[u'left', u'middle', u'right']","[0.9, 0.5, 0.1]","[u'high', u'low', u'medium']","black",51,"right","medium","False","False",201,2050,NA
"A3VTOW7WLPTBRR","Thu Jan 30 2020 12:13:47 GMT-0500 (Eastern Standard Time)","Thu Jan 30 2020 12:20:38 GMT-0500 (Eastern Standard Time)","Mozilla/5.0 (Windows NT 6.1; Win64; x64) AppleWebKit/537.36 (KHTML, like Gecko) Chrome/79.0.3945.130 Safari/537.36",32,"[0.9, 0.5, 0.1]","[0.8, 0.4, 0.2]","[u'blue', u'red', u'black']","[u'left', u'middle', u'right']","[0.9, 0.5, 0.1]","[u'high', u'low', u'medium']","black",51,"right","medium","True","False",414,2150,NA
"A3VTOW7WLPTBRR","Thu Jan 30 2020 12:13:47 GMT-0500 (Eastern Standard Time)","Thu Jan 30 2020 12:20:38 GMT-0500 (Eastern Standard Time)","Mozilla/5.0 (Windows NT 6.1; Win64; x64) AppleWebKit/537.36 (KHTML, like Gecko) Chrome/79.0.3945.130 Safari/537.36",33,"[0.9, 0.5, 0.1]","[0.8, 0.4, 0.2]","[u'blue', u'red', u'black']","[u'left', u'middle', u'right']","[0.9, 0.5, 0.1]","[u'high', u'low', u'medium']","black",51,"right","medium","False","False",260,2100,NA
"A3VTOW7WLPTBRR","Thu Jan 30 2020 12:13:47 GMT-0500 (Eastern Standard Time)","Thu Jan 30 2020 12:20:38 GMT-0500 (Eastern Standard Time)","Mozilla/5.0 (Windows NT 6.1; Win64; x64) AppleWebKit/537.36 (KHTML, like Gecko) Chrome/79.0.3945.130 Safari/537.36",34,"[0.9, 0.5, 0.1]","[0.8, 0.4, 0.2]","[u'blue', u'red', u'black']","[u'left', u'middle', u'right']","[0.9, 0.5, 0.1]","[u'high', u'low', u'medium']","red",50,"middle","low","False","False",249,2050,NA
"A3VTOW7WLPTBRR","Thu Jan 30 2020 12:13:47 GMT-0500 (Eastern Standard Time)","Thu Jan 30 2020 12:20:38 GMT-0500 (Eastern Standard Time)","Mozilla/5.0 (Windows NT 6.1; Win64; x64) AppleWebKit/537.36 (KHTML, like Gecko) Chrome/79.0.3945.130 Safari/537.36",35,"[0.9, 0.5, 0.1]","[0.8, 0.4, 0.2]","[u'blue', u'red', u'black']","[u'left', u'middle', u'right']","[0.9, 0.5, 0.1]","[u'high', u'low', u'medium']","red",50,"middle","low","False","False",157,2000,NA
"A3VTOW7WLPTBRR","Thu Jan 30 2020 12:13:47 GMT-0500 (Eastern Standard Time)","Thu Jan 30 2020 12:20:38 GMT-0500 (Eastern Standard Time)","Mozilla/5.0 (Windows NT 6.1; Win64; x64) AppleWebKit/537.36 (KHTML, like Gecko) Chrome/79.0.3945.130 Safari/537.36",36,"[0.9, 0.5, 0.1]","[0.8, 0.4, 0.2]","[u'blue', u'red', u'black']","[u'left', u'middle', u'right']","[0.9, 0.5, 0.1]","[u'high', u'low', u'medium']","blue",49,"left","high","True","False",244,2100,NA
"A3VTOW7WLPTBRR","Thu Jan 30 2020 12:13:47 GMT-0500 (Eastern Standard Time)","Thu Jan 30 2020 12:20:38 GMT-0500 (Eastern Standard Time)","Mozilla/5.0 (Windows NT 6.1; Win64; x64) AppleWebKit/537.36 (KHTML, like Gecko) Chrome/79.0.3945.130 Safari/537.36",37,"[0.9, 0.5, 0.1]","[0.8, 0.4, 0.2]","[u'blue', u'red', u'black']","[u'left', u'middle', u'right']","[0.9, 0.5, 0.1]","[u'high', u'low', u'medium']","blue",49,"left","high","True","False",275,2200,NA
"A3VTOW7WLPTBRR","Thu Jan 30 2020 12:13:47 GMT-0500 (Eastern Standard Time)","Thu Jan 30 2020 12:20:38 GMT-0500 (Eastern Standard Time)","Mozilla/5.0 (Windows NT 6.1; Win64; x64) AppleWebKit/537.36 (KHTML, like Gecko) Chrome/79.0.3945.130 Safari/537.36",38,"[0.9, 0.5, 0.1]","[0.8, 0.4, 0.2]","[u'blue', u'red', u'black']","[u'left', u'middle', u'right']","[0.9, 0.5, 0.1]","[u'high', u'low', u'medium']","blue",49,"left","high","True","False",311,2300,NA
"A3VTOW7WLPTBRR","Thu Jan 30 2020 12:13:47 GMT-0500 (Eastern Standard Time)","Thu Jan 30 2020 12:20:38 GMT-0500 (Eastern Standard Time)","Mozilla/5.0 (Windows NT 6.1; Win64; x64) AppleWebKit/537.36 (KHTML, like Gecko) Chrome/79.0.3945.130 Safari/537.36",39,"[0.9, 0.5, 0.1]","[0.8, 0.4, 0.2]","[u'blue', u'red', u'black']","[u'left', u'middle', u'right']","[0.9, 0.5, 0.1]","[u'high', u'low', u'medium']","blue",49,"left","high","True","False",64,2400,NA
"A3VTOW7WLPTBRR","Thu Jan 30 2020 12:13:47 GMT-0500 (Eastern Standard Time)","Thu Jan 30 2020 12:20:38 GMT-0500 (Eastern Standard Time)","Mozilla/5.0 (Windows NT 6.1; Win64; x64) AppleWebKit/537.36 (KHTML, like Gecko) Chrome/79.0.3945.130 Safari/537.36",40,"[0.9, 0.5, 0.1]","[0.8, 0.4, 0.2]","[u'blue', u'red', u'black']","[u'left', u'middle', u'right']","[0.9, 0.5, 0.1]","[u'high', u'low', u'medium']","blue",49,"left","high","True","False",402,2500,NA
"A3VTOW7WLPTBRR","Thu Jan 30 2020 12:13:47 GMT-0500 (Eastern Standard Time)","Thu Jan 30 2020 12:20:38 GMT-0500 (Eastern Standard Time)","Mozilla/5.0 (Windows NT 6.1; Win64; x64) AppleWebKit/537.36 (KHTML, like Gecko) Chrome/79.0.3945.130 Safari/537.36",41,"[0.9, 0.5, 0.1]","[0.8, 0.4, 0.2]","[u'blue', u'red', u'black']","[u'left', u'middle', u'right']","[0.9, 0.5, 0.1]","[u'medium', u'high', u'low']","black",51,"right","low","False","False",478,2450,NA
"A3VTOW7WLPTBRR","Thu Jan 30 2020 12:13:47 GMT-0500 (Eastern Standard Time)","Thu Jan 30 2020 12:20:38 GMT-0500 (Eastern Standard Time)","Mozilla/5.0 (Windows NT 6.1; Win64; x64) AppleWebKit/537.36 (KHTML, like Gecko) Chrome/79.0.3945.130 Safari/537.36",42,"[0.9, 0.5, 0.1]","[0.8, 0.4, 0.2]","[u'blue', u'red', u'black']","[u'left', u'middle', u'right']","[0.9, 0.5, 0.1]","[u'medium', u'high', u'low']","black",51,"right","low","True","False",236,2550,NA
"A3VTOW7WLPTBRR","Thu Jan 30 2020 12:13:47 GMT-0500 (Eastern Standard Time)","Thu Jan 30 2020 12:20:38 GMT-0500 (Eastern Standard Time)","Mozilla/5.0 (Windows NT 6.1; Win64; x64) AppleWebKit/537.36 (KHTML, like Gecko) Chrome/79.0.3945.130 Safari/537.36",43,"[0.9, 0.5, 0.1]","[0.8, 0.4, 0.2]","[u'blue', u'red', u'black']","[u'left', u'middle', u'right']","[0.9, 0.5, 0.1]","[u'medium', u'high', u'low']","black",51,"right","low","False","False",282,2500,NA
"A3VTOW7WLPTBRR","Thu Jan 30 2020 12:13:47 GMT-0500 (Eastern Standard Time)","Thu Jan 30 2020 12:20:38 GMT-0500 (Eastern Standard Time)","Mozilla/5.0 (Windows NT 6.1; Win64; x64) AppleWebKit/537.36 (KHTML, like Gecko) Chrome/79.0.3945.130 Safari/537.36",44,"[0.9, 0.5, 0.1]","[0.8, 0.4, 0.2]","[u'blue', u'red', u'black']","[u'left', u'middle', u'right']","[0.9, 0.5, 0.1]","[u'medium', u'high', u'low']","black",51,"right","low","False","False",259,2450,NA
"A3VTOW7WLPTBRR","Thu Jan 30 2020 12:13:47 GMT-0500 (Eastern Standard Time)","Thu Jan 30 2020 12:20:38 GMT-0500 (Eastern Standard Time)","Mozilla/5.0 (Windows NT 6.1; Win64; x64) AppleWebKit/537.36 (KHTML, like Gecko) Chrome/79.0.3945.130 Safari/537.36",45,"[0.9, 0.5, 0.1]","[0.8, 0.4, 0.2]","[u'blue', u'red', u'black']","[u'left', u'middle', u'right']","[0.9, 0.5, 0.1]","[u'medium', u'high', u'low']","blue",49,"left","medium","False","False",240,2400,NA
"A3VTOW7WLPTBRR","Thu Jan 30 2020 12:13:47 GMT-0500 (Eastern Standard Time)","Thu Jan 30 2020 12:20:38 GMT-0500 (Eastern Standard Time)","Mozilla/5.0 (Windows NT 6.1; Win64; x64) AppleWebKit/537.36 (KHTML, like Gecko) Chrome/79.0.3945.130 Safari/537.36",46,"[0.9, 0.5, 0.1]","[0.8, 0.4, 0.2]","[u'blue', u'red', u'black']","[u'left', u'middle', u'right']","[0.9, 0.5, 0.1]","[u'medium', u'high', u'low']","blue",49,"left","medium","True","False",279,2500,NA
"A3VTOW7WLPTBRR","Thu Jan 30 2020 12:13:47 GMT-0500 (Eastern Standard Time)","Thu Jan 30 2020 12:20:38 GMT-0500 (Eastern Standard Time)","Mozilla/5.0 (Windows NT 6.1; Win64; x64) AppleWebKit/537.36 (KHTML, like Gecko) Chrome/79.0.3945.130 Safari/537.36",47,"[0.9, 0.5, 0.1]","[0.8, 0.4, 0.2]","[u'blue', u'red', u'black']","[u'left', u'middle', u'right']","[0.9, 0.5, 0.1]","[u'medium', u'high', u'low']","blue",49,"left","medium","False","False",265,2450,NA
"A3VTOW7WLPTBRR","Thu Jan 30 2020 12:13:47 GMT-0500 (Eastern Standard Time)","Thu Jan 30 2020 12:20:38 GMT-0500 (Eastern Standard Time)","Mozilla/5.0 (Windows NT 6.1; Win64; x64) AppleWebKit/537.36 (KHTML, like Gecko) Chrome/79.0.3945.130 Safari/537.36",48,"[0.9, 0.5, 0.1]","[0.8, 0.4, 0.2]","[u'blue', u'red', u'black']","[u'left', u'middle', u'right']","[0.9, 0.5, 0.1]","[u'medium', u'high', u'low']","blue",49,"left","medium","False","False",249,2400,NA
"A3VTOW7WLPTBRR","Thu Jan 30 2020 12:13:47 GMT-0500 (Eastern Standard Time)","Thu Jan 30 2020 12:20:38 GMT-0500 (Eastern Standard Time)","Mozilla/5.0 (Windows NT 6.1; Win64; x64) AppleWebKit/537.36 (KHTML, like Gecko) Chrome/79.0.3945.130 Safari/537.36",49,"[0.9, 0.5, 0.1]","[0.8, 0.4, 0.2]","[u'blue', u'red', u'black']","[u'left', u'middle', u'right']","[0.9, 0.5, 0.1]","[u'medium', u'high', u'low']","red",50,"middle","high","True","False",123,2500,NA
"A3VTOW7WLPTBRR","Thu Jan 30 2020 12:13:47 GMT-0500 (Eastern Standard Time)","Thu Jan 30 2020 12:20:38 GMT-0500 (Eastern Standard Time)","Mozilla/5.0 (Windows NT 6.1; Win64; x64) AppleWebKit/537.36 (KHTML, like Gecko) Chrome/79.0.3945.130 Safari/537.36",50,"[0.9, 0.5, 0.1]","[0.8, 0.4, 0.2]","[u'blue', u'red', u'black']","[u'left', u'middle', u'right']","[0.9, 0.5, 0.1]","[u'medium', u'high', u'low']","red",50,"middle","high","True","False",189,2600,NA
"A3VTOW7WLPTBRR","Thu Jan 30 2020 12:13:47 GMT-0500 (Eastern Standard Time)","Thu Jan 30 2020 12:20:38 GMT-0500 (Eastern Standard Time)","Mozilla/5.0 (Windows NT 6.1; Win64; x64) AppleWebKit/537.36 (KHTML, like Gecko) Chrome/79.0.3945.130 Safari/537.36",51,"[0.9, 0.5, 0.1]","[0.8, 0.4, 0.2]","[u'blue', u'red', u'black']","[u'left', u'middle', u'right']","[0.9, 0.5, 0.1]","[u'medium', u'high', u'low']","red",50,"middle","high","True","False",217,2700,NA
"A3VTOW7WLPTBRR","Thu Jan 30 2020 12:13:47 GMT-0500 (Eastern Standard Time)","Thu Jan 30 2020 12:20:38 GMT-0500 (Eastern Standard Time)","Mozilla/5.0 (Windows NT 6.1; Win64; x64) AppleWebKit/537.36 (KHTML, like Gecko) Chrome/79.0.3945.130 Safari/537.36",52,"[0.9, 0.5, 0.1]","[0.8, 0.4, 0.2]","[u'blue', u'red', u'black']","[u'left', u'middle', u'right']","[0.9, 0.5, 0.1]","[u'medium', u'high', u'low']","red",50,"middle","high","True","False",220,2800,NA
"A3VTOW7WLPTBRR","Thu Jan 30 2020 12:13:47 GMT-0500 (Eastern Standard Time)","Thu Jan 30 2020 12:20:38 GMT-0500 (Eastern Standard Time)","Mozilla/5.0 (Windows NT 6.1; Win64; x64) AppleWebKit/537.36 (KHTML, like Gecko) Chrome/79.0.3945.130 Safari/537.36",53,"[0.9, 0.5, 0.1]","[0.8, 0.4, 0.2]","[u'blue', u'red', u'black']","[u'left', u'middle', u'right']","[0.9, 0.5, 0.1]","[u'medium', u'high', u'low']","red",50,"middle","high","True","False",246,2900,NA
"A3VTOW7WLPTBRR","Thu Jan 30 2020 12:13:47 GMT-0500 (Eastern Standard Time)","Thu Jan 30 2020 12:20:38 GMT-0500 (Eastern Standard Time)","Mozilla/5.0 (Windows NT 6.1; Win64; x64) AppleWebKit/537.36 (KHTML, like Gecko) Chrome/79.0.3945.130 Safari/537.36",54,"[0.9, 0.5, 0.1]","[0.8, 0.4, 0.2]","[u'blue', u'red', u'black']","[u'left', u'middle', u'right']","[0.9, 0.5, 0.1]","[u'medium', u'high', u'low']","red",50,"middle","high","False","False",235,2850,NA
"A3VTOW7WLPTBRR","Thu Jan 30 2020 12:13:47 GMT-0500 (Eastern Standard Time)","Thu Jan 30 2020 12:20:38 GMT-0500 (Eastern Standard Time)","Mozilla/5.0 (Windows NT 6.1; Win64; x64) AppleWebKit/537.36 (KHTML, like Gecko) Chrome/79.0.3945.130 Safari/537.36",55,"[0.9, 0.5, 0.1]","[0.8, 0.4, 0.2]","[u'blue', u'red', u'black']","[u'left', u'middle', u'right']","[0.9, 0.5, 0.1]","[u'medium', u'high', u'low']","red",50,"middle","high","True","False",170,2950,NA
"A3VTOW7WLPTBRR","Thu Jan 30 2020 12:13:47 GMT-0500 (Eastern Standard Time)","Thu Jan 30 2020 12:20:38 GMT-0500 (Eastern Standard Time)","Mozilla/5.0 (Windows NT 6.1; Win64; x64) AppleWebKit/537.36 (KHTML, like Gecko) Chrome/79.0.3945.130 Safari/537.36",56,"[0.9, 0.5, 0.1]","[0.8, 0.4, 0.2]","[u'blue', u'red', u'black']","[u'left', u'middle', u'right']","[0.9, 0.5, 0.1]","[u'medium', u'high', u'low']","red",50,"middle","high","True","False",209,3050,NA
"A3VTOW7WLPTBRR","Thu Jan 30 2020 12:13:47 GMT-0500 (Eastern Standard Time)","Thu Jan 30 2020 12:20:38 GMT-0500 (Eastern Standard Time)","Mozilla/5.0 (Windows NT 6.1; Win64; x64) AppleWebKit/537.36 (KHTML, like Gecko) Chrome/79.0.3945.130 Safari/537.36",57,"[0.9, 0.5, 0.1]","[0.8, 0.4, 0.2]","[u'blue', u'red', u'black']","[u'left', u'middle', u'right']","[0.9, 0.5, 0.1]","[u'medium', u'high', u'low']","red",50,"middle","high","True","True",27,3150,NA
"A3VTOW7WLPTBRR","Thu Jan 30 2020 12:13:47 GMT-0500 (Eastern Standard Time)","Thu Jan 30 2020 12:20:38 GMT-0500 (Eastern Standard Time)","Mozilla/5.0 (Windows NT 6.1; Win64; x64) AppleWebKit/537.36 (KHTML, like Gecko) Chrome/79.0.3945.130 Safari/537.36",58,"[0.9, 0.5, 0.1]","[0.8, 0.4, 0.2]","[u'blue', u'red', u'black']","[u'left', u'middle', u'right']","[0.9, 0.5, 0.1]","[u'medium', u'low', u'high']","red",50,"middle","low","False","False",243,3100,NA
"A3VTOW7WLPTBRR","Thu Jan 30 2020 12:13:47 GMT-0500 (Eastern Standard Time)","Thu Jan 30 2020 12:20:38 GMT-0500 (Eastern Standard Time)","Mozilla/5.0 (Windows NT 6.1; Win64; x64) AppleWebKit/537.36 (KHTML, like Gecko) Chrome/79.0.3945.130 Safari/537.36",59,"[0.9, 0.5, 0.1]","[0.8, 0.4, 0.2]","[u'blue', u'red', u'black']","[u'left', u'middle', u'right']","[0.9, 0.5, 0.1]","[u'medium', u'low', u'high']","red",50,"middle","low","False","False",151,3050,NA
"A3VTOW7WLPTBRR","Thu Jan 30 2020 12:13:47 GMT-0500 (Eastern Standard Time)","Thu Jan 30 2020 12:20:38 GMT-0500 (Eastern Standard Time)","Mozilla/5.0 (Windows NT 6.1; Win64; x64) AppleWebKit/537.36 (KHTML, like Gecko) Chrome/79.0.3945.130 Safari/537.36",60,"[0.9, 0.5, 0.1]","[0.8, 0.4, 0.2]","[u'blue', u'red', u'black']","[u'left', u'middle', u'right']","[0.9, 0.5, 0.1]","[u'medium', u'low', u'high']","red",50,"middle","low","False","False",194,3000,NA
"A3VTOW7WLPTBRR","Thu Jan 30 2020 12:13:47 GMT-0500 (Eastern Standard Time)","Thu Jan 30 2020 12:20:38 GMT-0500 (Eastern Standard Time)","Mozilla/5.0 (Windows NT 6.1; Win64; x64) AppleWebKit/537.36 (KHTML, like Gecko) Chrome/79.0.3945.130 Safari/537.36",61,"[0.9, 0.5, 0.1]","[0.8, 0.4, 0.2]","[u'blue', u'red', u'black']","[u'left', u'middle', u'right']","[0.9, 0.5, 0.1]","[u'medium', u'low', u'high']","black",51,"right","high","True","False",255,3100,NA
"A3VTOW7WLPTBRR","Thu Jan 30 2020 12:13:47 GMT-0500 (Eastern Standard Time)","Thu Jan 30 2020 12:20:38 GMT-0500 (Eastern Standard Time)","Mozilla/5.0 (Windows NT 6.1; Win64; x64) AppleWebKit/537.36 (KHTML, like Gecko) Chrome/79.0.3945.130 Safari/537.36",62,"[0.9, 0.5, 0.1]","[0.8, 0.4, 0.2]","[u'blue', u'red', u'black']","[u'left', u'middle', u'right']","[0.9, 0.5, 0.1]","[u'medium', u'low', u'high']","black",51,"right","high","True","False",121,3200,NA
"A3VTOW7WLPTBRR","Thu Jan 30 2020 12:13:47 GMT-0500 (Eastern Standard Time)","Thu Jan 30 2020 12:20:38 GMT-0500 (Eastern Standard Time)","Mozilla/5.0 (Windows NT 6.1; Win64; x64) AppleWebKit/537.36 (KHTML, like Gecko) Chrome/79.0.3945.130 Safari/537.36",63,"[0.9, 0.5, 0.1]","[0.8, 0.4, 0.2]","[u'blue', u'red', u'black']","[u'left', u'middle', u'right']","[0.9, 0.5, 0.1]","[u'medium', u'low', u'high']","black",51,"right","high","True","False",228,3300,NA
"A3VTOW7WLPTBRR","Thu Jan 30 2020 12:13:47 GMT-0500 (Eastern Standard Time)","Thu Jan 30 2020 12:20:38 GMT-0500 (Eastern Standard Time)","Mozilla/5.0 (Windows NT 6.1; Win64; x64) AppleWebKit/537.36 (KHTML, like Gecko) Chrome/79.0.3945.130 Safari/537.36",64,"[0.9, 0.5, 0.1]","[0.8, 0.4, 0.2]","[u'blue', u'red', u'black']","[u'left', u'middle', u'right']","[0.9, 0.5, 0.1]","[u'medium', u'low', u'high']","black",51,"right","high","True","False",220,3400,NA
"A3VTOW7WLPTBRR","Thu Jan 30 2020 12:13:47 GMT-0500 (Eastern Standard Time)","Thu Jan 30 2020 12:20:38 GMT-0500 (Eastern Standard Time)","Mozilla/5.0 (Windows NT 6.1; Win64; x64) AppleWebKit/537.36 (KHTML, like Gecko) Chrome/79.0.3945.130 Safari/537.36",65,"[0.9, 0.5, 0.1]","[0.8, 0.4, 0.2]","[u'blue', u'red', u'black']","[u'left', u'middle', u'right']","[0.9, 0.5, 0.1]","[u'medium', u'low', u'high']","black",51,"right","high","True","False",280,3500,NA
"A3VTOW7WLPTBRR","Thu Jan 30 2020 12:13:47 GMT-0500 (Eastern Standard Time)","Thu Jan 30 2020 12:20:38 GMT-0500 (Eastern Standard Time)","Mozilla/5.0 (Windows NT 6.1; Win64; x64) AppleWebKit/537.36 (KHTML, like Gecko) Chrome/79.0.3945.130 Safari/537.36",66,"[0.9, 0.5, 0.1]","[0.8, 0.4, 0.2]","[u'blue', u'red', u'black']","[u'left', u'middle', u'right']","[0.9, 0.5, 0.1]","[u'medium', u'low', u'high']","black",51,"right","high","False","False",230,3450,NA
"A3VTOW7WLPTBRR","Thu Jan 30 2020 12:13:47 GMT-0500 (Eastern Standard Time)","Thu Jan 30 2020 12:20:38 GMT-0500 (Eastern Standard Time)","Mozilla/5.0 (Windows NT 6.1; Win64; x64) AppleWebKit/537.36 (KHTML, like Gecko) Chrome/79.0.3945.130 Safari/537.36",67,"[0.9, 0.5, 0.1]","[0.8, 0.4, 0.2]","[u'blue', u'red', u'black']","[u'left', u'middle', u'right']","[0.9, 0.5, 0.1]","[u'medium', u'low', u'high']","black",51,"right","high","True","False",189,3550,NA
"A3VTOW7WLPTBRR","Thu Jan 30 2020 12:13:47 GMT-0500 (Eastern Standard Time)","Thu Jan 30 2020 12:20:38 GMT-0500 (Eastern Standard Time)","Mozilla/5.0 (Windows NT 6.1; Win64; x64) AppleWebKit/537.36 (KHTML, like Gecko) Chrome/79.0.3945.130 Safari/537.36",68,"[0.9, 0.5, 0.1]","[0.8, 0.4, 0.2]","[u'blue', u'red', u'black']","[u'left', u'middle', u'right']","[0.9, 0.5, 0.1]","[u'medium', u'low', u'high']","black",51,"right","high","True","False",173,3650,NA
"A3VTOW7WLPTBRR","Thu Jan 30 2020 12:13:47 GMT-0500 (Eastern Standard Time)","Thu Jan 30 2020 12:20:38 GMT-0500 (Eastern Standard Time)","Mozilla/5.0 (Windows NT 6.1; Win64; x64) AppleWebKit/537.36 (KHTML, like Gecko) Chrome/79.0.3945.130 Safari/537.36",69,"[0.9, 0.5, 0.1]","[0.8, 0.4, 0.2]","[u'blue', u'red', u'black']","[u'left', u'middle', u'right']","[0.9, 0.5, 0.1]","[u'medium', u'low', u'high']","black",51,"right","high","True","True",265,3750,NA
"A3VTOW7WLPTBRR","Thu Jan 30 2020 12:13:47 GMT-0500 (Eastern Standard Time)","Thu Jan 30 2020 12:20:38 GMT-0500 (Eastern Standard Time)","Mozilla/5.0 (Windows NT 6.1; Win64; x64) AppleWebKit/537.36 (KHTML, like Gecko) Chrome/79.0.3945.130 Safari/537.36",70,"[0.9, 0.5, 0.1]","[0.8, 0.4, 0.2]","[u'blue', u'red', u'black']","[u'left', u'middle', u'right']","[0.9, 0.5, 0.1]","[u'medium', u'high', u'low']","black",51,"right","low","False","False",370,3700,NA
"A3VTOW7WLPTBRR","Thu Jan 30 2020 12:13:47 GMT-0500 (Eastern Standard Time)","Thu Jan 30 2020 12:20:38 GMT-0500 (Eastern Standard Time)","Mozilla/5.0 (Windows NT 6.1; Win64; x64) AppleWebKit/537.36 (KHTML, like Gecko) Chrome/79.0.3945.130 Safari/537.36",71,"[0.9, 0.5, 0.1]","[0.8, 0.4, 0.2]","[u'blue', u'red', u'black']","[u'left', u'middle', u'right']","[0.9, 0.5, 0.1]","[u'medium', u'high', u'low']","black",51,"right","low","False","False",286,3650,NA
"A3VTOW7WLPTBRR","Thu Jan 30 2020 12:13:47 GMT-0500 (Eastern Standard Time)","Thu Jan 30 2020 12:20:38 GMT-0500 (Eastern Standard Time)","Mozilla/5.0 (Windows NT 6.1; Win64; x64) AppleWebKit/537.36 (KHTML, like Gecko) Chrome/79.0.3945.130 Safari/537.36",72,"[0.9, 0.5, 0.1]","[0.8, 0.4, 0.2]","[u'blue', u'red', u'black']","[u'left', u'middle', u'right']","[0.9, 0.5, 0.1]","[u'medium', u'high', u'low']","black",51,"right","low","False","False",638,3600,NA
"A3VTOW7WLPTBRR","Thu Jan 30 2020 12:13:47 GMT-0500 (Eastern Standard Time)","Thu Jan 30 2020 12:20:38 GMT-0500 (Eastern Standard Time)","Mozilla/5.0 (Windows NT 6.1; Win64; x64) AppleWebKit/537.36 (KHTML, like Gecko) Chrome/79.0.3945.130 Safari/537.36",73,"[0.9, 0.5, 0.1]","[0.8, 0.4, 0.2]","[u'blue', u'red', u'black']","[u'left', u'middle', u'right']","[0.9, 0.5, 0.1]","[u'medium', u'high', u'low']","black",51,"right","low","False","False",342,3550,NA
"A3VTOW7WLPTBRR","Thu Jan 30 2020 12:13:47 GMT-0500 (Eastern Standard Time)","Thu Jan 30 2020 12:20:38 GMT-0500 (Eastern Standard Time)","Mozilla/5.0 (Windows NT 6.1; Win64; x64) AppleWebKit/537.36 (KHTML, like Gecko) Chrome/79.0.3945.130 Safari/537.36",74,"[0.9, 0.5, 0.1]","[0.8, 0.4, 0.2]","[u'blue', u'red', u'black']","[u'left', u'middle', u'right']","[0.9, 0.5, 0.1]","[u'medium', u'high', u'low']","red",50,"middle","high","True","False",247,3650,NA
"A3VTOW7WLPTBRR","Thu Jan 30 2020 12:13:47 GMT-0500 (Eastern Standard Time)","Thu Jan 30 2020 12:20:38 GMT-0500 (Eastern Standard Time)","Mozilla/5.0 (Windows NT 6.1; Win64; x64) AppleWebKit/537.36 (KHTML, like Gecko) Chrome/79.0.3945.130 Safari/537.36",75,"[0.9, 0.5, 0.1]","[0.8, 0.4, 0.2]","[u'blue', u'red', u'black']","[u'left', u'middle', u'right']","[0.9, 0.5, 0.1]","[u'medium', u'high', u'low']","red",50,"middle","high","True","False",249,3750,NA
"A3VTOW7WLPTBRR","Thu Jan 30 2020 12:13:47 GMT-0500 (Eastern Standard Time)","Thu Jan 30 2020 12:20:38 GMT-0500 (Eastern Standard Time)","Mozilla/5.0 (Windows NT 6.1; Win64; x64) AppleWebKit/537.36 (KHTML, like Gecko) Chrome/79.0.3945.130 Safari/537.36",76,"[0.9, 0.5, 0.1]","[0.8, 0.4, 0.2]","[u'blue', u'red', u'black']","[u'left', u'middle', u'right']","[0.9, 0.5, 0.1]","[u'medium', u'high', u'low']","red",50,"middle","high","False","False",253,3700,NA
"A3VTOW7WLPTBRR","Thu Jan 30 2020 12:13:47 GMT-0500 (Eastern Standard Time)","Thu Jan 30 2020 12:20:38 GMT-0500 (Eastern Standard Time)","Mozilla/5.0 (Windows NT 6.1; Win64; x64) AppleWebKit/537.36 (KHTML, like Gecko) Chrome/79.0.3945.130 Safari/537.36",77,"[0.9, 0.5, 0.1]","[0.8, 0.4, 0.2]","[u'blue', u'red', u'black']","[u'left', u'middle', u'right']","[0.9, 0.5, 0.1]","[u'medium', u'high', u'low']","blue",49,"left","medium","True","False",90,3800,NA
"A3VTOW7WLPTBRR","Thu Jan 30 2020 12:13:47 GMT-0500 (Eastern Standard Time)","Thu Jan 30 2020 12:20:38 GMT-0500 (Eastern Standard Time)","Mozilla/5.0 (Windows NT 6.1; Win64; x64) AppleWebKit/537.36 (KHTML, like Gecko) Chrome/79.0.3945.130 Safari/537.36",78,"[0.9, 0.5, 0.1]","[0.8, 0.4, 0.2]","[u'blue', u'red', u'black']","[u'left', u'middle', u'right']","[0.9, 0.5, 0.1]","[u'medium', u'high', u'low']","blue",49,"left","medium","False","False",322,3750,NA
"A3VTOW7WLPTBRR","Thu Jan 30 2020 12:13:47 GMT-0500 (Eastern Standard Time)","Thu Jan 30 2020 12:20:38 GMT-0500 (Eastern Standard Time)","Mozilla/5.0 (Windows NT 6.1; Win64; x64) AppleWebKit/537.36 (KHTML, like Gecko) Chrome/79.0.3945.130 Safari/537.36",79,"[0.9, 0.5, 0.1]","[0.8, 0.4, 0.2]","[u'blue', u'red', u'black']","[u'left', u'middle', u'right']","[0.9, 0.5, 0.1]","[u'medium', u'high', u'low']","blue",49,"left","medium","False","False",105,3700,NA
"A3VTOW7WLPTBRR","Thu Jan 30 2020 12:13:47 GMT-0500 (Eastern Standard Time)","Thu Jan 30 2020 12:20:38 GMT-0500 (Eastern Standard Time)","Mozilla/5.0 (Windows NT 6.1; Win64; x64) AppleWebKit/537.36 (KHTML, like Gecko) Chrome/79.0.3945.130 Safari/537.36",80,"[0.9, 0.5, 0.1]","[0.8, 0.4, 0.2]","[u'blue', u'red', u'black']","[u'left', u'middle', u'right']","[0.9, 0.5, 0.1]","[u'medium', u'high', u'low']","blue",49,"left","medium","False","False",271,3650,NA
"A3VTOW7WLPTBRR","Thu Jan 30 2020 12:13:47 GMT-0500 (Eastern Standard Time)","Thu Jan 30 2020 12:20:38 GMT-0500 (Eastern Standard Time)","Mozilla/5.0 (Windows NT 6.1; Win64; x64) AppleWebKit/537.36 (KHTML, like Gecko) Chrome/79.0.3945.130 Safari/537.36",81,"[0.9, 0.5, 0.1]","[0.8, 0.4, 0.2]","[u'blue', u'red', u'black']","[u'left', u'middle', u'right']","[0.8, 0.4, 0.2]","[u'medium', u'low', u'high']","black",51,"right","high","True","False",266,3750,NA
"A3VTOW7WLPTBRR","Thu Jan 30 2020 12:13:47 GMT-0500 (Eastern Standard Time)","Thu Jan 30 2020 12:20:38 GMT-0500 (Eastern Standard Time)","Mozilla/5.0 (Windows NT 6.1; Win64; x64) AppleWebKit/537.36 (KHTML, like Gecko) Chrome/79.0.3945.130 Safari/537.36",82,"[0.9, 0.5, 0.1]","[0.8, 0.4, 0.2]","[u'blue', u'red', u'black']","[u'left', u'middle', u'right']","[0.8, 0.4, 0.2]","[u'medium', u'low', u'high']","black",51,"right","high","True","False",263,3850,NA
"A3VTOW7WLPTBRR","Thu Jan 30 2020 12:13:47 GMT-0500 (Eastern Standard Time)","Thu Jan 30 2020 12:20:38 GMT-0500 (Eastern Standard Time)","Mozilla/5.0 (Windows NT 6.1; Win64; x64) AppleWebKit/537.36 (KHTML, like Gecko) Chrome/79.0.3945.130 Safari/537.36",83,"[0.9, 0.5, 0.1]","[0.8, 0.4, 0.2]","[u'blue', u'red', u'black']","[u'left', u'middle', u'right']","[0.8, 0.4, 0.2]","[u'medium', u'low', u'high']","black",51,"right","high","True","False",273,3950,NA
"A3VTOW7WLPTBRR","Thu Jan 30 2020 12:13:47 GMT-0500 (Eastern Standard Time)","Thu Jan 30 2020 12:20:38 GMT-0500 (Eastern Standard Time)","Mozilla/5.0 (Windows NT 6.1; Win64; x64) AppleWebKit/537.36 (KHTML, like Gecko) Chrome/79.0.3945.130 Safari/537.36",84,"[0.9, 0.5, 0.1]","[0.8, 0.4, 0.2]","[u'blue', u'red', u'black']","[u'left', u'middle', u'right']","[0.8, 0.4, 0.2]","[u'medium', u'low', u'high']","black",51,"right","high","True","False",304,4050,NA
"A3VTOW7WLPTBRR","Thu Jan 30 2020 12:13:47 GMT-0500 (Eastern Standard Time)","Thu Jan 30 2020 12:20:38 GMT-0500 (Eastern Standard Time)","Mozilla/5.0 (Windows NT 6.1; Win64; x64) AppleWebKit/537.36 (KHTML, like Gecko) Chrome/79.0.3945.130 Safari/537.36",85,"[0.9, 0.5, 0.1]","[0.8, 0.4, 0.2]","[u'blue', u'red', u'black']","[u'left', u'middle', u'right']","[0.8, 0.4, 0.2]","[u'medium', u'low', u'high']","black",51,"right","high","True","False",313,4150,NA
"A3VTOW7WLPTBRR","Thu Jan 30 2020 12:13:47 GMT-0500 (Eastern Standard Time)","Thu Jan 30 2020 12:20:38 GMT-0500 (Eastern Standard Time)","Mozilla/5.0 (Windows NT 6.1; Win64; x64) AppleWebKit/537.36 (KHTML, like Gecko) Chrome/79.0.3945.130 Safari/537.36",86,"[0.9, 0.5, 0.1]","[0.8, 0.4, 0.2]","[u'blue', u'red', u'black']","[u'left', u'middle', u'right']","[0.8, 0.4, 0.2]","[u'medium', u'low', u'high']","black",51,"right","high","True","False",289,4250,NA
"A3VTOW7WLPTBRR","Thu Jan 30 2020 12:13:47 GMT-0500 (Eastern Standard Time)","Thu Jan 30 2020 12:20:38 GMT-0500 (Eastern Standard Time)","Mozilla/5.0 (Windows NT 6.1; Win64; x64) AppleWebKit/537.36 (KHTML, like Gecko) Chrome/79.0.3945.130 Safari/537.36",87,"[0.9, 0.5, 0.1]","[0.8, 0.4, 0.2]","[u'blue', u'red', u'black']","[u'left', u'middle', u'right']","[0.8, 0.4, 0.2]","[u'medium', u'low', u'high']","black",51,"right","high","True","False",236,4350,NA
"A3VTOW7WLPTBRR","Thu Jan 30 2020 12:13:47 GMT-0500 (Eastern Standard Time)","Thu Jan 30 2020 12:20:38 GMT-0500 (Eastern Standard Time)","Mozilla/5.0 (Windows NT 6.1; Win64; x64) AppleWebKit/537.36 (KHTML, like Gecko) Chrome/79.0.3945.130 Safari/537.36",88,"[0.9, 0.5, 0.1]","[0.8, 0.4, 0.2]","[u'blue', u'red', u'black']","[u'left', u'middle', u'right']","[0.8, 0.4, 0.2]","[u'medium', u'low', u'high']","black",51,"right","high","True","False",308,4450,NA
"A3VTOW7WLPTBRR","Thu Jan 30 2020 12:13:47 GMT-0500 (Eastern Standard Time)","Thu Jan 30 2020 12:20:38 GMT-0500 (Eastern Standard Time)","Mozilla/5.0 (Windows NT 6.1; Win64; x64) AppleWebKit/537.36 (KHTML, like Gecko) Chrome/79.0.3945.130 Safari/537.36",89,"[0.9, 0.5, 0.1]","[0.8, 0.4, 0.2]","[u'blue', u'red', u'black']","[u'left', u'middle', u'right']","[0.8, 0.4, 0.2]","[u'medium', u'low', u'high']","black",51,"right","high","True","True",642,4550,NA
"A3VTOW7WLPTBRR","Thu Jan 30 2020 12:13:47 GMT-0500 (Eastern Standard Time)","Thu Jan 30 2020 12:20:38 GMT-0500 (Eastern Standard Time)","Mozilla/5.0 (Windows NT 6.1; Win64; x64) AppleWebKit/537.36 (KHTML, like Gecko) Chrome/79.0.3945.130 Safari/537.36",90,"[0.9, 0.5, 0.1]","[0.8, 0.4, 0.2]","[u'blue', u'red', u'black']","[u'left', u'middle', u'right']","[0.8, 0.4, 0.2]","[u'high', u'low', u'medium']","black",51,"right","medium","False","False",320,4500,NA
"A3VTOW7WLPTBRR","Thu Jan 30 2020 12:13:47 GMT-0500 (Eastern Standard Time)","Thu Jan 30 2020 12:20:38 GMT-0500 (Eastern Standard Time)","Mozilla/5.0 (Windows NT 6.1; Win64; x64) AppleWebKit/537.36 (KHTML, like Gecko) Chrome/79.0.3945.130 Safari/537.36",91,"[0.9, 0.5, 0.1]","[0.8, 0.4, 0.2]","[u'blue', u'red', u'black']","[u'left', u'middle', u'right']","[0.8, 0.4, 0.2]","[u'high', u'low', u'medium']","black",51,"right","medium","False","False",95,4450,NA
"A3VTOW7WLPTBRR","Thu Jan 30 2020 12:13:47 GMT-0500 (Eastern Standard Time)","Thu Jan 30 2020 12:20:38 GMT-0500 (Eastern Standard Time)","Mozilla/5.0 (Windows NT 6.1; Win64; x64) AppleWebKit/537.36 (KHTML, like Gecko) Chrome/79.0.3945.130 Safari/537.36",92,"[0.9, 0.5, 0.1]","[0.8, 0.4, 0.2]","[u'blue', u'red', u'black']","[u'left', u'middle', u'right']","[0.8, 0.4, 0.2]","[u'high', u'low', u'medium']","black",51,"right","medium","False","False",334,4400,NA
"A3VTOW7WLPTBRR","Thu Jan 30 2020 12:13:47 GMT-0500 (Eastern Standard Time)","Thu Jan 30 2020 12:20:38 GMT-0500 (Eastern Standard Time)","Mozilla/5.0 (Windows NT 6.1; Win64; x64) AppleWebKit/537.36 (KHTML, like Gecko) Chrome/79.0.3945.130 Safari/537.36",93,"[0.9, 0.5, 0.1]","[0.8, 0.4, 0.2]","[u'blue', u'red', u'black']","[u'left', u'middle', u'right']","[0.8, 0.4, 0.2]","[u'high', u'low', u'medium']","black",51,"right","medium","True","False",289,4500,NA
"A3VTOW7WLPTBRR","Thu Jan 30 2020 12:13:47 GMT-0500 (Eastern Standard Time)","Thu Jan 30 2020 12:20:38 GMT-0500 (Eastern Standard Time)","Mozilla/5.0 (Windows NT 6.1; Win64; x64) AppleWebKit/537.36 (KHTML, like Gecko) Chrome/79.0.3945.130 Safari/537.36",94,"[0.9, 0.5, 0.1]","[0.8, 0.4, 0.2]","[u'blue', u'red', u'black']","[u'left', u'middle', u'right']","[0.8, 0.4, 0.2]","[u'high', u'low', u'medium']","black",51,"right","medium","False","False",309,4450,NA
"A3VTOW7WLPTBRR","Thu Jan 30 2020 12:13:47 GMT-0500 (Eastern Standard Time)","Thu Jan 30 2020 12:20:38 GMT-0500 (Eastern Standard Time)","Mozilla/5.0 (Windows NT 6.1; Win64; x64) AppleWebKit/537.36 (KHTML, like Gecko) Chrome/79.0.3945.130 Safari/537.36",95,"[0.9, 0.5, 0.1]","[0.8, 0.4, 0.2]","[u'blue', u'red', u'black']","[u'left', u'middle', u'right']","[0.8, 0.4, 0.2]","[u'high', u'low', u'medium']","black",51,"right","medium","False","False",235,4400,NA
"A3VTOW7WLPTBRR","Thu Jan 30 2020 12:13:47 GMT-0500 (Eastern Standard Time)","Thu Jan 30 2020 12:20:38 GMT-0500 (Eastern Standard Time)","Mozilla/5.0 (Windows NT 6.1; Win64; x64) AppleWebKit/537.36 (KHTML, like Gecko) Chrome/79.0.3945.130 Safari/537.36",96,"[0.9, 0.5, 0.1]","[0.8, 0.4, 0.2]","[u'blue', u'red', u'black']","[u'left', u'middle', u'right']","[0.8, 0.4, 0.2]","[u'high', u'low', u'medium']","red",50,"middle","low","False","False",266,4350,NA
"A3VTOW7WLPTBRR","Thu Jan 30 2020 12:13:47 GMT-0500 (Eastern Standard Time)","Thu Jan 30 2020 12:20:38 GMT-0500 (Eastern Standard Time)","Mozilla/5.0 (Windows NT 6.1; Win64; x64) AppleWebKit/537.36 (KHTML, like Gecko) Chrome/79.0.3945.130 Safari/537.36",97,"[0.9, 0.5, 0.1]","[0.8, 0.4, 0.2]","[u'blue', u'red', u'black']","[u'left', u'middle', u'right']","[0.8, 0.4, 0.2]","[u'high', u'low', u'medium']","blue",49,"left","high","True","False",26,4450,NA
"A3VTOW7WLPTBRR","Thu Jan 30 2020 12:13:47 GMT-0500 (Eastern Standard Time)","Thu Jan 30 2020 12:20:38 GMT-0500 (Eastern Standard Time)","Mozilla/5.0 (Windows NT 6.1; Win64; x64) AppleWebKit/537.36 (KHTML, like Gecko) Chrome/79.0.3945.130 Safari/537.36",98,"[0.9, 0.5, 0.1]","[0.8, 0.4, 0.2]","[u'blue', u'red', u'black']","[u'left', u'middle', u'right']","[0.8, 0.4, 0.2]","[u'high', u'low', u'medium']","blue",49,"left","high","True","False",119,4550,NA
"A3VTOW7WLPTBRR","Thu Jan 30 2020 12:13:47 GMT-0500 (Eastern Standard Time)","Thu Jan 30 2020 12:20:38 GMT-0500 (Eastern Standard Time)","Mozilla/5.0 (Windows NT 6.1; Win64; x64) AppleWebKit/537.36 (KHTML, like Gecko) Chrome/79.0.3945.130 Safari/537.36",99,"[0.9, 0.5, 0.1]","[0.8, 0.4, 0.2]","[u'blue', u'red', u'black']","[u'left', u'middle', u'right']","[0.8, 0.4, 0.2]","[u'high', u'low', u'medium']","blue",49,"left","high","True","False",266,4650,NA
"A3VTOW7WLPTBRR","Thu Jan 30 2020 12:13:47 GMT-0500 (Eastern Standard Time)","Thu Jan 30 2020 12:20:38 GMT-0500 (Eastern Standard Time)","Mozilla/5.0 (Windows NT 6.1; Win64; x64) AppleWebKit/537.36 (KHTML, like Gecko) Chrome/79.0.3945.130 Safari/537.36",100,"[0.9, 0.5, 0.1]","[0.8, 0.4, 0.2]","[u'blue', u'red', u'black']","[u'left', u'middle', u'right']","[0.8, 0.4, 0.2]","[u'high', u'low', u'medium']","blue",49,"left","high","True","False",4,4750,NA
"A3VTOW7WLPTBRR","Thu Jan 30 2020 12:13:47 GMT-0500 (Eastern Standard Time)","Thu Jan 30 2020 12:20:38 GMT-0500 (Eastern Standard Time)","Mozilla/5.0 (Windows NT 6.1; Win64; x64) AppleWebKit/537.36 (KHTML, like Gecko) Chrome/79.0.3945.130 Safari/537.36",101,"[0.9, 0.5, 0.1]","[0.8, 0.4, 0.2]","[u'blue', u'red', u'black']","[u'left', u'middle', u'right']","[0.8, 0.4, 0.2]","[u'high', u'low', u'medium']","blue",49,"left","high","True","False",200,4850,NA
"A3VTOW7WLPTBRR","Thu Jan 30 2020 12:13:47 GMT-0500 (Eastern Standard Time)","Thu Jan 30 2020 12:20:38 GMT-0500 (Eastern Standard Time)","Mozilla/5.0 (Windows NT 6.1; Win64; x64) AppleWebKit/537.36 (KHTML, like Gecko) Chrome/79.0.3945.130 Safari/537.36",102,"[0.9, 0.5, 0.1]","[0.8, 0.4, 0.2]","[u'blue', u'red', u'black']","[u'left', u'middle', u'right']","[0.8, 0.4, 0.2]","[u'high', u'low', u'medium']","blue",49,"left","high","True","False",309,4950,NA
"A3VTOW7WLPTBRR","Thu Jan 30 2020 12:13:47 GMT-0500 (Eastern Standard Time)","Thu Jan 30 2020 12:20:38 GMT-0500 (Eastern Standard Time)","Mozilla/5.0 (Windows NT 6.1; Win64; x64) AppleWebKit/537.36 (KHTML, like Gecko) Chrome/79.0.3945.130 Safari/537.36",103,"[0.9, 0.5, 0.1]","[0.8, 0.4, 0.2]","[u'blue', u'red', u'black']","[u'left', u'middle', u'right']","[0.8, 0.4, 0.2]","[u'high', u'low', u'medium']","blue",49,"left","high","True","False",273,5050,NA
"A3VTOW7WLPTBRR","Thu Jan 30 2020 12:13:47 GMT-0500 (Eastern Standard Time)","Thu Jan 30 2020 12:20:38 GMT-0500 (Eastern Standard Time)","Mozilla/5.0 (Windows NT 6.1; Win64; x64) AppleWebKit/537.36 (KHTML, like Gecko) Chrome/79.0.3945.130 Safari/537.36",104,"[0.9, 0.5, 0.1]","[0.8, 0.4, 0.2]","[u'blue', u'red', u'black']","[u'left', u'middle', u'right']","[0.8, 0.4, 0.2]","[u'high', u'low', u'medium']","blue",49,"left","high","True","False",204,5150,NA
"A3VTOW7WLPTBRR","Thu Jan 30 2020 12:13:47 GMT-0500 (Eastern Standard Time)","Thu Jan 30 2020 12:20:38 GMT-0500 (Eastern Standard Time)","Mozilla/5.0 (Windows NT 6.1; Win64; x64) AppleWebKit/537.36 (KHTML, like Gecko) Chrome/79.0.3945.130 Safari/537.36",105,"[0.9, 0.5, 0.1]","[0.8, 0.4, 0.2]","[u'blue', u'red', u'black']","[u'left', u'middle', u'right']","[0.8, 0.4, 0.2]","[u'high', u'low', u'medium']","blue",49,"left","high","True","True",282,5250,NA
"A3VTOW7WLPTBRR","Thu Jan 30 2020 12:13:47 GMT-0500 (Eastern Standard Time)","Thu Jan 30 2020 12:20:38 GMT-0500 (Eastern Standard Time)","Mozilla/5.0 (Windows NT 6.1; Win64; x64) AppleWebKit/537.36 (KHTML, like Gecko) Chrome/79.0.3945.130 Safari/537.36",106,"[0.9, 0.5, 0.1]","[0.8, 0.4, 0.2]","[u'blue', u'red', u'black']","[u'left', u'middle', u'right']","[0.8, 0.4, 0.2]","[u'medium', u'high', u'low']","blue",49,"left","medium","False","False",124,5200,NA
"A3VTOW7WLPTBRR","Thu Jan 30 2020 12:13:47 GMT-0500 (Eastern Standard Time)","Thu Jan 30 2020 12:20:38 GMT-0500 (Eastern Standard Time)","Mozilla/5.0 (Windows NT 6.1; Win64; x64) AppleWebKit/537.36 (KHTML, like Gecko) Chrome/79.0.3945.130 Safari/537.36",107,"[0.9, 0.5, 0.1]","[0.8, 0.4, 0.2]","[u'blue', u'red', u'black']","[u'left', u'middle', u'right']","[0.8, 0.4, 0.2]","[u'medium', u'high', u'low']","blue",49,"left","medium","True","False",273,5300,NA
"A3VTOW7WLPTBRR","Thu Jan 30 2020 12:13:47 GMT-0500 (Eastern Standard Time)","Thu Jan 30 2020 12:20:38 GMT-0500 (Eastern Standard Time)","Mozilla/5.0 (Windows NT 6.1; Win64; x64) AppleWebKit/537.36 (KHTML, like Gecko) Chrome/79.0.3945.130 Safari/537.36",108,"[0.9, 0.5, 0.1]","[0.8, 0.4, 0.2]","[u'blue', u'red', u'black']","[u'left', u'middle', u'right']","[0.8, 0.4, 0.2]","[u'medium', u'high', u'low']","blue",49,"left","medium","False","False",220,5250,NA
"A3VTOW7WLPTBRR","Thu Jan 30 2020 12:13:47 GMT-0500 (Eastern Standard Time)","Thu Jan 30 2020 12:20:38 GMT-0500 (Eastern Standard Time)","Mozilla/5.0 (Windows NT 6.1; Win64; x64) AppleWebKit/537.36 (KHTML, like Gecko) Chrome/79.0.3945.130 Safari/537.36",109,"[0.9, 0.5, 0.1]","[0.8, 0.4, 0.2]","[u'blue', u'red', u'black']","[u'left', u'middle', u'right']","[0.8, 0.4, 0.2]","[u'medium', u'high', u'low']","blue",49,"left","medium","True","False",130,5350,NA
"A3VTOW7WLPTBRR","Thu Jan 30 2020 12:13:47 GMT-0500 (Eastern Standard Time)","Thu Jan 30 2020 12:20:38 GMT-0500 (Eastern Standard Time)","Mozilla/5.0 (Windows NT 6.1; Win64; x64) AppleWebKit/537.36 (KHTML, like Gecko) Chrome/79.0.3945.130 Safari/537.36",110,"[0.9, 0.5, 0.1]","[0.8, 0.4, 0.2]","[u'blue', u'red', u'black']","[u'left', u'middle', u'right']","[0.8, 0.4, 0.2]","[u'medium', u'high', u'low']","blue",49,"left","medium","True","False",272,5450,NA
"A3VTOW7WLPTBRR","Thu Jan 30 2020 12:13:47 GMT-0500 (Eastern Standard Time)","Thu Jan 30 2020 12:20:38 GMT-0500 (Eastern Standard Time)","Mozilla/5.0 (Windows NT 6.1; Win64; x64) AppleWebKit/537.36 (KHTML, like Gecko) Chrome/79.0.3945.130 Safari/537.36",111,"[0.9, 0.5, 0.1]","[0.8, 0.4, 0.2]","[u'blue', u'red', u'black']","[u'left', u'middle', u'right']","[0.8, 0.4, 0.2]","[u'medium', u'high', u'low']","blue",49,"left","medium","True","False",317,5550,NA
"A3VTOW7WLPTBRR","Thu Jan 30 2020 12:13:47 GMT-0500 (Eastern Standard Time)","Thu Jan 30 2020 12:20:38 GMT-0500 (Eastern Standard Time)","Mozilla/5.0 (Windows NT 6.1; Win64; x64) AppleWebKit/537.36 (KHTML, like Gecko) Chrome/79.0.3945.130 Safari/537.36",112,"[0.9, 0.5, 0.1]","[0.8, 0.4, 0.2]","[u'blue', u'red', u'black']","[u'left', u'middle', u'right']","[0.8, 0.4, 0.2]","[u'medium', u'high', u'low']","blue",49,"left","medium","True","False",345,5650,NA
"A3VTOW7WLPTBRR","Thu Jan 30 2020 12:13:47 GMT-0500 (Eastern Standard Time)","Thu Jan 30 2020 12:20:38 GMT-0500 (Eastern Standard Time)","Mozilla/5.0 (Windows NT 6.1; Win64; x64) AppleWebKit/537.36 (KHTML, like Gecko) Chrome/79.0.3945.130 Safari/537.36",113,"[0.9, 0.5, 0.1]","[0.8, 0.4, 0.2]","[u'blue', u'red', u'black']","[u'left', u'middle', u'right']","[0.8, 0.4, 0.2]","[u'medium', u'high', u'low']","blue",49,"left","medium","False","False",272,5600,NA
"A3VTOW7WLPTBRR","Thu Jan 30 2020 12:13:47 GMT-0500 (Eastern Standard Time)","Thu Jan 30 2020 12:20:38 GMT-0500 (Eastern Standard Time)","Mozilla/5.0 (Windows NT 6.1; Win64; x64) AppleWebKit/537.36 (KHTML, like Gecko) Chrome/79.0.3945.130 Safari/537.36",114,"[0.9, 0.5, 0.1]","[0.8, 0.4, 0.2]","[u'blue', u'red', u'black']","[u'left', u'middle', u'right']","[0.8, 0.4, 0.2]","[u'medium', u'high', u'low']","blue",49,"left","medium","False","False",450,5550,NA
"A3VTOW7WLPTBRR","Thu Jan 30 2020 12:13:47 GMT-0500 (Eastern Standard Time)","Thu Jan 30 2020 12:20:38 GMT-0500 (Eastern Standard Time)","Mozilla/5.0 (Windows NT 6.1; Win64; x64) AppleWebKit/537.36 (KHTML, like Gecko) Chrome/79.0.3945.130 Safari/537.36",115,"[0.9, 0.5, 0.1]","[0.8, 0.4, 0.2]","[u'blue', u'red', u'black']","[u'left', u'middle', u'right']","[0.8, 0.4, 0.2]","[u'medium', u'high', u'low']","blue",49,"left","medium","False","False",254,5500,NA
"A3VTOW7WLPTBRR","Thu Jan 30 2020 12:13:47 GMT-0500 (Eastern Standard Time)","Thu Jan 30 2020 12:20:38 GMT-0500 (Eastern Standard Time)","Mozilla/5.0 (Windows NT 6.1; Win64; x64) AppleWebKit/537.36 (KHTML, like Gecko) Chrome/79.0.3945.130 Safari/537.36",116,"[0.9, 0.5, 0.1]","[0.8, 0.4, 0.2]","[u'blue', u'red', u'black']","[u'left', u'middle', u'right']","[0.8, 0.4, 0.2]","[u'medium', u'high', u'low']","red",50,"middle","high","False","False",321,5450,NA
"A3VTOW7WLPTBRR","Thu Jan 30 2020 12:13:47 GMT-0500 (Eastern Standard Time)","Thu Jan 30 2020 12:20:38 GMT-0500 (Eastern Standard Time)","Mozilla/5.0 (Windows NT 6.1; Win64; x64) AppleWebKit/537.36 (KHTML, like Gecko) Chrome/79.0.3945.130 Safari/537.36",117,"[0.9, 0.5, 0.1]","[0.8, 0.4, 0.2]","[u'blue', u'red', u'black']","[u'left', u'middle', u'right']","[0.8, 0.4, 0.2]","[u'medium', u'high', u'low']","black",51,"right","low","False","False",314,5400,NA
"A3VTOW7WLPTBRR","Thu Jan 30 2020 12:13:47 GMT-0500 (Eastern Standard Time)","Thu Jan 30 2020 12:20:38 GMT-0500 (Eastern Standard Time)","Mozilla/5.0 (Windows NT 6.1; Win64; x64) AppleWebKit/537.36 (KHTML, like Gecko) Chrome/79.0.3945.130 Safari/537.36",118,"[0.9, 0.5, 0.1]","[0.8, 0.4, 0.2]","[u'blue', u'red', u'black']","[u'left', u'middle', u'right']","[0.8, 0.4, 0.2]","[u'medium', u'high', u'low']","black",51,"right","low","False","False",251,5350,NA
"A3VTOW7WLPTBRR","Thu Jan 30 2020 12:13:47 GMT-0500 (Eastern Standard Time)","Thu Jan 30 2020 12:20:38 GMT-0500 (Eastern Standard Time)","Mozilla/5.0 (Windows NT 6.1; Win64; x64) AppleWebKit/537.36 (KHTML, like Gecko) Chrome/79.0.3945.130 Safari/537.36",119,"[0.9, 0.5, 0.1]","[0.8, 0.4, 0.2]","[u'blue', u'red', u'black']","[u'left', u'middle', u'right']","[0.8, 0.4, 0.2]","[u'medium', u'high', u'low']","blue",49,"left","medium","True","False",128,5450,NA
"A3VTOW7WLPTBRR","Thu Jan 30 2020 12:13:47 GMT-0500 (Eastern Standard Time)","Thu Jan 30 2020 12:20:38 GMT-0500 (Eastern Standard Time)","Mozilla/5.0 (Windows NT 6.1; Win64; x64) AppleWebKit/537.36 (KHTML, like Gecko) Chrome/79.0.3945.130 Safari/537.36",120,"[0.9, 0.5, 0.1]","[0.8, 0.4, 0.2]","[u'blue', u'red', u'black']","[u'left', u'middle', u'right']","[0.8, 0.4, 0.2]","[u'medium', u'high', u'low']","blue",49,"left","medium","False","False",286,5400,NA
"A3VTOW7WLPTBRR","Thu Jan 30 2020 12:13:47 GMT-0500 (Eastern Standard Time)","Thu Jan 30 2020 12:20:38 GMT-0500 (Eastern Standard Time)","Mozilla/5.0 (Windows NT 6.1; Win64; x64) AppleWebKit/537.36 (KHTML, like Gecko) Chrome/79.0.3945.130 Safari/537.36",121,"[0.9, 0.5, 0.1]","[0.8, 0.4, 0.2]","[u'blue', u'red', u'black']","[u'left', u'middle', u'right']","[0.8, 0.4, 0.2]","[u'high', u'low', u'medium']","black",51,"right","medium","True","False",343,5500,NA
"A3VTOW7WLPTBRR","Thu Jan 30 2020 12:13:47 GMT-0500 (Eastern Standard Time)","Thu Jan 30 2020 12:20:38 GMT-0500 (Eastern Standard Time)","Mozilla/5.0 (Windows NT 6.1; Win64; x64) AppleWebKit/537.36 (KHTML, like Gecko) Chrome/79.0.3945.130 Safari/537.36",122,"[0.9, 0.5, 0.1]","[0.8, 0.4, 0.2]","[u'blue', u'red', u'black']","[u'left', u'middle', u'right']","[0.8, 0.4, 0.2]","[u'high', u'low', u'medium']","black",51,"right","medium","False","False",293,5450,NA
"A3VTOW7WLPTBRR","Thu Jan 30 2020 12:13:47 GMT-0500 (Eastern Standard Time)","Thu Jan 30 2020 12:20:38 GMT-0500 (Eastern Standard Time)","Mozilla/5.0 (Windows NT 6.1; Win64; x64) AppleWebKit/537.36 (KHTML, like Gecko) Chrome/79.0.3945.130 Safari/537.36",123,"[0.9, 0.5, 0.1]","[0.8, 0.4, 0.2]","[u'blue', u'red', u'black']","[u'left', u'middle', u'right']","[0.8, 0.4, 0.2]","[u'high', u'low', u'medium']","blue",49,"left","high","True","False",251,5550,NA
"A3VTOW7WLPTBRR","Thu Jan 30 2020 12:13:47 GMT-0500 (Eastern Standard Time)","Thu Jan 30 2020 12:20:38 GMT-0500 (Eastern Standard Time)","Mozilla/5.0 (Windows NT 6.1; Win64; x64) AppleWebKit/537.36 (KHTML, like Gecko) Chrome/79.0.3945.130 Safari/537.36",124,"[0.9, 0.5, 0.1]","[0.8, 0.4, 0.2]","[u'blue', u'red', u'black']","[u'left', u'middle', u'right']","[0.8, 0.4, 0.2]","[u'high', u'low', u'medium']","blue",49,"left","high","True","False",310,5650,NA
"A3VTOW7WLPTBRR","Thu Jan 30 2020 12:13:47 GMT-0500 (Eastern Standard Time)","Thu Jan 30 2020 12:20:38 GMT-0500 (Eastern Standard Time)","Mozilla/5.0 (Windows NT 6.1; Win64; x64) AppleWebKit/537.36 (KHTML, like Gecko) Chrome/79.0.3945.130 Safari/537.36",125,"[0.9, 0.5, 0.1]","[0.8, 0.4, 0.2]","[u'blue', u'red', u'black']","[u'left', u'middle', u'right']","[0.8, 0.4, 0.2]","[u'high', u'low', u'medium']","blue",49,"left","high","True","False",164,5750,NA
"A3VTOW7WLPTBRR","Thu Jan 30 2020 12:13:47 GMT-0500 (Eastern Standard Time)","Thu Jan 30 2020 12:20:38 GMT-0500 (Eastern Standard Time)","Mozilla/5.0 (Windows NT 6.1; Win64; x64) AppleWebKit/537.36 (KHTML, like Gecko) Chrome/79.0.3945.130 Safari/537.36",126,"[0.9, 0.5, 0.1]","[0.8, 0.4, 0.2]","[u'blue', u'red', u'black']","[u'left', u'middle', u'right']","[0.8, 0.4, 0.2]","[u'high', u'low', u'medium']","blue",49,"left","high","True","False",260,5850,NA
"A3VTOW7WLPTBRR","Thu Jan 30 2020 12:13:47 GMT-0500 (Eastern Standard Time)","Thu Jan 30 2020 12:20:38 GMT-0500 (Eastern Standard Time)","Mozilla/5.0 (Windows NT 6.1; Win64; x64) AppleWebKit/537.36 (KHTML, like Gecko) Chrome/79.0.3945.130 Safari/537.36",127,"[0.9, 0.5, 0.1]","[0.8, 0.4, 0.2]","[u'blue', u'red', u'black']","[u'left', u'middle', u'right']","[0.8, 0.4, 0.2]","[u'high', u'low', u'medium']","blue",49,"left","high","True","False",201,5950,NA
"A3VTOW7WLPTBRR","Thu Jan 30 2020 12:13:47 GMT-0500 (Eastern Standard Time)","Thu Jan 30 2020 12:20:38 GMT-0500 (Eastern Standard Time)","Mozilla/5.0 (Windows NT 6.1; Win64; x64) AppleWebKit/537.36 (KHTML, like Gecko) Chrome/79.0.3945.130 Safari/537.36",128,"[0.9, 0.5, 0.1]","[0.8, 0.4, 0.2]","[u'blue', u'red', u'black']","[u'left', u'middle', u'right']","[0.8, 0.4, 0.2]","[u'high', u'low', u'medium']","blue",49,"left","high","True","False",252,6050,NA
"A3VTOW7WLPTBRR","Thu Jan 30 2020 12:13:47 GMT-0500 (Eastern Standard Time)","Thu Jan 30 2020 12:20:38 GMT-0500 (Eastern Standard Time)","Mozilla/5.0 (Windows NT 6.1; Win64; x64) AppleWebKit/537.36 (KHTML, like Gecko) Chrome/79.0.3945.130 Safari/537.36",129,"[0.9, 0.5, 0.1]","[0.8, 0.4, 0.2]","[u'blue', u'red', u'black']","[u'left', u'middle', u'right']","[0.8, 0.4, 0.2]","[u'high', u'low', u'medium']","blue",49,"left","high","True","False",264,6150,NA
"A3VTOW7WLPTBRR","Thu Jan 30 2020 12:13:47 GMT-0500 (Eastern Standard Time)","Thu Jan 30 2020 12:20:38 GMT-0500 (Eastern Standard Time)","Mozilla/5.0 (Windows NT 6.1; Win64; x64) AppleWebKit/537.36 (KHTML, like Gecko) Chrome/79.0.3945.130 Safari/537.36",130,"[0.9, 0.5, 0.1]","[0.8, 0.4, 0.2]","[u'blue', u'red', u'black']","[u'left', u'middle', u'right']","[0.8, 0.4, 0.2]","[u'high', u'low', u'medium']","blue",49,"left","high","True","False",152,6250,NA
"A3VTOW7WLPTBRR","Thu Jan 30 2020 12:13:47 GMT-0500 (Eastern Standard Time)","Thu Jan 30 2020 12:20:38 GMT-0500 (Eastern Standard Time)","Mozilla/5.0 (Windows NT 6.1; Win64; x64) AppleWebKit/537.36 (KHTML, like Gecko) Chrome/79.0.3945.130 Safari/537.36",131,"[0.9, 0.5, 0.1]","[0.8, 0.4, 0.2]","[u'blue', u'red', u'black']","[u'left', u'middle', u'right']","[0.8, 0.4, 0.2]","[u'high', u'low', u'medium']","blue",49,"left","high","True","True",240,6350,NA
"A3VTOW7WLPTBRR","Thu Jan 30 2020 12:13:47 GMT-0500 (Eastern Standard Time)","Thu Jan 30 2020 12:20:38 GMT-0500 (Eastern Standard Time)","Mozilla/5.0 (Windows NT 6.1; Win64; x64) AppleWebKit/537.36 (KHTML, like Gecko) Chrome/79.0.3945.130 Safari/537.36",132,"[0.9, 0.5, 0.1]","[0.8, 0.4, 0.2]","[u'blue', u'red', u'black']","[u'left', u'middle', u'right']","[0.8, 0.4, 0.2]","[u'medium', u'low', u'high']","blue",49,"left","medium","True","False",269,6450,NA
"A3VTOW7WLPTBRR","Thu Jan 30 2020 12:13:47 GMT-0500 (Eastern Standard Time)","Thu Jan 30 2020 12:20:38 GMT-0500 (Eastern Standard Time)","Mozilla/5.0 (Windows NT 6.1; Win64; x64) AppleWebKit/537.36 (KHTML, like Gecko) Chrome/79.0.3945.130 Safari/537.36",133,"[0.9, 0.5, 0.1]","[0.8, 0.4, 0.2]","[u'blue', u'red', u'black']","[u'left', u'middle', u'right']","[0.8, 0.4, 0.2]","[u'medium', u'low', u'high']","blue",49,"left","medium","True","False",298,6550,NA
"A3VTOW7WLPTBRR","Thu Jan 30 2020 12:13:47 GMT-0500 (Eastern Standard Time)","Thu Jan 30 2020 12:20:38 GMT-0500 (Eastern Standard Time)","Mozilla/5.0 (Windows NT 6.1; Win64; x64) AppleWebKit/537.36 (KHTML, like Gecko) Chrome/79.0.3945.130 Safari/537.36",134,"[0.9, 0.5, 0.1]","[0.8, 0.4, 0.2]","[u'blue', u'red', u'black']","[u'left', u'middle', u'right']","[0.8, 0.4, 0.2]","[u'medium', u'low', u'high']","blue",49,"left","medium","True","False",103,6650,NA
"A3VTOW7WLPTBRR","Thu Jan 30 2020 12:13:47 GMT-0500 (Eastern Standard Time)","Thu Jan 30 2020 12:20:38 GMT-0500 (Eastern Standard Time)","Mozilla/5.0 (Windows NT 6.1; Win64; x64) AppleWebKit/537.36 (KHTML, like Gecko) Chrome/79.0.3945.130 Safari/537.36",135,"[0.9, 0.5, 0.1]","[0.8, 0.4, 0.2]","[u'blue', u'red', u'black']","[u'left', u'middle', u'right']","[0.8, 0.4, 0.2]","[u'medium', u'low', u'high']","blue",49,"left","medium","True","False",80,6750,NA
"A3VTOW7WLPTBRR","Thu Jan 30 2020 12:13:47 GMT-0500 (Eastern Standard Time)","Thu Jan 30 2020 12:20:38 GMT-0500 (Eastern Standard Time)","Mozilla/5.0 (Windows NT 6.1; Win64; x64) AppleWebKit/537.36 (KHTML, like Gecko) Chrome/79.0.3945.130 Safari/537.36",136,"[0.9, 0.5, 0.1]","[0.8, 0.4, 0.2]","[u'blue', u'red', u'black']","[u'left', u'middle', u'right']","[0.8, 0.4, 0.2]","[u'medium', u'low', u'high']","blue",49,"left","medium","False","False",284,6700,NA
"A3VTOW7WLPTBRR","Thu Jan 30 2020 12:13:47 GMT-0500 (Eastern Standard Time)","Thu Jan 30 2020 12:20:38 GMT-0500 (Eastern Standard Time)","Mozilla/5.0 (Windows NT 6.1; Win64; x64) AppleWebKit/537.36 (KHTML, like Gecko) Chrome/79.0.3945.130 Safari/537.36",137,"[0.9, 0.5, 0.1]","[0.8, 0.4, 0.2]","[u'blue', u'red', u'black']","[u'left', u'middle', u'right']","[0.8, 0.4, 0.2]","[u'medium', u'low', u'high']","red",50,"middle","low","False","False",262,6650,NA
"A3VTOW7WLPTBRR","Thu Jan 30 2020 12:13:47 GMT-0500 (Eastern Standard Time)","Thu Jan 30 2020 12:20:38 GMT-0500 (Eastern Standard Time)","Mozilla/5.0 (Windows NT 6.1; Win64; x64) AppleWebKit/537.36 (KHTML, like Gecko) Chrome/79.0.3945.130 Safari/537.36",138,"[0.9, 0.5, 0.1]","[0.8, 0.4, 0.2]","[u'blue', u'red', u'black']","[u'left', u'middle', u'right']","[0.8, 0.4, 0.2]","[u'medium', u'low', u'high']","black",51,"right","high","True","False",261,6750,NA
"A3VTOW7WLPTBRR","Thu Jan 30 2020 12:13:47 GMT-0500 (Eastern Standard Time)","Thu Jan 30 2020 12:20:38 GMT-0500 (Eastern Standard Time)","Mozilla/5.0 (Windows NT 6.1; Win64; x64) AppleWebKit/537.36 (KHTML, like Gecko) Chrome/79.0.3945.130 Safari/537.36",139,"[0.9, 0.5, 0.1]","[0.8, 0.4, 0.2]","[u'blue', u'red', u'black']","[u'left', u'middle', u'right']","[0.8, 0.4, 0.2]","[u'medium', u'low', u'high']","black",51,"right","high","True","False",259,6850,NA
"A3VTOW7WLPTBRR","Thu Jan 30 2020 12:13:47 GMT-0500 (Eastern Standard Time)","Thu Jan 30 2020 12:20:38 GMT-0500 (Eastern Standard Time)","Mozilla/5.0 (Windows NT 6.1; Win64; x64) AppleWebKit/537.36 (KHTML, like Gecko) Chrome/79.0.3945.130 Safari/537.36",140,"[0.9, 0.5, 0.1]","[0.8, 0.4, 0.2]","[u'blue', u'red', u'black']","[u'left', u'middle', u'right']","[0.8, 0.4, 0.2]","[u'medium', u'low', u'high']","black",51,"right","high","True","False",259,6950,NA
"A3VTOW7WLPTBRR","Thu Jan 30 2020 12:13:47 GMT-0500 (Eastern Standard Time)","Thu Jan 30 2020 12:20:38 GMT-0500 (Eastern Standard Time)","Mozilla/5.0 (Windows NT 6.1; Win64; x64) AppleWebKit/537.36 (KHTML, like Gecko) Chrome/79.0.3945.130 Safari/537.36",141,"[0.9, 0.5, 0.1]","[0.8, 0.4, 0.2]","[u'blue', u'red', u'black']","[u'left', u'middle', u'right']","[0.8, 0.4, 0.2]","[u'medium', u'low', u'high']","black",51,"right","high","False","False",270,6900,NA
"A3VTOW7WLPTBRR","Thu Jan 30 2020 12:13:47 GMT-0500 (Eastern Standard Time)","Thu Jan 30 2020 12:20:38 GMT-0500 (Eastern Standard Time)","Mozilla/5.0 (Windows NT 6.1; Win64; x64) AppleWebKit/537.36 (KHTML, like Gecko) Chrome/79.0.3945.130 Safari/537.36",142,"[0.9, 0.5, 0.1]","[0.8, 0.4, 0.2]","[u'blue', u'red', u'black']","[u'left', u'middle', u'right']","[0.8, 0.4, 0.2]","[u'medium', u'low', u'high']","blue",49,"left","medium","False","False",112,6850,NA
"A3VTOW7WLPTBRR","Thu Jan 30 2020 12:13:47 GMT-0500 (Eastern Standard Time)","Thu Jan 30 2020 12:20:38 GMT-0500 (Eastern Standard Time)","Mozilla/5.0 (Windows NT 6.1; Win64; x64) AppleWebKit/537.36 (KHTML, like Gecko) Chrome/79.0.3945.130 Safari/537.36",143,"[0.9, 0.5, 0.1]","[0.8, 0.4, 0.2]","[u'blue', u'red', u'black']","[u'left', u'middle', u'right']","[0.8, 0.4, 0.2]","[u'medium', u'low', u'high']","blue",49,"left","medium","False","False",466,6800,NA
"A3VTOW7WLPTBRR","Thu Jan 30 2020 12:13:47 GMT-0500 (Eastern Standard Time)","Thu Jan 30 2020 12:20:38 GMT-0500 (Eastern Standard Time)","Mozilla/5.0 (Windows NT 6.1; Win64; x64) AppleWebKit/537.36 (KHTML, like Gecko) Chrome/79.0.3945.130 Safari/537.36",144,"[0.9, 0.5, 0.1]","[0.8, 0.4, 0.2]","[u'blue', u'red', u'black']","[u'left', u'middle', u'right']","[0.8, 0.4, 0.2]","[u'medium', u'low', u'high']","black",51,"right","high","True","False",125,6900,NA
"A3VTOW7WLPTBRR","Thu Jan 30 2020 12:13:47 GMT-0500 (Eastern Standard Time)","Thu Jan 30 2020 12:20:38 GMT-0500 (Eastern Standard Time)","Mozilla/5.0 (Windows NT 6.1; Win64; x64) AppleWebKit/537.36 (KHTML, like Gecko) Chrome/79.0.3945.130 Safari/537.36",145,"[0.9, 0.5, 0.1]","[0.8, 0.4, 0.2]","[u'blue', u'red', u'black']","[u'left', u'middle', u'right']","[0.8, 0.4, 0.2]","[u'medium', u'low', u'high']","black",51,"right","high","True","False",322,7000,NA
"A3VTOW7WLPTBRR","Thu Jan 30 2020 12:13:47 GMT-0500 (Eastern Standard Time)","Thu Jan 30 2020 12:20:38 GMT-0500 (Eastern Standard Time)","Mozilla/5.0 (Windows NT 6.1; Win64; x64) AppleWebKit/537.36 (KHTML, like Gecko) Chrome/79.0.3945.130 Safari/537.36",146,"[0.9, 0.5, 0.1]","[0.8, 0.4, 0.2]","[u'blue', u'red', u'black']","[u'left', u'middle', u'right']","[0.8, 0.4, 0.2]","[u'medium', u'low', u'high']","black",51,"right","high","False","False",1527,6950,NA
"A3VTOW7WLPTBRR","Thu Jan 30 2020 12:13:47 GMT-0500 (Eastern Standard Time)","Thu Jan 30 2020 12:20:38 GMT-0500 (Eastern Standard Time)","Mozilla/5.0 (Windows NT 6.1; Win64; x64) AppleWebKit/537.36 (KHTML, like Gecko) Chrome/79.0.3945.130 Safari/537.36",147,"[0.9, 0.5, 0.1]","[0.8, 0.4, 0.2]","[u'blue', u'red', u'black']","[u'left', u'middle', u'right']","[0.8, 0.4, 0.2]","[u'medium', u'low', u'high']","black",51,"right","high","True","False",320,7050,NA
"A3VTOW7WLPTBRR","Thu Jan 30 2020 12:13:47 GMT-0500 (Eastern Standard Time)","Thu Jan 30 2020 12:20:38 GMT-0500 (Eastern Standard Time)","Mozilla/5.0 (Windows NT 6.1; Win64; x64) AppleWebKit/537.36 (KHTML, like Gecko) Chrome/79.0.3945.130 Safari/537.36",148,"[0.9, 0.5, 0.1]","[0.8, 0.4, 0.2]","[u'blue', u'red', u'black']","[u'left', u'middle', u'right']","[0.8, 0.4, 0.2]","[u'medium', u'low', u'high']","black",51,"right","high","True","False",275,7150,NA
"A3VTOW7WLPTBRR","Thu Jan 30 2020 12:13:47 GMT-0500 (Eastern Standard Time)","Thu Jan 30 2020 12:20:38 GMT-0500 (Eastern Standard Time)","Mozilla/5.0 (Windows NT 6.1; Win64; x64) AppleWebKit/537.36 (KHTML, like Gecko) Chrome/79.0.3945.130 Safari/537.36",149,"[0.9, 0.5, 0.1]","[0.8, 0.4, 0.2]","[u'blue', u'red', u'black']","[u'left', u'middle', u'right']","[0.8, 0.4, 0.2]","[u'medium', u'low', u'high']","black",51,"right","high","True","False",257,7250,NA
"A3VTOW7WLPTBRR","Thu Jan 30 2020 12:13:47 GMT-0500 (Eastern Standard Time)","Thu Jan 30 2020 12:20:38 GMT-0500 (Eastern Standard Time)","Mozilla/5.0 (Windows NT 6.1; Win64; x64) AppleWebKit/537.36 (KHTML, like Gecko) Chrome/79.0.3945.130 Safari/537.36",150,"[0.9, 0.5, 0.1]","[0.8, 0.4, 0.2]","[u'blue', u'red', u'black']","[u'left', u'middle', u'right']","[0.8, 0.4, 0.2]","[u'medium', u'low', u'high']","black",51,"right","high","True","False",228,7350,NA
"A3VTOW7WLPTBRR","Thu Jan 30 2020 12:13:47 GMT-0500 (Eastern Standard Time)","Thu Jan 30 2020 12:20:38 GMT-0500 (Eastern Standard Time)","Mozilla/5.0 (Windows NT 6.1; Win64; x64) AppleWebKit/537.36 (KHTML, like Gecko) Chrome/79.0.3945.130 Safari/537.36",151,"[0.9, 0.5, 0.1]","[0.8, 0.4, 0.2]","[u'blue', u'red', u'black']","[u'left', u'middle', u'right']","[0.8, 0.4, 0.2]","[u'medium', u'low', u'high']","black",51,"right","high","False","False",194,7300,NA
"A3VTOW7WLPTBRR","Thu Jan 30 2020 12:13:47 GMT-0500 (Eastern Standard Time)","Thu Jan 30 2020 12:20:38 GMT-0500 (Eastern Standard Time)","Mozilla/5.0 (Windows NT 6.1; Win64; x64) AppleWebKit/537.36 (KHTML, like Gecko) Chrome/79.0.3945.130 Safari/537.36",152,"[0.9, 0.5, 0.1]","[0.8, 0.4, 0.2]","[u'blue', u'red', u'black']","[u'left', u'middle', u'right']","[0.8, 0.4, 0.2]","[u'medium', u'low', u'high']","blue",49,"left","medium","True","False",169,7400,NA
"A3VTOW7WLPTBRR","Thu Jan 30 2020 12:13:47 GMT-0500 (Eastern Standard Time)","Thu Jan 30 2020 12:20:38 GMT-0500 (Eastern Standard Time)","Mozilla/5.0 (Windows NT 6.1; Win64; x64) AppleWebKit/537.36 (KHTML, like Gecko) Chrome/79.0.3945.130 Safari/537.36",153,"[0.9, 0.5, 0.1]","[0.8, 0.4, 0.2]","[u'blue', u'red', u'black']","[u'left', u'middle', u'right']","[0.8, 0.4, 0.2]","[u'medium', u'low', u'high']","blue",49,"left","medium","False","False",104,7350,NA
"A3VTOW7WLPTBRR","Thu Jan 30 2020 12:13:47 GMT-0500 (Eastern Standard Time)","Thu Jan 30 2020 12:20:38 GMT-0500 (Eastern Standard Time)","Mozilla/5.0 (Windows NT 6.1; Win64; x64) AppleWebKit/537.36 (KHTML, like Gecko) Chrome/79.0.3945.130 Safari/537.36",154,"[0.9, 0.5, 0.1]","[0.8, 0.4, 0.2]","[u'blue', u'red', u'black']","[u'left', u'middle', u'right']","[0.8, 0.4, 0.2]","[u'medium', u'low', u'high']","red",50,"middle","low","True","False",783,7450,NA
"A3VTOW7WLPTBRR","Thu Jan 30 2020 12:13:47 GMT-0500 (Eastern Standard Time)","Thu Jan 30 2020 12:20:38 GMT-0500 (Eastern Standard Time)","Mozilla/5.0 (Windows NT 6.1; Win64; x64) AppleWebKit/537.36 (KHTML, like Gecko) Chrome/79.0.3945.130 Safari/537.36",155,"[0.9, 0.5, 0.1]","[0.8, 0.4, 0.2]","[u'blue', u'red', u'black']","[u'left', u'middle', u'right']","[0.8, 0.4, 0.2]","[u'medium', u'low', u'high']","red",50,"middle","low","False","False",277,7400,NA
"A3VTOW7WLPTBRR","Thu Jan 30 2020 12:13:47 GMT-0500 (Eastern Standard Time)","Thu Jan 30 2020 12:20:38 GMT-0500 (Eastern Standard Time)","Mozilla/5.0 (Windows NT 6.1; Win64; x64) AppleWebKit/537.36 (KHTML, like Gecko) Chrome/79.0.3945.130 Safari/537.36",156,"[0.9, 0.5, 0.1]","[0.8, 0.4, 0.2]","[u'blue', u'red', u'black']","[u'left', u'middle', u'right']","[0.8, 0.4, 0.2]","[u'medium', u'low', u'high']","black",51,"right","high","True","False",12,7500,NA
"A3VTOW7WLPTBRR","Thu Jan 30 2020 12:13:47 GMT-0500 (Eastern Standard Time)","Thu Jan 30 2020 12:20:38 GMT-0500 (Eastern Standard Time)","Mozilla/5.0 (Windows NT 6.1; Win64; x64) AppleWebKit/537.36 (KHTML, like Gecko) Chrome/79.0.3945.130 Safari/537.36",157,"[0.9, 0.5, 0.1]","[0.8, 0.4, 0.2]","[u'blue', u'red', u'black']","[u'left', u'middle', u'right']","[0.8, 0.4, 0.2]","[u'medium', u'low', u'high']","black",51,"right","high","True","False",244,7600,NA
"A3VTOW7WLPTBRR","Thu Jan 30 2020 12:13:47 GMT-0500 (Eastern Standard Time)","Thu Jan 30 2020 12:20:38 GMT-0500 (Eastern Standard Time)","Mozilla/5.0 (Windows NT 6.1; Win64; x64) AppleWebKit/537.36 (KHTML, like Gecko) Chrome/79.0.3945.130 Safari/537.36",158,"[0.9, 0.5, 0.1]","[0.8, 0.4, 0.2]","[u'blue', u'red', u'black']","[u'left', u'middle', u'right']","[0.8, 0.4, 0.2]","[u'medium', u'low', u'high']","black",51,"right","high","True","False",264,7700,NA
"A3VTOW7WLPTBRR","Thu Jan 30 2020 12:13:47 GMT-0500 (Eastern Standard Time)","Thu Jan 30 2020 12:20:38 GMT-0500 (Eastern Standard Time)","Mozilla/5.0 (Windows NT 6.1; Win64; x64) AppleWebKit/537.36 (KHTML, like Gecko) Chrome/79.0.3945.130 Safari/537.36",159,"[0.9, 0.5, 0.1]","[0.8, 0.4, 0.2]","[u'blue', u'red', u'black']","[u'left', u'middle', u'right']","[0.8, 0.4, 0.2]","[u'medium', u'low', u'high']","black",51,"right","high","True","False",6,7800,NA
"A3VTOW7WLPTBRR","Thu Jan 30 2020 12:13:47 GMT-0500 (Eastern Standard Time)","Thu Jan 30 2020 12:20:38 GMT-0500 (Eastern Standard Time)","Mozilla/5.0 (Windows NT 6.1; Win64; x64) AppleWebKit/537.36 (KHTML, like Gecko) Chrome/79.0.3945.130 Safari/537.36",160,"[0.9, 0.5, 0.1]","[0.8, 0.4, 0.2]","[u'blue', u'red', u'black']","[u'left', u'middle', u'right']","[0.8, 0.4, 0.2]","[u'medium', u'low', u'high']","black",51,"right","high","True","False",395,7900,NA
