"src_subject_id","start_time","end_time","browser","index","first_half_probabilities","second_half_probabilities","deck_color","deck_position","deck_probabilities","deck_contingencies","response_color","key_press","response_position","response_probability","reward_type","trial_type","rt","reward_tally","exclusion_reason"
"AUAN582MLI96N","Thu Jan 30 2020 11:05:02 GMT-0600 (Central Standard Time)","Thu Jan 30 2020 11:22:50 GMT-0600 (Central Standard Time)","Mozilla/5.0 (Windows NT 10.0; Win64; x64) AppleWebKit/537.36 (KHTML, like Gecko) Chrome/79.0.3945.130 Safari/537.36",1,"[0.9, 0.5, 0.1]","[0.8, 0.4, 0.2]","[u'blue', u'black', u'red']","[u'left', u'middle', u'right']","[0.9, 0.5, 0.1]","[u'low', u'high', u'medium']","red",51,"right","medium","False","False",1268,-50,NA
"AUAN582MLI96N","Thu Jan 30 2020 11:05:02 GMT-0600 (Central Standard Time)","Thu Jan 30 2020 11:22:50 GMT-0600 (Central Standard Time)","Mozilla/5.0 (Windows NT 10.0; Win64; x64) AppleWebKit/537.36 (KHTML, like Gecko) Chrome/79.0.3945.130 Safari/537.36",2,"[0.9, 0.5, 0.1]","[0.8, 0.4, 0.2]","[u'blue', u'black', u'red']","[u'left', u'middle', u'right']","[0.9, 0.5, 0.1]","[u'low', u'high', u'medium']","red",51,"right","medium","True","False",329,50,NA
"AUAN582MLI96N","Thu Jan 30 2020 11:05:02 GMT-0600 (Central Standard Time)","Thu Jan 30 2020 11:22:50 GMT-0600 (Central Standard Time)","Mozilla/5.0 (Windows NT 10.0; Win64; x64) AppleWebKit/537.36 (KHTML, like Gecko) Chrome/79.0.3945.130 Safari/537.36",3,"[0.9, 0.5, 0.1]","[0.8, 0.4, 0.2]","[u'blue', u'black', u'red']","[u'left', u'middle', u'right']","[0.9, 0.5, 0.1]","[u'low', u'high', u'medium']","blue",49,"left","low","False","False",249,0,NA
"AUAN582MLI96N","Thu Jan 30 2020 11:05:02 GMT-0600 (Central Standard Time)","Thu Jan 30 2020 11:22:50 GMT-0600 (Central Standard Time)","Mozilla/5.0 (Windows NT 10.0; Win64; x64) AppleWebKit/537.36 (KHTML, like Gecko) Chrome/79.0.3945.130 Safari/537.36",4,"[0.9, 0.5, 0.1]","[0.8, 0.4, 0.2]","[u'blue', u'black', u'red']","[u'left', u'middle', u'right']","[0.9, 0.5, 0.1]","[u'low', u'high', u'medium']","blue",49,"left","low","False","False",250,-50,NA
"AUAN582MLI96N","Thu Jan 30 2020 11:05:02 GMT-0600 (Central Standard Time)","Thu Jan 30 2020 11:22:50 GMT-0600 (Central Standard Time)","Mozilla/5.0 (Windows NT 10.0; Win64; x64) AppleWebKit/537.36 (KHTML, like Gecko) Chrome/79.0.3945.130 Safari/537.36",5,"[0.9, 0.5, 0.1]","[0.8, 0.4, 0.2]","[u'blue', u'black', u'red']","[u'left', u'middle', u'right']","[0.9, 0.5, 0.1]","[u'low', u'high', u'medium']","blue",49,"left","low","False","False",254,-100,NA
"AUAN582MLI96N","Thu Jan 30 2020 11:05:02 GMT-0600 (Central Standard Time)","Thu Jan 30 2020 11:22:50 GMT-0600 (Central Standard Time)","Mozilla/5.0 (Windows NT 10.0; Win64; x64) AppleWebKit/537.36 (KHTML, like Gecko) Chrome/79.0.3945.130 Safari/537.36",6,"[0.9, 0.5, 0.1]","[0.8, 0.4, 0.2]","[u'blue', u'black', u'red']","[u'left', u'middle', u'right']","[0.9, 0.5, 0.1]","[u'low', u'high', u'medium']","red",51,"right","medium","True","False",112,0,NA
"AUAN582MLI96N","Thu Jan 30 2020 11:05:02 GMT-0600 (Central Standard Time)","Thu Jan 30 2020 11:22:50 GMT-0600 (Central Standard Time)","Mozilla/5.0 (Windows NT 10.0; Win64; x64) AppleWebKit/537.36 (KHTML, like Gecko) Chrome/79.0.3945.130 Safari/537.36",7,"[0.9, 0.5, 0.1]","[0.8, 0.4, 0.2]","[u'blue', u'black', u'red']","[u'left', u'middle', u'right']","[0.9, 0.5, 0.1]","[u'low', u'high', u'medium']","red",51,"right","medium","True","False",185,100,NA
"AUAN582MLI96N","Thu Jan 30 2020 11:05:02 GMT-0600 (Central Standard Time)","Thu Jan 30 2020 11:22:50 GMT-0600 (Central Standard Time)","Mozilla/5.0 (Windows NT 10.0; Win64; x64) AppleWebKit/537.36 (KHTML, like Gecko) Chrome/79.0.3945.130 Safari/537.36",8,"[0.9, 0.5, 0.1]","[0.8, 0.4, 0.2]","[u'blue', u'black', u'red']","[u'left', u'middle', u'right']","[0.9, 0.5, 0.1]","[u'low', u'high', u'medium']","red",51,"right","medium","False","False",311,50,NA
"AUAN582MLI96N","Thu Jan 30 2020 11:05:02 GMT-0600 (Central Standard Time)","Thu Jan 30 2020 11:22:50 GMT-0600 (Central Standard Time)","Mozilla/5.0 (Windows NT 10.0; Win64; x64) AppleWebKit/537.36 (KHTML, like Gecko) Chrome/79.0.3945.130 Safari/537.36",9,"[0.9, 0.5, 0.1]","[0.8, 0.4, 0.2]","[u'blue', u'black', u'red']","[u'left', u'middle', u'right']","[0.9, 0.5, 0.1]","[u'low', u'high', u'medium']","black",50,"middle","high","True","False",290,150,NA
"AUAN582MLI96N","Thu Jan 30 2020 11:05:02 GMT-0600 (Central Standard Time)","Thu Jan 30 2020 11:22:50 GMT-0600 (Central Standard Time)","Mozilla/5.0 (Windows NT 10.0; Win64; x64) AppleWebKit/537.36 (KHTML, like Gecko) Chrome/79.0.3945.130 Safari/537.36",10,"[0.9, 0.5, 0.1]","[0.8, 0.4, 0.2]","[u'blue', u'black', u'red']","[u'left', u'middle', u'right']","[0.9, 0.5, 0.1]","[u'low', u'high', u'medium']","black",50,"middle","high","True","False",265,250,NA
"AUAN582MLI96N","Thu Jan 30 2020 11:05:02 GMT-0600 (Central Standard Time)","Thu Jan 30 2020 11:22:50 GMT-0600 (Central Standard Time)","Mozilla/5.0 (Windows NT 10.0; Win64; x64) AppleWebKit/537.36 (KHTML, like Gecko) Chrome/79.0.3945.130 Safari/537.36",11,"[0.9, 0.5, 0.1]","[0.8, 0.4, 0.2]","[u'blue', u'black', u'red']","[u'left', u'middle', u'right']","[0.9, 0.5, 0.1]","[u'low', u'high', u'medium']","black",50,"middle","high","True","False",359,350,NA
"AUAN582MLI96N","Thu Jan 30 2020 11:05:02 GMT-0600 (Central Standard Time)","Thu Jan 30 2020 11:22:50 GMT-0600 (Central Standard Time)","Mozilla/5.0 (Windows NT 10.0; Win64; x64) AppleWebKit/537.36 (KHTML, like Gecko) Chrome/79.0.3945.130 Safari/537.36",12,"[0.9, 0.5, 0.1]","[0.8, 0.4, 0.2]","[u'blue', u'black', u'red']","[u'left', u'middle', u'right']","[0.9, 0.5, 0.1]","[u'low', u'high', u'medium']","black",50,"middle","high","True","False",405,450,NA
"AUAN582MLI96N","Thu Jan 30 2020 11:05:02 GMT-0600 (Central Standard Time)","Thu Jan 30 2020 11:22:50 GMT-0600 (Central Standard Time)","Mozilla/5.0 (Windows NT 10.0; Win64; x64) AppleWebKit/537.36 (KHTML, like Gecko) Chrome/79.0.3945.130 Safari/537.36",13,"[0.9, 0.5, 0.1]","[0.8, 0.4, 0.2]","[u'blue', u'black', u'red']","[u'left', u'middle', u'right']","[0.9, 0.5, 0.1]","[u'low', u'high', u'medium']","black",50,"middle","high","True","False",303,550,NA
"AUAN582MLI96N","Thu Jan 30 2020 11:05:02 GMT-0600 (Central Standard Time)","Thu Jan 30 2020 11:22:50 GMT-0600 (Central Standard Time)","Mozilla/5.0 (Windows NT 10.0; Win64; x64) AppleWebKit/537.36 (KHTML, like Gecko) Chrome/79.0.3945.130 Safari/537.36",14,"[0.9, 0.5, 0.1]","[0.8, 0.4, 0.2]","[u'blue', u'black', u'red']","[u'left', u'middle', u'right']","[0.9, 0.5, 0.1]","[u'low', u'high', u'medium']","black",50,"middle","high","False","False",282,500,NA
"AUAN582MLI96N","Thu Jan 30 2020 11:05:02 GMT-0600 (Central Standard Time)","Thu Jan 30 2020 11:22:50 GMT-0600 (Central Standard Time)","Mozilla/5.0 (Windows NT 10.0; Win64; x64) AppleWebKit/537.36 (KHTML, like Gecko) Chrome/79.0.3945.130 Safari/537.36",15,"[0.9, 0.5, 0.1]","[0.8, 0.4, 0.2]","[u'blue', u'black', u'red']","[u'left', u'middle', u'right']","[0.9, 0.5, 0.1]","[u'low', u'high', u'medium']","blue",49,"left","low","False","False",325,450,NA
"AUAN582MLI96N","Thu Jan 30 2020 11:05:02 GMT-0600 (Central Standard Time)","Thu Jan 30 2020 11:22:50 GMT-0600 (Central Standard Time)","Mozilla/5.0 (Windows NT 10.0; Win64; x64) AppleWebKit/537.36 (KHTML, like Gecko) Chrome/79.0.3945.130 Safari/537.36",16,"[0.9, 0.5, 0.1]","[0.8, 0.4, 0.2]","[u'blue', u'black', u'red']","[u'left', u'middle', u'right']","[0.9, 0.5, 0.1]","[u'low', u'high', u'medium']","red",51,"right","medium","False","False",1073,400,NA
"AUAN582MLI96N","Thu Jan 30 2020 11:05:02 GMT-0600 (Central Standard Time)","Thu Jan 30 2020 11:22:50 GMT-0600 (Central Standard Time)","Mozilla/5.0 (Windows NT 10.0; Win64; x64) AppleWebKit/537.36 (KHTML, like Gecko) Chrome/79.0.3945.130 Safari/537.36",17,"[0.9, 0.5, 0.1]","[0.8, 0.4, 0.2]","[u'blue', u'black', u'red']","[u'left', u'middle', u'right']","[0.9, 0.5, 0.1]","[u'low', u'high', u'medium']","black",50,"middle","high","True","False",151,500,NA
"AUAN582MLI96N","Thu Jan 30 2020 11:05:02 GMT-0600 (Central Standard Time)","Thu Jan 30 2020 11:22:50 GMT-0600 (Central Standard Time)","Mozilla/5.0 (Windows NT 10.0; Win64; x64) AppleWebKit/537.36 (KHTML, like Gecko) Chrome/79.0.3945.130 Safari/537.36",18,"[0.9, 0.5, 0.1]","[0.8, 0.4, 0.2]","[u'blue', u'black', u'red']","[u'left', u'middle', u'right']","[0.9, 0.5, 0.1]","[u'low', u'high', u'medium']","black",50,"middle","high","True","False",190,600,NA
"AUAN582MLI96N","Thu Jan 30 2020 11:05:02 GMT-0600 (Central Standard Time)","Thu Jan 30 2020 11:22:50 GMT-0600 (Central Standard Time)","Mozilla/5.0 (Windows NT 10.0; Win64; x64) AppleWebKit/537.36 (KHTML, like Gecko) Chrome/79.0.3945.130 Safari/537.36",19,"[0.9, 0.5, 0.1]","[0.8, 0.4, 0.2]","[u'blue', u'black', u'red']","[u'left', u'middle', u'right']","[0.9, 0.5, 0.1]","[u'low', u'high', u'medium']","blue",49,"left","low","False","False",230,550,NA
"AUAN582MLI96N","Thu Jan 30 2020 11:05:02 GMT-0600 (Central Standard Time)","Thu Jan 30 2020 11:22:50 GMT-0600 (Central Standard Time)","Mozilla/5.0 (Windows NT 10.0; Win64; x64) AppleWebKit/537.36 (KHTML, like Gecko) Chrome/79.0.3945.130 Safari/537.36",20,"[0.9, 0.5, 0.1]","[0.8, 0.4, 0.2]","[u'blue', u'black', u'red']","[u'left', u'middle', u'right']","[0.9, 0.5, 0.1]","[u'low', u'high', u'medium']","black",50,"middle","high","True","False",208,650,NA
"AUAN582MLI96N","Thu Jan 30 2020 11:05:02 GMT-0600 (Central Standard Time)","Thu Jan 30 2020 11:22:50 GMT-0600 (Central Standard Time)","Mozilla/5.0 (Windows NT 10.0; Win64; x64) AppleWebKit/537.36 (KHTML, like Gecko) Chrome/79.0.3945.130 Safari/537.36",21,"[0.9, 0.5, 0.1]","[0.8, 0.4, 0.2]","[u'blue', u'black', u'red']","[u'left', u'middle', u'right']","[0.9, 0.5, 0.1]","[u'low', u'high', u'medium']","black",50,"middle","high","True","False",218,750,NA
"AUAN582MLI96N","Thu Jan 30 2020 11:05:02 GMT-0600 (Central Standard Time)","Thu Jan 30 2020 11:22:50 GMT-0600 (Central Standard Time)","Mozilla/5.0 (Windows NT 10.0; Win64; x64) AppleWebKit/537.36 (KHTML, like Gecko) Chrome/79.0.3945.130 Safari/537.36",22,"[0.9, 0.5, 0.1]","[0.8, 0.4, 0.2]","[u'blue', u'black', u'red']","[u'left', u'middle', u'right']","[0.9, 0.5, 0.1]","[u'low', u'high', u'medium']","black",50,"middle","high","True","False",146,850,NA
"AUAN582MLI96N","Thu Jan 30 2020 11:05:02 GMT-0600 (Central Standard Time)","Thu Jan 30 2020 11:22:50 GMT-0600 (Central Standard Time)","Mozilla/5.0 (Windows NT 10.0; Win64; x64) AppleWebKit/537.36 (KHTML, like Gecko) Chrome/79.0.3945.130 Safari/537.36",23,"[0.9, 0.5, 0.1]","[0.8, 0.4, 0.2]","[u'blue', u'black', u'red']","[u'left', u'middle', u'right']","[0.9, 0.5, 0.1]","[u'low', u'high', u'medium']","red",51,"right","medium","False","False",220,800,NA
"AUAN582MLI96N","Thu Jan 30 2020 11:05:02 GMT-0600 (Central Standard Time)","Thu Jan 30 2020 11:22:50 GMT-0600 (Central Standard Time)","Mozilla/5.0 (Windows NT 10.0; Win64; x64) AppleWebKit/537.36 (KHTML, like Gecko) Chrome/79.0.3945.130 Safari/537.36",24,"[0.9, 0.5, 0.1]","[0.8, 0.4, 0.2]","[u'blue', u'black', u'red']","[u'left', u'middle', u'right']","[0.9, 0.5, 0.1]","[u'low', u'high', u'medium']","black",50,"middle","high","True","False",170,900,NA
"AUAN582MLI96N","Thu Jan 30 2020 11:05:02 GMT-0600 (Central Standard Time)","Thu Jan 30 2020 11:22:50 GMT-0600 (Central Standard Time)","Mozilla/5.0 (Windows NT 10.0; Win64; x64) AppleWebKit/537.36 (KHTML, like Gecko) Chrome/79.0.3945.130 Safari/537.36",25,"[0.9, 0.5, 0.1]","[0.8, 0.4, 0.2]","[u'blue', u'black', u'red']","[u'left', u'middle', u'right']","[0.9, 0.5, 0.1]","[u'low', u'high', u'medium']","black",50,"middle","high","True","False",326,1000,NA
"AUAN582MLI96N","Thu Jan 30 2020 11:05:02 GMT-0600 (Central Standard Time)","Thu Jan 30 2020 11:22:50 GMT-0600 (Central Standard Time)","Mozilla/5.0 (Windows NT 10.0; Win64; x64) AppleWebKit/537.36 (KHTML, like Gecko) Chrome/79.0.3945.130 Safari/537.36",26,"[0.9, 0.5, 0.1]","[0.8, 0.4, 0.2]","[u'blue', u'black', u'red']","[u'left', u'middle', u'right']","[0.9, 0.5, 0.1]","[u'low', u'high', u'medium']","black",50,"middle","high","True","False",236,1100,NA
"AUAN582MLI96N","Thu Jan 30 2020 11:05:02 GMT-0600 (Central Standard Time)","Thu Jan 30 2020 11:22:50 GMT-0600 (Central Standard Time)","Mozilla/5.0 (Windows NT 10.0; Win64; x64) AppleWebKit/537.36 (KHTML, like Gecko) Chrome/79.0.3945.130 Safari/537.36",27,"[0.9, 0.5, 0.1]","[0.8, 0.4, 0.2]","[u'blue', u'black', u'red']","[u'left', u'middle', u'right']","[0.9, 0.5, 0.1]","[u'low', u'high', u'medium']","black",50,"middle","high","False","False",205,1050,NA
"AUAN582MLI96N","Thu Jan 30 2020 11:05:02 GMT-0600 (Central Standard Time)","Thu Jan 30 2020 11:22:50 GMT-0600 (Central Standard Time)","Mozilla/5.0 (Windows NT 10.0; Win64; x64) AppleWebKit/537.36 (KHTML, like Gecko) Chrome/79.0.3945.130 Safari/537.36",28,"[0.9, 0.5, 0.1]","[0.8, 0.4, 0.2]","[u'blue', u'black', u'red']","[u'left', u'middle', u'right']","[0.9, 0.5, 0.1]","[u'low', u'high', u'medium']","blue",49,"left","low","False","False",138,1000,NA
"AUAN582MLI96N","Thu Jan 30 2020 11:05:02 GMT-0600 (Central Standard Time)","Thu Jan 30 2020 11:22:50 GMT-0600 (Central Standard Time)","Mozilla/5.0 (Windows NT 10.0; Win64; x64) AppleWebKit/537.36 (KHTML, like Gecko) Chrome/79.0.3945.130 Safari/537.36",29,"[0.9, 0.5, 0.1]","[0.8, 0.4, 0.2]","[u'blue', u'black', u'red']","[u'left', u'middle', u'right']","[0.9, 0.5, 0.1]","[u'low', u'high', u'medium']","red",51,"right","medium","True","False",95,1100,NA
"AUAN582MLI96N","Thu Jan 30 2020 11:05:02 GMT-0600 (Central Standard Time)","Thu Jan 30 2020 11:22:50 GMT-0600 (Central Standard Time)","Mozilla/5.0 (Windows NT 10.0; Win64; x64) AppleWebKit/537.36 (KHTML, like Gecko) Chrome/79.0.3945.130 Safari/537.36",30,"[0.9, 0.5, 0.1]","[0.8, 0.4, 0.2]","[u'blue', u'black', u'red']","[u'left', u'middle', u'right']","[0.9, 0.5, 0.1]","[u'low', u'high', u'medium']","red",51,"right","medium","True","False",244,1200,NA
"AUAN582MLI96N","Thu Jan 30 2020 11:05:02 GMT-0600 (Central Standard Time)","Thu Jan 30 2020 11:22:50 GMT-0600 (Central Standard Time)","Mozilla/5.0 (Windows NT 10.0; Win64; x64) AppleWebKit/537.36 (KHTML, like Gecko) Chrome/79.0.3945.130 Safari/537.36",31,"[0.9, 0.5, 0.1]","[0.8, 0.4, 0.2]","[u'blue', u'black', u'red']","[u'left', u'middle', u'right']","[0.9, 0.5, 0.1]","[u'low', u'high', u'medium']","red",51,"right","medium","True","False",237,1300,NA
"AUAN582MLI96N","Thu Jan 30 2020 11:05:02 GMT-0600 (Central Standard Time)","Thu Jan 30 2020 11:22:50 GMT-0600 (Central Standard Time)","Mozilla/5.0 (Windows NT 10.0; Win64; x64) AppleWebKit/537.36 (KHTML, like Gecko) Chrome/79.0.3945.130 Safari/537.36",32,"[0.9, 0.5, 0.1]","[0.8, 0.4, 0.2]","[u'blue', u'black', u'red']","[u'left', u'middle', u'right']","[0.9, 0.5, 0.1]","[u'low', u'high', u'medium']","red",51,"right","medium","True","False",365,1400,NA
"AUAN582MLI96N","Thu Jan 30 2020 11:05:02 GMT-0600 (Central Standard Time)","Thu Jan 30 2020 11:22:50 GMT-0600 (Central Standard Time)","Mozilla/5.0 (Windows NT 10.0; Win64; x64) AppleWebKit/537.36 (KHTML, like Gecko) Chrome/79.0.3945.130 Safari/537.36",33,"[0.9, 0.5, 0.1]","[0.8, 0.4, 0.2]","[u'blue', u'black', u'red']","[u'left', u'middle', u'right']","[0.9, 0.5, 0.1]","[u'low', u'high', u'medium']","red",51,"right","medium","False","False",252,1350,NA
"AUAN582MLI96N","Thu Jan 30 2020 11:05:02 GMT-0600 (Central Standard Time)","Thu Jan 30 2020 11:22:50 GMT-0600 (Central Standard Time)","Mozilla/5.0 (Windows NT 10.0; Win64; x64) AppleWebKit/537.36 (KHTML, like Gecko) Chrome/79.0.3945.130 Safari/537.36",34,"[0.9, 0.5, 0.1]","[0.8, 0.4, 0.2]","[u'blue', u'black', u'red']","[u'left', u'middle', u'right']","[0.9, 0.5, 0.1]","[u'low', u'high', u'medium']","blue",49,"left","low","False","False",265,1300,NA
"AUAN582MLI96N","Thu Jan 30 2020 11:05:02 GMT-0600 (Central Standard Time)","Thu Jan 30 2020 11:22:50 GMT-0600 (Central Standard Time)","Mozilla/5.0 (Windows NT 10.0; Win64; x64) AppleWebKit/537.36 (KHTML, like Gecko) Chrome/79.0.3945.130 Safari/537.36",35,"[0.9, 0.5, 0.1]","[0.8, 0.4, 0.2]","[u'blue', u'black', u'red']","[u'left', u'middle', u'right']","[0.9, 0.5, 0.1]","[u'low', u'high', u'medium']","red",51,"right","medium","False","False",72,1250,NA
"AUAN582MLI96N","Thu Jan 30 2020 11:05:02 GMT-0600 (Central Standard Time)","Thu Jan 30 2020 11:22:50 GMT-0600 (Central Standard Time)","Mozilla/5.0 (Windows NT 10.0; Win64; x64) AppleWebKit/537.36 (KHTML, like Gecko) Chrome/79.0.3945.130 Safari/537.36",36,"[0.9, 0.5, 0.1]","[0.8, 0.4, 0.2]","[u'blue', u'black', u'red']","[u'left', u'middle', u'right']","[0.9, 0.5, 0.1]","[u'low', u'high', u'medium']","black",50,"middle","high","True","False",156,1350,NA
"AUAN582MLI96N","Thu Jan 30 2020 11:05:02 GMT-0600 (Central Standard Time)","Thu Jan 30 2020 11:22:50 GMT-0600 (Central Standard Time)","Mozilla/5.0 (Windows NT 10.0; Win64; x64) AppleWebKit/537.36 (KHTML, like Gecko) Chrome/79.0.3945.130 Safari/537.36",37,"[0.9, 0.5, 0.1]","[0.8, 0.4, 0.2]","[u'blue', u'black', u'red']","[u'left', u'middle', u'right']","[0.9, 0.5, 0.1]","[u'low', u'high', u'medium']","black",50,"middle","high","True","False",576,1450,NA
"AUAN582MLI96N","Thu Jan 30 2020 11:05:02 GMT-0600 (Central Standard Time)","Thu Jan 30 2020 11:22:50 GMT-0600 (Central Standard Time)","Mozilla/5.0 (Windows NT 10.0; Win64; x64) AppleWebKit/537.36 (KHTML, like Gecko) Chrome/79.0.3945.130 Safari/537.36",38,"[0.9, 0.5, 0.1]","[0.8, 0.4, 0.2]","[u'blue', u'black', u'red']","[u'left', u'middle', u'right']","[0.9, 0.5, 0.1]","[u'low', u'high', u'medium']","black",50,"middle","high","False","False",121,1400,NA
"AUAN582MLI96N","Thu Jan 30 2020 11:05:02 GMT-0600 (Central Standard Time)","Thu Jan 30 2020 11:22:50 GMT-0600 (Central Standard Time)","Mozilla/5.0 (Windows NT 10.0; Win64; x64) AppleWebKit/537.36 (KHTML, like Gecko) Chrome/79.0.3945.130 Safari/537.36",39,"[0.9, 0.5, 0.1]","[0.8, 0.4, 0.2]","[u'blue', u'black', u'red']","[u'left', u'middle', u'right']","[0.9, 0.5, 0.1]","[u'low', u'high', u'medium']","blue",49,"left","low","False","False",219,1350,NA
"AUAN582MLI96N","Thu Jan 30 2020 11:05:02 GMT-0600 (Central Standard Time)","Thu Jan 30 2020 11:22:50 GMT-0600 (Central Standard Time)","Mozilla/5.0 (Windows NT 10.0; Win64; x64) AppleWebKit/537.36 (KHTML, like Gecko) Chrome/79.0.3945.130 Safari/537.36",40,"[0.9, 0.5, 0.1]","[0.8, 0.4, 0.2]","[u'blue', u'black', u'red']","[u'left', u'middle', u'right']","[0.9, 0.5, 0.1]","[u'low', u'high', u'medium']","red",51,"right","medium","False","False",393,1300,NA
"AUAN582MLI96N","Thu Jan 30 2020 11:05:02 GMT-0600 (Central Standard Time)","Thu Jan 30 2020 11:22:50 GMT-0600 (Central Standard Time)","Mozilla/5.0 (Windows NT 10.0; Win64; x64) AppleWebKit/537.36 (KHTML, like Gecko) Chrome/79.0.3945.130 Safari/537.36",41,"[0.9, 0.5, 0.1]","[0.8, 0.4, 0.2]","[u'blue', u'black', u'red']","[u'left', u'middle', u'right']","[0.9, 0.5, 0.1]","[u'high', u'medium', u'low']","blue",49,"left","high","True","False",444,1400,NA
"AUAN582MLI96N","Thu Jan 30 2020 11:05:02 GMT-0600 (Central Standard Time)","Thu Jan 30 2020 11:22:50 GMT-0600 (Central Standard Time)","Mozilla/5.0 (Windows NT 10.0; Win64; x64) AppleWebKit/537.36 (KHTML, like Gecko) Chrome/79.0.3945.130 Safari/537.36",42,"[0.9, 0.5, 0.1]","[0.8, 0.4, 0.2]","[u'blue', u'black', u'red']","[u'left', u'middle', u'right']","[0.9, 0.5, 0.1]","[u'high', u'medium', u'low']","blue",49,"left","high","True","False",129,1500,NA
"AUAN582MLI96N","Thu Jan 30 2020 11:05:02 GMT-0600 (Central Standard Time)","Thu Jan 30 2020 11:22:50 GMT-0600 (Central Standard Time)","Mozilla/5.0 (Windows NT 10.0; Win64; x64) AppleWebKit/537.36 (KHTML, like Gecko) Chrome/79.0.3945.130 Safari/537.36",43,"[0.9, 0.5, 0.1]","[0.8, 0.4, 0.2]","[u'blue', u'black', u'red']","[u'left', u'middle', u'right']","[0.9, 0.5, 0.1]","[u'high', u'medium', u'low']","blue",49,"left","high","True","False",275,1600,NA
"AUAN582MLI96N","Thu Jan 30 2020 11:05:02 GMT-0600 (Central Standard Time)","Thu Jan 30 2020 11:22:50 GMT-0600 (Central Standard Time)","Mozilla/5.0 (Windows NT 10.0; Win64; x64) AppleWebKit/537.36 (KHTML, like Gecko) Chrome/79.0.3945.130 Safari/537.36",44,"[0.9, 0.5, 0.1]","[0.8, 0.4, 0.2]","[u'blue', u'black', u'red']","[u'left', u'middle', u'right']","[0.9, 0.5, 0.1]","[u'high', u'medium', u'low']","blue",49,"left","high","True","False",270,1700,NA
"AUAN582MLI96N","Thu Jan 30 2020 11:05:02 GMT-0600 (Central Standard Time)","Thu Jan 30 2020 11:22:50 GMT-0600 (Central Standard Time)","Mozilla/5.0 (Windows NT 10.0; Win64; x64) AppleWebKit/537.36 (KHTML, like Gecko) Chrome/79.0.3945.130 Safari/537.36",45,"[0.9, 0.5, 0.1]","[0.8, 0.4, 0.2]","[u'blue', u'black', u'red']","[u'left', u'middle', u'right']","[0.9, 0.5, 0.1]","[u'high', u'medium', u'low']","blue",49,"left","high","True","False",146,1800,NA
"AUAN582MLI96N","Thu Jan 30 2020 11:05:02 GMT-0600 (Central Standard Time)","Thu Jan 30 2020 11:22:50 GMT-0600 (Central Standard Time)","Mozilla/5.0 (Windows NT 10.0; Win64; x64) AppleWebKit/537.36 (KHTML, like Gecko) Chrome/79.0.3945.130 Safari/537.36",46,"[0.9, 0.5, 0.1]","[0.8, 0.4, 0.2]","[u'blue', u'black', u'red']","[u'left', u'middle', u'right']","[0.9, 0.5, 0.1]","[u'high', u'medium', u'low']","blue",49,"left","high","True","False",222,1900,NA
"AUAN582MLI96N","Thu Jan 30 2020 11:05:02 GMT-0600 (Central Standard Time)","Thu Jan 30 2020 11:22:50 GMT-0600 (Central Standard Time)","Mozilla/5.0 (Windows NT 10.0; Win64; x64) AppleWebKit/537.36 (KHTML, like Gecko) Chrome/79.0.3945.130 Safari/537.36",47,"[0.9, 0.5, 0.1]","[0.8, 0.4, 0.2]","[u'blue', u'black', u'red']","[u'left', u'middle', u'right']","[0.9, 0.5, 0.1]","[u'high', u'medium', u'low']","blue",49,"left","high","True","False",135,2000,NA
"AUAN582MLI96N","Thu Jan 30 2020 11:05:02 GMT-0600 (Central Standard Time)","Thu Jan 30 2020 11:22:50 GMT-0600 (Central Standard Time)","Mozilla/5.0 (Windows NT 10.0; Win64; x64) AppleWebKit/537.36 (KHTML, like Gecko) Chrome/79.0.3945.130 Safari/537.36",48,"[0.9, 0.5, 0.1]","[0.8, 0.4, 0.2]","[u'blue', u'black', u'red']","[u'left', u'middle', u'right']","[0.9, 0.5, 0.1]","[u'high', u'medium', u'low']","blue",49,"left","high","True","False",113,2100,NA
"AUAN582MLI96N","Thu Jan 30 2020 11:05:02 GMT-0600 (Central Standard Time)","Thu Jan 30 2020 11:22:50 GMT-0600 (Central Standard Time)","Mozilla/5.0 (Windows NT 10.0; Win64; x64) AppleWebKit/537.36 (KHTML, like Gecko) Chrome/79.0.3945.130 Safari/537.36",49,"[0.9, 0.5, 0.1]","[0.8, 0.4, 0.2]","[u'blue', u'black', u'red']","[u'left', u'middle', u'right']","[0.9, 0.5, 0.1]","[u'high', u'medium', u'low']","blue",49,"left","high","True","True",246,2200,NA
"AUAN582MLI96N","Thu Jan 30 2020 11:05:02 GMT-0600 (Central Standard Time)","Thu Jan 30 2020 11:22:50 GMT-0600 (Central Standard Time)","Mozilla/5.0 (Windows NT 10.0; Win64; x64) AppleWebKit/537.36 (KHTML, like Gecko) Chrome/79.0.3945.130 Safari/537.36",50,"[0.9, 0.5, 0.1]","[0.8, 0.4, 0.2]","[u'blue', u'black', u'red']","[u'left', u'middle', u'right']","[0.9, 0.5, 0.1]","[u'medium', u'high', u'low']","blue",49,"left","medium","True","False",129,2300,NA
"AUAN582MLI96N","Thu Jan 30 2020 11:05:02 GMT-0600 (Central Standard Time)","Thu Jan 30 2020 11:22:50 GMT-0600 (Central Standard Time)","Mozilla/5.0 (Windows NT 10.0; Win64; x64) AppleWebKit/537.36 (KHTML, like Gecko) Chrome/79.0.3945.130 Safari/537.36",51,"[0.9, 0.5, 0.1]","[0.8, 0.4, 0.2]","[u'blue', u'black', u'red']","[u'left', u'middle', u'right']","[0.9, 0.5, 0.1]","[u'medium', u'high', u'low']","blue",49,"left","medium","False","False",103,2250,NA
"AUAN582MLI96N","Thu Jan 30 2020 11:05:02 GMT-0600 (Central Standard Time)","Thu Jan 30 2020 11:22:50 GMT-0600 (Central Standard Time)","Mozilla/5.0 (Windows NT 10.0; Win64; x64) AppleWebKit/537.36 (KHTML, like Gecko) Chrome/79.0.3945.130 Safari/537.36",52,"[0.9, 0.5, 0.1]","[0.8, 0.4, 0.2]","[u'blue', u'black', u'red']","[u'left', u'middle', u'right']","[0.9, 0.5, 0.1]","[u'medium', u'high', u'low']","blue",49,"left","medium","True","False",213,2350,NA
"AUAN582MLI96N","Thu Jan 30 2020 11:05:02 GMT-0600 (Central Standard Time)","Thu Jan 30 2020 11:22:50 GMT-0600 (Central Standard Time)","Mozilla/5.0 (Windows NT 10.0; Win64; x64) AppleWebKit/537.36 (KHTML, like Gecko) Chrome/79.0.3945.130 Safari/537.36",53,"[0.9, 0.5, 0.1]","[0.8, 0.4, 0.2]","[u'blue', u'black', u'red']","[u'left', u'middle', u'right']","[0.9, 0.5, 0.1]","[u'medium', u'high', u'low']","blue",49,"left","medium","True","False",243,2450,NA
"AUAN582MLI96N","Thu Jan 30 2020 11:05:02 GMT-0600 (Central Standard Time)","Thu Jan 30 2020 11:22:50 GMT-0600 (Central Standard Time)","Mozilla/5.0 (Windows NT 10.0; Win64; x64) AppleWebKit/537.36 (KHTML, like Gecko) Chrome/79.0.3945.130 Safari/537.36",54,"[0.9, 0.5, 0.1]","[0.8, 0.4, 0.2]","[u'blue', u'black', u'red']","[u'left', u'middle', u'right']","[0.9, 0.5, 0.1]","[u'medium', u'high', u'low']","blue",49,"left","medium","False","False",147,2400,NA
"AUAN582MLI96N","Thu Jan 30 2020 11:05:02 GMT-0600 (Central Standard Time)","Thu Jan 30 2020 11:22:50 GMT-0600 (Central Standard Time)","Mozilla/5.0 (Windows NT 10.0; Win64; x64) AppleWebKit/537.36 (KHTML, like Gecko) Chrome/79.0.3945.130 Safari/537.36",55,"[0.9, 0.5, 0.1]","[0.8, 0.4, 0.2]","[u'blue', u'black', u'red']","[u'left', u'middle', u'right']","[0.9, 0.5, 0.1]","[u'medium', u'high', u'low']","blue",49,"left","medium","True","False",302,2500,NA
"AUAN582MLI96N","Thu Jan 30 2020 11:05:02 GMT-0600 (Central Standard Time)","Thu Jan 30 2020 11:22:50 GMT-0600 (Central Standard Time)","Mozilla/5.0 (Windows NT 10.0; Win64; x64) AppleWebKit/537.36 (KHTML, like Gecko) Chrome/79.0.3945.130 Safari/537.36",56,"[0.9, 0.5, 0.1]","[0.8, 0.4, 0.2]","[u'blue', u'black', u'red']","[u'left', u'middle', u'right']","[0.9, 0.5, 0.1]","[u'medium', u'high', u'low']","blue",49,"left","medium","True","False",244,2600,NA
"AUAN582MLI96N","Thu Jan 30 2020 11:05:02 GMT-0600 (Central Standard Time)","Thu Jan 30 2020 11:22:50 GMT-0600 (Central Standard Time)","Mozilla/5.0 (Windows NT 10.0; Win64; x64) AppleWebKit/537.36 (KHTML, like Gecko) Chrome/79.0.3945.130 Safari/537.36",57,"[0.9, 0.5, 0.1]","[0.8, 0.4, 0.2]","[u'blue', u'black', u'red']","[u'left', u'middle', u'right']","[0.9, 0.5, 0.1]","[u'medium', u'high', u'low']","blue",49,"left","medium","True","False",455,2700,NA
"AUAN582MLI96N","Thu Jan 30 2020 11:05:02 GMT-0600 (Central Standard Time)","Thu Jan 30 2020 11:22:50 GMT-0600 (Central Standard Time)","Mozilla/5.0 (Windows NT 10.0; Win64; x64) AppleWebKit/537.36 (KHTML, like Gecko) Chrome/79.0.3945.130 Safari/537.36",58,"[0.9, 0.5, 0.1]","[0.8, 0.4, 0.2]","[u'blue', u'black', u'red']","[u'left', u'middle', u'right']","[0.9, 0.5, 0.1]","[u'medium', u'high', u'low']","blue",49,"left","medium","True","False",2537,2800,NA
"AUAN582MLI96N","Thu Jan 30 2020 11:05:02 GMT-0600 (Central Standard Time)","Thu Jan 30 2020 11:22:50 GMT-0600 (Central Standard Time)","Mozilla/5.0 (Windows NT 10.0; Win64; x64) AppleWebKit/537.36 (KHTML, like Gecko) Chrome/79.0.3945.130 Safari/537.36",59,"[0.9, 0.5, 0.1]","[0.8, 0.4, 0.2]","[u'blue', u'black', u'red']","[u'left', u'middle', u'right']","[0.9, 0.5, 0.1]","[u'medium', u'high', u'low']","blue",49,"left","medium","False","False",332,2750,NA
"AUAN582MLI96N","Thu Jan 30 2020 11:05:02 GMT-0600 (Central Standard Time)","Thu Jan 30 2020 11:22:50 GMT-0600 (Central Standard Time)","Mozilla/5.0 (Windows NT 10.0; Win64; x64) AppleWebKit/537.36 (KHTML, like Gecko) Chrome/79.0.3945.130 Safari/537.36",60,"[0.9, 0.5, 0.1]","[0.8, 0.4, 0.2]","[u'blue', u'black', u'red']","[u'left', u'middle', u'right']","[0.9, 0.5, 0.1]","[u'medium', u'high', u'low']","red",51,"right","low","False","False",1677,2700,NA
"AUAN582MLI96N","Thu Jan 30 2020 11:05:02 GMT-0600 (Central Standard Time)","Thu Jan 30 2020 11:22:50 GMT-0600 (Central Standard Time)","Mozilla/5.0 (Windows NT 10.0; Win64; x64) AppleWebKit/537.36 (KHTML, like Gecko) Chrome/79.0.3945.130 Safari/537.36",61,"[0.9, 0.5, 0.1]","[0.8, 0.4, 0.2]","[u'blue', u'black', u'red']","[u'left', u'middle', u'right']","[0.9, 0.5, 0.1]","[u'medium', u'high', u'low']","black",50,"middle","high","True","False",107,2800,NA
"AUAN582MLI96N","Thu Jan 30 2020 11:05:02 GMT-0600 (Central Standard Time)","Thu Jan 30 2020 11:22:50 GMT-0600 (Central Standard Time)","Mozilla/5.0 (Windows NT 10.0; Win64; x64) AppleWebKit/537.36 (KHTML, like Gecko) Chrome/79.0.3945.130 Safari/537.36",62,"[0.9, 0.5, 0.1]","[0.8, 0.4, 0.2]","[u'blue', u'black', u'red']","[u'left', u'middle', u'right']","[0.9, 0.5, 0.1]","[u'medium', u'high', u'low']","black",50,"middle","high","True","False",278,2900,NA
"AUAN582MLI96N","Thu Jan 30 2020 11:05:02 GMT-0600 (Central Standard Time)","Thu Jan 30 2020 11:22:50 GMT-0600 (Central Standard Time)","Mozilla/5.0 (Windows NT 10.0; Win64; x64) AppleWebKit/537.36 (KHTML, like Gecko) Chrome/79.0.3945.130 Safari/537.36",63,"[0.9, 0.5, 0.1]","[0.8, 0.4, 0.2]","[u'blue', u'black', u'red']","[u'left', u'middle', u'right']","[0.9, 0.5, 0.1]","[u'medium', u'high', u'low']","black",50,"middle","high","True","False",17,3000,NA
"AUAN582MLI96N","Thu Jan 30 2020 11:05:02 GMT-0600 (Central Standard Time)","Thu Jan 30 2020 11:22:50 GMT-0600 (Central Standard Time)","Mozilla/5.0 (Windows NT 10.0; Win64; x64) AppleWebKit/537.36 (KHTML, like Gecko) Chrome/79.0.3945.130 Safari/537.36",64,"[0.9, 0.5, 0.1]","[0.8, 0.4, 0.2]","[u'blue', u'black', u'red']","[u'left', u'middle', u'right']","[0.9, 0.5, 0.1]","[u'medium', u'high', u'low']","black",50,"middle","high","True","False",133,3100,NA
"AUAN582MLI96N","Thu Jan 30 2020 11:05:02 GMT-0600 (Central Standard Time)","Thu Jan 30 2020 11:22:50 GMT-0600 (Central Standard Time)","Mozilla/5.0 (Windows NT 10.0; Win64; x64) AppleWebKit/537.36 (KHTML, like Gecko) Chrome/79.0.3945.130 Safari/537.36",65,"[0.9, 0.5, 0.1]","[0.8, 0.4, 0.2]","[u'blue', u'black', u'red']","[u'left', u'middle', u'right']","[0.9, 0.5, 0.1]","[u'medium', u'high', u'low']","black",50,"middle","high","True","False",211,3200,NA
"AUAN582MLI96N","Thu Jan 30 2020 11:05:02 GMT-0600 (Central Standard Time)","Thu Jan 30 2020 11:22:50 GMT-0600 (Central Standard Time)","Mozilla/5.0 (Windows NT 10.0; Win64; x64) AppleWebKit/537.36 (KHTML, like Gecko) Chrome/79.0.3945.130 Safari/537.36",66,"[0.9, 0.5, 0.1]","[0.8, 0.4, 0.2]","[u'blue', u'black', u'red']","[u'left', u'middle', u'right']","[0.9, 0.5, 0.1]","[u'medium', u'high', u'low']","black",50,"middle","high","True","False",112,3300,NA
"AUAN582MLI96N","Thu Jan 30 2020 11:05:02 GMT-0600 (Central Standard Time)","Thu Jan 30 2020 11:22:50 GMT-0600 (Central Standard Time)","Mozilla/5.0 (Windows NT 10.0; Win64; x64) AppleWebKit/537.36 (KHTML, like Gecko) Chrome/79.0.3945.130 Safari/537.36",67,"[0.9, 0.5, 0.1]","[0.8, 0.4, 0.2]","[u'blue', u'black', u'red']","[u'left', u'middle', u'right']","[0.9, 0.5, 0.1]","[u'medium', u'high', u'low']","black",50,"middle","high","True","False",11,3400,NA
"AUAN582MLI96N","Thu Jan 30 2020 11:05:02 GMT-0600 (Central Standard Time)","Thu Jan 30 2020 11:22:50 GMT-0600 (Central Standard Time)","Mozilla/5.0 (Windows NT 10.0; Win64; x64) AppleWebKit/537.36 (KHTML, like Gecko) Chrome/79.0.3945.130 Safari/537.36",68,"[0.9, 0.5, 0.1]","[0.8, 0.4, 0.2]","[u'blue', u'black', u'red']","[u'left', u'middle', u'right']","[0.9, 0.5, 0.1]","[u'medium', u'high', u'low']","black",50,"middle","high","True","False",388,3500,NA
"AUAN582MLI96N","Thu Jan 30 2020 11:05:02 GMT-0600 (Central Standard Time)","Thu Jan 30 2020 11:22:50 GMT-0600 (Central Standard Time)","Mozilla/5.0 (Windows NT 10.0; Win64; x64) AppleWebKit/537.36 (KHTML, like Gecko) Chrome/79.0.3945.130 Safari/537.36",69,"[0.9, 0.5, 0.1]","[0.8, 0.4, 0.2]","[u'blue', u'black', u'red']","[u'left', u'middle', u'right']","[0.9, 0.5, 0.1]","[u'medium', u'high', u'low']","black",50,"middle","high","True","True",306,3600,NA
"AUAN582MLI96N","Thu Jan 30 2020 11:05:02 GMT-0600 (Central Standard Time)","Thu Jan 30 2020 11:22:50 GMT-0600 (Central Standard Time)","Mozilla/5.0 (Windows NT 10.0; Win64; x64) AppleWebKit/537.36 (KHTML, like Gecko) Chrome/79.0.3945.130 Safari/537.36",70,"[0.9, 0.5, 0.1]","[0.8, 0.4, 0.2]","[u'blue', u'black', u'red']","[u'left', u'middle', u'right']","[0.9, 0.5, 0.1]","[u'medium', u'low', u'high']","black",50,"middle","low","False","False",212,3550,NA
"AUAN582MLI96N","Thu Jan 30 2020 11:05:02 GMT-0600 (Central Standard Time)","Thu Jan 30 2020 11:22:50 GMT-0600 (Central Standard Time)","Mozilla/5.0 (Windows NT 10.0; Win64; x64) AppleWebKit/537.36 (KHTML, like Gecko) Chrome/79.0.3945.130 Safari/537.36",71,"[0.9, 0.5, 0.1]","[0.8, 0.4, 0.2]","[u'blue', u'black', u'red']","[u'left', u'middle', u'right']","[0.9, 0.5, 0.1]","[u'medium', u'low', u'high']","black",50,"middle","low","False","False",299,3500,NA
"AUAN582MLI96N","Thu Jan 30 2020 11:05:02 GMT-0600 (Central Standard Time)","Thu Jan 30 2020 11:22:50 GMT-0600 (Central Standard Time)","Mozilla/5.0 (Windows NT 10.0; Win64; x64) AppleWebKit/537.36 (KHTML, like Gecko) Chrome/79.0.3945.130 Safari/537.36",72,"[0.9, 0.5, 0.1]","[0.8, 0.4, 0.2]","[u'blue', u'black', u'red']","[u'left', u'middle', u'right']","[0.9, 0.5, 0.1]","[u'medium', u'low', u'high']","red",51,"right","high","True","False",110,3600,NA
"AUAN582MLI96N","Thu Jan 30 2020 11:05:02 GMT-0600 (Central Standard Time)","Thu Jan 30 2020 11:22:50 GMT-0600 (Central Standard Time)","Mozilla/5.0 (Windows NT 10.0; Win64; x64) AppleWebKit/537.36 (KHTML, like Gecko) Chrome/79.0.3945.130 Safari/537.36",73,"[0.9, 0.5, 0.1]","[0.8, 0.4, 0.2]","[u'blue', u'black', u'red']","[u'left', u'middle', u'right']","[0.9, 0.5, 0.1]","[u'medium', u'low', u'high']","red",51,"right","high","True","False",101,3700,NA
"AUAN582MLI96N","Thu Jan 30 2020 11:05:02 GMT-0600 (Central Standard Time)","Thu Jan 30 2020 11:22:50 GMT-0600 (Central Standard Time)","Mozilla/5.0 (Windows NT 10.0; Win64; x64) AppleWebKit/537.36 (KHTML, like Gecko) Chrome/79.0.3945.130 Safari/537.36",74,"[0.9, 0.5, 0.1]","[0.8, 0.4, 0.2]","[u'blue', u'black', u'red']","[u'left', u'middle', u'right']","[0.9, 0.5, 0.1]","[u'medium', u'low', u'high']","red",51,"right","high","True","False",333,3800,NA
"AUAN582MLI96N","Thu Jan 30 2020 11:05:02 GMT-0600 (Central Standard Time)","Thu Jan 30 2020 11:22:50 GMT-0600 (Central Standard Time)","Mozilla/5.0 (Windows NT 10.0; Win64; x64) AppleWebKit/537.36 (KHTML, like Gecko) Chrome/79.0.3945.130 Safari/537.36",75,"[0.9, 0.5, 0.1]","[0.8, 0.4, 0.2]","[u'blue', u'black', u'red']","[u'left', u'middle', u'right']","[0.9, 0.5, 0.1]","[u'medium', u'low', u'high']","red",51,"right","high","True","False",514,3900,NA
"AUAN582MLI96N","Thu Jan 30 2020 11:05:02 GMT-0600 (Central Standard Time)","Thu Jan 30 2020 11:22:50 GMT-0600 (Central Standard Time)","Mozilla/5.0 (Windows NT 10.0; Win64; x64) AppleWebKit/537.36 (KHTML, like Gecko) Chrome/79.0.3945.130 Safari/537.36",76,"[0.9, 0.5, 0.1]","[0.8, 0.4, 0.2]","[u'blue', u'black', u'red']","[u'left', u'middle', u'right']","[0.9, 0.5, 0.1]","[u'medium', u'low', u'high']","red",51,"right","high","True","False",350,4000,NA
"AUAN582MLI96N","Thu Jan 30 2020 11:05:02 GMT-0600 (Central Standard Time)","Thu Jan 30 2020 11:22:50 GMT-0600 (Central Standard Time)","Mozilla/5.0 (Windows NT 10.0; Win64; x64) AppleWebKit/537.36 (KHTML, like Gecko) Chrome/79.0.3945.130 Safari/537.36",77,"[0.9, 0.5, 0.1]","[0.8, 0.4, 0.2]","[u'blue', u'black', u'red']","[u'left', u'middle', u'right']","[0.9, 0.5, 0.1]","[u'medium', u'low', u'high']","black",50,"middle","low","False","False",373,3950,NA
"AUAN582MLI96N","Thu Jan 30 2020 11:05:02 GMT-0600 (Central Standard Time)","Thu Jan 30 2020 11:22:50 GMT-0600 (Central Standard Time)","Mozilla/5.0 (Windows NT 10.0; Win64; x64) AppleWebKit/537.36 (KHTML, like Gecko) Chrome/79.0.3945.130 Safari/537.36",78,"[0.9, 0.5, 0.1]","[0.8, 0.4, 0.2]","[u'blue', u'black', u'red']","[u'left', u'middle', u'right']","[0.9, 0.5, 0.1]","[u'medium', u'low', u'high']","red",51,"right","high","True","False",221,4050,NA
"AUAN582MLI96N","Thu Jan 30 2020 11:05:02 GMT-0600 (Central Standard Time)","Thu Jan 30 2020 11:22:50 GMT-0600 (Central Standard Time)","Mozilla/5.0 (Windows NT 10.0; Win64; x64) AppleWebKit/537.36 (KHTML, like Gecko) Chrome/79.0.3945.130 Safari/537.36",79,"[0.9, 0.5, 0.1]","[0.8, 0.4, 0.2]","[u'blue', u'black', u'red']","[u'left', u'middle', u'right']","[0.9, 0.5, 0.1]","[u'medium', u'low', u'high']","red",51,"right","high","True","False",134,4150,NA
"AUAN582MLI96N","Thu Jan 30 2020 11:05:02 GMT-0600 (Central Standard Time)","Thu Jan 30 2020 11:22:50 GMT-0600 (Central Standard Time)","Mozilla/5.0 (Windows NT 10.0; Win64; x64) AppleWebKit/537.36 (KHTML, like Gecko) Chrome/79.0.3945.130 Safari/537.36",80,"[0.9, 0.5, 0.1]","[0.8, 0.4, 0.2]","[u'blue', u'black', u'red']","[u'left', u'middle', u'right']","[0.9, 0.5, 0.1]","[u'medium', u'low', u'high']","red",51,"right","high","True","False",156,4250,NA
"AUAN582MLI96N","Thu Jan 30 2020 11:05:02 GMT-0600 (Central Standard Time)","Thu Jan 30 2020 11:22:50 GMT-0600 (Central Standard Time)","Mozilla/5.0 (Windows NT 10.0; Win64; x64) AppleWebKit/537.36 (KHTML, like Gecko) Chrome/79.0.3945.130 Safari/537.36",81,"[0.9, 0.5, 0.1]","[0.8, 0.4, 0.2]","[u'blue', u'black', u'red']","[u'left', u'middle', u'right']","[0.8, 0.4, 0.2]","[u'high', u'medium', u'low']","red",51,"right","low","False","False",822,4200,NA
"AUAN582MLI96N","Thu Jan 30 2020 11:05:02 GMT-0600 (Central Standard Time)","Thu Jan 30 2020 11:22:50 GMT-0600 (Central Standard Time)","Mozilla/5.0 (Windows NT 10.0; Win64; x64) AppleWebKit/537.36 (KHTML, like Gecko) Chrome/79.0.3945.130 Safari/537.36",82,"[0.9, 0.5, 0.1]","[0.8, 0.4, 0.2]","[u'blue', u'black', u'red']","[u'left', u'middle', u'right']","[0.8, 0.4, 0.2]","[u'high', u'medium', u'low']","red",51,"right","low","True","False",335,4300,NA
"AUAN582MLI96N","Thu Jan 30 2020 11:05:02 GMT-0600 (Central Standard Time)","Thu Jan 30 2020 11:22:50 GMT-0600 (Central Standard Time)","Mozilla/5.0 (Windows NT 10.0; Win64; x64) AppleWebKit/537.36 (KHTML, like Gecko) Chrome/79.0.3945.130 Safari/537.36",83,"[0.9, 0.5, 0.1]","[0.8, 0.4, 0.2]","[u'blue', u'black', u'red']","[u'left', u'middle', u'right']","[0.8, 0.4, 0.2]","[u'high', u'medium', u'low']","red",51,"right","low","False","False",131,4250,NA
"AUAN582MLI96N","Thu Jan 30 2020 11:05:02 GMT-0600 (Central Standard Time)","Thu Jan 30 2020 11:22:50 GMT-0600 (Central Standard Time)","Mozilla/5.0 (Windows NT 10.0; Win64; x64) AppleWebKit/537.36 (KHTML, like Gecko) Chrome/79.0.3945.130 Safari/537.36",84,"[0.9, 0.5, 0.1]","[0.8, 0.4, 0.2]","[u'blue', u'black', u'red']","[u'left', u'middle', u'right']","[0.8, 0.4, 0.2]","[u'high', u'medium', u'low']","black",50,"middle","medium","True","False",70,4350,NA
"AUAN582MLI96N","Thu Jan 30 2020 11:05:02 GMT-0600 (Central Standard Time)","Thu Jan 30 2020 11:22:50 GMT-0600 (Central Standard Time)","Mozilla/5.0 (Windows NT 10.0; Win64; x64) AppleWebKit/537.36 (KHTML, like Gecko) Chrome/79.0.3945.130 Safari/537.36",85,"[0.9, 0.5, 0.1]","[0.8, 0.4, 0.2]","[u'blue', u'black', u'red']","[u'left', u'middle', u'right']","[0.8, 0.4, 0.2]","[u'high', u'medium', u'low']","black",50,"middle","medium","False","False",237,4300,NA
"AUAN582MLI96N","Thu Jan 30 2020 11:05:02 GMT-0600 (Central Standard Time)","Thu Jan 30 2020 11:22:50 GMT-0600 (Central Standard Time)","Mozilla/5.0 (Windows NT 10.0; Win64; x64) AppleWebKit/537.36 (KHTML, like Gecko) Chrome/79.0.3945.130 Safari/537.36",86,"[0.9, 0.5, 0.1]","[0.8, 0.4, 0.2]","[u'blue', u'black', u'red']","[u'left', u'middle', u'right']","[0.8, 0.4, 0.2]","[u'high', u'medium', u'low']","blue",49,"left","high","True","False",245,4400,NA
"AUAN582MLI96N","Thu Jan 30 2020 11:05:02 GMT-0600 (Central Standard Time)","Thu Jan 30 2020 11:22:50 GMT-0600 (Central Standard Time)","Mozilla/5.0 (Windows NT 10.0; Win64; x64) AppleWebKit/537.36 (KHTML, like Gecko) Chrome/79.0.3945.130 Safari/537.36",87,"[0.9, 0.5, 0.1]","[0.8, 0.4, 0.2]","[u'blue', u'black', u'red']","[u'left', u'middle', u'right']","[0.8, 0.4, 0.2]","[u'high', u'medium', u'low']","blue",49,"left","high","True","False",110,4500,NA
"AUAN582MLI96N","Thu Jan 30 2020 11:05:02 GMT-0600 (Central Standard Time)","Thu Jan 30 2020 11:22:50 GMT-0600 (Central Standard Time)","Mozilla/5.0 (Windows NT 10.0; Win64; x64) AppleWebKit/537.36 (KHTML, like Gecko) Chrome/79.0.3945.130 Safari/537.36",88,"[0.9, 0.5, 0.1]","[0.8, 0.4, 0.2]","[u'blue', u'black', u'red']","[u'left', u'middle', u'right']","[0.8, 0.4, 0.2]","[u'high', u'medium', u'low']","blue",49,"left","high","True","False",289,4600,NA
"AUAN582MLI96N","Thu Jan 30 2020 11:05:02 GMT-0600 (Central Standard Time)","Thu Jan 30 2020 11:22:50 GMT-0600 (Central Standard Time)","Mozilla/5.0 (Windows NT 10.0; Win64; x64) AppleWebKit/537.36 (KHTML, like Gecko) Chrome/79.0.3945.130 Safari/537.36",89,"[0.9, 0.5, 0.1]","[0.8, 0.4, 0.2]","[u'blue', u'black', u'red']","[u'left', u'middle', u'right']","[0.8, 0.4, 0.2]","[u'high', u'medium', u'low']","blue",49,"left","high","True","False",370,4700,NA
"AUAN582MLI96N","Thu Jan 30 2020 11:05:02 GMT-0600 (Central Standard Time)","Thu Jan 30 2020 11:22:50 GMT-0600 (Central Standard Time)","Mozilla/5.0 (Windows NT 10.0; Win64; x64) AppleWebKit/537.36 (KHTML, like Gecko) Chrome/79.0.3945.130 Safari/537.36",90,"[0.9, 0.5, 0.1]","[0.8, 0.4, 0.2]","[u'blue', u'black', u'red']","[u'left', u'middle', u'right']","[0.8, 0.4, 0.2]","[u'high', u'medium', u'low']","blue",49,"left","high","True","False",167,4800,NA
"AUAN582MLI96N","Thu Jan 30 2020 11:05:02 GMT-0600 (Central Standard Time)","Thu Jan 30 2020 11:22:50 GMT-0600 (Central Standard Time)","Mozilla/5.0 (Windows NT 10.0; Win64; x64) AppleWebKit/537.36 (KHTML, like Gecko) Chrome/79.0.3945.130 Safari/537.36",91,"[0.9, 0.5, 0.1]","[0.8, 0.4, 0.2]","[u'blue', u'black', u'red']","[u'left', u'middle', u'right']","[0.8, 0.4, 0.2]","[u'high', u'medium', u'low']","blue",49,"left","high","True","False",293,4900,NA
"AUAN582MLI96N","Thu Jan 30 2020 11:05:02 GMT-0600 (Central Standard Time)","Thu Jan 30 2020 11:22:50 GMT-0600 (Central Standard Time)","Mozilla/5.0 (Windows NT 10.0; Win64; x64) AppleWebKit/537.36 (KHTML, like Gecko) Chrome/79.0.3945.130 Safari/537.36",92,"[0.9, 0.5, 0.1]","[0.8, 0.4, 0.2]","[u'blue', u'black', u'red']","[u'left', u'middle', u'right']","[0.8, 0.4, 0.2]","[u'high', u'medium', u'low']","blue",49,"left","high","True","False",111,5000,NA
"AUAN582MLI96N","Thu Jan 30 2020 11:05:02 GMT-0600 (Central Standard Time)","Thu Jan 30 2020 11:22:50 GMT-0600 (Central Standard Time)","Mozilla/5.0 (Windows NT 10.0; Win64; x64) AppleWebKit/537.36 (KHTML, like Gecko) Chrome/79.0.3945.130 Safari/537.36",93,"[0.9, 0.5, 0.1]","[0.8, 0.4, 0.2]","[u'blue', u'black', u'red']","[u'left', u'middle', u'right']","[0.8, 0.4, 0.2]","[u'high', u'medium', u'low']","blue",49,"left","high","True","False",84,5100,NA
"AUAN582MLI96N","Thu Jan 30 2020 11:05:02 GMT-0600 (Central Standard Time)","Thu Jan 30 2020 11:22:50 GMT-0600 (Central Standard Time)","Mozilla/5.0 (Windows NT 10.0; Win64; x64) AppleWebKit/537.36 (KHTML, like Gecko) Chrome/79.0.3945.130 Safari/537.36",94,"[0.9, 0.5, 0.1]","[0.8, 0.4, 0.2]","[u'blue', u'black', u'red']","[u'left', u'middle', u'right']","[0.8, 0.4, 0.2]","[u'high', u'medium', u'low']","blue",49,"left","high","True","True",162,5200,NA
"AUAN582MLI96N","Thu Jan 30 2020 11:05:02 GMT-0600 (Central Standard Time)","Thu Jan 30 2020 11:22:50 GMT-0600 (Central Standard Time)","Mozilla/5.0 (Windows NT 10.0; Win64; x64) AppleWebKit/537.36 (KHTML, like Gecko) Chrome/79.0.3945.130 Safari/537.36",95,"[0.9, 0.5, 0.1]","[0.8, 0.4, 0.2]","[u'blue', u'black', u'red']","[u'left', u'middle', u'right']","[0.8, 0.4, 0.2]","[u'low', u'high', u'medium']","blue",49,"left","low","False","False",82,5150,NA
"AUAN582MLI96N","Thu Jan 30 2020 11:05:02 GMT-0600 (Central Standard Time)","Thu Jan 30 2020 11:22:50 GMT-0600 (Central Standard Time)","Mozilla/5.0 (Windows NT 10.0; Win64; x64) AppleWebKit/537.36 (KHTML, like Gecko) Chrome/79.0.3945.130 Safari/537.36",96,"[0.9, 0.5, 0.1]","[0.8, 0.4, 0.2]","[u'blue', u'black', u'red']","[u'left', u'middle', u'right']","[0.8, 0.4, 0.2]","[u'low', u'high', u'medium']","black",50,"middle","high","True","False",178,5250,NA
"AUAN582MLI96N","Thu Jan 30 2020 11:05:02 GMT-0600 (Central Standard Time)","Thu Jan 30 2020 11:22:50 GMT-0600 (Central Standard Time)","Mozilla/5.0 (Windows NT 10.0; Win64; x64) AppleWebKit/537.36 (KHTML, like Gecko) Chrome/79.0.3945.130 Safari/537.36",97,"[0.9, 0.5, 0.1]","[0.8, 0.4, 0.2]","[u'blue', u'black', u'red']","[u'left', u'middle', u'right']","[0.8, 0.4, 0.2]","[u'low', u'high', u'medium']","black",50,"middle","high","True","False",86,5350,NA
"AUAN582MLI96N","Thu Jan 30 2020 11:05:02 GMT-0600 (Central Standard Time)","Thu Jan 30 2020 11:22:50 GMT-0600 (Central Standard Time)","Mozilla/5.0 (Windows NT 10.0; Win64; x64) AppleWebKit/537.36 (KHTML, like Gecko) Chrome/79.0.3945.130 Safari/537.36",98,"[0.9, 0.5, 0.1]","[0.8, 0.4, 0.2]","[u'blue', u'black', u'red']","[u'left', u'middle', u'right']","[0.8, 0.4, 0.2]","[u'low', u'high', u'medium']","black",50,"middle","high","False","False",226,5300,NA
"AUAN582MLI96N","Thu Jan 30 2020 11:05:02 GMT-0600 (Central Standard Time)","Thu Jan 30 2020 11:22:50 GMT-0600 (Central Standard Time)","Mozilla/5.0 (Windows NT 10.0; Win64; x64) AppleWebKit/537.36 (KHTML, like Gecko) Chrome/79.0.3945.130 Safari/537.36",99,"[0.9, 0.5, 0.1]","[0.8, 0.4, 0.2]","[u'blue', u'black', u'red']","[u'left', u'middle', u'right']","[0.8, 0.4, 0.2]","[u'low', u'high', u'medium']","red",51,"right","medium","False","False",305,5250,NA
"AUAN582MLI96N","Thu Jan 30 2020 11:05:02 GMT-0600 (Central Standard Time)","Thu Jan 30 2020 11:22:50 GMT-0600 (Central Standard Time)","Mozilla/5.0 (Windows NT 10.0; Win64; x64) AppleWebKit/537.36 (KHTML, like Gecko) Chrome/79.0.3945.130 Safari/537.36",100,"[0.9, 0.5, 0.1]","[0.8, 0.4, 0.2]","[u'blue', u'black', u'red']","[u'left', u'middle', u'right']","[0.8, 0.4, 0.2]","[u'low', u'high', u'medium']","black",50,"middle","high","True","False",149,5350,NA
"AUAN582MLI96N","Thu Jan 30 2020 11:05:02 GMT-0600 (Central Standard Time)","Thu Jan 30 2020 11:22:50 GMT-0600 (Central Standard Time)","Mozilla/5.0 (Windows NT 10.0; Win64; x64) AppleWebKit/537.36 (KHTML, like Gecko) Chrome/79.0.3945.130 Safari/537.36",101,"[0.9, 0.5, 0.1]","[0.8, 0.4, 0.2]","[u'blue', u'black', u'red']","[u'left', u'middle', u'right']","[0.8, 0.4, 0.2]","[u'low', u'high', u'medium']","black",50,"middle","high","True","False",208,5450,NA
"AUAN582MLI96N","Thu Jan 30 2020 11:05:02 GMT-0600 (Central Standard Time)","Thu Jan 30 2020 11:22:50 GMT-0600 (Central Standard Time)","Mozilla/5.0 (Windows NT 10.0; Win64; x64) AppleWebKit/537.36 (KHTML, like Gecko) Chrome/79.0.3945.130 Safari/537.36",102,"[0.9, 0.5, 0.1]","[0.8, 0.4, 0.2]","[u'blue', u'black', u'red']","[u'left', u'middle', u'right']","[0.8, 0.4, 0.2]","[u'low', u'high', u'medium']","black",50,"middle","high","False","False",153,5400,NA
"AUAN582MLI96N","Thu Jan 30 2020 11:05:02 GMT-0600 (Central Standard Time)","Thu Jan 30 2020 11:22:50 GMT-0600 (Central Standard Time)","Mozilla/5.0 (Windows NT 10.0; Win64; x64) AppleWebKit/537.36 (KHTML, like Gecko) Chrome/79.0.3945.130 Safari/537.36",103,"[0.9, 0.5, 0.1]","[0.8, 0.4, 0.2]","[u'blue', u'black', u'red']","[u'left', u'middle', u'right']","[0.8, 0.4, 0.2]","[u'low', u'high', u'medium']","red",51,"right","medium","False","False",129,5350,NA
"AUAN582MLI96N","Thu Jan 30 2020 11:05:02 GMT-0600 (Central Standard Time)","Thu Jan 30 2020 11:22:50 GMT-0600 (Central Standard Time)","Mozilla/5.0 (Windows NT 10.0; Win64; x64) AppleWebKit/537.36 (KHTML, like Gecko) Chrome/79.0.3945.130 Safari/537.36",104,"[0.9, 0.5, 0.1]","[0.8, 0.4, 0.2]","[u'blue', u'black', u'red']","[u'left', u'middle', u'right']","[0.8, 0.4, 0.2]","[u'low', u'high', u'medium']","blue",49,"left","low","False","False",152,5300,NA
"AUAN582MLI96N","Thu Jan 30 2020 11:05:02 GMT-0600 (Central Standard Time)","Thu Jan 30 2020 11:22:50 GMT-0600 (Central Standard Time)","Mozilla/5.0 (Windows NT 10.0; Win64; x64) AppleWebKit/537.36 (KHTML, like Gecko) Chrome/79.0.3945.130 Safari/537.36",105,"[0.9, 0.5, 0.1]","[0.8, 0.4, 0.2]","[u'blue', u'black', u'red']","[u'left', u'middle', u'right']","[0.8, 0.4, 0.2]","[u'low', u'high', u'medium']","black",50,"middle","high","False","False",193,5250,NA
"AUAN582MLI96N","Thu Jan 30 2020 11:05:02 GMT-0600 (Central Standard Time)","Thu Jan 30 2020 11:22:50 GMT-0600 (Central Standard Time)","Mozilla/5.0 (Windows NT 10.0; Win64; x64) AppleWebKit/537.36 (KHTML, like Gecko) Chrome/79.0.3945.130 Safari/537.36",106,"[0.9, 0.5, 0.1]","[0.8, 0.4, 0.2]","[u'blue', u'black', u'red']","[u'left', u'middle', u'right']","[0.8, 0.4, 0.2]","[u'low', u'high', u'medium']","black",50,"middle","high","True","False",88,5350,NA
"AUAN582MLI96N","Thu Jan 30 2020 11:05:02 GMT-0600 (Central Standard Time)","Thu Jan 30 2020 11:22:50 GMT-0600 (Central Standard Time)","Mozilla/5.0 (Windows NT 10.0; Win64; x64) AppleWebKit/537.36 (KHTML, like Gecko) Chrome/79.0.3945.130 Safari/537.36",107,"[0.9, 0.5, 0.1]","[0.8, 0.4, 0.2]","[u'blue', u'black', u'red']","[u'left', u'middle', u'right']","[0.8, 0.4, 0.2]","[u'low', u'high', u'medium']","black",50,"middle","high","True","False",7,5450,NA
"AUAN582MLI96N","Thu Jan 30 2020 11:05:02 GMT-0600 (Central Standard Time)","Thu Jan 30 2020 11:22:50 GMT-0600 (Central Standard Time)","Mozilla/5.0 (Windows NT 10.0; Win64; x64) AppleWebKit/537.36 (KHTML, like Gecko) Chrome/79.0.3945.130 Safari/537.36",108,"[0.9, 0.5, 0.1]","[0.8, 0.4, 0.2]","[u'blue', u'black', u'red']","[u'left', u'middle', u'right']","[0.8, 0.4, 0.2]","[u'low', u'high', u'medium']","black",50,"middle","high","True","False",30,5550,NA
"AUAN582MLI96N","Thu Jan 30 2020 11:05:02 GMT-0600 (Central Standard Time)","Thu Jan 30 2020 11:22:50 GMT-0600 (Central Standard Time)","Mozilla/5.0 (Windows NT 10.0; Win64; x64) AppleWebKit/537.36 (KHTML, like Gecko) Chrome/79.0.3945.130 Safari/537.36",109,"[0.9, 0.5, 0.1]","[0.8, 0.4, 0.2]","[u'blue', u'black', u'red']","[u'left', u'middle', u'right']","[0.8, 0.4, 0.2]","[u'low', u'high', u'medium']","black",50,"middle","high","True","False",156,5650,NA
"AUAN582MLI96N","Thu Jan 30 2020 11:05:02 GMT-0600 (Central Standard Time)","Thu Jan 30 2020 11:22:50 GMT-0600 (Central Standard Time)","Mozilla/5.0 (Windows NT 10.0; Win64; x64) AppleWebKit/537.36 (KHTML, like Gecko) Chrome/79.0.3945.130 Safari/537.36",110,"[0.9, 0.5, 0.1]","[0.8, 0.4, 0.2]","[u'blue', u'black', u'red']","[u'left', u'middle', u'right']","[0.8, 0.4, 0.2]","[u'low', u'high', u'medium']","black",50,"middle","high","True","False",150,5750,NA
"AUAN582MLI96N","Thu Jan 30 2020 11:05:02 GMT-0600 (Central Standard Time)","Thu Jan 30 2020 11:22:50 GMT-0600 (Central Standard Time)","Mozilla/5.0 (Windows NT 10.0; Win64; x64) AppleWebKit/537.36 (KHTML, like Gecko) Chrome/79.0.3945.130 Safari/537.36",111,"[0.9, 0.5, 0.1]","[0.8, 0.4, 0.2]","[u'blue', u'black', u'red']","[u'left', u'middle', u'right']","[0.8, 0.4, 0.2]","[u'low', u'high', u'medium']","black",50,"middle","high","True","False",62,5850,NA
"AUAN582MLI96N","Thu Jan 30 2020 11:05:02 GMT-0600 (Central Standard Time)","Thu Jan 30 2020 11:22:50 GMT-0600 (Central Standard Time)","Mozilla/5.0 (Windows NT 10.0; Win64; x64) AppleWebKit/537.36 (KHTML, like Gecko) Chrome/79.0.3945.130 Safari/537.36",112,"[0.9, 0.5, 0.1]","[0.8, 0.4, 0.2]","[u'blue', u'black', u'red']","[u'left', u'middle', u'right']","[0.8, 0.4, 0.2]","[u'low', u'high', u'medium']","black",50,"middle","high","True","False",361,5950,NA
"AUAN582MLI96N","Thu Jan 30 2020 11:05:02 GMT-0600 (Central Standard Time)","Thu Jan 30 2020 11:22:50 GMT-0600 (Central Standard Time)","Mozilla/5.0 (Windows NT 10.0; Win64; x64) AppleWebKit/537.36 (KHTML, like Gecko) Chrome/79.0.3945.130 Safari/537.36",113,"[0.9, 0.5, 0.1]","[0.8, 0.4, 0.2]","[u'blue', u'black', u'red']","[u'left', u'middle', u'right']","[0.8, 0.4, 0.2]","[u'low', u'high', u'medium']","black",50,"middle","high","False","True",209,5900,NA
"AUAN582MLI96N","Thu Jan 30 2020 11:05:02 GMT-0600 (Central Standard Time)","Thu Jan 30 2020 11:22:50 GMT-0600 (Central Standard Time)","Mozilla/5.0 (Windows NT 10.0; Win64; x64) AppleWebKit/537.36 (KHTML, like Gecko) Chrome/79.0.3945.130 Safari/537.36",114,"[0.9, 0.5, 0.1]","[0.8, 0.4, 0.2]","[u'blue', u'black', u'red']","[u'left', u'middle', u'right']","[0.8, 0.4, 0.2]","[u'medium', u'low', u'high']","black",50,"middle","low","False","False",17,5850,NA
"AUAN582MLI96N","Thu Jan 30 2020 11:05:02 GMT-0600 (Central Standard Time)","Thu Jan 30 2020 11:22:50 GMT-0600 (Central Standard Time)","Mozilla/5.0 (Windows NT 10.0; Win64; x64) AppleWebKit/537.36 (KHTML, like Gecko) Chrome/79.0.3945.130 Safari/537.36",115,"[0.9, 0.5, 0.1]","[0.8, 0.4, 0.2]","[u'blue', u'black', u'red']","[u'left', u'middle', u'right']","[0.8, 0.4, 0.2]","[u'medium', u'low', u'high']","blue",49,"left","medium","True","False",200,5950,NA
"AUAN582MLI96N","Thu Jan 30 2020 11:05:02 GMT-0600 (Central Standard Time)","Thu Jan 30 2020 11:22:50 GMT-0600 (Central Standard Time)","Mozilla/5.0 (Windows NT 10.0; Win64; x64) AppleWebKit/537.36 (KHTML, like Gecko) Chrome/79.0.3945.130 Safari/537.36",116,"[0.9, 0.5, 0.1]","[0.8, 0.4, 0.2]","[u'blue', u'black', u'red']","[u'left', u'middle', u'right']","[0.8, 0.4, 0.2]","[u'medium', u'low', u'high']","blue",49,"left","medium","True","False",128,6050,NA
"AUAN582MLI96N","Thu Jan 30 2020 11:05:02 GMT-0600 (Central Standard Time)","Thu Jan 30 2020 11:22:50 GMT-0600 (Central Standard Time)","Mozilla/5.0 (Windows NT 10.0; Win64; x64) AppleWebKit/537.36 (KHTML, like Gecko) Chrome/79.0.3945.130 Safari/537.36",117,"[0.9, 0.5, 0.1]","[0.8, 0.4, 0.2]","[u'blue', u'black', u'red']","[u'left', u'middle', u'right']","[0.8, 0.4, 0.2]","[u'medium', u'low', u'high']","blue",49,"left","medium","False","False",143,6000,NA
"AUAN582MLI96N","Thu Jan 30 2020 11:05:02 GMT-0600 (Central Standard Time)","Thu Jan 30 2020 11:22:50 GMT-0600 (Central Standard Time)","Mozilla/5.0 (Windows NT 10.0; Win64; x64) AppleWebKit/537.36 (KHTML, like Gecko) Chrome/79.0.3945.130 Safari/537.36",118,"[0.9, 0.5, 0.1]","[0.8, 0.4, 0.2]","[u'blue', u'black', u'red']","[u'left', u'middle', u'right']","[0.8, 0.4, 0.2]","[u'medium', u'low', u'high']","blue",49,"left","medium","True","False",250,6100,NA
"AUAN582MLI96N","Thu Jan 30 2020 11:05:02 GMT-0600 (Central Standard Time)","Thu Jan 30 2020 11:22:50 GMT-0600 (Central Standard Time)","Mozilla/5.0 (Windows NT 10.0; Win64; x64) AppleWebKit/537.36 (KHTML, like Gecko) Chrome/79.0.3945.130 Safari/537.36",119,"[0.9, 0.5, 0.1]","[0.8, 0.4, 0.2]","[u'blue', u'black', u'red']","[u'left', u'middle', u'right']","[0.8, 0.4, 0.2]","[u'medium', u'low', u'high']","blue",49,"left","medium","False","False",131,6050,NA
"AUAN582MLI96N","Thu Jan 30 2020 11:05:02 GMT-0600 (Central Standard Time)","Thu Jan 30 2020 11:22:50 GMT-0600 (Central Standard Time)","Mozilla/5.0 (Windows NT 10.0; Win64; x64) AppleWebKit/537.36 (KHTML, like Gecko) Chrome/79.0.3945.130 Safari/537.36",120,"[0.9, 0.5, 0.1]","[0.8, 0.4, 0.2]","[u'blue', u'black', u'red']","[u'left', u'middle', u'right']","[0.8, 0.4, 0.2]","[u'medium', u'low', u'high']","red",51,"right","high","True","False",278,6150,NA
"AUAN582MLI96N","Thu Jan 30 2020 11:05:02 GMT-0600 (Central Standard Time)","Thu Jan 30 2020 11:22:50 GMT-0600 (Central Standard Time)","Mozilla/5.0 (Windows NT 10.0; Win64; x64) AppleWebKit/537.36 (KHTML, like Gecko) Chrome/79.0.3945.130 Safari/537.36",121,"[0.9, 0.5, 0.1]","[0.8, 0.4, 0.2]","[u'blue', u'black', u'red']","[u'left', u'middle', u'right']","[0.8, 0.4, 0.2]","[u'high', u'low', u'medium']","black",50,"middle","low","False","False",545,6100,NA
"AUAN582MLI96N","Thu Jan 30 2020 11:05:02 GMT-0600 (Central Standard Time)","Thu Jan 30 2020 11:22:50 GMT-0600 (Central Standard Time)","Mozilla/5.0 (Windows NT 10.0; Win64; x64) AppleWebKit/537.36 (KHTML, like Gecko) Chrome/79.0.3945.130 Safari/537.36",122,"[0.9, 0.5, 0.1]","[0.8, 0.4, 0.2]","[u'blue', u'black', u'red']","[u'left', u'middle', u'right']","[0.8, 0.4, 0.2]","[u'high', u'low', u'medium']","red",51,"right","medium","False","False",324,6050,NA
"AUAN582MLI96N","Thu Jan 30 2020 11:05:02 GMT-0600 (Central Standard Time)","Thu Jan 30 2020 11:22:50 GMT-0600 (Central Standard Time)","Mozilla/5.0 (Windows NT 10.0; Win64; x64) AppleWebKit/537.36 (KHTML, like Gecko) Chrome/79.0.3945.130 Safari/537.36",123,"[0.9, 0.5, 0.1]","[0.8, 0.4, 0.2]","[u'blue', u'black', u'red']","[u'left', u'middle', u'right']","[0.8, 0.4, 0.2]","[u'high', u'low', u'medium']","blue",49,"left","high","False","False",191,6000,NA
"AUAN582MLI96N","Thu Jan 30 2020 11:05:02 GMT-0600 (Central Standard Time)","Thu Jan 30 2020 11:22:50 GMT-0600 (Central Standard Time)","Mozilla/5.0 (Windows NT 10.0; Win64; x64) AppleWebKit/537.36 (KHTML, like Gecko) Chrome/79.0.3945.130 Safari/537.36",124,"[0.9, 0.5, 0.1]","[0.8, 0.4, 0.2]","[u'blue', u'black', u'red']","[u'left', u'middle', u'right']","[0.8, 0.4, 0.2]","[u'high', u'low', u'medium']","red",51,"right","medium","False","False",149,5950,NA
"AUAN582MLI96N","Thu Jan 30 2020 11:05:02 GMT-0600 (Central Standard Time)","Thu Jan 30 2020 11:22:50 GMT-0600 (Central Standard Time)","Mozilla/5.0 (Windows NT 10.0; Win64; x64) AppleWebKit/537.36 (KHTML, like Gecko) Chrome/79.0.3945.130 Safari/537.36",125,"[0.9, 0.5, 0.1]","[0.8, 0.4, 0.2]","[u'blue', u'black', u'red']","[u'left', u'middle', u'right']","[0.8, 0.4, 0.2]","[u'high', u'low', u'medium']","black",50,"middle","low","True","False",254,6050,NA
"AUAN582MLI96N","Thu Jan 30 2020 11:05:02 GMT-0600 (Central Standard Time)","Thu Jan 30 2020 11:22:50 GMT-0600 (Central Standard Time)","Mozilla/5.0 (Windows NT 10.0; Win64; x64) AppleWebKit/537.36 (KHTML, like Gecko) Chrome/79.0.3945.130 Safari/537.36",126,"[0.9, 0.5, 0.1]","[0.8, 0.4, 0.2]","[u'blue', u'black', u'red']","[u'left', u'middle', u'right']","[0.8, 0.4, 0.2]","[u'high', u'low', u'medium']","black",50,"middle","low","False","False",129,6000,NA
"AUAN582MLI96N","Thu Jan 30 2020 11:05:02 GMT-0600 (Central Standard Time)","Thu Jan 30 2020 11:22:50 GMT-0600 (Central Standard Time)","Mozilla/5.0 (Windows NT 10.0; Win64; x64) AppleWebKit/537.36 (KHTML, like Gecko) Chrome/79.0.3945.130 Safari/537.36",127,"[0.9, 0.5, 0.1]","[0.8, 0.4, 0.2]","[u'blue', u'black', u'red']","[u'left', u'middle', u'right']","[0.8, 0.4, 0.2]","[u'high', u'low', u'medium']","blue",49,"left","high","True","False",232,6100,NA
"AUAN582MLI96N","Thu Jan 30 2020 11:05:02 GMT-0600 (Central Standard Time)","Thu Jan 30 2020 11:22:50 GMT-0600 (Central Standard Time)","Mozilla/5.0 (Windows NT 10.0; Win64; x64) AppleWebKit/537.36 (KHTML, like Gecko) Chrome/79.0.3945.130 Safari/537.36",128,"[0.9, 0.5, 0.1]","[0.8, 0.4, 0.2]","[u'blue', u'black', u'red']","[u'left', u'middle', u'right']","[0.8, 0.4, 0.2]","[u'high', u'low', u'medium']","blue",49,"left","high","True","False",438,6200,NA
"AUAN582MLI96N","Thu Jan 30 2020 11:05:02 GMT-0600 (Central Standard Time)","Thu Jan 30 2020 11:22:50 GMT-0600 (Central Standard Time)","Mozilla/5.0 (Windows NT 10.0; Win64; x64) AppleWebKit/537.36 (KHTML, like Gecko) Chrome/79.0.3945.130 Safari/537.36",129,"[0.9, 0.5, 0.1]","[0.8, 0.4, 0.2]","[u'blue', u'black', u'red']","[u'left', u'middle', u'right']","[0.8, 0.4, 0.2]","[u'high', u'low', u'medium']","red",51,"right","medium","False","False",299,6150,NA
"AUAN582MLI96N","Thu Jan 30 2020 11:05:02 GMT-0600 (Central Standard Time)","Thu Jan 30 2020 11:22:50 GMT-0600 (Central Standard Time)","Mozilla/5.0 (Windows NT 10.0; Win64; x64) AppleWebKit/537.36 (KHTML, like Gecko) Chrome/79.0.3945.130 Safari/537.36",130,"[0.9, 0.5, 0.1]","[0.8, 0.4, 0.2]","[u'blue', u'black', u'red']","[u'left', u'middle', u'right']","[0.8, 0.4, 0.2]","[u'high', u'low', u'medium']","blue",49,"left","high","True","False",514,6250,NA
"AUAN582MLI96N","Thu Jan 30 2020 11:05:02 GMT-0600 (Central Standard Time)","Thu Jan 30 2020 11:22:50 GMT-0600 (Central Standard Time)","Mozilla/5.0 (Windows NT 10.0; Win64; x64) AppleWebKit/537.36 (KHTML, like Gecko) Chrome/79.0.3945.130 Safari/537.36",131,"[0.9, 0.5, 0.1]","[0.8, 0.4, 0.2]","[u'blue', u'black', u'red']","[u'left', u'middle', u'right']","[0.8, 0.4, 0.2]","[u'high', u'low', u'medium']","blue",49,"left","high","True","False",475,6350,NA
"AUAN582MLI96N","Thu Jan 30 2020 11:05:02 GMT-0600 (Central Standard Time)","Thu Jan 30 2020 11:22:50 GMT-0600 (Central Standard Time)","Mozilla/5.0 (Windows NT 10.0; Win64; x64) AppleWebKit/537.36 (KHTML, like Gecko) Chrome/79.0.3945.130 Safari/537.36",132,"[0.9, 0.5, 0.1]","[0.8, 0.4, 0.2]","[u'blue', u'black', u'red']","[u'left', u'middle', u'right']","[0.8, 0.4, 0.2]","[u'high', u'low', u'medium']","blue",49,"left","high","True","False",407,6450,NA
"AUAN582MLI96N","Thu Jan 30 2020 11:05:02 GMT-0600 (Central Standard Time)","Thu Jan 30 2020 11:22:50 GMT-0600 (Central Standard Time)","Mozilla/5.0 (Windows NT 10.0; Win64; x64) AppleWebKit/537.36 (KHTML, like Gecko) Chrome/79.0.3945.130 Safari/537.36",133,"[0.9, 0.5, 0.1]","[0.8, 0.4, 0.2]","[u'blue', u'black', u'red']","[u'left', u'middle', u'right']","[0.8, 0.4, 0.2]","[u'high', u'low', u'medium']","black",50,"middle","low","True","False",296,6550,NA
"AUAN582MLI96N","Thu Jan 30 2020 11:05:02 GMT-0600 (Central Standard Time)","Thu Jan 30 2020 11:22:50 GMT-0600 (Central Standard Time)","Mozilla/5.0 (Windows NT 10.0; Win64; x64) AppleWebKit/537.36 (KHTML, like Gecko) Chrome/79.0.3945.130 Safari/537.36",134,"[0.9, 0.5, 0.1]","[0.8, 0.4, 0.2]","[u'blue', u'black', u'red']","[u'left', u'middle', u'right']","[0.8, 0.4, 0.2]","[u'high', u'low', u'medium']","red",51,"right","medium","True","False",277,6650,NA
"AUAN582MLI96N","Thu Jan 30 2020 11:05:02 GMT-0600 (Central Standard Time)","Thu Jan 30 2020 11:22:50 GMT-0600 (Central Standard Time)","Mozilla/5.0 (Windows NT 10.0; Win64; x64) AppleWebKit/537.36 (KHTML, like Gecko) Chrome/79.0.3945.130 Safari/537.36",135,"[0.9, 0.5, 0.1]","[0.8, 0.4, 0.2]","[u'blue', u'black', u'red']","[u'left', u'middle', u'right']","[0.8, 0.4, 0.2]","[u'high', u'low', u'medium']","red",51,"right","medium","True","False",280,6750,NA
"AUAN582MLI96N","Thu Jan 30 2020 11:05:02 GMT-0600 (Central Standard Time)","Thu Jan 30 2020 11:22:50 GMT-0600 (Central Standard Time)","Mozilla/5.0 (Windows NT 10.0; Win64; x64) AppleWebKit/537.36 (KHTML, like Gecko) Chrome/79.0.3945.130 Safari/537.36",136,"[0.9, 0.5, 0.1]","[0.8, 0.4, 0.2]","[u'blue', u'black', u'red']","[u'left', u'middle', u'right']","[0.8, 0.4, 0.2]","[u'high', u'low', u'medium']","black",50,"middle","low","False","False",498,6700,NA
"AUAN582MLI96N","Thu Jan 30 2020 11:05:02 GMT-0600 (Central Standard Time)","Thu Jan 30 2020 11:22:50 GMT-0600 (Central Standard Time)","Mozilla/5.0 (Windows NT 10.0; Win64; x64) AppleWebKit/537.36 (KHTML, like Gecko) Chrome/79.0.3945.130 Safari/537.36",137,"[0.9, 0.5, 0.1]","[0.8, 0.4, 0.2]","[u'blue', u'black', u'red']","[u'left', u'middle', u'right']","[0.8, 0.4, 0.2]","[u'high', u'low', u'medium']","blue",49,"left","high","True","False",320,6800,NA
"AUAN582MLI96N","Thu Jan 30 2020 11:05:02 GMT-0600 (Central Standard Time)","Thu Jan 30 2020 11:22:50 GMT-0600 (Central Standard Time)","Mozilla/5.0 (Windows NT 10.0; Win64; x64) AppleWebKit/537.36 (KHTML, like Gecko) Chrome/79.0.3945.130 Safari/537.36",138,"[0.9, 0.5, 0.1]","[0.8, 0.4, 0.2]","[u'blue', u'black', u'red']","[u'left', u'middle', u'right']","[0.8, 0.4, 0.2]","[u'high', u'low', u'medium']","red",51,"right","medium","False","False",242,6750,NA
"AUAN582MLI96N","Thu Jan 30 2020 11:05:02 GMT-0600 (Central Standard Time)","Thu Jan 30 2020 11:22:50 GMT-0600 (Central Standard Time)","Mozilla/5.0 (Windows NT 10.0; Win64; x64) AppleWebKit/537.36 (KHTML, like Gecko) Chrome/79.0.3945.130 Safari/537.36",139,"[0.9, 0.5, 0.1]","[0.8, 0.4, 0.2]","[u'blue', u'black', u'red']","[u'left', u'middle', u'right']","[0.8, 0.4, 0.2]","[u'high', u'low', u'medium']","blue",49,"left","high","True","False",161,6850,NA
"AUAN582MLI96N","Thu Jan 30 2020 11:05:02 GMT-0600 (Central Standard Time)","Thu Jan 30 2020 11:22:50 GMT-0600 (Central Standard Time)","Mozilla/5.0 (Windows NT 10.0; Win64; x64) AppleWebKit/537.36 (KHTML, like Gecko) Chrome/79.0.3945.130 Safari/537.36",140,"[0.9, 0.5, 0.1]","[0.8, 0.4, 0.2]","[u'blue', u'black', u'red']","[u'left', u'middle', u'right']","[0.8, 0.4, 0.2]","[u'high', u'low', u'medium']","blue",49,"left","high","True","False",383,6950,NA
"AUAN582MLI96N","Thu Jan 30 2020 11:05:02 GMT-0600 (Central Standard Time)","Thu Jan 30 2020 11:22:50 GMT-0600 (Central Standard Time)","Mozilla/5.0 (Windows NT 10.0; Win64; x64) AppleWebKit/537.36 (KHTML, like Gecko) Chrome/79.0.3945.130 Safari/537.36",141,"[0.9, 0.5, 0.1]","[0.8, 0.4, 0.2]","[u'blue', u'black', u'red']","[u'left', u'middle', u'right']","[0.8, 0.4, 0.2]","[u'high', u'low', u'medium']","black",50,"middle","low","False","False",109,6900,NA
"AUAN582MLI96N","Thu Jan 30 2020 11:05:02 GMT-0600 (Central Standard Time)","Thu Jan 30 2020 11:22:50 GMT-0600 (Central Standard Time)","Mozilla/5.0 (Windows NT 10.0; Win64; x64) AppleWebKit/537.36 (KHTML, like Gecko) Chrome/79.0.3945.130 Safari/537.36",142,"[0.9, 0.5, 0.1]","[0.8, 0.4, 0.2]","[u'blue', u'black', u'red']","[u'left', u'middle', u'right']","[0.8, 0.4, 0.2]","[u'high', u'low', u'medium']","blue",49,"left","high","True","False",108,7000,NA
"AUAN582MLI96N","Thu Jan 30 2020 11:05:02 GMT-0600 (Central Standard Time)","Thu Jan 30 2020 11:22:50 GMT-0600 (Central Standard Time)","Mozilla/5.0 (Windows NT 10.0; Win64; x64) AppleWebKit/537.36 (KHTML, like Gecko) Chrome/79.0.3945.130 Safari/537.36",143,"[0.9, 0.5, 0.1]","[0.8, 0.4, 0.2]","[u'blue', u'black', u'red']","[u'left', u'middle', u'right']","[0.8, 0.4, 0.2]","[u'high', u'low', u'medium']","red",51,"right","medium","True","False",144,7100,NA
"AUAN582MLI96N","Thu Jan 30 2020 11:05:02 GMT-0600 (Central Standard Time)","Thu Jan 30 2020 11:22:50 GMT-0600 (Central Standard Time)","Mozilla/5.0 (Windows NT 10.0; Win64; x64) AppleWebKit/537.36 (KHTML, like Gecko) Chrome/79.0.3945.130 Safari/537.36",144,"[0.9, 0.5, 0.1]","[0.8, 0.4, 0.2]","[u'blue', u'black', u'red']","[u'left', u'middle', u'right']","[0.8, 0.4, 0.2]","[u'high', u'low', u'medium']","red",51,"right","medium","False","False",101,7050,NA
"AUAN582MLI96N","Thu Jan 30 2020 11:05:02 GMT-0600 (Central Standard Time)","Thu Jan 30 2020 11:22:50 GMT-0600 (Central Standard Time)","Mozilla/5.0 (Windows NT 10.0; Win64; x64) AppleWebKit/537.36 (KHTML, like Gecko) Chrome/79.0.3945.130 Safari/537.36",145,"[0.9, 0.5, 0.1]","[0.8, 0.4, 0.2]","[u'blue', u'black', u'red']","[u'left', u'middle', u'right']","[0.8, 0.4, 0.2]","[u'high', u'low', u'medium']","blue",49,"left","high","True","False",259,7150,NA
"AUAN582MLI96N","Thu Jan 30 2020 11:05:02 GMT-0600 (Central Standard Time)","Thu Jan 30 2020 11:22:50 GMT-0600 (Central Standard Time)","Mozilla/5.0 (Windows NT 10.0; Win64; x64) AppleWebKit/537.36 (KHTML, like Gecko) Chrome/79.0.3945.130 Safari/537.36",146,"[0.9, 0.5, 0.1]","[0.8, 0.4, 0.2]","[u'blue', u'black', u'red']","[u'left', u'middle', u'right']","[0.8, 0.4, 0.2]","[u'high', u'low', u'medium']","blue",49,"left","high","True","False",161,7250,NA
"AUAN582MLI96N","Thu Jan 30 2020 11:05:02 GMT-0600 (Central Standard Time)","Thu Jan 30 2020 11:22:50 GMT-0600 (Central Standard Time)","Mozilla/5.0 (Windows NT 10.0; Win64; x64) AppleWebKit/537.36 (KHTML, like Gecko) Chrome/79.0.3945.130 Safari/537.36",147,"[0.9, 0.5, 0.1]","[0.8, 0.4, 0.2]","[u'blue', u'black', u'red']","[u'left', u'middle', u'right']","[0.8, 0.4, 0.2]","[u'high', u'low', u'medium']","blue",49,"left","high","True","False",99,7350,NA
"AUAN582MLI96N","Thu Jan 30 2020 11:05:02 GMT-0600 (Central Standard Time)","Thu Jan 30 2020 11:22:50 GMT-0600 (Central Standard Time)","Mozilla/5.0 (Windows NT 10.0; Win64; x64) AppleWebKit/537.36 (KHTML, like Gecko) Chrome/79.0.3945.130 Safari/537.36",148,"[0.9, 0.5, 0.1]","[0.8, 0.4, 0.2]","[u'blue', u'black', u'red']","[u'left', u'middle', u'right']","[0.8, 0.4, 0.2]","[u'high', u'low', u'medium']","blue",49,"left","high","True","False",291,7450,NA
"AUAN582MLI96N","Thu Jan 30 2020 11:05:02 GMT-0600 (Central Standard Time)","Thu Jan 30 2020 11:22:50 GMT-0600 (Central Standard Time)","Mozilla/5.0 (Windows NT 10.0; Win64; x64) AppleWebKit/537.36 (KHTML, like Gecko) Chrome/79.0.3945.130 Safari/537.36",149,"[0.9, 0.5, 0.1]","[0.8, 0.4, 0.2]","[u'blue', u'black', u'red']","[u'left', u'middle', u'right']","[0.8, 0.4, 0.2]","[u'high', u'low', u'medium']","blue",49,"left","high","False","False",283,7400,NA
"AUAN582MLI96N","Thu Jan 30 2020 11:05:02 GMT-0600 (Central Standard Time)","Thu Jan 30 2020 11:22:50 GMT-0600 (Central Standard Time)","Mozilla/5.0 (Windows NT 10.0; Win64; x64) AppleWebKit/537.36 (KHTML, like Gecko) Chrome/79.0.3945.130 Safari/537.36",150,"[0.9, 0.5, 0.1]","[0.8, 0.4, 0.2]","[u'blue', u'black', u'red']","[u'left', u'middle', u'right']","[0.8, 0.4, 0.2]","[u'high', u'low', u'medium']","black",50,"middle","low","False","False",303,7350,NA
"AUAN582MLI96N","Thu Jan 30 2020 11:05:02 GMT-0600 (Central Standard Time)","Thu Jan 30 2020 11:22:50 GMT-0600 (Central Standard Time)","Mozilla/5.0 (Windows NT 10.0; Win64; x64) AppleWebKit/537.36 (KHTML, like Gecko) Chrome/79.0.3945.130 Safari/537.36",151,"[0.9, 0.5, 0.1]","[0.8, 0.4, 0.2]","[u'blue', u'black', u'red']","[u'left', u'middle', u'right']","[0.8, 0.4, 0.2]","[u'high', u'low', u'medium']","red",51,"right","medium","True","False",107,7450,NA
"AUAN582MLI96N","Thu Jan 30 2020 11:05:02 GMT-0600 (Central Standard Time)","Thu Jan 30 2020 11:22:50 GMT-0600 (Central Standard Time)","Mozilla/5.0 (Windows NT 10.0; Win64; x64) AppleWebKit/537.36 (KHTML, like Gecko) Chrome/79.0.3945.130 Safari/537.36",152,"[0.9, 0.5, 0.1]","[0.8, 0.4, 0.2]","[u'blue', u'black', u'red']","[u'left', u'middle', u'right']","[0.8, 0.4, 0.2]","[u'high', u'low', u'medium']","red",51,"right","medium","True","False",110,7550,NA
"AUAN582MLI96N","Thu Jan 30 2020 11:05:02 GMT-0600 (Central Standard Time)","Thu Jan 30 2020 11:22:50 GMT-0600 (Central Standard Time)","Mozilla/5.0 (Windows NT 10.0; Win64; x64) AppleWebKit/537.36 (KHTML, like Gecko) Chrome/79.0.3945.130 Safari/537.36",153,"[0.9, 0.5, 0.1]","[0.8, 0.4, 0.2]","[u'blue', u'black', u'red']","[u'left', u'middle', u'right']","[0.8, 0.4, 0.2]","[u'high', u'low', u'medium']","red",51,"right","medium","False","False",84,7500,NA
"AUAN582MLI96N","Thu Jan 30 2020 11:05:02 GMT-0600 (Central Standard Time)","Thu Jan 30 2020 11:22:50 GMT-0600 (Central Standard Time)","Mozilla/5.0 (Windows NT 10.0; Win64; x64) AppleWebKit/537.36 (KHTML, like Gecko) Chrome/79.0.3945.130 Safari/537.36",154,"[0.9, 0.5, 0.1]","[0.8, 0.4, 0.2]","[u'blue', u'black', u'red']","[u'left', u'middle', u'right']","[0.8, 0.4, 0.2]","[u'high', u'low', u'medium']","red",51,"right","medium","False","False",245,7450,NA
"AUAN582MLI96N","Thu Jan 30 2020 11:05:02 GMT-0600 (Central Standard Time)","Thu Jan 30 2020 11:22:50 GMT-0600 (Central Standard Time)","Mozilla/5.0 (Windows NT 10.0; Win64; x64) AppleWebKit/537.36 (KHTML, like Gecko) Chrome/79.0.3945.130 Safari/537.36",155,"[0.9, 0.5, 0.1]","[0.8, 0.4, 0.2]","[u'blue', u'black', u'red']","[u'left', u'middle', u'right']","[0.8, 0.4, 0.2]","[u'high', u'low', u'medium']","black",50,"middle","low","False","False",106,7400,NA
"AUAN582MLI96N","Thu Jan 30 2020 11:05:02 GMT-0600 (Central Standard Time)","Thu Jan 30 2020 11:22:50 GMT-0600 (Central Standard Time)","Mozilla/5.0 (Windows NT 10.0; Win64; x64) AppleWebKit/537.36 (KHTML, like Gecko) Chrome/79.0.3945.130 Safari/537.36",156,"[0.9, 0.5, 0.1]","[0.8, 0.4, 0.2]","[u'blue', u'black', u'red']","[u'left', u'middle', u'right']","[0.8, 0.4, 0.2]","[u'high', u'low', u'medium']","blue",49,"left","high","False","False",144,7350,NA
"AUAN582MLI96N","Thu Jan 30 2020 11:05:02 GMT-0600 (Central Standard Time)","Thu Jan 30 2020 11:22:50 GMT-0600 (Central Standard Time)","Mozilla/5.0 (Windows NT 10.0; Win64; x64) AppleWebKit/537.36 (KHTML, like Gecko) Chrome/79.0.3945.130 Safari/537.36",157,"[0.9, 0.5, 0.1]","[0.8, 0.4, 0.2]","[u'blue', u'black', u'red']","[u'left', u'middle', u'right']","[0.8, 0.4, 0.2]","[u'high', u'low', u'medium']","black",50,"middle","low","False","False",218,7300,NA
"AUAN582MLI96N","Thu Jan 30 2020 11:05:02 GMT-0600 (Central Standard Time)","Thu Jan 30 2020 11:22:50 GMT-0600 (Central Standard Time)","Mozilla/5.0 (Windows NT 10.0; Win64; x64) AppleWebKit/537.36 (KHTML, like Gecko) Chrome/79.0.3945.130 Safari/537.36",158,"[0.9, 0.5, 0.1]","[0.8, 0.4, 0.2]","[u'blue', u'black', u'red']","[u'left', u'middle', u'right']","[0.8, 0.4, 0.2]","[u'high', u'low', u'medium']","black",50,"middle","low","False","False",74,7250,NA
"AUAN582MLI96N","Thu Jan 30 2020 11:05:02 GMT-0600 (Central Standard Time)","Thu Jan 30 2020 11:22:50 GMT-0600 (Central Standard Time)","Mozilla/5.0 (Windows NT 10.0; Win64; x64) AppleWebKit/537.36 (KHTML, like Gecko) Chrome/79.0.3945.130 Safari/537.36",159,"[0.9, 0.5, 0.1]","[0.8, 0.4, 0.2]","[u'blue', u'black', u'red']","[u'left', u'middle', u'right']","[0.8, 0.4, 0.2]","[u'high', u'low', u'medium']","black",50,"middle","low","False","False",235,7200,NA
"AUAN582MLI96N","Thu Jan 30 2020 11:05:02 GMT-0600 (Central Standard Time)","Thu Jan 30 2020 11:22:50 GMT-0600 (Central Standard Time)","Mozilla/5.0 (Windows NT 10.0; Win64; x64) AppleWebKit/537.36 (KHTML, like Gecko) Chrome/79.0.3945.130 Safari/537.36",160,"[0.9, 0.5, 0.1]","[0.8, 0.4, 0.2]","[u'blue', u'black', u'red']","[u'left', u'middle', u'right']","[0.8, 0.4, 0.2]","[u'high', u'low', u'medium']","black",50,"middle","low","False","False",145,7150,NA
