"src_subject_id","start_time","end_time","browser","index","first_half_probabilities","second_half_probabilities","deck_color","deck_position","deck_probabilities","deck_contingencies","response_color","key_press","response_position","response_probability","reward_type","trial_type","rt","reward_tally","exclusion_reason"
"AC1VR0OO1GIN9","Thu Jan 30 2020 12:25:32 GMT-0500 (Eastern Standard Time)","Thu Jan 30 2020 12:45:50 GMT-0500 (Eastern Standard Time)","Mozilla/5.0 (Windows NT 6.3; Win64; x64) AppleWebKit/537.36 (KHTML, like Gecko) Chrome/79.0.3945.130 Safari/537.36",1,"[0.9, 0.5, 0.1]","[0.8, 0.4, 0.2]","[u'black', u'red', u'blue']","[u'left', u'middle', u'right']","[0.9, 0.5, 0.1]","[u'high', u'low', u'medium']","red",50,"middle","low","True","False",3252,100,NA
"AC1VR0OO1GIN9","Thu Jan 30 2020 12:25:32 GMT-0500 (Eastern Standard Time)","Thu Jan 30 2020 12:45:50 GMT-0500 (Eastern Standard Time)","Mozilla/5.0 (Windows NT 6.3; Win64; x64) AppleWebKit/537.36 (KHTML, like Gecko) Chrome/79.0.3945.130 Safari/537.36",2,"[0.9, 0.5, 0.1]","[0.8, 0.4, 0.2]","[u'black', u'red', u'blue']","[u'left', u'middle', u'right']","[0.9, 0.5, 0.1]","[u'high', u'low', u'medium']","blue",51,"right","medium","False","False",159,50,NA
"AC1VR0OO1GIN9","Thu Jan 30 2020 12:25:32 GMT-0500 (Eastern Standard Time)","Thu Jan 30 2020 12:45:50 GMT-0500 (Eastern Standard Time)","Mozilla/5.0 (Windows NT 6.3; Win64; x64) AppleWebKit/537.36 (KHTML, like Gecko) Chrome/79.0.3945.130 Safari/537.36",3,"[0.9, 0.5, 0.1]","[0.8, 0.4, 0.2]","[u'black', u'red', u'blue']","[u'left', u'middle', u'right']","[0.9, 0.5, 0.1]","[u'high', u'low', u'medium']","black",49,"left","high","False","False",518,0,NA
"AC1VR0OO1GIN9","Thu Jan 30 2020 12:25:32 GMT-0500 (Eastern Standard Time)","Thu Jan 30 2020 12:45:50 GMT-0500 (Eastern Standard Time)","Mozilla/5.0 (Windows NT 6.3; Win64; x64) AppleWebKit/537.36 (KHTML, like Gecko) Chrome/79.0.3945.130 Safari/537.36",4,"[0.9, 0.5, 0.1]","[0.8, 0.4, 0.2]","[u'black', u'red', u'blue']","[u'left', u'middle', u'right']","[0.9, 0.5, 0.1]","[u'high', u'low', u'medium']","red",50,"middle","low","False","False",163,-50,NA
"AC1VR0OO1GIN9","Thu Jan 30 2020 12:25:32 GMT-0500 (Eastern Standard Time)","Thu Jan 30 2020 12:45:50 GMT-0500 (Eastern Standard Time)","Mozilla/5.0 (Windows NT 6.3; Win64; x64) AppleWebKit/537.36 (KHTML, like Gecko) Chrome/79.0.3945.130 Safari/537.36",5,"[0.9, 0.5, 0.1]","[0.8, 0.4, 0.2]","[u'black', u'red', u'blue']","[u'left', u'middle', u'right']","[0.9, 0.5, 0.1]","[u'high', u'low', u'medium']","black",49,"left","high","True","False",341,50,NA
"AC1VR0OO1GIN9","Thu Jan 30 2020 12:25:32 GMT-0500 (Eastern Standard Time)","Thu Jan 30 2020 12:45:50 GMT-0500 (Eastern Standard Time)","Mozilla/5.0 (Windows NT 6.3; Win64; x64) AppleWebKit/537.36 (KHTML, like Gecko) Chrome/79.0.3945.130 Safari/537.36",6,"[0.9, 0.5, 0.1]","[0.8, 0.4, 0.2]","[u'black', u'red', u'blue']","[u'left', u'middle', u'right']","[0.9, 0.5, 0.1]","[u'high', u'low', u'medium']","blue",51,"right","medium","False","False",1506,0,NA
"AC1VR0OO1GIN9","Thu Jan 30 2020 12:25:32 GMT-0500 (Eastern Standard Time)","Thu Jan 30 2020 12:45:50 GMT-0500 (Eastern Standard Time)","Mozilla/5.0 (Windows NT 6.3; Win64; x64) AppleWebKit/537.36 (KHTML, like Gecko) Chrome/79.0.3945.130 Safari/537.36",7,"[0.9, 0.5, 0.1]","[0.8, 0.4, 0.2]","[u'black', u'red', u'blue']","[u'left', u'middle', u'right']","[0.9, 0.5, 0.1]","[u'high', u'low', u'medium']","blue",51,"right","medium","False","False",148,-50,NA
"AC1VR0OO1GIN9","Thu Jan 30 2020 12:25:32 GMT-0500 (Eastern Standard Time)","Thu Jan 30 2020 12:45:50 GMT-0500 (Eastern Standard Time)","Mozilla/5.0 (Windows NT 6.3; Win64; x64) AppleWebKit/537.36 (KHTML, like Gecko) Chrome/79.0.3945.130 Safari/537.36",8,"[0.9, 0.5, 0.1]","[0.8, 0.4, 0.2]","[u'black', u'red', u'blue']","[u'left', u'middle', u'right']","[0.9, 0.5, 0.1]","[u'high', u'low', u'medium']","black",49,"left","high","True","False",166,50,NA
"AC1VR0OO1GIN9","Thu Jan 30 2020 12:25:32 GMT-0500 (Eastern Standard Time)","Thu Jan 30 2020 12:45:50 GMT-0500 (Eastern Standard Time)","Mozilla/5.0 (Windows NT 6.3; Win64; x64) AppleWebKit/537.36 (KHTML, like Gecko) Chrome/79.0.3945.130 Safari/537.36",9,"[0.9, 0.5, 0.1]","[0.8, 0.4, 0.2]","[u'black', u'red', u'blue']","[u'left', u'middle', u'right']","[0.9, 0.5, 0.1]","[u'high', u'low', u'medium']","red",50,"middle","low","False","False",4386,0,NA
"AC1VR0OO1GIN9","Thu Jan 30 2020 12:25:32 GMT-0500 (Eastern Standard Time)","Thu Jan 30 2020 12:45:50 GMT-0500 (Eastern Standard Time)","Mozilla/5.0 (Windows NT 6.3; Win64; x64) AppleWebKit/537.36 (KHTML, like Gecko) Chrome/79.0.3945.130 Safari/537.36",10,"[0.9, 0.5, 0.1]","[0.8, 0.4, 0.2]","[u'black', u'red', u'blue']","[u'left', u'middle', u'right']","[0.9, 0.5, 0.1]","[u'high', u'low', u'medium']","black",49,"left","high","True","False",396,100,NA
"AC1VR0OO1GIN9","Thu Jan 30 2020 12:25:32 GMT-0500 (Eastern Standard Time)","Thu Jan 30 2020 12:45:50 GMT-0500 (Eastern Standard Time)","Mozilla/5.0 (Windows NT 6.3; Win64; x64) AppleWebKit/537.36 (KHTML, like Gecko) Chrome/79.0.3945.130 Safari/537.36",11,"[0.9, 0.5, 0.1]","[0.8, 0.4, 0.2]","[u'black', u'red', u'blue']","[u'left', u'middle', u'right']","[0.9, 0.5, 0.1]","[u'high', u'low', u'medium']","black",49,"left","high","False","False",86,50,NA
"AC1VR0OO1GIN9","Thu Jan 30 2020 12:25:32 GMT-0500 (Eastern Standard Time)","Thu Jan 30 2020 12:45:50 GMT-0500 (Eastern Standard Time)","Mozilla/5.0 (Windows NT 6.3; Win64; x64) AppleWebKit/537.36 (KHTML, like Gecko) Chrome/79.0.3945.130 Safari/537.36",12,"[0.9, 0.5, 0.1]","[0.8, 0.4, 0.2]","[u'black', u'red', u'blue']","[u'left', u'middle', u'right']","[0.9, 0.5, 0.1]","[u'high', u'low', u'medium']","red",50,"middle","low","False","False",4203,0,NA
"AC1VR0OO1GIN9","Thu Jan 30 2020 12:25:32 GMT-0500 (Eastern Standard Time)","Thu Jan 30 2020 12:45:50 GMT-0500 (Eastern Standard Time)","Mozilla/5.0 (Windows NT 6.3; Win64; x64) AppleWebKit/537.36 (KHTML, like Gecko) Chrome/79.0.3945.130 Safari/537.36",13,"[0.9, 0.5, 0.1]","[0.8, 0.4, 0.2]","[u'black', u'red', u'blue']","[u'left', u'middle', u'right']","[0.9, 0.5, 0.1]","[u'high', u'low', u'medium']","blue",51,"right","medium","False","False",1313,-50,NA
"AC1VR0OO1GIN9","Thu Jan 30 2020 12:25:32 GMT-0500 (Eastern Standard Time)","Thu Jan 30 2020 12:45:50 GMT-0500 (Eastern Standard Time)","Mozilla/5.0 (Windows NT 6.3; Win64; x64) AppleWebKit/537.36 (KHTML, like Gecko) Chrome/79.0.3945.130 Safari/537.36",14,"[0.9, 0.5, 0.1]","[0.8, 0.4, 0.2]","[u'black', u'red', u'blue']","[u'left', u'middle', u'right']","[0.9, 0.5, 0.1]","[u'high', u'low', u'medium']","black",49,"left","high","True","False",621,50,NA
"AC1VR0OO1GIN9","Thu Jan 30 2020 12:25:32 GMT-0500 (Eastern Standard Time)","Thu Jan 30 2020 12:45:50 GMT-0500 (Eastern Standard Time)","Mozilla/5.0 (Windows NT 6.3; Win64; x64) AppleWebKit/537.36 (KHTML, like Gecko) Chrome/79.0.3945.130 Safari/537.36",15,"[0.9, 0.5, 0.1]","[0.8, 0.4, 0.2]","[u'black', u'red', u'blue']","[u'left', u'middle', u'right']","[0.9, 0.5, 0.1]","[u'high', u'low', u'medium']","blue",51,"right","medium","False","False",1491,0,NA
"AC1VR0OO1GIN9","Thu Jan 30 2020 12:25:32 GMT-0500 (Eastern Standard Time)","Thu Jan 30 2020 12:45:50 GMT-0500 (Eastern Standard Time)","Mozilla/5.0 (Windows NT 6.3; Win64; x64) AppleWebKit/537.36 (KHTML, like Gecko) Chrome/79.0.3945.130 Safari/537.36",16,"[0.9, 0.5, 0.1]","[0.8, 0.4, 0.2]","[u'black', u'red', u'blue']","[u'left', u'middle', u'right']","[0.9, 0.5, 0.1]","[u'high', u'low', u'medium']","black",49,"left","high","True","False",1598,100,NA
"AC1VR0OO1GIN9","Thu Jan 30 2020 12:25:32 GMT-0500 (Eastern Standard Time)","Thu Jan 30 2020 12:45:50 GMT-0500 (Eastern Standard Time)","Mozilla/5.0 (Windows NT 6.3; Win64; x64) AppleWebKit/537.36 (KHTML, like Gecko) Chrome/79.0.3945.130 Safari/537.36",17,"[0.9, 0.5, 0.1]","[0.8, 0.4, 0.2]","[u'black', u'red', u'blue']","[u'left', u'middle', u'right']","[0.9, 0.5, 0.1]","[u'high', u'low', u'medium']","red",50,"middle","low","False","False",1006,50,NA
"AC1VR0OO1GIN9","Thu Jan 30 2020 12:25:32 GMT-0500 (Eastern Standard Time)","Thu Jan 30 2020 12:45:50 GMT-0500 (Eastern Standard Time)","Mozilla/5.0 (Windows NT 6.3; Win64; x64) AppleWebKit/537.36 (KHTML, like Gecko) Chrome/79.0.3945.130 Safari/537.36",18,"[0.9, 0.5, 0.1]","[0.8, 0.4, 0.2]","[u'black', u'red', u'blue']","[u'left', u'middle', u'right']","[0.9, 0.5, 0.1]","[u'high', u'low', u'medium']","black",49,"left","high","False","False",550,0,NA
"AC1VR0OO1GIN9","Thu Jan 30 2020 12:25:32 GMT-0500 (Eastern Standard Time)","Thu Jan 30 2020 12:45:50 GMT-0500 (Eastern Standard Time)","Mozilla/5.0 (Windows NT 6.3; Win64; x64) AppleWebKit/537.36 (KHTML, like Gecko) Chrome/79.0.3945.130 Safari/537.36",19,"[0.9, 0.5, 0.1]","[0.8, 0.4, 0.2]","[u'black', u'red', u'blue']","[u'left', u'middle', u'right']","[0.9, 0.5, 0.1]","[u'high', u'low', u'medium']","red",50,"middle","low","False","False",2086,-50,NA
"AC1VR0OO1GIN9","Thu Jan 30 2020 12:25:32 GMT-0500 (Eastern Standard Time)","Thu Jan 30 2020 12:45:50 GMT-0500 (Eastern Standard Time)","Mozilla/5.0 (Windows NT 6.3; Win64; x64) AppleWebKit/537.36 (KHTML, like Gecko) Chrome/79.0.3945.130 Safari/537.36",20,"[0.9, 0.5, 0.1]","[0.8, 0.4, 0.2]","[u'black', u'red', u'blue']","[u'left', u'middle', u'right']","[0.9, 0.5, 0.1]","[u'high', u'low', u'medium']","blue",51,"right","medium","True","False",731,50,NA
"AC1VR0OO1GIN9","Thu Jan 30 2020 12:25:32 GMT-0500 (Eastern Standard Time)","Thu Jan 30 2020 12:45:50 GMT-0500 (Eastern Standard Time)","Mozilla/5.0 (Windows NT 6.3; Win64; x64) AppleWebKit/537.36 (KHTML, like Gecko) Chrome/79.0.3945.130 Safari/537.36",21,"[0.9, 0.5, 0.1]","[0.8, 0.4, 0.2]","[u'black', u'red', u'blue']","[u'left', u'middle', u'right']","[0.9, 0.5, 0.1]","[u'high', u'low', u'medium']","red",50,"middle","low","False","False",1274,0,NA
"AC1VR0OO1GIN9","Thu Jan 30 2020 12:25:32 GMT-0500 (Eastern Standard Time)","Thu Jan 30 2020 12:45:50 GMT-0500 (Eastern Standard Time)","Mozilla/5.0 (Windows NT 6.3; Win64; x64) AppleWebKit/537.36 (KHTML, like Gecko) Chrome/79.0.3945.130 Safari/537.36",22,"[0.9, 0.5, 0.1]","[0.8, 0.4, 0.2]","[u'black', u'red', u'blue']","[u'left', u'middle', u'right']","[0.9, 0.5, 0.1]","[u'high', u'low', u'medium']","blue",51,"right","medium","False","False",2662,-50,NA
"AC1VR0OO1GIN9","Thu Jan 30 2020 12:25:32 GMT-0500 (Eastern Standard Time)","Thu Jan 30 2020 12:45:50 GMT-0500 (Eastern Standard Time)","Mozilla/5.0 (Windows NT 6.3; Win64; x64) AppleWebKit/537.36 (KHTML, like Gecko) Chrome/79.0.3945.130 Safari/537.36",23,"[0.9, 0.5, 0.1]","[0.8, 0.4, 0.2]","[u'black', u'red', u'blue']","[u'left', u'middle', u'right']","[0.9, 0.5, 0.1]","[u'high', u'low', u'medium']","red",50,"middle","low","False","False",1333,-100,NA
"AC1VR0OO1GIN9","Thu Jan 30 2020 12:25:32 GMT-0500 (Eastern Standard Time)","Thu Jan 30 2020 12:45:50 GMT-0500 (Eastern Standard Time)","Mozilla/5.0 (Windows NT 6.3; Win64; x64) AppleWebKit/537.36 (KHTML, like Gecko) Chrome/79.0.3945.130 Safari/537.36",24,"[0.9, 0.5, 0.1]","[0.8, 0.4, 0.2]","[u'black', u'red', u'blue']","[u'left', u'middle', u'right']","[0.9, 0.5, 0.1]","[u'high', u'low', u'medium']","black",49,"left","high","True","False",43232,0,NA
"AC1VR0OO1GIN9","Thu Jan 30 2020 12:25:32 GMT-0500 (Eastern Standard Time)","Thu Jan 30 2020 12:45:50 GMT-0500 (Eastern Standard Time)","Mozilla/5.0 (Windows NT 6.3; Win64; x64) AppleWebKit/537.36 (KHTML, like Gecko) Chrome/79.0.3945.130 Safari/537.36",25,"[0.9, 0.5, 0.1]","[0.8, 0.4, 0.2]","[u'black', u'red', u'blue']","[u'left', u'middle', u'right']","[0.9, 0.5, 0.1]","[u'high', u'low', u'medium']","red",50,"middle","low","False","False",560,-50,NA
"AC1VR0OO1GIN9","Thu Jan 30 2020 12:25:32 GMT-0500 (Eastern Standard Time)","Thu Jan 30 2020 12:45:50 GMT-0500 (Eastern Standard Time)","Mozilla/5.0 (Windows NT 6.3; Win64; x64) AppleWebKit/537.36 (KHTML, like Gecko) Chrome/79.0.3945.130 Safari/537.36",26,"[0.9, 0.5, 0.1]","[0.8, 0.4, 0.2]","[u'black', u'red', u'blue']","[u'left', u'middle', u'right']","[0.9, 0.5, 0.1]","[u'high', u'low', u'medium']","red",50,"middle","low","False","False",20727,-100,NA
"AC1VR0OO1GIN9","Thu Jan 30 2020 12:25:32 GMT-0500 (Eastern Standard Time)","Thu Jan 30 2020 12:45:50 GMT-0500 (Eastern Standard Time)","Mozilla/5.0 (Windows NT 6.3; Win64; x64) AppleWebKit/537.36 (KHTML, like Gecko) Chrome/79.0.3945.130 Safari/537.36",27,"[0.9, 0.5, 0.1]","[0.8, 0.4, 0.2]","[u'black', u'red', u'blue']","[u'left', u'middle', u'right']","[0.9, 0.5, 0.1]","[u'high', u'low', u'medium']","red",50,"middle","low","False","False",89,-150,NA
"AC1VR0OO1GIN9","Thu Jan 30 2020 12:25:32 GMT-0500 (Eastern Standard Time)","Thu Jan 30 2020 12:45:50 GMT-0500 (Eastern Standard Time)","Mozilla/5.0 (Windows NT 6.3; Win64; x64) AppleWebKit/537.36 (KHTML, like Gecko) Chrome/79.0.3945.130 Safari/537.36",28,"[0.9, 0.5, 0.1]","[0.8, 0.4, 0.2]","[u'black', u'red', u'blue']","[u'left', u'middle', u'right']","[0.9, 0.5, 0.1]","[u'high', u'low', u'medium']","red",50,"middle","low","False","False",116,-200,NA
"AC1VR0OO1GIN9","Thu Jan 30 2020 12:25:32 GMT-0500 (Eastern Standard Time)","Thu Jan 30 2020 12:45:50 GMT-0500 (Eastern Standard Time)","Mozilla/5.0 (Windows NT 6.3; Win64; x64) AppleWebKit/537.36 (KHTML, like Gecko) Chrome/79.0.3945.130 Safari/537.36",29,"[0.9, 0.5, 0.1]","[0.8, 0.4, 0.2]","[u'black', u'red', u'blue']","[u'left', u'middle', u'right']","[0.9, 0.5, 0.1]","[u'high', u'low', u'medium']","blue",51,"right","medium","False","False",14,-250,NA
"AC1VR0OO1GIN9","Thu Jan 30 2020 12:25:32 GMT-0500 (Eastern Standard Time)","Thu Jan 30 2020 12:45:50 GMT-0500 (Eastern Standard Time)","Mozilla/5.0 (Windows NT 6.3; Win64; x64) AppleWebKit/537.36 (KHTML, like Gecko) Chrome/79.0.3945.130 Safari/537.36",30,"[0.9, 0.5, 0.1]","[0.8, 0.4, 0.2]","[u'black', u'red', u'blue']","[u'left', u'middle', u'right']","[0.9, 0.5, 0.1]","[u'high', u'low', u'medium']","black",49,"left","high","True","False",58,-150,NA
"AC1VR0OO1GIN9","Thu Jan 30 2020 12:25:32 GMT-0500 (Eastern Standard Time)","Thu Jan 30 2020 12:45:50 GMT-0500 (Eastern Standard Time)","Mozilla/5.0 (Windows NT 6.3; Win64; x64) AppleWebKit/537.36 (KHTML, like Gecko) Chrome/79.0.3945.130 Safari/537.36",31,"[0.9, 0.5, 0.1]","[0.8, 0.4, 0.2]","[u'black', u'red', u'blue']","[u'left', u'middle', u'right']","[0.9, 0.5, 0.1]","[u'high', u'low', u'medium']","red",50,"middle","low","False","False",1270,-200,NA
"AC1VR0OO1GIN9","Thu Jan 30 2020 12:25:32 GMT-0500 (Eastern Standard Time)","Thu Jan 30 2020 12:45:50 GMT-0500 (Eastern Standard Time)","Mozilla/5.0 (Windows NT 6.3; Win64; x64) AppleWebKit/537.36 (KHTML, like Gecko) Chrome/79.0.3945.130 Safari/537.36",32,"[0.9, 0.5, 0.1]","[0.8, 0.4, 0.2]","[u'black', u'red', u'blue']","[u'left', u'middle', u'right']","[0.9, 0.5, 0.1]","[u'high', u'low', u'medium']","black",49,"left","high","True","False",140,-100,NA
"AC1VR0OO1GIN9","Thu Jan 30 2020 12:25:32 GMT-0500 (Eastern Standard Time)","Thu Jan 30 2020 12:45:50 GMT-0500 (Eastern Standard Time)","Mozilla/5.0 (Windows NT 6.3; Win64; x64) AppleWebKit/537.36 (KHTML, like Gecko) Chrome/79.0.3945.130 Safari/537.36",33,"[0.9, 0.5, 0.1]","[0.8, 0.4, 0.2]","[u'black', u'red', u'blue']","[u'left', u'middle', u'right']","[0.9, 0.5, 0.1]","[u'high', u'low', u'medium']","black",49,"left","high","True","False",516,0,NA
"AC1VR0OO1GIN9","Thu Jan 30 2020 12:25:32 GMT-0500 (Eastern Standard Time)","Thu Jan 30 2020 12:45:50 GMT-0500 (Eastern Standard Time)","Mozilla/5.0 (Windows NT 6.3; Win64; x64) AppleWebKit/537.36 (KHTML, like Gecko) Chrome/79.0.3945.130 Safari/537.36",34,"[0.9, 0.5, 0.1]","[0.8, 0.4, 0.2]","[u'black', u'red', u'blue']","[u'left', u'middle', u'right']","[0.9, 0.5, 0.1]","[u'high', u'low', u'medium']","blue",51,"right","medium","False","False",144,-50,NA
"AC1VR0OO1GIN9","Thu Jan 30 2020 12:25:32 GMT-0500 (Eastern Standard Time)","Thu Jan 30 2020 12:45:50 GMT-0500 (Eastern Standard Time)","Mozilla/5.0 (Windows NT 6.3; Win64; x64) AppleWebKit/537.36 (KHTML, like Gecko) Chrome/79.0.3945.130 Safari/537.36",35,"[0.9, 0.5, 0.1]","[0.8, 0.4, 0.2]","[u'black', u'red', u'blue']","[u'left', u'middle', u'right']","[0.9, 0.5, 0.1]","[u'high', u'low', u'medium']","red",50,"middle","low","False","False",640,-100,NA
"AC1VR0OO1GIN9","Thu Jan 30 2020 12:25:32 GMT-0500 (Eastern Standard Time)","Thu Jan 30 2020 12:45:50 GMT-0500 (Eastern Standard Time)","Mozilla/5.0 (Windows NT 6.3; Win64; x64) AppleWebKit/537.36 (KHTML, like Gecko) Chrome/79.0.3945.130 Safari/537.36",36,"[0.9, 0.5, 0.1]","[0.8, 0.4, 0.2]","[u'black', u'red', u'blue']","[u'left', u'middle', u'right']","[0.9, 0.5, 0.1]","[u'high', u'low', u'medium']","black",49,"left","high","True","False",568,0,NA
"AC1VR0OO1GIN9","Thu Jan 30 2020 12:25:32 GMT-0500 (Eastern Standard Time)","Thu Jan 30 2020 12:45:50 GMT-0500 (Eastern Standard Time)","Mozilla/5.0 (Windows NT 6.3; Win64; x64) AppleWebKit/537.36 (KHTML, like Gecko) Chrome/79.0.3945.130 Safari/537.36",37,"[0.9, 0.5, 0.1]","[0.8, 0.4, 0.2]","[u'black', u'red', u'blue']","[u'left', u'middle', u'right']","[0.9, 0.5, 0.1]","[u'high', u'low', u'medium']","red",50,"middle","low","False","False",938,-50,NA
"AC1VR0OO1GIN9","Thu Jan 30 2020 12:25:32 GMT-0500 (Eastern Standard Time)","Thu Jan 30 2020 12:45:50 GMT-0500 (Eastern Standard Time)","Mozilla/5.0 (Windows NT 6.3; Win64; x64) AppleWebKit/537.36 (KHTML, like Gecko) Chrome/79.0.3945.130 Safari/537.36",38,"[0.9, 0.5, 0.1]","[0.8, 0.4, 0.2]","[u'black', u'red', u'blue']","[u'left', u'middle', u'right']","[0.9, 0.5, 0.1]","[u'high', u'low', u'medium']","black",49,"left","high","False","False",380,-100,NA
"AC1VR0OO1GIN9","Thu Jan 30 2020 12:25:32 GMT-0500 (Eastern Standard Time)","Thu Jan 30 2020 12:45:50 GMT-0500 (Eastern Standard Time)","Mozilla/5.0 (Windows NT 6.3; Win64; x64) AppleWebKit/537.36 (KHTML, like Gecko) Chrome/79.0.3945.130 Safari/537.36",39,"[0.9, 0.5, 0.1]","[0.8, 0.4, 0.2]","[u'black', u'red', u'blue']","[u'left', u'middle', u'right']","[0.9, 0.5, 0.1]","[u'high', u'low', u'medium']","black",49,"left","high","True","False",627,0,NA
"AC1VR0OO1GIN9","Thu Jan 30 2020 12:25:32 GMT-0500 (Eastern Standard Time)","Thu Jan 30 2020 12:45:50 GMT-0500 (Eastern Standard Time)","Mozilla/5.0 (Windows NT 6.3; Win64; x64) AppleWebKit/537.36 (KHTML, like Gecko) Chrome/79.0.3945.130 Safari/537.36",40,"[0.9, 0.5, 0.1]","[0.8, 0.4, 0.2]","[u'black', u'red', u'blue']","[u'left', u'middle', u'right']","[0.9, 0.5, 0.1]","[u'high', u'low', u'medium']","blue",51,"right","medium","False","False",1031,-50,NA
"AC1VR0OO1GIN9","Thu Jan 30 2020 12:25:32 GMT-0500 (Eastern Standard Time)","Thu Jan 30 2020 12:45:50 GMT-0500 (Eastern Standard Time)","Mozilla/5.0 (Windows NT 6.3; Win64; x64) AppleWebKit/537.36 (KHTML, like Gecko) Chrome/79.0.3945.130 Safari/537.36",41,"[0.9, 0.5, 0.1]","[0.8, 0.4, 0.2]","[u'black', u'red', u'blue']","[u'left', u'middle', u'right']","[0.9, 0.5, 0.1]","[u'medium', u'high', u'low']","black",49,"left","medium","False","False",17510,-100,NA
"AC1VR0OO1GIN9","Thu Jan 30 2020 12:25:32 GMT-0500 (Eastern Standard Time)","Thu Jan 30 2020 12:45:50 GMT-0500 (Eastern Standard Time)","Mozilla/5.0 (Windows NT 6.3; Win64; x64) AppleWebKit/537.36 (KHTML, like Gecko) Chrome/79.0.3945.130 Safari/537.36",42,"[0.9, 0.5, 0.1]","[0.8, 0.4, 0.2]","[u'black', u'red', u'blue']","[u'left', u'middle', u'right']","[0.9, 0.5, 0.1]","[u'medium', u'high', u'low']","blue",51,"right","low","False","False",1488,-150,NA
"AC1VR0OO1GIN9","Thu Jan 30 2020 12:25:32 GMT-0500 (Eastern Standard Time)","Thu Jan 30 2020 12:45:50 GMT-0500 (Eastern Standard Time)","Mozilla/5.0 (Windows NT 6.3; Win64; x64) AppleWebKit/537.36 (KHTML, like Gecko) Chrome/79.0.3945.130 Safari/537.36",43,"[0.9, 0.5, 0.1]","[0.8, 0.4, 0.2]","[u'black', u'red', u'blue']","[u'left', u'middle', u'right']","[0.9, 0.5, 0.1]","[u'medium', u'high', u'low']","red",50,"middle","high","True","False",660,-50,NA
"AC1VR0OO1GIN9","Thu Jan 30 2020 12:25:32 GMT-0500 (Eastern Standard Time)","Thu Jan 30 2020 12:45:50 GMT-0500 (Eastern Standard Time)","Mozilla/5.0 (Windows NT 6.3; Win64; x64) AppleWebKit/537.36 (KHTML, like Gecko) Chrome/79.0.3945.130 Safari/537.36",44,"[0.9, 0.5, 0.1]","[0.8, 0.4, 0.2]","[u'black', u'red', u'blue']","[u'left', u'middle', u'right']","[0.9, 0.5, 0.1]","[u'medium', u'high', u'low']","black",49,"left","medium","False","False",1145,-100,NA
"AC1VR0OO1GIN9","Thu Jan 30 2020 12:25:32 GMT-0500 (Eastern Standard Time)","Thu Jan 30 2020 12:45:50 GMT-0500 (Eastern Standard Time)","Mozilla/5.0 (Windows NT 6.3; Win64; x64) AppleWebKit/537.36 (KHTML, like Gecko) Chrome/79.0.3945.130 Safari/537.36",45,"[0.9, 0.5, 0.1]","[0.8, 0.4, 0.2]","[u'black', u'red', u'blue']","[u'left', u'middle', u'right']","[0.9, 0.5, 0.1]","[u'medium', u'high', u'low']","black",49,"left","medium","False","False",3181,-150,NA
"AC1VR0OO1GIN9","Thu Jan 30 2020 12:25:32 GMT-0500 (Eastern Standard Time)","Thu Jan 30 2020 12:45:50 GMT-0500 (Eastern Standard Time)","Mozilla/5.0 (Windows NT 6.3; Win64; x64) AppleWebKit/537.36 (KHTML, like Gecko) Chrome/79.0.3945.130 Safari/537.36",46,"[0.9, 0.5, 0.1]","[0.8, 0.4, 0.2]","[u'black', u'red', u'blue']","[u'left', u'middle', u'right']","[0.9, 0.5, 0.1]","[u'medium', u'high', u'low']","red",50,"middle","high","True","False",418,-50,NA
"AC1VR0OO1GIN9","Thu Jan 30 2020 12:25:32 GMT-0500 (Eastern Standard Time)","Thu Jan 30 2020 12:45:50 GMT-0500 (Eastern Standard Time)","Mozilla/5.0 (Windows NT 6.3; Win64; x64) AppleWebKit/537.36 (KHTML, like Gecko) Chrome/79.0.3945.130 Safari/537.36",47,"[0.9, 0.5, 0.1]","[0.8, 0.4, 0.2]","[u'black', u'red', u'blue']","[u'left', u'middle', u'right']","[0.9, 0.5, 0.1]","[u'medium', u'high', u'low']","black",49,"left","medium","False","False",1663,-100,NA
"AC1VR0OO1GIN9","Thu Jan 30 2020 12:25:32 GMT-0500 (Eastern Standard Time)","Thu Jan 30 2020 12:45:50 GMT-0500 (Eastern Standard Time)","Mozilla/5.0 (Windows NT 6.3; Win64; x64) AppleWebKit/537.36 (KHTML, like Gecko) Chrome/79.0.3945.130 Safari/537.36",48,"[0.9, 0.5, 0.1]","[0.8, 0.4, 0.2]","[u'black', u'red', u'blue']","[u'left', u'middle', u'right']","[0.9, 0.5, 0.1]","[u'medium', u'high', u'low']","red",50,"middle","high","True","False",970,0,NA
"AC1VR0OO1GIN9","Thu Jan 30 2020 12:25:32 GMT-0500 (Eastern Standard Time)","Thu Jan 30 2020 12:45:50 GMT-0500 (Eastern Standard Time)","Mozilla/5.0 (Windows NT 6.3; Win64; x64) AppleWebKit/537.36 (KHTML, like Gecko) Chrome/79.0.3945.130 Safari/537.36",49,"[0.9, 0.5, 0.1]","[0.8, 0.4, 0.2]","[u'black', u'red', u'blue']","[u'left', u'middle', u'right']","[0.9, 0.5, 0.1]","[u'medium', u'high', u'low']","red",50,"middle","high","True","False",1021,100,NA
"AC1VR0OO1GIN9","Thu Jan 30 2020 12:25:32 GMT-0500 (Eastern Standard Time)","Thu Jan 30 2020 12:45:50 GMT-0500 (Eastern Standard Time)","Mozilla/5.0 (Windows NT 6.3; Win64; x64) AppleWebKit/537.36 (KHTML, like Gecko) Chrome/79.0.3945.130 Safari/537.36",50,"[0.9, 0.5, 0.1]","[0.8, 0.4, 0.2]","[u'black', u'red', u'blue']","[u'left', u'middle', u'right']","[0.9, 0.5, 0.1]","[u'medium', u'high', u'low']","red",50,"middle","high","True","False",486,200,NA
"AC1VR0OO1GIN9","Thu Jan 30 2020 12:25:32 GMT-0500 (Eastern Standard Time)","Thu Jan 30 2020 12:45:50 GMT-0500 (Eastern Standard Time)","Mozilla/5.0 (Windows NT 6.3; Win64; x64) AppleWebKit/537.36 (KHTML, like Gecko) Chrome/79.0.3945.130 Safari/537.36",51,"[0.9, 0.5, 0.1]","[0.8, 0.4, 0.2]","[u'black', u'red', u'blue']","[u'left', u'middle', u'right']","[0.9, 0.5, 0.1]","[u'medium', u'high', u'low']","red",50,"middle","high","True","False",865,300,NA
"AC1VR0OO1GIN9","Thu Jan 30 2020 12:25:32 GMT-0500 (Eastern Standard Time)","Thu Jan 30 2020 12:45:50 GMT-0500 (Eastern Standard Time)","Mozilla/5.0 (Windows NT 6.3; Win64; x64) AppleWebKit/537.36 (KHTML, like Gecko) Chrome/79.0.3945.130 Safari/537.36",52,"[0.9, 0.5, 0.1]","[0.8, 0.4, 0.2]","[u'black', u'red', u'blue']","[u'left', u'middle', u'right']","[0.9, 0.5, 0.1]","[u'medium', u'high', u'low']","red",50,"middle","high","False","False",421,250,NA
"AC1VR0OO1GIN9","Thu Jan 30 2020 12:25:32 GMT-0500 (Eastern Standard Time)","Thu Jan 30 2020 12:45:50 GMT-0500 (Eastern Standard Time)","Mozilla/5.0 (Windows NT 6.3; Win64; x64) AppleWebKit/537.36 (KHTML, like Gecko) Chrome/79.0.3945.130 Safari/537.36",53,"[0.9, 0.5, 0.1]","[0.8, 0.4, 0.2]","[u'black', u'red', u'blue']","[u'left', u'middle', u'right']","[0.9, 0.5, 0.1]","[u'medium', u'high', u'low']","red",50,"middle","high","True","False",974,350,NA
"AC1VR0OO1GIN9","Thu Jan 30 2020 12:25:32 GMT-0500 (Eastern Standard Time)","Thu Jan 30 2020 12:45:50 GMT-0500 (Eastern Standard Time)","Mozilla/5.0 (Windows NT 6.3; Win64; x64) AppleWebKit/537.36 (KHTML, like Gecko) Chrome/79.0.3945.130 Safari/537.36",54,"[0.9, 0.5, 0.1]","[0.8, 0.4, 0.2]","[u'black', u'red', u'blue']","[u'left', u'middle', u'right']","[0.9, 0.5, 0.1]","[u'medium', u'high', u'low']","red",50,"middle","high","False","False",725,300,NA
"AC1VR0OO1GIN9","Thu Jan 30 2020 12:25:32 GMT-0500 (Eastern Standard Time)","Thu Jan 30 2020 12:45:50 GMT-0500 (Eastern Standard Time)","Mozilla/5.0 (Windows NT 6.3; Win64; x64) AppleWebKit/537.36 (KHTML, like Gecko) Chrome/79.0.3945.130 Safari/537.36",55,"[0.9, 0.5, 0.1]","[0.8, 0.4, 0.2]","[u'black', u'red', u'blue']","[u'left', u'middle', u'right']","[0.9, 0.5, 0.1]","[u'medium', u'high', u'low']","red",50,"middle","high","True","True",412,400,NA
"AC1VR0OO1GIN9","Thu Jan 30 2020 12:25:32 GMT-0500 (Eastern Standard Time)","Thu Jan 30 2020 12:45:50 GMT-0500 (Eastern Standard Time)","Mozilla/5.0 (Windows NT 6.3; Win64; x64) AppleWebKit/537.36 (KHTML, like Gecko) Chrome/79.0.3945.130 Safari/537.36",56,"[0.9, 0.5, 0.1]","[0.8, 0.4, 0.2]","[u'black', u'red', u'blue']","[u'left', u'middle', u'right']","[0.9, 0.5, 0.1]","[u'low', u'medium', u'high']","blue",51,"right","high","True","False",383,500,NA
"AC1VR0OO1GIN9","Thu Jan 30 2020 12:25:32 GMT-0500 (Eastern Standard Time)","Thu Jan 30 2020 12:45:50 GMT-0500 (Eastern Standard Time)","Mozilla/5.0 (Windows NT 6.3; Win64; x64) AppleWebKit/537.36 (KHTML, like Gecko) Chrome/79.0.3945.130 Safari/537.36",57,"[0.9, 0.5, 0.1]","[0.8, 0.4, 0.2]","[u'black', u'red', u'blue']","[u'left', u'middle', u'right']","[0.9, 0.5, 0.1]","[u'low', u'medium', u'high']","red",50,"middle","medium","False","False",425,450,NA
"AC1VR0OO1GIN9","Thu Jan 30 2020 12:25:32 GMT-0500 (Eastern Standard Time)","Thu Jan 30 2020 12:45:50 GMT-0500 (Eastern Standard Time)","Mozilla/5.0 (Windows NT 6.3; Win64; x64) AppleWebKit/537.36 (KHTML, like Gecko) Chrome/79.0.3945.130 Safari/537.36",58,"[0.9, 0.5, 0.1]","[0.8, 0.4, 0.2]","[u'black', u'red', u'blue']","[u'left', u'middle', u'right']","[0.9, 0.5, 0.1]","[u'low', u'medium', u'high']","red",50,"middle","medium","True","False",514,550,NA
"AC1VR0OO1GIN9","Thu Jan 30 2020 12:25:32 GMT-0500 (Eastern Standard Time)","Thu Jan 30 2020 12:45:50 GMT-0500 (Eastern Standard Time)","Mozilla/5.0 (Windows NT 6.3; Win64; x64) AppleWebKit/537.36 (KHTML, like Gecko) Chrome/79.0.3945.130 Safari/537.36",59,"[0.9, 0.5, 0.1]","[0.8, 0.4, 0.2]","[u'black', u'red', u'blue']","[u'left', u'middle', u'right']","[0.9, 0.5, 0.1]","[u'low', u'medium', u'high']","black",49,"left","low","False","False",2157,500,NA
"AC1VR0OO1GIN9","Thu Jan 30 2020 12:25:32 GMT-0500 (Eastern Standard Time)","Thu Jan 30 2020 12:45:50 GMT-0500 (Eastern Standard Time)","Mozilla/5.0 (Windows NT 6.3; Win64; x64) AppleWebKit/537.36 (KHTML, like Gecko) Chrome/79.0.3945.130 Safari/537.36",60,"[0.9, 0.5, 0.1]","[0.8, 0.4, 0.2]","[u'black', u'red', u'blue']","[u'left', u'middle', u'right']","[0.9, 0.5, 0.1]","[u'low', u'medium', u'high']","red",50,"middle","medium","False","False",547,450,NA
"AC1VR0OO1GIN9","Thu Jan 30 2020 12:25:32 GMT-0500 (Eastern Standard Time)","Thu Jan 30 2020 12:45:50 GMT-0500 (Eastern Standard Time)","Mozilla/5.0 (Windows NT 6.3; Win64; x64) AppleWebKit/537.36 (KHTML, like Gecko) Chrome/79.0.3945.130 Safari/537.36",61,"[0.9, 0.5, 0.1]","[0.8, 0.4, 0.2]","[u'black', u'red', u'blue']","[u'left', u'middle', u'right']","[0.9, 0.5, 0.1]","[u'low', u'medium', u'high']","red",50,"middle","medium","True","False",372,550,NA
"AC1VR0OO1GIN9","Thu Jan 30 2020 12:25:32 GMT-0500 (Eastern Standard Time)","Thu Jan 30 2020 12:45:50 GMT-0500 (Eastern Standard Time)","Mozilla/5.0 (Windows NT 6.3; Win64; x64) AppleWebKit/537.36 (KHTML, like Gecko) Chrome/79.0.3945.130 Safari/537.36",62,"[0.9, 0.5, 0.1]","[0.8, 0.4, 0.2]","[u'black', u'red', u'blue']","[u'left', u'middle', u'right']","[0.9, 0.5, 0.1]","[u'low', u'medium', u'high']","black",49,"left","low","False","False",753,500,NA
"AC1VR0OO1GIN9","Thu Jan 30 2020 12:25:32 GMT-0500 (Eastern Standard Time)","Thu Jan 30 2020 12:45:50 GMT-0500 (Eastern Standard Time)","Mozilla/5.0 (Windows NT 6.3; Win64; x64) AppleWebKit/537.36 (KHTML, like Gecko) Chrome/79.0.3945.130 Safari/537.36",63,"[0.9, 0.5, 0.1]","[0.8, 0.4, 0.2]","[u'black', u'red', u'blue']","[u'left', u'middle', u'right']","[0.9, 0.5, 0.1]","[u'low', u'medium', u'high']","red",50,"middle","medium","True","False",457,600,NA
"AC1VR0OO1GIN9","Thu Jan 30 2020 12:25:32 GMT-0500 (Eastern Standard Time)","Thu Jan 30 2020 12:45:50 GMT-0500 (Eastern Standard Time)","Mozilla/5.0 (Windows NT 6.3; Win64; x64) AppleWebKit/537.36 (KHTML, like Gecko) Chrome/79.0.3945.130 Safari/537.36",64,"[0.9, 0.5, 0.1]","[0.8, 0.4, 0.2]","[u'black', u'red', u'blue']","[u'left', u'middle', u'right']","[0.9, 0.5, 0.1]","[u'low', u'medium', u'high']","red",50,"middle","medium","True","False",771,700,NA
"AC1VR0OO1GIN9","Thu Jan 30 2020 12:25:32 GMT-0500 (Eastern Standard Time)","Thu Jan 30 2020 12:45:50 GMT-0500 (Eastern Standard Time)","Mozilla/5.0 (Windows NT 6.3; Win64; x64) AppleWebKit/537.36 (KHTML, like Gecko) Chrome/79.0.3945.130 Safari/537.36",65,"[0.9, 0.5, 0.1]","[0.8, 0.4, 0.2]","[u'black', u'red', u'blue']","[u'left', u'middle', u'right']","[0.9, 0.5, 0.1]","[u'low', u'medium', u'high']","red",50,"middle","medium","True","False",802,800,NA
"AC1VR0OO1GIN9","Thu Jan 30 2020 12:25:32 GMT-0500 (Eastern Standard Time)","Thu Jan 30 2020 12:45:50 GMT-0500 (Eastern Standard Time)","Mozilla/5.0 (Windows NT 6.3; Win64; x64) AppleWebKit/537.36 (KHTML, like Gecko) Chrome/79.0.3945.130 Safari/537.36",66,"[0.9, 0.5, 0.1]","[0.8, 0.4, 0.2]","[u'black', u'red', u'blue']","[u'left', u'middle', u'right']","[0.9, 0.5, 0.1]","[u'low', u'medium', u'high']","red",50,"middle","medium","True","False",456,900,NA
"AC1VR0OO1GIN9","Thu Jan 30 2020 12:25:32 GMT-0500 (Eastern Standard Time)","Thu Jan 30 2020 12:45:50 GMT-0500 (Eastern Standard Time)","Mozilla/5.0 (Windows NT 6.3; Win64; x64) AppleWebKit/537.36 (KHTML, like Gecko) Chrome/79.0.3945.130 Safari/537.36",67,"[0.9, 0.5, 0.1]","[0.8, 0.4, 0.2]","[u'black', u'red', u'blue']","[u'left', u'middle', u'right']","[0.9, 0.5, 0.1]","[u'low', u'medium', u'high']","red",50,"middle","medium","True","False",1003,1000,NA
"AC1VR0OO1GIN9","Thu Jan 30 2020 12:25:32 GMT-0500 (Eastern Standard Time)","Thu Jan 30 2020 12:45:50 GMT-0500 (Eastern Standard Time)","Mozilla/5.0 (Windows NT 6.3; Win64; x64) AppleWebKit/537.36 (KHTML, like Gecko) Chrome/79.0.3945.130 Safari/537.36",68,"[0.9, 0.5, 0.1]","[0.8, 0.4, 0.2]","[u'black', u'red', u'blue']","[u'left', u'middle', u'right']","[0.9, 0.5, 0.1]","[u'low', u'medium', u'high']","red",50,"middle","medium","False","False",375,950,NA
"AC1VR0OO1GIN9","Thu Jan 30 2020 12:25:32 GMT-0500 (Eastern Standard Time)","Thu Jan 30 2020 12:45:50 GMT-0500 (Eastern Standard Time)","Mozilla/5.0 (Windows NT 6.3; Win64; x64) AppleWebKit/537.36 (KHTML, like Gecko) Chrome/79.0.3945.130 Safari/537.36",69,"[0.9, 0.5, 0.1]","[0.8, 0.4, 0.2]","[u'black', u'red', u'blue']","[u'left', u'middle', u'right']","[0.9, 0.5, 0.1]","[u'low', u'medium', u'high']","red",50,"middle","medium","True","False",365,1050,NA
"AC1VR0OO1GIN9","Thu Jan 30 2020 12:25:32 GMT-0500 (Eastern Standard Time)","Thu Jan 30 2020 12:45:50 GMT-0500 (Eastern Standard Time)","Mozilla/5.0 (Windows NT 6.3; Win64; x64) AppleWebKit/537.36 (KHTML, like Gecko) Chrome/79.0.3945.130 Safari/537.36",70,"[0.9, 0.5, 0.1]","[0.8, 0.4, 0.2]","[u'black', u'red', u'blue']","[u'left', u'middle', u'right']","[0.9, 0.5, 0.1]","[u'low', u'medium', u'high']","blue",51,"right","high","False","False",1420,1000,NA
"AC1VR0OO1GIN9","Thu Jan 30 2020 12:25:32 GMT-0500 (Eastern Standard Time)","Thu Jan 30 2020 12:45:50 GMT-0500 (Eastern Standard Time)","Mozilla/5.0 (Windows NT 6.3; Win64; x64) AppleWebKit/537.36 (KHTML, like Gecko) Chrome/79.0.3945.130 Safari/537.36",71,"[0.9, 0.5, 0.1]","[0.8, 0.4, 0.2]","[u'black', u'red', u'blue']","[u'left', u'middle', u'right']","[0.9, 0.5, 0.1]","[u'low', u'medium', u'high']","red",50,"middle","medium","True","False",137,1100,NA
"AC1VR0OO1GIN9","Thu Jan 30 2020 12:25:32 GMT-0500 (Eastern Standard Time)","Thu Jan 30 2020 12:45:50 GMT-0500 (Eastern Standard Time)","Mozilla/5.0 (Windows NT 6.3; Win64; x64) AppleWebKit/537.36 (KHTML, like Gecko) Chrome/79.0.3945.130 Safari/537.36",72,"[0.9, 0.5, 0.1]","[0.8, 0.4, 0.2]","[u'black', u'red', u'blue']","[u'left', u'middle', u'right']","[0.9, 0.5, 0.1]","[u'low', u'medium', u'high']","red",50,"middle","medium","False","False",337,1050,NA
"AC1VR0OO1GIN9","Thu Jan 30 2020 12:25:32 GMT-0500 (Eastern Standard Time)","Thu Jan 30 2020 12:45:50 GMT-0500 (Eastern Standard Time)","Mozilla/5.0 (Windows NT 6.3; Win64; x64) AppleWebKit/537.36 (KHTML, like Gecko) Chrome/79.0.3945.130 Safari/537.36",73,"[0.9, 0.5, 0.1]","[0.8, 0.4, 0.2]","[u'black', u'red', u'blue']","[u'left', u'middle', u'right']","[0.9, 0.5, 0.1]","[u'low', u'medium', u'high']","red",50,"middle","medium","True","False",1165,1150,NA
"AC1VR0OO1GIN9","Thu Jan 30 2020 12:25:32 GMT-0500 (Eastern Standard Time)","Thu Jan 30 2020 12:45:50 GMT-0500 (Eastern Standard Time)","Mozilla/5.0 (Windows NT 6.3; Win64; x64) AppleWebKit/537.36 (KHTML, like Gecko) Chrome/79.0.3945.130 Safari/537.36",74,"[0.9, 0.5, 0.1]","[0.8, 0.4, 0.2]","[u'black', u'red', u'blue']","[u'left', u'middle', u'right']","[0.9, 0.5, 0.1]","[u'low', u'medium', u'high']","red",50,"middle","medium","True","False",910,1250,NA
"AC1VR0OO1GIN9","Thu Jan 30 2020 12:25:32 GMT-0500 (Eastern Standard Time)","Thu Jan 30 2020 12:45:50 GMT-0500 (Eastern Standard Time)","Mozilla/5.0 (Windows NT 6.3; Win64; x64) AppleWebKit/537.36 (KHTML, like Gecko) Chrome/79.0.3945.130 Safari/537.36",75,"[0.9, 0.5, 0.1]","[0.8, 0.4, 0.2]","[u'black', u'red', u'blue']","[u'left', u'middle', u'right']","[0.9, 0.5, 0.1]","[u'low', u'medium', u'high']","red",50,"middle","medium","False","False",391,1200,NA
"AC1VR0OO1GIN9","Thu Jan 30 2020 12:25:32 GMT-0500 (Eastern Standard Time)","Thu Jan 30 2020 12:45:50 GMT-0500 (Eastern Standard Time)","Mozilla/5.0 (Windows NT 6.3; Win64; x64) AppleWebKit/537.36 (KHTML, like Gecko) Chrome/79.0.3945.130 Safari/537.36",76,"[0.9, 0.5, 0.1]","[0.8, 0.4, 0.2]","[u'black', u'red', u'blue']","[u'left', u'middle', u'right']","[0.9, 0.5, 0.1]","[u'low', u'medium', u'high']","red",50,"middle","medium","True","False",1609,1300,NA
"AC1VR0OO1GIN9","Thu Jan 30 2020 12:25:32 GMT-0500 (Eastern Standard Time)","Thu Jan 30 2020 12:45:50 GMT-0500 (Eastern Standard Time)","Mozilla/5.0 (Windows NT 6.3; Win64; x64) AppleWebKit/537.36 (KHTML, like Gecko) Chrome/79.0.3945.130 Safari/537.36",77,"[0.9, 0.5, 0.1]","[0.8, 0.4, 0.2]","[u'black', u'red', u'blue']","[u'left', u'middle', u'right']","[0.9, 0.5, 0.1]","[u'low', u'medium', u'high']","red",50,"middle","medium","True","False",656,1400,NA
"AC1VR0OO1GIN9","Thu Jan 30 2020 12:25:32 GMT-0500 (Eastern Standard Time)","Thu Jan 30 2020 12:45:50 GMT-0500 (Eastern Standard Time)","Mozilla/5.0 (Windows NT 6.3; Win64; x64) AppleWebKit/537.36 (KHTML, like Gecko) Chrome/79.0.3945.130 Safari/537.36",78,"[0.9, 0.5, 0.1]","[0.8, 0.4, 0.2]","[u'black', u'red', u'blue']","[u'left', u'middle', u'right']","[0.9, 0.5, 0.1]","[u'low', u'medium', u'high']","black",49,"left","low","False","False",532,1350,NA
"AC1VR0OO1GIN9","Thu Jan 30 2020 12:25:32 GMT-0500 (Eastern Standard Time)","Thu Jan 30 2020 12:45:50 GMT-0500 (Eastern Standard Time)","Mozilla/5.0 (Windows NT 6.3; Win64; x64) AppleWebKit/537.36 (KHTML, like Gecko) Chrome/79.0.3945.130 Safari/537.36",79,"[0.9, 0.5, 0.1]","[0.8, 0.4, 0.2]","[u'black', u'red', u'blue']","[u'left', u'middle', u'right']","[0.9, 0.5, 0.1]","[u'low', u'medium', u'high']","red",50,"middle","medium","True","False",234,1450,NA
"AC1VR0OO1GIN9","Thu Jan 30 2020 12:25:32 GMT-0500 (Eastern Standard Time)","Thu Jan 30 2020 12:45:50 GMT-0500 (Eastern Standard Time)","Mozilla/5.0 (Windows NT 6.3; Win64; x64) AppleWebKit/537.36 (KHTML, like Gecko) Chrome/79.0.3945.130 Safari/537.36",80,"[0.9, 0.5, 0.1]","[0.8, 0.4, 0.2]","[u'black', u'red', u'blue']","[u'left', u'middle', u'right']","[0.9, 0.5, 0.1]","[u'low', u'medium', u'high']","red",50,"middle","medium","True","False",324,1550,NA
"AC1VR0OO1GIN9","Thu Jan 30 2020 12:25:32 GMT-0500 (Eastern Standard Time)","Thu Jan 30 2020 12:45:50 GMT-0500 (Eastern Standard Time)","Mozilla/5.0 (Windows NT 6.3; Win64; x64) AppleWebKit/537.36 (KHTML, like Gecko) Chrome/79.0.3945.130 Safari/537.36",81,"[0.9, 0.5, 0.1]","[0.8, 0.4, 0.2]","[u'black', u'red', u'blue']","[u'left', u'middle', u'right']","[0.8, 0.4, 0.2]","[u'medium', u'high', u'low']","red",50,"middle","high","True","False",1248,1650,NA
"AC1VR0OO1GIN9","Thu Jan 30 2020 12:25:32 GMT-0500 (Eastern Standard Time)","Thu Jan 30 2020 12:45:50 GMT-0500 (Eastern Standard Time)","Mozilla/5.0 (Windows NT 6.3; Win64; x64) AppleWebKit/537.36 (KHTML, like Gecko) Chrome/79.0.3945.130 Safari/537.36",82,"[0.9, 0.5, 0.1]","[0.8, 0.4, 0.2]","[u'black', u'red', u'blue']","[u'left', u'middle', u'right']","[0.8, 0.4, 0.2]","[u'medium', u'high', u'low']","red",50,"middle","high","False","False",448,1600,NA
"AC1VR0OO1GIN9","Thu Jan 30 2020 12:25:32 GMT-0500 (Eastern Standard Time)","Thu Jan 30 2020 12:45:50 GMT-0500 (Eastern Standard Time)","Mozilla/5.0 (Windows NT 6.3; Win64; x64) AppleWebKit/537.36 (KHTML, like Gecko) Chrome/79.0.3945.130 Safari/537.36",83,"[0.9, 0.5, 0.1]","[0.8, 0.4, 0.2]","[u'black', u'red', u'blue']","[u'left', u'middle', u'right']","[0.8, 0.4, 0.2]","[u'medium', u'high', u'low']","red",50,"middle","high","True","False",319,1700,NA
"AC1VR0OO1GIN9","Thu Jan 30 2020 12:25:32 GMT-0500 (Eastern Standard Time)","Thu Jan 30 2020 12:45:50 GMT-0500 (Eastern Standard Time)","Mozilla/5.0 (Windows NT 6.3; Win64; x64) AppleWebKit/537.36 (KHTML, like Gecko) Chrome/79.0.3945.130 Safari/537.36",84,"[0.9, 0.5, 0.1]","[0.8, 0.4, 0.2]","[u'black', u'red', u'blue']","[u'left', u'middle', u'right']","[0.8, 0.4, 0.2]","[u'medium', u'high', u'low']","red",50,"middle","high","False","False",380,1650,NA
"AC1VR0OO1GIN9","Thu Jan 30 2020 12:25:32 GMT-0500 (Eastern Standard Time)","Thu Jan 30 2020 12:45:50 GMT-0500 (Eastern Standard Time)","Mozilla/5.0 (Windows NT 6.3; Win64; x64) AppleWebKit/537.36 (KHTML, like Gecko) Chrome/79.0.3945.130 Safari/537.36",85,"[0.9, 0.5, 0.1]","[0.8, 0.4, 0.2]","[u'black', u'red', u'blue']","[u'left', u'middle', u'right']","[0.8, 0.4, 0.2]","[u'medium', u'high', u'low']","red",50,"middle","high","False","False",367,1600,NA
"AC1VR0OO1GIN9","Thu Jan 30 2020 12:25:32 GMT-0500 (Eastern Standard Time)","Thu Jan 30 2020 12:45:50 GMT-0500 (Eastern Standard Time)","Mozilla/5.0 (Windows NT 6.3; Win64; x64) AppleWebKit/537.36 (KHTML, like Gecko) Chrome/79.0.3945.130 Safari/537.36",86,"[0.9, 0.5, 0.1]","[0.8, 0.4, 0.2]","[u'black', u'red', u'blue']","[u'left', u'middle', u'right']","[0.8, 0.4, 0.2]","[u'medium', u'high', u'low']","red",50,"middle","high","True","False",728,1700,NA
"AC1VR0OO1GIN9","Thu Jan 30 2020 12:25:32 GMT-0500 (Eastern Standard Time)","Thu Jan 30 2020 12:45:50 GMT-0500 (Eastern Standard Time)","Mozilla/5.0 (Windows NT 6.3; Win64; x64) AppleWebKit/537.36 (KHTML, like Gecko) Chrome/79.0.3945.130 Safari/537.36",87,"[0.9, 0.5, 0.1]","[0.8, 0.4, 0.2]","[u'black', u'red', u'blue']","[u'left', u'middle', u'right']","[0.8, 0.4, 0.2]","[u'medium', u'high', u'low']","black",49,"left","medium","True","False",426,1800,NA
"AC1VR0OO1GIN9","Thu Jan 30 2020 12:25:32 GMT-0500 (Eastern Standard Time)","Thu Jan 30 2020 12:45:50 GMT-0500 (Eastern Standard Time)","Mozilla/5.0 (Windows NT 6.3; Win64; x64) AppleWebKit/537.36 (KHTML, like Gecko) Chrome/79.0.3945.130 Safari/537.36",88,"[0.9, 0.5, 0.1]","[0.8, 0.4, 0.2]","[u'black', u'red', u'blue']","[u'left', u'middle', u'right']","[0.8, 0.4, 0.2]","[u'medium', u'high', u'low']","blue",51,"right","low","False","False",1046,1750,NA
"AC1VR0OO1GIN9","Thu Jan 30 2020 12:25:32 GMT-0500 (Eastern Standard Time)","Thu Jan 30 2020 12:45:50 GMT-0500 (Eastern Standard Time)","Mozilla/5.0 (Windows NT 6.3; Win64; x64) AppleWebKit/537.36 (KHTML, like Gecko) Chrome/79.0.3945.130 Safari/537.36",89,"[0.9, 0.5, 0.1]","[0.8, 0.4, 0.2]","[u'black', u'red', u'blue']","[u'left', u'middle', u'right']","[0.8, 0.4, 0.2]","[u'medium', u'high', u'low']","red",50,"middle","high","True","False",136,1850,NA
"AC1VR0OO1GIN9","Thu Jan 30 2020 12:25:32 GMT-0500 (Eastern Standard Time)","Thu Jan 30 2020 12:45:50 GMT-0500 (Eastern Standard Time)","Mozilla/5.0 (Windows NT 6.3; Win64; x64) AppleWebKit/537.36 (KHTML, like Gecko) Chrome/79.0.3945.130 Safari/537.36",90,"[0.9, 0.5, 0.1]","[0.8, 0.4, 0.2]","[u'black', u'red', u'blue']","[u'left', u'middle', u'right']","[0.8, 0.4, 0.2]","[u'medium', u'high', u'low']","red",50,"middle","high","True","False",596,1950,NA
"AC1VR0OO1GIN9","Thu Jan 30 2020 12:25:32 GMT-0500 (Eastern Standard Time)","Thu Jan 30 2020 12:45:50 GMT-0500 (Eastern Standard Time)","Mozilla/5.0 (Windows NT 6.3; Win64; x64) AppleWebKit/537.36 (KHTML, like Gecko) Chrome/79.0.3945.130 Safari/537.36",91,"[0.9, 0.5, 0.1]","[0.8, 0.4, 0.2]","[u'black', u'red', u'blue']","[u'left', u'middle', u'right']","[0.8, 0.4, 0.2]","[u'medium', u'high', u'low']","black",49,"left","medium","False","False",519,1900,NA
"AC1VR0OO1GIN9","Thu Jan 30 2020 12:25:32 GMT-0500 (Eastern Standard Time)","Thu Jan 30 2020 12:45:50 GMT-0500 (Eastern Standard Time)","Mozilla/5.0 (Windows NT 6.3; Win64; x64) AppleWebKit/537.36 (KHTML, like Gecko) Chrome/79.0.3945.130 Safari/537.36",92,"[0.9, 0.5, 0.1]","[0.8, 0.4, 0.2]","[u'black', u'red', u'blue']","[u'left', u'middle', u'right']","[0.8, 0.4, 0.2]","[u'medium', u'high', u'low']","red",50,"middle","high","True","False",560,2000,NA
"AC1VR0OO1GIN9","Thu Jan 30 2020 12:25:32 GMT-0500 (Eastern Standard Time)","Thu Jan 30 2020 12:45:50 GMT-0500 (Eastern Standard Time)","Mozilla/5.0 (Windows NT 6.3; Win64; x64) AppleWebKit/537.36 (KHTML, like Gecko) Chrome/79.0.3945.130 Safari/537.36",93,"[0.9, 0.5, 0.1]","[0.8, 0.4, 0.2]","[u'black', u'red', u'blue']","[u'left', u'middle', u'right']","[0.8, 0.4, 0.2]","[u'medium', u'high', u'low']","red",50,"middle","high","False","False",480,1950,NA
"AC1VR0OO1GIN9","Thu Jan 30 2020 12:25:32 GMT-0500 (Eastern Standard Time)","Thu Jan 30 2020 12:45:50 GMT-0500 (Eastern Standard Time)","Mozilla/5.0 (Windows NT 6.3; Win64; x64) AppleWebKit/537.36 (KHTML, like Gecko) Chrome/79.0.3945.130 Safari/537.36",94,"[0.9, 0.5, 0.1]","[0.8, 0.4, 0.2]","[u'black', u'red', u'blue']","[u'left', u'middle', u'right']","[0.8, 0.4, 0.2]","[u'medium', u'high', u'low']","red",50,"middle","high","False","False",251,1900,NA
"AC1VR0OO1GIN9","Thu Jan 30 2020 12:25:32 GMT-0500 (Eastern Standard Time)","Thu Jan 30 2020 12:45:50 GMT-0500 (Eastern Standard Time)","Mozilla/5.0 (Windows NT 6.3; Win64; x64) AppleWebKit/537.36 (KHTML, like Gecko) Chrome/79.0.3945.130 Safari/537.36",95,"[0.9, 0.5, 0.1]","[0.8, 0.4, 0.2]","[u'black', u'red', u'blue']","[u'left', u'middle', u'right']","[0.8, 0.4, 0.2]","[u'medium', u'high', u'low']","red",50,"middle","high","True","False",14,2000,NA
"AC1VR0OO1GIN9","Thu Jan 30 2020 12:25:32 GMT-0500 (Eastern Standard Time)","Thu Jan 30 2020 12:45:50 GMT-0500 (Eastern Standard Time)","Mozilla/5.0 (Windows NT 6.3; Win64; x64) AppleWebKit/537.36 (KHTML, like Gecko) Chrome/79.0.3945.130 Safari/537.36",96,"[0.9, 0.5, 0.1]","[0.8, 0.4, 0.2]","[u'black', u'red', u'blue']","[u'left', u'middle', u'right']","[0.8, 0.4, 0.2]","[u'medium', u'high', u'low']","red",50,"middle","high","True","False",439,2100,NA
"AC1VR0OO1GIN9","Thu Jan 30 2020 12:25:32 GMT-0500 (Eastern Standard Time)","Thu Jan 30 2020 12:45:50 GMT-0500 (Eastern Standard Time)","Mozilla/5.0 (Windows NT 6.3; Win64; x64) AppleWebKit/537.36 (KHTML, like Gecko) Chrome/79.0.3945.130 Safari/537.36",97,"[0.9, 0.5, 0.1]","[0.8, 0.4, 0.2]","[u'black', u'red', u'blue']","[u'left', u'middle', u'right']","[0.8, 0.4, 0.2]","[u'medium', u'high', u'low']","red",50,"middle","high","True","False",527,2200,NA
"AC1VR0OO1GIN9","Thu Jan 30 2020 12:25:32 GMT-0500 (Eastern Standard Time)","Thu Jan 30 2020 12:45:50 GMT-0500 (Eastern Standard Time)","Mozilla/5.0 (Windows NT 6.3; Win64; x64) AppleWebKit/537.36 (KHTML, like Gecko) Chrome/79.0.3945.130 Safari/537.36",98,"[0.9, 0.5, 0.1]","[0.8, 0.4, 0.2]","[u'black', u'red', u'blue']","[u'left', u'middle', u'right']","[0.8, 0.4, 0.2]","[u'medium', u'high', u'low']","red",50,"middle","high","True","True",2280,2300,NA
"AC1VR0OO1GIN9","Thu Jan 30 2020 12:25:32 GMT-0500 (Eastern Standard Time)","Thu Jan 30 2020 12:45:50 GMT-0500 (Eastern Standard Time)","Mozilla/5.0 (Windows NT 6.3; Win64; x64) AppleWebKit/537.36 (KHTML, like Gecko) Chrome/79.0.3945.130 Safari/537.36",99,"[0.9, 0.5, 0.1]","[0.8, 0.4, 0.2]","[u'black', u'red', u'blue']","[u'left', u'middle', u'right']","[0.8, 0.4, 0.2]","[u'medium', u'low', u'high']","red",50,"middle","low","False","False",1173,2250,NA
"AC1VR0OO1GIN9","Thu Jan 30 2020 12:25:32 GMT-0500 (Eastern Standard Time)","Thu Jan 30 2020 12:45:50 GMT-0500 (Eastern Standard Time)","Mozilla/5.0 (Windows NT 6.3; Win64; x64) AppleWebKit/537.36 (KHTML, like Gecko) Chrome/79.0.3945.130 Safari/537.36",100,"[0.9, 0.5, 0.1]","[0.8, 0.4, 0.2]","[u'black', u'red', u'blue']","[u'left', u'middle', u'right']","[0.8, 0.4, 0.2]","[u'medium', u'low', u'high']","red",50,"middle","low","False","False",409,2200,NA
"AC1VR0OO1GIN9","Thu Jan 30 2020 12:25:32 GMT-0500 (Eastern Standard Time)","Thu Jan 30 2020 12:45:50 GMT-0500 (Eastern Standard Time)","Mozilla/5.0 (Windows NT 6.3; Win64; x64) AppleWebKit/537.36 (KHTML, like Gecko) Chrome/79.0.3945.130 Safari/537.36",101,"[0.9, 0.5, 0.1]","[0.8, 0.4, 0.2]","[u'black', u'red', u'blue']","[u'left', u'middle', u'right']","[0.8, 0.4, 0.2]","[u'medium', u'low', u'high']","black",49,"left","medium","True","False",81,2300,NA
"AC1VR0OO1GIN9","Thu Jan 30 2020 12:25:32 GMT-0500 (Eastern Standard Time)","Thu Jan 30 2020 12:45:50 GMT-0500 (Eastern Standard Time)","Mozilla/5.0 (Windows NT 6.3; Win64; x64) AppleWebKit/537.36 (KHTML, like Gecko) Chrome/79.0.3945.130 Safari/537.36",102,"[0.9, 0.5, 0.1]","[0.8, 0.4, 0.2]","[u'black', u'red', u'blue']","[u'left', u'middle', u'right']","[0.8, 0.4, 0.2]","[u'medium', u'low', u'high']","red",50,"middle","low","False","False",559,2250,NA
"AC1VR0OO1GIN9","Thu Jan 30 2020 12:25:32 GMT-0500 (Eastern Standard Time)","Thu Jan 30 2020 12:45:50 GMT-0500 (Eastern Standard Time)","Mozilla/5.0 (Windows NT 6.3; Win64; x64) AppleWebKit/537.36 (KHTML, like Gecko) Chrome/79.0.3945.130 Safari/537.36",103,"[0.9, 0.5, 0.1]","[0.8, 0.4, 0.2]","[u'black', u'red', u'blue']","[u'left', u'middle', u'right']","[0.8, 0.4, 0.2]","[u'medium', u'low', u'high']","red",50,"middle","low","False","False",282,2200,NA
"AC1VR0OO1GIN9","Thu Jan 30 2020 12:25:32 GMT-0500 (Eastern Standard Time)","Thu Jan 30 2020 12:45:50 GMT-0500 (Eastern Standard Time)","Mozilla/5.0 (Windows NT 6.3; Win64; x64) AppleWebKit/537.36 (KHTML, like Gecko) Chrome/79.0.3945.130 Safari/537.36",104,"[0.9, 0.5, 0.1]","[0.8, 0.4, 0.2]","[u'black', u'red', u'blue']","[u'left', u'middle', u'right']","[0.8, 0.4, 0.2]","[u'medium', u'low', u'high']","blue",51,"right","high","True","False",435,2300,NA
"AC1VR0OO1GIN9","Thu Jan 30 2020 12:25:32 GMT-0500 (Eastern Standard Time)","Thu Jan 30 2020 12:45:50 GMT-0500 (Eastern Standard Time)","Mozilla/5.0 (Windows NT 6.3; Win64; x64) AppleWebKit/537.36 (KHTML, like Gecko) Chrome/79.0.3945.130 Safari/537.36",105,"[0.9, 0.5, 0.1]","[0.8, 0.4, 0.2]","[u'black', u'red', u'blue']","[u'left', u'middle', u'right']","[0.8, 0.4, 0.2]","[u'medium', u'low', u'high']","red",50,"middle","low","False","False",1358,2250,NA
"AC1VR0OO1GIN9","Thu Jan 30 2020 12:25:32 GMT-0500 (Eastern Standard Time)","Thu Jan 30 2020 12:45:50 GMT-0500 (Eastern Standard Time)","Mozilla/5.0 (Windows NT 6.3; Win64; x64) AppleWebKit/537.36 (KHTML, like Gecko) Chrome/79.0.3945.130 Safari/537.36",106,"[0.9, 0.5, 0.1]","[0.8, 0.4, 0.2]","[u'black', u'red', u'blue']","[u'left', u'middle', u'right']","[0.8, 0.4, 0.2]","[u'medium', u'low', u'high']","blue",51,"right","high","True","False",188,2350,NA
"AC1VR0OO1GIN9","Thu Jan 30 2020 12:25:32 GMT-0500 (Eastern Standard Time)","Thu Jan 30 2020 12:45:50 GMT-0500 (Eastern Standard Time)","Mozilla/5.0 (Windows NT 6.3; Win64; x64) AppleWebKit/537.36 (KHTML, like Gecko) Chrome/79.0.3945.130 Safari/537.36",107,"[0.9, 0.5, 0.1]","[0.8, 0.4, 0.2]","[u'black', u'red', u'blue']","[u'left', u'middle', u'right']","[0.8, 0.4, 0.2]","[u'medium', u'low', u'high']","blue",51,"right","high","True","False",463,2450,NA
"AC1VR0OO1GIN9","Thu Jan 30 2020 12:25:32 GMT-0500 (Eastern Standard Time)","Thu Jan 30 2020 12:45:50 GMT-0500 (Eastern Standard Time)","Mozilla/5.0 (Windows NT 6.3; Win64; x64) AppleWebKit/537.36 (KHTML, like Gecko) Chrome/79.0.3945.130 Safari/537.36",108,"[0.9, 0.5, 0.1]","[0.8, 0.4, 0.2]","[u'black', u'red', u'blue']","[u'left', u'middle', u'right']","[0.8, 0.4, 0.2]","[u'medium', u'low', u'high']","blue",51,"right","high","True","False",576,2550,NA
"AC1VR0OO1GIN9","Thu Jan 30 2020 12:25:32 GMT-0500 (Eastern Standard Time)","Thu Jan 30 2020 12:45:50 GMT-0500 (Eastern Standard Time)","Mozilla/5.0 (Windows NT 6.3; Win64; x64) AppleWebKit/537.36 (KHTML, like Gecko) Chrome/79.0.3945.130 Safari/537.36",109,"[0.9, 0.5, 0.1]","[0.8, 0.4, 0.2]","[u'black', u'red', u'blue']","[u'left', u'middle', u'right']","[0.8, 0.4, 0.2]","[u'medium', u'low', u'high']","blue",51,"right","high","True","False",351,2650,NA
"AC1VR0OO1GIN9","Thu Jan 30 2020 12:25:32 GMT-0500 (Eastern Standard Time)","Thu Jan 30 2020 12:45:50 GMT-0500 (Eastern Standard Time)","Mozilla/5.0 (Windows NT 6.3; Win64; x64) AppleWebKit/537.36 (KHTML, like Gecko) Chrome/79.0.3945.130 Safari/537.36",110,"[0.9, 0.5, 0.1]","[0.8, 0.4, 0.2]","[u'black', u'red', u'blue']","[u'left', u'middle', u'right']","[0.8, 0.4, 0.2]","[u'medium', u'low', u'high']","blue",51,"right","high","False","False",448,2600,NA
"AC1VR0OO1GIN9","Thu Jan 30 2020 12:25:32 GMT-0500 (Eastern Standard Time)","Thu Jan 30 2020 12:45:50 GMT-0500 (Eastern Standard Time)","Mozilla/5.0 (Windows NT 6.3; Win64; x64) AppleWebKit/537.36 (KHTML, like Gecko) Chrome/79.0.3945.130 Safari/537.36",111,"[0.9, 0.5, 0.1]","[0.8, 0.4, 0.2]","[u'black', u'red', u'blue']","[u'left', u'middle', u'right']","[0.8, 0.4, 0.2]","[u'medium', u'low', u'high']","red",50,"middle","low","False","False",311,2550,NA
"AC1VR0OO1GIN9","Thu Jan 30 2020 12:25:32 GMT-0500 (Eastern Standard Time)","Thu Jan 30 2020 12:45:50 GMT-0500 (Eastern Standard Time)","Mozilla/5.0 (Windows NT 6.3; Win64; x64) AppleWebKit/537.36 (KHTML, like Gecko) Chrome/79.0.3945.130 Safari/537.36",112,"[0.9, 0.5, 0.1]","[0.8, 0.4, 0.2]","[u'black', u'red', u'blue']","[u'left', u'middle', u'right']","[0.8, 0.4, 0.2]","[u'medium', u'low', u'high']","black",49,"left","medium","True","False",218,2650,NA
"AC1VR0OO1GIN9","Thu Jan 30 2020 12:25:32 GMT-0500 (Eastern Standard Time)","Thu Jan 30 2020 12:45:50 GMT-0500 (Eastern Standard Time)","Mozilla/5.0 (Windows NT 6.3; Win64; x64) AppleWebKit/537.36 (KHTML, like Gecko) Chrome/79.0.3945.130 Safari/537.36",113,"[0.9, 0.5, 0.1]","[0.8, 0.4, 0.2]","[u'black', u'red', u'blue']","[u'left', u'middle', u'right']","[0.8, 0.4, 0.2]","[u'medium', u'low', u'high']","black",49,"left","medium","False","False",343,2600,NA
"AC1VR0OO1GIN9","Thu Jan 30 2020 12:25:32 GMT-0500 (Eastern Standard Time)","Thu Jan 30 2020 12:45:50 GMT-0500 (Eastern Standard Time)","Mozilla/5.0 (Windows NT 6.3; Win64; x64) AppleWebKit/537.36 (KHTML, like Gecko) Chrome/79.0.3945.130 Safari/537.36",114,"[0.9, 0.5, 0.1]","[0.8, 0.4, 0.2]","[u'black', u'red', u'blue']","[u'left', u'middle', u'right']","[0.8, 0.4, 0.2]","[u'medium', u'low', u'high']","red",50,"middle","low","False","False",22,2550,NA
"AC1VR0OO1GIN9","Thu Jan 30 2020 12:25:32 GMT-0500 (Eastern Standard Time)","Thu Jan 30 2020 12:45:50 GMT-0500 (Eastern Standard Time)","Mozilla/5.0 (Windows NT 6.3; Win64; x64) AppleWebKit/537.36 (KHTML, like Gecko) Chrome/79.0.3945.130 Safari/537.36",115,"[0.9, 0.5, 0.1]","[0.8, 0.4, 0.2]","[u'black', u'red', u'blue']","[u'left', u'middle', u'right']","[0.8, 0.4, 0.2]","[u'medium', u'low', u'high']","blue",51,"right","high","True","False",112,2650,NA
"AC1VR0OO1GIN9","Thu Jan 30 2020 12:25:32 GMT-0500 (Eastern Standard Time)","Thu Jan 30 2020 12:45:50 GMT-0500 (Eastern Standard Time)","Mozilla/5.0 (Windows NT 6.3; Win64; x64) AppleWebKit/537.36 (KHTML, like Gecko) Chrome/79.0.3945.130 Safari/537.36",116,"[0.9, 0.5, 0.1]","[0.8, 0.4, 0.2]","[u'black', u'red', u'blue']","[u'left', u'middle', u'right']","[0.8, 0.4, 0.2]","[u'medium', u'low', u'high']","blue",51,"right","high","True","False",386,2750,NA
"AC1VR0OO1GIN9","Thu Jan 30 2020 12:25:32 GMT-0500 (Eastern Standard Time)","Thu Jan 30 2020 12:45:50 GMT-0500 (Eastern Standard Time)","Mozilla/5.0 (Windows NT 6.3; Win64; x64) AppleWebKit/537.36 (KHTML, like Gecko) Chrome/79.0.3945.130 Safari/537.36",117,"[0.9, 0.5, 0.1]","[0.8, 0.4, 0.2]","[u'black', u'red', u'blue']","[u'left', u'middle', u'right']","[0.8, 0.4, 0.2]","[u'medium', u'low', u'high']","blue",51,"right","high","False","False",364,2700,NA
"AC1VR0OO1GIN9","Thu Jan 30 2020 12:25:32 GMT-0500 (Eastern Standard Time)","Thu Jan 30 2020 12:45:50 GMT-0500 (Eastern Standard Time)","Mozilla/5.0 (Windows NT 6.3; Win64; x64) AppleWebKit/537.36 (KHTML, like Gecko) Chrome/79.0.3945.130 Safari/537.36",118,"[0.9, 0.5, 0.1]","[0.8, 0.4, 0.2]","[u'black', u'red', u'blue']","[u'left', u'middle', u'right']","[0.8, 0.4, 0.2]","[u'medium', u'low', u'high']","blue",51,"right","high","True","False",330,2800,NA
"AC1VR0OO1GIN9","Thu Jan 30 2020 12:25:32 GMT-0500 (Eastern Standard Time)","Thu Jan 30 2020 12:45:50 GMT-0500 (Eastern Standard Time)","Mozilla/5.0 (Windows NT 6.3; Win64; x64) AppleWebKit/537.36 (KHTML, like Gecko) Chrome/79.0.3945.130 Safari/537.36",119,"[0.9, 0.5, 0.1]","[0.8, 0.4, 0.2]","[u'black', u'red', u'blue']","[u'left', u'middle', u'right']","[0.8, 0.4, 0.2]","[u'medium', u'low', u'high']","blue",51,"right","high","True","False",627,2900,NA
"AC1VR0OO1GIN9","Thu Jan 30 2020 12:25:32 GMT-0500 (Eastern Standard Time)","Thu Jan 30 2020 12:45:50 GMT-0500 (Eastern Standard Time)","Mozilla/5.0 (Windows NT 6.3; Win64; x64) AppleWebKit/537.36 (KHTML, like Gecko) Chrome/79.0.3945.130 Safari/537.36",120,"[0.9, 0.5, 0.1]","[0.8, 0.4, 0.2]","[u'black', u'red', u'blue']","[u'left', u'middle', u'right']","[0.8, 0.4, 0.2]","[u'medium', u'low', u'high']","blue",51,"right","high","True","False",445,3000,NA
"AC1VR0OO1GIN9","Thu Jan 30 2020 12:25:32 GMT-0500 (Eastern Standard Time)","Thu Jan 30 2020 12:45:50 GMT-0500 (Eastern Standard Time)","Mozilla/5.0 (Windows NT 6.3; Win64; x64) AppleWebKit/537.36 (KHTML, like Gecko) Chrome/79.0.3945.130 Safari/537.36",121,"[0.9, 0.5, 0.1]","[0.8, 0.4, 0.2]","[u'black', u'red', u'blue']","[u'left', u'middle', u'right']","[0.8, 0.4, 0.2]","[u'medium', u'high', u'low']","red",50,"middle","high","True","False",1389,3100,NA
"AC1VR0OO1GIN9","Thu Jan 30 2020 12:25:32 GMT-0500 (Eastern Standard Time)","Thu Jan 30 2020 12:45:50 GMT-0500 (Eastern Standard Time)","Mozilla/5.0 (Windows NT 6.3; Win64; x64) AppleWebKit/537.36 (KHTML, like Gecko) Chrome/79.0.3945.130 Safari/537.36",122,"[0.9, 0.5, 0.1]","[0.8, 0.4, 0.2]","[u'black', u'red', u'blue']","[u'left', u'middle', u'right']","[0.8, 0.4, 0.2]","[u'medium', u'high', u'low']","red",50,"middle","high","True","False",393,3200,NA
"AC1VR0OO1GIN9","Thu Jan 30 2020 12:25:32 GMT-0500 (Eastern Standard Time)","Thu Jan 30 2020 12:45:50 GMT-0500 (Eastern Standard Time)","Mozilla/5.0 (Windows NT 6.3; Win64; x64) AppleWebKit/537.36 (KHTML, like Gecko) Chrome/79.0.3945.130 Safari/537.36",123,"[0.9, 0.5, 0.1]","[0.8, 0.4, 0.2]","[u'black', u'red', u'blue']","[u'left', u'middle', u'right']","[0.8, 0.4, 0.2]","[u'medium', u'high', u'low']","red",50,"middle","high","True","False",114,3300,NA
"AC1VR0OO1GIN9","Thu Jan 30 2020 12:25:32 GMT-0500 (Eastern Standard Time)","Thu Jan 30 2020 12:45:50 GMT-0500 (Eastern Standard Time)","Mozilla/5.0 (Windows NT 6.3; Win64; x64) AppleWebKit/537.36 (KHTML, like Gecko) Chrome/79.0.3945.130 Safari/537.36",124,"[0.9, 0.5, 0.1]","[0.8, 0.4, 0.2]","[u'black', u'red', u'blue']","[u'left', u'middle', u'right']","[0.8, 0.4, 0.2]","[u'medium', u'high', u'low']","red",50,"middle","high","True","False",54,3400,NA
"AC1VR0OO1GIN9","Thu Jan 30 2020 12:25:32 GMT-0500 (Eastern Standard Time)","Thu Jan 30 2020 12:45:50 GMT-0500 (Eastern Standard Time)","Mozilla/5.0 (Windows NT 6.3; Win64; x64) AppleWebKit/537.36 (KHTML, like Gecko) Chrome/79.0.3945.130 Safari/537.36",125,"[0.9, 0.5, 0.1]","[0.8, 0.4, 0.2]","[u'black', u'red', u'blue']","[u'left', u'middle', u'right']","[0.8, 0.4, 0.2]","[u'medium', u'high', u'low']","red",50,"middle","high","True","False",883,3500,NA
"AC1VR0OO1GIN9","Thu Jan 30 2020 12:25:32 GMT-0500 (Eastern Standard Time)","Thu Jan 30 2020 12:45:50 GMT-0500 (Eastern Standard Time)","Mozilla/5.0 (Windows NT 6.3; Win64; x64) AppleWebKit/537.36 (KHTML, like Gecko) Chrome/79.0.3945.130 Safari/537.36",126,"[0.9, 0.5, 0.1]","[0.8, 0.4, 0.2]","[u'black', u'red', u'blue']","[u'left', u'middle', u'right']","[0.8, 0.4, 0.2]","[u'medium', u'high', u'low']","red",50,"middle","high","True","False",893,3600,NA
"AC1VR0OO1GIN9","Thu Jan 30 2020 12:25:32 GMT-0500 (Eastern Standard Time)","Thu Jan 30 2020 12:45:50 GMT-0500 (Eastern Standard Time)","Mozilla/5.0 (Windows NT 6.3; Win64; x64) AppleWebKit/537.36 (KHTML, like Gecko) Chrome/79.0.3945.130 Safari/537.36",127,"[0.9, 0.5, 0.1]","[0.8, 0.4, 0.2]","[u'black', u'red', u'blue']","[u'left', u'middle', u'right']","[0.8, 0.4, 0.2]","[u'medium', u'high', u'low']","red",50,"middle","high","True","False",652,3700,NA
"AC1VR0OO1GIN9","Thu Jan 30 2020 12:25:32 GMT-0500 (Eastern Standard Time)","Thu Jan 30 2020 12:45:50 GMT-0500 (Eastern Standard Time)","Mozilla/5.0 (Windows NT 6.3; Win64; x64) AppleWebKit/537.36 (KHTML, like Gecko) Chrome/79.0.3945.130 Safari/537.36",128,"[0.9, 0.5, 0.1]","[0.8, 0.4, 0.2]","[u'black', u'red', u'blue']","[u'left', u'middle', u'right']","[0.8, 0.4, 0.2]","[u'medium', u'high', u'low']","red",50,"middle","high","True","False",464,3800,NA
"AC1VR0OO1GIN9","Thu Jan 30 2020 12:25:32 GMT-0500 (Eastern Standard Time)","Thu Jan 30 2020 12:45:50 GMT-0500 (Eastern Standard Time)","Mozilla/5.0 (Windows NT 6.3; Win64; x64) AppleWebKit/537.36 (KHTML, like Gecko) Chrome/79.0.3945.130 Safari/537.36",129,"[0.9, 0.5, 0.1]","[0.8, 0.4, 0.2]","[u'black', u'red', u'blue']","[u'left', u'middle', u'right']","[0.8, 0.4, 0.2]","[u'medium', u'high', u'low']","red",50,"middle","high","True","True",521,3900,NA
"AC1VR0OO1GIN9","Thu Jan 30 2020 12:25:32 GMT-0500 (Eastern Standard Time)","Thu Jan 30 2020 12:45:50 GMT-0500 (Eastern Standard Time)","Mozilla/5.0 (Windows NT 6.3; Win64; x64) AppleWebKit/537.36 (KHTML, like Gecko) Chrome/79.0.3945.130 Safari/537.36",130,"[0.9, 0.5, 0.1]","[0.8, 0.4, 0.2]","[u'black', u'red', u'blue']","[u'left', u'middle', u'right']","[0.8, 0.4, 0.2]","[u'high', u'low', u'medium']","red",50,"middle","low","False","False",432,3850,NA
"AC1VR0OO1GIN9","Thu Jan 30 2020 12:25:32 GMT-0500 (Eastern Standard Time)","Thu Jan 30 2020 12:45:50 GMT-0500 (Eastern Standard Time)","Mozilla/5.0 (Windows NT 6.3; Win64; x64) AppleWebKit/537.36 (KHTML, like Gecko) Chrome/79.0.3945.130 Safari/537.36",131,"[0.9, 0.5, 0.1]","[0.8, 0.4, 0.2]","[u'black', u'red', u'blue']","[u'left', u'middle', u'right']","[0.8, 0.4, 0.2]","[u'high', u'low', u'medium']","red",50,"middle","low","False","False",367,3800,NA
"AC1VR0OO1GIN9","Thu Jan 30 2020 12:25:32 GMT-0500 (Eastern Standard Time)","Thu Jan 30 2020 12:45:50 GMT-0500 (Eastern Standard Time)","Mozilla/5.0 (Windows NT 6.3; Win64; x64) AppleWebKit/537.36 (KHTML, like Gecko) Chrome/79.0.3945.130 Safari/537.36",132,"[0.9, 0.5, 0.1]","[0.8, 0.4, 0.2]","[u'black', u'red', u'blue']","[u'left', u'middle', u'right']","[0.8, 0.4, 0.2]","[u'high', u'low', u'medium']","red",50,"middle","low","False","False",43,3750,NA
"AC1VR0OO1GIN9","Thu Jan 30 2020 12:25:32 GMT-0500 (Eastern Standard Time)","Thu Jan 30 2020 12:45:50 GMT-0500 (Eastern Standard Time)","Mozilla/5.0 (Windows NT 6.3; Win64; x64) AppleWebKit/537.36 (KHTML, like Gecko) Chrome/79.0.3945.130 Safari/537.36",133,"[0.9, 0.5, 0.1]","[0.8, 0.4, 0.2]","[u'black', u'red', u'blue']","[u'left', u'middle', u'right']","[0.8, 0.4, 0.2]","[u'high', u'low', u'medium']","red",50,"middle","low","False","False",349,3700,NA
"AC1VR0OO1GIN9","Thu Jan 30 2020 12:25:32 GMT-0500 (Eastern Standard Time)","Thu Jan 30 2020 12:45:50 GMT-0500 (Eastern Standard Time)","Mozilla/5.0 (Windows NT 6.3; Win64; x64) AppleWebKit/537.36 (KHTML, like Gecko) Chrome/79.0.3945.130 Safari/537.36",134,"[0.9, 0.5, 0.1]","[0.8, 0.4, 0.2]","[u'black', u'red', u'blue']","[u'left', u'middle', u'right']","[0.8, 0.4, 0.2]","[u'high', u'low', u'medium']","red",50,"middle","low","False","False",52,3650,NA
"AC1VR0OO1GIN9","Thu Jan 30 2020 12:25:32 GMT-0500 (Eastern Standard Time)","Thu Jan 30 2020 12:45:50 GMT-0500 (Eastern Standard Time)","Mozilla/5.0 (Windows NT 6.3; Win64; x64) AppleWebKit/537.36 (KHTML, like Gecko) Chrome/79.0.3945.130 Safari/537.36",135,"[0.9, 0.5, 0.1]","[0.8, 0.4, 0.2]","[u'black', u'red', u'blue']","[u'left', u'middle', u'right']","[0.8, 0.4, 0.2]","[u'high', u'low', u'medium']","black",49,"left","high","True","False",562,3750,NA
"AC1VR0OO1GIN9","Thu Jan 30 2020 12:25:32 GMT-0500 (Eastern Standard Time)","Thu Jan 30 2020 12:45:50 GMT-0500 (Eastern Standard Time)","Mozilla/5.0 (Windows NT 6.3; Win64; x64) AppleWebKit/537.36 (KHTML, like Gecko) Chrome/79.0.3945.130 Safari/537.36",136,"[0.9, 0.5, 0.1]","[0.8, 0.4, 0.2]","[u'black', u'red', u'blue']","[u'left', u'middle', u'right']","[0.8, 0.4, 0.2]","[u'high', u'low', u'medium']","black",49,"left","high","True","False",696,3850,NA
"AC1VR0OO1GIN9","Thu Jan 30 2020 12:25:32 GMT-0500 (Eastern Standard Time)","Thu Jan 30 2020 12:45:50 GMT-0500 (Eastern Standard Time)","Mozilla/5.0 (Windows NT 6.3; Win64; x64) AppleWebKit/537.36 (KHTML, like Gecko) Chrome/79.0.3945.130 Safari/537.36",137,"[0.9, 0.5, 0.1]","[0.8, 0.4, 0.2]","[u'black', u'red', u'blue']","[u'left', u'middle', u'right']","[0.8, 0.4, 0.2]","[u'high', u'low', u'medium']","black",49,"left","high","False","False",333,3800,NA
"AC1VR0OO1GIN9","Thu Jan 30 2020 12:25:32 GMT-0500 (Eastern Standard Time)","Thu Jan 30 2020 12:45:50 GMT-0500 (Eastern Standard Time)","Mozilla/5.0 (Windows NT 6.3; Win64; x64) AppleWebKit/537.36 (KHTML, like Gecko) Chrome/79.0.3945.130 Safari/537.36",138,"[0.9, 0.5, 0.1]","[0.8, 0.4, 0.2]","[u'black', u'red', u'blue']","[u'left', u'middle', u'right']","[0.8, 0.4, 0.2]","[u'high', u'low', u'medium']","red",50,"middle","low","False","False",39160,3750,NA
"AC1VR0OO1GIN9","Thu Jan 30 2020 12:25:32 GMT-0500 (Eastern Standard Time)","Thu Jan 30 2020 12:45:50 GMT-0500 (Eastern Standard Time)","Mozilla/5.0 (Windows NT 6.3; Win64; x64) AppleWebKit/537.36 (KHTML, like Gecko) Chrome/79.0.3945.130 Safari/537.36",139,"[0.9, 0.5, 0.1]","[0.8, 0.4, 0.2]","[u'black', u'red', u'blue']","[u'left', u'middle', u'right']","[0.8, 0.4, 0.2]","[u'high', u'low', u'medium']","red",50,"middle","low","False","False",260137,3700,NA
"AC1VR0OO1GIN9","Thu Jan 30 2020 12:25:32 GMT-0500 (Eastern Standard Time)","Thu Jan 30 2020 12:45:50 GMT-0500 (Eastern Standard Time)","Mozilla/5.0 (Windows NT 6.3; Win64; x64) AppleWebKit/537.36 (KHTML, like Gecko) Chrome/79.0.3945.130 Safari/537.36",140,"[0.9, 0.5, 0.1]","[0.8, 0.4, 0.2]","[u'black', u'red', u'blue']","[u'left', u'middle', u'right']","[0.8, 0.4, 0.2]","[u'high', u'low', u'medium']","black",49,"left","high","True","False",517,3800,NA
"AC1VR0OO1GIN9","Thu Jan 30 2020 12:25:32 GMT-0500 (Eastern Standard Time)","Thu Jan 30 2020 12:45:50 GMT-0500 (Eastern Standard Time)","Mozilla/5.0 (Windows NT 6.3; Win64; x64) AppleWebKit/537.36 (KHTML, like Gecko) Chrome/79.0.3945.130 Safari/537.36",141,"[0.9, 0.5, 0.1]","[0.8, 0.4, 0.2]","[u'black', u'red', u'blue']","[u'left', u'middle', u'right']","[0.8, 0.4, 0.2]","[u'high', u'low', u'medium']","black",49,"left","high","True","False",368,3900,NA
"AC1VR0OO1GIN9","Thu Jan 30 2020 12:25:32 GMT-0500 (Eastern Standard Time)","Thu Jan 30 2020 12:45:50 GMT-0500 (Eastern Standard Time)","Mozilla/5.0 (Windows NT 6.3; Win64; x64) AppleWebKit/537.36 (KHTML, like Gecko) Chrome/79.0.3945.130 Safari/537.36",142,"[0.9, 0.5, 0.1]","[0.8, 0.4, 0.2]","[u'black', u'red', u'blue']","[u'left', u'middle', u'right']","[0.8, 0.4, 0.2]","[u'high', u'low', u'medium']","black",49,"left","high","True","False",580,4000,NA
"AC1VR0OO1GIN9","Thu Jan 30 2020 12:25:32 GMT-0500 (Eastern Standard Time)","Thu Jan 30 2020 12:45:50 GMT-0500 (Eastern Standard Time)","Mozilla/5.0 (Windows NT 6.3; Win64; x64) AppleWebKit/537.36 (KHTML, like Gecko) Chrome/79.0.3945.130 Safari/537.36",143,"[0.9, 0.5, 0.1]","[0.8, 0.4, 0.2]","[u'black', u'red', u'blue']","[u'left', u'middle', u'right']","[0.8, 0.4, 0.2]","[u'high', u'low', u'medium']","black",49,"left","high","True","False",424,4100,NA
"AC1VR0OO1GIN9","Thu Jan 30 2020 12:25:32 GMT-0500 (Eastern Standard Time)","Thu Jan 30 2020 12:45:50 GMT-0500 (Eastern Standard Time)","Mozilla/5.0 (Windows NT 6.3; Win64; x64) AppleWebKit/537.36 (KHTML, like Gecko) Chrome/79.0.3945.130 Safari/537.36",144,"[0.9, 0.5, 0.1]","[0.8, 0.4, 0.2]","[u'black', u'red', u'blue']","[u'left', u'middle', u'right']","[0.8, 0.4, 0.2]","[u'high', u'low', u'medium']","black",49,"left","high","True","False",421,4200,NA
"AC1VR0OO1GIN9","Thu Jan 30 2020 12:25:32 GMT-0500 (Eastern Standard Time)","Thu Jan 30 2020 12:45:50 GMT-0500 (Eastern Standard Time)","Mozilla/5.0 (Windows NT 6.3; Win64; x64) AppleWebKit/537.36 (KHTML, like Gecko) Chrome/79.0.3945.130 Safari/537.36",145,"[0.9, 0.5, 0.1]","[0.8, 0.4, 0.2]","[u'black', u'red', u'blue']","[u'left', u'middle', u'right']","[0.8, 0.4, 0.2]","[u'high', u'low', u'medium']","black",49,"left","high","True","False",437,4300,NA
"AC1VR0OO1GIN9","Thu Jan 30 2020 12:25:32 GMT-0500 (Eastern Standard Time)","Thu Jan 30 2020 12:45:50 GMT-0500 (Eastern Standard Time)","Mozilla/5.0 (Windows NT 6.3; Win64; x64) AppleWebKit/537.36 (KHTML, like Gecko) Chrome/79.0.3945.130 Safari/537.36",146,"[0.9, 0.5, 0.1]","[0.8, 0.4, 0.2]","[u'black', u'red', u'blue']","[u'left', u'middle', u'right']","[0.8, 0.4, 0.2]","[u'high', u'low', u'medium']","black",49,"left","high","False","False",468,4250,NA
"AC1VR0OO1GIN9","Thu Jan 30 2020 12:25:32 GMT-0500 (Eastern Standard Time)","Thu Jan 30 2020 12:45:50 GMT-0500 (Eastern Standard Time)","Mozilla/5.0 (Windows NT 6.3; Win64; x64) AppleWebKit/537.36 (KHTML, like Gecko) Chrome/79.0.3945.130 Safari/537.36",147,"[0.9, 0.5, 0.1]","[0.8, 0.4, 0.2]","[u'black', u'red', u'blue']","[u'left', u'middle', u'right']","[0.8, 0.4, 0.2]","[u'high', u'low', u'medium']","black",49,"left","high","True","False",300,4350,NA
"AC1VR0OO1GIN9","Thu Jan 30 2020 12:25:32 GMT-0500 (Eastern Standard Time)","Thu Jan 30 2020 12:45:50 GMT-0500 (Eastern Standard Time)","Mozilla/5.0 (Windows NT 6.3; Win64; x64) AppleWebKit/537.36 (KHTML, like Gecko) Chrome/79.0.3945.130 Safari/537.36",148,"[0.9, 0.5, 0.1]","[0.8, 0.4, 0.2]","[u'black', u'red', u'blue']","[u'left', u'middle', u'right']","[0.8, 0.4, 0.2]","[u'high', u'low', u'medium']","black",49,"left","high","True","True",297,4450,NA
"AC1VR0OO1GIN9","Thu Jan 30 2020 12:25:32 GMT-0500 (Eastern Standard Time)","Thu Jan 30 2020 12:45:50 GMT-0500 (Eastern Standard Time)","Mozilla/5.0 (Windows NT 6.3; Win64; x64) AppleWebKit/537.36 (KHTML, like Gecko) Chrome/79.0.3945.130 Safari/537.36",149,"[0.9, 0.5, 0.1]","[0.8, 0.4, 0.2]","[u'black', u'red', u'blue']","[u'left', u'middle', u'right']","[0.8, 0.4, 0.2]","[u'medium', u'low', u'high']","black",49,"left","medium","False","False",60138,4400,NA
"AC1VR0OO1GIN9","Thu Jan 30 2020 12:25:32 GMT-0500 (Eastern Standard Time)","Thu Jan 30 2020 12:45:50 GMT-0500 (Eastern Standard Time)","Mozilla/5.0 (Windows NT 6.3; Win64; x64) AppleWebKit/537.36 (KHTML, like Gecko) Chrome/79.0.3945.130 Safari/537.36",150,"[0.9, 0.5, 0.1]","[0.8, 0.4, 0.2]","[u'black', u'red', u'blue']","[u'left', u'middle', u'right']","[0.8, 0.4, 0.2]","[u'medium', u'low', u'high']","black",49,"left","medium","True","False",493,4500,NA
"AC1VR0OO1GIN9","Thu Jan 30 2020 12:25:32 GMT-0500 (Eastern Standard Time)","Thu Jan 30 2020 12:45:50 GMT-0500 (Eastern Standard Time)","Mozilla/5.0 (Windows NT 6.3; Win64; x64) AppleWebKit/537.36 (KHTML, like Gecko) Chrome/79.0.3945.130 Safari/537.36",151,"[0.9, 0.5, 0.1]","[0.8, 0.4, 0.2]","[u'black', u'red', u'blue']","[u'left', u'middle', u'right']","[0.8, 0.4, 0.2]","[u'medium', u'low', u'high']","black",49,"left","medium","False","False",569,4450,NA
"AC1VR0OO1GIN9","Thu Jan 30 2020 12:25:32 GMT-0500 (Eastern Standard Time)","Thu Jan 30 2020 12:45:50 GMT-0500 (Eastern Standard Time)","Mozilla/5.0 (Windows NT 6.3; Win64; x64) AppleWebKit/537.36 (KHTML, like Gecko) Chrome/79.0.3945.130 Safari/537.36",152,"[0.9, 0.5, 0.1]","[0.8, 0.4, 0.2]","[u'black', u'red', u'blue']","[u'left', u'middle', u'right']","[0.8, 0.4, 0.2]","[u'medium', u'low', u'high']","black",49,"left","medium","False","False",45,4400,NA
"AC1VR0OO1GIN9","Thu Jan 30 2020 12:25:32 GMT-0500 (Eastern Standard Time)","Thu Jan 30 2020 12:45:50 GMT-0500 (Eastern Standard Time)","Mozilla/5.0 (Windows NT 6.3; Win64; x64) AppleWebKit/537.36 (KHTML, like Gecko) Chrome/79.0.3945.130 Safari/537.36",153,"[0.9, 0.5, 0.1]","[0.8, 0.4, 0.2]","[u'black', u'red', u'blue']","[u'left', u'middle', u'right']","[0.8, 0.4, 0.2]","[u'medium', u'low', u'high']","black",49,"left","medium","True","False",3784,4500,NA
"AC1VR0OO1GIN9","Thu Jan 30 2020 12:25:32 GMT-0500 (Eastern Standard Time)","Thu Jan 30 2020 12:45:50 GMT-0500 (Eastern Standard Time)","Mozilla/5.0 (Windows NT 6.3; Win64; x64) AppleWebKit/537.36 (KHTML, like Gecko) Chrome/79.0.3945.130 Safari/537.36",154,"[0.9, 0.5, 0.1]","[0.8, 0.4, 0.2]","[u'black', u'red', u'blue']","[u'left', u'middle', u'right']","[0.8, 0.4, 0.2]","[u'medium', u'low', u'high']","black",49,"left","medium","True","False",570,4600,NA
"AC1VR0OO1GIN9","Thu Jan 30 2020 12:25:32 GMT-0500 (Eastern Standard Time)","Thu Jan 30 2020 12:45:50 GMT-0500 (Eastern Standard Time)","Mozilla/5.0 (Windows NT 6.3; Win64; x64) AppleWebKit/537.36 (KHTML, like Gecko) Chrome/79.0.3945.130 Safari/537.36",155,"[0.9, 0.5, 0.1]","[0.8, 0.4, 0.2]","[u'black', u'red', u'blue']","[u'left', u'middle', u'right']","[0.8, 0.4, 0.2]","[u'medium', u'low', u'high']","black",49,"left","medium","False","False",405,4550,NA
"AC1VR0OO1GIN9","Thu Jan 30 2020 12:25:32 GMT-0500 (Eastern Standard Time)","Thu Jan 30 2020 12:45:50 GMT-0500 (Eastern Standard Time)","Mozilla/5.0 (Windows NT 6.3; Win64; x64) AppleWebKit/537.36 (KHTML, like Gecko) Chrome/79.0.3945.130 Safari/537.36",156,"[0.9, 0.5, 0.1]","[0.8, 0.4, 0.2]","[u'black', u'red', u'blue']","[u'left', u'middle', u'right']","[0.8, 0.4, 0.2]","[u'medium', u'low', u'high']","black",49,"left","medium","True","False",367,4650,NA
"AC1VR0OO1GIN9","Thu Jan 30 2020 12:25:32 GMT-0500 (Eastern Standard Time)","Thu Jan 30 2020 12:45:50 GMT-0500 (Eastern Standard Time)","Mozilla/5.0 (Windows NT 6.3; Win64; x64) AppleWebKit/537.36 (KHTML, like Gecko) Chrome/79.0.3945.130 Safari/537.36",157,"[0.9, 0.5, 0.1]","[0.8, 0.4, 0.2]","[u'black', u'red', u'blue']","[u'left', u'middle', u'right']","[0.8, 0.4, 0.2]","[u'medium', u'low', u'high']","black",49,"left","medium","False","False",1619,4600,NA
"AC1VR0OO1GIN9","Thu Jan 30 2020 12:25:32 GMT-0500 (Eastern Standard Time)","Thu Jan 30 2020 12:45:50 GMT-0500 (Eastern Standard Time)","Mozilla/5.0 (Windows NT 6.3; Win64; x64) AppleWebKit/537.36 (KHTML, like Gecko) Chrome/79.0.3945.130 Safari/537.36",158,"[0.9, 0.5, 0.1]","[0.8, 0.4, 0.2]","[u'black', u'red', u'blue']","[u'left', u'middle', u'right']","[0.8, 0.4, 0.2]","[u'medium', u'low', u'high']","black",49,"left","medium","False","False",434,4550,NA
"AC1VR0OO1GIN9","Thu Jan 30 2020 12:25:32 GMT-0500 (Eastern Standard Time)","Thu Jan 30 2020 12:45:50 GMT-0500 (Eastern Standard Time)","Mozilla/5.0 (Windows NT 6.3; Win64; x64) AppleWebKit/537.36 (KHTML, like Gecko) Chrome/79.0.3945.130 Safari/537.36",159,"[0.9, 0.5, 0.1]","[0.8, 0.4, 0.2]","[u'black', u'red', u'blue']","[u'left', u'middle', u'right']","[0.8, 0.4, 0.2]","[u'medium', u'low', u'high']","red",50,"middle","low","False","False",445,4500,NA
"AC1VR0OO1GIN9","Thu Jan 30 2020 12:25:32 GMT-0500 (Eastern Standard Time)","Thu Jan 30 2020 12:45:50 GMT-0500 (Eastern Standard Time)","Mozilla/5.0 (Windows NT 6.3; Win64; x64) AppleWebKit/537.36 (KHTML, like Gecko) Chrome/79.0.3945.130 Safari/537.36",160,"[0.9, 0.5, 0.1]","[0.8, 0.4, 0.2]","[u'black', u'red', u'blue']","[u'left', u'middle', u'right']","[0.8, 0.4, 0.2]","[u'medium', u'low', u'high']","blue",51,"right","high","True","False",519,4600,NA
