"src_subject_id","start_time","end_time","browser","index","first_half_probabilities","second_half_probabilities","deck_color","deck_position","deck_probabilities","deck_contingencies","response_color","key_press","response_position","response_probability","reward_type","trial_type","rt","reward_tally","exclusion_reason"
"A3S1TLYMH9WWUG","Thu Jan 30 2020 14:26:42 GMT-0500 (Eastern Standard Time)","Thu Jan 30 2020 14:32:41 GMT-0500 (Eastern Standard Time)","Mozilla/5.0 (Windows NT 10.0; Win64; x64) AppleWebKit/537.36 (KHTML, like Gecko) Chrome/79.0.3945.117 Safari/537.36",1,"[0.9, 0.5, 0.1]","[0.8, 0.4, 0.2]","[u'blue', u'black', u'red']","[u'left', u'middle', u'right']","[0.9, 0.5, 0.1]","[u'high', u'low', u'medium']","blue",49,"left","high","True","False",530,100,NA
"A3S1TLYMH9WWUG","Thu Jan 30 2020 14:26:42 GMT-0500 (Eastern Standard Time)","Thu Jan 30 2020 14:32:41 GMT-0500 (Eastern Standard Time)","Mozilla/5.0 (Windows NT 10.0; Win64; x64) AppleWebKit/537.36 (KHTML, like Gecko) Chrome/79.0.3945.117 Safari/537.36",2,"[0.9, 0.5, 0.1]","[0.8, 0.4, 0.2]","[u'blue', u'black', u'red']","[u'left', u'middle', u'right']","[0.9, 0.5, 0.1]","[u'high', u'low', u'medium']","blue",49,"left","high","True","False",451,200,NA
"A3S1TLYMH9WWUG","Thu Jan 30 2020 14:26:42 GMT-0500 (Eastern Standard Time)","Thu Jan 30 2020 14:32:41 GMT-0500 (Eastern Standard Time)","Mozilla/5.0 (Windows NT 10.0; Win64; x64) AppleWebKit/537.36 (KHTML, like Gecko) Chrome/79.0.3945.117 Safari/537.36",3,"[0.9, 0.5, 0.1]","[0.8, 0.4, 0.2]","[u'blue', u'black', u'red']","[u'left', u'middle', u'right']","[0.9, 0.5, 0.1]","[u'high', u'low', u'medium']","blue",49,"left","high","True","False",402,300,NA
"A3S1TLYMH9WWUG","Thu Jan 30 2020 14:26:42 GMT-0500 (Eastern Standard Time)","Thu Jan 30 2020 14:32:41 GMT-0500 (Eastern Standard Time)","Mozilla/5.0 (Windows NT 10.0; Win64; x64) AppleWebKit/537.36 (KHTML, like Gecko) Chrome/79.0.3945.117 Safari/537.36",4,"[0.9, 0.5, 0.1]","[0.8, 0.4, 0.2]","[u'blue', u'black', u'red']","[u'left', u'middle', u'right']","[0.9, 0.5, 0.1]","[u'high', u'low', u'medium']","blue",49,"left","high","True","False",466,400,NA
"A3S1TLYMH9WWUG","Thu Jan 30 2020 14:26:42 GMT-0500 (Eastern Standard Time)","Thu Jan 30 2020 14:32:41 GMT-0500 (Eastern Standard Time)","Mozilla/5.0 (Windows NT 10.0; Win64; x64) AppleWebKit/537.36 (KHTML, like Gecko) Chrome/79.0.3945.117 Safari/537.36",5,"[0.9, 0.5, 0.1]","[0.8, 0.4, 0.2]","[u'blue', u'black', u'red']","[u'left', u'middle', u'right']","[0.9, 0.5, 0.1]","[u'high', u'low', u'medium']","blue",49,"left","high","True","False",354,500,NA
"A3S1TLYMH9WWUG","Thu Jan 30 2020 14:26:42 GMT-0500 (Eastern Standard Time)","Thu Jan 30 2020 14:32:41 GMT-0500 (Eastern Standard Time)","Mozilla/5.0 (Windows NT 10.0; Win64; x64) AppleWebKit/537.36 (KHTML, like Gecko) Chrome/79.0.3945.117 Safari/537.36",6,"[0.9, 0.5, 0.1]","[0.8, 0.4, 0.2]","[u'blue', u'black', u'red']","[u'left', u'middle', u'right']","[0.9, 0.5, 0.1]","[u'high', u'low', u'medium']","blue",49,"left","high","False","False",402,450,NA
"A3S1TLYMH9WWUG","Thu Jan 30 2020 14:26:42 GMT-0500 (Eastern Standard Time)","Thu Jan 30 2020 14:32:41 GMT-0500 (Eastern Standard Time)","Mozilla/5.0 (Windows NT 10.0; Win64; x64) AppleWebKit/537.36 (KHTML, like Gecko) Chrome/79.0.3945.117 Safari/537.36",7,"[0.9, 0.5, 0.1]","[0.8, 0.4, 0.2]","[u'blue', u'black', u'red']","[u'left', u'middle', u'right']","[0.9, 0.5, 0.1]","[u'high', u'low', u'medium']","red",51,"right","medium","True","False",434,550,NA
"A3S1TLYMH9WWUG","Thu Jan 30 2020 14:26:42 GMT-0500 (Eastern Standard Time)","Thu Jan 30 2020 14:32:41 GMT-0500 (Eastern Standard Time)","Mozilla/5.0 (Windows NT 10.0; Win64; x64) AppleWebKit/537.36 (KHTML, like Gecko) Chrome/79.0.3945.117 Safari/537.36",8,"[0.9, 0.5, 0.1]","[0.8, 0.4, 0.2]","[u'blue', u'black', u'red']","[u'left', u'middle', u'right']","[0.9, 0.5, 0.1]","[u'high', u'low', u'medium']","red",51,"right","medium","True","False",337,650,NA
"A3S1TLYMH9WWUG","Thu Jan 30 2020 14:26:42 GMT-0500 (Eastern Standard Time)","Thu Jan 30 2020 14:32:41 GMT-0500 (Eastern Standard Time)","Mozilla/5.0 (Windows NT 10.0; Win64; x64) AppleWebKit/537.36 (KHTML, like Gecko) Chrome/79.0.3945.117 Safari/537.36",9,"[0.9, 0.5, 0.1]","[0.8, 0.4, 0.2]","[u'blue', u'black', u'red']","[u'left', u'middle', u'right']","[0.9, 0.5, 0.1]","[u'high', u'low', u'medium']","red",51,"right","medium","True","False",354,750,NA
"A3S1TLYMH9WWUG","Thu Jan 30 2020 14:26:42 GMT-0500 (Eastern Standard Time)","Thu Jan 30 2020 14:32:41 GMT-0500 (Eastern Standard Time)","Mozilla/5.0 (Windows NT 10.0; Win64; x64) AppleWebKit/537.36 (KHTML, like Gecko) Chrome/79.0.3945.117 Safari/537.36",10,"[0.9, 0.5, 0.1]","[0.8, 0.4, 0.2]","[u'blue', u'black', u'red']","[u'left', u'middle', u'right']","[0.9, 0.5, 0.1]","[u'high', u'low', u'medium']","red",51,"right","medium","False","False",339,700,NA
"A3S1TLYMH9WWUG","Thu Jan 30 2020 14:26:42 GMT-0500 (Eastern Standard Time)","Thu Jan 30 2020 14:32:41 GMT-0500 (Eastern Standard Time)","Mozilla/5.0 (Windows NT 10.0; Win64; x64) AppleWebKit/537.36 (KHTML, like Gecko) Chrome/79.0.3945.117 Safari/537.36",11,"[0.9, 0.5, 0.1]","[0.8, 0.4, 0.2]","[u'blue', u'black', u'red']","[u'left', u'middle', u'right']","[0.9, 0.5, 0.1]","[u'high', u'low', u'medium']","black",50,"middle","low","False","False",211,650,NA
"A3S1TLYMH9WWUG","Thu Jan 30 2020 14:26:42 GMT-0500 (Eastern Standard Time)","Thu Jan 30 2020 14:32:41 GMT-0500 (Eastern Standard Time)","Mozilla/5.0 (Windows NT 10.0; Win64; x64) AppleWebKit/537.36 (KHTML, like Gecko) Chrome/79.0.3945.117 Safari/537.36",12,"[0.9, 0.5, 0.1]","[0.8, 0.4, 0.2]","[u'blue', u'black', u'red']","[u'left', u'middle', u'right']","[0.9, 0.5, 0.1]","[u'high', u'low', u'medium']","blue",49,"left","high","True","False",163,750,NA
"A3S1TLYMH9WWUG","Thu Jan 30 2020 14:26:42 GMT-0500 (Eastern Standard Time)","Thu Jan 30 2020 14:32:41 GMT-0500 (Eastern Standard Time)","Mozilla/5.0 (Windows NT 10.0; Win64; x64) AppleWebKit/537.36 (KHTML, like Gecko) Chrome/79.0.3945.117 Safari/537.36",13,"[0.9, 0.5, 0.1]","[0.8, 0.4, 0.2]","[u'blue', u'black', u'red']","[u'left', u'middle', u'right']","[0.9, 0.5, 0.1]","[u'high', u'low', u'medium']","blue",49,"left","high","True","False",415,850,NA
"A3S1TLYMH9WWUG","Thu Jan 30 2020 14:26:42 GMT-0500 (Eastern Standard Time)","Thu Jan 30 2020 14:32:41 GMT-0500 (Eastern Standard Time)","Mozilla/5.0 (Windows NT 10.0; Win64; x64) AppleWebKit/537.36 (KHTML, like Gecko) Chrome/79.0.3945.117 Safari/537.36",14,"[0.9, 0.5, 0.1]","[0.8, 0.4, 0.2]","[u'blue', u'black', u'red']","[u'left', u'middle', u'right']","[0.9, 0.5, 0.1]","[u'high', u'low', u'medium']","blue",49,"left","high","True","False",402,950,NA
"A3S1TLYMH9WWUG","Thu Jan 30 2020 14:26:42 GMT-0500 (Eastern Standard Time)","Thu Jan 30 2020 14:32:41 GMT-0500 (Eastern Standard Time)","Mozilla/5.0 (Windows NT 10.0; Win64; x64) AppleWebKit/537.36 (KHTML, like Gecko) Chrome/79.0.3945.117 Safari/537.36",15,"[0.9, 0.5, 0.1]","[0.8, 0.4, 0.2]","[u'blue', u'black', u'red']","[u'left', u'middle', u'right']","[0.9, 0.5, 0.1]","[u'high', u'low', u'medium']","blue",49,"left","high","False","False",464,900,NA
"A3S1TLYMH9WWUG","Thu Jan 30 2020 14:26:42 GMT-0500 (Eastern Standard Time)","Thu Jan 30 2020 14:32:41 GMT-0500 (Eastern Standard Time)","Mozilla/5.0 (Windows NT 10.0; Win64; x64) AppleWebKit/537.36 (KHTML, like Gecko) Chrome/79.0.3945.117 Safari/537.36",16,"[0.9, 0.5, 0.1]","[0.8, 0.4, 0.2]","[u'blue', u'black', u'red']","[u'left', u'middle', u'right']","[0.9, 0.5, 0.1]","[u'high', u'low', u'medium']","red",51,"right","medium","True","False",251,1000,NA
"A3S1TLYMH9WWUG","Thu Jan 30 2020 14:26:42 GMT-0500 (Eastern Standard Time)","Thu Jan 30 2020 14:32:41 GMT-0500 (Eastern Standard Time)","Mozilla/5.0 (Windows NT 10.0; Win64; x64) AppleWebKit/537.36 (KHTML, like Gecko) Chrome/79.0.3945.117 Safari/537.36",17,"[0.9, 0.5, 0.1]","[0.8, 0.4, 0.2]","[u'blue', u'black', u'red']","[u'left', u'middle', u'right']","[0.9, 0.5, 0.1]","[u'high', u'low', u'medium']","red",51,"right","medium","True","False",451,1100,NA
"A3S1TLYMH9WWUG","Thu Jan 30 2020 14:26:42 GMT-0500 (Eastern Standard Time)","Thu Jan 30 2020 14:32:41 GMT-0500 (Eastern Standard Time)","Mozilla/5.0 (Windows NT 10.0; Win64; x64) AppleWebKit/537.36 (KHTML, like Gecko) Chrome/79.0.3945.117 Safari/537.36",18,"[0.9, 0.5, 0.1]","[0.8, 0.4, 0.2]","[u'blue', u'black', u'red']","[u'left', u'middle', u'right']","[0.9, 0.5, 0.1]","[u'high', u'low', u'medium']","red",51,"right","medium","True","False",420,1200,NA
"A3S1TLYMH9WWUG","Thu Jan 30 2020 14:26:42 GMT-0500 (Eastern Standard Time)","Thu Jan 30 2020 14:32:41 GMT-0500 (Eastern Standard Time)","Mozilla/5.0 (Windows NT 10.0; Win64; x64) AppleWebKit/537.36 (KHTML, like Gecko) Chrome/79.0.3945.117 Safari/537.36",19,"[0.9, 0.5, 0.1]","[0.8, 0.4, 0.2]","[u'blue', u'black', u'red']","[u'left', u'middle', u'right']","[0.9, 0.5, 0.1]","[u'high', u'low', u'medium']","red",51,"right","medium","False","False",370,1150,NA
"A3S1TLYMH9WWUG","Thu Jan 30 2020 14:26:42 GMT-0500 (Eastern Standard Time)","Thu Jan 30 2020 14:32:41 GMT-0500 (Eastern Standard Time)","Mozilla/5.0 (Windows NT 10.0; Win64; x64) AppleWebKit/537.36 (KHTML, like Gecko) Chrome/79.0.3945.117 Safari/537.36",20,"[0.9, 0.5, 0.1]","[0.8, 0.4, 0.2]","[u'blue', u'black', u'red']","[u'left', u'middle', u'right']","[0.9, 0.5, 0.1]","[u'high', u'low', u'medium']","blue",49,"left","high","True","False",242,1250,NA
"A3S1TLYMH9WWUG","Thu Jan 30 2020 14:26:42 GMT-0500 (Eastern Standard Time)","Thu Jan 30 2020 14:32:41 GMT-0500 (Eastern Standard Time)","Mozilla/5.0 (Windows NT 10.0; Win64; x64) AppleWebKit/537.36 (KHTML, like Gecko) Chrome/79.0.3945.117 Safari/537.36",21,"[0.9, 0.5, 0.1]","[0.8, 0.4, 0.2]","[u'blue', u'black', u'red']","[u'left', u'middle', u'right']","[0.9, 0.5, 0.1]","[u'high', u'low', u'medium']","blue",49,"left","high","True","False",242,1350,NA
"A3S1TLYMH9WWUG","Thu Jan 30 2020 14:26:42 GMT-0500 (Eastern Standard Time)","Thu Jan 30 2020 14:32:41 GMT-0500 (Eastern Standard Time)","Mozilla/5.0 (Windows NT 10.0; Win64; x64) AppleWebKit/537.36 (KHTML, like Gecko) Chrome/79.0.3945.117 Safari/537.36",22,"[0.9, 0.5, 0.1]","[0.8, 0.4, 0.2]","[u'blue', u'black', u'red']","[u'left', u'middle', u'right']","[0.9, 0.5, 0.1]","[u'high', u'low', u'medium']","blue",49,"left","high","True","False",339,1450,NA
"A3S1TLYMH9WWUG","Thu Jan 30 2020 14:26:42 GMT-0500 (Eastern Standard Time)","Thu Jan 30 2020 14:32:41 GMT-0500 (Eastern Standard Time)","Mozilla/5.0 (Windows NT 10.0; Win64; x64) AppleWebKit/537.36 (KHTML, like Gecko) Chrome/79.0.3945.117 Safari/537.36",23,"[0.9, 0.5, 0.1]","[0.8, 0.4, 0.2]","[u'blue', u'black', u'red']","[u'left', u'middle', u'right']","[0.9, 0.5, 0.1]","[u'high', u'low', u'medium']","blue",49,"left","high","True","False",259,1550,NA
"A3S1TLYMH9WWUG","Thu Jan 30 2020 14:26:42 GMT-0500 (Eastern Standard Time)","Thu Jan 30 2020 14:32:41 GMT-0500 (Eastern Standard Time)","Mozilla/5.0 (Windows NT 10.0; Win64; x64) AppleWebKit/537.36 (KHTML, like Gecko) Chrome/79.0.3945.117 Safari/537.36",24,"[0.9, 0.5, 0.1]","[0.8, 0.4, 0.2]","[u'blue', u'black', u'red']","[u'left', u'middle', u'right']","[0.9, 0.5, 0.1]","[u'high', u'low', u'medium']","blue",49,"left","high","True","False",258,1650,NA
"A3S1TLYMH9WWUG","Thu Jan 30 2020 14:26:42 GMT-0500 (Eastern Standard Time)","Thu Jan 30 2020 14:32:41 GMT-0500 (Eastern Standard Time)","Mozilla/5.0 (Windows NT 10.0; Win64; x64) AppleWebKit/537.36 (KHTML, like Gecko) Chrome/79.0.3945.117 Safari/537.36",25,"[0.9, 0.5, 0.1]","[0.8, 0.4, 0.2]","[u'blue', u'black', u'red']","[u'left', u'middle', u'right']","[0.9, 0.5, 0.1]","[u'high', u'low', u'medium']","blue",49,"left","high","False","False",267,1600,NA
"A3S1TLYMH9WWUG","Thu Jan 30 2020 14:26:42 GMT-0500 (Eastern Standard Time)","Thu Jan 30 2020 14:32:41 GMT-0500 (Eastern Standard Time)","Mozilla/5.0 (Windows NT 10.0; Win64; x64) AppleWebKit/537.36 (KHTML, like Gecko) Chrome/79.0.3945.117 Safari/537.36",26,"[0.9, 0.5, 0.1]","[0.8, 0.4, 0.2]","[u'blue', u'black', u'red']","[u'left', u'middle', u'right']","[0.9, 0.5, 0.1]","[u'high', u'low', u'medium']","red",51,"right","medium","True","False",194,1700,NA
"A3S1TLYMH9WWUG","Thu Jan 30 2020 14:26:42 GMT-0500 (Eastern Standard Time)","Thu Jan 30 2020 14:32:41 GMT-0500 (Eastern Standard Time)","Mozilla/5.0 (Windows NT 10.0; Win64; x64) AppleWebKit/537.36 (KHTML, like Gecko) Chrome/79.0.3945.117 Safari/537.36",27,"[0.9, 0.5, 0.1]","[0.8, 0.4, 0.2]","[u'blue', u'black', u'red']","[u'left', u'middle', u'right']","[0.9, 0.5, 0.1]","[u'high', u'low', u'medium']","red",51,"right","medium","False","False",162,1650,NA
"A3S1TLYMH9WWUG","Thu Jan 30 2020 14:26:42 GMT-0500 (Eastern Standard Time)","Thu Jan 30 2020 14:32:41 GMT-0500 (Eastern Standard Time)","Mozilla/5.0 (Windows NT 10.0; Win64; x64) AppleWebKit/537.36 (KHTML, like Gecko) Chrome/79.0.3945.117 Safari/537.36",28,"[0.9, 0.5, 0.1]","[0.8, 0.4, 0.2]","[u'blue', u'black', u'red']","[u'left', u'middle', u'right']","[0.9, 0.5, 0.1]","[u'high', u'low', u'medium']","blue",49,"left","high","True","False",99,1750,NA
"A3S1TLYMH9WWUG","Thu Jan 30 2020 14:26:42 GMT-0500 (Eastern Standard Time)","Thu Jan 30 2020 14:32:41 GMT-0500 (Eastern Standard Time)","Mozilla/5.0 (Windows NT 10.0; Win64; x64) AppleWebKit/537.36 (KHTML, like Gecko) Chrome/79.0.3945.117 Safari/537.36",29,"[0.9, 0.5, 0.1]","[0.8, 0.4, 0.2]","[u'blue', u'black', u'red']","[u'left', u'middle', u'right']","[0.9, 0.5, 0.1]","[u'high', u'low', u'medium']","blue",49,"left","high","True","False",227,1850,NA
"A3S1TLYMH9WWUG","Thu Jan 30 2020 14:26:42 GMT-0500 (Eastern Standard Time)","Thu Jan 30 2020 14:32:41 GMT-0500 (Eastern Standard Time)","Mozilla/5.0 (Windows NT 10.0; Win64; x64) AppleWebKit/537.36 (KHTML, like Gecko) Chrome/79.0.3945.117 Safari/537.36",30,"[0.9, 0.5, 0.1]","[0.8, 0.4, 0.2]","[u'blue', u'black', u'red']","[u'left', u'middle', u'right']","[0.9, 0.5, 0.1]","[u'high', u'low', u'medium']","blue",49,"left","high","True","False",227,1950,NA
"A3S1TLYMH9WWUG","Thu Jan 30 2020 14:26:42 GMT-0500 (Eastern Standard Time)","Thu Jan 30 2020 14:32:41 GMT-0500 (Eastern Standard Time)","Mozilla/5.0 (Windows NT 10.0; Win64; x64) AppleWebKit/537.36 (KHTML, like Gecko) Chrome/79.0.3945.117 Safari/537.36",31,"[0.9, 0.5, 0.1]","[0.8, 0.4, 0.2]","[u'blue', u'black', u'red']","[u'left', u'middle', u'right']","[0.9, 0.5, 0.1]","[u'high', u'low', u'medium']","blue",49,"left","high","True","False",243,2050,NA
"A3S1TLYMH9WWUG","Thu Jan 30 2020 14:26:42 GMT-0500 (Eastern Standard Time)","Thu Jan 30 2020 14:32:41 GMT-0500 (Eastern Standard Time)","Mozilla/5.0 (Windows NT 10.0; Win64; x64) AppleWebKit/537.36 (KHTML, like Gecko) Chrome/79.0.3945.117 Safari/537.36",32,"[0.9, 0.5, 0.1]","[0.8, 0.4, 0.2]","[u'blue', u'black', u'red']","[u'left', u'middle', u'right']","[0.9, 0.5, 0.1]","[u'high', u'low', u'medium']","blue",49,"left","high","True","False",243,2150,NA
"A3S1TLYMH9WWUG","Thu Jan 30 2020 14:26:42 GMT-0500 (Eastern Standard Time)","Thu Jan 30 2020 14:32:41 GMT-0500 (Eastern Standard Time)","Mozilla/5.0 (Windows NT 10.0; Win64; x64) AppleWebKit/537.36 (KHTML, like Gecko) Chrome/79.0.3945.117 Safari/537.36",33,"[0.9, 0.5, 0.1]","[0.8, 0.4, 0.2]","[u'blue', u'black', u'red']","[u'left', u'middle', u'right']","[0.9, 0.5, 0.1]","[u'high', u'low', u'medium']","blue",49,"left","high","False","False",244,2100,NA
"A3S1TLYMH9WWUG","Thu Jan 30 2020 14:26:42 GMT-0500 (Eastern Standard Time)","Thu Jan 30 2020 14:32:41 GMT-0500 (Eastern Standard Time)","Mozilla/5.0 (Windows NT 10.0; Win64; x64) AppleWebKit/537.36 (KHTML, like Gecko) Chrome/79.0.3945.117 Safari/537.36",34,"[0.9, 0.5, 0.1]","[0.8, 0.4, 0.2]","[u'blue', u'black', u'red']","[u'left', u'middle', u'right']","[0.9, 0.5, 0.1]","[u'high', u'low', u'medium']","red",51,"right","medium","True","False",146,2200,NA
"A3S1TLYMH9WWUG","Thu Jan 30 2020 14:26:42 GMT-0500 (Eastern Standard Time)","Thu Jan 30 2020 14:32:41 GMT-0500 (Eastern Standard Time)","Mozilla/5.0 (Windows NT 10.0; Win64; x64) AppleWebKit/537.36 (KHTML, like Gecko) Chrome/79.0.3945.117 Safari/537.36",35,"[0.9, 0.5, 0.1]","[0.8, 0.4, 0.2]","[u'blue', u'black', u'red']","[u'left', u'middle', u'right']","[0.9, 0.5, 0.1]","[u'high', u'low', u'medium']","red",51,"right","medium","True","False",179,2300,NA
"A3S1TLYMH9WWUG","Thu Jan 30 2020 14:26:42 GMT-0500 (Eastern Standard Time)","Thu Jan 30 2020 14:32:41 GMT-0500 (Eastern Standard Time)","Mozilla/5.0 (Windows NT 10.0; Win64; x64) AppleWebKit/537.36 (KHTML, like Gecko) Chrome/79.0.3945.117 Safari/537.36",36,"[0.9, 0.5, 0.1]","[0.8, 0.4, 0.2]","[u'blue', u'black', u'red']","[u'left', u'middle', u'right']","[0.9, 0.5, 0.1]","[u'high', u'low', u'medium']","red",51,"right","medium","False","False",210,2250,NA
"A3S1TLYMH9WWUG","Thu Jan 30 2020 14:26:42 GMT-0500 (Eastern Standard Time)","Thu Jan 30 2020 14:32:41 GMT-0500 (Eastern Standard Time)","Mozilla/5.0 (Windows NT 10.0; Win64; x64) AppleWebKit/537.36 (KHTML, like Gecko) Chrome/79.0.3945.117 Safari/537.36",37,"[0.9, 0.5, 0.1]","[0.8, 0.4, 0.2]","[u'blue', u'black', u'red']","[u'left', u'middle', u'right']","[0.9, 0.5, 0.1]","[u'high', u'low', u'medium']","blue",49,"left","high","True","False",162,2350,NA
"A3S1TLYMH9WWUG","Thu Jan 30 2020 14:26:42 GMT-0500 (Eastern Standard Time)","Thu Jan 30 2020 14:32:41 GMT-0500 (Eastern Standard Time)","Mozilla/5.0 (Windows NT 10.0; Win64; x64) AppleWebKit/537.36 (KHTML, like Gecko) Chrome/79.0.3945.117 Safari/537.36",38,"[0.9, 0.5, 0.1]","[0.8, 0.4, 0.2]","[u'blue', u'black', u'red']","[u'left', u'middle', u'right']","[0.9, 0.5, 0.1]","[u'high', u'low', u'medium']","blue",49,"left","high","True","False",179,2450,NA
"A3S1TLYMH9WWUG","Thu Jan 30 2020 14:26:42 GMT-0500 (Eastern Standard Time)","Thu Jan 30 2020 14:32:41 GMT-0500 (Eastern Standard Time)","Mozilla/5.0 (Windows NT 10.0; Win64; x64) AppleWebKit/537.36 (KHTML, like Gecko) Chrome/79.0.3945.117 Safari/537.36",39,"[0.9, 0.5, 0.1]","[0.8, 0.4, 0.2]","[u'blue', u'black', u'red']","[u'left', u'middle', u'right']","[0.9, 0.5, 0.1]","[u'high', u'low', u'medium']","blue",49,"left","high","True","False",146,2550,NA
"A3S1TLYMH9WWUG","Thu Jan 30 2020 14:26:42 GMT-0500 (Eastern Standard Time)","Thu Jan 30 2020 14:32:41 GMT-0500 (Eastern Standard Time)","Mozilla/5.0 (Windows NT 10.0; Win64; x64) AppleWebKit/537.36 (KHTML, like Gecko) Chrome/79.0.3945.117 Safari/537.36",40,"[0.9, 0.5, 0.1]","[0.8, 0.4, 0.2]","[u'blue', u'black', u'red']","[u'left', u'middle', u'right']","[0.9, 0.5, 0.1]","[u'high', u'low', u'medium']","blue",49,"left","high","True","False",210,2650,NA
"A3S1TLYMH9WWUG","Thu Jan 30 2020 14:26:42 GMT-0500 (Eastern Standard Time)","Thu Jan 30 2020 14:32:41 GMT-0500 (Eastern Standard Time)","Mozilla/5.0 (Windows NT 10.0; Win64; x64) AppleWebKit/537.36 (KHTML, like Gecko) Chrome/79.0.3945.117 Safari/537.36",41,"[0.9, 0.5, 0.1]","[0.8, 0.4, 0.2]","[u'blue', u'black', u'red']","[u'left', u'middle', u'right']","[0.9, 0.5, 0.1]","[u'low', u'high', u'medium']","blue",49,"left","low","False","False",276,2600,NA
"A3S1TLYMH9WWUG","Thu Jan 30 2020 14:26:42 GMT-0500 (Eastern Standard Time)","Thu Jan 30 2020 14:32:41 GMT-0500 (Eastern Standard Time)","Mozilla/5.0 (Windows NT 10.0; Win64; x64) AppleWebKit/537.36 (KHTML, like Gecko) Chrome/79.0.3945.117 Safari/537.36",42,"[0.9, 0.5, 0.1]","[0.8, 0.4, 0.2]","[u'blue', u'black', u'red']","[u'left', u'middle', u'right']","[0.9, 0.5, 0.1]","[u'low', u'high', u'medium']","red",51,"right","medium","False","False",66,2550,NA
"A3S1TLYMH9WWUG","Thu Jan 30 2020 14:26:42 GMT-0500 (Eastern Standard Time)","Thu Jan 30 2020 14:32:41 GMT-0500 (Eastern Standard Time)","Mozilla/5.0 (Windows NT 10.0; Win64; x64) AppleWebKit/537.36 (KHTML, like Gecko) Chrome/79.0.3945.117 Safari/537.36",43,"[0.9, 0.5, 0.1]","[0.8, 0.4, 0.2]","[u'blue', u'black', u'red']","[u'left', u'middle', u'right']","[0.9, 0.5, 0.1]","[u'low', u'high', u'medium']","blue",49,"left","low","False","False",355,2500,NA
"A3S1TLYMH9WWUG","Thu Jan 30 2020 14:26:42 GMT-0500 (Eastern Standard Time)","Thu Jan 30 2020 14:32:41 GMT-0500 (Eastern Standard Time)","Mozilla/5.0 (Windows NT 10.0; Win64; x64) AppleWebKit/537.36 (KHTML, like Gecko) Chrome/79.0.3945.117 Safari/537.36",44,"[0.9, 0.5, 0.1]","[0.8, 0.4, 0.2]","[u'blue', u'black', u'red']","[u'left', u'middle', u'right']","[0.9, 0.5, 0.1]","[u'low', u'high', u'medium']","black",50,"middle","high","True","False",66,2600,NA
"A3S1TLYMH9WWUG","Thu Jan 30 2020 14:26:42 GMT-0500 (Eastern Standard Time)","Thu Jan 30 2020 14:32:41 GMT-0500 (Eastern Standard Time)","Mozilla/5.0 (Windows NT 10.0; Win64; x64) AppleWebKit/537.36 (KHTML, like Gecko) Chrome/79.0.3945.117 Safari/537.36",45,"[0.9, 0.5, 0.1]","[0.8, 0.4, 0.2]","[u'blue', u'black', u'red']","[u'left', u'middle', u'right']","[0.9, 0.5, 0.1]","[u'low', u'high', u'medium']","black",50,"middle","high","False","False",227,2550,NA
"A3S1TLYMH9WWUG","Thu Jan 30 2020 14:26:42 GMT-0500 (Eastern Standard Time)","Thu Jan 30 2020 14:32:41 GMT-0500 (Eastern Standard Time)","Mozilla/5.0 (Windows NT 10.0; Win64; x64) AppleWebKit/537.36 (KHTML, like Gecko) Chrome/79.0.3945.117 Safari/537.36",46,"[0.9, 0.5, 0.1]","[0.8, 0.4, 0.2]","[u'blue', u'black', u'red']","[u'left', u'middle', u'right']","[0.9, 0.5, 0.1]","[u'low', u'high', u'medium']","blue",49,"left","low","False","False",82,2500,NA
"A3S1TLYMH9WWUG","Thu Jan 30 2020 14:26:42 GMT-0500 (Eastern Standard Time)","Thu Jan 30 2020 14:32:41 GMT-0500 (Eastern Standard Time)","Mozilla/5.0 (Windows NT 10.0; Win64; x64) AppleWebKit/537.36 (KHTML, like Gecko) Chrome/79.0.3945.117 Safari/537.36",47,"[0.9, 0.5, 0.1]","[0.8, 0.4, 0.2]","[u'blue', u'black', u'red']","[u'left', u'middle', u'right']","[0.9, 0.5, 0.1]","[u'low', u'high', u'medium']","red",51,"right","medium","True","False",267,2600,NA
"A3S1TLYMH9WWUG","Thu Jan 30 2020 14:26:42 GMT-0500 (Eastern Standard Time)","Thu Jan 30 2020 14:32:41 GMT-0500 (Eastern Standard Time)","Mozilla/5.0 (Windows NT 10.0; Win64; x64) AppleWebKit/537.36 (KHTML, like Gecko) Chrome/79.0.3945.117 Safari/537.36",48,"[0.9, 0.5, 0.1]","[0.8, 0.4, 0.2]","[u'blue', u'black', u'red']","[u'left', u'middle', u'right']","[0.9, 0.5, 0.1]","[u'low', u'high', u'medium']","red",51,"right","medium","True","False",227,2700,NA
"A3S1TLYMH9WWUG","Thu Jan 30 2020 14:26:42 GMT-0500 (Eastern Standard Time)","Thu Jan 30 2020 14:32:41 GMT-0500 (Eastern Standard Time)","Mozilla/5.0 (Windows NT 10.0; Win64; x64) AppleWebKit/537.36 (KHTML, like Gecko) Chrome/79.0.3945.117 Safari/537.36",49,"[0.9, 0.5, 0.1]","[0.8, 0.4, 0.2]","[u'blue', u'black', u'red']","[u'left', u'middle', u'right']","[0.9, 0.5, 0.1]","[u'low', u'high', u'medium']","red",51,"right","medium","False","False",259,2650,NA
"A3S1TLYMH9WWUG","Thu Jan 30 2020 14:26:42 GMT-0500 (Eastern Standard Time)","Thu Jan 30 2020 14:32:41 GMT-0500 (Eastern Standard Time)","Mozilla/5.0 (Windows NT 10.0; Win64; x64) AppleWebKit/537.36 (KHTML, like Gecko) Chrome/79.0.3945.117 Safari/537.36",50,"[0.9, 0.5, 0.1]","[0.8, 0.4, 0.2]","[u'blue', u'black', u'red']","[u'left', u'middle', u'right']","[0.9, 0.5, 0.1]","[u'low', u'high', u'medium']","black",50,"middle","high","False","False",71,2600,NA
"A3S1TLYMH9WWUG","Thu Jan 30 2020 14:26:42 GMT-0500 (Eastern Standard Time)","Thu Jan 30 2020 14:32:41 GMT-0500 (Eastern Standard Time)","Mozilla/5.0 (Windows NT 10.0; Win64; x64) AppleWebKit/537.36 (KHTML, like Gecko) Chrome/79.0.3945.117 Safari/537.36",51,"[0.9, 0.5, 0.1]","[0.8, 0.4, 0.2]","[u'blue', u'black', u'red']","[u'left', u'middle', u'right']","[0.9, 0.5, 0.1]","[u'low', u'high', u'medium']","blue",49,"left","low","False","False",131,2550,NA
"A3S1TLYMH9WWUG","Thu Jan 30 2020 14:26:42 GMT-0500 (Eastern Standard Time)","Thu Jan 30 2020 14:32:41 GMT-0500 (Eastern Standard Time)","Mozilla/5.0 (Windows NT 10.0; Win64; x64) AppleWebKit/537.36 (KHTML, like Gecko) Chrome/79.0.3945.117 Safari/537.36",52,"[0.9, 0.5, 0.1]","[0.8, 0.4, 0.2]","[u'blue', u'black', u'red']","[u'left', u'middle', u'right']","[0.9, 0.5, 0.1]","[u'low', u'high', u'medium']","red",51,"right","medium","False","False",211,2500,NA
"A3S1TLYMH9WWUG","Thu Jan 30 2020 14:26:42 GMT-0500 (Eastern Standard Time)","Thu Jan 30 2020 14:32:41 GMT-0500 (Eastern Standard Time)","Mozilla/5.0 (Windows NT 10.0; Win64; x64) AppleWebKit/537.36 (KHTML, like Gecko) Chrome/79.0.3945.117 Safari/537.36",53,"[0.9, 0.5, 0.1]","[0.8, 0.4, 0.2]","[u'blue', u'black', u'red']","[u'left', u'middle', u'right']","[0.9, 0.5, 0.1]","[u'low', u'high', u'medium']","black",50,"middle","high","False","False",204,2450,NA
"A3S1TLYMH9WWUG","Thu Jan 30 2020 14:26:42 GMT-0500 (Eastern Standard Time)","Thu Jan 30 2020 14:32:41 GMT-0500 (Eastern Standard Time)","Mozilla/5.0 (Windows NT 10.0; Win64; x64) AppleWebKit/537.36 (KHTML, like Gecko) Chrome/79.0.3945.117 Safari/537.36",54,"[0.9, 0.5, 0.1]","[0.8, 0.4, 0.2]","[u'blue', u'black', u'red']","[u'left', u'middle', u'right']","[0.9, 0.5, 0.1]","[u'low', u'high', u'medium']","blue",49,"left","low","False","False",179,2400,NA
"A3S1TLYMH9WWUG","Thu Jan 30 2020 14:26:42 GMT-0500 (Eastern Standard Time)","Thu Jan 30 2020 14:32:41 GMT-0500 (Eastern Standard Time)","Mozilla/5.0 (Windows NT 10.0; Win64; x64) AppleWebKit/537.36 (KHTML, like Gecko) Chrome/79.0.3945.117 Safari/537.36",55,"[0.9, 0.5, 0.1]","[0.8, 0.4, 0.2]","[u'blue', u'black', u'red']","[u'left', u'middle', u'right']","[0.9, 0.5, 0.1]","[u'low', u'high', u'medium']","blue",49,"left","low","False","False",83,2350,NA
"A3S1TLYMH9WWUG","Thu Jan 30 2020 14:26:42 GMT-0500 (Eastern Standard Time)","Thu Jan 30 2020 14:32:41 GMT-0500 (Eastern Standard Time)","Mozilla/5.0 (Windows NT 10.0; Win64; x64) AppleWebKit/537.36 (KHTML, like Gecko) Chrome/79.0.3945.117 Safari/537.36",56,"[0.9, 0.5, 0.1]","[0.8, 0.4, 0.2]","[u'blue', u'black', u'red']","[u'left', u'middle', u'right']","[0.9, 0.5, 0.1]","[u'low', u'high', u'medium']","black",50,"middle","high","True","False",210,2450,NA
"A3S1TLYMH9WWUG","Thu Jan 30 2020 14:26:42 GMT-0500 (Eastern Standard Time)","Thu Jan 30 2020 14:32:41 GMT-0500 (Eastern Standard Time)","Mozilla/5.0 (Windows NT 10.0; Win64; x64) AppleWebKit/537.36 (KHTML, like Gecko) Chrome/79.0.3945.117 Safari/537.36",57,"[0.9, 0.5, 0.1]","[0.8, 0.4, 0.2]","[u'blue', u'black', u'red']","[u'left', u'middle', u'right']","[0.9, 0.5, 0.1]","[u'low', u'high', u'medium']","black",50,"middle","high","True","False",181,2550,NA
"A3S1TLYMH9WWUG","Thu Jan 30 2020 14:26:42 GMT-0500 (Eastern Standard Time)","Thu Jan 30 2020 14:32:41 GMT-0500 (Eastern Standard Time)","Mozilla/5.0 (Windows NT 10.0; Win64; x64) AppleWebKit/537.36 (KHTML, like Gecko) Chrome/79.0.3945.117 Safari/537.36",58,"[0.9, 0.5, 0.1]","[0.8, 0.4, 0.2]","[u'blue', u'black', u'red']","[u'left', u'middle', u'right']","[0.9, 0.5, 0.1]","[u'low', u'high', u'medium']","black",50,"middle","high","True","False",211,2650,NA
"A3S1TLYMH9WWUG","Thu Jan 30 2020 14:26:42 GMT-0500 (Eastern Standard Time)","Thu Jan 30 2020 14:32:41 GMT-0500 (Eastern Standard Time)","Mozilla/5.0 (Windows NT 10.0; Win64; x64) AppleWebKit/537.36 (KHTML, like Gecko) Chrome/79.0.3945.117 Safari/537.36",59,"[0.9, 0.5, 0.1]","[0.8, 0.4, 0.2]","[u'blue', u'black', u'red']","[u'left', u'middle', u'right']","[0.9, 0.5, 0.1]","[u'low', u'high', u'medium']","black",50,"middle","high","True","False",162,2750,NA
"A3S1TLYMH9WWUG","Thu Jan 30 2020 14:26:42 GMT-0500 (Eastern Standard Time)","Thu Jan 30 2020 14:32:41 GMT-0500 (Eastern Standard Time)","Mozilla/5.0 (Windows NT 10.0; Win64; x64) AppleWebKit/537.36 (KHTML, like Gecko) Chrome/79.0.3945.117 Safari/537.36",60,"[0.9, 0.5, 0.1]","[0.8, 0.4, 0.2]","[u'blue', u'black', u'red']","[u'left', u'middle', u'right']","[0.9, 0.5, 0.1]","[u'low', u'high', u'medium']","black",50,"middle","high","True","False",211,2850,NA
"A3S1TLYMH9WWUG","Thu Jan 30 2020 14:26:42 GMT-0500 (Eastern Standard Time)","Thu Jan 30 2020 14:32:41 GMT-0500 (Eastern Standard Time)","Mozilla/5.0 (Windows NT 10.0; Win64; x64) AppleWebKit/537.36 (KHTML, like Gecko) Chrome/79.0.3945.117 Safari/537.36",61,"[0.9, 0.5, 0.1]","[0.8, 0.4, 0.2]","[u'blue', u'black', u'red']","[u'left', u'middle', u'right']","[0.9, 0.5, 0.1]","[u'low', u'high', u'medium']","black",50,"middle","high","True","False",195,2950,NA
"A3S1TLYMH9WWUG","Thu Jan 30 2020 14:26:42 GMT-0500 (Eastern Standard Time)","Thu Jan 30 2020 14:32:41 GMT-0500 (Eastern Standard Time)","Mozilla/5.0 (Windows NT 10.0; Win64; x64) AppleWebKit/537.36 (KHTML, like Gecko) Chrome/79.0.3945.117 Safari/537.36",62,"[0.9, 0.5, 0.1]","[0.8, 0.4, 0.2]","[u'blue', u'black', u'red']","[u'left', u'middle', u'right']","[0.9, 0.5, 0.1]","[u'low', u'high', u'medium']","black",50,"middle","high","True","False",160,3050,NA
"A3S1TLYMH9WWUG","Thu Jan 30 2020 14:26:42 GMT-0500 (Eastern Standard Time)","Thu Jan 30 2020 14:32:41 GMT-0500 (Eastern Standard Time)","Mozilla/5.0 (Windows NT 10.0; Win64; x64) AppleWebKit/537.36 (KHTML, like Gecko) Chrome/79.0.3945.117 Safari/537.36",63,"[0.9, 0.5, 0.1]","[0.8, 0.4, 0.2]","[u'blue', u'black', u'red']","[u'left', u'middle', u'right']","[0.9, 0.5, 0.1]","[u'low', u'high', u'medium']","black",50,"middle","high","True","False",162,3150,NA
"A3S1TLYMH9WWUG","Thu Jan 30 2020 14:26:42 GMT-0500 (Eastern Standard Time)","Thu Jan 30 2020 14:32:41 GMT-0500 (Eastern Standard Time)","Mozilla/5.0 (Windows NT 10.0; Win64; x64) AppleWebKit/537.36 (KHTML, like Gecko) Chrome/79.0.3945.117 Safari/537.36",64,"[0.9, 0.5, 0.1]","[0.8, 0.4, 0.2]","[u'blue', u'black', u'red']","[u'left', u'middle', u'right']","[0.9, 0.5, 0.1]","[u'low', u'high', u'medium']","black",50,"middle","high","True","True",211,3250,NA
"A3S1TLYMH9WWUG","Thu Jan 30 2020 14:26:42 GMT-0500 (Eastern Standard Time)","Thu Jan 30 2020 14:32:41 GMT-0500 (Eastern Standard Time)","Mozilla/5.0 (Windows NT 10.0; Win64; x64) AppleWebKit/537.36 (KHTML, like Gecko) Chrome/79.0.3945.117 Safari/537.36",65,"[0.9, 0.5, 0.1]","[0.8, 0.4, 0.2]","[u'blue', u'black', u'red']","[u'left', u'middle', u'right']","[0.9, 0.5, 0.1]","[u'high', u'low', u'medium']","black",50,"middle","low","False","False",147,3200,NA
"A3S1TLYMH9WWUG","Thu Jan 30 2020 14:26:42 GMT-0500 (Eastern Standard Time)","Thu Jan 30 2020 14:32:41 GMT-0500 (Eastern Standard Time)","Mozilla/5.0 (Windows NT 10.0; Win64; x64) AppleWebKit/537.36 (KHTML, like Gecko) Chrome/79.0.3945.117 Safari/537.36",66,"[0.9, 0.5, 0.1]","[0.8, 0.4, 0.2]","[u'blue', u'black', u'red']","[u'left', u'middle', u'right']","[0.9, 0.5, 0.1]","[u'high', u'low', u'medium']","red",51,"right","medium","True","False",146,3300,NA
"A3S1TLYMH9WWUG","Thu Jan 30 2020 14:26:42 GMT-0500 (Eastern Standard Time)","Thu Jan 30 2020 14:32:41 GMT-0500 (Eastern Standard Time)","Mozilla/5.0 (Windows NT 10.0; Win64; x64) AppleWebKit/537.36 (KHTML, like Gecko) Chrome/79.0.3945.117 Safari/537.36",67,"[0.9, 0.5, 0.1]","[0.8, 0.4, 0.2]","[u'blue', u'black', u'red']","[u'left', u'middle', u'right']","[0.9, 0.5, 0.1]","[u'high', u'low', u'medium']","red",51,"right","medium","True","False",179,3400,NA
"A3S1TLYMH9WWUG","Thu Jan 30 2020 14:26:42 GMT-0500 (Eastern Standard Time)","Thu Jan 30 2020 14:32:41 GMT-0500 (Eastern Standard Time)","Mozilla/5.0 (Windows NT 10.0; Win64; x64) AppleWebKit/537.36 (KHTML, like Gecko) Chrome/79.0.3945.117 Safari/537.36",68,"[0.9, 0.5, 0.1]","[0.8, 0.4, 0.2]","[u'blue', u'black', u'red']","[u'left', u'middle', u'right']","[0.9, 0.5, 0.1]","[u'high', u'low', u'medium']","red",51,"right","medium","False","False",211,3350,NA
"A3S1TLYMH9WWUG","Thu Jan 30 2020 14:26:42 GMT-0500 (Eastern Standard Time)","Thu Jan 30 2020 14:32:41 GMT-0500 (Eastern Standard Time)","Mozilla/5.0 (Windows NT 10.0; Win64; x64) AppleWebKit/537.36 (KHTML, like Gecko) Chrome/79.0.3945.117 Safari/537.36",69,"[0.9, 0.5, 0.1]","[0.8, 0.4, 0.2]","[u'blue', u'black', u'red']","[u'left', u'middle', u'right']","[0.9, 0.5, 0.1]","[u'high', u'low', u'medium']","blue",49,"left","high","True","False",130,3450,NA
"A3S1TLYMH9WWUG","Thu Jan 30 2020 14:26:42 GMT-0500 (Eastern Standard Time)","Thu Jan 30 2020 14:32:41 GMT-0500 (Eastern Standard Time)","Mozilla/5.0 (Windows NT 10.0; Win64; x64) AppleWebKit/537.36 (KHTML, like Gecko) Chrome/79.0.3945.117 Safari/537.36",70,"[0.9, 0.5, 0.1]","[0.8, 0.4, 0.2]","[u'blue', u'black', u'red']","[u'left', u'middle', u'right']","[0.9, 0.5, 0.1]","[u'high', u'low', u'medium']","blue",49,"left","high","True","False",178,3550,NA
"A3S1TLYMH9WWUG","Thu Jan 30 2020 14:26:42 GMT-0500 (Eastern Standard Time)","Thu Jan 30 2020 14:32:41 GMT-0500 (Eastern Standard Time)","Mozilla/5.0 (Windows NT 10.0; Win64; x64) AppleWebKit/537.36 (KHTML, like Gecko) Chrome/79.0.3945.117 Safari/537.36",71,"[0.9, 0.5, 0.1]","[0.8, 0.4, 0.2]","[u'blue', u'black', u'red']","[u'left', u'middle', u'right']","[0.9, 0.5, 0.1]","[u'high', u'low', u'medium']","blue",49,"left","high","True","False",227,3650,NA
"A3S1TLYMH9WWUG","Thu Jan 30 2020 14:26:42 GMT-0500 (Eastern Standard Time)","Thu Jan 30 2020 14:32:41 GMT-0500 (Eastern Standard Time)","Mozilla/5.0 (Windows NT 10.0; Win64; x64) AppleWebKit/537.36 (KHTML, like Gecko) Chrome/79.0.3945.117 Safari/537.36",72,"[0.9, 0.5, 0.1]","[0.8, 0.4, 0.2]","[u'blue', u'black', u'red']","[u'left', u'middle', u'right']","[0.9, 0.5, 0.1]","[u'high', u'low', u'medium']","blue",49,"left","high","True","False",131,3750,NA
"A3S1TLYMH9WWUG","Thu Jan 30 2020 14:26:42 GMT-0500 (Eastern Standard Time)","Thu Jan 30 2020 14:32:41 GMT-0500 (Eastern Standard Time)","Mozilla/5.0 (Windows NT 10.0; Win64; x64) AppleWebKit/537.36 (KHTML, like Gecko) Chrome/79.0.3945.117 Safari/537.36",73,"[0.9, 0.5, 0.1]","[0.8, 0.4, 0.2]","[u'blue', u'black', u'red']","[u'left', u'middle', u'right']","[0.9, 0.5, 0.1]","[u'high', u'low', u'medium']","blue",49,"left","high","True","False",163,3850,NA
"A3S1TLYMH9WWUG","Thu Jan 30 2020 14:26:42 GMT-0500 (Eastern Standard Time)","Thu Jan 30 2020 14:32:41 GMT-0500 (Eastern Standard Time)","Mozilla/5.0 (Windows NT 10.0; Win64; x64) AppleWebKit/537.36 (KHTML, like Gecko) Chrome/79.0.3945.117 Safari/537.36",74,"[0.9, 0.5, 0.1]","[0.8, 0.4, 0.2]","[u'blue', u'black', u'red']","[u'left', u'middle', u'right']","[0.9, 0.5, 0.1]","[u'high', u'low', u'medium']","blue",49,"left","high","True","False",222,3950,NA
"A3S1TLYMH9WWUG","Thu Jan 30 2020 14:26:42 GMT-0500 (Eastern Standard Time)","Thu Jan 30 2020 14:32:41 GMT-0500 (Eastern Standard Time)","Mozilla/5.0 (Windows NT 10.0; Win64; x64) AppleWebKit/537.36 (KHTML, like Gecko) Chrome/79.0.3945.117 Safari/537.36",75,"[0.9, 0.5, 0.1]","[0.8, 0.4, 0.2]","[u'blue', u'black', u'red']","[u'left', u'middle', u'right']","[0.9, 0.5, 0.1]","[u'high', u'low', u'medium']","blue",49,"left","high","True","False",275,4050,NA
"A3S1TLYMH9WWUG","Thu Jan 30 2020 14:26:42 GMT-0500 (Eastern Standard Time)","Thu Jan 30 2020 14:32:41 GMT-0500 (Eastern Standard Time)","Mozilla/5.0 (Windows NT 10.0; Win64; x64) AppleWebKit/537.36 (KHTML, like Gecko) Chrome/79.0.3945.117 Safari/537.36",76,"[0.9, 0.5, 0.1]","[0.8, 0.4, 0.2]","[u'blue', u'black', u'red']","[u'left', u'middle', u'right']","[0.9, 0.5, 0.1]","[u'high', u'low', u'medium']","blue",49,"left","high","True","False",226,4150,NA
"A3S1TLYMH9WWUG","Thu Jan 30 2020 14:26:42 GMT-0500 (Eastern Standard Time)","Thu Jan 30 2020 14:32:41 GMT-0500 (Eastern Standard Time)","Mozilla/5.0 (Windows NT 10.0; Win64; x64) AppleWebKit/537.36 (KHTML, like Gecko) Chrome/79.0.3945.117 Safari/537.36",77,"[0.9, 0.5, 0.1]","[0.8, 0.4, 0.2]","[u'blue', u'black', u'red']","[u'left', u'middle', u'right']","[0.9, 0.5, 0.1]","[u'high', u'low', u'medium']","blue",49,"left","high","True","True",243,4250,NA
"A3S1TLYMH9WWUG","Thu Jan 30 2020 14:26:42 GMT-0500 (Eastern Standard Time)","Thu Jan 30 2020 14:32:41 GMT-0500 (Eastern Standard Time)","Mozilla/5.0 (Windows NT 10.0; Win64; x64) AppleWebKit/537.36 (KHTML, like Gecko) Chrome/79.0.3945.117 Safari/537.36",78,"[0.9, 0.5, 0.1]","[0.8, 0.4, 0.2]","[u'blue', u'black', u'red']","[u'left', u'middle', u'right']","[0.9, 0.5, 0.1]","[u'medium', u'high', u'low']","blue",49,"left","medium","False","False",275,4200,NA
"A3S1TLYMH9WWUG","Thu Jan 30 2020 14:26:42 GMT-0500 (Eastern Standard Time)","Thu Jan 30 2020 14:32:41 GMT-0500 (Eastern Standard Time)","Mozilla/5.0 (Windows NT 10.0; Win64; x64) AppleWebKit/537.36 (KHTML, like Gecko) Chrome/79.0.3945.117 Safari/537.36",79,"[0.9, 0.5, 0.1]","[0.8, 0.4, 0.2]","[u'blue', u'black', u'red']","[u'left', u'middle', u'right']","[0.9, 0.5, 0.1]","[u'medium', u'high', u'low']","black",50,"middle","high","True","False",99,4300,NA
"A3S1TLYMH9WWUG","Thu Jan 30 2020 14:26:42 GMT-0500 (Eastern Standard Time)","Thu Jan 30 2020 14:32:41 GMT-0500 (Eastern Standard Time)","Mozilla/5.0 (Windows NT 10.0; Win64; x64) AppleWebKit/537.36 (KHTML, like Gecko) Chrome/79.0.3945.117 Safari/537.36",80,"[0.9, 0.5, 0.1]","[0.8, 0.4, 0.2]","[u'blue', u'black', u'red']","[u'left', u'middle', u'right']","[0.9, 0.5, 0.1]","[u'medium', u'high', u'low']","black",50,"middle","high","True","False",163,4400,NA
"A3S1TLYMH9WWUG","Thu Jan 30 2020 14:26:42 GMT-0500 (Eastern Standard Time)","Thu Jan 30 2020 14:32:41 GMT-0500 (Eastern Standard Time)","Mozilla/5.0 (Windows NT 10.0; Win64; x64) AppleWebKit/537.36 (KHTML, like Gecko) Chrome/79.0.3945.117 Safari/537.36",81,"[0.9, 0.5, 0.1]","[0.8, 0.4, 0.2]","[u'blue', u'black', u'red']","[u'left', u'middle', u'right']","[0.8, 0.4, 0.2]","[u'low', u'medium', u'high']","red",51,"right","high","False","False",412,4350,NA
"A3S1TLYMH9WWUG","Thu Jan 30 2020 14:26:42 GMT-0500 (Eastern Standard Time)","Thu Jan 30 2020 14:32:41 GMT-0500 (Eastern Standard Time)","Mozilla/5.0 (Windows NT 10.0; Win64; x64) AppleWebKit/537.36 (KHTML, like Gecko) Chrome/79.0.3945.117 Safari/537.36",82,"[0.9, 0.5, 0.1]","[0.8, 0.4, 0.2]","[u'blue', u'black', u'red']","[u'left', u'middle', u'right']","[0.8, 0.4, 0.2]","[u'low', u'medium', u'high']","black",50,"middle","medium","True","False",179,4450,NA
"A3S1TLYMH9WWUG","Thu Jan 30 2020 14:26:42 GMT-0500 (Eastern Standard Time)","Thu Jan 30 2020 14:32:41 GMT-0500 (Eastern Standard Time)","Mozilla/5.0 (Windows NT 10.0; Win64; x64) AppleWebKit/537.36 (KHTML, like Gecko) Chrome/79.0.3945.117 Safari/537.36",83,"[0.9, 0.5, 0.1]","[0.8, 0.4, 0.2]","[u'blue', u'black', u'red']","[u'left', u'middle', u'right']","[0.8, 0.4, 0.2]","[u'low', u'medium', u'high']","black",50,"middle","medium","False","False",66,4400,NA
"A3S1TLYMH9WWUG","Thu Jan 30 2020 14:26:42 GMT-0500 (Eastern Standard Time)","Thu Jan 30 2020 14:32:41 GMT-0500 (Eastern Standard Time)","Mozilla/5.0 (Windows NT 10.0; Win64; x64) AppleWebKit/537.36 (KHTML, like Gecko) Chrome/79.0.3945.117 Safari/537.36",84,"[0.9, 0.5, 0.1]","[0.8, 0.4, 0.2]","[u'blue', u'black', u'red']","[u'left', u'middle', u'right']","[0.8, 0.4, 0.2]","[u'low', u'medium', u'high']","red",51,"right","high","True","False",226,4500,NA
"A3S1TLYMH9WWUG","Thu Jan 30 2020 14:26:42 GMT-0500 (Eastern Standard Time)","Thu Jan 30 2020 14:32:41 GMT-0500 (Eastern Standard Time)","Mozilla/5.0 (Windows NT 10.0; Win64; x64) AppleWebKit/537.36 (KHTML, like Gecko) Chrome/79.0.3945.117 Safari/537.36",85,"[0.9, 0.5, 0.1]","[0.8, 0.4, 0.2]","[u'blue', u'black', u'red']","[u'left', u'middle', u'right']","[0.8, 0.4, 0.2]","[u'low', u'medium', u'high']","red",51,"right","high","True","False",211,4600,NA
"A3S1TLYMH9WWUG","Thu Jan 30 2020 14:26:42 GMT-0500 (Eastern Standard Time)","Thu Jan 30 2020 14:32:41 GMT-0500 (Eastern Standard Time)","Mozilla/5.0 (Windows NT 10.0; Win64; x64) AppleWebKit/537.36 (KHTML, like Gecko) Chrome/79.0.3945.117 Safari/537.36",86,"[0.9, 0.5, 0.1]","[0.8, 0.4, 0.2]","[u'blue', u'black', u'red']","[u'left', u'middle', u'right']","[0.8, 0.4, 0.2]","[u'low', u'medium', u'high']","red",51,"right","high","True","False",184,4700,NA
"A3S1TLYMH9WWUG","Thu Jan 30 2020 14:26:42 GMT-0500 (Eastern Standard Time)","Thu Jan 30 2020 14:32:41 GMT-0500 (Eastern Standard Time)","Mozilla/5.0 (Windows NT 10.0; Win64; x64) AppleWebKit/537.36 (KHTML, like Gecko) Chrome/79.0.3945.117 Safari/537.36",87,"[0.9, 0.5, 0.1]","[0.8, 0.4, 0.2]","[u'blue', u'black', u'red']","[u'left', u'middle', u'right']","[0.8, 0.4, 0.2]","[u'low', u'medium', u'high']","red",51,"right","high","True","False",130,4800,NA
"A3S1TLYMH9WWUG","Thu Jan 30 2020 14:26:42 GMT-0500 (Eastern Standard Time)","Thu Jan 30 2020 14:32:41 GMT-0500 (Eastern Standard Time)","Mozilla/5.0 (Windows NT 10.0; Win64; x64) AppleWebKit/537.36 (KHTML, like Gecko) Chrome/79.0.3945.117 Safari/537.36",88,"[0.9, 0.5, 0.1]","[0.8, 0.4, 0.2]","[u'blue', u'black', u'red']","[u'left', u'middle', u'right']","[0.8, 0.4, 0.2]","[u'low', u'medium', u'high']","red",51,"right","high","True","False",115,4900,NA
"A3S1TLYMH9WWUG","Thu Jan 30 2020 14:26:42 GMT-0500 (Eastern Standard Time)","Thu Jan 30 2020 14:32:41 GMT-0500 (Eastern Standard Time)","Mozilla/5.0 (Windows NT 10.0; Win64; x64) AppleWebKit/537.36 (KHTML, like Gecko) Chrome/79.0.3945.117 Safari/537.36",89,"[0.9, 0.5, 0.1]","[0.8, 0.4, 0.2]","[u'blue', u'black', u'red']","[u'left', u'middle', u'right']","[0.8, 0.4, 0.2]","[u'low', u'medium', u'high']","red",51,"right","high","True","False",148,5000,NA
"A3S1TLYMH9WWUG","Thu Jan 30 2020 14:26:42 GMT-0500 (Eastern Standard Time)","Thu Jan 30 2020 14:32:41 GMT-0500 (Eastern Standard Time)","Mozilla/5.0 (Windows NT 10.0; Win64; x64) AppleWebKit/537.36 (KHTML, like Gecko) Chrome/79.0.3945.117 Safari/537.36",90,"[0.9, 0.5, 0.1]","[0.8, 0.4, 0.2]","[u'blue', u'black', u'red']","[u'left', u'middle', u'right']","[0.8, 0.4, 0.2]","[u'low', u'medium', u'high']","red",51,"right","high","True","False",163,5100,NA
"A3S1TLYMH9WWUG","Thu Jan 30 2020 14:26:42 GMT-0500 (Eastern Standard Time)","Thu Jan 30 2020 14:32:41 GMT-0500 (Eastern Standard Time)","Mozilla/5.0 (Windows NT 10.0; Win64; x64) AppleWebKit/537.36 (KHTML, like Gecko) Chrome/79.0.3945.117 Safari/537.36",91,"[0.9, 0.5, 0.1]","[0.8, 0.4, 0.2]","[u'blue', u'black', u'red']","[u'left', u'middle', u'right']","[0.8, 0.4, 0.2]","[u'low', u'medium', u'high']","red",51,"right","high","False","False",163,5050,NA
"A3S1TLYMH9WWUG","Thu Jan 30 2020 14:26:42 GMT-0500 (Eastern Standard Time)","Thu Jan 30 2020 14:32:41 GMT-0500 (Eastern Standard Time)","Mozilla/5.0 (Windows NT 10.0; Win64; x64) AppleWebKit/537.36 (KHTML, like Gecko) Chrome/79.0.3945.117 Safari/537.36",92,"[0.9, 0.5, 0.1]","[0.8, 0.4, 0.2]","[u'blue', u'black', u'red']","[u'left', u'middle', u'right']","[0.8, 0.4, 0.2]","[u'low', u'medium', u'high']","black",50,"middle","medium","False","False",163,5000,NA
"A3S1TLYMH9WWUG","Thu Jan 30 2020 14:26:42 GMT-0500 (Eastern Standard Time)","Thu Jan 30 2020 14:32:41 GMT-0500 (Eastern Standard Time)","Mozilla/5.0 (Windows NT 10.0; Win64; x64) AppleWebKit/537.36 (KHTML, like Gecko) Chrome/79.0.3945.117 Safari/537.36",93,"[0.9, 0.5, 0.1]","[0.8, 0.4, 0.2]","[u'blue', u'black', u'red']","[u'left', u'middle', u'right']","[0.8, 0.4, 0.2]","[u'low', u'medium', u'high']","blue",49,"left","low","False","False",162,4950,NA
"A3S1TLYMH9WWUG","Thu Jan 30 2020 14:26:42 GMT-0500 (Eastern Standard Time)","Thu Jan 30 2020 14:32:41 GMT-0500 (Eastern Standard Time)","Mozilla/5.0 (Windows NT 10.0; Win64; x64) AppleWebKit/537.36 (KHTML, like Gecko) Chrome/79.0.3945.117 Safari/537.36",94,"[0.9, 0.5, 0.1]","[0.8, 0.4, 0.2]","[u'blue', u'black', u'red']","[u'left', u'middle', u'right']","[0.8, 0.4, 0.2]","[u'low', u'medium', u'high']","black",50,"middle","medium","False","False",370,4900,NA
"A3S1TLYMH9WWUG","Thu Jan 30 2020 14:26:42 GMT-0500 (Eastern Standard Time)","Thu Jan 30 2020 14:32:41 GMT-0500 (Eastern Standard Time)","Mozilla/5.0 (Windows NT 10.0; Win64; x64) AppleWebKit/537.36 (KHTML, like Gecko) Chrome/79.0.3945.117 Safari/537.36",95,"[0.9, 0.5, 0.1]","[0.8, 0.4, 0.2]","[u'blue', u'black', u'red']","[u'left', u'middle', u'right']","[0.8, 0.4, 0.2]","[u'low', u'medium', u'high']","red",51,"right","high","False","False",195,4850,NA
"A3S1TLYMH9WWUG","Thu Jan 30 2020 14:26:42 GMT-0500 (Eastern Standard Time)","Thu Jan 30 2020 14:32:41 GMT-0500 (Eastern Standard Time)","Mozilla/5.0 (Windows NT 10.0; Win64; x64) AppleWebKit/537.36 (KHTML, like Gecko) Chrome/79.0.3945.117 Safari/537.36",96,"[0.9, 0.5, 0.1]","[0.8, 0.4, 0.2]","[u'blue', u'black', u'red']","[u'left', u'middle', u'right']","[0.8, 0.4, 0.2]","[u'low', u'medium', u'high']","black",50,"middle","medium","True","False",178,4950,NA
"A3S1TLYMH9WWUG","Thu Jan 30 2020 14:26:42 GMT-0500 (Eastern Standard Time)","Thu Jan 30 2020 14:32:41 GMT-0500 (Eastern Standard Time)","Mozilla/5.0 (Windows NT 10.0; Win64; x64) AppleWebKit/537.36 (KHTML, like Gecko) Chrome/79.0.3945.117 Safari/537.36",97,"[0.9, 0.5, 0.1]","[0.8, 0.4, 0.2]","[u'blue', u'black', u'red']","[u'left', u'middle', u'right']","[0.8, 0.4, 0.2]","[u'low', u'medium', u'high']","black",50,"middle","medium","False","False",243,4900,NA
"A3S1TLYMH9WWUG","Thu Jan 30 2020 14:26:42 GMT-0500 (Eastern Standard Time)","Thu Jan 30 2020 14:32:41 GMT-0500 (Eastern Standard Time)","Mozilla/5.0 (Windows NT 10.0; Win64; x64) AppleWebKit/537.36 (KHTML, like Gecko) Chrome/79.0.3945.117 Safari/537.36",98,"[0.9, 0.5, 0.1]","[0.8, 0.4, 0.2]","[u'blue', u'black', u'red']","[u'left', u'middle', u'right']","[0.8, 0.4, 0.2]","[u'low', u'medium', u'high']","red",51,"right","high","False","False",194,4850,NA
"A3S1TLYMH9WWUG","Thu Jan 30 2020 14:26:42 GMT-0500 (Eastern Standard Time)","Thu Jan 30 2020 14:32:41 GMT-0500 (Eastern Standard Time)","Mozilla/5.0 (Windows NT 10.0; Win64; x64) AppleWebKit/537.36 (KHTML, like Gecko) Chrome/79.0.3945.117 Safari/537.36",99,"[0.9, 0.5, 0.1]","[0.8, 0.4, 0.2]","[u'blue', u'black', u'red']","[u'left', u'middle', u'right']","[0.8, 0.4, 0.2]","[u'low', u'medium', u'high']","blue",49,"left","low","True","False",180,4950,NA
"A3S1TLYMH9WWUG","Thu Jan 30 2020 14:26:42 GMT-0500 (Eastern Standard Time)","Thu Jan 30 2020 14:32:41 GMT-0500 (Eastern Standard Time)","Mozilla/5.0 (Windows NT 10.0; Win64; x64) AppleWebKit/537.36 (KHTML, like Gecko) Chrome/79.0.3945.117 Safari/537.36",100,"[0.9, 0.5, 0.1]","[0.8, 0.4, 0.2]","[u'blue', u'black', u'red']","[u'left', u'middle', u'right']","[0.8, 0.4, 0.2]","[u'low', u'medium', u'high']","blue",49,"left","low","False","False",131,4900,NA
"A3S1TLYMH9WWUG","Thu Jan 30 2020 14:26:42 GMT-0500 (Eastern Standard Time)","Thu Jan 30 2020 14:32:41 GMT-0500 (Eastern Standard Time)","Mozilla/5.0 (Windows NT 10.0; Win64; x64) AppleWebKit/537.36 (KHTML, like Gecko) Chrome/79.0.3945.117 Safari/537.36",101,"[0.9, 0.5, 0.1]","[0.8, 0.4, 0.2]","[u'blue', u'black', u'red']","[u'left', u'middle', u'right']","[0.8, 0.4, 0.2]","[u'low', u'medium', u'high']","black",50,"middle","medium","False","False",179,4850,NA
"A3S1TLYMH9WWUG","Thu Jan 30 2020 14:26:42 GMT-0500 (Eastern Standard Time)","Thu Jan 30 2020 14:32:41 GMT-0500 (Eastern Standard Time)","Mozilla/5.0 (Windows NT 10.0; Win64; x64) AppleWebKit/537.36 (KHTML, like Gecko) Chrome/79.0.3945.117 Safari/537.36",102,"[0.9, 0.5, 0.1]","[0.8, 0.4, 0.2]","[u'blue', u'black', u'red']","[u'left', u'middle', u'right']","[0.8, 0.4, 0.2]","[u'low', u'medium', u'high']","red",51,"right","high","False","False",179,4800,NA
"A3S1TLYMH9WWUG","Thu Jan 30 2020 14:26:42 GMT-0500 (Eastern Standard Time)","Thu Jan 30 2020 14:32:41 GMT-0500 (Eastern Standard Time)","Mozilla/5.0 (Windows NT 10.0; Win64; x64) AppleWebKit/537.36 (KHTML, like Gecko) Chrome/79.0.3945.117 Safari/537.36",103,"[0.9, 0.5, 0.1]","[0.8, 0.4, 0.2]","[u'blue', u'black', u'red']","[u'left', u'middle', u'right']","[0.8, 0.4, 0.2]","[u'low', u'medium', u'high']","red",51,"right","high","True","False",243,4900,NA
"A3S1TLYMH9WWUG","Thu Jan 30 2020 14:26:42 GMT-0500 (Eastern Standard Time)","Thu Jan 30 2020 14:32:41 GMT-0500 (Eastern Standard Time)","Mozilla/5.0 (Windows NT 10.0; Win64; x64) AppleWebKit/537.36 (KHTML, like Gecko) Chrome/79.0.3945.117 Safari/537.36",104,"[0.9, 0.5, 0.1]","[0.8, 0.4, 0.2]","[u'blue', u'black', u'red']","[u'left', u'middle', u'right']","[0.8, 0.4, 0.2]","[u'low', u'medium', u'high']","red",51,"right","high","False","False",242,4850,NA
"A3S1TLYMH9WWUG","Thu Jan 30 2020 14:26:42 GMT-0500 (Eastern Standard Time)","Thu Jan 30 2020 14:32:41 GMT-0500 (Eastern Standard Time)","Mozilla/5.0 (Windows NT 10.0; Win64; x64) AppleWebKit/537.36 (KHTML, like Gecko) Chrome/79.0.3945.117 Safari/537.36",105,"[0.9, 0.5, 0.1]","[0.8, 0.4, 0.2]","[u'blue', u'black', u'red']","[u'left', u'middle', u'right']","[0.8, 0.4, 0.2]","[u'low', u'medium', u'high']","black",50,"middle","medium","False","False",18,4800,NA
"A3S1TLYMH9WWUG","Thu Jan 30 2020 14:26:42 GMT-0500 (Eastern Standard Time)","Thu Jan 30 2020 14:32:41 GMT-0500 (Eastern Standard Time)","Mozilla/5.0 (Windows NT 10.0; Win64; x64) AppleWebKit/537.36 (KHTML, like Gecko) Chrome/79.0.3945.117 Safari/537.36",106,"[0.9, 0.5, 0.1]","[0.8, 0.4, 0.2]","[u'blue', u'black', u'red']","[u'left', u'middle', u'right']","[0.8, 0.4, 0.2]","[u'low', u'medium', u'high']","black",50,"middle","medium","False","False",452,4750,NA
"A3S1TLYMH9WWUG","Thu Jan 30 2020 14:26:42 GMT-0500 (Eastern Standard Time)","Thu Jan 30 2020 14:32:41 GMT-0500 (Eastern Standard Time)","Mozilla/5.0 (Windows NT 10.0; Win64; x64) AppleWebKit/537.36 (KHTML, like Gecko) Chrome/79.0.3945.117 Safari/537.36",107,"[0.9, 0.5, 0.1]","[0.8, 0.4, 0.2]","[u'blue', u'black', u'red']","[u'left', u'middle', u'right']","[0.8, 0.4, 0.2]","[u'low', u'medium', u'high']","blue",49,"left","low","False","False",228,4700,NA
"A3S1TLYMH9WWUG","Thu Jan 30 2020 14:26:42 GMT-0500 (Eastern Standard Time)","Thu Jan 30 2020 14:32:41 GMT-0500 (Eastern Standard Time)","Mozilla/5.0 (Windows NT 10.0; Win64; x64) AppleWebKit/537.36 (KHTML, like Gecko) Chrome/79.0.3945.117 Safari/537.36",108,"[0.9, 0.5, 0.1]","[0.8, 0.4, 0.2]","[u'blue', u'black', u'red']","[u'left', u'middle', u'right']","[0.8, 0.4, 0.2]","[u'low', u'medium', u'high']","red",51,"right","high","True","False",179,4800,NA
"A3S1TLYMH9WWUG","Thu Jan 30 2020 14:26:42 GMT-0500 (Eastern Standard Time)","Thu Jan 30 2020 14:32:41 GMT-0500 (Eastern Standard Time)","Mozilla/5.0 (Windows NT 10.0; Win64; x64) AppleWebKit/537.36 (KHTML, like Gecko) Chrome/79.0.3945.117 Safari/537.36",109,"[0.9, 0.5, 0.1]","[0.8, 0.4, 0.2]","[u'blue', u'black', u'red']","[u'left', u'middle', u'right']","[0.8, 0.4, 0.2]","[u'low', u'medium', u'high']","red",51,"right","high","True","False",130,4900,NA
"A3S1TLYMH9WWUG","Thu Jan 30 2020 14:26:42 GMT-0500 (Eastern Standard Time)","Thu Jan 30 2020 14:32:41 GMT-0500 (Eastern Standard Time)","Mozilla/5.0 (Windows NT 10.0; Win64; x64) AppleWebKit/537.36 (KHTML, like Gecko) Chrome/79.0.3945.117 Safari/537.36",110,"[0.9, 0.5, 0.1]","[0.8, 0.4, 0.2]","[u'blue', u'black', u'red']","[u'left', u'middle', u'right']","[0.8, 0.4, 0.2]","[u'low', u'medium', u'high']","red",51,"right","high","True","False",179,5000,NA
"A3S1TLYMH9WWUG","Thu Jan 30 2020 14:26:42 GMT-0500 (Eastern Standard Time)","Thu Jan 30 2020 14:32:41 GMT-0500 (Eastern Standard Time)","Mozilla/5.0 (Windows NT 10.0; Win64; x64) AppleWebKit/537.36 (KHTML, like Gecko) Chrome/79.0.3945.117 Safari/537.36",111,"[0.9, 0.5, 0.1]","[0.8, 0.4, 0.2]","[u'blue', u'black', u'red']","[u'left', u'middle', u'right']","[0.8, 0.4, 0.2]","[u'low', u'medium', u'high']","red",51,"right","high","True","False",163,5100,NA
"A3S1TLYMH9WWUG","Thu Jan 30 2020 14:26:42 GMT-0500 (Eastern Standard Time)","Thu Jan 30 2020 14:32:41 GMT-0500 (Eastern Standard Time)","Mozilla/5.0 (Windows NT 10.0; Win64; x64) AppleWebKit/537.36 (KHTML, like Gecko) Chrome/79.0.3945.117 Safari/537.36",112,"[0.9, 0.5, 0.1]","[0.8, 0.4, 0.2]","[u'blue', u'black', u'red']","[u'left', u'middle', u'right']","[0.8, 0.4, 0.2]","[u'low', u'medium', u'high']","red",51,"right","high","True","False",115,5200,NA
"A3S1TLYMH9WWUG","Thu Jan 30 2020 14:26:42 GMT-0500 (Eastern Standard Time)","Thu Jan 30 2020 14:32:41 GMT-0500 (Eastern Standard Time)","Mozilla/5.0 (Windows NT 10.0; Win64; x64) AppleWebKit/537.36 (KHTML, like Gecko) Chrome/79.0.3945.117 Safari/537.36",113,"[0.9, 0.5, 0.1]","[0.8, 0.4, 0.2]","[u'blue', u'black', u'red']","[u'left', u'middle', u'right']","[0.8, 0.4, 0.2]","[u'low', u'medium', u'high']","red",51,"right","high","True","False",66,5300,NA
"A3S1TLYMH9WWUG","Thu Jan 30 2020 14:26:42 GMT-0500 (Eastern Standard Time)","Thu Jan 30 2020 14:32:41 GMT-0500 (Eastern Standard Time)","Mozilla/5.0 (Windows NT 10.0; Win64; x64) AppleWebKit/537.36 (KHTML, like Gecko) Chrome/79.0.3945.117 Safari/537.36",114,"[0.9, 0.5, 0.1]","[0.8, 0.4, 0.2]","[u'blue', u'black', u'red']","[u'left', u'middle', u'right']","[0.8, 0.4, 0.2]","[u'low', u'medium', u'high']","red",51,"right","high","True","False",274,5400,NA
"A3S1TLYMH9WWUG","Thu Jan 30 2020 14:26:42 GMT-0500 (Eastern Standard Time)","Thu Jan 30 2020 14:32:41 GMT-0500 (Eastern Standard Time)","Mozilla/5.0 (Windows NT 10.0; Win64; x64) AppleWebKit/537.36 (KHTML, like Gecko) Chrome/79.0.3945.117 Safari/537.36",115,"[0.9, 0.5, 0.1]","[0.8, 0.4, 0.2]","[u'blue', u'black', u'red']","[u'left', u'middle', u'right']","[0.8, 0.4, 0.2]","[u'low', u'medium', u'high']","red",51,"right","high","True","False",146,5500,NA
"A3S1TLYMH9WWUG","Thu Jan 30 2020 14:26:42 GMT-0500 (Eastern Standard Time)","Thu Jan 30 2020 14:32:41 GMT-0500 (Eastern Standard Time)","Mozilla/5.0 (Windows NT 10.0; Win64; x64) AppleWebKit/537.36 (KHTML, like Gecko) Chrome/79.0.3945.117 Safari/537.36",116,"[0.9, 0.5, 0.1]","[0.8, 0.4, 0.2]","[u'blue', u'black', u'red']","[u'left', u'middle', u'right']","[0.8, 0.4, 0.2]","[u'low', u'medium', u'high']","red",51,"right","high","True","True",258,5600,NA
"A3S1TLYMH9WWUG","Thu Jan 30 2020 14:26:42 GMT-0500 (Eastern Standard Time)","Thu Jan 30 2020 14:32:41 GMT-0500 (Eastern Standard Time)","Mozilla/5.0 (Windows NT 10.0; Win64; x64) AppleWebKit/537.36 (KHTML, like Gecko) Chrome/79.0.3945.117 Safari/537.36",117,"[0.9, 0.5, 0.1]","[0.8, 0.4, 0.2]","[u'blue', u'black', u'red']","[u'left', u'middle', u'right']","[0.8, 0.4, 0.2]","[u'high', u'medium', u'low']","red",51,"right","low","True","False",195,5700,NA
"A3S1TLYMH9WWUG","Thu Jan 30 2020 14:26:42 GMT-0500 (Eastern Standard Time)","Thu Jan 30 2020 14:32:41 GMT-0500 (Eastern Standard Time)","Mozilla/5.0 (Windows NT 10.0; Win64; x64) AppleWebKit/537.36 (KHTML, like Gecko) Chrome/79.0.3945.117 Safari/537.36",118,"[0.9, 0.5, 0.1]","[0.8, 0.4, 0.2]","[u'blue', u'black', u'red']","[u'left', u'middle', u'right']","[0.8, 0.4, 0.2]","[u'high', u'medium', u'low']","red",51,"right","low","False","False",147,5650,NA
"A3S1TLYMH9WWUG","Thu Jan 30 2020 14:26:42 GMT-0500 (Eastern Standard Time)","Thu Jan 30 2020 14:32:41 GMT-0500 (Eastern Standard Time)","Mozilla/5.0 (Windows NT 10.0; Win64; x64) AppleWebKit/537.36 (KHTML, like Gecko) Chrome/79.0.3945.117 Safari/537.36",119,"[0.9, 0.5, 0.1]","[0.8, 0.4, 0.2]","[u'blue', u'black', u'red']","[u'left', u'middle', u'right']","[0.8, 0.4, 0.2]","[u'high', u'medium', u'low']","black",50,"middle","medium","False","False",115,5600,NA
"A3S1TLYMH9WWUG","Thu Jan 30 2020 14:26:42 GMT-0500 (Eastern Standard Time)","Thu Jan 30 2020 14:32:41 GMT-0500 (Eastern Standard Time)","Mozilla/5.0 (Windows NT 10.0; Win64; x64) AppleWebKit/537.36 (KHTML, like Gecko) Chrome/79.0.3945.117 Safari/537.36",120,"[0.9, 0.5, 0.1]","[0.8, 0.4, 0.2]","[u'blue', u'black', u'red']","[u'left', u'middle', u'right']","[0.8, 0.4, 0.2]","[u'high', u'medium', u'low']","blue",49,"left","high","True","False",51,5700,NA
"A3S1TLYMH9WWUG","Thu Jan 30 2020 14:26:42 GMT-0500 (Eastern Standard Time)","Thu Jan 30 2020 14:32:41 GMT-0500 (Eastern Standard Time)","Mozilla/5.0 (Windows NT 10.0; Win64; x64) AppleWebKit/537.36 (KHTML, like Gecko) Chrome/79.0.3945.117 Safari/537.36",121,"[0.9, 0.5, 0.1]","[0.8, 0.4, 0.2]","[u'blue', u'black', u'red']","[u'left', u'middle', u'right']","[0.8, 0.4, 0.2]","[u'medium', u'high', u'low']","blue",49,"left","medium","True","False",395,5800,NA
"A3S1TLYMH9WWUG","Thu Jan 30 2020 14:26:42 GMT-0500 (Eastern Standard Time)","Thu Jan 30 2020 14:32:41 GMT-0500 (Eastern Standard Time)","Mozilla/5.0 (Windows NT 10.0; Win64; x64) AppleWebKit/537.36 (KHTML, like Gecko) Chrome/79.0.3945.117 Safari/537.36",122,"[0.9, 0.5, 0.1]","[0.8, 0.4, 0.2]","[u'blue', u'black', u'red']","[u'left', u'middle', u'right']","[0.8, 0.4, 0.2]","[u'medium', u'high', u'low']","blue",49,"left","medium","False","False",215,5750,NA
"A3S1TLYMH9WWUG","Thu Jan 30 2020 14:26:42 GMT-0500 (Eastern Standard Time)","Thu Jan 30 2020 14:32:41 GMT-0500 (Eastern Standard Time)","Mozilla/5.0 (Windows NT 10.0; Win64; x64) AppleWebKit/537.36 (KHTML, like Gecko) Chrome/79.0.3945.117 Safari/537.36",123,"[0.9, 0.5, 0.1]","[0.8, 0.4, 0.2]","[u'blue', u'black', u'red']","[u'left', u'middle', u'right']","[0.8, 0.4, 0.2]","[u'medium', u'high', u'low']","red",51,"right","low","False","False",227,5700,NA
"A3S1TLYMH9WWUG","Thu Jan 30 2020 14:26:42 GMT-0500 (Eastern Standard Time)","Thu Jan 30 2020 14:32:41 GMT-0500 (Eastern Standard Time)","Mozilla/5.0 (Windows NT 10.0; Win64; x64) AppleWebKit/537.36 (KHTML, like Gecko) Chrome/79.0.3945.117 Safari/537.36",124,"[0.9, 0.5, 0.1]","[0.8, 0.4, 0.2]","[u'blue', u'black', u'red']","[u'left', u'middle', u'right']","[0.8, 0.4, 0.2]","[u'medium', u'high', u'low']","blue",49,"left","medium","False","False",52,5650,NA
"A3S1TLYMH9WWUG","Thu Jan 30 2020 14:26:42 GMT-0500 (Eastern Standard Time)","Thu Jan 30 2020 14:32:41 GMT-0500 (Eastern Standard Time)","Mozilla/5.0 (Windows NT 10.0; Win64; x64) AppleWebKit/537.36 (KHTML, like Gecko) Chrome/79.0.3945.117 Safari/537.36",125,"[0.9, 0.5, 0.1]","[0.8, 0.4, 0.2]","[u'blue', u'black', u'red']","[u'left', u'middle', u'right']","[0.8, 0.4, 0.2]","[u'medium', u'high', u'low']","black",50,"middle","high","True","False",50,5750,NA
"A3S1TLYMH9WWUG","Thu Jan 30 2020 14:26:42 GMT-0500 (Eastern Standard Time)","Thu Jan 30 2020 14:32:41 GMT-0500 (Eastern Standard Time)","Mozilla/5.0 (Windows NT 10.0; Win64; x64) AppleWebKit/537.36 (KHTML, like Gecko) Chrome/79.0.3945.117 Safari/537.36",126,"[0.9, 0.5, 0.1]","[0.8, 0.4, 0.2]","[u'blue', u'black', u'red']","[u'left', u'middle', u'right']","[0.8, 0.4, 0.2]","[u'medium', u'high', u'low']","black",50,"middle","high","False","False",148,5700,NA
"A3S1TLYMH9WWUG","Thu Jan 30 2020 14:26:42 GMT-0500 (Eastern Standard Time)","Thu Jan 30 2020 14:32:41 GMT-0500 (Eastern Standard Time)","Mozilla/5.0 (Windows NT 10.0; Win64; x64) AppleWebKit/537.36 (KHTML, like Gecko) Chrome/79.0.3945.117 Safari/537.36",127,"[0.9, 0.5, 0.1]","[0.8, 0.4, 0.2]","[u'blue', u'black', u'red']","[u'left', u'middle', u'right']","[0.8, 0.4, 0.2]","[u'medium', u'high', u'low']","blue",49,"left","medium","True","False",130,5800,NA
"A3S1TLYMH9WWUG","Thu Jan 30 2020 14:26:42 GMT-0500 (Eastern Standard Time)","Thu Jan 30 2020 14:32:41 GMT-0500 (Eastern Standard Time)","Mozilla/5.0 (Windows NT 10.0; Win64; x64) AppleWebKit/537.36 (KHTML, like Gecko) Chrome/79.0.3945.117 Safari/537.36",128,"[0.9, 0.5, 0.1]","[0.8, 0.4, 0.2]","[u'blue', u'black', u'red']","[u'left', u'middle', u'right']","[0.8, 0.4, 0.2]","[u'medium', u'high', u'low']","blue",49,"left","medium","True","False",67,5900,NA
"A3S1TLYMH9WWUG","Thu Jan 30 2020 14:26:42 GMT-0500 (Eastern Standard Time)","Thu Jan 30 2020 14:32:41 GMT-0500 (Eastern Standard Time)","Mozilla/5.0 (Windows NT 10.0; Win64; x64) AppleWebKit/537.36 (KHTML, like Gecko) Chrome/79.0.3945.117 Safari/537.36",129,"[0.9, 0.5, 0.1]","[0.8, 0.4, 0.2]","[u'blue', u'black', u'red']","[u'left', u'middle', u'right']","[0.8, 0.4, 0.2]","[u'medium', u'high', u'low']","blue",49,"left","medium","True","False",146,6000,NA
"A3S1TLYMH9WWUG","Thu Jan 30 2020 14:26:42 GMT-0500 (Eastern Standard Time)","Thu Jan 30 2020 14:32:41 GMT-0500 (Eastern Standard Time)","Mozilla/5.0 (Windows NT 10.0; Win64; x64) AppleWebKit/537.36 (KHTML, like Gecko) Chrome/79.0.3945.117 Safari/537.36",130,"[0.9, 0.5, 0.1]","[0.8, 0.4, 0.2]","[u'blue', u'black', u'red']","[u'left', u'middle', u'right']","[0.8, 0.4, 0.2]","[u'medium', u'high', u'low']","blue",49,"left","medium","False","False",98,5950,NA
"A3S1TLYMH9WWUG","Thu Jan 30 2020 14:26:42 GMT-0500 (Eastern Standard Time)","Thu Jan 30 2020 14:32:41 GMT-0500 (Eastern Standard Time)","Mozilla/5.0 (Windows NT 10.0; Win64; x64) AppleWebKit/537.36 (KHTML, like Gecko) Chrome/79.0.3945.117 Safari/537.36",131,"[0.9, 0.5, 0.1]","[0.8, 0.4, 0.2]","[u'blue', u'black', u'red']","[u'left', u'middle', u'right']","[0.8, 0.4, 0.2]","[u'medium', u'high', u'low']","black",50,"middle","high","True","False",82,6050,NA
"A3S1TLYMH9WWUG","Thu Jan 30 2020 14:26:42 GMT-0500 (Eastern Standard Time)","Thu Jan 30 2020 14:32:41 GMT-0500 (Eastern Standard Time)","Mozilla/5.0 (Windows NT 10.0; Win64; x64) AppleWebKit/537.36 (KHTML, like Gecko) Chrome/79.0.3945.117 Safari/537.36",132,"[0.9, 0.5, 0.1]","[0.8, 0.4, 0.2]","[u'blue', u'black', u'red']","[u'left', u'middle', u'right']","[0.8, 0.4, 0.2]","[u'medium', u'high', u'low']","black",50,"middle","high","True","False",51,6150,NA
"A3S1TLYMH9WWUG","Thu Jan 30 2020 14:26:42 GMT-0500 (Eastern Standard Time)","Thu Jan 30 2020 14:32:41 GMT-0500 (Eastern Standard Time)","Mozilla/5.0 (Windows NT 10.0; Win64; x64) AppleWebKit/537.36 (KHTML, like Gecko) Chrome/79.0.3945.117 Safari/537.36",133,"[0.9, 0.5, 0.1]","[0.8, 0.4, 0.2]","[u'blue', u'black', u'red']","[u'left', u'middle', u'right']","[0.8, 0.4, 0.2]","[u'medium', u'high', u'low']","black",50,"middle","high","True","False",132,6250,NA
"A3S1TLYMH9WWUG","Thu Jan 30 2020 14:26:42 GMT-0500 (Eastern Standard Time)","Thu Jan 30 2020 14:32:41 GMT-0500 (Eastern Standard Time)","Mozilla/5.0 (Windows NT 10.0; Win64; x64) AppleWebKit/537.36 (KHTML, like Gecko) Chrome/79.0.3945.117 Safari/537.36",134,"[0.9, 0.5, 0.1]","[0.8, 0.4, 0.2]","[u'blue', u'black', u'red']","[u'left', u'middle', u'right']","[0.8, 0.4, 0.2]","[u'medium', u'high', u'low']","black",50,"middle","high","True","False",98,6350,NA
"A3S1TLYMH9WWUG","Thu Jan 30 2020 14:26:42 GMT-0500 (Eastern Standard Time)","Thu Jan 30 2020 14:32:41 GMT-0500 (Eastern Standard Time)","Mozilla/5.0 (Windows NT 10.0; Win64; x64) AppleWebKit/537.36 (KHTML, like Gecko) Chrome/79.0.3945.117 Safari/537.36",135,"[0.9, 0.5, 0.1]","[0.8, 0.4, 0.2]","[u'blue', u'black', u'red']","[u'left', u'middle', u'right']","[0.8, 0.4, 0.2]","[u'medium', u'high', u'low']","black",50,"middle","high","True","False",83,6450,NA
"A3S1TLYMH9WWUG","Thu Jan 30 2020 14:26:42 GMT-0500 (Eastern Standard Time)","Thu Jan 30 2020 14:32:41 GMT-0500 (Eastern Standard Time)","Mozilla/5.0 (Windows NT 10.0; Win64; x64) AppleWebKit/537.36 (KHTML, like Gecko) Chrome/79.0.3945.117 Safari/537.36",136,"[0.9, 0.5, 0.1]","[0.8, 0.4, 0.2]","[u'blue', u'black', u'red']","[u'left', u'middle', u'right']","[0.8, 0.4, 0.2]","[u'medium', u'high', u'low']","black",50,"middle","high","True","False",51,6550,NA
"A3S1TLYMH9WWUG","Thu Jan 30 2020 14:26:42 GMT-0500 (Eastern Standard Time)","Thu Jan 30 2020 14:32:41 GMT-0500 (Eastern Standard Time)","Mozilla/5.0 (Windows NT 10.0; Win64; x64) AppleWebKit/537.36 (KHTML, like Gecko) Chrome/79.0.3945.117 Safari/537.36",137,"[0.9, 0.5, 0.1]","[0.8, 0.4, 0.2]","[u'blue', u'black', u'red']","[u'left', u'middle', u'right']","[0.8, 0.4, 0.2]","[u'medium', u'high', u'low']","black",50,"middle","high","True","False",83,6650,NA
"A3S1TLYMH9WWUG","Thu Jan 30 2020 14:26:42 GMT-0500 (Eastern Standard Time)","Thu Jan 30 2020 14:32:41 GMT-0500 (Eastern Standard Time)","Mozilla/5.0 (Windows NT 10.0; Win64; x64) AppleWebKit/537.36 (KHTML, like Gecko) Chrome/79.0.3945.117 Safari/537.36",138,"[0.9, 0.5, 0.1]","[0.8, 0.4, 0.2]","[u'blue', u'black', u'red']","[u'left', u'middle', u'right']","[0.8, 0.4, 0.2]","[u'medium', u'high', u'low']","black",50,"middle","high","True","False",92,6750,NA
"A3S1TLYMH9WWUG","Thu Jan 30 2020 14:26:42 GMT-0500 (Eastern Standard Time)","Thu Jan 30 2020 14:32:41 GMT-0500 (Eastern Standard Time)","Mozilla/5.0 (Windows NT 10.0; Win64; x64) AppleWebKit/537.36 (KHTML, like Gecko) Chrome/79.0.3945.117 Safari/537.36",139,"[0.9, 0.5, 0.1]","[0.8, 0.4, 0.2]","[u'blue', u'black', u'red']","[u'left', u'middle', u'right']","[0.8, 0.4, 0.2]","[u'medium', u'high', u'low']","blue",49,"left","medium","False","False",211,6700,NA
"A3S1TLYMH9WWUG","Thu Jan 30 2020 14:26:42 GMT-0500 (Eastern Standard Time)","Thu Jan 30 2020 14:32:41 GMT-0500 (Eastern Standard Time)","Mozilla/5.0 (Windows NT 10.0; Win64; x64) AppleWebKit/537.36 (KHTML, like Gecko) Chrome/79.0.3945.117 Safari/537.36",140,"[0.9, 0.5, 0.1]","[0.8, 0.4, 0.2]","[u'blue', u'black', u'red']","[u'left', u'middle', u'right']","[0.8, 0.4, 0.2]","[u'medium', u'high', u'low']","black",50,"middle","high","True","True",179,6800,NA
"A3S1TLYMH9WWUG","Thu Jan 30 2020 14:26:42 GMT-0500 (Eastern Standard Time)","Thu Jan 30 2020 14:32:41 GMT-0500 (Eastern Standard Time)","Mozilla/5.0 (Windows NT 10.0; Win64; x64) AppleWebKit/537.36 (KHTML, like Gecko) Chrome/79.0.3945.117 Safari/537.36",141,"[0.9, 0.5, 0.1]","[0.8, 0.4, 0.2]","[u'blue', u'black', u'red']","[u'left', u'middle', u'right']","[0.8, 0.4, 0.2]","[u'low', u'medium', u'high']","black",50,"middle","medium","True","False",82,6900,NA
"A3S1TLYMH9WWUG","Thu Jan 30 2020 14:26:42 GMT-0500 (Eastern Standard Time)","Thu Jan 30 2020 14:32:41 GMT-0500 (Eastern Standard Time)","Mozilla/5.0 (Windows NT 10.0; Win64; x64) AppleWebKit/537.36 (KHTML, like Gecko) Chrome/79.0.3945.117 Safari/537.36",142,"[0.9, 0.5, 0.1]","[0.8, 0.4, 0.2]","[u'blue', u'black', u'red']","[u'left', u'middle', u'right']","[0.8, 0.4, 0.2]","[u'low', u'medium', u'high']","black",50,"middle","medium","False","False",98,6850,NA
"A3S1TLYMH9WWUG","Thu Jan 30 2020 14:26:42 GMT-0500 (Eastern Standard Time)","Thu Jan 30 2020 14:32:41 GMT-0500 (Eastern Standard Time)","Mozilla/5.0 (Windows NT 10.0; Win64; x64) AppleWebKit/537.36 (KHTML, like Gecko) Chrome/79.0.3945.117 Safari/537.36",143,"[0.9, 0.5, 0.1]","[0.8, 0.4, 0.2]","[u'blue', u'black', u'red']","[u'left', u'middle', u'right']","[0.8, 0.4, 0.2]","[u'low', u'medium', u'high']","blue",49,"left","low","False","False",147,6800,NA
"A3S1TLYMH9WWUG","Thu Jan 30 2020 14:26:42 GMT-0500 (Eastern Standard Time)","Thu Jan 30 2020 14:32:41 GMT-0500 (Eastern Standard Time)","Mozilla/5.0 (Windows NT 10.0; Win64; x64) AppleWebKit/537.36 (KHTML, like Gecko) Chrome/79.0.3945.117 Safari/537.36",144,"[0.9, 0.5, 0.1]","[0.8, 0.4, 0.2]","[u'blue', u'black', u'red']","[u'left', u'middle', u'right']","[0.8, 0.4, 0.2]","[u'low', u'medium', u'high']","black",50,"middle","medium","False","False",131,6750,NA
"A3S1TLYMH9WWUG","Thu Jan 30 2020 14:26:42 GMT-0500 (Eastern Standard Time)","Thu Jan 30 2020 14:32:41 GMT-0500 (Eastern Standard Time)","Mozilla/5.0 (Windows NT 10.0; Win64; x64) AppleWebKit/537.36 (KHTML, like Gecko) Chrome/79.0.3945.117 Safari/537.36",145,"[0.9, 0.5, 0.1]","[0.8, 0.4, 0.2]","[u'blue', u'black', u'red']","[u'left', u'middle', u'right']","[0.8, 0.4, 0.2]","[u'low', u'medium', u'high']","blue",49,"left","low","False","False",210,6700,NA
"A3S1TLYMH9WWUG","Thu Jan 30 2020 14:26:42 GMT-0500 (Eastern Standard Time)","Thu Jan 30 2020 14:32:41 GMT-0500 (Eastern Standard Time)","Mozilla/5.0 (Windows NT 10.0; Win64; x64) AppleWebKit/537.36 (KHTML, like Gecko) Chrome/79.0.3945.117 Safari/537.36",146,"[0.9, 0.5, 0.1]","[0.8, 0.4, 0.2]","[u'blue', u'black', u'red']","[u'left', u'middle', u'right']","[0.8, 0.4, 0.2]","[u'low', u'medium', u'high']","red",51,"right","high","True","False",67,6800,NA
"A3S1TLYMH9WWUG","Thu Jan 30 2020 14:26:42 GMT-0500 (Eastern Standard Time)","Thu Jan 30 2020 14:32:41 GMT-0500 (Eastern Standard Time)","Mozilla/5.0 (Windows NT 10.0; Win64; x64) AppleWebKit/537.36 (KHTML, like Gecko) Chrome/79.0.3945.117 Safari/537.36",147,"[0.9, 0.5, 0.1]","[0.8, 0.4, 0.2]","[u'blue', u'black', u'red']","[u'left', u'middle', u'right']","[0.8, 0.4, 0.2]","[u'low', u'medium', u'high']","red",51,"right","high","True","False",99,6900,NA
"A3S1TLYMH9WWUG","Thu Jan 30 2020 14:26:42 GMT-0500 (Eastern Standard Time)","Thu Jan 30 2020 14:32:41 GMT-0500 (Eastern Standard Time)","Mozilla/5.0 (Windows NT 10.0; Win64; x64) AppleWebKit/537.36 (KHTML, like Gecko) Chrome/79.0.3945.117 Safari/537.36",148,"[0.9, 0.5, 0.1]","[0.8, 0.4, 0.2]","[u'blue', u'black', u'red']","[u'left', u'middle', u'right']","[0.8, 0.4, 0.2]","[u'low', u'medium', u'high']","red",51,"right","high","False","False",66,6850,NA
"A3S1TLYMH9WWUG","Thu Jan 30 2020 14:26:42 GMT-0500 (Eastern Standard Time)","Thu Jan 30 2020 14:32:41 GMT-0500 (Eastern Standard Time)","Mozilla/5.0 (Windows NT 10.0; Win64; x64) AppleWebKit/537.36 (KHTML, like Gecko) Chrome/79.0.3945.117 Safari/537.36",149,"[0.9, 0.5, 0.1]","[0.8, 0.4, 0.2]","[u'blue', u'black', u'red']","[u'left', u'middle', u'right']","[0.8, 0.4, 0.2]","[u'low', u'medium', u'high']","black",50,"middle","medium","True","False",148,6950,NA
"A3S1TLYMH9WWUG","Thu Jan 30 2020 14:26:42 GMT-0500 (Eastern Standard Time)","Thu Jan 30 2020 14:32:41 GMT-0500 (Eastern Standard Time)","Mozilla/5.0 (Windows NT 10.0; Win64; x64) AppleWebKit/537.36 (KHTML, like Gecko) Chrome/79.0.3945.117 Safari/537.36",150,"[0.9, 0.5, 0.1]","[0.8, 0.4, 0.2]","[u'blue', u'black', u'red']","[u'left', u'middle', u'right']","[0.8, 0.4, 0.2]","[u'low', u'medium', u'high']","black",50,"middle","medium","False","False",50,6900,NA
"A3S1TLYMH9WWUG","Thu Jan 30 2020 14:26:42 GMT-0500 (Eastern Standard Time)","Thu Jan 30 2020 14:32:41 GMT-0500 (Eastern Standard Time)","Mozilla/5.0 (Windows NT 10.0; Win64; x64) AppleWebKit/537.36 (KHTML, like Gecko) Chrome/79.0.3945.117 Safari/537.36",151,"[0.9, 0.5, 0.1]","[0.8, 0.4, 0.2]","[u'blue', u'black', u'red']","[u'left', u'middle', u'right']","[0.8, 0.4, 0.2]","[u'low', u'medium', u'high']","red",51,"right","high","True","False",99,7000,NA
"A3S1TLYMH9WWUG","Thu Jan 30 2020 14:26:42 GMT-0500 (Eastern Standard Time)","Thu Jan 30 2020 14:32:41 GMT-0500 (Eastern Standard Time)","Mozilla/5.0 (Windows NT 10.0; Win64; x64) AppleWebKit/537.36 (KHTML, like Gecko) Chrome/79.0.3945.117 Safari/537.36",152,"[0.9, 0.5, 0.1]","[0.8, 0.4, 0.2]","[u'blue', u'black', u'red']","[u'left', u'middle', u'right']","[0.8, 0.4, 0.2]","[u'low', u'medium', u'high']","red",51,"right","high","True","False",227,7100,NA
"A3S1TLYMH9WWUG","Thu Jan 30 2020 14:26:42 GMT-0500 (Eastern Standard Time)","Thu Jan 30 2020 14:32:41 GMT-0500 (Eastern Standard Time)","Mozilla/5.0 (Windows NT 10.0; Win64; x64) AppleWebKit/537.36 (KHTML, like Gecko) Chrome/79.0.3945.117 Safari/537.36",153,"[0.9, 0.5, 0.1]","[0.8, 0.4, 0.2]","[u'blue', u'black', u'red']","[u'left', u'middle', u'right']","[0.8, 0.4, 0.2]","[u'low', u'medium', u'high']","red",51,"right","high","True","False",219,7200,NA
"A3S1TLYMH9WWUG","Thu Jan 30 2020 14:26:42 GMT-0500 (Eastern Standard Time)","Thu Jan 30 2020 14:32:41 GMT-0500 (Eastern Standard Time)","Mozilla/5.0 (Windows NT 10.0; Win64; x64) AppleWebKit/537.36 (KHTML, like Gecko) Chrome/79.0.3945.117 Safari/537.36",154,"[0.9, 0.5, 0.1]","[0.8, 0.4, 0.2]","[u'blue', u'black', u'red']","[u'left', u'middle', u'right']","[0.8, 0.4, 0.2]","[u'low', u'medium', u'high']","red",51,"right","high","False","False",196,7150,NA
"A3S1TLYMH9WWUG","Thu Jan 30 2020 14:26:42 GMT-0500 (Eastern Standard Time)","Thu Jan 30 2020 14:32:41 GMT-0500 (Eastern Standard Time)","Mozilla/5.0 (Windows NT 10.0; Win64; x64) AppleWebKit/537.36 (KHTML, like Gecko) Chrome/79.0.3945.117 Safari/537.36",155,"[0.9, 0.5, 0.1]","[0.8, 0.4, 0.2]","[u'blue', u'black', u'red']","[u'left', u'middle', u'right']","[0.8, 0.4, 0.2]","[u'low', u'medium', u'high']","black",50,"middle","medium","True","False",180,7250,NA
"A3S1TLYMH9WWUG","Thu Jan 30 2020 14:26:42 GMT-0500 (Eastern Standard Time)","Thu Jan 30 2020 14:32:41 GMT-0500 (Eastern Standard Time)","Mozilla/5.0 (Windows NT 10.0; Win64; x64) AppleWebKit/537.36 (KHTML, like Gecko) Chrome/79.0.3945.117 Safari/537.36",156,"[0.9, 0.5, 0.1]","[0.8, 0.4, 0.2]","[u'blue', u'black', u'red']","[u'left', u'middle', u'right']","[0.8, 0.4, 0.2]","[u'low', u'medium', u'high']","black",50,"middle","medium","False","False",192,7200,NA
"A3S1TLYMH9WWUG","Thu Jan 30 2020 14:26:42 GMT-0500 (Eastern Standard Time)","Thu Jan 30 2020 14:32:41 GMT-0500 (Eastern Standard Time)","Mozilla/5.0 (Windows NT 10.0; Win64; x64) AppleWebKit/537.36 (KHTML, like Gecko) Chrome/79.0.3945.117 Safari/537.36",157,"[0.9, 0.5, 0.1]","[0.8, 0.4, 0.2]","[u'blue', u'black', u'red']","[u'left', u'middle', u'right']","[0.8, 0.4, 0.2]","[u'low', u'medium', u'high']","red",51,"right","high","True","False",147,7300,NA
"A3S1TLYMH9WWUG","Thu Jan 30 2020 14:26:42 GMT-0500 (Eastern Standard Time)","Thu Jan 30 2020 14:32:41 GMT-0500 (Eastern Standard Time)","Mozilla/5.0 (Windows NT 10.0; Win64; x64) AppleWebKit/537.36 (KHTML, like Gecko) Chrome/79.0.3945.117 Safari/537.36",158,"[0.9, 0.5, 0.1]","[0.8, 0.4, 0.2]","[u'blue', u'black', u'red']","[u'left', u'middle', u'right']","[0.8, 0.4, 0.2]","[u'low', u'medium', u'high']","red",51,"right","high","True","False",242,7400,NA
"A3S1TLYMH9WWUG","Thu Jan 30 2020 14:26:42 GMT-0500 (Eastern Standard Time)","Thu Jan 30 2020 14:32:41 GMT-0500 (Eastern Standard Time)","Mozilla/5.0 (Windows NT 10.0; Win64; x64) AppleWebKit/537.36 (KHTML, like Gecko) Chrome/79.0.3945.117 Safari/537.36",159,"[0.9, 0.5, 0.1]","[0.8, 0.4, 0.2]","[u'blue', u'black', u'red']","[u'left', u'middle', u'right']","[0.8, 0.4, 0.2]","[u'low', u'medium', u'high']","red",51,"right","high","False","False",274,7350,NA
"A3S1TLYMH9WWUG","Thu Jan 30 2020 14:26:42 GMT-0500 (Eastern Standard Time)","Thu Jan 30 2020 14:32:41 GMT-0500 (Eastern Standard Time)","Mozilla/5.0 (Windows NT 10.0; Win64; x64) AppleWebKit/537.36 (KHTML, like Gecko) Chrome/79.0.3945.117 Safari/537.36",160,"[0.9, 0.5, 0.1]","[0.8, 0.4, 0.2]","[u'blue', u'black', u'red']","[u'left', u'middle', u'right']","[0.8, 0.4, 0.2]","[u'low', u'medium', u'high']","black",50,"middle","medium","False","False",147,7300,NA
