"src_subject_id","start_time","end_time","browser","index","first_half_probabilities","second_half_probabilities","deck_color","deck_position","deck_probabilities","deck_contingencies","response_color","key_press","response_position","response_probability","reward_type","trial_type","rt","reward_tally","exclusion_reason"
"A3J55BJGV95JKH","Thu Jan 30 2020 17:04:26 GMT-0600 (Central Standard Time)","Thu Jan 30 2020 17:16:35 GMT-0600 (Central Standard Time)","Mozilla/5.0 (Windows NT 6.3; Win64; x64) AppleWebKit/537.36 (KHTML, like Gecko) Chrome/79.0.3945.130 Safari/537.36",1,"[0.9, 0.5, 0.1]","[0.8, 0.4, 0.2]","[u'red', u'blue', u'black']","[u'left', u'middle', u'right']","[0.9, 0.5, 0.1]","[u'low', u'high', u'medium']","blue",50,"middle","high","False","False",1002,-50,NA
"A3J55BJGV95JKH","Thu Jan 30 2020 17:04:26 GMT-0600 (Central Standard Time)","Thu Jan 30 2020 17:16:35 GMT-0600 (Central Standard Time)","Mozilla/5.0 (Windows NT 6.3; Win64; x64) AppleWebKit/537.36 (KHTML, like Gecko) Chrome/79.0.3945.130 Safari/537.36",2,"[0.9, 0.5, 0.1]","[0.8, 0.4, 0.2]","[u'red', u'blue', u'black']","[u'left', u'middle', u'right']","[0.9, 0.5, 0.1]","[u'low', u'high', u'medium']","black",51,"right","medium","True","False",419,50,NA
"A3J55BJGV95JKH","Thu Jan 30 2020 17:04:26 GMT-0600 (Central Standard Time)","Thu Jan 30 2020 17:16:35 GMT-0600 (Central Standard Time)","Mozilla/5.0 (Windows NT 6.3; Win64; x64) AppleWebKit/537.36 (KHTML, like Gecko) Chrome/79.0.3945.130 Safari/537.36",3,"[0.9, 0.5, 0.1]","[0.8, 0.4, 0.2]","[u'red', u'blue', u'black']","[u'left', u'middle', u'right']","[0.9, 0.5, 0.1]","[u'low', u'high', u'medium']","red",49,"left","low","False","False",459,0,NA
"A3J55BJGV95JKH","Thu Jan 30 2020 17:04:26 GMT-0600 (Central Standard Time)","Thu Jan 30 2020 17:16:35 GMT-0600 (Central Standard Time)","Mozilla/5.0 (Windows NT 6.3; Win64; x64) AppleWebKit/537.36 (KHTML, like Gecko) Chrome/79.0.3945.130 Safari/537.36",4,"[0.9, 0.5, 0.1]","[0.8, 0.4, 0.2]","[u'red', u'blue', u'black']","[u'left', u'middle', u'right']","[0.9, 0.5, 0.1]","[u'low', u'high', u'medium']","blue",50,"middle","high","True","False",379,100,NA
"A3J55BJGV95JKH","Thu Jan 30 2020 17:04:26 GMT-0600 (Central Standard Time)","Thu Jan 30 2020 17:16:35 GMT-0600 (Central Standard Time)","Mozilla/5.0 (Windows NT 6.3; Win64; x64) AppleWebKit/537.36 (KHTML, like Gecko) Chrome/79.0.3945.130 Safari/537.36",5,"[0.9, 0.5, 0.1]","[0.8, 0.4, 0.2]","[u'red', u'blue', u'black']","[u'left', u'middle', u'right']","[0.9, 0.5, 0.1]","[u'low', u'high', u'medium']","black",51,"right","medium","False","False",451,50,NA
"A3J55BJGV95JKH","Thu Jan 30 2020 17:04:26 GMT-0600 (Central Standard Time)","Thu Jan 30 2020 17:16:35 GMT-0600 (Central Standard Time)","Mozilla/5.0 (Windows NT 6.3; Win64; x64) AppleWebKit/537.36 (KHTML, like Gecko) Chrome/79.0.3945.130 Safari/537.36",6,"[0.9, 0.5, 0.1]","[0.8, 0.4, 0.2]","[u'red', u'blue', u'black']","[u'left', u'middle', u'right']","[0.9, 0.5, 0.1]","[u'low', u'high', u'medium']","red",49,"left","low","False","False",373,0,NA
"A3J55BJGV95JKH","Thu Jan 30 2020 17:04:26 GMT-0600 (Central Standard Time)","Thu Jan 30 2020 17:16:35 GMT-0600 (Central Standard Time)","Mozilla/5.0 (Windows NT 6.3; Win64; x64) AppleWebKit/537.36 (KHTML, like Gecko) Chrome/79.0.3945.130 Safari/537.36",7,"[0.9, 0.5, 0.1]","[0.8, 0.4, 0.2]","[u'red', u'blue', u'black']","[u'left', u'middle', u'right']","[0.9, 0.5, 0.1]","[u'low', u'high', u'medium']","red",49,"left","low","False","False",434,-50,NA
"A3J55BJGV95JKH","Thu Jan 30 2020 17:04:26 GMT-0600 (Central Standard Time)","Thu Jan 30 2020 17:16:35 GMT-0600 (Central Standard Time)","Mozilla/5.0 (Windows NT 6.3; Win64; x64) AppleWebKit/537.36 (KHTML, like Gecko) Chrome/79.0.3945.130 Safari/537.36",8,"[0.9, 0.5, 0.1]","[0.8, 0.4, 0.2]","[u'red', u'blue', u'black']","[u'left', u'middle', u'right']","[0.9, 0.5, 0.1]","[u'low', u'high', u'medium']","black",51,"right","medium","False","False",91,-100,NA
"A3J55BJGV95JKH","Thu Jan 30 2020 17:04:26 GMT-0600 (Central Standard Time)","Thu Jan 30 2020 17:16:35 GMT-0600 (Central Standard Time)","Mozilla/5.0 (Windows NT 6.3; Win64; x64) AppleWebKit/537.36 (KHTML, like Gecko) Chrome/79.0.3945.130 Safari/537.36",9,"[0.9, 0.5, 0.1]","[0.8, 0.4, 0.2]","[u'red', u'blue', u'black']","[u'left', u'middle', u'right']","[0.9, 0.5, 0.1]","[u'low', u'high', u'medium']","blue",50,"middle","high","True","False",692,0,NA
"A3J55BJGV95JKH","Thu Jan 30 2020 17:04:26 GMT-0600 (Central Standard Time)","Thu Jan 30 2020 17:16:35 GMT-0600 (Central Standard Time)","Mozilla/5.0 (Windows NT 6.3; Win64; x64) AppleWebKit/537.36 (KHTML, like Gecko) Chrome/79.0.3945.130 Safari/537.36",10,"[0.9, 0.5, 0.1]","[0.8, 0.4, 0.2]","[u'red', u'blue', u'black']","[u'left', u'middle', u'right']","[0.9, 0.5, 0.1]","[u'low', u'high', u'medium']","blue",50,"middle","high","True","False",435,100,NA
"A3J55BJGV95JKH","Thu Jan 30 2020 17:04:26 GMT-0600 (Central Standard Time)","Thu Jan 30 2020 17:16:35 GMT-0600 (Central Standard Time)","Mozilla/5.0 (Windows NT 6.3; Win64; x64) AppleWebKit/537.36 (KHTML, like Gecko) Chrome/79.0.3945.130 Safari/537.36",11,"[0.9, 0.5, 0.1]","[0.8, 0.4, 0.2]","[u'red', u'blue', u'black']","[u'left', u'middle', u'right']","[0.9, 0.5, 0.1]","[u'low', u'high', u'medium']","blue",50,"middle","high","True","False",467,200,NA
"A3J55BJGV95JKH","Thu Jan 30 2020 17:04:26 GMT-0600 (Central Standard Time)","Thu Jan 30 2020 17:16:35 GMT-0600 (Central Standard Time)","Mozilla/5.0 (Windows NT 6.3; Win64; x64) AppleWebKit/537.36 (KHTML, like Gecko) Chrome/79.0.3945.130 Safari/537.36",12,"[0.9, 0.5, 0.1]","[0.8, 0.4, 0.2]","[u'red', u'blue', u'black']","[u'left', u'middle', u'right']","[0.9, 0.5, 0.1]","[u'low', u'high', u'medium']","blue",50,"middle","high","False","False",429,150,NA
"A3J55BJGV95JKH","Thu Jan 30 2020 17:04:26 GMT-0600 (Central Standard Time)","Thu Jan 30 2020 17:16:35 GMT-0600 (Central Standard Time)","Mozilla/5.0 (Windows NT 6.3; Win64; x64) AppleWebKit/537.36 (KHTML, like Gecko) Chrome/79.0.3945.130 Safari/537.36",13,"[0.9, 0.5, 0.1]","[0.8, 0.4, 0.2]","[u'red', u'blue', u'black']","[u'left', u'middle', u'right']","[0.9, 0.5, 0.1]","[u'low', u'high', u'medium']","red",49,"left","low","False","False",362,100,NA
"A3J55BJGV95JKH","Thu Jan 30 2020 17:04:26 GMT-0600 (Central Standard Time)","Thu Jan 30 2020 17:16:35 GMT-0600 (Central Standard Time)","Mozilla/5.0 (Windows NT 6.3; Win64; x64) AppleWebKit/537.36 (KHTML, like Gecko) Chrome/79.0.3945.130 Safari/537.36",14,"[0.9, 0.5, 0.1]","[0.8, 0.4, 0.2]","[u'red', u'blue', u'black']","[u'left', u'middle', u'right']","[0.9, 0.5, 0.1]","[u'low', u'high', u'medium']","black",51,"right","medium","True","False",483,200,NA
"A3J55BJGV95JKH","Thu Jan 30 2020 17:04:26 GMT-0600 (Central Standard Time)","Thu Jan 30 2020 17:16:35 GMT-0600 (Central Standard Time)","Mozilla/5.0 (Windows NT 6.3; Win64; x64) AppleWebKit/537.36 (KHTML, like Gecko) Chrome/79.0.3945.130 Safari/537.36",15,"[0.9, 0.5, 0.1]","[0.8, 0.4, 0.2]","[u'red', u'blue', u'black']","[u'left', u'middle', u'right']","[0.9, 0.5, 0.1]","[u'low', u'high', u'medium']","black",51,"right","medium","True","False",476,300,NA
"A3J55BJGV95JKH","Thu Jan 30 2020 17:04:26 GMT-0600 (Central Standard Time)","Thu Jan 30 2020 17:16:35 GMT-0600 (Central Standard Time)","Mozilla/5.0 (Windows NT 6.3; Win64; x64) AppleWebKit/537.36 (KHTML, like Gecko) Chrome/79.0.3945.130 Safari/537.36",16,"[0.9, 0.5, 0.1]","[0.8, 0.4, 0.2]","[u'red', u'blue', u'black']","[u'left', u'middle', u'right']","[0.9, 0.5, 0.1]","[u'low', u'high', u'medium']","black",51,"right","medium","True","False",459,400,NA
"A3J55BJGV95JKH","Thu Jan 30 2020 17:04:26 GMT-0600 (Central Standard Time)","Thu Jan 30 2020 17:16:35 GMT-0600 (Central Standard Time)","Mozilla/5.0 (Windows NT 6.3; Win64; x64) AppleWebKit/537.36 (KHTML, like Gecko) Chrome/79.0.3945.130 Safari/537.36",17,"[0.9, 0.5, 0.1]","[0.8, 0.4, 0.2]","[u'red', u'blue', u'black']","[u'left', u'middle', u'right']","[0.9, 0.5, 0.1]","[u'low', u'high', u'medium']","black",51,"right","medium","True","False",282,500,NA
"A3J55BJGV95JKH","Thu Jan 30 2020 17:04:26 GMT-0600 (Central Standard Time)","Thu Jan 30 2020 17:16:35 GMT-0600 (Central Standard Time)","Mozilla/5.0 (Windows NT 6.3; Win64; x64) AppleWebKit/537.36 (KHTML, like Gecko) Chrome/79.0.3945.130 Safari/537.36",18,"[0.9, 0.5, 0.1]","[0.8, 0.4, 0.2]","[u'red', u'blue', u'black']","[u'left', u'middle', u'right']","[0.9, 0.5, 0.1]","[u'low', u'high', u'medium']","black",51,"right","medium","False","False",507,450,NA
"A3J55BJGV95JKH","Thu Jan 30 2020 17:04:26 GMT-0600 (Central Standard Time)","Thu Jan 30 2020 17:16:35 GMT-0600 (Central Standard Time)","Mozilla/5.0 (Windows NT 6.3; Win64; x64) AppleWebKit/537.36 (KHTML, like Gecko) Chrome/79.0.3945.130 Safari/537.36",19,"[0.9, 0.5, 0.1]","[0.8, 0.4, 0.2]","[u'red', u'blue', u'black']","[u'left', u'middle', u'right']","[0.9, 0.5, 0.1]","[u'low', u'high', u'medium']","blue",50,"middle","high","True","False",355,550,NA
"A3J55BJGV95JKH","Thu Jan 30 2020 17:04:26 GMT-0600 (Central Standard Time)","Thu Jan 30 2020 17:16:35 GMT-0600 (Central Standard Time)","Mozilla/5.0 (Windows NT 6.3; Win64; x64) AppleWebKit/537.36 (KHTML, like Gecko) Chrome/79.0.3945.130 Safari/537.36",20,"[0.9, 0.5, 0.1]","[0.8, 0.4, 0.2]","[u'red', u'blue', u'black']","[u'left', u'middle', u'right']","[0.9, 0.5, 0.1]","[u'low', u'high', u'medium']","blue",50,"middle","high","True","False",362,650,NA
"A3J55BJGV95JKH","Thu Jan 30 2020 17:04:26 GMT-0600 (Central Standard Time)","Thu Jan 30 2020 17:16:35 GMT-0600 (Central Standard Time)","Mozilla/5.0 (Windows NT 6.3; Win64; x64) AppleWebKit/537.36 (KHTML, like Gecko) Chrome/79.0.3945.130 Safari/537.36",21,"[0.9, 0.5, 0.1]","[0.8, 0.4, 0.2]","[u'red', u'blue', u'black']","[u'left', u'middle', u'right']","[0.9, 0.5, 0.1]","[u'low', u'high', u'medium']","blue",50,"middle","high","True","False",322,750,NA
"A3J55BJGV95JKH","Thu Jan 30 2020 17:04:26 GMT-0600 (Central Standard Time)","Thu Jan 30 2020 17:16:35 GMT-0600 (Central Standard Time)","Mozilla/5.0 (Windows NT 6.3; Win64; x64) AppleWebKit/537.36 (KHTML, like Gecko) Chrome/79.0.3945.130 Safari/537.36",22,"[0.9, 0.5, 0.1]","[0.8, 0.4, 0.2]","[u'red', u'blue', u'black']","[u'left', u'middle', u'right']","[0.9, 0.5, 0.1]","[u'low', u'high', u'medium']","blue",50,"middle","high","True","False",418,850,NA
"A3J55BJGV95JKH","Thu Jan 30 2020 17:04:26 GMT-0600 (Central Standard Time)","Thu Jan 30 2020 17:16:35 GMT-0600 (Central Standard Time)","Mozilla/5.0 (Windows NT 6.3; Win64; x64) AppleWebKit/537.36 (KHTML, like Gecko) Chrome/79.0.3945.130 Safari/537.36",23,"[0.9, 0.5, 0.1]","[0.8, 0.4, 0.2]","[u'red', u'blue', u'black']","[u'left', u'middle', u'right']","[0.9, 0.5, 0.1]","[u'low', u'high', u'medium']","blue",50,"middle","high","True","False",531,950,NA
"A3J55BJGV95JKH","Thu Jan 30 2020 17:04:26 GMT-0600 (Central Standard Time)","Thu Jan 30 2020 17:16:35 GMT-0600 (Central Standard Time)","Mozilla/5.0 (Windows NT 6.3; Win64; x64) AppleWebKit/537.36 (KHTML, like Gecko) Chrome/79.0.3945.130 Safari/537.36",24,"[0.9, 0.5, 0.1]","[0.8, 0.4, 0.2]","[u'red', u'blue', u'black']","[u'left', u'middle', u'right']","[0.9, 0.5, 0.1]","[u'low', u'high', u'medium']","blue",50,"middle","high","True","False",459,1050,NA
"A3J55BJGV95JKH","Thu Jan 30 2020 17:04:26 GMT-0600 (Central Standard Time)","Thu Jan 30 2020 17:16:35 GMT-0600 (Central Standard Time)","Mozilla/5.0 (Windows NT 6.3; Win64; x64) AppleWebKit/537.36 (KHTML, like Gecko) Chrome/79.0.3945.130 Safari/537.36",25,"[0.9, 0.5, 0.1]","[0.8, 0.4, 0.2]","[u'red', u'blue', u'black']","[u'left', u'middle', u'right']","[0.9, 0.5, 0.1]","[u'low', u'high', u'medium']","blue",50,"middle","high","True","False",378,1150,NA
"A3J55BJGV95JKH","Thu Jan 30 2020 17:04:26 GMT-0600 (Central Standard Time)","Thu Jan 30 2020 17:16:35 GMT-0600 (Central Standard Time)","Mozilla/5.0 (Windows NT 6.3; Win64; x64) AppleWebKit/537.36 (KHTML, like Gecko) Chrome/79.0.3945.130 Safari/537.36",26,"[0.9, 0.5, 0.1]","[0.8, 0.4, 0.2]","[u'red', u'blue', u'black']","[u'left', u'middle', u'right']","[0.9, 0.5, 0.1]","[u'low', u'high', u'medium']","blue",50,"middle","high","False","False",723,1100,NA
"A3J55BJGV95JKH","Thu Jan 30 2020 17:04:26 GMT-0600 (Central Standard Time)","Thu Jan 30 2020 17:16:35 GMT-0600 (Central Standard Time)","Mozilla/5.0 (Windows NT 6.3; Win64; x64) AppleWebKit/537.36 (KHTML, like Gecko) Chrome/79.0.3945.130 Safari/537.36",27,"[0.9, 0.5, 0.1]","[0.8, 0.4, 0.2]","[u'red', u'blue', u'black']","[u'left', u'middle', u'right']","[0.9, 0.5, 0.1]","[u'low', u'high', u'medium']","blue",50,"middle","high","True","True",451,1200,NA
"A3J55BJGV95JKH","Thu Jan 30 2020 17:04:26 GMT-0600 (Central Standard Time)","Thu Jan 30 2020 17:16:35 GMT-0600 (Central Standard Time)","Mozilla/5.0 (Windows NT 6.3; Win64; x64) AppleWebKit/537.36 (KHTML, like Gecko) Chrome/79.0.3945.130 Safari/537.36",28,"[0.9, 0.5, 0.1]","[0.8, 0.4, 0.2]","[u'red', u'blue', u'black']","[u'left', u'middle', u'right']","[0.9, 0.5, 0.1]","[u'high', u'low', u'medium']","blue",50,"middle","low","False","False",444,1150,NA
"A3J55BJGV95JKH","Thu Jan 30 2020 17:04:26 GMT-0600 (Central Standard Time)","Thu Jan 30 2020 17:16:35 GMT-0600 (Central Standard Time)","Mozilla/5.0 (Windows NT 6.3; Win64; x64) AppleWebKit/537.36 (KHTML, like Gecko) Chrome/79.0.3945.130 Safari/537.36",29,"[0.9, 0.5, 0.1]","[0.8, 0.4, 0.2]","[u'red', u'blue', u'black']","[u'left', u'middle', u'right']","[0.9, 0.5, 0.1]","[u'high', u'low', u'medium']","red",49,"left","high","True","False",419,1250,NA
"A3J55BJGV95JKH","Thu Jan 30 2020 17:04:26 GMT-0600 (Central Standard Time)","Thu Jan 30 2020 17:16:35 GMT-0600 (Central Standard Time)","Mozilla/5.0 (Windows NT 6.3; Win64; x64) AppleWebKit/537.36 (KHTML, like Gecko) Chrome/79.0.3945.130 Safari/537.36",30,"[0.9, 0.5, 0.1]","[0.8, 0.4, 0.2]","[u'red', u'blue', u'black']","[u'left', u'middle', u'right']","[0.9, 0.5, 0.1]","[u'high', u'low', u'medium']","red",49,"left","high","True","False",331,1350,NA
"A3J55BJGV95JKH","Thu Jan 30 2020 17:04:26 GMT-0600 (Central Standard Time)","Thu Jan 30 2020 17:16:35 GMT-0600 (Central Standard Time)","Mozilla/5.0 (Windows NT 6.3; Win64; x64) AppleWebKit/537.36 (KHTML, like Gecko) Chrome/79.0.3945.130 Safari/537.36",31,"[0.9, 0.5, 0.1]","[0.8, 0.4, 0.2]","[u'red', u'blue', u'black']","[u'left', u'middle', u'right']","[0.9, 0.5, 0.1]","[u'high', u'low', u'medium']","red",49,"left","high","True","False",393,1450,NA
"A3J55BJGV95JKH","Thu Jan 30 2020 17:04:26 GMT-0600 (Central Standard Time)","Thu Jan 30 2020 17:16:35 GMT-0600 (Central Standard Time)","Mozilla/5.0 (Windows NT 6.3; Win64; x64) AppleWebKit/537.36 (KHTML, like Gecko) Chrome/79.0.3945.130 Safari/537.36",32,"[0.9, 0.5, 0.1]","[0.8, 0.4, 0.2]","[u'red', u'blue', u'black']","[u'left', u'middle', u'right']","[0.9, 0.5, 0.1]","[u'high', u'low', u'medium']","red",49,"left","high","True","False",339,1550,NA
"A3J55BJGV95JKH","Thu Jan 30 2020 17:04:26 GMT-0600 (Central Standard Time)","Thu Jan 30 2020 17:16:35 GMT-0600 (Central Standard Time)","Mozilla/5.0 (Windows NT 6.3; Win64; x64) AppleWebKit/537.36 (KHTML, like Gecko) Chrome/79.0.3945.130 Safari/537.36",33,"[0.9, 0.5, 0.1]","[0.8, 0.4, 0.2]","[u'red', u'blue', u'black']","[u'left', u'middle', u'right']","[0.9, 0.5, 0.1]","[u'high', u'low', u'medium']","red",49,"left","high","True","False",539,1650,NA
"A3J55BJGV95JKH","Thu Jan 30 2020 17:04:26 GMT-0600 (Central Standard Time)","Thu Jan 30 2020 17:16:35 GMT-0600 (Central Standard Time)","Mozilla/5.0 (Windows NT 6.3; Win64; x64) AppleWebKit/537.36 (KHTML, like Gecko) Chrome/79.0.3945.130 Safari/537.36",34,"[0.9, 0.5, 0.1]","[0.8, 0.4, 0.2]","[u'red', u'blue', u'black']","[u'left', u'middle', u'right']","[0.9, 0.5, 0.1]","[u'high', u'low', u'medium']","red",49,"left","high","True","False",419,1750,NA
"A3J55BJGV95JKH","Thu Jan 30 2020 17:04:26 GMT-0600 (Central Standard Time)","Thu Jan 30 2020 17:16:35 GMT-0600 (Central Standard Time)","Mozilla/5.0 (Windows NT 6.3; Win64; x64) AppleWebKit/537.36 (KHTML, like Gecko) Chrome/79.0.3945.130 Safari/537.36",35,"[0.9, 0.5, 0.1]","[0.8, 0.4, 0.2]","[u'red', u'blue', u'black']","[u'left', u'middle', u'right']","[0.9, 0.5, 0.1]","[u'high', u'low', u'medium']","red",49,"left","high","True","False",363,1850,NA
"A3J55BJGV95JKH","Thu Jan 30 2020 17:04:26 GMT-0600 (Central Standard Time)","Thu Jan 30 2020 17:16:35 GMT-0600 (Central Standard Time)","Mozilla/5.0 (Windows NT 6.3; Win64; x64) AppleWebKit/537.36 (KHTML, like Gecko) Chrome/79.0.3945.130 Safari/537.36",36,"[0.9, 0.5, 0.1]","[0.8, 0.4, 0.2]","[u'red', u'blue', u'black']","[u'left', u'middle', u'right']","[0.9, 0.5, 0.1]","[u'high', u'low', u'medium']","red",49,"left","high","False","False",379,1800,NA
"A3J55BJGV95JKH","Thu Jan 30 2020 17:04:26 GMT-0600 (Central Standard Time)","Thu Jan 30 2020 17:16:35 GMT-0600 (Central Standard Time)","Mozilla/5.0 (Windows NT 6.3; Win64; x64) AppleWebKit/537.36 (KHTML, like Gecko) Chrome/79.0.3945.130 Safari/537.36",37,"[0.9, 0.5, 0.1]","[0.8, 0.4, 0.2]","[u'red', u'blue', u'black']","[u'left', u'middle', u'right']","[0.9, 0.5, 0.1]","[u'high', u'low', u'medium']","black",51,"right","medium","False","False",395,1750,NA
"A3J55BJGV95JKH","Thu Jan 30 2020 17:04:26 GMT-0600 (Central Standard Time)","Thu Jan 30 2020 17:16:35 GMT-0600 (Central Standard Time)","Mozilla/5.0 (Windows NT 6.3; Win64; x64) AppleWebKit/537.36 (KHTML, like Gecko) Chrome/79.0.3945.130 Safari/537.36",38,"[0.9, 0.5, 0.1]","[0.8, 0.4, 0.2]","[u'red', u'blue', u'black']","[u'left', u'middle', u'right']","[0.9, 0.5, 0.1]","[u'high', u'low', u'medium']","blue",50,"middle","low","False","False",363,1700,NA
"A3J55BJGV95JKH","Thu Jan 30 2020 17:04:26 GMT-0600 (Central Standard Time)","Thu Jan 30 2020 17:16:35 GMT-0600 (Central Standard Time)","Mozilla/5.0 (Windows NT 6.3; Win64; x64) AppleWebKit/537.36 (KHTML, like Gecko) Chrome/79.0.3945.130 Safari/537.36",39,"[0.9, 0.5, 0.1]","[0.8, 0.4, 0.2]","[u'red', u'blue', u'black']","[u'left', u'middle', u'right']","[0.9, 0.5, 0.1]","[u'high', u'low', u'medium']","red",49,"left","high","True","False",387,1800,NA
"A3J55BJGV95JKH","Thu Jan 30 2020 17:04:26 GMT-0600 (Central Standard Time)","Thu Jan 30 2020 17:16:35 GMT-0600 (Central Standard Time)","Mozilla/5.0 (Windows NT 6.3; Win64; x64) AppleWebKit/537.36 (KHTML, like Gecko) Chrome/79.0.3945.130 Safari/537.36",40,"[0.9, 0.5, 0.1]","[0.8, 0.4, 0.2]","[u'red', u'blue', u'black']","[u'left', u'middle', u'right']","[0.9, 0.5, 0.1]","[u'high', u'low', u'medium']","red",49,"left","high","True","False",539,1900,NA
"A3J55BJGV95JKH","Thu Jan 30 2020 17:04:26 GMT-0600 (Central Standard Time)","Thu Jan 30 2020 17:16:35 GMT-0600 (Central Standard Time)","Mozilla/5.0 (Windows NT 6.3; Win64; x64) AppleWebKit/537.36 (KHTML, like Gecko) Chrome/79.0.3945.130 Safari/537.36",41,"[0.9, 0.5, 0.1]","[0.8, 0.4, 0.2]","[u'red', u'blue', u'black']","[u'left', u'middle', u'right']","[0.9, 0.5, 0.1]","[u'medium', u'low', u'high']","red",49,"left","medium","True","False",489,2000,NA
"A3J55BJGV95JKH","Thu Jan 30 2020 17:04:26 GMT-0600 (Central Standard Time)","Thu Jan 30 2020 17:16:35 GMT-0600 (Central Standard Time)","Mozilla/5.0 (Windows NT 6.3; Win64; x64) AppleWebKit/537.36 (KHTML, like Gecko) Chrome/79.0.3945.130 Safari/537.36",42,"[0.9, 0.5, 0.1]","[0.8, 0.4, 0.2]","[u'red', u'blue', u'black']","[u'left', u'middle', u'right']","[0.9, 0.5, 0.1]","[u'medium', u'low', u'high']","red",49,"left","medium","False","False",547,1950,NA
"A3J55BJGV95JKH","Thu Jan 30 2020 17:04:26 GMT-0600 (Central Standard Time)","Thu Jan 30 2020 17:16:35 GMT-0600 (Central Standard Time)","Mozilla/5.0 (Windows NT 6.3; Win64; x64) AppleWebKit/537.36 (KHTML, like Gecko) Chrome/79.0.3945.130 Safari/537.36",43,"[0.9, 0.5, 0.1]","[0.8, 0.4, 0.2]","[u'red', u'blue', u'black']","[u'left', u'middle', u'right']","[0.9, 0.5, 0.1]","[u'medium', u'low', u'high']","black",51,"right","high","True","False",308,2050,NA
"A3J55BJGV95JKH","Thu Jan 30 2020 17:04:26 GMT-0600 (Central Standard Time)","Thu Jan 30 2020 17:16:35 GMT-0600 (Central Standard Time)","Mozilla/5.0 (Windows NT 6.3; Win64; x64) AppleWebKit/537.36 (KHTML, like Gecko) Chrome/79.0.3945.130 Safari/537.36",44,"[0.9, 0.5, 0.1]","[0.8, 0.4, 0.2]","[u'red', u'blue', u'black']","[u'left', u'middle', u'right']","[0.9, 0.5, 0.1]","[u'medium', u'low', u'high']","black",51,"right","high","True","False",524,2150,NA
"A3J55BJGV95JKH","Thu Jan 30 2020 17:04:26 GMT-0600 (Central Standard Time)","Thu Jan 30 2020 17:16:35 GMT-0600 (Central Standard Time)","Mozilla/5.0 (Windows NT 6.3; Win64; x64) AppleWebKit/537.36 (KHTML, like Gecko) Chrome/79.0.3945.130 Safari/537.36",45,"[0.9, 0.5, 0.1]","[0.8, 0.4, 0.2]","[u'red', u'blue', u'black']","[u'left', u'middle', u'right']","[0.9, 0.5, 0.1]","[u'medium', u'low', u'high']","black",51,"right","high","True","False",354,2250,NA
"A3J55BJGV95JKH","Thu Jan 30 2020 17:04:26 GMT-0600 (Central Standard Time)","Thu Jan 30 2020 17:16:35 GMT-0600 (Central Standard Time)","Mozilla/5.0 (Windows NT 6.3; Win64; x64) AppleWebKit/537.36 (KHTML, like Gecko) Chrome/79.0.3945.130 Safari/537.36",46,"[0.9, 0.5, 0.1]","[0.8, 0.4, 0.2]","[u'red', u'blue', u'black']","[u'left', u'middle', u'right']","[0.9, 0.5, 0.1]","[u'medium', u'low', u'high']","black",51,"right","high","True","False",419,2350,NA
"A3J55BJGV95JKH","Thu Jan 30 2020 17:04:26 GMT-0600 (Central Standard Time)","Thu Jan 30 2020 17:16:35 GMT-0600 (Central Standard Time)","Mozilla/5.0 (Windows NT 6.3; Win64; x64) AppleWebKit/537.36 (KHTML, like Gecko) Chrome/79.0.3945.130 Safari/537.36",47,"[0.9, 0.5, 0.1]","[0.8, 0.4, 0.2]","[u'red', u'blue', u'black']","[u'left', u'middle', u'right']","[0.9, 0.5, 0.1]","[u'medium', u'low', u'high']","black",51,"right","high","True","False",474,2450,NA
"A3J55BJGV95JKH","Thu Jan 30 2020 17:04:26 GMT-0600 (Central Standard Time)","Thu Jan 30 2020 17:16:35 GMT-0600 (Central Standard Time)","Mozilla/5.0 (Windows NT 6.3; Win64; x64) AppleWebKit/537.36 (KHTML, like Gecko) Chrome/79.0.3945.130 Safari/537.36",48,"[0.9, 0.5, 0.1]","[0.8, 0.4, 0.2]","[u'red', u'blue', u'black']","[u'left', u'middle', u'right']","[0.9, 0.5, 0.1]","[u'medium', u'low', u'high']","black",51,"right","high","True","False",299,2550,NA
"A3J55BJGV95JKH","Thu Jan 30 2020 17:04:26 GMT-0600 (Central Standard Time)","Thu Jan 30 2020 17:16:35 GMT-0600 (Central Standard Time)","Mozilla/5.0 (Windows NT 6.3; Win64; x64) AppleWebKit/537.36 (KHTML, like Gecko) Chrome/79.0.3945.130 Safari/537.36",49,"[0.9, 0.5, 0.1]","[0.8, 0.4, 0.2]","[u'red', u'blue', u'black']","[u'left', u'middle', u'right']","[0.9, 0.5, 0.1]","[u'medium', u'low', u'high']","black",51,"right","high","True","False",402,2650,NA
"A3J55BJGV95JKH","Thu Jan 30 2020 17:04:26 GMT-0600 (Central Standard Time)","Thu Jan 30 2020 17:16:35 GMT-0600 (Central Standard Time)","Mozilla/5.0 (Windows NT 6.3; Win64; x64) AppleWebKit/537.36 (KHTML, like Gecko) Chrome/79.0.3945.130 Safari/537.36",50,"[0.9, 0.5, 0.1]","[0.8, 0.4, 0.2]","[u'red', u'blue', u'black']","[u'left', u'middle', u'right']","[0.9, 0.5, 0.1]","[u'medium', u'low', u'high']","black",51,"right","high","True","False",475,2750,NA
"A3J55BJGV95JKH","Thu Jan 30 2020 17:04:26 GMT-0600 (Central Standard Time)","Thu Jan 30 2020 17:16:35 GMT-0600 (Central Standard Time)","Mozilla/5.0 (Windows NT 6.3; Win64; x64) AppleWebKit/537.36 (KHTML, like Gecko) Chrome/79.0.3945.130 Safari/537.36",51,"[0.9, 0.5, 0.1]","[0.8, 0.4, 0.2]","[u'red', u'blue', u'black']","[u'left', u'middle', u'right']","[0.9, 0.5, 0.1]","[u'medium', u'low', u'high']","black",51,"right","high","True","True",404,2850,NA
"A3J55BJGV95JKH","Thu Jan 30 2020 17:04:26 GMT-0600 (Central Standard Time)","Thu Jan 30 2020 17:16:35 GMT-0600 (Central Standard Time)","Mozilla/5.0 (Windows NT 6.3; Win64; x64) AppleWebKit/537.36 (KHTML, like Gecko) Chrome/79.0.3945.130 Safari/537.36",52,"[0.9, 0.5, 0.1]","[0.8, 0.4, 0.2]","[u'red', u'blue', u'black']","[u'left', u'middle', u'right']","[0.9, 0.5, 0.1]","[u'medium', u'high', u'low']","black",51,"right","low","False","False",379,2800,NA
"A3J55BJGV95JKH","Thu Jan 30 2020 17:04:26 GMT-0600 (Central Standard Time)","Thu Jan 30 2020 17:16:35 GMT-0600 (Central Standard Time)","Mozilla/5.0 (Windows NT 6.3; Win64; x64) AppleWebKit/537.36 (KHTML, like Gecko) Chrome/79.0.3945.130 Safari/537.36",53,"[0.9, 0.5, 0.1]","[0.8, 0.4, 0.2]","[u'red', u'blue', u'black']","[u'left', u'middle', u'right']","[0.9, 0.5, 0.1]","[u'medium', u'high', u'low']","blue",50,"middle","high","True","False",642,2900,NA
"A3J55BJGV95JKH","Thu Jan 30 2020 17:04:26 GMT-0600 (Central Standard Time)","Thu Jan 30 2020 17:16:35 GMT-0600 (Central Standard Time)","Mozilla/5.0 (Windows NT 6.3; Win64; x64) AppleWebKit/537.36 (KHTML, like Gecko) Chrome/79.0.3945.130 Safari/537.36",54,"[0.9, 0.5, 0.1]","[0.8, 0.4, 0.2]","[u'red', u'blue', u'black']","[u'left', u'middle', u'right']","[0.9, 0.5, 0.1]","[u'medium', u'high', u'low']","blue",50,"middle","high","True","False",739,3000,NA
"A3J55BJGV95JKH","Thu Jan 30 2020 17:04:26 GMT-0600 (Central Standard Time)","Thu Jan 30 2020 17:16:35 GMT-0600 (Central Standard Time)","Mozilla/5.0 (Windows NT 6.3; Win64; x64) AppleWebKit/537.36 (KHTML, like Gecko) Chrome/79.0.3945.130 Safari/537.36",55,"[0.9, 0.5, 0.1]","[0.8, 0.4, 0.2]","[u'red', u'blue', u'black']","[u'left', u'middle', u'right']","[0.9, 0.5, 0.1]","[u'medium', u'high', u'low']","blue",50,"middle","high","True","False",676,3100,NA
"A3J55BJGV95JKH","Thu Jan 30 2020 17:04:26 GMT-0600 (Central Standard Time)","Thu Jan 30 2020 17:16:35 GMT-0600 (Central Standard Time)","Mozilla/5.0 (Windows NT 6.3; Win64; x64) AppleWebKit/537.36 (KHTML, like Gecko) Chrome/79.0.3945.130 Safari/537.36",56,"[0.9, 0.5, 0.1]","[0.8, 0.4, 0.2]","[u'red', u'blue', u'black']","[u'left', u'middle', u'right']","[0.9, 0.5, 0.1]","[u'medium', u'high', u'low']","blue",50,"middle","high","True","False",474,3200,NA
"A3J55BJGV95JKH","Thu Jan 30 2020 17:04:26 GMT-0600 (Central Standard Time)","Thu Jan 30 2020 17:16:35 GMT-0600 (Central Standard Time)","Mozilla/5.0 (Windows NT 6.3; Win64; x64) AppleWebKit/537.36 (KHTML, like Gecko) Chrome/79.0.3945.130 Safari/537.36",57,"[0.9, 0.5, 0.1]","[0.8, 0.4, 0.2]","[u'red', u'blue', u'black']","[u'left', u'middle', u'right']","[0.9, 0.5, 0.1]","[u'medium', u'high', u'low']","blue",50,"middle","high","True","False",299,3300,NA
"A3J55BJGV95JKH","Thu Jan 30 2020 17:04:26 GMT-0600 (Central Standard Time)","Thu Jan 30 2020 17:16:35 GMT-0600 (Central Standard Time)","Mozilla/5.0 (Windows NT 6.3; Win64; x64) AppleWebKit/537.36 (KHTML, like Gecko) Chrome/79.0.3945.130 Safari/537.36",58,"[0.9, 0.5, 0.1]","[0.8, 0.4, 0.2]","[u'red', u'blue', u'black']","[u'left', u'middle', u'right']","[0.9, 0.5, 0.1]","[u'medium', u'high', u'low']","blue",50,"middle","high","True","False",474,3400,NA
"A3J55BJGV95JKH","Thu Jan 30 2020 17:04:26 GMT-0600 (Central Standard Time)","Thu Jan 30 2020 17:16:35 GMT-0600 (Central Standard Time)","Mozilla/5.0 (Windows NT 6.3; Win64; x64) AppleWebKit/537.36 (KHTML, like Gecko) Chrome/79.0.3945.130 Safari/537.36",59,"[0.9, 0.5, 0.1]","[0.8, 0.4, 0.2]","[u'red', u'blue', u'black']","[u'left', u'middle', u'right']","[0.9, 0.5, 0.1]","[u'medium', u'high', u'low']","blue",50,"middle","high","True","False",363,3500,NA
"A3J55BJGV95JKH","Thu Jan 30 2020 17:04:26 GMT-0600 (Central Standard Time)","Thu Jan 30 2020 17:16:35 GMT-0600 (Central Standard Time)","Mozilla/5.0 (Windows NT 6.3; Win64; x64) AppleWebKit/537.36 (KHTML, like Gecko) Chrome/79.0.3945.130 Safari/537.36",60,"[0.9, 0.5, 0.1]","[0.8, 0.4, 0.2]","[u'red', u'blue', u'black']","[u'left', u'middle', u'right']","[0.9, 0.5, 0.1]","[u'medium', u'high', u'low']","blue",50,"middle","high","True","False",459,3600,NA
"A3J55BJGV95JKH","Thu Jan 30 2020 17:04:26 GMT-0600 (Central Standard Time)","Thu Jan 30 2020 17:16:35 GMT-0600 (Central Standard Time)","Mozilla/5.0 (Windows NT 6.3; Win64; x64) AppleWebKit/537.36 (KHTML, like Gecko) Chrome/79.0.3945.130 Safari/537.36",61,"[0.9, 0.5, 0.1]","[0.8, 0.4, 0.2]","[u'red', u'blue', u'black']","[u'left', u'middle', u'right']","[0.9, 0.5, 0.1]","[u'medium', u'high', u'low']","blue",50,"middle","high","True","True",347,3700,NA
"A3J55BJGV95JKH","Thu Jan 30 2020 17:04:26 GMT-0600 (Central Standard Time)","Thu Jan 30 2020 17:16:35 GMT-0600 (Central Standard Time)","Mozilla/5.0 (Windows NT 6.3; Win64; x64) AppleWebKit/537.36 (KHTML, like Gecko) Chrome/79.0.3945.130 Safari/537.36",62,"[0.9, 0.5, 0.1]","[0.8, 0.4, 0.2]","[u'red', u'blue', u'black']","[u'left', u'middle', u'right']","[0.9, 0.5, 0.1]","[u'high', u'medium', u'low']","blue",50,"middle","medium","True","False",403,3800,NA
"A3J55BJGV95JKH","Thu Jan 30 2020 17:04:26 GMT-0600 (Central Standard Time)","Thu Jan 30 2020 17:16:35 GMT-0600 (Central Standard Time)","Mozilla/5.0 (Windows NT 6.3; Win64; x64) AppleWebKit/537.36 (KHTML, like Gecko) Chrome/79.0.3945.130 Safari/537.36",63,"[0.9, 0.5, 0.1]","[0.8, 0.4, 0.2]","[u'red', u'blue', u'black']","[u'left', u'middle', u'right']","[0.9, 0.5, 0.1]","[u'high', u'medium', u'low']","blue",50,"middle","medium","False","False",340,3750,NA
"A3J55BJGV95JKH","Thu Jan 30 2020 17:04:26 GMT-0600 (Central Standard Time)","Thu Jan 30 2020 17:16:35 GMT-0600 (Central Standard Time)","Mozilla/5.0 (Windows NT 6.3; Win64; x64) AppleWebKit/537.36 (KHTML, like Gecko) Chrome/79.0.3945.130 Safari/537.36",64,"[0.9, 0.5, 0.1]","[0.8, 0.4, 0.2]","[u'red', u'blue', u'black']","[u'left', u'middle', u'right']","[0.9, 0.5, 0.1]","[u'high', u'medium', u'low']","red",49,"left","high","True","False",578,3850,NA
"A3J55BJGV95JKH","Thu Jan 30 2020 17:04:26 GMT-0600 (Central Standard Time)","Thu Jan 30 2020 17:16:35 GMT-0600 (Central Standard Time)","Mozilla/5.0 (Windows NT 6.3; Win64; x64) AppleWebKit/537.36 (KHTML, like Gecko) Chrome/79.0.3945.130 Safari/537.36",65,"[0.9, 0.5, 0.1]","[0.8, 0.4, 0.2]","[u'red', u'blue', u'black']","[u'left', u'middle', u'right']","[0.9, 0.5, 0.1]","[u'high', u'medium', u'low']","red",49,"left","high","False","False",1395,3800,NA
"A3J55BJGV95JKH","Thu Jan 30 2020 17:04:26 GMT-0600 (Central Standard Time)","Thu Jan 30 2020 17:16:35 GMT-0600 (Central Standard Time)","Mozilla/5.0 (Windows NT 6.3; Win64; x64) AppleWebKit/537.36 (KHTML, like Gecko) Chrome/79.0.3945.130 Safari/537.36",66,"[0.9, 0.5, 0.1]","[0.8, 0.4, 0.2]","[u'red', u'blue', u'black']","[u'left', u'middle', u'right']","[0.9, 0.5, 0.1]","[u'high', u'medium', u'low']","black",51,"right","low","False","False",315,3750,NA
"A3J55BJGV95JKH","Thu Jan 30 2020 17:04:26 GMT-0600 (Central Standard Time)","Thu Jan 30 2020 17:16:35 GMT-0600 (Central Standard Time)","Mozilla/5.0 (Windows NT 6.3; Win64; x64) AppleWebKit/537.36 (KHTML, like Gecko) Chrome/79.0.3945.130 Safari/537.36",67,"[0.9, 0.5, 0.1]","[0.8, 0.4, 0.2]","[u'red', u'blue', u'black']","[u'left', u'middle', u'right']","[0.9, 0.5, 0.1]","[u'high', u'medium', u'low']","blue",50,"middle","medium","False","False",371,3700,NA
"A3J55BJGV95JKH","Thu Jan 30 2020 17:04:26 GMT-0600 (Central Standard Time)","Thu Jan 30 2020 17:16:35 GMT-0600 (Central Standard Time)","Mozilla/5.0 (Windows NT 6.3; Win64; x64) AppleWebKit/537.36 (KHTML, like Gecko) Chrome/79.0.3945.130 Safari/537.36",68,"[0.9, 0.5, 0.1]","[0.8, 0.4, 0.2]","[u'red', u'blue', u'black']","[u'left', u'middle', u'right']","[0.9, 0.5, 0.1]","[u'high', u'medium', u'low']","red",49,"left","high","True","False",444,3800,NA
"A3J55BJGV95JKH","Thu Jan 30 2020 17:04:26 GMT-0600 (Central Standard Time)","Thu Jan 30 2020 17:16:35 GMT-0600 (Central Standard Time)","Mozilla/5.0 (Windows NT 6.3; Win64; x64) AppleWebKit/537.36 (KHTML, like Gecko) Chrome/79.0.3945.130 Safari/537.36",69,"[0.9, 0.5, 0.1]","[0.8, 0.4, 0.2]","[u'red', u'blue', u'black']","[u'left', u'middle', u'right']","[0.9, 0.5, 0.1]","[u'high', u'medium', u'low']","red",49,"left","high","True","False",355,3900,NA
"A3J55BJGV95JKH","Thu Jan 30 2020 17:04:26 GMT-0600 (Central Standard Time)","Thu Jan 30 2020 17:16:35 GMT-0600 (Central Standard Time)","Mozilla/5.0 (Windows NT 6.3; Win64; x64) AppleWebKit/537.36 (KHTML, like Gecko) Chrome/79.0.3945.130 Safari/537.36",70,"[0.9, 0.5, 0.1]","[0.8, 0.4, 0.2]","[u'red', u'blue', u'black']","[u'left', u'middle', u'right']","[0.9, 0.5, 0.1]","[u'high', u'medium', u'low']","red",49,"left","high","True","False",547,4000,NA
"A3J55BJGV95JKH","Thu Jan 30 2020 17:04:26 GMT-0600 (Central Standard Time)","Thu Jan 30 2020 17:16:35 GMT-0600 (Central Standard Time)","Mozilla/5.0 (Windows NT 6.3; Win64; x64) AppleWebKit/537.36 (KHTML, like Gecko) Chrome/79.0.3945.130 Safari/537.36",71,"[0.9, 0.5, 0.1]","[0.8, 0.4, 0.2]","[u'red', u'blue', u'black']","[u'left', u'middle', u'right']","[0.9, 0.5, 0.1]","[u'high', u'medium', u'low']","red",49,"left","high","True","False",2062,4100,NA
"A3J55BJGV95JKH","Thu Jan 30 2020 17:04:26 GMT-0600 (Central Standard Time)","Thu Jan 30 2020 17:16:35 GMT-0600 (Central Standard Time)","Mozilla/5.0 (Windows NT 6.3; Win64; x64) AppleWebKit/537.36 (KHTML, like Gecko) Chrome/79.0.3945.130 Safari/537.36",72,"[0.9, 0.5, 0.1]","[0.8, 0.4, 0.2]","[u'red', u'blue', u'black']","[u'left', u'middle', u'right']","[0.9, 0.5, 0.1]","[u'high', u'medium', u'low']","red",49,"left","high","True","False",467,4200,NA
"A3J55BJGV95JKH","Thu Jan 30 2020 17:04:26 GMT-0600 (Central Standard Time)","Thu Jan 30 2020 17:16:35 GMT-0600 (Central Standard Time)","Mozilla/5.0 (Windows NT 6.3; Win64; x64) AppleWebKit/537.36 (KHTML, like Gecko) Chrome/79.0.3945.130 Safari/537.36",73,"[0.9, 0.5, 0.1]","[0.8, 0.4, 0.2]","[u'red', u'blue', u'black']","[u'left', u'middle', u'right']","[0.9, 0.5, 0.1]","[u'high', u'medium', u'low']","red",49,"left","high","True","False",427,4300,NA
"A3J55BJGV95JKH","Thu Jan 30 2020 17:04:26 GMT-0600 (Central Standard Time)","Thu Jan 30 2020 17:16:35 GMT-0600 (Central Standard Time)","Mozilla/5.0 (Windows NT 6.3; Win64; x64) AppleWebKit/537.36 (KHTML, like Gecko) Chrome/79.0.3945.130 Safari/537.36",74,"[0.9, 0.5, 0.1]","[0.8, 0.4, 0.2]","[u'red', u'blue', u'black']","[u'left', u'middle', u'right']","[0.9, 0.5, 0.1]","[u'high', u'medium', u'low']","red",49,"left","high","True","False",483,4400,NA
"A3J55BJGV95JKH","Thu Jan 30 2020 17:04:26 GMT-0600 (Central Standard Time)","Thu Jan 30 2020 17:16:35 GMT-0600 (Central Standard Time)","Mozilla/5.0 (Windows NT 6.3; Win64; x64) AppleWebKit/537.36 (KHTML, like Gecko) Chrome/79.0.3945.130 Safari/537.36",75,"[0.9, 0.5, 0.1]","[0.8, 0.4, 0.2]","[u'red', u'blue', u'black']","[u'left', u'middle', u'right']","[0.9, 0.5, 0.1]","[u'high', u'medium', u'low']","red",49,"left","high","True","False",372,4500,NA
"A3J55BJGV95JKH","Thu Jan 30 2020 17:04:26 GMT-0600 (Central Standard Time)","Thu Jan 30 2020 17:16:35 GMT-0600 (Central Standard Time)","Mozilla/5.0 (Windows NT 6.3; Win64; x64) AppleWebKit/537.36 (KHTML, like Gecko) Chrome/79.0.3945.130 Safari/537.36",76,"[0.9, 0.5, 0.1]","[0.8, 0.4, 0.2]","[u'red', u'blue', u'black']","[u'left', u'middle', u'right']","[0.9, 0.5, 0.1]","[u'high', u'medium', u'low']","red",49,"left","high","True","True",347,4600,NA
"A3J55BJGV95JKH","Thu Jan 30 2020 17:04:26 GMT-0600 (Central Standard Time)","Thu Jan 30 2020 17:16:35 GMT-0600 (Central Standard Time)","Mozilla/5.0 (Windows NT 6.3; Win64; x64) AppleWebKit/537.36 (KHTML, like Gecko) Chrome/79.0.3945.130 Safari/537.36",77,"[0.9, 0.5, 0.1]","[0.8, 0.4, 0.2]","[u'red', u'blue', u'black']","[u'left', u'middle', u'right']","[0.9, 0.5, 0.1]","[u'medium', u'high', u'low']","red",49,"left","medium","True","False",419,4700,NA
"A3J55BJGV95JKH","Thu Jan 30 2020 17:04:26 GMT-0600 (Central Standard Time)","Thu Jan 30 2020 17:16:35 GMT-0600 (Central Standard Time)","Mozilla/5.0 (Windows NT 6.3; Win64; x64) AppleWebKit/537.36 (KHTML, like Gecko) Chrome/79.0.3945.130 Safari/537.36",78,"[0.9, 0.5, 0.1]","[0.8, 0.4, 0.2]","[u'red', u'blue', u'black']","[u'left', u'middle', u'right']","[0.9, 0.5, 0.1]","[u'medium', u'high', u'low']","red",49,"left","medium","True","False",315,4800,NA
"A3J55BJGV95JKH","Thu Jan 30 2020 17:04:26 GMT-0600 (Central Standard Time)","Thu Jan 30 2020 17:16:35 GMT-0600 (Central Standard Time)","Mozilla/5.0 (Windows NT 6.3; Win64; x64) AppleWebKit/537.36 (KHTML, like Gecko) Chrome/79.0.3945.130 Safari/537.36",79,"[0.9, 0.5, 0.1]","[0.8, 0.4, 0.2]","[u'red', u'blue', u'black']","[u'left', u'middle', u'right']","[0.9, 0.5, 0.1]","[u'medium', u'high', u'low']","red",49,"left","medium","True","False",68,4900,NA
"A3J55BJGV95JKH","Thu Jan 30 2020 17:04:26 GMT-0600 (Central Standard Time)","Thu Jan 30 2020 17:16:35 GMT-0600 (Central Standard Time)","Mozilla/5.0 (Windows NT 6.3; Win64; x64) AppleWebKit/537.36 (KHTML, like Gecko) Chrome/79.0.3945.130 Safari/537.36",80,"[0.9, 0.5, 0.1]","[0.8, 0.4, 0.2]","[u'red', u'blue', u'black']","[u'left', u'middle', u'right']","[0.9, 0.5, 0.1]","[u'medium', u'high', u'low']","red",49,"left","medium","False","False",315,4850,NA
"A3J55BJGV95JKH","Thu Jan 30 2020 17:04:26 GMT-0600 (Central Standard Time)","Thu Jan 30 2020 17:16:35 GMT-0600 (Central Standard Time)","Mozilla/5.0 (Windows NT 6.3; Win64; x64) AppleWebKit/537.36 (KHTML, like Gecko) Chrome/79.0.3945.130 Safari/537.36",81,"[0.9, 0.5, 0.1]","[0.8, 0.4, 0.2]","[u'red', u'blue', u'black']","[u'left', u'middle', u'right']","[0.8, 0.4, 0.2]","[u'high', u'low', u'medium']","black",51,"right","medium","True","False",940,4950,NA
"A3J55BJGV95JKH","Thu Jan 30 2020 17:04:26 GMT-0600 (Central Standard Time)","Thu Jan 30 2020 17:16:35 GMT-0600 (Central Standard Time)","Mozilla/5.0 (Windows NT 6.3; Win64; x64) AppleWebKit/537.36 (KHTML, like Gecko) Chrome/79.0.3945.130 Safari/537.36",82,"[0.9, 0.5, 0.1]","[0.8, 0.4, 0.2]","[u'red', u'blue', u'black']","[u'left', u'middle', u'right']","[0.8, 0.4, 0.2]","[u'high', u'low', u'medium']","black",51,"right","medium","False","False",492,4900,NA
"A3J55BJGV95JKH","Thu Jan 30 2020 17:04:26 GMT-0600 (Central Standard Time)","Thu Jan 30 2020 17:16:35 GMT-0600 (Central Standard Time)","Mozilla/5.0 (Windows NT 6.3; Win64; x64) AppleWebKit/537.36 (KHTML, like Gecko) Chrome/79.0.3945.130 Safari/537.36",83,"[0.9, 0.5, 0.1]","[0.8, 0.4, 0.2]","[u'red', u'blue', u'black']","[u'left', u'middle', u'right']","[0.8, 0.4, 0.2]","[u'high', u'low', u'medium']","blue",50,"middle","low","False","False",244,4850,NA
"A3J55BJGV95JKH","Thu Jan 30 2020 17:04:26 GMT-0600 (Central Standard Time)","Thu Jan 30 2020 17:16:35 GMT-0600 (Central Standard Time)","Mozilla/5.0 (Windows NT 6.3; Win64; x64) AppleWebKit/537.36 (KHTML, like Gecko) Chrome/79.0.3945.130 Safari/537.36",84,"[0.9, 0.5, 0.1]","[0.8, 0.4, 0.2]","[u'red', u'blue', u'black']","[u'left', u'middle', u'right']","[0.8, 0.4, 0.2]","[u'high', u'low', u'medium']","black",51,"right","medium","False","False",313,4800,NA
"A3J55BJGV95JKH","Thu Jan 30 2020 17:04:26 GMT-0600 (Central Standard Time)","Thu Jan 30 2020 17:16:35 GMT-0600 (Central Standard Time)","Mozilla/5.0 (Windows NT 6.3; Win64; x64) AppleWebKit/537.36 (KHTML, like Gecko) Chrome/79.0.3945.130 Safari/537.36",85,"[0.9, 0.5, 0.1]","[0.8, 0.4, 0.2]","[u'red', u'blue', u'black']","[u'left', u'middle', u'right']","[0.8, 0.4, 0.2]","[u'high', u'low', u'medium']","red",49,"left","high","False","False",347,4750,NA
"A3J55BJGV95JKH","Thu Jan 30 2020 17:04:26 GMT-0600 (Central Standard Time)","Thu Jan 30 2020 17:16:35 GMT-0600 (Central Standard Time)","Mozilla/5.0 (Windows NT 6.3; Win64; x64) AppleWebKit/537.36 (KHTML, like Gecko) Chrome/79.0.3945.130 Safari/537.36",86,"[0.9, 0.5, 0.1]","[0.8, 0.4, 0.2]","[u'red', u'blue', u'black']","[u'left', u'middle', u'right']","[0.8, 0.4, 0.2]","[u'high', u'low', u'medium']","blue",50,"middle","low","False","False",411,4700,NA
"A3J55BJGV95JKH","Thu Jan 30 2020 17:04:26 GMT-0600 (Central Standard Time)","Thu Jan 30 2020 17:16:35 GMT-0600 (Central Standard Time)","Mozilla/5.0 (Windows NT 6.3; Win64; x64) AppleWebKit/537.36 (KHTML, like Gecko) Chrome/79.0.3945.130 Safari/537.36",87,"[0.9, 0.5, 0.1]","[0.8, 0.4, 0.2]","[u'red', u'blue', u'black']","[u'left', u'middle', u'right']","[0.8, 0.4, 0.2]","[u'high', u'low', u'medium']","black",51,"right","medium","False","False",355,4650,NA
"A3J55BJGV95JKH","Thu Jan 30 2020 17:04:26 GMT-0600 (Central Standard Time)","Thu Jan 30 2020 17:16:35 GMT-0600 (Central Standard Time)","Mozilla/5.0 (Windows NT 6.3; Win64; x64) AppleWebKit/537.36 (KHTML, like Gecko) Chrome/79.0.3945.130 Safari/537.36",88,"[0.9, 0.5, 0.1]","[0.8, 0.4, 0.2]","[u'red', u'blue', u'black']","[u'left', u'middle', u'right']","[0.8, 0.4, 0.2]","[u'high', u'low', u'medium']","black",51,"right","medium","False","False",451,4600,NA
"A3J55BJGV95JKH","Thu Jan 30 2020 17:04:26 GMT-0600 (Central Standard Time)","Thu Jan 30 2020 17:16:35 GMT-0600 (Central Standard Time)","Mozilla/5.0 (Windows NT 6.3; Win64; x64) AppleWebKit/537.36 (KHTML, like Gecko) Chrome/79.0.3945.130 Safari/537.36",89,"[0.9, 0.5, 0.1]","[0.8, 0.4, 0.2]","[u'red', u'blue', u'black']","[u'left', u'middle', u'right']","[0.8, 0.4, 0.2]","[u'high', u'low', u'medium']","red",49,"left","high","True","False",548,4700,NA
"A3J55BJGV95JKH","Thu Jan 30 2020 17:04:26 GMT-0600 (Central Standard Time)","Thu Jan 30 2020 17:16:35 GMT-0600 (Central Standard Time)","Mozilla/5.0 (Windows NT 6.3; Win64; x64) AppleWebKit/537.36 (KHTML, like Gecko) Chrome/79.0.3945.130 Safari/537.36",90,"[0.9, 0.5, 0.1]","[0.8, 0.4, 0.2]","[u'red', u'blue', u'black']","[u'left', u'middle', u'right']","[0.8, 0.4, 0.2]","[u'high', u'low', u'medium']","red",49,"left","high","True","False",658,4800,NA
"A3J55BJGV95JKH","Thu Jan 30 2020 17:04:26 GMT-0600 (Central Standard Time)","Thu Jan 30 2020 17:16:35 GMT-0600 (Central Standard Time)","Mozilla/5.0 (Windows NT 6.3; Win64; x64) AppleWebKit/537.36 (KHTML, like Gecko) Chrome/79.0.3945.130 Safari/537.36",91,"[0.9, 0.5, 0.1]","[0.8, 0.4, 0.2]","[u'red', u'blue', u'black']","[u'left', u'middle', u'right']","[0.8, 0.4, 0.2]","[u'high', u'low', u'medium']","red",49,"left","high","True","False",3595,4900,NA
"A3J55BJGV95JKH","Thu Jan 30 2020 17:04:26 GMT-0600 (Central Standard Time)","Thu Jan 30 2020 17:16:35 GMT-0600 (Central Standard Time)","Mozilla/5.0 (Windows NT 6.3; Win64; x64) AppleWebKit/537.36 (KHTML, like Gecko) Chrome/79.0.3945.130 Safari/537.36",92,"[0.9, 0.5, 0.1]","[0.8, 0.4, 0.2]","[u'red', u'blue', u'black']","[u'left', u'middle', u'right']","[0.8, 0.4, 0.2]","[u'high', u'low', u'medium']","red",49,"left","high","False","False",499,4850,NA
"A3J55BJGV95JKH","Thu Jan 30 2020 17:04:26 GMT-0600 (Central Standard Time)","Thu Jan 30 2020 17:16:35 GMT-0600 (Central Standard Time)","Mozilla/5.0 (Windows NT 6.3; Win64; x64) AppleWebKit/537.36 (KHTML, like Gecko) Chrome/79.0.3945.130 Safari/537.36",93,"[0.9, 0.5, 0.1]","[0.8, 0.4, 0.2]","[u'red', u'blue', u'black']","[u'left', u'middle', u'right']","[0.8, 0.4, 0.2]","[u'high', u'low', u'medium']","red",49,"left","high","True","False",1595,4950,NA
"A3J55BJGV95JKH","Thu Jan 30 2020 17:04:26 GMT-0600 (Central Standard Time)","Thu Jan 30 2020 17:16:35 GMT-0600 (Central Standard Time)","Mozilla/5.0 (Windows NT 6.3; Win64; x64) AppleWebKit/537.36 (KHTML, like Gecko) Chrome/79.0.3945.130 Safari/537.36",94,"[0.9, 0.5, 0.1]","[0.8, 0.4, 0.2]","[u'red', u'blue', u'black']","[u'left', u'middle', u'right']","[0.8, 0.4, 0.2]","[u'high', u'low', u'medium']","red",49,"left","high","True","False",483,5050,NA
"A3J55BJGV95JKH","Thu Jan 30 2020 17:04:26 GMT-0600 (Central Standard Time)","Thu Jan 30 2020 17:16:35 GMT-0600 (Central Standard Time)","Mozilla/5.0 (Windows NT 6.3; Win64; x64) AppleWebKit/537.36 (KHTML, like Gecko) Chrome/79.0.3945.130 Safari/537.36",95,"[0.9, 0.5, 0.1]","[0.8, 0.4, 0.2]","[u'red', u'blue', u'black']","[u'left', u'middle', u'right']","[0.8, 0.4, 0.2]","[u'high', u'low', u'medium']","red",49,"left","high","False","False",651,5000,NA
"A3J55BJGV95JKH","Thu Jan 30 2020 17:04:26 GMT-0600 (Central Standard Time)","Thu Jan 30 2020 17:16:35 GMT-0600 (Central Standard Time)","Mozilla/5.0 (Windows NT 6.3; Win64; x64) AppleWebKit/537.36 (KHTML, like Gecko) Chrome/79.0.3945.130 Safari/537.36",96,"[0.9, 0.5, 0.1]","[0.8, 0.4, 0.2]","[u'red', u'blue', u'black']","[u'left', u'middle', u'right']","[0.8, 0.4, 0.2]","[u'high', u'low', u'medium']","blue",50,"middle","low","False","False",347,4950,NA
"A3J55BJGV95JKH","Thu Jan 30 2020 17:04:26 GMT-0600 (Central Standard Time)","Thu Jan 30 2020 17:16:35 GMT-0600 (Central Standard Time)","Mozilla/5.0 (Windows NT 6.3; Win64; x64) AppleWebKit/537.36 (KHTML, like Gecko) Chrome/79.0.3945.130 Safari/537.36",97,"[0.9, 0.5, 0.1]","[0.8, 0.4, 0.2]","[u'red', u'blue', u'black']","[u'left', u'middle', u'right']","[0.8, 0.4, 0.2]","[u'high', u'low', u'medium']","black",51,"right","medium","False","False",331,4900,NA
"A3J55BJGV95JKH","Thu Jan 30 2020 17:04:26 GMT-0600 (Central Standard Time)","Thu Jan 30 2020 17:16:35 GMT-0600 (Central Standard Time)","Mozilla/5.0 (Windows NT 6.3; Win64; x64) AppleWebKit/537.36 (KHTML, like Gecko) Chrome/79.0.3945.130 Safari/537.36",98,"[0.9, 0.5, 0.1]","[0.8, 0.4, 0.2]","[u'red', u'blue', u'black']","[u'left', u'middle', u'right']","[0.8, 0.4, 0.2]","[u'high', u'low', u'medium']","black",51,"right","medium","False","False",532,4850,NA
"A3J55BJGV95JKH","Thu Jan 30 2020 17:04:26 GMT-0600 (Central Standard Time)","Thu Jan 30 2020 17:16:35 GMT-0600 (Central Standard Time)","Mozilla/5.0 (Windows NT 6.3; Win64; x64) AppleWebKit/537.36 (KHTML, like Gecko) Chrome/79.0.3945.130 Safari/537.36",99,"[0.9, 0.5, 0.1]","[0.8, 0.4, 0.2]","[u'red', u'blue', u'black']","[u'left', u'middle', u'right']","[0.8, 0.4, 0.2]","[u'high', u'low', u'medium']","black",51,"right","medium","True","False",515,4950,NA
"A3J55BJGV95JKH","Thu Jan 30 2020 17:04:26 GMT-0600 (Central Standard Time)","Thu Jan 30 2020 17:16:35 GMT-0600 (Central Standard Time)","Mozilla/5.0 (Windows NT 6.3; Win64; x64) AppleWebKit/537.36 (KHTML, like Gecko) Chrome/79.0.3945.130 Safari/537.36",100,"[0.9, 0.5, 0.1]","[0.8, 0.4, 0.2]","[u'red', u'blue', u'black']","[u'left', u'middle', u'right']","[0.8, 0.4, 0.2]","[u'high', u'low', u'medium']","black",51,"right","medium","True","False",547,5050,NA
"A3J55BJGV95JKH","Thu Jan 30 2020 17:04:26 GMT-0600 (Central Standard Time)","Thu Jan 30 2020 17:16:35 GMT-0600 (Central Standard Time)","Mozilla/5.0 (Windows NT 6.3; Win64; x64) AppleWebKit/537.36 (KHTML, like Gecko) Chrome/79.0.3945.130 Safari/537.36",101,"[0.9, 0.5, 0.1]","[0.8, 0.4, 0.2]","[u'red', u'blue', u'black']","[u'left', u'middle', u'right']","[0.8, 0.4, 0.2]","[u'high', u'low', u'medium']","black",51,"right","medium","False","False",483,5000,NA
"A3J55BJGV95JKH","Thu Jan 30 2020 17:04:26 GMT-0600 (Central Standard Time)","Thu Jan 30 2020 17:16:35 GMT-0600 (Central Standard Time)","Mozilla/5.0 (Windows NT 6.3; Win64; x64) AppleWebKit/537.36 (KHTML, like Gecko) Chrome/79.0.3945.130 Safari/537.36",102,"[0.9, 0.5, 0.1]","[0.8, 0.4, 0.2]","[u'red', u'blue', u'black']","[u'left', u'middle', u'right']","[0.8, 0.4, 0.2]","[u'high', u'low', u'medium']","black",51,"right","medium","False","False",5788,4950,NA
"A3J55BJGV95JKH","Thu Jan 30 2020 17:04:26 GMT-0600 (Central Standard Time)","Thu Jan 30 2020 17:16:35 GMT-0600 (Central Standard Time)","Mozilla/5.0 (Windows NT 6.3; Win64; x64) AppleWebKit/537.36 (KHTML, like Gecko) Chrome/79.0.3945.130 Safari/537.36",103,"[0.9, 0.5, 0.1]","[0.8, 0.4, 0.2]","[u'red', u'blue', u'black']","[u'left', u'middle', u'right']","[0.8, 0.4, 0.2]","[u'high', u'low', u'medium']","blue",50,"middle","low","False","False",562,4900,NA
"A3J55BJGV95JKH","Thu Jan 30 2020 17:04:26 GMT-0600 (Central Standard Time)","Thu Jan 30 2020 17:16:35 GMT-0600 (Central Standard Time)","Mozilla/5.0 (Windows NT 6.3; Win64; x64) AppleWebKit/537.36 (KHTML, like Gecko) Chrome/79.0.3945.130 Safari/537.36",104,"[0.9, 0.5, 0.1]","[0.8, 0.4, 0.2]","[u'red', u'blue', u'black']","[u'left', u'middle', u'right']","[0.8, 0.4, 0.2]","[u'high', u'low', u'medium']","red",49,"left","high","True","False",417,5000,NA
"A3J55BJGV95JKH","Thu Jan 30 2020 17:04:26 GMT-0600 (Central Standard Time)","Thu Jan 30 2020 17:16:35 GMT-0600 (Central Standard Time)","Mozilla/5.0 (Windows NT 6.3; Win64; x64) AppleWebKit/537.36 (KHTML, like Gecko) Chrome/79.0.3945.130 Safari/537.36",105,"[0.9, 0.5, 0.1]","[0.8, 0.4, 0.2]","[u'red', u'blue', u'black']","[u'left', u'middle', u'right']","[0.8, 0.4, 0.2]","[u'high', u'low', u'medium']","red",49,"left","high","False","False",450,4950,NA
"A3J55BJGV95JKH","Thu Jan 30 2020 17:04:26 GMT-0600 (Central Standard Time)","Thu Jan 30 2020 17:16:35 GMT-0600 (Central Standard Time)","Mozilla/5.0 (Windows NT 6.3; Win64; x64) AppleWebKit/537.36 (KHTML, like Gecko) Chrome/79.0.3945.130 Safari/537.36",106,"[0.9, 0.5, 0.1]","[0.8, 0.4, 0.2]","[u'red', u'blue', u'black']","[u'left', u'middle', u'right']","[0.8, 0.4, 0.2]","[u'high', u'low', u'medium']","red",49,"left","high","True","False",491,5050,NA
"A3J55BJGV95JKH","Thu Jan 30 2020 17:04:26 GMT-0600 (Central Standard Time)","Thu Jan 30 2020 17:16:35 GMT-0600 (Central Standard Time)","Mozilla/5.0 (Windows NT 6.3; Win64; x64) AppleWebKit/537.36 (KHTML, like Gecko) Chrome/79.0.3945.130 Safari/537.36",107,"[0.9, 0.5, 0.1]","[0.8, 0.4, 0.2]","[u'red', u'blue', u'black']","[u'left', u'middle', u'right']","[0.8, 0.4, 0.2]","[u'high', u'low', u'medium']","red",49,"left","high","True","False",394,5150,NA
"A3J55BJGV95JKH","Thu Jan 30 2020 17:04:26 GMT-0600 (Central Standard Time)","Thu Jan 30 2020 17:16:35 GMT-0600 (Central Standard Time)","Mozilla/5.0 (Windows NT 6.3; Win64; x64) AppleWebKit/537.36 (KHTML, like Gecko) Chrome/79.0.3945.130 Safari/537.36",108,"[0.9, 0.5, 0.1]","[0.8, 0.4, 0.2]","[u'red', u'blue', u'black']","[u'left', u'middle', u'right']","[0.8, 0.4, 0.2]","[u'high', u'low', u'medium']","red",49,"left","high","True","False",483,5250,NA
"A3J55BJGV95JKH","Thu Jan 30 2020 17:04:26 GMT-0600 (Central Standard Time)","Thu Jan 30 2020 17:16:35 GMT-0600 (Central Standard Time)","Mozilla/5.0 (Windows NT 6.3; Win64; x64) AppleWebKit/537.36 (KHTML, like Gecko) Chrome/79.0.3945.130 Safari/537.36",109,"[0.9, 0.5, 0.1]","[0.8, 0.4, 0.2]","[u'red', u'blue', u'black']","[u'left', u'middle', u'right']","[0.8, 0.4, 0.2]","[u'high', u'low', u'medium']","red",49,"left","high","True","False",138,5350,NA
"A3J55BJGV95JKH","Thu Jan 30 2020 17:04:26 GMT-0600 (Central Standard Time)","Thu Jan 30 2020 17:16:35 GMT-0600 (Central Standard Time)","Mozilla/5.0 (Windows NT 6.3; Win64; x64) AppleWebKit/537.36 (KHTML, like Gecko) Chrome/79.0.3945.130 Safari/537.36",110,"[0.9, 0.5, 0.1]","[0.8, 0.4, 0.2]","[u'red', u'blue', u'black']","[u'left', u'middle', u'right']","[0.8, 0.4, 0.2]","[u'high', u'low', u'medium']","red",49,"left","high","True","False",531,5450,NA
"A3J55BJGV95JKH","Thu Jan 30 2020 17:04:26 GMT-0600 (Central Standard Time)","Thu Jan 30 2020 17:16:35 GMT-0600 (Central Standard Time)","Mozilla/5.0 (Windows NT 6.3; Win64; x64) AppleWebKit/537.36 (KHTML, like Gecko) Chrome/79.0.3945.130 Safari/537.36",111,"[0.9, 0.5, 0.1]","[0.8, 0.4, 0.2]","[u'red', u'blue', u'black']","[u'left', u'middle', u'right']","[0.8, 0.4, 0.2]","[u'high', u'low', u'medium']","red",49,"left","high","True","False",467,5550,NA
"A3J55BJGV95JKH","Thu Jan 30 2020 17:04:26 GMT-0600 (Central Standard Time)","Thu Jan 30 2020 17:16:35 GMT-0600 (Central Standard Time)","Mozilla/5.0 (Windows NT 6.3; Win64; x64) AppleWebKit/537.36 (KHTML, like Gecko) Chrome/79.0.3945.130 Safari/537.36",112,"[0.9, 0.5, 0.1]","[0.8, 0.4, 0.2]","[u'red', u'blue', u'black']","[u'left', u'middle', u'right']","[0.8, 0.4, 0.2]","[u'high', u'low', u'medium']","red",49,"left","high","True","True",371,5650,NA
"A3J55BJGV95JKH","Thu Jan 30 2020 17:04:26 GMT-0600 (Central Standard Time)","Thu Jan 30 2020 17:16:35 GMT-0600 (Central Standard Time)","Mozilla/5.0 (Windows NT 6.3; Win64; x64) AppleWebKit/537.36 (KHTML, like Gecko) Chrome/79.0.3945.130 Safari/537.36",113,"[0.9, 0.5, 0.1]","[0.8, 0.4, 0.2]","[u'red', u'blue', u'black']","[u'left', u'middle', u'right']","[0.8, 0.4, 0.2]","[u'medium', u'high', u'low']","red",49,"left","medium","False","False",451,5600,NA
"A3J55BJGV95JKH","Thu Jan 30 2020 17:04:26 GMT-0600 (Central Standard Time)","Thu Jan 30 2020 17:16:35 GMT-0600 (Central Standard Time)","Mozilla/5.0 (Windows NT 6.3; Win64; x64) AppleWebKit/537.36 (KHTML, like Gecko) Chrome/79.0.3945.130 Safari/537.36",114,"[0.9, 0.5, 0.1]","[0.8, 0.4, 0.2]","[u'red', u'blue', u'black']","[u'left', u'middle', u'right']","[0.8, 0.4, 0.2]","[u'medium', u'high', u'low']","black",51,"right","low","False","False",612,5550,NA
"A3J55BJGV95JKH","Thu Jan 30 2020 17:04:26 GMT-0600 (Central Standard Time)","Thu Jan 30 2020 17:16:35 GMT-0600 (Central Standard Time)","Mozilla/5.0 (Windows NT 6.3; Win64; x64) AppleWebKit/537.36 (KHTML, like Gecko) Chrome/79.0.3945.130 Safari/537.36",115,"[0.9, 0.5, 0.1]","[0.8, 0.4, 0.2]","[u'red', u'blue', u'black']","[u'left', u'middle', u'right']","[0.8, 0.4, 0.2]","[u'medium', u'high', u'low']","black",51,"right","low","False","False",346,5500,NA
"A3J55BJGV95JKH","Thu Jan 30 2020 17:04:26 GMT-0600 (Central Standard Time)","Thu Jan 30 2020 17:16:35 GMT-0600 (Central Standard Time)","Mozilla/5.0 (Windows NT 6.3; Win64; x64) AppleWebKit/537.36 (KHTML, like Gecko) Chrome/79.0.3945.130 Safari/537.36",116,"[0.9, 0.5, 0.1]","[0.8, 0.4, 0.2]","[u'red', u'blue', u'black']","[u'left', u'middle', u'right']","[0.8, 0.4, 0.2]","[u'medium', u'high', u'low']","blue",50,"middle","high","True","False",548,5600,NA
"A3J55BJGV95JKH","Thu Jan 30 2020 17:04:26 GMT-0600 (Central Standard Time)","Thu Jan 30 2020 17:16:35 GMT-0600 (Central Standard Time)","Mozilla/5.0 (Windows NT 6.3; Win64; x64) AppleWebKit/537.36 (KHTML, like Gecko) Chrome/79.0.3945.130 Safari/537.36",117,"[0.9, 0.5, 0.1]","[0.8, 0.4, 0.2]","[u'red', u'blue', u'black']","[u'left', u'middle', u'right']","[0.8, 0.4, 0.2]","[u'medium', u'high', u'low']","blue",50,"middle","high","True","False",507,5700,NA
"A3J55BJGV95JKH","Thu Jan 30 2020 17:04:26 GMT-0600 (Central Standard Time)","Thu Jan 30 2020 17:16:35 GMT-0600 (Central Standard Time)","Mozilla/5.0 (Windows NT 6.3; Win64; x64) AppleWebKit/537.36 (KHTML, like Gecko) Chrome/79.0.3945.130 Safari/537.36",118,"[0.9, 0.5, 0.1]","[0.8, 0.4, 0.2]","[u'red', u'blue', u'black']","[u'left', u'middle', u'right']","[0.8, 0.4, 0.2]","[u'medium', u'high', u'low']","blue",50,"middle","high","False","False",1211,5650,NA
"A3J55BJGV95JKH","Thu Jan 30 2020 17:04:26 GMT-0600 (Central Standard Time)","Thu Jan 30 2020 17:16:35 GMT-0600 (Central Standard Time)","Mozilla/5.0 (Windows NT 6.3; Win64; x64) AppleWebKit/537.36 (KHTML, like Gecko) Chrome/79.0.3945.130 Safari/537.36",119,"[0.9, 0.5, 0.1]","[0.8, 0.4, 0.2]","[u'red', u'blue', u'black']","[u'left', u'middle', u'right']","[0.8, 0.4, 0.2]","[u'medium', u'high', u'low']","blue",50,"middle","high","True","False",748,5750,NA
"A3J55BJGV95JKH","Thu Jan 30 2020 17:04:26 GMT-0600 (Central Standard Time)","Thu Jan 30 2020 17:16:35 GMT-0600 (Central Standard Time)","Mozilla/5.0 (Windows NT 6.3; Win64; x64) AppleWebKit/537.36 (KHTML, like Gecko) Chrome/79.0.3945.130 Safari/537.36",120,"[0.9, 0.5, 0.1]","[0.8, 0.4, 0.2]","[u'red', u'blue', u'black']","[u'left', u'middle', u'right']","[0.8, 0.4, 0.2]","[u'medium', u'high', u'low']","blue",50,"middle","high","True","False",627,5850,NA
"A3J55BJGV95JKH","Thu Jan 30 2020 17:04:26 GMT-0600 (Central Standard Time)","Thu Jan 30 2020 17:16:35 GMT-0600 (Central Standard Time)","Mozilla/5.0 (Windows NT 6.3; Win64; x64) AppleWebKit/537.36 (KHTML, like Gecko) Chrome/79.0.3945.130 Safari/537.36",121,"[0.9, 0.5, 0.1]","[0.8, 0.4, 0.2]","[u'red', u'blue', u'black']","[u'left', u'middle', u'right']","[0.8, 0.4, 0.2]","[u'high', u'low', u'medium']","blue",50,"middle","low","True","False",530,5950,NA
"A3J55BJGV95JKH","Thu Jan 30 2020 17:04:26 GMT-0600 (Central Standard Time)","Thu Jan 30 2020 17:16:35 GMT-0600 (Central Standard Time)","Mozilla/5.0 (Windows NT 6.3; Win64; x64) AppleWebKit/537.36 (KHTML, like Gecko) Chrome/79.0.3945.130 Safari/537.36",122,"[0.9, 0.5, 0.1]","[0.8, 0.4, 0.2]","[u'red', u'blue', u'black']","[u'left', u'middle', u'right']","[0.8, 0.4, 0.2]","[u'high', u'low', u'medium']","blue",50,"middle","low","True","False",691,6050,NA
"A3J55BJGV95JKH","Thu Jan 30 2020 17:04:26 GMT-0600 (Central Standard Time)","Thu Jan 30 2020 17:16:35 GMT-0600 (Central Standard Time)","Mozilla/5.0 (Windows NT 6.3; Win64; x64) AppleWebKit/537.36 (KHTML, like Gecko) Chrome/79.0.3945.130 Safari/537.36",123,"[0.9, 0.5, 0.1]","[0.8, 0.4, 0.2]","[u'red', u'blue', u'black']","[u'left', u'middle', u'right']","[0.8, 0.4, 0.2]","[u'high', u'low', u'medium']","blue",50,"middle","low","False","False",1237,6000,NA
"A3J55BJGV95JKH","Thu Jan 30 2020 17:04:26 GMT-0600 (Central Standard Time)","Thu Jan 30 2020 17:16:35 GMT-0600 (Central Standard Time)","Mozilla/5.0 (Windows NT 6.3; Win64; x64) AppleWebKit/537.36 (KHTML, like Gecko) Chrome/79.0.3945.130 Safari/537.36",124,"[0.9, 0.5, 0.1]","[0.8, 0.4, 0.2]","[u'red', u'blue', u'black']","[u'left', u'middle', u'right']","[0.8, 0.4, 0.2]","[u'high', u'low', u'medium']","red",49,"left","high","True","False",7074,6100,NA
"A3J55BJGV95JKH","Thu Jan 30 2020 17:04:26 GMT-0600 (Central Standard Time)","Thu Jan 30 2020 17:16:35 GMT-0600 (Central Standard Time)","Mozilla/5.0 (Windows NT 6.3; Win64; x64) AppleWebKit/537.36 (KHTML, like Gecko) Chrome/79.0.3945.130 Safari/537.36",125,"[0.9, 0.5, 0.1]","[0.8, 0.4, 0.2]","[u'red', u'blue', u'black']","[u'left', u'middle', u'right']","[0.8, 0.4, 0.2]","[u'high', u'low', u'medium']","red",49,"left","high","True","False",851,6200,NA
"A3J55BJGV95JKH","Thu Jan 30 2020 17:04:26 GMT-0600 (Central Standard Time)","Thu Jan 30 2020 17:16:35 GMT-0600 (Central Standard Time)","Mozilla/5.0 (Windows NT 6.3; Win64; x64) AppleWebKit/537.36 (KHTML, like Gecko) Chrome/79.0.3945.130 Safari/537.36",126,"[0.9, 0.5, 0.1]","[0.8, 0.4, 0.2]","[u'red', u'blue', u'black']","[u'left', u'middle', u'right']","[0.8, 0.4, 0.2]","[u'high', u'low', u'medium']","red",49,"left","high","True","False",450,6300,NA
"A3J55BJGV95JKH","Thu Jan 30 2020 17:04:26 GMT-0600 (Central Standard Time)","Thu Jan 30 2020 17:16:35 GMT-0600 (Central Standard Time)","Mozilla/5.0 (Windows NT 6.3; Win64; x64) AppleWebKit/537.36 (KHTML, like Gecko) Chrome/79.0.3945.130 Safari/537.36",127,"[0.9, 0.5, 0.1]","[0.8, 0.4, 0.2]","[u'red', u'blue', u'black']","[u'left', u'middle', u'right']","[0.8, 0.4, 0.2]","[u'high', u'low', u'medium']","red",49,"left","high","True","False",354,6400,NA
"A3J55BJGV95JKH","Thu Jan 30 2020 17:04:26 GMT-0600 (Central Standard Time)","Thu Jan 30 2020 17:16:35 GMT-0600 (Central Standard Time)","Mozilla/5.0 (Windows NT 6.3; Win64; x64) AppleWebKit/537.36 (KHTML, like Gecko) Chrome/79.0.3945.130 Safari/537.36",128,"[0.9, 0.5, 0.1]","[0.8, 0.4, 0.2]","[u'red', u'blue', u'black']","[u'left', u'middle', u'right']","[0.8, 0.4, 0.2]","[u'high', u'low', u'medium']","red",49,"left","high","True","False",515,6500,NA
"A3J55BJGV95JKH","Thu Jan 30 2020 17:04:26 GMT-0600 (Central Standard Time)","Thu Jan 30 2020 17:16:35 GMT-0600 (Central Standard Time)","Mozilla/5.0 (Windows NT 6.3; Win64; x64) AppleWebKit/537.36 (KHTML, like Gecko) Chrome/79.0.3945.130 Safari/537.36",129,"[0.9, 0.5, 0.1]","[0.8, 0.4, 0.2]","[u'red', u'blue', u'black']","[u'left', u'middle', u'right']","[0.8, 0.4, 0.2]","[u'high', u'low', u'medium']","red",49,"left","high","False","False",419,6450,NA
"A3J55BJGV95JKH","Thu Jan 30 2020 17:04:26 GMT-0600 (Central Standard Time)","Thu Jan 30 2020 17:16:35 GMT-0600 (Central Standard Time)","Mozilla/5.0 (Windows NT 6.3; Win64; x64) AppleWebKit/537.36 (KHTML, like Gecko) Chrome/79.0.3945.130 Safari/537.36",130,"[0.9, 0.5, 0.1]","[0.8, 0.4, 0.2]","[u'red', u'blue', u'black']","[u'left', u'middle', u'right']","[0.8, 0.4, 0.2]","[u'high', u'low', u'medium']","blue",50,"middle","low","True","False",570,6550,NA
"A3J55BJGV95JKH","Thu Jan 30 2020 17:04:26 GMT-0600 (Central Standard Time)","Thu Jan 30 2020 17:16:35 GMT-0600 (Central Standard Time)","Mozilla/5.0 (Windows NT 6.3; Win64; x64) AppleWebKit/537.36 (KHTML, like Gecko) Chrome/79.0.3945.130 Safari/537.36",131,"[0.9, 0.5, 0.1]","[0.8, 0.4, 0.2]","[u'red', u'blue', u'black']","[u'left', u'middle', u'right']","[0.8, 0.4, 0.2]","[u'high', u'low', u'medium']","blue",50,"middle","low","False","False",604,6500,NA
"A3J55BJGV95JKH","Thu Jan 30 2020 17:04:26 GMT-0600 (Central Standard Time)","Thu Jan 30 2020 17:16:35 GMT-0600 (Central Standard Time)","Mozilla/5.0 (Windows NT 6.3; Win64; x64) AppleWebKit/537.36 (KHTML, like Gecko) Chrome/79.0.3945.130 Safari/537.36",132,"[0.9, 0.5, 0.1]","[0.8, 0.4, 0.2]","[u'red', u'blue', u'black']","[u'left', u'middle', u'right']","[0.8, 0.4, 0.2]","[u'high', u'low', u'medium']","blue",50,"middle","low","False","False",280,6450,NA
"A3J55BJGV95JKH","Thu Jan 30 2020 17:04:26 GMT-0600 (Central Standard Time)","Thu Jan 30 2020 17:16:35 GMT-0600 (Central Standard Time)","Mozilla/5.0 (Windows NT 6.3; Win64; x64) AppleWebKit/537.36 (KHTML, like Gecko) Chrome/79.0.3945.130 Safari/537.36",133,"[0.9, 0.5, 0.1]","[0.8, 0.4, 0.2]","[u'red', u'blue', u'black']","[u'left', u'middle', u'right']","[0.8, 0.4, 0.2]","[u'high', u'low', u'medium']","blue",50,"middle","low","True","False",106,6550,NA
"A3J55BJGV95JKH","Thu Jan 30 2020 17:04:26 GMT-0600 (Central Standard Time)","Thu Jan 30 2020 17:16:35 GMT-0600 (Central Standard Time)","Mozilla/5.0 (Windows NT 6.3; Win64; x64) AppleWebKit/537.36 (KHTML, like Gecko) Chrome/79.0.3945.130 Safari/537.36",134,"[0.9, 0.5, 0.1]","[0.8, 0.4, 0.2]","[u'red', u'blue', u'black']","[u'left', u'middle', u'right']","[0.8, 0.4, 0.2]","[u'high', u'low', u'medium']","blue",50,"middle","low","False","False",810,6500,NA
"A3J55BJGV95JKH","Thu Jan 30 2020 17:04:26 GMT-0600 (Central Standard Time)","Thu Jan 30 2020 17:16:35 GMT-0600 (Central Standard Time)","Mozilla/5.0 (Windows NT 6.3; Win64; x64) AppleWebKit/537.36 (KHTML, like Gecko) Chrome/79.0.3945.130 Safari/537.36",135,"[0.9, 0.5, 0.1]","[0.8, 0.4, 0.2]","[u'red', u'blue', u'black']","[u'left', u'middle', u'right']","[0.8, 0.4, 0.2]","[u'high', u'low', u'medium']","black",51,"right","medium","True","False",371,6600,NA
"A3J55BJGV95JKH","Thu Jan 30 2020 17:04:26 GMT-0600 (Central Standard Time)","Thu Jan 30 2020 17:16:35 GMT-0600 (Central Standard Time)","Mozilla/5.0 (Windows NT 6.3; Win64; x64) AppleWebKit/537.36 (KHTML, like Gecko) Chrome/79.0.3945.130 Safari/537.36",136,"[0.9, 0.5, 0.1]","[0.8, 0.4, 0.2]","[u'red', u'blue', u'black']","[u'left', u'middle', u'right']","[0.8, 0.4, 0.2]","[u'high', u'low', u'medium']","black",51,"right","medium","False","False",19,6550,NA
"A3J55BJGV95JKH","Thu Jan 30 2020 17:04:26 GMT-0600 (Central Standard Time)","Thu Jan 30 2020 17:16:35 GMT-0600 (Central Standard Time)","Mozilla/5.0 (Windows NT 6.3; Win64; x64) AppleWebKit/537.36 (KHTML, like Gecko) Chrome/79.0.3945.130 Safari/537.36",137,"[0.9, 0.5, 0.1]","[0.8, 0.4, 0.2]","[u'red', u'blue', u'black']","[u'left', u'middle', u'right']","[0.8, 0.4, 0.2]","[u'high', u'low', u'medium']","red",49,"left","high","True","False",228,6650,NA
"A3J55BJGV95JKH","Thu Jan 30 2020 17:04:26 GMT-0600 (Central Standard Time)","Thu Jan 30 2020 17:16:35 GMT-0600 (Central Standard Time)","Mozilla/5.0 (Windows NT 6.3; Win64; x64) AppleWebKit/537.36 (KHTML, like Gecko) Chrome/79.0.3945.130 Safari/537.36",138,"[0.9, 0.5, 0.1]","[0.8, 0.4, 0.2]","[u'red', u'blue', u'black']","[u'left', u'middle', u'right']","[0.8, 0.4, 0.2]","[u'high', u'low', u'medium']","red",49,"left","high","True","False",753,6750,NA
"A3J55BJGV95JKH","Thu Jan 30 2020 17:04:26 GMT-0600 (Central Standard Time)","Thu Jan 30 2020 17:16:35 GMT-0600 (Central Standard Time)","Mozilla/5.0 (Windows NT 6.3; Win64; x64) AppleWebKit/537.36 (KHTML, like Gecko) Chrome/79.0.3945.130 Safari/537.36",139,"[0.9, 0.5, 0.1]","[0.8, 0.4, 0.2]","[u'red', u'blue', u'black']","[u'left', u'middle', u'right']","[0.8, 0.4, 0.2]","[u'high', u'low', u'medium']","red",49,"left","high","True","False",571,6850,NA
"A3J55BJGV95JKH","Thu Jan 30 2020 17:04:26 GMT-0600 (Central Standard Time)","Thu Jan 30 2020 17:16:35 GMT-0600 (Central Standard Time)","Mozilla/5.0 (Windows NT 6.3; Win64; x64) AppleWebKit/537.36 (KHTML, like Gecko) Chrome/79.0.3945.130 Safari/537.36",140,"[0.9, 0.5, 0.1]","[0.8, 0.4, 0.2]","[u'red', u'blue', u'black']","[u'left', u'middle', u'right']","[0.8, 0.4, 0.2]","[u'high', u'low', u'medium']","red",49,"left","high","False","False",851,6800,NA
"A3J55BJGV95JKH","Thu Jan 30 2020 17:04:26 GMT-0600 (Central Standard Time)","Thu Jan 30 2020 17:16:35 GMT-0600 (Central Standard Time)","Mozilla/5.0 (Windows NT 6.3; Win64; x64) AppleWebKit/537.36 (KHTML, like Gecko) Chrome/79.0.3945.130 Safari/537.36",141,"[0.9, 0.5, 0.1]","[0.8, 0.4, 0.2]","[u'red', u'blue', u'black']","[u'left', u'middle', u'right']","[0.8, 0.4, 0.2]","[u'high', u'low', u'medium']","red",49,"left","high","True","False",867,6900,NA
"A3J55BJGV95JKH","Thu Jan 30 2020 17:04:26 GMT-0600 (Central Standard Time)","Thu Jan 30 2020 17:16:35 GMT-0600 (Central Standard Time)","Mozilla/5.0 (Windows NT 6.3; Win64; x64) AppleWebKit/537.36 (KHTML, like Gecko) Chrome/79.0.3945.130 Safari/537.36",142,"[0.9, 0.5, 0.1]","[0.8, 0.4, 0.2]","[u'red', u'blue', u'black']","[u'left', u'middle', u'right']","[0.8, 0.4, 0.2]","[u'high', u'low', u'medium']","red",49,"left","high","False","False",35,6850,NA
"A3J55BJGV95JKH","Thu Jan 30 2020 17:04:26 GMT-0600 (Central Standard Time)","Thu Jan 30 2020 17:16:35 GMT-0600 (Central Standard Time)","Mozilla/5.0 (Windows NT 6.3; Win64; x64) AppleWebKit/537.36 (KHTML, like Gecko) Chrome/79.0.3945.130 Safari/537.36",143,"[0.9, 0.5, 0.1]","[0.8, 0.4, 0.2]","[u'red', u'blue', u'black']","[u'left', u'middle', u'right']","[0.8, 0.4, 0.2]","[u'high', u'low', u'medium']","red",49,"left","high","True","False",3449,6950,NA
"A3J55BJGV95JKH","Thu Jan 30 2020 17:04:26 GMT-0600 (Central Standard Time)","Thu Jan 30 2020 17:16:35 GMT-0600 (Central Standard Time)","Mozilla/5.0 (Windows NT 6.3; Win64; x64) AppleWebKit/537.36 (KHTML, like Gecko) Chrome/79.0.3945.130 Safari/537.36",144,"[0.9, 0.5, 0.1]","[0.8, 0.4, 0.2]","[u'red', u'blue', u'black']","[u'left', u'middle', u'right']","[0.8, 0.4, 0.2]","[u'high', u'low', u'medium']","red",49,"left","high","True","False",1387,7050,NA
"A3J55BJGV95JKH","Thu Jan 30 2020 17:04:26 GMT-0600 (Central Standard Time)","Thu Jan 30 2020 17:16:35 GMT-0600 (Central Standard Time)","Mozilla/5.0 (Windows NT 6.3; Win64; x64) AppleWebKit/537.36 (KHTML, like Gecko) Chrome/79.0.3945.130 Safari/537.36",145,"[0.9, 0.5, 0.1]","[0.8, 0.4, 0.2]","[u'red', u'blue', u'black']","[u'left', u'middle', u'right']","[0.8, 0.4, 0.2]","[u'high', u'low', u'medium']","red",49,"left","high","True","True",1540,7150,NA
"A3J55BJGV95JKH","Thu Jan 30 2020 17:04:26 GMT-0600 (Central Standard Time)","Thu Jan 30 2020 17:16:35 GMT-0600 (Central Standard Time)","Mozilla/5.0 (Windows NT 6.3; Win64; x64) AppleWebKit/537.36 (KHTML, like Gecko) Chrome/79.0.3945.130 Safari/537.36",146,"[0.9, 0.5, 0.1]","[0.8, 0.4, 0.2]","[u'red', u'blue', u'black']","[u'left', u'middle', u'right']","[0.8, 0.4, 0.2]","[u'low', u'high', u'medium']","red",49,"left","low","False","False",114,7100,NA
"A3J55BJGV95JKH","Thu Jan 30 2020 17:04:26 GMT-0600 (Central Standard Time)","Thu Jan 30 2020 17:16:35 GMT-0600 (Central Standard Time)","Mozilla/5.0 (Windows NT 6.3; Win64; x64) AppleWebKit/537.36 (KHTML, like Gecko) Chrome/79.0.3945.130 Safari/537.36",147,"[0.9, 0.5, 0.1]","[0.8, 0.4, 0.2]","[u'red', u'blue', u'black']","[u'left', u'middle', u'right']","[0.8, 0.4, 0.2]","[u'low', u'high', u'medium']","blue",50,"middle","high","True","False",355,7200,NA
"A3J55BJGV95JKH","Thu Jan 30 2020 17:04:26 GMT-0600 (Central Standard Time)","Thu Jan 30 2020 17:16:35 GMT-0600 (Central Standard Time)","Mozilla/5.0 (Windows NT 6.3; Win64; x64) AppleWebKit/537.36 (KHTML, like Gecko) Chrome/79.0.3945.130 Safari/537.36",148,"[0.9, 0.5, 0.1]","[0.8, 0.4, 0.2]","[u'red', u'blue', u'black']","[u'left', u'middle', u'right']","[0.8, 0.4, 0.2]","[u'low', u'high', u'medium']","blue",50,"middle","high","True","False",859,7300,NA
"A3J55BJGV95JKH","Thu Jan 30 2020 17:04:26 GMT-0600 (Central Standard Time)","Thu Jan 30 2020 17:16:35 GMT-0600 (Central Standard Time)","Mozilla/5.0 (Windows NT 6.3; Win64; x64) AppleWebKit/537.36 (KHTML, like Gecko) Chrome/79.0.3945.130 Safari/537.36",149,"[0.9, 0.5, 0.1]","[0.8, 0.4, 0.2]","[u'red', u'blue', u'black']","[u'left', u'middle', u'right']","[0.8, 0.4, 0.2]","[u'low', u'high', u'medium']","blue",50,"middle","high","True","False",1331,7400,NA
"A3J55BJGV95JKH","Thu Jan 30 2020 17:04:26 GMT-0600 (Central Standard Time)","Thu Jan 30 2020 17:16:35 GMT-0600 (Central Standard Time)","Mozilla/5.0 (Windows NT 6.3; Win64; x64) AppleWebKit/537.36 (KHTML, like Gecko) Chrome/79.0.3945.130 Safari/537.36",150,"[0.9, 0.5, 0.1]","[0.8, 0.4, 0.2]","[u'red', u'blue', u'black']","[u'left', u'middle', u'right']","[0.8, 0.4, 0.2]","[u'low', u'high', u'medium']","blue",50,"middle","high","True","False",828,7500,NA
"A3J55BJGV95JKH","Thu Jan 30 2020 17:04:26 GMT-0600 (Central Standard Time)","Thu Jan 30 2020 17:16:35 GMT-0600 (Central Standard Time)","Mozilla/5.0 (Windows NT 6.3; Win64; x64) AppleWebKit/537.36 (KHTML, like Gecko) Chrome/79.0.3945.130 Safari/537.36",151,"[0.9, 0.5, 0.1]","[0.8, 0.4, 0.2]","[u'red', u'blue', u'black']","[u'left', u'middle', u'right']","[0.8, 0.4, 0.2]","[u'low', u'high', u'medium']","blue",50,"middle","high","True","False",490,7600,NA
"A3J55BJGV95JKH","Thu Jan 30 2020 17:04:26 GMT-0600 (Central Standard Time)","Thu Jan 30 2020 17:16:35 GMT-0600 (Central Standard Time)","Mozilla/5.0 (Windows NT 6.3; Win64; x64) AppleWebKit/537.36 (KHTML, like Gecko) Chrome/79.0.3945.130 Safari/537.36",152,"[0.9, 0.5, 0.1]","[0.8, 0.4, 0.2]","[u'red', u'blue', u'black']","[u'left', u'middle', u'right']","[0.8, 0.4, 0.2]","[u'low', u'high', u'medium']","blue",50,"middle","high","True","False",347,7700,NA
"A3J55BJGV95JKH","Thu Jan 30 2020 17:04:26 GMT-0600 (Central Standard Time)","Thu Jan 30 2020 17:16:35 GMT-0600 (Central Standard Time)","Mozilla/5.0 (Windows NT 6.3; Win64; x64) AppleWebKit/537.36 (KHTML, like Gecko) Chrome/79.0.3945.130 Safari/537.36",153,"[0.9, 0.5, 0.1]","[0.8, 0.4, 0.2]","[u'red', u'blue', u'black']","[u'left', u'middle', u'right']","[0.8, 0.4, 0.2]","[u'low', u'high', u'medium']","blue",50,"middle","high","True","False",563,7800,NA
"A3J55BJGV95JKH","Thu Jan 30 2020 17:04:26 GMT-0600 (Central Standard Time)","Thu Jan 30 2020 17:16:35 GMT-0600 (Central Standard Time)","Mozilla/5.0 (Windows NT 6.3; Win64; x64) AppleWebKit/537.36 (KHTML, like Gecko) Chrome/79.0.3945.130 Safari/537.36",154,"[0.9, 0.5, 0.1]","[0.8, 0.4, 0.2]","[u'red', u'blue', u'black']","[u'left', u'middle', u'right']","[0.8, 0.4, 0.2]","[u'low', u'high', u'medium']","blue",50,"middle","high","True","False",731,7900,NA
"A3J55BJGV95JKH","Thu Jan 30 2020 17:04:26 GMT-0600 (Central Standard Time)","Thu Jan 30 2020 17:16:35 GMT-0600 (Central Standard Time)","Mozilla/5.0 (Windows NT 6.3; Win64; x64) AppleWebKit/537.36 (KHTML, like Gecko) Chrome/79.0.3945.130 Safari/537.36",155,"[0.9, 0.5, 0.1]","[0.8, 0.4, 0.2]","[u'red', u'blue', u'black']","[u'left', u'middle', u'right']","[0.8, 0.4, 0.2]","[u'low', u'high', u'medium']","blue",50,"middle","high","True","True",884,8000,NA
"A3J55BJGV95JKH","Thu Jan 30 2020 17:04:26 GMT-0600 (Central Standard Time)","Thu Jan 30 2020 17:16:35 GMT-0600 (Central Standard Time)","Mozilla/5.0 (Windows NT 6.3; Win64; x64) AppleWebKit/537.36 (KHTML, like Gecko) Chrome/79.0.3945.130 Safari/537.36",156,"[0.9, 0.5, 0.1]","[0.8, 0.4, 0.2]","[u'red', u'blue', u'black']","[u'left', u'middle', u'right']","[0.8, 0.4, 0.2]","[u'medium', u'low', u'high']","blue",50,"middle","low","False","False",802,7950,NA
"A3J55BJGV95JKH","Thu Jan 30 2020 17:04:26 GMT-0600 (Central Standard Time)","Thu Jan 30 2020 17:16:35 GMT-0600 (Central Standard Time)","Mozilla/5.0 (Windows NT 6.3; Win64; x64) AppleWebKit/537.36 (KHTML, like Gecko) Chrome/79.0.3945.130 Safari/537.36",157,"[0.9, 0.5, 0.1]","[0.8, 0.4, 0.2]","[u'red', u'blue', u'black']","[u'left', u'middle', u'right']","[0.8, 0.4, 0.2]","[u'medium', u'low', u'high']","black",51,"right","high","True","False",419,8050,NA
"A3J55BJGV95JKH","Thu Jan 30 2020 17:04:26 GMT-0600 (Central Standard Time)","Thu Jan 30 2020 17:16:35 GMT-0600 (Central Standard Time)","Mozilla/5.0 (Windows NT 6.3; Win64; x64) AppleWebKit/537.36 (KHTML, like Gecko) Chrome/79.0.3945.130 Safari/537.36",158,"[0.9, 0.5, 0.1]","[0.8, 0.4, 0.2]","[u'red', u'blue', u'black']","[u'left', u'middle', u'right']","[0.8, 0.4, 0.2]","[u'medium', u'low', u'high']","black",51,"right","high","True","False",659,8150,NA
"A3J55BJGV95JKH","Thu Jan 30 2020 17:04:26 GMT-0600 (Central Standard Time)","Thu Jan 30 2020 17:16:35 GMT-0600 (Central Standard Time)","Mozilla/5.0 (Windows NT 6.3; Win64; x64) AppleWebKit/537.36 (KHTML, like Gecko) Chrome/79.0.3945.130 Safari/537.36",159,"[0.9, 0.5, 0.1]","[0.8, 0.4, 0.2]","[u'red', u'blue', u'black']","[u'left', u'middle', u'right']","[0.8, 0.4, 0.2]","[u'medium', u'low', u'high']","black",51,"right","high","True","False",732,8250,NA
"A3J55BJGV95JKH","Thu Jan 30 2020 17:04:26 GMT-0600 (Central Standard Time)","Thu Jan 30 2020 17:16:35 GMT-0600 (Central Standard Time)","Mozilla/5.0 (Windows NT 6.3; Win64; x64) AppleWebKit/537.36 (KHTML, like Gecko) Chrome/79.0.3945.130 Safari/537.36",160,"[0.9, 0.5, 0.1]","[0.8, 0.4, 0.2]","[u'red', u'blue', u'black']","[u'left', u'middle', u'right']","[0.8, 0.4, 0.2]","[u'medium', u'low', u'high']","black",51,"right","high","True","False",548,8350,NA
