"src_subject_id","start_time","end_time","browser","index","first_half_probabilities","second_half_probabilities","deck_color","deck_position","deck_probabilities","deck_contingencies","response_color","key_press","response_position","response_probability","reward_type","trial_type","rt","reward_tally","exclusion_reason"
"A2SJC9VRBGNC58","Thu Jan 30 2020 10:39:58 GMT-0800 (Pacific Standard Time)","Thu Jan 30 2020 10:53:56 GMT-0800 (Pacific Standard Time)","Mozilla/5.0 (Windows NT 10.0; Win64; x64) AppleWebKit/537.36 (KHTML, like Gecko) Chrome/79.0.3945.130 Safari/537.36",1,"[0.9, 0.5, 0.1]","[0.8, 0.4, 0.2]","[u'blue', u'red', u'black']","[u'left', u'middle', u'right']","[0.9, 0.5, 0.1]","[u'low', u'medium', u'high']","blue",49,"left","low","False","False",1170,-50,NA
"A2SJC9VRBGNC58","Thu Jan 30 2020 10:39:58 GMT-0800 (Pacific Standard Time)","Thu Jan 30 2020 10:53:56 GMT-0800 (Pacific Standard Time)","Mozilla/5.0 (Windows NT 10.0; Win64; x64) AppleWebKit/537.36 (KHTML, like Gecko) Chrome/79.0.3945.130 Safari/537.36",2,"[0.9, 0.5, 0.1]","[0.8, 0.4, 0.2]","[u'blue', u'red', u'black']","[u'left', u'middle', u'right']","[0.9, 0.5, 0.1]","[u'low', u'medium', u'high']","red",50,"middle","medium","True","False",707,50,NA
"A2SJC9VRBGNC58","Thu Jan 30 2020 10:39:58 GMT-0800 (Pacific Standard Time)","Thu Jan 30 2020 10:53:56 GMT-0800 (Pacific Standard Time)","Mozilla/5.0 (Windows NT 10.0; Win64; x64) AppleWebKit/537.36 (KHTML, like Gecko) Chrome/79.0.3945.130 Safari/537.36",3,"[0.9, 0.5, 0.1]","[0.8, 0.4, 0.2]","[u'blue', u'red', u'black']","[u'left', u'middle', u'right']","[0.9, 0.5, 0.1]","[u'low', u'medium', u'high']","red",50,"middle","medium","True","False",468,150,NA
"A2SJC9VRBGNC58","Thu Jan 30 2020 10:39:58 GMT-0800 (Pacific Standard Time)","Thu Jan 30 2020 10:53:56 GMT-0800 (Pacific Standard Time)","Mozilla/5.0 (Windows NT 10.0; Win64; x64) AppleWebKit/537.36 (KHTML, like Gecko) Chrome/79.0.3945.130 Safari/537.36",4,"[0.9, 0.5, 0.1]","[0.8, 0.4, 0.2]","[u'blue', u'red', u'black']","[u'left', u'middle', u'right']","[0.9, 0.5, 0.1]","[u'low', u'medium', u'high']","red",50,"middle","medium","False","False",483,100,NA
"A2SJC9VRBGNC58","Thu Jan 30 2020 10:39:58 GMT-0800 (Pacific Standard Time)","Thu Jan 30 2020 10:53:56 GMT-0800 (Pacific Standard Time)","Mozilla/5.0 (Windows NT 10.0; Win64; x64) AppleWebKit/537.36 (KHTML, like Gecko) Chrome/79.0.3945.130 Safari/537.36",5,"[0.9, 0.5, 0.1]","[0.8, 0.4, 0.2]","[u'blue', u'red', u'black']","[u'left', u'middle', u'right']","[0.9, 0.5, 0.1]","[u'low', u'medium', u'high']","black",51,"right","high","True","False",890,200,NA
"A2SJC9VRBGNC58","Thu Jan 30 2020 10:39:58 GMT-0800 (Pacific Standard Time)","Thu Jan 30 2020 10:53:56 GMT-0800 (Pacific Standard Time)","Mozilla/5.0 (Windows NT 10.0; Win64; x64) AppleWebKit/537.36 (KHTML, like Gecko) Chrome/79.0.3945.130 Safari/537.36",6,"[0.9, 0.5, 0.1]","[0.8, 0.4, 0.2]","[u'blue', u'red', u'black']","[u'left', u'middle', u'right']","[0.9, 0.5, 0.1]","[u'low', u'medium', u'high']","black",51,"right","high","True","False",506,300,NA
"A2SJC9VRBGNC58","Thu Jan 30 2020 10:39:58 GMT-0800 (Pacific Standard Time)","Thu Jan 30 2020 10:53:56 GMT-0800 (Pacific Standard Time)","Mozilla/5.0 (Windows NT 10.0; Win64; x64) AppleWebKit/537.36 (KHTML, like Gecko) Chrome/79.0.3945.130 Safari/537.36",7,"[0.9, 0.5, 0.1]","[0.8, 0.4, 0.2]","[u'blue', u'red', u'black']","[u'left', u'middle', u'right']","[0.9, 0.5, 0.1]","[u'low', u'medium', u'high']","black",51,"right","high","True","False",546,400,NA
"A2SJC9VRBGNC58","Thu Jan 30 2020 10:39:58 GMT-0800 (Pacific Standard Time)","Thu Jan 30 2020 10:53:56 GMT-0800 (Pacific Standard Time)","Mozilla/5.0 (Windows NT 10.0; Win64; x64) AppleWebKit/537.36 (KHTML, like Gecko) Chrome/79.0.3945.130 Safari/537.36",8,"[0.9, 0.5, 0.1]","[0.8, 0.4, 0.2]","[u'blue', u'red', u'black']","[u'left', u'middle', u'right']","[0.9, 0.5, 0.1]","[u'low', u'medium', u'high']","black",51,"right","high","True","False",435,500,NA
"A2SJC9VRBGNC58","Thu Jan 30 2020 10:39:58 GMT-0800 (Pacific Standard Time)","Thu Jan 30 2020 10:53:56 GMT-0800 (Pacific Standard Time)","Mozilla/5.0 (Windows NT 10.0; Win64; x64) AppleWebKit/537.36 (KHTML, like Gecko) Chrome/79.0.3945.130 Safari/537.36",9,"[0.9, 0.5, 0.1]","[0.8, 0.4, 0.2]","[u'blue', u'red', u'black']","[u'left', u'middle', u'right']","[0.9, 0.5, 0.1]","[u'low', u'medium', u'high']","black",51,"right","high","True","False",499,600,NA
"A2SJC9VRBGNC58","Thu Jan 30 2020 10:39:58 GMT-0800 (Pacific Standard Time)","Thu Jan 30 2020 10:53:56 GMT-0800 (Pacific Standard Time)","Mozilla/5.0 (Windows NT 10.0; Win64; x64) AppleWebKit/537.36 (KHTML, like Gecko) Chrome/79.0.3945.130 Safari/537.36",10,"[0.9, 0.5, 0.1]","[0.8, 0.4, 0.2]","[u'blue', u'red', u'black']","[u'left', u'middle', u'right']","[0.9, 0.5, 0.1]","[u'low', u'medium', u'high']","black",51,"right","high","True","False",443,700,NA
"A2SJC9VRBGNC58","Thu Jan 30 2020 10:39:58 GMT-0800 (Pacific Standard Time)","Thu Jan 30 2020 10:53:56 GMT-0800 (Pacific Standard Time)","Mozilla/5.0 (Windows NT 10.0; Win64; x64) AppleWebKit/537.36 (KHTML, like Gecko) Chrome/79.0.3945.130 Safari/537.36",11,"[0.9, 0.5, 0.1]","[0.8, 0.4, 0.2]","[u'blue', u'red', u'black']","[u'left', u'middle', u'right']","[0.9, 0.5, 0.1]","[u'low', u'medium', u'high']","black",51,"right","high","True","False",459,800,NA
"A2SJC9VRBGNC58","Thu Jan 30 2020 10:39:58 GMT-0800 (Pacific Standard Time)","Thu Jan 30 2020 10:53:56 GMT-0800 (Pacific Standard Time)","Mozilla/5.0 (Windows NT 10.0; Win64; x64) AppleWebKit/537.36 (KHTML, like Gecko) Chrome/79.0.3945.130 Safari/537.36",12,"[0.9, 0.5, 0.1]","[0.8, 0.4, 0.2]","[u'blue', u'red', u'black']","[u'left', u'middle', u'right']","[0.9, 0.5, 0.1]","[u'low', u'medium', u'high']","black",51,"right","high","True","False",569,900,NA
"A2SJC9VRBGNC58","Thu Jan 30 2020 10:39:58 GMT-0800 (Pacific Standard Time)","Thu Jan 30 2020 10:53:56 GMT-0800 (Pacific Standard Time)","Mozilla/5.0 (Windows NT 10.0; Win64; x64) AppleWebKit/537.36 (KHTML, like Gecko) Chrome/79.0.3945.130 Safari/537.36",13,"[0.9, 0.5, 0.1]","[0.8, 0.4, 0.2]","[u'blue', u'red', u'black']","[u'left', u'middle', u'right']","[0.9, 0.5, 0.1]","[u'low', u'medium', u'high']","black",51,"right","high","True","True",836,1000,NA
"A2SJC9VRBGNC58","Thu Jan 30 2020 10:39:58 GMT-0800 (Pacific Standard Time)","Thu Jan 30 2020 10:53:56 GMT-0800 (Pacific Standard Time)","Mozilla/5.0 (Windows NT 10.0; Win64; x64) AppleWebKit/537.36 (KHTML, like Gecko) Chrome/79.0.3945.130 Safari/537.36",14,"[0.9, 0.5, 0.1]","[0.8, 0.4, 0.2]","[u'blue', u'red', u'black']","[u'left', u'middle', u'right']","[0.9, 0.5, 0.1]","[u'medium', u'high', u'low']","black",51,"right","low","False","False",649,950,NA
"A2SJC9VRBGNC58","Thu Jan 30 2020 10:39:58 GMT-0800 (Pacific Standard Time)","Thu Jan 30 2020 10:53:56 GMT-0800 (Pacific Standard Time)","Mozilla/5.0 (Windows NT 10.0; Win64; x64) AppleWebKit/537.36 (KHTML, like Gecko) Chrome/79.0.3945.130 Safari/537.36",15,"[0.9, 0.5, 0.1]","[0.8, 0.4, 0.2]","[u'blue', u'red', u'black']","[u'left', u'middle', u'right']","[0.9, 0.5, 0.1]","[u'medium', u'high', u'low']","blue",49,"left","medium","False","False",1467,900,NA
"A2SJC9VRBGNC58","Thu Jan 30 2020 10:39:58 GMT-0800 (Pacific Standard Time)","Thu Jan 30 2020 10:53:56 GMT-0800 (Pacific Standard Time)","Mozilla/5.0 (Windows NT 10.0; Win64; x64) AppleWebKit/537.36 (KHTML, like Gecko) Chrome/79.0.3945.130 Safari/537.36",16,"[0.9, 0.5, 0.1]","[0.8, 0.4, 0.2]","[u'blue', u'red', u'black']","[u'left', u'middle', u'right']","[0.9, 0.5, 0.1]","[u'medium', u'high', u'low']","red",50,"middle","high","True","False",1084,1000,NA
"A2SJC9VRBGNC58","Thu Jan 30 2020 10:39:58 GMT-0800 (Pacific Standard Time)","Thu Jan 30 2020 10:53:56 GMT-0800 (Pacific Standard Time)","Mozilla/5.0 (Windows NT 10.0; Win64; x64) AppleWebKit/537.36 (KHTML, like Gecko) Chrome/79.0.3945.130 Safari/537.36",17,"[0.9, 0.5, 0.1]","[0.8, 0.4, 0.2]","[u'blue', u'red', u'black']","[u'left', u'middle', u'right']","[0.9, 0.5, 0.1]","[u'medium', u'high', u'low']","red",50,"middle","high","True","False",579,1100,NA
"A2SJC9VRBGNC58","Thu Jan 30 2020 10:39:58 GMT-0800 (Pacific Standard Time)","Thu Jan 30 2020 10:53:56 GMT-0800 (Pacific Standard Time)","Mozilla/5.0 (Windows NT 10.0; Win64; x64) AppleWebKit/537.36 (KHTML, like Gecko) Chrome/79.0.3945.130 Safari/537.36",18,"[0.9, 0.5, 0.1]","[0.8, 0.4, 0.2]","[u'blue', u'red', u'black']","[u'left', u'middle', u'right']","[0.9, 0.5, 0.1]","[u'medium', u'high', u'low']","red",50,"middle","high","True","False",824,1200,NA
"A2SJC9VRBGNC58","Thu Jan 30 2020 10:39:58 GMT-0800 (Pacific Standard Time)","Thu Jan 30 2020 10:53:56 GMT-0800 (Pacific Standard Time)","Mozilla/5.0 (Windows NT 10.0; Win64; x64) AppleWebKit/537.36 (KHTML, like Gecko) Chrome/79.0.3945.130 Safari/537.36",19,"[0.9, 0.5, 0.1]","[0.8, 0.4, 0.2]","[u'blue', u'red', u'black']","[u'left', u'middle', u'right']","[0.9, 0.5, 0.1]","[u'medium', u'high', u'low']","red",50,"middle","high","False","False",763,1150,NA
"A2SJC9VRBGNC58","Thu Jan 30 2020 10:39:58 GMT-0800 (Pacific Standard Time)","Thu Jan 30 2020 10:53:56 GMT-0800 (Pacific Standard Time)","Mozilla/5.0 (Windows NT 10.0; Win64; x64) AppleWebKit/537.36 (KHTML, like Gecko) Chrome/79.0.3945.130 Safari/537.36",20,"[0.9, 0.5, 0.1]","[0.8, 0.4, 0.2]","[u'blue', u'red', u'black']","[u'left', u'middle', u'right']","[0.9, 0.5, 0.1]","[u'medium', u'high', u'low']","black",51,"right","low","False","False",986,1100,NA
"A2SJC9VRBGNC58","Thu Jan 30 2020 10:39:58 GMT-0800 (Pacific Standard Time)","Thu Jan 30 2020 10:53:56 GMT-0800 (Pacific Standard Time)","Mozilla/5.0 (Windows NT 10.0; Win64; x64) AppleWebKit/537.36 (KHTML, like Gecko) Chrome/79.0.3945.130 Safari/537.36",21,"[0.9, 0.5, 0.1]","[0.8, 0.4, 0.2]","[u'blue', u'red', u'black']","[u'left', u'middle', u'right']","[0.9, 0.5, 0.1]","[u'medium', u'high', u'low']","red",50,"middle","high","True","False",827,1200,NA
"A2SJC9VRBGNC58","Thu Jan 30 2020 10:39:58 GMT-0800 (Pacific Standard Time)","Thu Jan 30 2020 10:53:56 GMT-0800 (Pacific Standard Time)","Mozilla/5.0 (Windows NT 10.0; Win64; x64) AppleWebKit/537.36 (KHTML, like Gecko) Chrome/79.0.3945.130 Safari/537.36",22,"[0.9, 0.5, 0.1]","[0.8, 0.4, 0.2]","[u'blue', u'red', u'black']","[u'left', u'middle', u'right']","[0.9, 0.5, 0.1]","[u'medium', u'high', u'low']","red",50,"middle","high","True","False",578,1300,NA
"A2SJC9VRBGNC58","Thu Jan 30 2020 10:39:58 GMT-0800 (Pacific Standard Time)","Thu Jan 30 2020 10:53:56 GMT-0800 (Pacific Standard Time)","Mozilla/5.0 (Windows NT 10.0; Win64; x64) AppleWebKit/537.36 (KHTML, like Gecko) Chrome/79.0.3945.130 Safari/537.36",23,"[0.9, 0.5, 0.1]","[0.8, 0.4, 0.2]","[u'blue', u'red', u'black']","[u'left', u'middle', u'right']","[0.9, 0.5, 0.1]","[u'medium', u'high', u'low']","red",50,"middle","high","True","False",560,1400,NA
"A2SJC9VRBGNC58","Thu Jan 30 2020 10:39:58 GMT-0800 (Pacific Standard Time)","Thu Jan 30 2020 10:53:56 GMT-0800 (Pacific Standard Time)","Mozilla/5.0 (Windows NT 10.0; Win64; x64) AppleWebKit/537.36 (KHTML, like Gecko) Chrome/79.0.3945.130 Safari/537.36",24,"[0.9, 0.5, 0.1]","[0.8, 0.4, 0.2]","[u'blue', u'red', u'black']","[u'left', u'middle', u'right']","[0.9, 0.5, 0.1]","[u'medium', u'high', u'low']","red",50,"middle","high","True","False",506,1500,NA
"A2SJC9VRBGNC58","Thu Jan 30 2020 10:39:58 GMT-0800 (Pacific Standard Time)","Thu Jan 30 2020 10:53:56 GMT-0800 (Pacific Standard Time)","Mozilla/5.0 (Windows NT 10.0; Win64; x64) AppleWebKit/537.36 (KHTML, like Gecko) Chrome/79.0.3945.130 Safari/537.36",25,"[0.9, 0.5, 0.1]","[0.8, 0.4, 0.2]","[u'blue', u'red', u'black']","[u'left', u'middle', u'right']","[0.9, 0.5, 0.1]","[u'medium', u'high', u'low']","red",50,"middle","high","True","True",644,1600,NA
"A2SJC9VRBGNC58","Thu Jan 30 2020 10:39:58 GMT-0800 (Pacific Standard Time)","Thu Jan 30 2020 10:53:56 GMT-0800 (Pacific Standard Time)","Mozilla/5.0 (Windows NT 10.0; Win64; x64) AppleWebKit/537.36 (KHTML, like Gecko) Chrome/79.0.3945.130 Safari/537.36",26,"[0.9, 0.5, 0.1]","[0.8, 0.4, 0.2]","[u'blue', u'red', u'black']","[u'left', u'middle', u'right']","[0.9, 0.5, 0.1]","[u'low', u'medium', u'high']","red",50,"middle","medium","True","False",549,1700,NA
"A2SJC9VRBGNC58","Thu Jan 30 2020 10:39:58 GMT-0800 (Pacific Standard Time)","Thu Jan 30 2020 10:53:56 GMT-0800 (Pacific Standard Time)","Mozilla/5.0 (Windows NT 10.0; Win64; x64) AppleWebKit/537.36 (KHTML, like Gecko) Chrome/79.0.3945.130 Safari/537.36",27,"[0.9, 0.5, 0.1]","[0.8, 0.4, 0.2]","[u'blue', u'red', u'black']","[u'left', u'middle', u'right']","[0.9, 0.5, 0.1]","[u'low', u'medium', u'high']","red",50,"middle","medium","False","False",577,1650,NA
"A2SJC9VRBGNC58","Thu Jan 30 2020 10:39:58 GMT-0800 (Pacific Standard Time)","Thu Jan 30 2020 10:53:56 GMT-0800 (Pacific Standard Time)","Mozilla/5.0 (Windows NT 10.0; Win64; x64) AppleWebKit/537.36 (KHTML, like Gecko) Chrome/79.0.3945.130 Safari/537.36",28,"[0.9, 0.5, 0.1]","[0.8, 0.4, 0.2]","[u'blue', u'red', u'black']","[u'left', u'middle', u'right']","[0.9, 0.5, 0.1]","[u'low', u'medium', u'high']","black",51,"right","high","True","False",4811,1750,NA
"A2SJC9VRBGNC58","Thu Jan 30 2020 10:39:58 GMT-0800 (Pacific Standard Time)","Thu Jan 30 2020 10:53:56 GMT-0800 (Pacific Standard Time)","Mozilla/5.0 (Windows NT 10.0; Win64; x64) AppleWebKit/537.36 (KHTML, like Gecko) Chrome/79.0.3945.130 Safari/537.36",29,"[0.9, 0.5, 0.1]","[0.8, 0.4, 0.2]","[u'blue', u'red', u'black']","[u'left', u'middle', u'right']","[0.9, 0.5, 0.1]","[u'low', u'medium', u'high']","black",51,"right","high","True","False",542,1850,NA
"A2SJC9VRBGNC58","Thu Jan 30 2020 10:39:58 GMT-0800 (Pacific Standard Time)","Thu Jan 30 2020 10:53:56 GMT-0800 (Pacific Standard Time)","Mozilla/5.0 (Windows NT 10.0; Win64; x64) AppleWebKit/537.36 (KHTML, like Gecko) Chrome/79.0.3945.130 Safari/537.36",30,"[0.9, 0.5, 0.1]","[0.8, 0.4, 0.2]","[u'blue', u'red', u'black']","[u'left', u'middle', u'right']","[0.9, 0.5, 0.1]","[u'low', u'medium', u'high']","black",51,"right","high","True","False",520,1950,NA
"A2SJC9VRBGNC58","Thu Jan 30 2020 10:39:58 GMT-0800 (Pacific Standard Time)","Thu Jan 30 2020 10:53:56 GMT-0800 (Pacific Standard Time)","Mozilla/5.0 (Windows NT 10.0; Win64; x64) AppleWebKit/537.36 (KHTML, like Gecko) Chrome/79.0.3945.130 Safari/537.36",31,"[0.9, 0.5, 0.1]","[0.8, 0.4, 0.2]","[u'blue', u'red', u'black']","[u'left', u'middle', u'right']","[0.9, 0.5, 0.1]","[u'low', u'medium', u'high']","black",51,"right","high","True","False",491,2050,NA
"A2SJC9VRBGNC58","Thu Jan 30 2020 10:39:58 GMT-0800 (Pacific Standard Time)","Thu Jan 30 2020 10:53:56 GMT-0800 (Pacific Standard Time)","Mozilla/5.0 (Windows NT 10.0; Win64; x64) AppleWebKit/537.36 (KHTML, like Gecko) Chrome/79.0.3945.130 Safari/537.36",32,"[0.9, 0.5, 0.1]","[0.8, 0.4, 0.2]","[u'blue', u'red', u'black']","[u'left', u'middle', u'right']","[0.9, 0.5, 0.1]","[u'low', u'medium', u'high']","black",51,"right","high","True","False",520,2150,NA
"A2SJC9VRBGNC58","Thu Jan 30 2020 10:39:58 GMT-0800 (Pacific Standard Time)","Thu Jan 30 2020 10:53:56 GMT-0800 (Pacific Standard Time)","Mozilla/5.0 (Windows NT 10.0; Win64; x64) AppleWebKit/537.36 (KHTML, like Gecko) Chrome/79.0.3945.130 Safari/537.36",33,"[0.9, 0.5, 0.1]","[0.8, 0.4, 0.2]","[u'blue', u'red', u'black']","[u'left', u'middle', u'right']","[0.9, 0.5, 0.1]","[u'low', u'medium', u'high']","black",51,"right","high","True","False",507,2250,NA
"A2SJC9VRBGNC58","Thu Jan 30 2020 10:39:58 GMT-0800 (Pacific Standard Time)","Thu Jan 30 2020 10:53:56 GMT-0800 (Pacific Standard Time)","Mozilla/5.0 (Windows NT 10.0; Win64; x64) AppleWebKit/537.36 (KHTML, like Gecko) Chrome/79.0.3945.130 Safari/537.36",34,"[0.9, 0.5, 0.1]","[0.8, 0.4, 0.2]","[u'blue', u'red', u'black']","[u'left', u'middle', u'right']","[0.9, 0.5, 0.1]","[u'low', u'medium', u'high']","black",51,"right","high","True","False",942,2350,NA
"A2SJC9VRBGNC58","Thu Jan 30 2020 10:39:58 GMT-0800 (Pacific Standard Time)","Thu Jan 30 2020 10:53:56 GMT-0800 (Pacific Standard Time)","Mozilla/5.0 (Windows NT 10.0; Win64; x64) AppleWebKit/537.36 (KHTML, like Gecko) Chrome/79.0.3945.130 Safari/537.36",35,"[0.9, 0.5, 0.1]","[0.8, 0.4, 0.2]","[u'blue', u'red', u'black']","[u'left', u'middle', u'right']","[0.9, 0.5, 0.1]","[u'low', u'medium', u'high']","black",51,"right","high","True","False",944,2450,NA
"A2SJC9VRBGNC58","Thu Jan 30 2020 10:39:58 GMT-0800 (Pacific Standard Time)","Thu Jan 30 2020 10:53:56 GMT-0800 (Pacific Standard Time)","Mozilla/5.0 (Windows NT 10.0; Win64; x64) AppleWebKit/537.36 (KHTML, like Gecko) Chrome/79.0.3945.130 Safari/537.36",36,"[0.9, 0.5, 0.1]","[0.8, 0.4, 0.2]","[u'blue', u'red', u'black']","[u'left', u'middle', u'right']","[0.9, 0.5, 0.1]","[u'low', u'medium', u'high']","red",50,"middle","medium","False","False",11306,2400,NA
"A2SJC9VRBGNC58","Thu Jan 30 2020 10:39:58 GMT-0800 (Pacific Standard Time)","Thu Jan 30 2020 10:53:56 GMT-0800 (Pacific Standard Time)","Mozilla/5.0 (Windows NT 10.0; Win64; x64) AppleWebKit/537.36 (KHTML, like Gecko) Chrome/79.0.3945.130 Safari/537.36",37,"[0.9, 0.5, 0.1]","[0.8, 0.4, 0.2]","[u'blue', u'red', u'black']","[u'left', u'middle', u'right']","[0.9, 0.5, 0.1]","[u'low', u'medium', u'high']","black",51,"right","high","True","True",827,2500,NA
"A2SJC9VRBGNC58","Thu Jan 30 2020 10:39:58 GMT-0800 (Pacific Standard Time)","Thu Jan 30 2020 10:53:56 GMT-0800 (Pacific Standard Time)","Mozilla/5.0 (Windows NT 10.0; Win64; x64) AppleWebKit/537.36 (KHTML, like Gecko) Chrome/79.0.3945.130 Safari/537.36",38,"[0.9, 0.5, 0.1]","[0.8, 0.4, 0.2]","[u'blue', u'red', u'black']","[u'left', u'middle', u'right']","[0.9, 0.5, 0.1]","[u'high', u'medium', u'low']","black",51,"right","low","False","False",605,2450,NA
"A2SJC9VRBGNC58","Thu Jan 30 2020 10:39:58 GMT-0800 (Pacific Standard Time)","Thu Jan 30 2020 10:53:56 GMT-0800 (Pacific Standard Time)","Mozilla/5.0 (Windows NT 10.0; Win64; x64) AppleWebKit/537.36 (KHTML, like Gecko) Chrome/79.0.3945.130 Safari/537.36",39,"[0.9, 0.5, 0.1]","[0.8, 0.4, 0.2]","[u'blue', u'red', u'black']","[u'left', u'middle', u'right']","[0.9, 0.5, 0.1]","[u'high', u'medium', u'low']","red",50,"middle","medium","True","False",953,2550,NA
"A2SJC9VRBGNC58","Thu Jan 30 2020 10:39:58 GMT-0800 (Pacific Standard Time)","Thu Jan 30 2020 10:53:56 GMT-0800 (Pacific Standard Time)","Mozilla/5.0 (Windows NT 10.0; Win64; x64) AppleWebKit/537.36 (KHTML, like Gecko) Chrome/79.0.3945.130 Safari/537.36",40,"[0.9, 0.5, 0.1]","[0.8, 0.4, 0.2]","[u'blue', u'red', u'black']","[u'left', u'middle', u'right']","[0.9, 0.5, 0.1]","[u'high', u'medium', u'low']","red",50,"middle","medium","True","False",724,2650,NA
"A2SJC9VRBGNC58","Thu Jan 30 2020 10:39:58 GMT-0800 (Pacific Standard Time)","Thu Jan 30 2020 10:53:56 GMT-0800 (Pacific Standard Time)","Mozilla/5.0 (Windows NT 10.0; Win64; x64) AppleWebKit/537.36 (KHTML, like Gecko) Chrome/79.0.3945.130 Safari/537.36",41,"[0.9, 0.5, 0.1]","[0.8, 0.4, 0.2]","[u'blue', u'red', u'black']","[u'left', u'middle', u'right']","[0.9, 0.5, 0.1]","[u'low', u'medium', u'high']","red",50,"middle","medium","True","False",1569,2750,NA
"A2SJC9VRBGNC58","Thu Jan 30 2020 10:39:58 GMT-0800 (Pacific Standard Time)","Thu Jan 30 2020 10:53:56 GMT-0800 (Pacific Standard Time)","Mozilla/5.0 (Windows NT 10.0; Win64; x64) AppleWebKit/537.36 (KHTML, like Gecko) Chrome/79.0.3945.130 Safari/537.36",42,"[0.9, 0.5, 0.1]","[0.8, 0.4, 0.2]","[u'blue', u'red', u'black']","[u'left', u'middle', u'right']","[0.9, 0.5, 0.1]","[u'low', u'medium', u'high']","red",50,"middle","medium","True","False",891,2850,NA
"A2SJC9VRBGNC58","Thu Jan 30 2020 10:39:58 GMT-0800 (Pacific Standard Time)","Thu Jan 30 2020 10:53:56 GMT-0800 (Pacific Standard Time)","Mozilla/5.0 (Windows NT 10.0; Win64; x64) AppleWebKit/537.36 (KHTML, like Gecko) Chrome/79.0.3945.130 Safari/537.36",43,"[0.9, 0.5, 0.1]","[0.8, 0.4, 0.2]","[u'blue', u'red', u'black']","[u'left', u'middle', u'right']","[0.9, 0.5, 0.1]","[u'low', u'medium', u'high']","red",50,"middle","medium","True","False",626,2950,NA
"A2SJC9VRBGNC58","Thu Jan 30 2020 10:39:58 GMT-0800 (Pacific Standard Time)","Thu Jan 30 2020 10:53:56 GMT-0800 (Pacific Standard Time)","Mozilla/5.0 (Windows NT 10.0; Win64; x64) AppleWebKit/537.36 (KHTML, like Gecko) Chrome/79.0.3945.130 Safari/537.36",44,"[0.9, 0.5, 0.1]","[0.8, 0.4, 0.2]","[u'blue', u'red', u'black']","[u'left', u'middle', u'right']","[0.9, 0.5, 0.1]","[u'low', u'medium', u'high']","red",50,"middle","medium","True","False",3395,3050,NA
"A2SJC9VRBGNC58","Thu Jan 30 2020 10:39:58 GMT-0800 (Pacific Standard Time)","Thu Jan 30 2020 10:53:56 GMT-0800 (Pacific Standard Time)","Mozilla/5.0 (Windows NT 10.0; Win64; x64) AppleWebKit/537.36 (KHTML, like Gecko) Chrome/79.0.3945.130 Safari/537.36",45,"[0.9, 0.5, 0.1]","[0.8, 0.4, 0.2]","[u'blue', u'red', u'black']","[u'left', u'middle', u'right']","[0.9, 0.5, 0.1]","[u'low', u'medium', u'high']","red",50,"middle","medium","False","False",690,3000,NA
"A2SJC9VRBGNC58","Thu Jan 30 2020 10:39:58 GMT-0800 (Pacific Standard Time)","Thu Jan 30 2020 10:53:56 GMT-0800 (Pacific Standard Time)","Mozilla/5.0 (Windows NT 10.0; Win64; x64) AppleWebKit/537.36 (KHTML, like Gecko) Chrome/79.0.3945.130 Safari/537.36",46,"[0.9, 0.5, 0.1]","[0.8, 0.4, 0.2]","[u'blue', u'red', u'black']","[u'left', u'middle', u'right']","[0.9, 0.5, 0.1]","[u'low', u'medium', u'high']","black",51,"right","high","True","False",1173,3100,NA
"A2SJC9VRBGNC58","Thu Jan 30 2020 10:39:58 GMT-0800 (Pacific Standard Time)","Thu Jan 30 2020 10:53:56 GMT-0800 (Pacific Standard Time)","Mozilla/5.0 (Windows NT 10.0; Win64; x64) AppleWebKit/537.36 (KHTML, like Gecko) Chrome/79.0.3945.130 Safari/537.36",47,"[0.9, 0.5, 0.1]","[0.8, 0.4, 0.2]","[u'blue', u'red', u'black']","[u'left', u'middle', u'right']","[0.9, 0.5, 0.1]","[u'low', u'medium', u'high']","black",51,"right","high","True","False",714,3200,NA
"A2SJC9VRBGNC58","Thu Jan 30 2020 10:39:58 GMT-0800 (Pacific Standard Time)","Thu Jan 30 2020 10:53:56 GMT-0800 (Pacific Standard Time)","Mozilla/5.0 (Windows NT 10.0; Win64; x64) AppleWebKit/537.36 (KHTML, like Gecko) Chrome/79.0.3945.130 Safari/537.36",48,"[0.9, 0.5, 0.1]","[0.8, 0.4, 0.2]","[u'blue', u'red', u'black']","[u'left', u'middle', u'right']","[0.9, 0.5, 0.1]","[u'low', u'medium', u'high']","black",51,"right","high","True","False",553,3300,NA
"A2SJC9VRBGNC58","Thu Jan 30 2020 10:39:58 GMT-0800 (Pacific Standard Time)","Thu Jan 30 2020 10:53:56 GMT-0800 (Pacific Standard Time)","Mozilla/5.0 (Windows NT 10.0; Win64; x64) AppleWebKit/537.36 (KHTML, like Gecko) Chrome/79.0.3945.130 Safari/537.36",49,"[0.9, 0.5, 0.1]","[0.8, 0.4, 0.2]","[u'blue', u'red', u'black']","[u'left', u'middle', u'right']","[0.9, 0.5, 0.1]","[u'low', u'medium', u'high']","black",51,"right","high","True","False",675,3400,NA
"A2SJC9VRBGNC58","Thu Jan 30 2020 10:39:58 GMT-0800 (Pacific Standard Time)","Thu Jan 30 2020 10:53:56 GMT-0800 (Pacific Standard Time)","Mozilla/5.0 (Windows NT 10.0; Win64; x64) AppleWebKit/537.36 (KHTML, like Gecko) Chrome/79.0.3945.130 Safari/537.36",50,"[0.9, 0.5, 0.1]","[0.8, 0.4, 0.2]","[u'blue', u'red', u'black']","[u'left', u'middle', u'right']","[0.9, 0.5, 0.1]","[u'low', u'medium', u'high']","black",51,"right","high","True","False",515,3500,NA
"A2SJC9VRBGNC58","Thu Jan 30 2020 10:39:58 GMT-0800 (Pacific Standard Time)","Thu Jan 30 2020 10:53:56 GMT-0800 (Pacific Standard Time)","Mozilla/5.0 (Windows NT 10.0; Win64; x64) AppleWebKit/537.36 (KHTML, like Gecko) Chrome/79.0.3945.130 Safari/537.36",51,"[0.9, 0.5, 0.1]","[0.8, 0.4, 0.2]","[u'blue', u'red', u'black']","[u'left', u'middle', u'right']","[0.9, 0.5, 0.1]","[u'low', u'medium', u'high']","black",51,"right","high","True","False",531,3600,NA
"A2SJC9VRBGNC58","Thu Jan 30 2020 10:39:58 GMT-0800 (Pacific Standard Time)","Thu Jan 30 2020 10:53:56 GMT-0800 (Pacific Standard Time)","Mozilla/5.0 (Windows NT 10.0; Win64; x64) AppleWebKit/537.36 (KHTML, like Gecko) Chrome/79.0.3945.130 Safari/537.36",52,"[0.9, 0.5, 0.1]","[0.8, 0.4, 0.2]","[u'blue', u'red', u'black']","[u'left', u'middle', u'right']","[0.9, 0.5, 0.1]","[u'low', u'medium', u'high']","black",51,"right","high","True","False",489,3700,NA
"A2SJC9VRBGNC58","Thu Jan 30 2020 10:39:58 GMT-0800 (Pacific Standard Time)","Thu Jan 30 2020 10:53:56 GMT-0800 (Pacific Standard Time)","Mozilla/5.0 (Windows NT 10.0; Win64; x64) AppleWebKit/537.36 (KHTML, like Gecko) Chrome/79.0.3945.130 Safari/537.36",53,"[0.9, 0.5, 0.1]","[0.8, 0.4, 0.2]","[u'blue', u'red', u'black']","[u'left', u'middle', u'right']","[0.9, 0.5, 0.1]","[u'low', u'medium', u'high']","black",51,"right","high","True","False",572,3800,NA
"A2SJC9VRBGNC58","Thu Jan 30 2020 10:39:58 GMT-0800 (Pacific Standard Time)","Thu Jan 30 2020 10:53:56 GMT-0800 (Pacific Standard Time)","Mozilla/5.0 (Windows NT 10.0; Win64; x64) AppleWebKit/537.36 (KHTML, like Gecko) Chrome/79.0.3945.130 Safari/537.36",54,"[0.9, 0.5, 0.1]","[0.8, 0.4, 0.2]","[u'blue', u'red', u'black']","[u'left', u'middle', u'right']","[0.9, 0.5, 0.1]","[u'low', u'medium', u'high']","black",51,"right","high","True","True",634,3900,NA
"A2SJC9VRBGNC58","Thu Jan 30 2020 10:39:58 GMT-0800 (Pacific Standard Time)","Thu Jan 30 2020 10:53:56 GMT-0800 (Pacific Standard Time)","Mozilla/5.0 (Windows NT 10.0; Win64; x64) AppleWebKit/537.36 (KHTML, like Gecko) Chrome/79.0.3945.130 Safari/537.36",55,"[0.9, 0.5, 0.1]","[0.8, 0.4, 0.2]","[u'blue', u'red', u'black']","[u'left', u'middle', u'right']","[0.9, 0.5, 0.1]","[u'medium', u'high', u'low']","black",51,"right","low","False","False",514,3850,NA
"A2SJC9VRBGNC58","Thu Jan 30 2020 10:39:58 GMT-0800 (Pacific Standard Time)","Thu Jan 30 2020 10:53:56 GMT-0800 (Pacific Standard Time)","Mozilla/5.0 (Windows NT 10.0; Win64; x64) AppleWebKit/537.36 (KHTML, like Gecko) Chrome/79.0.3945.130 Safari/537.36",56,"[0.9, 0.5, 0.1]","[0.8, 0.4, 0.2]","[u'blue', u'red', u'black']","[u'left', u'middle', u'right']","[0.9, 0.5, 0.1]","[u'medium', u'high', u'low']","red",50,"middle","high","True","False",820,3950,NA
"A2SJC9VRBGNC58","Thu Jan 30 2020 10:39:58 GMT-0800 (Pacific Standard Time)","Thu Jan 30 2020 10:53:56 GMT-0800 (Pacific Standard Time)","Mozilla/5.0 (Windows NT 10.0; Win64; x64) AppleWebKit/537.36 (KHTML, like Gecko) Chrome/79.0.3945.130 Safari/537.36",57,"[0.9, 0.5, 0.1]","[0.8, 0.4, 0.2]","[u'blue', u'red', u'black']","[u'left', u'middle', u'right']","[0.9, 0.5, 0.1]","[u'medium', u'high', u'low']","red",50,"middle","high","True","False",555,4050,NA
"A2SJC9VRBGNC58","Thu Jan 30 2020 10:39:58 GMT-0800 (Pacific Standard Time)","Thu Jan 30 2020 10:53:56 GMT-0800 (Pacific Standard Time)","Mozilla/5.0 (Windows NT 10.0; Win64; x64) AppleWebKit/537.36 (KHTML, like Gecko) Chrome/79.0.3945.130 Safari/537.36",58,"[0.9, 0.5, 0.1]","[0.8, 0.4, 0.2]","[u'blue', u'red', u'black']","[u'left', u'middle', u'right']","[0.9, 0.5, 0.1]","[u'medium', u'high', u'low']","red",50,"middle","high","True","False",640,4150,NA
"A2SJC9VRBGNC58","Thu Jan 30 2020 10:39:58 GMT-0800 (Pacific Standard Time)","Thu Jan 30 2020 10:53:56 GMT-0800 (Pacific Standard Time)","Mozilla/5.0 (Windows NT 10.0; Win64; x64) AppleWebKit/537.36 (KHTML, like Gecko) Chrome/79.0.3945.130 Safari/537.36",59,"[0.9, 0.5, 0.1]","[0.8, 0.4, 0.2]","[u'blue', u'red', u'black']","[u'left', u'middle', u'right']","[0.9, 0.5, 0.1]","[u'medium', u'high', u'low']","red",50,"middle","high","False","False",779,4100,NA
"A2SJC9VRBGNC58","Thu Jan 30 2020 10:39:58 GMT-0800 (Pacific Standard Time)","Thu Jan 30 2020 10:53:56 GMT-0800 (Pacific Standard Time)","Mozilla/5.0 (Windows NT 10.0; Win64; x64) AppleWebKit/537.36 (KHTML, like Gecko) Chrome/79.0.3945.130 Safari/537.36",60,"[0.9, 0.5, 0.1]","[0.8, 0.4, 0.2]","[u'blue', u'red', u'black']","[u'left', u'middle', u'right']","[0.9, 0.5, 0.1]","[u'medium', u'high', u'low']","black",51,"right","low","False","False",1090,4050,NA
"A2SJC9VRBGNC58","Thu Jan 30 2020 10:39:58 GMT-0800 (Pacific Standard Time)","Thu Jan 30 2020 10:53:56 GMT-0800 (Pacific Standard Time)","Mozilla/5.0 (Windows NT 10.0; Win64; x64) AppleWebKit/537.36 (KHTML, like Gecko) Chrome/79.0.3945.130 Safari/537.36",61,"[0.9, 0.5, 0.1]","[0.8, 0.4, 0.2]","[u'blue', u'red', u'black']","[u'left', u'middle', u'right']","[0.9, 0.5, 0.1]","[u'medium', u'high', u'low']","red",50,"middle","high","True","False",1125,4150,NA
"A2SJC9VRBGNC58","Thu Jan 30 2020 10:39:58 GMT-0800 (Pacific Standard Time)","Thu Jan 30 2020 10:53:56 GMT-0800 (Pacific Standard Time)","Mozilla/5.0 (Windows NT 10.0; Win64; x64) AppleWebKit/537.36 (KHTML, like Gecko) Chrome/79.0.3945.130 Safari/537.36",62,"[0.9, 0.5, 0.1]","[0.8, 0.4, 0.2]","[u'blue', u'red', u'black']","[u'left', u'middle', u'right']","[0.9, 0.5, 0.1]","[u'medium', u'high', u'low']","red",50,"middle","high","True","False",553,4250,NA
"A2SJC9VRBGNC58","Thu Jan 30 2020 10:39:58 GMT-0800 (Pacific Standard Time)","Thu Jan 30 2020 10:53:56 GMT-0800 (Pacific Standard Time)","Mozilla/5.0 (Windows NT 10.0; Win64; x64) AppleWebKit/537.36 (KHTML, like Gecko) Chrome/79.0.3945.130 Safari/537.36",63,"[0.9, 0.5, 0.1]","[0.8, 0.4, 0.2]","[u'blue', u'red', u'black']","[u'left', u'middle', u'right']","[0.9, 0.5, 0.1]","[u'medium', u'high', u'low']","red",50,"middle","high","True","False",466,4350,NA
"A2SJC9VRBGNC58","Thu Jan 30 2020 10:39:58 GMT-0800 (Pacific Standard Time)","Thu Jan 30 2020 10:53:56 GMT-0800 (Pacific Standard Time)","Mozilla/5.0 (Windows NT 10.0; Win64; x64) AppleWebKit/537.36 (KHTML, like Gecko) Chrome/79.0.3945.130 Safari/537.36",64,"[0.9, 0.5, 0.1]","[0.8, 0.4, 0.2]","[u'blue', u'red', u'black']","[u'left', u'middle', u'right']","[0.9, 0.5, 0.1]","[u'medium', u'high', u'low']","red",50,"middle","high","True","False",674,4450,NA
"A2SJC9VRBGNC58","Thu Jan 30 2020 10:39:58 GMT-0800 (Pacific Standard Time)","Thu Jan 30 2020 10:53:56 GMT-0800 (Pacific Standard Time)","Mozilla/5.0 (Windows NT 10.0; Win64; x64) AppleWebKit/537.36 (KHTML, like Gecko) Chrome/79.0.3945.130 Safari/537.36",65,"[0.9, 0.5, 0.1]","[0.8, 0.4, 0.2]","[u'blue', u'red', u'black']","[u'left', u'middle', u'right']","[0.9, 0.5, 0.1]","[u'medium', u'high', u'low']","red",50,"middle","high","True","True",754,4550,NA
"A2SJC9VRBGNC58","Thu Jan 30 2020 10:39:58 GMT-0800 (Pacific Standard Time)","Thu Jan 30 2020 10:53:56 GMT-0800 (Pacific Standard Time)","Mozilla/5.0 (Windows NT 10.0; Win64; x64) AppleWebKit/537.36 (KHTML, like Gecko) Chrome/79.0.3945.130 Safari/537.36",66,"[0.9, 0.5, 0.1]","[0.8, 0.4, 0.2]","[u'blue', u'red', u'black']","[u'left', u'middle', u'right']","[0.9, 0.5, 0.1]","[u'high', u'medium', u'low']","red",50,"middle","medium","False","False",1012,4500,NA
"A2SJC9VRBGNC58","Thu Jan 30 2020 10:39:58 GMT-0800 (Pacific Standard Time)","Thu Jan 30 2020 10:53:56 GMT-0800 (Pacific Standard Time)","Mozilla/5.0 (Windows NT 10.0; Win64; x64) AppleWebKit/537.36 (KHTML, like Gecko) Chrome/79.0.3945.130 Safari/537.36",67,"[0.9, 0.5, 0.1]","[0.8, 0.4, 0.2]","[u'blue', u'red', u'black']","[u'left', u'middle', u'right']","[0.9, 0.5, 0.1]","[u'high', u'medium', u'low']","black",51,"right","low","False","False",1360,4450,NA
"A2SJC9VRBGNC58","Thu Jan 30 2020 10:39:58 GMT-0800 (Pacific Standard Time)","Thu Jan 30 2020 10:53:56 GMT-0800 (Pacific Standard Time)","Mozilla/5.0 (Windows NT 10.0; Win64; x64) AppleWebKit/537.36 (KHTML, like Gecko) Chrome/79.0.3945.130 Safari/537.36",68,"[0.9, 0.5, 0.1]","[0.8, 0.4, 0.2]","[u'blue', u'red', u'black']","[u'left', u'middle', u'right']","[0.9, 0.5, 0.1]","[u'high', u'medium', u'low']","blue",49,"left","high","True","False",1163,4550,NA
"A2SJC9VRBGNC58","Thu Jan 30 2020 10:39:58 GMT-0800 (Pacific Standard Time)","Thu Jan 30 2020 10:53:56 GMT-0800 (Pacific Standard Time)","Mozilla/5.0 (Windows NT 10.0; Win64; x64) AppleWebKit/537.36 (KHTML, like Gecko) Chrome/79.0.3945.130 Safari/537.36",69,"[0.9, 0.5, 0.1]","[0.8, 0.4, 0.2]","[u'blue', u'red', u'black']","[u'left', u'middle', u'right']","[0.9, 0.5, 0.1]","[u'high', u'medium', u'low']","blue",49,"left","high","True","False",595,4650,NA
"A2SJC9VRBGNC58","Thu Jan 30 2020 10:39:58 GMT-0800 (Pacific Standard Time)","Thu Jan 30 2020 10:53:56 GMT-0800 (Pacific Standard Time)","Mozilla/5.0 (Windows NT 10.0; Win64; x64) AppleWebKit/537.36 (KHTML, like Gecko) Chrome/79.0.3945.130 Safari/537.36",70,"[0.9, 0.5, 0.1]","[0.8, 0.4, 0.2]","[u'blue', u'red', u'black']","[u'left', u'middle', u'right']","[0.9, 0.5, 0.1]","[u'high', u'medium', u'low']","blue",49,"left","high","True","False",682,4750,NA
"A2SJC9VRBGNC58","Thu Jan 30 2020 10:39:58 GMT-0800 (Pacific Standard Time)","Thu Jan 30 2020 10:53:56 GMT-0800 (Pacific Standard Time)","Mozilla/5.0 (Windows NT 10.0; Win64; x64) AppleWebKit/537.36 (KHTML, like Gecko) Chrome/79.0.3945.130 Safari/537.36",71,"[0.9, 0.5, 0.1]","[0.8, 0.4, 0.2]","[u'blue', u'red', u'black']","[u'left', u'middle', u'right']","[0.9, 0.5, 0.1]","[u'high', u'medium', u'low']","blue",49,"left","high","True","False",628,4850,NA
"A2SJC9VRBGNC58","Thu Jan 30 2020 10:39:58 GMT-0800 (Pacific Standard Time)","Thu Jan 30 2020 10:53:56 GMT-0800 (Pacific Standard Time)","Mozilla/5.0 (Windows NT 10.0; Win64; x64) AppleWebKit/537.36 (KHTML, like Gecko) Chrome/79.0.3945.130 Safari/537.36",72,"[0.9, 0.5, 0.1]","[0.8, 0.4, 0.2]","[u'blue', u'red', u'black']","[u'left', u'middle', u'right']","[0.9, 0.5, 0.1]","[u'high', u'medium', u'low']","blue",49,"left","high","True","False",542,4950,NA
"A2SJC9VRBGNC58","Thu Jan 30 2020 10:39:58 GMT-0800 (Pacific Standard Time)","Thu Jan 30 2020 10:53:56 GMT-0800 (Pacific Standard Time)","Mozilla/5.0 (Windows NT 10.0; Win64; x64) AppleWebKit/537.36 (KHTML, like Gecko) Chrome/79.0.3945.130 Safari/537.36",73,"[0.9, 0.5, 0.1]","[0.8, 0.4, 0.2]","[u'blue', u'red', u'black']","[u'left', u'middle', u'right']","[0.9, 0.5, 0.1]","[u'high', u'medium', u'low']","blue",49,"left","high","True","False",1324,5050,NA
"A2SJC9VRBGNC58","Thu Jan 30 2020 10:39:58 GMT-0800 (Pacific Standard Time)","Thu Jan 30 2020 10:53:56 GMT-0800 (Pacific Standard Time)","Mozilla/5.0 (Windows NT 10.0; Win64; x64) AppleWebKit/537.36 (KHTML, like Gecko) Chrome/79.0.3945.130 Safari/537.36",74,"[0.9, 0.5, 0.1]","[0.8, 0.4, 0.2]","[u'blue', u'red', u'black']","[u'left', u'middle', u'right']","[0.9, 0.5, 0.1]","[u'high', u'medium', u'low']","blue",49,"left","high","True","False",811,5150,NA
"A2SJC9VRBGNC58","Thu Jan 30 2020 10:39:58 GMT-0800 (Pacific Standard Time)","Thu Jan 30 2020 10:53:56 GMT-0800 (Pacific Standard Time)","Mozilla/5.0 (Windows NT 10.0; Win64; x64) AppleWebKit/537.36 (KHTML, like Gecko) Chrome/79.0.3945.130 Safari/537.36",75,"[0.9, 0.5, 0.1]","[0.8, 0.4, 0.2]","[u'blue', u'red', u'black']","[u'left', u'middle', u'right']","[0.9, 0.5, 0.1]","[u'high', u'medium', u'low']","blue",49,"left","high","True","False",618,5250,NA
"A2SJC9VRBGNC58","Thu Jan 30 2020 10:39:58 GMT-0800 (Pacific Standard Time)","Thu Jan 30 2020 10:53:56 GMT-0800 (Pacific Standard Time)","Mozilla/5.0 (Windows NT 10.0; Win64; x64) AppleWebKit/537.36 (KHTML, like Gecko) Chrome/79.0.3945.130 Safari/537.36",76,"[0.9, 0.5, 0.1]","[0.8, 0.4, 0.2]","[u'blue', u'red', u'black']","[u'left', u'middle', u'right']","[0.9, 0.5, 0.1]","[u'high', u'medium', u'low']","blue",49,"left","high","True","True",1187,5350,NA
"A2SJC9VRBGNC58","Thu Jan 30 2020 10:39:58 GMT-0800 (Pacific Standard Time)","Thu Jan 30 2020 10:53:56 GMT-0800 (Pacific Standard Time)","Mozilla/5.0 (Windows NT 10.0; Win64; x64) AppleWebKit/537.36 (KHTML, like Gecko) Chrome/79.0.3945.130 Safari/537.36",77,"[0.9, 0.5, 0.1]","[0.8, 0.4, 0.2]","[u'blue', u'red', u'black']","[u'left', u'middle', u'right']","[0.9, 0.5, 0.1]","[u'medium', u'low', u'high']","blue",49,"left","medium","False","False",850,5300,NA
"A2SJC9VRBGNC58","Thu Jan 30 2020 10:39:58 GMT-0800 (Pacific Standard Time)","Thu Jan 30 2020 10:53:56 GMT-0800 (Pacific Standard Time)","Mozilla/5.0 (Windows NT 10.0; Win64; x64) AppleWebKit/537.36 (KHTML, like Gecko) Chrome/79.0.3945.130 Safari/537.36",78,"[0.9, 0.5, 0.1]","[0.8, 0.4, 0.2]","[u'blue', u'red', u'black']","[u'left', u'middle', u'right']","[0.9, 0.5, 0.1]","[u'medium', u'low', u'high']","red",50,"middle","low","False","False",587,5250,NA
"A2SJC9VRBGNC58","Thu Jan 30 2020 10:39:58 GMT-0800 (Pacific Standard Time)","Thu Jan 30 2020 10:53:56 GMT-0800 (Pacific Standard Time)","Mozilla/5.0 (Windows NT 10.0; Win64; x64) AppleWebKit/537.36 (KHTML, like Gecko) Chrome/79.0.3945.130 Safari/537.36",79,"[0.9, 0.5, 0.1]","[0.8, 0.4, 0.2]","[u'blue', u'red', u'black']","[u'left', u'middle', u'right']","[0.9, 0.5, 0.1]","[u'medium', u'low', u'high']","black",51,"right","high","True","False",1163,5350,NA
"A2SJC9VRBGNC58","Thu Jan 30 2020 10:39:58 GMT-0800 (Pacific Standard Time)","Thu Jan 30 2020 10:53:56 GMT-0800 (Pacific Standard Time)","Mozilla/5.0 (Windows NT 10.0; Win64; x64) AppleWebKit/537.36 (KHTML, like Gecko) Chrome/79.0.3945.130 Safari/537.36",80,"[0.9, 0.5, 0.1]","[0.8, 0.4, 0.2]","[u'blue', u'red', u'black']","[u'left', u'middle', u'right']","[0.9, 0.5, 0.1]","[u'medium', u'low', u'high']","black",51,"right","high","True","False",497,5450,NA
"A2SJC9VRBGNC58","Thu Jan 30 2020 10:39:58 GMT-0800 (Pacific Standard Time)","Thu Jan 30 2020 10:53:56 GMT-0800 (Pacific Standard Time)","Mozilla/5.0 (Windows NT 10.0; Win64; x64) AppleWebKit/537.36 (KHTML, like Gecko) Chrome/79.0.3945.130 Safari/537.36",81,"[0.9, 0.5, 0.1]","[0.8, 0.4, 0.2]","[u'blue', u'red', u'black']","[u'left', u'middle', u'right']","[0.8, 0.4, 0.2]","[u'high', u'medium', u'low']","red",50,"middle","medium","True","False",1706,5550,NA
"A2SJC9VRBGNC58","Thu Jan 30 2020 10:39:58 GMT-0800 (Pacific Standard Time)","Thu Jan 30 2020 10:53:56 GMT-0800 (Pacific Standard Time)","Mozilla/5.0 (Windows NT 10.0; Win64; x64) AppleWebKit/537.36 (KHTML, like Gecko) Chrome/79.0.3945.130 Safari/537.36",82,"[0.9, 0.5, 0.1]","[0.8, 0.4, 0.2]","[u'blue', u'red', u'black']","[u'left', u'middle', u'right']","[0.8, 0.4, 0.2]","[u'high', u'medium', u'low']","red",50,"middle","medium","False","False",466,5500,NA
"A2SJC9VRBGNC58","Thu Jan 30 2020 10:39:58 GMT-0800 (Pacific Standard Time)","Thu Jan 30 2020 10:53:56 GMT-0800 (Pacific Standard Time)","Mozilla/5.0 (Windows NT 10.0; Win64; x64) AppleWebKit/537.36 (KHTML, like Gecko) Chrome/79.0.3945.130 Safari/537.36",83,"[0.9, 0.5, 0.1]","[0.8, 0.4, 0.2]","[u'blue', u'red', u'black']","[u'left', u'middle', u'right']","[0.8, 0.4, 0.2]","[u'high', u'medium', u'low']","black",51,"right","low","False","False",1737,5450,NA
"A2SJC9VRBGNC58","Thu Jan 30 2020 10:39:58 GMT-0800 (Pacific Standard Time)","Thu Jan 30 2020 10:53:56 GMT-0800 (Pacific Standard Time)","Mozilla/5.0 (Windows NT 10.0; Win64; x64) AppleWebKit/537.36 (KHTML, like Gecko) Chrome/79.0.3945.130 Safari/537.36",84,"[0.9, 0.5, 0.1]","[0.8, 0.4, 0.2]","[u'blue', u'red', u'black']","[u'left', u'middle', u'right']","[0.8, 0.4, 0.2]","[u'high', u'medium', u'low']","blue",49,"left","high","True","False",1099,5550,NA
"A2SJC9VRBGNC58","Thu Jan 30 2020 10:39:58 GMT-0800 (Pacific Standard Time)","Thu Jan 30 2020 10:53:56 GMT-0800 (Pacific Standard Time)","Mozilla/5.0 (Windows NT 10.0; Win64; x64) AppleWebKit/537.36 (KHTML, like Gecko) Chrome/79.0.3945.130 Safari/537.36",85,"[0.9, 0.5, 0.1]","[0.8, 0.4, 0.2]","[u'blue', u'red', u'black']","[u'left', u'middle', u'right']","[0.8, 0.4, 0.2]","[u'high', u'medium', u'low']","blue",49,"left","high","True","False",651,5650,NA
"A2SJC9VRBGNC58","Thu Jan 30 2020 10:39:58 GMT-0800 (Pacific Standard Time)","Thu Jan 30 2020 10:53:56 GMT-0800 (Pacific Standard Time)","Mozilla/5.0 (Windows NT 10.0; Win64; x64) AppleWebKit/537.36 (KHTML, like Gecko) Chrome/79.0.3945.130 Safari/537.36",86,"[0.9, 0.5, 0.1]","[0.8, 0.4, 0.2]","[u'blue', u'red', u'black']","[u'left', u'middle', u'right']","[0.8, 0.4, 0.2]","[u'high', u'medium', u'low']","blue",49,"left","high","True","False",1772,5750,NA
"A2SJC9VRBGNC58","Thu Jan 30 2020 10:39:58 GMT-0800 (Pacific Standard Time)","Thu Jan 30 2020 10:53:56 GMT-0800 (Pacific Standard Time)","Mozilla/5.0 (Windows NT 10.0; Win64; x64) AppleWebKit/537.36 (KHTML, like Gecko) Chrome/79.0.3945.130 Safari/537.36",87,"[0.9, 0.5, 0.1]","[0.8, 0.4, 0.2]","[u'blue', u'red', u'black']","[u'left', u'middle', u'right']","[0.8, 0.4, 0.2]","[u'high', u'medium', u'low']","blue",49,"left","high","False","False",1049,5700,NA
"A2SJC9VRBGNC58","Thu Jan 30 2020 10:39:58 GMT-0800 (Pacific Standard Time)","Thu Jan 30 2020 10:53:56 GMT-0800 (Pacific Standard Time)","Mozilla/5.0 (Windows NT 10.0; Win64; x64) AppleWebKit/537.36 (KHTML, like Gecko) Chrome/79.0.3945.130 Safari/537.36",88,"[0.9, 0.5, 0.1]","[0.8, 0.4, 0.2]","[u'blue', u'red', u'black']","[u'left', u'middle', u'right']","[0.8, 0.4, 0.2]","[u'high', u'medium', u'low']","red",50,"middle","medium","False","False",803,5650,NA
"A2SJC9VRBGNC58","Thu Jan 30 2020 10:39:58 GMT-0800 (Pacific Standard Time)","Thu Jan 30 2020 10:53:56 GMT-0800 (Pacific Standard Time)","Mozilla/5.0 (Windows NT 10.0; Win64; x64) AppleWebKit/537.36 (KHTML, like Gecko) Chrome/79.0.3945.130 Safari/537.36",89,"[0.9, 0.5, 0.1]","[0.8, 0.4, 0.2]","[u'blue', u'red', u'black']","[u'left', u'middle', u'right']","[0.8, 0.4, 0.2]","[u'high', u'medium', u'low']","black",51,"right","low","False","False",1131,5600,NA
"A2SJC9VRBGNC58","Thu Jan 30 2020 10:39:58 GMT-0800 (Pacific Standard Time)","Thu Jan 30 2020 10:53:56 GMT-0800 (Pacific Standard Time)","Mozilla/5.0 (Windows NT 10.0; Win64; x64) AppleWebKit/537.36 (KHTML, like Gecko) Chrome/79.0.3945.130 Safari/537.36",90,"[0.9, 0.5, 0.1]","[0.8, 0.4, 0.2]","[u'blue', u'red', u'black']","[u'left', u'middle', u'right']","[0.8, 0.4, 0.2]","[u'high', u'medium', u'low']","blue",49,"left","high","False","False",1036,5550,NA
"A2SJC9VRBGNC58","Thu Jan 30 2020 10:39:58 GMT-0800 (Pacific Standard Time)","Thu Jan 30 2020 10:53:56 GMT-0800 (Pacific Standard Time)","Mozilla/5.0 (Windows NT 10.0; Win64; x64) AppleWebKit/537.36 (KHTML, like Gecko) Chrome/79.0.3945.130 Safari/537.36",91,"[0.9, 0.5, 0.1]","[0.8, 0.4, 0.2]","[u'blue', u'red', u'black']","[u'left', u'middle', u'right']","[0.8, 0.4, 0.2]","[u'high', u'medium', u'low']","red",50,"middle","medium","True","False",1080,5650,NA
"A2SJC9VRBGNC58","Thu Jan 30 2020 10:39:58 GMT-0800 (Pacific Standard Time)","Thu Jan 30 2020 10:53:56 GMT-0800 (Pacific Standard Time)","Mozilla/5.0 (Windows NT 10.0; Win64; x64) AppleWebKit/537.36 (KHTML, like Gecko) Chrome/79.0.3945.130 Safari/537.36",92,"[0.9, 0.5, 0.1]","[0.8, 0.4, 0.2]","[u'blue', u'red', u'black']","[u'left', u'middle', u'right']","[0.8, 0.4, 0.2]","[u'high', u'medium', u'low']","red",50,"middle","medium","True","False",595,5750,NA
"A2SJC9VRBGNC58","Thu Jan 30 2020 10:39:58 GMT-0800 (Pacific Standard Time)","Thu Jan 30 2020 10:53:56 GMT-0800 (Pacific Standard Time)","Mozilla/5.0 (Windows NT 10.0; Win64; x64) AppleWebKit/537.36 (KHTML, like Gecko) Chrome/79.0.3945.130 Safari/537.36",93,"[0.9, 0.5, 0.1]","[0.8, 0.4, 0.2]","[u'blue', u'red', u'black']","[u'left', u'middle', u'right']","[0.8, 0.4, 0.2]","[u'high', u'medium', u'low']","red",50,"middle","medium","False","False",506,5700,NA
"A2SJC9VRBGNC58","Thu Jan 30 2020 10:39:58 GMT-0800 (Pacific Standard Time)","Thu Jan 30 2020 10:53:56 GMT-0800 (Pacific Standard Time)","Mozilla/5.0 (Windows NT 10.0; Win64; x64) AppleWebKit/537.36 (KHTML, like Gecko) Chrome/79.0.3945.130 Safari/537.36",94,"[0.9, 0.5, 0.1]","[0.8, 0.4, 0.2]","[u'blue', u'red', u'black']","[u'left', u'middle', u'right']","[0.8, 0.4, 0.2]","[u'high', u'medium', u'low']","black",51,"right","low","False","False",3435,5650,NA
"A2SJC9VRBGNC58","Thu Jan 30 2020 10:39:58 GMT-0800 (Pacific Standard Time)","Thu Jan 30 2020 10:53:56 GMT-0800 (Pacific Standard Time)","Mozilla/5.0 (Windows NT 10.0; Win64; x64) AppleWebKit/537.36 (KHTML, like Gecko) Chrome/79.0.3945.130 Safari/537.36",95,"[0.9, 0.5, 0.1]","[0.8, 0.4, 0.2]","[u'blue', u'red', u'black']","[u'left', u'middle', u'right']","[0.8, 0.4, 0.2]","[u'high', u'medium', u'low']","blue",49,"left","high","True","False",1712,5750,NA
"A2SJC9VRBGNC58","Thu Jan 30 2020 10:39:58 GMT-0800 (Pacific Standard Time)","Thu Jan 30 2020 10:53:56 GMT-0800 (Pacific Standard Time)","Mozilla/5.0 (Windows NT 10.0; Win64; x64) AppleWebKit/537.36 (KHTML, like Gecko) Chrome/79.0.3945.130 Safari/537.36",96,"[0.9, 0.5, 0.1]","[0.8, 0.4, 0.2]","[u'blue', u'red', u'black']","[u'left', u'middle', u'right']","[0.8, 0.4, 0.2]","[u'high', u'medium', u'low']","blue",49,"left","high","True","False",618,5850,NA
"A2SJC9VRBGNC58","Thu Jan 30 2020 10:39:58 GMT-0800 (Pacific Standard Time)","Thu Jan 30 2020 10:53:56 GMT-0800 (Pacific Standard Time)","Mozilla/5.0 (Windows NT 10.0; Win64; x64) AppleWebKit/537.36 (KHTML, like Gecko) Chrome/79.0.3945.130 Safari/537.36",97,"[0.9, 0.5, 0.1]","[0.8, 0.4, 0.2]","[u'blue', u'red', u'black']","[u'left', u'middle', u'right']","[0.8, 0.4, 0.2]","[u'high', u'medium', u'low']","blue",49,"left","high","True","False",596,5950,NA
"A2SJC9VRBGNC58","Thu Jan 30 2020 10:39:58 GMT-0800 (Pacific Standard Time)","Thu Jan 30 2020 10:53:56 GMT-0800 (Pacific Standard Time)","Mozilla/5.0 (Windows NT 10.0; Win64; x64) AppleWebKit/537.36 (KHTML, like Gecko) Chrome/79.0.3945.130 Safari/537.36",98,"[0.9, 0.5, 0.1]","[0.8, 0.4, 0.2]","[u'blue', u'red', u'black']","[u'left', u'middle', u'right']","[0.8, 0.4, 0.2]","[u'high', u'medium', u'low']","blue",49,"left","high","True","False",505,6050,NA
"A2SJC9VRBGNC58","Thu Jan 30 2020 10:39:58 GMT-0800 (Pacific Standard Time)","Thu Jan 30 2020 10:53:56 GMT-0800 (Pacific Standard Time)","Mozilla/5.0 (Windows NT 10.0; Win64; x64) AppleWebKit/537.36 (KHTML, like Gecko) Chrome/79.0.3945.130 Safari/537.36",99,"[0.9, 0.5, 0.1]","[0.8, 0.4, 0.2]","[u'blue', u'red', u'black']","[u'left', u'middle', u'right']","[0.8, 0.4, 0.2]","[u'high', u'medium', u'low']","blue",49,"left","high","True","False",1324,6150,NA
"A2SJC9VRBGNC58","Thu Jan 30 2020 10:39:58 GMT-0800 (Pacific Standard Time)","Thu Jan 30 2020 10:53:56 GMT-0800 (Pacific Standard Time)","Mozilla/5.0 (Windows NT 10.0; Win64; x64) AppleWebKit/537.36 (KHTML, like Gecko) Chrome/79.0.3945.130 Safari/537.36",100,"[0.9, 0.5, 0.1]","[0.8, 0.4, 0.2]","[u'blue', u'red', u'black']","[u'left', u'middle', u'right']","[0.8, 0.4, 0.2]","[u'high', u'medium', u'low']","blue",49,"left","high","False","False",592,6100,NA
"A2SJC9VRBGNC58","Thu Jan 30 2020 10:39:58 GMT-0800 (Pacific Standard Time)","Thu Jan 30 2020 10:53:56 GMT-0800 (Pacific Standard Time)","Mozilla/5.0 (Windows NT 10.0; Win64; x64) AppleWebKit/537.36 (KHTML, like Gecko) Chrome/79.0.3945.130 Safari/537.36",101,"[0.9, 0.5, 0.1]","[0.8, 0.4, 0.2]","[u'blue', u'red', u'black']","[u'left', u'middle', u'right']","[0.8, 0.4, 0.2]","[u'high', u'medium', u'low']","blue",49,"left","high","False","False",1083,6050,NA
"A2SJC9VRBGNC58","Thu Jan 30 2020 10:39:58 GMT-0800 (Pacific Standard Time)","Thu Jan 30 2020 10:53:56 GMT-0800 (Pacific Standard Time)","Mozilla/5.0 (Windows NT 10.0; Win64; x64) AppleWebKit/537.36 (KHTML, like Gecko) Chrome/79.0.3945.130 Safari/537.36",102,"[0.9, 0.5, 0.1]","[0.8, 0.4, 0.2]","[u'blue', u'red', u'black']","[u'left', u'middle', u'right']","[0.8, 0.4, 0.2]","[u'high', u'medium', u'low']","red",50,"middle","medium","False","False",755,6000,NA
"A2SJC9VRBGNC58","Thu Jan 30 2020 10:39:58 GMT-0800 (Pacific Standard Time)","Thu Jan 30 2020 10:53:56 GMT-0800 (Pacific Standard Time)","Mozilla/5.0 (Windows NT 10.0; Win64; x64) AppleWebKit/537.36 (KHTML, like Gecko) Chrome/79.0.3945.130 Safari/537.36",103,"[0.9, 0.5, 0.1]","[0.8, 0.4, 0.2]","[u'blue', u'red', u'black']","[u'left', u'middle', u'right']","[0.8, 0.4, 0.2]","[u'high', u'medium', u'low']","black",51,"right","low","False","False",1097,5950,NA
"A2SJC9VRBGNC58","Thu Jan 30 2020 10:39:58 GMT-0800 (Pacific Standard Time)","Thu Jan 30 2020 10:53:56 GMT-0800 (Pacific Standard Time)","Mozilla/5.0 (Windows NT 10.0; Win64; x64) AppleWebKit/537.36 (KHTML, like Gecko) Chrome/79.0.3945.130 Safari/537.36",104,"[0.9, 0.5, 0.1]","[0.8, 0.4, 0.2]","[u'blue', u'red', u'black']","[u'left', u'middle', u'right']","[0.8, 0.4, 0.2]","[u'high', u'medium', u'low']","blue",49,"left","high","True","False",1162,6050,NA
"A2SJC9VRBGNC58","Thu Jan 30 2020 10:39:58 GMT-0800 (Pacific Standard Time)","Thu Jan 30 2020 10:53:56 GMT-0800 (Pacific Standard Time)","Mozilla/5.0 (Windows NT 10.0; Win64; x64) AppleWebKit/537.36 (KHTML, like Gecko) Chrome/79.0.3945.130 Safari/537.36",105,"[0.9, 0.5, 0.1]","[0.8, 0.4, 0.2]","[u'blue', u'red', u'black']","[u'left', u'middle', u'right']","[0.8, 0.4, 0.2]","[u'high', u'medium', u'low']","blue",49,"left","high","False","False",698,6000,NA
"A2SJC9VRBGNC58","Thu Jan 30 2020 10:39:58 GMT-0800 (Pacific Standard Time)","Thu Jan 30 2020 10:53:56 GMT-0800 (Pacific Standard Time)","Mozilla/5.0 (Windows NT 10.0; Win64; x64) AppleWebKit/537.36 (KHTML, like Gecko) Chrome/79.0.3945.130 Safari/537.36",106,"[0.9, 0.5, 0.1]","[0.8, 0.4, 0.2]","[u'blue', u'red', u'black']","[u'left', u'middle', u'right']","[0.8, 0.4, 0.2]","[u'high', u'medium', u'low']","red",50,"middle","medium","False","False",1027,5950,NA
"A2SJC9VRBGNC58","Thu Jan 30 2020 10:39:58 GMT-0800 (Pacific Standard Time)","Thu Jan 30 2020 10:53:56 GMT-0800 (Pacific Standard Time)","Mozilla/5.0 (Windows NT 10.0; Win64; x64) AppleWebKit/537.36 (KHTML, like Gecko) Chrome/79.0.3945.130 Safari/537.36",107,"[0.9, 0.5, 0.1]","[0.8, 0.4, 0.2]","[u'blue', u'red', u'black']","[u'left', u'middle', u'right']","[0.8, 0.4, 0.2]","[u'high', u'medium', u'low']","black",51,"right","low","False","False",930,5900,NA
"A2SJC9VRBGNC58","Thu Jan 30 2020 10:39:58 GMT-0800 (Pacific Standard Time)","Thu Jan 30 2020 10:53:56 GMT-0800 (Pacific Standard Time)","Mozilla/5.0 (Windows NT 10.0; Win64; x64) AppleWebKit/537.36 (KHTML, like Gecko) Chrome/79.0.3945.130 Safari/537.36",108,"[0.9, 0.5, 0.1]","[0.8, 0.4, 0.2]","[u'blue', u'red', u'black']","[u'left', u'middle', u'right']","[0.8, 0.4, 0.2]","[u'high', u'medium', u'low']","red",50,"middle","medium","True","False",1493,6000,NA
"A2SJC9VRBGNC58","Thu Jan 30 2020 10:39:58 GMT-0800 (Pacific Standard Time)","Thu Jan 30 2020 10:53:56 GMT-0800 (Pacific Standard Time)","Mozilla/5.0 (Windows NT 10.0; Win64; x64) AppleWebKit/537.36 (KHTML, like Gecko) Chrome/79.0.3945.130 Safari/537.36",109,"[0.9, 0.5, 0.1]","[0.8, 0.4, 0.2]","[u'blue', u'red', u'black']","[u'left', u'middle', u'right']","[0.8, 0.4, 0.2]","[u'high', u'medium', u'low']","red",50,"middle","medium","False","False",736,5950,NA
"A2SJC9VRBGNC58","Thu Jan 30 2020 10:39:58 GMT-0800 (Pacific Standard Time)","Thu Jan 30 2020 10:53:56 GMT-0800 (Pacific Standard Time)","Mozilla/5.0 (Windows NT 10.0; Win64; x64) AppleWebKit/537.36 (KHTML, like Gecko) Chrome/79.0.3945.130 Safari/537.36",110,"[0.9, 0.5, 0.1]","[0.8, 0.4, 0.2]","[u'blue', u'red', u'black']","[u'left', u'middle', u'right']","[0.8, 0.4, 0.2]","[u'high', u'medium', u'low']","red",50,"middle","medium","True","False",6587,6050,NA
"A2SJC9VRBGNC58","Thu Jan 30 2020 10:39:58 GMT-0800 (Pacific Standard Time)","Thu Jan 30 2020 10:53:56 GMT-0800 (Pacific Standard Time)","Mozilla/5.0 (Windows NT 10.0; Win64; x64) AppleWebKit/537.36 (KHTML, like Gecko) Chrome/79.0.3945.130 Safari/537.36",111,"[0.9, 0.5, 0.1]","[0.8, 0.4, 0.2]","[u'blue', u'red', u'black']","[u'left', u'middle', u'right']","[0.8, 0.4, 0.2]","[u'high', u'medium', u'low']","red",50,"middle","medium","False","False",552,6000,NA
"A2SJC9VRBGNC58","Thu Jan 30 2020 10:39:58 GMT-0800 (Pacific Standard Time)","Thu Jan 30 2020 10:53:56 GMT-0800 (Pacific Standard Time)","Mozilla/5.0 (Windows NT 10.0; Win64; x64) AppleWebKit/537.36 (KHTML, like Gecko) Chrome/79.0.3945.130 Safari/537.36",112,"[0.9, 0.5, 0.1]","[0.8, 0.4, 0.2]","[u'blue', u'red', u'black']","[u'left', u'middle', u'right']","[0.8, 0.4, 0.2]","[u'high', u'medium', u'low']","black",51,"right","low","False","False",740,5950,NA
"A2SJC9VRBGNC58","Thu Jan 30 2020 10:39:58 GMT-0800 (Pacific Standard Time)","Thu Jan 30 2020 10:53:56 GMT-0800 (Pacific Standard Time)","Mozilla/5.0 (Windows NT 10.0; Win64; x64) AppleWebKit/537.36 (KHTML, like Gecko) Chrome/79.0.3945.130 Safari/537.36",113,"[0.9, 0.5, 0.1]","[0.8, 0.4, 0.2]","[u'blue', u'red', u'black']","[u'left', u'middle', u'right']","[0.8, 0.4, 0.2]","[u'high', u'medium', u'low']","blue",49,"left","high","False","False",930,5900,NA
"A2SJC9VRBGNC58","Thu Jan 30 2020 10:39:58 GMT-0800 (Pacific Standard Time)","Thu Jan 30 2020 10:53:56 GMT-0800 (Pacific Standard Time)","Mozilla/5.0 (Windows NT 10.0; Win64; x64) AppleWebKit/537.36 (KHTML, like Gecko) Chrome/79.0.3945.130 Safari/537.36",114,"[0.9, 0.5, 0.1]","[0.8, 0.4, 0.2]","[u'blue', u'red', u'black']","[u'left', u'middle', u'right']","[0.8, 0.4, 0.2]","[u'high', u'medium', u'low']","red",50,"middle","medium","False","False",2452,5850,NA
"A2SJC9VRBGNC58","Thu Jan 30 2020 10:39:58 GMT-0800 (Pacific Standard Time)","Thu Jan 30 2020 10:53:56 GMT-0800 (Pacific Standard Time)","Mozilla/5.0 (Windows NT 10.0; Win64; x64) AppleWebKit/537.36 (KHTML, like Gecko) Chrome/79.0.3945.130 Safari/537.36",115,"[0.9, 0.5, 0.1]","[0.8, 0.4, 0.2]","[u'blue', u'red', u'black']","[u'left', u'middle', u'right']","[0.8, 0.4, 0.2]","[u'high', u'medium', u'low']","black",51,"right","low","False","False",616,5800,NA
"A2SJC9VRBGNC58","Thu Jan 30 2020 10:39:58 GMT-0800 (Pacific Standard Time)","Thu Jan 30 2020 10:53:56 GMT-0800 (Pacific Standard Time)","Mozilla/5.0 (Windows NT 10.0; Win64; x64) AppleWebKit/537.36 (KHTML, like Gecko) Chrome/79.0.3945.130 Safari/537.36",116,"[0.9, 0.5, 0.1]","[0.8, 0.4, 0.2]","[u'blue', u'red', u'black']","[u'left', u'middle', u'right']","[0.8, 0.4, 0.2]","[u'high', u'medium', u'low']","blue",49,"left","high","True","False",1593,5900,NA
"A2SJC9VRBGNC58","Thu Jan 30 2020 10:39:58 GMT-0800 (Pacific Standard Time)","Thu Jan 30 2020 10:53:56 GMT-0800 (Pacific Standard Time)","Mozilla/5.0 (Windows NT 10.0; Win64; x64) AppleWebKit/537.36 (KHTML, like Gecko) Chrome/79.0.3945.130 Safari/537.36",117,"[0.9, 0.5, 0.1]","[0.8, 0.4, 0.2]","[u'blue', u'red', u'black']","[u'left', u'middle', u'right']","[0.8, 0.4, 0.2]","[u'high', u'medium', u'low']","blue",49,"left","high","False","False",555,5850,NA
"A2SJC9VRBGNC58","Thu Jan 30 2020 10:39:58 GMT-0800 (Pacific Standard Time)","Thu Jan 30 2020 10:53:56 GMT-0800 (Pacific Standard Time)","Mozilla/5.0 (Windows NT 10.0; Win64; x64) AppleWebKit/537.36 (KHTML, like Gecko) Chrome/79.0.3945.130 Safari/537.36",118,"[0.9, 0.5, 0.1]","[0.8, 0.4, 0.2]","[u'blue', u'red', u'black']","[u'left', u'middle', u'right']","[0.8, 0.4, 0.2]","[u'high', u'medium', u'low']","red",50,"middle","medium","True","False",450,5950,NA
"A2SJC9VRBGNC58","Thu Jan 30 2020 10:39:58 GMT-0800 (Pacific Standard Time)","Thu Jan 30 2020 10:53:56 GMT-0800 (Pacific Standard Time)","Mozilla/5.0 (Windows NT 10.0; Win64; x64) AppleWebKit/537.36 (KHTML, like Gecko) Chrome/79.0.3945.130 Safari/537.36",119,"[0.9, 0.5, 0.1]","[0.8, 0.4, 0.2]","[u'blue', u'red', u'black']","[u'left', u'middle', u'right']","[0.8, 0.4, 0.2]","[u'high', u'medium', u'low']","red",50,"middle","medium","False","False",1013,5900,NA
"A2SJC9VRBGNC58","Thu Jan 30 2020 10:39:58 GMT-0800 (Pacific Standard Time)","Thu Jan 30 2020 10:53:56 GMT-0800 (Pacific Standard Time)","Mozilla/5.0 (Windows NT 10.0; Win64; x64) AppleWebKit/537.36 (KHTML, like Gecko) Chrome/79.0.3945.130 Safari/537.36",120,"[0.9, 0.5, 0.1]","[0.8, 0.4, 0.2]","[u'blue', u'red', u'black']","[u'left', u'middle', u'right']","[0.8, 0.4, 0.2]","[u'high', u'medium', u'low']","blue",49,"left","high","True","False",833,6000,NA
"A2SJC9VRBGNC58","Thu Jan 30 2020 10:39:58 GMT-0800 (Pacific Standard Time)","Thu Jan 30 2020 10:53:56 GMT-0800 (Pacific Standard Time)","Mozilla/5.0 (Windows NT 10.0; Win64; x64) AppleWebKit/537.36 (KHTML, like Gecko) Chrome/79.0.3945.130 Safari/537.36",121,"[0.9, 0.5, 0.1]","[0.8, 0.4, 0.2]","[u'blue', u'red', u'black']","[u'left', u'middle', u'right']","[0.8, 0.4, 0.2]","[u'low', u'medium', u'high']","blue",49,"left","low","False","False",1393,5950,NA
"A2SJC9VRBGNC58","Thu Jan 30 2020 10:39:58 GMT-0800 (Pacific Standard Time)","Thu Jan 30 2020 10:53:56 GMT-0800 (Pacific Standard Time)","Mozilla/5.0 (Windows NT 10.0; Win64; x64) AppleWebKit/537.36 (KHTML, like Gecko) Chrome/79.0.3945.130 Safari/537.36",122,"[0.9, 0.5, 0.1]","[0.8, 0.4, 0.2]","[u'blue', u'red', u'black']","[u'left', u'middle', u'right']","[0.8, 0.4, 0.2]","[u'low', u'medium', u'high']","red",50,"middle","medium","False","False",956,5900,NA
"A2SJC9VRBGNC58","Thu Jan 30 2020 10:39:58 GMT-0800 (Pacific Standard Time)","Thu Jan 30 2020 10:53:56 GMT-0800 (Pacific Standard Time)","Mozilla/5.0 (Windows NT 10.0; Win64; x64) AppleWebKit/537.36 (KHTML, like Gecko) Chrome/79.0.3945.130 Safari/537.36",123,"[0.9, 0.5, 0.1]","[0.8, 0.4, 0.2]","[u'blue', u'red', u'black']","[u'left', u'middle', u'right']","[0.8, 0.4, 0.2]","[u'low', u'medium', u'high']","black",51,"right","high","True","False",868,6000,NA
"A2SJC9VRBGNC58","Thu Jan 30 2020 10:39:58 GMT-0800 (Pacific Standard Time)","Thu Jan 30 2020 10:53:56 GMT-0800 (Pacific Standard Time)","Mozilla/5.0 (Windows NT 10.0; Win64; x64) AppleWebKit/537.36 (KHTML, like Gecko) Chrome/79.0.3945.130 Safari/537.36",124,"[0.9, 0.5, 0.1]","[0.8, 0.4, 0.2]","[u'blue', u'red', u'black']","[u'left', u'middle', u'right']","[0.8, 0.4, 0.2]","[u'low', u'medium', u'high']","black",51,"right","high","False","False",544,5950,NA
"A2SJC9VRBGNC58","Thu Jan 30 2020 10:39:58 GMT-0800 (Pacific Standard Time)","Thu Jan 30 2020 10:53:56 GMT-0800 (Pacific Standard Time)","Mozilla/5.0 (Windows NT 10.0; Win64; x64) AppleWebKit/537.36 (KHTML, like Gecko) Chrome/79.0.3945.130 Safari/537.36",125,"[0.9, 0.5, 0.1]","[0.8, 0.4, 0.2]","[u'blue', u'red', u'black']","[u'left', u'middle', u'right']","[0.8, 0.4, 0.2]","[u'low', u'medium', u'high']","red",50,"middle","medium","True","False",915,6050,NA
"A2SJC9VRBGNC58","Thu Jan 30 2020 10:39:58 GMT-0800 (Pacific Standard Time)","Thu Jan 30 2020 10:53:56 GMT-0800 (Pacific Standard Time)","Mozilla/5.0 (Windows NT 10.0; Win64; x64) AppleWebKit/537.36 (KHTML, like Gecko) Chrome/79.0.3945.130 Safari/537.36",126,"[0.9, 0.5, 0.1]","[0.8, 0.4, 0.2]","[u'blue', u'red', u'black']","[u'left', u'middle', u'right']","[0.8, 0.4, 0.2]","[u'low', u'medium', u'high']","red",50,"middle","medium","True","False",591,6150,NA
"A2SJC9VRBGNC58","Thu Jan 30 2020 10:39:58 GMT-0800 (Pacific Standard Time)","Thu Jan 30 2020 10:53:56 GMT-0800 (Pacific Standard Time)","Mozilla/5.0 (Windows NT 10.0; Win64; x64) AppleWebKit/537.36 (KHTML, like Gecko) Chrome/79.0.3945.130 Safari/537.36",127,"[0.9, 0.5, 0.1]","[0.8, 0.4, 0.2]","[u'blue', u'red', u'black']","[u'left', u'middle', u'right']","[0.8, 0.4, 0.2]","[u'low', u'medium', u'high']","red",50,"middle","medium","True","False",628,6250,NA
"A2SJC9VRBGNC58","Thu Jan 30 2020 10:39:58 GMT-0800 (Pacific Standard Time)","Thu Jan 30 2020 10:53:56 GMT-0800 (Pacific Standard Time)","Mozilla/5.0 (Windows NT 10.0; Win64; x64) AppleWebKit/537.36 (KHTML, like Gecko) Chrome/79.0.3945.130 Safari/537.36",128,"[0.9, 0.5, 0.1]","[0.8, 0.4, 0.2]","[u'blue', u'red', u'black']","[u'left', u'middle', u'right']","[0.8, 0.4, 0.2]","[u'low', u'medium', u'high']","red",50,"middle","medium","True","False",523,6350,NA
"A2SJC9VRBGNC58","Thu Jan 30 2020 10:39:58 GMT-0800 (Pacific Standard Time)","Thu Jan 30 2020 10:53:56 GMT-0800 (Pacific Standard Time)","Mozilla/5.0 (Windows NT 10.0; Win64; x64) AppleWebKit/537.36 (KHTML, like Gecko) Chrome/79.0.3945.130 Safari/537.36",129,"[0.9, 0.5, 0.1]","[0.8, 0.4, 0.2]","[u'blue', u'red', u'black']","[u'left', u'middle', u'right']","[0.8, 0.4, 0.2]","[u'low', u'medium', u'high']","red",50,"middle","medium","True","False",537,6450,NA
"A2SJC9VRBGNC58","Thu Jan 30 2020 10:39:58 GMT-0800 (Pacific Standard Time)","Thu Jan 30 2020 10:53:56 GMT-0800 (Pacific Standard Time)","Mozilla/5.0 (Windows NT 10.0; Win64; x64) AppleWebKit/537.36 (KHTML, like Gecko) Chrome/79.0.3945.130 Safari/537.36",130,"[0.9, 0.5, 0.1]","[0.8, 0.4, 0.2]","[u'blue', u'red', u'black']","[u'left', u'middle', u'right']","[0.8, 0.4, 0.2]","[u'low', u'medium', u'high']","red",50,"middle","medium","True","False",547,6550,NA
"A2SJC9VRBGNC58","Thu Jan 30 2020 10:39:58 GMT-0800 (Pacific Standard Time)","Thu Jan 30 2020 10:53:56 GMT-0800 (Pacific Standard Time)","Mozilla/5.0 (Windows NT 10.0; Win64; x64) AppleWebKit/537.36 (KHTML, like Gecko) Chrome/79.0.3945.130 Safari/537.36",131,"[0.9, 0.5, 0.1]","[0.8, 0.4, 0.2]","[u'blue', u'red', u'black']","[u'left', u'middle', u'right']","[0.8, 0.4, 0.2]","[u'low', u'medium', u'high']","red",50,"middle","medium","True","False",590,6650,NA
"A2SJC9VRBGNC58","Thu Jan 30 2020 10:39:58 GMT-0800 (Pacific Standard Time)","Thu Jan 30 2020 10:53:56 GMT-0800 (Pacific Standard Time)","Mozilla/5.0 (Windows NT 10.0; Win64; x64) AppleWebKit/537.36 (KHTML, like Gecko) Chrome/79.0.3945.130 Safari/537.36",132,"[0.9, 0.5, 0.1]","[0.8, 0.4, 0.2]","[u'blue', u'red', u'black']","[u'left', u'middle', u'right']","[0.8, 0.4, 0.2]","[u'low', u'medium', u'high']","red",50,"middle","medium","True","False",534,6750,NA
"A2SJC9VRBGNC58","Thu Jan 30 2020 10:39:58 GMT-0800 (Pacific Standard Time)","Thu Jan 30 2020 10:53:56 GMT-0800 (Pacific Standard Time)","Mozilla/5.0 (Windows NT 10.0; Win64; x64) AppleWebKit/537.36 (KHTML, like Gecko) Chrome/79.0.3945.130 Safari/537.36",133,"[0.9, 0.5, 0.1]","[0.8, 0.4, 0.2]","[u'blue', u'red', u'black']","[u'left', u'middle', u'right']","[0.8, 0.4, 0.2]","[u'low', u'medium', u'high']","red",50,"middle","medium","True","False",530,6850,NA
"A2SJC9VRBGNC58","Thu Jan 30 2020 10:39:58 GMT-0800 (Pacific Standard Time)","Thu Jan 30 2020 10:53:56 GMT-0800 (Pacific Standard Time)","Mozilla/5.0 (Windows NT 10.0; Win64; x64) AppleWebKit/537.36 (KHTML, like Gecko) Chrome/79.0.3945.130 Safari/537.36",134,"[0.9, 0.5, 0.1]","[0.8, 0.4, 0.2]","[u'blue', u'red', u'black']","[u'left', u'middle', u'right']","[0.8, 0.4, 0.2]","[u'low', u'medium', u'high']","red",50,"middle","medium","False","False",516,6800,NA
"A2SJC9VRBGNC58","Thu Jan 30 2020 10:39:58 GMT-0800 (Pacific Standard Time)","Thu Jan 30 2020 10:53:56 GMT-0800 (Pacific Standard Time)","Mozilla/5.0 (Windows NT 10.0; Win64; x64) AppleWebKit/537.36 (KHTML, like Gecko) Chrome/79.0.3945.130 Safari/537.36",135,"[0.9, 0.5, 0.1]","[0.8, 0.4, 0.2]","[u'blue', u'red', u'black']","[u'left', u'middle', u'right']","[0.8, 0.4, 0.2]","[u'low', u'medium', u'high']","blue",49,"left","low","False","False",1160,6750,NA
"A2SJC9VRBGNC58","Thu Jan 30 2020 10:39:58 GMT-0800 (Pacific Standard Time)","Thu Jan 30 2020 10:53:56 GMT-0800 (Pacific Standard Time)","Mozilla/5.0 (Windows NT 10.0; Win64; x64) AppleWebKit/537.36 (KHTML, like Gecko) Chrome/79.0.3945.130 Safari/537.36",136,"[0.9, 0.5, 0.1]","[0.8, 0.4, 0.2]","[u'blue', u'red', u'black']","[u'left', u'middle', u'right']","[0.8, 0.4, 0.2]","[u'low', u'medium', u'high']","black",51,"right","high","True","False",1051,6850,NA
"A2SJC9VRBGNC58","Thu Jan 30 2020 10:39:58 GMT-0800 (Pacific Standard Time)","Thu Jan 30 2020 10:53:56 GMT-0800 (Pacific Standard Time)","Mozilla/5.0 (Windows NT 10.0; Win64; x64) AppleWebKit/537.36 (KHTML, like Gecko) Chrome/79.0.3945.130 Safari/537.36",137,"[0.9, 0.5, 0.1]","[0.8, 0.4, 0.2]","[u'blue', u'red', u'black']","[u'left', u'middle', u'right']","[0.8, 0.4, 0.2]","[u'low', u'medium', u'high']","black",51,"right","high","True","False",414,6950,NA
"A2SJC9VRBGNC58","Thu Jan 30 2020 10:39:58 GMT-0800 (Pacific Standard Time)","Thu Jan 30 2020 10:53:56 GMT-0800 (Pacific Standard Time)","Mozilla/5.0 (Windows NT 10.0; Win64; x64) AppleWebKit/537.36 (KHTML, like Gecko) Chrome/79.0.3945.130 Safari/537.36",138,"[0.9, 0.5, 0.1]","[0.8, 0.4, 0.2]","[u'blue', u'red', u'black']","[u'left', u'middle', u'right']","[0.8, 0.4, 0.2]","[u'low', u'medium', u'high']","black",51,"right","high","True","False",403,7050,NA
"A2SJC9VRBGNC58","Thu Jan 30 2020 10:39:58 GMT-0800 (Pacific Standard Time)","Thu Jan 30 2020 10:53:56 GMT-0800 (Pacific Standard Time)","Mozilla/5.0 (Windows NT 10.0; Win64; x64) AppleWebKit/537.36 (KHTML, like Gecko) Chrome/79.0.3945.130 Safari/537.36",139,"[0.9, 0.5, 0.1]","[0.8, 0.4, 0.2]","[u'blue', u'red', u'black']","[u'left', u'middle', u'right']","[0.8, 0.4, 0.2]","[u'low', u'medium', u'high']","black",51,"right","high","True","False",434,7150,NA
"A2SJC9VRBGNC58","Thu Jan 30 2020 10:39:58 GMT-0800 (Pacific Standard Time)","Thu Jan 30 2020 10:53:56 GMT-0800 (Pacific Standard Time)","Mozilla/5.0 (Windows NT 10.0; Win64; x64) AppleWebKit/537.36 (KHTML, like Gecko) Chrome/79.0.3945.130 Safari/537.36",140,"[0.9, 0.5, 0.1]","[0.8, 0.4, 0.2]","[u'blue', u'red', u'black']","[u'left', u'middle', u'right']","[0.8, 0.4, 0.2]","[u'low', u'medium', u'high']","black",51,"right","high","True","False",427,7250,NA
"A2SJC9VRBGNC58","Thu Jan 30 2020 10:39:58 GMT-0800 (Pacific Standard Time)","Thu Jan 30 2020 10:53:56 GMT-0800 (Pacific Standard Time)","Mozilla/5.0 (Windows NT 10.0; Win64; x64) AppleWebKit/537.36 (KHTML, like Gecko) Chrome/79.0.3945.130 Safari/537.36",141,"[0.9, 0.5, 0.1]","[0.8, 0.4, 0.2]","[u'blue', u'red', u'black']","[u'left', u'middle', u'right']","[0.8, 0.4, 0.2]","[u'low', u'medium', u'high']","black",51,"right","high","True","False",444,7350,NA
"A2SJC9VRBGNC58","Thu Jan 30 2020 10:39:58 GMT-0800 (Pacific Standard Time)","Thu Jan 30 2020 10:53:56 GMT-0800 (Pacific Standard Time)","Mozilla/5.0 (Windows NT 10.0; Win64; x64) AppleWebKit/537.36 (KHTML, like Gecko) Chrome/79.0.3945.130 Safari/537.36",142,"[0.9, 0.5, 0.1]","[0.8, 0.4, 0.2]","[u'blue', u'red', u'black']","[u'left', u'middle', u'right']","[0.8, 0.4, 0.2]","[u'low', u'medium', u'high']","black",51,"right","high","True","False",355,7450,NA
"A2SJC9VRBGNC58","Thu Jan 30 2020 10:39:58 GMT-0800 (Pacific Standard Time)","Thu Jan 30 2020 10:53:56 GMT-0800 (Pacific Standard Time)","Mozilla/5.0 (Windows NT 10.0; Win64; x64) AppleWebKit/537.36 (KHTML, like Gecko) Chrome/79.0.3945.130 Safari/537.36",143,"[0.9, 0.5, 0.1]","[0.8, 0.4, 0.2]","[u'blue', u'red', u'black']","[u'left', u'middle', u'right']","[0.8, 0.4, 0.2]","[u'low', u'medium', u'high']","black",51,"right","high","False","False",365,7400,NA
"A2SJC9VRBGNC58","Thu Jan 30 2020 10:39:58 GMT-0800 (Pacific Standard Time)","Thu Jan 30 2020 10:53:56 GMT-0800 (Pacific Standard Time)","Mozilla/5.0 (Windows NT 10.0; Win64; x64) AppleWebKit/537.36 (KHTML, like Gecko) Chrome/79.0.3945.130 Safari/537.36",144,"[0.9, 0.5, 0.1]","[0.8, 0.4, 0.2]","[u'blue', u'red', u'black']","[u'left', u'middle', u'right']","[0.8, 0.4, 0.2]","[u'low', u'medium', u'high']","red",50,"middle","medium","True","False",410,7500,NA
"A2SJC9VRBGNC58","Thu Jan 30 2020 10:39:58 GMT-0800 (Pacific Standard Time)","Thu Jan 30 2020 10:53:56 GMT-0800 (Pacific Standard Time)","Mozilla/5.0 (Windows NT 10.0; Win64; x64) AppleWebKit/537.36 (KHTML, like Gecko) Chrome/79.0.3945.130 Safari/537.36",145,"[0.9, 0.5, 0.1]","[0.8, 0.4, 0.2]","[u'blue', u'red', u'black']","[u'left', u'middle', u'right']","[0.8, 0.4, 0.2]","[u'low', u'medium', u'high']","red",50,"middle","medium","False","False",416,7450,NA
"A2SJC9VRBGNC58","Thu Jan 30 2020 10:39:58 GMT-0800 (Pacific Standard Time)","Thu Jan 30 2020 10:53:56 GMT-0800 (Pacific Standard Time)","Mozilla/5.0 (Windows NT 10.0; Win64; x64) AppleWebKit/537.36 (KHTML, like Gecko) Chrome/79.0.3945.130 Safari/537.36",146,"[0.9, 0.5, 0.1]","[0.8, 0.4, 0.2]","[u'blue', u'red', u'black']","[u'left', u'middle', u'right']","[0.8, 0.4, 0.2]","[u'low', u'medium', u'high']","black",51,"right","high","False","False",412,7400,NA
"A2SJC9VRBGNC58","Thu Jan 30 2020 10:39:58 GMT-0800 (Pacific Standard Time)","Thu Jan 30 2020 10:53:56 GMT-0800 (Pacific Standard Time)","Mozilla/5.0 (Windows NT 10.0; Win64; x64) AppleWebKit/537.36 (KHTML, like Gecko) Chrome/79.0.3945.130 Safari/537.36",147,"[0.9, 0.5, 0.1]","[0.8, 0.4, 0.2]","[u'blue', u'red', u'black']","[u'left', u'middle', u'right']","[0.8, 0.4, 0.2]","[u'low', u'medium', u'high']","blue",49,"left","low","False","False",394,7350,NA
"A2SJC9VRBGNC58","Thu Jan 30 2020 10:39:58 GMT-0800 (Pacific Standard Time)","Thu Jan 30 2020 10:53:56 GMT-0800 (Pacific Standard Time)","Mozilla/5.0 (Windows NT 10.0; Win64; x64) AppleWebKit/537.36 (KHTML, like Gecko) Chrome/79.0.3945.130 Safari/537.36",148,"[0.9, 0.5, 0.1]","[0.8, 0.4, 0.2]","[u'blue', u'red', u'black']","[u'left', u'middle', u'right']","[0.8, 0.4, 0.2]","[u'low', u'medium', u'high']","blue",49,"left","low","False","False",465,7300,NA
"A2SJC9VRBGNC58","Thu Jan 30 2020 10:39:58 GMT-0800 (Pacific Standard Time)","Thu Jan 30 2020 10:53:56 GMT-0800 (Pacific Standard Time)","Mozilla/5.0 (Windows NT 10.0; Win64; x64) AppleWebKit/537.36 (KHTML, like Gecko) Chrome/79.0.3945.130 Safari/537.36",149,"[0.9, 0.5, 0.1]","[0.8, 0.4, 0.2]","[u'blue', u'red', u'black']","[u'left', u'middle', u'right']","[0.8, 0.4, 0.2]","[u'low', u'medium', u'high']","red",50,"middle","medium","False","False",376,7250,NA
"A2SJC9VRBGNC58","Thu Jan 30 2020 10:39:58 GMT-0800 (Pacific Standard Time)","Thu Jan 30 2020 10:53:56 GMT-0800 (Pacific Standard Time)","Mozilla/5.0 (Windows NT 10.0; Win64; x64) AppleWebKit/537.36 (KHTML, like Gecko) Chrome/79.0.3945.130 Safari/537.36",150,"[0.9, 0.5, 0.1]","[0.8, 0.4, 0.2]","[u'blue', u'red', u'black']","[u'left', u'middle', u'right']","[0.8, 0.4, 0.2]","[u'low', u'medium', u'high']","black",51,"right","high","True","False",398,7350,NA
"A2SJC9VRBGNC58","Thu Jan 30 2020 10:39:58 GMT-0800 (Pacific Standard Time)","Thu Jan 30 2020 10:53:56 GMT-0800 (Pacific Standard Time)","Mozilla/5.0 (Windows NT 10.0; Win64; x64) AppleWebKit/537.36 (KHTML, like Gecko) Chrome/79.0.3945.130 Safari/537.36",151,"[0.9, 0.5, 0.1]","[0.8, 0.4, 0.2]","[u'blue', u'red', u'black']","[u'left', u'middle', u'right']","[0.8, 0.4, 0.2]","[u'low', u'medium', u'high']","black",51,"right","high","True","False",423,7450,NA
"A2SJC9VRBGNC58","Thu Jan 30 2020 10:39:58 GMT-0800 (Pacific Standard Time)","Thu Jan 30 2020 10:53:56 GMT-0800 (Pacific Standard Time)","Mozilla/5.0 (Windows NT 10.0; Win64; x64) AppleWebKit/537.36 (KHTML, like Gecko) Chrome/79.0.3945.130 Safari/537.36",152,"[0.9, 0.5, 0.1]","[0.8, 0.4, 0.2]","[u'blue', u'red', u'black']","[u'left', u'middle', u'right']","[0.8, 0.4, 0.2]","[u'low', u'medium', u'high']","black",51,"right","high","True","False",432,7550,NA
"A2SJC9VRBGNC58","Thu Jan 30 2020 10:39:58 GMT-0800 (Pacific Standard Time)","Thu Jan 30 2020 10:53:56 GMT-0800 (Pacific Standard Time)","Mozilla/5.0 (Windows NT 10.0; Win64; x64) AppleWebKit/537.36 (KHTML, like Gecko) Chrome/79.0.3945.130 Safari/537.36",153,"[0.9, 0.5, 0.1]","[0.8, 0.4, 0.2]","[u'blue', u'red', u'black']","[u'left', u'middle', u'right']","[0.8, 0.4, 0.2]","[u'low', u'medium', u'high']","black",51,"right","high","False","False",419,7500,NA
"A2SJC9VRBGNC58","Thu Jan 30 2020 10:39:58 GMT-0800 (Pacific Standard Time)","Thu Jan 30 2020 10:53:56 GMT-0800 (Pacific Standard Time)","Mozilla/5.0 (Windows NT 10.0; Win64; x64) AppleWebKit/537.36 (KHTML, like Gecko) Chrome/79.0.3945.130 Safari/537.36",154,"[0.9, 0.5, 0.1]","[0.8, 0.4, 0.2]","[u'blue', u'red', u'black']","[u'left', u'middle', u'right']","[0.8, 0.4, 0.2]","[u'low', u'medium', u'high']","red",50,"middle","medium","True","False",436,7600,NA
"A2SJC9VRBGNC58","Thu Jan 30 2020 10:39:58 GMT-0800 (Pacific Standard Time)","Thu Jan 30 2020 10:53:56 GMT-0800 (Pacific Standard Time)","Mozilla/5.0 (Windows NT 10.0; Win64; x64) AppleWebKit/537.36 (KHTML, like Gecko) Chrome/79.0.3945.130 Safari/537.36",155,"[0.9, 0.5, 0.1]","[0.8, 0.4, 0.2]","[u'blue', u'red', u'black']","[u'left', u'middle', u'right']","[0.8, 0.4, 0.2]","[u'low', u'medium', u'high']","red",50,"middle","medium","False","False",413,7550,NA
"A2SJC9VRBGNC58","Thu Jan 30 2020 10:39:58 GMT-0800 (Pacific Standard Time)","Thu Jan 30 2020 10:53:56 GMT-0800 (Pacific Standard Time)","Mozilla/5.0 (Windows NT 10.0; Win64; x64) AppleWebKit/537.36 (KHTML, like Gecko) Chrome/79.0.3945.130 Safari/537.36",156,"[0.9, 0.5, 0.1]","[0.8, 0.4, 0.2]","[u'blue', u'red', u'black']","[u'left', u'middle', u'right']","[0.8, 0.4, 0.2]","[u'low', u'medium', u'high']","red",50,"middle","medium","False","False",1885,7500,NA
"A2SJC9VRBGNC58","Thu Jan 30 2020 10:39:58 GMT-0800 (Pacific Standard Time)","Thu Jan 30 2020 10:53:56 GMT-0800 (Pacific Standard Time)","Mozilla/5.0 (Windows NT 10.0; Win64; x64) AppleWebKit/537.36 (KHTML, like Gecko) Chrome/79.0.3945.130 Safari/537.36",157,"[0.9, 0.5, 0.1]","[0.8, 0.4, 0.2]","[u'blue', u'red', u'black']","[u'left', u'middle', u'right']","[0.8, 0.4, 0.2]","[u'low', u'medium', u'high']","blue",49,"left","low","False","False",1612,7450,NA
"A2SJC9VRBGNC58","Thu Jan 30 2020 10:39:58 GMT-0800 (Pacific Standard Time)","Thu Jan 30 2020 10:53:56 GMT-0800 (Pacific Standard Time)","Mozilla/5.0 (Windows NT 10.0; Win64; x64) AppleWebKit/537.36 (KHTML, like Gecko) Chrome/79.0.3945.130 Safari/537.36",158,"[0.9, 0.5, 0.1]","[0.8, 0.4, 0.2]","[u'blue', u'red', u'black']","[u'left', u'middle', u'right']","[0.8, 0.4, 0.2]","[u'low', u'medium', u'high']","black",51,"right","high","True","False",1848,7550,NA
"A2SJC9VRBGNC58","Thu Jan 30 2020 10:39:58 GMT-0800 (Pacific Standard Time)","Thu Jan 30 2020 10:53:56 GMT-0800 (Pacific Standard Time)","Mozilla/5.0 (Windows NT 10.0; Win64; x64) AppleWebKit/537.36 (KHTML, like Gecko) Chrome/79.0.3945.130 Safari/537.36",159,"[0.9, 0.5, 0.1]","[0.8, 0.4, 0.2]","[u'blue', u'red', u'black']","[u'left', u'middle', u'right']","[0.8, 0.4, 0.2]","[u'low', u'medium', u'high']","black",51,"right","high","False","False",543,7500,NA
"A2SJC9VRBGNC58","Thu Jan 30 2020 10:39:58 GMT-0800 (Pacific Standard Time)","Thu Jan 30 2020 10:53:56 GMT-0800 (Pacific Standard Time)","Mozilla/5.0 (Windows NT 10.0; Win64; x64) AppleWebKit/537.36 (KHTML, like Gecko) Chrome/79.0.3945.130 Safari/537.36",160,"[0.9, 0.5, 0.1]","[0.8, 0.4, 0.2]","[u'blue', u'red', u'black']","[u'left', u'middle', u'right']","[0.8, 0.4, 0.2]","[u'low', u'medium', u'high']","black",51,"right","high","True","False",500,7600,NA
