"src_subject_id","start_time","end_time","browser","index","first_half_probabilities","second_half_probabilities","deck_color","deck_position","deck_probabilities","deck_contingencies","response_color","key_press","response_position","response_probability","reward_type","trial_type","rt","reward_tally","exclusion_reason"
"A3PRZRK9IC5CBI","Thu Jan 30 2020 10:50:51 GMT-0800 (Pacific Standard Time)","Thu Jan 30 2020 10:57:44 GMT-0800 (Pacific Standard Time)","Mozilla/5.0 (Windows NT 10.0; Win64; x64) AppleWebKit/537.36 (KHTML, like Gecko) Chrome/79.0.3945.130 Safari/537.36",1,"[0.9, 0.5, 0.1]","[0.8, 0.4, 0.2]","[u'red', u'black', u'blue']","[u'left', u'middle', u'right']","[0.9, 0.5, 0.1]","[u'high', u'medium', u'low']","blue",51,"right","low","False","False",2857,-50,NA
"A3PRZRK9IC5CBI","Thu Jan 30 2020 10:50:51 GMT-0800 (Pacific Standard Time)","Thu Jan 30 2020 10:57:44 GMT-0800 (Pacific Standard Time)","Mozilla/5.0 (Windows NT 10.0; Win64; x64) AppleWebKit/537.36 (KHTML, like Gecko) Chrome/79.0.3945.130 Safari/537.36",2,"[0.9, 0.5, 0.1]","[0.8, 0.4, 0.2]","[u'red', u'black', u'blue']","[u'left', u'middle', u'right']","[0.9, 0.5, 0.1]","[u'high', u'medium', u'low']","blue",51,"right","low","False","False",1194,-100,NA
"A3PRZRK9IC5CBI","Thu Jan 30 2020 10:50:51 GMT-0800 (Pacific Standard Time)","Thu Jan 30 2020 10:57:44 GMT-0800 (Pacific Standard Time)","Mozilla/5.0 (Windows NT 10.0; Win64; x64) AppleWebKit/537.36 (KHTML, like Gecko) Chrome/79.0.3945.130 Safari/537.36",3,"[0.9, 0.5, 0.1]","[0.8, 0.4, 0.2]","[u'red', u'black', u'blue']","[u'left', u'middle', u'right']","[0.9, 0.5, 0.1]","[u'high', u'medium', u'low']","red",49,"left","high","True","False",411,0,NA
"A3PRZRK9IC5CBI","Thu Jan 30 2020 10:50:51 GMT-0800 (Pacific Standard Time)","Thu Jan 30 2020 10:57:44 GMT-0800 (Pacific Standard Time)","Mozilla/5.0 (Windows NT 10.0; Win64; x64) AppleWebKit/537.36 (KHTML, like Gecko) Chrome/79.0.3945.130 Safari/537.36",4,"[0.9, 0.5, 0.1]","[0.8, 0.4, 0.2]","[u'red', u'black', u'blue']","[u'left', u'middle', u'right']","[0.9, 0.5, 0.1]","[u'high', u'medium', u'low']","red",49,"left","high","True","False",443,100,NA
"A3PRZRK9IC5CBI","Thu Jan 30 2020 10:50:51 GMT-0800 (Pacific Standard Time)","Thu Jan 30 2020 10:57:44 GMT-0800 (Pacific Standard Time)","Mozilla/5.0 (Windows NT 10.0; Win64; x64) AppleWebKit/537.36 (KHTML, like Gecko) Chrome/79.0.3945.130 Safari/537.36",5,"[0.9, 0.5, 0.1]","[0.8, 0.4, 0.2]","[u'red', u'black', u'blue']","[u'left', u'middle', u'right']","[0.9, 0.5, 0.1]","[u'high', u'medium', u'low']","red",49,"left","high","False","False",504,50,NA
"A3PRZRK9IC5CBI","Thu Jan 30 2020 10:50:51 GMT-0800 (Pacific Standard Time)","Thu Jan 30 2020 10:57:44 GMT-0800 (Pacific Standard Time)","Mozilla/5.0 (Windows NT 10.0; Win64; x64) AppleWebKit/537.36 (KHTML, like Gecko) Chrome/79.0.3945.130 Safari/537.36",6,"[0.9, 0.5, 0.1]","[0.8, 0.4, 0.2]","[u'red', u'black', u'blue']","[u'left', u'middle', u'right']","[0.9, 0.5, 0.1]","[u'high', u'medium', u'low']","red",49,"left","high","True","False",378,150,NA
"A3PRZRK9IC5CBI","Thu Jan 30 2020 10:50:51 GMT-0800 (Pacific Standard Time)","Thu Jan 30 2020 10:57:44 GMT-0800 (Pacific Standard Time)","Mozilla/5.0 (Windows NT 10.0; Win64; x64) AppleWebKit/537.36 (KHTML, like Gecko) Chrome/79.0.3945.130 Safari/537.36",7,"[0.9, 0.5, 0.1]","[0.8, 0.4, 0.2]","[u'red', u'black', u'blue']","[u'left', u'middle', u'right']","[0.9, 0.5, 0.1]","[u'high', u'medium', u'low']","red",49,"left","high","True","False",451,250,NA
"A3PRZRK9IC5CBI","Thu Jan 30 2020 10:50:51 GMT-0800 (Pacific Standard Time)","Thu Jan 30 2020 10:57:44 GMT-0800 (Pacific Standard Time)","Mozilla/5.0 (Windows NT 10.0; Win64; x64) AppleWebKit/537.36 (KHTML, like Gecko) Chrome/79.0.3945.130 Safari/537.36",8,"[0.9, 0.5, 0.1]","[0.8, 0.4, 0.2]","[u'red', u'black', u'blue']","[u'left', u'middle', u'right']","[0.9, 0.5, 0.1]","[u'high', u'medium', u'low']","red",49,"left","high","True","False",402,350,NA
"A3PRZRK9IC5CBI","Thu Jan 30 2020 10:50:51 GMT-0800 (Pacific Standard Time)","Thu Jan 30 2020 10:57:44 GMT-0800 (Pacific Standard Time)","Mozilla/5.0 (Windows NT 10.0; Win64; x64) AppleWebKit/537.36 (KHTML, like Gecko) Chrome/79.0.3945.130 Safari/537.36",9,"[0.9, 0.5, 0.1]","[0.8, 0.4, 0.2]","[u'red', u'black', u'blue']","[u'left', u'middle', u'right']","[0.9, 0.5, 0.1]","[u'high', u'medium', u'low']","red",49,"left","high","True","False",338,450,NA
"A3PRZRK9IC5CBI","Thu Jan 30 2020 10:50:51 GMT-0800 (Pacific Standard Time)","Thu Jan 30 2020 10:57:44 GMT-0800 (Pacific Standard Time)","Mozilla/5.0 (Windows NT 10.0; Win64; x64) AppleWebKit/537.36 (KHTML, like Gecko) Chrome/79.0.3945.130 Safari/537.36",10,"[0.9, 0.5, 0.1]","[0.8, 0.4, 0.2]","[u'red', u'black', u'blue']","[u'left', u'middle', u'right']","[0.9, 0.5, 0.1]","[u'high', u'medium', u'low']","red",49,"left","high","True","False",363,550,NA
"A3PRZRK9IC5CBI","Thu Jan 30 2020 10:50:51 GMT-0800 (Pacific Standard Time)","Thu Jan 30 2020 10:57:44 GMT-0800 (Pacific Standard Time)","Mozilla/5.0 (Windows NT 10.0; Win64; x64) AppleWebKit/537.36 (KHTML, like Gecko) Chrome/79.0.3945.130 Safari/537.36",11,"[0.9, 0.5, 0.1]","[0.8, 0.4, 0.2]","[u'red', u'black', u'blue']","[u'left', u'middle', u'right']","[0.9, 0.5, 0.1]","[u'high', u'medium', u'low']","red",49,"left","high","True","True",370,650,NA
"A3PRZRK9IC5CBI","Thu Jan 30 2020 10:50:51 GMT-0800 (Pacific Standard Time)","Thu Jan 30 2020 10:57:44 GMT-0800 (Pacific Standard Time)","Mozilla/5.0 (Windows NT 10.0; Win64; x64) AppleWebKit/537.36 (KHTML, like Gecko) Chrome/79.0.3945.130 Safari/537.36",12,"[0.9, 0.5, 0.1]","[0.8, 0.4, 0.2]","[u'red', u'black', u'blue']","[u'left', u'middle', u'right']","[0.9, 0.5, 0.1]","[u'low', u'high', u'medium']","red",49,"left","low","False","False",315,600,NA
"A3PRZRK9IC5CBI","Thu Jan 30 2020 10:50:51 GMT-0800 (Pacific Standard Time)","Thu Jan 30 2020 10:57:44 GMT-0800 (Pacific Standard Time)","Mozilla/5.0 (Windows NT 10.0; Win64; x64) AppleWebKit/537.36 (KHTML, like Gecko) Chrome/79.0.3945.130 Safari/537.36",13,"[0.9, 0.5, 0.1]","[0.8, 0.4, 0.2]","[u'red', u'black', u'blue']","[u'left', u'middle', u'right']","[0.9, 0.5, 0.1]","[u'low', u'high', u'medium']","red",49,"left","low","False","False",283,550,NA
"A3PRZRK9IC5CBI","Thu Jan 30 2020 10:50:51 GMT-0800 (Pacific Standard Time)","Thu Jan 30 2020 10:57:44 GMT-0800 (Pacific Standard Time)","Mozilla/5.0 (Windows NT 10.0; Win64; x64) AppleWebKit/537.36 (KHTML, like Gecko) Chrome/79.0.3945.130 Safari/537.36",14,"[0.9, 0.5, 0.1]","[0.8, 0.4, 0.2]","[u'red', u'black', u'blue']","[u'left', u'middle', u'right']","[0.9, 0.5, 0.1]","[u'low', u'high', u'medium']","red",49,"left","low","False","False",283,500,NA
"A3PRZRK9IC5CBI","Thu Jan 30 2020 10:50:51 GMT-0800 (Pacific Standard Time)","Thu Jan 30 2020 10:57:44 GMT-0800 (Pacific Standard Time)","Mozilla/5.0 (Windows NT 10.0; Win64; x64) AppleWebKit/537.36 (KHTML, like Gecko) Chrome/79.0.3945.130 Safari/537.36",15,"[0.9, 0.5, 0.1]","[0.8, 0.4, 0.2]","[u'red', u'black', u'blue']","[u'left', u'middle', u'right']","[0.9, 0.5, 0.1]","[u'low', u'high', u'medium']","blue",51,"right","medium","False","False",242,450,NA
"A3PRZRK9IC5CBI","Thu Jan 30 2020 10:50:51 GMT-0800 (Pacific Standard Time)","Thu Jan 30 2020 10:57:44 GMT-0800 (Pacific Standard Time)","Mozilla/5.0 (Windows NT 10.0; Win64; x64) AppleWebKit/537.36 (KHTML, like Gecko) Chrome/79.0.3945.130 Safari/537.36",16,"[0.9, 0.5, 0.1]","[0.8, 0.4, 0.2]","[u'red', u'black', u'blue']","[u'left', u'middle', u'right']","[0.9, 0.5, 0.1]","[u'low', u'high', u'medium']","black",50,"middle","high","True","False",243,550,NA
"A3PRZRK9IC5CBI","Thu Jan 30 2020 10:50:51 GMT-0800 (Pacific Standard Time)","Thu Jan 30 2020 10:57:44 GMT-0800 (Pacific Standard Time)","Mozilla/5.0 (Windows NT 10.0; Win64; x64) AppleWebKit/537.36 (KHTML, like Gecko) Chrome/79.0.3945.130 Safari/537.36",17,"[0.9, 0.5, 0.1]","[0.8, 0.4, 0.2]","[u'red', u'black', u'blue']","[u'left', u'middle', u'right']","[0.9, 0.5, 0.1]","[u'low', u'high', u'medium']","black",50,"middle","high","False","False",305,500,NA
"A3PRZRK9IC5CBI","Thu Jan 30 2020 10:50:51 GMT-0800 (Pacific Standard Time)","Thu Jan 30 2020 10:57:44 GMT-0800 (Pacific Standard Time)","Mozilla/5.0 (Windows NT 10.0; Win64; x64) AppleWebKit/537.36 (KHTML, like Gecko) Chrome/79.0.3945.130 Safari/537.36",18,"[0.9, 0.5, 0.1]","[0.8, 0.4, 0.2]","[u'red', u'black', u'blue']","[u'left', u'middle', u'right']","[0.9, 0.5, 0.1]","[u'low', u'high', u'medium']","black",50,"middle","high","True","False",466,600,NA
"A3PRZRK9IC5CBI","Thu Jan 30 2020 10:50:51 GMT-0800 (Pacific Standard Time)","Thu Jan 30 2020 10:57:44 GMT-0800 (Pacific Standard Time)","Mozilla/5.0 (Windows NT 10.0; Win64; x64) AppleWebKit/537.36 (KHTML, like Gecko) Chrome/79.0.3945.130 Safari/537.36",19,"[0.9, 0.5, 0.1]","[0.8, 0.4, 0.2]","[u'red', u'black', u'blue']","[u'left', u'middle', u'right']","[0.9, 0.5, 0.1]","[u'low', u'high', u'medium']","black",50,"middle","high","True","False",282,700,NA
"A3PRZRK9IC5CBI","Thu Jan 30 2020 10:50:51 GMT-0800 (Pacific Standard Time)","Thu Jan 30 2020 10:57:44 GMT-0800 (Pacific Standard Time)","Mozilla/5.0 (Windows NT 10.0; Win64; x64) AppleWebKit/537.36 (KHTML, like Gecko) Chrome/79.0.3945.130 Safari/537.36",20,"[0.9, 0.5, 0.1]","[0.8, 0.4, 0.2]","[u'red', u'black', u'blue']","[u'left', u'middle', u'right']","[0.9, 0.5, 0.1]","[u'low', u'high', u'medium']","black",50,"middle","high","True","False",339,800,NA
"A3PRZRK9IC5CBI","Thu Jan 30 2020 10:50:51 GMT-0800 (Pacific Standard Time)","Thu Jan 30 2020 10:57:44 GMT-0800 (Pacific Standard Time)","Mozilla/5.0 (Windows NT 10.0; Win64; x64) AppleWebKit/537.36 (KHTML, like Gecko) Chrome/79.0.3945.130 Safari/537.36",21,"[0.9, 0.5, 0.1]","[0.8, 0.4, 0.2]","[u'red', u'black', u'blue']","[u'left', u'middle', u'right']","[0.9, 0.5, 0.1]","[u'low', u'high', u'medium']","black",50,"middle","high","True","False",299,900,NA
"A3PRZRK9IC5CBI","Thu Jan 30 2020 10:50:51 GMT-0800 (Pacific Standard Time)","Thu Jan 30 2020 10:57:44 GMT-0800 (Pacific Standard Time)","Mozilla/5.0 (Windows NT 10.0; Win64; x64) AppleWebKit/537.36 (KHTML, like Gecko) Chrome/79.0.3945.130 Safari/537.36",22,"[0.9, 0.5, 0.1]","[0.8, 0.4, 0.2]","[u'red', u'black', u'blue']","[u'left', u'middle', u'right']","[0.9, 0.5, 0.1]","[u'low', u'high', u'medium']","black",50,"middle","high","False","False",356,850,NA
"A3PRZRK9IC5CBI","Thu Jan 30 2020 10:50:51 GMT-0800 (Pacific Standard Time)","Thu Jan 30 2020 10:57:44 GMT-0800 (Pacific Standard Time)","Mozilla/5.0 (Windows NT 10.0; Win64; x64) AppleWebKit/537.36 (KHTML, like Gecko) Chrome/79.0.3945.130 Safari/537.36",23,"[0.9, 0.5, 0.1]","[0.8, 0.4, 0.2]","[u'red', u'black', u'blue']","[u'left', u'middle', u'right']","[0.9, 0.5, 0.1]","[u'low', u'high', u'medium']","black",50,"middle","high","True","False",250,950,NA
"A3PRZRK9IC5CBI","Thu Jan 30 2020 10:50:51 GMT-0800 (Pacific Standard Time)","Thu Jan 30 2020 10:57:44 GMT-0800 (Pacific Standard Time)","Mozilla/5.0 (Windows NT 10.0; Win64; x64) AppleWebKit/537.36 (KHTML, like Gecko) Chrome/79.0.3945.130 Safari/537.36",24,"[0.9, 0.5, 0.1]","[0.8, 0.4, 0.2]","[u'red', u'black', u'blue']","[u'left', u'middle', u'right']","[0.9, 0.5, 0.1]","[u'low', u'high', u'medium']","black",50,"middle","high","True","True",290,1050,NA
"A3PRZRK9IC5CBI","Thu Jan 30 2020 10:50:51 GMT-0800 (Pacific Standard Time)","Thu Jan 30 2020 10:57:44 GMT-0800 (Pacific Standard Time)","Mozilla/5.0 (Windows NT 10.0; Win64; x64) AppleWebKit/537.36 (KHTML, like Gecko) Chrome/79.0.3945.130 Safari/537.36",25,"[0.9, 0.5, 0.1]","[0.8, 0.4, 0.2]","[u'red', u'black', u'blue']","[u'left', u'middle', u'right']","[0.9, 0.5, 0.1]","[u'medium', u'low', u'high']","black",50,"middle","low","False","False",434,1000,NA
"A3PRZRK9IC5CBI","Thu Jan 30 2020 10:50:51 GMT-0800 (Pacific Standard Time)","Thu Jan 30 2020 10:57:44 GMT-0800 (Pacific Standard Time)","Mozilla/5.0 (Windows NT 10.0; Win64; x64) AppleWebKit/537.36 (KHTML, like Gecko) Chrome/79.0.3945.130 Safari/537.36",26,"[0.9, 0.5, 0.1]","[0.8, 0.4, 0.2]","[u'red', u'black', u'blue']","[u'left', u'middle', u'right']","[0.9, 0.5, 0.1]","[u'medium', u'low', u'high']","black",50,"middle","low","False","False",290,950,NA
"A3PRZRK9IC5CBI","Thu Jan 30 2020 10:50:51 GMT-0800 (Pacific Standard Time)","Thu Jan 30 2020 10:57:44 GMT-0800 (Pacific Standard Time)","Mozilla/5.0 (Windows NT 10.0; Win64; x64) AppleWebKit/537.36 (KHTML, like Gecko) Chrome/79.0.3945.130 Safari/537.36",27,"[0.9, 0.5, 0.1]","[0.8, 0.4, 0.2]","[u'red', u'black', u'blue']","[u'left', u'middle', u'right']","[0.9, 0.5, 0.1]","[u'medium', u'low', u'high']","red",49,"left","medium","False","False",227,900,NA
"A3PRZRK9IC5CBI","Thu Jan 30 2020 10:50:51 GMT-0800 (Pacific Standard Time)","Thu Jan 30 2020 10:57:44 GMT-0800 (Pacific Standard Time)","Mozilla/5.0 (Windows NT 10.0; Win64; x64) AppleWebKit/537.36 (KHTML, like Gecko) Chrome/79.0.3945.130 Safari/537.36",28,"[0.9, 0.5, 0.1]","[0.8, 0.4, 0.2]","[u'red', u'black', u'blue']","[u'left', u'middle', u'right']","[0.9, 0.5, 0.1]","[u'medium', u'low', u'high']","red",49,"left","medium","True","False",187,1000,NA
"A3PRZRK9IC5CBI","Thu Jan 30 2020 10:50:51 GMT-0800 (Pacific Standard Time)","Thu Jan 30 2020 10:57:44 GMT-0800 (Pacific Standard Time)","Mozilla/5.0 (Windows NT 10.0; Win64; x64) AppleWebKit/537.36 (KHTML, like Gecko) Chrome/79.0.3945.130 Safari/537.36",29,"[0.9, 0.5, 0.1]","[0.8, 0.4, 0.2]","[u'red', u'black', u'blue']","[u'left', u'middle', u'right']","[0.9, 0.5, 0.1]","[u'medium', u'low', u'high']","red",49,"left","medium","False","False",274,950,NA
"A3PRZRK9IC5CBI","Thu Jan 30 2020 10:50:51 GMT-0800 (Pacific Standard Time)","Thu Jan 30 2020 10:57:44 GMT-0800 (Pacific Standard Time)","Mozilla/5.0 (Windows NT 10.0; Win64; x64) AppleWebKit/537.36 (KHTML, like Gecko) Chrome/79.0.3945.130 Safari/537.36",30,"[0.9, 0.5, 0.1]","[0.8, 0.4, 0.2]","[u'red', u'black', u'blue']","[u'left', u'middle', u'right']","[0.9, 0.5, 0.1]","[u'medium', u'low', u'high']","red",49,"left","medium","False","False",275,900,NA
"A3PRZRK9IC5CBI","Thu Jan 30 2020 10:50:51 GMT-0800 (Pacific Standard Time)","Thu Jan 30 2020 10:57:44 GMT-0800 (Pacific Standard Time)","Mozilla/5.0 (Windows NT 10.0; Win64; x64) AppleWebKit/537.36 (KHTML, like Gecko) Chrome/79.0.3945.130 Safari/537.36",31,"[0.9, 0.5, 0.1]","[0.8, 0.4, 0.2]","[u'red', u'black', u'blue']","[u'left', u'middle', u'right']","[0.9, 0.5, 0.1]","[u'medium', u'low', u'high']","blue",51,"right","high","True","False",235,1000,NA
"A3PRZRK9IC5CBI","Thu Jan 30 2020 10:50:51 GMT-0800 (Pacific Standard Time)","Thu Jan 30 2020 10:57:44 GMT-0800 (Pacific Standard Time)","Mozilla/5.0 (Windows NT 10.0; Win64; x64) AppleWebKit/537.36 (KHTML, like Gecko) Chrome/79.0.3945.130 Safari/537.36",32,"[0.9, 0.5, 0.1]","[0.8, 0.4, 0.2]","[u'red', u'black', u'blue']","[u'left', u'middle', u'right']","[0.9, 0.5, 0.1]","[u'medium', u'low', u'high']","blue",51,"right","high","True","False",290,1100,NA
"A3PRZRK9IC5CBI","Thu Jan 30 2020 10:50:51 GMT-0800 (Pacific Standard Time)","Thu Jan 30 2020 10:57:44 GMT-0800 (Pacific Standard Time)","Mozilla/5.0 (Windows NT 10.0; Win64; x64) AppleWebKit/537.36 (KHTML, like Gecko) Chrome/79.0.3945.130 Safari/537.36",33,"[0.9, 0.5, 0.1]","[0.8, 0.4, 0.2]","[u'red', u'black', u'blue']","[u'left', u'middle', u'right']","[0.9, 0.5, 0.1]","[u'medium', u'low', u'high']","blue",51,"right","high","True","False",306,1200,NA
"A3PRZRK9IC5CBI","Thu Jan 30 2020 10:50:51 GMT-0800 (Pacific Standard Time)","Thu Jan 30 2020 10:57:44 GMT-0800 (Pacific Standard Time)","Mozilla/5.0 (Windows NT 10.0; Win64; x64) AppleWebKit/537.36 (KHTML, like Gecko) Chrome/79.0.3945.130 Safari/537.36",34,"[0.9, 0.5, 0.1]","[0.8, 0.4, 0.2]","[u'red', u'black', u'blue']","[u'left', u'middle', u'right']","[0.9, 0.5, 0.1]","[u'medium', u'low', u'high']","blue",51,"right","high","True","False",260,1300,NA
"A3PRZRK9IC5CBI","Thu Jan 30 2020 10:50:51 GMT-0800 (Pacific Standard Time)","Thu Jan 30 2020 10:57:44 GMT-0800 (Pacific Standard Time)","Mozilla/5.0 (Windows NT 10.0; Win64; x64) AppleWebKit/537.36 (KHTML, like Gecko) Chrome/79.0.3945.130 Safari/537.36",35,"[0.9, 0.5, 0.1]","[0.8, 0.4, 0.2]","[u'red', u'black', u'blue']","[u'left', u'middle', u'right']","[0.9, 0.5, 0.1]","[u'medium', u'low', u'high']","blue",51,"right","high","True","False",329,1400,NA
"A3PRZRK9IC5CBI","Thu Jan 30 2020 10:50:51 GMT-0800 (Pacific Standard Time)","Thu Jan 30 2020 10:57:44 GMT-0800 (Pacific Standard Time)","Mozilla/5.0 (Windows NT 10.0; Win64; x64) AppleWebKit/537.36 (KHTML, like Gecko) Chrome/79.0.3945.130 Safari/537.36",36,"[0.9, 0.5, 0.1]","[0.8, 0.4, 0.2]","[u'red', u'black', u'blue']","[u'left', u'middle', u'right']","[0.9, 0.5, 0.1]","[u'medium', u'low', u'high']","blue",51,"right","high","True","False",259,1500,NA
"A3PRZRK9IC5CBI","Thu Jan 30 2020 10:50:51 GMT-0800 (Pacific Standard Time)","Thu Jan 30 2020 10:57:44 GMT-0800 (Pacific Standard Time)","Mozilla/5.0 (Windows NT 10.0; Win64; x64) AppleWebKit/537.36 (KHTML, like Gecko) Chrome/79.0.3945.130 Safari/537.36",37,"[0.9, 0.5, 0.1]","[0.8, 0.4, 0.2]","[u'red', u'black', u'blue']","[u'left', u'middle', u'right']","[0.9, 0.5, 0.1]","[u'medium', u'low', u'high']","blue",51,"right","high","True","False",282,1600,NA
"A3PRZRK9IC5CBI","Thu Jan 30 2020 10:50:51 GMT-0800 (Pacific Standard Time)","Thu Jan 30 2020 10:57:44 GMT-0800 (Pacific Standard Time)","Mozilla/5.0 (Windows NT 10.0; Win64; x64) AppleWebKit/537.36 (KHTML, like Gecko) Chrome/79.0.3945.130 Safari/537.36",38,"[0.9, 0.5, 0.1]","[0.8, 0.4, 0.2]","[u'red', u'black', u'blue']","[u'left', u'middle', u'right']","[0.9, 0.5, 0.1]","[u'medium', u'low', u'high']","blue",51,"right","high","True","False",306,1700,NA
"A3PRZRK9IC5CBI","Thu Jan 30 2020 10:50:51 GMT-0800 (Pacific Standard Time)","Thu Jan 30 2020 10:57:44 GMT-0800 (Pacific Standard Time)","Mozilla/5.0 (Windows NT 10.0; Win64; x64) AppleWebKit/537.36 (KHTML, like Gecko) Chrome/79.0.3945.130 Safari/537.36",39,"[0.9, 0.5, 0.1]","[0.8, 0.4, 0.2]","[u'red', u'black', u'blue']","[u'left', u'middle', u'right']","[0.9, 0.5, 0.1]","[u'medium', u'low', u'high']","blue",51,"right","high","True","True",267,1800,NA
"A3PRZRK9IC5CBI","Thu Jan 30 2020 10:50:51 GMT-0800 (Pacific Standard Time)","Thu Jan 30 2020 10:57:44 GMT-0800 (Pacific Standard Time)","Mozilla/5.0 (Windows NT 10.0; Win64; x64) AppleWebKit/537.36 (KHTML, like Gecko) Chrome/79.0.3945.130 Safari/537.36",40,"[0.9, 0.5, 0.1]","[0.8, 0.4, 0.2]","[u'red', u'black', u'blue']","[u'left', u'middle', u'right']","[0.9, 0.5, 0.1]","[u'low', u'high', u'medium']","blue",51,"right","medium","True","False",291,1900,NA
"A3PRZRK9IC5CBI","Thu Jan 30 2020 10:50:51 GMT-0800 (Pacific Standard Time)","Thu Jan 30 2020 10:57:44 GMT-0800 (Pacific Standard Time)","Mozilla/5.0 (Windows NT 10.0; Win64; x64) AppleWebKit/537.36 (KHTML, like Gecko) Chrome/79.0.3945.130 Safari/537.36",41,"[0.9, 0.5, 0.1]","[0.8, 0.4, 0.2]","[u'red', u'black', u'blue']","[u'left', u'middle', u'right']","[0.9, 0.5, 0.1]","[u'low', u'medium', u'high']","blue",51,"right","high","True","False",388,2000,NA
"A3PRZRK9IC5CBI","Thu Jan 30 2020 10:50:51 GMT-0800 (Pacific Standard Time)","Thu Jan 30 2020 10:57:44 GMT-0800 (Pacific Standard Time)","Mozilla/5.0 (Windows NT 10.0; Win64; x64) AppleWebKit/537.36 (KHTML, like Gecko) Chrome/79.0.3945.130 Safari/537.36",42,"[0.9, 0.5, 0.1]","[0.8, 0.4, 0.2]","[u'red', u'black', u'blue']","[u'left', u'middle', u'right']","[0.9, 0.5, 0.1]","[u'low', u'medium', u'high']","blue",51,"right","high","True","False",251,2100,NA
"A3PRZRK9IC5CBI","Thu Jan 30 2020 10:50:51 GMT-0800 (Pacific Standard Time)","Thu Jan 30 2020 10:57:44 GMT-0800 (Pacific Standard Time)","Mozilla/5.0 (Windows NT 10.0; Win64; x64) AppleWebKit/537.36 (KHTML, like Gecko) Chrome/79.0.3945.130 Safari/537.36",43,"[0.9, 0.5, 0.1]","[0.8, 0.4, 0.2]","[u'red', u'black', u'blue']","[u'left', u'middle', u'right']","[0.9, 0.5, 0.1]","[u'low', u'medium', u'high']","blue",51,"right","high","True","False",234,2200,NA
"A3PRZRK9IC5CBI","Thu Jan 30 2020 10:50:51 GMT-0800 (Pacific Standard Time)","Thu Jan 30 2020 10:57:44 GMT-0800 (Pacific Standard Time)","Mozilla/5.0 (Windows NT 10.0; Win64; x64) AppleWebKit/537.36 (KHTML, like Gecko) Chrome/79.0.3945.130 Safari/537.36",44,"[0.9, 0.5, 0.1]","[0.8, 0.4, 0.2]","[u'red', u'black', u'blue']","[u'left', u'middle', u'right']","[0.9, 0.5, 0.1]","[u'low', u'medium', u'high']","blue",51,"right","high","True","False",251,2300,NA
"A3PRZRK9IC5CBI","Thu Jan 30 2020 10:50:51 GMT-0800 (Pacific Standard Time)","Thu Jan 30 2020 10:57:44 GMT-0800 (Pacific Standard Time)","Mozilla/5.0 (Windows NT 10.0; Win64; x64) AppleWebKit/537.36 (KHTML, like Gecko) Chrome/79.0.3945.130 Safari/537.36",45,"[0.9, 0.5, 0.1]","[0.8, 0.4, 0.2]","[u'red', u'black', u'blue']","[u'left', u'middle', u'right']","[0.9, 0.5, 0.1]","[u'low', u'medium', u'high']","blue",51,"right","high","True","False",202,2400,NA
"A3PRZRK9IC5CBI","Thu Jan 30 2020 10:50:51 GMT-0800 (Pacific Standard Time)","Thu Jan 30 2020 10:57:44 GMT-0800 (Pacific Standard Time)","Mozilla/5.0 (Windows NT 10.0; Win64; x64) AppleWebKit/537.36 (KHTML, like Gecko) Chrome/79.0.3945.130 Safari/537.36",46,"[0.9, 0.5, 0.1]","[0.8, 0.4, 0.2]","[u'red', u'black', u'blue']","[u'left', u'middle', u'right']","[0.9, 0.5, 0.1]","[u'low', u'medium', u'high']","blue",51,"right","high","True","False",251,2500,NA
"A3PRZRK9IC5CBI","Thu Jan 30 2020 10:50:51 GMT-0800 (Pacific Standard Time)","Thu Jan 30 2020 10:57:44 GMT-0800 (Pacific Standard Time)","Mozilla/5.0 (Windows NT 10.0; Win64; x64) AppleWebKit/537.36 (KHTML, like Gecko) Chrome/79.0.3945.130 Safari/537.36",47,"[0.9, 0.5, 0.1]","[0.8, 0.4, 0.2]","[u'red', u'black', u'blue']","[u'left', u'middle', u'right']","[0.9, 0.5, 0.1]","[u'low', u'medium', u'high']","blue",51,"right","high","True","False",298,2600,NA
"A3PRZRK9IC5CBI","Thu Jan 30 2020 10:50:51 GMT-0800 (Pacific Standard Time)","Thu Jan 30 2020 10:57:44 GMT-0800 (Pacific Standard Time)","Mozilla/5.0 (Windows NT 10.0; Win64; x64) AppleWebKit/537.36 (KHTML, like Gecko) Chrome/79.0.3945.130 Safari/537.36",48,"[0.9, 0.5, 0.1]","[0.8, 0.4, 0.2]","[u'red', u'black', u'blue']","[u'left', u'middle', u'right']","[0.9, 0.5, 0.1]","[u'low', u'medium', u'high']","blue",51,"right","high","True","False",346,2700,NA
"A3PRZRK9IC5CBI","Thu Jan 30 2020 10:50:51 GMT-0800 (Pacific Standard Time)","Thu Jan 30 2020 10:57:44 GMT-0800 (Pacific Standard Time)","Mozilla/5.0 (Windows NT 10.0; Win64; x64) AppleWebKit/537.36 (KHTML, like Gecko) Chrome/79.0.3945.130 Safari/537.36",49,"[0.9, 0.5, 0.1]","[0.8, 0.4, 0.2]","[u'red', u'black', u'blue']","[u'left', u'middle', u'right']","[0.9, 0.5, 0.1]","[u'low', u'medium', u'high']","blue",51,"right","high","True","True",275,2800,NA
"A3PRZRK9IC5CBI","Thu Jan 30 2020 10:50:51 GMT-0800 (Pacific Standard Time)","Thu Jan 30 2020 10:57:44 GMT-0800 (Pacific Standard Time)","Mozilla/5.0 (Windows NT 10.0; Win64; x64) AppleWebKit/537.36 (KHTML, like Gecko) Chrome/79.0.3945.130 Safari/537.36",50,"[0.9, 0.5, 0.1]","[0.8, 0.4, 0.2]","[u'red', u'black', u'blue']","[u'left', u'middle', u'right']","[0.9, 0.5, 0.1]","[u'low', u'high', u'medium']","blue",51,"right","medium","False","False",283,2750,NA
"A3PRZRK9IC5CBI","Thu Jan 30 2020 10:50:51 GMT-0800 (Pacific Standard Time)","Thu Jan 30 2020 10:57:44 GMT-0800 (Pacific Standard Time)","Mozilla/5.0 (Windows NT 10.0; Win64; x64) AppleWebKit/537.36 (KHTML, like Gecko) Chrome/79.0.3945.130 Safari/537.36",51,"[0.9, 0.5, 0.1]","[0.8, 0.4, 0.2]","[u'red', u'black', u'blue']","[u'left', u'middle', u'right']","[0.9, 0.5, 0.1]","[u'low', u'high', u'medium']","blue",51,"right","medium","True","False",250,2850,NA
"A3PRZRK9IC5CBI","Thu Jan 30 2020 10:50:51 GMT-0800 (Pacific Standard Time)","Thu Jan 30 2020 10:57:44 GMT-0800 (Pacific Standard Time)","Mozilla/5.0 (Windows NT 10.0; Win64; x64) AppleWebKit/537.36 (KHTML, like Gecko) Chrome/79.0.3945.130 Safari/537.36",52,"[0.9, 0.5, 0.1]","[0.8, 0.4, 0.2]","[u'red', u'black', u'blue']","[u'left', u'middle', u'right']","[0.9, 0.5, 0.1]","[u'low', u'high', u'medium']","blue",51,"right","medium","False","False",258,2800,NA
"A3PRZRK9IC5CBI","Thu Jan 30 2020 10:50:51 GMT-0800 (Pacific Standard Time)","Thu Jan 30 2020 10:57:44 GMT-0800 (Pacific Standard Time)","Mozilla/5.0 (Windows NT 10.0; Win64; x64) AppleWebKit/537.36 (KHTML, like Gecko) Chrome/79.0.3945.130 Safari/537.36",53,"[0.9, 0.5, 0.1]","[0.8, 0.4, 0.2]","[u'red', u'black', u'blue']","[u'left', u'middle', u'right']","[0.9, 0.5, 0.1]","[u'low', u'high', u'medium']","blue",51,"right","medium","True","False",283,2900,NA
"A3PRZRK9IC5CBI","Thu Jan 30 2020 10:50:51 GMT-0800 (Pacific Standard Time)","Thu Jan 30 2020 10:57:44 GMT-0800 (Pacific Standard Time)","Mozilla/5.0 (Windows NT 10.0; Win64; x64) AppleWebKit/537.36 (KHTML, like Gecko) Chrome/79.0.3945.130 Safari/537.36",54,"[0.9, 0.5, 0.1]","[0.8, 0.4, 0.2]","[u'red', u'black', u'blue']","[u'left', u'middle', u'right']","[0.9, 0.5, 0.1]","[u'low', u'high', u'medium']","blue",51,"right","medium","True","False",171,3000,NA
"A3PRZRK9IC5CBI","Thu Jan 30 2020 10:50:51 GMT-0800 (Pacific Standard Time)","Thu Jan 30 2020 10:57:44 GMT-0800 (Pacific Standard Time)","Mozilla/5.0 (Windows NT 10.0; Win64; x64) AppleWebKit/537.36 (KHTML, like Gecko) Chrome/79.0.3945.130 Safari/537.36",55,"[0.9, 0.5, 0.1]","[0.8, 0.4, 0.2]","[u'red', u'black', u'blue']","[u'left', u'middle', u'right']","[0.9, 0.5, 0.1]","[u'low', u'high', u'medium']","blue",51,"right","medium","True","False",210,3100,NA
"A3PRZRK9IC5CBI","Thu Jan 30 2020 10:50:51 GMT-0800 (Pacific Standard Time)","Thu Jan 30 2020 10:57:44 GMT-0800 (Pacific Standard Time)","Mozilla/5.0 (Windows NT 10.0; Win64; x64) AppleWebKit/537.36 (KHTML, like Gecko) Chrome/79.0.3945.130 Safari/537.36",56,"[0.9, 0.5, 0.1]","[0.8, 0.4, 0.2]","[u'red', u'black', u'blue']","[u'left', u'middle', u'right']","[0.9, 0.5, 0.1]","[u'low', u'high', u'medium']","blue",51,"right","medium","True","False",188,3200,NA
"A3PRZRK9IC5CBI","Thu Jan 30 2020 10:50:51 GMT-0800 (Pacific Standard Time)","Thu Jan 30 2020 10:57:44 GMT-0800 (Pacific Standard Time)","Mozilla/5.0 (Windows NT 10.0; Win64; x64) AppleWebKit/537.36 (KHTML, like Gecko) Chrome/79.0.3945.130 Safari/537.36",57,"[0.9, 0.5, 0.1]","[0.8, 0.4, 0.2]","[u'red', u'black', u'blue']","[u'left', u'middle', u'right']","[0.9, 0.5, 0.1]","[u'low', u'high', u'medium']","blue",51,"right","medium","False","False",193,3150,NA
"A3PRZRK9IC5CBI","Thu Jan 30 2020 10:50:51 GMT-0800 (Pacific Standard Time)","Thu Jan 30 2020 10:57:44 GMT-0800 (Pacific Standard Time)","Mozilla/5.0 (Windows NT 10.0; Win64; x64) AppleWebKit/537.36 (KHTML, like Gecko) Chrome/79.0.3945.130 Safari/537.36",58,"[0.9, 0.5, 0.1]","[0.8, 0.4, 0.2]","[u'red', u'black', u'blue']","[u'left', u'middle', u'right']","[0.9, 0.5, 0.1]","[u'low', u'high', u'medium']","blue",51,"right","medium","False","False",418,3100,NA
"A3PRZRK9IC5CBI","Thu Jan 30 2020 10:50:51 GMT-0800 (Pacific Standard Time)","Thu Jan 30 2020 10:57:44 GMT-0800 (Pacific Standard Time)","Mozilla/5.0 (Windows NT 10.0; Win64; x64) AppleWebKit/537.36 (KHTML, like Gecko) Chrome/79.0.3945.130 Safari/537.36",59,"[0.9, 0.5, 0.1]","[0.8, 0.4, 0.2]","[u'red', u'black', u'blue']","[u'left', u'middle', u'right']","[0.9, 0.5, 0.1]","[u'low', u'high', u'medium']","blue",51,"right","medium","False","False",267,3050,NA
"A3PRZRK9IC5CBI","Thu Jan 30 2020 10:50:51 GMT-0800 (Pacific Standard Time)","Thu Jan 30 2020 10:57:44 GMT-0800 (Pacific Standard Time)","Mozilla/5.0 (Windows NT 10.0; Win64; x64) AppleWebKit/537.36 (KHTML, like Gecko) Chrome/79.0.3945.130 Safari/537.36",60,"[0.9, 0.5, 0.1]","[0.8, 0.4, 0.2]","[u'red', u'black', u'blue']","[u'left', u'middle', u'right']","[0.9, 0.5, 0.1]","[u'low', u'high', u'medium']","red",49,"left","low","False","False",26,3000,NA
"A3PRZRK9IC5CBI","Thu Jan 30 2020 10:50:51 GMT-0800 (Pacific Standard Time)","Thu Jan 30 2020 10:57:44 GMT-0800 (Pacific Standard Time)","Mozilla/5.0 (Windows NT 10.0; Win64; x64) AppleWebKit/537.36 (KHTML, like Gecko) Chrome/79.0.3945.130 Safari/537.36",61,"[0.9, 0.5, 0.1]","[0.8, 0.4, 0.2]","[u'red', u'black', u'blue']","[u'left', u'middle', u'right']","[0.9, 0.5, 0.1]","[u'low', u'high', u'medium']","black",50,"middle","high","True","False",43,3100,NA
"A3PRZRK9IC5CBI","Thu Jan 30 2020 10:50:51 GMT-0800 (Pacific Standard Time)","Thu Jan 30 2020 10:57:44 GMT-0800 (Pacific Standard Time)","Mozilla/5.0 (Windows NT 10.0; Win64; x64) AppleWebKit/537.36 (KHTML, like Gecko) Chrome/79.0.3945.130 Safari/537.36",62,"[0.9, 0.5, 0.1]","[0.8, 0.4, 0.2]","[u'red', u'black', u'blue']","[u'left', u'middle', u'right']","[0.9, 0.5, 0.1]","[u'low', u'high', u'medium']","black",50,"middle","high","True","False",211,3200,NA
"A3PRZRK9IC5CBI","Thu Jan 30 2020 10:50:51 GMT-0800 (Pacific Standard Time)","Thu Jan 30 2020 10:57:44 GMT-0800 (Pacific Standard Time)","Mozilla/5.0 (Windows NT 10.0; Win64; x64) AppleWebKit/537.36 (KHTML, like Gecko) Chrome/79.0.3945.130 Safari/537.36",63,"[0.9, 0.5, 0.1]","[0.8, 0.4, 0.2]","[u'red', u'black', u'blue']","[u'left', u'middle', u'right']","[0.9, 0.5, 0.1]","[u'low', u'high', u'medium']","black",50,"middle","high","True","False",185,3300,NA
"A3PRZRK9IC5CBI","Thu Jan 30 2020 10:50:51 GMT-0800 (Pacific Standard Time)","Thu Jan 30 2020 10:57:44 GMT-0800 (Pacific Standard Time)","Mozilla/5.0 (Windows NT 10.0; Win64; x64) AppleWebKit/537.36 (KHTML, like Gecko) Chrome/79.0.3945.130 Safari/537.36",64,"[0.9, 0.5, 0.1]","[0.8, 0.4, 0.2]","[u'red', u'black', u'blue']","[u'left', u'middle', u'right']","[0.9, 0.5, 0.1]","[u'low', u'high', u'medium']","black",50,"middle","high","False","False",154,3250,NA
"A3PRZRK9IC5CBI","Thu Jan 30 2020 10:50:51 GMT-0800 (Pacific Standard Time)","Thu Jan 30 2020 10:57:44 GMT-0800 (Pacific Standard Time)","Mozilla/5.0 (Windows NT 10.0; Win64; x64) AppleWebKit/537.36 (KHTML, like Gecko) Chrome/79.0.3945.130 Safari/537.36",65,"[0.9, 0.5, 0.1]","[0.8, 0.4, 0.2]","[u'red', u'black', u'blue']","[u'left', u'middle', u'right']","[0.9, 0.5, 0.1]","[u'low', u'high', u'medium']","blue",51,"right","medium","True","False",130,3350,NA
"A3PRZRK9IC5CBI","Thu Jan 30 2020 10:50:51 GMT-0800 (Pacific Standard Time)","Thu Jan 30 2020 10:57:44 GMT-0800 (Pacific Standard Time)","Mozilla/5.0 (Windows NT 10.0; Win64; x64) AppleWebKit/537.36 (KHTML, like Gecko) Chrome/79.0.3945.130 Safari/537.36",66,"[0.9, 0.5, 0.1]","[0.8, 0.4, 0.2]","[u'red', u'black', u'blue']","[u'left', u'middle', u'right']","[0.9, 0.5, 0.1]","[u'low', u'high', u'medium']","blue",51,"right","medium","False","False",106,3300,NA
"A3PRZRK9IC5CBI","Thu Jan 30 2020 10:50:51 GMT-0800 (Pacific Standard Time)","Thu Jan 30 2020 10:57:44 GMT-0800 (Pacific Standard Time)","Mozilla/5.0 (Windows NT 10.0; Win64; x64) AppleWebKit/537.36 (KHTML, like Gecko) Chrome/79.0.3945.130 Safari/537.36",67,"[0.9, 0.5, 0.1]","[0.8, 0.4, 0.2]","[u'red', u'black', u'blue']","[u'left', u'middle', u'right']","[0.9, 0.5, 0.1]","[u'low', u'high', u'medium']","blue",51,"right","medium","True","False",266,3400,NA
"A3PRZRK9IC5CBI","Thu Jan 30 2020 10:50:51 GMT-0800 (Pacific Standard Time)","Thu Jan 30 2020 10:57:44 GMT-0800 (Pacific Standard Time)","Mozilla/5.0 (Windows NT 10.0; Win64; x64) AppleWebKit/537.36 (KHTML, like Gecko) Chrome/79.0.3945.130 Safari/537.36",68,"[0.9, 0.5, 0.1]","[0.8, 0.4, 0.2]","[u'red', u'black', u'blue']","[u'left', u'middle', u'right']","[0.9, 0.5, 0.1]","[u'low', u'high', u'medium']","blue",51,"right","medium","False","False",338,3350,NA
"A3PRZRK9IC5CBI","Thu Jan 30 2020 10:50:51 GMT-0800 (Pacific Standard Time)","Thu Jan 30 2020 10:57:44 GMT-0800 (Pacific Standard Time)","Mozilla/5.0 (Windows NT 10.0; Win64; x64) AppleWebKit/537.36 (KHTML, like Gecko) Chrome/79.0.3945.130 Safari/537.36",69,"[0.9, 0.5, 0.1]","[0.8, 0.4, 0.2]","[u'red', u'black', u'blue']","[u'left', u'middle', u'right']","[0.9, 0.5, 0.1]","[u'low', u'high', u'medium']","red",49,"left","low","False","False",819,3300,NA
"A3PRZRK9IC5CBI","Thu Jan 30 2020 10:50:51 GMT-0800 (Pacific Standard Time)","Thu Jan 30 2020 10:57:44 GMT-0800 (Pacific Standard Time)","Mozilla/5.0 (Windows NT 10.0; Win64; x64) AppleWebKit/537.36 (KHTML, like Gecko) Chrome/79.0.3945.130 Safari/537.36",70,"[0.9, 0.5, 0.1]","[0.8, 0.4, 0.2]","[u'red', u'black', u'blue']","[u'left', u'middle', u'right']","[0.9, 0.5, 0.1]","[u'low', u'high', u'medium']","red",49,"left","low","False","False",307,3250,NA
"A3PRZRK9IC5CBI","Thu Jan 30 2020 10:50:51 GMT-0800 (Pacific Standard Time)","Thu Jan 30 2020 10:57:44 GMT-0800 (Pacific Standard Time)","Mozilla/5.0 (Windows NT 10.0; Win64; x64) AppleWebKit/537.36 (KHTML, like Gecko) Chrome/79.0.3945.130 Safari/537.36",71,"[0.9, 0.5, 0.1]","[0.8, 0.4, 0.2]","[u'red', u'black', u'blue']","[u'left', u'middle', u'right']","[0.9, 0.5, 0.1]","[u'low', u'high', u'medium']","red",49,"left","low","False","False",211,3200,NA
"A3PRZRK9IC5CBI","Thu Jan 30 2020 10:50:51 GMT-0800 (Pacific Standard Time)","Thu Jan 30 2020 10:57:44 GMT-0800 (Pacific Standard Time)","Mozilla/5.0 (Windows NT 10.0; Win64; x64) AppleWebKit/537.36 (KHTML, like Gecko) Chrome/79.0.3945.130 Safari/537.36",72,"[0.9, 0.5, 0.1]","[0.8, 0.4, 0.2]","[u'red', u'black', u'blue']","[u'left', u'middle', u'right']","[0.9, 0.5, 0.1]","[u'low', u'high', u'medium']","blue",51,"right","medium","True","False",186,3300,NA
"A3PRZRK9IC5CBI","Thu Jan 30 2020 10:50:51 GMT-0800 (Pacific Standard Time)","Thu Jan 30 2020 10:57:44 GMT-0800 (Pacific Standard Time)","Mozilla/5.0 (Windows NT 10.0; Win64; x64) AppleWebKit/537.36 (KHTML, like Gecko) Chrome/79.0.3945.130 Safari/537.36",73,"[0.9, 0.5, 0.1]","[0.8, 0.4, 0.2]","[u'red', u'black', u'blue']","[u'left', u'middle', u'right']","[0.9, 0.5, 0.1]","[u'low', u'high', u'medium']","blue",51,"right","medium","True","False",226,3400,NA
"A3PRZRK9IC5CBI","Thu Jan 30 2020 10:50:51 GMT-0800 (Pacific Standard Time)","Thu Jan 30 2020 10:57:44 GMT-0800 (Pacific Standard Time)","Mozilla/5.0 (Windows NT 10.0; Win64; x64) AppleWebKit/537.36 (KHTML, like Gecko) Chrome/79.0.3945.130 Safari/537.36",74,"[0.9, 0.5, 0.1]","[0.8, 0.4, 0.2]","[u'red', u'black', u'blue']","[u'left', u'middle', u'right']","[0.9, 0.5, 0.1]","[u'low', u'high', u'medium']","blue",51,"right","medium","False","False",235,3350,NA
"A3PRZRK9IC5CBI","Thu Jan 30 2020 10:50:51 GMT-0800 (Pacific Standard Time)","Thu Jan 30 2020 10:57:44 GMT-0800 (Pacific Standard Time)","Mozilla/5.0 (Windows NT 10.0; Win64; x64) AppleWebKit/537.36 (KHTML, like Gecko) Chrome/79.0.3945.130 Safari/537.36",75,"[0.9, 0.5, 0.1]","[0.8, 0.4, 0.2]","[u'red', u'black', u'blue']","[u'left', u'middle', u'right']","[0.9, 0.5, 0.1]","[u'low', u'high', u'medium']","blue",51,"right","medium","False","False",185,3300,NA
"A3PRZRK9IC5CBI","Thu Jan 30 2020 10:50:51 GMT-0800 (Pacific Standard Time)","Thu Jan 30 2020 10:57:44 GMT-0800 (Pacific Standard Time)","Mozilla/5.0 (Windows NT 10.0; Win64; x64) AppleWebKit/537.36 (KHTML, like Gecko) Chrome/79.0.3945.130 Safari/537.36",76,"[0.9, 0.5, 0.1]","[0.8, 0.4, 0.2]","[u'red', u'black', u'blue']","[u'left', u'middle', u'right']","[0.9, 0.5, 0.1]","[u'low', u'high', u'medium']","blue",51,"right","medium","False","False",362,3250,NA
"A3PRZRK9IC5CBI","Thu Jan 30 2020 10:50:51 GMT-0800 (Pacific Standard Time)","Thu Jan 30 2020 10:57:44 GMT-0800 (Pacific Standard Time)","Mozilla/5.0 (Windows NT 10.0; Win64; x64) AppleWebKit/537.36 (KHTML, like Gecko) Chrome/79.0.3945.130 Safari/537.36",77,"[0.9, 0.5, 0.1]","[0.8, 0.4, 0.2]","[u'red', u'black', u'blue']","[u'left', u'middle', u'right']","[0.9, 0.5, 0.1]","[u'low', u'high', u'medium']","black",50,"middle","high","True","False",227,3350,NA
"A3PRZRK9IC5CBI","Thu Jan 30 2020 10:50:51 GMT-0800 (Pacific Standard Time)","Thu Jan 30 2020 10:57:44 GMT-0800 (Pacific Standard Time)","Mozilla/5.0 (Windows NT 10.0; Win64; x64) AppleWebKit/537.36 (KHTML, like Gecko) Chrome/79.0.3945.130 Safari/537.36",78,"[0.9, 0.5, 0.1]","[0.8, 0.4, 0.2]","[u'red', u'black', u'blue']","[u'left', u'middle', u'right']","[0.9, 0.5, 0.1]","[u'low', u'high', u'medium']","black",50,"middle","high","True","False",252,3450,NA
"A3PRZRK9IC5CBI","Thu Jan 30 2020 10:50:51 GMT-0800 (Pacific Standard Time)","Thu Jan 30 2020 10:57:44 GMT-0800 (Pacific Standard Time)","Mozilla/5.0 (Windows NT 10.0; Win64; x64) AppleWebKit/537.36 (KHTML, like Gecko) Chrome/79.0.3945.130 Safari/537.36",79,"[0.9, 0.5, 0.1]","[0.8, 0.4, 0.2]","[u'red', u'black', u'blue']","[u'left', u'middle', u'right']","[0.9, 0.5, 0.1]","[u'low', u'high', u'medium']","black",50,"middle","high","True","False",235,3550,NA
"A3PRZRK9IC5CBI","Thu Jan 30 2020 10:50:51 GMT-0800 (Pacific Standard Time)","Thu Jan 30 2020 10:57:44 GMT-0800 (Pacific Standard Time)","Mozilla/5.0 (Windows NT 10.0; Win64; x64) AppleWebKit/537.36 (KHTML, like Gecko) Chrome/79.0.3945.130 Safari/537.36",80,"[0.9, 0.5, 0.1]","[0.8, 0.4, 0.2]","[u'red', u'black', u'blue']","[u'left', u'middle', u'right']","[0.9, 0.5, 0.1]","[u'low', u'high', u'medium']","black",50,"middle","high","True","False",267,3650,NA
"A3PRZRK9IC5CBI","Thu Jan 30 2020 10:50:51 GMT-0800 (Pacific Standard Time)","Thu Jan 30 2020 10:57:44 GMT-0800 (Pacific Standard Time)","Mozilla/5.0 (Windows NT 10.0; Win64; x64) AppleWebKit/537.36 (KHTML, like Gecko) Chrome/79.0.3945.130 Safari/537.36",81,"[0.9, 0.5, 0.1]","[0.8, 0.4, 0.2]","[u'red', u'black', u'blue']","[u'left', u'middle', u'right']","[0.8, 0.4, 0.2]","[u'high', u'medium', u'low']","black",50,"middle","medium","True","False",500,3750,NA
"A3PRZRK9IC5CBI","Thu Jan 30 2020 10:50:51 GMT-0800 (Pacific Standard Time)","Thu Jan 30 2020 10:57:44 GMT-0800 (Pacific Standard Time)","Mozilla/5.0 (Windows NT 10.0; Win64; x64) AppleWebKit/537.36 (KHTML, like Gecko) Chrome/79.0.3945.130 Safari/537.36",82,"[0.9, 0.5, 0.1]","[0.8, 0.4, 0.2]","[u'red', u'black', u'blue']","[u'left', u'middle', u'right']","[0.8, 0.4, 0.2]","[u'high', u'medium', u'low']","black",50,"middle","medium","False","False",228,3700,NA
"A3PRZRK9IC5CBI","Thu Jan 30 2020 10:50:51 GMT-0800 (Pacific Standard Time)","Thu Jan 30 2020 10:57:44 GMT-0800 (Pacific Standard Time)","Mozilla/5.0 (Windows NT 10.0; Win64; x64) AppleWebKit/537.36 (KHTML, like Gecko) Chrome/79.0.3945.130 Safari/537.36",83,"[0.9, 0.5, 0.1]","[0.8, 0.4, 0.2]","[u'red', u'black', u'blue']","[u'left', u'middle', u'right']","[0.8, 0.4, 0.2]","[u'high', u'medium', u'low']","black",50,"middle","medium","True","False",226,3800,NA
"A3PRZRK9IC5CBI","Thu Jan 30 2020 10:50:51 GMT-0800 (Pacific Standard Time)","Thu Jan 30 2020 10:57:44 GMT-0800 (Pacific Standard Time)","Mozilla/5.0 (Windows NT 10.0; Win64; x64) AppleWebKit/537.36 (KHTML, like Gecko) Chrome/79.0.3945.130 Safari/537.36",84,"[0.9, 0.5, 0.1]","[0.8, 0.4, 0.2]","[u'red', u'black', u'blue']","[u'left', u'middle', u'right']","[0.8, 0.4, 0.2]","[u'high', u'medium', u'low']","black",50,"middle","medium","True","False",219,3900,NA
"A3PRZRK9IC5CBI","Thu Jan 30 2020 10:50:51 GMT-0800 (Pacific Standard Time)","Thu Jan 30 2020 10:57:44 GMT-0800 (Pacific Standard Time)","Mozilla/5.0 (Windows NT 10.0; Win64; x64) AppleWebKit/537.36 (KHTML, like Gecko) Chrome/79.0.3945.130 Safari/537.36",85,"[0.9, 0.5, 0.1]","[0.8, 0.4, 0.2]","[u'red', u'black', u'blue']","[u'left', u'middle', u'right']","[0.8, 0.4, 0.2]","[u'high', u'medium', u'low']","black",50,"middle","medium","False","False",300,3850,NA
"A3PRZRK9IC5CBI","Thu Jan 30 2020 10:50:51 GMT-0800 (Pacific Standard Time)","Thu Jan 30 2020 10:57:44 GMT-0800 (Pacific Standard Time)","Mozilla/5.0 (Windows NT 10.0; Win64; x64) AppleWebKit/537.36 (KHTML, like Gecko) Chrome/79.0.3945.130 Safari/537.36",86,"[0.9, 0.5, 0.1]","[0.8, 0.4, 0.2]","[u'red', u'black', u'blue']","[u'left', u'middle', u'right']","[0.8, 0.4, 0.2]","[u'high', u'medium', u'low']","black",50,"middle","medium","True","False",258,3950,NA
"A3PRZRK9IC5CBI","Thu Jan 30 2020 10:50:51 GMT-0800 (Pacific Standard Time)","Thu Jan 30 2020 10:57:44 GMT-0800 (Pacific Standard Time)","Mozilla/5.0 (Windows NT 10.0; Win64; x64) AppleWebKit/537.36 (KHTML, like Gecko) Chrome/79.0.3945.130 Safari/537.36",87,"[0.9, 0.5, 0.1]","[0.8, 0.4, 0.2]","[u'red', u'black', u'blue']","[u'left', u'middle', u'right']","[0.8, 0.4, 0.2]","[u'high', u'medium', u'low']","black",50,"middle","medium","True","False",283,4050,NA
"A3PRZRK9IC5CBI","Thu Jan 30 2020 10:50:51 GMT-0800 (Pacific Standard Time)","Thu Jan 30 2020 10:57:44 GMT-0800 (Pacific Standard Time)","Mozilla/5.0 (Windows NT 10.0; Win64; x64) AppleWebKit/537.36 (KHTML, like Gecko) Chrome/79.0.3945.130 Safari/537.36",88,"[0.9, 0.5, 0.1]","[0.8, 0.4, 0.2]","[u'red', u'black', u'blue']","[u'left', u'middle', u'right']","[0.8, 0.4, 0.2]","[u'high', u'medium', u'low']","black",50,"middle","medium","False","False",290,4000,NA
"A3PRZRK9IC5CBI","Thu Jan 30 2020 10:50:51 GMT-0800 (Pacific Standard Time)","Thu Jan 30 2020 10:57:44 GMT-0800 (Pacific Standard Time)","Mozilla/5.0 (Windows NT 10.0; Win64; x64) AppleWebKit/537.36 (KHTML, like Gecko) Chrome/79.0.3945.130 Safari/537.36",89,"[0.9, 0.5, 0.1]","[0.8, 0.4, 0.2]","[u'red', u'black', u'blue']","[u'left', u'middle', u'right']","[0.8, 0.4, 0.2]","[u'high', u'medium', u'low']","black",50,"middle","medium","True","False",243,4100,NA
"A3PRZRK9IC5CBI","Thu Jan 30 2020 10:50:51 GMT-0800 (Pacific Standard Time)","Thu Jan 30 2020 10:57:44 GMT-0800 (Pacific Standard Time)","Mozilla/5.0 (Windows NT 10.0; Win64; x64) AppleWebKit/537.36 (KHTML, like Gecko) Chrome/79.0.3945.130 Safari/537.36",90,"[0.9, 0.5, 0.1]","[0.8, 0.4, 0.2]","[u'red', u'black', u'blue']","[u'left', u'middle', u'right']","[0.8, 0.4, 0.2]","[u'high', u'medium', u'low']","black",50,"middle","medium","False","False",260,4050,NA
"A3PRZRK9IC5CBI","Thu Jan 30 2020 10:50:51 GMT-0800 (Pacific Standard Time)","Thu Jan 30 2020 10:57:44 GMT-0800 (Pacific Standard Time)","Mozilla/5.0 (Windows NT 10.0; Win64; x64) AppleWebKit/537.36 (KHTML, like Gecko) Chrome/79.0.3945.130 Safari/537.36",91,"[0.9, 0.5, 0.1]","[0.8, 0.4, 0.2]","[u'red', u'black', u'blue']","[u'left', u'middle', u'right']","[0.8, 0.4, 0.2]","[u'high', u'medium', u'low']","black",50,"middle","medium","True","False",235,4150,NA
"A3PRZRK9IC5CBI","Thu Jan 30 2020 10:50:51 GMT-0800 (Pacific Standard Time)","Thu Jan 30 2020 10:57:44 GMT-0800 (Pacific Standard Time)","Mozilla/5.0 (Windows NT 10.0; Win64; x64) AppleWebKit/537.36 (KHTML, like Gecko) Chrome/79.0.3945.130 Safari/537.36",92,"[0.9, 0.5, 0.1]","[0.8, 0.4, 0.2]","[u'red', u'black', u'blue']","[u'left', u'middle', u'right']","[0.8, 0.4, 0.2]","[u'high', u'medium', u'low']","black",50,"middle","medium","False","False",242,4100,NA
"A3PRZRK9IC5CBI","Thu Jan 30 2020 10:50:51 GMT-0800 (Pacific Standard Time)","Thu Jan 30 2020 10:57:44 GMT-0800 (Pacific Standard Time)","Mozilla/5.0 (Windows NT 10.0; Win64; x64) AppleWebKit/537.36 (KHTML, like Gecko) Chrome/79.0.3945.130 Safari/537.36",93,"[0.9, 0.5, 0.1]","[0.8, 0.4, 0.2]","[u'red', u'black', u'blue']","[u'left', u'middle', u'right']","[0.8, 0.4, 0.2]","[u'high', u'medium', u'low']","blue",51,"right","low","False","False",219,4050,NA
"A3PRZRK9IC5CBI","Thu Jan 30 2020 10:50:51 GMT-0800 (Pacific Standard Time)","Thu Jan 30 2020 10:57:44 GMT-0800 (Pacific Standard Time)","Mozilla/5.0 (Windows NT 10.0; Win64; x64) AppleWebKit/537.36 (KHTML, like Gecko) Chrome/79.0.3945.130 Safari/537.36",94,"[0.9, 0.5, 0.1]","[0.8, 0.4, 0.2]","[u'red', u'black', u'blue']","[u'left', u'middle', u'right']","[0.8, 0.4, 0.2]","[u'high', u'medium', u'low']","blue",51,"right","low","False","False",139,4000,NA
"A3PRZRK9IC5CBI","Thu Jan 30 2020 10:50:51 GMT-0800 (Pacific Standard Time)","Thu Jan 30 2020 10:57:44 GMT-0800 (Pacific Standard Time)","Mozilla/5.0 (Windows NT 10.0; Win64; x64) AppleWebKit/537.36 (KHTML, like Gecko) Chrome/79.0.3945.130 Safari/537.36",95,"[0.9, 0.5, 0.1]","[0.8, 0.4, 0.2]","[u'red', u'black', u'blue']","[u'left', u'middle', u'right']","[0.8, 0.4, 0.2]","[u'high', u'medium', u'low']","red",49,"left","high","True","False",154,4100,NA
"A3PRZRK9IC5CBI","Thu Jan 30 2020 10:50:51 GMT-0800 (Pacific Standard Time)","Thu Jan 30 2020 10:57:44 GMT-0800 (Pacific Standard Time)","Mozilla/5.0 (Windows NT 10.0; Win64; x64) AppleWebKit/537.36 (KHTML, like Gecko) Chrome/79.0.3945.130 Safari/537.36",96,"[0.9, 0.5, 0.1]","[0.8, 0.4, 0.2]","[u'red', u'black', u'blue']","[u'left', u'middle', u'right']","[0.8, 0.4, 0.2]","[u'high', u'medium', u'low']","red",49,"left","high","True","False",243,4200,NA
"A3PRZRK9IC5CBI","Thu Jan 30 2020 10:50:51 GMT-0800 (Pacific Standard Time)","Thu Jan 30 2020 10:57:44 GMT-0800 (Pacific Standard Time)","Mozilla/5.0 (Windows NT 10.0; Win64; x64) AppleWebKit/537.36 (KHTML, like Gecko) Chrome/79.0.3945.130 Safari/537.36",97,"[0.9, 0.5, 0.1]","[0.8, 0.4, 0.2]","[u'red', u'black', u'blue']","[u'left', u'middle', u'right']","[0.8, 0.4, 0.2]","[u'high', u'medium', u'low']","red",49,"left","high","True","False",348,4300,NA
"A3PRZRK9IC5CBI","Thu Jan 30 2020 10:50:51 GMT-0800 (Pacific Standard Time)","Thu Jan 30 2020 10:57:44 GMT-0800 (Pacific Standard Time)","Mozilla/5.0 (Windows NT 10.0; Win64; x64) AppleWebKit/537.36 (KHTML, like Gecko) Chrome/79.0.3945.130 Safari/537.36",98,"[0.9, 0.5, 0.1]","[0.8, 0.4, 0.2]","[u'red', u'black', u'blue']","[u'left', u'middle', u'right']","[0.8, 0.4, 0.2]","[u'high', u'medium', u'low']","red",49,"left","high","True","False",234,4400,NA
"A3PRZRK9IC5CBI","Thu Jan 30 2020 10:50:51 GMT-0800 (Pacific Standard Time)","Thu Jan 30 2020 10:57:44 GMT-0800 (Pacific Standard Time)","Mozilla/5.0 (Windows NT 10.0; Win64; x64) AppleWebKit/537.36 (KHTML, like Gecko) Chrome/79.0.3945.130 Safari/537.36",99,"[0.9, 0.5, 0.1]","[0.8, 0.4, 0.2]","[u'red', u'black', u'blue']","[u'left', u'middle', u'right']","[0.8, 0.4, 0.2]","[u'high', u'medium', u'low']","red",49,"left","high","False","False",259,4350,NA
"A3PRZRK9IC5CBI","Thu Jan 30 2020 10:50:51 GMT-0800 (Pacific Standard Time)","Thu Jan 30 2020 10:57:44 GMT-0800 (Pacific Standard Time)","Mozilla/5.0 (Windows NT 10.0; Win64; x64) AppleWebKit/537.36 (KHTML, like Gecko) Chrome/79.0.3945.130 Safari/537.36",100,"[0.9, 0.5, 0.1]","[0.8, 0.4, 0.2]","[u'red', u'black', u'blue']","[u'left', u'middle', u'right']","[0.8, 0.4, 0.2]","[u'high', u'medium', u'low']","black",50,"middle","medium","False","False",131,4300,NA
"A3PRZRK9IC5CBI","Thu Jan 30 2020 10:50:51 GMT-0800 (Pacific Standard Time)","Thu Jan 30 2020 10:57:44 GMT-0800 (Pacific Standard Time)","Mozilla/5.0 (Windows NT 10.0; Win64; x64) AppleWebKit/537.36 (KHTML, like Gecko) Chrome/79.0.3945.130 Safari/537.36",101,"[0.9, 0.5, 0.1]","[0.8, 0.4, 0.2]","[u'red', u'black', u'blue']","[u'left', u'middle', u'right']","[0.8, 0.4, 0.2]","[u'high', u'medium', u'low']","black",50,"middle","medium","True","False",19,4400,NA
"A3PRZRK9IC5CBI","Thu Jan 30 2020 10:50:51 GMT-0800 (Pacific Standard Time)","Thu Jan 30 2020 10:57:44 GMT-0800 (Pacific Standard Time)","Mozilla/5.0 (Windows NT 10.0; Win64; x64) AppleWebKit/537.36 (KHTML, like Gecko) Chrome/79.0.3945.130 Safari/537.36",102,"[0.9, 0.5, 0.1]","[0.8, 0.4, 0.2]","[u'red', u'black', u'blue']","[u'left', u'middle', u'right']","[0.8, 0.4, 0.2]","[u'high', u'medium', u'low']","black",50,"middle","medium","False","False",202,4350,NA
"A3PRZRK9IC5CBI","Thu Jan 30 2020 10:50:51 GMT-0800 (Pacific Standard Time)","Thu Jan 30 2020 10:57:44 GMT-0800 (Pacific Standard Time)","Mozilla/5.0 (Windows NT 10.0; Win64; x64) AppleWebKit/537.36 (KHTML, like Gecko) Chrome/79.0.3945.130 Safari/537.36",103,"[0.9, 0.5, 0.1]","[0.8, 0.4, 0.2]","[u'red', u'black', u'blue']","[u'left', u'middle', u'right']","[0.8, 0.4, 0.2]","[u'high', u'medium', u'low']","black",50,"middle","medium","True","False",140,4450,NA
"A3PRZRK9IC5CBI","Thu Jan 30 2020 10:50:51 GMT-0800 (Pacific Standard Time)","Thu Jan 30 2020 10:57:44 GMT-0800 (Pacific Standard Time)","Mozilla/5.0 (Windows NT 10.0; Win64; x64) AppleWebKit/537.36 (KHTML, like Gecko) Chrome/79.0.3945.130 Safari/537.36",104,"[0.9, 0.5, 0.1]","[0.8, 0.4, 0.2]","[u'red', u'black', u'blue']","[u'left', u'middle', u'right']","[0.8, 0.4, 0.2]","[u'high', u'medium', u'low']","black",50,"middle","medium","False","False",219,4400,NA
"A3PRZRK9IC5CBI","Thu Jan 30 2020 10:50:51 GMT-0800 (Pacific Standard Time)","Thu Jan 30 2020 10:57:44 GMT-0800 (Pacific Standard Time)","Mozilla/5.0 (Windows NT 10.0; Win64; x64) AppleWebKit/537.36 (KHTML, like Gecko) Chrome/79.0.3945.130 Safari/537.36",105,"[0.9, 0.5, 0.1]","[0.8, 0.4, 0.2]","[u'red', u'black', u'blue']","[u'left', u'middle', u'right']","[0.8, 0.4, 0.2]","[u'high', u'medium', u'low']","black",50,"middle","medium","False","False",43,4350,NA
"A3PRZRK9IC5CBI","Thu Jan 30 2020 10:50:51 GMT-0800 (Pacific Standard Time)","Thu Jan 30 2020 10:57:44 GMT-0800 (Pacific Standard Time)","Mozilla/5.0 (Windows NT 10.0; Win64; x64) AppleWebKit/537.36 (KHTML, like Gecko) Chrome/79.0.3945.130 Safari/537.36",106,"[0.9, 0.5, 0.1]","[0.8, 0.4, 0.2]","[u'red', u'black', u'blue']","[u'left', u'middle', u'right']","[0.8, 0.4, 0.2]","[u'high', u'medium', u'low']","red",49,"left","high","True","False",219,4450,NA
"A3PRZRK9IC5CBI","Thu Jan 30 2020 10:50:51 GMT-0800 (Pacific Standard Time)","Thu Jan 30 2020 10:57:44 GMT-0800 (Pacific Standard Time)","Mozilla/5.0 (Windows NT 10.0; Win64; x64) AppleWebKit/537.36 (KHTML, like Gecko) Chrome/79.0.3945.130 Safari/537.36",107,"[0.9, 0.5, 0.1]","[0.8, 0.4, 0.2]","[u'red', u'black', u'blue']","[u'left', u'middle', u'right']","[0.8, 0.4, 0.2]","[u'high', u'medium', u'low']","red",49,"left","high","True","False",234,4550,NA
"A3PRZRK9IC5CBI","Thu Jan 30 2020 10:50:51 GMT-0800 (Pacific Standard Time)","Thu Jan 30 2020 10:57:44 GMT-0800 (Pacific Standard Time)","Mozilla/5.0 (Windows NT 10.0; Win64; x64) AppleWebKit/537.36 (KHTML, like Gecko) Chrome/79.0.3945.130 Safari/537.36",108,"[0.9, 0.5, 0.1]","[0.8, 0.4, 0.2]","[u'red', u'black', u'blue']","[u'left', u'middle', u'right']","[0.8, 0.4, 0.2]","[u'high', u'medium', u'low']","red",49,"left","high","True","False",249,4650,NA
"A3PRZRK9IC5CBI","Thu Jan 30 2020 10:50:51 GMT-0800 (Pacific Standard Time)","Thu Jan 30 2020 10:57:44 GMT-0800 (Pacific Standard Time)","Mozilla/5.0 (Windows NT 10.0; Win64; x64) AppleWebKit/537.36 (KHTML, like Gecko) Chrome/79.0.3945.130 Safari/537.36",109,"[0.9, 0.5, 0.1]","[0.8, 0.4, 0.2]","[u'red', u'black', u'blue']","[u'left', u'middle', u'right']","[0.8, 0.4, 0.2]","[u'high', u'medium', u'low']","red",49,"left","high","True","False",235,4750,NA
"A3PRZRK9IC5CBI","Thu Jan 30 2020 10:50:51 GMT-0800 (Pacific Standard Time)","Thu Jan 30 2020 10:57:44 GMT-0800 (Pacific Standard Time)","Mozilla/5.0 (Windows NT 10.0; Win64; x64) AppleWebKit/537.36 (KHTML, like Gecko) Chrome/79.0.3945.130 Safari/537.36",110,"[0.9, 0.5, 0.1]","[0.8, 0.4, 0.2]","[u'red', u'black', u'blue']","[u'left', u'middle', u'right']","[0.8, 0.4, 0.2]","[u'high', u'medium', u'low']","red",49,"left","high","True","False",300,4850,NA
"A3PRZRK9IC5CBI","Thu Jan 30 2020 10:50:51 GMT-0800 (Pacific Standard Time)","Thu Jan 30 2020 10:57:44 GMT-0800 (Pacific Standard Time)","Mozilla/5.0 (Windows NT 10.0; Win64; x64) AppleWebKit/537.36 (KHTML, like Gecko) Chrome/79.0.3945.130 Safari/537.36",111,"[0.9, 0.5, 0.1]","[0.8, 0.4, 0.2]","[u'red', u'black', u'blue']","[u'left', u'middle', u'right']","[0.8, 0.4, 0.2]","[u'high', u'medium', u'low']","red",49,"left","high","True","False",275,4950,NA
"A3PRZRK9IC5CBI","Thu Jan 30 2020 10:50:51 GMT-0800 (Pacific Standard Time)","Thu Jan 30 2020 10:57:44 GMT-0800 (Pacific Standard Time)","Mozilla/5.0 (Windows NT 10.0; Win64; x64) AppleWebKit/537.36 (KHTML, like Gecko) Chrome/79.0.3945.130 Safari/537.36",112,"[0.9, 0.5, 0.1]","[0.8, 0.4, 0.2]","[u'red', u'black', u'blue']","[u'left', u'middle', u'right']","[0.8, 0.4, 0.2]","[u'high', u'medium', u'low']","red",49,"left","high","False","False",258,4900,NA
"A3PRZRK9IC5CBI","Thu Jan 30 2020 10:50:51 GMT-0800 (Pacific Standard Time)","Thu Jan 30 2020 10:57:44 GMT-0800 (Pacific Standard Time)","Mozilla/5.0 (Windows NT 10.0; Win64; x64) AppleWebKit/537.36 (KHTML, like Gecko) Chrome/79.0.3945.130 Safari/537.36",113,"[0.9, 0.5, 0.1]","[0.8, 0.4, 0.2]","[u'red', u'black', u'blue']","[u'left', u'middle', u'right']","[0.8, 0.4, 0.2]","[u'high', u'medium', u'low']","red",49,"left","high","True","False",226,5000,NA
"A3PRZRK9IC5CBI","Thu Jan 30 2020 10:50:51 GMT-0800 (Pacific Standard Time)","Thu Jan 30 2020 10:57:44 GMT-0800 (Pacific Standard Time)","Mozilla/5.0 (Windows NT 10.0; Win64; x64) AppleWebKit/537.36 (KHTML, like Gecko) Chrome/79.0.3945.130 Safari/537.36",114,"[0.9, 0.5, 0.1]","[0.8, 0.4, 0.2]","[u'red', u'black', u'blue']","[u'left', u'middle', u'right']","[0.8, 0.4, 0.2]","[u'high', u'medium', u'low']","red",49,"left","high","True","True",266,5100,NA
"A3PRZRK9IC5CBI","Thu Jan 30 2020 10:50:51 GMT-0800 (Pacific Standard Time)","Thu Jan 30 2020 10:57:44 GMT-0800 (Pacific Standard Time)","Mozilla/5.0 (Windows NT 10.0; Win64; x64) AppleWebKit/537.36 (KHTML, like Gecko) Chrome/79.0.3945.130 Safari/537.36",115,"[0.9, 0.5, 0.1]","[0.8, 0.4, 0.2]","[u'red', u'black', u'blue']","[u'left', u'middle', u'right']","[0.8, 0.4, 0.2]","[u'low', u'medium', u'high']","red",49,"left","low","False","False",315,5050,NA
"A3PRZRK9IC5CBI","Thu Jan 30 2020 10:50:51 GMT-0800 (Pacific Standard Time)","Thu Jan 30 2020 10:57:44 GMT-0800 (Pacific Standard Time)","Mozilla/5.0 (Windows NT 10.0; Win64; x64) AppleWebKit/537.36 (KHTML, like Gecko) Chrome/79.0.3945.130 Safari/537.36",116,"[0.9, 0.5, 0.1]","[0.8, 0.4, 0.2]","[u'red', u'black', u'blue']","[u'left', u'middle', u'right']","[0.8, 0.4, 0.2]","[u'low', u'medium', u'high']","red",49,"left","low","False","False",155,5000,NA
"A3PRZRK9IC5CBI","Thu Jan 30 2020 10:50:51 GMT-0800 (Pacific Standard Time)","Thu Jan 30 2020 10:57:44 GMT-0800 (Pacific Standard Time)","Mozilla/5.0 (Windows NT 10.0; Win64; x64) AppleWebKit/537.36 (KHTML, like Gecko) Chrome/79.0.3945.130 Safari/537.36",117,"[0.9, 0.5, 0.1]","[0.8, 0.4, 0.2]","[u'red', u'black', u'blue']","[u'left', u'middle', u'right']","[0.8, 0.4, 0.2]","[u'low', u'medium', u'high']","red",49,"left","low","False","False",114,4950,NA
"A3PRZRK9IC5CBI","Thu Jan 30 2020 10:50:51 GMT-0800 (Pacific Standard Time)","Thu Jan 30 2020 10:57:44 GMT-0800 (Pacific Standard Time)","Mozilla/5.0 (Windows NT 10.0; Win64; x64) AppleWebKit/537.36 (KHTML, like Gecko) Chrome/79.0.3945.130 Safari/537.36",118,"[0.9, 0.5, 0.1]","[0.8, 0.4, 0.2]","[u'red', u'black', u'blue']","[u'left', u'middle', u'right']","[0.8, 0.4, 0.2]","[u'low', u'medium', u'high']","blue",51,"right","high","True","False",74,5050,NA
"A3PRZRK9IC5CBI","Thu Jan 30 2020 10:50:51 GMT-0800 (Pacific Standard Time)","Thu Jan 30 2020 10:57:44 GMT-0800 (Pacific Standard Time)","Mozilla/5.0 (Windows NT 10.0; Win64; x64) AppleWebKit/537.36 (KHTML, like Gecko) Chrome/79.0.3945.130 Safari/537.36",119,"[0.9, 0.5, 0.1]","[0.8, 0.4, 0.2]","[u'red', u'black', u'blue']","[u'left', u'middle', u'right']","[0.8, 0.4, 0.2]","[u'low', u'medium', u'high']","blue",51,"right","high","True","False",242,5150,NA
"A3PRZRK9IC5CBI","Thu Jan 30 2020 10:50:51 GMT-0800 (Pacific Standard Time)","Thu Jan 30 2020 10:57:44 GMT-0800 (Pacific Standard Time)","Mozilla/5.0 (Windows NT 10.0; Win64; x64) AppleWebKit/537.36 (KHTML, like Gecko) Chrome/79.0.3945.130 Safari/537.36",120,"[0.9, 0.5, 0.1]","[0.8, 0.4, 0.2]","[u'red', u'black', u'blue']","[u'left', u'middle', u'right']","[0.8, 0.4, 0.2]","[u'low', u'medium', u'high']","blue",51,"right","high","True","False",274,5250,NA
"A3PRZRK9IC5CBI","Thu Jan 30 2020 10:50:51 GMT-0800 (Pacific Standard Time)","Thu Jan 30 2020 10:57:44 GMT-0800 (Pacific Standard Time)","Mozilla/5.0 (Windows NT 10.0; Win64; x64) AppleWebKit/537.36 (KHTML, like Gecko) Chrome/79.0.3945.130 Safari/537.36",121,"[0.9, 0.5, 0.1]","[0.8, 0.4, 0.2]","[u'red', u'black', u'blue']","[u'left', u'middle', u'right']","[0.8, 0.4, 0.2]","[u'high', u'low', u'medium']","blue",51,"right","medium","False","False",298,5200,NA
"A3PRZRK9IC5CBI","Thu Jan 30 2020 10:50:51 GMT-0800 (Pacific Standard Time)","Thu Jan 30 2020 10:57:44 GMT-0800 (Pacific Standard Time)","Mozilla/5.0 (Windows NT 10.0; Win64; x64) AppleWebKit/537.36 (KHTML, like Gecko) Chrome/79.0.3945.130 Safari/537.36",122,"[0.9, 0.5, 0.1]","[0.8, 0.4, 0.2]","[u'red', u'black', u'blue']","[u'left', u'middle', u'right']","[0.8, 0.4, 0.2]","[u'high', u'low', u'medium']","blue",51,"right","medium","True","False",179,5300,NA
"A3PRZRK9IC5CBI","Thu Jan 30 2020 10:50:51 GMT-0800 (Pacific Standard Time)","Thu Jan 30 2020 10:57:44 GMT-0800 (Pacific Standard Time)","Mozilla/5.0 (Windows NT 10.0; Win64; x64) AppleWebKit/537.36 (KHTML, like Gecko) Chrome/79.0.3945.130 Safari/537.36",123,"[0.9, 0.5, 0.1]","[0.8, 0.4, 0.2]","[u'red', u'black', u'blue']","[u'left', u'middle', u'right']","[0.8, 0.4, 0.2]","[u'high', u'low', u'medium']","blue",51,"right","medium","False","False",226,5250,NA
"A3PRZRK9IC5CBI","Thu Jan 30 2020 10:50:51 GMT-0800 (Pacific Standard Time)","Thu Jan 30 2020 10:57:44 GMT-0800 (Pacific Standard Time)","Mozilla/5.0 (Windows NT 10.0; Win64; x64) AppleWebKit/537.36 (KHTML, like Gecko) Chrome/79.0.3945.130 Safari/537.36",124,"[0.9, 0.5, 0.1]","[0.8, 0.4, 0.2]","[u'red', u'black', u'blue']","[u'left', u'middle', u'right']","[0.8, 0.4, 0.2]","[u'high', u'low', u'medium']","blue",51,"right","medium","False","False",154,5200,NA
"A3PRZRK9IC5CBI","Thu Jan 30 2020 10:50:51 GMT-0800 (Pacific Standard Time)","Thu Jan 30 2020 10:57:44 GMT-0800 (Pacific Standard Time)","Mozilla/5.0 (Windows NT 10.0; Win64; x64) AppleWebKit/537.36 (KHTML, like Gecko) Chrome/79.0.3945.130 Safari/537.36",125,"[0.9, 0.5, 0.1]","[0.8, 0.4, 0.2]","[u'red', u'black', u'blue']","[u'left', u'middle', u'right']","[0.8, 0.4, 0.2]","[u'high', u'low', u'medium']","red",49,"left","high","True","False",330,5300,NA
"A3PRZRK9IC5CBI","Thu Jan 30 2020 10:50:51 GMT-0800 (Pacific Standard Time)","Thu Jan 30 2020 10:57:44 GMT-0800 (Pacific Standard Time)","Mozilla/5.0 (Windows NT 10.0; Win64; x64) AppleWebKit/537.36 (KHTML, like Gecko) Chrome/79.0.3945.130 Safari/537.36",126,"[0.9, 0.5, 0.1]","[0.8, 0.4, 0.2]","[u'red', u'black', u'blue']","[u'left', u'middle', u'right']","[0.8, 0.4, 0.2]","[u'high', u'low', u'medium']","red",49,"left","high","True","False",227,5400,NA
"A3PRZRK9IC5CBI","Thu Jan 30 2020 10:50:51 GMT-0800 (Pacific Standard Time)","Thu Jan 30 2020 10:57:44 GMT-0800 (Pacific Standard Time)","Mozilla/5.0 (Windows NT 10.0; Win64; x64) AppleWebKit/537.36 (KHTML, like Gecko) Chrome/79.0.3945.130 Safari/537.36",127,"[0.9, 0.5, 0.1]","[0.8, 0.4, 0.2]","[u'red', u'black', u'blue']","[u'left', u'middle', u'right']","[0.8, 0.4, 0.2]","[u'high', u'low', u'medium']","red",49,"left","high","True","False",259,5500,NA
"A3PRZRK9IC5CBI","Thu Jan 30 2020 10:50:51 GMT-0800 (Pacific Standard Time)","Thu Jan 30 2020 10:57:44 GMT-0800 (Pacific Standard Time)","Mozilla/5.0 (Windows NT 10.0; Win64; x64) AppleWebKit/537.36 (KHTML, like Gecko) Chrome/79.0.3945.130 Safari/537.36",128,"[0.9, 0.5, 0.1]","[0.8, 0.4, 0.2]","[u'red', u'black', u'blue']","[u'left', u'middle', u'right']","[0.8, 0.4, 0.2]","[u'high', u'low', u'medium']","red",49,"left","high","True","False",154,5600,NA
"A3PRZRK9IC5CBI","Thu Jan 30 2020 10:50:51 GMT-0800 (Pacific Standard Time)","Thu Jan 30 2020 10:57:44 GMT-0800 (Pacific Standard Time)","Mozilla/5.0 (Windows NT 10.0; Win64; x64) AppleWebKit/537.36 (KHTML, like Gecko) Chrome/79.0.3945.130 Safari/537.36",129,"[0.9, 0.5, 0.1]","[0.8, 0.4, 0.2]","[u'red', u'black', u'blue']","[u'left', u'middle', u'right']","[0.8, 0.4, 0.2]","[u'high', u'low', u'medium']","red",49,"left","high","True","False",170,5700,NA
"A3PRZRK9IC5CBI","Thu Jan 30 2020 10:50:51 GMT-0800 (Pacific Standard Time)","Thu Jan 30 2020 10:57:44 GMT-0800 (Pacific Standard Time)","Mozilla/5.0 (Windows NT 10.0; Win64; x64) AppleWebKit/537.36 (KHTML, like Gecko) Chrome/79.0.3945.130 Safari/537.36",130,"[0.9, 0.5, 0.1]","[0.8, 0.4, 0.2]","[u'red', u'black', u'blue']","[u'left', u'middle', u'right']","[0.8, 0.4, 0.2]","[u'high', u'low', u'medium']","red",49,"left","high","True","False",171,5800,NA
"A3PRZRK9IC5CBI","Thu Jan 30 2020 10:50:51 GMT-0800 (Pacific Standard Time)","Thu Jan 30 2020 10:57:44 GMT-0800 (Pacific Standard Time)","Mozilla/5.0 (Windows NT 10.0; Win64; x64) AppleWebKit/537.36 (KHTML, like Gecko) Chrome/79.0.3945.130 Safari/537.36",131,"[0.9, 0.5, 0.1]","[0.8, 0.4, 0.2]","[u'red', u'black', u'blue']","[u'left', u'middle', u'right']","[0.8, 0.4, 0.2]","[u'high', u'low', u'medium']","red",49,"left","high","True","False",242,5900,NA
"A3PRZRK9IC5CBI","Thu Jan 30 2020 10:50:51 GMT-0800 (Pacific Standard Time)","Thu Jan 30 2020 10:57:44 GMT-0800 (Pacific Standard Time)","Mozilla/5.0 (Windows NT 10.0; Win64; x64) AppleWebKit/537.36 (KHTML, like Gecko) Chrome/79.0.3945.130 Safari/537.36",132,"[0.9, 0.5, 0.1]","[0.8, 0.4, 0.2]","[u'red', u'black', u'blue']","[u'left', u'middle', u'right']","[0.8, 0.4, 0.2]","[u'high', u'low', u'medium']","red",49,"left","high","True","False",290,6000,NA
"A3PRZRK9IC5CBI","Thu Jan 30 2020 10:50:51 GMT-0800 (Pacific Standard Time)","Thu Jan 30 2020 10:57:44 GMT-0800 (Pacific Standard Time)","Mozilla/5.0 (Windows NT 10.0; Win64; x64) AppleWebKit/537.36 (KHTML, like Gecko) Chrome/79.0.3945.130 Safari/537.36",133,"[0.9, 0.5, 0.1]","[0.8, 0.4, 0.2]","[u'red', u'black', u'blue']","[u'left', u'middle', u'right']","[0.8, 0.4, 0.2]","[u'high', u'low', u'medium']","red",49,"left","high","True","True",275,6100,NA
"A3PRZRK9IC5CBI","Thu Jan 30 2020 10:50:51 GMT-0800 (Pacific Standard Time)","Thu Jan 30 2020 10:57:44 GMT-0800 (Pacific Standard Time)","Mozilla/5.0 (Windows NT 10.0; Win64; x64) AppleWebKit/537.36 (KHTML, like Gecko) Chrome/79.0.3945.130 Safari/537.36",134,"[0.9, 0.5, 0.1]","[0.8, 0.4, 0.2]","[u'red', u'black', u'blue']","[u'left', u'middle', u'right']","[0.8, 0.4, 0.2]","[u'medium', u'low', u'high']","red",49,"left","medium","True","False",218,6200,NA
"A3PRZRK9IC5CBI","Thu Jan 30 2020 10:50:51 GMT-0800 (Pacific Standard Time)","Thu Jan 30 2020 10:57:44 GMT-0800 (Pacific Standard Time)","Mozilla/5.0 (Windows NT 10.0; Win64; x64) AppleWebKit/537.36 (KHTML, like Gecko) Chrome/79.0.3945.130 Safari/537.36",135,"[0.9, 0.5, 0.1]","[0.8, 0.4, 0.2]","[u'red', u'black', u'blue']","[u'left', u'middle', u'right']","[0.8, 0.4, 0.2]","[u'medium', u'low', u'high']","red",49,"left","medium","False","False",284,6150,NA
"A3PRZRK9IC5CBI","Thu Jan 30 2020 10:50:51 GMT-0800 (Pacific Standard Time)","Thu Jan 30 2020 10:57:44 GMT-0800 (Pacific Standard Time)","Mozilla/5.0 (Windows NT 10.0; Win64; x64) AppleWebKit/537.36 (KHTML, like Gecko) Chrome/79.0.3945.130 Safari/537.36",136,"[0.9, 0.5, 0.1]","[0.8, 0.4, 0.2]","[u'red', u'black', u'blue']","[u'left', u'middle', u'right']","[0.8, 0.4, 0.2]","[u'medium', u'low', u'high']","blue",51,"right","high","True","False",330,6250,NA
"A3PRZRK9IC5CBI","Thu Jan 30 2020 10:50:51 GMT-0800 (Pacific Standard Time)","Thu Jan 30 2020 10:57:44 GMT-0800 (Pacific Standard Time)","Mozilla/5.0 (Windows NT 10.0; Win64; x64) AppleWebKit/537.36 (KHTML, like Gecko) Chrome/79.0.3945.130 Safari/537.36",137,"[0.9, 0.5, 0.1]","[0.8, 0.4, 0.2]","[u'red', u'black', u'blue']","[u'left', u'middle', u'right']","[0.8, 0.4, 0.2]","[u'medium', u'low', u'high']","red",49,"left","medium","False","False",162,6200,NA
"A3PRZRK9IC5CBI","Thu Jan 30 2020 10:50:51 GMT-0800 (Pacific Standard Time)","Thu Jan 30 2020 10:57:44 GMT-0800 (Pacific Standard Time)","Mozilla/5.0 (Windows NT 10.0; Win64; x64) AppleWebKit/537.36 (KHTML, like Gecko) Chrome/79.0.3945.130 Safari/537.36",138,"[0.9, 0.5, 0.1]","[0.8, 0.4, 0.2]","[u'red', u'black', u'blue']","[u'left', u'middle', u'right']","[0.8, 0.4, 0.2]","[u'medium', u'low', u'high']","blue",51,"right","high","True","False",19,6300,NA
"A3PRZRK9IC5CBI","Thu Jan 30 2020 10:50:51 GMT-0800 (Pacific Standard Time)","Thu Jan 30 2020 10:57:44 GMT-0800 (Pacific Standard Time)","Mozilla/5.0 (Windows NT 10.0; Win64; x64) AppleWebKit/537.36 (KHTML, like Gecko) Chrome/79.0.3945.130 Safari/537.36",139,"[0.9, 0.5, 0.1]","[0.8, 0.4, 0.2]","[u'red', u'black', u'blue']","[u'left', u'middle', u'right']","[0.8, 0.4, 0.2]","[u'medium', u'low', u'high']","blue",51,"right","high","True","False",142,6400,NA
"A3PRZRK9IC5CBI","Thu Jan 30 2020 10:50:51 GMT-0800 (Pacific Standard Time)","Thu Jan 30 2020 10:57:44 GMT-0800 (Pacific Standard Time)","Mozilla/5.0 (Windows NT 10.0; Win64; x64) AppleWebKit/537.36 (KHTML, like Gecko) Chrome/79.0.3945.130 Safari/537.36",140,"[0.9, 0.5, 0.1]","[0.8, 0.4, 0.2]","[u'red', u'black', u'blue']","[u'left', u'middle', u'right']","[0.8, 0.4, 0.2]","[u'medium', u'low', u'high']","blue",51,"right","high","False","False",305,6350,NA
"A3PRZRK9IC5CBI","Thu Jan 30 2020 10:50:51 GMT-0800 (Pacific Standard Time)","Thu Jan 30 2020 10:57:44 GMT-0800 (Pacific Standard Time)","Mozilla/5.0 (Windows NT 10.0; Win64; x64) AppleWebKit/537.36 (KHTML, like Gecko) Chrome/79.0.3945.130 Safari/537.36",141,"[0.9, 0.5, 0.1]","[0.8, 0.4, 0.2]","[u'red', u'black', u'blue']","[u'left', u'middle', u'right']","[0.8, 0.4, 0.2]","[u'medium', u'low', u'high']","red",49,"left","medium","False","False",186,6300,NA
"A3PRZRK9IC5CBI","Thu Jan 30 2020 10:50:51 GMT-0800 (Pacific Standard Time)","Thu Jan 30 2020 10:57:44 GMT-0800 (Pacific Standard Time)","Mozilla/5.0 (Windows NT 10.0; Win64; x64) AppleWebKit/537.36 (KHTML, like Gecko) Chrome/79.0.3945.130 Safari/537.36",142,"[0.9, 0.5, 0.1]","[0.8, 0.4, 0.2]","[u'red', u'black', u'blue']","[u'left', u'middle', u'right']","[0.8, 0.4, 0.2]","[u'medium', u'low', u'high']","black",50,"middle","low","False","False",139,6250,NA
"A3PRZRK9IC5CBI","Thu Jan 30 2020 10:50:51 GMT-0800 (Pacific Standard Time)","Thu Jan 30 2020 10:57:44 GMT-0800 (Pacific Standard Time)","Mozilla/5.0 (Windows NT 10.0; Win64; x64) AppleWebKit/537.36 (KHTML, like Gecko) Chrome/79.0.3945.130 Safari/537.36",143,"[0.9, 0.5, 0.1]","[0.8, 0.4, 0.2]","[u'red', u'black', u'blue']","[u'left', u'middle', u'right']","[0.8, 0.4, 0.2]","[u'medium', u'low', u'high']","blue",51,"right","high","False","False",258,6200,NA
"A3PRZRK9IC5CBI","Thu Jan 30 2020 10:50:51 GMT-0800 (Pacific Standard Time)","Thu Jan 30 2020 10:57:44 GMT-0800 (Pacific Standard Time)","Mozilla/5.0 (Windows NT 10.0; Win64; x64) AppleWebKit/537.36 (KHTML, like Gecko) Chrome/79.0.3945.130 Safari/537.36",144,"[0.9, 0.5, 0.1]","[0.8, 0.4, 0.2]","[u'red', u'black', u'blue']","[u'left', u'middle', u'right']","[0.8, 0.4, 0.2]","[u'medium', u'low', u'high']","red",49,"left","medium","False","False",18,6150,NA
"A3PRZRK9IC5CBI","Thu Jan 30 2020 10:50:51 GMT-0800 (Pacific Standard Time)","Thu Jan 30 2020 10:57:44 GMT-0800 (Pacific Standard Time)","Mozilla/5.0 (Windows NT 10.0; Win64; x64) AppleWebKit/537.36 (KHTML, like Gecko) Chrome/79.0.3945.130 Safari/537.36",145,"[0.9, 0.5, 0.1]","[0.8, 0.4, 0.2]","[u'red', u'black', u'blue']","[u'left', u'middle', u'right']","[0.8, 0.4, 0.2]","[u'medium', u'low', u'high']","blue",51,"right","high","True","False",195,6250,NA
"A3PRZRK9IC5CBI","Thu Jan 30 2020 10:50:51 GMT-0800 (Pacific Standard Time)","Thu Jan 30 2020 10:57:44 GMT-0800 (Pacific Standard Time)","Mozilla/5.0 (Windows NT 10.0; Win64; x64) AppleWebKit/537.36 (KHTML, like Gecko) Chrome/79.0.3945.130 Safari/537.36",146,"[0.9, 0.5, 0.1]","[0.8, 0.4, 0.2]","[u'red', u'black', u'blue']","[u'left', u'middle', u'right']","[0.8, 0.4, 0.2]","[u'medium', u'low', u'high']","blue",51,"right","high","True","False",147,6350,NA
"A3PRZRK9IC5CBI","Thu Jan 30 2020 10:50:51 GMT-0800 (Pacific Standard Time)","Thu Jan 30 2020 10:57:44 GMT-0800 (Pacific Standard Time)","Mozilla/5.0 (Windows NT 10.0; Win64; x64) AppleWebKit/537.36 (KHTML, like Gecko) Chrome/79.0.3945.130 Safari/537.36",147,"[0.9, 0.5, 0.1]","[0.8, 0.4, 0.2]","[u'red', u'black', u'blue']","[u'left', u'middle', u'right']","[0.8, 0.4, 0.2]","[u'medium', u'low', u'high']","blue",51,"right","high","True","False",251,6450,NA
"A3PRZRK9IC5CBI","Thu Jan 30 2020 10:50:51 GMT-0800 (Pacific Standard Time)","Thu Jan 30 2020 10:57:44 GMT-0800 (Pacific Standard Time)","Mozilla/5.0 (Windows NT 10.0; Win64; x64) AppleWebKit/537.36 (KHTML, like Gecko) Chrome/79.0.3945.130 Safari/537.36",148,"[0.9, 0.5, 0.1]","[0.8, 0.4, 0.2]","[u'red', u'black', u'blue']","[u'left', u'middle', u'right']","[0.8, 0.4, 0.2]","[u'medium', u'low', u'high']","blue",51,"right","high","True","False",124,6550,NA
"A3PRZRK9IC5CBI","Thu Jan 30 2020 10:50:51 GMT-0800 (Pacific Standard Time)","Thu Jan 30 2020 10:57:44 GMT-0800 (Pacific Standard Time)","Mozilla/5.0 (Windows NT 10.0; Win64; x64) AppleWebKit/537.36 (KHTML, like Gecko) Chrome/79.0.3945.130 Safari/537.36",149,"[0.9, 0.5, 0.1]","[0.8, 0.4, 0.2]","[u'red', u'black', u'blue']","[u'left', u'middle', u'right']","[0.8, 0.4, 0.2]","[u'medium', u'low', u'high']","blue",51,"right","high","True","False",155,6650,NA
"A3PRZRK9IC5CBI","Thu Jan 30 2020 10:50:51 GMT-0800 (Pacific Standard Time)","Thu Jan 30 2020 10:57:44 GMT-0800 (Pacific Standard Time)","Mozilla/5.0 (Windows NT 10.0; Win64; x64) AppleWebKit/537.36 (KHTML, like Gecko) Chrome/79.0.3945.130 Safari/537.36",150,"[0.9, 0.5, 0.1]","[0.8, 0.4, 0.2]","[u'red', u'black', u'blue']","[u'left', u'middle', u'right']","[0.8, 0.4, 0.2]","[u'medium', u'low', u'high']","blue",51,"right","high","True","False",243,6750,NA
"A3PRZRK9IC5CBI","Thu Jan 30 2020 10:50:51 GMT-0800 (Pacific Standard Time)","Thu Jan 30 2020 10:57:44 GMT-0800 (Pacific Standard Time)","Mozilla/5.0 (Windows NT 10.0; Win64; x64) AppleWebKit/537.36 (KHTML, like Gecko) Chrome/79.0.3945.130 Safari/537.36",151,"[0.9, 0.5, 0.1]","[0.8, 0.4, 0.2]","[u'red', u'black', u'blue']","[u'left', u'middle', u'right']","[0.8, 0.4, 0.2]","[u'medium', u'low', u'high']","blue",51,"right","high","False","False",267,6700,NA
"A3PRZRK9IC5CBI","Thu Jan 30 2020 10:50:51 GMT-0800 (Pacific Standard Time)","Thu Jan 30 2020 10:57:44 GMT-0800 (Pacific Standard Time)","Mozilla/5.0 (Windows NT 10.0; Win64; x64) AppleWebKit/537.36 (KHTML, like Gecko) Chrome/79.0.3945.130 Safari/537.36",152,"[0.9, 0.5, 0.1]","[0.8, 0.4, 0.2]","[u'red', u'black', u'blue']","[u'left', u'middle', u'right']","[0.8, 0.4, 0.2]","[u'medium', u'low', u'high']","blue",51,"right","high","False","True",74,6650,NA
"A3PRZRK9IC5CBI","Thu Jan 30 2020 10:50:51 GMT-0800 (Pacific Standard Time)","Thu Jan 30 2020 10:57:44 GMT-0800 (Pacific Standard Time)","Mozilla/5.0 (Windows NT 10.0; Win64; x64) AppleWebKit/537.36 (KHTML, like Gecko) Chrome/79.0.3945.130 Safari/537.36",153,"[0.9, 0.5, 0.1]","[0.8, 0.4, 0.2]","[u'red', u'black', u'blue']","[u'left', u'middle', u'right']","[0.8, 0.4, 0.2]","[u'medium', u'high', u'low']","blue",51,"right","low","False","False",235,6600,NA
"A3PRZRK9IC5CBI","Thu Jan 30 2020 10:50:51 GMT-0800 (Pacific Standard Time)","Thu Jan 30 2020 10:57:44 GMT-0800 (Pacific Standard Time)","Mozilla/5.0 (Windows NT 10.0; Win64; x64) AppleWebKit/537.36 (KHTML, like Gecko) Chrome/79.0.3945.130 Safari/537.36",154,"[0.9, 0.5, 0.1]","[0.8, 0.4, 0.2]","[u'red', u'black', u'blue']","[u'left', u'middle', u'right']","[0.8, 0.4, 0.2]","[u'medium', u'high', u'low']","red",49,"left","medium","False","False",131,6550,NA
"A3PRZRK9IC5CBI","Thu Jan 30 2020 10:50:51 GMT-0800 (Pacific Standard Time)","Thu Jan 30 2020 10:57:44 GMT-0800 (Pacific Standard Time)","Mozilla/5.0 (Windows NT 10.0; Win64; x64) AppleWebKit/537.36 (KHTML, like Gecko) Chrome/79.0.3945.130 Safari/537.36",155,"[0.9, 0.5, 0.1]","[0.8, 0.4, 0.2]","[u'red', u'black', u'blue']","[u'left', u'middle', u'right']","[0.8, 0.4, 0.2]","[u'medium', u'high', u'low']","red",49,"left","medium","True","False",132,6650,NA
"A3PRZRK9IC5CBI","Thu Jan 30 2020 10:50:51 GMT-0800 (Pacific Standard Time)","Thu Jan 30 2020 10:57:44 GMT-0800 (Pacific Standard Time)","Mozilla/5.0 (Windows NT 10.0; Win64; x64) AppleWebKit/537.36 (KHTML, like Gecko) Chrome/79.0.3945.130 Safari/537.36",156,"[0.9, 0.5, 0.1]","[0.8, 0.4, 0.2]","[u'red', u'black', u'blue']","[u'left', u'middle', u'right']","[0.8, 0.4, 0.2]","[u'medium', u'high', u'low']","red",49,"left","medium","True","False",226,6750,NA
"A3PRZRK9IC5CBI","Thu Jan 30 2020 10:50:51 GMT-0800 (Pacific Standard Time)","Thu Jan 30 2020 10:57:44 GMT-0800 (Pacific Standard Time)","Mozilla/5.0 (Windows NT 10.0; Win64; x64) AppleWebKit/537.36 (KHTML, like Gecko) Chrome/79.0.3945.130 Safari/537.36",157,"[0.9, 0.5, 0.1]","[0.8, 0.4, 0.2]","[u'red', u'black', u'blue']","[u'left', u'middle', u'right']","[0.8, 0.4, 0.2]","[u'medium', u'high', u'low']","red",49,"left","medium","True","False",227,6850,NA
"A3PRZRK9IC5CBI","Thu Jan 30 2020 10:50:51 GMT-0800 (Pacific Standard Time)","Thu Jan 30 2020 10:57:44 GMT-0800 (Pacific Standard Time)","Mozilla/5.0 (Windows NT 10.0; Win64; x64) AppleWebKit/537.36 (KHTML, like Gecko) Chrome/79.0.3945.130 Safari/537.36",158,"[0.9, 0.5, 0.1]","[0.8, 0.4, 0.2]","[u'red', u'black', u'blue']","[u'left', u'middle', u'right']","[0.8, 0.4, 0.2]","[u'medium', u'high', u'low']","red",49,"left","medium","False","False",212,6800,NA
"A3PRZRK9IC5CBI","Thu Jan 30 2020 10:50:51 GMT-0800 (Pacific Standard Time)","Thu Jan 30 2020 10:57:44 GMT-0800 (Pacific Standard Time)","Mozilla/5.0 (Windows NT 10.0; Win64; x64) AppleWebKit/537.36 (KHTML, like Gecko) Chrome/79.0.3945.130 Safari/537.36",159,"[0.9, 0.5, 0.1]","[0.8, 0.4, 0.2]","[u'red', u'black', u'blue']","[u'left', u'middle', u'right']","[0.8, 0.4, 0.2]","[u'medium', u'high', u'low']","blue",51,"right","low","True","False",223,6900,NA
"A3PRZRK9IC5CBI","Thu Jan 30 2020 10:50:51 GMT-0800 (Pacific Standard Time)","Thu Jan 30 2020 10:57:44 GMT-0800 (Pacific Standard Time)","Mozilla/5.0 (Windows NT 10.0; Win64; x64) AppleWebKit/537.36 (KHTML, like Gecko) Chrome/79.0.3945.130 Safari/537.36",160,"[0.9, 0.5, 0.1]","[0.8, 0.4, 0.2]","[u'red', u'black', u'blue']","[u'left', u'middle', u'right']","[0.8, 0.4, 0.2]","[u'medium', u'high', u'low']","blue",51,"right","low","False","False",227,6850,NA
