"src_subject_id","start_time","end_time","browser","index","first_half_probabilities","second_half_probabilities","deck_color","deck_position","deck_probabilities","deck_contingencies","response_color","key_press","response_position","response_probability","reward_type","trial_type","rt","reward_tally","exclusion_reason"
"A3LLOANE52R4LT","Thu Jan 30 2020 16:55:04 GMT-0600 (Central Standard Time)","Thu Jan 30 2020 17:02:37 GMT-0600 (Central Standard Time)","Mozilla/5.0 (Macintosh; Intel Mac OS X 10.15; rv:72.0) Gecko/20100101 Firefox/72.0",1,"[0.9, 0.5, 0.1]","[0.8, 0.4, 0.2]","[u'blue', u'black', u'red']","[u'left', u'middle', u'right']","[0.9, 0.5, 0.1]","[u'low', u'medium', u'high']","blue",49,"left","low","False","False",477,-50,NA
"A3LLOANE52R4LT","Thu Jan 30 2020 16:55:04 GMT-0600 (Central Standard Time)","Thu Jan 30 2020 17:02:37 GMT-0600 (Central Standard Time)","Mozilla/5.0 (Macintosh; Intel Mac OS X 10.15; rv:72.0) Gecko/20100101 Firefox/72.0",2,"[0.9, 0.5, 0.1]","[0.8, 0.4, 0.2]","[u'blue', u'black', u'red']","[u'left', u'middle', u'right']","[0.9, 0.5, 0.1]","[u'low', u'medium', u'high']","blue",49,"left","low","False","False",323,-100,NA
"A3LLOANE52R4LT","Thu Jan 30 2020 16:55:04 GMT-0600 (Central Standard Time)","Thu Jan 30 2020 17:02:37 GMT-0600 (Central Standard Time)","Mozilla/5.0 (Macintosh; Intel Mac OS X 10.15; rv:72.0) Gecko/20100101 Firefox/72.0",3,"[0.9, 0.5, 0.1]","[0.8, 0.4, 0.2]","[u'blue', u'black', u'red']","[u'left', u'middle', u'right']","[0.9, 0.5, 0.1]","[u'low', u'medium', u'high']","black",50,"middle","medium","True","False",238,0,NA
"A3LLOANE52R4LT","Thu Jan 30 2020 16:55:04 GMT-0600 (Central Standard Time)","Thu Jan 30 2020 17:02:37 GMT-0600 (Central Standard Time)","Mozilla/5.0 (Macintosh; Intel Mac OS X 10.15; rv:72.0) Gecko/20100101 Firefox/72.0",4,"[0.9, 0.5, 0.1]","[0.8, 0.4, 0.2]","[u'blue', u'black', u'red']","[u'left', u'middle', u'right']","[0.9, 0.5, 0.1]","[u'low', u'medium', u'high']","black",50,"middle","medium","False","False",247,-50,NA
"A3LLOANE52R4LT","Thu Jan 30 2020 16:55:04 GMT-0600 (Central Standard Time)","Thu Jan 30 2020 17:02:37 GMT-0600 (Central Standard Time)","Mozilla/5.0 (Macintosh; Intel Mac OS X 10.15; rv:72.0) Gecko/20100101 Firefox/72.0",5,"[0.9, 0.5, 0.1]","[0.8, 0.4, 0.2]","[u'blue', u'black', u'red']","[u'left', u'middle', u'right']","[0.9, 0.5, 0.1]","[u'low', u'medium', u'high']","black",50,"middle","medium","True","False",322,50,NA
"A3LLOANE52R4LT","Thu Jan 30 2020 16:55:04 GMT-0600 (Central Standard Time)","Thu Jan 30 2020 17:02:37 GMT-0600 (Central Standard Time)","Mozilla/5.0 (Macintosh; Intel Mac OS X 10.15; rv:72.0) Gecko/20100101 Firefox/72.0",6,"[0.9, 0.5, 0.1]","[0.8, 0.4, 0.2]","[u'blue', u'black', u'red']","[u'left', u'middle', u'right']","[0.9, 0.5, 0.1]","[u'low', u'medium', u'high']","black",50,"middle","medium","True","False",74,150,NA
"A3LLOANE52R4LT","Thu Jan 30 2020 16:55:04 GMT-0600 (Central Standard Time)","Thu Jan 30 2020 17:02:37 GMT-0600 (Central Standard Time)","Mozilla/5.0 (Macintosh; Intel Mac OS X 10.15; rv:72.0) Gecko/20100101 Firefox/72.0",7,"[0.9, 0.5, 0.1]","[0.8, 0.4, 0.2]","[u'blue', u'black', u'red']","[u'left', u'middle', u'right']","[0.9, 0.5, 0.1]","[u'low', u'medium', u'high']","black",50,"middle","medium","False","False",536,100,NA
"A3LLOANE52R4LT","Thu Jan 30 2020 16:55:04 GMT-0600 (Central Standard Time)","Thu Jan 30 2020 17:02:37 GMT-0600 (Central Standard Time)","Mozilla/5.0 (Macintosh; Intel Mac OS X 10.15; rv:72.0) Gecko/20100101 Firefox/72.0",8,"[0.9, 0.5, 0.1]","[0.8, 0.4, 0.2]","[u'blue', u'black', u'red']","[u'left', u'middle', u'right']","[0.9, 0.5, 0.1]","[u'low', u'medium', u'high']","red",51,"right","high","True","False",156,200,NA
"A3LLOANE52R4LT","Thu Jan 30 2020 16:55:04 GMT-0600 (Central Standard Time)","Thu Jan 30 2020 17:02:37 GMT-0600 (Central Standard Time)","Mozilla/5.0 (Macintosh; Intel Mac OS X 10.15; rv:72.0) Gecko/20100101 Firefox/72.0",9,"[0.9, 0.5, 0.1]","[0.8, 0.4, 0.2]","[u'blue', u'black', u'red']","[u'left', u'middle', u'right']","[0.9, 0.5, 0.1]","[u'low', u'medium', u'high']","blue",49,"left","low","False","False",183,150,NA
"A3LLOANE52R4LT","Thu Jan 30 2020 16:55:04 GMT-0600 (Central Standard Time)","Thu Jan 30 2020 17:02:37 GMT-0600 (Central Standard Time)","Mozilla/5.0 (Macintosh; Intel Mac OS X 10.15; rv:72.0) Gecko/20100101 Firefox/72.0",10,"[0.9, 0.5, 0.1]","[0.8, 0.4, 0.2]","[u'blue', u'black', u'red']","[u'left', u'middle', u'right']","[0.9, 0.5, 0.1]","[u'low', u'medium', u'high']","black",50,"middle","medium","False","False",114,100,NA
"A3LLOANE52R4LT","Thu Jan 30 2020 16:55:04 GMT-0600 (Central Standard Time)","Thu Jan 30 2020 17:02:37 GMT-0600 (Central Standard Time)","Mozilla/5.0 (Macintosh; Intel Mac OS X 10.15; rv:72.0) Gecko/20100101 Firefox/72.0",11,"[0.9, 0.5, 0.1]","[0.8, 0.4, 0.2]","[u'blue', u'black', u'red']","[u'left', u'middle', u'right']","[0.9, 0.5, 0.1]","[u'low', u'medium', u'high']","red",51,"right","high","True","False",248,200,NA
"A3LLOANE52R4LT","Thu Jan 30 2020 16:55:04 GMT-0600 (Central Standard Time)","Thu Jan 30 2020 17:02:37 GMT-0600 (Central Standard Time)","Mozilla/5.0 (Macintosh; Intel Mac OS X 10.15; rv:72.0) Gecko/20100101 Firefox/72.0",12,"[0.9, 0.5, 0.1]","[0.8, 0.4, 0.2]","[u'blue', u'black', u'red']","[u'left', u'middle', u'right']","[0.9, 0.5, 0.1]","[u'low', u'medium', u'high']","blue",49,"left","low","False","False",162,150,NA
"A3LLOANE52R4LT","Thu Jan 30 2020 16:55:04 GMT-0600 (Central Standard Time)","Thu Jan 30 2020 17:02:37 GMT-0600 (Central Standard Time)","Mozilla/5.0 (Macintosh; Intel Mac OS X 10.15; rv:72.0) Gecko/20100101 Firefox/72.0",13,"[0.9, 0.5, 0.1]","[0.8, 0.4, 0.2]","[u'blue', u'black', u'red']","[u'left', u'middle', u'right']","[0.9, 0.5, 0.1]","[u'low', u'medium', u'high']","black",50,"middle","medium","True","False",180,250,NA
"A3LLOANE52R4LT","Thu Jan 30 2020 16:55:04 GMT-0600 (Central Standard Time)","Thu Jan 30 2020 17:02:37 GMT-0600 (Central Standard Time)","Mozilla/5.0 (Macintosh; Intel Mac OS X 10.15; rv:72.0) Gecko/20100101 Firefox/72.0",14,"[0.9, 0.5, 0.1]","[0.8, 0.4, 0.2]","[u'blue', u'black', u'red']","[u'left', u'middle', u'right']","[0.9, 0.5, 0.1]","[u'low', u'medium', u'high']","black",50,"middle","medium","True","False",473,350,NA
"A3LLOANE52R4LT","Thu Jan 30 2020 16:55:04 GMT-0600 (Central Standard Time)","Thu Jan 30 2020 17:02:37 GMT-0600 (Central Standard Time)","Mozilla/5.0 (Macintosh; Intel Mac OS X 10.15; rv:72.0) Gecko/20100101 Firefox/72.0",15,"[0.9, 0.5, 0.1]","[0.8, 0.4, 0.2]","[u'blue', u'black', u'red']","[u'left', u'middle', u'right']","[0.9, 0.5, 0.1]","[u'low', u'medium', u'high']","black",50,"middle","medium","False","False",91,300,NA
"A3LLOANE52R4LT","Thu Jan 30 2020 16:55:04 GMT-0600 (Central Standard Time)","Thu Jan 30 2020 17:02:37 GMT-0600 (Central Standard Time)","Mozilla/5.0 (Macintosh; Intel Mac OS X 10.15; rv:72.0) Gecko/20100101 Firefox/72.0",16,"[0.9, 0.5, 0.1]","[0.8, 0.4, 0.2]","[u'blue', u'black', u'red']","[u'left', u'middle', u'right']","[0.9, 0.5, 0.1]","[u'low', u'medium', u'high']","red",51,"right","high","False","False",206,250,NA
"A3LLOANE52R4LT","Thu Jan 30 2020 16:55:04 GMT-0600 (Central Standard Time)","Thu Jan 30 2020 17:02:37 GMT-0600 (Central Standard Time)","Mozilla/5.0 (Macintosh; Intel Mac OS X 10.15; rv:72.0) Gecko/20100101 Firefox/72.0",17,"[0.9, 0.5, 0.1]","[0.8, 0.4, 0.2]","[u'blue', u'black', u'red']","[u'left', u'middle', u'right']","[0.9, 0.5, 0.1]","[u'low', u'medium', u'high']","red",51,"right","high","True","False",145,350,NA
"A3LLOANE52R4LT","Thu Jan 30 2020 16:55:04 GMT-0600 (Central Standard Time)","Thu Jan 30 2020 17:02:37 GMT-0600 (Central Standard Time)","Mozilla/5.0 (Macintosh; Intel Mac OS X 10.15; rv:72.0) Gecko/20100101 Firefox/72.0",18,"[0.9, 0.5, 0.1]","[0.8, 0.4, 0.2]","[u'blue', u'black', u'red']","[u'left', u'middle', u'right']","[0.9, 0.5, 0.1]","[u'low', u'medium', u'high']","red",51,"right","high","True","False",187,450,NA
"A3LLOANE52R4LT","Thu Jan 30 2020 16:55:04 GMT-0600 (Central Standard Time)","Thu Jan 30 2020 17:02:37 GMT-0600 (Central Standard Time)","Mozilla/5.0 (Macintosh; Intel Mac OS X 10.15; rv:72.0) Gecko/20100101 Firefox/72.0",19,"[0.9, 0.5, 0.1]","[0.8, 0.4, 0.2]","[u'blue', u'black', u'red']","[u'left', u'middle', u'right']","[0.9, 0.5, 0.1]","[u'low', u'medium', u'high']","red",51,"right","high","True","False",129,550,NA
"A3LLOANE52R4LT","Thu Jan 30 2020 16:55:04 GMT-0600 (Central Standard Time)","Thu Jan 30 2020 17:02:37 GMT-0600 (Central Standard Time)","Mozilla/5.0 (Macintosh; Intel Mac OS X 10.15; rv:72.0) Gecko/20100101 Firefox/72.0",20,"[0.9, 0.5, 0.1]","[0.8, 0.4, 0.2]","[u'blue', u'black', u'red']","[u'left', u'middle', u'right']","[0.9, 0.5, 0.1]","[u'low', u'medium', u'high']","red",51,"right","high","False","False",292,500,NA
"A3LLOANE52R4LT","Thu Jan 30 2020 16:55:04 GMT-0600 (Central Standard Time)","Thu Jan 30 2020 17:02:37 GMT-0600 (Central Standard Time)","Mozilla/5.0 (Macintosh; Intel Mac OS X 10.15; rv:72.0) Gecko/20100101 Firefox/72.0",21,"[0.9, 0.5, 0.1]","[0.8, 0.4, 0.2]","[u'blue', u'black', u'red']","[u'left', u'middle', u'right']","[0.9, 0.5, 0.1]","[u'low', u'medium', u'high']","blue",49,"left","low","False","False",296,450,NA
"A3LLOANE52R4LT","Thu Jan 30 2020 16:55:04 GMT-0600 (Central Standard Time)","Thu Jan 30 2020 17:02:37 GMT-0600 (Central Standard Time)","Mozilla/5.0 (Macintosh; Intel Mac OS X 10.15; rv:72.0) Gecko/20100101 Firefox/72.0",22,"[0.9, 0.5, 0.1]","[0.8, 0.4, 0.2]","[u'blue', u'black', u'red']","[u'left', u'middle', u'right']","[0.9, 0.5, 0.1]","[u'low', u'medium', u'high']","blue",49,"left","low","False","False",484,400,NA
"A3LLOANE52R4LT","Thu Jan 30 2020 16:55:04 GMT-0600 (Central Standard Time)","Thu Jan 30 2020 17:02:37 GMT-0600 (Central Standard Time)","Mozilla/5.0 (Macintosh; Intel Mac OS X 10.15; rv:72.0) Gecko/20100101 Firefox/72.0",23,"[0.9, 0.5, 0.1]","[0.8, 0.4, 0.2]","[u'blue', u'black', u'red']","[u'left', u'middle', u'right']","[0.9, 0.5, 0.1]","[u'low', u'medium', u'high']","black",50,"middle","medium","False","False",215,350,NA
"A3LLOANE52R4LT","Thu Jan 30 2020 16:55:04 GMT-0600 (Central Standard Time)","Thu Jan 30 2020 17:02:37 GMT-0600 (Central Standard Time)","Mozilla/5.0 (Macintosh; Intel Mac OS X 10.15; rv:72.0) Gecko/20100101 Firefox/72.0",24,"[0.9, 0.5, 0.1]","[0.8, 0.4, 0.2]","[u'blue', u'black', u'red']","[u'left', u'middle', u'right']","[0.9, 0.5, 0.1]","[u'low', u'medium', u'high']","blue",49,"left","low","False","False",77,300,NA
"A3LLOANE52R4LT","Thu Jan 30 2020 16:55:04 GMT-0600 (Central Standard Time)","Thu Jan 30 2020 17:02:37 GMT-0600 (Central Standard Time)","Mozilla/5.0 (Macintosh; Intel Mac OS X 10.15; rv:72.0) Gecko/20100101 Firefox/72.0",25,"[0.9, 0.5, 0.1]","[0.8, 0.4, 0.2]","[u'blue', u'black', u'red']","[u'left', u'middle', u'right']","[0.9, 0.5, 0.1]","[u'low', u'medium', u'high']","red",51,"right","high","True","False",163,400,NA
"A3LLOANE52R4LT","Thu Jan 30 2020 16:55:04 GMT-0600 (Central Standard Time)","Thu Jan 30 2020 17:02:37 GMT-0600 (Central Standard Time)","Mozilla/5.0 (Macintosh; Intel Mac OS X 10.15; rv:72.0) Gecko/20100101 Firefox/72.0",26,"[0.9, 0.5, 0.1]","[0.8, 0.4, 0.2]","[u'blue', u'black', u'red']","[u'left', u'middle', u'right']","[0.9, 0.5, 0.1]","[u'low', u'medium', u'high']","red",51,"right","high","True","False",290,500,NA
"A3LLOANE52R4LT","Thu Jan 30 2020 16:55:04 GMT-0600 (Central Standard Time)","Thu Jan 30 2020 17:02:37 GMT-0600 (Central Standard Time)","Mozilla/5.0 (Macintosh; Intel Mac OS X 10.15; rv:72.0) Gecko/20100101 Firefox/72.0",27,"[0.9, 0.5, 0.1]","[0.8, 0.4, 0.2]","[u'blue', u'black', u'red']","[u'left', u'middle', u'right']","[0.9, 0.5, 0.1]","[u'low', u'medium', u'high']","red",51,"right","high","True","False",392,600,NA
"A3LLOANE52R4LT","Thu Jan 30 2020 16:55:04 GMT-0600 (Central Standard Time)","Thu Jan 30 2020 17:02:37 GMT-0600 (Central Standard Time)","Mozilla/5.0 (Macintosh; Intel Mac OS X 10.15; rv:72.0) Gecko/20100101 Firefox/72.0",28,"[0.9, 0.5, 0.1]","[0.8, 0.4, 0.2]","[u'blue', u'black', u'red']","[u'left', u'middle', u'right']","[0.9, 0.5, 0.1]","[u'low', u'medium', u'high']","red",51,"right","high","True","False",122,700,NA
"A3LLOANE52R4LT","Thu Jan 30 2020 16:55:04 GMT-0600 (Central Standard Time)","Thu Jan 30 2020 17:02:37 GMT-0600 (Central Standard Time)","Mozilla/5.0 (Macintosh; Intel Mac OS X 10.15; rv:72.0) Gecko/20100101 Firefox/72.0",29,"[0.9, 0.5, 0.1]","[0.8, 0.4, 0.2]","[u'blue', u'black', u'red']","[u'left', u'middle', u'right']","[0.9, 0.5, 0.1]","[u'low', u'medium', u'high']","black",50,"middle","medium","False","False",123,650,NA
"A3LLOANE52R4LT","Thu Jan 30 2020 16:55:04 GMT-0600 (Central Standard Time)","Thu Jan 30 2020 17:02:37 GMT-0600 (Central Standard Time)","Mozilla/5.0 (Macintosh; Intel Mac OS X 10.15; rv:72.0) Gecko/20100101 Firefox/72.0",30,"[0.9, 0.5, 0.1]","[0.8, 0.4, 0.2]","[u'blue', u'black', u'red']","[u'left', u'middle', u'right']","[0.9, 0.5, 0.1]","[u'low', u'medium', u'high']","blue",49,"left","low","False","False",245,600,NA
"A3LLOANE52R4LT","Thu Jan 30 2020 16:55:04 GMT-0600 (Central Standard Time)","Thu Jan 30 2020 17:02:37 GMT-0600 (Central Standard Time)","Mozilla/5.0 (Macintosh; Intel Mac OS X 10.15; rv:72.0) Gecko/20100101 Firefox/72.0",31,"[0.9, 0.5, 0.1]","[0.8, 0.4, 0.2]","[u'blue', u'black', u'red']","[u'left', u'middle', u'right']","[0.9, 0.5, 0.1]","[u'low', u'medium', u'high']","red",51,"right","high","True","False",182,700,NA
"A3LLOANE52R4LT","Thu Jan 30 2020 16:55:04 GMT-0600 (Central Standard Time)","Thu Jan 30 2020 17:02:37 GMT-0600 (Central Standard Time)","Mozilla/5.0 (Macintosh; Intel Mac OS X 10.15; rv:72.0) Gecko/20100101 Firefox/72.0",32,"[0.9, 0.5, 0.1]","[0.8, 0.4, 0.2]","[u'blue', u'black', u'red']","[u'left', u'middle', u'right']","[0.9, 0.5, 0.1]","[u'low', u'medium', u'high']","red",51,"right","high","True","False",107,800,NA
"A3LLOANE52R4LT","Thu Jan 30 2020 16:55:04 GMT-0600 (Central Standard Time)","Thu Jan 30 2020 17:02:37 GMT-0600 (Central Standard Time)","Mozilla/5.0 (Macintosh; Intel Mac OS X 10.15; rv:72.0) Gecko/20100101 Firefox/72.0",33,"[0.9, 0.5, 0.1]","[0.8, 0.4, 0.2]","[u'blue', u'black', u'red']","[u'left', u'middle', u'right']","[0.9, 0.5, 0.1]","[u'low', u'medium', u'high']","red",51,"right","high","True","False",165,900,NA
"A3LLOANE52R4LT","Thu Jan 30 2020 16:55:04 GMT-0600 (Central Standard Time)","Thu Jan 30 2020 17:02:37 GMT-0600 (Central Standard Time)","Mozilla/5.0 (Macintosh; Intel Mac OS X 10.15; rv:72.0) Gecko/20100101 Firefox/72.0",34,"[0.9, 0.5, 0.1]","[0.8, 0.4, 0.2]","[u'blue', u'black', u'red']","[u'left', u'middle', u'right']","[0.9, 0.5, 0.1]","[u'low', u'medium', u'high']","red",51,"right","high","True","False",203,1000,NA
"A3LLOANE52R4LT","Thu Jan 30 2020 16:55:04 GMT-0600 (Central Standard Time)","Thu Jan 30 2020 17:02:37 GMT-0600 (Central Standard Time)","Mozilla/5.0 (Macintosh; Intel Mac OS X 10.15; rv:72.0) Gecko/20100101 Firefox/72.0",35,"[0.9, 0.5, 0.1]","[0.8, 0.4, 0.2]","[u'blue', u'black', u'red']","[u'left', u'middle', u'right']","[0.9, 0.5, 0.1]","[u'low', u'medium', u'high']","red",51,"right","high","True","False",433,1100,NA
"A3LLOANE52R4LT","Thu Jan 30 2020 16:55:04 GMT-0600 (Central Standard Time)","Thu Jan 30 2020 17:02:37 GMT-0600 (Central Standard Time)","Mozilla/5.0 (Macintosh; Intel Mac OS X 10.15; rv:72.0) Gecko/20100101 Firefox/72.0",36,"[0.9, 0.5, 0.1]","[0.8, 0.4, 0.2]","[u'blue', u'black', u'red']","[u'left', u'middle', u'right']","[0.9, 0.5, 0.1]","[u'low', u'medium', u'high']","red",51,"right","high","True","False",270,1200,NA
"A3LLOANE52R4LT","Thu Jan 30 2020 16:55:04 GMT-0600 (Central Standard Time)","Thu Jan 30 2020 17:02:37 GMT-0600 (Central Standard Time)","Mozilla/5.0 (Macintosh; Intel Mac OS X 10.15; rv:72.0) Gecko/20100101 Firefox/72.0",37,"[0.9, 0.5, 0.1]","[0.8, 0.4, 0.2]","[u'blue', u'black', u'red']","[u'left', u'middle', u'right']","[0.9, 0.5, 0.1]","[u'low', u'medium', u'high']","red",51,"right","high","True","False",529,1300,NA
"A3LLOANE52R4LT","Thu Jan 30 2020 16:55:04 GMT-0600 (Central Standard Time)","Thu Jan 30 2020 17:02:37 GMT-0600 (Central Standard Time)","Mozilla/5.0 (Macintosh; Intel Mac OS X 10.15; rv:72.0) Gecko/20100101 Firefox/72.0",38,"[0.9, 0.5, 0.1]","[0.8, 0.4, 0.2]","[u'blue', u'black', u'red']","[u'left', u'middle', u'right']","[0.9, 0.5, 0.1]","[u'low', u'medium', u'high']","red",51,"right","high","True","False",168,1400,NA
"A3LLOANE52R4LT","Thu Jan 30 2020 16:55:04 GMT-0600 (Central Standard Time)","Thu Jan 30 2020 17:02:37 GMT-0600 (Central Standard Time)","Mozilla/5.0 (Macintosh; Intel Mac OS X 10.15; rv:72.0) Gecko/20100101 Firefox/72.0",39,"[0.9, 0.5, 0.1]","[0.8, 0.4, 0.2]","[u'blue', u'black', u'red']","[u'left', u'middle', u'right']","[0.9, 0.5, 0.1]","[u'low', u'medium', u'high']","red",51,"right","high","True","True",185,1500,NA
"A3LLOANE52R4LT","Thu Jan 30 2020 16:55:04 GMT-0600 (Central Standard Time)","Thu Jan 30 2020 17:02:37 GMT-0600 (Central Standard Time)","Mozilla/5.0 (Macintosh; Intel Mac OS X 10.15; rv:72.0) Gecko/20100101 Firefox/72.0",40,"[0.9, 0.5, 0.1]","[0.8, 0.4, 0.2]","[u'blue', u'black', u'red']","[u'left', u'middle', u'right']","[0.9, 0.5, 0.1]","[u'low', u'high', u'medium']","red",51,"right","medium","True","False",270,1600,NA
"A3LLOANE52R4LT","Thu Jan 30 2020 16:55:04 GMT-0600 (Central Standard Time)","Thu Jan 30 2020 17:02:37 GMT-0600 (Central Standard Time)","Mozilla/5.0 (Macintosh; Intel Mac OS X 10.15; rv:72.0) Gecko/20100101 Firefox/72.0",41,"[0.9, 0.5, 0.1]","[0.8, 0.4, 0.2]","[u'blue', u'black', u'red']","[u'left', u'middle', u'right']","[0.9, 0.5, 0.1]","[u'low', u'medium', u'high']","red",51,"right","high","True","False",295,1700,NA
"A3LLOANE52R4LT","Thu Jan 30 2020 16:55:04 GMT-0600 (Central Standard Time)","Thu Jan 30 2020 17:02:37 GMT-0600 (Central Standard Time)","Mozilla/5.0 (Macintosh; Intel Mac OS X 10.15; rv:72.0) Gecko/20100101 Firefox/72.0",42,"[0.9, 0.5, 0.1]","[0.8, 0.4, 0.2]","[u'blue', u'black', u'red']","[u'left', u'middle', u'right']","[0.9, 0.5, 0.1]","[u'low', u'medium', u'high']","red",51,"right","high","True","False",105,1800,NA
"A3LLOANE52R4LT","Thu Jan 30 2020 16:55:04 GMT-0600 (Central Standard Time)","Thu Jan 30 2020 17:02:37 GMT-0600 (Central Standard Time)","Mozilla/5.0 (Macintosh; Intel Mac OS X 10.15; rv:72.0) Gecko/20100101 Firefox/72.0",43,"[0.9, 0.5, 0.1]","[0.8, 0.4, 0.2]","[u'blue', u'black', u'red']","[u'left', u'middle', u'right']","[0.9, 0.5, 0.1]","[u'low', u'medium', u'high']","red",51,"right","high","True","False",158,1900,NA
"A3LLOANE52R4LT","Thu Jan 30 2020 16:55:04 GMT-0600 (Central Standard Time)","Thu Jan 30 2020 17:02:37 GMT-0600 (Central Standard Time)","Mozilla/5.0 (Macintosh; Intel Mac OS X 10.15; rv:72.0) Gecko/20100101 Firefox/72.0",44,"[0.9, 0.5, 0.1]","[0.8, 0.4, 0.2]","[u'blue', u'black', u'red']","[u'left', u'middle', u'right']","[0.9, 0.5, 0.1]","[u'low', u'medium', u'high']","red",51,"right","high","True","False",161,2000,NA
"A3LLOANE52R4LT","Thu Jan 30 2020 16:55:04 GMT-0600 (Central Standard Time)","Thu Jan 30 2020 17:02:37 GMT-0600 (Central Standard Time)","Mozilla/5.0 (Macintosh; Intel Mac OS X 10.15; rv:72.0) Gecko/20100101 Firefox/72.0",45,"[0.9, 0.5, 0.1]","[0.8, 0.4, 0.2]","[u'blue', u'black', u'red']","[u'left', u'middle', u'right']","[0.9, 0.5, 0.1]","[u'low', u'medium', u'high']","red",51,"right","high","False","False",300,1950,NA
"A3LLOANE52R4LT","Thu Jan 30 2020 16:55:04 GMT-0600 (Central Standard Time)","Thu Jan 30 2020 17:02:37 GMT-0600 (Central Standard Time)","Mozilla/5.0 (Macintosh; Intel Mac OS X 10.15; rv:72.0) Gecko/20100101 Firefox/72.0",46,"[0.9, 0.5, 0.1]","[0.8, 0.4, 0.2]","[u'blue', u'black', u'red']","[u'left', u'middle', u'right']","[0.9, 0.5, 0.1]","[u'low', u'medium', u'high']","red",51,"right","high","True","False",143,2050,NA
"A3LLOANE52R4LT","Thu Jan 30 2020 16:55:04 GMT-0600 (Central Standard Time)","Thu Jan 30 2020 17:02:37 GMT-0600 (Central Standard Time)","Mozilla/5.0 (Macintosh; Intel Mac OS X 10.15; rv:72.0) Gecko/20100101 Firefox/72.0",47,"[0.9, 0.5, 0.1]","[0.8, 0.4, 0.2]","[u'blue', u'black', u'red']","[u'left', u'middle', u'right']","[0.9, 0.5, 0.1]","[u'low', u'medium', u'high']","red",51,"right","high","False","False",262,2000,NA
"A3LLOANE52R4LT","Thu Jan 30 2020 16:55:04 GMT-0600 (Central Standard Time)","Thu Jan 30 2020 17:02:37 GMT-0600 (Central Standard Time)","Mozilla/5.0 (Macintosh; Intel Mac OS X 10.15; rv:72.0) Gecko/20100101 Firefox/72.0",48,"[0.9, 0.5, 0.1]","[0.8, 0.4, 0.2]","[u'blue', u'black', u'red']","[u'left', u'middle', u'right']","[0.9, 0.5, 0.1]","[u'low', u'medium', u'high']","red",51,"right","high","True","False",177,2100,NA
"A3LLOANE52R4LT","Thu Jan 30 2020 16:55:04 GMT-0600 (Central Standard Time)","Thu Jan 30 2020 17:02:37 GMT-0600 (Central Standard Time)","Mozilla/5.0 (Macintosh; Intel Mac OS X 10.15; rv:72.0) Gecko/20100101 Firefox/72.0",49,"[0.9, 0.5, 0.1]","[0.8, 0.4, 0.2]","[u'blue', u'black', u'red']","[u'left', u'middle', u'right']","[0.9, 0.5, 0.1]","[u'low', u'medium', u'high']","red",51,"right","high","True","True",267,2200,NA
"A3LLOANE52R4LT","Thu Jan 30 2020 16:55:04 GMT-0600 (Central Standard Time)","Thu Jan 30 2020 17:02:37 GMT-0600 (Central Standard Time)","Mozilla/5.0 (Macintosh; Intel Mac OS X 10.15; rv:72.0) Gecko/20100101 Firefox/72.0",50,"[0.9, 0.5, 0.1]","[0.8, 0.4, 0.2]","[u'blue', u'black', u'red']","[u'left', u'middle', u'right']","[0.9, 0.5, 0.1]","[u'low', u'high', u'medium']","red",51,"right","medium","False","False",219,2150,NA
"A3LLOANE52R4LT","Thu Jan 30 2020 16:55:04 GMT-0600 (Central Standard Time)","Thu Jan 30 2020 17:02:37 GMT-0600 (Central Standard Time)","Mozilla/5.0 (Macintosh; Intel Mac OS X 10.15; rv:72.0) Gecko/20100101 Firefox/72.0",51,"[0.9, 0.5, 0.1]","[0.8, 0.4, 0.2]","[u'blue', u'black', u'red']","[u'left', u'middle', u'right']","[0.9, 0.5, 0.1]","[u'low', u'high', u'medium']","red",51,"right","medium","True","False",276,2250,NA
"A3LLOANE52R4LT","Thu Jan 30 2020 16:55:04 GMT-0600 (Central Standard Time)","Thu Jan 30 2020 17:02:37 GMT-0600 (Central Standard Time)","Mozilla/5.0 (Macintosh; Intel Mac OS X 10.15; rv:72.0) Gecko/20100101 Firefox/72.0",52,"[0.9, 0.5, 0.1]","[0.8, 0.4, 0.2]","[u'blue', u'black', u'red']","[u'left', u'middle', u'right']","[0.9, 0.5, 0.1]","[u'low', u'high', u'medium']","red",51,"right","medium","False","False",281,2200,NA
"A3LLOANE52R4LT","Thu Jan 30 2020 16:55:04 GMT-0600 (Central Standard Time)","Thu Jan 30 2020 17:02:37 GMT-0600 (Central Standard Time)","Mozilla/5.0 (Macintosh; Intel Mac OS X 10.15; rv:72.0) Gecko/20100101 Firefox/72.0",53,"[0.9, 0.5, 0.1]","[0.8, 0.4, 0.2]","[u'blue', u'black', u'red']","[u'left', u'middle', u'right']","[0.9, 0.5, 0.1]","[u'low', u'high', u'medium']","red",51,"right","medium","False","False",124,2150,NA
"A3LLOANE52R4LT","Thu Jan 30 2020 16:55:04 GMT-0600 (Central Standard Time)","Thu Jan 30 2020 17:02:37 GMT-0600 (Central Standard Time)","Mozilla/5.0 (Macintosh; Intel Mac OS X 10.15; rv:72.0) Gecko/20100101 Firefox/72.0",54,"[0.9, 0.5, 0.1]","[0.8, 0.4, 0.2]","[u'blue', u'black', u'red']","[u'left', u'middle', u'right']","[0.9, 0.5, 0.1]","[u'low', u'high', u'medium']","red",51,"right","medium","True","False",241,2250,NA
"A3LLOANE52R4LT","Thu Jan 30 2020 16:55:04 GMT-0600 (Central Standard Time)","Thu Jan 30 2020 17:02:37 GMT-0600 (Central Standard Time)","Mozilla/5.0 (Macintosh; Intel Mac OS X 10.15; rv:72.0) Gecko/20100101 Firefox/72.0",55,"[0.9, 0.5, 0.1]","[0.8, 0.4, 0.2]","[u'blue', u'black', u'red']","[u'left', u'middle', u'right']","[0.9, 0.5, 0.1]","[u'low', u'high', u'medium']","black",50,"middle","high","True","False",568,2350,NA
"A3LLOANE52R4LT","Thu Jan 30 2020 16:55:04 GMT-0600 (Central Standard Time)","Thu Jan 30 2020 17:02:37 GMT-0600 (Central Standard Time)","Mozilla/5.0 (Macintosh; Intel Mac OS X 10.15; rv:72.0) Gecko/20100101 Firefox/72.0",56,"[0.9, 0.5, 0.1]","[0.8, 0.4, 0.2]","[u'blue', u'black', u'red']","[u'left', u'middle', u'right']","[0.9, 0.5, 0.1]","[u'low', u'high', u'medium']","black",50,"middle","high","True","False",289,2450,NA
"A3LLOANE52R4LT","Thu Jan 30 2020 16:55:04 GMT-0600 (Central Standard Time)","Thu Jan 30 2020 17:02:37 GMT-0600 (Central Standard Time)","Mozilla/5.0 (Macintosh; Intel Mac OS X 10.15; rv:72.0) Gecko/20100101 Firefox/72.0",57,"[0.9, 0.5, 0.1]","[0.8, 0.4, 0.2]","[u'blue', u'black', u'red']","[u'left', u'middle', u'right']","[0.9, 0.5, 0.1]","[u'low', u'high', u'medium']","black",50,"middle","high","False","False",229,2400,NA
"A3LLOANE52R4LT","Thu Jan 30 2020 16:55:04 GMT-0600 (Central Standard Time)","Thu Jan 30 2020 17:02:37 GMT-0600 (Central Standard Time)","Mozilla/5.0 (Macintosh; Intel Mac OS X 10.15; rv:72.0) Gecko/20100101 Firefox/72.0",58,"[0.9, 0.5, 0.1]","[0.8, 0.4, 0.2]","[u'blue', u'black', u'red']","[u'left', u'middle', u'right']","[0.9, 0.5, 0.1]","[u'low', u'high', u'medium']","black",50,"middle","high","True","False",153,2500,NA
"A3LLOANE52R4LT","Thu Jan 30 2020 16:55:04 GMT-0600 (Central Standard Time)","Thu Jan 30 2020 17:02:37 GMT-0600 (Central Standard Time)","Mozilla/5.0 (Macintosh; Intel Mac OS X 10.15; rv:72.0) Gecko/20100101 Firefox/72.0",59,"[0.9, 0.5, 0.1]","[0.8, 0.4, 0.2]","[u'blue', u'black', u'red']","[u'left', u'middle', u'right']","[0.9, 0.5, 0.1]","[u'low', u'high', u'medium']","black",50,"middle","high","True","False",162,2600,NA
"A3LLOANE52R4LT","Thu Jan 30 2020 16:55:04 GMT-0600 (Central Standard Time)","Thu Jan 30 2020 17:02:37 GMT-0600 (Central Standard Time)","Mozilla/5.0 (Macintosh; Intel Mac OS X 10.15; rv:72.0) Gecko/20100101 Firefox/72.0",60,"[0.9, 0.5, 0.1]","[0.8, 0.4, 0.2]","[u'blue', u'black', u'red']","[u'left', u'middle', u'right']","[0.9, 0.5, 0.1]","[u'low', u'high', u'medium']","black",50,"middle","high","True","False",205,2700,NA
"A3LLOANE52R4LT","Thu Jan 30 2020 16:55:04 GMT-0600 (Central Standard Time)","Thu Jan 30 2020 17:02:37 GMT-0600 (Central Standard Time)","Mozilla/5.0 (Macintosh; Intel Mac OS X 10.15; rv:72.0) Gecko/20100101 Firefox/72.0",61,"[0.9, 0.5, 0.1]","[0.8, 0.4, 0.2]","[u'blue', u'black', u'red']","[u'left', u'middle', u'right']","[0.9, 0.5, 0.1]","[u'low', u'high', u'medium']","black",50,"middle","high","False","False",169,2650,NA
"A3LLOANE52R4LT","Thu Jan 30 2020 16:55:04 GMT-0600 (Central Standard Time)","Thu Jan 30 2020 17:02:37 GMT-0600 (Central Standard Time)","Mozilla/5.0 (Macintosh; Intel Mac OS X 10.15; rv:72.0) Gecko/20100101 Firefox/72.0",62,"[0.9, 0.5, 0.1]","[0.8, 0.4, 0.2]","[u'blue', u'black', u'red']","[u'left', u'middle', u'right']","[0.9, 0.5, 0.1]","[u'low', u'high', u'medium']","black",50,"middle","high","True","False",237,2750,NA
"A3LLOANE52R4LT","Thu Jan 30 2020 16:55:04 GMT-0600 (Central Standard Time)","Thu Jan 30 2020 17:02:37 GMT-0600 (Central Standard Time)","Mozilla/5.0 (Macintosh; Intel Mac OS X 10.15; rv:72.0) Gecko/20100101 Firefox/72.0",63,"[0.9, 0.5, 0.1]","[0.8, 0.4, 0.2]","[u'blue', u'black', u'red']","[u'left', u'middle', u'right']","[0.9, 0.5, 0.1]","[u'low', u'high', u'medium']","black",50,"middle","high","True","True",227,2850,NA
"A3LLOANE52R4LT","Thu Jan 30 2020 16:55:04 GMT-0600 (Central Standard Time)","Thu Jan 30 2020 17:02:37 GMT-0600 (Central Standard Time)","Mozilla/5.0 (Macintosh; Intel Mac OS X 10.15; rv:72.0) Gecko/20100101 Firefox/72.0",64,"[0.9, 0.5, 0.1]","[0.8, 0.4, 0.2]","[u'blue', u'black', u'red']","[u'left', u'middle', u'right']","[0.9, 0.5, 0.1]","[u'medium', u'low', u'high']","black",50,"middle","low","False","False",220,2800,NA
"A3LLOANE52R4LT","Thu Jan 30 2020 16:55:04 GMT-0600 (Central Standard Time)","Thu Jan 30 2020 17:02:37 GMT-0600 (Central Standard Time)","Mozilla/5.0 (Macintosh; Intel Mac OS X 10.15; rv:72.0) Gecko/20100101 Firefox/72.0",65,"[0.9, 0.5, 0.1]","[0.8, 0.4, 0.2]","[u'blue', u'black', u'red']","[u'left', u'middle', u'right']","[0.9, 0.5, 0.1]","[u'medium', u'low', u'high']","black",50,"middle","low","False","False",129,2750,NA
"A3LLOANE52R4LT","Thu Jan 30 2020 16:55:04 GMT-0600 (Central Standard Time)","Thu Jan 30 2020 17:02:37 GMT-0600 (Central Standard Time)","Mozilla/5.0 (Macintosh; Intel Mac OS X 10.15; rv:72.0) Gecko/20100101 Firefox/72.0",66,"[0.9, 0.5, 0.1]","[0.8, 0.4, 0.2]","[u'blue', u'black', u'red']","[u'left', u'middle', u'right']","[0.9, 0.5, 0.1]","[u'medium', u'low', u'high']","black",50,"middle","low","False","False",282,2700,NA
"A3LLOANE52R4LT","Thu Jan 30 2020 16:55:04 GMT-0600 (Central Standard Time)","Thu Jan 30 2020 17:02:37 GMT-0600 (Central Standard Time)","Mozilla/5.0 (Macintosh; Intel Mac OS X 10.15; rv:72.0) Gecko/20100101 Firefox/72.0",67,"[0.9, 0.5, 0.1]","[0.8, 0.4, 0.2]","[u'blue', u'black', u'red']","[u'left', u'middle', u'right']","[0.9, 0.5, 0.1]","[u'medium', u'low', u'high']","red",51,"right","high","True","False",140,2800,NA
"A3LLOANE52R4LT","Thu Jan 30 2020 16:55:04 GMT-0600 (Central Standard Time)","Thu Jan 30 2020 17:02:37 GMT-0600 (Central Standard Time)","Mozilla/5.0 (Macintosh; Intel Mac OS X 10.15; rv:72.0) Gecko/20100101 Firefox/72.0",68,"[0.9, 0.5, 0.1]","[0.8, 0.4, 0.2]","[u'blue', u'black', u'red']","[u'left', u'middle', u'right']","[0.9, 0.5, 0.1]","[u'medium', u'low', u'high']","red",51,"right","high","True","False",354,2900,NA
"A3LLOANE52R4LT","Thu Jan 30 2020 16:55:04 GMT-0600 (Central Standard Time)","Thu Jan 30 2020 17:02:37 GMT-0600 (Central Standard Time)","Mozilla/5.0 (Macintosh; Intel Mac OS X 10.15; rv:72.0) Gecko/20100101 Firefox/72.0",69,"[0.9, 0.5, 0.1]","[0.8, 0.4, 0.2]","[u'blue', u'black', u'red']","[u'left', u'middle', u'right']","[0.9, 0.5, 0.1]","[u'medium', u'low', u'high']","red",51,"right","high","True","False",253,3000,NA
"A3LLOANE52R4LT","Thu Jan 30 2020 16:55:04 GMT-0600 (Central Standard Time)","Thu Jan 30 2020 17:02:37 GMT-0600 (Central Standard Time)","Mozilla/5.0 (Macintosh; Intel Mac OS X 10.15; rv:72.0) Gecko/20100101 Firefox/72.0",70,"[0.9, 0.5, 0.1]","[0.8, 0.4, 0.2]","[u'blue', u'black', u'red']","[u'left', u'middle', u'right']","[0.9, 0.5, 0.1]","[u'medium', u'low', u'high']","red",51,"right","high","True","False",192,3100,NA
"A3LLOANE52R4LT","Thu Jan 30 2020 16:55:04 GMT-0600 (Central Standard Time)","Thu Jan 30 2020 17:02:37 GMT-0600 (Central Standard Time)","Mozilla/5.0 (Macintosh; Intel Mac OS X 10.15; rv:72.0) Gecko/20100101 Firefox/72.0",71,"[0.9, 0.5, 0.1]","[0.8, 0.4, 0.2]","[u'blue', u'black', u'red']","[u'left', u'middle', u'right']","[0.9, 0.5, 0.1]","[u'medium', u'low', u'high']","red",51,"right","high","True","False",276,3200,NA
"A3LLOANE52R4LT","Thu Jan 30 2020 16:55:04 GMT-0600 (Central Standard Time)","Thu Jan 30 2020 17:02:37 GMT-0600 (Central Standard Time)","Mozilla/5.0 (Macintosh; Intel Mac OS X 10.15; rv:72.0) Gecko/20100101 Firefox/72.0",72,"[0.9, 0.5, 0.1]","[0.8, 0.4, 0.2]","[u'blue', u'black', u'red']","[u'left', u'middle', u'right']","[0.9, 0.5, 0.1]","[u'medium', u'low', u'high']","red",51,"right","high","True","False",163,3300,NA
"A3LLOANE52R4LT","Thu Jan 30 2020 16:55:04 GMT-0600 (Central Standard Time)","Thu Jan 30 2020 17:02:37 GMT-0600 (Central Standard Time)","Mozilla/5.0 (Macintosh; Intel Mac OS X 10.15; rv:72.0) Gecko/20100101 Firefox/72.0",73,"[0.9, 0.5, 0.1]","[0.8, 0.4, 0.2]","[u'blue', u'black', u'red']","[u'left', u'middle', u'right']","[0.9, 0.5, 0.1]","[u'medium', u'low', u'high']","red",51,"right","high","True","False",223,3400,NA
"A3LLOANE52R4LT","Thu Jan 30 2020 16:55:04 GMT-0600 (Central Standard Time)","Thu Jan 30 2020 17:02:37 GMT-0600 (Central Standard Time)","Mozilla/5.0 (Macintosh; Intel Mac OS X 10.15; rv:72.0) Gecko/20100101 Firefox/72.0",74,"[0.9, 0.5, 0.1]","[0.8, 0.4, 0.2]","[u'blue', u'black', u'red']","[u'left', u'middle', u'right']","[0.9, 0.5, 0.1]","[u'medium', u'low', u'high']","red",51,"right","high","True","False",98,3500,NA
"A3LLOANE52R4LT","Thu Jan 30 2020 16:55:04 GMT-0600 (Central Standard Time)","Thu Jan 30 2020 17:02:37 GMT-0600 (Central Standard Time)","Mozilla/5.0 (Macintosh; Intel Mac OS X 10.15; rv:72.0) Gecko/20100101 Firefox/72.0",75,"[0.9, 0.5, 0.1]","[0.8, 0.4, 0.2]","[u'blue', u'black', u'red']","[u'left', u'middle', u'right']","[0.9, 0.5, 0.1]","[u'medium', u'low', u'high']","red",51,"right","high","True","True",248,3600,NA
"A3LLOANE52R4LT","Thu Jan 30 2020 16:55:04 GMT-0600 (Central Standard Time)","Thu Jan 30 2020 17:02:37 GMT-0600 (Central Standard Time)","Mozilla/5.0 (Macintosh; Intel Mac OS X 10.15; rv:72.0) Gecko/20100101 Firefox/72.0",76,"[0.9, 0.5, 0.1]","[0.8, 0.4, 0.2]","[u'blue', u'black', u'red']","[u'left', u'middle', u'right']","[0.9, 0.5, 0.1]","[u'low', u'high', u'medium']","red",51,"right","medium","False","False",194,3550,NA
"A3LLOANE52R4LT","Thu Jan 30 2020 16:55:04 GMT-0600 (Central Standard Time)","Thu Jan 30 2020 17:02:37 GMT-0600 (Central Standard Time)","Mozilla/5.0 (Macintosh; Intel Mac OS X 10.15; rv:72.0) Gecko/20100101 Firefox/72.0",77,"[0.9, 0.5, 0.1]","[0.8, 0.4, 0.2]","[u'blue', u'black', u'red']","[u'left', u'middle', u'right']","[0.9, 0.5, 0.1]","[u'low', u'high', u'medium']","red",51,"right","medium","False","False",167,3500,NA
"A3LLOANE52R4LT","Thu Jan 30 2020 16:55:04 GMT-0600 (Central Standard Time)","Thu Jan 30 2020 17:02:37 GMT-0600 (Central Standard Time)","Mozilla/5.0 (Macintosh; Intel Mac OS X 10.15; rv:72.0) Gecko/20100101 Firefox/72.0",78,"[0.9, 0.5, 0.1]","[0.8, 0.4, 0.2]","[u'blue', u'black', u'red']","[u'left', u'middle', u'right']","[0.9, 0.5, 0.1]","[u'low', u'high', u'medium']","blue",49,"left","low","False","False",359,3450,NA
"A3LLOANE52R4LT","Thu Jan 30 2020 16:55:04 GMT-0600 (Central Standard Time)","Thu Jan 30 2020 17:02:37 GMT-0600 (Central Standard Time)","Mozilla/5.0 (Macintosh; Intel Mac OS X 10.15; rv:72.0) Gecko/20100101 Firefox/72.0",79,"[0.9, 0.5, 0.1]","[0.8, 0.4, 0.2]","[u'blue', u'black', u'red']","[u'left', u'middle', u'right']","[0.9, 0.5, 0.1]","[u'low', u'high', u'medium']","blue",49,"left","low","False","False",242,3400,NA
"A3LLOANE52R4LT","Thu Jan 30 2020 16:55:04 GMT-0600 (Central Standard Time)","Thu Jan 30 2020 17:02:37 GMT-0600 (Central Standard Time)","Mozilla/5.0 (Macintosh; Intel Mac OS X 10.15; rv:72.0) Gecko/20100101 Firefox/72.0",80,"[0.9, 0.5, 0.1]","[0.8, 0.4, 0.2]","[u'blue', u'black', u'red']","[u'left', u'middle', u'right']","[0.9, 0.5, 0.1]","[u'low', u'high', u'medium']","blue",49,"left","low","True","False",158,3500,NA
"A3LLOANE52R4LT","Thu Jan 30 2020 16:55:04 GMT-0600 (Central Standard Time)","Thu Jan 30 2020 17:02:37 GMT-0600 (Central Standard Time)","Mozilla/5.0 (Macintosh; Intel Mac OS X 10.15; rv:72.0) Gecko/20100101 Firefox/72.0",81,"[0.9, 0.5, 0.1]","[0.8, 0.4, 0.2]","[u'blue', u'black', u'red']","[u'left', u'middle', u'right']","[0.8, 0.4, 0.2]","[u'low', u'medium', u'high']","blue",49,"left","low","False","False",295,3450,NA
"A3LLOANE52R4LT","Thu Jan 30 2020 16:55:04 GMT-0600 (Central Standard Time)","Thu Jan 30 2020 17:02:37 GMT-0600 (Central Standard Time)","Mozilla/5.0 (Macintosh; Intel Mac OS X 10.15; rv:72.0) Gecko/20100101 Firefox/72.0",82,"[0.9, 0.5, 0.1]","[0.8, 0.4, 0.2]","[u'blue', u'black', u'red']","[u'left', u'middle', u'right']","[0.8, 0.4, 0.2]","[u'low', u'medium', u'high']","blue",49,"left","low","False","False",206,3400,NA
"A3LLOANE52R4LT","Thu Jan 30 2020 16:55:04 GMT-0600 (Central Standard Time)","Thu Jan 30 2020 17:02:37 GMT-0600 (Central Standard Time)","Mozilla/5.0 (Macintosh; Intel Mac OS X 10.15; rv:72.0) Gecko/20100101 Firefox/72.0",83,"[0.9, 0.5, 0.1]","[0.8, 0.4, 0.2]","[u'blue', u'black', u'red']","[u'left', u'middle', u'right']","[0.8, 0.4, 0.2]","[u'low', u'medium', u'high']","blue",49,"left","low","True","False",241,3500,NA
"A3LLOANE52R4LT","Thu Jan 30 2020 16:55:04 GMT-0600 (Central Standard Time)","Thu Jan 30 2020 17:02:37 GMT-0600 (Central Standard Time)","Mozilla/5.0 (Macintosh; Intel Mac OS X 10.15; rv:72.0) Gecko/20100101 Firefox/72.0",84,"[0.9, 0.5, 0.1]","[0.8, 0.4, 0.2]","[u'blue', u'black', u'red']","[u'left', u'middle', u'right']","[0.8, 0.4, 0.2]","[u'low', u'medium', u'high']","blue",49,"left","low","False","False",262,3450,NA
"A3LLOANE52R4LT","Thu Jan 30 2020 16:55:04 GMT-0600 (Central Standard Time)","Thu Jan 30 2020 17:02:37 GMT-0600 (Central Standard Time)","Mozilla/5.0 (Macintosh; Intel Mac OS X 10.15; rv:72.0) Gecko/20100101 Firefox/72.0",85,"[0.9, 0.5, 0.1]","[0.8, 0.4, 0.2]","[u'blue', u'black', u'red']","[u'left', u'middle', u'right']","[0.8, 0.4, 0.2]","[u'low', u'medium', u'high']","black",50,"middle","medium","False","False",437,3400,NA
"A3LLOANE52R4LT","Thu Jan 30 2020 16:55:04 GMT-0600 (Central Standard Time)","Thu Jan 30 2020 17:02:37 GMT-0600 (Central Standard Time)","Mozilla/5.0 (Macintosh; Intel Mac OS X 10.15; rv:72.0) Gecko/20100101 Firefox/72.0",86,"[0.9, 0.5, 0.1]","[0.8, 0.4, 0.2]","[u'blue', u'black', u'red']","[u'left', u'middle', u'right']","[0.8, 0.4, 0.2]","[u'low', u'medium', u'high']","black",50,"middle","medium","False","False",286,3350,NA
"A3LLOANE52R4LT","Thu Jan 30 2020 16:55:04 GMT-0600 (Central Standard Time)","Thu Jan 30 2020 17:02:37 GMT-0600 (Central Standard Time)","Mozilla/5.0 (Macintosh; Intel Mac OS X 10.15; rv:72.0) Gecko/20100101 Firefox/72.0",87,"[0.9, 0.5, 0.1]","[0.8, 0.4, 0.2]","[u'blue', u'black', u'red']","[u'left', u'middle', u'right']","[0.8, 0.4, 0.2]","[u'low', u'medium', u'high']","red",51,"right","high","True","False",347,3450,NA
"A3LLOANE52R4LT","Thu Jan 30 2020 16:55:04 GMT-0600 (Central Standard Time)","Thu Jan 30 2020 17:02:37 GMT-0600 (Central Standard Time)","Mozilla/5.0 (Macintosh; Intel Mac OS X 10.15; rv:72.0) Gecko/20100101 Firefox/72.0",88,"[0.9, 0.5, 0.1]","[0.8, 0.4, 0.2]","[u'blue', u'black', u'red']","[u'left', u'middle', u'right']","[0.8, 0.4, 0.2]","[u'low', u'medium', u'high']","red",51,"right","high","True","False",361,3550,NA
"A3LLOANE52R4LT","Thu Jan 30 2020 16:55:04 GMT-0600 (Central Standard Time)","Thu Jan 30 2020 17:02:37 GMT-0600 (Central Standard Time)","Mozilla/5.0 (Macintosh; Intel Mac OS X 10.15; rv:72.0) Gecko/20100101 Firefox/72.0",89,"[0.9, 0.5, 0.1]","[0.8, 0.4, 0.2]","[u'blue', u'black', u'red']","[u'left', u'middle', u'right']","[0.8, 0.4, 0.2]","[u'low', u'medium', u'high']","red",51,"right","high","True","False",860,3650,NA
"A3LLOANE52R4LT","Thu Jan 30 2020 16:55:04 GMT-0600 (Central Standard Time)","Thu Jan 30 2020 17:02:37 GMT-0600 (Central Standard Time)","Mozilla/5.0 (Macintosh; Intel Mac OS X 10.15; rv:72.0) Gecko/20100101 Firefox/72.0",90,"[0.9, 0.5, 0.1]","[0.8, 0.4, 0.2]","[u'blue', u'black', u'red']","[u'left', u'middle', u'right']","[0.8, 0.4, 0.2]","[u'low', u'medium', u'high']","red",51,"right","high","True","False",384,3750,NA
"A3LLOANE52R4LT","Thu Jan 30 2020 16:55:04 GMT-0600 (Central Standard Time)","Thu Jan 30 2020 17:02:37 GMT-0600 (Central Standard Time)","Mozilla/5.0 (Macintosh; Intel Mac OS X 10.15; rv:72.0) Gecko/20100101 Firefox/72.0",91,"[0.9, 0.5, 0.1]","[0.8, 0.4, 0.2]","[u'blue', u'black', u'red']","[u'left', u'middle', u'right']","[0.8, 0.4, 0.2]","[u'low', u'medium', u'high']","red",51,"right","high","True","False",603,3850,NA
"A3LLOANE52R4LT","Thu Jan 30 2020 16:55:04 GMT-0600 (Central Standard Time)","Thu Jan 30 2020 17:02:37 GMT-0600 (Central Standard Time)","Mozilla/5.0 (Macintosh; Intel Mac OS X 10.15; rv:72.0) Gecko/20100101 Firefox/72.0",92,"[0.9, 0.5, 0.1]","[0.8, 0.4, 0.2]","[u'blue', u'black', u'red']","[u'left', u'middle', u'right']","[0.8, 0.4, 0.2]","[u'low', u'medium', u'high']","red",51,"right","high","False","False",1128,3800,NA
"A3LLOANE52R4LT","Thu Jan 30 2020 16:55:04 GMT-0600 (Central Standard Time)","Thu Jan 30 2020 17:02:37 GMT-0600 (Central Standard Time)","Mozilla/5.0 (Macintosh; Intel Mac OS X 10.15; rv:72.0) Gecko/20100101 Firefox/72.0",93,"[0.9, 0.5, 0.1]","[0.8, 0.4, 0.2]","[u'blue', u'black', u'red']","[u'left', u'middle', u'right']","[0.8, 0.4, 0.2]","[u'low', u'medium', u'high']","red",51,"right","high","False","False",284,3750,NA
"A3LLOANE52R4LT","Thu Jan 30 2020 16:55:04 GMT-0600 (Central Standard Time)","Thu Jan 30 2020 17:02:37 GMT-0600 (Central Standard Time)","Mozilla/5.0 (Macintosh; Intel Mac OS X 10.15; rv:72.0) Gecko/20100101 Firefox/72.0",94,"[0.9, 0.5, 0.1]","[0.8, 0.4, 0.2]","[u'blue', u'black', u'red']","[u'left', u'middle', u'right']","[0.8, 0.4, 0.2]","[u'low', u'medium', u'high']","black",50,"middle","medium","False","False",326,3700,NA
"A3LLOANE52R4LT","Thu Jan 30 2020 16:55:04 GMT-0600 (Central Standard Time)","Thu Jan 30 2020 17:02:37 GMT-0600 (Central Standard Time)","Mozilla/5.0 (Macintosh; Intel Mac OS X 10.15; rv:72.0) Gecko/20100101 Firefox/72.0",95,"[0.9, 0.5, 0.1]","[0.8, 0.4, 0.2]","[u'blue', u'black', u'red']","[u'left', u'middle', u'right']","[0.8, 0.4, 0.2]","[u'low', u'medium', u'high']","red",51,"right","high","True","False",175,3800,NA
"A3LLOANE52R4LT","Thu Jan 30 2020 16:55:04 GMT-0600 (Central Standard Time)","Thu Jan 30 2020 17:02:37 GMT-0600 (Central Standard Time)","Mozilla/5.0 (Macintosh; Intel Mac OS X 10.15; rv:72.0) Gecko/20100101 Firefox/72.0",96,"[0.9, 0.5, 0.1]","[0.8, 0.4, 0.2]","[u'blue', u'black', u'red']","[u'left', u'middle', u'right']","[0.8, 0.4, 0.2]","[u'low', u'medium', u'high']","red",51,"right","high","True","True",445,3900,NA
"A3LLOANE52R4LT","Thu Jan 30 2020 16:55:04 GMT-0600 (Central Standard Time)","Thu Jan 30 2020 17:02:37 GMT-0600 (Central Standard Time)","Mozilla/5.0 (Macintosh; Intel Mac OS X 10.15; rv:72.0) Gecko/20100101 Firefox/72.0",97,"[0.9, 0.5, 0.1]","[0.8, 0.4, 0.2]","[u'blue', u'black', u'red']","[u'left', u'middle', u'right']","[0.8, 0.4, 0.2]","[u'low', u'high', u'medium']","red",51,"right","medium","False","False",411,3850,NA
"A3LLOANE52R4LT","Thu Jan 30 2020 16:55:04 GMT-0600 (Central Standard Time)","Thu Jan 30 2020 17:02:37 GMT-0600 (Central Standard Time)","Mozilla/5.0 (Macintosh; Intel Mac OS X 10.15; rv:72.0) Gecko/20100101 Firefox/72.0",98,"[0.9, 0.5, 0.1]","[0.8, 0.4, 0.2]","[u'blue', u'black', u'red']","[u'left', u'middle', u'right']","[0.8, 0.4, 0.2]","[u'low', u'high', u'medium']","blue",49,"left","low","False","False",307,3800,NA
"A3LLOANE52R4LT","Thu Jan 30 2020 16:55:04 GMT-0600 (Central Standard Time)","Thu Jan 30 2020 17:02:37 GMT-0600 (Central Standard Time)","Mozilla/5.0 (Macintosh; Intel Mac OS X 10.15; rv:72.0) Gecko/20100101 Firefox/72.0",99,"[0.9, 0.5, 0.1]","[0.8, 0.4, 0.2]","[u'blue', u'black', u'red']","[u'left', u'middle', u'right']","[0.8, 0.4, 0.2]","[u'low', u'high', u'medium']","blue",49,"left","low","True","False",342,3900,NA
"A3LLOANE52R4LT","Thu Jan 30 2020 16:55:04 GMT-0600 (Central Standard Time)","Thu Jan 30 2020 17:02:37 GMT-0600 (Central Standard Time)","Mozilla/5.0 (Macintosh; Intel Mac OS X 10.15; rv:72.0) Gecko/20100101 Firefox/72.0",100,"[0.9, 0.5, 0.1]","[0.8, 0.4, 0.2]","[u'blue', u'black', u'red']","[u'left', u'middle', u'right']","[0.8, 0.4, 0.2]","[u'low', u'high', u'medium']","blue",49,"left","low","False","False",680,3850,NA
"A3LLOANE52R4LT","Thu Jan 30 2020 16:55:04 GMT-0600 (Central Standard Time)","Thu Jan 30 2020 17:02:37 GMT-0600 (Central Standard Time)","Mozilla/5.0 (Macintosh; Intel Mac OS X 10.15; rv:72.0) Gecko/20100101 Firefox/72.0",101,"[0.9, 0.5, 0.1]","[0.8, 0.4, 0.2]","[u'blue', u'black', u'red']","[u'left', u'middle', u'right']","[0.8, 0.4, 0.2]","[u'low', u'high', u'medium']","black",50,"middle","high","True","False",195,3950,NA
"A3LLOANE52R4LT","Thu Jan 30 2020 16:55:04 GMT-0600 (Central Standard Time)","Thu Jan 30 2020 17:02:37 GMT-0600 (Central Standard Time)","Mozilla/5.0 (Macintosh; Intel Mac OS X 10.15; rv:72.0) Gecko/20100101 Firefox/72.0",102,"[0.9, 0.5, 0.1]","[0.8, 0.4, 0.2]","[u'blue', u'black', u'red']","[u'left', u'middle', u'right']","[0.8, 0.4, 0.2]","[u'low', u'high', u'medium']","black",50,"middle","high","True","False",153,4050,NA
"A3LLOANE52R4LT","Thu Jan 30 2020 16:55:04 GMT-0600 (Central Standard Time)","Thu Jan 30 2020 17:02:37 GMT-0600 (Central Standard Time)","Mozilla/5.0 (Macintosh; Intel Mac OS X 10.15; rv:72.0) Gecko/20100101 Firefox/72.0",103,"[0.9, 0.5, 0.1]","[0.8, 0.4, 0.2]","[u'blue', u'black', u'red']","[u'left', u'middle', u'right']","[0.8, 0.4, 0.2]","[u'low', u'high', u'medium']","black",50,"middle","high","True","False",148,4150,NA
"A3LLOANE52R4LT","Thu Jan 30 2020 16:55:04 GMT-0600 (Central Standard Time)","Thu Jan 30 2020 17:02:37 GMT-0600 (Central Standard Time)","Mozilla/5.0 (Macintosh; Intel Mac OS X 10.15; rv:72.0) Gecko/20100101 Firefox/72.0",104,"[0.9, 0.5, 0.1]","[0.8, 0.4, 0.2]","[u'blue', u'black', u'red']","[u'left', u'middle', u'right']","[0.8, 0.4, 0.2]","[u'low', u'high', u'medium']","black",50,"middle","high","True","False",276,4250,NA
"A3LLOANE52R4LT","Thu Jan 30 2020 16:55:04 GMT-0600 (Central Standard Time)","Thu Jan 30 2020 17:02:37 GMT-0600 (Central Standard Time)","Mozilla/5.0 (Macintosh; Intel Mac OS X 10.15; rv:72.0) Gecko/20100101 Firefox/72.0",105,"[0.9, 0.5, 0.1]","[0.8, 0.4, 0.2]","[u'blue', u'black', u'red']","[u'left', u'middle', u'right']","[0.8, 0.4, 0.2]","[u'low', u'high', u'medium']","black",50,"middle","high","True","False",264,4350,NA
"A3LLOANE52R4LT","Thu Jan 30 2020 16:55:04 GMT-0600 (Central Standard Time)","Thu Jan 30 2020 17:02:37 GMT-0600 (Central Standard Time)","Mozilla/5.0 (Macintosh; Intel Mac OS X 10.15; rv:72.0) Gecko/20100101 Firefox/72.0",106,"[0.9, 0.5, 0.1]","[0.8, 0.4, 0.2]","[u'blue', u'black', u'red']","[u'left', u'middle', u'right']","[0.8, 0.4, 0.2]","[u'low', u'high', u'medium']","black",50,"middle","high","True","False",1275,4450,NA
"A3LLOANE52R4LT","Thu Jan 30 2020 16:55:04 GMT-0600 (Central Standard Time)","Thu Jan 30 2020 17:02:37 GMT-0600 (Central Standard Time)","Mozilla/5.0 (Macintosh; Intel Mac OS X 10.15; rv:72.0) Gecko/20100101 Firefox/72.0",107,"[0.9, 0.5, 0.1]","[0.8, 0.4, 0.2]","[u'blue', u'black', u'red']","[u'left', u'middle', u'right']","[0.8, 0.4, 0.2]","[u'low', u'high', u'medium']","black",50,"middle","high","True","False",1128,4550,NA
"A3LLOANE52R4LT","Thu Jan 30 2020 16:55:04 GMT-0600 (Central Standard Time)","Thu Jan 30 2020 17:02:37 GMT-0600 (Central Standard Time)","Mozilla/5.0 (Macintosh; Intel Mac OS X 10.15; rv:72.0) Gecko/20100101 Firefox/72.0",108,"[0.9, 0.5, 0.1]","[0.8, 0.4, 0.2]","[u'blue', u'black', u'red']","[u'left', u'middle', u'right']","[0.8, 0.4, 0.2]","[u'low', u'high', u'medium']","black",50,"middle","high","False","False",509,4500,NA
"A3LLOANE52R4LT","Thu Jan 30 2020 16:55:04 GMT-0600 (Central Standard Time)","Thu Jan 30 2020 17:02:37 GMT-0600 (Central Standard Time)","Mozilla/5.0 (Macintosh; Intel Mac OS X 10.15; rv:72.0) Gecko/20100101 Firefox/72.0",109,"[0.9, 0.5, 0.1]","[0.8, 0.4, 0.2]","[u'blue', u'black', u'red']","[u'left', u'middle', u'right']","[0.8, 0.4, 0.2]","[u'low', u'high', u'medium']","black",50,"middle","high","True","True",186,4600,NA
"A3LLOANE52R4LT","Thu Jan 30 2020 16:55:04 GMT-0600 (Central Standard Time)","Thu Jan 30 2020 17:02:37 GMT-0600 (Central Standard Time)","Mozilla/5.0 (Macintosh; Intel Mac OS X 10.15; rv:72.0) Gecko/20100101 Firefox/72.0",110,"[0.9, 0.5, 0.1]","[0.8, 0.4, 0.2]","[u'blue', u'black', u'red']","[u'left', u'middle', u'right']","[0.8, 0.4, 0.2]","[u'low', u'medium', u'high']","black",50,"middle","medium","True","False",379,4700,NA
"A3LLOANE52R4LT","Thu Jan 30 2020 16:55:04 GMT-0600 (Central Standard Time)","Thu Jan 30 2020 17:02:37 GMT-0600 (Central Standard Time)","Mozilla/5.0 (Macintosh; Intel Mac OS X 10.15; rv:72.0) Gecko/20100101 Firefox/72.0",111,"[0.9, 0.5, 0.1]","[0.8, 0.4, 0.2]","[u'blue', u'black', u'red']","[u'left', u'middle', u'right']","[0.8, 0.4, 0.2]","[u'low', u'medium', u'high']","black",50,"middle","medium","True","False",420,4800,NA
"A3LLOANE52R4LT","Thu Jan 30 2020 16:55:04 GMT-0600 (Central Standard Time)","Thu Jan 30 2020 17:02:37 GMT-0600 (Central Standard Time)","Mozilla/5.0 (Macintosh; Intel Mac OS X 10.15; rv:72.0) Gecko/20100101 Firefox/72.0",112,"[0.9, 0.5, 0.1]","[0.8, 0.4, 0.2]","[u'blue', u'black', u'red']","[u'left', u'middle', u'right']","[0.8, 0.4, 0.2]","[u'low', u'medium', u'high']","black",50,"middle","medium","False","False",482,4750,NA
"A3LLOANE52R4LT","Thu Jan 30 2020 16:55:04 GMT-0600 (Central Standard Time)","Thu Jan 30 2020 17:02:37 GMT-0600 (Central Standard Time)","Mozilla/5.0 (Macintosh; Intel Mac OS X 10.15; rv:72.0) Gecko/20100101 Firefox/72.0",113,"[0.9, 0.5, 0.1]","[0.8, 0.4, 0.2]","[u'blue', u'black', u'red']","[u'left', u'middle', u'right']","[0.8, 0.4, 0.2]","[u'low', u'medium', u'high']","black",50,"middle","medium","True","False",387,4850,NA
"A3LLOANE52R4LT","Thu Jan 30 2020 16:55:04 GMT-0600 (Central Standard Time)","Thu Jan 30 2020 17:02:37 GMT-0600 (Central Standard Time)","Mozilla/5.0 (Macintosh; Intel Mac OS X 10.15; rv:72.0) Gecko/20100101 Firefox/72.0",114,"[0.9, 0.5, 0.1]","[0.8, 0.4, 0.2]","[u'blue', u'black', u'red']","[u'left', u'middle', u'right']","[0.8, 0.4, 0.2]","[u'low', u'medium', u'high']","black",50,"middle","medium","False","False",611,4800,NA
"A3LLOANE52R4LT","Thu Jan 30 2020 16:55:04 GMT-0600 (Central Standard Time)","Thu Jan 30 2020 17:02:37 GMT-0600 (Central Standard Time)","Mozilla/5.0 (Macintosh; Intel Mac OS X 10.15; rv:72.0) Gecko/20100101 Firefox/72.0",115,"[0.9, 0.5, 0.1]","[0.8, 0.4, 0.2]","[u'blue', u'black', u'red']","[u'left', u'middle', u'right']","[0.8, 0.4, 0.2]","[u'low', u'medium', u'high']","black",50,"middle","medium","False","False",166,4750,NA
"A3LLOANE52R4LT","Thu Jan 30 2020 16:55:04 GMT-0600 (Central Standard Time)","Thu Jan 30 2020 17:02:37 GMT-0600 (Central Standard Time)","Mozilla/5.0 (Macintosh; Intel Mac OS X 10.15; rv:72.0) Gecko/20100101 Firefox/72.0",116,"[0.9, 0.5, 0.1]","[0.8, 0.4, 0.2]","[u'blue', u'black', u'red']","[u'left', u'middle', u'right']","[0.8, 0.4, 0.2]","[u'low', u'medium', u'high']","blue",49,"left","low","False","False",547,4700,NA
"A3LLOANE52R4LT","Thu Jan 30 2020 16:55:04 GMT-0600 (Central Standard Time)","Thu Jan 30 2020 17:02:37 GMT-0600 (Central Standard Time)","Mozilla/5.0 (Macintosh; Intel Mac OS X 10.15; rv:72.0) Gecko/20100101 Firefox/72.0",117,"[0.9, 0.5, 0.1]","[0.8, 0.4, 0.2]","[u'blue', u'black', u'red']","[u'left', u'middle', u'right']","[0.8, 0.4, 0.2]","[u'low', u'medium', u'high']","red",51,"right","high","True","False",358,4800,NA
"A3LLOANE52R4LT","Thu Jan 30 2020 16:55:04 GMT-0600 (Central Standard Time)","Thu Jan 30 2020 17:02:37 GMT-0600 (Central Standard Time)","Mozilla/5.0 (Macintosh; Intel Mac OS X 10.15; rv:72.0) Gecko/20100101 Firefox/72.0",118,"[0.9, 0.5, 0.1]","[0.8, 0.4, 0.2]","[u'blue', u'black', u'red']","[u'left', u'middle', u'right']","[0.8, 0.4, 0.2]","[u'low', u'medium', u'high']","red",51,"right","high","True","False",580,4900,NA
"A3LLOANE52R4LT","Thu Jan 30 2020 16:55:04 GMT-0600 (Central Standard Time)","Thu Jan 30 2020 17:02:37 GMT-0600 (Central Standard Time)","Mozilla/5.0 (Macintosh; Intel Mac OS X 10.15; rv:72.0) Gecko/20100101 Firefox/72.0",119,"[0.9, 0.5, 0.1]","[0.8, 0.4, 0.2]","[u'blue', u'black', u'red']","[u'left', u'middle', u'right']","[0.8, 0.4, 0.2]","[u'low', u'medium', u'high']","red",51,"right","high","False","False",655,4850,NA
"A3LLOANE52R4LT","Thu Jan 30 2020 16:55:04 GMT-0600 (Central Standard Time)","Thu Jan 30 2020 17:02:37 GMT-0600 (Central Standard Time)","Mozilla/5.0 (Macintosh; Intel Mac OS X 10.15; rv:72.0) Gecko/20100101 Firefox/72.0",120,"[0.9, 0.5, 0.1]","[0.8, 0.4, 0.2]","[u'blue', u'black', u'red']","[u'left', u'middle', u'right']","[0.8, 0.4, 0.2]","[u'low', u'medium', u'high']","black",50,"middle","medium","False","False",230,4800,NA
"A3LLOANE52R4LT","Thu Jan 30 2020 16:55:04 GMT-0600 (Central Standard Time)","Thu Jan 30 2020 17:02:37 GMT-0600 (Central Standard Time)","Mozilla/5.0 (Macintosh; Intel Mac OS X 10.15; rv:72.0) Gecko/20100101 Firefox/72.0",121,"[0.9, 0.5, 0.1]","[0.8, 0.4, 0.2]","[u'blue', u'black', u'red']","[u'left', u'middle', u'right']","[0.8, 0.4, 0.2]","[u'high', u'low', u'medium']","blue",49,"left","high","False","False",288,4750,NA
"A3LLOANE52R4LT","Thu Jan 30 2020 16:55:04 GMT-0600 (Central Standard Time)","Thu Jan 30 2020 17:02:37 GMT-0600 (Central Standard Time)","Mozilla/5.0 (Macintosh; Intel Mac OS X 10.15; rv:72.0) Gecko/20100101 Firefox/72.0",122,"[0.9, 0.5, 0.1]","[0.8, 0.4, 0.2]","[u'blue', u'black', u'red']","[u'left', u'middle', u'right']","[0.8, 0.4, 0.2]","[u'high', u'low', u'medium']","blue",49,"left","high","False","False",199,4700,NA
"A3LLOANE52R4LT","Thu Jan 30 2020 16:55:04 GMT-0600 (Central Standard Time)","Thu Jan 30 2020 17:02:37 GMT-0600 (Central Standard Time)","Mozilla/5.0 (Macintosh; Intel Mac OS X 10.15; rv:72.0) Gecko/20100101 Firefox/72.0",123,"[0.9, 0.5, 0.1]","[0.8, 0.4, 0.2]","[u'blue', u'black', u'red']","[u'left', u'middle', u'right']","[0.8, 0.4, 0.2]","[u'high', u'low', u'medium']","red",51,"right","medium","False","False",120,4650,NA
"A3LLOANE52R4LT","Thu Jan 30 2020 16:55:04 GMT-0600 (Central Standard Time)","Thu Jan 30 2020 17:02:37 GMT-0600 (Central Standard Time)","Mozilla/5.0 (Macintosh; Intel Mac OS X 10.15; rv:72.0) Gecko/20100101 Firefox/72.0",124,"[0.9, 0.5, 0.1]","[0.8, 0.4, 0.2]","[u'blue', u'black', u'red']","[u'left', u'middle', u'right']","[0.8, 0.4, 0.2]","[u'high', u'low', u'medium']","red",51,"right","medium","True","False",506,4750,NA
"A3LLOANE52R4LT","Thu Jan 30 2020 16:55:04 GMT-0600 (Central Standard Time)","Thu Jan 30 2020 17:02:37 GMT-0600 (Central Standard Time)","Mozilla/5.0 (Macintosh; Intel Mac OS X 10.15; rv:72.0) Gecko/20100101 Firefox/72.0",125,"[0.9, 0.5, 0.1]","[0.8, 0.4, 0.2]","[u'blue', u'black', u'red']","[u'left', u'middle', u'right']","[0.8, 0.4, 0.2]","[u'high', u'low', u'medium']","red",51,"right","medium","True","False",284,4850,NA
"A3LLOANE52R4LT","Thu Jan 30 2020 16:55:04 GMT-0600 (Central Standard Time)","Thu Jan 30 2020 17:02:37 GMT-0600 (Central Standard Time)","Mozilla/5.0 (Macintosh; Intel Mac OS X 10.15; rv:72.0) Gecko/20100101 Firefox/72.0",126,"[0.9, 0.5, 0.1]","[0.8, 0.4, 0.2]","[u'blue', u'black', u'red']","[u'left', u'middle', u'right']","[0.8, 0.4, 0.2]","[u'high', u'low', u'medium']","red",51,"right","medium","False","False",204,4800,NA
"A3LLOANE52R4LT","Thu Jan 30 2020 16:55:04 GMT-0600 (Central Standard Time)","Thu Jan 30 2020 17:02:37 GMT-0600 (Central Standard Time)","Mozilla/5.0 (Macintosh; Intel Mac OS X 10.15; rv:72.0) Gecko/20100101 Firefox/72.0",127,"[0.9, 0.5, 0.1]","[0.8, 0.4, 0.2]","[u'blue', u'black', u'red']","[u'left', u'middle', u'right']","[0.8, 0.4, 0.2]","[u'high', u'low', u'medium']","red",51,"right","medium","True","False",232,4900,NA
"A3LLOANE52R4LT","Thu Jan 30 2020 16:55:04 GMT-0600 (Central Standard Time)","Thu Jan 30 2020 17:02:37 GMT-0600 (Central Standard Time)","Mozilla/5.0 (Macintosh; Intel Mac OS X 10.15; rv:72.0) Gecko/20100101 Firefox/72.0",128,"[0.9, 0.5, 0.1]","[0.8, 0.4, 0.2]","[u'blue', u'black', u'red']","[u'left', u'middle', u'right']","[0.8, 0.4, 0.2]","[u'high', u'low', u'medium']","red",51,"right","medium","False","False",201,4850,NA
"A3LLOANE52R4LT","Thu Jan 30 2020 16:55:04 GMT-0600 (Central Standard Time)","Thu Jan 30 2020 17:02:37 GMT-0600 (Central Standard Time)","Mozilla/5.0 (Macintosh; Intel Mac OS X 10.15; rv:72.0) Gecko/20100101 Firefox/72.0",129,"[0.9, 0.5, 0.1]","[0.8, 0.4, 0.2]","[u'blue', u'black', u'red']","[u'left', u'middle', u'right']","[0.8, 0.4, 0.2]","[u'high', u'low', u'medium']","black",50,"middle","low","False","False",70,4800,NA
"A3LLOANE52R4LT","Thu Jan 30 2020 16:55:04 GMT-0600 (Central Standard Time)","Thu Jan 30 2020 17:02:37 GMT-0600 (Central Standard Time)","Mozilla/5.0 (Macintosh; Intel Mac OS X 10.15; rv:72.0) Gecko/20100101 Firefox/72.0",130,"[0.9, 0.5, 0.1]","[0.8, 0.4, 0.2]","[u'blue', u'black', u'red']","[u'left', u'middle', u'right']","[0.8, 0.4, 0.2]","[u'high', u'low', u'medium']","blue",49,"left","high","True","False",106,4900,NA
"A3LLOANE52R4LT","Thu Jan 30 2020 16:55:04 GMT-0600 (Central Standard Time)","Thu Jan 30 2020 17:02:37 GMT-0600 (Central Standard Time)","Mozilla/5.0 (Macintosh; Intel Mac OS X 10.15; rv:72.0) Gecko/20100101 Firefox/72.0",131,"[0.9, 0.5, 0.1]","[0.8, 0.4, 0.2]","[u'blue', u'black', u'red']","[u'left', u'middle', u'right']","[0.8, 0.4, 0.2]","[u'high', u'low', u'medium']","blue",49,"left","high","True","False",106,5000,NA
"A3LLOANE52R4LT","Thu Jan 30 2020 16:55:04 GMT-0600 (Central Standard Time)","Thu Jan 30 2020 17:02:37 GMT-0600 (Central Standard Time)","Mozilla/5.0 (Macintosh; Intel Mac OS X 10.15; rv:72.0) Gecko/20100101 Firefox/72.0",132,"[0.9, 0.5, 0.1]","[0.8, 0.4, 0.2]","[u'blue', u'black', u'red']","[u'left', u'middle', u'right']","[0.8, 0.4, 0.2]","[u'high', u'low', u'medium']","blue",49,"left","high","True","False",206,5100,NA
"A3LLOANE52R4LT","Thu Jan 30 2020 16:55:04 GMT-0600 (Central Standard Time)","Thu Jan 30 2020 17:02:37 GMT-0600 (Central Standard Time)","Mozilla/5.0 (Macintosh; Intel Mac OS X 10.15; rv:72.0) Gecko/20100101 Firefox/72.0",133,"[0.9, 0.5, 0.1]","[0.8, 0.4, 0.2]","[u'blue', u'black', u'red']","[u'left', u'middle', u'right']","[0.8, 0.4, 0.2]","[u'high', u'low', u'medium']","blue",49,"left","high","True","False",225,5200,NA
"A3LLOANE52R4LT","Thu Jan 30 2020 16:55:04 GMT-0600 (Central Standard Time)","Thu Jan 30 2020 17:02:37 GMT-0600 (Central Standard Time)","Mozilla/5.0 (Macintosh; Intel Mac OS X 10.15; rv:72.0) Gecko/20100101 Firefox/72.0",134,"[0.9, 0.5, 0.1]","[0.8, 0.4, 0.2]","[u'blue', u'black', u'red']","[u'left', u'middle', u'right']","[0.8, 0.4, 0.2]","[u'high', u'low', u'medium']","blue",49,"left","high","True","False",116,5300,NA
"A3LLOANE52R4LT","Thu Jan 30 2020 16:55:04 GMT-0600 (Central Standard Time)","Thu Jan 30 2020 17:02:37 GMT-0600 (Central Standard Time)","Mozilla/5.0 (Macintosh; Intel Mac OS X 10.15; rv:72.0) Gecko/20100101 Firefox/72.0",135,"[0.9, 0.5, 0.1]","[0.8, 0.4, 0.2]","[u'blue', u'black', u'red']","[u'left', u'middle', u'right']","[0.8, 0.4, 0.2]","[u'high', u'low', u'medium']","blue",49,"left","high","True","False",116,5400,NA
"A3LLOANE52R4LT","Thu Jan 30 2020 16:55:04 GMT-0600 (Central Standard Time)","Thu Jan 30 2020 17:02:37 GMT-0600 (Central Standard Time)","Mozilla/5.0 (Macintosh; Intel Mac OS X 10.15; rv:72.0) Gecko/20100101 Firefox/72.0",136,"[0.9, 0.5, 0.1]","[0.8, 0.4, 0.2]","[u'blue', u'black', u'red']","[u'left', u'middle', u'right']","[0.8, 0.4, 0.2]","[u'high', u'low', u'medium']","blue",49,"left","high","True","False",21,5500,NA
"A3LLOANE52R4LT","Thu Jan 30 2020 16:55:04 GMT-0600 (Central Standard Time)","Thu Jan 30 2020 17:02:37 GMT-0600 (Central Standard Time)","Mozilla/5.0 (Macintosh; Intel Mac OS X 10.15; rv:72.0) Gecko/20100101 Firefox/72.0",137,"[0.9, 0.5, 0.1]","[0.8, 0.4, 0.2]","[u'blue', u'black', u'red']","[u'left', u'middle', u'right']","[0.8, 0.4, 0.2]","[u'high', u'low', u'medium']","blue",49,"left","high","True","False",84,5600,NA
"A3LLOANE52R4LT","Thu Jan 30 2020 16:55:04 GMT-0600 (Central Standard Time)","Thu Jan 30 2020 17:02:37 GMT-0600 (Central Standard Time)","Mozilla/5.0 (Macintosh; Intel Mac OS X 10.15; rv:72.0) Gecko/20100101 Firefox/72.0",138,"[0.9, 0.5, 0.1]","[0.8, 0.4, 0.2]","[u'blue', u'black', u'red']","[u'left', u'middle', u'right']","[0.8, 0.4, 0.2]","[u'high', u'low', u'medium']","blue",49,"left","high","False","True",164,5550,NA
"A3LLOANE52R4LT","Thu Jan 30 2020 16:55:04 GMT-0600 (Central Standard Time)","Thu Jan 30 2020 17:02:37 GMT-0600 (Central Standard Time)","Mozilla/5.0 (Macintosh; Intel Mac OS X 10.15; rv:72.0) Gecko/20100101 Firefox/72.0",139,"[0.9, 0.5, 0.1]","[0.8, 0.4, 0.2]","[u'blue', u'black', u'red']","[u'left', u'middle', u'right']","[0.8, 0.4, 0.2]","[u'medium', u'low', u'high']","blue",49,"left","medium","False","False",9,5500,NA
"A3LLOANE52R4LT","Thu Jan 30 2020 16:55:04 GMT-0600 (Central Standard Time)","Thu Jan 30 2020 17:02:37 GMT-0600 (Central Standard Time)","Mozilla/5.0 (Macintosh; Intel Mac OS X 10.15; rv:72.0) Gecko/20100101 Firefox/72.0",140,"[0.9, 0.5, 0.1]","[0.8, 0.4, 0.2]","[u'blue', u'black', u'red']","[u'left', u'middle', u'right']","[0.8, 0.4, 0.2]","[u'medium', u'low', u'high']","blue",49,"left","medium","True","False",209,5600,NA
"A3LLOANE52R4LT","Thu Jan 30 2020 16:55:04 GMT-0600 (Central Standard Time)","Thu Jan 30 2020 17:02:37 GMT-0600 (Central Standard Time)","Mozilla/5.0 (Macintosh; Intel Mac OS X 10.15; rv:72.0) Gecko/20100101 Firefox/72.0",141,"[0.9, 0.5, 0.1]","[0.8, 0.4, 0.2]","[u'blue', u'black', u'red']","[u'left', u'middle', u'right']","[0.8, 0.4, 0.2]","[u'medium', u'low', u'high']","blue",49,"left","medium","False","False",105,5550,NA
"A3LLOANE52R4LT","Thu Jan 30 2020 16:55:04 GMT-0600 (Central Standard Time)","Thu Jan 30 2020 17:02:37 GMT-0600 (Central Standard Time)","Mozilla/5.0 (Macintosh; Intel Mac OS X 10.15; rv:72.0) Gecko/20100101 Firefox/72.0",142,"[0.9, 0.5, 0.1]","[0.8, 0.4, 0.2]","[u'blue', u'black', u'red']","[u'left', u'middle', u'right']","[0.8, 0.4, 0.2]","[u'medium', u'low', u'high']","blue",49,"left","medium","False","False",173,5500,NA
"A3LLOANE52R4LT","Thu Jan 30 2020 16:55:04 GMT-0600 (Central Standard Time)","Thu Jan 30 2020 17:02:37 GMT-0600 (Central Standard Time)","Mozilla/5.0 (Macintosh; Intel Mac OS X 10.15; rv:72.0) Gecko/20100101 Firefox/72.0",143,"[0.9, 0.5, 0.1]","[0.8, 0.4, 0.2]","[u'blue', u'black', u'red']","[u'left', u'middle', u'right']","[0.8, 0.4, 0.2]","[u'medium', u'low', u'high']","black",50,"middle","low","False","False",190,5450,NA
"A3LLOANE52R4LT","Thu Jan 30 2020 16:55:04 GMT-0600 (Central Standard Time)","Thu Jan 30 2020 17:02:37 GMT-0600 (Central Standard Time)","Mozilla/5.0 (Macintosh; Intel Mac OS X 10.15; rv:72.0) Gecko/20100101 Firefox/72.0",144,"[0.9, 0.5, 0.1]","[0.8, 0.4, 0.2]","[u'blue', u'black', u'red']","[u'left', u'middle', u'right']","[0.8, 0.4, 0.2]","[u'medium', u'low', u'high']","black",50,"middle","low","False","False",217,5400,NA
"A3LLOANE52R4LT","Thu Jan 30 2020 16:55:04 GMT-0600 (Central Standard Time)","Thu Jan 30 2020 17:02:37 GMT-0600 (Central Standard Time)","Mozilla/5.0 (Macintosh; Intel Mac OS X 10.15; rv:72.0) Gecko/20100101 Firefox/72.0",145,"[0.9, 0.5, 0.1]","[0.8, 0.4, 0.2]","[u'blue', u'black', u'red']","[u'left', u'middle', u'right']","[0.8, 0.4, 0.2]","[u'medium', u'low', u'high']","red",51,"right","high","True","False",198,5500,NA
"A3LLOANE52R4LT","Thu Jan 30 2020 16:55:04 GMT-0600 (Central Standard Time)","Thu Jan 30 2020 17:02:37 GMT-0600 (Central Standard Time)","Mozilla/5.0 (Macintosh; Intel Mac OS X 10.15; rv:72.0) Gecko/20100101 Firefox/72.0",146,"[0.9, 0.5, 0.1]","[0.8, 0.4, 0.2]","[u'blue', u'black', u'red']","[u'left', u'middle', u'right']","[0.8, 0.4, 0.2]","[u'medium', u'low', u'high']","red",51,"right","high","True","False",257,5600,NA
"A3LLOANE52R4LT","Thu Jan 30 2020 16:55:04 GMT-0600 (Central Standard Time)","Thu Jan 30 2020 17:02:37 GMT-0600 (Central Standard Time)","Mozilla/5.0 (Macintosh; Intel Mac OS X 10.15; rv:72.0) Gecko/20100101 Firefox/72.0",147,"[0.9, 0.5, 0.1]","[0.8, 0.4, 0.2]","[u'blue', u'black', u'red']","[u'left', u'middle', u'right']","[0.8, 0.4, 0.2]","[u'medium', u'low', u'high']","red",51,"right","high","True","False",219,5700,NA
"A3LLOANE52R4LT","Thu Jan 30 2020 16:55:04 GMT-0600 (Central Standard Time)","Thu Jan 30 2020 17:02:37 GMT-0600 (Central Standard Time)","Mozilla/5.0 (Macintosh; Intel Mac OS X 10.15; rv:72.0) Gecko/20100101 Firefox/72.0",148,"[0.9, 0.5, 0.1]","[0.8, 0.4, 0.2]","[u'blue', u'black', u'red']","[u'left', u'middle', u'right']","[0.8, 0.4, 0.2]","[u'medium', u'low', u'high']","red",51,"right","high","True","False",145,5800,NA
"A3LLOANE52R4LT","Thu Jan 30 2020 16:55:04 GMT-0600 (Central Standard Time)","Thu Jan 30 2020 17:02:37 GMT-0600 (Central Standard Time)","Mozilla/5.0 (Macintosh; Intel Mac OS X 10.15; rv:72.0) Gecko/20100101 Firefox/72.0",149,"[0.9, 0.5, 0.1]","[0.8, 0.4, 0.2]","[u'blue', u'black', u'red']","[u'left', u'middle', u'right']","[0.8, 0.4, 0.2]","[u'medium', u'low', u'high']","red",51,"right","high","True","False",207,5900,NA
"A3LLOANE52R4LT","Thu Jan 30 2020 16:55:04 GMT-0600 (Central Standard Time)","Thu Jan 30 2020 17:02:37 GMT-0600 (Central Standard Time)","Mozilla/5.0 (Macintosh; Intel Mac OS X 10.15; rv:72.0) Gecko/20100101 Firefox/72.0",150,"[0.9, 0.5, 0.1]","[0.8, 0.4, 0.2]","[u'blue', u'black', u'red']","[u'left', u'middle', u'right']","[0.8, 0.4, 0.2]","[u'medium', u'low', u'high']","red",51,"right","high","False","False",209,5850,NA
"A3LLOANE52R4LT","Thu Jan 30 2020 16:55:04 GMT-0600 (Central Standard Time)","Thu Jan 30 2020 17:02:37 GMT-0600 (Central Standard Time)","Mozilla/5.0 (Macintosh; Intel Mac OS X 10.15; rv:72.0) Gecko/20100101 Firefox/72.0",151,"[0.9, 0.5, 0.1]","[0.8, 0.4, 0.2]","[u'blue', u'black', u'red']","[u'left', u'middle', u'right']","[0.8, 0.4, 0.2]","[u'medium', u'low', u'high']","red",51,"right","high","True","False",139,5950,NA
"A3LLOANE52R4LT","Thu Jan 30 2020 16:55:04 GMT-0600 (Central Standard Time)","Thu Jan 30 2020 17:02:37 GMT-0600 (Central Standard Time)","Mozilla/5.0 (Macintosh; Intel Mac OS X 10.15; rv:72.0) Gecko/20100101 Firefox/72.0",152,"[0.9, 0.5, 0.1]","[0.8, 0.4, 0.2]","[u'blue', u'black', u'red']","[u'left', u'middle', u'right']","[0.8, 0.4, 0.2]","[u'medium', u'low', u'high']","red",51,"right","high","True","False",253,6050,NA
"A3LLOANE52R4LT","Thu Jan 30 2020 16:55:04 GMT-0600 (Central Standard Time)","Thu Jan 30 2020 17:02:37 GMT-0600 (Central Standard Time)","Mozilla/5.0 (Macintosh; Intel Mac OS X 10.15; rv:72.0) Gecko/20100101 Firefox/72.0",153,"[0.9, 0.5, 0.1]","[0.8, 0.4, 0.2]","[u'blue', u'black', u'red']","[u'left', u'middle', u'right']","[0.8, 0.4, 0.2]","[u'medium', u'low', u'high']","red",51,"right","high","True","True",344,6150,NA
"A3LLOANE52R4LT","Thu Jan 30 2020 16:55:04 GMT-0600 (Central Standard Time)","Thu Jan 30 2020 17:02:37 GMT-0600 (Central Standard Time)","Mozilla/5.0 (Macintosh; Intel Mac OS X 10.15; rv:72.0) Gecko/20100101 Firefox/72.0",154,"[0.9, 0.5, 0.1]","[0.8, 0.4, 0.2]","[u'blue', u'black', u'red']","[u'left', u'middle', u'right']","[0.8, 0.4, 0.2]","[u'medium', u'high', u'low']","red",51,"right","low","False","False",269,6100,NA
"A3LLOANE52R4LT","Thu Jan 30 2020 16:55:04 GMT-0600 (Central Standard Time)","Thu Jan 30 2020 17:02:37 GMT-0600 (Central Standard Time)","Mozilla/5.0 (Macintosh; Intel Mac OS X 10.15; rv:72.0) Gecko/20100101 Firefox/72.0",155,"[0.9, 0.5, 0.1]","[0.8, 0.4, 0.2]","[u'blue', u'black', u'red']","[u'left', u'middle', u'right']","[0.8, 0.4, 0.2]","[u'medium', u'high', u'low']","red",51,"right","low","False","False",83,6050,NA
"A3LLOANE52R4LT","Thu Jan 30 2020 16:55:04 GMT-0600 (Central Standard Time)","Thu Jan 30 2020 17:02:37 GMT-0600 (Central Standard Time)","Mozilla/5.0 (Macintosh; Intel Mac OS X 10.15; rv:72.0) Gecko/20100101 Firefox/72.0",156,"[0.9, 0.5, 0.1]","[0.8, 0.4, 0.2]","[u'blue', u'black', u'red']","[u'left', u'middle', u'right']","[0.8, 0.4, 0.2]","[u'medium', u'high', u'low']","black",50,"middle","high","True","False",190,6150,NA
"A3LLOANE52R4LT","Thu Jan 30 2020 16:55:04 GMT-0600 (Central Standard Time)","Thu Jan 30 2020 17:02:37 GMT-0600 (Central Standard Time)","Mozilla/5.0 (Macintosh; Intel Mac OS X 10.15; rv:72.0) Gecko/20100101 Firefox/72.0",157,"[0.9, 0.5, 0.1]","[0.8, 0.4, 0.2]","[u'blue', u'black', u'red']","[u'left', u'middle', u'right']","[0.8, 0.4, 0.2]","[u'medium', u'high', u'low']","black",50,"middle","high","True","False",280,6250,NA
"A3LLOANE52R4LT","Thu Jan 30 2020 16:55:04 GMT-0600 (Central Standard Time)","Thu Jan 30 2020 17:02:37 GMT-0600 (Central Standard Time)","Mozilla/5.0 (Macintosh; Intel Mac OS X 10.15; rv:72.0) Gecko/20100101 Firefox/72.0",158,"[0.9, 0.5, 0.1]","[0.8, 0.4, 0.2]","[u'blue', u'black', u'red']","[u'left', u'middle', u'right']","[0.8, 0.4, 0.2]","[u'medium', u'high', u'low']","black",50,"middle","high","True","False",259,6350,NA
"A3LLOANE52R4LT","Thu Jan 30 2020 16:55:04 GMT-0600 (Central Standard Time)","Thu Jan 30 2020 17:02:37 GMT-0600 (Central Standard Time)","Mozilla/5.0 (Macintosh; Intel Mac OS X 10.15; rv:72.0) Gecko/20100101 Firefox/72.0",159,"[0.9, 0.5, 0.1]","[0.8, 0.4, 0.2]","[u'blue', u'black', u'red']","[u'left', u'middle', u'right']","[0.8, 0.4, 0.2]","[u'medium', u'high', u'low']","black",50,"middle","high","True","False",235,6450,NA
"A3LLOANE52R4LT","Thu Jan 30 2020 16:55:04 GMT-0600 (Central Standard Time)","Thu Jan 30 2020 17:02:37 GMT-0600 (Central Standard Time)","Mozilla/5.0 (Macintosh; Intel Mac OS X 10.15; rv:72.0) Gecko/20100101 Firefox/72.0",160,"[0.9, 0.5, 0.1]","[0.8, 0.4, 0.2]","[u'blue', u'black', u'red']","[u'left', u'middle', u'right']","[0.8, 0.4, 0.2]","[u'medium', u'high', u'low']","black",50,"middle","high","True","False",272,6550,NA
