"src_subject_id","start_time","end_time","browser","index","first_half_probabilities","second_half_probabilities","deck_color","deck_position","deck_probabilities","deck_contingencies","response_color","key_press","response_position","response_probability","reward_type","trial_type","rt","reward_tally","exclusion_reason"
"A2CK0OXMPOR9LE","Thu Jan 30 2020 11:02:37 GMT-0800 (Pacific Standard Time)","Thu Jan 30 2020 11:08:19 GMT-0800 (Pacific Standard Time)","Mozilla/5.0 (Windows NT 6.2; Win64; x64) AppleWebKit/537.36 (KHTML, like Gecko) Chrome/75.0.3770.100 Safari/537.36",1,"[0.9, 0.5, 0.1]","[0.8, 0.4, 0.2]","[u'blue', u'red', u'black']","[u'left', u'middle', u'right']","[0.9, 0.5, 0.1]","[u'medium', u'low', u'high']","red",50,"middle","low","False","False",559,-50,NA
"A2CK0OXMPOR9LE","Thu Jan 30 2020 11:02:37 GMT-0800 (Pacific Standard Time)","Thu Jan 30 2020 11:08:19 GMT-0800 (Pacific Standard Time)","Mozilla/5.0 (Windows NT 6.2; Win64; x64) AppleWebKit/537.36 (KHTML, like Gecko) Chrome/75.0.3770.100 Safari/537.36",2,"[0.9, 0.5, 0.1]","[0.8, 0.4, 0.2]","[u'blue', u'red', u'black']","[u'left', u'middle', u'right']","[0.9, 0.5, 0.1]","[u'medium', u'low', u'high']","black",51,"right","high","True","False",301,50,NA
"A2CK0OXMPOR9LE","Thu Jan 30 2020 11:02:37 GMT-0800 (Pacific Standard Time)","Thu Jan 30 2020 11:08:19 GMT-0800 (Pacific Standard Time)","Mozilla/5.0 (Windows NT 6.2; Win64; x64) AppleWebKit/537.36 (KHTML, like Gecko) Chrome/75.0.3770.100 Safari/537.36",3,"[0.9, 0.5, 0.1]","[0.8, 0.4, 0.2]","[u'blue', u'red', u'black']","[u'left', u'middle', u'right']","[0.9, 0.5, 0.1]","[u'medium', u'low', u'high']","blue",49,"left","medium","True","False",372,150,NA
"A2CK0OXMPOR9LE","Thu Jan 30 2020 11:02:37 GMT-0800 (Pacific Standard Time)","Thu Jan 30 2020 11:08:19 GMT-0800 (Pacific Standard Time)","Mozilla/5.0 (Windows NT 6.2; Win64; x64) AppleWebKit/537.36 (KHTML, like Gecko) Chrome/75.0.3770.100 Safari/537.36",4,"[0.9, 0.5, 0.1]","[0.8, 0.4, 0.2]","[u'blue', u'red', u'black']","[u'left', u'middle', u'right']","[0.9, 0.5, 0.1]","[u'medium', u'low', u'high']","blue",49,"left","medium","True","False",538,250,NA
"A2CK0OXMPOR9LE","Thu Jan 30 2020 11:02:37 GMT-0800 (Pacific Standard Time)","Thu Jan 30 2020 11:08:19 GMT-0800 (Pacific Standard Time)","Mozilla/5.0 (Windows NT 6.2; Win64; x64) AppleWebKit/537.36 (KHTML, like Gecko) Chrome/75.0.3770.100 Safari/537.36",5,"[0.9, 0.5, 0.1]","[0.8, 0.4, 0.2]","[u'blue', u'red', u'black']","[u'left', u'middle', u'right']","[0.9, 0.5, 0.1]","[u'medium', u'low', u'high']","blue",49,"left","medium","False","False",461,200,NA
"A2CK0OXMPOR9LE","Thu Jan 30 2020 11:02:37 GMT-0800 (Pacific Standard Time)","Thu Jan 30 2020 11:08:19 GMT-0800 (Pacific Standard Time)","Mozilla/5.0 (Windows NT 6.2; Win64; x64) AppleWebKit/537.36 (KHTML, like Gecko) Chrome/75.0.3770.100 Safari/537.36",6,"[0.9, 0.5, 0.1]","[0.8, 0.4, 0.2]","[u'blue', u'red', u'black']","[u'left', u'middle', u'right']","[0.9, 0.5, 0.1]","[u'medium', u'low', u'high']","black",51,"right","high","True","False",566,300,NA
"A2CK0OXMPOR9LE","Thu Jan 30 2020 11:02:37 GMT-0800 (Pacific Standard Time)","Thu Jan 30 2020 11:08:19 GMT-0800 (Pacific Standard Time)","Mozilla/5.0 (Windows NT 6.2; Win64; x64) AppleWebKit/537.36 (KHTML, like Gecko) Chrome/75.0.3770.100 Safari/537.36",7,"[0.9, 0.5, 0.1]","[0.8, 0.4, 0.2]","[u'blue', u'red', u'black']","[u'left', u'middle', u'right']","[0.9, 0.5, 0.1]","[u'medium', u'low', u'high']","blue",49,"left","medium","False","False",559,250,NA
"A2CK0OXMPOR9LE","Thu Jan 30 2020 11:02:37 GMT-0800 (Pacific Standard Time)","Thu Jan 30 2020 11:08:19 GMT-0800 (Pacific Standard Time)","Mozilla/5.0 (Windows NT 6.2; Win64; x64) AppleWebKit/537.36 (KHTML, like Gecko) Chrome/75.0.3770.100 Safari/537.36",8,"[0.9, 0.5, 0.1]","[0.8, 0.4, 0.2]","[u'blue', u'red', u'black']","[u'left', u'middle', u'right']","[0.9, 0.5, 0.1]","[u'medium', u'low', u'high']","red",50,"middle","low","False","False",370,200,NA
"A2CK0OXMPOR9LE","Thu Jan 30 2020 11:02:37 GMT-0800 (Pacific Standard Time)","Thu Jan 30 2020 11:08:19 GMT-0800 (Pacific Standard Time)","Mozilla/5.0 (Windows NT 6.2; Win64; x64) AppleWebKit/537.36 (KHTML, like Gecko) Chrome/75.0.3770.100 Safari/537.36",9,"[0.9, 0.5, 0.1]","[0.8, 0.4, 0.2]","[u'blue', u'red', u'black']","[u'left', u'middle', u'right']","[0.9, 0.5, 0.1]","[u'medium', u'low', u'high']","blue",49,"left","medium","True","False",248,300,NA
"A2CK0OXMPOR9LE","Thu Jan 30 2020 11:02:37 GMT-0800 (Pacific Standard Time)","Thu Jan 30 2020 11:08:19 GMT-0800 (Pacific Standard Time)","Mozilla/5.0 (Windows NT 6.2; Win64; x64) AppleWebKit/537.36 (KHTML, like Gecko) Chrome/75.0.3770.100 Safari/537.36",10,"[0.9, 0.5, 0.1]","[0.8, 0.4, 0.2]","[u'blue', u'red', u'black']","[u'left', u'middle', u'right']","[0.9, 0.5, 0.1]","[u'medium', u'low', u'high']","blue",49,"left","medium","False","False",325,250,NA
"A2CK0OXMPOR9LE","Thu Jan 30 2020 11:02:37 GMT-0800 (Pacific Standard Time)","Thu Jan 30 2020 11:08:19 GMT-0800 (Pacific Standard Time)","Mozilla/5.0 (Windows NT 6.2; Win64; x64) AppleWebKit/537.36 (KHTML, like Gecko) Chrome/75.0.3770.100 Safari/537.36",11,"[0.9, 0.5, 0.1]","[0.8, 0.4, 0.2]","[u'blue', u'red', u'black']","[u'left', u'middle', u'right']","[0.9, 0.5, 0.1]","[u'medium', u'low', u'high']","blue",49,"left","medium","True","False",602,350,NA
"A2CK0OXMPOR9LE","Thu Jan 30 2020 11:02:37 GMT-0800 (Pacific Standard Time)","Thu Jan 30 2020 11:08:19 GMT-0800 (Pacific Standard Time)","Mozilla/5.0 (Windows NT 6.2; Win64; x64) AppleWebKit/537.36 (KHTML, like Gecko) Chrome/75.0.3770.100 Safari/537.36",12,"[0.9, 0.5, 0.1]","[0.8, 0.4, 0.2]","[u'blue', u'red', u'black']","[u'left', u'middle', u'right']","[0.9, 0.5, 0.1]","[u'medium', u'low', u'high']","blue",49,"left","medium","True","False",281,450,NA
"A2CK0OXMPOR9LE","Thu Jan 30 2020 11:02:37 GMT-0800 (Pacific Standard Time)","Thu Jan 30 2020 11:08:19 GMT-0800 (Pacific Standard Time)","Mozilla/5.0 (Windows NT 6.2; Win64; x64) AppleWebKit/537.36 (KHTML, like Gecko) Chrome/75.0.3770.100 Safari/537.36",13,"[0.9, 0.5, 0.1]","[0.8, 0.4, 0.2]","[u'blue', u'red', u'black']","[u'left', u'middle', u'right']","[0.9, 0.5, 0.1]","[u'medium', u'low', u'high']","blue",49,"left","medium","False","False",207,400,NA
"A2CK0OXMPOR9LE","Thu Jan 30 2020 11:02:37 GMT-0800 (Pacific Standard Time)","Thu Jan 30 2020 11:08:19 GMT-0800 (Pacific Standard Time)","Mozilla/5.0 (Windows NT 6.2; Win64; x64) AppleWebKit/537.36 (KHTML, like Gecko) Chrome/75.0.3770.100 Safari/537.36",14,"[0.9, 0.5, 0.1]","[0.8, 0.4, 0.2]","[u'blue', u'red', u'black']","[u'left', u'middle', u'right']","[0.9, 0.5, 0.1]","[u'medium', u'low', u'high']","blue",49,"left","medium","False","False",221,350,NA
"A2CK0OXMPOR9LE","Thu Jan 30 2020 11:02:37 GMT-0800 (Pacific Standard Time)","Thu Jan 30 2020 11:08:19 GMT-0800 (Pacific Standard Time)","Mozilla/5.0 (Windows NT 6.2; Win64; x64) AppleWebKit/537.36 (KHTML, like Gecko) Chrome/75.0.3770.100 Safari/537.36",15,"[0.9, 0.5, 0.1]","[0.8, 0.4, 0.2]","[u'blue', u'red', u'black']","[u'left', u'middle', u'right']","[0.9, 0.5, 0.1]","[u'medium', u'low', u'high']","blue",49,"left","medium","False","False",223,300,NA
"A2CK0OXMPOR9LE","Thu Jan 30 2020 11:02:37 GMT-0800 (Pacific Standard Time)","Thu Jan 30 2020 11:08:19 GMT-0800 (Pacific Standard Time)","Mozilla/5.0 (Windows NT 6.2; Win64; x64) AppleWebKit/537.36 (KHTML, like Gecko) Chrome/75.0.3770.100 Safari/537.36",16,"[0.9, 0.5, 0.1]","[0.8, 0.4, 0.2]","[u'blue', u'red', u'black']","[u'left', u'middle', u'right']","[0.9, 0.5, 0.1]","[u'medium', u'low', u'high']","blue",49,"left","medium","False","False",244,250,NA
"A2CK0OXMPOR9LE","Thu Jan 30 2020 11:02:37 GMT-0800 (Pacific Standard Time)","Thu Jan 30 2020 11:08:19 GMT-0800 (Pacific Standard Time)","Mozilla/5.0 (Windows NT 6.2; Win64; x64) AppleWebKit/537.36 (KHTML, like Gecko) Chrome/75.0.3770.100 Safari/537.36",17,"[0.9, 0.5, 0.1]","[0.8, 0.4, 0.2]","[u'blue', u'red', u'black']","[u'left', u'middle', u'right']","[0.9, 0.5, 0.1]","[u'medium', u'low', u'high']","red",50,"middle","low","False","False",214,200,NA
"A2CK0OXMPOR9LE","Thu Jan 30 2020 11:02:37 GMT-0800 (Pacific Standard Time)","Thu Jan 30 2020 11:08:19 GMT-0800 (Pacific Standard Time)","Mozilla/5.0 (Windows NT 6.2; Win64; x64) AppleWebKit/537.36 (KHTML, like Gecko) Chrome/75.0.3770.100 Safari/537.36",18,"[0.9, 0.5, 0.1]","[0.8, 0.4, 0.2]","[u'blue', u'red', u'black']","[u'left', u'middle', u'right']","[0.9, 0.5, 0.1]","[u'medium', u'low', u'high']","red",50,"middle","low","False","False",246,150,NA
"A2CK0OXMPOR9LE","Thu Jan 30 2020 11:02:37 GMT-0800 (Pacific Standard Time)","Thu Jan 30 2020 11:08:19 GMT-0800 (Pacific Standard Time)","Mozilla/5.0 (Windows NT 6.2; Win64; x64) AppleWebKit/537.36 (KHTML, like Gecko) Chrome/75.0.3770.100 Safari/537.36",19,"[0.9, 0.5, 0.1]","[0.8, 0.4, 0.2]","[u'blue', u'red', u'black']","[u'left', u'middle', u'right']","[0.9, 0.5, 0.1]","[u'medium', u'low', u'high']","red",50,"middle","low","False","False",444,100,NA
"A2CK0OXMPOR9LE","Thu Jan 30 2020 11:02:37 GMT-0800 (Pacific Standard Time)","Thu Jan 30 2020 11:08:19 GMT-0800 (Pacific Standard Time)","Mozilla/5.0 (Windows NT 6.2; Win64; x64) AppleWebKit/537.36 (KHTML, like Gecko) Chrome/75.0.3770.100 Safari/537.36",20,"[0.9, 0.5, 0.1]","[0.8, 0.4, 0.2]","[u'blue', u'red', u'black']","[u'left', u'middle', u'right']","[0.9, 0.5, 0.1]","[u'medium', u'low', u'high']","red",50,"middle","low","False","False",273,50,NA
"A2CK0OXMPOR9LE","Thu Jan 30 2020 11:02:37 GMT-0800 (Pacific Standard Time)","Thu Jan 30 2020 11:08:19 GMT-0800 (Pacific Standard Time)","Mozilla/5.0 (Windows NT 6.2; Win64; x64) AppleWebKit/537.36 (KHTML, like Gecko) Chrome/75.0.3770.100 Safari/537.36",21,"[0.9, 0.5, 0.1]","[0.8, 0.4, 0.2]","[u'blue', u'red', u'black']","[u'left', u'middle', u'right']","[0.9, 0.5, 0.1]","[u'medium', u'low', u'high']","black",51,"right","high","True","False",269,150,NA
"A2CK0OXMPOR9LE","Thu Jan 30 2020 11:02:37 GMT-0800 (Pacific Standard Time)","Thu Jan 30 2020 11:08:19 GMT-0800 (Pacific Standard Time)","Mozilla/5.0 (Windows NT 6.2; Win64; x64) AppleWebKit/537.36 (KHTML, like Gecko) Chrome/75.0.3770.100 Safari/537.36",22,"[0.9, 0.5, 0.1]","[0.8, 0.4, 0.2]","[u'blue', u'red', u'black']","[u'left', u'middle', u'right']","[0.9, 0.5, 0.1]","[u'medium', u'low', u'high']","black",51,"right","high","True","False",353,250,NA
"A2CK0OXMPOR9LE","Thu Jan 30 2020 11:02:37 GMT-0800 (Pacific Standard Time)","Thu Jan 30 2020 11:08:19 GMT-0800 (Pacific Standard Time)","Mozilla/5.0 (Windows NT 6.2; Win64; x64) AppleWebKit/537.36 (KHTML, like Gecko) Chrome/75.0.3770.100 Safari/537.36",23,"[0.9, 0.5, 0.1]","[0.8, 0.4, 0.2]","[u'blue', u'red', u'black']","[u'left', u'middle', u'right']","[0.9, 0.5, 0.1]","[u'medium', u'low', u'high']","black",51,"right","high","True","False",371,350,NA
"A2CK0OXMPOR9LE","Thu Jan 30 2020 11:02:37 GMT-0800 (Pacific Standard Time)","Thu Jan 30 2020 11:08:19 GMT-0800 (Pacific Standard Time)","Mozilla/5.0 (Windows NT 6.2; Win64; x64) AppleWebKit/537.36 (KHTML, like Gecko) Chrome/75.0.3770.100 Safari/537.36",24,"[0.9, 0.5, 0.1]","[0.8, 0.4, 0.2]","[u'blue', u'red', u'black']","[u'left', u'middle', u'right']","[0.9, 0.5, 0.1]","[u'medium', u'low', u'high']","black",51,"right","high","True","False",739,450,NA
"A2CK0OXMPOR9LE","Thu Jan 30 2020 11:02:37 GMT-0800 (Pacific Standard Time)","Thu Jan 30 2020 11:08:19 GMT-0800 (Pacific Standard Time)","Mozilla/5.0 (Windows NT 6.2; Win64; x64) AppleWebKit/537.36 (KHTML, like Gecko) Chrome/75.0.3770.100 Safari/537.36",25,"[0.9, 0.5, 0.1]","[0.8, 0.4, 0.2]","[u'blue', u'red', u'black']","[u'left', u'middle', u'right']","[0.9, 0.5, 0.1]","[u'medium', u'low', u'high']","black",51,"right","high","True","False",376,550,NA
"A2CK0OXMPOR9LE","Thu Jan 30 2020 11:02:37 GMT-0800 (Pacific Standard Time)","Thu Jan 30 2020 11:08:19 GMT-0800 (Pacific Standard Time)","Mozilla/5.0 (Windows NT 6.2; Win64; x64) AppleWebKit/537.36 (KHTML, like Gecko) Chrome/75.0.3770.100 Safari/537.36",26,"[0.9, 0.5, 0.1]","[0.8, 0.4, 0.2]","[u'blue', u'red', u'black']","[u'left', u'middle', u'right']","[0.9, 0.5, 0.1]","[u'medium', u'low', u'high']","black",51,"right","high","True","False",511,650,NA
"A2CK0OXMPOR9LE","Thu Jan 30 2020 11:02:37 GMT-0800 (Pacific Standard Time)","Thu Jan 30 2020 11:08:19 GMT-0800 (Pacific Standard Time)","Mozilla/5.0 (Windows NT 6.2; Win64; x64) AppleWebKit/537.36 (KHTML, like Gecko) Chrome/75.0.3770.100 Safari/537.36",27,"[0.9, 0.5, 0.1]","[0.8, 0.4, 0.2]","[u'blue', u'red', u'black']","[u'left', u'middle', u'right']","[0.9, 0.5, 0.1]","[u'medium', u'low', u'high']","black",51,"right","high","True","False",459,750,NA
"A2CK0OXMPOR9LE","Thu Jan 30 2020 11:02:37 GMT-0800 (Pacific Standard Time)","Thu Jan 30 2020 11:08:19 GMT-0800 (Pacific Standard Time)","Mozilla/5.0 (Windows NT 6.2; Win64; x64) AppleWebKit/537.36 (KHTML, like Gecko) Chrome/75.0.3770.100 Safari/537.36",28,"[0.9, 0.5, 0.1]","[0.8, 0.4, 0.2]","[u'blue', u'red', u'black']","[u'left', u'middle', u'right']","[0.9, 0.5, 0.1]","[u'medium', u'low', u'high']","black",51,"right","high","True","False",347,850,NA
"A2CK0OXMPOR9LE","Thu Jan 30 2020 11:02:37 GMT-0800 (Pacific Standard Time)","Thu Jan 30 2020 11:08:19 GMT-0800 (Pacific Standard Time)","Mozilla/5.0 (Windows NT 6.2; Win64; x64) AppleWebKit/537.36 (KHTML, like Gecko) Chrome/75.0.3770.100 Safari/537.36",29,"[0.9, 0.5, 0.1]","[0.8, 0.4, 0.2]","[u'blue', u'red', u'black']","[u'left', u'middle', u'right']","[0.9, 0.5, 0.1]","[u'medium', u'low', u'high']","black",51,"right","high","True","True",318,950,NA
"A2CK0OXMPOR9LE","Thu Jan 30 2020 11:02:37 GMT-0800 (Pacific Standard Time)","Thu Jan 30 2020 11:08:19 GMT-0800 (Pacific Standard Time)","Mozilla/5.0 (Windows NT 6.2; Win64; x64) AppleWebKit/537.36 (KHTML, like Gecko) Chrome/75.0.3770.100 Safari/537.36",30,"[0.9, 0.5, 0.1]","[0.8, 0.4, 0.2]","[u'blue', u'red', u'black']","[u'left', u'middle', u'right']","[0.9, 0.5, 0.1]","[u'high', u'low', u'medium']","black",51,"right","medium","False","False",281,900,NA
"A2CK0OXMPOR9LE","Thu Jan 30 2020 11:02:37 GMT-0800 (Pacific Standard Time)","Thu Jan 30 2020 11:08:19 GMT-0800 (Pacific Standard Time)","Mozilla/5.0 (Windows NT 6.2; Win64; x64) AppleWebKit/537.36 (KHTML, like Gecko) Chrome/75.0.3770.100 Safari/537.36",31,"[0.9, 0.5, 0.1]","[0.8, 0.4, 0.2]","[u'blue', u'red', u'black']","[u'left', u'middle', u'right']","[0.9, 0.5, 0.1]","[u'high', u'low', u'medium']","black",51,"right","medium","False","False",267,850,NA
"A2CK0OXMPOR9LE","Thu Jan 30 2020 11:02:37 GMT-0800 (Pacific Standard Time)","Thu Jan 30 2020 11:08:19 GMT-0800 (Pacific Standard Time)","Mozilla/5.0 (Windows NT 6.2; Win64; x64) AppleWebKit/537.36 (KHTML, like Gecko) Chrome/75.0.3770.100 Safari/537.36",32,"[0.9, 0.5, 0.1]","[0.8, 0.4, 0.2]","[u'blue', u'red', u'black']","[u'left', u'middle', u'right']","[0.9, 0.5, 0.1]","[u'high', u'low', u'medium']","blue",49,"left","high","True","False",278,950,NA
"A2CK0OXMPOR9LE","Thu Jan 30 2020 11:02:37 GMT-0800 (Pacific Standard Time)","Thu Jan 30 2020 11:08:19 GMT-0800 (Pacific Standard Time)","Mozilla/5.0 (Windows NT 6.2; Win64; x64) AppleWebKit/537.36 (KHTML, like Gecko) Chrome/75.0.3770.100 Safari/537.36",33,"[0.9, 0.5, 0.1]","[0.8, 0.4, 0.2]","[u'blue', u'red', u'black']","[u'left', u'middle', u'right']","[0.9, 0.5, 0.1]","[u'high', u'low', u'medium']","blue",49,"left","high","True","False",209,1050,NA
"A2CK0OXMPOR9LE","Thu Jan 30 2020 11:02:37 GMT-0800 (Pacific Standard Time)","Thu Jan 30 2020 11:08:19 GMT-0800 (Pacific Standard Time)","Mozilla/5.0 (Windows NT 6.2; Win64; x64) AppleWebKit/537.36 (KHTML, like Gecko) Chrome/75.0.3770.100 Safari/537.36",34,"[0.9, 0.5, 0.1]","[0.8, 0.4, 0.2]","[u'blue', u'red', u'black']","[u'left', u'middle', u'right']","[0.9, 0.5, 0.1]","[u'high', u'low', u'medium']","blue",49,"left","high","True","False",270,1150,NA
"A2CK0OXMPOR9LE","Thu Jan 30 2020 11:02:37 GMT-0800 (Pacific Standard Time)","Thu Jan 30 2020 11:08:19 GMT-0800 (Pacific Standard Time)","Mozilla/5.0 (Windows NT 6.2; Win64; x64) AppleWebKit/537.36 (KHTML, like Gecko) Chrome/75.0.3770.100 Safari/537.36",35,"[0.9, 0.5, 0.1]","[0.8, 0.4, 0.2]","[u'blue', u'red', u'black']","[u'left', u'middle', u'right']","[0.9, 0.5, 0.1]","[u'high', u'low', u'medium']","blue",49,"left","high","True","False",11,1250,NA
"A2CK0OXMPOR9LE","Thu Jan 30 2020 11:02:37 GMT-0800 (Pacific Standard Time)","Thu Jan 30 2020 11:08:19 GMT-0800 (Pacific Standard Time)","Mozilla/5.0 (Windows NT 6.2; Win64; x64) AppleWebKit/537.36 (KHTML, like Gecko) Chrome/75.0.3770.100 Safari/537.36",36,"[0.9, 0.5, 0.1]","[0.8, 0.4, 0.2]","[u'blue', u'red', u'black']","[u'left', u'middle', u'right']","[0.9, 0.5, 0.1]","[u'high', u'low', u'medium']","blue",49,"left","high","True","False",210,1350,NA
"A2CK0OXMPOR9LE","Thu Jan 30 2020 11:02:37 GMT-0800 (Pacific Standard Time)","Thu Jan 30 2020 11:08:19 GMT-0800 (Pacific Standard Time)","Mozilla/5.0 (Windows NT 6.2; Win64; x64) AppleWebKit/537.36 (KHTML, like Gecko) Chrome/75.0.3770.100 Safari/537.36",37,"[0.9, 0.5, 0.1]","[0.8, 0.4, 0.2]","[u'blue', u'red', u'black']","[u'left', u'middle', u'right']","[0.9, 0.5, 0.1]","[u'high', u'low', u'medium']","blue",49,"left","high","True","False",313,1450,NA
"A2CK0OXMPOR9LE","Thu Jan 30 2020 11:02:37 GMT-0800 (Pacific Standard Time)","Thu Jan 30 2020 11:08:19 GMT-0800 (Pacific Standard Time)","Mozilla/5.0 (Windows NT 6.2; Win64; x64) AppleWebKit/537.36 (KHTML, like Gecko) Chrome/75.0.3770.100 Safari/537.36",38,"[0.9, 0.5, 0.1]","[0.8, 0.4, 0.2]","[u'blue', u'red', u'black']","[u'left', u'middle', u'right']","[0.9, 0.5, 0.1]","[u'high', u'low', u'medium']","blue",49,"left","high","True","False",328,1550,NA
"A2CK0OXMPOR9LE","Thu Jan 30 2020 11:02:37 GMT-0800 (Pacific Standard Time)","Thu Jan 30 2020 11:08:19 GMT-0800 (Pacific Standard Time)","Mozilla/5.0 (Windows NT 6.2; Win64; x64) AppleWebKit/537.36 (KHTML, like Gecko) Chrome/75.0.3770.100 Safari/537.36",39,"[0.9, 0.5, 0.1]","[0.8, 0.4, 0.2]","[u'blue', u'red', u'black']","[u'left', u'middle', u'right']","[0.9, 0.5, 0.1]","[u'high', u'low', u'medium']","blue",49,"left","high","False","False",561,1500,NA
"A2CK0OXMPOR9LE","Thu Jan 30 2020 11:02:37 GMT-0800 (Pacific Standard Time)","Thu Jan 30 2020 11:08:19 GMT-0800 (Pacific Standard Time)","Mozilla/5.0 (Windows NT 6.2; Win64; x64) AppleWebKit/537.36 (KHTML, like Gecko) Chrome/75.0.3770.100 Safari/537.36",40,"[0.9, 0.5, 0.1]","[0.8, 0.4, 0.2]","[u'blue', u'red', u'black']","[u'left', u'middle', u'right']","[0.9, 0.5, 0.1]","[u'high', u'low', u'medium']","red",50,"middle","low","False","False",324,1450,NA
"A2CK0OXMPOR9LE","Thu Jan 30 2020 11:02:37 GMT-0800 (Pacific Standard Time)","Thu Jan 30 2020 11:08:19 GMT-0800 (Pacific Standard Time)","Mozilla/5.0 (Windows NT 6.2; Win64; x64) AppleWebKit/537.36 (KHTML, like Gecko) Chrome/75.0.3770.100 Safari/537.36",41,"[0.9, 0.5, 0.1]","[0.8, 0.4, 0.2]","[u'blue', u'red', u'black']","[u'left', u'middle', u'right']","[0.9, 0.5, 0.1]","[u'medium', u'high', u'low']","red",50,"middle","high","True","False",575,1550,NA
"A2CK0OXMPOR9LE","Thu Jan 30 2020 11:02:37 GMT-0800 (Pacific Standard Time)","Thu Jan 30 2020 11:08:19 GMT-0800 (Pacific Standard Time)","Mozilla/5.0 (Windows NT 6.2; Win64; x64) AppleWebKit/537.36 (KHTML, like Gecko) Chrome/75.0.3770.100 Safari/537.36",42,"[0.9, 0.5, 0.1]","[0.8, 0.4, 0.2]","[u'blue', u'red', u'black']","[u'left', u'middle', u'right']","[0.9, 0.5, 0.1]","[u'medium', u'high', u'low']","red",50,"middle","high","True","False",319,1650,NA
"A2CK0OXMPOR9LE","Thu Jan 30 2020 11:02:37 GMT-0800 (Pacific Standard Time)","Thu Jan 30 2020 11:08:19 GMT-0800 (Pacific Standard Time)","Mozilla/5.0 (Windows NT 6.2; Win64; x64) AppleWebKit/537.36 (KHTML, like Gecko) Chrome/75.0.3770.100 Safari/537.36",43,"[0.9, 0.5, 0.1]","[0.8, 0.4, 0.2]","[u'blue', u'red', u'black']","[u'left', u'middle', u'right']","[0.9, 0.5, 0.1]","[u'medium', u'high', u'low']","red",50,"middle","high","True","False",274,1750,NA
"A2CK0OXMPOR9LE","Thu Jan 30 2020 11:02:37 GMT-0800 (Pacific Standard Time)","Thu Jan 30 2020 11:08:19 GMT-0800 (Pacific Standard Time)","Mozilla/5.0 (Windows NT 6.2; Win64; x64) AppleWebKit/537.36 (KHTML, like Gecko) Chrome/75.0.3770.100 Safari/537.36",44,"[0.9, 0.5, 0.1]","[0.8, 0.4, 0.2]","[u'blue', u'red', u'black']","[u'left', u'middle', u'right']","[0.9, 0.5, 0.1]","[u'medium', u'high', u'low']","red",50,"middle","high","True","False",350,1850,NA
"A2CK0OXMPOR9LE","Thu Jan 30 2020 11:02:37 GMT-0800 (Pacific Standard Time)","Thu Jan 30 2020 11:08:19 GMT-0800 (Pacific Standard Time)","Mozilla/5.0 (Windows NT 6.2; Win64; x64) AppleWebKit/537.36 (KHTML, like Gecko) Chrome/75.0.3770.100 Safari/537.36",45,"[0.9, 0.5, 0.1]","[0.8, 0.4, 0.2]","[u'blue', u'red', u'black']","[u'left', u'middle', u'right']","[0.9, 0.5, 0.1]","[u'medium', u'high', u'low']","red",50,"middle","high","True","False",284,1950,NA
"A2CK0OXMPOR9LE","Thu Jan 30 2020 11:02:37 GMT-0800 (Pacific Standard Time)","Thu Jan 30 2020 11:08:19 GMT-0800 (Pacific Standard Time)","Mozilla/5.0 (Windows NT 6.2; Win64; x64) AppleWebKit/537.36 (KHTML, like Gecko) Chrome/75.0.3770.100 Safari/537.36",46,"[0.9, 0.5, 0.1]","[0.8, 0.4, 0.2]","[u'blue', u'red', u'black']","[u'left', u'middle', u'right']","[0.9, 0.5, 0.1]","[u'medium', u'high', u'low']","red",50,"middle","high","True","False",303,2050,NA
"A2CK0OXMPOR9LE","Thu Jan 30 2020 11:02:37 GMT-0800 (Pacific Standard Time)","Thu Jan 30 2020 11:08:19 GMT-0800 (Pacific Standard Time)","Mozilla/5.0 (Windows NT 6.2; Win64; x64) AppleWebKit/537.36 (KHTML, like Gecko) Chrome/75.0.3770.100 Safari/537.36",47,"[0.9, 0.5, 0.1]","[0.8, 0.4, 0.2]","[u'blue', u'red', u'black']","[u'left', u'middle', u'right']","[0.9, 0.5, 0.1]","[u'medium', u'high', u'low']","red",50,"middle","high","True","False",314,2150,NA
"A2CK0OXMPOR9LE","Thu Jan 30 2020 11:02:37 GMT-0800 (Pacific Standard Time)","Thu Jan 30 2020 11:08:19 GMT-0800 (Pacific Standard Time)","Mozilla/5.0 (Windows NT 6.2; Win64; x64) AppleWebKit/537.36 (KHTML, like Gecko) Chrome/75.0.3770.100 Safari/537.36",48,"[0.9, 0.5, 0.1]","[0.8, 0.4, 0.2]","[u'blue', u'red', u'black']","[u'left', u'middle', u'right']","[0.9, 0.5, 0.1]","[u'medium', u'high', u'low']","red",50,"middle","high","True","False",275,2250,NA
"A2CK0OXMPOR9LE","Thu Jan 30 2020 11:02:37 GMT-0800 (Pacific Standard Time)","Thu Jan 30 2020 11:08:19 GMT-0800 (Pacific Standard Time)","Mozilla/5.0 (Windows NT 6.2; Win64; x64) AppleWebKit/537.36 (KHTML, like Gecko) Chrome/75.0.3770.100 Safari/537.36",49,"[0.9, 0.5, 0.1]","[0.8, 0.4, 0.2]","[u'blue', u'red', u'black']","[u'left', u'middle', u'right']","[0.9, 0.5, 0.1]","[u'medium', u'high', u'low']","red",50,"middle","high","True","True",301,2350,NA
"A2CK0OXMPOR9LE","Thu Jan 30 2020 11:02:37 GMT-0800 (Pacific Standard Time)","Thu Jan 30 2020 11:08:19 GMT-0800 (Pacific Standard Time)","Mozilla/5.0 (Windows NT 6.2; Win64; x64) AppleWebKit/537.36 (KHTML, like Gecko) Chrome/75.0.3770.100 Safari/537.36",50,"[0.9, 0.5, 0.1]","[0.8, 0.4, 0.2]","[u'blue', u'red', u'black']","[u'left', u'middle', u'right']","[0.9, 0.5, 0.1]","[u'high', u'medium', u'low']","red",50,"middle","medium","True","False",277,2450,NA
"A2CK0OXMPOR9LE","Thu Jan 30 2020 11:02:37 GMT-0800 (Pacific Standard Time)","Thu Jan 30 2020 11:08:19 GMT-0800 (Pacific Standard Time)","Mozilla/5.0 (Windows NT 6.2; Win64; x64) AppleWebKit/537.36 (KHTML, like Gecko) Chrome/75.0.3770.100 Safari/537.36",51,"[0.9, 0.5, 0.1]","[0.8, 0.4, 0.2]","[u'blue', u'red', u'black']","[u'left', u'middle', u'right']","[0.9, 0.5, 0.1]","[u'high', u'medium', u'low']","red",50,"middle","medium","True","False",278,2550,NA
"A2CK0OXMPOR9LE","Thu Jan 30 2020 11:02:37 GMT-0800 (Pacific Standard Time)","Thu Jan 30 2020 11:08:19 GMT-0800 (Pacific Standard Time)","Mozilla/5.0 (Windows NT 6.2; Win64; x64) AppleWebKit/537.36 (KHTML, like Gecko) Chrome/75.0.3770.100 Safari/537.36",52,"[0.9, 0.5, 0.1]","[0.8, 0.4, 0.2]","[u'blue', u'red', u'black']","[u'left', u'middle', u'right']","[0.9, 0.5, 0.1]","[u'high', u'medium', u'low']","red",50,"middle","medium","True","False",314,2650,NA
"A2CK0OXMPOR9LE","Thu Jan 30 2020 11:02:37 GMT-0800 (Pacific Standard Time)","Thu Jan 30 2020 11:08:19 GMT-0800 (Pacific Standard Time)","Mozilla/5.0 (Windows NT 6.2; Win64; x64) AppleWebKit/537.36 (KHTML, like Gecko) Chrome/75.0.3770.100 Safari/537.36",53,"[0.9, 0.5, 0.1]","[0.8, 0.4, 0.2]","[u'blue', u'red', u'black']","[u'left', u'middle', u'right']","[0.9, 0.5, 0.1]","[u'high', u'medium', u'low']","red",50,"middle","medium","False","False",473,2600,NA
"A2CK0OXMPOR9LE","Thu Jan 30 2020 11:02:37 GMT-0800 (Pacific Standard Time)","Thu Jan 30 2020 11:08:19 GMT-0800 (Pacific Standard Time)","Mozilla/5.0 (Windows NT 6.2; Win64; x64) AppleWebKit/537.36 (KHTML, like Gecko) Chrome/75.0.3770.100 Safari/537.36",54,"[0.9, 0.5, 0.1]","[0.8, 0.4, 0.2]","[u'blue', u'red', u'black']","[u'left', u'middle', u'right']","[0.9, 0.5, 0.1]","[u'high', u'medium', u'low']","red",50,"middle","medium","True","False",372,2700,NA
"A2CK0OXMPOR9LE","Thu Jan 30 2020 11:02:37 GMT-0800 (Pacific Standard Time)","Thu Jan 30 2020 11:08:19 GMT-0800 (Pacific Standard Time)","Mozilla/5.0 (Windows NT 6.2; Win64; x64) AppleWebKit/537.36 (KHTML, like Gecko) Chrome/75.0.3770.100 Safari/537.36",55,"[0.9, 0.5, 0.1]","[0.8, 0.4, 0.2]","[u'blue', u'red', u'black']","[u'left', u'middle', u'right']","[0.9, 0.5, 0.1]","[u'high', u'medium', u'low']","red",50,"middle","medium","True","False",379,2800,NA
"A2CK0OXMPOR9LE","Thu Jan 30 2020 11:02:37 GMT-0800 (Pacific Standard Time)","Thu Jan 30 2020 11:08:19 GMT-0800 (Pacific Standard Time)","Mozilla/5.0 (Windows NT 6.2; Win64; x64) AppleWebKit/537.36 (KHTML, like Gecko) Chrome/75.0.3770.100 Safari/537.36",56,"[0.9, 0.5, 0.1]","[0.8, 0.4, 0.2]","[u'blue', u'red', u'black']","[u'left', u'middle', u'right']","[0.9, 0.5, 0.1]","[u'high', u'medium', u'low']","red",50,"middle","medium","True","False",193,2900,NA
"A2CK0OXMPOR9LE","Thu Jan 30 2020 11:02:37 GMT-0800 (Pacific Standard Time)","Thu Jan 30 2020 11:08:19 GMT-0800 (Pacific Standard Time)","Mozilla/5.0 (Windows NT 6.2; Win64; x64) AppleWebKit/537.36 (KHTML, like Gecko) Chrome/75.0.3770.100 Safari/537.36",57,"[0.9, 0.5, 0.1]","[0.8, 0.4, 0.2]","[u'blue', u'red', u'black']","[u'left', u'middle', u'right']","[0.9, 0.5, 0.1]","[u'high', u'medium', u'low']","red",50,"middle","medium","True","False",415,3000,NA
"A2CK0OXMPOR9LE","Thu Jan 30 2020 11:02:37 GMT-0800 (Pacific Standard Time)","Thu Jan 30 2020 11:08:19 GMT-0800 (Pacific Standard Time)","Mozilla/5.0 (Windows NT 6.2; Win64; x64) AppleWebKit/537.36 (KHTML, like Gecko) Chrome/75.0.3770.100 Safari/537.36",58,"[0.9, 0.5, 0.1]","[0.8, 0.4, 0.2]","[u'blue', u'red', u'black']","[u'left', u'middle', u'right']","[0.9, 0.5, 0.1]","[u'high', u'medium', u'low']","red",50,"middle","medium","False","False",1238,2950,NA
"A2CK0OXMPOR9LE","Thu Jan 30 2020 11:02:37 GMT-0800 (Pacific Standard Time)","Thu Jan 30 2020 11:08:19 GMT-0800 (Pacific Standard Time)","Mozilla/5.0 (Windows NT 6.2; Win64; x64) AppleWebKit/537.36 (KHTML, like Gecko) Chrome/75.0.3770.100 Safari/537.36",59,"[0.9, 0.5, 0.1]","[0.8, 0.4, 0.2]","[u'blue', u'red', u'black']","[u'left', u'middle', u'right']","[0.9, 0.5, 0.1]","[u'high', u'medium', u'low']","red",50,"middle","medium","True","False",386,3050,NA
"A2CK0OXMPOR9LE","Thu Jan 30 2020 11:02:37 GMT-0800 (Pacific Standard Time)","Thu Jan 30 2020 11:08:19 GMT-0800 (Pacific Standard Time)","Mozilla/5.0 (Windows NT 6.2; Win64; x64) AppleWebKit/537.36 (KHTML, like Gecko) Chrome/75.0.3770.100 Safari/537.36",60,"[0.9, 0.5, 0.1]","[0.8, 0.4, 0.2]","[u'blue', u'red', u'black']","[u'left', u'middle', u'right']","[0.9, 0.5, 0.1]","[u'high', u'medium', u'low']","red",50,"middle","medium","True","False",357,3150,NA
"A2CK0OXMPOR9LE","Thu Jan 30 2020 11:02:37 GMT-0800 (Pacific Standard Time)","Thu Jan 30 2020 11:08:19 GMT-0800 (Pacific Standard Time)","Mozilla/5.0 (Windows NT 6.2; Win64; x64) AppleWebKit/537.36 (KHTML, like Gecko) Chrome/75.0.3770.100 Safari/537.36",61,"[0.9, 0.5, 0.1]","[0.8, 0.4, 0.2]","[u'blue', u'red', u'black']","[u'left', u'middle', u'right']","[0.9, 0.5, 0.1]","[u'high', u'medium', u'low']","red",50,"middle","medium","True","False",295,3250,NA
"A2CK0OXMPOR9LE","Thu Jan 30 2020 11:02:37 GMT-0800 (Pacific Standard Time)","Thu Jan 30 2020 11:08:19 GMT-0800 (Pacific Standard Time)","Mozilla/5.0 (Windows NT 6.2; Win64; x64) AppleWebKit/537.36 (KHTML, like Gecko) Chrome/75.0.3770.100 Safari/537.36",62,"[0.9, 0.5, 0.1]","[0.8, 0.4, 0.2]","[u'blue', u'red', u'black']","[u'left', u'middle', u'right']","[0.9, 0.5, 0.1]","[u'high', u'medium', u'low']","red",50,"middle","medium","False","False",337,3200,NA
"A2CK0OXMPOR9LE","Thu Jan 30 2020 11:02:37 GMT-0800 (Pacific Standard Time)","Thu Jan 30 2020 11:08:19 GMT-0800 (Pacific Standard Time)","Mozilla/5.0 (Windows NT 6.2; Win64; x64) AppleWebKit/537.36 (KHTML, like Gecko) Chrome/75.0.3770.100 Safari/537.36",63,"[0.9, 0.5, 0.1]","[0.8, 0.4, 0.2]","[u'blue', u'red', u'black']","[u'left', u'middle', u'right']","[0.9, 0.5, 0.1]","[u'high', u'medium', u'low']","red",50,"middle","medium","True","False",412,3300,NA
"A2CK0OXMPOR9LE","Thu Jan 30 2020 11:02:37 GMT-0800 (Pacific Standard Time)","Thu Jan 30 2020 11:08:19 GMT-0800 (Pacific Standard Time)","Mozilla/5.0 (Windows NT 6.2; Win64; x64) AppleWebKit/537.36 (KHTML, like Gecko) Chrome/75.0.3770.100 Safari/537.36",64,"[0.9, 0.5, 0.1]","[0.8, 0.4, 0.2]","[u'blue', u'red', u'black']","[u'left', u'middle', u'right']","[0.9, 0.5, 0.1]","[u'high', u'medium', u'low']","red",50,"middle","medium","True","False",283,3400,NA
"A2CK0OXMPOR9LE","Thu Jan 30 2020 11:02:37 GMT-0800 (Pacific Standard Time)","Thu Jan 30 2020 11:08:19 GMT-0800 (Pacific Standard Time)","Mozilla/5.0 (Windows NT 6.2; Win64; x64) AppleWebKit/537.36 (KHTML, like Gecko) Chrome/75.0.3770.100 Safari/537.36",65,"[0.9, 0.5, 0.1]","[0.8, 0.4, 0.2]","[u'blue', u'red', u'black']","[u'left', u'middle', u'right']","[0.9, 0.5, 0.1]","[u'high', u'medium', u'low']","red",50,"middle","medium","True","False",263,3500,NA
"A2CK0OXMPOR9LE","Thu Jan 30 2020 11:02:37 GMT-0800 (Pacific Standard Time)","Thu Jan 30 2020 11:08:19 GMT-0800 (Pacific Standard Time)","Mozilla/5.0 (Windows NT 6.2; Win64; x64) AppleWebKit/537.36 (KHTML, like Gecko) Chrome/75.0.3770.100 Safari/537.36",66,"[0.9, 0.5, 0.1]","[0.8, 0.4, 0.2]","[u'blue', u'red', u'black']","[u'left', u'middle', u'right']","[0.9, 0.5, 0.1]","[u'high', u'medium', u'low']","red",50,"middle","medium","True","False",538,3600,NA
"A2CK0OXMPOR9LE","Thu Jan 30 2020 11:02:37 GMT-0800 (Pacific Standard Time)","Thu Jan 30 2020 11:08:19 GMT-0800 (Pacific Standard Time)","Mozilla/5.0 (Windows NT 6.2; Win64; x64) AppleWebKit/537.36 (KHTML, like Gecko) Chrome/75.0.3770.100 Safari/537.36",67,"[0.9, 0.5, 0.1]","[0.8, 0.4, 0.2]","[u'blue', u'red', u'black']","[u'left', u'middle', u'right']","[0.9, 0.5, 0.1]","[u'high', u'medium', u'low']","red",50,"middle","medium","True","False",357,3700,NA
"A2CK0OXMPOR9LE","Thu Jan 30 2020 11:02:37 GMT-0800 (Pacific Standard Time)","Thu Jan 30 2020 11:08:19 GMT-0800 (Pacific Standard Time)","Mozilla/5.0 (Windows NT 6.2; Win64; x64) AppleWebKit/537.36 (KHTML, like Gecko) Chrome/75.0.3770.100 Safari/537.36",68,"[0.9, 0.5, 0.1]","[0.8, 0.4, 0.2]","[u'blue', u'red', u'black']","[u'left', u'middle', u'right']","[0.9, 0.5, 0.1]","[u'high', u'medium', u'low']","red",50,"middle","medium","False","False",568,3650,NA
"A2CK0OXMPOR9LE","Thu Jan 30 2020 11:02:37 GMT-0800 (Pacific Standard Time)","Thu Jan 30 2020 11:08:19 GMT-0800 (Pacific Standard Time)","Mozilla/5.0 (Windows NT 6.2; Win64; x64) AppleWebKit/537.36 (KHTML, like Gecko) Chrome/75.0.3770.100 Safari/537.36",69,"[0.9, 0.5, 0.1]","[0.8, 0.4, 0.2]","[u'blue', u'red', u'black']","[u'left', u'middle', u'right']","[0.9, 0.5, 0.1]","[u'high', u'medium', u'low']","red",50,"middle","medium","False","False",253,3600,NA
"A2CK0OXMPOR9LE","Thu Jan 30 2020 11:02:37 GMT-0800 (Pacific Standard Time)","Thu Jan 30 2020 11:08:19 GMT-0800 (Pacific Standard Time)","Mozilla/5.0 (Windows NT 6.2; Win64; x64) AppleWebKit/537.36 (KHTML, like Gecko) Chrome/75.0.3770.100 Safari/537.36",70,"[0.9, 0.5, 0.1]","[0.8, 0.4, 0.2]","[u'blue', u'red', u'black']","[u'left', u'middle', u'right']","[0.9, 0.5, 0.1]","[u'high', u'medium', u'low']","red",50,"middle","medium","False","False",335,3550,NA
"A2CK0OXMPOR9LE","Thu Jan 30 2020 11:02:37 GMT-0800 (Pacific Standard Time)","Thu Jan 30 2020 11:08:19 GMT-0800 (Pacific Standard Time)","Mozilla/5.0 (Windows NT 6.2; Win64; x64) AppleWebKit/537.36 (KHTML, like Gecko) Chrome/75.0.3770.100 Safari/537.36",71,"[0.9, 0.5, 0.1]","[0.8, 0.4, 0.2]","[u'blue', u'red', u'black']","[u'left', u'middle', u'right']","[0.9, 0.5, 0.1]","[u'high', u'medium', u'low']","black",51,"right","low","False","False",252,3500,NA
"A2CK0OXMPOR9LE","Thu Jan 30 2020 11:02:37 GMT-0800 (Pacific Standard Time)","Thu Jan 30 2020 11:08:19 GMT-0800 (Pacific Standard Time)","Mozilla/5.0 (Windows NT 6.2; Win64; x64) AppleWebKit/537.36 (KHTML, like Gecko) Chrome/75.0.3770.100 Safari/537.36",72,"[0.9, 0.5, 0.1]","[0.8, 0.4, 0.2]","[u'blue', u'red', u'black']","[u'left', u'middle', u'right']","[0.9, 0.5, 0.1]","[u'high', u'medium', u'low']","black",51,"right","low","False","False",213,3450,NA
"A2CK0OXMPOR9LE","Thu Jan 30 2020 11:02:37 GMT-0800 (Pacific Standard Time)","Thu Jan 30 2020 11:08:19 GMT-0800 (Pacific Standard Time)","Mozilla/5.0 (Windows NT 6.2; Win64; x64) AppleWebKit/537.36 (KHTML, like Gecko) Chrome/75.0.3770.100 Safari/537.36",73,"[0.9, 0.5, 0.1]","[0.8, 0.4, 0.2]","[u'blue', u'red', u'black']","[u'left', u'middle', u'right']","[0.9, 0.5, 0.1]","[u'high', u'medium', u'low']","black",51,"right","low","False","False",454,3400,NA
"A2CK0OXMPOR9LE","Thu Jan 30 2020 11:02:37 GMT-0800 (Pacific Standard Time)","Thu Jan 30 2020 11:08:19 GMT-0800 (Pacific Standard Time)","Mozilla/5.0 (Windows NT 6.2; Win64; x64) AppleWebKit/537.36 (KHTML, like Gecko) Chrome/75.0.3770.100 Safari/537.36",74,"[0.9, 0.5, 0.1]","[0.8, 0.4, 0.2]","[u'blue', u'red', u'black']","[u'left', u'middle', u'right']","[0.9, 0.5, 0.1]","[u'high', u'medium', u'low']","black",51,"right","low","False","False",218,3350,NA
"A2CK0OXMPOR9LE","Thu Jan 30 2020 11:02:37 GMT-0800 (Pacific Standard Time)","Thu Jan 30 2020 11:08:19 GMT-0800 (Pacific Standard Time)","Mozilla/5.0 (Windows NT 6.2; Win64; x64) AppleWebKit/537.36 (KHTML, like Gecko) Chrome/75.0.3770.100 Safari/537.36",75,"[0.9, 0.5, 0.1]","[0.8, 0.4, 0.2]","[u'blue', u'red', u'black']","[u'left', u'middle', u'right']","[0.9, 0.5, 0.1]","[u'high', u'medium', u'low']","black",51,"right","low","False","False",267,3300,NA
"A2CK0OXMPOR9LE","Thu Jan 30 2020 11:02:37 GMT-0800 (Pacific Standard Time)","Thu Jan 30 2020 11:08:19 GMT-0800 (Pacific Standard Time)","Mozilla/5.0 (Windows NT 6.2; Win64; x64) AppleWebKit/537.36 (KHTML, like Gecko) Chrome/75.0.3770.100 Safari/537.36",76,"[0.9, 0.5, 0.1]","[0.8, 0.4, 0.2]","[u'blue', u'red', u'black']","[u'left', u'middle', u'right']","[0.9, 0.5, 0.1]","[u'high', u'medium', u'low']","blue",49,"left","high","True","False",271,3400,NA
"A2CK0OXMPOR9LE","Thu Jan 30 2020 11:02:37 GMT-0800 (Pacific Standard Time)","Thu Jan 30 2020 11:08:19 GMT-0800 (Pacific Standard Time)","Mozilla/5.0 (Windows NT 6.2; Win64; x64) AppleWebKit/537.36 (KHTML, like Gecko) Chrome/75.0.3770.100 Safari/537.36",77,"[0.9, 0.5, 0.1]","[0.8, 0.4, 0.2]","[u'blue', u'red', u'black']","[u'left', u'middle', u'right']","[0.9, 0.5, 0.1]","[u'high', u'medium', u'low']","blue",49,"left","high","True","False",456,3500,NA
"A2CK0OXMPOR9LE","Thu Jan 30 2020 11:02:37 GMT-0800 (Pacific Standard Time)","Thu Jan 30 2020 11:08:19 GMT-0800 (Pacific Standard Time)","Mozilla/5.0 (Windows NT 6.2; Win64; x64) AppleWebKit/537.36 (KHTML, like Gecko) Chrome/75.0.3770.100 Safari/537.36",78,"[0.9, 0.5, 0.1]","[0.8, 0.4, 0.2]","[u'blue', u'red', u'black']","[u'left', u'middle', u'right']","[0.9, 0.5, 0.1]","[u'high', u'medium', u'low']","blue",49,"left","high","True","False",304,3600,NA
"A2CK0OXMPOR9LE","Thu Jan 30 2020 11:02:37 GMT-0800 (Pacific Standard Time)","Thu Jan 30 2020 11:08:19 GMT-0800 (Pacific Standard Time)","Mozilla/5.0 (Windows NT 6.2; Win64; x64) AppleWebKit/537.36 (KHTML, like Gecko) Chrome/75.0.3770.100 Safari/537.36",79,"[0.9, 0.5, 0.1]","[0.8, 0.4, 0.2]","[u'blue', u'red', u'black']","[u'left', u'middle', u'right']","[0.9, 0.5, 0.1]","[u'high', u'medium', u'low']","blue",49,"left","high","True","False",346,3700,NA
"A2CK0OXMPOR9LE","Thu Jan 30 2020 11:02:37 GMT-0800 (Pacific Standard Time)","Thu Jan 30 2020 11:08:19 GMT-0800 (Pacific Standard Time)","Mozilla/5.0 (Windows NT 6.2; Win64; x64) AppleWebKit/537.36 (KHTML, like Gecko) Chrome/75.0.3770.100 Safari/537.36",80,"[0.9, 0.5, 0.1]","[0.8, 0.4, 0.2]","[u'blue', u'red', u'black']","[u'left', u'middle', u'right']","[0.9, 0.5, 0.1]","[u'high', u'medium', u'low']","blue",49,"left","high","True","False",438,3800,NA
"A2CK0OXMPOR9LE","Thu Jan 30 2020 11:02:37 GMT-0800 (Pacific Standard Time)","Thu Jan 30 2020 11:08:19 GMT-0800 (Pacific Standard Time)","Mozilla/5.0 (Windows NT 6.2; Win64; x64) AppleWebKit/537.36 (KHTML, like Gecko) Chrome/75.0.3770.100 Safari/537.36",81,"[0.9, 0.5, 0.1]","[0.8, 0.4, 0.2]","[u'blue', u'red', u'black']","[u'left', u'middle', u'right']","[0.8, 0.4, 0.2]","[u'low', u'high', u'medium']","blue",49,"left","low","False","False",381,3750,NA
"A2CK0OXMPOR9LE","Thu Jan 30 2020 11:02:37 GMT-0800 (Pacific Standard Time)","Thu Jan 30 2020 11:08:19 GMT-0800 (Pacific Standard Time)","Mozilla/5.0 (Windows NT 6.2; Win64; x64) AppleWebKit/537.36 (KHTML, like Gecko) Chrome/75.0.3770.100 Safari/537.36",82,"[0.9, 0.5, 0.1]","[0.8, 0.4, 0.2]","[u'blue', u'red', u'black']","[u'left', u'middle', u'right']","[0.8, 0.4, 0.2]","[u'low', u'high', u'medium']","blue",49,"left","low","False","False",328,3700,NA
"A2CK0OXMPOR9LE","Thu Jan 30 2020 11:02:37 GMT-0800 (Pacific Standard Time)","Thu Jan 30 2020 11:08:19 GMT-0800 (Pacific Standard Time)","Mozilla/5.0 (Windows NT 6.2; Win64; x64) AppleWebKit/537.36 (KHTML, like Gecko) Chrome/75.0.3770.100 Safari/537.36",83,"[0.9, 0.5, 0.1]","[0.8, 0.4, 0.2]","[u'blue', u'red', u'black']","[u'left', u'middle', u'right']","[0.8, 0.4, 0.2]","[u'low', u'high', u'medium']","blue",49,"left","low","False","False",377,3650,NA
"A2CK0OXMPOR9LE","Thu Jan 30 2020 11:02:37 GMT-0800 (Pacific Standard Time)","Thu Jan 30 2020 11:08:19 GMT-0800 (Pacific Standard Time)","Mozilla/5.0 (Windows NT 6.2; Win64; x64) AppleWebKit/537.36 (KHTML, like Gecko) Chrome/75.0.3770.100 Safari/537.36",84,"[0.9, 0.5, 0.1]","[0.8, 0.4, 0.2]","[u'blue', u'red', u'black']","[u'left', u'middle', u'right']","[0.8, 0.4, 0.2]","[u'low', u'high', u'medium']","blue",49,"left","low","False","False",292,3600,NA
"A2CK0OXMPOR9LE","Thu Jan 30 2020 11:02:37 GMT-0800 (Pacific Standard Time)","Thu Jan 30 2020 11:08:19 GMT-0800 (Pacific Standard Time)","Mozilla/5.0 (Windows NT 6.2; Win64; x64) AppleWebKit/537.36 (KHTML, like Gecko) Chrome/75.0.3770.100 Safari/537.36",85,"[0.9, 0.5, 0.1]","[0.8, 0.4, 0.2]","[u'blue', u'red', u'black']","[u'left', u'middle', u'right']","[0.8, 0.4, 0.2]","[u'low', u'high', u'medium']","red",50,"middle","high","True","False",290,3700,NA
"A2CK0OXMPOR9LE","Thu Jan 30 2020 11:02:37 GMT-0800 (Pacific Standard Time)","Thu Jan 30 2020 11:08:19 GMT-0800 (Pacific Standard Time)","Mozilla/5.0 (Windows NT 6.2; Win64; x64) AppleWebKit/537.36 (KHTML, like Gecko) Chrome/75.0.3770.100 Safari/537.36",86,"[0.9, 0.5, 0.1]","[0.8, 0.4, 0.2]","[u'blue', u'red', u'black']","[u'left', u'middle', u'right']","[0.8, 0.4, 0.2]","[u'low', u'high', u'medium']","red",50,"middle","high","True","False",373,3800,NA
"A2CK0OXMPOR9LE","Thu Jan 30 2020 11:02:37 GMT-0800 (Pacific Standard Time)","Thu Jan 30 2020 11:08:19 GMT-0800 (Pacific Standard Time)","Mozilla/5.0 (Windows NT 6.2; Win64; x64) AppleWebKit/537.36 (KHTML, like Gecko) Chrome/75.0.3770.100 Safari/537.36",87,"[0.9, 0.5, 0.1]","[0.8, 0.4, 0.2]","[u'blue', u'red', u'black']","[u'left', u'middle', u'right']","[0.8, 0.4, 0.2]","[u'low', u'high', u'medium']","red",50,"middle","high","True","False",456,3900,NA
"A2CK0OXMPOR9LE","Thu Jan 30 2020 11:02:37 GMT-0800 (Pacific Standard Time)","Thu Jan 30 2020 11:08:19 GMT-0800 (Pacific Standard Time)","Mozilla/5.0 (Windows NT 6.2; Win64; x64) AppleWebKit/537.36 (KHTML, like Gecko) Chrome/75.0.3770.100 Safari/537.36",88,"[0.9, 0.5, 0.1]","[0.8, 0.4, 0.2]","[u'blue', u'red', u'black']","[u'left', u'middle', u'right']","[0.8, 0.4, 0.2]","[u'low', u'high', u'medium']","red",50,"middle","high","True","False",409,4000,NA
"A2CK0OXMPOR9LE","Thu Jan 30 2020 11:02:37 GMT-0800 (Pacific Standard Time)","Thu Jan 30 2020 11:08:19 GMT-0800 (Pacific Standard Time)","Mozilla/5.0 (Windows NT 6.2; Win64; x64) AppleWebKit/537.36 (KHTML, like Gecko) Chrome/75.0.3770.100 Safari/537.36",89,"[0.9, 0.5, 0.1]","[0.8, 0.4, 0.2]","[u'blue', u'red', u'black']","[u'left', u'middle', u'right']","[0.8, 0.4, 0.2]","[u'low', u'high', u'medium']","red",50,"middle","high","True","False",294,4100,NA
"A2CK0OXMPOR9LE","Thu Jan 30 2020 11:02:37 GMT-0800 (Pacific Standard Time)","Thu Jan 30 2020 11:08:19 GMT-0800 (Pacific Standard Time)","Mozilla/5.0 (Windows NT 6.2; Win64; x64) AppleWebKit/537.36 (KHTML, like Gecko) Chrome/75.0.3770.100 Safari/537.36",90,"[0.9, 0.5, 0.1]","[0.8, 0.4, 0.2]","[u'blue', u'red', u'black']","[u'left', u'middle', u'right']","[0.8, 0.4, 0.2]","[u'low', u'high', u'medium']","red",50,"middle","high","True","False",258,4200,NA
"A2CK0OXMPOR9LE","Thu Jan 30 2020 11:02:37 GMT-0800 (Pacific Standard Time)","Thu Jan 30 2020 11:08:19 GMT-0800 (Pacific Standard Time)","Mozilla/5.0 (Windows NT 6.2; Win64; x64) AppleWebKit/537.36 (KHTML, like Gecko) Chrome/75.0.3770.100 Safari/537.36",91,"[0.9, 0.5, 0.1]","[0.8, 0.4, 0.2]","[u'blue', u'red', u'black']","[u'left', u'middle', u'right']","[0.8, 0.4, 0.2]","[u'low', u'high', u'medium']","red",50,"middle","high","False","False",343,4150,NA
"A2CK0OXMPOR9LE","Thu Jan 30 2020 11:02:37 GMT-0800 (Pacific Standard Time)","Thu Jan 30 2020 11:08:19 GMT-0800 (Pacific Standard Time)","Mozilla/5.0 (Windows NT 6.2; Win64; x64) AppleWebKit/537.36 (KHTML, like Gecko) Chrome/75.0.3770.100 Safari/537.36",92,"[0.9, 0.5, 0.1]","[0.8, 0.4, 0.2]","[u'blue', u'red', u'black']","[u'left', u'middle', u'right']","[0.8, 0.4, 0.2]","[u'low', u'high', u'medium']","red",50,"middle","high","False","False",412,4100,NA
"A2CK0OXMPOR9LE","Thu Jan 30 2020 11:02:37 GMT-0800 (Pacific Standard Time)","Thu Jan 30 2020 11:08:19 GMT-0800 (Pacific Standard Time)","Mozilla/5.0 (Windows NT 6.2; Win64; x64) AppleWebKit/537.36 (KHTML, like Gecko) Chrome/75.0.3770.100 Safari/537.36",93,"[0.9, 0.5, 0.1]","[0.8, 0.4, 0.2]","[u'blue', u'red', u'black']","[u'left', u'middle', u'right']","[0.8, 0.4, 0.2]","[u'low', u'high', u'medium']","red",50,"middle","high","True","True",621,4200,NA
"A2CK0OXMPOR9LE","Thu Jan 30 2020 11:02:37 GMT-0800 (Pacific Standard Time)","Thu Jan 30 2020 11:08:19 GMT-0800 (Pacific Standard Time)","Mozilla/5.0 (Windows NT 6.2; Win64; x64) AppleWebKit/537.36 (KHTML, like Gecko) Chrome/75.0.3770.100 Safari/537.36",94,"[0.9, 0.5, 0.1]","[0.8, 0.4, 0.2]","[u'blue', u'red', u'black']","[u'left', u'middle', u'right']","[0.8, 0.4, 0.2]","[u'medium', u'low', u'high']","red",50,"middle","low","True","False",296,4300,NA
"A2CK0OXMPOR9LE","Thu Jan 30 2020 11:02:37 GMT-0800 (Pacific Standard Time)","Thu Jan 30 2020 11:08:19 GMT-0800 (Pacific Standard Time)","Mozilla/5.0 (Windows NT 6.2; Win64; x64) AppleWebKit/537.36 (KHTML, like Gecko) Chrome/75.0.3770.100 Safari/537.36",95,"[0.9, 0.5, 0.1]","[0.8, 0.4, 0.2]","[u'blue', u'red', u'black']","[u'left', u'middle', u'right']","[0.8, 0.4, 0.2]","[u'medium', u'low', u'high']","red",50,"middle","low","False","False",236,4250,NA
"A2CK0OXMPOR9LE","Thu Jan 30 2020 11:02:37 GMT-0800 (Pacific Standard Time)","Thu Jan 30 2020 11:08:19 GMT-0800 (Pacific Standard Time)","Mozilla/5.0 (Windows NT 6.2; Win64; x64) AppleWebKit/537.36 (KHTML, like Gecko) Chrome/75.0.3770.100 Safari/537.36",96,"[0.9, 0.5, 0.1]","[0.8, 0.4, 0.2]","[u'blue', u'red', u'black']","[u'left', u'middle', u'right']","[0.8, 0.4, 0.2]","[u'medium', u'low', u'high']","red",50,"middle","low","False","False",351,4200,NA
"A2CK0OXMPOR9LE","Thu Jan 30 2020 11:02:37 GMT-0800 (Pacific Standard Time)","Thu Jan 30 2020 11:08:19 GMT-0800 (Pacific Standard Time)","Mozilla/5.0 (Windows NT 6.2; Win64; x64) AppleWebKit/537.36 (KHTML, like Gecko) Chrome/75.0.3770.100 Safari/537.36",97,"[0.9, 0.5, 0.1]","[0.8, 0.4, 0.2]","[u'blue', u'red', u'black']","[u'left', u'middle', u'right']","[0.8, 0.4, 0.2]","[u'medium', u'low', u'high']","red",50,"middle","low","False","False",260,4150,NA
"A2CK0OXMPOR9LE","Thu Jan 30 2020 11:02:37 GMT-0800 (Pacific Standard Time)","Thu Jan 30 2020 11:08:19 GMT-0800 (Pacific Standard Time)","Mozilla/5.0 (Windows NT 6.2; Win64; x64) AppleWebKit/537.36 (KHTML, like Gecko) Chrome/75.0.3770.100 Safari/537.36",98,"[0.9, 0.5, 0.1]","[0.8, 0.4, 0.2]","[u'blue', u'red', u'black']","[u'left', u'middle', u'right']","[0.8, 0.4, 0.2]","[u'medium', u'low', u'high']","red",50,"middle","low","True","False",292,4250,NA
"A2CK0OXMPOR9LE","Thu Jan 30 2020 11:02:37 GMT-0800 (Pacific Standard Time)","Thu Jan 30 2020 11:08:19 GMT-0800 (Pacific Standard Time)","Mozilla/5.0 (Windows NT 6.2; Win64; x64) AppleWebKit/537.36 (KHTML, like Gecko) Chrome/75.0.3770.100 Safari/537.36",99,"[0.9, 0.5, 0.1]","[0.8, 0.4, 0.2]","[u'blue', u'red', u'black']","[u'left', u'middle', u'right']","[0.8, 0.4, 0.2]","[u'medium', u'low', u'high']","red",50,"middle","low","False","False",459,4200,NA
"A2CK0OXMPOR9LE","Thu Jan 30 2020 11:02:37 GMT-0800 (Pacific Standard Time)","Thu Jan 30 2020 11:08:19 GMT-0800 (Pacific Standard Time)","Mozilla/5.0 (Windows NT 6.2; Win64; x64) AppleWebKit/537.36 (KHTML, like Gecko) Chrome/75.0.3770.100 Safari/537.36",100,"[0.9, 0.5, 0.1]","[0.8, 0.4, 0.2]","[u'blue', u'red', u'black']","[u'left', u'middle', u'right']","[0.8, 0.4, 0.2]","[u'medium', u'low', u'high']","black",51,"right","high","True","False",290,4300,NA
"A2CK0OXMPOR9LE","Thu Jan 30 2020 11:02:37 GMT-0800 (Pacific Standard Time)","Thu Jan 30 2020 11:08:19 GMT-0800 (Pacific Standard Time)","Mozilla/5.0 (Windows NT 6.2; Win64; x64) AppleWebKit/537.36 (KHTML, like Gecko) Chrome/75.0.3770.100 Safari/537.36",101,"[0.9, 0.5, 0.1]","[0.8, 0.4, 0.2]","[u'blue', u'red', u'black']","[u'left', u'middle', u'right']","[0.8, 0.4, 0.2]","[u'medium', u'low', u'high']","black",51,"right","high","False","False",291,4250,NA
"A2CK0OXMPOR9LE","Thu Jan 30 2020 11:02:37 GMT-0800 (Pacific Standard Time)","Thu Jan 30 2020 11:08:19 GMT-0800 (Pacific Standard Time)","Mozilla/5.0 (Windows NT 6.2; Win64; x64) AppleWebKit/537.36 (KHTML, like Gecko) Chrome/75.0.3770.100 Safari/537.36",102,"[0.9, 0.5, 0.1]","[0.8, 0.4, 0.2]","[u'blue', u'red', u'black']","[u'left', u'middle', u'right']","[0.8, 0.4, 0.2]","[u'medium', u'low', u'high']","black",51,"right","high","True","False",262,4350,NA
"A2CK0OXMPOR9LE","Thu Jan 30 2020 11:02:37 GMT-0800 (Pacific Standard Time)","Thu Jan 30 2020 11:08:19 GMT-0800 (Pacific Standard Time)","Mozilla/5.0 (Windows NT 6.2; Win64; x64) AppleWebKit/537.36 (KHTML, like Gecko) Chrome/75.0.3770.100 Safari/537.36",103,"[0.9, 0.5, 0.1]","[0.8, 0.4, 0.2]","[u'blue', u'red', u'black']","[u'left', u'middle', u'right']","[0.8, 0.4, 0.2]","[u'medium', u'low', u'high']","black",51,"right","high","True","False",250,4450,NA
"A2CK0OXMPOR9LE","Thu Jan 30 2020 11:02:37 GMT-0800 (Pacific Standard Time)","Thu Jan 30 2020 11:08:19 GMT-0800 (Pacific Standard Time)","Mozilla/5.0 (Windows NT 6.2; Win64; x64) AppleWebKit/537.36 (KHTML, like Gecko) Chrome/75.0.3770.100 Safari/537.36",104,"[0.9, 0.5, 0.1]","[0.8, 0.4, 0.2]","[u'blue', u'red', u'black']","[u'left', u'middle', u'right']","[0.8, 0.4, 0.2]","[u'medium', u'low', u'high']","black",51,"right","high","True","False",296,4550,NA
"A2CK0OXMPOR9LE","Thu Jan 30 2020 11:02:37 GMT-0800 (Pacific Standard Time)","Thu Jan 30 2020 11:08:19 GMT-0800 (Pacific Standard Time)","Mozilla/5.0 (Windows NT 6.2; Win64; x64) AppleWebKit/537.36 (KHTML, like Gecko) Chrome/75.0.3770.100 Safari/537.36",105,"[0.9, 0.5, 0.1]","[0.8, 0.4, 0.2]","[u'blue', u'red', u'black']","[u'left', u'middle', u'right']","[0.8, 0.4, 0.2]","[u'medium', u'low', u'high']","black",51,"right","high","True","False",275,4650,NA
"A2CK0OXMPOR9LE","Thu Jan 30 2020 11:02:37 GMT-0800 (Pacific Standard Time)","Thu Jan 30 2020 11:08:19 GMT-0800 (Pacific Standard Time)","Mozilla/5.0 (Windows NT 6.2; Win64; x64) AppleWebKit/537.36 (KHTML, like Gecko) Chrome/75.0.3770.100 Safari/537.36",106,"[0.9, 0.5, 0.1]","[0.8, 0.4, 0.2]","[u'blue', u'red', u'black']","[u'left', u'middle', u'right']","[0.8, 0.4, 0.2]","[u'medium', u'low', u'high']","black",51,"right","high","True","False",308,4750,NA
"A2CK0OXMPOR9LE","Thu Jan 30 2020 11:02:37 GMT-0800 (Pacific Standard Time)","Thu Jan 30 2020 11:08:19 GMT-0800 (Pacific Standard Time)","Mozilla/5.0 (Windows NT 6.2; Win64; x64) AppleWebKit/537.36 (KHTML, like Gecko) Chrome/75.0.3770.100 Safari/537.36",107,"[0.9, 0.5, 0.1]","[0.8, 0.4, 0.2]","[u'blue', u'red', u'black']","[u'left', u'middle', u'right']","[0.8, 0.4, 0.2]","[u'medium', u'low', u'high']","black",51,"right","high","True","False",269,4850,NA
"A2CK0OXMPOR9LE","Thu Jan 30 2020 11:02:37 GMT-0800 (Pacific Standard Time)","Thu Jan 30 2020 11:08:19 GMT-0800 (Pacific Standard Time)","Mozilla/5.0 (Windows NT 6.2; Win64; x64) AppleWebKit/537.36 (KHTML, like Gecko) Chrome/75.0.3770.100 Safari/537.36",108,"[0.9, 0.5, 0.1]","[0.8, 0.4, 0.2]","[u'blue', u'red', u'black']","[u'left', u'middle', u'right']","[0.8, 0.4, 0.2]","[u'medium', u'low', u'high']","black",51,"right","high","True","True",253,4950,NA
"A2CK0OXMPOR9LE","Thu Jan 30 2020 11:02:37 GMT-0800 (Pacific Standard Time)","Thu Jan 30 2020 11:08:19 GMT-0800 (Pacific Standard Time)","Mozilla/5.0 (Windows NT 6.2; Win64; x64) AppleWebKit/537.36 (KHTML, like Gecko) Chrome/75.0.3770.100 Safari/537.36",109,"[0.9, 0.5, 0.1]","[0.8, 0.4, 0.2]","[u'blue', u'red', u'black']","[u'left', u'middle', u'right']","[0.8, 0.4, 0.2]","[u'high', u'low', u'medium']","black",51,"right","medium","False","False",266,4900,NA
"A2CK0OXMPOR9LE","Thu Jan 30 2020 11:02:37 GMT-0800 (Pacific Standard Time)","Thu Jan 30 2020 11:08:19 GMT-0800 (Pacific Standard Time)","Mozilla/5.0 (Windows NT 6.2; Win64; x64) AppleWebKit/537.36 (KHTML, like Gecko) Chrome/75.0.3770.100 Safari/537.36",110,"[0.9, 0.5, 0.1]","[0.8, 0.4, 0.2]","[u'blue', u'red', u'black']","[u'left', u'middle', u'right']","[0.8, 0.4, 0.2]","[u'high', u'low', u'medium']","black",51,"right","medium","True","False",101,5000,NA
"A2CK0OXMPOR9LE","Thu Jan 30 2020 11:02:37 GMT-0800 (Pacific Standard Time)","Thu Jan 30 2020 11:08:19 GMT-0800 (Pacific Standard Time)","Mozilla/5.0 (Windows NT 6.2; Win64; x64) AppleWebKit/537.36 (KHTML, like Gecko) Chrome/75.0.3770.100 Safari/537.36",111,"[0.9, 0.5, 0.1]","[0.8, 0.4, 0.2]","[u'blue', u'red', u'black']","[u'left', u'middle', u'right']","[0.8, 0.4, 0.2]","[u'high', u'low', u'medium']","black",51,"right","medium","False","False",370,4950,NA
"A2CK0OXMPOR9LE","Thu Jan 30 2020 11:02:37 GMT-0800 (Pacific Standard Time)","Thu Jan 30 2020 11:08:19 GMT-0800 (Pacific Standard Time)","Mozilla/5.0 (Windows NT 6.2; Win64; x64) AppleWebKit/537.36 (KHTML, like Gecko) Chrome/75.0.3770.100 Safari/537.36",112,"[0.9, 0.5, 0.1]","[0.8, 0.4, 0.2]","[u'blue', u'red', u'black']","[u'left', u'middle', u'right']","[0.8, 0.4, 0.2]","[u'high', u'low', u'medium']","blue",49,"left","high","True","False",256,5050,NA
"A2CK0OXMPOR9LE","Thu Jan 30 2020 11:02:37 GMT-0800 (Pacific Standard Time)","Thu Jan 30 2020 11:08:19 GMT-0800 (Pacific Standard Time)","Mozilla/5.0 (Windows NT 6.2; Win64; x64) AppleWebKit/537.36 (KHTML, like Gecko) Chrome/75.0.3770.100 Safari/537.36",113,"[0.9, 0.5, 0.1]","[0.8, 0.4, 0.2]","[u'blue', u'red', u'black']","[u'left', u'middle', u'right']","[0.8, 0.4, 0.2]","[u'high', u'low', u'medium']","blue",49,"left","high","True","False",244,5150,NA
"A2CK0OXMPOR9LE","Thu Jan 30 2020 11:02:37 GMT-0800 (Pacific Standard Time)","Thu Jan 30 2020 11:08:19 GMT-0800 (Pacific Standard Time)","Mozilla/5.0 (Windows NT 6.2; Win64; x64) AppleWebKit/537.36 (KHTML, like Gecko) Chrome/75.0.3770.100 Safari/537.36",114,"[0.9, 0.5, 0.1]","[0.8, 0.4, 0.2]","[u'blue', u'red', u'black']","[u'left', u'middle', u'right']","[0.8, 0.4, 0.2]","[u'high', u'low', u'medium']","blue",49,"left","high","True","False",408,5250,NA
"A2CK0OXMPOR9LE","Thu Jan 30 2020 11:02:37 GMT-0800 (Pacific Standard Time)","Thu Jan 30 2020 11:08:19 GMT-0800 (Pacific Standard Time)","Mozilla/5.0 (Windows NT 6.2; Win64; x64) AppleWebKit/537.36 (KHTML, like Gecko) Chrome/75.0.3770.100 Safari/537.36",115,"[0.9, 0.5, 0.1]","[0.8, 0.4, 0.2]","[u'blue', u'red', u'black']","[u'left', u'middle', u'right']","[0.8, 0.4, 0.2]","[u'high', u'low', u'medium']","blue",49,"left","high","True","False",300,5350,NA
"A2CK0OXMPOR9LE","Thu Jan 30 2020 11:02:37 GMT-0800 (Pacific Standard Time)","Thu Jan 30 2020 11:08:19 GMT-0800 (Pacific Standard Time)","Mozilla/5.0 (Windows NT 6.2; Win64; x64) AppleWebKit/537.36 (KHTML, like Gecko) Chrome/75.0.3770.100 Safari/537.36",116,"[0.9, 0.5, 0.1]","[0.8, 0.4, 0.2]","[u'blue', u'red', u'black']","[u'left', u'middle', u'right']","[0.8, 0.4, 0.2]","[u'high', u'low', u'medium']","blue",49,"left","high","True","False",341,5450,NA
"A2CK0OXMPOR9LE","Thu Jan 30 2020 11:02:37 GMT-0800 (Pacific Standard Time)","Thu Jan 30 2020 11:08:19 GMT-0800 (Pacific Standard Time)","Mozilla/5.0 (Windows NT 6.2; Win64; x64) AppleWebKit/537.36 (KHTML, like Gecko) Chrome/75.0.3770.100 Safari/537.36",117,"[0.9, 0.5, 0.1]","[0.8, 0.4, 0.2]","[u'blue', u'red', u'black']","[u'left', u'middle', u'right']","[0.8, 0.4, 0.2]","[u'high', u'low', u'medium']","blue",49,"left","high","True","False",296,5550,NA
"A2CK0OXMPOR9LE","Thu Jan 30 2020 11:02:37 GMT-0800 (Pacific Standard Time)","Thu Jan 30 2020 11:08:19 GMT-0800 (Pacific Standard Time)","Mozilla/5.0 (Windows NT 6.2; Win64; x64) AppleWebKit/537.36 (KHTML, like Gecko) Chrome/75.0.3770.100 Safari/537.36",118,"[0.9, 0.5, 0.1]","[0.8, 0.4, 0.2]","[u'blue', u'red', u'black']","[u'left', u'middle', u'right']","[0.8, 0.4, 0.2]","[u'high', u'low', u'medium']","blue",49,"left","high","True","False",464,5650,NA
"A2CK0OXMPOR9LE","Thu Jan 30 2020 11:02:37 GMT-0800 (Pacific Standard Time)","Thu Jan 30 2020 11:08:19 GMT-0800 (Pacific Standard Time)","Mozilla/5.0 (Windows NT 6.2; Win64; x64) AppleWebKit/537.36 (KHTML, like Gecko) Chrome/75.0.3770.100 Safari/537.36",119,"[0.9, 0.5, 0.1]","[0.8, 0.4, 0.2]","[u'blue', u'red', u'black']","[u'left', u'middle', u'right']","[0.8, 0.4, 0.2]","[u'high', u'low', u'medium']","blue",49,"left","high","True","False",407,5750,NA
"A2CK0OXMPOR9LE","Thu Jan 30 2020 11:02:37 GMT-0800 (Pacific Standard Time)","Thu Jan 30 2020 11:08:19 GMT-0800 (Pacific Standard Time)","Mozilla/5.0 (Windows NT 6.2; Win64; x64) AppleWebKit/537.36 (KHTML, like Gecko) Chrome/75.0.3770.100 Safari/537.36",120,"[0.9, 0.5, 0.1]","[0.8, 0.4, 0.2]","[u'blue', u'red', u'black']","[u'left', u'middle', u'right']","[0.8, 0.4, 0.2]","[u'high', u'low', u'medium']","blue",49,"left","high","True","True",351,5850,NA
"A2CK0OXMPOR9LE","Thu Jan 30 2020 11:02:37 GMT-0800 (Pacific Standard Time)","Thu Jan 30 2020 11:08:19 GMT-0800 (Pacific Standard Time)","Mozilla/5.0 (Windows NT 6.2; Win64; x64) AppleWebKit/537.36 (KHTML, like Gecko) Chrome/75.0.3770.100 Safari/537.36",121,"[0.9, 0.5, 0.1]","[0.8, 0.4, 0.2]","[u'blue', u'red', u'black']","[u'left', u'middle', u'right']","[0.8, 0.4, 0.2]","[u'medium', u'low', u'high']","blue",49,"left","medium","True","False",384,5950,NA
"A2CK0OXMPOR9LE","Thu Jan 30 2020 11:02:37 GMT-0800 (Pacific Standard Time)","Thu Jan 30 2020 11:08:19 GMT-0800 (Pacific Standard Time)","Mozilla/5.0 (Windows NT 6.2; Win64; x64) AppleWebKit/537.36 (KHTML, like Gecko) Chrome/75.0.3770.100 Safari/537.36",122,"[0.9, 0.5, 0.1]","[0.8, 0.4, 0.2]","[u'blue', u'red', u'black']","[u'left', u'middle', u'right']","[0.8, 0.4, 0.2]","[u'medium', u'low', u'high']","blue",49,"left","medium","False","False",357,5900,NA
"A2CK0OXMPOR9LE","Thu Jan 30 2020 11:02:37 GMT-0800 (Pacific Standard Time)","Thu Jan 30 2020 11:08:19 GMT-0800 (Pacific Standard Time)","Mozilla/5.0 (Windows NT 6.2; Win64; x64) AppleWebKit/537.36 (KHTML, like Gecko) Chrome/75.0.3770.100 Safari/537.36",123,"[0.9, 0.5, 0.1]","[0.8, 0.4, 0.2]","[u'blue', u'red', u'black']","[u'left', u'middle', u'right']","[0.8, 0.4, 0.2]","[u'medium', u'low', u'high']","blue",49,"left","medium","False","False",297,5850,NA
"A2CK0OXMPOR9LE","Thu Jan 30 2020 11:02:37 GMT-0800 (Pacific Standard Time)","Thu Jan 30 2020 11:08:19 GMT-0800 (Pacific Standard Time)","Mozilla/5.0 (Windows NT 6.2; Win64; x64) AppleWebKit/537.36 (KHTML, like Gecko) Chrome/75.0.3770.100 Safari/537.36",124,"[0.9, 0.5, 0.1]","[0.8, 0.4, 0.2]","[u'blue', u'red', u'black']","[u'left', u'middle', u'right']","[0.8, 0.4, 0.2]","[u'medium', u'low', u'high']","red",50,"middle","low","False","False",217,5800,NA
"A2CK0OXMPOR9LE","Thu Jan 30 2020 11:02:37 GMT-0800 (Pacific Standard Time)","Thu Jan 30 2020 11:08:19 GMT-0800 (Pacific Standard Time)","Mozilla/5.0 (Windows NT 6.2; Win64; x64) AppleWebKit/537.36 (KHTML, like Gecko) Chrome/75.0.3770.100 Safari/537.36",125,"[0.9, 0.5, 0.1]","[0.8, 0.4, 0.2]","[u'blue', u'red', u'black']","[u'left', u'middle', u'right']","[0.8, 0.4, 0.2]","[u'medium', u'low', u'high']","red",50,"middle","low","False","False",163,5750,NA
"A2CK0OXMPOR9LE","Thu Jan 30 2020 11:02:37 GMT-0800 (Pacific Standard Time)","Thu Jan 30 2020 11:08:19 GMT-0800 (Pacific Standard Time)","Mozilla/5.0 (Windows NT 6.2; Win64; x64) AppleWebKit/537.36 (KHTML, like Gecko) Chrome/75.0.3770.100 Safari/537.36",126,"[0.9, 0.5, 0.1]","[0.8, 0.4, 0.2]","[u'blue', u'red', u'black']","[u'left', u'middle', u'right']","[0.8, 0.4, 0.2]","[u'medium', u'low', u'high']","black",51,"right","high","True","False",225,5850,NA
"A2CK0OXMPOR9LE","Thu Jan 30 2020 11:02:37 GMT-0800 (Pacific Standard Time)","Thu Jan 30 2020 11:08:19 GMT-0800 (Pacific Standard Time)","Mozilla/5.0 (Windows NT 6.2; Win64; x64) AppleWebKit/537.36 (KHTML, like Gecko) Chrome/75.0.3770.100 Safari/537.36",127,"[0.9, 0.5, 0.1]","[0.8, 0.4, 0.2]","[u'blue', u'red', u'black']","[u'left', u'middle', u'right']","[0.8, 0.4, 0.2]","[u'medium', u'low', u'high']","black",51,"right","high","True","False",219,5950,NA
"A2CK0OXMPOR9LE","Thu Jan 30 2020 11:02:37 GMT-0800 (Pacific Standard Time)","Thu Jan 30 2020 11:08:19 GMT-0800 (Pacific Standard Time)","Mozilla/5.0 (Windows NT 6.2; Win64; x64) AppleWebKit/537.36 (KHTML, like Gecko) Chrome/75.0.3770.100 Safari/537.36",128,"[0.9, 0.5, 0.1]","[0.8, 0.4, 0.2]","[u'blue', u'red', u'black']","[u'left', u'middle', u'right']","[0.8, 0.4, 0.2]","[u'medium', u'low', u'high']","black",51,"right","high","True","False",377,6050,NA
"A2CK0OXMPOR9LE","Thu Jan 30 2020 11:02:37 GMT-0800 (Pacific Standard Time)","Thu Jan 30 2020 11:08:19 GMT-0800 (Pacific Standard Time)","Mozilla/5.0 (Windows NT 6.2; Win64; x64) AppleWebKit/537.36 (KHTML, like Gecko) Chrome/75.0.3770.100 Safari/537.36",129,"[0.9, 0.5, 0.1]","[0.8, 0.4, 0.2]","[u'blue', u'red', u'black']","[u'left', u'middle', u'right']","[0.8, 0.4, 0.2]","[u'medium', u'low', u'high']","black",51,"right","high","True","False",379,6150,NA
"A2CK0OXMPOR9LE","Thu Jan 30 2020 11:02:37 GMT-0800 (Pacific Standard Time)","Thu Jan 30 2020 11:08:19 GMT-0800 (Pacific Standard Time)","Mozilla/5.0 (Windows NT 6.2; Win64; x64) AppleWebKit/537.36 (KHTML, like Gecko) Chrome/75.0.3770.100 Safari/537.36",130,"[0.9, 0.5, 0.1]","[0.8, 0.4, 0.2]","[u'blue', u'red', u'black']","[u'left', u'middle', u'right']","[0.8, 0.4, 0.2]","[u'medium', u'low', u'high']","black",51,"right","high","True","False",259,6250,NA
"A2CK0OXMPOR9LE","Thu Jan 30 2020 11:02:37 GMT-0800 (Pacific Standard Time)","Thu Jan 30 2020 11:08:19 GMT-0800 (Pacific Standard Time)","Mozilla/5.0 (Windows NT 6.2; Win64; x64) AppleWebKit/537.36 (KHTML, like Gecko) Chrome/75.0.3770.100 Safari/537.36",131,"[0.9, 0.5, 0.1]","[0.8, 0.4, 0.2]","[u'blue', u'red', u'black']","[u'left', u'middle', u'right']","[0.8, 0.4, 0.2]","[u'medium', u'low', u'high']","black",51,"right","high","True","False",374,6350,NA
"A2CK0OXMPOR9LE","Thu Jan 30 2020 11:02:37 GMT-0800 (Pacific Standard Time)","Thu Jan 30 2020 11:08:19 GMT-0800 (Pacific Standard Time)","Mozilla/5.0 (Windows NT 6.2; Win64; x64) AppleWebKit/537.36 (KHTML, like Gecko) Chrome/75.0.3770.100 Safari/537.36",132,"[0.9, 0.5, 0.1]","[0.8, 0.4, 0.2]","[u'blue', u'red', u'black']","[u'left', u'middle', u'right']","[0.8, 0.4, 0.2]","[u'medium', u'low', u'high']","black",51,"right","high","True","False",309,6450,NA
"A2CK0OXMPOR9LE","Thu Jan 30 2020 11:02:37 GMT-0800 (Pacific Standard Time)","Thu Jan 30 2020 11:08:19 GMT-0800 (Pacific Standard Time)","Mozilla/5.0 (Windows NT 6.2; Win64; x64) AppleWebKit/537.36 (KHTML, like Gecko) Chrome/75.0.3770.100 Safari/537.36",133,"[0.9, 0.5, 0.1]","[0.8, 0.4, 0.2]","[u'blue', u'red', u'black']","[u'left', u'middle', u'right']","[0.8, 0.4, 0.2]","[u'medium', u'low', u'high']","black",51,"right","high","True","False",293,6550,NA
"A2CK0OXMPOR9LE","Thu Jan 30 2020 11:02:37 GMT-0800 (Pacific Standard Time)","Thu Jan 30 2020 11:08:19 GMT-0800 (Pacific Standard Time)","Mozilla/5.0 (Windows NT 6.2; Win64; x64) AppleWebKit/537.36 (KHTML, like Gecko) Chrome/75.0.3770.100 Safari/537.36",134,"[0.9, 0.5, 0.1]","[0.8, 0.4, 0.2]","[u'blue', u'red', u'black']","[u'left', u'middle', u'right']","[0.8, 0.4, 0.2]","[u'medium', u'low', u'high']","black",51,"right","high","False","True",230,6500,NA
"A2CK0OXMPOR9LE","Thu Jan 30 2020 11:02:37 GMT-0800 (Pacific Standard Time)","Thu Jan 30 2020 11:08:19 GMT-0800 (Pacific Standard Time)","Mozilla/5.0 (Windows NT 6.2; Win64; x64) AppleWebKit/537.36 (KHTML, like Gecko) Chrome/75.0.3770.100 Safari/537.36",135,"[0.9, 0.5, 0.1]","[0.8, 0.4, 0.2]","[u'blue', u'red', u'black']","[u'left', u'middle', u'right']","[0.8, 0.4, 0.2]","[u'low', u'high', u'medium']","black",51,"right","medium","True","False",402,6600,NA
"A2CK0OXMPOR9LE","Thu Jan 30 2020 11:02:37 GMT-0800 (Pacific Standard Time)","Thu Jan 30 2020 11:08:19 GMT-0800 (Pacific Standard Time)","Mozilla/5.0 (Windows NT 6.2; Win64; x64) AppleWebKit/537.36 (KHTML, like Gecko) Chrome/75.0.3770.100 Safari/537.36",136,"[0.9, 0.5, 0.1]","[0.8, 0.4, 0.2]","[u'blue', u'red', u'black']","[u'left', u'middle', u'right']","[0.8, 0.4, 0.2]","[u'low', u'high', u'medium']","black",51,"right","medium","False","False",484,6550,NA
"A2CK0OXMPOR9LE","Thu Jan 30 2020 11:02:37 GMT-0800 (Pacific Standard Time)","Thu Jan 30 2020 11:08:19 GMT-0800 (Pacific Standard Time)","Mozilla/5.0 (Windows NT 6.2; Win64; x64) AppleWebKit/537.36 (KHTML, like Gecko) Chrome/75.0.3770.100 Safari/537.36",137,"[0.9, 0.5, 0.1]","[0.8, 0.4, 0.2]","[u'blue', u'red', u'black']","[u'left', u'middle', u'right']","[0.8, 0.4, 0.2]","[u'low', u'high', u'medium']","blue",49,"left","low","False","False",374,6500,NA
"A2CK0OXMPOR9LE","Thu Jan 30 2020 11:02:37 GMT-0800 (Pacific Standard Time)","Thu Jan 30 2020 11:08:19 GMT-0800 (Pacific Standard Time)","Mozilla/5.0 (Windows NT 6.2; Win64; x64) AppleWebKit/537.36 (KHTML, like Gecko) Chrome/75.0.3770.100 Safari/537.36",138,"[0.9, 0.5, 0.1]","[0.8, 0.4, 0.2]","[u'blue', u'red', u'black']","[u'left', u'middle', u'right']","[0.8, 0.4, 0.2]","[u'low', u'high', u'medium']","blue",49,"left","low","False","False",115,6450,NA
"A2CK0OXMPOR9LE","Thu Jan 30 2020 11:02:37 GMT-0800 (Pacific Standard Time)","Thu Jan 30 2020 11:08:19 GMT-0800 (Pacific Standard Time)","Mozilla/5.0 (Windows NT 6.2; Win64; x64) AppleWebKit/537.36 (KHTML, like Gecko) Chrome/75.0.3770.100 Safari/537.36",139,"[0.9, 0.5, 0.1]","[0.8, 0.4, 0.2]","[u'blue', u'red', u'black']","[u'left', u'middle', u'right']","[0.8, 0.4, 0.2]","[u'low', u'high', u'medium']","red",50,"middle","high","True","False",306,6550,NA
"A2CK0OXMPOR9LE","Thu Jan 30 2020 11:02:37 GMT-0800 (Pacific Standard Time)","Thu Jan 30 2020 11:08:19 GMT-0800 (Pacific Standard Time)","Mozilla/5.0 (Windows NT 6.2; Win64; x64) AppleWebKit/537.36 (KHTML, like Gecko) Chrome/75.0.3770.100 Safari/537.36",140,"[0.9, 0.5, 0.1]","[0.8, 0.4, 0.2]","[u'blue', u'red', u'black']","[u'left', u'middle', u'right']","[0.8, 0.4, 0.2]","[u'low', u'high', u'medium']","red",50,"middle","high","True","False",332,6650,NA
"A2CK0OXMPOR9LE","Thu Jan 30 2020 11:02:37 GMT-0800 (Pacific Standard Time)","Thu Jan 30 2020 11:08:19 GMT-0800 (Pacific Standard Time)","Mozilla/5.0 (Windows NT 6.2; Win64; x64) AppleWebKit/537.36 (KHTML, like Gecko) Chrome/75.0.3770.100 Safari/537.36",141,"[0.9, 0.5, 0.1]","[0.8, 0.4, 0.2]","[u'blue', u'red', u'black']","[u'left', u'middle', u'right']","[0.8, 0.4, 0.2]","[u'low', u'high', u'medium']","red",50,"middle","high","True","False",316,6750,NA
"A2CK0OXMPOR9LE","Thu Jan 30 2020 11:02:37 GMT-0800 (Pacific Standard Time)","Thu Jan 30 2020 11:08:19 GMT-0800 (Pacific Standard Time)","Mozilla/5.0 (Windows NT 6.2; Win64; x64) AppleWebKit/537.36 (KHTML, like Gecko) Chrome/75.0.3770.100 Safari/537.36",142,"[0.9, 0.5, 0.1]","[0.8, 0.4, 0.2]","[u'blue', u'red', u'black']","[u'left', u'middle', u'right']","[0.8, 0.4, 0.2]","[u'low', u'high', u'medium']","red",50,"middle","high","False","False",407,6700,NA
"A2CK0OXMPOR9LE","Thu Jan 30 2020 11:02:37 GMT-0800 (Pacific Standard Time)","Thu Jan 30 2020 11:08:19 GMT-0800 (Pacific Standard Time)","Mozilla/5.0 (Windows NT 6.2; Win64; x64) AppleWebKit/537.36 (KHTML, like Gecko) Chrome/75.0.3770.100 Safari/537.36",143,"[0.9, 0.5, 0.1]","[0.8, 0.4, 0.2]","[u'blue', u'red', u'black']","[u'left', u'middle', u'right']","[0.8, 0.4, 0.2]","[u'low', u'high', u'medium']","black",51,"right","medium","True","False",131,6800,NA
"A2CK0OXMPOR9LE","Thu Jan 30 2020 11:02:37 GMT-0800 (Pacific Standard Time)","Thu Jan 30 2020 11:08:19 GMT-0800 (Pacific Standard Time)","Mozilla/5.0 (Windows NT 6.2; Win64; x64) AppleWebKit/537.36 (KHTML, like Gecko) Chrome/75.0.3770.100 Safari/537.36",144,"[0.9, 0.5, 0.1]","[0.8, 0.4, 0.2]","[u'blue', u'red', u'black']","[u'left', u'middle', u'right']","[0.8, 0.4, 0.2]","[u'low', u'high', u'medium']","black",51,"right","medium","True","False",266,6900,NA
"A2CK0OXMPOR9LE","Thu Jan 30 2020 11:02:37 GMT-0800 (Pacific Standard Time)","Thu Jan 30 2020 11:08:19 GMT-0800 (Pacific Standard Time)","Mozilla/5.0 (Windows NT 6.2; Win64; x64) AppleWebKit/537.36 (KHTML, like Gecko) Chrome/75.0.3770.100 Safari/537.36",145,"[0.9, 0.5, 0.1]","[0.8, 0.4, 0.2]","[u'blue', u'red', u'black']","[u'left', u'middle', u'right']","[0.8, 0.4, 0.2]","[u'low', u'high', u'medium']","black",51,"right","medium","False","False",221,6850,NA
"A2CK0OXMPOR9LE","Thu Jan 30 2020 11:02:37 GMT-0800 (Pacific Standard Time)","Thu Jan 30 2020 11:08:19 GMT-0800 (Pacific Standard Time)","Mozilla/5.0 (Windows NT 6.2; Win64; x64) AppleWebKit/537.36 (KHTML, like Gecko) Chrome/75.0.3770.100 Safari/537.36",146,"[0.9, 0.5, 0.1]","[0.8, 0.4, 0.2]","[u'blue', u'red', u'black']","[u'left', u'middle', u'right']","[0.8, 0.4, 0.2]","[u'low', u'high', u'medium']","blue",49,"left","low","False","False",280,6800,NA
"A2CK0OXMPOR9LE","Thu Jan 30 2020 11:02:37 GMT-0800 (Pacific Standard Time)","Thu Jan 30 2020 11:08:19 GMT-0800 (Pacific Standard Time)","Mozilla/5.0 (Windows NT 6.2; Win64; x64) AppleWebKit/537.36 (KHTML, like Gecko) Chrome/75.0.3770.100 Safari/537.36",147,"[0.9, 0.5, 0.1]","[0.8, 0.4, 0.2]","[u'blue', u'red', u'black']","[u'left', u'middle', u'right']","[0.8, 0.4, 0.2]","[u'low', u'high', u'medium']","blue",49,"left","low","False","False",301,6750,NA
"A2CK0OXMPOR9LE","Thu Jan 30 2020 11:02:37 GMT-0800 (Pacific Standard Time)","Thu Jan 30 2020 11:08:19 GMT-0800 (Pacific Standard Time)","Mozilla/5.0 (Windows NT 6.2; Win64; x64) AppleWebKit/537.36 (KHTML, like Gecko) Chrome/75.0.3770.100 Safari/537.36",148,"[0.9, 0.5, 0.1]","[0.8, 0.4, 0.2]","[u'blue', u'red', u'black']","[u'left', u'middle', u'right']","[0.8, 0.4, 0.2]","[u'low', u'high', u'medium']","red",50,"middle","high","True","False",256,6850,NA
"A2CK0OXMPOR9LE","Thu Jan 30 2020 11:02:37 GMT-0800 (Pacific Standard Time)","Thu Jan 30 2020 11:08:19 GMT-0800 (Pacific Standard Time)","Mozilla/5.0 (Windows NT 6.2; Win64; x64) AppleWebKit/537.36 (KHTML, like Gecko) Chrome/75.0.3770.100 Safari/537.36",149,"[0.9, 0.5, 0.1]","[0.8, 0.4, 0.2]","[u'blue', u'red', u'black']","[u'left', u'middle', u'right']","[0.8, 0.4, 0.2]","[u'low', u'high', u'medium']","red",50,"middle","high","True","False",623,6950,NA
"A2CK0OXMPOR9LE","Thu Jan 30 2020 11:02:37 GMT-0800 (Pacific Standard Time)","Thu Jan 30 2020 11:08:19 GMT-0800 (Pacific Standard Time)","Mozilla/5.0 (Windows NT 6.2; Win64; x64) AppleWebKit/537.36 (KHTML, like Gecko) Chrome/75.0.3770.100 Safari/537.36",150,"[0.9, 0.5, 0.1]","[0.8, 0.4, 0.2]","[u'blue', u'red', u'black']","[u'left', u'middle', u'right']","[0.8, 0.4, 0.2]","[u'low', u'high', u'medium']","red",50,"middle","high","True","False",259,7050,NA
"A2CK0OXMPOR9LE","Thu Jan 30 2020 11:02:37 GMT-0800 (Pacific Standard Time)","Thu Jan 30 2020 11:08:19 GMT-0800 (Pacific Standard Time)","Mozilla/5.0 (Windows NT 6.2; Win64; x64) AppleWebKit/537.36 (KHTML, like Gecko) Chrome/75.0.3770.100 Safari/537.36",151,"[0.9, 0.5, 0.1]","[0.8, 0.4, 0.2]","[u'blue', u'red', u'black']","[u'left', u'middle', u'right']","[0.8, 0.4, 0.2]","[u'low', u'high', u'medium']","red",50,"middle","high","True","False",201,7150,NA
"A2CK0OXMPOR9LE","Thu Jan 30 2020 11:02:37 GMT-0800 (Pacific Standard Time)","Thu Jan 30 2020 11:08:19 GMT-0800 (Pacific Standard Time)","Mozilla/5.0 (Windows NT 6.2; Win64; x64) AppleWebKit/537.36 (KHTML, like Gecko) Chrome/75.0.3770.100 Safari/537.36",152,"[0.9, 0.5, 0.1]","[0.8, 0.4, 0.2]","[u'blue', u'red', u'black']","[u'left', u'middle', u'right']","[0.8, 0.4, 0.2]","[u'low', u'high', u'medium']","red",50,"middle","high","True","False",267,7250,NA
"A2CK0OXMPOR9LE","Thu Jan 30 2020 11:02:37 GMT-0800 (Pacific Standard Time)","Thu Jan 30 2020 11:08:19 GMT-0800 (Pacific Standard Time)","Mozilla/5.0 (Windows NT 6.2; Win64; x64) AppleWebKit/537.36 (KHTML, like Gecko) Chrome/75.0.3770.100 Safari/537.36",153,"[0.9, 0.5, 0.1]","[0.8, 0.4, 0.2]","[u'blue', u'red', u'black']","[u'left', u'middle', u'right']","[0.8, 0.4, 0.2]","[u'low', u'high', u'medium']","red",50,"middle","high","True","False",180,7350,NA
"A2CK0OXMPOR9LE","Thu Jan 30 2020 11:02:37 GMT-0800 (Pacific Standard Time)","Thu Jan 30 2020 11:08:19 GMT-0800 (Pacific Standard Time)","Mozilla/5.0 (Windows NT 6.2; Win64; x64) AppleWebKit/537.36 (KHTML, like Gecko) Chrome/75.0.3770.100 Safari/537.36",154,"[0.9, 0.5, 0.1]","[0.8, 0.4, 0.2]","[u'blue', u'red', u'black']","[u'left', u'middle', u'right']","[0.8, 0.4, 0.2]","[u'low', u'high', u'medium']","red",50,"middle","high","True","False",282,7450,NA
"A2CK0OXMPOR9LE","Thu Jan 30 2020 11:02:37 GMT-0800 (Pacific Standard Time)","Thu Jan 30 2020 11:08:19 GMT-0800 (Pacific Standard Time)","Mozilla/5.0 (Windows NT 6.2; Win64; x64) AppleWebKit/537.36 (KHTML, like Gecko) Chrome/75.0.3770.100 Safari/537.36",155,"[0.9, 0.5, 0.1]","[0.8, 0.4, 0.2]","[u'blue', u'red', u'black']","[u'left', u'middle', u'right']","[0.8, 0.4, 0.2]","[u'low', u'high', u'medium']","red",50,"middle","high","True","False",412,7550,NA
"A2CK0OXMPOR9LE","Thu Jan 30 2020 11:02:37 GMT-0800 (Pacific Standard Time)","Thu Jan 30 2020 11:08:19 GMT-0800 (Pacific Standard Time)","Mozilla/5.0 (Windows NT 6.2; Win64; x64) AppleWebKit/537.36 (KHTML, like Gecko) Chrome/75.0.3770.100 Safari/537.36",156,"[0.9, 0.5, 0.1]","[0.8, 0.4, 0.2]","[u'blue', u'red', u'black']","[u'left', u'middle', u'right']","[0.8, 0.4, 0.2]","[u'low', u'high', u'medium']","red",50,"middle","high","True","True",223,7650,NA
"A2CK0OXMPOR9LE","Thu Jan 30 2020 11:02:37 GMT-0800 (Pacific Standard Time)","Thu Jan 30 2020 11:08:19 GMT-0800 (Pacific Standard Time)","Mozilla/5.0 (Windows NT 6.2; Win64; x64) AppleWebKit/537.36 (KHTML, like Gecko) Chrome/75.0.3770.100 Safari/537.36",157,"[0.9, 0.5, 0.1]","[0.8, 0.4, 0.2]","[u'blue', u'red', u'black']","[u'left', u'middle', u'right']","[0.8, 0.4, 0.2]","[u'low', u'medium', u'high']","red",50,"middle","medium","False","False",444,7600,NA
"A2CK0OXMPOR9LE","Thu Jan 30 2020 11:02:37 GMT-0800 (Pacific Standard Time)","Thu Jan 30 2020 11:08:19 GMT-0800 (Pacific Standard Time)","Mozilla/5.0 (Windows NT 6.2; Win64; x64) AppleWebKit/537.36 (KHTML, like Gecko) Chrome/75.0.3770.100 Safari/537.36",158,"[0.9, 0.5, 0.1]","[0.8, 0.4, 0.2]","[u'blue', u'red', u'black']","[u'left', u'middle', u'right']","[0.8, 0.4, 0.2]","[u'low', u'medium', u'high']","red",50,"middle","medium","False","False",102,7550,NA
"A2CK0OXMPOR9LE","Thu Jan 30 2020 11:02:37 GMT-0800 (Pacific Standard Time)","Thu Jan 30 2020 11:08:19 GMT-0800 (Pacific Standard Time)","Mozilla/5.0 (Windows NT 6.2; Win64; x64) AppleWebKit/537.36 (KHTML, like Gecko) Chrome/75.0.3770.100 Safari/537.36",159,"[0.9, 0.5, 0.1]","[0.8, 0.4, 0.2]","[u'blue', u'red', u'black']","[u'left', u'middle', u'right']","[0.8, 0.4, 0.2]","[u'low', u'medium', u'high']","black",51,"right","high","True","False",364,7650,NA
"A2CK0OXMPOR9LE","Thu Jan 30 2020 11:02:37 GMT-0800 (Pacific Standard Time)","Thu Jan 30 2020 11:08:19 GMT-0800 (Pacific Standard Time)","Mozilla/5.0 (Windows NT 6.2; Win64; x64) AppleWebKit/537.36 (KHTML, like Gecko) Chrome/75.0.3770.100 Safari/537.36",160,"[0.9, 0.5, 0.1]","[0.8, 0.4, 0.2]","[u'blue', u'red', u'black']","[u'left', u'middle', u'right']","[0.8, 0.4, 0.2]","[u'low', u'medium', u'high']","black",51,"right","high","True","False",267,7750,NA
