"src_subject_id","start_time","end_time","browser","index","first_half_probabilities","second_half_probabilities","deck_color","deck_position","deck_probabilities","deck_contingencies","response_color","key_press","response_position","response_probability","reward_type","trial_type","rt","reward_tally","exclusion_reason"
"A1BNGJBEWJS8WE","Thu Jan 30 2020 15:39:15 GMT-0800 (Pacific Standard Time)","Thu Jan 30 2020 15:49:02 GMT-0800 (Pacific Standard Time)","Mozilla/5.0 (Windows NT 6.3; Win64; x64) AppleWebKit/537.36 (KHTML, like Gecko) Chrome/79.0.3945.130 Safari/537.36",1,"[0.9, 0.5, 0.1]","[0.8, 0.4, 0.2]","[u'blue', u'black', u'red']","[u'left', u'middle', u'right']","[0.9, 0.5, 0.1]","[u'low', u'high', u'medium']","blue",49,"left","low","False","False",1716,-50,NA
"A1BNGJBEWJS8WE","Thu Jan 30 2020 15:39:15 GMT-0800 (Pacific Standard Time)","Thu Jan 30 2020 15:49:02 GMT-0800 (Pacific Standard Time)","Mozilla/5.0 (Windows NT 6.3; Win64; x64) AppleWebKit/537.36 (KHTML, like Gecko) Chrome/79.0.3945.130 Safari/537.36",2,"[0.9, 0.5, 0.1]","[0.8, 0.4, 0.2]","[u'blue', u'black', u'red']","[u'left', u'middle', u'right']","[0.9, 0.5, 0.1]","[u'low', u'high', u'medium']","blue",49,"left","low","False","False",620,-100,NA
"A1BNGJBEWJS8WE","Thu Jan 30 2020 15:39:15 GMT-0800 (Pacific Standard Time)","Thu Jan 30 2020 15:49:02 GMT-0800 (Pacific Standard Time)","Mozilla/5.0 (Windows NT 6.3; Win64; x64) AppleWebKit/537.36 (KHTML, like Gecko) Chrome/79.0.3945.130 Safari/537.36",3,"[0.9, 0.5, 0.1]","[0.8, 0.4, 0.2]","[u'blue', u'black', u'red']","[u'left', u'middle', u'right']","[0.9, 0.5, 0.1]","[u'low', u'high', u'medium']","blue",49,"left","low","False","False",1108,-150,NA
"A1BNGJBEWJS8WE","Thu Jan 30 2020 15:39:15 GMT-0800 (Pacific Standard Time)","Thu Jan 30 2020 15:49:02 GMT-0800 (Pacific Standard Time)","Mozilla/5.0 (Windows NT 6.3; Win64; x64) AppleWebKit/537.36 (KHTML, like Gecko) Chrome/79.0.3945.130 Safari/537.36",4,"[0.9, 0.5, 0.1]","[0.8, 0.4, 0.2]","[u'blue', u'black', u'red']","[u'left', u'middle', u'right']","[0.9, 0.5, 0.1]","[u'low', u'high', u'medium']","red",51,"right","medium","False","False",639,-200,NA
"A1BNGJBEWJS8WE","Thu Jan 30 2020 15:39:15 GMT-0800 (Pacific Standard Time)","Thu Jan 30 2020 15:49:02 GMT-0800 (Pacific Standard Time)","Mozilla/5.0 (Windows NT 6.3; Win64; x64) AppleWebKit/537.36 (KHTML, like Gecko) Chrome/79.0.3945.130 Safari/537.36",5,"[0.9, 0.5, 0.1]","[0.8, 0.4, 0.2]","[u'blue', u'black', u'red']","[u'left', u'middle', u'right']","[0.9, 0.5, 0.1]","[u'low', u'high', u'medium']","black",50,"middle","high","True","False",411,-100,NA
"A1BNGJBEWJS8WE","Thu Jan 30 2020 15:39:15 GMT-0800 (Pacific Standard Time)","Thu Jan 30 2020 15:49:02 GMT-0800 (Pacific Standard Time)","Mozilla/5.0 (Windows NT 6.3; Win64; x64) AppleWebKit/537.36 (KHTML, like Gecko) Chrome/79.0.3945.130 Safari/537.36",6,"[0.9, 0.5, 0.1]","[0.8, 0.4, 0.2]","[u'blue', u'black', u'red']","[u'left', u'middle', u'right']","[0.9, 0.5, 0.1]","[u'low', u'high', u'medium']","black",50,"middle","high","True","False",656,0,NA
"A1BNGJBEWJS8WE","Thu Jan 30 2020 15:39:15 GMT-0800 (Pacific Standard Time)","Thu Jan 30 2020 15:49:02 GMT-0800 (Pacific Standard Time)","Mozilla/5.0 (Windows NT 6.3; Win64; x64) AppleWebKit/537.36 (KHTML, like Gecko) Chrome/79.0.3945.130 Safari/537.36",7,"[0.9, 0.5, 0.1]","[0.8, 0.4, 0.2]","[u'blue', u'black', u'red']","[u'left', u'middle', u'right']","[0.9, 0.5, 0.1]","[u'low', u'high', u'medium']","black",50,"middle","high","True","False",773,100,NA
"A1BNGJBEWJS8WE","Thu Jan 30 2020 15:39:15 GMT-0800 (Pacific Standard Time)","Thu Jan 30 2020 15:49:02 GMT-0800 (Pacific Standard Time)","Mozilla/5.0 (Windows NT 6.3; Win64; x64) AppleWebKit/537.36 (KHTML, like Gecko) Chrome/79.0.3945.130 Safari/537.36",8,"[0.9, 0.5, 0.1]","[0.8, 0.4, 0.2]","[u'blue', u'black', u'red']","[u'left', u'middle', u'right']","[0.9, 0.5, 0.1]","[u'low', u'high', u'medium']","black",50,"middle","high","True","False",794,200,NA
"A1BNGJBEWJS8WE","Thu Jan 30 2020 15:39:15 GMT-0800 (Pacific Standard Time)","Thu Jan 30 2020 15:49:02 GMT-0800 (Pacific Standard Time)","Mozilla/5.0 (Windows NT 6.3; Win64; x64) AppleWebKit/537.36 (KHTML, like Gecko) Chrome/79.0.3945.130 Safari/537.36",9,"[0.9, 0.5, 0.1]","[0.8, 0.4, 0.2]","[u'blue', u'black', u'red']","[u'left', u'middle', u'right']","[0.9, 0.5, 0.1]","[u'low', u'high', u'medium']","black",50,"middle","high","True","False",740,300,NA
"A1BNGJBEWJS8WE","Thu Jan 30 2020 15:39:15 GMT-0800 (Pacific Standard Time)","Thu Jan 30 2020 15:49:02 GMT-0800 (Pacific Standard Time)","Mozilla/5.0 (Windows NT 6.3; Win64; x64) AppleWebKit/537.36 (KHTML, like Gecko) Chrome/79.0.3945.130 Safari/537.36",10,"[0.9, 0.5, 0.1]","[0.8, 0.4, 0.2]","[u'blue', u'black', u'red']","[u'left', u'middle', u'right']","[0.9, 0.5, 0.1]","[u'low', u'high', u'medium']","black",50,"middle","high","True","False",717,400,NA
"A1BNGJBEWJS8WE","Thu Jan 30 2020 15:39:15 GMT-0800 (Pacific Standard Time)","Thu Jan 30 2020 15:49:02 GMT-0800 (Pacific Standard Time)","Mozilla/5.0 (Windows NT 6.3; Win64; x64) AppleWebKit/537.36 (KHTML, like Gecko) Chrome/79.0.3945.130 Safari/537.36",11,"[0.9, 0.5, 0.1]","[0.8, 0.4, 0.2]","[u'blue', u'black', u'red']","[u'left', u'middle', u'right']","[0.9, 0.5, 0.1]","[u'low', u'high', u'medium']","black",50,"middle","high","True","False",890,500,NA
"A1BNGJBEWJS8WE","Thu Jan 30 2020 15:39:15 GMT-0800 (Pacific Standard Time)","Thu Jan 30 2020 15:49:02 GMT-0800 (Pacific Standard Time)","Mozilla/5.0 (Windows NT 6.3; Win64; x64) AppleWebKit/537.36 (KHTML, like Gecko) Chrome/79.0.3945.130 Safari/537.36",12,"[0.9, 0.5, 0.1]","[0.8, 0.4, 0.2]","[u'blue', u'black', u'red']","[u'left', u'middle', u'right']","[0.9, 0.5, 0.1]","[u'low', u'high', u'medium']","black",50,"middle","high","True","False",756,600,NA
"A1BNGJBEWJS8WE","Thu Jan 30 2020 15:39:15 GMT-0800 (Pacific Standard Time)","Thu Jan 30 2020 15:49:02 GMT-0800 (Pacific Standard Time)","Mozilla/5.0 (Windows NT 6.3; Win64; x64) AppleWebKit/537.36 (KHTML, like Gecko) Chrome/79.0.3945.130 Safari/537.36",13,"[0.9, 0.5, 0.1]","[0.8, 0.4, 0.2]","[u'blue', u'black', u'red']","[u'left', u'middle', u'right']","[0.9, 0.5, 0.1]","[u'low', u'high', u'medium']","black",50,"middle","high","True","True",642,700,NA
"A1BNGJBEWJS8WE","Thu Jan 30 2020 15:39:15 GMT-0800 (Pacific Standard Time)","Thu Jan 30 2020 15:49:02 GMT-0800 (Pacific Standard Time)","Mozilla/5.0 (Windows NT 6.3; Win64; x64) AppleWebKit/537.36 (KHTML, like Gecko) Chrome/79.0.3945.130 Safari/537.36",14,"[0.9, 0.5, 0.1]","[0.8, 0.4, 0.2]","[u'blue', u'black', u'red']","[u'left', u'middle', u'right']","[0.9, 0.5, 0.1]","[u'medium', u'low', u'high']","black",50,"middle","low","False","False",757,650,NA
"A1BNGJBEWJS8WE","Thu Jan 30 2020 15:39:15 GMT-0800 (Pacific Standard Time)","Thu Jan 30 2020 15:49:02 GMT-0800 (Pacific Standard Time)","Mozilla/5.0 (Windows NT 6.3; Win64; x64) AppleWebKit/537.36 (KHTML, like Gecko) Chrome/79.0.3945.130 Safari/537.36",15,"[0.9, 0.5, 0.1]","[0.8, 0.4, 0.2]","[u'blue', u'black', u'red']","[u'left', u'middle', u'right']","[0.9, 0.5, 0.1]","[u'medium', u'low', u'high']","red",51,"right","high","True","False",584,750,NA
"A1BNGJBEWJS8WE","Thu Jan 30 2020 15:39:15 GMT-0800 (Pacific Standard Time)","Thu Jan 30 2020 15:49:02 GMT-0800 (Pacific Standard Time)","Mozilla/5.0 (Windows NT 6.3; Win64; x64) AppleWebKit/537.36 (KHTML, like Gecko) Chrome/79.0.3945.130 Safari/537.36",16,"[0.9, 0.5, 0.1]","[0.8, 0.4, 0.2]","[u'blue', u'black', u'red']","[u'left', u'middle', u'right']","[0.9, 0.5, 0.1]","[u'medium', u'low', u'high']","red",51,"right","high","True","False",517,850,NA
"A1BNGJBEWJS8WE","Thu Jan 30 2020 15:39:15 GMT-0800 (Pacific Standard Time)","Thu Jan 30 2020 15:49:02 GMT-0800 (Pacific Standard Time)","Mozilla/5.0 (Windows NT 6.3; Win64; x64) AppleWebKit/537.36 (KHTML, like Gecko) Chrome/79.0.3945.130 Safari/537.36",17,"[0.9, 0.5, 0.1]","[0.8, 0.4, 0.2]","[u'blue', u'black', u'red']","[u'left', u'middle', u'right']","[0.9, 0.5, 0.1]","[u'medium', u'low', u'high']","red",51,"right","high","True","False",534,950,NA
"A1BNGJBEWJS8WE","Thu Jan 30 2020 15:39:15 GMT-0800 (Pacific Standard Time)","Thu Jan 30 2020 15:49:02 GMT-0800 (Pacific Standard Time)","Mozilla/5.0 (Windows NT 6.3; Win64; x64) AppleWebKit/537.36 (KHTML, like Gecko) Chrome/79.0.3945.130 Safari/537.36",18,"[0.9, 0.5, 0.1]","[0.8, 0.4, 0.2]","[u'blue', u'black', u'red']","[u'left', u'middle', u'right']","[0.9, 0.5, 0.1]","[u'medium', u'low', u'high']","red",51,"right","high","True","False",389,1050,NA
"A1BNGJBEWJS8WE","Thu Jan 30 2020 15:39:15 GMT-0800 (Pacific Standard Time)","Thu Jan 30 2020 15:49:02 GMT-0800 (Pacific Standard Time)","Mozilla/5.0 (Windows NT 6.3; Win64; x64) AppleWebKit/537.36 (KHTML, like Gecko) Chrome/79.0.3945.130 Safari/537.36",19,"[0.9, 0.5, 0.1]","[0.8, 0.4, 0.2]","[u'blue', u'black', u'red']","[u'left', u'middle', u'right']","[0.9, 0.5, 0.1]","[u'medium', u'low', u'high']","red",51,"right","high","True","False",422,1150,NA
"A1BNGJBEWJS8WE","Thu Jan 30 2020 15:39:15 GMT-0800 (Pacific Standard Time)","Thu Jan 30 2020 15:49:02 GMT-0800 (Pacific Standard Time)","Mozilla/5.0 (Windows NT 6.3; Win64; x64) AppleWebKit/537.36 (KHTML, like Gecko) Chrome/79.0.3945.130 Safari/537.36",20,"[0.9, 0.5, 0.1]","[0.8, 0.4, 0.2]","[u'blue', u'black', u'red']","[u'left', u'middle', u'right']","[0.9, 0.5, 0.1]","[u'medium', u'low', u'high']","red",51,"right","high","True","False",490,1250,NA
"A1BNGJBEWJS8WE","Thu Jan 30 2020 15:39:15 GMT-0800 (Pacific Standard Time)","Thu Jan 30 2020 15:49:02 GMT-0800 (Pacific Standard Time)","Mozilla/5.0 (Windows NT 6.3; Win64; x64) AppleWebKit/537.36 (KHTML, like Gecko) Chrome/79.0.3945.130 Safari/537.36",21,"[0.9, 0.5, 0.1]","[0.8, 0.4, 0.2]","[u'blue', u'black', u'red']","[u'left', u'middle', u'right']","[0.9, 0.5, 0.1]","[u'medium', u'low', u'high']","red",51,"right","high","True","False",363,1350,NA
"A1BNGJBEWJS8WE","Thu Jan 30 2020 15:39:15 GMT-0800 (Pacific Standard Time)","Thu Jan 30 2020 15:49:02 GMT-0800 (Pacific Standard Time)","Mozilla/5.0 (Windows NT 6.3; Win64; x64) AppleWebKit/537.36 (KHTML, like Gecko) Chrome/79.0.3945.130 Safari/537.36",22,"[0.9, 0.5, 0.1]","[0.8, 0.4, 0.2]","[u'blue', u'black', u'red']","[u'left', u'middle', u'right']","[0.9, 0.5, 0.1]","[u'medium', u'low', u'high']","red",51,"right","high","True","False",450,1450,NA
"A1BNGJBEWJS8WE","Thu Jan 30 2020 15:39:15 GMT-0800 (Pacific Standard Time)","Thu Jan 30 2020 15:49:02 GMT-0800 (Pacific Standard Time)","Mozilla/5.0 (Windows NT 6.3; Win64; x64) AppleWebKit/537.36 (KHTML, like Gecko) Chrome/79.0.3945.130 Safari/537.36",23,"[0.9, 0.5, 0.1]","[0.8, 0.4, 0.2]","[u'blue', u'black', u'red']","[u'left', u'middle', u'right']","[0.9, 0.5, 0.1]","[u'medium', u'low', u'high']","red",51,"right","high","True","True",435,1550,NA
"A1BNGJBEWJS8WE","Thu Jan 30 2020 15:39:15 GMT-0800 (Pacific Standard Time)","Thu Jan 30 2020 15:49:02 GMT-0800 (Pacific Standard Time)","Mozilla/5.0 (Windows NT 6.3; Win64; x64) AppleWebKit/537.36 (KHTML, like Gecko) Chrome/79.0.3945.130 Safari/537.36",24,"[0.9, 0.5, 0.1]","[0.8, 0.4, 0.2]","[u'blue', u'black', u'red']","[u'left', u'middle', u'right']","[0.9, 0.5, 0.1]","[u'high', u'low', u'medium']","red",51,"right","medium","True","False",413,1650,NA
"A1BNGJBEWJS8WE","Thu Jan 30 2020 15:39:15 GMT-0800 (Pacific Standard Time)","Thu Jan 30 2020 15:49:02 GMT-0800 (Pacific Standard Time)","Mozilla/5.0 (Windows NT 6.3; Win64; x64) AppleWebKit/537.36 (KHTML, like Gecko) Chrome/79.0.3945.130 Safari/537.36",25,"[0.9, 0.5, 0.1]","[0.8, 0.4, 0.2]","[u'blue', u'black', u'red']","[u'left', u'middle', u'right']","[0.9, 0.5, 0.1]","[u'high', u'low', u'medium']","red",51,"right","medium","False","False",415,1600,NA
"A1BNGJBEWJS8WE","Thu Jan 30 2020 15:39:15 GMT-0800 (Pacific Standard Time)","Thu Jan 30 2020 15:49:02 GMT-0800 (Pacific Standard Time)","Mozilla/5.0 (Windows NT 6.3; Win64; x64) AppleWebKit/537.36 (KHTML, like Gecko) Chrome/79.0.3945.130 Safari/537.36",26,"[0.9, 0.5, 0.1]","[0.8, 0.4, 0.2]","[u'blue', u'black', u'red']","[u'left', u'middle', u'right']","[0.9, 0.5, 0.1]","[u'high', u'low', u'medium']","blue",49,"left","high","True","False",733,1700,NA
"A1BNGJBEWJS8WE","Thu Jan 30 2020 15:39:15 GMT-0800 (Pacific Standard Time)","Thu Jan 30 2020 15:49:02 GMT-0800 (Pacific Standard Time)","Mozilla/5.0 (Windows NT 6.3; Win64; x64) AppleWebKit/537.36 (KHTML, like Gecko) Chrome/79.0.3945.130 Safari/537.36",27,"[0.9, 0.5, 0.1]","[0.8, 0.4, 0.2]","[u'blue', u'black', u'red']","[u'left', u'middle', u'right']","[0.9, 0.5, 0.1]","[u'high', u'low', u'medium']","blue",49,"left","high","True","False",421,1800,NA
"A1BNGJBEWJS8WE","Thu Jan 30 2020 15:39:15 GMT-0800 (Pacific Standard Time)","Thu Jan 30 2020 15:49:02 GMT-0800 (Pacific Standard Time)","Mozilla/5.0 (Windows NT 6.3; Win64; x64) AppleWebKit/537.36 (KHTML, like Gecko) Chrome/79.0.3945.130 Safari/537.36",28,"[0.9, 0.5, 0.1]","[0.8, 0.4, 0.2]","[u'blue', u'black', u'red']","[u'left', u'middle', u'right']","[0.9, 0.5, 0.1]","[u'high', u'low', u'medium']","blue",49,"left","high","True","False",333,1900,NA
"A1BNGJBEWJS8WE","Thu Jan 30 2020 15:39:15 GMT-0800 (Pacific Standard Time)","Thu Jan 30 2020 15:49:02 GMT-0800 (Pacific Standard Time)","Mozilla/5.0 (Windows NT 6.3; Win64; x64) AppleWebKit/537.36 (KHTML, like Gecko) Chrome/79.0.3945.130 Safari/537.36",29,"[0.9, 0.5, 0.1]","[0.8, 0.4, 0.2]","[u'blue', u'black', u'red']","[u'left', u'middle', u'right']","[0.9, 0.5, 0.1]","[u'high', u'low', u'medium']","blue",49,"left","high","True","False",315,2000,NA
"A1BNGJBEWJS8WE","Thu Jan 30 2020 15:39:15 GMT-0800 (Pacific Standard Time)","Thu Jan 30 2020 15:49:02 GMT-0800 (Pacific Standard Time)","Mozilla/5.0 (Windows NT 6.3; Win64; x64) AppleWebKit/537.36 (KHTML, like Gecko) Chrome/79.0.3945.130 Safari/537.36",30,"[0.9, 0.5, 0.1]","[0.8, 0.4, 0.2]","[u'blue', u'black', u'red']","[u'left', u'middle', u'right']","[0.9, 0.5, 0.1]","[u'high', u'low', u'medium']","blue",49,"left","high","True","False",444,2100,NA
"A1BNGJBEWJS8WE","Thu Jan 30 2020 15:39:15 GMT-0800 (Pacific Standard Time)","Thu Jan 30 2020 15:49:02 GMT-0800 (Pacific Standard Time)","Mozilla/5.0 (Windows NT 6.3; Win64; x64) AppleWebKit/537.36 (KHTML, like Gecko) Chrome/79.0.3945.130 Safari/537.36",31,"[0.9, 0.5, 0.1]","[0.8, 0.4, 0.2]","[u'blue', u'black', u'red']","[u'left', u'middle', u'right']","[0.9, 0.5, 0.1]","[u'high', u'low', u'medium']","blue",49,"left","high","True","False",497,2200,NA
"A1BNGJBEWJS8WE","Thu Jan 30 2020 15:39:15 GMT-0800 (Pacific Standard Time)","Thu Jan 30 2020 15:49:02 GMT-0800 (Pacific Standard Time)","Mozilla/5.0 (Windows NT 6.3; Win64; x64) AppleWebKit/537.36 (KHTML, like Gecko) Chrome/79.0.3945.130 Safari/537.36",32,"[0.9, 0.5, 0.1]","[0.8, 0.4, 0.2]","[u'blue', u'black', u'red']","[u'left', u'middle', u'right']","[0.9, 0.5, 0.1]","[u'high', u'low', u'medium']","blue",49,"left","high","True","False",369,2300,NA
"A1BNGJBEWJS8WE","Thu Jan 30 2020 15:39:15 GMT-0800 (Pacific Standard Time)","Thu Jan 30 2020 15:49:02 GMT-0800 (Pacific Standard Time)","Mozilla/5.0 (Windows NT 6.3; Win64; x64) AppleWebKit/537.36 (KHTML, like Gecko) Chrome/79.0.3945.130 Safari/537.36",33,"[0.9, 0.5, 0.1]","[0.8, 0.4, 0.2]","[u'blue', u'black', u'red']","[u'left', u'middle', u'right']","[0.9, 0.5, 0.1]","[u'high', u'low', u'medium']","blue",49,"left","high","False","False",334,2250,NA
"A1BNGJBEWJS8WE","Thu Jan 30 2020 15:39:15 GMT-0800 (Pacific Standard Time)","Thu Jan 30 2020 15:49:02 GMT-0800 (Pacific Standard Time)","Mozilla/5.0 (Windows NT 6.3; Win64; x64) AppleWebKit/537.36 (KHTML, like Gecko) Chrome/79.0.3945.130 Safari/537.36",34,"[0.9, 0.5, 0.1]","[0.8, 0.4, 0.2]","[u'blue', u'black', u'red']","[u'left', u'middle', u'right']","[0.9, 0.5, 0.1]","[u'high', u'low', u'medium']","red",51,"right","medium","False","False",161,2200,NA
"A1BNGJBEWJS8WE","Thu Jan 30 2020 15:39:15 GMT-0800 (Pacific Standard Time)","Thu Jan 30 2020 15:49:02 GMT-0800 (Pacific Standard Time)","Mozilla/5.0 (Windows NT 6.3; Win64; x64) AppleWebKit/537.36 (KHTML, like Gecko) Chrome/79.0.3945.130 Safari/537.36",35,"[0.9, 0.5, 0.1]","[0.8, 0.4, 0.2]","[u'blue', u'black', u'red']","[u'left', u'middle', u'right']","[0.9, 0.5, 0.1]","[u'high', u'low', u'medium']","black",50,"middle","low","True","False",58,2300,NA
"A1BNGJBEWJS8WE","Thu Jan 30 2020 15:39:15 GMT-0800 (Pacific Standard Time)","Thu Jan 30 2020 15:49:02 GMT-0800 (Pacific Standard Time)","Mozilla/5.0 (Windows NT 6.3; Win64; x64) AppleWebKit/537.36 (KHTML, like Gecko) Chrome/79.0.3945.130 Safari/537.36",36,"[0.9, 0.5, 0.1]","[0.8, 0.4, 0.2]","[u'blue', u'black', u'red']","[u'left', u'middle', u'right']","[0.9, 0.5, 0.1]","[u'high', u'low', u'medium']","black",50,"middle","low","False","False",296,2250,NA
"A1BNGJBEWJS8WE","Thu Jan 30 2020 15:39:15 GMT-0800 (Pacific Standard Time)","Thu Jan 30 2020 15:49:02 GMT-0800 (Pacific Standard Time)","Mozilla/5.0 (Windows NT 6.3; Win64; x64) AppleWebKit/537.36 (KHTML, like Gecko) Chrome/79.0.3945.130 Safari/537.36",37,"[0.9, 0.5, 0.1]","[0.8, 0.4, 0.2]","[u'blue', u'black', u'red']","[u'left', u'middle', u'right']","[0.9, 0.5, 0.1]","[u'high', u'low', u'medium']","red",51,"right","medium","False","False",91,2200,NA
"A1BNGJBEWJS8WE","Thu Jan 30 2020 15:39:15 GMT-0800 (Pacific Standard Time)","Thu Jan 30 2020 15:49:02 GMT-0800 (Pacific Standard Time)","Mozilla/5.0 (Windows NT 6.3; Win64; x64) AppleWebKit/537.36 (KHTML, like Gecko) Chrome/79.0.3945.130 Safari/537.36",38,"[0.9, 0.5, 0.1]","[0.8, 0.4, 0.2]","[u'blue', u'black', u'red']","[u'left', u'middle', u'right']","[0.9, 0.5, 0.1]","[u'high', u'low', u'medium']","blue",49,"left","high","True","False",126,2300,NA
"A1BNGJBEWJS8WE","Thu Jan 30 2020 15:39:15 GMT-0800 (Pacific Standard Time)","Thu Jan 30 2020 15:49:02 GMT-0800 (Pacific Standard Time)","Mozilla/5.0 (Windows NT 6.3; Win64; x64) AppleWebKit/537.36 (KHTML, like Gecko) Chrome/79.0.3945.130 Safari/537.36",39,"[0.9, 0.5, 0.1]","[0.8, 0.4, 0.2]","[u'blue', u'black', u'red']","[u'left', u'middle', u'right']","[0.9, 0.5, 0.1]","[u'high', u'low', u'medium']","blue",49,"left","high","True","False",315,2400,NA
"A1BNGJBEWJS8WE","Thu Jan 30 2020 15:39:15 GMT-0800 (Pacific Standard Time)","Thu Jan 30 2020 15:49:02 GMT-0800 (Pacific Standard Time)","Mozilla/5.0 (Windows NT 6.3; Win64; x64) AppleWebKit/537.36 (KHTML, like Gecko) Chrome/79.0.3945.130 Safari/537.36",40,"[0.9, 0.5, 0.1]","[0.8, 0.4, 0.2]","[u'blue', u'black', u'red']","[u'left', u'middle', u'right']","[0.9, 0.5, 0.1]","[u'high', u'low', u'medium']","blue",49,"left","high","False","False",984,2350,NA
"A1BNGJBEWJS8WE","Thu Jan 30 2020 15:39:15 GMT-0800 (Pacific Standard Time)","Thu Jan 30 2020 15:49:02 GMT-0800 (Pacific Standard Time)","Mozilla/5.0 (Windows NT 6.3; Win64; x64) AppleWebKit/537.36 (KHTML, like Gecko) Chrome/79.0.3945.130 Safari/537.36",41,"[0.9, 0.5, 0.1]","[0.8, 0.4, 0.2]","[u'blue', u'black', u'red']","[u'left', u'middle', u'right']","[0.9, 0.5, 0.1]","[u'medium', u'high', u'low']","blue",49,"left","medium","True","False",1546,2450,NA
"A1BNGJBEWJS8WE","Thu Jan 30 2020 15:39:15 GMT-0800 (Pacific Standard Time)","Thu Jan 30 2020 15:49:02 GMT-0800 (Pacific Standard Time)","Mozilla/5.0 (Windows NT 6.3; Win64; x64) AppleWebKit/537.36 (KHTML, like Gecko) Chrome/79.0.3945.130 Safari/537.36",42,"[0.9, 0.5, 0.1]","[0.8, 0.4, 0.2]","[u'blue', u'black', u'red']","[u'left', u'middle', u'right']","[0.9, 0.5, 0.1]","[u'medium', u'high', u'low']","blue",49,"left","medium","False","False",433,2400,NA
"A1BNGJBEWJS8WE","Thu Jan 30 2020 15:39:15 GMT-0800 (Pacific Standard Time)","Thu Jan 30 2020 15:49:02 GMT-0800 (Pacific Standard Time)","Mozilla/5.0 (Windows NT 6.3; Win64; x64) AppleWebKit/537.36 (KHTML, like Gecko) Chrome/79.0.3945.130 Safari/537.36",43,"[0.9, 0.5, 0.1]","[0.8, 0.4, 0.2]","[u'blue', u'black', u'red']","[u'left', u'middle', u'right']","[0.9, 0.5, 0.1]","[u'medium', u'high', u'low']","black",50,"middle","high","True","False",421,2500,NA
"A1BNGJBEWJS8WE","Thu Jan 30 2020 15:39:15 GMT-0800 (Pacific Standard Time)","Thu Jan 30 2020 15:49:02 GMT-0800 (Pacific Standard Time)","Mozilla/5.0 (Windows NT 6.3; Win64; x64) AppleWebKit/537.36 (KHTML, like Gecko) Chrome/79.0.3945.130 Safari/537.36",44,"[0.9, 0.5, 0.1]","[0.8, 0.4, 0.2]","[u'blue', u'black', u'red']","[u'left', u'middle', u'right']","[0.9, 0.5, 0.1]","[u'medium', u'high', u'low']","black",50,"middle","high","True","False",505,2600,NA
"A1BNGJBEWJS8WE","Thu Jan 30 2020 15:39:15 GMT-0800 (Pacific Standard Time)","Thu Jan 30 2020 15:49:02 GMT-0800 (Pacific Standard Time)","Mozilla/5.0 (Windows NT 6.3; Win64; x64) AppleWebKit/537.36 (KHTML, like Gecko) Chrome/79.0.3945.130 Safari/537.36",45,"[0.9, 0.5, 0.1]","[0.8, 0.4, 0.2]","[u'blue', u'black', u'red']","[u'left', u'middle', u'right']","[0.9, 0.5, 0.1]","[u'medium', u'high', u'low']","black",50,"middle","high","False","False",404,2550,NA
"A1BNGJBEWJS8WE","Thu Jan 30 2020 15:39:15 GMT-0800 (Pacific Standard Time)","Thu Jan 30 2020 15:49:02 GMT-0800 (Pacific Standard Time)","Mozilla/5.0 (Windows NT 6.3; Win64; x64) AppleWebKit/537.36 (KHTML, like Gecko) Chrome/79.0.3945.130 Safari/537.36",46,"[0.9, 0.5, 0.1]","[0.8, 0.4, 0.2]","[u'blue', u'black', u'red']","[u'left', u'middle', u'right']","[0.9, 0.5, 0.1]","[u'medium', u'high', u'low']","red",51,"right","low","False","False",364,2500,NA
"A1BNGJBEWJS8WE","Thu Jan 30 2020 15:39:15 GMT-0800 (Pacific Standard Time)","Thu Jan 30 2020 15:49:02 GMT-0800 (Pacific Standard Time)","Mozilla/5.0 (Windows NT 6.3; Win64; x64) AppleWebKit/537.36 (KHTML, like Gecko) Chrome/79.0.3945.130 Safari/537.36",47,"[0.9, 0.5, 0.1]","[0.8, 0.4, 0.2]","[u'blue', u'black', u'red']","[u'left', u'middle', u'right']","[0.9, 0.5, 0.1]","[u'medium', u'high', u'low']","blue",49,"left","medium","False","False",333,2450,NA
"A1BNGJBEWJS8WE","Thu Jan 30 2020 15:39:15 GMT-0800 (Pacific Standard Time)","Thu Jan 30 2020 15:49:02 GMT-0800 (Pacific Standard Time)","Mozilla/5.0 (Windows NT 6.3; Win64; x64) AppleWebKit/537.36 (KHTML, like Gecko) Chrome/79.0.3945.130 Safari/537.36",48,"[0.9, 0.5, 0.1]","[0.8, 0.4, 0.2]","[u'blue', u'black', u'red']","[u'left', u'middle', u'right']","[0.9, 0.5, 0.1]","[u'medium', u'high', u'low']","red",51,"right","low","True","False",510,2550,NA
"A1BNGJBEWJS8WE","Thu Jan 30 2020 15:39:15 GMT-0800 (Pacific Standard Time)","Thu Jan 30 2020 15:49:02 GMT-0800 (Pacific Standard Time)","Mozilla/5.0 (Windows NT 6.3; Win64; x64) AppleWebKit/537.36 (KHTML, like Gecko) Chrome/79.0.3945.130 Safari/537.36",49,"[0.9, 0.5, 0.1]","[0.8, 0.4, 0.2]","[u'blue', u'black', u'red']","[u'left', u'middle', u'right']","[0.9, 0.5, 0.1]","[u'medium', u'high', u'low']","red",51,"right","low","True","False",443,2650,NA
"A1BNGJBEWJS8WE","Thu Jan 30 2020 15:39:15 GMT-0800 (Pacific Standard Time)","Thu Jan 30 2020 15:49:02 GMT-0800 (Pacific Standard Time)","Mozilla/5.0 (Windows NT 6.3; Win64; x64) AppleWebKit/537.36 (KHTML, like Gecko) Chrome/79.0.3945.130 Safari/537.36",50,"[0.9, 0.5, 0.1]","[0.8, 0.4, 0.2]","[u'blue', u'black', u'red']","[u'left', u'middle', u'right']","[0.9, 0.5, 0.1]","[u'medium', u'high', u'low']","red",51,"right","low","False","False",501,2600,NA
"A1BNGJBEWJS8WE","Thu Jan 30 2020 15:39:15 GMT-0800 (Pacific Standard Time)","Thu Jan 30 2020 15:49:02 GMT-0800 (Pacific Standard Time)","Mozilla/5.0 (Windows NT 6.3; Win64; x64) AppleWebKit/537.36 (KHTML, like Gecko) Chrome/79.0.3945.130 Safari/537.36",51,"[0.9, 0.5, 0.1]","[0.8, 0.4, 0.2]","[u'blue', u'black', u'red']","[u'left', u'middle', u'right']","[0.9, 0.5, 0.1]","[u'medium', u'high', u'low']","black",50,"middle","high","True","False",335,2700,NA
"A1BNGJBEWJS8WE","Thu Jan 30 2020 15:39:15 GMT-0800 (Pacific Standard Time)","Thu Jan 30 2020 15:49:02 GMT-0800 (Pacific Standard Time)","Mozilla/5.0 (Windows NT 6.3; Win64; x64) AppleWebKit/537.36 (KHTML, like Gecko) Chrome/79.0.3945.130 Safari/537.36",52,"[0.9, 0.5, 0.1]","[0.8, 0.4, 0.2]","[u'blue', u'black', u'red']","[u'left', u'middle', u'right']","[0.9, 0.5, 0.1]","[u'medium', u'high', u'low']","black",50,"middle","high","True","False",357,2800,NA
"A1BNGJBEWJS8WE","Thu Jan 30 2020 15:39:15 GMT-0800 (Pacific Standard Time)","Thu Jan 30 2020 15:49:02 GMT-0800 (Pacific Standard Time)","Mozilla/5.0 (Windows NT 6.3; Win64; x64) AppleWebKit/537.36 (KHTML, like Gecko) Chrome/79.0.3945.130 Safari/537.36",53,"[0.9, 0.5, 0.1]","[0.8, 0.4, 0.2]","[u'blue', u'black', u'red']","[u'left', u'middle', u'right']","[0.9, 0.5, 0.1]","[u'medium', u'high', u'low']","black",50,"middle","high","True","False",495,2900,NA
"A1BNGJBEWJS8WE","Thu Jan 30 2020 15:39:15 GMT-0800 (Pacific Standard Time)","Thu Jan 30 2020 15:49:02 GMT-0800 (Pacific Standard Time)","Mozilla/5.0 (Windows NT 6.3; Win64; x64) AppleWebKit/537.36 (KHTML, like Gecko) Chrome/79.0.3945.130 Safari/537.36",54,"[0.9, 0.5, 0.1]","[0.8, 0.4, 0.2]","[u'blue', u'black', u'red']","[u'left', u'middle', u'right']","[0.9, 0.5, 0.1]","[u'medium', u'high', u'low']","black",50,"middle","high","True","False",412,3000,NA
"A1BNGJBEWJS8WE","Thu Jan 30 2020 15:39:15 GMT-0800 (Pacific Standard Time)","Thu Jan 30 2020 15:49:02 GMT-0800 (Pacific Standard Time)","Mozilla/5.0 (Windows NT 6.3; Win64; x64) AppleWebKit/537.36 (KHTML, like Gecko) Chrome/79.0.3945.130 Safari/537.36",55,"[0.9, 0.5, 0.1]","[0.8, 0.4, 0.2]","[u'blue', u'black', u'red']","[u'left', u'middle', u'right']","[0.9, 0.5, 0.1]","[u'medium', u'high', u'low']","black",50,"middle","high","True","False",521,3100,NA
"A1BNGJBEWJS8WE","Thu Jan 30 2020 15:39:15 GMT-0800 (Pacific Standard Time)","Thu Jan 30 2020 15:49:02 GMT-0800 (Pacific Standard Time)","Mozilla/5.0 (Windows NT 6.3; Win64; x64) AppleWebKit/537.36 (KHTML, like Gecko) Chrome/79.0.3945.130 Safari/537.36",56,"[0.9, 0.5, 0.1]","[0.8, 0.4, 0.2]","[u'blue', u'black', u'red']","[u'left', u'middle', u'right']","[0.9, 0.5, 0.1]","[u'medium', u'high', u'low']","black",50,"middle","high","False","False",363,3050,NA
"A1BNGJBEWJS8WE","Thu Jan 30 2020 15:39:15 GMT-0800 (Pacific Standard Time)","Thu Jan 30 2020 15:49:02 GMT-0800 (Pacific Standard Time)","Mozilla/5.0 (Windows NT 6.3; Win64; x64) AppleWebKit/537.36 (KHTML, like Gecko) Chrome/79.0.3945.130 Safari/537.36",57,"[0.9, 0.5, 0.1]","[0.8, 0.4, 0.2]","[u'blue', u'black', u'red']","[u'left', u'middle', u'right']","[0.9, 0.5, 0.1]","[u'medium', u'high', u'low']","blue",49,"left","medium","False","False",477,3000,NA
"A1BNGJBEWJS8WE","Thu Jan 30 2020 15:39:15 GMT-0800 (Pacific Standard Time)","Thu Jan 30 2020 15:49:02 GMT-0800 (Pacific Standard Time)","Mozilla/5.0 (Windows NT 6.3; Win64; x64) AppleWebKit/537.36 (KHTML, like Gecko) Chrome/79.0.3945.130 Safari/537.36",58,"[0.9, 0.5, 0.1]","[0.8, 0.4, 0.2]","[u'blue', u'black', u'red']","[u'left', u'middle', u'right']","[0.9, 0.5, 0.1]","[u'medium', u'high', u'low']","red",51,"right","low","False","False",48,2950,NA
"A1BNGJBEWJS8WE","Thu Jan 30 2020 15:39:15 GMT-0800 (Pacific Standard Time)","Thu Jan 30 2020 15:49:02 GMT-0800 (Pacific Standard Time)","Mozilla/5.0 (Windows NT 6.3; Win64; x64) AppleWebKit/537.36 (KHTML, like Gecko) Chrome/79.0.3945.130 Safari/537.36",59,"[0.9, 0.5, 0.1]","[0.8, 0.4, 0.2]","[u'blue', u'black', u'red']","[u'left', u'middle', u'right']","[0.9, 0.5, 0.1]","[u'medium', u'high', u'low']","black",50,"middle","high","False","False",14,2900,NA
"A1BNGJBEWJS8WE","Thu Jan 30 2020 15:39:15 GMT-0800 (Pacific Standard Time)","Thu Jan 30 2020 15:49:02 GMT-0800 (Pacific Standard Time)","Mozilla/5.0 (Windows NT 6.3; Win64; x64) AppleWebKit/537.36 (KHTML, like Gecko) Chrome/79.0.3945.130 Safari/537.36",60,"[0.9, 0.5, 0.1]","[0.8, 0.4, 0.2]","[u'blue', u'black', u'red']","[u'left', u'middle', u'right']","[0.9, 0.5, 0.1]","[u'medium', u'high', u'low']","blue",49,"left","medium","True","False",258,3000,NA
"A1BNGJBEWJS8WE","Thu Jan 30 2020 15:39:15 GMT-0800 (Pacific Standard Time)","Thu Jan 30 2020 15:49:02 GMT-0800 (Pacific Standard Time)","Mozilla/5.0 (Windows NT 6.3; Win64; x64) AppleWebKit/537.36 (KHTML, like Gecko) Chrome/79.0.3945.130 Safari/537.36",61,"[0.9, 0.5, 0.1]","[0.8, 0.4, 0.2]","[u'blue', u'black', u'red']","[u'left', u'middle', u'right']","[0.9, 0.5, 0.1]","[u'medium', u'high', u'low']","blue",49,"left","medium","False","False",331,2950,NA
"A1BNGJBEWJS8WE","Thu Jan 30 2020 15:39:15 GMT-0800 (Pacific Standard Time)","Thu Jan 30 2020 15:49:02 GMT-0800 (Pacific Standard Time)","Mozilla/5.0 (Windows NT 6.3; Win64; x64) AppleWebKit/537.36 (KHTML, like Gecko) Chrome/79.0.3945.130 Safari/537.36",62,"[0.9, 0.5, 0.1]","[0.8, 0.4, 0.2]","[u'blue', u'black', u'red']","[u'left', u'middle', u'right']","[0.9, 0.5, 0.1]","[u'medium', u'high', u'low']","red",51,"right","low","False","False",436,2900,NA
"A1BNGJBEWJS8WE","Thu Jan 30 2020 15:39:15 GMT-0800 (Pacific Standard Time)","Thu Jan 30 2020 15:49:02 GMT-0800 (Pacific Standard Time)","Mozilla/5.0 (Windows NT 6.3; Win64; x64) AppleWebKit/537.36 (KHTML, like Gecko) Chrome/79.0.3945.130 Safari/537.36",63,"[0.9, 0.5, 0.1]","[0.8, 0.4, 0.2]","[u'blue', u'black', u'red']","[u'left', u'middle', u'right']","[0.9, 0.5, 0.1]","[u'medium', u'high', u'low']","black",50,"middle","high","True","False",384,3000,NA
"A1BNGJBEWJS8WE","Thu Jan 30 2020 15:39:15 GMT-0800 (Pacific Standard Time)","Thu Jan 30 2020 15:49:02 GMT-0800 (Pacific Standard Time)","Mozilla/5.0 (Windows NT 6.3; Win64; x64) AppleWebKit/537.36 (KHTML, like Gecko) Chrome/79.0.3945.130 Safari/537.36",64,"[0.9, 0.5, 0.1]","[0.8, 0.4, 0.2]","[u'blue', u'black', u'red']","[u'left', u'middle', u'right']","[0.9, 0.5, 0.1]","[u'medium', u'high', u'low']","black",50,"middle","high","True","False",371,3100,NA
"A1BNGJBEWJS8WE","Thu Jan 30 2020 15:39:15 GMT-0800 (Pacific Standard Time)","Thu Jan 30 2020 15:49:02 GMT-0800 (Pacific Standard Time)","Mozilla/5.0 (Windows NT 6.3; Win64; x64) AppleWebKit/537.36 (KHTML, like Gecko) Chrome/79.0.3945.130 Safari/537.36",65,"[0.9, 0.5, 0.1]","[0.8, 0.4, 0.2]","[u'blue', u'black', u'red']","[u'left', u'middle', u'right']","[0.9, 0.5, 0.1]","[u'medium', u'high', u'low']","black",50,"middle","high","True","False",454,3200,NA
"A1BNGJBEWJS8WE","Thu Jan 30 2020 15:39:15 GMT-0800 (Pacific Standard Time)","Thu Jan 30 2020 15:49:02 GMT-0800 (Pacific Standard Time)","Mozilla/5.0 (Windows NT 6.3; Win64; x64) AppleWebKit/537.36 (KHTML, like Gecko) Chrome/79.0.3945.130 Safari/537.36",66,"[0.9, 0.5, 0.1]","[0.8, 0.4, 0.2]","[u'blue', u'black', u'red']","[u'left', u'middle', u'right']","[0.9, 0.5, 0.1]","[u'medium', u'high', u'low']","black",50,"middle","high","True","False",389,3300,NA
"A1BNGJBEWJS8WE","Thu Jan 30 2020 15:39:15 GMT-0800 (Pacific Standard Time)","Thu Jan 30 2020 15:49:02 GMT-0800 (Pacific Standard Time)","Mozilla/5.0 (Windows NT 6.3; Win64; x64) AppleWebKit/537.36 (KHTML, like Gecko) Chrome/79.0.3945.130 Safari/537.36",67,"[0.9, 0.5, 0.1]","[0.8, 0.4, 0.2]","[u'blue', u'black', u'red']","[u'left', u'middle', u'right']","[0.9, 0.5, 0.1]","[u'medium', u'high', u'low']","black",50,"middle","high","True","False",414,3400,NA
"A1BNGJBEWJS8WE","Thu Jan 30 2020 15:39:15 GMT-0800 (Pacific Standard Time)","Thu Jan 30 2020 15:49:02 GMT-0800 (Pacific Standard Time)","Mozilla/5.0 (Windows NT 6.3; Win64; x64) AppleWebKit/537.36 (KHTML, like Gecko) Chrome/79.0.3945.130 Safari/537.36",68,"[0.9, 0.5, 0.1]","[0.8, 0.4, 0.2]","[u'blue', u'black', u'red']","[u'left', u'middle', u'right']","[0.9, 0.5, 0.1]","[u'medium', u'high', u'low']","black",50,"middle","high","True","False",418,3500,NA
"A1BNGJBEWJS8WE","Thu Jan 30 2020 15:39:15 GMT-0800 (Pacific Standard Time)","Thu Jan 30 2020 15:49:02 GMT-0800 (Pacific Standard Time)","Mozilla/5.0 (Windows NT 6.3; Win64; x64) AppleWebKit/537.36 (KHTML, like Gecko) Chrome/79.0.3945.130 Safari/537.36",69,"[0.9, 0.5, 0.1]","[0.8, 0.4, 0.2]","[u'blue', u'black', u'red']","[u'left', u'middle', u'right']","[0.9, 0.5, 0.1]","[u'medium', u'high', u'low']","black",50,"middle","high","True","False",392,3600,NA
"A1BNGJBEWJS8WE","Thu Jan 30 2020 15:39:15 GMT-0800 (Pacific Standard Time)","Thu Jan 30 2020 15:49:02 GMT-0800 (Pacific Standard Time)","Mozilla/5.0 (Windows NT 6.3; Win64; x64) AppleWebKit/537.36 (KHTML, like Gecko) Chrome/79.0.3945.130 Safari/537.36",70,"[0.9, 0.5, 0.1]","[0.8, 0.4, 0.2]","[u'blue', u'black', u'red']","[u'left', u'middle', u'right']","[0.9, 0.5, 0.1]","[u'medium', u'high', u'low']","black",50,"middle","high","True","False",392,3700,NA
"A1BNGJBEWJS8WE","Thu Jan 30 2020 15:39:15 GMT-0800 (Pacific Standard Time)","Thu Jan 30 2020 15:49:02 GMT-0800 (Pacific Standard Time)","Mozilla/5.0 (Windows NT 6.3; Win64; x64) AppleWebKit/537.36 (KHTML, like Gecko) Chrome/79.0.3945.130 Safari/537.36",71,"[0.9, 0.5, 0.1]","[0.8, 0.4, 0.2]","[u'blue', u'black', u'red']","[u'left', u'middle', u'right']","[0.9, 0.5, 0.1]","[u'medium', u'high', u'low']","black",50,"middle","high","True","True",417,3800,NA
"A1BNGJBEWJS8WE","Thu Jan 30 2020 15:39:15 GMT-0800 (Pacific Standard Time)","Thu Jan 30 2020 15:49:02 GMT-0800 (Pacific Standard Time)","Mozilla/5.0 (Windows NT 6.3; Win64; x64) AppleWebKit/537.36 (KHTML, like Gecko) Chrome/79.0.3945.130 Safari/537.36",72,"[0.9, 0.5, 0.1]","[0.8, 0.4, 0.2]","[u'blue', u'black', u'red']","[u'left', u'middle', u'right']","[0.9, 0.5, 0.1]","[u'high', u'low', u'medium']","black",50,"middle","low","False","False",300,3750,NA
"A1BNGJBEWJS8WE","Thu Jan 30 2020 15:39:15 GMT-0800 (Pacific Standard Time)","Thu Jan 30 2020 15:49:02 GMT-0800 (Pacific Standard Time)","Mozilla/5.0 (Windows NT 6.3; Win64; x64) AppleWebKit/537.36 (KHTML, like Gecko) Chrome/79.0.3945.130 Safari/537.36",73,"[0.9, 0.5, 0.1]","[0.8, 0.4, 0.2]","[u'blue', u'black', u'red']","[u'left', u'middle', u'right']","[0.9, 0.5, 0.1]","[u'high', u'low', u'medium']","red",51,"right","medium","False","False",297,3700,NA
"A1BNGJBEWJS8WE","Thu Jan 30 2020 15:39:15 GMT-0800 (Pacific Standard Time)","Thu Jan 30 2020 15:49:02 GMT-0800 (Pacific Standard Time)","Mozilla/5.0 (Windows NT 6.3; Win64; x64) AppleWebKit/537.36 (KHTML, like Gecko) Chrome/79.0.3945.130 Safari/537.36",74,"[0.9, 0.5, 0.1]","[0.8, 0.4, 0.2]","[u'blue', u'black', u'red']","[u'left', u'middle', u'right']","[0.9, 0.5, 0.1]","[u'high', u'low', u'medium']","blue",49,"left","high","True","False",156,3800,NA
"A1BNGJBEWJS8WE","Thu Jan 30 2020 15:39:15 GMT-0800 (Pacific Standard Time)","Thu Jan 30 2020 15:49:02 GMT-0800 (Pacific Standard Time)","Mozilla/5.0 (Windows NT 6.3; Win64; x64) AppleWebKit/537.36 (KHTML, like Gecko) Chrome/79.0.3945.130 Safari/537.36",75,"[0.9, 0.5, 0.1]","[0.8, 0.4, 0.2]","[u'blue', u'black', u'red']","[u'left', u'middle', u'right']","[0.9, 0.5, 0.1]","[u'high', u'low', u'medium']","blue",49,"left","high","True","False",354,3900,NA
"A1BNGJBEWJS8WE","Thu Jan 30 2020 15:39:15 GMT-0800 (Pacific Standard Time)","Thu Jan 30 2020 15:49:02 GMT-0800 (Pacific Standard Time)","Mozilla/5.0 (Windows NT 6.3; Win64; x64) AppleWebKit/537.36 (KHTML, like Gecko) Chrome/79.0.3945.130 Safari/537.36",76,"[0.9, 0.5, 0.1]","[0.8, 0.4, 0.2]","[u'blue', u'black', u'red']","[u'left', u'middle', u'right']","[0.9, 0.5, 0.1]","[u'high', u'low', u'medium']","blue",49,"left","high","True","False",466,4000,NA
"A1BNGJBEWJS8WE","Thu Jan 30 2020 15:39:15 GMT-0800 (Pacific Standard Time)","Thu Jan 30 2020 15:49:02 GMT-0800 (Pacific Standard Time)","Mozilla/5.0 (Windows NT 6.3; Win64; x64) AppleWebKit/537.36 (KHTML, like Gecko) Chrome/79.0.3945.130 Safari/537.36",77,"[0.9, 0.5, 0.1]","[0.8, 0.4, 0.2]","[u'blue', u'black', u'red']","[u'left', u'middle', u'right']","[0.9, 0.5, 0.1]","[u'high', u'low', u'medium']","blue",49,"left","high","False","False",402,3950,NA
"A1BNGJBEWJS8WE","Thu Jan 30 2020 15:39:15 GMT-0800 (Pacific Standard Time)","Thu Jan 30 2020 15:49:02 GMT-0800 (Pacific Standard Time)","Mozilla/5.0 (Windows NT 6.3; Win64; x64) AppleWebKit/537.36 (KHTML, like Gecko) Chrome/79.0.3945.130 Safari/537.36",78,"[0.9, 0.5, 0.1]","[0.8, 0.4, 0.2]","[u'blue', u'black', u'red']","[u'left', u'middle', u'right']","[0.9, 0.5, 0.1]","[u'high', u'low', u'medium']","red",51,"right","medium","True","False",419,4050,NA
"A1BNGJBEWJS8WE","Thu Jan 30 2020 15:39:15 GMT-0800 (Pacific Standard Time)","Thu Jan 30 2020 15:49:02 GMT-0800 (Pacific Standard Time)","Mozilla/5.0 (Windows NT 6.3; Win64; x64) AppleWebKit/537.36 (KHTML, like Gecko) Chrome/79.0.3945.130 Safari/537.36",79,"[0.9, 0.5, 0.1]","[0.8, 0.4, 0.2]","[u'blue', u'black', u'red']","[u'left', u'middle', u'right']","[0.9, 0.5, 0.1]","[u'high', u'low', u'medium']","red",51,"right","medium","True","False",406,4150,NA
"A1BNGJBEWJS8WE","Thu Jan 30 2020 15:39:15 GMT-0800 (Pacific Standard Time)","Thu Jan 30 2020 15:49:02 GMT-0800 (Pacific Standard Time)","Mozilla/5.0 (Windows NT 6.3; Win64; x64) AppleWebKit/537.36 (KHTML, like Gecko) Chrome/79.0.3945.130 Safari/537.36",80,"[0.9, 0.5, 0.1]","[0.8, 0.4, 0.2]","[u'blue', u'black', u'red']","[u'left', u'middle', u'right']","[0.9, 0.5, 0.1]","[u'high', u'low', u'medium']","red",51,"right","medium","False","False",297,4100,NA
"A1BNGJBEWJS8WE","Thu Jan 30 2020 15:39:15 GMT-0800 (Pacific Standard Time)","Thu Jan 30 2020 15:49:02 GMT-0800 (Pacific Standard Time)","Mozilla/5.0 (Windows NT 6.3; Win64; x64) AppleWebKit/537.36 (KHTML, like Gecko) Chrome/79.0.3945.130 Safari/537.36",81,"[0.9, 0.5, 0.1]","[0.8, 0.4, 0.2]","[u'blue', u'black', u'red']","[u'left', u'middle', u'right']","[0.8, 0.4, 0.2]","[u'low', u'medium', u'high']","blue",49,"left","low","False","False",796,4050,NA
"A1BNGJBEWJS8WE","Thu Jan 30 2020 15:39:15 GMT-0800 (Pacific Standard Time)","Thu Jan 30 2020 15:49:02 GMT-0800 (Pacific Standard Time)","Mozilla/5.0 (Windows NT 6.3; Win64; x64) AppleWebKit/537.36 (KHTML, like Gecko) Chrome/79.0.3945.130 Safari/537.36",82,"[0.9, 0.5, 0.1]","[0.8, 0.4, 0.2]","[u'blue', u'black', u'red']","[u'left', u'middle', u'right']","[0.8, 0.4, 0.2]","[u'low', u'medium', u'high']","red",51,"right","high","True","False",118,4150,NA
"A1BNGJBEWJS8WE","Thu Jan 30 2020 15:39:15 GMT-0800 (Pacific Standard Time)","Thu Jan 30 2020 15:49:02 GMT-0800 (Pacific Standard Time)","Mozilla/5.0 (Windows NT 6.3; Win64; x64) AppleWebKit/537.36 (KHTML, like Gecko) Chrome/79.0.3945.130 Safari/537.36",83,"[0.9, 0.5, 0.1]","[0.8, 0.4, 0.2]","[u'blue', u'black', u'red']","[u'left', u'middle', u'right']","[0.8, 0.4, 0.2]","[u'low', u'medium', u'high']","red",51,"right","high","True","False",359,4250,NA
"A1BNGJBEWJS8WE","Thu Jan 30 2020 15:39:15 GMT-0800 (Pacific Standard Time)","Thu Jan 30 2020 15:49:02 GMT-0800 (Pacific Standard Time)","Mozilla/5.0 (Windows NT 6.3; Win64; x64) AppleWebKit/537.36 (KHTML, like Gecko) Chrome/79.0.3945.130 Safari/537.36",84,"[0.9, 0.5, 0.1]","[0.8, 0.4, 0.2]","[u'blue', u'black', u'red']","[u'left', u'middle', u'right']","[0.8, 0.4, 0.2]","[u'low', u'medium', u'high']","red",51,"right","high","False","False",379,4200,NA
"A1BNGJBEWJS8WE","Thu Jan 30 2020 15:39:15 GMT-0800 (Pacific Standard Time)","Thu Jan 30 2020 15:49:02 GMT-0800 (Pacific Standard Time)","Mozilla/5.0 (Windows NT 6.3; Win64; x64) AppleWebKit/537.36 (KHTML, like Gecko) Chrome/79.0.3945.130 Safari/537.36",85,"[0.9, 0.5, 0.1]","[0.8, 0.4, 0.2]","[u'blue', u'black', u'red']","[u'left', u'middle', u'right']","[0.8, 0.4, 0.2]","[u'low', u'medium', u'high']","black",50,"middle","medium","False","False",387,4150,NA
"A1BNGJBEWJS8WE","Thu Jan 30 2020 15:39:15 GMT-0800 (Pacific Standard Time)","Thu Jan 30 2020 15:49:02 GMT-0800 (Pacific Standard Time)","Mozilla/5.0 (Windows NT 6.3; Win64; x64) AppleWebKit/537.36 (KHTML, like Gecko) Chrome/79.0.3945.130 Safari/537.36",86,"[0.9, 0.5, 0.1]","[0.8, 0.4, 0.2]","[u'blue', u'black', u'red']","[u'left', u'middle', u'right']","[0.8, 0.4, 0.2]","[u'low', u'medium', u'high']","blue",49,"left","low","False","False",351,4100,NA
"A1BNGJBEWJS8WE","Thu Jan 30 2020 15:39:15 GMT-0800 (Pacific Standard Time)","Thu Jan 30 2020 15:49:02 GMT-0800 (Pacific Standard Time)","Mozilla/5.0 (Windows NT 6.3; Win64; x64) AppleWebKit/537.36 (KHTML, like Gecko) Chrome/79.0.3945.130 Safari/537.36",87,"[0.9, 0.5, 0.1]","[0.8, 0.4, 0.2]","[u'blue', u'black', u'red']","[u'left', u'middle', u'right']","[0.8, 0.4, 0.2]","[u'low', u'medium', u'high']","red",51,"right","high","True","False",61,4200,NA
"A1BNGJBEWJS8WE","Thu Jan 30 2020 15:39:15 GMT-0800 (Pacific Standard Time)","Thu Jan 30 2020 15:49:02 GMT-0800 (Pacific Standard Time)","Mozilla/5.0 (Windows NT 6.3; Win64; x64) AppleWebKit/537.36 (KHTML, like Gecko) Chrome/79.0.3945.130 Safari/537.36",88,"[0.9, 0.5, 0.1]","[0.8, 0.4, 0.2]","[u'blue', u'black', u'red']","[u'left', u'middle', u'right']","[0.8, 0.4, 0.2]","[u'low', u'medium', u'high']","red",51,"right","high","True","False",606,4300,NA
"A1BNGJBEWJS8WE","Thu Jan 30 2020 15:39:15 GMT-0800 (Pacific Standard Time)","Thu Jan 30 2020 15:49:02 GMT-0800 (Pacific Standard Time)","Mozilla/5.0 (Windows NT 6.3; Win64; x64) AppleWebKit/537.36 (KHTML, like Gecko) Chrome/79.0.3945.130 Safari/537.36",89,"[0.9, 0.5, 0.1]","[0.8, 0.4, 0.2]","[u'blue', u'black', u'red']","[u'left', u'middle', u'right']","[0.8, 0.4, 0.2]","[u'low', u'medium', u'high']","red",51,"right","high","True","False",424,4400,NA
"A1BNGJBEWJS8WE","Thu Jan 30 2020 15:39:15 GMT-0800 (Pacific Standard Time)","Thu Jan 30 2020 15:49:02 GMT-0800 (Pacific Standard Time)","Mozilla/5.0 (Windows NT 6.3; Win64; x64) AppleWebKit/537.36 (KHTML, like Gecko) Chrome/79.0.3945.130 Safari/537.36",90,"[0.9, 0.5, 0.1]","[0.8, 0.4, 0.2]","[u'blue', u'black', u'red']","[u'left', u'middle', u'right']","[0.8, 0.4, 0.2]","[u'low', u'medium', u'high']","red",51,"right","high","True","False",368,4500,NA
"A1BNGJBEWJS8WE","Thu Jan 30 2020 15:39:15 GMT-0800 (Pacific Standard Time)","Thu Jan 30 2020 15:49:02 GMT-0800 (Pacific Standard Time)","Mozilla/5.0 (Windows NT 6.3; Win64; x64) AppleWebKit/537.36 (KHTML, like Gecko) Chrome/79.0.3945.130 Safari/537.36",91,"[0.9, 0.5, 0.1]","[0.8, 0.4, 0.2]","[u'blue', u'black', u'red']","[u'left', u'middle', u'right']","[0.8, 0.4, 0.2]","[u'low', u'medium', u'high']","red",51,"right","high","True","False",363,4600,NA
"A1BNGJBEWJS8WE","Thu Jan 30 2020 15:39:15 GMT-0800 (Pacific Standard Time)","Thu Jan 30 2020 15:49:02 GMT-0800 (Pacific Standard Time)","Mozilla/5.0 (Windows NT 6.3; Win64; x64) AppleWebKit/537.36 (KHTML, like Gecko) Chrome/79.0.3945.130 Safari/537.36",92,"[0.9, 0.5, 0.1]","[0.8, 0.4, 0.2]","[u'blue', u'black', u'red']","[u'left', u'middle', u'right']","[0.8, 0.4, 0.2]","[u'low', u'medium', u'high']","red",51,"right","high","True","False",481,4700,NA
"A1BNGJBEWJS8WE","Thu Jan 30 2020 15:39:15 GMT-0800 (Pacific Standard Time)","Thu Jan 30 2020 15:49:02 GMT-0800 (Pacific Standard Time)","Mozilla/5.0 (Windows NT 6.3; Win64; x64) AppleWebKit/537.36 (KHTML, like Gecko) Chrome/79.0.3945.130 Safari/537.36",93,"[0.9, 0.5, 0.1]","[0.8, 0.4, 0.2]","[u'blue', u'black', u'red']","[u'left', u'middle', u'right']","[0.8, 0.4, 0.2]","[u'low', u'medium', u'high']","red",51,"right","high","True","False",362,4800,NA
"A1BNGJBEWJS8WE","Thu Jan 30 2020 15:39:15 GMT-0800 (Pacific Standard Time)","Thu Jan 30 2020 15:49:02 GMT-0800 (Pacific Standard Time)","Mozilla/5.0 (Windows NT 6.3; Win64; x64) AppleWebKit/537.36 (KHTML, like Gecko) Chrome/79.0.3945.130 Safari/537.36",94,"[0.9, 0.5, 0.1]","[0.8, 0.4, 0.2]","[u'blue', u'black', u'red']","[u'left', u'middle', u'right']","[0.8, 0.4, 0.2]","[u'low', u'medium', u'high']","red",51,"right","high","True","False",514,4900,NA
"A1BNGJBEWJS8WE","Thu Jan 30 2020 15:39:15 GMT-0800 (Pacific Standard Time)","Thu Jan 30 2020 15:49:02 GMT-0800 (Pacific Standard Time)","Mozilla/5.0 (Windows NT 6.3; Win64; x64) AppleWebKit/537.36 (KHTML, like Gecko) Chrome/79.0.3945.130 Safari/537.36",95,"[0.9, 0.5, 0.1]","[0.8, 0.4, 0.2]","[u'blue', u'black', u'red']","[u'left', u'middle', u'right']","[0.8, 0.4, 0.2]","[u'low', u'medium', u'high']","red",51,"right","high","False","True",309,4850,NA
"A1BNGJBEWJS8WE","Thu Jan 30 2020 15:39:15 GMT-0800 (Pacific Standard Time)","Thu Jan 30 2020 15:49:02 GMT-0800 (Pacific Standard Time)","Mozilla/5.0 (Windows NT 6.3; Win64; x64) AppleWebKit/537.36 (KHTML, like Gecko) Chrome/79.0.3945.130 Safari/537.36",96,"[0.9, 0.5, 0.1]","[0.8, 0.4, 0.2]","[u'blue', u'black', u'red']","[u'left', u'middle', u'right']","[0.8, 0.4, 0.2]","[u'high', u'low', u'medium']","black",50,"middle","low","True","False",375,4950,NA
"A1BNGJBEWJS8WE","Thu Jan 30 2020 15:39:15 GMT-0800 (Pacific Standard Time)","Thu Jan 30 2020 15:49:02 GMT-0800 (Pacific Standard Time)","Mozilla/5.0 (Windows NT 6.3; Win64; x64) AppleWebKit/537.36 (KHTML, like Gecko) Chrome/79.0.3945.130 Safari/537.36",97,"[0.9, 0.5, 0.1]","[0.8, 0.4, 0.2]","[u'blue', u'black', u'red']","[u'left', u'middle', u'right']","[0.8, 0.4, 0.2]","[u'high', u'low', u'medium']","black",50,"middle","low","False","False",439,4900,NA
"A1BNGJBEWJS8WE","Thu Jan 30 2020 15:39:15 GMT-0800 (Pacific Standard Time)","Thu Jan 30 2020 15:49:02 GMT-0800 (Pacific Standard Time)","Mozilla/5.0 (Windows NT 6.3; Win64; x64) AppleWebKit/537.36 (KHTML, like Gecko) Chrome/79.0.3945.130 Safari/537.36",98,"[0.9, 0.5, 0.1]","[0.8, 0.4, 0.2]","[u'blue', u'black', u'red']","[u'left', u'middle', u'right']","[0.8, 0.4, 0.2]","[u'high', u'low', u'medium']","red",51,"right","medium","False","False",401,4850,NA
"A1BNGJBEWJS8WE","Thu Jan 30 2020 15:39:15 GMT-0800 (Pacific Standard Time)","Thu Jan 30 2020 15:49:02 GMT-0800 (Pacific Standard Time)","Mozilla/5.0 (Windows NT 6.3; Win64; x64) AppleWebKit/537.36 (KHTML, like Gecko) Chrome/79.0.3945.130 Safari/537.36",99,"[0.9, 0.5, 0.1]","[0.8, 0.4, 0.2]","[u'blue', u'black', u'red']","[u'left', u'middle', u'right']","[0.8, 0.4, 0.2]","[u'high', u'low', u'medium']","blue",49,"left","high","False","False",113,4800,NA
"A1BNGJBEWJS8WE","Thu Jan 30 2020 15:39:15 GMT-0800 (Pacific Standard Time)","Thu Jan 30 2020 15:49:02 GMT-0800 (Pacific Standard Time)","Mozilla/5.0 (Windows NT 6.3; Win64; x64) AppleWebKit/537.36 (KHTML, like Gecko) Chrome/79.0.3945.130 Safari/537.36",100,"[0.9, 0.5, 0.1]","[0.8, 0.4, 0.2]","[u'blue', u'black', u'red']","[u'left', u'middle', u'right']","[0.8, 0.4, 0.2]","[u'high', u'low', u'medium']","black",50,"middle","low","False","False",364,4750,NA
"A1BNGJBEWJS8WE","Thu Jan 30 2020 15:39:15 GMT-0800 (Pacific Standard Time)","Thu Jan 30 2020 15:49:02 GMT-0800 (Pacific Standard Time)","Mozilla/5.0 (Windows NT 6.3; Win64; x64) AppleWebKit/537.36 (KHTML, like Gecko) Chrome/79.0.3945.130 Safari/537.36",101,"[0.9, 0.5, 0.1]","[0.8, 0.4, 0.2]","[u'blue', u'black', u'red']","[u'left', u'middle', u'right']","[0.8, 0.4, 0.2]","[u'high', u'low', u'medium']","red",51,"right","medium","False","False",332,4700,NA
"A1BNGJBEWJS8WE","Thu Jan 30 2020 15:39:15 GMT-0800 (Pacific Standard Time)","Thu Jan 30 2020 15:49:02 GMT-0800 (Pacific Standard Time)","Mozilla/5.0 (Windows NT 6.3; Win64; x64) AppleWebKit/537.36 (KHTML, like Gecko) Chrome/79.0.3945.130 Safari/537.36",102,"[0.9, 0.5, 0.1]","[0.8, 0.4, 0.2]","[u'blue', u'black', u'red']","[u'left', u'middle', u'right']","[0.8, 0.4, 0.2]","[u'high', u'low', u'medium']","black",50,"middle","low","False","False",424,4650,NA
"A1BNGJBEWJS8WE","Thu Jan 30 2020 15:39:15 GMT-0800 (Pacific Standard Time)","Thu Jan 30 2020 15:49:02 GMT-0800 (Pacific Standard Time)","Mozilla/5.0 (Windows NT 6.3; Win64; x64) AppleWebKit/537.36 (KHTML, like Gecko) Chrome/79.0.3945.130 Safari/537.36",103,"[0.9, 0.5, 0.1]","[0.8, 0.4, 0.2]","[u'blue', u'black', u'red']","[u'left', u'middle', u'right']","[0.8, 0.4, 0.2]","[u'high', u'low', u'medium']","blue",49,"left","high","True","False",140,4750,NA
"A1BNGJBEWJS8WE","Thu Jan 30 2020 15:39:15 GMT-0800 (Pacific Standard Time)","Thu Jan 30 2020 15:49:02 GMT-0800 (Pacific Standard Time)","Mozilla/5.0 (Windows NT 6.3; Win64; x64) AppleWebKit/537.36 (KHTML, like Gecko) Chrome/79.0.3945.130 Safari/537.36",104,"[0.9, 0.5, 0.1]","[0.8, 0.4, 0.2]","[u'blue', u'black', u'red']","[u'left', u'middle', u'right']","[0.8, 0.4, 0.2]","[u'high', u'low', u'medium']","blue",49,"left","high","True","False",529,4850,NA
"A1BNGJBEWJS8WE","Thu Jan 30 2020 15:39:15 GMT-0800 (Pacific Standard Time)","Thu Jan 30 2020 15:49:02 GMT-0800 (Pacific Standard Time)","Mozilla/5.0 (Windows NT 6.3; Win64; x64) AppleWebKit/537.36 (KHTML, like Gecko) Chrome/79.0.3945.130 Safari/537.36",105,"[0.9, 0.5, 0.1]","[0.8, 0.4, 0.2]","[u'blue', u'black', u'red']","[u'left', u'middle', u'right']","[0.8, 0.4, 0.2]","[u'high', u'low', u'medium']","blue",49,"left","high","True","False",460,4950,NA
"A1BNGJBEWJS8WE","Thu Jan 30 2020 15:39:15 GMT-0800 (Pacific Standard Time)","Thu Jan 30 2020 15:49:02 GMT-0800 (Pacific Standard Time)","Mozilla/5.0 (Windows NT 6.3; Win64; x64) AppleWebKit/537.36 (KHTML, like Gecko) Chrome/79.0.3945.130 Safari/537.36",106,"[0.9, 0.5, 0.1]","[0.8, 0.4, 0.2]","[u'blue', u'black', u'red']","[u'left', u'middle', u'right']","[0.8, 0.4, 0.2]","[u'high', u'low', u'medium']","blue",49,"left","high","True","False",450,5050,NA
"A1BNGJBEWJS8WE","Thu Jan 30 2020 15:39:15 GMT-0800 (Pacific Standard Time)","Thu Jan 30 2020 15:49:02 GMT-0800 (Pacific Standard Time)","Mozilla/5.0 (Windows NT 6.3; Win64; x64) AppleWebKit/537.36 (KHTML, like Gecko) Chrome/79.0.3945.130 Safari/537.36",107,"[0.9, 0.5, 0.1]","[0.8, 0.4, 0.2]","[u'blue', u'black', u'red']","[u'left', u'middle', u'right']","[0.8, 0.4, 0.2]","[u'high', u'low', u'medium']","blue",49,"left","high","True","False",451,5150,NA
"A1BNGJBEWJS8WE","Thu Jan 30 2020 15:39:15 GMT-0800 (Pacific Standard Time)","Thu Jan 30 2020 15:49:02 GMT-0800 (Pacific Standard Time)","Mozilla/5.0 (Windows NT 6.3; Win64; x64) AppleWebKit/537.36 (KHTML, like Gecko) Chrome/79.0.3945.130 Safari/537.36",108,"[0.9, 0.5, 0.1]","[0.8, 0.4, 0.2]","[u'blue', u'black', u'red']","[u'left', u'middle', u'right']","[0.8, 0.4, 0.2]","[u'high', u'low', u'medium']","blue",49,"left","high","True","False",319,5250,NA
"A1BNGJBEWJS8WE","Thu Jan 30 2020 15:39:15 GMT-0800 (Pacific Standard Time)","Thu Jan 30 2020 15:49:02 GMT-0800 (Pacific Standard Time)","Mozilla/5.0 (Windows NT 6.3; Win64; x64) AppleWebKit/537.36 (KHTML, like Gecko) Chrome/79.0.3945.130 Safari/537.36",109,"[0.9, 0.5, 0.1]","[0.8, 0.4, 0.2]","[u'blue', u'black', u'red']","[u'left', u'middle', u'right']","[0.8, 0.4, 0.2]","[u'high', u'low', u'medium']","blue",49,"left","high","True","False",429,5350,NA
"A1BNGJBEWJS8WE","Thu Jan 30 2020 15:39:15 GMT-0800 (Pacific Standard Time)","Thu Jan 30 2020 15:49:02 GMT-0800 (Pacific Standard Time)","Mozilla/5.0 (Windows NT 6.3; Win64; x64) AppleWebKit/537.36 (KHTML, like Gecko) Chrome/79.0.3945.130 Safari/537.36",110,"[0.9, 0.5, 0.1]","[0.8, 0.4, 0.2]","[u'blue', u'black', u'red']","[u'left', u'middle', u'right']","[0.8, 0.4, 0.2]","[u'high', u'low', u'medium']","blue",49,"left","high","True","False",411,5450,NA
"A1BNGJBEWJS8WE","Thu Jan 30 2020 15:39:15 GMT-0800 (Pacific Standard Time)","Thu Jan 30 2020 15:49:02 GMT-0800 (Pacific Standard Time)","Mozilla/5.0 (Windows NT 6.3; Win64; x64) AppleWebKit/537.36 (KHTML, like Gecko) Chrome/79.0.3945.130 Safari/537.36",111,"[0.9, 0.5, 0.1]","[0.8, 0.4, 0.2]","[u'blue', u'black', u'red']","[u'left', u'middle', u'right']","[0.8, 0.4, 0.2]","[u'high', u'low', u'medium']","blue",49,"left","high","True","True",437,5550,NA
"A1BNGJBEWJS8WE","Thu Jan 30 2020 15:39:15 GMT-0800 (Pacific Standard Time)","Thu Jan 30 2020 15:49:02 GMT-0800 (Pacific Standard Time)","Mozilla/5.0 (Windows NT 6.3; Win64; x64) AppleWebKit/537.36 (KHTML, like Gecko) Chrome/79.0.3945.130 Safari/537.36",112,"[0.9, 0.5, 0.1]","[0.8, 0.4, 0.2]","[u'blue', u'black', u'red']","[u'left', u'middle', u'right']","[0.8, 0.4, 0.2]","[u'medium', u'low', u'high']","blue",49,"left","medium","True","False",412,5650,NA
"A1BNGJBEWJS8WE","Thu Jan 30 2020 15:39:15 GMT-0800 (Pacific Standard Time)","Thu Jan 30 2020 15:49:02 GMT-0800 (Pacific Standard Time)","Mozilla/5.0 (Windows NT 6.3; Win64; x64) AppleWebKit/537.36 (KHTML, like Gecko) Chrome/79.0.3945.130 Safari/537.36",113,"[0.9, 0.5, 0.1]","[0.8, 0.4, 0.2]","[u'blue', u'black', u'red']","[u'left', u'middle', u'right']","[0.8, 0.4, 0.2]","[u'medium', u'low', u'high']","blue",49,"left","medium","True","False",389,5750,NA
"A1BNGJBEWJS8WE","Thu Jan 30 2020 15:39:15 GMT-0800 (Pacific Standard Time)","Thu Jan 30 2020 15:49:02 GMT-0800 (Pacific Standard Time)","Mozilla/5.0 (Windows NT 6.3; Win64; x64) AppleWebKit/537.36 (KHTML, like Gecko) Chrome/79.0.3945.130 Safari/537.36",114,"[0.9, 0.5, 0.1]","[0.8, 0.4, 0.2]","[u'blue', u'black', u'red']","[u'left', u'middle', u'right']","[0.8, 0.4, 0.2]","[u'medium', u'low', u'high']","blue",49,"left","medium","False","False",425,5700,NA
"A1BNGJBEWJS8WE","Thu Jan 30 2020 15:39:15 GMT-0800 (Pacific Standard Time)","Thu Jan 30 2020 15:49:02 GMT-0800 (Pacific Standard Time)","Mozilla/5.0 (Windows NT 6.3; Win64; x64) AppleWebKit/537.36 (KHTML, like Gecko) Chrome/79.0.3945.130 Safari/537.36",115,"[0.9, 0.5, 0.1]","[0.8, 0.4, 0.2]","[u'blue', u'black', u'red']","[u'left', u'middle', u'right']","[0.8, 0.4, 0.2]","[u'medium', u'low', u'high']","black",50,"middle","low","False","False",444,5650,NA
"A1BNGJBEWJS8WE","Thu Jan 30 2020 15:39:15 GMT-0800 (Pacific Standard Time)","Thu Jan 30 2020 15:49:02 GMT-0800 (Pacific Standard Time)","Mozilla/5.0 (Windows NT 6.3; Win64; x64) AppleWebKit/537.36 (KHTML, like Gecko) Chrome/79.0.3945.130 Safari/537.36",116,"[0.9, 0.5, 0.1]","[0.8, 0.4, 0.2]","[u'blue', u'black', u'red']","[u'left', u'middle', u'right']","[0.8, 0.4, 0.2]","[u'medium', u'low', u'high']","red",51,"right","high","True","False",425,5750,NA
"A1BNGJBEWJS8WE","Thu Jan 30 2020 15:39:15 GMT-0800 (Pacific Standard Time)","Thu Jan 30 2020 15:49:02 GMT-0800 (Pacific Standard Time)","Mozilla/5.0 (Windows NT 6.3; Win64; x64) AppleWebKit/537.36 (KHTML, like Gecko) Chrome/79.0.3945.130 Safari/537.36",117,"[0.9, 0.5, 0.1]","[0.8, 0.4, 0.2]","[u'blue', u'black', u'red']","[u'left', u'middle', u'right']","[0.8, 0.4, 0.2]","[u'medium', u'low', u'high']","red",51,"right","high","False","False",158,5700,NA
"A1BNGJBEWJS8WE","Thu Jan 30 2020 15:39:15 GMT-0800 (Pacific Standard Time)","Thu Jan 30 2020 15:49:02 GMT-0800 (Pacific Standard Time)","Mozilla/5.0 (Windows NT 6.3; Win64; x64) AppleWebKit/537.36 (KHTML, like Gecko) Chrome/79.0.3945.130 Safari/537.36",118,"[0.9, 0.5, 0.1]","[0.8, 0.4, 0.2]","[u'blue', u'black', u'red']","[u'left', u'middle', u'right']","[0.8, 0.4, 0.2]","[u'medium', u'low', u'high']","black",50,"middle","low","False","False",53,5650,NA
"A1BNGJBEWJS8WE","Thu Jan 30 2020 15:39:15 GMT-0800 (Pacific Standard Time)","Thu Jan 30 2020 15:49:02 GMT-0800 (Pacific Standard Time)","Mozilla/5.0 (Windows NT 6.3; Win64; x64) AppleWebKit/537.36 (KHTML, like Gecko) Chrome/79.0.3945.130 Safari/537.36",119,"[0.9, 0.5, 0.1]","[0.8, 0.4, 0.2]","[u'blue', u'black', u'red']","[u'left', u'middle', u'right']","[0.8, 0.4, 0.2]","[u'medium', u'low', u'high']","red",51,"right","high","True","False",61,5750,NA
"A1BNGJBEWJS8WE","Thu Jan 30 2020 15:39:15 GMT-0800 (Pacific Standard Time)","Thu Jan 30 2020 15:49:02 GMT-0800 (Pacific Standard Time)","Mozilla/5.0 (Windows NT 6.3; Win64; x64) AppleWebKit/537.36 (KHTML, like Gecko) Chrome/79.0.3945.130 Safari/537.36",120,"[0.9, 0.5, 0.1]","[0.8, 0.4, 0.2]","[u'blue', u'black', u'red']","[u'left', u'middle', u'right']","[0.8, 0.4, 0.2]","[u'medium', u'low', u'high']","red",51,"right","high","True","False",291,5850,NA
"A1BNGJBEWJS8WE","Thu Jan 30 2020 15:39:15 GMT-0800 (Pacific Standard Time)","Thu Jan 30 2020 15:49:02 GMT-0800 (Pacific Standard Time)","Mozilla/5.0 (Windows NT 6.3; Win64; x64) AppleWebKit/537.36 (KHTML, like Gecko) Chrome/79.0.3945.130 Safari/537.36",121,"[0.9, 0.5, 0.1]","[0.8, 0.4, 0.2]","[u'blue', u'black', u'red']","[u'left', u'middle', u'right']","[0.8, 0.4, 0.2]","[u'high', u'low', u'medium']","black",50,"middle","low","False","False",722,5800,NA
"A1BNGJBEWJS8WE","Thu Jan 30 2020 15:39:15 GMT-0800 (Pacific Standard Time)","Thu Jan 30 2020 15:49:02 GMT-0800 (Pacific Standard Time)","Mozilla/5.0 (Windows NT 6.3; Win64; x64) AppleWebKit/537.36 (KHTML, like Gecko) Chrome/79.0.3945.130 Safari/537.36",122,"[0.9, 0.5, 0.1]","[0.8, 0.4, 0.2]","[u'blue', u'black', u'red']","[u'left', u'middle', u'right']","[0.8, 0.4, 0.2]","[u'high', u'low', u'medium']","red",51,"right","medium","False","False",449,5750,NA
"A1BNGJBEWJS8WE","Thu Jan 30 2020 15:39:15 GMT-0800 (Pacific Standard Time)","Thu Jan 30 2020 15:49:02 GMT-0800 (Pacific Standard Time)","Mozilla/5.0 (Windows NT 6.3; Win64; x64) AppleWebKit/537.36 (KHTML, like Gecko) Chrome/79.0.3945.130 Safari/537.36",123,"[0.9, 0.5, 0.1]","[0.8, 0.4, 0.2]","[u'blue', u'black', u'red']","[u'left', u'middle', u'right']","[0.8, 0.4, 0.2]","[u'high', u'low', u'medium']","blue",49,"left","high","True","False",343,5850,NA
"A1BNGJBEWJS8WE","Thu Jan 30 2020 15:39:15 GMT-0800 (Pacific Standard Time)","Thu Jan 30 2020 15:49:02 GMT-0800 (Pacific Standard Time)","Mozilla/5.0 (Windows NT 6.3; Win64; x64) AppleWebKit/537.36 (KHTML, like Gecko) Chrome/79.0.3945.130 Safari/537.36",124,"[0.9, 0.5, 0.1]","[0.8, 0.4, 0.2]","[u'blue', u'black', u'red']","[u'left', u'middle', u'right']","[0.8, 0.4, 0.2]","[u'high', u'low', u'medium']","blue",49,"left","high","True","False",385,5950,NA
"A1BNGJBEWJS8WE","Thu Jan 30 2020 15:39:15 GMT-0800 (Pacific Standard Time)","Thu Jan 30 2020 15:49:02 GMT-0800 (Pacific Standard Time)","Mozilla/5.0 (Windows NT 6.3; Win64; x64) AppleWebKit/537.36 (KHTML, like Gecko) Chrome/79.0.3945.130 Safari/537.36",125,"[0.9, 0.5, 0.1]","[0.8, 0.4, 0.2]","[u'blue', u'black', u'red']","[u'left', u'middle', u'right']","[0.8, 0.4, 0.2]","[u'high', u'low', u'medium']","blue",49,"left","high","False","False",420,5900,NA
"A1BNGJBEWJS8WE","Thu Jan 30 2020 15:39:15 GMT-0800 (Pacific Standard Time)","Thu Jan 30 2020 15:49:02 GMT-0800 (Pacific Standard Time)","Mozilla/5.0 (Windows NT 6.3; Win64; x64) AppleWebKit/537.36 (KHTML, like Gecko) Chrome/79.0.3945.130 Safari/537.36",126,"[0.9, 0.5, 0.1]","[0.8, 0.4, 0.2]","[u'blue', u'black', u'red']","[u'left', u'middle', u'right']","[0.8, 0.4, 0.2]","[u'high', u'low', u'medium']","black",50,"middle","low","True","False",322,6000,NA
"A1BNGJBEWJS8WE","Thu Jan 30 2020 15:39:15 GMT-0800 (Pacific Standard Time)","Thu Jan 30 2020 15:49:02 GMT-0800 (Pacific Standard Time)","Mozilla/5.0 (Windows NT 6.3; Win64; x64) AppleWebKit/537.36 (KHTML, like Gecko) Chrome/79.0.3945.130 Safari/537.36",127,"[0.9, 0.5, 0.1]","[0.8, 0.4, 0.2]","[u'blue', u'black', u'red']","[u'left', u'middle', u'right']","[0.8, 0.4, 0.2]","[u'high', u'low', u'medium']","black",50,"middle","low","True","False",395,6100,NA
"A1BNGJBEWJS8WE","Thu Jan 30 2020 15:39:15 GMT-0800 (Pacific Standard Time)","Thu Jan 30 2020 15:49:02 GMT-0800 (Pacific Standard Time)","Mozilla/5.0 (Windows NT 6.3; Win64; x64) AppleWebKit/537.36 (KHTML, like Gecko) Chrome/79.0.3945.130 Safari/537.36",128,"[0.9, 0.5, 0.1]","[0.8, 0.4, 0.2]","[u'blue', u'black', u'red']","[u'left', u'middle', u'right']","[0.8, 0.4, 0.2]","[u'high', u'low', u'medium']","black",50,"middle","low","False","False",425,6050,NA
"A1BNGJBEWJS8WE","Thu Jan 30 2020 15:39:15 GMT-0800 (Pacific Standard Time)","Thu Jan 30 2020 15:49:02 GMT-0800 (Pacific Standard Time)","Mozilla/5.0 (Windows NT 6.3; Win64; x64) AppleWebKit/537.36 (KHTML, like Gecko) Chrome/79.0.3945.130 Safari/537.36",129,"[0.9, 0.5, 0.1]","[0.8, 0.4, 0.2]","[u'blue', u'black', u'red']","[u'left', u'middle', u'right']","[0.8, 0.4, 0.2]","[u'high', u'low', u'medium']","red",51,"right","medium","True","False",365,6150,NA
"A1BNGJBEWJS8WE","Thu Jan 30 2020 15:39:15 GMT-0800 (Pacific Standard Time)","Thu Jan 30 2020 15:49:02 GMT-0800 (Pacific Standard Time)","Mozilla/5.0 (Windows NT 6.3; Win64; x64) AppleWebKit/537.36 (KHTML, like Gecko) Chrome/79.0.3945.130 Safari/537.36",130,"[0.9, 0.5, 0.1]","[0.8, 0.4, 0.2]","[u'blue', u'black', u'red']","[u'left', u'middle', u'right']","[0.8, 0.4, 0.2]","[u'high', u'low', u'medium']","red",51,"right","medium","True","False",399,6250,NA
"A1BNGJBEWJS8WE","Thu Jan 30 2020 15:39:15 GMT-0800 (Pacific Standard Time)","Thu Jan 30 2020 15:49:02 GMT-0800 (Pacific Standard Time)","Mozilla/5.0 (Windows NT 6.3; Win64; x64) AppleWebKit/537.36 (KHTML, like Gecko) Chrome/79.0.3945.130 Safari/537.36",131,"[0.9, 0.5, 0.1]","[0.8, 0.4, 0.2]","[u'blue', u'black', u'red']","[u'left', u'middle', u'right']","[0.8, 0.4, 0.2]","[u'high', u'low', u'medium']","red",51,"right","medium","True","False",524,6350,NA
"A1BNGJBEWJS8WE","Thu Jan 30 2020 15:39:15 GMT-0800 (Pacific Standard Time)","Thu Jan 30 2020 15:49:02 GMT-0800 (Pacific Standard Time)","Mozilla/5.0 (Windows NT 6.3; Win64; x64) AppleWebKit/537.36 (KHTML, like Gecko) Chrome/79.0.3945.130 Safari/537.36",132,"[0.9, 0.5, 0.1]","[0.8, 0.4, 0.2]","[u'blue', u'black', u'red']","[u'left', u'middle', u'right']","[0.8, 0.4, 0.2]","[u'high', u'low', u'medium']","red",51,"right","medium","False","False",494,6300,NA
"A1BNGJBEWJS8WE","Thu Jan 30 2020 15:39:15 GMT-0800 (Pacific Standard Time)","Thu Jan 30 2020 15:49:02 GMT-0800 (Pacific Standard Time)","Mozilla/5.0 (Windows NT 6.3; Win64; x64) AppleWebKit/537.36 (KHTML, like Gecko) Chrome/79.0.3945.130 Safari/537.36",133,"[0.9, 0.5, 0.1]","[0.8, 0.4, 0.2]","[u'blue', u'black', u'red']","[u'left', u'middle', u'right']","[0.8, 0.4, 0.2]","[u'high', u'low', u'medium']","blue",49,"left","high","True","False",367,6400,NA
"A1BNGJBEWJS8WE","Thu Jan 30 2020 15:39:15 GMT-0800 (Pacific Standard Time)","Thu Jan 30 2020 15:49:02 GMT-0800 (Pacific Standard Time)","Mozilla/5.0 (Windows NT 6.3; Win64; x64) AppleWebKit/537.36 (KHTML, like Gecko) Chrome/79.0.3945.130 Safari/537.36",134,"[0.9, 0.5, 0.1]","[0.8, 0.4, 0.2]","[u'blue', u'black', u'red']","[u'left', u'middle', u'right']","[0.8, 0.4, 0.2]","[u'high', u'low', u'medium']","blue",49,"left","high","True","False",758,6500,NA
"A1BNGJBEWJS8WE","Thu Jan 30 2020 15:39:15 GMT-0800 (Pacific Standard Time)","Thu Jan 30 2020 15:49:02 GMT-0800 (Pacific Standard Time)","Mozilla/5.0 (Windows NT 6.3; Win64; x64) AppleWebKit/537.36 (KHTML, like Gecko) Chrome/79.0.3945.130 Safari/537.36",135,"[0.9, 0.5, 0.1]","[0.8, 0.4, 0.2]","[u'blue', u'black', u'red']","[u'left', u'middle', u'right']","[0.8, 0.4, 0.2]","[u'high', u'low', u'medium']","blue",49,"left","high","True","False",353,6600,NA
"A1BNGJBEWJS8WE","Thu Jan 30 2020 15:39:15 GMT-0800 (Pacific Standard Time)","Thu Jan 30 2020 15:49:02 GMT-0800 (Pacific Standard Time)","Mozilla/5.0 (Windows NT 6.3; Win64; x64) AppleWebKit/537.36 (KHTML, like Gecko) Chrome/79.0.3945.130 Safari/537.36",136,"[0.9, 0.5, 0.1]","[0.8, 0.4, 0.2]","[u'blue', u'black', u'red']","[u'left', u'middle', u'right']","[0.8, 0.4, 0.2]","[u'high', u'low', u'medium']","blue",49,"left","high","True","False",422,6700,NA
"A1BNGJBEWJS8WE","Thu Jan 30 2020 15:39:15 GMT-0800 (Pacific Standard Time)","Thu Jan 30 2020 15:49:02 GMT-0800 (Pacific Standard Time)","Mozilla/5.0 (Windows NT 6.3; Win64; x64) AppleWebKit/537.36 (KHTML, like Gecko) Chrome/79.0.3945.130 Safari/537.36",137,"[0.9, 0.5, 0.1]","[0.8, 0.4, 0.2]","[u'blue', u'black', u'red']","[u'left', u'middle', u'right']","[0.8, 0.4, 0.2]","[u'high', u'low', u'medium']","blue",49,"left","high","True","False",435,6800,NA
"A1BNGJBEWJS8WE","Thu Jan 30 2020 15:39:15 GMT-0800 (Pacific Standard Time)","Thu Jan 30 2020 15:49:02 GMT-0800 (Pacific Standard Time)","Mozilla/5.0 (Windows NT 6.3; Win64; x64) AppleWebKit/537.36 (KHTML, like Gecko) Chrome/79.0.3945.130 Safari/537.36",138,"[0.9, 0.5, 0.1]","[0.8, 0.4, 0.2]","[u'blue', u'black', u'red']","[u'left', u'middle', u'right']","[0.8, 0.4, 0.2]","[u'high', u'low', u'medium']","blue",49,"left","high","False","False",469,6750,NA
"A1BNGJBEWJS8WE","Thu Jan 30 2020 15:39:15 GMT-0800 (Pacific Standard Time)","Thu Jan 30 2020 15:49:02 GMT-0800 (Pacific Standard Time)","Mozilla/5.0 (Windows NT 6.3; Win64; x64) AppleWebKit/537.36 (KHTML, like Gecko) Chrome/79.0.3945.130 Safari/537.36",139,"[0.9, 0.5, 0.1]","[0.8, 0.4, 0.2]","[u'blue', u'black', u'red']","[u'left', u'middle', u'right']","[0.8, 0.4, 0.2]","[u'high', u'low', u'medium']","black",50,"middle","low","False","False",388,6700,NA
"A1BNGJBEWJS8WE","Thu Jan 30 2020 15:39:15 GMT-0800 (Pacific Standard Time)","Thu Jan 30 2020 15:49:02 GMT-0800 (Pacific Standard Time)","Mozilla/5.0 (Windows NT 6.3; Win64; x64) AppleWebKit/537.36 (KHTML, like Gecko) Chrome/79.0.3945.130 Safari/537.36",140,"[0.9, 0.5, 0.1]","[0.8, 0.4, 0.2]","[u'blue', u'black', u'red']","[u'left', u'middle', u'right']","[0.8, 0.4, 0.2]","[u'high', u'low', u'medium']","red",51,"right","medium","False","False",369,6650,NA
"A1BNGJBEWJS8WE","Thu Jan 30 2020 15:39:15 GMT-0800 (Pacific Standard Time)","Thu Jan 30 2020 15:49:02 GMT-0800 (Pacific Standard Time)","Mozilla/5.0 (Windows NT 6.3; Win64; x64) AppleWebKit/537.36 (KHTML, like Gecko) Chrome/79.0.3945.130 Safari/537.36",141,"[0.9, 0.5, 0.1]","[0.8, 0.4, 0.2]","[u'blue', u'black', u'red']","[u'left', u'middle', u'right']","[0.8, 0.4, 0.2]","[u'high', u'low', u'medium']","red",51,"right","medium","False","False",388,6600,NA
"A1BNGJBEWJS8WE","Thu Jan 30 2020 15:39:15 GMT-0800 (Pacific Standard Time)","Thu Jan 30 2020 15:49:02 GMT-0800 (Pacific Standard Time)","Mozilla/5.0 (Windows NT 6.3; Win64; x64) AppleWebKit/537.36 (KHTML, like Gecko) Chrome/79.0.3945.130 Safari/537.36",142,"[0.9, 0.5, 0.1]","[0.8, 0.4, 0.2]","[u'blue', u'black', u'red']","[u'left', u'middle', u'right']","[0.8, 0.4, 0.2]","[u'high', u'low', u'medium']","black",50,"middle","low","True","False",405,6700,NA
"A1BNGJBEWJS8WE","Thu Jan 30 2020 15:39:15 GMT-0800 (Pacific Standard Time)","Thu Jan 30 2020 15:49:02 GMT-0800 (Pacific Standard Time)","Mozilla/5.0 (Windows NT 6.3; Win64; x64) AppleWebKit/537.36 (KHTML, like Gecko) Chrome/79.0.3945.130 Safari/537.36",143,"[0.9, 0.5, 0.1]","[0.8, 0.4, 0.2]","[u'blue', u'black', u'red']","[u'left', u'middle', u'right']","[0.8, 0.4, 0.2]","[u'high', u'low', u'medium']","black",50,"middle","low","False","False",391,6650,NA
"A1BNGJBEWJS8WE","Thu Jan 30 2020 15:39:15 GMT-0800 (Pacific Standard Time)","Thu Jan 30 2020 15:49:02 GMT-0800 (Pacific Standard Time)","Mozilla/5.0 (Windows NT 6.3; Win64; x64) AppleWebKit/537.36 (KHTML, like Gecko) Chrome/79.0.3945.130 Safari/537.36",144,"[0.9, 0.5, 0.1]","[0.8, 0.4, 0.2]","[u'blue', u'black', u'red']","[u'left', u'middle', u'right']","[0.8, 0.4, 0.2]","[u'high', u'low', u'medium']","blue",49,"left","high","True","False",340,6750,NA
"A1BNGJBEWJS8WE","Thu Jan 30 2020 15:39:15 GMT-0800 (Pacific Standard Time)","Thu Jan 30 2020 15:49:02 GMT-0800 (Pacific Standard Time)","Mozilla/5.0 (Windows NT 6.3; Win64; x64) AppleWebKit/537.36 (KHTML, like Gecko) Chrome/79.0.3945.130 Safari/537.36",145,"[0.9, 0.5, 0.1]","[0.8, 0.4, 0.2]","[u'blue', u'black', u'red']","[u'left', u'middle', u'right']","[0.8, 0.4, 0.2]","[u'high', u'low', u'medium']","blue",49,"left","high","True","False",335,6850,NA
"A1BNGJBEWJS8WE","Thu Jan 30 2020 15:39:15 GMT-0800 (Pacific Standard Time)","Thu Jan 30 2020 15:49:02 GMT-0800 (Pacific Standard Time)","Mozilla/5.0 (Windows NT 6.3; Win64; x64) AppleWebKit/537.36 (KHTML, like Gecko) Chrome/79.0.3945.130 Safari/537.36",146,"[0.9, 0.5, 0.1]","[0.8, 0.4, 0.2]","[u'blue', u'black', u'red']","[u'left', u'middle', u'right']","[0.8, 0.4, 0.2]","[u'high', u'low', u'medium']","blue",49,"left","high","True","False",432,6950,NA
"A1BNGJBEWJS8WE","Thu Jan 30 2020 15:39:15 GMT-0800 (Pacific Standard Time)","Thu Jan 30 2020 15:49:02 GMT-0800 (Pacific Standard Time)","Mozilla/5.0 (Windows NT 6.3; Win64; x64) AppleWebKit/537.36 (KHTML, like Gecko) Chrome/79.0.3945.130 Safari/537.36",147,"[0.9, 0.5, 0.1]","[0.8, 0.4, 0.2]","[u'blue', u'black', u'red']","[u'left', u'middle', u'right']","[0.8, 0.4, 0.2]","[u'high', u'low', u'medium']","blue",49,"left","high","True","False",514,7050,NA
"A1BNGJBEWJS8WE","Thu Jan 30 2020 15:39:15 GMT-0800 (Pacific Standard Time)","Thu Jan 30 2020 15:49:02 GMT-0800 (Pacific Standard Time)","Mozilla/5.0 (Windows NT 6.3; Win64; x64) AppleWebKit/537.36 (KHTML, like Gecko) Chrome/79.0.3945.130 Safari/537.36",148,"[0.9, 0.5, 0.1]","[0.8, 0.4, 0.2]","[u'blue', u'black', u'red']","[u'left', u'middle', u'right']","[0.8, 0.4, 0.2]","[u'high', u'low', u'medium']","blue",49,"left","high","True","False",436,7150,NA
"A1BNGJBEWJS8WE","Thu Jan 30 2020 15:39:15 GMT-0800 (Pacific Standard Time)","Thu Jan 30 2020 15:49:02 GMT-0800 (Pacific Standard Time)","Mozilla/5.0 (Windows NT 6.3; Win64; x64) AppleWebKit/537.36 (KHTML, like Gecko) Chrome/79.0.3945.130 Safari/537.36",149,"[0.9, 0.5, 0.1]","[0.8, 0.4, 0.2]","[u'blue', u'black', u'red']","[u'left', u'middle', u'right']","[0.8, 0.4, 0.2]","[u'high', u'low', u'medium']","blue",49,"left","high","True","False",405,7250,NA
"A1BNGJBEWJS8WE","Thu Jan 30 2020 15:39:15 GMT-0800 (Pacific Standard Time)","Thu Jan 30 2020 15:49:02 GMT-0800 (Pacific Standard Time)","Mozilla/5.0 (Windows NT 6.3; Win64; x64) AppleWebKit/537.36 (KHTML, like Gecko) Chrome/79.0.3945.130 Safari/537.36",150,"[0.9, 0.5, 0.1]","[0.8, 0.4, 0.2]","[u'blue', u'black', u'red']","[u'left', u'middle', u'right']","[0.8, 0.4, 0.2]","[u'high', u'low', u'medium']","blue",49,"left","high","False","False",352,7200,NA
"A1BNGJBEWJS8WE","Thu Jan 30 2020 15:39:15 GMT-0800 (Pacific Standard Time)","Thu Jan 30 2020 15:49:02 GMT-0800 (Pacific Standard Time)","Mozilla/5.0 (Windows NT 6.3; Win64; x64) AppleWebKit/537.36 (KHTML, like Gecko) Chrome/79.0.3945.130 Safari/537.36",151,"[0.9, 0.5, 0.1]","[0.8, 0.4, 0.2]","[u'blue', u'black', u'red']","[u'left', u'middle', u'right']","[0.8, 0.4, 0.2]","[u'high', u'low', u'medium']","red",51,"right","medium","True","False",272,7300,NA
"A1BNGJBEWJS8WE","Thu Jan 30 2020 15:39:15 GMT-0800 (Pacific Standard Time)","Thu Jan 30 2020 15:49:02 GMT-0800 (Pacific Standard Time)","Mozilla/5.0 (Windows NT 6.3; Win64; x64) AppleWebKit/537.36 (KHTML, like Gecko) Chrome/79.0.3945.130 Safari/537.36",152,"[0.9, 0.5, 0.1]","[0.8, 0.4, 0.2]","[u'blue', u'black', u'red']","[u'left', u'middle', u'right']","[0.8, 0.4, 0.2]","[u'high', u'low', u'medium']","red",51,"right","medium","False","False",343,7250,NA
"A1BNGJBEWJS8WE","Thu Jan 30 2020 15:39:15 GMT-0800 (Pacific Standard Time)","Thu Jan 30 2020 15:49:02 GMT-0800 (Pacific Standard Time)","Mozilla/5.0 (Windows NT 6.3; Win64; x64) AppleWebKit/537.36 (KHTML, like Gecko) Chrome/79.0.3945.130 Safari/537.36",153,"[0.9, 0.5, 0.1]","[0.8, 0.4, 0.2]","[u'blue', u'black', u'red']","[u'left', u'middle', u'right']","[0.8, 0.4, 0.2]","[u'high', u'low', u'medium']","black",50,"middle","low","False","False",386,7200,NA
"A1BNGJBEWJS8WE","Thu Jan 30 2020 15:39:15 GMT-0800 (Pacific Standard Time)","Thu Jan 30 2020 15:49:02 GMT-0800 (Pacific Standard Time)","Mozilla/5.0 (Windows NT 6.3; Win64; x64) AppleWebKit/537.36 (KHTML, like Gecko) Chrome/79.0.3945.130 Safari/537.36",154,"[0.9, 0.5, 0.1]","[0.8, 0.4, 0.2]","[u'blue', u'black', u'red']","[u'left', u'middle', u'right']","[0.8, 0.4, 0.2]","[u'high', u'low', u'medium']","blue",49,"left","high","True","False",373,7300,NA
"A1BNGJBEWJS8WE","Thu Jan 30 2020 15:39:15 GMT-0800 (Pacific Standard Time)","Thu Jan 30 2020 15:49:02 GMT-0800 (Pacific Standard Time)","Mozilla/5.0 (Windows NT 6.3; Win64; x64) AppleWebKit/537.36 (KHTML, like Gecko) Chrome/79.0.3945.130 Safari/537.36",155,"[0.9, 0.5, 0.1]","[0.8, 0.4, 0.2]","[u'blue', u'black', u'red']","[u'left', u'middle', u'right']","[0.8, 0.4, 0.2]","[u'high', u'low', u'medium']","blue",49,"left","high","True","False",443,7400,NA
"A1BNGJBEWJS8WE","Thu Jan 30 2020 15:39:15 GMT-0800 (Pacific Standard Time)","Thu Jan 30 2020 15:49:02 GMT-0800 (Pacific Standard Time)","Mozilla/5.0 (Windows NT 6.3; Win64; x64) AppleWebKit/537.36 (KHTML, like Gecko) Chrome/79.0.3945.130 Safari/537.36",156,"[0.9, 0.5, 0.1]","[0.8, 0.4, 0.2]","[u'blue', u'black', u'red']","[u'left', u'middle', u'right']","[0.8, 0.4, 0.2]","[u'high', u'low', u'medium']","blue",49,"left","high","True","False",434,7500,NA
"A1BNGJBEWJS8WE","Thu Jan 30 2020 15:39:15 GMT-0800 (Pacific Standard Time)","Thu Jan 30 2020 15:49:02 GMT-0800 (Pacific Standard Time)","Mozilla/5.0 (Windows NT 6.3; Win64; x64) AppleWebKit/537.36 (KHTML, like Gecko) Chrome/79.0.3945.130 Safari/537.36",157,"[0.9, 0.5, 0.1]","[0.8, 0.4, 0.2]","[u'blue', u'black', u'red']","[u'left', u'middle', u'right']","[0.8, 0.4, 0.2]","[u'high', u'low', u'medium']","blue",49,"left","high","False","False",458,7450,NA
"A1BNGJBEWJS8WE","Thu Jan 30 2020 15:39:15 GMT-0800 (Pacific Standard Time)","Thu Jan 30 2020 15:49:02 GMT-0800 (Pacific Standard Time)","Mozilla/5.0 (Windows NT 6.3; Win64; x64) AppleWebKit/537.36 (KHTML, like Gecko) Chrome/79.0.3945.130 Safari/537.36",158,"[0.9, 0.5, 0.1]","[0.8, 0.4, 0.2]","[u'blue', u'black', u'red']","[u'left', u'middle', u'right']","[0.8, 0.4, 0.2]","[u'high', u'low', u'medium']","black",50,"middle","low","False","False",361,7400,NA
"A1BNGJBEWJS8WE","Thu Jan 30 2020 15:39:15 GMT-0800 (Pacific Standard Time)","Thu Jan 30 2020 15:49:02 GMT-0800 (Pacific Standard Time)","Mozilla/5.0 (Windows NT 6.3; Win64; x64) AppleWebKit/537.36 (KHTML, like Gecko) Chrome/79.0.3945.130 Safari/537.36",159,"[0.9, 0.5, 0.1]","[0.8, 0.4, 0.2]","[u'blue', u'black', u'red']","[u'left', u'middle', u'right']","[0.8, 0.4, 0.2]","[u'high', u'low', u'medium']","red",51,"right","medium","False","False",355,7350,NA
"A1BNGJBEWJS8WE","Thu Jan 30 2020 15:39:15 GMT-0800 (Pacific Standard Time)","Thu Jan 30 2020 15:49:02 GMT-0800 (Pacific Standard Time)","Mozilla/5.0 (Windows NT 6.3; Win64; x64) AppleWebKit/537.36 (KHTML, like Gecko) Chrome/79.0.3945.130 Safari/537.36",160,"[0.9, 0.5, 0.1]","[0.8, 0.4, 0.2]","[u'blue', u'black', u'red']","[u'left', u'middle', u'right']","[0.8, 0.4, 0.2]","[u'high', u'low', u'medium']","blue",49,"left","high","True","False",390,7450,NA
