"src_subject_id","start_time","end_time","browser","index","first_half_probabilities","second_half_probabilities","deck_color","deck_position","deck_probabilities","deck_contingencies","response_color","key_press","response_position","response_probability","reward_type","trial_type","rt","reward_tally","exclusion_reason"
"A3EQR9C0L23O6E","Thu Jan 30 2020 18:47:55 GMT-0500 (Eastern Standard Time)","Thu Jan 30 2020 18:56:07 GMT-0500 (Eastern Standard Time)","Mozilla/5.0 (Windows NT 10.0; Win64; x64) AppleWebKit/537.36 (KHTML, like Gecko) Chrome/79.0.3945.130 Safari/537.36",1,"[0.9, 0.5, 0.1]","[0.8, 0.4, 0.2]","[u'red', u'blue', u'black']","[u'left', u'middle', u'right']","[0.9, 0.5, 0.1]","[u'low', u'high', u'medium']","blue",50,"middle","high","False","False",839,-50,NA
"A3EQR9C0L23O6E","Thu Jan 30 2020 18:47:55 GMT-0500 (Eastern Standard Time)","Thu Jan 30 2020 18:56:07 GMT-0500 (Eastern Standard Time)","Mozilla/5.0 (Windows NT 10.0; Win64; x64) AppleWebKit/537.36 (KHTML, like Gecko) Chrome/79.0.3945.130 Safari/537.36",2,"[0.9, 0.5, 0.1]","[0.8, 0.4, 0.2]","[u'red', u'blue', u'black']","[u'left', u'middle', u'right']","[0.9, 0.5, 0.1]","[u'low', u'high', u'medium']","red",49,"left","low","False","False",401,-100,NA
"A3EQR9C0L23O6E","Thu Jan 30 2020 18:47:55 GMT-0500 (Eastern Standard Time)","Thu Jan 30 2020 18:56:07 GMT-0500 (Eastern Standard Time)","Mozilla/5.0 (Windows NT 10.0; Win64; x64) AppleWebKit/537.36 (KHTML, like Gecko) Chrome/79.0.3945.130 Safari/537.36",3,"[0.9, 0.5, 0.1]","[0.8, 0.4, 0.2]","[u'red', u'blue', u'black']","[u'left', u'middle', u'right']","[0.9, 0.5, 0.1]","[u'low', u'high', u'medium']","black",51,"right","medium","True","False",247,0,NA
"A3EQR9C0L23O6E","Thu Jan 30 2020 18:47:55 GMT-0500 (Eastern Standard Time)","Thu Jan 30 2020 18:56:07 GMT-0500 (Eastern Standard Time)","Mozilla/5.0 (Windows NT 10.0; Win64; x64) AppleWebKit/537.36 (KHTML, like Gecko) Chrome/79.0.3945.130 Safari/537.36",4,"[0.9, 0.5, 0.1]","[0.8, 0.4, 0.2]","[u'red', u'blue', u'black']","[u'left', u'middle', u'right']","[0.9, 0.5, 0.1]","[u'low', u'high', u'medium']","black",51,"right","medium","True","False",127,100,NA
"A3EQR9C0L23O6E","Thu Jan 30 2020 18:47:55 GMT-0500 (Eastern Standard Time)","Thu Jan 30 2020 18:56:07 GMT-0500 (Eastern Standard Time)","Mozilla/5.0 (Windows NT 10.0; Win64; x64) AppleWebKit/537.36 (KHTML, like Gecko) Chrome/79.0.3945.130 Safari/537.36",5,"[0.9, 0.5, 0.1]","[0.8, 0.4, 0.2]","[u'red', u'blue', u'black']","[u'left', u'middle', u'right']","[0.9, 0.5, 0.1]","[u'low', u'high', u'medium']","black",51,"right","medium","False","False",261,50,NA
"A3EQR9C0L23O6E","Thu Jan 30 2020 18:47:55 GMT-0500 (Eastern Standard Time)","Thu Jan 30 2020 18:56:07 GMT-0500 (Eastern Standard Time)","Mozilla/5.0 (Windows NT 10.0; Win64; x64) AppleWebKit/537.36 (KHTML, like Gecko) Chrome/79.0.3945.130 Safari/537.36",6,"[0.9, 0.5, 0.1]","[0.8, 0.4, 0.2]","[u'red', u'blue', u'black']","[u'left', u'middle', u'right']","[0.9, 0.5, 0.1]","[u'low', u'high', u'medium']","black",51,"right","medium","True","False",88,150,NA
"A3EQR9C0L23O6E","Thu Jan 30 2020 18:47:55 GMT-0500 (Eastern Standard Time)","Thu Jan 30 2020 18:56:07 GMT-0500 (Eastern Standard Time)","Mozilla/5.0 (Windows NT 10.0; Win64; x64) AppleWebKit/537.36 (KHTML, like Gecko) Chrome/79.0.3945.130 Safari/537.36",7,"[0.9, 0.5, 0.1]","[0.8, 0.4, 0.2]","[u'red', u'blue', u'black']","[u'left', u'middle', u'right']","[0.9, 0.5, 0.1]","[u'low', u'high', u'medium']","black",51,"right","medium","False","False",49,100,NA
"A3EQR9C0L23O6E","Thu Jan 30 2020 18:47:55 GMT-0500 (Eastern Standard Time)","Thu Jan 30 2020 18:56:07 GMT-0500 (Eastern Standard Time)","Mozilla/5.0 (Windows NT 10.0; Win64; x64) AppleWebKit/537.36 (KHTML, like Gecko) Chrome/79.0.3945.130 Safari/537.36",8,"[0.9, 0.5, 0.1]","[0.8, 0.4, 0.2]","[u'red', u'blue', u'black']","[u'left', u'middle', u'right']","[0.9, 0.5, 0.1]","[u'low', u'high', u'medium']","black",51,"right","medium","False","False",140,50,NA
"A3EQR9C0L23O6E","Thu Jan 30 2020 18:47:55 GMT-0500 (Eastern Standard Time)","Thu Jan 30 2020 18:56:07 GMT-0500 (Eastern Standard Time)","Mozilla/5.0 (Windows NT 10.0; Win64; x64) AppleWebKit/537.36 (KHTML, like Gecko) Chrome/79.0.3945.130 Safari/537.36",9,"[0.9, 0.5, 0.1]","[0.8, 0.4, 0.2]","[u'red', u'blue', u'black']","[u'left', u'middle', u'right']","[0.9, 0.5, 0.1]","[u'low', u'high', u'medium']","red",49,"left","low","True","False",224,150,NA
"A3EQR9C0L23O6E","Thu Jan 30 2020 18:47:55 GMT-0500 (Eastern Standard Time)","Thu Jan 30 2020 18:56:07 GMT-0500 (Eastern Standard Time)","Mozilla/5.0 (Windows NT 10.0; Win64; x64) AppleWebKit/537.36 (KHTML, like Gecko) Chrome/79.0.3945.130 Safari/537.36",10,"[0.9, 0.5, 0.1]","[0.8, 0.4, 0.2]","[u'red', u'blue', u'black']","[u'left', u'middle', u'right']","[0.9, 0.5, 0.1]","[u'low', u'high', u'medium']","red",49,"left","low","False","False",259,100,NA
"A3EQR9C0L23O6E","Thu Jan 30 2020 18:47:55 GMT-0500 (Eastern Standard Time)","Thu Jan 30 2020 18:56:07 GMT-0500 (Eastern Standard Time)","Mozilla/5.0 (Windows NT 10.0; Win64; x64) AppleWebKit/537.36 (KHTML, like Gecko) Chrome/79.0.3945.130 Safari/537.36",11,"[0.9, 0.5, 0.1]","[0.8, 0.4, 0.2]","[u'red', u'blue', u'black']","[u'left', u'middle', u'right']","[0.9, 0.5, 0.1]","[u'low', u'high', u'medium']","blue",50,"middle","high","True","False",401,200,NA
"A3EQR9C0L23O6E","Thu Jan 30 2020 18:47:55 GMT-0500 (Eastern Standard Time)","Thu Jan 30 2020 18:56:07 GMT-0500 (Eastern Standard Time)","Mozilla/5.0 (Windows NT 10.0; Win64; x64) AppleWebKit/537.36 (KHTML, like Gecko) Chrome/79.0.3945.130 Safari/537.36",12,"[0.9, 0.5, 0.1]","[0.8, 0.4, 0.2]","[u'red', u'blue', u'black']","[u'left', u'middle', u'right']","[0.9, 0.5, 0.1]","[u'low', u'high', u'medium']","blue",50,"middle","high","False","False",291,150,NA
"A3EQR9C0L23O6E","Thu Jan 30 2020 18:47:55 GMT-0500 (Eastern Standard Time)","Thu Jan 30 2020 18:56:07 GMT-0500 (Eastern Standard Time)","Mozilla/5.0 (Windows NT 10.0; Win64; x64) AppleWebKit/537.36 (KHTML, like Gecko) Chrome/79.0.3945.130 Safari/537.36",13,"[0.9, 0.5, 0.1]","[0.8, 0.4, 0.2]","[u'red', u'blue', u'black']","[u'left', u'middle', u'right']","[0.9, 0.5, 0.1]","[u'low', u'high', u'medium']","blue",50,"middle","high","True","False",392,250,NA
"A3EQR9C0L23O6E","Thu Jan 30 2020 18:47:55 GMT-0500 (Eastern Standard Time)","Thu Jan 30 2020 18:56:07 GMT-0500 (Eastern Standard Time)","Mozilla/5.0 (Windows NT 10.0; Win64; x64) AppleWebKit/537.36 (KHTML, like Gecko) Chrome/79.0.3945.130 Safari/537.36",14,"[0.9, 0.5, 0.1]","[0.8, 0.4, 0.2]","[u'red', u'blue', u'black']","[u'left', u'middle', u'right']","[0.9, 0.5, 0.1]","[u'low', u'high', u'medium']","blue",50,"middle","high","True","False",270,350,NA
"A3EQR9C0L23O6E","Thu Jan 30 2020 18:47:55 GMT-0500 (Eastern Standard Time)","Thu Jan 30 2020 18:56:07 GMT-0500 (Eastern Standard Time)","Mozilla/5.0 (Windows NT 10.0; Win64; x64) AppleWebKit/537.36 (KHTML, like Gecko) Chrome/79.0.3945.130 Safari/537.36",15,"[0.9, 0.5, 0.1]","[0.8, 0.4, 0.2]","[u'red', u'blue', u'black']","[u'left', u'middle', u'right']","[0.9, 0.5, 0.1]","[u'low', u'high', u'medium']","blue",50,"middle","high","True","False",242,450,NA
"A3EQR9C0L23O6E","Thu Jan 30 2020 18:47:55 GMT-0500 (Eastern Standard Time)","Thu Jan 30 2020 18:56:07 GMT-0500 (Eastern Standard Time)","Mozilla/5.0 (Windows NT 10.0; Win64; x64) AppleWebKit/537.36 (KHTML, like Gecko) Chrome/79.0.3945.130 Safari/537.36",16,"[0.9, 0.5, 0.1]","[0.8, 0.4, 0.2]","[u'red', u'blue', u'black']","[u'left', u'middle', u'right']","[0.9, 0.5, 0.1]","[u'low', u'high', u'medium']","blue",50,"middle","high","True","False",270,550,NA
"A3EQR9C0L23O6E","Thu Jan 30 2020 18:47:55 GMT-0500 (Eastern Standard Time)","Thu Jan 30 2020 18:56:07 GMT-0500 (Eastern Standard Time)","Mozilla/5.0 (Windows NT 10.0; Win64; x64) AppleWebKit/537.36 (KHTML, like Gecko) Chrome/79.0.3945.130 Safari/537.36",17,"[0.9, 0.5, 0.1]","[0.8, 0.4, 0.2]","[u'red', u'blue', u'black']","[u'left', u'middle', u'right']","[0.9, 0.5, 0.1]","[u'low', u'high', u'medium']","blue",50,"middle","high","True","False",424,650,NA
"A3EQR9C0L23O6E","Thu Jan 30 2020 18:47:55 GMT-0500 (Eastern Standard Time)","Thu Jan 30 2020 18:56:07 GMT-0500 (Eastern Standard Time)","Mozilla/5.0 (Windows NT 10.0; Win64; x64) AppleWebKit/537.36 (KHTML, like Gecko) Chrome/79.0.3945.130 Safari/537.36",18,"[0.9, 0.5, 0.1]","[0.8, 0.4, 0.2]","[u'red', u'blue', u'black']","[u'left', u'middle', u'right']","[0.9, 0.5, 0.1]","[u'low', u'high', u'medium']","blue",50,"middle","high","True","False",282,750,NA
"A3EQR9C0L23O6E","Thu Jan 30 2020 18:47:55 GMT-0500 (Eastern Standard Time)","Thu Jan 30 2020 18:56:07 GMT-0500 (Eastern Standard Time)","Mozilla/5.0 (Windows NT 10.0; Win64; x64) AppleWebKit/537.36 (KHTML, like Gecko) Chrome/79.0.3945.130 Safari/537.36",19,"[0.9, 0.5, 0.1]","[0.8, 0.4, 0.2]","[u'red', u'blue', u'black']","[u'left', u'middle', u'right']","[0.9, 0.5, 0.1]","[u'low', u'high', u'medium']","blue",50,"middle","high","True","True",286,850,NA
"A3EQR9C0L23O6E","Thu Jan 30 2020 18:47:55 GMT-0500 (Eastern Standard Time)","Thu Jan 30 2020 18:56:07 GMT-0500 (Eastern Standard Time)","Mozilla/5.0 (Windows NT 10.0; Win64; x64) AppleWebKit/537.36 (KHTML, like Gecko) Chrome/79.0.3945.130 Safari/537.36",20,"[0.9, 0.5, 0.1]","[0.8, 0.4, 0.2]","[u'red', u'blue', u'black']","[u'left', u'middle', u'right']","[0.9, 0.5, 0.1]","[u'low', u'medium', u'high']","blue",50,"middle","medium","False","False",285,800,NA
"A3EQR9C0L23O6E","Thu Jan 30 2020 18:47:55 GMT-0500 (Eastern Standard Time)","Thu Jan 30 2020 18:56:07 GMT-0500 (Eastern Standard Time)","Mozilla/5.0 (Windows NT 10.0; Win64; x64) AppleWebKit/537.36 (KHTML, like Gecko) Chrome/79.0.3945.130 Safari/537.36",21,"[0.9, 0.5, 0.1]","[0.8, 0.4, 0.2]","[u'red', u'blue', u'black']","[u'left', u'middle', u'right']","[0.9, 0.5, 0.1]","[u'low', u'medium', u'high']","red",49,"left","low","False","False",343,750,NA
"A3EQR9C0L23O6E","Thu Jan 30 2020 18:47:55 GMT-0500 (Eastern Standard Time)","Thu Jan 30 2020 18:56:07 GMT-0500 (Eastern Standard Time)","Mozilla/5.0 (Windows NT 10.0; Win64; x64) AppleWebKit/537.36 (KHTML, like Gecko) Chrome/79.0.3945.130 Safari/537.36",22,"[0.9, 0.5, 0.1]","[0.8, 0.4, 0.2]","[u'red', u'blue', u'black']","[u'left', u'middle', u'right']","[0.9, 0.5, 0.1]","[u'low', u'medium', u'high']","red",49,"left","low","False","False",456,700,NA
"A3EQR9C0L23O6E","Thu Jan 30 2020 18:47:55 GMT-0500 (Eastern Standard Time)","Thu Jan 30 2020 18:56:07 GMT-0500 (Eastern Standard Time)","Mozilla/5.0 (Windows NT 10.0; Win64; x64) AppleWebKit/537.36 (KHTML, like Gecko) Chrome/79.0.3945.130 Safari/537.36",23,"[0.9, 0.5, 0.1]","[0.8, 0.4, 0.2]","[u'red', u'blue', u'black']","[u'left', u'middle', u'right']","[0.9, 0.5, 0.1]","[u'low', u'medium', u'high']","black",51,"right","high","False","False",391,650,NA
"A3EQR9C0L23O6E","Thu Jan 30 2020 18:47:55 GMT-0500 (Eastern Standard Time)","Thu Jan 30 2020 18:56:07 GMT-0500 (Eastern Standard Time)","Mozilla/5.0 (Windows NT 10.0; Win64; x64) AppleWebKit/537.36 (KHTML, like Gecko) Chrome/79.0.3945.130 Safari/537.36",24,"[0.9, 0.5, 0.1]","[0.8, 0.4, 0.2]","[u'red', u'blue', u'black']","[u'left', u'middle', u'right']","[0.9, 0.5, 0.1]","[u'low', u'medium', u'high']","blue",50,"middle","medium","True","False",221,750,NA
"A3EQR9C0L23O6E","Thu Jan 30 2020 18:47:55 GMT-0500 (Eastern Standard Time)","Thu Jan 30 2020 18:56:07 GMT-0500 (Eastern Standard Time)","Mozilla/5.0 (Windows NT 10.0; Win64; x64) AppleWebKit/537.36 (KHTML, like Gecko) Chrome/79.0.3945.130 Safari/537.36",25,"[0.9, 0.5, 0.1]","[0.8, 0.4, 0.2]","[u'red', u'blue', u'black']","[u'left', u'middle', u'right']","[0.9, 0.5, 0.1]","[u'low', u'medium', u'high']","blue",50,"middle","medium","False","False",254,700,NA
"A3EQR9C0L23O6E","Thu Jan 30 2020 18:47:55 GMT-0500 (Eastern Standard Time)","Thu Jan 30 2020 18:56:07 GMT-0500 (Eastern Standard Time)","Mozilla/5.0 (Windows NT 10.0; Win64; x64) AppleWebKit/537.36 (KHTML, like Gecko) Chrome/79.0.3945.130 Safari/537.36",26,"[0.9, 0.5, 0.1]","[0.8, 0.4, 0.2]","[u'red', u'blue', u'black']","[u'left', u'middle', u'right']","[0.9, 0.5, 0.1]","[u'low', u'medium', u'high']","blue",50,"middle","medium","False","False",155,650,NA
"A3EQR9C0L23O6E","Thu Jan 30 2020 18:47:55 GMT-0500 (Eastern Standard Time)","Thu Jan 30 2020 18:56:07 GMT-0500 (Eastern Standard Time)","Mozilla/5.0 (Windows NT 10.0; Win64; x64) AppleWebKit/537.36 (KHTML, like Gecko) Chrome/79.0.3945.130 Safari/537.36",27,"[0.9, 0.5, 0.1]","[0.8, 0.4, 0.2]","[u'red', u'blue', u'black']","[u'left', u'middle', u'right']","[0.9, 0.5, 0.1]","[u'low', u'medium', u'high']","black",51,"right","high","True","False",120,750,NA
"A3EQR9C0L23O6E","Thu Jan 30 2020 18:47:55 GMT-0500 (Eastern Standard Time)","Thu Jan 30 2020 18:56:07 GMT-0500 (Eastern Standard Time)","Mozilla/5.0 (Windows NT 10.0; Win64; x64) AppleWebKit/537.36 (KHTML, like Gecko) Chrome/79.0.3945.130 Safari/537.36",28,"[0.9, 0.5, 0.1]","[0.8, 0.4, 0.2]","[u'red', u'blue', u'black']","[u'left', u'middle', u'right']","[0.9, 0.5, 0.1]","[u'low', u'medium', u'high']","black",51,"right","high","True","False",246,850,NA
"A3EQR9C0L23O6E","Thu Jan 30 2020 18:47:55 GMT-0500 (Eastern Standard Time)","Thu Jan 30 2020 18:56:07 GMT-0500 (Eastern Standard Time)","Mozilla/5.0 (Windows NT 10.0; Win64; x64) AppleWebKit/537.36 (KHTML, like Gecko) Chrome/79.0.3945.130 Safari/537.36",29,"[0.9, 0.5, 0.1]","[0.8, 0.4, 0.2]","[u'red', u'blue', u'black']","[u'left', u'middle', u'right']","[0.9, 0.5, 0.1]","[u'low', u'medium', u'high']","black",51,"right","high","True","False",253,950,NA
"A3EQR9C0L23O6E","Thu Jan 30 2020 18:47:55 GMT-0500 (Eastern Standard Time)","Thu Jan 30 2020 18:56:07 GMT-0500 (Eastern Standard Time)","Mozilla/5.0 (Windows NT 10.0; Win64; x64) AppleWebKit/537.36 (KHTML, like Gecko) Chrome/79.0.3945.130 Safari/537.36",30,"[0.9, 0.5, 0.1]","[0.8, 0.4, 0.2]","[u'red', u'blue', u'black']","[u'left', u'middle', u'right']","[0.9, 0.5, 0.1]","[u'low', u'medium', u'high']","black",51,"right","high","True","False",226,1050,NA
"A3EQR9C0L23O6E","Thu Jan 30 2020 18:47:55 GMT-0500 (Eastern Standard Time)","Thu Jan 30 2020 18:56:07 GMT-0500 (Eastern Standard Time)","Mozilla/5.0 (Windows NT 10.0; Win64; x64) AppleWebKit/537.36 (KHTML, like Gecko) Chrome/79.0.3945.130 Safari/537.36",31,"[0.9, 0.5, 0.1]","[0.8, 0.4, 0.2]","[u'red', u'blue', u'black']","[u'left', u'middle', u'right']","[0.9, 0.5, 0.1]","[u'low', u'medium', u'high']","black",51,"right","high","True","False",342,1150,NA
"A3EQR9C0L23O6E","Thu Jan 30 2020 18:47:55 GMT-0500 (Eastern Standard Time)","Thu Jan 30 2020 18:56:07 GMT-0500 (Eastern Standard Time)","Mozilla/5.0 (Windows NT 10.0; Win64; x64) AppleWebKit/537.36 (KHTML, like Gecko) Chrome/79.0.3945.130 Safari/537.36",32,"[0.9, 0.5, 0.1]","[0.8, 0.4, 0.2]","[u'red', u'blue', u'black']","[u'left', u'middle', u'right']","[0.9, 0.5, 0.1]","[u'low', u'medium', u'high']","black",51,"right","high","True","False",410,1250,NA
"A3EQR9C0L23O6E","Thu Jan 30 2020 18:47:55 GMT-0500 (Eastern Standard Time)","Thu Jan 30 2020 18:56:07 GMT-0500 (Eastern Standard Time)","Mozilla/5.0 (Windows NT 10.0; Win64; x64) AppleWebKit/537.36 (KHTML, like Gecko) Chrome/79.0.3945.130 Safari/537.36",33,"[0.9, 0.5, 0.1]","[0.8, 0.4, 0.2]","[u'red', u'blue', u'black']","[u'left', u'middle', u'right']","[0.9, 0.5, 0.1]","[u'low', u'medium', u'high']","black",51,"right","high","True","False",274,1350,NA
"A3EQR9C0L23O6E","Thu Jan 30 2020 18:47:55 GMT-0500 (Eastern Standard Time)","Thu Jan 30 2020 18:56:07 GMT-0500 (Eastern Standard Time)","Mozilla/5.0 (Windows NT 10.0; Win64; x64) AppleWebKit/537.36 (KHTML, like Gecko) Chrome/79.0.3945.130 Safari/537.36",34,"[0.9, 0.5, 0.1]","[0.8, 0.4, 0.2]","[u'red', u'blue', u'black']","[u'left', u'middle', u'right']","[0.9, 0.5, 0.1]","[u'low', u'medium', u'high']","black",51,"right","high","True","False",248,1450,NA
"A3EQR9C0L23O6E","Thu Jan 30 2020 18:47:55 GMT-0500 (Eastern Standard Time)","Thu Jan 30 2020 18:56:07 GMT-0500 (Eastern Standard Time)","Mozilla/5.0 (Windows NT 10.0; Win64; x64) AppleWebKit/537.36 (KHTML, like Gecko) Chrome/79.0.3945.130 Safari/537.36",35,"[0.9, 0.5, 0.1]","[0.8, 0.4, 0.2]","[u'red', u'blue', u'black']","[u'left', u'middle', u'right']","[0.9, 0.5, 0.1]","[u'low', u'medium', u'high']","black",51,"right","high","True","True",307,1550,NA
"A3EQR9C0L23O6E","Thu Jan 30 2020 18:47:55 GMT-0500 (Eastern Standard Time)","Thu Jan 30 2020 18:56:07 GMT-0500 (Eastern Standard Time)","Mozilla/5.0 (Windows NT 10.0; Win64; x64) AppleWebKit/537.36 (KHTML, like Gecko) Chrome/79.0.3945.130 Safari/537.36",36,"[0.9, 0.5, 0.1]","[0.8, 0.4, 0.2]","[u'red', u'blue', u'black']","[u'left', u'middle', u'right']","[0.9, 0.5, 0.1]","[u'high', u'low', u'medium']","black",51,"right","medium","False","False",294,1500,NA
"A3EQR9C0L23O6E","Thu Jan 30 2020 18:47:55 GMT-0500 (Eastern Standard Time)","Thu Jan 30 2020 18:56:07 GMT-0500 (Eastern Standard Time)","Mozilla/5.0 (Windows NT 10.0; Win64; x64) AppleWebKit/537.36 (KHTML, like Gecko) Chrome/79.0.3945.130 Safari/537.36",37,"[0.9, 0.5, 0.1]","[0.8, 0.4, 0.2]","[u'red', u'blue', u'black']","[u'left', u'middle', u'right']","[0.9, 0.5, 0.1]","[u'high', u'low', u'medium']","black",51,"right","medium","True","False",38,1600,NA
"A3EQR9C0L23O6E","Thu Jan 30 2020 18:47:55 GMT-0500 (Eastern Standard Time)","Thu Jan 30 2020 18:56:07 GMT-0500 (Eastern Standard Time)","Mozilla/5.0 (Windows NT 10.0; Win64; x64) AppleWebKit/537.36 (KHTML, like Gecko) Chrome/79.0.3945.130 Safari/537.36",38,"[0.9, 0.5, 0.1]","[0.8, 0.4, 0.2]","[u'red', u'blue', u'black']","[u'left', u'middle', u'right']","[0.9, 0.5, 0.1]","[u'high', u'low', u'medium']","black",51,"right","medium","False","False",245,1550,NA
"A3EQR9C0L23O6E","Thu Jan 30 2020 18:47:55 GMT-0500 (Eastern Standard Time)","Thu Jan 30 2020 18:56:07 GMT-0500 (Eastern Standard Time)","Mozilla/5.0 (Windows NT 10.0; Win64; x64) AppleWebKit/537.36 (KHTML, like Gecko) Chrome/79.0.3945.130 Safari/537.36",39,"[0.9, 0.5, 0.1]","[0.8, 0.4, 0.2]","[u'red', u'blue', u'black']","[u'left', u'middle', u'right']","[0.9, 0.5, 0.1]","[u'high', u'low', u'medium']","black",51,"right","medium","True","False",238,1650,NA
"A3EQR9C0L23O6E","Thu Jan 30 2020 18:47:55 GMT-0500 (Eastern Standard Time)","Thu Jan 30 2020 18:56:07 GMT-0500 (Eastern Standard Time)","Mozilla/5.0 (Windows NT 10.0; Win64; x64) AppleWebKit/537.36 (KHTML, like Gecko) Chrome/79.0.3945.130 Safari/537.36",40,"[0.9, 0.5, 0.1]","[0.8, 0.4, 0.2]","[u'red', u'blue', u'black']","[u'left', u'middle', u'right']","[0.9, 0.5, 0.1]","[u'high', u'low', u'medium']","black",51,"right","medium","True","False",256,1750,NA
"A3EQR9C0L23O6E","Thu Jan 30 2020 18:47:55 GMT-0500 (Eastern Standard Time)","Thu Jan 30 2020 18:56:07 GMT-0500 (Eastern Standard Time)","Mozilla/5.0 (Windows NT 10.0; Win64; x64) AppleWebKit/537.36 (KHTML, like Gecko) Chrome/79.0.3945.130 Safari/537.36",41,"[0.9, 0.5, 0.1]","[0.8, 0.4, 0.2]","[u'red', u'blue', u'black']","[u'left', u'middle', u'right']","[0.9, 0.5, 0.1]","[u'low', u'high', u'medium']","black",51,"right","medium","True","False",890,1850,NA
"A3EQR9C0L23O6E","Thu Jan 30 2020 18:47:55 GMT-0500 (Eastern Standard Time)","Thu Jan 30 2020 18:56:07 GMT-0500 (Eastern Standard Time)","Mozilla/5.0 (Windows NT 10.0; Win64; x64) AppleWebKit/537.36 (KHTML, like Gecko) Chrome/79.0.3945.130 Safari/537.36",42,"[0.9, 0.5, 0.1]","[0.8, 0.4, 0.2]","[u'red', u'blue', u'black']","[u'left', u'middle', u'right']","[0.9, 0.5, 0.1]","[u'low', u'high', u'medium']","black",51,"right","medium","True","False",263,1950,NA
"A3EQR9C0L23O6E","Thu Jan 30 2020 18:47:55 GMT-0500 (Eastern Standard Time)","Thu Jan 30 2020 18:56:07 GMT-0500 (Eastern Standard Time)","Mozilla/5.0 (Windows NT 10.0; Win64; x64) AppleWebKit/537.36 (KHTML, like Gecko) Chrome/79.0.3945.130 Safari/537.36",43,"[0.9, 0.5, 0.1]","[0.8, 0.4, 0.2]","[u'red', u'blue', u'black']","[u'left', u'middle', u'right']","[0.9, 0.5, 0.1]","[u'low', u'high', u'medium']","black",51,"right","medium","False","False",223,1900,NA
"A3EQR9C0L23O6E","Thu Jan 30 2020 18:47:55 GMT-0500 (Eastern Standard Time)","Thu Jan 30 2020 18:56:07 GMT-0500 (Eastern Standard Time)","Mozilla/5.0 (Windows NT 10.0; Win64; x64) AppleWebKit/537.36 (KHTML, like Gecko) Chrome/79.0.3945.130 Safari/537.36",44,"[0.9, 0.5, 0.1]","[0.8, 0.4, 0.2]","[u'red', u'blue', u'black']","[u'left', u'middle', u'right']","[0.9, 0.5, 0.1]","[u'low', u'high', u'medium']","black",51,"right","medium","True","False",143,2000,NA
"A3EQR9C0L23O6E","Thu Jan 30 2020 18:47:55 GMT-0500 (Eastern Standard Time)","Thu Jan 30 2020 18:56:07 GMT-0500 (Eastern Standard Time)","Mozilla/5.0 (Windows NT 10.0; Win64; x64) AppleWebKit/537.36 (KHTML, like Gecko) Chrome/79.0.3945.130 Safari/537.36",45,"[0.9, 0.5, 0.1]","[0.8, 0.4, 0.2]","[u'red', u'blue', u'black']","[u'left', u'middle', u'right']","[0.9, 0.5, 0.1]","[u'low', u'high', u'medium']","black",51,"right","medium","True","False",172,2100,NA
"A3EQR9C0L23O6E","Thu Jan 30 2020 18:47:55 GMT-0500 (Eastern Standard Time)","Thu Jan 30 2020 18:56:07 GMT-0500 (Eastern Standard Time)","Mozilla/5.0 (Windows NT 10.0; Win64; x64) AppleWebKit/537.36 (KHTML, like Gecko) Chrome/79.0.3945.130 Safari/537.36",46,"[0.9, 0.5, 0.1]","[0.8, 0.4, 0.2]","[u'red', u'blue', u'black']","[u'left', u'middle', u'right']","[0.9, 0.5, 0.1]","[u'low', u'high', u'medium']","black",51,"right","medium","True","False",463,2200,NA
"A3EQR9C0L23O6E","Thu Jan 30 2020 18:47:55 GMT-0500 (Eastern Standard Time)","Thu Jan 30 2020 18:56:07 GMT-0500 (Eastern Standard Time)","Mozilla/5.0 (Windows NT 10.0; Win64; x64) AppleWebKit/537.36 (KHTML, like Gecko) Chrome/79.0.3945.130 Safari/537.36",47,"[0.9, 0.5, 0.1]","[0.8, 0.4, 0.2]","[u'red', u'blue', u'black']","[u'left', u'middle', u'right']","[0.9, 0.5, 0.1]","[u'low', u'high', u'medium']","black",51,"right","medium","False","False",287,2150,NA
"A3EQR9C0L23O6E","Thu Jan 30 2020 18:47:55 GMT-0500 (Eastern Standard Time)","Thu Jan 30 2020 18:56:07 GMT-0500 (Eastern Standard Time)","Mozilla/5.0 (Windows NT 10.0; Win64; x64) AppleWebKit/537.36 (KHTML, like Gecko) Chrome/79.0.3945.130 Safari/537.36",48,"[0.9, 0.5, 0.1]","[0.8, 0.4, 0.2]","[u'red', u'blue', u'black']","[u'left', u'middle', u'right']","[0.9, 0.5, 0.1]","[u'low', u'high', u'medium']","black",51,"right","medium","True","False",193,2250,NA
"A3EQR9C0L23O6E","Thu Jan 30 2020 18:47:55 GMT-0500 (Eastern Standard Time)","Thu Jan 30 2020 18:56:07 GMT-0500 (Eastern Standard Time)","Mozilla/5.0 (Windows NT 10.0; Win64; x64) AppleWebKit/537.36 (KHTML, like Gecko) Chrome/79.0.3945.130 Safari/537.36",49,"[0.9, 0.5, 0.1]","[0.8, 0.4, 0.2]","[u'red', u'blue', u'black']","[u'left', u'middle', u'right']","[0.9, 0.5, 0.1]","[u'low', u'high', u'medium']","black",51,"right","medium","True","False",254,2350,NA
"A3EQR9C0L23O6E","Thu Jan 30 2020 18:47:55 GMT-0500 (Eastern Standard Time)","Thu Jan 30 2020 18:56:07 GMT-0500 (Eastern Standard Time)","Mozilla/5.0 (Windows NT 10.0; Win64; x64) AppleWebKit/537.36 (KHTML, like Gecko) Chrome/79.0.3945.130 Safari/537.36",50,"[0.9, 0.5, 0.1]","[0.8, 0.4, 0.2]","[u'red', u'blue', u'black']","[u'left', u'middle', u'right']","[0.9, 0.5, 0.1]","[u'low', u'high', u'medium']","black",51,"right","medium","False","False",379,2300,NA
"A3EQR9C0L23O6E","Thu Jan 30 2020 18:47:55 GMT-0500 (Eastern Standard Time)","Thu Jan 30 2020 18:56:07 GMT-0500 (Eastern Standard Time)","Mozilla/5.0 (Windows NT 10.0; Win64; x64) AppleWebKit/537.36 (KHTML, like Gecko) Chrome/79.0.3945.130 Safari/537.36",51,"[0.9, 0.5, 0.1]","[0.8, 0.4, 0.2]","[u'red', u'blue', u'black']","[u'left', u'middle', u'right']","[0.9, 0.5, 0.1]","[u'low', u'high', u'medium']","black",51,"right","medium","True","False",249,2400,NA
"A3EQR9C0L23O6E","Thu Jan 30 2020 18:47:55 GMT-0500 (Eastern Standard Time)","Thu Jan 30 2020 18:56:07 GMT-0500 (Eastern Standard Time)","Mozilla/5.0 (Windows NT 10.0; Win64; x64) AppleWebKit/537.36 (KHTML, like Gecko) Chrome/79.0.3945.130 Safari/537.36",52,"[0.9, 0.5, 0.1]","[0.8, 0.4, 0.2]","[u'red', u'blue', u'black']","[u'left', u'middle', u'right']","[0.9, 0.5, 0.1]","[u'low', u'high', u'medium']","black",51,"right","medium","True","False",238,2500,NA
"A3EQR9C0L23O6E","Thu Jan 30 2020 18:47:55 GMT-0500 (Eastern Standard Time)","Thu Jan 30 2020 18:56:07 GMT-0500 (Eastern Standard Time)","Mozilla/5.0 (Windows NT 10.0; Win64; x64) AppleWebKit/537.36 (KHTML, like Gecko) Chrome/79.0.3945.130 Safari/537.36",53,"[0.9, 0.5, 0.1]","[0.8, 0.4, 0.2]","[u'red', u'blue', u'black']","[u'left', u'middle', u'right']","[0.9, 0.5, 0.1]","[u'low', u'high', u'medium']","black",51,"right","medium","True","False",269,2600,NA
"A3EQR9C0L23O6E","Thu Jan 30 2020 18:47:55 GMT-0500 (Eastern Standard Time)","Thu Jan 30 2020 18:56:07 GMT-0500 (Eastern Standard Time)","Mozilla/5.0 (Windows NT 10.0; Win64; x64) AppleWebKit/537.36 (KHTML, like Gecko) Chrome/79.0.3945.130 Safari/537.36",54,"[0.9, 0.5, 0.1]","[0.8, 0.4, 0.2]","[u'red', u'blue', u'black']","[u'left', u'middle', u'right']","[0.9, 0.5, 0.1]","[u'low', u'high', u'medium']","black",51,"right","medium","False","False",418,2550,NA
"A3EQR9C0L23O6E","Thu Jan 30 2020 18:47:55 GMT-0500 (Eastern Standard Time)","Thu Jan 30 2020 18:56:07 GMT-0500 (Eastern Standard Time)","Mozilla/5.0 (Windows NT 10.0; Win64; x64) AppleWebKit/537.36 (KHTML, like Gecko) Chrome/79.0.3945.130 Safari/537.36",55,"[0.9, 0.5, 0.1]","[0.8, 0.4, 0.2]","[u'red', u'blue', u'black']","[u'left', u'middle', u'right']","[0.9, 0.5, 0.1]","[u'low', u'high', u'medium']","black",51,"right","medium","True","False",330,2650,NA
"A3EQR9C0L23O6E","Thu Jan 30 2020 18:47:55 GMT-0500 (Eastern Standard Time)","Thu Jan 30 2020 18:56:07 GMT-0500 (Eastern Standard Time)","Mozilla/5.0 (Windows NT 10.0; Win64; x64) AppleWebKit/537.36 (KHTML, like Gecko) Chrome/79.0.3945.130 Safari/537.36",56,"[0.9, 0.5, 0.1]","[0.8, 0.4, 0.2]","[u'red', u'blue', u'black']","[u'left', u'middle', u'right']","[0.9, 0.5, 0.1]","[u'low', u'high', u'medium']","black",51,"right","medium","True","False",407,2750,NA
"A3EQR9C0L23O6E","Thu Jan 30 2020 18:47:55 GMT-0500 (Eastern Standard Time)","Thu Jan 30 2020 18:56:07 GMT-0500 (Eastern Standard Time)","Mozilla/5.0 (Windows NT 10.0; Win64; x64) AppleWebKit/537.36 (KHTML, like Gecko) Chrome/79.0.3945.130 Safari/537.36",57,"[0.9, 0.5, 0.1]","[0.8, 0.4, 0.2]","[u'red', u'blue', u'black']","[u'left', u'middle', u'right']","[0.9, 0.5, 0.1]","[u'low', u'high', u'medium']","black",51,"right","medium","True","False",419,2850,NA
"A3EQR9C0L23O6E","Thu Jan 30 2020 18:47:55 GMT-0500 (Eastern Standard Time)","Thu Jan 30 2020 18:56:07 GMT-0500 (Eastern Standard Time)","Mozilla/5.0 (Windows NT 10.0; Win64; x64) AppleWebKit/537.36 (KHTML, like Gecko) Chrome/79.0.3945.130 Safari/537.36",58,"[0.9, 0.5, 0.1]","[0.8, 0.4, 0.2]","[u'red', u'blue', u'black']","[u'left', u'middle', u'right']","[0.9, 0.5, 0.1]","[u'low', u'high', u'medium']","black",51,"right","medium","True","False",342,2950,NA
"A3EQR9C0L23O6E","Thu Jan 30 2020 18:47:55 GMT-0500 (Eastern Standard Time)","Thu Jan 30 2020 18:56:07 GMT-0500 (Eastern Standard Time)","Mozilla/5.0 (Windows NT 10.0; Win64; x64) AppleWebKit/537.36 (KHTML, like Gecko) Chrome/79.0.3945.130 Safari/537.36",59,"[0.9, 0.5, 0.1]","[0.8, 0.4, 0.2]","[u'red', u'blue', u'black']","[u'left', u'middle', u'right']","[0.9, 0.5, 0.1]","[u'low', u'high', u'medium']","black",51,"right","medium","True","False",277,3050,NA
"A3EQR9C0L23O6E","Thu Jan 30 2020 18:47:55 GMT-0500 (Eastern Standard Time)","Thu Jan 30 2020 18:56:07 GMT-0500 (Eastern Standard Time)","Mozilla/5.0 (Windows NT 10.0; Win64; x64) AppleWebKit/537.36 (KHTML, like Gecko) Chrome/79.0.3945.130 Safari/537.36",60,"[0.9, 0.5, 0.1]","[0.8, 0.4, 0.2]","[u'red', u'blue', u'black']","[u'left', u'middle', u'right']","[0.9, 0.5, 0.1]","[u'low', u'high', u'medium']","black",51,"right","medium","True","False",264,3150,NA
"A3EQR9C0L23O6E","Thu Jan 30 2020 18:47:55 GMT-0500 (Eastern Standard Time)","Thu Jan 30 2020 18:56:07 GMT-0500 (Eastern Standard Time)","Mozilla/5.0 (Windows NT 10.0; Win64; x64) AppleWebKit/537.36 (KHTML, like Gecko) Chrome/79.0.3945.130 Safari/537.36",61,"[0.9, 0.5, 0.1]","[0.8, 0.4, 0.2]","[u'red', u'blue', u'black']","[u'left', u'middle', u'right']","[0.9, 0.5, 0.1]","[u'low', u'high', u'medium']","black",51,"right","medium","True","False",292,3250,NA
"A3EQR9C0L23O6E","Thu Jan 30 2020 18:47:55 GMT-0500 (Eastern Standard Time)","Thu Jan 30 2020 18:56:07 GMT-0500 (Eastern Standard Time)","Mozilla/5.0 (Windows NT 10.0; Win64; x64) AppleWebKit/537.36 (KHTML, like Gecko) Chrome/79.0.3945.130 Safari/537.36",62,"[0.9, 0.5, 0.1]","[0.8, 0.4, 0.2]","[u'red', u'blue', u'black']","[u'left', u'middle', u'right']","[0.9, 0.5, 0.1]","[u'low', u'high', u'medium']","black",51,"right","medium","False","False",296,3200,NA
"A3EQR9C0L23O6E","Thu Jan 30 2020 18:47:55 GMT-0500 (Eastern Standard Time)","Thu Jan 30 2020 18:56:07 GMT-0500 (Eastern Standard Time)","Mozilla/5.0 (Windows NT 10.0; Win64; x64) AppleWebKit/537.36 (KHTML, like Gecko) Chrome/79.0.3945.130 Safari/537.36",63,"[0.9, 0.5, 0.1]","[0.8, 0.4, 0.2]","[u'red', u'blue', u'black']","[u'left', u'middle', u'right']","[0.9, 0.5, 0.1]","[u'low', u'high', u'medium']","black",51,"right","medium","True","False",231,3300,NA
"A3EQR9C0L23O6E","Thu Jan 30 2020 18:47:55 GMT-0500 (Eastern Standard Time)","Thu Jan 30 2020 18:56:07 GMT-0500 (Eastern Standard Time)","Mozilla/5.0 (Windows NT 10.0; Win64; x64) AppleWebKit/537.36 (KHTML, like Gecko) Chrome/79.0.3945.130 Safari/537.36",64,"[0.9, 0.5, 0.1]","[0.8, 0.4, 0.2]","[u'red', u'blue', u'black']","[u'left', u'middle', u'right']","[0.9, 0.5, 0.1]","[u'low', u'high', u'medium']","black",51,"right","medium","True","False",480,3400,NA
"A3EQR9C0L23O6E","Thu Jan 30 2020 18:47:55 GMT-0500 (Eastern Standard Time)","Thu Jan 30 2020 18:56:07 GMT-0500 (Eastern Standard Time)","Mozilla/5.0 (Windows NT 10.0; Win64; x64) AppleWebKit/537.36 (KHTML, like Gecko) Chrome/79.0.3945.130 Safari/537.36",65,"[0.9, 0.5, 0.1]","[0.8, 0.4, 0.2]","[u'red', u'blue', u'black']","[u'left', u'middle', u'right']","[0.9, 0.5, 0.1]","[u'low', u'high', u'medium']","black",51,"right","medium","False","False",440,3350,NA
"A3EQR9C0L23O6E","Thu Jan 30 2020 18:47:55 GMT-0500 (Eastern Standard Time)","Thu Jan 30 2020 18:56:07 GMT-0500 (Eastern Standard Time)","Mozilla/5.0 (Windows NT 10.0; Win64; x64) AppleWebKit/537.36 (KHTML, like Gecko) Chrome/79.0.3945.130 Safari/537.36",66,"[0.9, 0.5, 0.1]","[0.8, 0.4, 0.2]","[u'red', u'blue', u'black']","[u'left', u'middle', u'right']","[0.9, 0.5, 0.1]","[u'low', u'high', u'medium']","black",51,"right","medium","True","False",166,3450,NA
"A3EQR9C0L23O6E","Thu Jan 30 2020 18:47:55 GMT-0500 (Eastern Standard Time)","Thu Jan 30 2020 18:56:07 GMT-0500 (Eastern Standard Time)","Mozilla/5.0 (Windows NT 10.0; Win64; x64) AppleWebKit/537.36 (KHTML, like Gecko) Chrome/79.0.3945.130 Safari/537.36",67,"[0.9, 0.5, 0.1]","[0.8, 0.4, 0.2]","[u'red', u'blue', u'black']","[u'left', u'middle', u'right']","[0.9, 0.5, 0.1]","[u'low', u'high', u'medium']","black",51,"right","medium","False","False",266,3400,NA
"A3EQR9C0L23O6E","Thu Jan 30 2020 18:47:55 GMT-0500 (Eastern Standard Time)","Thu Jan 30 2020 18:56:07 GMT-0500 (Eastern Standard Time)","Mozilla/5.0 (Windows NT 10.0; Win64; x64) AppleWebKit/537.36 (KHTML, like Gecko) Chrome/79.0.3945.130 Safari/537.36",68,"[0.9, 0.5, 0.1]","[0.8, 0.4, 0.2]","[u'red', u'blue', u'black']","[u'left', u'middle', u'right']","[0.9, 0.5, 0.1]","[u'low', u'high', u'medium']","black",51,"right","medium","True","False",244,3500,NA
"A3EQR9C0L23O6E","Thu Jan 30 2020 18:47:55 GMT-0500 (Eastern Standard Time)","Thu Jan 30 2020 18:56:07 GMT-0500 (Eastern Standard Time)","Mozilla/5.0 (Windows NT 10.0; Win64; x64) AppleWebKit/537.36 (KHTML, like Gecko) Chrome/79.0.3945.130 Safari/537.36",69,"[0.9, 0.5, 0.1]","[0.8, 0.4, 0.2]","[u'red', u'blue', u'black']","[u'left', u'middle', u'right']","[0.9, 0.5, 0.1]","[u'low', u'high', u'medium']","black",51,"right","medium","False","False",294,3450,NA
"A3EQR9C0L23O6E","Thu Jan 30 2020 18:47:55 GMT-0500 (Eastern Standard Time)","Thu Jan 30 2020 18:56:07 GMT-0500 (Eastern Standard Time)","Mozilla/5.0 (Windows NT 10.0; Win64; x64) AppleWebKit/537.36 (KHTML, like Gecko) Chrome/79.0.3945.130 Safari/537.36",70,"[0.9, 0.5, 0.1]","[0.8, 0.4, 0.2]","[u'red', u'blue', u'black']","[u'left', u'middle', u'right']","[0.9, 0.5, 0.1]","[u'low', u'high', u'medium']","black",51,"right","medium","False","False",290,3400,NA
"A3EQR9C0L23O6E","Thu Jan 30 2020 18:47:55 GMT-0500 (Eastern Standard Time)","Thu Jan 30 2020 18:56:07 GMT-0500 (Eastern Standard Time)","Mozilla/5.0 (Windows NT 10.0; Win64; x64) AppleWebKit/537.36 (KHTML, like Gecko) Chrome/79.0.3945.130 Safari/537.36",71,"[0.9, 0.5, 0.1]","[0.8, 0.4, 0.2]","[u'red', u'blue', u'black']","[u'left', u'middle', u'right']","[0.9, 0.5, 0.1]","[u'low', u'high', u'medium']","black",51,"right","medium","True","False",299,3500,NA
"A3EQR9C0L23O6E","Thu Jan 30 2020 18:47:55 GMT-0500 (Eastern Standard Time)","Thu Jan 30 2020 18:56:07 GMT-0500 (Eastern Standard Time)","Mozilla/5.0 (Windows NT 10.0; Win64; x64) AppleWebKit/537.36 (KHTML, like Gecko) Chrome/79.0.3945.130 Safari/537.36",72,"[0.9, 0.5, 0.1]","[0.8, 0.4, 0.2]","[u'red', u'blue', u'black']","[u'left', u'middle', u'right']","[0.9, 0.5, 0.1]","[u'low', u'high', u'medium']","black",51,"right","medium","False","False",291,3450,NA
"A3EQR9C0L23O6E","Thu Jan 30 2020 18:47:55 GMT-0500 (Eastern Standard Time)","Thu Jan 30 2020 18:56:07 GMT-0500 (Eastern Standard Time)","Mozilla/5.0 (Windows NT 10.0; Win64; x64) AppleWebKit/537.36 (KHTML, like Gecko) Chrome/79.0.3945.130 Safari/537.36",73,"[0.9, 0.5, 0.1]","[0.8, 0.4, 0.2]","[u'red', u'blue', u'black']","[u'left', u'middle', u'right']","[0.9, 0.5, 0.1]","[u'low', u'high', u'medium']","black",51,"right","medium","True","False",481,3550,NA
"A3EQR9C0L23O6E","Thu Jan 30 2020 18:47:55 GMT-0500 (Eastern Standard Time)","Thu Jan 30 2020 18:56:07 GMT-0500 (Eastern Standard Time)","Mozilla/5.0 (Windows NT 10.0; Win64; x64) AppleWebKit/537.36 (KHTML, like Gecko) Chrome/79.0.3945.130 Safari/537.36",74,"[0.9, 0.5, 0.1]","[0.8, 0.4, 0.2]","[u'red', u'blue', u'black']","[u'left', u'middle', u'right']","[0.9, 0.5, 0.1]","[u'low', u'high', u'medium']","black",51,"right","medium","True","False",303,3650,NA
"A3EQR9C0L23O6E","Thu Jan 30 2020 18:47:55 GMT-0500 (Eastern Standard Time)","Thu Jan 30 2020 18:56:07 GMT-0500 (Eastern Standard Time)","Mozilla/5.0 (Windows NT 10.0; Win64; x64) AppleWebKit/537.36 (KHTML, like Gecko) Chrome/79.0.3945.130 Safari/537.36",75,"[0.9, 0.5, 0.1]","[0.8, 0.4, 0.2]","[u'red', u'blue', u'black']","[u'left', u'middle', u'right']","[0.9, 0.5, 0.1]","[u'low', u'high', u'medium']","black",51,"right","medium","False","False",546,3600,NA
"A3EQR9C0L23O6E","Thu Jan 30 2020 18:47:55 GMT-0500 (Eastern Standard Time)","Thu Jan 30 2020 18:56:07 GMT-0500 (Eastern Standard Time)","Mozilla/5.0 (Windows NT 10.0; Win64; x64) AppleWebKit/537.36 (KHTML, like Gecko) Chrome/79.0.3945.130 Safari/537.36",76,"[0.9, 0.5, 0.1]","[0.8, 0.4, 0.2]","[u'red', u'blue', u'black']","[u'left', u'middle', u'right']","[0.9, 0.5, 0.1]","[u'low', u'high', u'medium']","black",51,"right","medium","True","False",307,3700,NA
"A3EQR9C0L23O6E","Thu Jan 30 2020 18:47:55 GMT-0500 (Eastern Standard Time)","Thu Jan 30 2020 18:56:07 GMT-0500 (Eastern Standard Time)","Mozilla/5.0 (Windows NT 10.0; Win64; x64) AppleWebKit/537.36 (KHTML, like Gecko) Chrome/79.0.3945.130 Safari/537.36",77,"[0.9, 0.5, 0.1]","[0.8, 0.4, 0.2]","[u'red', u'blue', u'black']","[u'left', u'middle', u'right']","[0.9, 0.5, 0.1]","[u'low', u'high', u'medium']","black",51,"right","medium","True","False",346,3800,NA
"A3EQR9C0L23O6E","Thu Jan 30 2020 18:47:55 GMT-0500 (Eastern Standard Time)","Thu Jan 30 2020 18:56:07 GMT-0500 (Eastern Standard Time)","Mozilla/5.0 (Windows NT 10.0; Win64; x64) AppleWebKit/537.36 (KHTML, like Gecko) Chrome/79.0.3945.130 Safari/537.36",78,"[0.9, 0.5, 0.1]","[0.8, 0.4, 0.2]","[u'red', u'blue', u'black']","[u'left', u'middle', u'right']","[0.9, 0.5, 0.1]","[u'low', u'high', u'medium']","black",51,"right","medium","True","False",400,3900,NA
"A3EQR9C0L23O6E","Thu Jan 30 2020 18:47:55 GMT-0500 (Eastern Standard Time)","Thu Jan 30 2020 18:56:07 GMT-0500 (Eastern Standard Time)","Mozilla/5.0 (Windows NT 10.0; Win64; x64) AppleWebKit/537.36 (KHTML, like Gecko) Chrome/79.0.3945.130 Safari/537.36",79,"[0.9, 0.5, 0.1]","[0.8, 0.4, 0.2]","[u'red', u'blue', u'black']","[u'left', u'middle', u'right']","[0.9, 0.5, 0.1]","[u'low', u'high', u'medium']","black",51,"right","medium","True","False",383,4000,NA
"A3EQR9C0L23O6E","Thu Jan 30 2020 18:47:55 GMT-0500 (Eastern Standard Time)","Thu Jan 30 2020 18:56:07 GMT-0500 (Eastern Standard Time)","Mozilla/5.0 (Windows NT 10.0; Win64; x64) AppleWebKit/537.36 (KHTML, like Gecko) Chrome/79.0.3945.130 Safari/537.36",80,"[0.9, 0.5, 0.1]","[0.8, 0.4, 0.2]","[u'red', u'blue', u'black']","[u'left', u'middle', u'right']","[0.9, 0.5, 0.1]","[u'low', u'high', u'medium']","black",51,"right","medium","True","False",359,4100,NA
"A3EQR9C0L23O6E","Thu Jan 30 2020 18:47:55 GMT-0500 (Eastern Standard Time)","Thu Jan 30 2020 18:56:07 GMT-0500 (Eastern Standard Time)","Mozilla/5.0 (Windows NT 10.0; Win64; x64) AppleWebKit/537.36 (KHTML, like Gecko) Chrome/79.0.3945.130 Safari/537.36",81,"[0.9, 0.5, 0.1]","[0.8, 0.4, 0.2]","[u'red', u'blue', u'black']","[u'left', u'middle', u'right']","[0.8, 0.4, 0.2]","[u'medium', u'low', u'high']","black",51,"right","high","True","False",538,4200,NA
"A3EQR9C0L23O6E","Thu Jan 30 2020 18:47:55 GMT-0500 (Eastern Standard Time)","Thu Jan 30 2020 18:56:07 GMT-0500 (Eastern Standard Time)","Mozilla/5.0 (Windows NT 10.0; Win64; x64) AppleWebKit/537.36 (KHTML, like Gecko) Chrome/79.0.3945.130 Safari/537.36",82,"[0.9, 0.5, 0.1]","[0.8, 0.4, 0.2]","[u'red', u'blue', u'black']","[u'left', u'middle', u'right']","[0.8, 0.4, 0.2]","[u'medium', u'low', u'high']","black",51,"right","high","True","False",258,4300,NA
"A3EQR9C0L23O6E","Thu Jan 30 2020 18:47:55 GMT-0500 (Eastern Standard Time)","Thu Jan 30 2020 18:56:07 GMT-0500 (Eastern Standard Time)","Mozilla/5.0 (Windows NT 10.0; Win64; x64) AppleWebKit/537.36 (KHTML, like Gecko) Chrome/79.0.3945.130 Safari/537.36",83,"[0.9, 0.5, 0.1]","[0.8, 0.4, 0.2]","[u'red', u'blue', u'black']","[u'left', u'middle', u'right']","[0.8, 0.4, 0.2]","[u'medium', u'low', u'high']","black",51,"right","high","True","False",237,4400,NA
"A3EQR9C0L23O6E","Thu Jan 30 2020 18:47:55 GMT-0500 (Eastern Standard Time)","Thu Jan 30 2020 18:56:07 GMT-0500 (Eastern Standard Time)","Mozilla/5.0 (Windows NT 10.0; Win64; x64) AppleWebKit/537.36 (KHTML, like Gecko) Chrome/79.0.3945.130 Safari/537.36",84,"[0.9, 0.5, 0.1]","[0.8, 0.4, 0.2]","[u'red', u'blue', u'black']","[u'left', u'middle', u'right']","[0.8, 0.4, 0.2]","[u'medium', u'low', u'high']","black",51,"right","high","True","False",352,4500,NA
"A3EQR9C0L23O6E","Thu Jan 30 2020 18:47:55 GMT-0500 (Eastern Standard Time)","Thu Jan 30 2020 18:56:07 GMT-0500 (Eastern Standard Time)","Mozilla/5.0 (Windows NT 10.0; Win64; x64) AppleWebKit/537.36 (KHTML, like Gecko) Chrome/79.0.3945.130 Safari/537.36",85,"[0.9, 0.5, 0.1]","[0.8, 0.4, 0.2]","[u'red', u'blue', u'black']","[u'left', u'middle', u'right']","[0.8, 0.4, 0.2]","[u'medium', u'low', u'high']","black",51,"right","high","False","False",314,4450,NA
"A3EQR9C0L23O6E","Thu Jan 30 2020 18:47:55 GMT-0500 (Eastern Standard Time)","Thu Jan 30 2020 18:56:07 GMT-0500 (Eastern Standard Time)","Mozilla/5.0 (Windows NT 10.0; Win64; x64) AppleWebKit/537.36 (KHTML, like Gecko) Chrome/79.0.3945.130 Safari/537.36",86,"[0.9, 0.5, 0.1]","[0.8, 0.4, 0.2]","[u'red', u'blue', u'black']","[u'left', u'middle', u'right']","[0.8, 0.4, 0.2]","[u'medium', u'low', u'high']","black",51,"right","high","True","False",227,4550,NA
"A3EQR9C0L23O6E","Thu Jan 30 2020 18:47:55 GMT-0500 (Eastern Standard Time)","Thu Jan 30 2020 18:56:07 GMT-0500 (Eastern Standard Time)","Mozilla/5.0 (Windows NT 10.0; Win64; x64) AppleWebKit/537.36 (KHTML, like Gecko) Chrome/79.0.3945.130 Safari/537.36",87,"[0.9, 0.5, 0.1]","[0.8, 0.4, 0.2]","[u'red', u'blue', u'black']","[u'left', u'middle', u'right']","[0.8, 0.4, 0.2]","[u'medium', u'low', u'high']","black",51,"right","high","True","False",270,4650,NA
"A3EQR9C0L23O6E","Thu Jan 30 2020 18:47:55 GMT-0500 (Eastern Standard Time)","Thu Jan 30 2020 18:56:07 GMT-0500 (Eastern Standard Time)","Mozilla/5.0 (Windows NT 10.0; Win64; x64) AppleWebKit/537.36 (KHTML, like Gecko) Chrome/79.0.3945.130 Safari/537.36",88,"[0.9, 0.5, 0.1]","[0.8, 0.4, 0.2]","[u'red', u'blue', u'black']","[u'left', u'middle', u'right']","[0.8, 0.4, 0.2]","[u'medium', u'low', u'high']","black",51,"right","high","True","False",541,4750,NA
"A3EQR9C0L23O6E","Thu Jan 30 2020 18:47:55 GMT-0500 (Eastern Standard Time)","Thu Jan 30 2020 18:56:07 GMT-0500 (Eastern Standard Time)","Mozilla/5.0 (Windows NT 10.0; Win64; x64) AppleWebKit/537.36 (KHTML, like Gecko) Chrome/79.0.3945.130 Safari/537.36",89,"[0.9, 0.5, 0.1]","[0.8, 0.4, 0.2]","[u'red', u'blue', u'black']","[u'left', u'middle', u'right']","[0.8, 0.4, 0.2]","[u'medium', u'low', u'high']","black",51,"right","high","False","True",601,4700,NA
"A3EQR9C0L23O6E","Thu Jan 30 2020 18:47:55 GMT-0500 (Eastern Standard Time)","Thu Jan 30 2020 18:56:07 GMT-0500 (Eastern Standard Time)","Mozilla/5.0 (Windows NT 10.0; Win64; x64) AppleWebKit/537.36 (KHTML, like Gecko) Chrome/79.0.3945.130 Safari/537.36",90,"[0.9, 0.5, 0.1]","[0.8, 0.4, 0.2]","[u'red', u'blue', u'black']","[u'left', u'middle', u'right']","[0.8, 0.4, 0.2]","[u'low', u'high', u'medium']","black",51,"right","medium","True","False",406,4800,NA
"A3EQR9C0L23O6E","Thu Jan 30 2020 18:47:55 GMT-0500 (Eastern Standard Time)","Thu Jan 30 2020 18:56:07 GMT-0500 (Eastern Standard Time)","Mozilla/5.0 (Windows NT 10.0; Win64; x64) AppleWebKit/537.36 (KHTML, like Gecko) Chrome/79.0.3945.130 Safari/537.36",91,"[0.9, 0.5, 0.1]","[0.8, 0.4, 0.2]","[u'red', u'blue', u'black']","[u'left', u'middle', u'right']","[0.8, 0.4, 0.2]","[u'low', u'high', u'medium']","black",51,"right","medium","True","False",363,4900,NA
"A3EQR9C0L23O6E","Thu Jan 30 2020 18:47:55 GMT-0500 (Eastern Standard Time)","Thu Jan 30 2020 18:56:07 GMT-0500 (Eastern Standard Time)","Mozilla/5.0 (Windows NT 10.0; Win64; x64) AppleWebKit/537.36 (KHTML, like Gecko) Chrome/79.0.3945.130 Safari/537.36",92,"[0.9, 0.5, 0.1]","[0.8, 0.4, 0.2]","[u'red', u'blue', u'black']","[u'left', u'middle', u'right']","[0.8, 0.4, 0.2]","[u'low', u'high', u'medium']","black",51,"right","medium","False","False",355,4850,NA
"A3EQR9C0L23O6E","Thu Jan 30 2020 18:47:55 GMT-0500 (Eastern Standard Time)","Thu Jan 30 2020 18:56:07 GMT-0500 (Eastern Standard Time)","Mozilla/5.0 (Windows NT 10.0; Win64; x64) AppleWebKit/537.36 (KHTML, like Gecko) Chrome/79.0.3945.130 Safari/537.36",93,"[0.9, 0.5, 0.1]","[0.8, 0.4, 0.2]","[u'red', u'blue', u'black']","[u'left', u'middle', u'right']","[0.8, 0.4, 0.2]","[u'low', u'high', u'medium']","black",51,"right","medium","True","False",287,4950,NA
"A3EQR9C0L23O6E","Thu Jan 30 2020 18:47:55 GMT-0500 (Eastern Standard Time)","Thu Jan 30 2020 18:56:07 GMT-0500 (Eastern Standard Time)","Mozilla/5.0 (Windows NT 10.0; Win64; x64) AppleWebKit/537.36 (KHTML, like Gecko) Chrome/79.0.3945.130 Safari/537.36",94,"[0.9, 0.5, 0.1]","[0.8, 0.4, 0.2]","[u'red', u'blue', u'black']","[u'left', u'middle', u'right']","[0.8, 0.4, 0.2]","[u'low', u'high', u'medium']","black",51,"right","medium","True","False",330,5050,NA
"A3EQR9C0L23O6E","Thu Jan 30 2020 18:47:55 GMT-0500 (Eastern Standard Time)","Thu Jan 30 2020 18:56:07 GMT-0500 (Eastern Standard Time)","Mozilla/5.0 (Windows NT 10.0; Win64; x64) AppleWebKit/537.36 (KHTML, like Gecko) Chrome/79.0.3945.130 Safari/537.36",95,"[0.9, 0.5, 0.1]","[0.8, 0.4, 0.2]","[u'red', u'blue', u'black']","[u'left', u'middle', u'right']","[0.8, 0.4, 0.2]","[u'low', u'high', u'medium']","black",51,"right","medium","False","False",352,5000,NA
"A3EQR9C0L23O6E","Thu Jan 30 2020 18:47:55 GMT-0500 (Eastern Standard Time)","Thu Jan 30 2020 18:56:07 GMT-0500 (Eastern Standard Time)","Mozilla/5.0 (Windows NT 10.0; Win64; x64) AppleWebKit/537.36 (KHTML, like Gecko) Chrome/79.0.3945.130 Safari/537.36",96,"[0.9, 0.5, 0.1]","[0.8, 0.4, 0.2]","[u'red', u'blue', u'black']","[u'left', u'middle', u'right']","[0.8, 0.4, 0.2]","[u'low', u'high', u'medium']","black",51,"right","medium","False","False",264,4950,NA
"A3EQR9C0L23O6E","Thu Jan 30 2020 18:47:55 GMT-0500 (Eastern Standard Time)","Thu Jan 30 2020 18:56:07 GMT-0500 (Eastern Standard Time)","Mozilla/5.0 (Windows NT 10.0; Win64; x64) AppleWebKit/537.36 (KHTML, like Gecko) Chrome/79.0.3945.130 Safari/537.36",97,"[0.9, 0.5, 0.1]","[0.8, 0.4, 0.2]","[u'red', u'blue', u'black']","[u'left', u'middle', u'right']","[0.8, 0.4, 0.2]","[u'low', u'high', u'medium']","blue",50,"middle","high","True","False",256,5050,NA
"A3EQR9C0L23O6E","Thu Jan 30 2020 18:47:55 GMT-0500 (Eastern Standard Time)","Thu Jan 30 2020 18:56:07 GMT-0500 (Eastern Standard Time)","Mozilla/5.0 (Windows NT 10.0; Win64; x64) AppleWebKit/537.36 (KHTML, like Gecko) Chrome/79.0.3945.130 Safari/537.36",98,"[0.9, 0.5, 0.1]","[0.8, 0.4, 0.2]","[u'red', u'blue', u'black']","[u'left', u'middle', u'right']","[0.8, 0.4, 0.2]","[u'low', u'high', u'medium']","blue",50,"middle","high","True","False",279,5150,NA
"A3EQR9C0L23O6E","Thu Jan 30 2020 18:47:55 GMT-0500 (Eastern Standard Time)","Thu Jan 30 2020 18:56:07 GMT-0500 (Eastern Standard Time)","Mozilla/5.0 (Windows NT 10.0; Win64; x64) AppleWebKit/537.36 (KHTML, like Gecko) Chrome/79.0.3945.130 Safari/537.36",99,"[0.9, 0.5, 0.1]","[0.8, 0.4, 0.2]","[u'red', u'blue', u'black']","[u'left', u'middle', u'right']","[0.8, 0.4, 0.2]","[u'low', u'high', u'medium']","blue",50,"middle","high","True","False",323,5250,NA
"A3EQR9C0L23O6E","Thu Jan 30 2020 18:47:55 GMT-0500 (Eastern Standard Time)","Thu Jan 30 2020 18:56:07 GMT-0500 (Eastern Standard Time)","Mozilla/5.0 (Windows NT 10.0; Win64; x64) AppleWebKit/537.36 (KHTML, like Gecko) Chrome/79.0.3945.130 Safari/537.36",100,"[0.9, 0.5, 0.1]","[0.8, 0.4, 0.2]","[u'red', u'blue', u'black']","[u'left', u'middle', u'right']","[0.8, 0.4, 0.2]","[u'low', u'high', u'medium']","blue",50,"middle","high","True","False",371,5350,NA
"A3EQR9C0L23O6E","Thu Jan 30 2020 18:47:55 GMT-0500 (Eastern Standard Time)","Thu Jan 30 2020 18:56:07 GMT-0500 (Eastern Standard Time)","Mozilla/5.0 (Windows NT 10.0; Win64; x64) AppleWebKit/537.36 (KHTML, like Gecko) Chrome/79.0.3945.130 Safari/537.36",101,"[0.9, 0.5, 0.1]","[0.8, 0.4, 0.2]","[u'red', u'blue', u'black']","[u'left', u'middle', u'right']","[0.8, 0.4, 0.2]","[u'low', u'high', u'medium']","blue",50,"middle","high","True","False",352,5450,NA
"A3EQR9C0L23O6E","Thu Jan 30 2020 18:47:55 GMT-0500 (Eastern Standard Time)","Thu Jan 30 2020 18:56:07 GMT-0500 (Eastern Standard Time)","Mozilla/5.0 (Windows NT 10.0; Win64; x64) AppleWebKit/537.36 (KHTML, like Gecko) Chrome/79.0.3945.130 Safari/537.36",102,"[0.9, 0.5, 0.1]","[0.8, 0.4, 0.2]","[u'red', u'blue', u'black']","[u'left', u'middle', u'right']","[0.8, 0.4, 0.2]","[u'low', u'high', u'medium']","blue",50,"middle","high","False","False",422,5400,NA
"A3EQR9C0L23O6E","Thu Jan 30 2020 18:47:55 GMT-0500 (Eastern Standard Time)","Thu Jan 30 2020 18:56:07 GMT-0500 (Eastern Standard Time)","Mozilla/5.0 (Windows NT 10.0; Win64; x64) AppleWebKit/537.36 (KHTML, like Gecko) Chrome/79.0.3945.130 Safari/537.36",103,"[0.9, 0.5, 0.1]","[0.8, 0.4, 0.2]","[u'red', u'blue', u'black']","[u'left', u'middle', u'right']","[0.8, 0.4, 0.2]","[u'low', u'high', u'medium']","blue",50,"middle","high","True","False",246,5500,NA
"A3EQR9C0L23O6E","Thu Jan 30 2020 18:47:55 GMT-0500 (Eastern Standard Time)","Thu Jan 30 2020 18:56:07 GMT-0500 (Eastern Standard Time)","Mozilla/5.0 (Windows NT 10.0; Win64; x64) AppleWebKit/537.36 (KHTML, like Gecko) Chrome/79.0.3945.130 Safari/537.36",104,"[0.9, 0.5, 0.1]","[0.8, 0.4, 0.2]","[u'red', u'blue', u'black']","[u'left', u'middle', u'right']","[0.8, 0.4, 0.2]","[u'low', u'high', u'medium']","blue",50,"middle","high","True","False",572,5600,NA
"A3EQR9C0L23O6E","Thu Jan 30 2020 18:47:55 GMT-0500 (Eastern Standard Time)","Thu Jan 30 2020 18:56:07 GMT-0500 (Eastern Standard Time)","Mozilla/5.0 (Windows NT 10.0; Win64; x64) AppleWebKit/537.36 (KHTML, like Gecko) Chrome/79.0.3945.130 Safari/537.36",105,"[0.9, 0.5, 0.1]","[0.8, 0.4, 0.2]","[u'red', u'blue', u'black']","[u'left', u'middle', u'right']","[0.8, 0.4, 0.2]","[u'low', u'high', u'medium']","blue",50,"middle","high","True","True",700,5700,NA
"A3EQR9C0L23O6E","Thu Jan 30 2020 18:47:55 GMT-0500 (Eastern Standard Time)","Thu Jan 30 2020 18:56:07 GMT-0500 (Eastern Standard Time)","Mozilla/5.0 (Windows NT 10.0; Win64; x64) AppleWebKit/537.36 (KHTML, like Gecko) Chrome/79.0.3945.130 Safari/537.36",106,"[0.9, 0.5, 0.1]","[0.8, 0.4, 0.2]","[u'red', u'blue', u'black']","[u'left', u'middle', u'right']","[0.8, 0.4, 0.2]","[u'high', u'medium', u'low']","blue",50,"middle","medium","False","False",366,5650,NA
"A3EQR9C0L23O6E","Thu Jan 30 2020 18:47:55 GMT-0500 (Eastern Standard Time)","Thu Jan 30 2020 18:56:07 GMT-0500 (Eastern Standard Time)","Mozilla/5.0 (Windows NT 10.0; Win64; x64) AppleWebKit/537.36 (KHTML, like Gecko) Chrome/79.0.3945.130 Safari/537.36",107,"[0.9, 0.5, 0.1]","[0.8, 0.4, 0.2]","[u'red', u'blue', u'black']","[u'left', u'middle', u'right']","[0.8, 0.4, 0.2]","[u'high', u'medium', u'low']","blue",50,"middle","medium","False","False",237,5600,NA
"A3EQR9C0L23O6E","Thu Jan 30 2020 18:47:55 GMT-0500 (Eastern Standard Time)","Thu Jan 30 2020 18:56:07 GMT-0500 (Eastern Standard Time)","Mozilla/5.0 (Windows NT 10.0; Win64; x64) AppleWebKit/537.36 (KHTML, like Gecko) Chrome/79.0.3945.130 Safari/537.36",108,"[0.9, 0.5, 0.1]","[0.8, 0.4, 0.2]","[u'red', u'blue', u'black']","[u'left', u'middle', u'right']","[0.8, 0.4, 0.2]","[u'high', u'medium', u'low']","red",49,"left","high","True","False",167,5700,NA
"A3EQR9C0L23O6E","Thu Jan 30 2020 18:47:55 GMT-0500 (Eastern Standard Time)","Thu Jan 30 2020 18:56:07 GMT-0500 (Eastern Standard Time)","Mozilla/5.0 (Windows NT 10.0; Win64; x64) AppleWebKit/537.36 (KHTML, like Gecko) Chrome/79.0.3945.130 Safari/537.36",109,"[0.9, 0.5, 0.1]","[0.8, 0.4, 0.2]","[u'red', u'blue', u'black']","[u'left', u'middle', u'right']","[0.8, 0.4, 0.2]","[u'high', u'medium', u'low']","red",49,"left","high","True","False",267,5800,NA
"A3EQR9C0L23O6E","Thu Jan 30 2020 18:47:55 GMT-0500 (Eastern Standard Time)","Thu Jan 30 2020 18:56:07 GMT-0500 (Eastern Standard Time)","Mozilla/5.0 (Windows NT 10.0; Win64; x64) AppleWebKit/537.36 (KHTML, like Gecko) Chrome/79.0.3945.130 Safari/537.36",110,"[0.9, 0.5, 0.1]","[0.8, 0.4, 0.2]","[u'red', u'blue', u'black']","[u'left', u'middle', u'right']","[0.8, 0.4, 0.2]","[u'high', u'medium', u'low']","red",49,"left","high","True","False",282,5900,NA
"A3EQR9C0L23O6E","Thu Jan 30 2020 18:47:55 GMT-0500 (Eastern Standard Time)","Thu Jan 30 2020 18:56:07 GMT-0500 (Eastern Standard Time)","Mozilla/5.0 (Windows NT 10.0; Win64; x64) AppleWebKit/537.36 (KHTML, like Gecko) Chrome/79.0.3945.130 Safari/537.36",111,"[0.9, 0.5, 0.1]","[0.8, 0.4, 0.2]","[u'red', u'blue', u'black']","[u'left', u'middle', u'right']","[0.8, 0.4, 0.2]","[u'high', u'medium', u'low']","red",49,"left","high","True","False",423,6000,NA
"A3EQR9C0L23O6E","Thu Jan 30 2020 18:47:55 GMT-0500 (Eastern Standard Time)","Thu Jan 30 2020 18:56:07 GMT-0500 (Eastern Standard Time)","Mozilla/5.0 (Windows NT 10.0; Win64; x64) AppleWebKit/537.36 (KHTML, like Gecko) Chrome/79.0.3945.130 Safari/537.36",112,"[0.9, 0.5, 0.1]","[0.8, 0.4, 0.2]","[u'red', u'blue', u'black']","[u'left', u'middle', u'right']","[0.8, 0.4, 0.2]","[u'high', u'medium', u'low']","red",49,"left","high","True","False",476,6100,NA
"A3EQR9C0L23O6E","Thu Jan 30 2020 18:47:55 GMT-0500 (Eastern Standard Time)","Thu Jan 30 2020 18:56:07 GMT-0500 (Eastern Standard Time)","Mozilla/5.0 (Windows NT 10.0; Win64; x64) AppleWebKit/537.36 (KHTML, like Gecko) Chrome/79.0.3945.130 Safari/537.36",113,"[0.9, 0.5, 0.1]","[0.8, 0.4, 0.2]","[u'red', u'blue', u'black']","[u'left', u'middle', u'right']","[0.8, 0.4, 0.2]","[u'high', u'medium', u'low']","red",49,"left","high","True","False",492,6200,NA
"A3EQR9C0L23O6E","Thu Jan 30 2020 18:47:55 GMT-0500 (Eastern Standard Time)","Thu Jan 30 2020 18:56:07 GMT-0500 (Eastern Standard Time)","Mozilla/5.0 (Windows NT 10.0; Win64; x64) AppleWebKit/537.36 (KHTML, like Gecko) Chrome/79.0.3945.130 Safari/537.36",114,"[0.9, 0.5, 0.1]","[0.8, 0.4, 0.2]","[u'red', u'blue', u'black']","[u'left', u'middle', u'right']","[0.8, 0.4, 0.2]","[u'high', u'medium', u'low']","red",49,"left","high","True","False",650,6300,NA
"A3EQR9C0L23O6E","Thu Jan 30 2020 18:47:55 GMT-0500 (Eastern Standard Time)","Thu Jan 30 2020 18:56:07 GMT-0500 (Eastern Standard Time)","Mozilla/5.0 (Windows NT 10.0; Win64; x64) AppleWebKit/537.36 (KHTML, like Gecko) Chrome/79.0.3945.130 Safari/537.36",115,"[0.9, 0.5, 0.1]","[0.8, 0.4, 0.2]","[u'red', u'blue', u'black']","[u'left', u'middle', u'right']","[0.8, 0.4, 0.2]","[u'high', u'medium', u'low']","red",49,"left","high","True","False",302,6400,NA
"A3EQR9C0L23O6E","Thu Jan 30 2020 18:47:55 GMT-0500 (Eastern Standard Time)","Thu Jan 30 2020 18:56:07 GMT-0500 (Eastern Standard Time)","Mozilla/5.0 (Windows NT 10.0; Win64; x64) AppleWebKit/537.36 (KHTML, like Gecko) Chrome/79.0.3945.130 Safari/537.36",116,"[0.9, 0.5, 0.1]","[0.8, 0.4, 0.2]","[u'red', u'blue', u'black']","[u'left', u'middle', u'right']","[0.8, 0.4, 0.2]","[u'high', u'medium', u'low']","red",49,"left","high","True","True",455,6500,NA
"A3EQR9C0L23O6E","Thu Jan 30 2020 18:47:55 GMT-0500 (Eastern Standard Time)","Thu Jan 30 2020 18:56:07 GMT-0500 (Eastern Standard Time)","Mozilla/5.0 (Windows NT 10.0; Win64; x64) AppleWebKit/537.36 (KHTML, like Gecko) Chrome/79.0.3945.130 Safari/537.36",117,"[0.9, 0.5, 0.1]","[0.8, 0.4, 0.2]","[u'red', u'blue', u'black']","[u'left', u'middle', u'right']","[0.8, 0.4, 0.2]","[u'medium', u'low', u'high']","red",49,"left","medium","False","False",316,6450,NA
"A3EQR9C0L23O6E","Thu Jan 30 2020 18:47:55 GMT-0500 (Eastern Standard Time)","Thu Jan 30 2020 18:56:07 GMT-0500 (Eastern Standard Time)","Mozilla/5.0 (Windows NT 10.0; Win64; x64) AppleWebKit/537.36 (KHTML, like Gecko) Chrome/79.0.3945.130 Safari/537.36",118,"[0.9, 0.5, 0.1]","[0.8, 0.4, 0.2]","[u'red', u'blue', u'black']","[u'left', u'middle', u'right']","[0.8, 0.4, 0.2]","[u'medium', u'low', u'high']","red",49,"left","medium","True","False",215,6550,NA
"A3EQR9C0L23O6E","Thu Jan 30 2020 18:47:55 GMT-0500 (Eastern Standard Time)","Thu Jan 30 2020 18:56:07 GMT-0500 (Eastern Standard Time)","Mozilla/5.0 (Windows NT 10.0; Win64; x64) AppleWebKit/537.36 (KHTML, like Gecko) Chrome/79.0.3945.130 Safari/537.36",119,"[0.9, 0.5, 0.1]","[0.8, 0.4, 0.2]","[u'red', u'blue', u'black']","[u'left', u'middle', u'right']","[0.8, 0.4, 0.2]","[u'medium', u'low', u'high']","red",49,"left","medium","False","False",309,6500,NA
"A3EQR9C0L23O6E","Thu Jan 30 2020 18:47:55 GMT-0500 (Eastern Standard Time)","Thu Jan 30 2020 18:56:07 GMT-0500 (Eastern Standard Time)","Mozilla/5.0 (Windows NT 10.0; Win64; x64) AppleWebKit/537.36 (KHTML, like Gecko) Chrome/79.0.3945.130 Safari/537.36",120,"[0.9, 0.5, 0.1]","[0.8, 0.4, 0.2]","[u'red', u'blue', u'black']","[u'left', u'middle', u'right']","[0.8, 0.4, 0.2]","[u'medium', u'low', u'high']","black",51,"right","high","False","False",302,6450,NA
"A3EQR9C0L23O6E","Thu Jan 30 2020 18:47:55 GMT-0500 (Eastern Standard Time)","Thu Jan 30 2020 18:56:07 GMT-0500 (Eastern Standard Time)","Mozilla/5.0 (Windows NT 10.0; Win64; x64) AppleWebKit/537.36 (KHTML, like Gecko) Chrome/79.0.3945.130 Safari/537.36",121,"[0.9, 0.5, 0.1]","[0.8, 0.4, 0.2]","[u'red', u'blue', u'black']","[u'left', u'middle', u'right']","[0.8, 0.4, 0.2]","[u'medium', u'high', u'low']","blue",50,"middle","high","True","False",516,6550,NA
"A3EQR9C0L23O6E","Thu Jan 30 2020 18:47:55 GMT-0500 (Eastern Standard Time)","Thu Jan 30 2020 18:56:07 GMT-0500 (Eastern Standard Time)","Mozilla/5.0 (Windows NT 10.0; Win64; x64) AppleWebKit/537.36 (KHTML, like Gecko) Chrome/79.0.3945.130 Safari/537.36",122,"[0.9, 0.5, 0.1]","[0.8, 0.4, 0.2]","[u'red', u'blue', u'black']","[u'left', u'middle', u'right']","[0.8, 0.4, 0.2]","[u'medium', u'high', u'low']","blue",50,"middle","high","True","False",257,6650,NA
"A3EQR9C0L23O6E","Thu Jan 30 2020 18:47:55 GMT-0500 (Eastern Standard Time)","Thu Jan 30 2020 18:56:07 GMT-0500 (Eastern Standard Time)","Mozilla/5.0 (Windows NT 10.0; Win64; x64) AppleWebKit/537.36 (KHTML, like Gecko) Chrome/79.0.3945.130 Safari/537.36",123,"[0.9, 0.5, 0.1]","[0.8, 0.4, 0.2]","[u'red', u'blue', u'black']","[u'left', u'middle', u'right']","[0.8, 0.4, 0.2]","[u'medium', u'high', u'low']","blue",50,"middle","high","True","False",229,6750,NA
"A3EQR9C0L23O6E","Thu Jan 30 2020 18:47:55 GMT-0500 (Eastern Standard Time)","Thu Jan 30 2020 18:56:07 GMT-0500 (Eastern Standard Time)","Mozilla/5.0 (Windows NT 10.0; Win64; x64) AppleWebKit/537.36 (KHTML, like Gecko) Chrome/79.0.3945.130 Safari/537.36",124,"[0.9, 0.5, 0.1]","[0.8, 0.4, 0.2]","[u'red', u'blue', u'black']","[u'left', u'middle', u'right']","[0.8, 0.4, 0.2]","[u'medium', u'high', u'low']","blue",50,"middle","high","False","False",361,6700,NA
"A3EQR9C0L23O6E","Thu Jan 30 2020 18:47:55 GMT-0500 (Eastern Standard Time)","Thu Jan 30 2020 18:56:07 GMT-0500 (Eastern Standard Time)","Mozilla/5.0 (Windows NT 10.0; Win64; x64) AppleWebKit/537.36 (KHTML, like Gecko) Chrome/79.0.3945.130 Safari/537.36",125,"[0.9, 0.5, 0.1]","[0.8, 0.4, 0.2]","[u'red', u'blue', u'black']","[u'left', u'middle', u'right']","[0.8, 0.4, 0.2]","[u'medium', u'high', u'low']","blue",50,"middle","high","True","False",180,6800,NA
"A3EQR9C0L23O6E","Thu Jan 30 2020 18:47:55 GMT-0500 (Eastern Standard Time)","Thu Jan 30 2020 18:56:07 GMT-0500 (Eastern Standard Time)","Mozilla/5.0 (Windows NT 10.0; Win64; x64) AppleWebKit/537.36 (KHTML, like Gecko) Chrome/79.0.3945.130 Safari/537.36",126,"[0.9, 0.5, 0.1]","[0.8, 0.4, 0.2]","[u'red', u'blue', u'black']","[u'left', u'middle', u'right']","[0.8, 0.4, 0.2]","[u'medium', u'high', u'low']","blue",50,"middle","high","False","False",255,6750,NA
"A3EQR9C0L23O6E","Thu Jan 30 2020 18:47:55 GMT-0500 (Eastern Standard Time)","Thu Jan 30 2020 18:56:07 GMT-0500 (Eastern Standard Time)","Mozilla/5.0 (Windows NT 10.0; Win64; x64) AppleWebKit/537.36 (KHTML, like Gecko) Chrome/79.0.3945.130 Safari/537.36",127,"[0.9, 0.5, 0.1]","[0.8, 0.4, 0.2]","[u'red', u'blue', u'black']","[u'left', u'middle', u'right']","[0.8, 0.4, 0.2]","[u'medium', u'high', u'low']","blue",50,"middle","high","False","False",252,6700,NA
"A3EQR9C0L23O6E","Thu Jan 30 2020 18:47:55 GMT-0500 (Eastern Standard Time)","Thu Jan 30 2020 18:56:07 GMT-0500 (Eastern Standard Time)","Mozilla/5.0 (Windows NT 10.0; Win64; x64) AppleWebKit/537.36 (KHTML, like Gecko) Chrome/79.0.3945.130 Safari/537.36",128,"[0.9, 0.5, 0.1]","[0.8, 0.4, 0.2]","[u'red', u'blue', u'black']","[u'left', u'middle', u'right']","[0.8, 0.4, 0.2]","[u'medium', u'high', u'low']","red",49,"left","medium","False","False",246,6650,NA
"A3EQR9C0L23O6E","Thu Jan 30 2020 18:47:55 GMT-0500 (Eastern Standard Time)","Thu Jan 30 2020 18:56:07 GMT-0500 (Eastern Standard Time)","Mozilla/5.0 (Windows NT 10.0; Win64; x64) AppleWebKit/537.36 (KHTML, like Gecko) Chrome/79.0.3945.130 Safari/537.36",129,"[0.9, 0.5, 0.1]","[0.8, 0.4, 0.2]","[u'red', u'blue', u'black']","[u'left', u'middle', u'right']","[0.8, 0.4, 0.2]","[u'medium', u'high', u'low']","black",51,"right","low","False","False",329,6600,NA
"A3EQR9C0L23O6E","Thu Jan 30 2020 18:47:55 GMT-0500 (Eastern Standard Time)","Thu Jan 30 2020 18:56:07 GMT-0500 (Eastern Standard Time)","Mozilla/5.0 (Windows NT 10.0; Win64; x64) AppleWebKit/537.36 (KHTML, like Gecko) Chrome/79.0.3945.130 Safari/537.36",130,"[0.9, 0.5, 0.1]","[0.8, 0.4, 0.2]","[u'red', u'blue', u'black']","[u'left', u'middle', u'right']","[0.8, 0.4, 0.2]","[u'medium', u'high', u'low']","red",49,"left","medium","False","False",249,6550,NA
"A3EQR9C0L23O6E","Thu Jan 30 2020 18:47:55 GMT-0500 (Eastern Standard Time)","Thu Jan 30 2020 18:56:07 GMT-0500 (Eastern Standard Time)","Mozilla/5.0 (Windows NT 10.0; Win64; x64) AppleWebKit/537.36 (KHTML, like Gecko) Chrome/79.0.3945.130 Safari/537.36",131,"[0.9, 0.5, 0.1]","[0.8, 0.4, 0.2]","[u'red', u'blue', u'black']","[u'left', u'middle', u'right']","[0.8, 0.4, 0.2]","[u'medium', u'high', u'low']","black",51,"right","low","True","False",184,6650,NA
"A3EQR9C0L23O6E","Thu Jan 30 2020 18:47:55 GMT-0500 (Eastern Standard Time)","Thu Jan 30 2020 18:56:07 GMT-0500 (Eastern Standard Time)","Mozilla/5.0 (Windows NT 10.0; Win64; x64) AppleWebKit/537.36 (KHTML, like Gecko) Chrome/79.0.3945.130 Safari/537.36",132,"[0.9, 0.5, 0.1]","[0.8, 0.4, 0.2]","[u'red', u'blue', u'black']","[u'left', u'middle', u'right']","[0.8, 0.4, 0.2]","[u'medium', u'high', u'low']","black",51,"right","low","False","False",230,6600,NA
"A3EQR9C0L23O6E","Thu Jan 30 2020 18:47:55 GMT-0500 (Eastern Standard Time)","Thu Jan 30 2020 18:56:07 GMT-0500 (Eastern Standard Time)","Mozilla/5.0 (Windows NT 10.0; Win64; x64) AppleWebKit/537.36 (KHTML, like Gecko) Chrome/79.0.3945.130 Safari/537.36",133,"[0.9, 0.5, 0.1]","[0.8, 0.4, 0.2]","[u'red', u'blue', u'black']","[u'left', u'middle', u'right']","[0.8, 0.4, 0.2]","[u'medium', u'high', u'low']","black",51,"right","low","False","False",306,6550,NA
"A3EQR9C0L23O6E","Thu Jan 30 2020 18:47:55 GMT-0500 (Eastern Standard Time)","Thu Jan 30 2020 18:56:07 GMT-0500 (Eastern Standard Time)","Mozilla/5.0 (Windows NT 10.0; Win64; x64) AppleWebKit/537.36 (KHTML, like Gecko) Chrome/79.0.3945.130 Safari/537.36",134,"[0.9, 0.5, 0.1]","[0.8, 0.4, 0.2]","[u'red', u'blue', u'black']","[u'left', u'middle', u'right']","[0.8, 0.4, 0.2]","[u'medium', u'high', u'low']","blue",50,"middle","high","False","False",154,6500,NA
"A3EQR9C0L23O6E","Thu Jan 30 2020 18:47:55 GMT-0500 (Eastern Standard Time)","Thu Jan 30 2020 18:56:07 GMT-0500 (Eastern Standard Time)","Mozilla/5.0 (Windows NT 10.0; Win64; x64) AppleWebKit/537.36 (KHTML, like Gecko) Chrome/79.0.3945.130 Safari/537.36",135,"[0.9, 0.5, 0.1]","[0.8, 0.4, 0.2]","[u'red', u'blue', u'black']","[u'left', u'middle', u'right']","[0.8, 0.4, 0.2]","[u'medium', u'high', u'low']","blue",50,"middle","high","False","False",185,6450,NA
"A3EQR9C0L23O6E","Thu Jan 30 2020 18:47:55 GMT-0500 (Eastern Standard Time)","Thu Jan 30 2020 18:56:07 GMT-0500 (Eastern Standard Time)","Mozilla/5.0 (Windows NT 10.0; Win64; x64) AppleWebKit/537.36 (KHTML, like Gecko) Chrome/79.0.3945.130 Safari/537.36",136,"[0.9, 0.5, 0.1]","[0.8, 0.4, 0.2]","[u'red', u'blue', u'black']","[u'left', u'middle', u'right']","[0.8, 0.4, 0.2]","[u'medium', u'high', u'low']","black",51,"right","low","False","False",385,6400,NA
"A3EQR9C0L23O6E","Thu Jan 30 2020 18:47:55 GMT-0500 (Eastern Standard Time)","Thu Jan 30 2020 18:56:07 GMT-0500 (Eastern Standard Time)","Mozilla/5.0 (Windows NT 10.0; Win64; x64) AppleWebKit/537.36 (KHTML, like Gecko) Chrome/79.0.3945.130 Safari/537.36",137,"[0.9, 0.5, 0.1]","[0.8, 0.4, 0.2]","[u'red', u'blue', u'black']","[u'left', u'middle', u'right']","[0.8, 0.4, 0.2]","[u'medium', u'high', u'low']","red",49,"left","medium","True","False",241,6500,NA
"A3EQR9C0L23O6E","Thu Jan 30 2020 18:47:55 GMT-0500 (Eastern Standard Time)","Thu Jan 30 2020 18:56:07 GMT-0500 (Eastern Standard Time)","Mozilla/5.0 (Windows NT 10.0; Win64; x64) AppleWebKit/537.36 (KHTML, like Gecko) Chrome/79.0.3945.130 Safari/537.36",138,"[0.9, 0.5, 0.1]","[0.8, 0.4, 0.2]","[u'red', u'blue', u'black']","[u'left', u'middle', u'right']","[0.8, 0.4, 0.2]","[u'medium', u'high', u'low']","red",49,"left","medium","True","False",216,6600,NA
"A3EQR9C0L23O6E","Thu Jan 30 2020 18:47:55 GMT-0500 (Eastern Standard Time)","Thu Jan 30 2020 18:56:07 GMT-0500 (Eastern Standard Time)","Mozilla/5.0 (Windows NT 10.0; Win64; x64) AppleWebKit/537.36 (KHTML, like Gecko) Chrome/79.0.3945.130 Safari/537.36",139,"[0.9, 0.5, 0.1]","[0.8, 0.4, 0.2]","[u'red', u'blue', u'black']","[u'left', u'middle', u'right']","[0.8, 0.4, 0.2]","[u'medium', u'high', u'low']","red",49,"left","medium","True","False",58,6700,NA
"A3EQR9C0L23O6E","Thu Jan 30 2020 18:47:55 GMT-0500 (Eastern Standard Time)","Thu Jan 30 2020 18:56:07 GMT-0500 (Eastern Standard Time)","Mozilla/5.0 (Windows NT 10.0; Win64; x64) AppleWebKit/537.36 (KHTML, like Gecko) Chrome/79.0.3945.130 Safari/537.36",140,"[0.9, 0.5, 0.1]","[0.8, 0.4, 0.2]","[u'red', u'blue', u'black']","[u'left', u'middle', u'right']","[0.8, 0.4, 0.2]","[u'medium', u'high', u'low']","red",49,"left","medium","False","False",230,6650,NA
"A3EQR9C0L23O6E","Thu Jan 30 2020 18:47:55 GMT-0500 (Eastern Standard Time)","Thu Jan 30 2020 18:56:07 GMT-0500 (Eastern Standard Time)","Mozilla/5.0 (Windows NT 10.0; Win64; x64) AppleWebKit/537.36 (KHTML, like Gecko) Chrome/79.0.3945.130 Safari/537.36",141,"[0.9, 0.5, 0.1]","[0.8, 0.4, 0.2]","[u'red', u'blue', u'black']","[u'left', u'middle', u'right']","[0.8, 0.4, 0.2]","[u'medium', u'high', u'low']","red",49,"left","medium","True","False",352,6750,NA
"A3EQR9C0L23O6E","Thu Jan 30 2020 18:47:55 GMT-0500 (Eastern Standard Time)","Thu Jan 30 2020 18:56:07 GMT-0500 (Eastern Standard Time)","Mozilla/5.0 (Windows NT 10.0; Win64; x64) AppleWebKit/537.36 (KHTML, like Gecko) Chrome/79.0.3945.130 Safari/537.36",142,"[0.9, 0.5, 0.1]","[0.8, 0.4, 0.2]","[u'red', u'blue', u'black']","[u'left', u'middle', u'right']","[0.8, 0.4, 0.2]","[u'medium', u'high', u'low']","red",49,"left","medium","False","False",287,6700,NA
"A3EQR9C0L23O6E","Thu Jan 30 2020 18:47:55 GMT-0500 (Eastern Standard Time)","Thu Jan 30 2020 18:56:07 GMT-0500 (Eastern Standard Time)","Mozilla/5.0 (Windows NT 10.0; Win64; x64) AppleWebKit/537.36 (KHTML, like Gecko) Chrome/79.0.3945.130 Safari/537.36",143,"[0.9, 0.5, 0.1]","[0.8, 0.4, 0.2]","[u'red', u'blue', u'black']","[u'left', u'middle', u'right']","[0.8, 0.4, 0.2]","[u'medium', u'high', u'low']","red",49,"left","medium","False","False",284,6650,NA
"A3EQR9C0L23O6E","Thu Jan 30 2020 18:47:55 GMT-0500 (Eastern Standard Time)","Thu Jan 30 2020 18:56:07 GMT-0500 (Eastern Standard Time)","Mozilla/5.0 (Windows NT 10.0; Win64; x64) AppleWebKit/537.36 (KHTML, like Gecko) Chrome/79.0.3945.130 Safari/537.36",144,"[0.9, 0.5, 0.1]","[0.8, 0.4, 0.2]","[u'red', u'blue', u'black']","[u'left', u'middle', u'right']","[0.8, 0.4, 0.2]","[u'medium', u'high', u'low']","red",49,"left","medium","False","False",309,6600,NA
"A3EQR9C0L23O6E","Thu Jan 30 2020 18:47:55 GMT-0500 (Eastern Standard Time)","Thu Jan 30 2020 18:56:07 GMT-0500 (Eastern Standard Time)","Mozilla/5.0 (Windows NT 10.0; Win64; x64) AppleWebKit/537.36 (KHTML, like Gecko) Chrome/79.0.3945.130 Safari/537.36",145,"[0.9, 0.5, 0.1]","[0.8, 0.4, 0.2]","[u'red', u'blue', u'black']","[u'left', u'middle', u'right']","[0.8, 0.4, 0.2]","[u'medium', u'high', u'low']","blue",50,"middle","high","True","False",169,6700,NA
"A3EQR9C0L23O6E","Thu Jan 30 2020 18:47:55 GMT-0500 (Eastern Standard Time)","Thu Jan 30 2020 18:56:07 GMT-0500 (Eastern Standard Time)","Mozilla/5.0 (Windows NT 10.0; Win64; x64) AppleWebKit/537.36 (KHTML, like Gecko) Chrome/79.0.3945.130 Safari/537.36",146,"[0.9, 0.5, 0.1]","[0.8, 0.4, 0.2]","[u'red', u'blue', u'black']","[u'left', u'middle', u'right']","[0.8, 0.4, 0.2]","[u'medium', u'high', u'low']","blue",50,"middle","high","True","False",260,6800,NA
"A3EQR9C0L23O6E","Thu Jan 30 2020 18:47:55 GMT-0500 (Eastern Standard Time)","Thu Jan 30 2020 18:56:07 GMT-0500 (Eastern Standard Time)","Mozilla/5.0 (Windows NT 10.0; Win64; x64) AppleWebKit/537.36 (KHTML, like Gecko) Chrome/79.0.3945.130 Safari/537.36",147,"[0.9, 0.5, 0.1]","[0.8, 0.4, 0.2]","[u'red', u'blue', u'black']","[u'left', u'middle', u'right']","[0.8, 0.4, 0.2]","[u'medium', u'high', u'low']","blue",50,"middle","high","True","False",227,6900,NA
"A3EQR9C0L23O6E","Thu Jan 30 2020 18:47:55 GMT-0500 (Eastern Standard Time)","Thu Jan 30 2020 18:56:07 GMT-0500 (Eastern Standard Time)","Mozilla/5.0 (Windows NT 10.0; Win64; x64) AppleWebKit/537.36 (KHTML, like Gecko) Chrome/79.0.3945.130 Safari/537.36",148,"[0.9, 0.5, 0.1]","[0.8, 0.4, 0.2]","[u'red', u'blue', u'black']","[u'left', u'middle', u'right']","[0.8, 0.4, 0.2]","[u'medium', u'high', u'low']","blue",50,"middle","high","True","False",588,7000,NA
"A3EQR9C0L23O6E","Thu Jan 30 2020 18:47:55 GMT-0500 (Eastern Standard Time)","Thu Jan 30 2020 18:56:07 GMT-0500 (Eastern Standard Time)","Mozilla/5.0 (Windows NT 10.0; Win64; x64) AppleWebKit/537.36 (KHTML, like Gecko) Chrome/79.0.3945.130 Safari/537.36",149,"[0.9, 0.5, 0.1]","[0.8, 0.4, 0.2]","[u'red', u'blue', u'black']","[u'left', u'middle', u'right']","[0.8, 0.4, 0.2]","[u'medium', u'high', u'low']","blue",50,"middle","high","True","False",352,7100,NA
"A3EQR9C0L23O6E","Thu Jan 30 2020 18:47:55 GMT-0500 (Eastern Standard Time)","Thu Jan 30 2020 18:56:07 GMT-0500 (Eastern Standard Time)","Mozilla/5.0 (Windows NT 10.0; Win64; x64) AppleWebKit/537.36 (KHTML, like Gecko) Chrome/79.0.3945.130 Safari/537.36",150,"[0.9, 0.5, 0.1]","[0.8, 0.4, 0.2]","[u'red', u'blue', u'black']","[u'left', u'middle', u'right']","[0.8, 0.4, 0.2]","[u'medium', u'high', u'low']","blue",50,"middle","high","True","False",1212,7200,NA
"A3EQR9C0L23O6E","Thu Jan 30 2020 18:47:55 GMT-0500 (Eastern Standard Time)","Thu Jan 30 2020 18:56:07 GMT-0500 (Eastern Standard Time)","Mozilla/5.0 (Windows NT 10.0; Win64; x64) AppleWebKit/537.36 (KHTML, like Gecko) Chrome/79.0.3945.130 Safari/537.36",151,"[0.9, 0.5, 0.1]","[0.8, 0.4, 0.2]","[u'red', u'blue', u'black']","[u'left', u'middle', u'right']","[0.8, 0.4, 0.2]","[u'medium', u'high', u'low']","blue",50,"middle","high","True","False",400,7300,NA
"A3EQR9C0L23O6E","Thu Jan 30 2020 18:47:55 GMT-0500 (Eastern Standard Time)","Thu Jan 30 2020 18:56:07 GMT-0500 (Eastern Standard Time)","Mozilla/5.0 (Windows NT 10.0; Win64; x64) AppleWebKit/537.36 (KHTML, like Gecko) Chrome/79.0.3945.130 Safari/537.36",152,"[0.9, 0.5, 0.1]","[0.8, 0.4, 0.2]","[u'red', u'blue', u'black']","[u'left', u'middle', u'right']","[0.8, 0.4, 0.2]","[u'medium', u'high', u'low']","blue",50,"middle","high","True","False",434,7400,NA
"A3EQR9C0L23O6E","Thu Jan 30 2020 18:47:55 GMT-0500 (Eastern Standard Time)","Thu Jan 30 2020 18:56:07 GMT-0500 (Eastern Standard Time)","Mozilla/5.0 (Windows NT 10.0; Win64; x64) AppleWebKit/537.36 (KHTML, like Gecko) Chrome/79.0.3945.130 Safari/537.36",153,"[0.9, 0.5, 0.1]","[0.8, 0.4, 0.2]","[u'red', u'blue', u'black']","[u'left', u'middle', u'right']","[0.8, 0.4, 0.2]","[u'medium', u'high', u'low']","blue",50,"middle","high","True","True",533,7500,NA
"A3EQR9C0L23O6E","Thu Jan 30 2020 18:47:55 GMT-0500 (Eastern Standard Time)","Thu Jan 30 2020 18:56:07 GMT-0500 (Eastern Standard Time)","Mozilla/5.0 (Windows NT 10.0; Win64; x64) AppleWebKit/537.36 (KHTML, like Gecko) Chrome/79.0.3945.130 Safari/537.36",154,"[0.9, 0.5, 0.1]","[0.8, 0.4, 0.2]","[u'red', u'blue', u'black']","[u'left', u'middle', u'right']","[0.8, 0.4, 0.2]","[u'medium', u'low', u'high']","blue",50,"middle","low","False","False",410,7450,NA
"A3EQR9C0L23O6E","Thu Jan 30 2020 18:47:55 GMT-0500 (Eastern Standard Time)","Thu Jan 30 2020 18:56:07 GMT-0500 (Eastern Standard Time)","Mozilla/5.0 (Windows NT 10.0; Win64; x64) AppleWebKit/537.36 (KHTML, like Gecko) Chrome/79.0.3945.130 Safari/537.36",155,"[0.9, 0.5, 0.1]","[0.8, 0.4, 0.2]","[u'red', u'blue', u'black']","[u'left', u'middle', u'right']","[0.8, 0.4, 0.2]","[u'medium', u'low', u'high']","blue",50,"middle","low","False","False",441,7400,NA
"A3EQR9C0L23O6E","Thu Jan 30 2020 18:47:55 GMT-0500 (Eastern Standard Time)","Thu Jan 30 2020 18:56:07 GMT-0500 (Eastern Standard Time)","Mozilla/5.0 (Windows NT 10.0; Win64; x64) AppleWebKit/537.36 (KHTML, like Gecko) Chrome/79.0.3945.130 Safari/537.36",156,"[0.9, 0.5, 0.1]","[0.8, 0.4, 0.2]","[u'red', u'blue', u'black']","[u'left', u'middle', u'right']","[0.8, 0.4, 0.2]","[u'medium', u'low', u'high']","black",51,"right","high","True","False",380,7500,NA
"A3EQR9C0L23O6E","Thu Jan 30 2020 18:47:55 GMT-0500 (Eastern Standard Time)","Thu Jan 30 2020 18:56:07 GMT-0500 (Eastern Standard Time)","Mozilla/5.0 (Windows NT 10.0; Win64; x64) AppleWebKit/537.36 (KHTML, like Gecko) Chrome/79.0.3945.130 Safari/537.36",157,"[0.9, 0.5, 0.1]","[0.8, 0.4, 0.2]","[u'red', u'blue', u'black']","[u'left', u'middle', u'right']","[0.8, 0.4, 0.2]","[u'medium', u'low', u'high']","black",51,"right","high","True","False",46,7600,NA
"A3EQR9C0L23O6E","Thu Jan 30 2020 18:47:55 GMT-0500 (Eastern Standard Time)","Thu Jan 30 2020 18:56:07 GMT-0500 (Eastern Standard Time)","Mozilla/5.0 (Windows NT 10.0; Win64; x64) AppleWebKit/537.36 (KHTML, like Gecko) Chrome/79.0.3945.130 Safari/537.36",158,"[0.9, 0.5, 0.1]","[0.8, 0.4, 0.2]","[u'red', u'blue', u'black']","[u'left', u'middle', u'right']","[0.8, 0.4, 0.2]","[u'medium', u'low', u'high']","black",51,"right","high","True","False",514,7700,NA
"A3EQR9C0L23O6E","Thu Jan 30 2020 18:47:55 GMT-0500 (Eastern Standard Time)","Thu Jan 30 2020 18:56:07 GMT-0500 (Eastern Standard Time)","Mozilla/5.0 (Windows NT 10.0; Win64; x64) AppleWebKit/537.36 (KHTML, like Gecko) Chrome/79.0.3945.130 Safari/537.36",159,"[0.9, 0.5, 0.1]","[0.8, 0.4, 0.2]","[u'red', u'blue', u'black']","[u'left', u'middle', u'right']","[0.8, 0.4, 0.2]","[u'medium', u'low', u'high']","black",51,"right","high","True","False",257,7800,NA
"A3EQR9C0L23O6E","Thu Jan 30 2020 18:47:55 GMT-0500 (Eastern Standard Time)","Thu Jan 30 2020 18:56:07 GMT-0500 (Eastern Standard Time)","Mozilla/5.0 (Windows NT 10.0; Win64; x64) AppleWebKit/537.36 (KHTML, like Gecko) Chrome/79.0.3945.130 Safari/537.36",160,"[0.9, 0.5, 0.1]","[0.8, 0.4, 0.2]","[u'red', u'blue', u'black']","[u'left', u'middle', u'right']","[0.8, 0.4, 0.2]","[u'medium', u'low', u'high']","black",51,"right","high","False","False",244,7750,NA
