"src_subject_id","start_time","end_time","browser","index","first_half_probabilities","second_half_probabilities","deck_color","deck_position","deck_probabilities","deck_contingencies","response_color","key_press","response_position","response_probability","reward_type","trial_type","rt","reward_tally","exclusion_reason"
"ANBWJZYU2A68T","Tue Sep 29 2020 15:45:50 GMT-0400 (Eastern Daylight Time)","Tue Sep 29 2020 15:57:55 GMT-0400 (Eastern Daylight Time)","Mozilla/5.0 (Macintosh; Intel Mac OS X 10_11_6) AppleWebKit/537.36 (KHTML, like Gecko) Chrome/85.0.4183.121 Safari/537.36",1,"[0.9, 0.5, 0.1]","[0.8, 0.4, 0.2]","[u'red', u'black', u'blue']","[u'left', u'middle', u'right']","[0.9, 0.5, 0.1]","[u'low', u'medium', u'high']","blue",51,"right","high","True","False",1423,100,NA
"ANBWJZYU2A68T","Tue Sep 29 2020 15:45:50 GMT-0400 (Eastern Daylight Time)","Tue Sep 29 2020 15:57:55 GMT-0400 (Eastern Daylight Time)","Mozilla/5.0 (Macintosh; Intel Mac OS X 10_11_6) AppleWebKit/537.36 (KHTML, like Gecko) Chrome/85.0.4183.121 Safari/537.36",2,"[0.9, 0.5, 0.1]","[0.8, 0.4, 0.2]","[u'red', u'black', u'blue']","[u'left', u'middle', u'right']","[0.9, 0.5, 0.1]","[u'low', u'medium', u'high']","blue",51,"right","high","True","False",455,200,NA
"ANBWJZYU2A68T","Tue Sep 29 2020 15:45:50 GMT-0400 (Eastern Daylight Time)","Tue Sep 29 2020 15:57:55 GMT-0400 (Eastern Daylight Time)","Mozilla/5.0 (Macintosh; Intel Mac OS X 10_11_6) AppleWebKit/537.36 (KHTML, like Gecko) Chrome/85.0.4183.121 Safari/537.36",3,"[0.9, 0.5, 0.1]","[0.8, 0.4, 0.2]","[u'red', u'black', u'blue']","[u'left', u'middle', u'right']","[0.9, 0.5, 0.1]","[u'low', u'medium', u'high']","blue",51,"right","high","True","False",406,300,NA
"ANBWJZYU2A68T","Tue Sep 29 2020 15:45:50 GMT-0400 (Eastern Daylight Time)","Tue Sep 29 2020 15:57:55 GMT-0400 (Eastern Daylight Time)","Mozilla/5.0 (Macintosh; Intel Mac OS X 10_11_6) AppleWebKit/537.36 (KHTML, like Gecko) Chrome/85.0.4183.121 Safari/537.36",4,"[0.9, 0.5, 0.1]","[0.8, 0.4, 0.2]","[u'red', u'black', u'blue']","[u'left', u'middle', u'right']","[0.9, 0.5, 0.1]","[u'low', u'medium', u'high']","blue",51,"right","high","True","False",503,400,NA
"ANBWJZYU2A68T","Tue Sep 29 2020 15:45:50 GMT-0400 (Eastern Daylight Time)","Tue Sep 29 2020 15:57:55 GMT-0400 (Eastern Daylight Time)","Mozilla/5.0 (Macintosh; Intel Mac OS X 10_11_6) AppleWebKit/537.36 (KHTML, like Gecko) Chrome/85.0.4183.121 Safari/537.36",5,"[0.9, 0.5, 0.1]","[0.8, 0.4, 0.2]","[u'red', u'black', u'blue']","[u'left', u'middle', u'right']","[0.9, 0.5, 0.1]","[u'low', u'medium', u'high']","blue",51,"right","high","True","False",505,500,NA
"ANBWJZYU2A68T","Tue Sep 29 2020 15:45:50 GMT-0400 (Eastern Daylight Time)","Tue Sep 29 2020 15:57:55 GMT-0400 (Eastern Daylight Time)","Mozilla/5.0 (Macintosh; Intel Mac OS X 10_11_6) AppleWebKit/537.36 (KHTML, like Gecko) Chrome/85.0.4183.121 Safari/537.36",6,"[0.9, 0.5, 0.1]","[0.8, 0.4, 0.2]","[u'red', u'black', u'blue']","[u'left', u'middle', u'right']","[0.9, 0.5, 0.1]","[u'low', u'medium', u'high']","blue",51,"right","high","True","False",536,600,NA
"ANBWJZYU2A68T","Tue Sep 29 2020 15:45:50 GMT-0400 (Eastern Daylight Time)","Tue Sep 29 2020 15:57:55 GMT-0400 (Eastern Daylight Time)","Mozilla/5.0 (Macintosh; Intel Mac OS X 10_11_6) AppleWebKit/537.36 (KHTML, like Gecko) Chrome/85.0.4183.121 Safari/537.36",7,"[0.9, 0.5, 0.1]","[0.8, 0.4, 0.2]","[u'red', u'black', u'blue']","[u'left', u'middle', u'right']","[0.9, 0.5, 0.1]","[u'low', u'medium', u'high']","blue",51,"right","high","True","False",477,700,NA
"ANBWJZYU2A68T","Tue Sep 29 2020 15:45:50 GMT-0400 (Eastern Daylight Time)","Tue Sep 29 2020 15:57:55 GMT-0400 (Eastern Daylight Time)","Mozilla/5.0 (Macintosh; Intel Mac OS X 10_11_6) AppleWebKit/537.36 (KHTML, like Gecko) Chrome/85.0.4183.121 Safari/537.36",8,"[0.9, 0.5, 0.1]","[0.8, 0.4, 0.2]","[u'red', u'black', u'blue']","[u'left', u'middle', u'right']","[0.9, 0.5, 0.1]","[u'low', u'medium', u'high']","blue",51,"right","high","True","False",583,800,NA
"ANBWJZYU2A68T","Tue Sep 29 2020 15:45:50 GMT-0400 (Eastern Daylight Time)","Tue Sep 29 2020 15:57:55 GMT-0400 (Eastern Daylight Time)","Mozilla/5.0 (Macintosh; Intel Mac OS X 10_11_6) AppleWebKit/537.36 (KHTML, like Gecko) Chrome/85.0.4183.121 Safari/537.36",9,"[0.9, 0.5, 0.1]","[0.8, 0.4, 0.2]","[u'red', u'black', u'blue']","[u'left', u'middle', u'right']","[0.9, 0.5, 0.1]","[u'low', u'medium', u'high']","blue",51,"right","high","True","True",598,900,NA
"ANBWJZYU2A68T","Tue Sep 29 2020 15:45:50 GMT-0400 (Eastern Daylight Time)","Tue Sep 29 2020 15:57:55 GMT-0400 (Eastern Daylight Time)","Mozilla/5.0 (Macintosh; Intel Mac OS X 10_11_6) AppleWebKit/537.36 (KHTML, like Gecko) Chrome/85.0.4183.121 Safari/537.36",10,"[0.9, 0.5, 0.1]","[0.8, 0.4, 0.2]","[u'red', u'black', u'blue']","[u'left', u'middle', u'right']","[0.9, 0.5, 0.1]","[u'high', u'low', u'medium']","blue",51,"right","medium","False","False",800,850,NA
"ANBWJZYU2A68T","Tue Sep 29 2020 15:45:50 GMT-0400 (Eastern Daylight Time)","Tue Sep 29 2020 15:57:55 GMT-0400 (Eastern Daylight Time)","Mozilla/5.0 (Macintosh; Intel Mac OS X 10_11_6) AppleWebKit/537.36 (KHTML, like Gecko) Chrome/85.0.4183.121 Safari/537.36",11,"[0.9, 0.5, 0.1]","[0.8, 0.4, 0.2]","[u'red', u'black', u'blue']","[u'left', u'middle', u'right']","[0.9, 0.5, 0.1]","[u'high', u'low', u'medium']","black",50,"middle","low","False","False",456,800,NA
"ANBWJZYU2A68T","Tue Sep 29 2020 15:45:50 GMT-0400 (Eastern Daylight Time)","Tue Sep 29 2020 15:57:55 GMT-0400 (Eastern Daylight Time)","Mozilla/5.0 (Macintosh; Intel Mac OS X 10_11_6) AppleWebKit/537.36 (KHTML, like Gecko) Chrome/85.0.4183.121 Safari/537.36",12,"[0.9, 0.5, 0.1]","[0.8, 0.4, 0.2]","[u'red', u'black', u'blue']","[u'left', u'middle', u'right']","[0.9, 0.5, 0.1]","[u'high', u'low', u'medium']","red",49,"left","high","True","False",509,900,NA
"ANBWJZYU2A68T","Tue Sep 29 2020 15:45:50 GMT-0400 (Eastern Daylight Time)","Tue Sep 29 2020 15:57:55 GMT-0400 (Eastern Daylight Time)","Mozilla/5.0 (Macintosh; Intel Mac OS X 10_11_6) AppleWebKit/537.36 (KHTML, like Gecko) Chrome/85.0.4183.121 Safari/537.36",13,"[0.9, 0.5, 0.1]","[0.8, 0.4, 0.2]","[u'red', u'black', u'blue']","[u'left', u'middle', u'right']","[0.9, 0.5, 0.1]","[u'high', u'low', u'medium']","red",49,"left","high","True","False",494,1000,NA
"ANBWJZYU2A68T","Tue Sep 29 2020 15:45:50 GMT-0400 (Eastern Daylight Time)","Tue Sep 29 2020 15:57:55 GMT-0400 (Eastern Daylight Time)","Mozilla/5.0 (Macintosh; Intel Mac OS X 10_11_6) AppleWebKit/537.36 (KHTML, like Gecko) Chrome/85.0.4183.121 Safari/537.36",14,"[0.9, 0.5, 0.1]","[0.8, 0.4, 0.2]","[u'red', u'black', u'blue']","[u'left', u'middle', u'right']","[0.9, 0.5, 0.1]","[u'high', u'low', u'medium']","red",49,"left","high","True","False",559,1100,NA
"ANBWJZYU2A68T","Tue Sep 29 2020 15:45:50 GMT-0400 (Eastern Daylight Time)","Tue Sep 29 2020 15:57:55 GMT-0400 (Eastern Daylight Time)","Mozilla/5.0 (Macintosh; Intel Mac OS X 10_11_6) AppleWebKit/537.36 (KHTML, like Gecko) Chrome/85.0.4183.121 Safari/537.36",15,"[0.9, 0.5, 0.1]","[0.8, 0.4, 0.2]","[u'red', u'black', u'blue']","[u'left', u'middle', u'right']","[0.9, 0.5, 0.1]","[u'high', u'low', u'medium']","red",49,"left","high","True","False",622,1200,NA
"ANBWJZYU2A68T","Tue Sep 29 2020 15:45:50 GMT-0400 (Eastern Daylight Time)","Tue Sep 29 2020 15:57:55 GMT-0400 (Eastern Daylight Time)","Mozilla/5.0 (Macintosh; Intel Mac OS X 10_11_6) AppleWebKit/537.36 (KHTML, like Gecko) Chrome/85.0.4183.121 Safari/537.36",16,"[0.9, 0.5, 0.1]","[0.8, 0.4, 0.2]","[u'red', u'black', u'blue']","[u'left', u'middle', u'right']","[0.9, 0.5, 0.1]","[u'high', u'low', u'medium']","red",49,"left","high","True","False",415,1300,NA
"ANBWJZYU2A68T","Tue Sep 29 2020 15:45:50 GMT-0400 (Eastern Daylight Time)","Tue Sep 29 2020 15:57:55 GMT-0400 (Eastern Daylight Time)","Mozilla/5.0 (Macintosh; Intel Mac OS X 10_11_6) AppleWebKit/537.36 (KHTML, like Gecko) Chrome/85.0.4183.121 Safari/537.36",17,"[0.9, 0.5, 0.1]","[0.8, 0.4, 0.2]","[u'red', u'black', u'blue']","[u'left', u'middle', u'right']","[0.9, 0.5, 0.1]","[u'high', u'low', u'medium']","red",49,"left","high","False","False",433,1250,NA
"ANBWJZYU2A68T","Tue Sep 29 2020 15:45:50 GMT-0400 (Eastern Daylight Time)","Tue Sep 29 2020 15:57:55 GMT-0400 (Eastern Daylight Time)","Mozilla/5.0 (Macintosh; Intel Mac OS X 10_11_6) AppleWebKit/537.36 (KHTML, like Gecko) Chrome/85.0.4183.121 Safari/537.36",18,"[0.9, 0.5, 0.1]","[0.8, 0.4, 0.2]","[u'red', u'black', u'blue']","[u'left', u'middle', u'right']","[0.9, 0.5, 0.1]","[u'high', u'low', u'medium']","blue",51,"right","medium","True","False",470,1350,NA
"ANBWJZYU2A68T","Tue Sep 29 2020 15:45:50 GMT-0400 (Eastern Daylight Time)","Tue Sep 29 2020 15:57:55 GMT-0400 (Eastern Daylight Time)","Mozilla/5.0 (Macintosh; Intel Mac OS X 10_11_6) AppleWebKit/537.36 (KHTML, like Gecko) Chrome/85.0.4183.121 Safari/537.36",19,"[0.9, 0.5, 0.1]","[0.8, 0.4, 0.2]","[u'red', u'black', u'blue']","[u'left', u'middle', u'right']","[0.9, 0.5, 0.1]","[u'high', u'low', u'medium']","blue",51,"right","medium","True","False",503,1450,NA
"ANBWJZYU2A68T","Tue Sep 29 2020 15:45:50 GMT-0400 (Eastern Daylight Time)","Tue Sep 29 2020 15:57:55 GMT-0400 (Eastern Daylight Time)","Mozilla/5.0 (Macintosh; Intel Mac OS X 10_11_6) AppleWebKit/537.36 (KHTML, like Gecko) Chrome/85.0.4183.121 Safari/537.36",20,"[0.9, 0.5, 0.1]","[0.8, 0.4, 0.2]","[u'red', u'black', u'blue']","[u'left', u'middle', u'right']","[0.9, 0.5, 0.1]","[u'high', u'low', u'medium']","blue",51,"right","medium","True","False",783,1550,NA
"ANBWJZYU2A68T","Tue Sep 29 2020 15:45:50 GMT-0400 (Eastern Daylight Time)","Tue Sep 29 2020 15:57:55 GMT-0400 (Eastern Daylight Time)","Mozilla/5.0 (Macintosh; Intel Mac OS X 10_11_6) AppleWebKit/537.36 (KHTML, like Gecko) Chrome/85.0.4183.121 Safari/537.36",21,"[0.9, 0.5, 0.1]","[0.8, 0.4, 0.2]","[u'red', u'black', u'blue']","[u'left', u'middle', u'right']","[0.9, 0.5, 0.1]","[u'high', u'low', u'medium']","blue",51,"right","medium","True","False",469,1650,NA
"ANBWJZYU2A68T","Tue Sep 29 2020 15:45:50 GMT-0400 (Eastern Daylight Time)","Tue Sep 29 2020 15:57:55 GMT-0400 (Eastern Daylight Time)","Mozilla/5.0 (Macintosh; Intel Mac OS X 10_11_6) AppleWebKit/537.36 (KHTML, like Gecko) Chrome/85.0.4183.121 Safari/537.36",22,"[0.9, 0.5, 0.1]","[0.8, 0.4, 0.2]","[u'red', u'black', u'blue']","[u'left', u'middle', u'right']","[0.9, 0.5, 0.1]","[u'high', u'low', u'medium']","blue",51,"right","medium","True","False",480,1750,NA
"ANBWJZYU2A68T","Tue Sep 29 2020 15:45:50 GMT-0400 (Eastern Daylight Time)","Tue Sep 29 2020 15:57:55 GMT-0400 (Eastern Daylight Time)","Mozilla/5.0 (Macintosh; Intel Mac OS X 10_11_6) AppleWebKit/537.36 (KHTML, like Gecko) Chrome/85.0.4183.121 Safari/537.36",23,"[0.9, 0.5, 0.1]","[0.8, 0.4, 0.2]","[u'red', u'black', u'blue']","[u'left', u'middle', u'right']","[0.9, 0.5, 0.1]","[u'high', u'low', u'medium']","blue",51,"right","medium","True","False",409,1850,NA
"ANBWJZYU2A68T","Tue Sep 29 2020 15:45:50 GMT-0400 (Eastern Daylight Time)","Tue Sep 29 2020 15:57:55 GMT-0400 (Eastern Daylight Time)","Mozilla/5.0 (Macintosh; Intel Mac OS X 10_11_6) AppleWebKit/537.36 (KHTML, like Gecko) Chrome/85.0.4183.121 Safari/537.36",24,"[0.9, 0.5, 0.1]","[0.8, 0.4, 0.2]","[u'red', u'black', u'blue']","[u'left', u'middle', u'right']","[0.9, 0.5, 0.1]","[u'high', u'low', u'medium']","blue",51,"right","medium","True","False",375,1950,NA
"ANBWJZYU2A68T","Tue Sep 29 2020 15:45:50 GMT-0400 (Eastern Daylight Time)","Tue Sep 29 2020 15:57:55 GMT-0400 (Eastern Daylight Time)","Mozilla/5.0 (Macintosh; Intel Mac OS X 10_11_6) AppleWebKit/537.36 (KHTML, like Gecko) Chrome/85.0.4183.121 Safari/537.36",25,"[0.9, 0.5, 0.1]","[0.8, 0.4, 0.2]","[u'red', u'black', u'blue']","[u'left', u'middle', u'right']","[0.9, 0.5, 0.1]","[u'high', u'low', u'medium']","blue",51,"right","medium","False","False",521,1900,NA
"ANBWJZYU2A68T","Tue Sep 29 2020 15:45:50 GMT-0400 (Eastern Daylight Time)","Tue Sep 29 2020 15:57:55 GMT-0400 (Eastern Daylight Time)","Mozilla/5.0 (Macintosh; Intel Mac OS X 10_11_6) AppleWebKit/537.36 (KHTML, like Gecko) Chrome/85.0.4183.121 Safari/537.36",26,"[0.9, 0.5, 0.1]","[0.8, 0.4, 0.2]","[u'red', u'black', u'blue']","[u'left', u'middle', u'right']","[0.9, 0.5, 0.1]","[u'high', u'low', u'medium']","red",49,"left","high","True","False",808,2000,NA
"ANBWJZYU2A68T","Tue Sep 29 2020 15:45:50 GMT-0400 (Eastern Daylight Time)","Tue Sep 29 2020 15:57:55 GMT-0400 (Eastern Daylight Time)","Mozilla/5.0 (Macintosh; Intel Mac OS X 10_11_6) AppleWebKit/537.36 (KHTML, like Gecko) Chrome/85.0.4183.121 Safari/537.36",27,"[0.9, 0.5, 0.1]","[0.8, 0.4, 0.2]","[u'red', u'black', u'blue']","[u'left', u'middle', u'right']","[0.9, 0.5, 0.1]","[u'high', u'low', u'medium']","red",49,"left","high","True","False",510,2100,NA
"ANBWJZYU2A68T","Tue Sep 29 2020 15:45:50 GMT-0400 (Eastern Daylight Time)","Tue Sep 29 2020 15:57:55 GMT-0400 (Eastern Daylight Time)","Mozilla/5.0 (Macintosh; Intel Mac OS X 10_11_6) AppleWebKit/537.36 (KHTML, like Gecko) Chrome/85.0.4183.121 Safari/537.36",28,"[0.9, 0.5, 0.1]","[0.8, 0.4, 0.2]","[u'red', u'black', u'blue']","[u'left', u'middle', u'right']","[0.9, 0.5, 0.1]","[u'high', u'low', u'medium']","red",49,"left","high","True","False",546,2200,NA
"ANBWJZYU2A68T","Tue Sep 29 2020 15:45:50 GMT-0400 (Eastern Daylight Time)","Tue Sep 29 2020 15:57:55 GMT-0400 (Eastern Daylight Time)","Mozilla/5.0 (Macintosh; Intel Mac OS X 10_11_6) AppleWebKit/537.36 (KHTML, like Gecko) Chrome/85.0.4183.121 Safari/537.36",29,"[0.9, 0.5, 0.1]","[0.8, 0.4, 0.2]","[u'red', u'black', u'blue']","[u'left', u'middle', u'right']","[0.9, 0.5, 0.1]","[u'high', u'low', u'medium']","red",49,"left","high","True","False",414,2300,NA
"ANBWJZYU2A68T","Tue Sep 29 2020 15:45:50 GMT-0400 (Eastern Daylight Time)","Tue Sep 29 2020 15:57:55 GMT-0400 (Eastern Daylight Time)","Mozilla/5.0 (Macintosh; Intel Mac OS X 10_11_6) AppleWebKit/537.36 (KHTML, like Gecko) Chrome/85.0.4183.121 Safari/537.36",30,"[0.9, 0.5, 0.1]","[0.8, 0.4, 0.2]","[u'red', u'black', u'blue']","[u'left', u'middle', u'right']","[0.9, 0.5, 0.1]","[u'high', u'low', u'medium']","red",49,"left","high","True","False",358,2400,NA
"ANBWJZYU2A68T","Tue Sep 29 2020 15:45:50 GMT-0400 (Eastern Daylight Time)","Tue Sep 29 2020 15:57:55 GMT-0400 (Eastern Daylight Time)","Mozilla/5.0 (Macintosh; Intel Mac OS X 10_11_6) AppleWebKit/537.36 (KHTML, like Gecko) Chrome/85.0.4183.121 Safari/537.36",31,"[0.9, 0.5, 0.1]","[0.8, 0.4, 0.2]","[u'red', u'black', u'blue']","[u'left', u'middle', u'right']","[0.9, 0.5, 0.1]","[u'high', u'low', u'medium']","red",49,"left","high","True","False",362,2500,NA
"ANBWJZYU2A68T","Tue Sep 29 2020 15:45:50 GMT-0400 (Eastern Daylight Time)","Tue Sep 29 2020 15:57:55 GMT-0400 (Eastern Daylight Time)","Mozilla/5.0 (Macintosh; Intel Mac OS X 10_11_6) AppleWebKit/537.36 (KHTML, like Gecko) Chrome/85.0.4183.121 Safari/537.36",32,"[0.9, 0.5, 0.1]","[0.8, 0.4, 0.2]","[u'red', u'black', u'blue']","[u'left', u'middle', u'right']","[0.9, 0.5, 0.1]","[u'high', u'low', u'medium']","red",49,"left","high","True","False",335,2600,NA
"ANBWJZYU2A68T","Tue Sep 29 2020 15:45:50 GMT-0400 (Eastern Daylight Time)","Tue Sep 29 2020 15:57:55 GMT-0400 (Eastern Daylight Time)","Mozilla/5.0 (Macintosh; Intel Mac OS X 10_11_6) AppleWebKit/537.36 (KHTML, like Gecko) Chrome/85.0.4183.121 Safari/537.36",33,"[0.9, 0.5, 0.1]","[0.8, 0.4, 0.2]","[u'red', u'black', u'blue']","[u'left', u'middle', u'right']","[0.9, 0.5, 0.1]","[u'high', u'low', u'medium']","red",49,"left","high","True","False",381,2700,NA
"ANBWJZYU2A68T","Tue Sep 29 2020 15:45:50 GMT-0400 (Eastern Daylight Time)","Tue Sep 29 2020 15:57:55 GMT-0400 (Eastern Daylight Time)","Mozilla/5.0 (Macintosh; Intel Mac OS X 10_11_6) AppleWebKit/537.36 (KHTML, like Gecko) Chrome/85.0.4183.121 Safari/537.36",34,"[0.9, 0.5, 0.1]","[0.8, 0.4, 0.2]","[u'red', u'black', u'blue']","[u'left', u'middle', u'right']","[0.9, 0.5, 0.1]","[u'high', u'low', u'medium']","red",49,"left","high","True","True",387,2800,NA
"ANBWJZYU2A68T","Tue Sep 29 2020 15:45:50 GMT-0400 (Eastern Daylight Time)","Tue Sep 29 2020 15:57:55 GMT-0400 (Eastern Daylight Time)","Mozilla/5.0 (Macintosh; Intel Mac OS X 10_11_6) AppleWebKit/537.36 (KHTML, like Gecko) Chrome/85.0.4183.121 Safari/537.36",35,"[0.9, 0.5, 0.1]","[0.8, 0.4, 0.2]","[u'red', u'black', u'blue']","[u'left', u'middle', u'right']","[0.9, 0.5, 0.1]","[u'medium', u'high', u'low']","red",49,"left","medium","True","False",410,2900,NA
"ANBWJZYU2A68T","Tue Sep 29 2020 15:45:50 GMT-0400 (Eastern Daylight Time)","Tue Sep 29 2020 15:57:55 GMT-0400 (Eastern Daylight Time)","Mozilla/5.0 (Macintosh; Intel Mac OS X 10_11_6) AppleWebKit/537.36 (KHTML, like Gecko) Chrome/85.0.4183.121 Safari/537.36",36,"[0.9, 0.5, 0.1]","[0.8, 0.4, 0.2]","[u'red', u'black', u'blue']","[u'left', u'middle', u'right']","[0.9, 0.5, 0.1]","[u'medium', u'high', u'low']","red",49,"left","medium","False","False",407,2850,NA
"ANBWJZYU2A68T","Tue Sep 29 2020 15:45:50 GMT-0400 (Eastern Daylight Time)","Tue Sep 29 2020 15:57:55 GMT-0400 (Eastern Daylight Time)","Mozilla/5.0 (Macintosh; Intel Mac OS X 10_11_6) AppleWebKit/537.36 (KHTML, like Gecko) Chrome/85.0.4183.121 Safari/537.36",37,"[0.9, 0.5, 0.1]","[0.8, 0.4, 0.2]","[u'red', u'black', u'blue']","[u'left', u'middle', u'right']","[0.9, 0.5, 0.1]","[u'medium', u'high', u'low']","blue",51,"right","low","False","False",551,2800,NA
"ANBWJZYU2A68T","Tue Sep 29 2020 15:45:50 GMT-0400 (Eastern Daylight Time)","Tue Sep 29 2020 15:57:55 GMT-0400 (Eastern Daylight Time)","Mozilla/5.0 (Macintosh; Intel Mac OS X 10_11_6) AppleWebKit/537.36 (KHTML, like Gecko) Chrome/85.0.4183.121 Safari/537.36",38,"[0.9, 0.5, 0.1]","[0.8, 0.4, 0.2]","[u'red', u'black', u'blue']","[u'left', u'middle', u'right']","[0.9, 0.5, 0.1]","[u'medium', u'high', u'low']","black",50,"middle","high","True","False",256,2900,NA
"ANBWJZYU2A68T","Tue Sep 29 2020 15:45:50 GMT-0400 (Eastern Daylight Time)","Tue Sep 29 2020 15:57:55 GMT-0400 (Eastern Daylight Time)","Mozilla/5.0 (Macintosh; Intel Mac OS X 10_11_6) AppleWebKit/537.36 (KHTML, like Gecko) Chrome/85.0.4183.121 Safari/537.36",39,"[0.9, 0.5, 0.1]","[0.8, 0.4, 0.2]","[u'red', u'black', u'blue']","[u'left', u'middle', u'right']","[0.9, 0.5, 0.1]","[u'medium', u'high', u'low']","black",50,"middle","high","True","False",537,3000,NA
"ANBWJZYU2A68T","Tue Sep 29 2020 15:45:50 GMT-0400 (Eastern Daylight Time)","Tue Sep 29 2020 15:57:55 GMT-0400 (Eastern Daylight Time)","Mozilla/5.0 (Macintosh; Intel Mac OS X 10_11_6) AppleWebKit/537.36 (KHTML, like Gecko) Chrome/85.0.4183.121 Safari/537.36",40,"[0.9, 0.5, 0.1]","[0.8, 0.4, 0.2]","[u'red', u'black', u'blue']","[u'left', u'middle', u'right']","[0.9, 0.5, 0.1]","[u'medium', u'high', u'low']","black",50,"middle","high","True","False",510,3100,NA
"ANBWJZYU2A68T","Tue Sep 29 2020 15:45:50 GMT-0400 (Eastern Daylight Time)","Tue Sep 29 2020 15:57:55 GMT-0400 (Eastern Daylight Time)","Mozilla/5.0 (Macintosh; Intel Mac OS X 10_11_6) AppleWebKit/537.36 (KHTML, like Gecko) Chrome/85.0.4183.121 Safari/537.36",41,"[0.9, 0.5, 0.1]","[0.8, 0.4, 0.2]","[u'red', u'black', u'blue']","[u'left', u'middle', u'right']","[0.9, 0.5, 0.1]","[u'high', u'low', u'medium']","black",50,"middle","low","False","False",1230,3050,NA
"ANBWJZYU2A68T","Tue Sep 29 2020 15:45:50 GMT-0400 (Eastern Daylight Time)","Tue Sep 29 2020 15:57:55 GMT-0400 (Eastern Daylight Time)","Mozilla/5.0 (Macintosh; Intel Mac OS X 10_11_6) AppleWebKit/537.36 (KHTML, like Gecko) Chrome/85.0.4183.121 Safari/537.36",42,"[0.9, 0.5, 0.1]","[0.8, 0.4, 0.2]","[u'red', u'black', u'blue']","[u'left', u'middle', u'right']","[0.9, 0.5, 0.1]","[u'high', u'low', u'medium']","blue",51,"right","medium","True","False",446,3150,NA
"ANBWJZYU2A68T","Tue Sep 29 2020 15:45:50 GMT-0400 (Eastern Daylight Time)","Tue Sep 29 2020 15:57:55 GMT-0400 (Eastern Daylight Time)","Mozilla/5.0 (Macintosh; Intel Mac OS X 10_11_6) AppleWebKit/537.36 (KHTML, like Gecko) Chrome/85.0.4183.121 Safari/537.36",43,"[0.9, 0.5, 0.1]","[0.8, 0.4, 0.2]","[u'red', u'black', u'blue']","[u'left', u'middle', u'right']","[0.9, 0.5, 0.1]","[u'high', u'low', u'medium']","blue",51,"right","medium","True","False",415,3250,NA
"ANBWJZYU2A68T","Tue Sep 29 2020 15:45:50 GMT-0400 (Eastern Daylight Time)","Tue Sep 29 2020 15:57:55 GMT-0400 (Eastern Daylight Time)","Mozilla/5.0 (Macintosh; Intel Mac OS X 10_11_6) AppleWebKit/537.36 (KHTML, like Gecko) Chrome/85.0.4183.121 Safari/537.36",44,"[0.9, 0.5, 0.1]","[0.8, 0.4, 0.2]","[u'red', u'black', u'blue']","[u'left', u'middle', u'right']","[0.9, 0.5, 0.1]","[u'high', u'low', u'medium']","blue",51,"right","medium","True","False",415,3350,NA
"ANBWJZYU2A68T","Tue Sep 29 2020 15:45:50 GMT-0400 (Eastern Daylight Time)","Tue Sep 29 2020 15:57:55 GMT-0400 (Eastern Daylight Time)","Mozilla/5.0 (Macintosh; Intel Mac OS X 10_11_6) AppleWebKit/537.36 (KHTML, like Gecko) Chrome/85.0.4183.121 Safari/537.36",45,"[0.9, 0.5, 0.1]","[0.8, 0.4, 0.2]","[u'red', u'black', u'blue']","[u'left', u'middle', u'right']","[0.9, 0.5, 0.1]","[u'high', u'low', u'medium']","blue",51,"right","medium","True","False",473,3450,NA
"ANBWJZYU2A68T","Tue Sep 29 2020 15:45:50 GMT-0400 (Eastern Daylight Time)","Tue Sep 29 2020 15:57:55 GMT-0400 (Eastern Daylight Time)","Mozilla/5.0 (Macintosh; Intel Mac OS X 10_11_6) AppleWebKit/537.36 (KHTML, like Gecko) Chrome/85.0.4183.121 Safari/537.36",46,"[0.9, 0.5, 0.1]","[0.8, 0.4, 0.2]","[u'red', u'black', u'blue']","[u'left', u'middle', u'right']","[0.9, 0.5, 0.1]","[u'high', u'low', u'medium']","blue",51,"right","medium","False","False",440,3400,NA
"ANBWJZYU2A68T","Tue Sep 29 2020 15:45:50 GMT-0400 (Eastern Daylight Time)","Tue Sep 29 2020 15:57:55 GMT-0400 (Eastern Daylight Time)","Mozilla/5.0 (Macintosh; Intel Mac OS X 10_11_6) AppleWebKit/537.36 (KHTML, like Gecko) Chrome/85.0.4183.121 Safari/537.36",47,"[0.9, 0.5, 0.1]","[0.8, 0.4, 0.2]","[u'red', u'black', u'blue']","[u'left', u'middle', u'right']","[0.9, 0.5, 0.1]","[u'high', u'low', u'medium']","red",49,"left","high","True","False",1485,3500,NA
"ANBWJZYU2A68T","Tue Sep 29 2020 15:45:50 GMT-0400 (Eastern Daylight Time)","Tue Sep 29 2020 15:57:55 GMT-0400 (Eastern Daylight Time)","Mozilla/5.0 (Macintosh; Intel Mac OS X 10_11_6) AppleWebKit/537.36 (KHTML, like Gecko) Chrome/85.0.4183.121 Safari/537.36",48,"[0.9, 0.5, 0.1]","[0.8, 0.4, 0.2]","[u'red', u'black', u'blue']","[u'left', u'middle', u'right']","[0.9, 0.5, 0.1]","[u'high', u'low', u'medium']","red",49,"left","high","True","False",408,3600,NA
"ANBWJZYU2A68T","Tue Sep 29 2020 15:45:50 GMT-0400 (Eastern Daylight Time)","Tue Sep 29 2020 15:57:55 GMT-0400 (Eastern Daylight Time)","Mozilla/5.0 (Macintosh; Intel Mac OS X 10_11_6) AppleWebKit/537.36 (KHTML, like Gecko) Chrome/85.0.4183.121 Safari/537.36",49,"[0.9, 0.5, 0.1]","[0.8, 0.4, 0.2]","[u'red', u'black', u'blue']","[u'left', u'middle', u'right']","[0.9, 0.5, 0.1]","[u'high', u'low', u'medium']","red",49,"left","high","True","False",367,3700,NA
"ANBWJZYU2A68T","Tue Sep 29 2020 15:45:50 GMT-0400 (Eastern Daylight Time)","Tue Sep 29 2020 15:57:55 GMT-0400 (Eastern Daylight Time)","Mozilla/5.0 (Macintosh; Intel Mac OS X 10_11_6) AppleWebKit/537.36 (KHTML, like Gecko) Chrome/85.0.4183.121 Safari/537.36",50,"[0.9, 0.5, 0.1]","[0.8, 0.4, 0.2]","[u'red', u'black', u'blue']","[u'left', u'middle', u'right']","[0.9, 0.5, 0.1]","[u'high', u'low', u'medium']","red",49,"left","high","True","False",426,3800,NA
"ANBWJZYU2A68T","Tue Sep 29 2020 15:45:50 GMT-0400 (Eastern Daylight Time)","Tue Sep 29 2020 15:57:55 GMT-0400 (Eastern Daylight Time)","Mozilla/5.0 (Macintosh; Intel Mac OS X 10_11_6) AppleWebKit/537.36 (KHTML, like Gecko) Chrome/85.0.4183.121 Safari/537.36",51,"[0.9, 0.5, 0.1]","[0.8, 0.4, 0.2]","[u'red', u'black', u'blue']","[u'left', u'middle', u'right']","[0.9, 0.5, 0.1]","[u'high', u'low', u'medium']","black",50,"middle","low","False","False",381,3750,NA
"ANBWJZYU2A68T","Tue Sep 29 2020 15:45:50 GMT-0400 (Eastern Daylight Time)","Tue Sep 29 2020 15:57:55 GMT-0400 (Eastern Daylight Time)","Mozilla/5.0 (Macintosh; Intel Mac OS X 10_11_6) AppleWebKit/537.36 (KHTML, like Gecko) Chrome/85.0.4183.121 Safari/537.36",52,"[0.9, 0.5, 0.1]","[0.8, 0.4, 0.2]","[u'red', u'black', u'blue']","[u'left', u'middle', u'right']","[0.9, 0.5, 0.1]","[u'high', u'low', u'medium']","blue",51,"right","medium","False","False",437,3700,NA
"ANBWJZYU2A68T","Tue Sep 29 2020 15:45:50 GMT-0400 (Eastern Daylight Time)","Tue Sep 29 2020 15:57:55 GMT-0400 (Eastern Daylight Time)","Mozilla/5.0 (Macintosh; Intel Mac OS X 10_11_6) AppleWebKit/537.36 (KHTML, like Gecko) Chrome/85.0.4183.121 Safari/537.36",53,"[0.9, 0.5, 0.1]","[0.8, 0.4, 0.2]","[u'red', u'black', u'blue']","[u'left', u'middle', u'right']","[0.9, 0.5, 0.1]","[u'high', u'low', u'medium']","red",49,"left","high","True","False",472,3800,NA
"ANBWJZYU2A68T","Tue Sep 29 2020 15:45:50 GMT-0400 (Eastern Daylight Time)","Tue Sep 29 2020 15:57:55 GMT-0400 (Eastern Daylight Time)","Mozilla/5.0 (Macintosh; Intel Mac OS X 10_11_6) AppleWebKit/537.36 (KHTML, like Gecko) Chrome/85.0.4183.121 Safari/537.36",54,"[0.9, 0.5, 0.1]","[0.8, 0.4, 0.2]","[u'red', u'black', u'blue']","[u'left', u'middle', u'right']","[0.9, 0.5, 0.1]","[u'high', u'low', u'medium']","red",49,"left","high","True","False",438,3900,NA
"ANBWJZYU2A68T","Tue Sep 29 2020 15:45:50 GMT-0400 (Eastern Daylight Time)","Tue Sep 29 2020 15:57:55 GMT-0400 (Eastern Daylight Time)","Mozilla/5.0 (Macintosh; Intel Mac OS X 10_11_6) AppleWebKit/537.36 (KHTML, like Gecko) Chrome/85.0.4183.121 Safari/537.36",55,"[0.9, 0.5, 0.1]","[0.8, 0.4, 0.2]","[u'red', u'black', u'blue']","[u'left', u'middle', u'right']","[0.9, 0.5, 0.1]","[u'high', u'low', u'medium']","red",49,"left","high","True","False",475,4000,NA
"ANBWJZYU2A68T","Tue Sep 29 2020 15:45:50 GMT-0400 (Eastern Daylight Time)","Tue Sep 29 2020 15:57:55 GMT-0400 (Eastern Daylight Time)","Mozilla/5.0 (Macintosh; Intel Mac OS X 10_11_6) AppleWebKit/537.36 (KHTML, like Gecko) Chrome/85.0.4183.121 Safari/537.36",56,"[0.9, 0.5, 0.1]","[0.8, 0.4, 0.2]","[u'red', u'black', u'blue']","[u'left', u'middle', u'right']","[0.9, 0.5, 0.1]","[u'high', u'low', u'medium']","red",49,"left","high","True","False",510,4100,NA
"ANBWJZYU2A68T","Tue Sep 29 2020 15:45:50 GMT-0400 (Eastern Daylight Time)","Tue Sep 29 2020 15:57:55 GMT-0400 (Eastern Daylight Time)","Mozilla/5.0 (Macintosh; Intel Mac OS X 10_11_6) AppleWebKit/537.36 (KHTML, like Gecko) Chrome/85.0.4183.121 Safari/537.36",57,"[0.9, 0.5, 0.1]","[0.8, 0.4, 0.2]","[u'red', u'black', u'blue']","[u'left', u'middle', u'right']","[0.9, 0.5, 0.1]","[u'high', u'low', u'medium']","red",49,"left","high","True","False",519,4200,NA
"ANBWJZYU2A68T","Tue Sep 29 2020 15:45:50 GMT-0400 (Eastern Daylight Time)","Tue Sep 29 2020 15:57:55 GMT-0400 (Eastern Daylight Time)","Mozilla/5.0 (Macintosh; Intel Mac OS X 10_11_6) AppleWebKit/537.36 (KHTML, like Gecko) Chrome/85.0.4183.121 Safari/537.36",58,"[0.9, 0.5, 0.1]","[0.8, 0.4, 0.2]","[u'red', u'black', u'blue']","[u'left', u'middle', u'right']","[0.9, 0.5, 0.1]","[u'high', u'low', u'medium']","red",49,"left","high","True","False",422,4300,NA
"ANBWJZYU2A68T","Tue Sep 29 2020 15:45:50 GMT-0400 (Eastern Daylight Time)","Tue Sep 29 2020 15:57:55 GMT-0400 (Eastern Daylight Time)","Mozilla/5.0 (Macintosh; Intel Mac OS X 10_11_6) AppleWebKit/537.36 (KHTML, like Gecko) Chrome/85.0.4183.121 Safari/537.36",59,"[0.9, 0.5, 0.1]","[0.8, 0.4, 0.2]","[u'red', u'black', u'blue']","[u'left', u'middle', u'right']","[0.9, 0.5, 0.1]","[u'high', u'low', u'medium']","red",49,"left","high","True","False",526,4400,NA
"ANBWJZYU2A68T","Tue Sep 29 2020 15:45:50 GMT-0400 (Eastern Daylight Time)","Tue Sep 29 2020 15:57:55 GMT-0400 (Eastern Daylight Time)","Mozilla/5.0 (Macintosh; Intel Mac OS X 10_11_6) AppleWebKit/537.36 (KHTML, like Gecko) Chrome/85.0.4183.121 Safari/537.36",60,"[0.9, 0.5, 0.1]","[0.8, 0.4, 0.2]","[u'red', u'black', u'blue']","[u'left', u'middle', u'right']","[0.9, 0.5, 0.1]","[u'high', u'low', u'medium']","red",49,"left","high","True","False",463,4500,NA
"ANBWJZYU2A68T","Tue Sep 29 2020 15:45:50 GMT-0400 (Eastern Daylight Time)","Tue Sep 29 2020 15:57:55 GMT-0400 (Eastern Daylight Time)","Mozilla/5.0 (Macintosh; Intel Mac OS X 10_11_6) AppleWebKit/537.36 (KHTML, like Gecko) Chrome/85.0.4183.121 Safari/537.36",61,"[0.9, 0.5, 0.1]","[0.8, 0.4, 0.2]","[u'red', u'black', u'blue']","[u'left', u'middle', u'right']","[0.9, 0.5, 0.1]","[u'high', u'low', u'medium']","red",49,"left","high","False","True",391,4450,NA
"ANBWJZYU2A68T","Tue Sep 29 2020 15:45:50 GMT-0400 (Eastern Daylight Time)","Tue Sep 29 2020 15:57:55 GMT-0400 (Eastern Daylight Time)","Mozilla/5.0 (Macintosh; Intel Mac OS X 10_11_6) AppleWebKit/537.36 (KHTML, like Gecko) Chrome/85.0.4183.121 Safari/537.36",62,"[0.9, 0.5, 0.1]","[0.8, 0.4, 0.2]","[u'red', u'black', u'blue']","[u'left', u'middle', u'right']","[0.9, 0.5, 0.1]","[u'low', u'medium', u'high']","blue",51,"right","high","True","False",351,4550,NA
"ANBWJZYU2A68T","Tue Sep 29 2020 15:45:50 GMT-0400 (Eastern Daylight Time)","Tue Sep 29 2020 15:57:55 GMT-0400 (Eastern Daylight Time)","Mozilla/5.0 (Macintosh; Intel Mac OS X 10_11_6) AppleWebKit/537.36 (KHTML, like Gecko) Chrome/85.0.4183.121 Safari/537.36",63,"[0.9, 0.5, 0.1]","[0.8, 0.4, 0.2]","[u'red', u'black', u'blue']","[u'left', u'middle', u'right']","[0.9, 0.5, 0.1]","[u'low', u'medium', u'high']","blue",51,"right","high","True","False",736,4650,NA
"ANBWJZYU2A68T","Tue Sep 29 2020 15:45:50 GMT-0400 (Eastern Daylight Time)","Tue Sep 29 2020 15:57:55 GMT-0400 (Eastern Daylight Time)","Mozilla/5.0 (Macintosh; Intel Mac OS X 10_11_6) AppleWebKit/537.36 (KHTML, like Gecko) Chrome/85.0.4183.121 Safari/537.36",64,"[0.9, 0.5, 0.1]","[0.8, 0.4, 0.2]","[u'red', u'black', u'blue']","[u'left', u'middle', u'right']","[0.9, 0.5, 0.1]","[u'low', u'medium', u'high']","blue",51,"right","high","False","False",350,4600,NA
"ANBWJZYU2A68T","Tue Sep 29 2020 15:45:50 GMT-0400 (Eastern Daylight Time)","Tue Sep 29 2020 15:57:55 GMT-0400 (Eastern Daylight Time)","Mozilla/5.0 (Macintosh; Intel Mac OS X 10_11_6) AppleWebKit/537.36 (KHTML, like Gecko) Chrome/85.0.4183.121 Safari/537.36",65,"[0.9, 0.5, 0.1]","[0.8, 0.4, 0.2]","[u'red', u'black', u'blue']","[u'left', u'middle', u'right']","[0.9, 0.5, 0.1]","[u'low', u'medium', u'high']","black",50,"middle","medium","True","False",425,4700,NA
"ANBWJZYU2A68T","Tue Sep 29 2020 15:45:50 GMT-0400 (Eastern Daylight Time)","Tue Sep 29 2020 15:57:55 GMT-0400 (Eastern Daylight Time)","Mozilla/5.0 (Macintosh; Intel Mac OS X 10_11_6) AppleWebKit/537.36 (KHTML, like Gecko) Chrome/85.0.4183.121 Safari/537.36",66,"[0.9, 0.5, 0.1]","[0.8, 0.4, 0.2]","[u'red', u'black', u'blue']","[u'left', u'middle', u'right']","[0.9, 0.5, 0.1]","[u'low', u'medium', u'high']","black",50,"middle","medium","True","False",370,4800,NA
"ANBWJZYU2A68T","Tue Sep 29 2020 15:45:50 GMT-0400 (Eastern Daylight Time)","Tue Sep 29 2020 15:57:55 GMT-0400 (Eastern Daylight Time)","Mozilla/5.0 (Macintosh; Intel Mac OS X 10_11_6) AppleWebKit/537.36 (KHTML, like Gecko) Chrome/85.0.4183.121 Safari/537.36",67,"[0.9, 0.5, 0.1]","[0.8, 0.4, 0.2]","[u'red', u'black', u'blue']","[u'left', u'middle', u'right']","[0.9, 0.5, 0.1]","[u'low', u'medium', u'high']","black",50,"middle","medium","True","False",206,4900,NA
"ANBWJZYU2A68T","Tue Sep 29 2020 15:45:50 GMT-0400 (Eastern Daylight Time)","Tue Sep 29 2020 15:57:55 GMT-0400 (Eastern Daylight Time)","Mozilla/5.0 (Macintosh; Intel Mac OS X 10_11_6) AppleWebKit/537.36 (KHTML, like Gecko) Chrome/85.0.4183.121 Safari/537.36",68,"[0.9, 0.5, 0.1]","[0.8, 0.4, 0.2]","[u'red', u'black', u'blue']","[u'left', u'middle', u'right']","[0.9, 0.5, 0.1]","[u'low', u'medium', u'high']","black",50,"middle","medium","True","False",494,5000,NA
"ANBWJZYU2A68T","Tue Sep 29 2020 15:45:50 GMT-0400 (Eastern Daylight Time)","Tue Sep 29 2020 15:57:55 GMT-0400 (Eastern Daylight Time)","Mozilla/5.0 (Macintosh; Intel Mac OS X 10_11_6) AppleWebKit/537.36 (KHTML, like Gecko) Chrome/85.0.4183.121 Safari/537.36",69,"[0.9, 0.5, 0.1]","[0.8, 0.4, 0.2]","[u'red', u'black', u'blue']","[u'left', u'middle', u'right']","[0.9, 0.5, 0.1]","[u'low', u'medium', u'high']","black",50,"middle","medium","False","False",452,4950,NA
"ANBWJZYU2A68T","Tue Sep 29 2020 15:45:50 GMT-0400 (Eastern Daylight Time)","Tue Sep 29 2020 15:57:55 GMT-0400 (Eastern Daylight Time)","Mozilla/5.0 (Macintosh; Intel Mac OS X 10_11_6) AppleWebKit/537.36 (KHTML, like Gecko) Chrome/85.0.4183.121 Safari/537.36",70,"[0.9, 0.5, 0.1]","[0.8, 0.4, 0.2]","[u'red', u'black', u'blue']","[u'left', u'middle', u'right']","[0.9, 0.5, 0.1]","[u'low', u'medium', u'high']","red",49,"left","low","False","False",740,4900,NA
"ANBWJZYU2A68T","Tue Sep 29 2020 15:45:50 GMT-0400 (Eastern Daylight Time)","Tue Sep 29 2020 15:57:55 GMT-0400 (Eastern Daylight Time)","Mozilla/5.0 (Macintosh; Intel Mac OS X 10_11_6) AppleWebKit/537.36 (KHTML, like Gecko) Chrome/85.0.4183.121 Safari/537.36",71,"[0.9, 0.5, 0.1]","[0.8, 0.4, 0.2]","[u'red', u'black', u'blue']","[u'left', u'middle', u'right']","[0.9, 0.5, 0.1]","[u'low', u'medium', u'high']","blue",51,"right","high","True","False",408,5000,NA
"ANBWJZYU2A68T","Tue Sep 29 2020 15:45:50 GMT-0400 (Eastern Daylight Time)","Tue Sep 29 2020 15:57:55 GMT-0400 (Eastern Daylight Time)","Mozilla/5.0 (Macintosh; Intel Mac OS X 10_11_6) AppleWebKit/537.36 (KHTML, like Gecko) Chrome/85.0.4183.121 Safari/537.36",72,"[0.9, 0.5, 0.1]","[0.8, 0.4, 0.2]","[u'red', u'black', u'blue']","[u'left', u'middle', u'right']","[0.9, 0.5, 0.1]","[u'low', u'medium', u'high']","blue",51,"right","high","False","False",390,4950,NA
"ANBWJZYU2A68T","Tue Sep 29 2020 15:45:50 GMT-0400 (Eastern Daylight Time)","Tue Sep 29 2020 15:57:55 GMT-0400 (Eastern Daylight Time)","Mozilla/5.0 (Macintosh; Intel Mac OS X 10_11_6) AppleWebKit/537.36 (KHTML, like Gecko) Chrome/85.0.4183.121 Safari/537.36",73,"[0.9, 0.5, 0.1]","[0.8, 0.4, 0.2]","[u'red', u'black', u'blue']","[u'left', u'middle', u'right']","[0.9, 0.5, 0.1]","[u'low', u'medium', u'high']","black",50,"middle","medium","False","False",366,4900,NA
"ANBWJZYU2A68T","Tue Sep 29 2020 15:45:50 GMT-0400 (Eastern Daylight Time)","Tue Sep 29 2020 15:57:55 GMT-0400 (Eastern Daylight Time)","Mozilla/5.0 (Macintosh; Intel Mac OS X 10_11_6) AppleWebKit/537.36 (KHTML, like Gecko) Chrome/85.0.4183.121 Safari/537.36",74,"[0.9, 0.5, 0.1]","[0.8, 0.4, 0.2]","[u'red', u'black', u'blue']","[u'left', u'middle', u'right']","[0.9, 0.5, 0.1]","[u'low', u'medium', u'high']","red",49,"left","low","False","False",329,4850,NA
"ANBWJZYU2A68T","Tue Sep 29 2020 15:45:50 GMT-0400 (Eastern Daylight Time)","Tue Sep 29 2020 15:57:55 GMT-0400 (Eastern Daylight Time)","Mozilla/5.0 (Macintosh; Intel Mac OS X 10_11_6) AppleWebKit/537.36 (KHTML, like Gecko) Chrome/85.0.4183.121 Safari/537.36",75,"[0.9, 0.5, 0.1]","[0.8, 0.4, 0.2]","[u'red', u'black', u'blue']","[u'left', u'middle', u'right']","[0.9, 0.5, 0.1]","[u'low', u'medium', u'high']","black",50,"middle","medium","True","False",771,4950,NA
"ANBWJZYU2A68T","Tue Sep 29 2020 15:45:50 GMT-0400 (Eastern Daylight Time)","Tue Sep 29 2020 15:57:55 GMT-0400 (Eastern Daylight Time)","Mozilla/5.0 (Macintosh; Intel Mac OS X 10_11_6) AppleWebKit/537.36 (KHTML, like Gecko) Chrome/85.0.4183.121 Safari/537.36",76,"[0.9, 0.5, 0.1]","[0.8, 0.4, 0.2]","[u'red', u'black', u'blue']","[u'left', u'middle', u'right']","[0.9, 0.5, 0.1]","[u'low', u'medium', u'high']","black",50,"middle","medium","True","False",517,5050,NA
"ANBWJZYU2A68T","Tue Sep 29 2020 15:45:50 GMT-0400 (Eastern Daylight Time)","Tue Sep 29 2020 15:57:55 GMT-0400 (Eastern Daylight Time)","Mozilla/5.0 (Macintosh; Intel Mac OS X 10_11_6) AppleWebKit/537.36 (KHTML, like Gecko) Chrome/85.0.4183.121 Safari/537.36",77,"[0.9, 0.5, 0.1]","[0.8, 0.4, 0.2]","[u'red', u'black', u'blue']","[u'left', u'middle', u'right']","[0.9, 0.5, 0.1]","[u'low', u'medium', u'high']","black",50,"middle","medium","True","False",319,5150,NA
"ANBWJZYU2A68T","Tue Sep 29 2020 15:45:50 GMT-0400 (Eastern Daylight Time)","Tue Sep 29 2020 15:57:55 GMT-0400 (Eastern Daylight Time)","Mozilla/5.0 (Macintosh; Intel Mac OS X 10_11_6) AppleWebKit/537.36 (KHTML, like Gecko) Chrome/85.0.4183.121 Safari/537.36",78,"[0.9, 0.5, 0.1]","[0.8, 0.4, 0.2]","[u'red', u'black', u'blue']","[u'left', u'middle', u'right']","[0.9, 0.5, 0.1]","[u'low', u'medium', u'high']","black",50,"middle","medium","True","False",346,5250,NA
"ANBWJZYU2A68T","Tue Sep 29 2020 15:45:50 GMT-0400 (Eastern Daylight Time)","Tue Sep 29 2020 15:57:55 GMT-0400 (Eastern Daylight Time)","Mozilla/5.0 (Macintosh; Intel Mac OS X 10_11_6) AppleWebKit/537.36 (KHTML, like Gecko) Chrome/85.0.4183.121 Safari/537.36",79,"[0.9, 0.5, 0.1]","[0.8, 0.4, 0.2]","[u'red', u'black', u'blue']","[u'left', u'middle', u'right']","[0.9, 0.5, 0.1]","[u'low', u'medium', u'high']","black",50,"middle","medium","True","False",351,5350,NA
"ANBWJZYU2A68T","Tue Sep 29 2020 15:45:50 GMT-0400 (Eastern Daylight Time)","Tue Sep 29 2020 15:57:55 GMT-0400 (Eastern Daylight Time)","Mozilla/5.0 (Macintosh; Intel Mac OS X 10_11_6) AppleWebKit/537.36 (KHTML, like Gecko) Chrome/85.0.4183.121 Safari/537.36",80,"[0.9, 0.5, 0.1]","[0.8, 0.4, 0.2]","[u'red', u'black', u'blue']","[u'left', u'middle', u'right']","[0.9, 0.5, 0.1]","[u'low', u'medium', u'high']","black",50,"middle","medium","False","False",335,5300,NA
"ANBWJZYU2A68T","Tue Sep 29 2020 15:45:50 GMT-0400 (Eastern Daylight Time)","Tue Sep 29 2020 15:57:55 GMT-0400 (Eastern Daylight Time)","Mozilla/5.0 (Macintosh; Intel Mac OS X 10_11_6) AppleWebKit/537.36 (KHTML, like Gecko) Chrome/85.0.4183.121 Safari/537.36",81,"[0.9, 0.5, 0.1]","[0.8, 0.4, 0.2]","[u'red', u'black', u'blue']","[u'left', u'middle', u'right']","[0.8, 0.4, 0.2]","[u'medium', u'high', u'low']","blue",51,"right","low","False","False",983,5250,NA
"ANBWJZYU2A68T","Tue Sep 29 2020 15:45:50 GMT-0400 (Eastern Daylight Time)","Tue Sep 29 2020 15:57:55 GMT-0400 (Eastern Daylight Time)","Mozilla/5.0 (Macintosh; Intel Mac OS X 10_11_6) AppleWebKit/537.36 (KHTML, like Gecko) Chrome/85.0.4183.121 Safari/537.36",82,"[0.9, 0.5, 0.1]","[0.8, 0.4, 0.2]","[u'red', u'black', u'blue']","[u'left', u'middle', u'right']","[0.8, 0.4, 0.2]","[u'medium', u'high', u'low']","red",49,"left","medium","True","False",188,5350,NA
"ANBWJZYU2A68T","Tue Sep 29 2020 15:45:50 GMT-0400 (Eastern Daylight Time)","Tue Sep 29 2020 15:57:55 GMT-0400 (Eastern Daylight Time)","Mozilla/5.0 (Macintosh; Intel Mac OS X 10_11_6) AppleWebKit/537.36 (KHTML, like Gecko) Chrome/85.0.4183.121 Safari/537.36",83,"[0.9, 0.5, 0.1]","[0.8, 0.4, 0.2]","[u'red', u'black', u'blue']","[u'left', u'middle', u'right']","[0.8, 0.4, 0.2]","[u'medium', u'high', u'low']","red",49,"left","medium","False","False",446,5300,NA
"ANBWJZYU2A68T","Tue Sep 29 2020 15:45:50 GMT-0400 (Eastern Daylight Time)","Tue Sep 29 2020 15:57:55 GMT-0400 (Eastern Daylight Time)","Mozilla/5.0 (Macintosh; Intel Mac OS X 10_11_6) AppleWebKit/537.36 (KHTML, like Gecko) Chrome/85.0.4183.121 Safari/537.36",84,"[0.9, 0.5, 0.1]","[0.8, 0.4, 0.2]","[u'red', u'black', u'blue']","[u'left', u'middle', u'right']","[0.8, 0.4, 0.2]","[u'medium', u'high', u'low']","black",50,"middle","high","True","False",418,5400,NA
"ANBWJZYU2A68T","Tue Sep 29 2020 15:45:50 GMT-0400 (Eastern Daylight Time)","Tue Sep 29 2020 15:57:55 GMT-0400 (Eastern Daylight Time)","Mozilla/5.0 (Macintosh; Intel Mac OS X 10_11_6) AppleWebKit/537.36 (KHTML, like Gecko) Chrome/85.0.4183.121 Safari/537.36",85,"[0.9, 0.5, 0.1]","[0.8, 0.4, 0.2]","[u'red', u'black', u'blue']","[u'left', u'middle', u'right']","[0.8, 0.4, 0.2]","[u'medium', u'high', u'low']","black",50,"middle","high","True","False",328,5500,NA
"ANBWJZYU2A68T","Tue Sep 29 2020 15:45:50 GMT-0400 (Eastern Daylight Time)","Tue Sep 29 2020 15:57:55 GMT-0400 (Eastern Daylight Time)","Mozilla/5.0 (Macintosh; Intel Mac OS X 10_11_6) AppleWebKit/537.36 (KHTML, like Gecko) Chrome/85.0.4183.121 Safari/537.36",86,"[0.9, 0.5, 0.1]","[0.8, 0.4, 0.2]","[u'red', u'black', u'blue']","[u'left', u'middle', u'right']","[0.8, 0.4, 0.2]","[u'medium', u'high', u'low']","black",50,"middle","high","True","False",296,5600,NA
"ANBWJZYU2A68T","Tue Sep 29 2020 15:45:50 GMT-0400 (Eastern Daylight Time)","Tue Sep 29 2020 15:57:55 GMT-0400 (Eastern Daylight Time)","Mozilla/5.0 (Macintosh; Intel Mac OS X 10_11_6) AppleWebKit/537.36 (KHTML, like Gecko) Chrome/85.0.4183.121 Safari/537.36",87,"[0.9, 0.5, 0.1]","[0.8, 0.4, 0.2]","[u'red', u'black', u'blue']","[u'left', u'middle', u'right']","[0.8, 0.4, 0.2]","[u'medium', u'high', u'low']","black",50,"middle","high","True","False",238,5700,NA
"ANBWJZYU2A68T","Tue Sep 29 2020 15:45:50 GMT-0400 (Eastern Daylight Time)","Tue Sep 29 2020 15:57:55 GMT-0400 (Eastern Daylight Time)","Mozilla/5.0 (Macintosh; Intel Mac OS X 10_11_6) AppleWebKit/537.36 (KHTML, like Gecko) Chrome/85.0.4183.121 Safari/537.36",88,"[0.9, 0.5, 0.1]","[0.8, 0.4, 0.2]","[u'red', u'black', u'blue']","[u'left', u'middle', u'right']","[0.8, 0.4, 0.2]","[u'medium', u'high', u'low']","black",50,"middle","high","False","False",342,5650,NA
"ANBWJZYU2A68T","Tue Sep 29 2020 15:45:50 GMT-0400 (Eastern Daylight Time)","Tue Sep 29 2020 15:57:55 GMT-0400 (Eastern Daylight Time)","Mozilla/5.0 (Macintosh; Intel Mac OS X 10_11_6) AppleWebKit/537.36 (KHTML, like Gecko) Chrome/85.0.4183.121 Safari/537.36",89,"[0.9, 0.5, 0.1]","[0.8, 0.4, 0.2]","[u'red', u'black', u'blue']","[u'left', u'middle', u'right']","[0.8, 0.4, 0.2]","[u'medium', u'high', u'low']","blue",51,"right","low","True","False",238,5750,NA
"ANBWJZYU2A68T","Tue Sep 29 2020 15:45:50 GMT-0400 (Eastern Daylight Time)","Tue Sep 29 2020 15:57:55 GMT-0400 (Eastern Daylight Time)","Mozilla/5.0 (Macintosh; Intel Mac OS X 10_11_6) AppleWebKit/537.36 (KHTML, like Gecko) Chrome/85.0.4183.121 Safari/537.36",90,"[0.9, 0.5, 0.1]","[0.8, 0.4, 0.2]","[u'red', u'black', u'blue']","[u'left', u'middle', u'right']","[0.8, 0.4, 0.2]","[u'medium', u'high', u'low']","blue",51,"right","low","False","False",331,5700,NA
"ANBWJZYU2A68T","Tue Sep 29 2020 15:45:50 GMT-0400 (Eastern Daylight Time)","Tue Sep 29 2020 15:57:55 GMT-0400 (Eastern Daylight Time)","Mozilla/5.0 (Macintosh; Intel Mac OS X 10_11_6) AppleWebKit/537.36 (KHTML, like Gecko) Chrome/85.0.4183.121 Safari/537.36",91,"[0.9, 0.5, 0.1]","[0.8, 0.4, 0.2]","[u'red', u'black', u'blue']","[u'left', u'middle', u'right']","[0.8, 0.4, 0.2]","[u'medium', u'high', u'low']","red",49,"left","medium","False","False",394,5650,NA
"ANBWJZYU2A68T","Tue Sep 29 2020 15:45:50 GMT-0400 (Eastern Daylight Time)","Tue Sep 29 2020 15:57:55 GMT-0400 (Eastern Daylight Time)","Mozilla/5.0 (Macintosh; Intel Mac OS X 10_11_6) AppleWebKit/537.36 (KHTML, like Gecko) Chrome/85.0.4183.121 Safari/537.36",92,"[0.9, 0.5, 0.1]","[0.8, 0.4, 0.2]","[u'red', u'black', u'blue']","[u'left', u'middle', u'right']","[0.8, 0.4, 0.2]","[u'medium', u'high', u'low']","black",50,"middle","high","True","False",318,5750,NA
"ANBWJZYU2A68T","Tue Sep 29 2020 15:45:50 GMT-0400 (Eastern Daylight Time)","Tue Sep 29 2020 15:57:55 GMT-0400 (Eastern Daylight Time)","Mozilla/5.0 (Macintosh; Intel Mac OS X 10_11_6) AppleWebKit/537.36 (KHTML, like Gecko) Chrome/85.0.4183.121 Safari/537.36",93,"[0.9, 0.5, 0.1]","[0.8, 0.4, 0.2]","[u'red', u'black', u'blue']","[u'left', u'middle', u'right']","[0.8, 0.4, 0.2]","[u'medium', u'high', u'low']","black",50,"middle","high","True","False",342,5850,NA
"ANBWJZYU2A68T","Tue Sep 29 2020 15:45:50 GMT-0400 (Eastern Daylight Time)","Tue Sep 29 2020 15:57:55 GMT-0400 (Eastern Daylight Time)","Mozilla/5.0 (Macintosh; Intel Mac OS X 10_11_6) AppleWebKit/537.36 (KHTML, like Gecko) Chrome/85.0.4183.121 Safari/537.36",94,"[0.9, 0.5, 0.1]","[0.8, 0.4, 0.2]","[u'red', u'black', u'blue']","[u'left', u'middle', u'right']","[0.8, 0.4, 0.2]","[u'medium', u'high', u'low']","black",50,"middle","high","True","False",720,5950,NA
"ANBWJZYU2A68T","Tue Sep 29 2020 15:45:50 GMT-0400 (Eastern Daylight Time)","Tue Sep 29 2020 15:57:55 GMT-0400 (Eastern Daylight Time)","Mozilla/5.0 (Macintosh; Intel Mac OS X 10_11_6) AppleWebKit/537.36 (KHTML, like Gecko) Chrome/85.0.4183.121 Safari/537.36",95,"[0.9, 0.5, 0.1]","[0.8, 0.4, 0.2]","[u'red', u'black', u'blue']","[u'left', u'middle', u'right']","[0.8, 0.4, 0.2]","[u'medium', u'high', u'low']","black",50,"middle","high","True","False",358,6050,NA
"ANBWJZYU2A68T","Tue Sep 29 2020 15:45:50 GMT-0400 (Eastern Daylight Time)","Tue Sep 29 2020 15:57:55 GMT-0400 (Eastern Daylight Time)","Mozilla/5.0 (Macintosh; Intel Mac OS X 10_11_6) AppleWebKit/537.36 (KHTML, like Gecko) Chrome/85.0.4183.121 Safari/537.36",96,"[0.9, 0.5, 0.1]","[0.8, 0.4, 0.2]","[u'red', u'black', u'blue']","[u'left', u'middle', u'right']","[0.8, 0.4, 0.2]","[u'medium', u'high', u'low']","black",50,"middle","high","True","False",159,6150,NA
"ANBWJZYU2A68T","Tue Sep 29 2020 15:45:50 GMT-0400 (Eastern Daylight Time)","Tue Sep 29 2020 15:57:55 GMT-0400 (Eastern Daylight Time)","Mozilla/5.0 (Macintosh; Intel Mac OS X 10_11_6) AppleWebKit/537.36 (KHTML, like Gecko) Chrome/85.0.4183.121 Safari/537.36",97,"[0.9, 0.5, 0.1]","[0.8, 0.4, 0.2]","[u'red', u'black', u'blue']","[u'left', u'middle', u'right']","[0.8, 0.4, 0.2]","[u'medium', u'high', u'low']","black",50,"middle","high","True","False",340,6250,NA
"ANBWJZYU2A68T","Tue Sep 29 2020 15:45:50 GMT-0400 (Eastern Daylight Time)","Tue Sep 29 2020 15:57:55 GMT-0400 (Eastern Daylight Time)","Mozilla/5.0 (Macintosh; Intel Mac OS X 10_11_6) AppleWebKit/537.36 (KHTML, like Gecko) Chrome/85.0.4183.121 Safari/537.36",98,"[0.9, 0.5, 0.1]","[0.8, 0.4, 0.2]","[u'red', u'black', u'blue']","[u'left', u'middle', u'right']","[0.8, 0.4, 0.2]","[u'medium', u'high', u'low']","black",50,"middle","high","True","False",285,6350,NA
"ANBWJZYU2A68T","Tue Sep 29 2020 15:45:50 GMT-0400 (Eastern Daylight Time)","Tue Sep 29 2020 15:57:55 GMT-0400 (Eastern Daylight Time)","Mozilla/5.0 (Macintosh; Intel Mac OS X 10_11_6) AppleWebKit/537.36 (KHTML, like Gecko) Chrome/85.0.4183.121 Safari/537.36",99,"[0.9, 0.5, 0.1]","[0.8, 0.4, 0.2]","[u'red', u'black', u'blue']","[u'left', u'middle', u'right']","[0.8, 0.4, 0.2]","[u'medium', u'high', u'low']","black",50,"middle","high","False","False",379,6300,NA
"ANBWJZYU2A68T","Tue Sep 29 2020 15:45:50 GMT-0400 (Eastern Daylight Time)","Tue Sep 29 2020 15:57:55 GMT-0400 (Eastern Daylight Time)","Mozilla/5.0 (Macintosh; Intel Mac OS X 10_11_6) AppleWebKit/537.36 (KHTML, like Gecko) Chrome/85.0.4183.121 Safari/537.36",100,"[0.9, 0.5, 0.1]","[0.8, 0.4, 0.2]","[u'red', u'black', u'blue']","[u'left', u'middle', u'right']","[0.8, 0.4, 0.2]","[u'medium', u'high', u'low']","red",49,"left","medium","False","False",391,6250,NA
"ANBWJZYU2A68T","Tue Sep 29 2020 15:45:50 GMT-0400 (Eastern Daylight Time)","Tue Sep 29 2020 15:57:55 GMT-0400 (Eastern Daylight Time)","Mozilla/5.0 (Macintosh; Intel Mac OS X 10_11_6) AppleWebKit/537.36 (KHTML, like Gecko) Chrome/85.0.4183.121 Safari/537.36",101,"[0.9, 0.5, 0.1]","[0.8, 0.4, 0.2]","[u'red', u'black', u'blue']","[u'left', u'middle', u'right']","[0.8, 0.4, 0.2]","[u'medium', u'high', u'low']","blue",51,"right","low","True","False",614,6350,NA
"ANBWJZYU2A68T","Tue Sep 29 2020 15:45:50 GMT-0400 (Eastern Daylight Time)","Tue Sep 29 2020 15:57:55 GMT-0400 (Eastern Daylight Time)","Mozilla/5.0 (Macintosh; Intel Mac OS X 10_11_6) AppleWebKit/537.36 (KHTML, like Gecko) Chrome/85.0.4183.121 Safari/537.36",102,"[0.9, 0.5, 0.1]","[0.8, 0.4, 0.2]","[u'red', u'black', u'blue']","[u'left', u'middle', u'right']","[0.8, 0.4, 0.2]","[u'medium', u'high', u'low']","blue",51,"right","low","False","False",470,6300,NA
"ANBWJZYU2A68T","Tue Sep 29 2020 15:45:50 GMT-0400 (Eastern Daylight Time)","Tue Sep 29 2020 15:57:55 GMT-0400 (Eastern Daylight Time)","Mozilla/5.0 (Macintosh; Intel Mac OS X 10_11_6) AppleWebKit/537.36 (KHTML, like Gecko) Chrome/85.0.4183.121 Safari/537.36",103,"[0.9, 0.5, 0.1]","[0.8, 0.4, 0.2]","[u'red', u'black', u'blue']","[u'left', u'middle', u'right']","[0.8, 0.4, 0.2]","[u'medium', u'high', u'low']","black",50,"middle","high","True","False",35,6400,NA
"ANBWJZYU2A68T","Tue Sep 29 2020 15:45:50 GMT-0400 (Eastern Daylight Time)","Tue Sep 29 2020 15:57:55 GMT-0400 (Eastern Daylight Time)","Mozilla/5.0 (Macintosh; Intel Mac OS X 10_11_6) AppleWebKit/537.36 (KHTML, like Gecko) Chrome/85.0.4183.121 Safari/537.36",104,"[0.9, 0.5, 0.1]","[0.8, 0.4, 0.2]","[u'red', u'black', u'blue']","[u'left', u'middle', u'right']","[0.8, 0.4, 0.2]","[u'medium', u'high', u'low']","black",50,"middle","high","True","False",353,6500,NA
"ANBWJZYU2A68T","Tue Sep 29 2020 15:45:50 GMT-0400 (Eastern Daylight Time)","Tue Sep 29 2020 15:57:55 GMT-0400 (Eastern Daylight Time)","Mozilla/5.0 (Macintosh; Intel Mac OS X 10_11_6) AppleWebKit/537.36 (KHTML, like Gecko) Chrome/85.0.4183.121 Safari/537.36",105,"[0.9, 0.5, 0.1]","[0.8, 0.4, 0.2]","[u'red', u'black', u'blue']","[u'left', u'middle', u'right']","[0.8, 0.4, 0.2]","[u'medium', u'high', u'low']","black",50,"middle","high","True","False",334,6600,NA
"ANBWJZYU2A68T","Tue Sep 29 2020 15:45:50 GMT-0400 (Eastern Daylight Time)","Tue Sep 29 2020 15:57:55 GMT-0400 (Eastern Daylight Time)","Mozilla/5.0 (Macintosh; Intel Mac OS X 10_11_6) AppleWebKit/537.36 (KHTML, like Gecko) Chrome/85.0.4183.121 Safari/537.36",106,"[0.9, 0.5, 0.1]","[0.8, 0.4, 0.2]","[u'red', u'black', u'blue']","[u'left', u'middle', u'right']","[0.8, 0.4, 0.2]","[u'medium', u'high', u'low']","black",50,"middle","high","False","False",287,6550,NA
"ANBWJZYU2A68T","Tue Sep 29 2020 15:45:50 GMT-0400 (Eastern Daylight Time)","Tue Sep 29 2020 15:57:55 GMT-0400 (Eastern Daylight Time)","Mozilla/5.0 (Macintosh; Intel Mac OS X 10_11_6) AppleWebKit/537.36 (KHTML, like Gecko) Chrome/85.0.4183.121 Safari/537.36",107,"[0.9, 0.5, 0.1]","[0.8, 0.4, 0.2]","[u'red', u'black', u'blue']","[u'left', u'middle', u'right']","[0.8, 0.4, 0.2]","[u'medium', u'high', u'low']","red",49,"left","medium","False","False",602,6500,NA
"ANBWJZYU2A68T","Tue Sep 29 2020 15:45:50 GMT-0400 (Eastern Daylight Time)","Tue Sep 29 2020 15:57:55 GMT-0400 (Eastern Daylight Time)","Mozilla/5.0 (Macintosh; Intel Mac OS X 10_11_6) AppleWebKit/537.36 (KHTML, like Gecko) Chrome/85.0.4183.121 Safari/537.36",108,"[0.9, 0.5, 0.1]","[0.8, 0.4, 0.2]","[u'red', u'black', u'blue']","[u'left', u'middle', u'right']","[0.8, 0.4, 0.2]","[u'medium', u'high', u'low']","black",50,"middle","high","True","False",371,6600,NA
"ANBWJZYU2A68T","Tue Sep 29 2020 15:45:50 GMT-0400 (Eastern Daylight Time)","Tue Sep 29 2020 15:57:55 GMT-0400 (Eastern Daylight Time)","Mozilla/5.0 (Macintosh; Intel Mac OS X 10_11_6) AppleWebKit/537.36 (KHTML, like Gecko) Chrome/85.0.4183.121 Safari/537.36",109,"[0.9, 0.5, 0.1]","[0.8, 0.4, 0.2]","[u'red', u'black', u'blue']","[u'left', u'middle', u'right']","[0.8, 0.4, 0.2]","[u'medium', u'high', u'low']","black",50,"middle","high","True","False",450,6700,NA
"ANBWJZYU2A68T","Tue Sep 29 2020 15:45:50 GMT-0400 (Eastern Daylight Time)","Tue Sep 29 2020 15:57:55 GMT-0400 (Eastern Daylight Time)","Mozilla/5.0 (Macintosh; Intel Mac OS X 10_11_6) AppleWebKit/537.36 (KHTML, like Gecko) Chrome/85.0.4183.121 Safari/537.36",110,"[0.9, 0.5, 0.1]","[0.8, 0.4, 0.2]","[u'red', u'black', u'blue']","[u'left', u'middle', u'right']","[0.8, 0.4, 0.2]","[u'medium', u'high', u'low']","black",50,"middle","high","True","False",326,6800,NA
"ANBWJZYU2A68T","Tue Sep 29 2020 15:45:50 GMT-0400 (Eastern Daylight Time)","Tue Sep 29 2020 15:57:55 GMT-0400 (Eastern Daylight Time)","Mozilla/5.0 (Macintosh; Intel Mac OS X 10_11_6) AppleWebKit/537.36 (KHTML, like Gecko) Chrome/85.0.4183.121 Safari/537.36",111,"[0.9, 0.5, 0.1]","[0.8, 0.4, 0.2]","[u'red', u'black', u'blue']","[u'left', u'middle', u'right']","[0.8, 0.4, 0.2]","[u'medium', u'high', u'low']","black",50,"middle","high","True","False",303,6900,NA
"ANBWJZYU2A68T","Tue Sep 29 2020 15:45:50 GMT-0400 (Eastern Daylight Time)","Tue Sep 29 2020 15:57:55 GMT-0400 (Eastern Daylight Time)","Mozilla/5.0 (Macintosh; Intel Mac OS X 10_11_6) AppleWebKit/537.36 (KHTML, like Gecko) Chrome/85.0.4183.121 Safari/537.36",112,"[0.9, 0.5, 0.1]","[0.8, 0.4, 0.2]","[u'red', u'black', u'blue']","[u'left', u'middle', u'right']","[0.8, 0.4, 0.2]","[u'medium', u'high', u'low']","black",50,"middle","high","True","True",271,7000,NA
"ANBWJZYU2A68T","Tue Sep 29 2020 15:45:50 GMT-0400 (Eastern Daylight Time)","Tue Sep 29 2020 15:57:55 GMT-0400 (Eastern Daylight Time)","Mozilla/5.0 (Macintosh; Intel Mac OS X 10_11_6) AppleWebKit/537.36 (KHTML, like Gecko) Chrome/85.0.4183.121 Safari/537.36",113,"[0.9, 0.5, 0.1]","[0.8, 0.4, 0.2]","[u'red', u'black', u'blue']","[u'left', u'middle', u'right']","[0.8, 0.4, 0.2]","[u'high', u'low', u'medium']","black",50,"middle","low","False","False",347,6950,NA
"ANBWJZYU2A68T","Tue Sep 29 2020 15:45:50 GMT-0400 (Eastern Daylight Time)","Tue Sep 29 2020 15:57:55 GMT-0400 (Eastern Daylight Time)","Mozilla/5.0 (Macintosh; Intel Mac OS X 10_11_6) AppleWebKit/537.36 (KHTML, like Gecko) Chrome/85.0.4183.121 Safari/537.36",114,"[0.9, 0.5, 0.1]","[0.8, 0.4, 0.2]","[u'red', u'black', u'blue']","[u'left', u'middle', u'right']","[0.8, 0.4, 0.2]","[u'high', u'low', u'medium']","black",50,"middle","low","False","False",31,6900,NA
"ANBWJZYU2A68T","Tue Sep 29 2020 15:45:50 GMT-0400 (Eastern Daylight Time)","Tue Sep 29 2020 15:57:55 GMT-0400 (Eastern Daylight Time)","Mozilla/5.0 (Macintosh; Intel Mac OS X 10_11_6) AppleWebKit/537.36 (KHTML, like Gecko) Chrome/85.0.4183.121 Safari/537.36",115,"[0.9, 0.5, 0.1]","[0.8, 0.4, 0.2]","[u'red', u'black', u'blue']","[u'left', u'middle', u'right']","[0.8, 0.4, 0.2]","[u'high', u'low', u'medium']","blue",51,"right","medium","True","False",360,7000,NA
"ANBWJZYU2A68T","Tue Sep 29 2020 15:45:50 GMT-0400 (Eastern Daylight Time)","Tue Sep 29 2020 15:57:55 GMT-0400 (Eastern Daylight Time)","Mozilla/5.0 (Macintosh; Intel Mac OS X 10_11_6) AppleWebKit/537.36 (KHTML, like Gecko) Chrome/85.0.4183.121 Safari/537.36",116,"[0.9, 0.5, 0.1]","[0.8, 0.4, 0.2]","[u'red', u'black', u'blue']","[u'left', u'middle', u'right']","[0.8, 0.4, 0.2]","[u'high', u'low', u'medium']","blue",51,"right","medium","False","False",486,6950,NA
"ANBWJZYU2A68T","Tue Sep 29 2020 15:45:50 GMT-0400 (Eastern Daylight Time)","Tue Sep 29 2020 15:57:55 GMT-0400 (Eastern Daylight Time)","Mozilla/5.0 (Macintosh; Intel Mac OS X 10_11_6) AppleWebKit/537.36 (KHTML, like Gecko) Chrome/85.0.4183.121 Safari/537.36",117,"[0.9, 0.5, 0.1]","[0.8, 0.4, 0.2]","[u'red', u'black', u'blue']","[u'left', u'middle', u'right']","[0.8, 0.4, 0.2]","[u'high', u'low', u'medium']","black",50,"middle","low","False","False",287,6900,NA
"ANBWJZYU2A68T","Tue Sep 29 2020 15:45:50 GMT-0400 (Eastern Daylight Time)","Tue Sep 29 2020 15:57:55 GMT-0400 (Eastern Daylight Time)","Mozilla/5.0 (Macintosh; Intel Mac OS X 10_11_6) AppleWebKit/537.36 (KHTML, like Gecko) Chrome/85.0.4183.121 Safari/537.36",118,"[0.9, 0.5, 0.1]","[0.8, 0.4, 0.2]","[u'red', u'black', u'blue']","[u'left', u'middle', u'right']","[0.8, 0.4, 0.2]","[u'high', u'low', u'medium']","red",49,"left","high","True","False",342,7000,NA
"ANBWJZYU2A68T","Tue Sep 29 2020 15:45:50 GMT-0400 (Eastern Daylight Time)","Tue Sep 29 2020 15:57:55 GMT-0400 (Eastern Daylight Time)","Mozilla/5.0 (Macintosh; Intel Mac OS X 10_11_6) AppleWebKit/537.36 (KHTML, like Gecko) Chrome/85.0.4183.121 Safari/537.36",119,"[0.9, 0.5, 0.1]","[0.8, 0.4, 0.2]","[u'red', u'black', u'blue']","[u'left', u'middle', u'right']","[0.8, 0.4, 0.2]","[u'high', u'low', u'medium']","red",49,"left","high","True","False",510,7100,NA
"ANBWJZYU2A68T","Tue Sep 29 2020 15:45:50 GMT-0400 (Eastern Daylight Time)","Tue Sep 29 2020 15:57:55 GMT-0400 (Eastern Daylight Time)","Mozilla/5.0 (Macintosh; Intel Mac OS X 10_11_6) AppleWebKit/537.36 (KHTML, like Gecko) Chrome/85.0.4183.121 Safari/537.36",120,"[0.9, 0.5, 0.1]","[0.8, 0.4, 0.2]","[u'red', u'black', u'blue']","[u'left', u'middle', u'right']","[0.8, 0.4, 0.2]","[u'high', u'low', u'medium']","red",49,"left","high","True","False",334,7200,NA
"ANBWJZYU2A68T","Tue Sep 29 2020 15:45:50 GMT-0400 (Eastern Daylight Time)","Tue Sep 29 2020 15:57:55 GMT-0400 (Eastern Daylight Time)","Mozilla/5.0 (Macintosh; Intel Mac OS X 10_11_6) AppleWebKit/537.36 (KHTML, like Gecko) Chrome/85.0.4183.121 Safari/537.36",121,"[0.9, 0.5, 0.1]","[0.8, 0.4, 0.2]","[u'red', u'black', u'blue']","[u'left', u'middle', u'right']","[0.8, 0.4, 0.2]","[u'low', u'medium', u'high']","blue",51,"right","high","False","False",1486,7150,NA
"ANBWJZYU2A68T","Tue Sep 29 2020 15:45:50 GMT-0400 (Eastern Daylight Time)","Tue Sep 29 2020 15:57:55 GMT-0400 (Eastern Daylight Time)","Mozilla/5.0 (Macintosh; Intel Mac OS X 10_11_6) AppleWebKit/537.36 (KHTML, like Gecko) Chrome/85.0.4183.121 Safari/537.36",122,"[0.9, 0.5, 0.1]","[0.8, 0.4, 0.2]","[u'red', u'black', u'blue']","[u'left', u'middle', u'right']","[0.8, 0.4, 0.2]","[u'low', u'medium', u'high']","black",50,"middle","medium","True","False",463,7250,NA
"ANBWJZYU2A68T","Tue Sep 29 2020 15:45:50 GMT-0400 (Eastern Daylight Time)","Tue Sep 29 2020 15:57:55 GMT-0400 (Eastern Daylight Time)","Mozilla/5.0 (Macintosh; Intel Mac OS X 10_11_6) AppleWebKit/537.36 (KHTML, like Gecko) Chrome/85.0.4183.121 Safari/537.36",123,"[0.9, 0.5, 0.1]","[0.8, 0.4, 0.2]","[u'red', u'black', u'blue']","[u'left', u'middle', u'right']","[0.8, 0.4, 0.2]","[u'low', u'medium', u'high']","black",50,"middle","medium","True","False",496,7350,NA
"ANBWJZYU2A68T","Tue Sep 29 2020 15:45:50 GMT-0400 (Eastern Daylight Time)","Tue Sep 29 2020 15:57:55 GMT-0400 (Eastern Daylight Time)","Mozilla/5.0 (Macintosh; Intel Mac OS X 10_11_6) AppleWebKit/537.36 (KHTML, like Gecko) Chrome/85.0.4183.121 Safari/537.36",124,"[0.9, 0.5, 0.1]","[0.8, 0.4, 0.2]","[u'red', u'black', u'blue']","[u'left', u'middle', u'right']","[0.8, 0.4, 0.2]","[u'low', u'medium', u'high']","black",50,"middle","medium","False","False",554,7300,NA
"ANBWJZYU2A68T","Tue Sep 29 2020 15:45:50 GMT-0400 (Eastern Daylight Time)","Tue Sep 29 2020 15:57:55 GMT-0400 (Eastern Daylight Time)","Mozilla/5.0 (Macintosh; Intel Mac OS X 10_11_6) AppleWebKit/537.36 (KHTML, like Gecko) Chrome/85.0.4183.121 Safari/537.36",125,"[0.9, 0.5, 0.1]","[0.8, 0.4, 0.2]","[u'red', u'black', u'blue']","[u'left', u'middle', u'right']","[0.8, 0.4, 0.2]","[u'low', u'medium', u'high']","blue",51,"right","high","True","False",616,7400,NA
"ANBWJZYU2A68T","Tue Sep 29 2020 15:45:50 GMT-0400 (Eastern Daylight Time)","Tue Sep 29 2020 15:57:55 GMT-0400 (Eastern Daylight Time)","Mozilla/5.0 (Macintosh; Intel Mac OS X 10_11_6) AppleWebKit/537.36 (KHTML, like Gecko) Chrome/85.0.4183.121 Safari/537.36",126,"[0.9, 0.5, 0.1]","[0.8, 0.4, 0.2]","[u'red', u'black', u'blue']","[u'left', u'middle', u'right']","[0.8, 0.4, 0.2]","[u'low', u'medium', u'high']","blue",51,"right","high","True","False",342,7500,NA
"ANBWJZYU2A68T","Tue Sep 29 2020 15:45:50 GMT-0400 (Eastern Daylight Time)","Tue Sep 29 2020 15:57:55 GMT-0400 (Eastern Daylight Time)","Mozilla/5.0 (Macintosh; Intel Mac OS X 10_11_6) AppleWebKit/537.36 (KHTML, like Gecko) Chrome/85.0.4183.121 Safari/537.36",127,"[0.9, 0.5, 0.1]","[0.8, 0.4, 0.2]","[u'red', u'black', u'blue']","[u'left', u'middle', u'right']","[0.8, 0.4, 0.2]","[u'low', u'medium', u'high']","blue",51,"right","high","False","False",330,7450,NA
"ANBWJZYU2A68T","Tue Sep 29 2020 15:45:50 GMT-0400 (Eastern Daylight Time)","Tue Sep 29 2020 15:57:55 GMT-0400 (Eastern Daylight Time)","Mozilla/5.0 (Macintosh; Intel Mac OS X 10_11_6) AppleWebKit/537.36 (KHTML, like Gecko) Chrome/85.0.4183.121 Safari/537.36",128,"[0.9, 0.5, 0.1]","[0.8, 0.4, 0.2]","[u'red', u'black', u'blue']","[u'left', u'middle', u'right']","[0.8, 0.4, 0.2]","[u'low', u'medium', u'high']","black",50,"middle","medium","False","False",467,7400,NA
"ANBWJZYU2A68T","Tue Sep 29 2020 15:45:50 GMT-0400 (Eastern Daylight Time)","Tue Sep 29 2020 15:57:55 GMT-0400 (Eastern Daylight Time)","Mozilla/5.0 (Macintosh; Intel Mac OS X 10_11_6) AppleWebKit/537.36 (KHTML, like Gecko) Chrome/85.0.4183.121 Safari/537.36",129,"[0.9, 0.5, 0.1]","[0.8, 0.4, 0.2]","[u'red', u'black', u'blue']","[u'left', u'middle', u'right']","[0.8, 0.4, 0.2]","[u'low', u'medium', u'high']","red",49,"left","low","False","False",254,7350,NA
"ANBWJZYU2A68T","Tue Sep 29 2020 15:45:50 GMT-0400 (Eastern Daylight Time)","Tue Sep 29 2020 15:57:55 GMT-0400 (Eastern Daylight Time)","Mozilla/5.0 (Macintosh; Intel Mac OS X 10_11_6) AppleWebKit/537.36 (KHTML, like Gecko) Chrome/85.0.4183.121 Safari/537.36",130,"[0.9, 0.5, 0.1]","[0.8, 0.4, 0.2]","[u'red', u'black', u'blue']","[u'left', u'middle', u'right']","[0.8, 0.4, 0.2]","[u'low', u'medium', u'high']","black",50,"middle","medium","False","False",344,7300,NA
"ANBWJZYU2A68T","Tue Sep 29 2020 15:45:50 GMT-0400 (Eastern Daylight Time)","Tue Sep 29 2020 15:57:55 GMT-0400 (Eastern Daylight Time)","Mozilla/5.0 (Macintosh; Intel Mac OS X 10_11_6) AppleWebKit/537.36 (KHTML, like Gecko) Chrome/85.0.4183.121 Safari/537.36",131,"[0.9, 0.5, 0.1]","[0.8, 0.4, 0.2]","[u'red', u'black', u'blue']","[u'left', u'middle', u'right']","[0.8, 0.4, 0.2]","[u'low', u'medium', u'high']","blue",51,"right","high","True","False",344,7400,NA
"ANBWJZYU2A68T","Tue Sep 29 2020 15:45:50 GMT-0400 (Eastern Daylight Time)","Tue Sep 29 2020 15:57:55 GMT-0400 (Eastern Daylight Time)","Mozilla/5.0 (Macintosh; Intel Mac OS X 10_11_6) AppleWebKit/537.36 (KHTML, like Gecko) Chrome/85.0.4183.121 Safari/537.36",132,"[0.9, 0.5, 0.1]","[0.8, 0.4, 0.2]","[u'red', u'black', u'blue']","[u'left', u'middle', u'right']","[0.8, 0.4, 0.2]","[u'low', u'medium', u'high']","blue",51,"right","high","True","False",429,7500,NA
"ANBWJZYU2A68T","Tue Sep 29 2020 15:45:50 GMT-0400 (Eastern Daylight Time)","Tue Sep 29 2020 15:57:55 GMT-0400 (Eastern Daylight Time)","Mozilla/5.0 (Macintosh; Intel Mac OS X 10_11_6) AppleWebKit/537.36 (KHTML, like Gecko) Chrome/85.0.4183.121 Safari/537.36",133,"[0.9, 0.5, 0.1]","[0.8, 0.4, 0.2]","[u'red', u'black', u'blue']","[u'left', u'middle', u'right']","[0.8, 0.4, 0.2]","[u'low', u'medium', u'high']","blue",51,"right","high","True","False",326,7600,NA
"ANBWJZYU2A68T","Tue Sep 29 2020 15:45:50 GMT-0400 (Eastern Daylight Time)","Tue Sep 29 2020 15:57:55 GMT-0400 (Eastern Daylight Time)","Mozilla/5.0 (Macintosh; Intel Mac OS X 10_11_6) AppleWebKit/537.36 (KHTML, like Gecko) Chrome/85.0.4183.121 Safari/537.36",134,"[0.9, 0.5, 0.1]","[0.8, 0.4, 0.2]","[u'red', u'black', u'blue']","[u'left', u'middle', u'right']","[0.8, 0.4, 0.2]","[u'low', u'medium', u'high']","blue",51,"right","high","True","False",366,7700,NA
"ANBWJZYU2A68T","Tue Sep 29 2020 15:45:50 GMT-0400 (Eastern Daylight Time)","Tue Sep 29 2020 15:57:55 GMT-0400 (Eastern Daylight Time)","Mozilla/5.0 (Macintosh; Intel Mac OS X 10_11_6) AppleWebKit/537.36 (KHTML, like Gecko) Chrome/85.0.4183.121 Safari/537.36",135,"[0.9, 0.5, 0.1]","[0.8, 0.4, 0.2]","[u'red', u'black', u'blue']","[u'left', u'middle', u'right']","[0.8, 0.4, 0.2]","[u'low', u'medium', u'high']","blue",51,"right","high","True","False",344,7800,NA
"ANBWJZYU2A68T","Tue Sep 29 2020 15:45:50 GMT-0400 (Eastern Daylight Time)","Tue Sep 29 2020 15:57:55 GMT-0400 (Eastern Daylight Time)","Mozilla/5.0 (Macintosh; Intel Mac OS X 10_11_6) AppleWebKit/537.36 (KHTML, like Gecko) Chrome/85.0.4183.121 Safari/537.36",136,"[0.9, 0.5, 0.1]","[0.8, 0.4, 0.2]","[u'red', u'black', u'blue']","[u'left', u'middle', u'right']","[0.8, 0.4, 0.2]","[u'low', u'medium', u'high']","blue",51,"right","high","True","False",391,7900,NA
"ANBWJZYU2A68T","Tue Sep 29 2020 15:45:50 GMT-0400 (Eastern Daylight Time)","Tue Sep 29 2020 15:57:55 GMT-0400 (Eastern Daylight Time)","Mozilla/5.0 (Macintosh; Intel Mac OS X 10_11_6) AppleWebKit/537.36 (KHTML, like Gecko) Chrome/85.0.4183.121 Safari/537.36",137,"[0.9, 0.5, 0.1]","[0.8, 0.4, 0.2]","[u'red', u'black', u'blue']","[u'left', u'middle', u'right']","[0.8, 0.4, 0.2]","[u'low', u'medium', u'high']","blue",51,"right","high","True","False",807,8000,NA
"ANBWJZYU2A68T","Tue Sep 29 2020 15:45:50 GMT-0400 (Eastern Daylight Time)","Tue Sep 29 2020 15:57:55 GMT-0400 (Eastern Daylight Time)","Mozilla/5.0 (Macintosh; Intel Mac OS X 10_11_6) AppleWebKit/537.36 (KHTML, like Gecko) Chrome/85.0.4183.121 Safari/537.36",138,"[0.9, 0.5, 0.1]","[0.8, 0.4, 0.2]","[u'red', u'black', u'blue']","[u'left', u'middle', u'right']","[0.8, 0.4, 0.2]","[u'low', u'medium', u'high']","blue",51,"right","high","True","False",432,8100,NA
"ANBWJZYU2A68T","Tue Sep 29 2020 15:45:50 GMT-0400 (Eastern Daylight Time)","Tue Sep 29 2020 15:57:55 GMT-0400 (Eastern Daylight Time)","Mozilla/5.0 (Macintosh; Intel Mac OS X 10_11_6) AppleWebKit/537.36 (KHTML, like Gecko) Chrome/85.0.4183.121 Safari/537.36",139,"[0.9, 0.5, 0.1]","[0.8, 0.4, 0.2]","[u'red', u'black', u'blue']","[u'left', u'middle', u'right']","[0.8, 0.4, 0.2]","[u'low', u'medium', u'high']","blue",51,"right","high","True","True",447,8200,NA
"ANBWJZYU2A68T","Tue Sep 29 2020 15:45:50 GMT-0400 (Eastern Daylight Time)","Tue Sep 29 2020 15:57:55 GMT-0400 (Eastern Daylight Time)","Mozilla/5.0 (Macintosh; Intel Mac OS X 10_11_6) AppleWebKit/537.36 (KHTML, like Gecko) Chrome/85.0.4183.121 Safari/537.36",140,"[0.9, 0.5, 0.1]","[0.8, 0.4, 0.2]","[u'red', u'black', u'blue']","[u'left', u'middle', u'right']","[0.8, 0.4, 0.2]","[u'medium', u'high', u'low']","blue",51,"right","low","False","False",431,8150,NA
"ANBWJZYU2A68T","Tue Sep 29 2020 15:45:50 GMT-0400 (Eastern Daylight Time)","Tue Sep 29 2020 15:57:55 GMT-0400 (Eastern Daylight Time)","Mozilla/5.0 (Macintosh; Intel Mac OS X 10_11_6) AppleWebKit/537.36 (KHTML, like Gecko) Chrome/85.0.4183.121 Safari/537.36",141,"[0.9, 0.5, 0.1]","[0.8, 0.4, 0.2]","[u'red', u'black', u'blue']","[u'left', u'middle', u'right']","[0.8, 0.4, 0.2]","[u'medium', u'high', u'low']","red",49,"left","medium","False","False",384,8100,NA
"ANBWJZYU2A68T","Tue Sep 29 2020 15:45:50 GMT-0400 (Eastern Daylight Time)","Tue Sep 29 2020 15:57:55 GMT-0400 (Eastern Daylight Time)","Mozilla/5.0 (Macintosh; Intel Mac OS X 10_11_6) AppleWebKit/537.36 (KHTML, like Gecko) Chrome/85.0.4183.121 Safari/537.36",142,"[0.9, 0.5, 0.1]","[0.8, 0.4, 0.2]","[u'red', u'black', u'blue']","[u'left', u'middle', u'right']","[0.8, 0.4, 0.2]","[u'medium', u'high', u'low']","blue",51,"right","low","False","False",353,8050,NA
"ANBWJZYU2A68T","Tue Sep 29 2020 15:45:50 GMT-0400 (Eastern Daylight Time)","Tue Sep 29 2020 15:57:55 GMT-0400 (Eastern Daylight Time)","Mozilla/5.0 (Macintosh; Intel Mac OS X 10_11_6) AppleWebKit/537.36 (KHTML, like Gecko) Chrome/85.0.4183.121 Safari/537.36",143,"[0.9, 0.5, 0.1]","[0.8, 0.4, 0.2]","[u'red', u'black', u'blue']","[u'left', u'middle', u'right']","[0.8, 0.4, 0.2]","[u'medium', u'high', u'low']","black",50,"middle","high","True","False",308,8150,NA
"ANBWJZYU2A68T","Tue Sep 29 2020 15:45:50 GMT-0400 (Eastern Daylight Time)","Tue Sep 29 2020 15:57:55 GMT-0400 (Eastern Daylight Time)","Mozilla/5.0 (Macintosh; Intel Mac OS X 10_11_6) AppleWebKit/537.36 (KHTML, like Gecko) Chrome/85.0.4183.121 Safari/537.36",144,"[0.9, 0.5, 0.1]","[0.8, 0.4, 0.2]","[u'red', u'black', u'blue']","[u'left', u'middle', u'right']","[0.8, 0.4, 0.2]","[u'medium', u'high', u'low']","black",50,"middle","high","False","False",447,8100,NA
"ANBWJZYU2A68T","Tue Sep 29 2020 15:45:50 GMT-0400 (Eastern Daylight Time)","Tue Sep 29 2020 15:57:55 GMT-0400 (Eastern Daylight Time)","Mozilla/5.0 (Macintosh; Intel Mac OS X 10_11_6) AppleWebKit/537.36 (KHTML, like Gecko) Chrome/85.0.4183.121 Safari/537.36",145,"[0.9, 0.5, 0.1]","[0.8, 0.4, 0.2]","[u'red', u'black', u'blue']","[u'left', u'middle', u'right']","[0.8, 0.4, 0.2]","[u'medium', u'high', u'low']","blue",51,"right","low","False","False",321,8050,NA
"ANBWJZYU2A68T","Tue Sep 29 2020 15:45:50 GMT-0400 (Eastern Daylight Time)","Tue Sep 29 2020 15:57:55 GMT-0400 (Eastern Daylight Time)","Mozilla/5.0 (Macintosh; Intel Mac OS X 10_11_6) AppleWebKit/537.36 (KHTML, like Gecko) Chrome/85.0.4183.121 Safari/537.36",146,"[0.9, 0.5, 0.1]","[0.8, 0.4, 0.2]","[u'red', u'black', u'blue']","[u'left', u'middle', u'right']","[0.8, 0.4, 0.2]","[u'medium', u'high', u'low']","red",49,"left","medium","False","False",346,8000,NA
"ANBWJZYU2A68T","Tue Sep 29 2020 15:45:50 GMT-0400 (Eastern Daylight Time)","Tue Sep 29 2020 15:57:55 GMT-0400 (Eastern Daylight Time)","Mozilla/5.0 (Macintosh; Intel Mac OS X 10_11_6) AppleWebKit/537.36 (KHTML, like Gecko) Chrome/85.0.4183.121 Safari/537.36",147,"[0.9, 0.5, 0.1]","[0.8, 0.4, 0.2]","[u'red', u'black', u'blue']","[u'left', u'middle', u'right']","[0.8, 0.4, 0.2]","[u'medium', u'high', u'low']","black",50,"middle","high","True","False",126,8100,NA
"ANBWJZYU2A68T","Tue Sep 29 2020 15:45:50 GMT-0400 (Eastern Daylight Time)","Tue Sep 29 2020 15:57:55 GMT-0400 (Eastern Daylight Time)","Mozilla/5.0 (Macintosh; Intel Mac OS X 10_11_6) AppleWebKit/537.36 (KHTML, like Gecko) Chrome/85.0.4183.121 Safari/537.36",148,"[0.9, 0.5, 0.1]","[0.8, 0.4, 0.2]","[u'red', u'black', u'blue']","[u'left', u'middle', u'right']","[0.8, 0.4, 0.2]","[u'medium', u'high', u'low']","black",50,"middle","high","True","False",318,8200,NA
"ANBWJZYU2A68T","Tue Sep 29 2020 15:45:50 GMT-0400 (Eastern Daylight Time)","Tue Sep 29 2020 15:57:55 GMT-0400 (Eastern Daylight Time)","Mozilla/5.0 (Macintosh; Intel Mac OS X 10_11_6) AppleWebKit/537.36 (KHTML, like Gecko) Chrome/85.0.4183.121 Safari/537.36",149,"[0.9, 0.5, 0.1]","[0.8, 0.4, 0.2]","[u'red', u'black', u'blue']","[u'left', u'middle', u'right']","[0.8, 0.4, 0.2]","[u'medium', u'high', u'low']","black",50,"middle","high","False","False",482,8150,NA
"ANBWJZYU2A68T","Tue Sep 29 2020 15:45:50 GMT-0400 (Eastern Daylight Time)","Tue Sep 29 2020 15:57:55 GMT-0400 (Eastern Daylight Time)","Mozilla/5.0 (Macintosh; Intel Mac OS X 10_11_6) AppleWebKit/537.36 (KHTML, like Gecko) Chrome/85.0.4183.121 Safari/537.36",150,"[0.9, 0.5, 0.1]","[0.8, 0.4, 0.2]","[u'red', u'black', u'blue']","[u'left', u'middle', u'right']","[0.8, 0.4, 0.2]","[u'medium', u'high', u'low']","red",49,"left","medium","False","False",343,8100,NA
"ANBWJZYU2A68T","Tue Sep 29 2020 15:45:50 GMT-0400 (Eastern Daylight Time)","Tue Sep 29 2020 15:57:55 GMT-0400 (Eastern Daylight Time)","Mozilla/5.0 (Macintosh; Intel Mac OS X 10_11_6) AppleWebKit/537.36 (KHTML, like Gecko) Chrome/85.0.4183.121 Safari/537.36",151,"[0.9, 0.5, 0.1]","[0.8, 0.4, 0.2]","[u'red', u'black', u'blue']","[u'left', u'middle', u'right']","[0.8, 0.4, 0.2]","[u'medium', u'high', u'low']","black",50,"middle","high","True","False",294,8200,NA
"ANBWJZYU2A68T","Tue Sep 29 2020 15:45:50 GMT-0400 (Eastern Daylight Time)","Tue Sep 29 2020 15:57:55 GMT-0400 (Eastern Daylight Time)","Mozilla/5.0 (Macintosh; Intel Mac OS X 10_11_6) AppleWebKit/537.36 (KHTML, like Gecko) Chrome/85.0.4183.121 Safari/537.36",152,"[0.9, 0.5, 0.1]","[0.8, 0.4, 0.2]","[u'red', u'black', u'blue']","[u'left', u'middle', u'right']","[0.8, 0.4, 0.2]","[u'medium', u'high', u'low']","black",50,"middle","high","True","False",150,8300,NA
"ANBWJZYU2A68T","Tue Sep 29 2020 15:45:50 GMT-0400 (Eastern Daylight Time)","Tue Sep 29 2020 15:57:55 GMT-0400 (Eastern Daylight Time)","Mozilla/5.0 (Macintosh; Intel Mac OS X 10_11_6) AppleWebKit/537.36 (KHTML, like Gecko) Chrome/85.0.4183.121 Safari/537.36",153,"[0.9, 0.5, 0.1]","[0.8, 0.4, 0.2]","[u'red', u'black', u'blue']","[u'left', u'middle', u'right']","[0.8, 0.4, 0.2]","[u'medium', u'high', u'low']","black",50,"middle","high","True","False",302,8400,NA
"ANBWJZYU2A68T","Tue Sep 29 2020 15:45:50 GMT-0400 (Eastern Daylight Time)","Tue Sep 29 2020 15:57:55 GMT-0400 (Eastern Daylight Time)","Mozilla/5.0 (Macintosh; Intel Mac OS X 10_11_6) AppleWebKit/537.36 (KHTML, like Gecko) Chrome/85.0.4183.121 Safari/537.36",154,"[0.9, 0.5, 0.1]","[0.8, 0.4, 0.2]","[u'red', u'black', u'blue']","[u'left', u'middle', u'right']","[0.8, 0.4, 0.2]","[u'medium', u'high', u'low']","black",50,"middle","high","True","False",335,8500,NA
"ANBWJZYU2A68T","Tue Sep 29 2020 15:45:50 GMT-0400 (Eastern Daylight Time)","Tue Sep 29 2020 15:57:55 GMT-0400 (Eastern Daylight Time)","Mozilla/5.0 (Macintosh; Intel Mac OS X 10_11_6) AppleWebKit/537.36 (KHTML, like Gecko) Chrome/85.0.4183.121 Safari/537.36",155,"[0.9, 0.5, 0.1]","[0.8, 0.4, 0.2]","[u'red', u'black', u'blue']","[u'left', u'middle', u'right']","[0.8, 0.4, 0.2]","[u'medium', u'high', u'low']","black",50,"middle","high","True","False",292,8600,NA
"ANBWJZYU2A68T","Tue Sep 29 2020 15:45:50 GMT-0400 (Eastern Daylight Time)","Tue Sep 29 2020 15:57:55 GMT-0400 (Eastern Daylight Time)","Mozilla/5.0 (Macintosh; Intel Mac OS X 10_11_6) AppleWebKit/537.36 (KHTML, like Gecko) Chrome/85.0.4183.121 Safari/537.36",156,"[0.9, 0.5, 0.1]","[0.8, 0.4, 0.2]","[u'red', u'black', u'blue']","[u'left', u'middle', u'right']","[0.8, 0.4, 0.2]","[u'medium', u'high', u'low']","black",50,"middle","high","True","True",310,8700,NA
"ANBWJZYU2A68T","Tue Sep 29 2020 15:45:50 GMT-0400 (Eastern Daylight Time)","Tue Sep 29 2020 15:57:55 GMT-0400 (Eastern Daylight Time)","Mozilla/5.0 (Macintosh; Intel Mac OS X 10_11_6) AppleWebKit/537.36 (KHTML, like Gecko) Chrome/85.0.4183.121 Safari/537.36",157,"[0.9, 0.5, 0.1]","[0.8, 0.4, 0.2]","[u'red', u'black', u'blue']","[u'left', u'middle', u'right']","[0.8, 0.4, 0.2]","[u'medium', u'low', u'high']","black",50,"middle","low","True","False",439,8800,NA
"ANBWJZYU2A68T","Tue Sep 29 2020 15:45:50 GMT-0400 (Eastern Daylight Time)","Tue Sep 29 2020 15:57:55 GMT-0400 (Eastern Daylight Time)","Mozilla/5.0 (Macintosh; Intel Mac OS X 10_11_6) AppleWebKit/537.36 (KHTML, like Gecko) Chrome/85.0.4183.121 Safari/537.36",158,"[0.9, 0.5, 0.1]","[0.8, 0.4, 0.2]","[u'red', u'black', u'blue']","[u'left', u'middle', u'right']","[0.8, 0.4, 0.2]","[u'medium', u'low', u'high']","black",50,"middle","low","True","False",334,8900,NA
"ANBWJZYU2A68T","Tue Sep 29 2020 15:45:50 GMT-0400 (Eastern Daylight Time)","Tue Sep 29 2020 15:57:55 GMT-0400 (Eastern Daylight Time)","Mozilla/5.0 (Macintosh; Intel Mac OS X 10_11_6) AppleWebKit/537.36 (KHTML, like Gecko) Chrome/85.0.4183.121 Safari/537.36",159,"[0.9, 0.5, 0.1]","[0.8, 0.4, 0.2]","[u'red', u'black', u'blue']","[u'left', u'middle', u'right']","[0.8, 0.4, 0.2]","[u'medium', u'low', u'high']","black",50,"middle","low","False","False",399,8850,NA
"ANBWJZYU2A68T","Tue Sep 29 2020 15:45:50 GMT-0400 (Eastern Daylight Time)","Tue Sep 29 2020 15:57:55 GMT-0400 (Eastern Daylight Time)","Mozilla/5.0 (Macintosh; Intel Mac OS X 10_11_6) AppleWebKit/537.36 (KHTML, like Gecko) Chrome/85.0.4183.121 Safari/537.36",160,"[0.9, 0.5, 0.1]","[0.8, 0.4, 0.2]","[u'red', u'black', u'blue']","[u'left', u'middle', u'right']","[0.8, 0.4, 0.2]","[u'medium', u'low', u'high']","blue",51,"right","high","True","False",427,8950,NA
